pid_x,pid_y,pid_z,front_left_speed,front_right_speed,back_left_speed,back_right_speed,orientation_x,orientation_y,orientation_z,acceleration_x,acceleration_y,acceleration_z,accel_rejected,mag_rejected,gyro_x,gyro_y,gyro_z,accel_x,accel_y,accel_z,mag_x,mag_y,mag_z
-0.291207,0,0,5.29121,5.29121,5,5,0.485345,-0.047839,-0.227489,0.0341659,-0.426001,0.0714587,0,0,3.78,-113.243,-1.855,-0.006832,-0.421876,-0.941718,-0.05334,0.24262,0.3318
-0.575386,0,0,5.57539,5.57539,5,5,0.958976,-0.0859835,-0.459068,0.0394481,-0.414438,0.0720915,0,0,3.6575,-113.19,-1.9075,-0.002196,-0.418582,-0.940986,-0.05334,0.24262,0.3318
-0.855162,0,0,5.85516,5.85516,5,5,1.42527,-0.128314,-0.690074,0.0362994,-0.406301,0.0732732,0,0,3.955,-113.155,-1.7675,-0.0061,-0.418582,-0.939644,-0.0532,0.24402,0.32536
-1.12958,0,0,6.12958,6.12958,5,5,1.88263,-0.168131,-0.918875,0.0366298,-0.401498,0.0649264,0,0,3.955,-113.085,-1.6975,-0.006466,-0.421754,-0.947696,-0.0532,0.24402,0.32536
-1.40021,0,0,6.40021,6.40021,5,5,2.33369,-0.206165,-1.14581,0.0368077,-0.392776,0.0716427,0,0,3.815,-113.365,-1.75,-0.006954,-0.4209,-0.940742,-0.0532,0.24402,0.32536
-1.66651,0,0,6.66651,6.66651,5,5,2.77751,-0.243279,-1.3696,0.0361191,-0.386503,0.0700653,0,0,3.885,-113.418,-1.715,-0.008296,-0.422364,-0.941962,-0.0532,0.24402,0.32536
-1.92652,0,0,6.92652,6.92652,5,5,3.21087,-0.274334,-1.59406,0.038362,-0.375897,0.0706514,0,0,3.955,-113.155,-1.7675,-0.006588,-0.419314,-0.940986,-0.0532,0.24402,0.32536
-2.18316,0,0,7.18316,7.18316,5,5,3.63861,-0.302675,-1.81725,0.0393425,-0.370033,0.0722931,0,0,3.92,-113.278,-1.7675,-0.0061,-0.4209,-0.938912,-0.0532,0.24402,0.32536
-2.43604,0,0,7.43604,7.43604,5,5,4.06007,-0.326775,-2.03999,0.041221,-0.365136,0.0711822,0,0,3.815,-113.173,-1.785,-0.004636,-0.42334,-0.939522,-0.0532,0.24402,0.32536
-2.68352,0,0,7.68352,7.68352,5,5,4.47254,-0.350032,-2.25633,0.0396831,-0.357225,0.0695377,0,0,3.815,-113.278,-1.855,-0.006588,-0.422608,-0.94062,-0.0504,0.2436,0.33292
-2.92725,0,0,7.92725,7.92725,5,5,4.87876,-0.36799,-2.47337,0.0424262,-0.35138,0.0696955,0,0,3.7975,-113.26,-1.8025,-0.004148,-0.423828,-0.939888,-0.0504,0.2436,0.33292
-3.16611,0,0,8.16611,8.16611,5,5,5.27685,-0.387225,-2.68568,0.0398463,-0.344093,0.0684636,0,0,3.7975,-113.12,-1.855,-0.007076,-0.423462,-0.940498,-0.0504,0.2436,0.33292
-3.40003,0,0,8.40003,8.40003,5,5,5.66671,-0.399744,-2.89997,0.0434664,-0.335366,0.0701494,0,0,3.8675,-113.26,-1.7675,-0.00366,-0.42151,-0.93818,-0.0504,0.2436,0.33292
-3.6299,0,0,8.6299,8.6299,5,5,6.04984,-0.412798,-3.11042,0.0418719,-0.329448,0.0686046,0,0,3.99,-113.26,-1.75,-0.00549,-0.422242,-0.939034,-0.0504,0.2436,0.33292
-3.85455,0,0,8.85455,8.85455,5,5,6.42424,-0.422526,-3.32001,0.0427706,-0.321731,0.0671558,0,0,4.0075,-113.19,-1.75,-0.004758,-0.421022,-0.939766,-0.0504,0.2436,0.33292
-4.07524,0,0,9.07524,9.07524,5,5,6.79207,-0.430494,-3.52819,0.0431527,-0.31572,0.066539,0,0,4.06,-113.4,-1.8375,-0.004514,-0.421388,-0.939644,-0.0504,0.2436,0.33292
-4.29108,0,0,9.29108,9.29108,5,5,7.15179,-0.438524,-3.73272,0.041592,-0.308756,0.0650381,0,0,3.99,-113.225,-1.785,-0.006222,-0.420656,-0.940376,-0.0504,0.2436,0.33292
-4.50251,0,0,9.50251,9.50251,5,5,7.50419,-0.442269,-3.94055,0.04433,-0.302534,0.0637614,0,0,3.9375,-113.453,-1.7675,-0.003538,-0.420534,-0.940864,-0.04998,0.24346,0.32718
-4.71177,0,0,9.71177,9.71177,5,5,7.85296,-0.447763,-4.14391,0.0422392,-0.298211,0.0657752,0,0,3.9725,-113.418,-1.75,-0.005734,-0.422242,-0.938058,-0.04998,0.24346,0.32718
-4.91472,0,0,9.91472,9.91472,5,5,8.1912,-0.447796,-4.34784,0.0444265,-0.289923,0.0615088,0,0,4.06,-113.26,-1.6275,-0.003538,-0.419802,-0.941474,-0.04998,0.24346,0.32718
-5.11386,0,0,10.1139,10.1139,5,5,8.5231,-0.447238,-4.549,0.0436879,-0.284681,0.060421,0,0,3.92,-113.12,-1.61,-0.00427,-0.42029,-0.941718,-0.04998,0.24346,0.32718
-5.31064,0,0,10.3106,10.3106,5,5,8.85106,-0.447897,-4.74637,0.04212,-0.28061,0.0612777,0,0,3.955,-113.155,-1.5925,-0.005856,-0.421876,-0.94001,-0.04998,0.24346,0.32718
-5.50285,0,0,10.5028,10.5028,5,5,9.17142,-0.444712,-4.94372,0.0435223,-0.273622,0.0604024,0,0,4.06,-113.085,-1.68,-0.004392,-0.420412,-0.94001,-0.04998,0.24346,0.32718
-5.69163,0,0,10.6916,10.6916,5,5,9.48605,-0.441134,-5.13817,0.0427309,-0.26796,0.0608652,0,0,4.095,-112.98,-1.54,-0.005124,-0.420168,-0.938668,-0.04998,0.24346,0.32718
-5.8765,0,0,10.8765,10.8765,5,5,9.79416,-0.435989,-5.33163,0.0431271,-0.263391,0.0582441,0,0,3.9025,-113.173,-1.7675,-0.004636,-0.4209,-0.940376,-0.04998,0.24346,0.32718
-6.05802,0,0,11.058,11.058,5,5,10.0967,-0.42859,-5.52404,0.0437269,-0.257946,0.0585626,0,0,3.955,-113.138,-1.82,-0.003904,-0.420656,-0.939156,-0.04998,0.24346,0.32718
-6.23607,0,0,11.2361,11.2361,5,5,10.3935,-0.415209,-5.70846,0.0453156,-0.252604,0.0589956,0,0,3.9725,-113.033,-1.8025,-0.002074,-0.420412,-0.937814,-0.0525,0.24094,0.3311
-6.41067,0,0,11.4107,11.4107,5,5,10.6845,-0.404812,-5.88816,0.0424615,-0.247733,0.0576991,0,0,3.9375,-113.05,-1.75,-0.004758,-0.420534,-0.93818,-0.0525,0.24094,0.3311
-6.58183,0,0,11.5818,11.5818,5,5,10.9697,-0.392897,-6.06667,0.0428609,-0.243576,0.0554128,0,0,3.8675,-113.138,-1.7675,-0.004148,-0.421266,-0.939522,-0.0525,0.24094,0.3311
-6.7499,0,0,11.7499,11.7499,5,5,11.2498,-0.377327,-6.24522,0.044533,-0.239022,0.0549644,0,0,3.885,-113.05,-1.7325,-0.002196,-0.42151,-0.939034,-0.0525,0.24094,0.3311
-6.91401,0,0,11.914,11.914,5,5,11.5233,-0.360253,-6.4224,0.0447209,-0.233365,0.053655,0,0,3.92,-113.085,-1.6275,-0.001708,-0.420534,-0.9394,-0.0525,0.24094,0.3311
-7.0758,0,0,12.0758,12.0758,5,5,11.793,-0.342307,-6.59778,0.0446507,-0.230466,0.0528288,0,0,3.78,-112.963,-1.68,-0.001464,-0.422242,-0.939278,-0.0525,0.24094,0.3311
-7.23462,0,0,12.2346,12.2346,5,5,12.0577,-0.328182,-6.76833,0.04161,-0.225701,0.0529821,0,0,3.745,-113.19,-1.54,-0.00427,-0.421998,-0.93818,-0.0525,0.24094,0.3311
-7.39084,0,0,12.3908,12.3908,5,5,12.3181,-0.313538,-6.93723,0.0415974,-0.22248,0.0511635,0,0,3.78,-113.365,-1.5225,-0.004026,-0.423218,-0.939034,-0.0525,0.24094,0.3311
-7.54246,0,0,12.5425,12.5425,5,5,12.5708,-0.296537,-7.10934,0.042394,-0.214265,0.0529196,0,0,3.815,-113.26,-1.61,-0.002928,-0.419314,-0.93635,-0.05166,0.24094,0.3241
-7.69048,0,0,12.6905,12.6905,5,5,12.8175,-0.281871,-7.27761,0.0400728,-0.210308,0.0489009,0,0,3.85,-113.243,-1.61,-0.005002,-0.419558,-0.9394,-0.05166,0.24094,0.3241
-7.83591,0,0,12.8359,12.8359,5,5,13.0598,-0.265516,-7.44458,0.0403948,-0.20643,0.0485699,0,0,3.8675,-113.068,-1.5925,-0.004392,-0.419802,-0.93879,-0.05166,0.24094,0.3241
-7.97807,0,0,12.9781,12.9781,5,5,13.2968,-0.248994,-7.60964,0.0396205,-0.200571,0.0495955,0,0,4.0075,-113.05,-1.6625,-0.00488,-0.417972,-0.936838,-0.05166,0.24094,0.3241
-8.1174,0,0,13.1174,13.1174,5,5,13.529,-0.232211,-7.773,0.0393276,-0.196628,0.0486565,0,0,3.99,-113.19,-1.645,-0.00488,-0.417972,-0.936838,-0.05166,0.24094,0.3241
-8.25291,0,0,13.2529,13.2529,5,5,13.7548,-0.207349,-7.93975,0.043996,-0.194141,0.0417041,0,0,3.9725,-113.05,-1.68,0.000244,-0.419314,-0.942816,-0.05166,0.24094,0.3241
-8.38577,0,0,13.3858,13.3858,5,5,13.9763,-0.182057,-8.10465,0.0435546,-0.190388,0.0407793,0,0,4.0075,-112.928,-1.68,0.000244,-0.419314,-0.942816,-0.05166,0.24094,0.3241
-8.51643,0,0,13.5164,13.5164,5,5,14.1941,-0.167565,-8.26055,0.0360125,-0.187801,0.0383797,0,0,3.9375,-113.068,-1.75,-0.007076,-0.420412,-0.94428,-0.05166,0.24094,0.3241
-8.64408,0,0,13.6441,13.6441,5,5,14.4068,-0.15036,-8.4011,0.0357123,-0.184202,0.0374633,0,0,3.7625,-113.33,-1.8375,-0.007076,-0.420412,-0.94428,-0.05348,0.23618,0.3325
-8.77089,0,0,13.7709,13.7709,5,5,14.6182,-0.126193,-8.54445,0.0400284,-0.183074,0.0377694,0,0,3.8325,-113.225,-1.89,-0.002318,-0.422852,-0.94306,-0.05348,0.23618,0.3325
-8.89508,0,0,13.8951,13.8951,5,5,14.8251,-0.101538,-8.68599,0.0395981,-0.17958,0.0368523,0,0,3.7275,-112.98,-1.8025,-0.002318,-0.422852,-0.94306,-0.05348,0.23618,0.3325
-9.01417,0,0,14.0142,14.0142,5,5,15.0236,-0.0720806,-8.82929,0.0418781,-0.173789,0.0320265,0,0,3.78,-112.945,-1.8025,0.000488,-0.420412,-0.946964,-0.05348,0.23618,0.3325
-9.13447,0,0,14.1345,14.1345,5,5,15.2241,-0.05129,-8.96506,0.0360484,-0.171877,0.0400891,0,0,3.745,-112.963,-1.8375,-0.005002,-0.421876,-0.938058,-0.05348,0.23618,0.3325
-9.25197,0,0,14.252,14.252,5,5,15.4199,-0.0335379,-9.09738,0.0335518,-0.168824,0.037096,0,0,3.6925,-112.98,-1.925,-0.007198,-0.42212,-0.940132,-0.05348,0.23618,0.3325
-9.3663,0,0,14.3663,14.3663,5,5,15.6105,-0.0126988,-9.23029,0.0350104,-0.164521,0.0357147,0,0,3.745,-113.015,-1.9075,-0.005368,-0.421022,-0.94062,-0.05348,0.23618,0.3325
-9.47857,0,0,14.4786,14.4786,5,5,15.7976,0.00947851,-9.36275,0.0355952,-0.16211,0.0339702,0,0,3.7975,-113.103,-1.96,-0.004392,-0.421754,-0.941474,-0.05348,0.23618,0.3325
-9.59009,0,0,14.5901,14.5901,5,5,15.9835,0.0287435,-9.50582,0.0348945,-0.160089,0.0343113,0,0,4.0425,-113.085,-1.785,-0.004758,-0.422852,-0.940254,-0.05096,0.24108,0.32858
-9.69859,0,0,14.6986,14.6986,5,5,16.1643,0.0472849,-9.64685,0.0339635,-0.156201,0.0326996,0,0,3.9375,-113.19,-1.6975,-0.005368,-0.421998,-0.940986,-0.05096,0.24108,0.32858
-9.80405,0,0,14.804,14.804,5,5,16.3401,0.0631665,-9.78473,0.0316211,-0.151913,0.031472,0,0,3.9025,-113.243,-1.75,-0.007442,-0.420656,-0.941352,-0.05096,0.24108,0.32858
-9.90791,0,0,14.9079,14.9079,5,5,16.5132,0.083976,-9.92417,0.034538,-0.148771,0.0335679,0,0,3.885,-113.313,-1.68,-0.004148,-0.420412,-0.938424,-0.05096,0.24108,0.32858
-10.0114,0,0,15.0114,15.0114,5,5,16.6857,0.100486,-10.0593,0.0315772,-0.147839,0.0336908,0,0,4.0075,-113.33,-1.785,-0.006832,-0.422364,-0.937448,-0.05096,0.24108,0.32858
-10.1089,0,0,15.1089,15.1089,5,5,16.8481,0.119821,-10.195,0.0324546,-0.141828,0.0258644,0,0,4.0425,-113.383,-1.715,-0.005612,-0.41907,-0.944402,-0.05096,0.24108,0.32858
-10.2078,0,0,15.2078,15.2078,5,5,17.013,0.136993,-10.3271,0.03094,-0.140906,0.0333861,0,0,3.9725,-113.225,-1.68,-0.006832,-0.4209,-0.936106,-0.05096,0.24108,0.32858
-10.3034,0,0,15.3034,15.3034,5,5,17.1723,0.157194,-10.4598,0.0321667,-0.136173,0.0323221,0,0,4.0075,-113.19,-1.6975,-0.005246,-0.418826,-0.93635,-0.05096,0.24108,0.32858
-10.3979,0,0,15.3979,15.3979,5,5,17.3298,0.174665,-10.589,0.030161,-0.13587,0.0288016,0,0,4.0425,-113.103,-1.68,-0.006954,-0.421144,-0.939034,-0.05096,0.24108,0.32858
-10.4903,0,0,15.4903,15.4903,5,5,17.4838,0.192001,-10.7165,0.0296155,-0.131717,0.0311929,0,0,3.99,-113.173,-1.7325,-0.007198,-0.419558,-0.935862,-0.04578,0.23968,0.33124
-10.5791,0,0,15.5791,15.5791,5,5,17.6319,0.209623,-10.8428,0.0289434,-0.128521,0.0259864,0,0,3.9025,-112.963,-1.855,-0.007564,-0.418826,-0.940254,-0.04578,0.23968,0.33124
-10.667,0,0,15.667,15.667,5,5,17.7784,0.225619,-10.9671,0.0280568,-0.126573,0.0268058,0,0,4.0075,-113.33,-1.785,-0.008174,-0.419314,-0.938668,-0.04578,0.23968,0.33124
-10.7538,0,0,15.7538,15.7538,5,5,17.923,0.238784,-11.0879,0.0258833,-0.125392,0.0260311,0,0,3.7975,-113.208,-1.8025,-0.010126,-0.420534,-0.938668,-0.04578,0.23968,0.33124
-10.84,0,0,15.84,15.84,5,5,18.0666,0.257034,-11.2102,0.0289664,-0.124474,0.0264851,0,0,3.8325,-113.103,-1.715,-0.00671,-0.421998,-0.937448,-0.04578,0.23968,0.33124
-10.9227,0,0,15.9227,15.9227,5,5,18.2044,0.275897,-11.3318,0.0287586,-0.119991,0.0238909,0,0,3.955,-113.173,-1.715,-0.006588,-0.419802,-0.939278,-0.04578,0.23968,0.33124
-11.0057,0,0,16.0057,16.0057,5,5,18.3428,0.293977,-11.4514,0.0283216,-0.12185,0.0219025,0,0,3.7975,-113.103,-1.82,-0.00671,-0.42395,-0.940498,-0.04578,0.23968,0.33124
-11.0843,0,0,16.0843,16.0843,5,5,18.4739,0.315078,-11.5722,0.0294112,-0.11504,0.0216701,0,0,3.8325,-113.173,-1.855,-0.005246,-0.419314,-0.94001,-0.04578,0.23968,0.33124
-11.1625,0,0,16.1625,16.1625,5,5,18.6042,0.331832,-11.6858,0.0263246,-0.115693,0.0182405,0,0,3.9025,-113.155,-1.89,-0.008052,-0.42212,-0.942694,-0.0525,0.24024,0.32914
-11.2385,0,0,16.2385,16.2385,5,5,18.7308,0.353119,-11.8007,0.0286257,-0.11128,0.020482,0,0,3.955,-113.033,-1.715,-0.005368,-0.419802,-0.939766,-0.0525,0.24024,0.32914
-11.3149,0,0,16.3149,16.3149,5,5,18.8581,0.372014,-11.9129,0.0270811,-0.110154,0.0239444,0,0,4.0425,-113.12,-1.8375,-0.006588,-0.420778,-0.935618,-0.0525,0.24024,0.32914
-11.3886,0,0,16.3886,16.3886,5,5,18.981,0.391119,-12.0243,0.0271121,-0.108737,0.0188209,0,0,3.8325,-113.278,-1.68,-0.006222,-0.421388,-0.94001,-0.0525,0.24024,0.32914
-11.4588,0,0,16.4588,16.4588,5,5,19.098,0.40956,-12.1344,0.0260614,-0.104852,0.0152015,0,0,3.815,-113.278,-1.715,-0.006954,-0.419436,-0.942938,-0.0525,0.24024,0.32914
-11.5289,0,0,16.5289,16.5289,5,5,19.2149,0.431718,-12.245,0.0281044,-0.103904,0.0172346,0,0,3.8675,-113.033,-1.6975,-0.004514,-0.420412,-0.940254,-0.0525,0.24024,0.32914
-11.5966,0,0,16.5966,16.5966,5,5,19.3277,0.454087,-12.355,0.027714,-0.100703,0.0158443,0,0,3.885,-113.015,-1.82,-0.004514,-0.41907,-0.940986,-0.0525,0.24024,0.32914
-11.6644,0,0,16.6644,16.6644,5,5,19.4406,0.470909,-12.4606,0.0243832,-0.0999435,0.016786,0,0,4.0075,-113.26,-1.7675,-0.007564,-0.420168,-0.9394,-0.0525,0.24024,0.32914
-11.7291,0,0,16.7291,16.7291,5,5,19.5485,0.49002,-12.5735,0.0257505,-0.098659,0.00951619,0,0,3.9025,-113.208,-1.9425,-0.005856,-0.420656,-0.945988,-0.0511,0.24192,0.32438
-11.7932,0,0,16.7932,16.7932,5,5,19.6553,0.507984,-12.6845,0.0248295,-0.0956814,0.0140516,0,0,3.885,-113.295,-1.925,-0.006466,-0.419436,-0.940864,-0.0511,0.24192,0.32438
-11.8573,0,0,16.8573,16.8573,5,5,19.7622,0.525539,-12.7936,0.0244017,-0.0947811,0.0160019,0,0,3.9025,-113.173,-1.8375,-0.006588,-0.42029,-0.938302,-0.0511,0.24192,0.32438
-11.9192,0,0,16.9192,16.9192,5,5,19.8654,0.541608,-12.901,0.0231493,-0.0925999,0.0121926,0,0,4.0775,-113.26,-1.82,-0.007564,-0.419802,-0.941474,-0.0511,0.24192,0.32438
-11.9799,0,0,16.9799,16.9799,5,5,19.9664,0.561211,-13.0094,0.0251154,-0.09021,0.0135558,0,0,4.1125,-113.278,-1.8375,-0.005246,-0.41907,-0.939522,-0.0511,0.24192,0.32438
-12.0415,0,0,17.0415,17.0415,5,5,20.0692,0.579412,-13.1153,0.0241904,-0.0903581,0.0163816,0,0,4.1825,-113.12,-1.75,-0.005856,-0.4209,-0.936106,-0.0511,0.24192,0.32438
-12.0993,0,0,17.0993,17.0993,5,5,20.1655,0.596532,-13.2201,0.0230412,-0.0881696,0.00830053,0,0,4.0425,-113.225,-1.89,-0.00671,-0.42029,-0.943548,-0.0511,0.24192,0.32438
-12.1565,0,0,17.1565,17.1565,5,5,20.2609,0.616427,-13.3253,0.0245163,-0.0855095,0.0125169,0,0,4.06,-113.173,-1.8375,-0.00488,-0.419192,-0.93879,-0.0511,0.24192,0.32438
-12.2116,0,0,17.2116,17.2116,5,5,20.3527,0.633844,-13.428,0.02239,-0.0813217,0.0135562,0,0,4.1125,-113.138,-1.785,-0.00671,-0.416508,-0.937204,-0.0511,0.24192,0.32438
-12.2668,0,0,17.2668,17.2668,5,5,20.4447,0.655357,-13.542,0.0259021,-0.082749,0.0122548,0,0,3.92,-113.33,-1.75,-0.002806,-0.419436,-0.937936,-0.0441,0.24584,0.33446
-12.3214,0,0,17.3214,17.3214,5,5,20.5356,0.67394,-13.6528,0.023634,-0.0797985,0.0157532,0,0,3.9725,-113.243,-1.715,-0.004758,-0.417972,-0.93391,-0.0441,0.24584,0.33446
-12.3735,0,0,17.3735,17.3735,5,5,20.6226,0.690378,-13.7613,0.0218893,-0.079478,0.00833141,0,0,3.885,-113.12,-1.6975,-0.006222,-0.41907,-0.940742,-0.0441,0.24584,0.33446
-12.4252,0,0,17.4252,17.4252,5,5,20.7087,0.709669,-13.8709,0.0238609,-0.0788057,0.00890357,0,0,3.8325,-113.383,-1.82,-0.003904,-0.419802,-0.939644,-0.0441,0.24584,0.33446
-12.4756,0,0,17.4756,17.4756,5,5,20.7927,0.730784,-13.9806,0.0248287,-0.0767044,0.00911781,0,0,3.885,-113.453,-1.7675,-0.002562,-0.41907,-0.938912,-0.0441,0.24584,0.33446
-12.525,0,0,17.525,17.525,5,5,20.875,0.744953,-14.0848,0.0198435,-0.0760957,0.00540726,0,0,4.025,-113.12,-1.8025,-0.00732,-0.419802,-0.942084,-0.0441,0.24584,0.33446
-12.5733,0,0,17.5733,17.5733,5,5,20.9555,0.763886,-14.1906,0.0226717,-0.0747851,0.00477879,0,0,4.165,-113.085,-1.75,-0.004148,-0.419802,-0.942206,-0.0441,0.24584,0.33446
-12.6213,0,0,17.6213,17.6213,5,5,21.0356,0.78421,-14.2961,0.0234104,-0.0727491,0.00894555,0,0,4.095,-113.103,-1.7325,-0.00305,-0.41907,-0.93757,-0.0441,0.24584,0.33446
-12.6694,0,0,17.6694,17.6694,5,5,21.1156,0.800681,-14.4057,0.0214222,-0.0732786,0.00757872,0,0,3.9725,-113.19,-1.68,-0.004758,-0.4209,-0.938424,-0.049,0.24948,0.32466
-12.7153,0,0,17.7153,17.7153,5,5,21.1922,0.819688,-14.5162,0.0227913,-0.0717899,0.00340369,0,0,4.1475,-113.33,-1.785,-0.00305,-0.420656,-0.942084,-0.049,0.24948,0.32466
-12.7592,0,0,17.7592,17.7592,5,5,21.2654,0.837109,-14.6253,0.0213939,-0.0682808,0.00441261,0,0,3.9725,-113.453,-1.8725,-0.004148,-0.418338,-0.94062,-0.049,0.24948,0.32466
-12.8024,0,0,17.8024,17.8024,5,5,21.3373,0.853777,-14.7324,0.020617,-0.06748,0.00358407,0,0,3.92,-113.278,-1.82,-0.004636,-0.418704,-0.940986,-0.049,0.24948,0.32466
-12.8444,0,0,17.8444,17.8444,5,5,21.4073,0.868984,-14.8374,0.0193798,-0.0660989,0.00288899,0,0,3.8325,-113.155,-1.7325,-0.005612,-0.41846,-0.94123,-0.049,0.24948,0.32466
-12.8877,0,0,17.8877,17.8877,5,5,21.4795,0.886889,-14.9427,0.021254,-0.0677367,0.00377631,0,0,4.0075,-113.138,-1.9425,-0.003416,-0.421266,-0.939888,-0.049,0.24948,0.32466
-12.9296,0,0,17.9296,17.9296,5,5,21.5493,0.902718,-15.0458,0.01952,-0.0663609,0.0014814,0,0,3.99,-112.998,-1.96,-0.00488,-0.421022,-0.941718,-0.049,0.24948,0.32466
-12.9716,0,0,17.9716,17.9716,5,5,21.6193,0.920093,-15.1483,0.0205531,-0.0652266,0.00496182,0,0,3.9375,-113.033,-1.7675,-0.003538,-0.421022,-0.937814,-0.049,0.24948,0.32466
-13.011,0,0,18.011,18.011,5,5,21.685,0.94015,-15.2413,0.0216609,-0.0625756,0.00244342,0,0,3.9725,-113.278,-1.7675,-0.002074,-0.419436,-0.939888,-0.04634,0.24374,0.32816
-13.0501,0,0,18.0501,18.0501,5,5,21.7502,0.957614,-15.3319,0.0201413,-0.0639623,-0.00142509,0,0,3.8675,-113.295,-1.75,-0.003294,-0.421876,-0.943304,-0.04634,0.24374,0.32816
-13.0888,0,0,18.0888,18.0888,5,5,21.8147,0.973629,-15.4205,0.0187685,-0.0612091,0.0023331,0,0,3.9725,-113.138,-1.7675,-0.004392,-0.420168,-0.939156,-0.04634,0.24374,0.32816
-13.1252,0,0,18.1252,18.1252,5,5,21.8753,0.992147,-15.5099,0.0199031,-0.0596192,-0.001508,0,0,3.8675,-113.015,-1.785,-0.002928,-0.419558,-0.942572,-0.04634,0.24374,0.32816
-13.1628,0,0,18.1628,18.1628,5,5,21.9379,1.00799,-15.5968,0.0182902,-0.0584851,0.00459613,0,0,3.92,-113.12,-1.8725,-0.00427,-0.419436,-0.936106,-0.04634,0.24374,0.32816
-13.1991,0,0,18.1991,18.1991,5,5,21.9986,1.02188,-15.6819,0.0169545,-0.057994,0.000630819,0,0,4.095,-113.173,-1.82,-0.005368,-0.419924,-0.939644,-0.04634,0.24374,0.32816
-13.2347,0,0,18.2347,18.2347,5,5,22.0579,1.03863,-15.7679,0.0186061,-0.0570362,0.00097534,0,0,3.99,-113.155,-1.855,-0.003416,-0.419924,-0.938912,-0.04634,0.24374,0.32816
-13.2703,0,0,18.2703,18.2703,5,5,22.1172,1.05102,-15.8503,0.0157171,-0.057423,-0.000154823,0,0,3.8325,-113.033,-1.9425,-0.0061,-0.421266,-0.939644,-0.04634,0.24374,0.32816
-13.3037,0,0,18.3037,18.3037,5,5,22.1728,1.0677,-15.9361,0.0180988,-0.054693,-0.00101792,0,0,3.8675,-112.998,-1.8375,-0.003416,-0.419436,-0.940132,-0.04242,0.24276,0.3276
-13.3374,0,0,18.3374,18.3374,5,5,22.229,1.07991,-16.0184,0.0153344,-0.0542757,0.000329374,0,0,3.815,-113.05,-1.75,-0.005978,-0.419924,-0.938424,-0.04242,0.24276,0.3276
-13.3701,0,0,18.3701,18.3701,5,5,22.2835,1.0956,-16.1021,0.0176119,-0.0538856,-0.00151119,0,0,3.8325,-113.208,-1.7325,-0.003416,-0.420412,-0.939888,-0.04242,0.24276,0.3276
-13.4037,0,0,18.4037,18.4037,5,5,22.3395,1.10901,-16.1834,0.016163,-0.0539603,0.000818562,0,0,3.885,-113.138,-1.75,-0.004636,-0.421388,-0.937204,-0.04242,0.24276,0.3276
-13.4357,0,0,18.4357,18.4357,5,5,22.3928,1.1203,-16.2629,0.0143867,-0.0513915,-0.000153811,0,0,4.0425,-113.103,-1.7675,-0.006222,-0.41968,-0.937814,-0.04242,0.24276,0.3276
-13.4683,0,0,18.4683,18.4683,5,5,22.4472,1.12974,-16.3408,0.0136145,-0.0521035,9.61737e-05,0,0,4.095,-113.4,-1.8025,-0.006832,-0.421266,-0.937204,-0.04242,0.24276,0.3276
-13.5,0,0,18.5,18.5,5,5,22.5,1.13935,-16.418,0.0134469,-0.051131,-0.000996917,0,0,4.1125,-113.33,-1.8725,-0.006832,-0.421144,-0.937936,-0.04242,0.24276,0.3276
-13.5307,0,0,18.5307,18.5307,5,5,22.5511,1.15296,-16.4967,0.0158821,-0.0498211,-0.000973876,0,0,4.1125,-113.33,-1.6975,-0.004148,-0.420656,-0.93757,-0.04242,0.24276,0.3276
-13.5611,0,0,18.5611,18.5611,5,5,22.6019,1.16476,-16.5737,0.0149473,-0.0498596,-0.00156371,0,0,4.025,-113.523,-1.645,-0.00488,-0.42151,-0.937814,-0.04242,0.24276,0.3276
-13.5913,0,0,18.5913,18.5913,5,5,22.6522,1.1742,-16.6486,0.0133246,-0.0501492,-0.00301132,0,0,3.9025,-113.418,-1.715,-0.006344,-0.422608,-0.938912,-0.05208,0.24682,0.32648
-13.6205,0,0,18.6205,18.6205,5,5,22.7008,1.18805,-16.7252,0.0157557,-0.0472926,0.000714475,0,0,3.815,-113.383,-1.715,-0.00366,-0.420534,-0.934886,-0.05208,0.24682,0.32648
-13.6491,0,0,18.6491,18.6491,5,5,22.7486,1.20151,-16.8011,0.0152778,-0.0462812,0.000633783,0,0,3.955,-113.365,-1.89,-0.003904,-0.42029,-0.934642,-0.05208,0.24682,0.32648
-13.6781,0,0,18.6781,18.6781,5,5,22.7968,1.21683,-16.8769,0.0165898,-0.0488046,-0.00375457,0,0,4.06,-113.243,-1.8375,-0.002318,-0.423584,-0.938668,-0.05208,0.24682,0.32648
-13.7038,0,0,18.7038,18.7038,5,5,22.8397,1.22918,-16.951,0.0140661,-0.0442091,-0.00540122,0,0,3.99,-113.295,-1.855,-0.004636,-0.41968,-0.94001,-0.05208,0.24682,0.32648
-13.7402,0,0,18.7402,18.7402,5,5,22.9004,1.23485,-17.018,0.011173,-0.0459211,0.026029,0,0,3.9375,-113.348,-1.855,-0.007442,-0.422364,-0.908412,-0.05208,0.24682,0.32648
-13.7667,0,0,18.7667,18.7667,5,5,22.9444,1.24444,-17.0888,0.012585,-0.0454585,-0.00550281,0,0,3.885,-113.365,-1.8375,-0.005856,-0.422608,-0.9394,-0.05208,0.24682,0.32648
-13.7931,0,0,18.7931,18.7931,5,5,22.9885,1.25263,-17.1579,0.0115917,-0.044874,-0.00420729,0,0,3.7975,-113.313,-1.8725,-0.00671,-0.42273,-0.937814,-0.05208,0.24682,0.32648
-13.8183,0,0,18.8183,18.8183,5,5,23.0306,1.26194,-17.2304,0.0121581,-0.0433444,-0.00474361,0,0,3.7975,-113.365,-1.96,-0.005978,-0.421876,-0.938058,-0.05054,0.24962,0.33628
-13.8433,0,0,18.8433,18.8433,5,5,23.0721,1.27173,-17.3027,0.0124733,-0.0431676,-0.00601443,0,0,3.9725,-113.453,-1.9775,-0.00549,-0.422364,-0.939034,-0.05054,0.24962,0.33628
-13.8677,0,0,18.8677,18.8677,5,5,23.1128,1.28132,-17.3738,0.0121845,-0.0421489,-0.00531301,0,0,3.92,-113.365,-1.8725,-0.005612,-0.421998,-0.938058,-0.05054,0.24962,0.33628
-13.8911,0,0,18.8911,18.8911,5,5,23.1518,1.29082,-17.4441,0.0118972,-0.0412817,-0.00668973,0,0,3.78,-113.26,-1.785,-0.005734,-0.421754,-0.939156,-0.05054,0.24962,0.33628
-13.915,0,0,18.915,18.915,5,5,23.1917,1.30297,-17.5151,0.0138718,-0.0421089,-0.00610752,0,0,3.885,-113.418,-1.785,-0.003538,-0.423218,-0.938302,-0.05054,0.24962,0.33628
-13.9376,0,0,18.9376,18.9376,5,5,23.2294,1.31378,-17.5849,0.0125899,-0.0397962,-0.005756,0,0,3.815,-113.33,-1.8375,-0.004636,-0.42151,-0.937692,-0.05054,0.24962,0.33628
-13.9609,0,0,18.9609,18.9609,5,5,23.2682,1.32176,-17.6524,0.0109928,-0.040396,-0.00614942,0,0,4.0775,-113.453,-1.8725,-0.0061,-0.42273,-0.937814,-0.05054,0.24962,0.33628
-13.9834,0,0,18.9834,18.9834,5,5,23.3056,1.33389,-17.7217,0.0133324,-0.0385775,-0.00444466,0,0,4.095,-113.418,-1.9425,-0.003538,-0.42151,-0.935862,-0.05054,0.24962,0.33628
-14.0047,0,0,19.0047,19.0047,5,5,23.3411,1.3442,-17.7818,0.0119376,-0.0369104,-0.00481706,0,0,4.0775,-113.488,-1.7675,-0.004758,-0.420412,-0.935984,-0.04942,0.24458,0.3332
-14.0283,0,0,19.0283,19.0283,5,5,23.3805,1.35043,-17.8379,0.00952071,-0.0386017,-0.00140311,0,0,4.06,-113.278,-1.6975,-0.007076,-0.42273,-0.932324,-0.04942,0.24458,0.3332
-14.05,0,0,19.05,19.05,5,5,23.4166,1.36091,-17.8962,0.0120105,-0.0385137,-0.00718997,0,0,4.13,-113.278,-1.7325,-0.004392,-0.423218,-0.937814,-0.04942,0.24458,0.3332
-14.0689,0,0,19.0689,19.0689,5,5,23.4481,1.37467,-17.9565,0.0135927,-0.0352019,-0.00852068,0,0,4.0425,-113.295,-1.75,-0.002562,-0.420412,-0.938912,-0.04942,0.24458,0.3332
-14.0872,0,0,19.0872,19.0872,5,5,23.4787,1.38844,-18.0162,0.0133525,-0.034715,-0.00873836,0,0,3.8325,-113.155,-1.8375,-0.002562,-0.420412,-0.938912,-0.04942,0.24458,0.3332
-14.1064,0,0,19.1064,19.1064,5,5,23.5106,1.39791,-18.0728,0.010879,-0.0360384,-0.00994737,0,0,3.9025,-113.225,-1.8025,-0.00488,-0.422242,-0.939888,-0.04942,0.24458,0.3332
-14.125,0,0,19.125,19.125,5,5,23.5417,1.4071,-18.1288,0.0107186,-0.035543,-0.0101673,0,0,3.7975,-113.295,-1.7675,-0.00488,-0.422242,-0.939888,-0.04942,0.24458,0.3332
-14.1437,0,0,19.1437,19.1437,5,5,23.5729,1.41838,-18.1852,0.0118582,-0.0337023,-0.0057174,0,0,3.8675,-113.243,-1.75,-0.003538,-0.4209,-0.935252,-0.04942,0.24458,0.3332
-14.162,0,0,19.162,19.162,5,5,23.6033,1.42965,-18.241,0.0116615,-0.0332179,-0.00593426,0,0,3.7625,-113.138,-1.785,-0.003538,-0.4209,-0.935252,-0.04942,0.24458,0.3332
-14.18,0,0,19.18,19.18,5,5,23.6334,1.43888,-18.3032,0.0105287,-0.0328601,-0.00639439,0,0,3.7975,-113.225,-1.8025,-0.004514,-0.421022,-0.935496,-0.05068,0.2485,0.32942
-14.1978,0,0,19.1978,19.1978,5,5,23.663,1.44769,-18.3647,0.0103749,-0.0323883,-0.00660524,0,0,3.85,-113.4,-1.8025,-0.004514,-0.421022,-0.935496,-0.05068,0.2485,0.32942
-14.2122,0,0,19.2122,19.2122,5,5,23.6869,1.45299,-18.4247,0.00736674,-0.0280991,-0.0102175,0,0,3.885,-113.348,-1.8375,-0.007442,-0.417118,-0.938912,-0.05068,0.2485,0.32942
-14.229,0,0,19.229,19.229,5,5,23.715,1.46378,-18.4863,0.0114306,-0.0320499,-0.00869711,0,0,3.85,-113.348,-1.8725,-0.003172,-0.42151,-0.937204,-0.05068,0.2485,0.32942
-14.2428,0,0,19.2428,19.2428,5,5,23.738,1.47585,-18.5489,0.0117059,-0.0280198,-0.0107082,0,0,4.025,-113.435,-1.8375,-0.002684,-0.41785,-0.939034,-0.05068,0.2485,0.32942
-14.2594,0,0,19.2594,19.2594,5,5,23.7657,1.48683,-18.6095,0.0116359,-0.0305105,-0.00648127,0,0,4.0075,-113.54,-1.785,-0.002562,-0.420778,-0.934642,-0.05068,0.2485,0.32942
-14.2719,0,0,19.2719,19.2719,5,5,23.7866,1.50099,-18.6723,0.0129681,-0.029081,-0.0167156,0,0,3.92,-113.365,-1.8375,-0.000976,-0.41968,-0.944646,-0.05068,0.2485,0.32942
-14.2872,0,0,19.2872,19.2872,5,5,23.812,1.5109,-18.731,0.0103654,-0.030754,-0.0128411,0,0,4.1825,-113.085,-1.8025,-0.003416,-0.421754,-0.94062,-0.05068,0.2485,0.32942
-14.3022,0,0,19.3022,19.3022,5,5,23.837,1.5251,-18.787,0.0132763,-0.030601,-0.0116713,0,0,4.095,-113.313,-1.7325,-0.000244,-0.421998,-0.939278,-0.0525,0.24738,0.3318
-14.316,0,0,19.316,19.316,5,5,23.8601,1.53224,-18.8389,0.00853524,-0.0284024,-0.0124517,0,0,4.025,-113.313,-1.6275,-0.00488,-0.420168,-0.939888,-0.0525,0.24738,0.3318
-14.3262,0,0,19.3262,19.3262,5,5,23.8771,1.53965,-18.8913,0.00804147,-0.0259345,-0.0190911,0,0,3.815,-113.208,-1.6625,-0.005246,-0.417972,-0.946354,-0.0525,0.24738,0.3318
-14.3391,0,0,19.3391,19.3391,5,5,23.8984,1.55031,-18.9442,0.0104068,-0.0282821,-0.0145748,0,0,3.9375,-113.12,-1.82,-0.002684,-0.420656,-0.941718,-0.0525,0.24738,0.3318
-14.3519,0,0,19.3519,19.3519,5,5,23.9198,1.55776,-18.9949,0.00809,-0.0259897,-0.0103025,0,0,3.8675,-113.05,-1.855,-0.00488,-0.418704,-0.937326,-0.0525,0.24738,0.3318
-14.3645,0,0,19.3645,19.3645,5,5,23.9408,1.56915,-19.0472,0.0110499,-0.0283437,-0.0147593,0,0,3.8325,-113.26,-1.785,-0.001708,-0.421388,-0.941596,-0.0525,0.24738,0.3318
-14.3757,0,0,19.3757,19.3757,5,5,23.9595,1.57743,-19.0909,0.00847571,-0.0247489,-0.0128056,0,0,3.92,-113.138,-1.68,-0.004148,-0.418094,-0.939522,-0.04998,0.24136,0.32452
-14.3857,0,0,19.3857,19.3857,5,5,23.9761,1.59016,-19.1371,0.0112909,-0.0249753,-0.0167402,0,0,3.92,-113.208,-1.715,-0.001098,-0.418582,-0.943304,-0.04998,0.24136,0.32452
-14.3981,0,0,19.3981,19.3981,5,5,23.9969,1.5928,-19.1769,0.00517045,-0.0267211,-0.0141838,0,0,3.955,-113.243,-1.855,-0.007198,-0.420656,-0.94062,-0.04998,0.24136,0.32452
-14.4096,0,0,19.4096,19.4096,5,5,24.0159,1.59637,-19.2172,0.00571556,-0.0251965,-0.0141978,0,0,3.9725,-113.383,-1.8025,-0.006588,-0.419436,-0.940498,-0.04998,0.24136,0.32452
-14.4212,0,0,19.4212,19.4212,5,5,24.0354,1.60318,-19.2586,0.00802654,-0.0248876,-0.0121261,0,0,4.0425,-113.505,-1.54,-0.004148,-0.419436,-0.938302,-0.04998,0.24136,0.32452
-14.4338,0,0,19.4338,19.4338,5,5,24.0564,1.60917,-19.2989,0.00755753,-0.0250431,-0.0100648,0,0,4.2,-113.488,-1.575,-0.004514,-0.419924,-0.936106,-0.04998,0.24136,0.32452
-14.4469,0,0,19.4469,19.4469,5,5,24.0781,1.61297,-19.3372,0.00603348,-0.0266518,-0.0114506,0,0,3.92,-113.26,-1.7675,-0.005978,-0.421876,-0.937326,-0.04998,0.24136,0.32452
-14.4588,0,0,19.4588,19.4588,5,5,24.098,1.61685,-19.3752,0.00596569,-0.0259702,-0.0135608,0,0,3.8325,-113.225,-1.6275,-0.005978,-0.42151,-0.939278,-0.04998,0.24136,0.32452
-14.4704,0,0,19.4704,19.4704,5,5,24.1173,1.621,-19.4093,0.00613626,-0.024931,-0.0134542,0,0,4.1475,-113.523,-1.8725,-0.005734,-0.420778,-0.939034,-0.05152,0.24108,0.33222
-14.4831,0,0,19.4831,19.4831,5,5,24.1385,1.62554,-19.4423,0.00630005,-0.0265484,-0.0131157,0,0,4.2,-113.19,-1.82,-0.00549,-0.42273,-0.938546,-0.05152,0.24108,0.33222
-14.4931,0,0,19.4931,19.4931,5,5,24.1551,1.63319,-19.477,0.00762438,-0.0226207,-0.0128693,0,0,4.025,-113.015,-1.6975,-0.004026,-0.41907,-0.93818,-0.05152,0.24108,0.33222
-14.5035,0,0,19.5035,19.5035,5,5,24.1726,1.63837,-19.5099,0.00619776,-0.0229545,-0.0122586,0,0,3.9725,-113.085,-1.68,-0.005368,-0.41968,-0.937448,-0.05152,0.24108,0.33222
-14.5156,0,0,19.5156,19.5156,5,5,24.1926,1.64128,-19.541,0.0052965,-0.0253236,-0.0124029,0,0,3.9725,-113.278,-1.645,-0.006222,-0.422364,-0.937448,-0.05152,0.24108,0.33222
-14.5263,0,0,19.5263,19.5263,5,5,24.2105,1.64518,-19.5726,0.00547143,-0.0218633,-0.00933647,0,0,4.0425,-113.225,-1.6625,-0.005978,-0.419192,-0.934276,-0.05152,0.24108,0.33222
-14.5354,0,0,19.5354,19.5354,5,5,24.2257,1.6495,-19.6049,0.00551763,-0.0215016,-0.0137498,0,0,3.8675,-113.278,-1.89,-0.005856,-0.41907,-0.938546,-0.05152,0.24108,0.33222
-14.5458,0,0,19.5458,19.5458,5,5,24.2431,1.65537,-19.637,0.00663,-0.0234243,-0.0127705,0,0,3.885,-113.12,-1.9075,-0.004636,-0.421266,-0.937448,-0.05152,0.24108,0.33222
-14.5568,0,0,19.5568,19.5568,5,5,24.2613,1.65754,-19.6817,0.0046484,-0.023256,-0.0116731,0,0,3.9375,-113.26,-1.75,-0.006588,-0.421388,-0.936228,-0.04648,0.24598,0.32886
-14.5675,0,0,19.5675,19.5675,5,5,24.2792,1.66217,-19.7272,0.00626853,-0.0244379,-0.0141396,0,0,3.8675,-113.225,-1.7675,-0.00488,-0.422852,-0.938546,-0.04648,0.24598,0.32886
-14.5777,0,0,19.5777,19.5777,5,5,24.2962,1.66301,-19.7703,0.00333808,-0.023191,-0.0151225,0,0,4.06,-112.998,-1.925,-0.007808,-0.421876,-0.9394,-0.04648,0.24598,0.32886
-14.586,0,0,19.586,19.586,5,5,24.31,1.66925,-19.8162,0.0063879,-0.0201646,-0.0135029,0,0,3.9025,-112.98,-1.9075,-0.004636,-0.41907,-0.937692,-0.04648,0.24598,0.32886
-14.595,0,0,19.595,19.595,5,5,24.325,1.67258,-19.8597,0.00462896,-0.0204152,-0.011768,0,0,3.815,-112.945,-1.82,-0.006344,-0.419558,-0.935862,-0.04648,0.24598,0.32886
-14.6047,0,0,19.6047,19.6047,5,5,24.3411,1.67209,-19.9009,0.00269383,-0.0218686,-0.0132361,0,0,3.7975,-113.278,-1.8025,-0.008296,-0.421266,-0.937204,-0.04648,0.24598,0.32886
-14.6128,0,0,19.6128,19.6128,5,5,24.3547,1.67541,-19.9441,0.00470106,-0.0195774,-0.0135812,0,0,4.0075,-113.208,-1.855,-0.006222,-0.419192,-0.937448,-0.04648,0.24598,0.32886
-14.6206,0,0,19.6206,19.6206,5,5,24.3676,1.67459,-19.9848,0.0021643,-0.0214482,-0.0196982,0,0,3.9375,-113.243,-1.82,-0.008784,-0.421266,-0.943426,-0.04648,0.24598,0.32886
-14.6291,0,0,19.6291,19.6291,5,5,24.3818,1.68025,-20.0284,0.00656045,-0.0208571,-0.0141475,0,0,3.9725,-113.383,-1.82,-0.00427,-0.4209,-0.937814,-0.04648,0.24598,0.32886
-14.6383,0,0,19.6383,19.6383,5,5,24.3972,1.68645,-20.0635,0.0068167,-0.0209799,-0.0111877,0,0,3.8325,-113.278,-1.8375,-0.003904,-0.421266,-0.934764,-0.0511,0.24472,0.33236
-14.6471,0,0,19.6471,19.6471,5,5,24.4119,1.68937,-20.0964,0.00445761,-0.0211144,-0.014983,0,0,4.095,-113.068,-1.7675,-0.006222,-0.421632,-0.938424,-0.0511,0.24472,0.33236
-14.6526,0,0,19.6526,19.6526,5,5,24.421,1.69055,-20.1295,0.00285772,-0.0163293,-0.0162787,0,0,3.9725,-113.295,-1.8025,-0.007808,-0.416996,-0.939644,-0.0511,0.24472,0.33236
-14.6576,0,0,19.6576,19.6576,5,5,24.4294,1.69322,-20.163,0.00378293,-0.0161963,-0.0165865,0,0,3.85,-113.278,-1.7675,-0.006832,-0.416996,-0.939888,-0.0511,0.24472,0.33236
-14.665,0,0,19.665,19.665,5,5,24.4417,1.6924,-20.1935,0.00197494,-0.0199088,-0.0174126,0,0,3.9025,-113.225,-1.8025,-0.008662,-0.4209,-0.94062,-0.0511,0.24472,0.33236
-14.6723,0,0,19.6723,19.6723,5,5,24.4539,1.69537,-20.2256,0.00447436,-0.0202044,-0.0167643,0,0,3.7625,-113.243,-1.8025,-0.0061,-0.421388,-0.939888,-0.0511,0.24472,0.33236
-14.6801,0,0,19.6801,19.6801,5,5,24.4668,1.6992,-20.2579,0.00513658,-0.0198776,-0.0144006,0,0,3.815,-113.365,-1.8725,-0.005368,-0.421266,-0.937448,-0.0511,0.24472,0.33236
-14.6866,0,0,19.6866,19.6866,5,5,24.4777,1.70003,-20.2886,0.00281372,-0.0178725,-0.0152176,0,0,3.8325,-113.278,-1.925,-0.007686,-0.419436,-0.93818,-0.0511,0.24472,0.33236
-14.6941,0,0,19.6941,19.6941,5,5,24.4902,1.70615,-20.3346,0.00647303,-0.0197511,-0.0148193,0,0,3.885,-113.19,-1.9425,-0.003904,-0.42151,-0.937692,-0.04746,0.24948,0.32914
-14.702,0,0,19.702,19.702,5,5,24.5033,1.70262,-20.3752,0.000338829,-0.0188109,-0.0141741,0,0,3.9025,-113.33,-1.89,-0.010126,-0.420778,-0.93696,-0.04746,0.24948,0.32914
-14.7103,0,0,19.7103,19.7103,5,5,24.5172,1.70833,-20.4198,0.00655656,-0.0193236,-0.0107122,0,0,3.8325,-113.383,-1.75,-0.003782,-0.42151,-0.933422,-0.04746,0.24948,0.32914
-14.7176,0,0,19.7176,19.7176,5,5,24.5294,1.7125,-20.4634,0.00539039,-0.0186422,-0.0124009,0,0,3.605,-113.365,-1.785,-0.00488,-0.421022,-0.935008,-0.04746,0.24948,0.32914
-14.7253,0,0,19.7253,19.7253,5,5,24.5421,1.71898,-20.5072,0.00649222,-0.0174648,-0.0101601,0,0,4.0775,-113.05,-1.68,-0.00366,-0.420046,-0.93269,-0.04746,0.24948,0.32914
-14.7316,0,0,19.7316,19.7316,5,5,24.5527,1.72382,-20.5502,0.00519289,-0.0163203,-0.0126983,0,0,4.13,-113.05,-1.6975,-0.00488,-0.41907,-0.93513,-0.04746,0.24948,0.32914
-14.7385,0,0,19.7385,19.7385,5,5,24.5641,1.73056,-20.5937,0.00689767,-0.0196828,-0.0174561,0,0,4.06,-113.155,-1.645,-0.00305,-0.422608,-0.939766,-0.04746,0.24948,0.32914
-14.7432,0,0,19.7432,19.7432,5,5,24.572,1.7335,-20.6357,0.00417367,-0.0171161,-0.0196047,0,0,3.885,-113.348,-1.715,-0.005734,-0.420168,-0.94184,-0.04746,0.24948,0.32914
-14.7487,0,0,19.7487,19.7487,5,5,24.5811,1.73519,-20.6813,0.00341528,-0.0163615,-0.016106,0,0,3.99,-113.383,-1.75,-0.006466,-0.419558,-0.938302,-0.0476,0.25088,0.32284
-14.7532,0,0,19.7532,19.7532,5,5,24.5887,1.73695,-20.7268,0.00326311,-0.0155078,-0.0176378,0,0,4.0775,-113.365,-1.75,-0.006588,-0.418826,-0.939766,-0.0476,0.25088,0.32284
-14.7619,0,0,19.7619,19.7619,5,5,24.6032,1.73706,-20.7695,0.00289663,-0.0191871,-0.0111033,0,0,3.92,-113.33,-1.855,-0.006954,-0.42273,-0.933178,-0.0476,0.25088,0.32284
-14.7686,0,0,19.7686,19.7686,5,5,24.6143,1.738,-20.8126,0.00300171,-0.0175451,-0.0148732,0,0,4.0775,-113.243,-1.7675,-0.006832,-0.421266,-0.936838,-0.0476,0.25088,0.32284
-14.7749,0,0,19.7749,19.7749,5,5,24.6249,1.74322,-20.8574,0.00570485,-0.0170124,-0.0137229,0,0,4.0425,-113.208,-1.6975,-0.004026,-0.4209,-0.935618,-0.0476,0.25088,0.32284
-14.78,0,0,19.78,19.78,5,5,24.6333,1.74758,-20.9014,0.00489998,-0.0165127,-0.0171062,0,0,3.99,-113.085,-1.575,-0.004758,-0.420534,-0.938912,-0.0476,0.25088,0.32284
-14.784,0,0,19.784,19.784,5,5,24.64,1.74793,-20.9435,0.00209973,-0.0142088,-0.0172778,0,0,4.0775,-113.243,-1.645,-0.007564,-0.418338,-0.939034,-0.0476,0.25088,0.32284
-14.7892,0,0,19.7892,19.7892,5,5,24.6486,1.75176,-20.9864,0.00458408,-0.0157829,-0.0151292,0,0,3.9375,-113.155,-1.5925,-0.005002,-0.420046,-0.936838,-0.0476,0.25088,0.32284
-14.7951,0,0,19.7951,19.7951,5,5,24.6585,1.75844,-21.0302,0.00665424,-0.0177042,-0.015696,0,0,3.9025,-113.173,-1.715,-0.002806,-0.42212,-0.937326,-0.0476,0.25088,0.32284
-14.7994,0,0,19.7994,19.7994,5,5,24.6657,1.7665,-21.0652,0.00724258,-0.0166139,-0.0180888,0,0,3.815,-113.208,-1.8025,-0.002074,-0.421144,-0.939644,-0.05012,0.24682,0.32214
-14.8022,0,0,19.8022,19.8022,5,5,24.6704,1.77384,-21.1003,0.00638565,-0.0122678,-0.0146835,0,0,3.8675,-113.348,-1.8025,-0.002806,-0.416874,-0.936228,-0.05012,0.24682,0.32214
-14.8059,0,0,19.8059,19.8059,5,5,24.6765,1.7833,-21.136,0.0081644,-0.0148596,-0.0164541,0,0,3.8675,-113.418,-1.785,-0.000854,-0.419558,-0.937936,-0.05012,0.24682,0.32214
-14.8098,0,0,19.8098,19.8098,5,5,24.6829,1.78782,-21.1685,0.00492678,-0.0157352,-0.0189624,0,0,3.8675,-113.278,-1.75,-0.004026,-0.420534,-0.940376,-0.05012,0.24682,0.32214
-14.8152,0,0,19.8152,19.8152,5,5,24.692,1.79323,-21.2006,0.00592578,-0.0173022,-0.0162034,0,0,3.7975,-113.33,-1.61,-0.002928,-0.422242,-0.93757,-0.05012,0.24682,0.32214
-14.8189,0,0,19.8189,19.8189,5,5,24.6982,1.80169,-21.2347,0.00735765,-0.0141534,-0.015023,0,0,3.8325,-113.33,-1.82,-0.001342,-0.419192,-0.93635,-0.05012,0.24682,0.32214
-14.8242,0,0,19.8242,19.8242,5,5,24.7069,1.80615,-21.2657,0.00485005,-0.0163361,-0.015335,0,0,3.8325,-113.085,-1.8375,-0.003782,-0.42151,-0.936594,-0.05012,0.24682,0.32214
-14.8278,0,0,19.8278,19.8278,5,5,24.713,1.80861,-21.2957,0.00322791,-0.0147756,-0.0178391,0,0,3.71,-113.05,-1.82,-0.005368,-0.420046,-0.939034,-0.05012,0.24682,0.32214
-14.831,0,0,19.831,19.831,5,5,24.7184,1.81576,-21.3187,0.00601877,-0.0137145,-0.0154232,0,0,3.6575,-112.945,-1.82,-0.00244,-0.41907,-0.936594,-0.05292,0.24444,0.3283
-14.8325,0,0,19.8325,19.8325,5,5,24.7208,1.81902,-21.3406,0.00353211,-0.0128215,-0.0213443,0,0,3.815,-113.208,-1.7675,-0.00488,-0.418216,-0.94245,-0.05292,0.24444,0.3283
-14.8349,0,0,19.8349,19.8349,5,5,24.7248,1.82124,-21.3617,0.00300753,-0.0126372,-0.0189153,0,0,4.06,-113.313,-1.7675,-0.005368,-0.418094,-0.94001,-0.05292,0.24444,0.3283
-14.8382,0,0,19.8382,19.8382,5,5,24.7303,1.82807,-21.3842,0.00604699,-0.0141383,-0.0169921,0,0,3.92,-113.138,-1.8025,-0.002196,-0.41968,-0.938058,-0.05292,0.24444,0.3283
-14.8425,0,0,19.8425,19.8425,5,5,24.7375,1.8365,-21.4072,0.00735776,-0.0145156,-0.013606,0,0,3.8325,-113.26,-1.7675,-0.000732,-0.420168,-0.934642,-0.05292,0.24444,0.3283
-14.8476,0,0,19.8476,19.8476,5,5,24.746,1.83657,-21.4253,0.00225406,-0.0151141,-0.0139138,0,0,3.745,-113.33,-1.54,-0.005856,-0.4209,-0.934886,-0.05292,0.24444,0.3283
-14.8521,0,0,19.8521,19.8521,5,5,24.7535,1.83955,-21.4446,0.00390303,-0.0147514,-0.0148309,0,0,3.85,-113.19,-1.5225,-0.004148,-0.420656,-0.93574,-0.05292,0.24444,0.3283
-14.8555,0,0,19.8555,19.8555,5,5,24.7591,1.84111,-21.4638,0.00278234,-0.0125861,-0.0138893,0,0,3.6925,-113.33,-1.6975,-0.005246,-0.418582,-0.934764,-0.05292,0.24444,0.3283
-14.86,0,0,19.86,19.86,5,5,24.7667,1.84342,-21.4831,0.00334958,-0.0147872,-0.0141917,0,0,3.64,-113.173,-1.8025,-0.004636,-0.4209,-0.935008,-0.04914,0.2436,0.33292
-14.8655,0,0,19.8655,19.8655,5,5,24.7758,1.84082,-21.4997,0.000236175,-0.0146418,-0.0135195,0,0,4.0775,-113.225,-1.82,-0.007808,-0.4209,-0.934276,-0.04914,0.2436,0.33292
-14.8713,0,0,19.8713,19.8713,5,5,24.7854,1.84255,-21.5179,0.00300027,-0.0154675,-0.0129757,0,0,4.0075,-113.103,-1.8725,-0.005002,-0.421876,-0.933666,-0.04914,0.2436,0.33292
-14.8751,0,0,19.8751,19.8751,5,5,24.7918,1.84487,-21.5369,0.00332425,-0.0148794,-0.0175722,0,0,3.7975,-113.19,-1.75,-0.004636,-0.421388,-0.93818,-0.04914,0.2436,0.33292
-14.8818,0,0,19.8818,19.8818,5,5,24.803,1.8464,-21.5542,0.00341903,-0.0175111,-0.01286,0,0,3.7625,-113.26,-1.68,-0.004514,-0.424194,-0.933422,-0.04914,0.2436,0.33292
-14.8861,0,0,19.8861,19.8861,5,5,24.8102,1.85391,-21.5748,0.00681101,-0.0158102,-0.015499,0,0,3.6225,-113.085,-1.6625,-0.000976,-0.422608,-0.935984,-0.04914,0.2436,0.33292
-14.8904,0,0,19.8904,19.8904,5,5,24.8174,1.8545,-21.5919,0.00218429,-0.0153308,-0.0172729,0,0,3.7975,-113.068,-1.68,-0.005612,-0.422242,-0.937692,-0.04914,0.2436,0.33292
-14.8952,0,0,19.8952,19.8952,5,5,24.8253,1.85681,-21.6095,0.00335889,-0.0141065,-0.013029,0,0,3.9375,-113.138,-1.5925,-0.004392,-0.421144,-0.933422,-0.04914,0.2436,0.33292
-14.8995,0,0,19.8995,19.8995,5,5,24.8325,1.8618,-21.6343,0.00521554,-0.0149716,-0.0157888,0,0,3.9375,-113.225,-1.6975,-0.00244,-0.42212,-0.936106,-0.04774,0.24612,0.33404
-14.9028,0,0,19.9028,19.9028,5,5,24.838,1.86465,-21.658,0.00346512,-0.0139068,-0.0170607,0,0,3.8325,-113.12,-1.82,-0.004148,-0.421144,-0.937326,-0.04774,0.24612,0.33404
-14.9082,0,0,19.9082,19.9082,5,5,24.847,1.86536,-21.6797,0.00248078,-0.0165742,-0.0167578,0,0,3.99,-113.12,-1.8025,-0.005124,-0.42395,-0.93696,-0.04774,0.24612,0.33404
-14.9129,0,0,19.9129,19.9129,5,5,24.8549,1.86742,-21.7019,0.00317385,-0.0144959,-0.0141117,0,0,3.955,-113.12,-1.715,-0.004392,-0.421998,-0.934276,-0.04774,0.24612,0.33404
-14.9177,0,0,19.9177,19.9177,5,5,24.8628,1.86828,-21.7235,0.00242983,-0.0147376,-0.0145389,0,0,3.8675,-113.19,-1.855,-0.005124,-0.422364,-0.934642,-0.04774,0.24612,0.33404
-14.9214,0,0,19.9214,19.9214,5,5,24.869,1.87027,-21.746,0.00312415,-0.0135411,-0.0161836,0,0,4.1125,-113.33,-1.7675,-0.004392,-0.421266,-0.936228,-0.04774,0.24612,0.33404
-14.9261,0,0,19.9261,19.9261,5,5,24.8769,1.86935,-21.7662,0.00131785,-0.0142704,-0.0151347,0,0,4.1825,-113.225,-1.6625,-0.006222,-0.42212,-0.93513,-0.04774,0.24612,0.33404
-14.9305,0,0,19.9305,19.9305,5,5,24.8842,1.86828,-21.7858,0.00121509,-0.0156204,-0.0181384,0,0,3.85,-113.138,-1.68,-0.006344,-0.423584,-0.938058,-0.04774,0.24612,0.33404
-14.9344,0,0,19.9344,19.9344,5,5,24.8907,1.86735,-21.8055,0.00110984,-0.0130737,-0.0141288,0,0,3.8325,-113.155,-1.6275,-0.006466,-0.421144,-0.934032,-0.04774,0.24612,0.33404
-14.9388,0,0,19.9388,19.9388,5,5,24.898,1.86547,-21.8282,0.000656708,-0.0136914,-0.0140581,0,0,3.78,-113.19,-1.61,-0.006954,-0.421876,-0.93391,-0.05236,0.2499,0.32942
-14.9419,0,0,19.9419,19.9419,5,5,24.9031,1.86983,-21.8544,0.00458965,-0.0131224,-0.0159424,0,0,3.885,-113.243,-1.645,-0.002928,-0.421388,-0.93574,-0.05236,0.2499,0.32942
-14.9463,0,0,19.9463,19.9463,5,5,24.9105,1.86889,-21.8771,0.00108292,-0.0137377,-0.0142751,0,0,3.955,-113.085,-1.7675,-0.006466,-0.42212,-0.934032,-0.05236,0.2499,0.32942
-14.953,0,0,19.953,19.953,5,5,24.9217,1.86732,-21.8987,0.00147472,-0.0168578,-0.013004,0,0,3.9725,-113.348,-1.6975,-0.0061,-0.425414,-0.93269,-0.05236,0.2499,0.32942
-14.9561,0,0,19.9561,19.9561,5,5,24.9268,1.8682,-21.9226,0.00243123,-0.0125026,-0.0152552,0,0,3.815,-113.435,-1.715,-0.005124,-0.421144,-0.934886,-0.05236,0.2499,0.32942
-14.9602,0,0,19.9602,19.9602,5,5,24.9337,1.86774,-21.9449,0.00171049,-0.0164238,-0.0199776,0,0,3.7275,-113.208,-1.785,-0.005856,-0.42517,-0.939522,-0.05236,0.2499,0.32942
-14.9629,0,0,19.9629,19.9629,5,5,24.9382,1.86749,-21.9676,0.00159336,-0.0125666,-0.0170598,0,0,3.815,-113.33,-1.61,-0.005978,-0.421388,-0.936594,-0.05236,0.2499,0.32942
-14.9645,0,0,19.9645,19.9645,5,5,24.9409,1.86802,-21.9908,0.00182707,-0.012525,-0.0207679,0,0,3.815,-113.225,-1.6975,-0.005734,-0.421388,-0.940254,-0.05236,0.2499,0.32942
-14.9659,0,0,19.9659,19.9659,5,5,24.9432,1.86911,-22.0138,0.00180806,-0.0124878,-0.020786,0,0,3.6925,-112.91,-1.8025,-0.005734,-0.421388,-0.940254,-0.05082,0.24892,0.32802
-14.9697,0,0,19.9697,19.9697,5,5,24.9494,1.87155,-22.0367,0.00322322,-0.0138559,-0.0153001,0,0,3.745,-113.068,-1.8025,-0.00427,-0.422852,-0.934764,-0.05082,0.24892,0.32802
-14.9733,0,0,19.9733,19.9733,5,5,24.9556,1.87381,-22.0592,0.00318382,-0.0137593,-0.0153465,0,0,3.78,-113.12,-1.715,-0.00427,-0.422852,-0.934764,-0.05082,0.24892,0.32802
-14.9774,0,0,19.9774,19.9774,5,5,24.9624,1.87254,-22.0797,0.0010193,-0.0148727,-0.0177319,0,0,3.9025,-113.173,-1.7325,-0.006466,-0.424072,-0.937082,-0.05082,0.24892,0.32802
-14.9813,0,0,19.9813,19.9813,5,5,24.9689,1.87136,-22.1002,0.00103984,-0.0147696,-0.0177792,0,0,3.815,-113.19,-1.82,-0.006466,-0.424072,-0.937082,-0.05082,0.24892,0.32802
-14.9824,0,0,19.9824,19.9824,5,5,24.9706,1.86671,-22.1195,-0.0017947,-0.0119324,-0.0225844,0,0,3.7275,-113.155,-1.7325,-0.009394,-0.421266,-0.94184,-0.05082,0.24892,0.32802
-14.9848,0,0,19.9848,19.9848,5,5,24.9746,1.8704,-22.1422,0.0038508,-0.0130906,-0.01819,0,0,3.8325,-113.068,-1.7675,-0.00366,-0.422486,-0.937448,-0.05082,0.24892,0.32802
-14.9886,0,0,19.9886,19.9886,5,5,24.981,1.86787,-22.1609,-0.00011408,-0.0139667,-0.0171288,0,0,3.885,-112.998,-1.7675,-0.007686,-0.423462,-0.93635,-0.05082,0.24892,0.32802
-14.9908,0,0,19.9908,19.9908,5,5,24.9847,1.87111,-22.178,0.00323091,-0.011832,-0.0161746,0,0,3.7975,-112.928,-1.8725,-0.00427,-0.421388,-0.935374,-0.05054,0.2457,0.32592
-14.9916,0,0,19.9916,19.9916,5,5,24.9861,1.87206,-22.1948,0.00163505,-0.0105898,-0.0195045,0,0,3.8675,-113.138,-1.96,-0.005856,-0.420168,-0.938668,-0.05054,0.2457,0.32592
-14.9943,0,0,19.9943,19.9943,5,5,24.9904,1.87069,-22.2099,0.000565548,-0.0124744,-0.0183065,0,0,4.0425,-113.278,-1.9775,-0.006954,-0.42212,-0.937448,-0.05054,0.2457,0.32592
-14.9973,0,0,19.9973,19.9973,5,5,24.9956,1.86712,-22.223,-0.00107303,-0.0111713,-0.0142851,0,0,3.955,-113.103,-1.9075,-0.008662,-0.4209,-0.933422,-0.05054,0.2457,0.32592
-14.9987,0,0,19.9987,19.9987,5,5,24.9979,1.86826,-22.239,0.00170133,-0.00930243,-0.0147949,0,0,3.9375,-113.103,-1.9075,-0.005856,-0.41907,-0.93391,-0.05054,0.2457,0.32592
-15.0012,0,0,20.0012,20.0012,5,5,25.002,1.87506,-22.257,0.00559182,-0.0109495,-0.0131071,0,0,3.9375,-112.998,-1.8375,-0.00183,-0.420778,-0.932202,-0.05054,0.2457,0.32592
-15.0023,0,0,20.0023,20.0023,5,5,25.0038,1.87636,-22.2727,0.00192453,-0.0104325,-0.0181621,0,0,3.9025,-113.085,-1.7675,-0.00549,-0.42029,-0.937204,-0.05054,0.2457,0.32592
-15.0046,0,0,20.0046,20.0046,5,5,25.0076,1.87452,-22.2862,1.28395e-05,-0.0100056,-0.014009,0,0,3.9375,-113.12,-1.6975,-0.007442,-0.419924,-0.933056,-0.05054,0.2457,0.32592
-15.005,0,0,20.005,20.005,5,5,25.0084,1.87763,-22.3029,0.00323866,-0.00938322,-0.0177048,0,0,3.955,-113.295,-1.6625,-0.004148,-0.419314,-0.936716,-0.05054,0.2457,0.32592
-15.0045,0,0,20.0045,20.0045,5,5,25.0075,1.87957,-22.312,0.00199005,-0.0073219,-0.0170844,0,0,3.885,-113.103,-1.6625,-0.005368,-0.41724,-0.936106,-0.05474,0.2443,0.32718
-15.0039,0,0,20.0039,20.0039,5,5,25.0065,1.88468,-22.3226,0.0042091,-0.00990375,-0.0211369,0,0,3.675,-113.05,-1.7675,-0.00305,-0.419802,-0.940132,-0.05474,0.2443,0.32718
-15.0045,0,0,20.0045,20.0045,5,5,25.0074,1.88574,-22.3308,0.00163942,-0.00988906,-0.0181937,0,0,3.71,-113.068,-1.82,-0.005612,-0.419802,-0.937204,-0.05474,0.2443,0.32718
-15.005,0,0,20.005,20.005,5,5,25.0083,1.8882,-22.3403,0.00281128,-0.00938721,-0.0175867,0,0,3.9375,-113.383,-1.855,-0.004392,-0.419314,-0.936594,-0.05474,0.2443,0.32718
-15.0065,0,0,20.0065,20.0065,5,5,25.0108,1.88747,-22.3476,0.00100172,-0.00995882,-0.0158832,0,0,3.8325,-113.453,-1.715,-0.006222,-0.419924,-0.934886,-0.05474,0.2443,0.32718
-15.0079,0,0,20.0079,20.0079,5,5,25.0131,1.88912,-22.3563,0.00267387,-0.0105331,-0.0171307,0,0,3.955,-113.558,-1.7675,-0.004514,-0.420534,-0.936106,-0.05474,0.2443,0.32718
-15.0074,0,0,20.0074,20.0074,5,5,25.0124,1.8921,-22.366,0.00310781,-0.00907984,-0.0204465,0,0,3.99,-113.383,-1.6975,-0.004026,-0.41907,-0.9394,-0.05474,0.2443,0.32718
-15.0088,0,0,20.0088,20.0088,5,5,25.0146,1.89509,-22.3747,0.00329865,-0.0107544,-0.0172681,0,0,3.9025,-113.26,-1.715,-0.003782,-0.420778,-0.936228,-0.05474,0.2443,0.32718
-15.0088,0,0,20.0088,20.0088,5,5,25.0146,1.89637,-22.3945,0.00169697,-0.00843481,-0.0178833,0,0,3.92,-113.19,-1.89,-0.005368,-0.41846,-0.936838,-0.04788,0.24724,0.32886
-15.0084,0,0,20.0084,20.0084,5,5,25.014,1.89793,-22.4143,0.00179119,-0.00746758,-0.0165273,0,0,3.815,-113.208,-1.9075,-0.005246,-0.417484,-0.935496,-0.04788,0.24724,0.32886
-15.0085,0,0,20.0085,20.0085,5,5,25.0142,1.89773,-22.433,0.000701347,-0.00648707,-0.0132092,0,0,3.8325,-113.278,-1.8375,-0.006344,-0.416508,-0.932202,-0.04788,0.24724,0.32886
-15.0098,0,0,20.0098,20.0098,5,5,25.0163,1.90073,-22.4526,0.00307869,-0.0104851,-0.0174063,0,0,3.955,-113.138,-1.9075,-0.003904,-0.420534,-0.93635,-0.04788,0.24724,0.32886
-15.0095,0,0,20.0095,20.0095,5,5,25.0159,1.90643,-22.4736,0.00468,-0.00939415,-0.0194963,0,0,3.9025,-113.085,-1.715,-0.002196,-0.419436,-0.938424,-0.04788,0.24724,0.32886
-15.008,0,0,20.008,20.008,5,5,25.0133,1.90905,-22.4935,0.00244766,-0.00772508,-0.0208314,0,0,3.78,-113.173,-1.7325,-0.004392,-0.417728,-0.939766,-0.04788,0.24724,0.32886
-15.0086,0,0,20.0086,20.0086,5,5,25.0144,1.91163,-22.5126,0.00276709,-0.00819806,-0.0146929,0,0,3.92,-113.26,-1.7325,-0.004026,-0.418216,-0.933666,-0.04788,0.24724,0.32886
-15.0092,0,0,20.0092,20.0092,5,5,25.0153,1.91656,-22.533,0.00438182,-0.00879564,-0.0158087,0,0,3.99,-113.313,-1.82,-0.002318,-0.418826,-0.934764,-0.04788,0.24724,0.32886
-15.0083,0,0,20.0083,20.0083,5,5,25.0138,1.92103,-22.5456,0.00369648,-0.00808647,-0.0197349,0,0,4.0425,-113.103,-1.715,-0.002928,-0.418094,-0.938668,-0.0483,0.24192,0.32116
-15.0106,0,0,20.0106,20.0106,5,5,25.0177,1.92083,-22.5548,0.00127023,-0.0119335,-0.0177961,0,0,4.025,-113.173,-1.7675,-0.005368,-0.421998,-0.936716,-0.0483,0.24192,0.32116
-15.0117,0,0,20.0117,20.0117,5,5,25.0195,1.92261,-22.5649,0.00221116,-0.00934003,-0.0163353,0,0,4.095,-113.068,-1.61,-0.004392,-0.419436,-0.935252,-0.0483,0.24192,0.32116
-15.0116,0,0,20.0116,20.0116,5,5,25.0193,1.92433,-22.5756,0.00218105,-0.00848988,-0.0185473,0,0,3.9725,-113.225,-1.575,-0.004392,-0.418582,-0.937448,-0.0483,0.24192,0.32116
-15.0124,0,0,20.0124,20.0124,5,5,25.0207,1.92554,-22.5858,0.00203848,-0.00968812,-0.0173293,0,0,3.9375,-113.278,-1.6975,-0.004514,-0.419802,-0.936228,-0.0483,0.24192,0.32116
-15.0147,0,0,20.0147,20.0147,5,5,25.0244,1.92566,-22.5949,0.00155044,-0.0119501,-0.0180944,0,0,4.0425,-113.26,-1.8025,-0.005002,-0.42212,-0.93696,-0.0483,0.24192,0.32116
-15.0137,0,0,20.0137,20.0137,5,5,25.0228,1.92933,-22.6067,0.00330872,-0.00880147,-0.0217728,0,0,4.0075,-113.173,-1.6975,-0.003172,-0.418948,-0.94062,-0.0483,0.24192,0.32116
-15.0135,0,0,20.0135,20.0135,5,5,25.0225,1.92736,-22.6154,-0.000179902,-0.0103933,-0.0236138,0,0,3.9375,-113.243,-1.6975,-0.00671,-0.420534,-0.94245,-0.0483,0.24192,0.32116
-15.0135,0,0,20.0135,20.0135,5,5,25.0225,1.92615,-22.6293,0.00044858,-0.00929413,-0.0199245,0,0,3.8325,-113.435,-1.7675,-0.0061,-0.419436,-0.93879,-0.05124,0.24836,0.33362
-15.0128,0,0,20.0128,20.0128,5,5,25.0213,1.93005,-22.6458,0.00366071,-0.00870309,-0.019795,0,0,3.85,-113.365,-1.7675,-0.002806,-0.418826,-0.938668,-0.05124,0.24836,0.33362
-15.0126,0,0,20.0126,20.0126,5,5,25.021,1.93217,-22.6606,0.0021658,-0.00858703,-0.0179493,0,0,3.7275,-113.05,-1.8375,-0.00427,-0.418704,-0.936838,-0.05124,0.24836,0.33362
-15.0138,0,0,20.0138,20.0138,5,5,25.023,1.93534,-22.6753,0.00308239,-0.0106314,-0.0174744,0,0,3.885,-112.963,-1.82,-0.003294,-0.420778,-0.93635,-0.05124,0.24836,0.33362
-15.0172,0,0,20.0172,20.0172,5,5,25.0286,1.93254,-22.6866,-0.0001488,-0.0124967,-0.0155468,0,0,3.92,-113.365,-1.9075,-0.006588,-0.42273,-0.934398,-0.05124,0.24836,0.33362
-15.0167,0,0,20.0167,20.0167,5,5,25.0278,1.9331,-22.7008,0.00129918,-0.0077461,-0.0180004,0,0,3.885,-113.313,-1.82,-0.005124,-0.417972,-0.936838,-0.05124,0.24836,0.33362
-15.0184,0,0,20.0184,20.0184,5,5,25.0306,1.93243,-22.713,0.000338924,-0.00965568,-0.014947,0,0,3.885,-112.893,-1.9775,-0.0061,-0.419924,-0.933788,-0.05124,0.24836,0.33362
-15.0199,0,0,20.0199,20.0199,5,5,25.0331,1.93197,-22.7253,0.00046846,-0.00937241,-0.014719,0,0,3.815,-112.945,-2.03,-0.005978,-0.41968,-0.933544,-0.05124,0.24836,0.33362
-15.0199,0,0,20.0199,20.0199,5,5,25.0331,1.9315,-22.738,0.000476793,-0.00900597,-0.018776,0,0,3.71,-113.05,-1.855,-0.005978,-0.419314,-0.93757,-0.05124,0.24836,0.33362
-15.0194,0,0,20.0194,20.0194,5,5,25.0324,1.9315,-22.745,0.000476717,-0.00694117,-0.01582,0,0,3.71,-112.928,-1.82,-0.005978,-0.41724,-0.934642,-0.0539,0.24668,0.33432
-15.0215,0,0,20.0215,20.0215,5,5,25.0358,1.93215,-22.7516,0.00180168,-0.0123832,-0.0190421,0,0,3.92,-113.138,-1.82,-0.004636,-0.42273,-0.937814,-0.0539,0.24668,0.33432
-15.0222,0,0,20.0222,20.0222,5,5,25.0371,1.9329,-22.7589,0.00154563,-0.00906562,-0.0169619,0,0,4.0425,-113.208,-1.785,-0.00488,-0.419436,-0.93574,-0.0539,0.24668,0.33432
-15.0228,0,0,20.0228,20.0228,5,5,25.038,1.93131,-22.7648,-5.84501e-06,-0.00941765,-0.0188118,0,0,3.92,-113.173,-1.715,-0.006466,-0.419802,-0.93757,-0.0539,0.24668,0.33432
-15.0224,0,0,20.0224,20.0224,5,5,25.0374,1.9306,-22.7717,0.00037099,-0.00722809,-0.016963,0,0,3.92,-113.26,-1.8025,-0.0061,-0.417606,-0.93574,-0.0539,0.24668,0.33432
-15.0243,0,0,20.0243,20.0243,5,5,25.0405,1.9265,-22.7761,-0.0012583,-0.0115738,-0.0184595,0,0,3.745,-113.348,-1.9075,-0.007808,-0.421998,-0.937204,-0.0539,0.24668,0.33432
-15.0262,0,0,20.0262,20.0262,5,5,25.0436,1.92771,-22.7832,0.00236508,-0.0116478,-0.0170074,0,0,3.6925,-113.418,-1.925,-0.004148,-0.42212,-0.93574,-0.0539,0.24668,0.33432
-15.0275,0,0,20.0275,20.0275,5,5,25.0458,1.92739,-22.7889,0.000791433,-0.0111244,-0.0184989,0,0,3.71,-112.98,-1.89,-0.005734,-0.421632,-0.937204,-0.0539,0.24668,0.33432
-15.03,0,0,20.03,20.03,5,5,25.05,1.92584,-22.7999,0.000210963,-0.0121577,-0.0170533,0,0,3.7625,-112.998,-1.8725,-0.006344,-0.42273,-0.93574,-0.05124,0.2485,0.33194
-15.0316,0,0,20.0316,20.0316,5,5,25.0527,1.92355,-22.8113,-0.000113519,-0.0121131,-0.0205152,0,0,3.9025,-113.278,-1.89,-0.00671,-0.42273,-0.939156,-0.05124,0.2485,0.33194
-15.0325,0,0,20.0325,20.0325,5,5,25.0542,1.91972,-22.8221,-0.00114011,-0.00940284,-0.0178188,0,0,3.85,-113.47,-1.6975,-0.007808,-0.420046,-0.936472,-0.05124,0.2485,0.33194
-15.0333,0,0,20.0333,20.0333,5,5,25.0555,1.92107,-22.8352,0.00211653,-0.00938228,-0.0169687,0,0,3.955,-113.33,-1.785,-0.004514,-0.420046,-0.935618,-0.05124,0.2485,0.33194
-15.033,0,0,20.033,20.033,5,5,25.055,1.91994,-22.8475,0.000192415,-0.00963415,-0.0222512,0,0,3.955,-113.243,-1.925,-0.006466,-0.42029,-0.940864,-0.05124,0.2485,0.33194
-15.0326,0,0,20.0326,20.0326,5,5,25.0543,1.91891,-22.8594,0.000210307,-0.0096455,-0.0222452,0,0,3.815,-113.138,-1.8025,-0.006466,-0.42029,-0.940864,-0.05124,0.2485,0.33194
-15.0347,0,0,20.0347,20.0347,5,5,25.0579,1.92541,-22.8738,0.00580688,-0.0122764,-0.0167429,0,0,3.9725,-113.155,-1.715,-0.000732,-0.422974,-0.935374,-0.05124,0.2485,0.33194
-15.0369,0,0,20.0369,20.0369,5,5,25.0614,1.93178,-22.8884,0.00569579,-0.0122218,-0.0167725,0,0,3.955,-113.19,-1.8375,-0.000732,-0.422974,-0.935374,-0.05124,0.2485,0.33194
-15.038,0,0,20.038,20.038,5,5,25.0633,1.93359,-22.8974,0.00238407,-0.00999518,-0.0170328,0,0,3.9375,-113.208,-1.785,-0.004026,-0.420778,-0.935618,-0.05138,0.24584,0.32788
-15.0388,0,0,20.0388,20.0388,5,5,25.0646,1.93287,-22.905,0.000574312,-0.00948469,-0.0175344,0,0,3.9025,-113.155,-1.7675,-0.005856,-0.42029,-0.936106,-0.05138,0.24584,0.32788
-15.0398,0,0,20.0398,20.0398,5,5,25.0664,1.93032,-22.9113,-0.000717492,-0.00835736,-0.0143493,0,0,3.7625,-113.103,-1.68,-0.007198,-0.419192,-0.932934,-0.05138,0.24584,0.32788
-15.0402,0,0,20.0402,20.0402,5,5,25.0669,1.93197,-22.92,0.00192642,-0.00847139,-0.0161984,0,0,3.815,-113.068,-1.8025,-0.004514,-0.419314,-0.934764,-0.05138,0.24584,0.32788
-15.0405,0,0,20.0405,20.0405,5,5,25.0675,1.93483,-22.9292,0.00284827,-0.0105394,-0.0205072,0,0,3.885,-113.015,-1.82,-0.003538,-0.421388,-0.939034,-0.05138,0.24584,0.32788
-15.042,0,0,20.042,20.042,5,5,25.07,1.93713,-22.9374,0.00244368,-0.0105,-0.0167158,0,0,3.9725,-112.893,-1.82,-0.003904,-0.421388,-0.935252,-0.05138,0.24584,0.32788
-15.0439,0,0,20.0439,20.0439,5,5,25.0732,1.94022,-22.946,0.00311881,-0.0105726,-0.0155115,0,0,4.06,-112.998,-1.82,-0.003172,-0.42151,-0.934032,-0.05138,0.24584,0.32788
-15.0441,0,0,20.0441,20.0441,5,5,25.0736,1.94026,-22.9542,0.000931285,-0.00836863,-0.0177272,0,0,4.06,-113.225,-1.89,-0.005368,-0.419314,-0.936228,-0.05138,0.24584,0.32788
-15.0467,0,0,20.0467,20.0467,5,5,25.0778,1.94205,-22.962,0.0024795,-0.0100124,-0.0125955,0,0,4.1125,-113.19,-1.785,-0.003782,-0.421022,-0.931104,-0.05138,0.24584,0.32788
-15.0485,0,0,20.0485,20.0485,5,5,25.0809,1.94067,-22.9665,0.00019519,-0.0106961,-0.0174125,0,0,4.095,-113.015,-1.715,-0.0061,-0.421754,-0.935862,-0.0518,0.24556,0.32998
-15.0487,0,0,20.0487,20.0487,5,5,25.0812,1.94459,-22.9744,0.00377149,-0.0104481,-0.0212282,0,0,4.0775,-113.155,-1.61,-0.00244,-0.42151,-0.939644,-0.0518,0.24556,0.32998
-15.0494,0,0,20.0494,20.0494,5,5,25.0824,1.94601,-22.9808,0.00204582,-0.00969577,-0.0179187,0,0,3.99,-113.155,-1.715,-0.004148,-0.420778,-0.93635,-0.0518,0.24556,0.32998
-15.0519,0,0,20.0519,20.0519,5,5,25.0865,1.94381,-22.9845,-0.000223896,-0.011585,-0.0167181,0,0,3.92,-113.015,-1.7325,-0.006466,-0.42273,-0.93513,-0.0518,0.24556,0.32998
-15.0528,0,0,20.0528,20.0528,5,5,25.088,1.94416,-22.9901,0.00122784,-0.0104622,-0.0195572,0,0,4.025,-113.033,-1.785,-0.005002,-0.421632,-0.937936,-0.0518,0.24556,0.32998
-15.0545,0,0,20.0545,20.0545,5,5,25.0908,1.94069,-22.9935,-0.00114137,-0.00992778,-0.0161339,0,0,3.92,-113.138,-1.715,-0.007442,-0.421144,-0.93452,-0.0518,0.24556,0.32998
-15.0556,0,0,20.0556,20.0556,5,5,25.0927,1.94242,-22.9996,0.00235146,-0.00989901,-0.0162714,0,0,3.815,-113.173,-1.6975,-0.003904,-0.421144,-0.934642,-0.0518,0.24556,0.32998
-15.0562,0,0,20.0562,20.0562,5,5,25.0936,1.9458,-23.0067,0.00338597,-0.00951905,-0.0177554,0,0,4.0075,-113.19,-1.6625,-0.002806,-0.420778,-0.936106,-0.0518,0.24556,0.32998
-15.0564,0,0,20.0564,20.0564,5,5,25.094,1.949,-23.0132,0.00333005,-0.00914703,-0.018129,0,0,4.025,-113.278,-1.61,-0.002806,-0.420412,-0.936472,-0.05278,0.24668,0.33586
-15.0561,0,0,20.0561,20.0561,5,5,25.0935,1.94863,-23.018,0.000663902,-0.00927697,-0.0216906,0,0,4.06,-113.138,-1.715,-0.00549,-0.420534,-0.94001,-0.05278,0.24668,0.33586
-15.0563,0,0,20.0563,20.0563,5,5,25.0938,1.949,-23.0231,0.00126481,-0.00927302,-0.0188649,0,0,3.8325,-113.225,-1.855,-0.00488,-0.420534,-0.937204,-0.05278,0.24668,0.33586
-15.0587,0,0,20.0587,20.0587,5,5,25.0979,1.94818,-23.0266,0.000671624,-0.0121388,-0.0180343,0,0,4.095,-113.033,-1.9075,-0.00549,-0.423462,-0.93635,-0.05278,0.24668,0.33586
-15.0604,0,0,20.0604,20.0604,5,5,25.1007,1.94549,-23.0295,-0.000496262,-0.0105065,-0.0175616,0,0,4.0075,-113.243,-1.75,-0.00671,-0.421876,-0.935862,-0.05278,0.24668,0.33586
-15.058,0,0,20.058,20.058,5,5,25.0967,1.95206,-23.0384,0.00497742,-0.00629557,-0.0201181,0,0,3.92,-113.208,-1.75,-0.001098,-0.417606,-0.938424,-0.05278,0.24668,0.33586
-15.0586,0,0,20.0586,20.0586,5,5,25.0976,1.95444,-23.0445,0.00287079,-0.00884747,-0.0164372,0,0,3.955,-113.435,-1.7675,-0.003172,-0.420168,-0.934764,-0.05278,0.24668,0.33586
-15.0597,0,0,20.0597,20.0597,5,5,25.0996,1.95736,-23.0506,0.00342714,-0.0101603,-0.0165764,0,0,3.955,-113.453,-1.8025,-0.002562,-0.42151,-0.934886,-0.05278,0.24668,0.33586
-15.0597,0,0,20.0597,20.0597,5,5,25.0996,1.9588,-23.0616,0.00182278,-0.00784039,-0.0165771,0,0,3.955,-113.173,-1.785,-0.004148,-0.419192,-0.934886,-0.04844,0.24766,0.33628
-15.0588,0,0,20.0588,20.0588,5,5,25.0981,1.96057,-23.0732,0.00215633,-0.00762034,-0.0193947,0,0,4.0075,-113.313,-1.645,-0.003782,-0.418948,-0.937692,-0.04844,0.24766,0.33628
-15.0587,0,0,20.0587,20.0587,5,5,25.0978,1.96269,-23.0843,0.00248386,-0.00786905,-0.0161974,0,0,3.78,-113.26,-1.5925,-0.003416,-0.419192,-0.93452,-0.04844,0.24766,0.33628
-15.0585,0,0,20.0585,20.0585,5,5,25.0976,1.96531,-23.0958,0.00280268,-0.00653028,-0.0134921,0,0,3.8675,-113.365,-1.61,-0.00305,-0.41785,-0.931836,-0.04844,0.24766,0.33628
-15.0608,0,0,20.0608,20.0608,5,5,25.1013,1.96743,-23.1057,0.00288718,-0.010746,-0.0141357,0,0,3.9025,-113.173,-1.5575,-0.002928,-0.42212,-0.932446,-0.04844,0.24766,0.33628
-15.0612,0,0,20.0612,20.0612,5,5,25.102,1.96975,-23.1169,0.00284662,-0.00914767,-0.0168471,0,0,3.815,-113.4,-1.785,-0.002928,-0.420534,-0.93513,-0.04844,0.24766,0.33628
-15.0639,0,0,20.0639,20.0639,5,5,25.1066,1.97006,-23.126,0.00186935,-0.0116406,-0.014422,0,0,3.815,-113.365,-1.82,-0.003904,-0.423096,-0.93269,-0.04844,0.24766,0.33628
-15.0658,0,0,20.0658,20.0658,5,5,25.1096,1.97067,-23.1358,0.00185869,-0.00951675,-0.0132152,0,0,3.85,-113.453,-1.89,-0.003904,-0.421022,-0.93147,-0.04844,0.24766,0.33628
-15.0675,0,0,20.0675,20.0675,5,5,25.1125,1.97202,-23.1379,0.00232118,-0.0109366,-0.0170489,0,0,4.0425,-113.365,-1.925,-0.003416,-0.422486,-0.935252,-0.05054,0.2443,0.33684
-15.0685,0,0,20.0685,20.0685,5,5,25.1142,1.97059,-23.1384,0.000159323,-0.0100545,-0.0190279,0,0,4.1125,-113.155,-1.7325,-0.005612,-0.421632,-0.937204,-0.05054,0.2443,0.33684
-15.0697,0,0,20.0697,20.0697,5,5,25.1162,1.96857,-23.1386,-0.00029134,-0.00904569,-0.0162137,0,0,4.06,-113.19,-1.785,-0.0061,-0.420656,-0.934398,-0.05054,0.2443,0.33684
-15.0695,0,0,20.0695,20.0695,5,5,25.1159,1.97293,-23.143,0.00424906,-0.00905132,-0.0190417,0,0,4.0425,-113.505,-1.785,-0.001464,-0.420656,-0.937204,-0.05054,0.2443,0.33684
-15.0684,0,0,20.0684,20.0684,5,5,25.1141,1.97109,-23.1445,-0.000335312,-0.00712577,-0.0202567,0,0,4.0425,-113.4,-1.8025,-0.0061,-0.418704,-0.938424,-0.05054,0.2443,0.33684
-15.0687,0,0,20.0687,20.0687,5,5,25.1145,1.97531,-23.1485,0.00384306,-0.0083419,-0.0162046,0,0,4.0425,-113.295,-1.9075,-0.00183,-0.419924,-0.934398,-0.05054,0.2443,0.33684
-15.0702,0,0,20.0702,20.0702,5,5,25.117,1.97549,-23.1494,0.0012887,-0.010501,-0.0174525,0,0,4.025,-113.103,-1.7325,-0.004392,-0.42212,-0.935618,-0.05054,0.2443,0.33684
-15.0695,0,0,20.0695,20.0695,5,5,25.1159,1.97668,-23.152,0.00175387,-0.00868598,-0.020888,0,0,4.0075,-113.243,-1.7675,-0.003904,-0.42029,-0.939034,-0.05054,0.2443,0.33684
-15.0721,0,0,20.0721,20.0721,5,5,25.1202,1.97403,-23.1512,-0.000265103,-0.010815,-0.0145253,0,0,3.955,-113.295,-1.6975,-0.005978,-0.422486,-0.93269,-0.05054,0.2443,0.33684
-15.0737,0,0,20.0737,20.0737,5,5,25.1229,1.97386,-23.1531,0.00107407,-0.00955189,-0.0154055,0,0,4.095,-113.173,-1.6975,-0.004636,-0.421266,-0.933544,-0.04956,0.24486,0.33936
-15.0749,0,0,20.0749,20.0749,5,5,25.1248,1.97567,-23.1562,0.00250044,-0.010133,-0.0180024,0,0,4.1825,-113.243,-1.6625,-0.003172,-0.421876,-0.936106,-0.04956,0.24486,0.33936
-15.0755,0,0,20.0755,20.0755,5,5,25.1258,1.97351,-23.1579,-0.000377506,-0.0070636,-0.014689,0,0,4.2175,-113.418,-1.785,-0.0061,-0.418826,-0.932812,-0.04956,0.24486,0.33936
-15.0762,0,0,20.0762,20.0762,5,5,25.127,1.97462,-23.1608,0.00178988,-0.00851061,-0.0155591,0,0,3.99,-113.225,-1.785,-0.003904,-0.42029,-0.933666,-0.04956,0.24486,0.33936
-15.076,0,0,20.076,20.076,5,5,25.1267,1.97667,-23.1648,0.00248306,-0.00741607,-0.0158042,0,0,3.9375,-113.418,-1.75,-0.003172,-0.419192,-0.93391,-0.04956,0.24486,0.33936
-15.0777,0,0,20.0777,20.0777,5,5,25.1295,1.97228,-23.1645,-0.00169237,-0.00969218,-0.0158221,0,0,3.8675,-113.278,-1.785,-0.007442,-0.42151,-0.93391,-0.04956,0.24486,0.33936
-15.0785,0,0,20.0785,20.0785,5,5,25.1308,1.96844,-23.1648,-0.00162555,-0.00808238,-0.0149693,0,0,3.78,-113.225,-1.89,-0.007442,-0.419924,-0.933056,-0.04956,0.24486,0.33936
-15.0805,0,0,20.0805,20.0805,5,5,25.1341,1.96634,-23.1652,-0.00037401,-0.0102273,-0.0149929,0,0,3.85,-113.033,-1.89,-0.006222,-0.42212,-0.933056,-0.04956,0.24486,0.33936
-15.0801,0,0,20.0801,20.0801,5,5,25.1335,1.96296,-23.168,-0.00152992,-0.00730604,-0.017568,0,0,3.7625,-113.138,-1.75,-0.007442,-0.419192,-0.935618,-0.05138,0.24584,0.33194
-15.0824,0,0,20.0824,20.0824,5,5,25.1373,1.95868,-23.1694,-0.00169826,-0.00907665,-0.0121842,0,0,3.8675,-113.19,-1.82,-0.007686,-0.421022,-0.93025,-0.05138,0.24584,0.33194
-15.0848,0,0,20.0848,20.0848,5,5,25.1413,1.95465,-23.1708,-0.00162788,-0.00901241,-0.0122117,0,0,4.025,-113.138,-1.8725,-0.007686,-0.421022,-0.93025,-0.05138,0.24584,0.33194
-15.0858,0,0,20.0858,20.0858,5,5,25.143,1.95472,-23.1747,0.000922089,-0.00898455,-0.0160362,0,0,4.0775,-113.085,-1.925,-0.005124,-0.421022,-0.934032,-0.05138,0.24584,0.33194
-15.088,0,0,20.088,20.088,5,5,25.1467,1.95111,-23.1766,-0.000715712,-0.0107573,-0.0158157,0,0,3.92,-113.523,-1.6975,-0.006832,-0.422852,-0.933788,-0.05138,0.24584,0.33194
-15.0801,0,0,20.0801,20.0801,5,5,25.1334,1.94945,-23.1835,-0.000808248,-0.00864672,-0.0491581,0,0,3.955,-113.453,-1.8025,-0.006954,-0.420534,-0.966972,-0.05138,0.24584,0.33194
-15.082,0,0,20.082,20.082,5,5,25.1366,1.94793,-23.1864,0.00019005,-0.00981719,-0.0150013,0,0,4.06,-113.26,-1.925,-0.005978,-0.421754,-0.933056,-0.05138,0.24584,0.33194
-15.083,0,0,20.083,20.083,5,5,25.1383,1.94607,-23.1895,-0.000141914,-0.00881239,-0.0159967,0,0,4.025,-113.33,-1.925,-0.006344,-0.420778,-0.934032,-0.05138,0.24584,0.33194
-15.0836,0,0,20.0836,20.0836,5,5,25.1394,1.944,-23.1894,-0.000105851,-0.00879495,-0.0160035,0,0,3.675,-113.418,-1.75,-0.006344,-0.420778,-0.934032,-0.05124,0.24402,0.3318
-15.0832,0,0,20.0832,20.0832,5,5,25.1387,1.94133,-23.1895,-0.000545159,-0.0090506,-0.0211603,0,0,3.78,-113.488,-1.7325,-0.006832,-0.421022,-0.939156,-0.05124,0.24402,0.3318
-15.0852,0,0,20.0852,20.0852,5,5,25.142,1.93975,-23.1889,0.000211306,-0.00973003,-0.0140533,0,0,3.955,-113.225,-1.7325,-0.0061,-0.421754,-0.93208,-0.05124,0.24402,0.3318
-15.0867,0,0,20.0867,20.0867,5,5,25.1446,1.94059,-23.1896,0.00189746,-0.0113995,-0.0183759,0,0,3.9025,-113.208,-1.8025,-0.004392,-0.423462,-0.93635,-0.05124,0.24402,0.3318
-15.0884,0,0,20.0884,20.0884,5,5,25.1473,1.93704,-23.188,-0.00107778,-0.00940143,-0.0147058,0,0,3.815,-113.295,-1.68,-0.007442,-0.42151,-0.93269,-0.05124,0.24402,0.3318
-15.0871,0,0,20.0871,20.0871,5,5,25.1452,1.9397,-23.1905,0.00276333,-0.00967923,-0.0236671,0,0,3.71,-113.19,-1.7325,-0.003538,-0.421754,-0.941596,-0.05124,0.24402,0.3318
-15.0861,0,0,20.0861,20.0861,5,5,25.1435,1.94262,-23.1929,0.00271237,-0.0097076,-0.0236557,0,0,3.8675,-112.998,-1.785,-0.003538,-0.421754,-0.941596,-0.05124,0.24402,0.3318
-15.0879,0,0,20.0879,20.0879,5,5,25.1465,1.9429,-23.1927,0.00112825,-0.0106366,-0.0160556,0,0,3.9025,-112.858,-1.75,-0.005124,-0.42273,-0.934032,-0.05124,0.24402,0.3318
-15.0895,0,0,20.0895,20.0895,5,5,25.1492,1.94241,-23.195,0.00113673,-0.0105937,-0.0160754,0,0,3.745,-113.243,-1.5225,-0.005124,-0.42273,-0.934032,-0.04984,0.2457,0.33698
-15.091,0,0,20.091,20.091,5,5,25.1516,1.9418,-23.1972,0.00102589,-0.0104333,-0.0162159,0,0,3.6925,-113.243,-1.5225,-0.005246,-0.422608,-0.934154,-0.04984,0.2457,0.33698
-15.0929,0,0,20.0929,20.0929,5,5,25.1548,1.94137,-23.1997,0.0010334,-0.0103837,-0.0162389,0,0,4.13,-113.208,-1.6625,-0.005246,-0.422608,-0.934154,-0.04984,0.2457,0.33698
-15.0925,0,0,20.0925,20.0925,5,5,25.1542,1.94276,-23.2039,0.00161663,-0.0057525,-0.0142681,0,0,4.1825,-113.173,-1.68,-0.004636,-0.417972,-0.932202,-0.04984,0.2457,0.33698
-15.0918,0,0,20.0918,20.0918,5,5,25.1531,1.9442,-23.2081,0.00159152,-0.00577036,-0.0142607,0,0,3.885,-113.155,-1.7675,-0.004636,-0.417972,-0.932202,-0.04984,0.2457,0.33698
-15.091,0,0,20.091,20.091,5,5,25.1516,1.94619,-23.2128,0.0020428,-0.00725982,-0.0186769,0,0,4.025,-113.138,-1.75,-0.004148,-0.419436,-0.936594,-0.04984,0.2457,0.33698
-15.091,0,0,20.091,20.091,5,5,25.1517,1.94696,-23.2166,0.00142196,-0.00762417,-0.0159735,0,0,3.9725,-113.243,-1.82,-0.004758,-0.419802,-0.93391,-0.04984,0.2457,0.33698
-15.089,0,0,20.089,20.089,5,5,25.1483,1.95003,-23.2225,0.00270466,-0.00609086,-0.0190237,0,0,3.78,-113.295,-1.89,-0.003416,-0.418216,-0.93696,-0.04984,0.2457,0.33698
-15.0883,0,0,20.0883,20.0883,5,5,25.1472,1.95126,-23.2271,0.00195439,-0.00794157,-0.0180321,0,0,3.6575,-113.47,-1.8375,-0.004148,-0.420046,-0.935984,-0.04984,0.2457,0.33698
-15.09,0,0,20.09,20.09,5,5,25.15,1.95126,-23.228,0.00134696,-0.00936297,-0.0135037,0,0,3.85,-113.383,-1.855,-0.004758,-0.42151,-0.93147,-0.04984,0.24332,0.33026
-15.091,0,0,20.091,20.091,5,5,25.1517,1.95221,-23.2295,0.00218074,-0.010923,-0.0183123,0,0,3.745,-113.453,-1.8025,-0.003904,-0.423096,-0.936228,-0.04984,0.24332,0.33026
-15.0893,0,0,20.0893,20.0893,5,5,25.1488,1.95288,-23.2323,0.00144014,-0.00693867,-0.0201354,0,0,3.7275,-113.54,-1.8725,-0.004636,-0.41907,-0.938058,-0.04984,0.24332,0.33026
-15.0897,0,0,20.0897,20.0897,5,5,25.1494,1.95248,-23.2334,0.000839636,-0.00863889,-0.0164512,0,0,3.7275,-113.33,-1.855,-0.005246,-0.420778,-0.934398,-0.04984,0.24332,0.33026
-15.0878,0,0,20.0878,20.0878,5,5,25.1463,1.95526,-23.2368,0.00273486,-0.00722348,-0.0208556,0,0,3.7625,-113.348,-1.785,-0.003294,-0.419314,-0.93879,-0.04984,0.24332,0.33026
-15.0886,0,0,20.0886,20.0886,5,5,25.1477,1.95864,-23.2395,0.00340484,-0.00903488,-0.0150889,0,0,3.8675,-113.243,-1.8375,-0.002562,-0.421144,-0.933056,-0.04984,0.24332,0.33026
-15.0874,0,0,20.0874,20.0874,5,5,25.1457,1.95689,-23.2407,-0.000452133,-0.00650032,-0.0182703,0,0,3.815,-113.348,-1.9425,-0.006466,-0.418582,-0.936228,-0.04984,0.24332,0.33026
-15.0875,0,0,20.0875,20.0875,5,5,25.1458,1.95744,-23.2424,0.00136052,-0.00857471,-0.0180256,0,0,3.955,-113.295,-1.925,-0.004636,-0.420656,-0.935984,-0.04984,0.24332,0.33026
-15.0885,0,0,20.0885,20.0885,5,5,25.1476,1.95669,-23.2458,0.000523208,-0.00928011,-0.0165626,0,0,3.99,-113.225,-1.96,-0.00549,-0.421388,-0.93452,-0.04662,0.24388,0.3346
-15.089,0,0,20.089,20.089,5,5,25.1483,1.9597,-23.251,0.0029004,-0.00878107,-0.0165695,0,0,3.9725,-113.12,-1.96,-0.00305,-0.4209,-0.93452,-0.04662,0.24388,0.3346
-15.0883,0,0,20.0883,20.0883,5,5,25.1472,1.95784,-23.2544,-0.000590246,-0.00708729,-0.018282,0,0,3.9725,-113.208,-1.925,-0.006588,-0.419192,-0.936228,-0.04662,0.24388,0.3346
-15.088,0,0,20.088,20.088,5,5,25.1466,1.95957,-23.2595,0.00229533,-0.00880716,-0.0198768,0,0,3.99,-113.383,-1.82,-0.00366,-0.4209,-0.937814,-0.04662,0.24388,0.3346
-15.0859,0,0,20.0859,20.0859,5,5,25.1432,1.94032,-23.274,0.00250964,-0.00910002,-0.018243,0,0,2.065,-126.77,-1.8725,-0.003782,-0.421144,-0.936228,-0.04662,0.24388,0.3346
-15.0845,0,0,20.0845,20.0845,5,5,25.1408,1.9375,-23.2755,0.0761791,-0.0206174,0.237386,1,0,2.5375,-114.818,-1.855,0.07015,-0.432612,-0.68259,-0.04662,0.24388,0.3346
-15.1058,0,0,20.1058,20.1058,5,5,25.1763,2.075,-23.1825,0.0289525,-0.0155743,0.0647964,0,0,-1.6275,-35.7175,30.8175,0.025132,-0.428098,-0.853512,-0.04662,0.24388,0.3346
-15.1068,0,0,20.1068,20.1068,5,5,25.1781,2.06462,-23.185,-0.256358,0.0860661,-1.0833,1,0,4.9175,-119.088,-0.525,-0.261568,-0.326594,-1.99275,-0.04662,0.24388,0.3346
-15.1131,0,0,20.1131,20.1131,5,5,25.1884,1.655,-23.497,-4.51787e-05,-0.00392333,-0.0366333,0,0,21.385,-402.098,-65.765,-0.011346,-0.416752,-0.954284,-0.05278,0.2457,0.32746
-15.107,0,0,20.107,20.107,5,5,25.1783,1.79868,-23.4005,0.376484,-0.126609,1.23134,1,0,-3.465,-12.7575,13.44,0.369294,-0.539118,0.303902,-0.05278,0.2457,0.32746
-15.0854,0,0,20.0854,20.0854,5,5,25.1423,2.52613,-22.9352,-0.0313966,-0.00256765,-0.217773,1,0,-26.1625,388.605,63.35,-0.027572,-0.414434,-1.13387,-0.05278,0.2457,0.32746
-15.1025,0,0,20.1025,20.1025,5,5,25.1708,2.1198,-23.2528,-0.412214,0.124406,-1.40196,1,0,27.09,-407.47,-68.635,-0.417118,-0.288164,-2.30897,-0.05278,0.2457,0.32746
-15.1415,0,0,20.1415,20.1415,5,5,25.2358,1.45304,-23.6796,0.176596,-0.0606568,0.719357,1,0,47.7575,-572.81,-61.32,0.162504,-0.474214,-0.203862,-0.05278,0.2457,0.32746
-15.1162,0,0,20.1162,20.1162,5,5,25.1937,1.99313,-23.295,0.167173,-0.0614419,0.719414,1,0,-26.215,269.238,66.885,0.162504,-0.474214,-0.203862,-0.05278,0.2457,0.32746
-15.0917,0,0,20.0917,20.0917,5,5,25.1528,2.5409,-22.8943,-0.00930076,-0.00802414,-0.00995544,0,0,-29.4,278.04,74.4275,-0.005124,-0.420046,-0.927566,-0.05278,0.2457,0.32746
-15.0887,0,0,20.0887,20.0887,5,5,25.1478,2.67074,-22.8051,-0.0105927,-0.00961188,-0.0172658,0,0,-3.115,-13.1425,13.195,-0.004148,-0.42151,-0.934764,-0.05278,0.2457,0.32746
-15.0908,0,0,20.0908,20.0908,5,5,25.1514,2.73238,-22.7687,-0.00972361,-0.0116539,-0.0161084,0,0,1.3825,-61.5125,2.8,-0.002196,-0.423584,-0.933544,-0.05278,0.2457,0.32746
-15.094,0,0,20.094,20.094,5,5,25.1567,2.74116,-22.7779,-0.0124279,-0.0101066,-0.0187368,0,0,4.515,-96.2325,-4.725,-0.004758,-0.42212,-0.936106,-0.04718,0.24864,0.32998
-15.0964,0,0,20.0964,20.0964,5,5,25.1607,2.74721,-22.7952,-0.00986058,-0.00797085,-0.0180327,0,0,5.11,-101.203,-5.985,-0.002074,-0.420046,-0.935374,-0.04718,0.24864,0.32998
-15.1001,0,0,20.1001,20.1001,5,5,25.1668,2.74675,-22.8117,-0.0128896,-0.0104391,-0.0207824,0,0,5.39,-102.62,-6.7725,-0.005124,-0.422608,-0.938058,-0.04718,0.24864,0.32998
-15.1047,0,0,20.1047,20.1047,5,5,25.1745,2.7498,-22.8284,-0.0113635,-0.0111727,-0.0182603,0,0,5.425,-101.745,-7.0175,-0.003538,-0.423462,-0.935496,-0.04718,0.24864,0.32998
-15.1083,0,0,20.1083,20.1083,5,5,25.1805,2.75735,-22.8438,-0.0112522,-0.00924924,-0.0176956,0,0,5.32,-99.2425,-6.965,-0.003294,-0.421632,-0.934886,-0.04718,0.24864,0.32998
-15.112,0,0,20.112,20.112,5,5,25.1866,2.7674,-22.8578,-0.0111844,-0.00854536,-0.0157816,0,0,5.285,-97.685,-6.79,-0.00305,-0.421022,-0.932934,-0.04718,0.24864,0.32998
-15.1156,0,0,20.1156,20.1156,5,5,25.1926,2.77934,-22.868,-0.0132149,-0.00833295,-0.01645,0,0,5.215,-94.6225,-6.7025,-0.00488,-0.4209,-0.933544,-0.04718,0.24864,0.32998
-15.1221,0,0,20.1221,20.1221,5,5,25.2035,2.78834,-22.8729,-0.0165304,-0.0110954,-0.013464,0,0,5.25,-92.89,-6.6325,-0.008052,-0.423828,-0.930494,-0.04718,0.24864,0.32998
-15.1271,0,0,20.1271,20.1271,5,5,25.2118,2.81034,-22.8723,-0.0113255,-0.0104835,-0.015633,0,0,5.215,-89.6,-6.6325,-0.00244,-0.42334,-0.932568,-0.05194,0.24556,0.3234
-15.1335,0,0,20.1335,20.1335,5,5,25.2225,2.82874,-22.8671,-0.0152909,-0.0119099,-0.0152346,0,0,5.145,-87.9375,-6.58,-0.0061,-0.424926,-0.93208,-0.05194,0.24556,0.3234
-15.1377,0,0,20.1377,20.1377,5,5,25.2295,2.85324,-22.8609,-0.014989,-0.0099766,-0.0185024,0,0,4.9875,-84.6825,-6.4575,-0.005368,-0.423096,-0.935252,-0.05194,0.24556,0.3234
-15.1419,0,0,20.1419,20.1419,5,5,25.2365,2.8759,-22.8518,-0.0179353,-0.00877501,-0.0173431,0,0,5.005,-83.1775,-6.3525,-0.00793,-0.421998,-0.934032,-0.05194,0.24556,0.3234
-15.1479,0,0,20.1479,20.1479,5,5,25.2465,2.90624,-22.8415,-0.0155485,-0.0105834,-0.0144905,0,0,5.11,-80.1325,-6.2125,-0.005002,-0.42395,-0.931104,-0.05194,0.24556,0.3234
-15.1534,0,0,20.1534,20.1534,5,5,25.2557,2.94074,-22.8315,-0.0142061,-0.0102062,-0.0138494,0,0,4.8825,-78.715,-6.0725,-0.00305,-0.423706,-0.930372,-0.05194,0.24556,0.3234
-15.1556,0,0,20.1556,20.1556,5,5,25.2594,2.97586,-22.8186,-0.0178553,-0.00710902,-0.0211592,0,0,4.8475,-75.4775,-5.845,-0.0061,-0.420656,-0.93757,-0.05194,0.24556,0.3234
-15.1598,0,0,20.1598,20.1598,5,5,25.2663,3.01661,-22.8057,-0.015164,-0.00994717,-0.0185392,0,0,4.69,-73.8675,-5.7225,-0.002684,-0.423584,-0.934886,-0.05194,0.24556,0.3234
-15.1627,0,0,20.1627,20.1627,5,5,25.2711,3.05851,-22.7816,-0.0180811,-0.0076897,-0.0199625,0,0,4.725,-70.735,-5.635,-0.00488,-0.421388,-0.936228,-0.05208,0.24164,0.3276
-15.168,0,0,20.168,20.168,5,5,25.2801,3.10032,-22.7548,-0.0192956,-0.01013,-0.016622,0,0,4.6725,-69.2125,-5.6,-0.005368,-0.42395,-0.932812,-0.05208,0.24164,0.3276
-15.172,0,0,20.172,20.172,5,5,25.2867,3.14444,-22.7261,-0.0210364,-0.00821124,-0.0179389,0,0,4.515,-66.3775,-5.5125,-0.006344,-0.42212,-0.934032,-0.05208,0.24164,0.3276
-15.1747,0,0,20.1747,20.1747,5,5,25.2912,3.1922,-22.6984,-0.0201679,-0.00754959,-0.0204729,0,0,4.375,-64.995,-5.425,-0.004636,-0.42151,-0.936472,-0.05208,0.24164,0.3276
-15.178,0,0,20.178,20.178,5,5,25.2967,3.24299,-22.6682,-0.0211743,-0.00723898,-0.0183462,0,0,4.41,-62.0375,-5.25,-0.004758,-0.421266,-0.934276,-0.05208,0.24164,0.3276
-15.181,0,0,20.181,20.181,5,5,25.3017,3.29394,-22.6366,-0.0229125,-0.00620635,-0.0187974,0,0,4.48,-60.41,-5.145,-0.005612,-0.42029,-0.934642,-0.05208,0.24164,0.3276
-15.1846,0,0,20.1846,20.1846,5,5,25.3077,3.35035,-22.6038,-0.0220731,-0.00784607,-0.0195084,0,0,4.375,-57.435,-4.97,-0.003782,-0.421998,-0.935252,-0.05208,0.24164,0.3276
-15.1904,0,0,20.1904,20.1904,5,5,25.3173,3.40738,-22.5695,-0.0227023,-0.0101616,-0.0179121,0,0,4.62,-56.0875,-5.005,-0.003416,-0.424438,-0.933544,-0.05208,0.24164,0.3276
-15.1946,0,0,20.1946,20.1946,5,5,25.3244,3.46677,-22.5389,-0.0245874,-0.00787887,-0.0191273,0,0,4.445,-53.13,-4.83,-0.00427,-0.422242,-0.934642,-0.05152,0.24528,0.3318
-15.1988,0,0,20.1988,20.1988,5,5,25.3313,3.52545,-22.5069,-0.0267031,-0.00633075,-0.0171454,0,0,4.445,-51.7475,-4.8125,-0.005368,-0.420778,-0.932568,-0.05152,0.24528,0.3318
-15.2032,0,0,20.2032,20.2032,5,5,25.3386,3.59434,-22.4723,-0.0257164,-0.00807965,-0.0199722,0,0,4.3575,-46.0075,-4.76,-0.003172,-0.422608,-0.935252,-0.05152,0.24528,0.3318
-15.2073,0,0,20.2073,20.2073,5,5,25.3455,3.65552,-22.4377,-0.0293333,-0.00555698,-0.0166423,0,0,4.305,-47.7575,-4.76,-0.005734,-0.420168,-0.931836,-0.05152,0.24528,0.3318
-15.2125,0,0,20.2125,20.2125,5,5,25.3541,3.71779,-22.4019,-0.0298104,-0.00874874,-0.0200892,0,0,4.2525,-46.2175,-4.655,-0.005124,-0.423462,-0.93513,-0.05152,0.24528,0.3318
-15.2171,0,0,20.2171,20.2171,5,5,25.3619,3.78347,-22.3653,-0.0301039,-0.00841503,-0.0214441,0,0,4.165,-43.8025,-4.5325,-0.00427,-0.423218,-0.93635,-0.05152,0.24528,0.3318
-15.2247,0,0,20.2247,20.2247,5,5,25.3745,3.8486,-22.3244,-0.032696,-0.00873761,-0.0125083,0,0,4.025,-41.265,-4.305,-0.005734,-0.423706,-0.927322,-0.05152,0.24528,0.3318
-15.2287,0,0,20.2287,20.2287,5,5,25.3812,3.91688,-22.286,-0.0323056,-0.00659019,-0.0201313,0,0,3.885,-40.1975,-4.3225,-0.004148,-0.421632,-0.934764,-0.05152,0.24528,0.3318
-15.2337,0,0,20.2337,20.2337,5,5,25.3895,3.9848,-22.2463,-0.0337312,-0.00686113,-0.017808,0,0,3.7975,-38.955,-4.305,-0.004392,-0.421998,-0.932324,-0.05152,0.24528,0.3318
-15.2392,0,0,20.2392,20.2392,5,5,25.3987,4.05497,-22.205,-0.0349528,-0.00773041,-0.0197984,0,0,4.0425,-36.155,-4.2,-0.004392,-0.422974,-0.934154,-0.05446,0.24612,0.32676
-15.2424,0,0,20.2424,20.2424,5,5,25.4039,4.13131,-22.167,-0.0326373,-0.00610092,-0.0247186,0,0,4.1825,-34.79,-4.235,-0.000732,-0.421388,-0.938912,-0.05446,0.24612,0.32676
-15.2481,0,0,20.2481,20.2481,5,5,25.4136,4.20164,-22.1225,-0.0392068,-0.00733135,-0.0210596,0,0,4.1825,-32.1825,-4.2525,-0.0061,-0.42273,-0.93513,-0.05446,0.24612,0.32676
-15.2539,0,0,20.2539,20.2539,5,5,25.4232,4.27271,-22.0777,-0.0400795,-0.00599733,-0.0186327,0,0,4.165,-30.975,-4.235,-0.005734,-0.42151,-0.932568,-0.05446,0.24612,0.32676
-15.259,0,0,20.259,20.259,5,5,25.4317,4.34962,-22.0334,-0.0388668,-0.00639584,-0.0224757,0,0,4.27,-28.35,-4.0075,-0.003172,-0.421998,-0.936228,-0.05446,0.24612,0.32676
-15.2645,0,0,20.2645,20.2645,5,5,25.4408,4.43106,-21.9888,-0.0382187,-0.00617725,-0.0206749,0,0,4.235,-25.97,-3.8675,-0.001098,-0.421876,-0.934276,-0.05446,0.24612,0.32676
-15.2705,0,0,20.2705,20.2705,5,5,25.4508,4.51257,-21.9436,-0.0392726,-0.00618952,-0.0194975,0,0,4.235,-24.815,-3.745,-0.000732,-0.421998,-0.932934,-0.05446,0.24612,0.32676
-15.278,0,0,20.278,20.278,5,5,25.4633,4.59201,-21.8961,-0.0418695,-0.00665141,-0.0166165,0,0,4.235,-23.4675,-3.6575,-0.001952,-0.422608,-0.929884,-0.05446,0.24612,0.32676
-15.2838,0,0,20.2838,20.2838,5,5,25.4731,4.67367,-21.8498,-0.0431687,-0.00605945,-0.0215883,0,0,4.0775,-21.14,-3.64,-0.00183,-0.42212,-0.934642,-0.0532,0.24668,0.32858
-15.2895,0,0,20.2895,20.2895,5,5,25.4824,4.75507,-21.8034,-0.044706,-0.00339791,-0.0169688,0,0,3.92,-20.125,-3.675,-0.001952,-0.419558,-0.929884,-0.0532,0.24668,0.32858
-15.2955,0,0,20.2955,20.2955,5,5,25.4925,4.83539,-21.7536,-0.0479252,-0.00499978,-0.0216992,0,0,4.1475,-17.57,-3.395,-0.003782,-0.421266,-0.934398,-0.0532,0.24668,0.32858
-15.3007,0,0,20.3007,20.3007,5,5,25.5011,4.91788,-21.7051,-0.0477805,-0.00418525,-0.0231032,0,0,4.0425,-16.4675,-3.3775,-0.002196,-0.420534,-0.935618,-0.0532,0.24668,0.32858
-15.3048,0,0,20.3048,20.3048,5,5,25.508,5.00436,-21.657,-0.0477048,-0.00303449,-0.024379,0,0,3.9375,-14.1925,-3.325,-0.00061,-0.419436,-0.936716,-0.0532,0.24668,0.32858
-15.3103,0,0,20.3103,20.3103,5,5,25.5171,5.08776,-21.6064,-0.0508556,-0.0034342,-0.0214896,0,0,3.8325,-12.985,-3.255,-0.002318,-0.419924,-0.933666,-0.0532,0.24668,0.32858
-15.3163,0,0,20.3163,20.3163,5,5,25.5272,5.17386,-21.555,-0.0513804,-0.00479915,-0.0232848,0,0,3.8675,-10.6225,-3.2725,-0.001342,-0.421388,-0.935252,-0.0532,0.24668,0.32858
-15.323,0,0,20.323,20.323,5,5,25.5384,5.25322,-21.4995,-0.0574978,-0.00174755,-0.0174574,0,0,3.885,-9.3625,-3.1325,-0.0061,-0.41846,-0.929274,-0.0532,0.24668,0.32858
-15.3297,0,0,20.3297,20.3297,5,5,25.5496,5.33775,-21.4441,-0.0561725,-0.0039513,-0.0213525,0,0,3.745,-7.175,-2.905,-0.003294,-0.420778,-0.932934,-0.0497,0.24472,0.32872
-15.3351,0,0,20.3351,20.3351,5,5,25.5584,5.42092,-21.3884,-0.0585896,-0.00106187,-0.021296,0,0,3.6925,-6.16,-2.7825,-0.00427,-0.417972,-0.93269,-0.0497,0.24472,0.32872
-15.3417,0,0,20.3417,20.3417,5,5,25.5695,5.5085,-21.3328,-0.0571957,-0.00437134,-0.0244608,0,0,3.8675,-4.1125,-2.5725,-0.001342,-0.421388,-0.935618,-0.0497,0.24472,0.32872
-15.3476,0,0,20.3476,20.3476,5,5,25.5794,5.59651,-21.2778,-0.0582385,-0.00208221,-0.0225789,0,0,3.815,-3.15,-2.5725,-0.000854,-0.419192,-0.933544,-0.0497,0.24472,0.32872
-15.3548,0,0,20.3548,20.3548,5,5,25.5913,5.68035,-21.219,-0.0629748,-0.00452262,-0.0266092,0,0,3.99,-1.1725,-2.6425,-0.004148,-0.421754,-0.937326,-0.0497,0.24472,0.32872
-15.3617,0,0,20.3617,20.3617,5,5,25.6029,5.76785,-21.1621,-0.0617003,-0.00281866,-0.0230224,0,0,3.9025,-0.1225,-2.625,-0.001342,-0.420168,-0.933544,-0.0497,0.24472,0.32872
-15.3689,0,0,20.3689,20.3689,5,5,25.6148,5.85637,-21.1034,-0.0632372,-0.00269968,-0.0232529,0,0,3.85,2.1175,-2.275,-0.001342,-0.420168,-0.933544,-0.0497,0.24472,0.32872
-15.3758,0,0,20.3758,20.3758,5,5,25.6263,5.94509,-21.045,-0.0642916,-0.00234465,-0.0233596,0,0,3.6225,3.1675,-2.3275,-0.000854,-0.419924,-0.933422,-0.0497,0.24472,0.32872
-15.3825,0,0,20.3825,20.3825,5,5,25.6374,6.03401,-20.9858,-0.0658349,-0.00224015,-0.0235894,0,0,3.2725,4.76,-2.2575,-0.000854,-0.419924,-0.933422,-0.0497,0.24472,0.32872
-15.3912,0,0,20.3912,20.3912,5,5,25.652,6.11345,-20.9203,-0.0726806,-0.00696088,-0.0299784,0,0,3.3775,5.7225,-2.1175,-0.006344,-0.424804,-0.939522,-0.0497,0.2436,0.32508
-15.3999,0,0,20.3999,20.3999,5,5,25.6666,6.19379,-20.8539,-0.0740747,-0.00679799,-0.0302234,0,0,3.255,7.63,-2.03,-0.006344,-0.424804,-0.939522,-0.0497,0.2436,0.32508
-15.4097,0,0,20.4097,20.4097,5,5,25.6829,6.27251,-20.7866,-0.0759264,-0.00648491,-0.0266693,0,0,3.2375,8.4175,-2.1175,-0.006832,-0.424682,-0.93574,-0.0497,0.2436,0.32508
-15.4176,0,0,20.4176,20.4176,5,5,25.6961,6.35573,-20.7208,-0.0755477,-0.00256288,-0.0261744,0,0,3.36,10.43,-1.925,-0.005002,-0.4209,-0.935008,-0.0497,0.2436,0.32508
-15.4256,0,0,20.4256,20.4256,5,5,25.7094,6.44177,-20.657,-0.0741246,-0.00401498,-0.0287614,0,0,3.3775,11.095,-1.9075,-0.002074,-0.422486,-0.937326,-0.0497,0.2436,0.32508
-15.4366,0,0,20.4366,20.4366,5,5,25.7277,6.52029,-20.5871,-0.0804671,-0.0048954,-0.022891,0,0,3.36,12.74,-1.68,-0.007076,-0.423584,-0.931226,-0.0497,0.2436,0.32508
-15.4467,0,0,20.4467,20.4467,5,5,25.7445,6.60231,-20.5196,-0.0790951,-0.00360406,-0.0229194,0,0,3.325,13.5275,-1.6625,-0.00427,-0.422486,-0.930982,-0.0497,0.2436,0.32508
-15.4582,0,0,20.4582,20.4582,5,5,25.7637,6.68225,-20.4495,-0.0819388,-0.00532903,-0.0230861,0,0,3.2725,15.2075,-1.5925,-0.005734,-0.424438,-0.93086,-0.0497,0.2436,0.32508
-15.4697,0,0,20.4697,20.4697,5,5,25.7829,6.76392,-20.3871,-0.0817751,-0.00534573,-0.0233813,0,0,3.36,16.0125,-1.5925,-0.004148,-0.424682,-0.93086,-0.04844,0.2478,0.33068
-15.4792,0,0,20.4792,20.4792,5,5,25.7986,6.8455,-20.3241,-0.0842821,-0.00309788,-0.0269712,0,0,3.1675,17.7975,-1.5225,-0.005246,-0.422608,-0.934154,-0.04844,0.2478,0.33068
-15.4897,0,0,20.4897,20.4897,5,5,25.8162,6.92631,-20.2606,-0.0854395,-0.00375236,-0.0254117,0,0,3.22,18.6375,-1.4875,-0.005002,-0.423462,-0.932324,-0.04844,0.2478,0.33068
-15.4988,0,0,20.4988,20.4988,5,5,25.8313,7.0018,-20.1941,-0.0909992,-0.00138768,-0.0271451,0,0,2.9225,20.0375,-1.295,-0.009272,-0.421266,-0.933788,-0.04844,0.2478,0.33068
-15.5081,0,0,20.5081,20.5081,5,5,25.8468,7.07897,-20.1289,-0.0902707,-0.00231728,-0.0281483,0,0,2.8525,20.615,-1.2425,-0.007198,-0.422364,-0.93452,-0.04844,0.2478,0.33068
-15.5188,0,0,20.5188,20.5188,5,5,25.8647,7.16046,-20.0642,-0.0887663,-0.00235952,-0.0237701,0,0,3.0275,22.295,-1.1025,-0.00427,-0.422608,-0.929884,-0.04844,0.2478,0.33068
-15.5294,0,0,20.5294,20.5294,5,5,25.8824,7.24095,-19.9994,-0.0904032,-0.00155052,-0.0233243,0,0,2.975,23.0825,-1.155,-0.004514,-0.421998,-0.929152,-0.04844,0.2478,0.33068
-15.5399,0,0,20.5399,20.5399,5,5,25.8998,7.31761,-19.9326,-0.094403,-0.000620856,-0.0231165,0,0,2.7825,24.22,-1.2075,-0.007198,-0.421266,-0.928664,-0.04844,0.2478,0.33068
-15.5496,0,0,20.5496,20.5496,5,5,25.916,7.39824,-19.8723,-0.0927615,-0.000934539,-0.0261067,0,0,2.87,25.06,-0.9975,-0.004148,-0.421754,-0.931348,-0.04606,0.2485,0.32718
-15.5588,0,0,20.5588,20.5588,5,5,25.9313,7.47717,-19.8108,-0.0954639,0.000324478,-0.0269974,0,0,2.835,26.3025,-0.8925,-0.00549,-0.420656,-0.931958,-0.04606,0.2485,0.32718
-15.5688,0,0,20.5688,20.5688,5,5,25.948,7.55382,-19.7484,-0.097519,-0.00132442,-0.0280187,0,0,2.6775,27.0025,-0.9625,-0.006222,-0.422486,-0.93269,-0.04606,0.2485,0.32718
-15.5783,0,0,20.5783,20.5783,5,5,25.9638,7.63301,-19.6869,-0.0973098,6.31673e-05,-0.0270733,0,0,2.625,28.2625,-0.98,-0.004636,-0.421266,-0.93147,-0.04606,0.2485,0.32718
-15.5877,0,0,20.5877,20.5877,5,5,25.9794,7.71282,-19.6262,-0.0975968,-0.000264299,-0.0292028,0,0,2.7125,28.98,-0.84,-0.003538,-0.421754,-0.9333,-0.04606,0.2485,0.32718
-15.5965,0,0,20.5965,20.5965,5,5,25.9941,7.79068,-19.564,-0.100401,0.00024999,-0.0318149,0,0,2.73,30.2575,-0.6125,-0.005002,-0.421388,-0.935618,-0.04606,0.2485,0.32718
-15.6077,0,0,20.6077,20.6077,5,5,26.0128,7.86735,-19.5006,-0.101362,-0.000761398,-0.0267103,0,0,2.8525,30.9575,-0.4725,-0.004636,-0.422608,-0.93025,-0.04606,0.2485,0.32718
-15.6181,0,0,20.6181,20.6181,5,5,26.0301,7.94548,-19.4377,-0.101984,0.00089171,-0.0272565,0,0,2.9925,32.2175,-0.3675,-0.003904,-0.421144,-0.930494,-0.04606,0.2485,0.32718
-15.6286,0,0,20.6286,20.6286,5,5,26.0477,8.01965,-19.3727,-0.104967,0.000353503,-0.02915,0,0,2.87,32.7425,-0.315,-0.005612,-0.421876,-0.93208,-0.04774,0.24822,0.32382
-15.6399,0,0,20.6399,20.6399,5,5,26.0665,8.09521,-19.3079,-0.105179,-0.000291304,-0.028229,0,0,2.7825,33.985,-0.4375,-0.004514,-0.42273,-0.93086,-0.04774,0.24822,0.32382
-15.6515,0,0,20.6515,20.6515,5,5,26.0858,8.16721,-19.2417,-0.108003,-0.00141346,-0.0306253,0,0,2.7125,34.4925,-0.385,-0.0061,-0.424072,-0.932934,-0.04774,0.24822,0.32382
-15.6624,0,0,20.6624,20.6624,5,5,26.1041,8.23946,-19.1755,-0.109251,-0.00133124,-0.0337535,0,0,2.7475,35.7,-0.3325,-0.0061,-0.424194,-0.93574,-0.04774,0.24822,0.32382
-15.6728,0,0,20.6728,20.6728,5,5,26.1213,8.31214,-19.1098,-0.109899,0.000443391,-0.032819,0,0,2.73,36.4175,-0.175,-0.00549,-0.422608,-0.93452,-0.04774,0.24822,0.32382
-15.6808,0,0,20.6808,20.6808,5,5,26.1346,8.38916,-19.0467,-0.108799,0.00373879,-0.034079,0,0,2.625,37.625,0.035,-0.00305,-0.419436,-0.935496,-0.04774,0.24822,0.32382
-15.6921,0,0,20.6921,20.6921,5,5,26.1534,8.46158,-18.9801,-0.11175,0.000407447,-0.030823,0,0,2.625,38.36,0.21,-0.004758,-0.422974,-0.931958,-0.04774,0.24822,0.32382
-15.701,0,0,20.701,20.701,5,5,26.1684,8.5368,-18.9148,-0.111834,0.00189644,-0.0362745,0,0,2.485,39.8125,0.4375,-0.003538,-0.421632,-0.937082,-0.04774,0.24822,0.32382
-15.7127,0,0,20.7127,20.7127,5,5,26.1879,8.60907,-18.8472,-0.113931,0.000894563,-0.0298298,0,0,2.52,40.5125,0.5425,-0.004392,-0.422852,-0.930372,-0.04774,0.24822,0.32382
-15.7233,0,0,20.7233,20.7233,5,5,26.2056,8.68114,-18.7703,-0.115175,0.00230627,-0.0323472,0,0,2.415,42.0175,0.8575,-0.004392,-0.421632,-0.932568,-0.05418,0.24808,0.3346
-15.7357,0,0,20.7357,20.7357,5,5,26.2262,8.75064,-18.6915,-0.117346,0.000713227,-0.0305796,0,0,2.415,42.91,0.9625,-0.005368,-0.423462,-0.930494,-0.05418,0.24808,0.3346
-15.7463,0,0,20.7463,20.7463,5,5,26.2439,8.82574,-18.6139,-0.11609,0.00382863,-0.0308937,0,0,2.38,45.0275,1.5225,-0.002806,-0.420534,-0.930494,-0.05418,0.24808,0.3346
-15.7573,0,0,20.7573,20.7573,5,5,26.2621,8.90039,-18.5354,-0.117134,0.00255679,-0.0315819,0,0,1.9425,46.1125,1.8025,-0.002562,-0.421998,-0.93086,-0.05418,0.24808,0.3346
-15.767,0,0,20.767,20.767,5,5,26.2783,8.97153,-18.4536,-0.121762,0.00394222,-0.0355665,0,0,1.855,48.055,2.38,-0.005978,-0.420778,-0.93452,-0.05418,0.24808,0.3346
-15.778,0,0,20.778,20.778,5,5,26.2967,9.04286,-18.3705,-0.122384,0.00328526,-0.0318243,0,0,1.54,49.3325,2.765,-0.005368,-0.421632,-0.930494,-0.05418,0.24808,0.3346
-15.7911,0,0,20.7911,20.7911,5,5,26.3185,9.1157,-18.2851,-0.123154,0.00316674,-0.0261462,0,0,1.575,51.5725,3.0975,-0.00488,-0.421998,-0.924516,-0.05418,0.24808,0.3346
-15.8021,0,0,20.8021,20.8021,5,5,26.3368,9.1861,-18.1996,-0.125946,0.00421732,-0.0321167,0,0,1.365,52.255,3.29,-0.006466,-0.421144,-0.930128,-0.05418,0.24808,0.3346
-15.8125,0,0,20.8125,20.8125,5,5,26.3541,9.26127,-18.1163,-0.122868,0.00512476,-0.0304707,0,0,1.225,52.1675,3.8675,-0.002074,-0.420412,-0.928176,-0.04942,0.24486,0.33278
-15.8208,0,0,20.8208,20.8208,5,5,26.3679,9.33156,-18.032,-0.127359,0.00683771,-0.0361637,0,0,1.155,52.6925,3.9375,-0.005368,-0.418826,-0.933544,-0.04942,0.24486,0.33278
-15.8312,0,0,20.8312,20.8312,5,5,26.3853,9.4015,-17.9492,-0.126619,0.00469625,-0.0322939,0,0,1.015,52.29,3.6225,-0.003416,-0.421144,-0.929396,-0.04942,0.24486,0.33278
-15.8403,0,0,20.8403,20.8403,5,5,26.4006,9.46928,-17.8702,-0.127057,0.00447997,-0.0382405,0,0,1.3825,50.855,3.15,-0.002684,-0.42151,-0.935008,-0.04942,0.24486,0.33278
-15.8505,0,0,20.8505,20.8505,5,5,26.4174,9.53119,-17.7909,-0.129824,0.0052711,-0.0353326,0,0,1.68,49.805,3.29,-0.004392,-0.4209,-0.931836,-0.04942,0.24486,0.33278
-15.864,0,0,20.864,20.864,5,5,26.44,9.58836,-17.7055,-0.131294,0.00407944,-0.0331948,0,0,2.94,50.225,6.615,-0.00488,-0.422364,-0.929396,-0.04942,0.24486,0.33278
-15.8777,0,0,20.8777,20.8777,5,5,26.4628,9.64052,-17.6241,-0.133649,0.000943598,-0.033014,0,0,1.6275,48.475,3.7625,-0.006344,-0.42578,-0.928908,-0.04942,0.24486,0.33278
-15.8886,0,0,20.8886,20.8886,5,5,26.481,9.69945,-17.5486,-0.131747,0.00322386,-0.0369971,0,0,1.6625,49.63,2.1875,-0.003416,-0.423706,-0.932568,-0.04942,0.24486,0.33278
-15.8991,0,0,20.8991,20.8991,5,5,26.4985,9.75543,-17.4714,-0.133439,0.00500678,-0.0365412,0,0,1.5225,50.19,4.0075,-0.004148,-0.42212,-0.931836,-0.05096,0.24528,0.32774
-15.9128,0,0,20.9128,20.9128,5,5,26.5214,9.81151,-17.3802,-0.133553,0.00552869,-0.0345295,0,0,2.7825,54.285,11.6725,-0.003294,-0.421876,-0.929518,-0.05096,0.24528,0.32774
-15.9261,0,0,20.9261,20.9261,5,5,26.5435,9.85934,-17.2805,-0.138628,0.00543916,-0.0403598,0,0,2.695,55.3875,15.4525,-0.007564,-0.422242,-0.935008,-0.05096,0.24528,0.32774
-15.9433,0,0,20.9433,20.9433,5,5,26.5721,9.90723,-17.1682,-0.137872,0.00434908,-0.0391095,0,0,4.0425,58.7475,22.6975,-0.005978,-0.423706,-0.933422,-0.05096,0.24528,0.32774
-15.9649,0,0,20.9649,20.9649,5,5,26.6081,9.94911,-17.0443,-0.139442,0.00142736,-0.0348276,0,0,4.3575,60.165,28.3675,-0.006832,-0.427122,-0.928786,-0.05096,0.24528,0.32774
-15.9832,0,0,20.9832,20.9832,5,5,26.6386,9.9913,-16.9266,-0.139074,0.00367019,-0.0382499,0,0,3.6925,58.8175,27.0375,-0.005734,-0.425292,-0.931836,-0.05096,0.24528,0.32774
-15.9925,0,0,20.9925,20.9925,5,5,26.6542,10.0517,-16.8533,-0.136225,0.00761373,-0.0360752,0,0,1.19,55.3,3.465,-0.00183,-0.42151,-0.929396,-0.05096,0.24528,0.32774
-16.0246,0,0,21.0246,21.0246,5,5,26.7077,10.3768,-16.7959,-0.158695,0.0506057,0.0561767,0,0,22.82,198.765,-85.6625,-0.018788,-0.378932,-0.836554,-0.05096,0.24528,0.32774
-16.092,0,0,21.092,21.092,5,5,26.8201,10.3313,-16.8164,-0.248421,0.043843,-0.63283,1,0,68.915,-142.1,-0.385,-0.109678,-0.387472,-1.51951,-0.05096,0.24528,0.32774
-16.0802,0,0,21.0802,21.0802,5,5,26.8003,9.76324,-17.3896,-0.11778,0.000720991,-0.0533982,0,0,44.94,-443.748,-154.42,0.011712,-0.431026,-0.946232,-0.04872,0.24556,0.33012
-16.1833,0,0,21.1833,21.1833,5,5,26.9721,10.3682,-16.9433,-0.0865075,-0.00541892,0.0716102,0,0,16.2225,401.1,80.045,0.053558,-0.438956,-0.81923,-0.04872,0.24556,0.33012
-16.0953,0,0,21.0953,21.0953,5,5,26.8255,10.3073,-17.2876,-0.467412,0.0951317,-1.1305,1,0,-43.6625,-234.588,-161.998,-0.33001,-0.336354,-2.01337,-0.04872,0.24556,0.33012
-16.4809,0,0,21.4809,21.4809,5,5,27.4682,9.53126,-17.923,-0.108929,0.0030754,0.0121678,0,0,400.138,-573.44,-135.73,0.016592,-0.4392,-0.87657,-0.04872,0.24556,0.33012
-16.4836,0,0,21.4836,21.4836,5,5,27.4727,10.4139,-17.3241,0.224806,-0.111054,1.29101,1,0,-51.7825,505.225,66.01,0.366976,-0.55205,0.394792,-0.04872,0.24556,0.33012
-16.3007,0,0,21.3007,21.3007,5,5,27.1679,11.5166,-17.1053,-0.510732,0.132985,-1.27738,1,0,-190.365,518.77,-185.745,-0.352702,-0.30195,-2.15293,-0.04872,0.24556,0.33012
-16.6354,0,0,21.6354,21.6354,5,5,27.7256,10.743,-17.3253,-0.250262,0.0559529,-0.321944,1,0,340.393,-573.44,94.5175,-0.104432,-0.38857,-1.2028,-0.04872,0.24556,0.33012
-16.8144,0,0,21.8144,21.8144,5,5,28.024,10.604,-17.5538,-0.0937123,-0.00746084,0.0438001,0,0,157.938,-149.713,-79.9925,0.050386,-0.456646,-0.837896,-0.04872,0.24556,0.33012
-16.7605,0,0,21.7605,21.7605,5,5,27.9341,11.509,-17.2703,-0.16449,0.0259085,-0.0465531,0,0,-68.25,553.455,-135.415,-0.005124,-0.420534,-0.925614,-0.05166,0.24332,0.33558
-16.7724,0,0,21.7724,21.7724,5,5,27.954,12.058,-16.9342,-0.174113,0.0244366,-0.0552029,0,0,-16.3625,395.938,-15.995,-0.005368,-0.421388,-0.932324,-0.05166,0.24332,0.33558
-16.7987,0,0,21.7987,21.7987,5,5,27.9978,12.121,-16.7482,-0.173609,0.0230349,-0.0579702,0,0,12.25,111.195,39.6725,-0.003782,-0.42334,-0.93452,-0.05166,0.24332,0.33558
-16.817,0,0,21.817,21.817,5,5,28.0283,12.1073,-16.6035,-0.171066,0.0258381,-0.055465,0,0,10.325,60.2875,42.49,-0.001464,-0.421022,-0.931836,-0.05166,0.24332,0.33558
-16.8109,0,0,21.8109,21.8109,5,5,28.0182,12.0712,-16.5769,-0.175189,0.0240378,-0.0525628,0,0,0.2625,19.845,-14.5075,-0.006222,-0.42273,-0.929152,-0.05166,0.24332,0.33558
-16.8094,0,0,21.8094,21.8094,5,5,28.0157,12.0231,-16.5393,-0.173761,0.0240822,-0.0518961,0,0,3.0975,15.8025,-4.9175,-0.005612,-0.42273,-0.928664,-0.05166,0.24332,0.33558
-16.8185,0,0,21.8185,21.8185,5,5,28.0309,11.9535,-16.4673,-0.170507,0.0240642,-0.0546235,0,0,9.6075,12.3025,20.5975,-0.003538,-0.423096,-0.93147,-0.05166,0.24332,0.33558
-16.8237,0,0,21.8237,21.8237,5,5,28.0395,11.8978,-16.4024,-0.168948,0.0268526,-0.0542689,0,0,8.2075,16.345,15.26,-0.002928,-0.420534,-0.931226,-0.05166,0.24332,0.33558
-16.8135,0,0,21.8135,21.8135,5,5,28.0225,11.8874,-16.4003,-0.168407,0.0251482,-0.0534849,0,0,1.33,20.265,-33.2325,-0.002562,-0.421998,-0.930616,-0.05362,0.2387,0.33488
-16.8058,0,0,21.8058,21.8058,5,5,28.0097,11.8658,-16.3825,-0.16828,0.0236494,-0.0530684,0,0,1.05,18.7075,-22.785,-0.002806,-0.42334,-0.930372,-0.05362,0.2387,0.33488
-16.8208,0,0,21.8208,21.8208,5,5,28.0346,11.7821,-16.2526,-0.169402,0.0217225,-0.0566923,0,0,8.8375,18.0775,48.72,-0.005368,-0.42578,-0.934032,-0.05362,0.2387,0.33488
-16.8292,0,0,21.8292,21.8292,5,5,28.0487,11.7189,-16.1458,-0.164919,0.0259489,-0.0540251,0,0,7.1925,19.6175,36.1725,-0.001952,-0.421876,-0.93147,-0.05362,0.2387,0.33488
-16.8259,0,0,21.8259,21.8259,5,5,28.0432,11.6994,-16.1196,-0.166045,0.0263865,-0.0513381,0,0,5.2675,20.7725,-16.8175,-0.003416,-0.421388,-0.928908,-0.05362,0.2387,0.33488
-16.8185,0,0,21.8185,21.8185,5,5,28.0308,11.6838,-16.0837,-0.16505,0.0262261,-0.0556163,0,0,1.365,24.71,-11.76,-0.002684,-0.421388,-0.9333,-0.05362,0.2387,0.33488
-16.8176,0,0,21.8176,21.8176,5,5,28.0293,11.6327,-16.0083,-0.167456,0.0270198,-0.0593788,0,0,4.1125,18.62,16.345,-0.005978,-0.420656,-0.937204,-0.05362,0.2387,0.33488
-16.8185,0,0,21.8185,21.8185,5,5,28.0308,11.6009,-15.9379,-0.164969,0.0277058,-0.0515467,0,0,4.9875,25.7425,10.0625,-0.004026,-0.420046,-0.929518,-0.05362,0.2387,0.33488
-16.8098,0,0,21.8098,21.8098,5,5,28.0163,11.5904,-15.9297,-0.164424,0.0272602,-0.0548402,0,0,3.01,21.2975,-22.575,-0.00366,-0.42029,-0.932934,-0.05432,0.24192,0.329
-16.8033,0,0,21.8033,21.8033,5,5,28.0055,11.5731,-15.9032,-0.16255,0.0281027,-0.0521182,0,0,2.7825,21.735,-10.185,-0.002074,-0.419314,-0.930372,-0.05432,0.24192,0.329
-16.8048,0,0,21.8048,21.8048,5,5,28.008,11.5408,-15.8269,-0.162484,0.0246516,-0.0540057,0,0,3.255,27.685,18.1475,-0.002562,-0.422852,-0.932324,-0.05432,0.24192,0.329
-16.8048,0,0,21.8048,21.8048,5,5,28.008,11.5088,-15.7608,-0.163879,0.0272684,-0.0530462,0,0,4.1475,25.7425,12.6875,-0.004514,-0.42029,-0.93147,-0.05432,0.24192,0.329
-16.8019,0,0,21.8019,21.8019,5,5,28.0031,11.4975,-15.7279,-0.163564,0.0261147,-0.0481776,0,0,3.535,27.2825,-9.9575,-0.004392,-0.421388,-0.926712,-0.05432,0.24192,0.329
-16.7971,0,0,21.7971,21.7971,5,5,27.9952,11.49,-15.677,-0.162464,0.0274721,-0.0537462,0,0,1.785,33.39,0.0875,-0.003416,-0.419924,-0.932324,-0.05432,0.24192,0.329
-16.7967,0,0,21.7967,21.7967,5,5,27.9945,11.4776,-15.6107,-0.160672,0.026384,-0.0497689,0,0,2.6425,34.2475,9.9925,-0.00183,-0.421022,-0.92842,-0.05432,0.24192,0.329
-16.7944,0,0,21.7944,21.7944,5,5,27.9906,11.4581,-15.5648,-0.160582,0.0266007,-0.0537349,0,0,4.13,25.1825,2.345,-0.002074,-0.420778,-0.932446,-0.05432,0.24192,0.329
-16.7887,0,0,21.7887,21.7887,5,5,27.9811,11.4546,-15.537,-0.156999,0.0242642,-0.0584427,0,0,3.01,26.6175,-8.2775,0.001464,-0.422974,-0.937204,-0.05432,0.24192,0.329
-16.7842,0,0,21.7842,21.7842,5,5,27.9737,11.4542,-15.4899,-0.160758,0.0272058,-0.0546934,0,0,1.8375,37.205,1.6975,-0.002318,-0.419924,-0.933544,-0.05726,0.2478,0.33306
-16.7825,0,0,21.7825,21.7825,5,5,27.9708,11.4488,-15.4318,-0.16018,0.0246071,-0.0569903,0,0,2.38,37.555,8.715,-0.00183,-0.422486,-0.935862,-0.05726,0.2478,0.33306
-16.7789,0,0,21.7789,21.7789,5,5,27.9648,11.439,-15.396,-0.15989,0.0269744,-0.0546986,0,0,3.71,29.12,-0.42,-0.001708,-0.420046,-0.933666,-0.05726,0.2478,0.33306
-16.7732,0,0,21.7732,21.7732,5,5,27.9554,11.4305,-15.3742,-0.162176,0.0272124,-0.053368,0,0,3.2375,27.335,-9.5375,-0.004148,-0.41968,-0.932446,-0.05726,0.2478,0.33306
-16.7719,0,0,21.7719,21.7719,5,5,27.9532,11.42,-15.3265,-0.162968,0.0246324,-0.0515973,0,0,2.6775,33.8625,2.625,-0.005124,-0.422242,-0.930738,-0.05726,0.2478,0.33306
-16.7701,0,0,21.7701,21.7701,5,5,27.9502,11.4185,-15.2714,-0.160027,0.0245892,-0.0572243,0,0,2.66,38.885,7.0175,-0.002196,-0.422242,-0.93635,-0.05726,0.2478,0.33306
-16.7673,0,0,21.7673,21.7673,5,5,27.9456,11.4229,-15.2203,-0.16399,0.0254886,-0.0525283,0,0,1.54,43.05,0.49,-0.0061,-0.421266,-0.931714,-0.05726,0.2478,0.33306
-16.7632,0,0,21.7632,21.7632,5,5,27.9387,11.4276,-15.1761,-0.163219,0.0269652,-0.051873,0,0,1.645,40.95,-1.82,-0.005246,-0.41968,-0.931104,-0.05726,0.2478,0.33306
-16.7613,0,0,21.7613,21.7613,5,5,27.9355,11.4182,-15.1375,-0.163908,0.025832,-0.051818,0,0,3.29,33.3725,2.1525,-0.0061,-0.420778,-0.931104,-0.049,0.2478,0.33236
-16.7584,0,0,21.7584,21.7584,5,5,27.9307,11.4069,-15.101,-0.163229,0.0257787,-0.0562946,0,0,3.745,31.465,2.6425,-0.005612,-0.420778,-0.935618,-0.049,0.2478,0.33236
-16.7552,0,0,21.7552,21.7552,5,5,27.9253,11.4066,-15.0759,-0.160916,0.0245985,-0.0531769,0,0,3.325,32.9175,-4.7425,-0.003294,-0.421876,-0.932568,-0.049,0.2478,0.33236
-16.7503,0,0,21.7503,21.7503,5,5,27.9172,11.4068,-15.0478,-0.163836,0.0274066,-0.0528668,0,0,2.8175,35.42,-4.655,-0.006222,-0.418948,-0.932324,-0.049,0.2478,0.33236
-16.7491,0,0,21.7491,21.7491,5,5,27.9152,11.4082,-15.0008,-0.164346,0.0250537,-0.0522403,0,0,2.765,41.58,3.64,-0.00671,-0.421266,-0.931714,-0.049,0.2478,0.33236
-16.7477,0,0,21.7477,21.7477,5,5,27.9128,11.4143,-14.9515,-0.164449,0.0241523,-0.0538376,0,0,2.1875,44.73,3.6225,-0.00671,-0.42212,-0.9333,-0.049,0.2478,0.33236
-16.7448,0,0,21.7448,21.7448,5,5,27.9081,11.4316,-14.9041,-0.164259,0.0244194,-0.0525003,0,0,0.91,49.9975,0.14,-0.006222,-0.421754,-0.931958,-0.049,0.2478,0.33236
-16.7424,0,0,21.7424,21.7424,5,5,27.904,11.4484,-14.8529,-0.16564,0.0248185,-0.0515352,0,0,0.735,51.66,1.5225,-0.00732,-0.421266,-0.930982,-0.049,0.2478,0.33236
-16.7413,0,0,21.7413,21.7413,5,5,27.9022,11.4623,-14.7921,-0.165879,0.0247687,-0.0515635,0,0,1.155,52.43,5.495,-0.00732,-0.421266,-0.930982,-0.05096,0.24794,0.33866
-16.7407,0,0,21.7407,21.7407,5,5,27.9012,11.4832,-14.7389,-0.160283,0.0228883,-0.0516199,0,0,1.4175,51.2575,4.06,-0.001342,-0.423096,-0.930982,-0.05096,0.24794,0.33866
-16.7395,0,0,21.7395,21.7395,5,5,27.8991,11.5,-14.6975,-0.16057,0.0228296,-0.0516547,0,0,2.03,46.3225,-0.7,-0.001342,-0.423096,-0.930982,-0.05096,0.24794,0.33866
-16.7375,0,0,21.7375,21.7375,5,5,27.8958,11.5109,-14.6577,-0.161606,0.0248382,-0.0515388,0,0,2.4675,43.435,0.035,-0.002196,-0.421022,-0.93086,-0.05096,0.24794,0.33866
-16.7362,0,0,21.7362,21.7362,5,5,27.8937,11.5088,-14.6178,-0.166066,0.023466,-0.0545892,0,0,3.1325,39.4975,0.2975,-0.00671,-0.422364,-0.93391,-0.05096,0.24794,0.33866
-16.7344,0,0,21.7344,21.7344,5,5,27.8906,11.5074,-14.58,-0.165192,0.0251317,-0.0524703,0,0,3.1675,38.745,0.1225,-0.005856,-0.420656,-0.931836,-0.05096,0.24794,0.33866
-16.7328,0,0,21.7328,21.7328,5,5,27.8881,11.5102,-14.5446,-0.164874,0.0241117,-0.0515977,0,0,2.9925,40.1975,-2.1,-0.00549,-0.421632,-0.930982,-0.05096,0.24794,0.33866
-16.732,0,0,21.732,21.732,5,5,27.8867,11.5118,-14.5037,-0.16636,0.0239662,-0.0509771,0,0,2.8,42.035,-0.0525,-0.006954,-0.421754,-0.930372,-0.05096,0.24794,0.33866
-16.7313,0,0,21.7313,21.7313,5,5,27.8855,11.5213,-14.456,-0.164821,0.0231993,-0.0533323,0,0,2.2575,47.075,2.7125,-0.005246,-0.422486,-0.93269,-0.05096,0.24794,0.33866
-16.7308,0,0,21.7308,21.7308,5,5,27.8847,11.5348,-14.4114,-0.16481,0.0237755,-0.0507856,0,0,1.7675,50.12,3.5525,-0.005002,-0.421876,-0.930128,-0.05208,0.25214,0.3388
-16.7299,0,0,21.7299,21.7299,5,5,27.8831,11.5571,-14.3635,-0.164583,0.0223723,-0.0534239,0,0,0.875,55.51,3.255,-0.004392,-0.423218,-0.93269,-0.05208,0.25214,0.3388
-16.7283,0,0,21.7283,21.7283,5,5,27.8805,11.5757,-14.3093,-0.169033,0.0246226,-0.0539526,0,0,0.7875,57.785,5.04,-0.00854,-0.4209,-0.933178,-0.05208,0.25214,0.3388
-16.7283,0,0,21.7283,21.7283,5,5,27.8805,11.5971,-14.2499,-0.167698,0.0243438,-0.0495929,0,0,0.42,60.0775,7.805,-0.006832,-0.421144,-0.928786,-0.05208,0.25214,0.3388
-16.7285,0,0,21.7285,21.7285,5,5,27.8808,11.6226,-14.1963,-0.165217,0.0223525,-0.0509038,0,0,0.42,59.6225,5.7575,-0.003904,-0.423096,-0.930006,-0.05208,0.25214,0.3388
-16.7276,0,0,21.7276,21.7276,5,5,27.8793,11.639,-14.1466,-0.167684,0.0249899,-0.0504512,0,0,1.0325,55.2825,5.3025,-0.0061,-0.420412,-0.929518,-0.05208,0.25214,0.3388
-16.728,0,0,21.728,21.728,5,5,27.8799,11.6483,-14.0995,-0.167843,0.0231518,-0.0506078,0,0,1.54,51.3625,5.5825,-0.0061,-0.422242,-0.92964,-0.05208,0.25214,0.3388
-16.7288,0,0,21.7288,21.7288,5,5,27.8813,11.6484,-14.0622,-0.167239,0.0237823,-0.0490207,0,0,2.94,43.89,3.7625,-0.00549,-0.421632,-0.928054,-0.05208,0.25214,0.3388
-16.7278,0,0,21.7278,21.7278,5,5,27.8797,11.6489,-14.0432,-0.168097,0.0235135,-0.0517145,0,0,3.185,41.125,-1.33,-0.006344,-0.421876,-0.930738,-0.04718,0.25354,0.3318
-16.7257,0,0,21.7257,21.7257,5,5,27.8762,11.6506,-14.0268,-0.165818,0.0246786,-0.0539047,0,0,3.4475,39.7075,-0.6125,-0.004026,-0.420656,-0.932934,-0.04718,0.25354,0.3318
-16.7239,0,0,21.7239,21.7239,5,5,27.8731,11.6535,-14.0105,-0.16611,0.02475,-0.0519221,0,0,3.29,40.4775,-1.2425,-0.00427,-0.420534,-0.930982,-0.04718,0.25354,0.3318
-16.7236,0,0,21.7236,21.7236,5,5,27.8726,11.658,-13.9839,-0.169224,0.0227809,-0.0556204,0,0,3.4475,45.8325,1.1025,-0.00732,-0.422486,-0.934642,-0.04718,0.25354,0.3318
-16.7215,0,0,21.7215,21.7215,5,5,27.8692,11.673,-13.9623,-0.167658,0.022949,-0.0528123,0,0,1.8025,49.105,-3.08,-0.00549,-0.422242,-0.931836,-0.04718,0.25354,0.3318
-16.7202,0,0,21.7202,21.7202,5,5,27.8671,11.6895,-13.9198,-0.168427,0.0231333,-0.0573958,0,0,1.225,55.9125,7.28,-0.005978,-0.421998,-0.93635,-0.04718,0.25354,0.3318
-16.7215,0,0,21.7215,21.7215,5,5,27.8692,11.7135,-13.8776,-0.16665,0.0223927,-0.0483894,0,0,1.05,58.9925,5.705,-0.003782,-0.42273,-0.927322,-0.04718,0.25354,0.3318
-16.7213,0,0,21.7213,21.7213,5,5,27.8689,11.7383,-13.8297,-0.167196,0.023691,-0.0525225,0,0,0.63,61.2675,9.0825,-0.003904,-0.421388,-0.931348,-0.04718,0.25354,0.3318
-16.7215,0,0,21.7215,21.7215,5,5,27.8692,11.7593,-13.7706,-0.167554,0.0248812,-0.0517299,0,0,0.8225,60.76,11.3575,-0.003904,-0.420168,-0.930494,-0.04956,0.24962,0.33306
-16.7213,0,0,21.7213,21.7213,5,5,27.8688,11.7725,-13.7203,-0.167294,0.0247322,-0.051031,0,0,1.1725,54.53,9.5025,-0.003416,-0.42029,-0.929762,-0.04956,0.24962,0.33306
-16.7204,0,0,21.7204,21.7204,5,5,27.8673,11.7917,-13.6929,-0.166771,0.022968,-0.0518172,0,0,2.415,51.415,-3.3425,-0.002562,-0.421998,-0.930494,-0.04956,0.24962,0.33306
-16.7178,0,0,21.7178,21.7178,5,5,27.863,11.7989,-13.6778,-0.166895,0.0230117,-0.0524198,0,0,2.3275,42.2275,-6.195,-0.002562,-0.421876,-0.931104,-0.04956,0.24962,0.33306
-16.7142,0,0,21.7142,21.7142,5,5,27.857,11.808,-13.6761,-0.16863,0.0207089,-0.0515407,0,0,1.6975,40.7225,-15.3475,-0.004148,-0.424072,-0.93025,-0.04956,0.24962,0.33306
-16.7141,0,0,21.7141,21.7141,5,5,27.8568,11.7998,-13.6505,-0.16934,0.0224281,-0.0489306,0,0,2.275,38.6575,0.9975,-0.005002,-0.422364,-0.927688,-0.04956,0.24962,0.33306
-16.7155,0,0,21.7155,21.7155,5,5,27.8591,11.7964,-13.6189,-0.168553,0.0221027,-0.0484467,0,0,2.765,42.2975,3.2725,-0.00427,-0.42273,-0.9272,-0.04956,0.24962,0.33306
-16.7151,0,0,21.7151,21.7151,5,5,27.8585,11.813,-13.6049,-0.164342,0.0223097,-0.0464041,0,0,2.6775,45.5875,-7.6125,0.000244,-0.422486,-0.925126,-0.04956,0.24962,0.33306
-16.7114,0,0,21.7114,21.7114,5,5,27.8524,11.8319,-13.5771,-0.16928,0.0234079,-0.053669,0,0,0.735,52.1325,-5.6875,-0.004392,-0.421266,-0.932324,-0.05082,0.24878,0.33684
-16.7099,0,0,21.7099,21.7099,5,5,27.8498,11.846,-13.5269,-0.168548,0.0245661,-0.0543075,0,0,0.7,55.3875,8.0675,-0.003416,-0.420046,-0.932934,-0.05082,0.24878,0.33684
-16.7107,0,0,21.7107,21.7107,5,5,27.8512,11.8631,-13.4711,-0.169934,0.0226048,-0.0525288,0,0,0.875,59.4825,8.6625,-0.004514,-0.421998,-0.931104,-0.05082,0.24878,0.33684
-16.7112,0,0,21.7112,21.7112,5,5,27.8521,11.8766,-13.4128,-0.172716,0.0229618,-0.0529476,0,0,0.5425,59.9725,9.2575,-0.007076,-0.421632,-0.93147,-0.05082,0.24878,0.33684
-16.7098,0,0,21.7098,21.7098,5,5,27.8496,11.8946,-13.3716,-0.169258,0.0232606,-0.0523706,0,0,0.56,56,2.45,-0.003294,-0.421266,-0.93086,-0.05082,0.24878,0.33684
-16.7086,0,0,21.7086,21.7086,5,5,27.8476,11.9121,-13.3402,-0.167978,0.020881,-0.0551154,0,0,1.3475,52.6925,-1.435,-0.001708,-0.423584,-0.933544,-0.05082,0.24878,0.33684
-16.709,0,0,21.709,21.709,5,5,27.8483,11.9147,-13.305,-0.167658,0.0232076,-0.0484901,0,0,1.9075,46.025,4.8825,-0.001342,-0.421266,-0.926956,-0.05082,0.24878,0.33684
-16.7084,0,0,21.7084,21.7084,5,5,27.8473,11.9162,-13.281,-0.170356,0.0211138,-0.0536506,0,0,2.485,44.03,-2.45,-0.004026,-0.42334,-0.93208,-0.05082,0.24878,0.33684
-16.7089,0,0,21.7089,21.7089,5,5,27.8481,11.9211,-13.2683,-0.170076,0.0195296,-0.0507218,0,0,3.3075,42.8225,-9.45,-0.00366,-0.424926,-0.929152,-0.05082,0.24878,0.33684
-16.7093,0,0,21.7093,21.7093,5,5,27.8489,11.9173,-13.2404,-0.172682,0.0206466,-0.0530514,0,0,2.835,43.2775,-1.61,-0.006344,-0.423828,-0.93147,-0.05012,0.24696,0.33348
-16.7088,0,0,21.7088,21.7088,5,5,27.8481,11.9236,-13.2155,-0.172184,0.020746,-0.0519589,0,0,2.1175,47.4775,-5.4075,-0.005734,-0.423706,-0.930372,-0.05012,0.24696,0.33348
-16.7118,0,0,21.7118,21.7118,5,5,27.8531,11.9304,-13.1783,-0.169627,0.0205655,-0.0458728,0,0,2.275,49.7875,2.17,-0.00305,-0.42395,-0.924272,-0.05012,0.24696,0.33348
-16.713,0,0,21.713,21.713,5,5,27.855,11.9401,-13.1343,-0.17368,0.020701,-0.0528046,0,0,1.575,55.23,2.66,-0.006954,-0.423828,-0.931104,-0.05012,0.24696,0.33348
-16.713,0,0,21.713,21.713,5,5,27.855,11.9532,-13.0907,-0.174024,0.0222667,-0.0517397,0,0,1.015,57.0325,1.925,-0.007076,-0.422242,-0.930006,-0.05012,0.24696,0.33348
-16.7143,0,0,21.7143,21.7143,5,5,27.8572,11.9673,-13.0425,-0.171471,0.0212992,-0.0510649,0,0,0.9625,57.68,5.845,-0.00427,-0.423218,-0.929274,-0.05012,0.24696,0.33348
-16.7161,0,0,21.7161,21.7161,5,5,27.8602,11.9787,-12.9963,-0.17118,0.0201029,-0.0513706,0,0,1.015,55.825,5.7925,-0.003782,-0.424438,-0.929518,-0.05012,0.24696,0.33348
-16.7175,0,0,21.7175,21.7175,5,5,27.8625,11.9849,-12.9609,-0.171286,0.0201268,-0.0514089,0,0,1.9075,50.505,1.8375,-0.003782,-0.424438,-0.929518,-0.05012,0.24696,0.33348
-16.7188,0,0,21.7188,21.7188,5,5,27.8647,11.9808,-12.9308,-0.176075,0.0229761,-0.0487084,0,0,2.695,47.7225,1.5925,-0.008662,-0.421632,-0.926834,-0.0511,0.24976,0.33012
-16.7188,0,0,21.7188,21.7188,5,5,27.8647,11.9743,-12.9134,-0.175964,0.0229882,-0.0486882,0,0,3.01,43.085,-4.0775,-0.008662,-0.421632,-0.926834,-0.0511,0.24976,0.33012
-16.7218,0,0,21.7218,21.7218,5,5,27.8697,11.969,-12.8947,-0.171379,0.0191634,-0.0467433,0,0,3.0975,41.9475,-1.365,-0.004148,-0.425536,-0.924882,-0.0511,0.24976,0.33012
-16.7251,0,0,21.7251,21.7251,5,5,27.8751,11.965,-12.8728,-0.171311,0.0192523,-0.0467742,0,0,3.08,43.4525,-0.0175,-0.004148,-0.425536,-0.924882,-0.0511,0.24976,0.33012
-16.7264,0,0,21.7264,21.7264,5,5,27.8773,11.9606,-12.8472,-0.174394,0.0211249,-0.050466,0,0,2.7125,45.64,0.56,-0.00732,-0.423706,-0.928542,-0.0511,0.24976,0.33012
-16.7277,0,0,21.7277,21.7277,5,5,27.8796,11.9676,-12.8183,-0.171477,0.0209028,-0.0502605,0,0,2.135,50.8375,1.47,-0.00427,-0.42395,-0.928298,-0.0511,0.24976,0.33012
-16.7322,0,0,21.7322,21.7322,5,5,27.887,11.9723,-12.7817,-0.173621,0.0172206,-0.0484902,0,0,1.89,53.2525,3.3425,-0.006344,-0.427732,-0.926468,-0.0511,0.24976,0.33012
-16.7338,0,0,21.7338,21.7338,5,5,27.8897,11.9823,-12.7434,-0.173429,0.0199313,-0.0519866,0,0,1.225,56.14,4.1475,-0.005978,-0.425048,-0.929884,-0.0511,0.24976,0.33012
-16.7353,0,0,21.7353,21.7353,5,5,27.8921,11.9949,-12.7015,-0.172063,0.019947,-0.0521694,0,0,1.26,56.245,4.1825,-0.004392,-0.425048,-0.930006,-0.04928,0.2471,0.33516
-16.7372,0,0,21.7372,21.7372,5,5,27.8954,12.0024,-12.6637,-0.17292,0.0192509,-0.050867,0,0,1.5225,53.235,2.73,-0.005124,-0.42578,-0.928664,-0.04928,0.2471,0.33516
-16.7392,0,0,21.7392,21.7392,5,5,27.8986,12.0024,-12.6264,-0.175471,0.0192992,-0.052245,0,0,1.925,50.715,2.8175,-0.007686,-0.42578,-0.930006,-0.04928,0.2471,0.33516
-16.7407,0,0,21.7407,21.7407,5,5,27.9011,11.9986,-12.598,-0.173221,0.0200768,-0.0522535,0,0,2.9225,45.255,1.365,-0.00549,-0.425048,-0.930006,-0.04928,0.2471,0.33516
-16.7426,0,0,21.7426,21.7426,5,5,27.9043,11.9961,-12.5736,-0.170748,0.0186637,-0.0536232,0,0,3.3075,43.5925,0.7875,-0.00305,-0.426512,-0.931348,-0.04928,0.2471,0.33516
-16.7444,0,0,21.7444,21.7444,5,5,27.9073,11.9954,-12.5536,-0.168793,0.0194418,-0.0524151,0,0,3.7275,42.315,-0.28,-0.001098,-0.42578,-0.930128,-0.04928,0.2471,0.33516
-16.7456,0,0,21.7456,21.7456,5,5,27.9093,11.9908,-12.5293,-0.172479,0.0200917,-0.0535233,0,0,3.4125,43.365,0.5075,-0.00488,-0.42517,-0.931226,-0.04928,0.2471,0.33516
-16.7449,0,0,21.7449,21.7449,5,5,27.9081,11.9935,-12.5024,-0.170946,0.0219004,-0.0564728,0,0,2.8,46.8125,1.9075,-0.003294,-0.42334,-0.934154,-0.04928,0.2471,0.33516
-16.744,0,0,21.744,21.744,5,5,27.9067,12.0023,-12.4742,-0.16891,0.0216197,-0.0562437,0,0,2.2925,49.245,2.5375,-0.001098,-0.423584,-0.93391,-0.04928,0.2471,0.33516
-16.7431,0,0,21.7431,21.7431,5,5,27.9052,12.0156,-12.4438,-0.169744,0.0243842,-0.051111,0,0,1.9425,53.06,3.045,-0.001708,-0.420778,-0.928786,-0.05054,0.24836,0.33446
-16.7422,0,0,21.7422,21.7422,5,5,27.9037,12.0301,-12.4121,-0.16987,0.02397,-0.0523749,0,0,1.785,54.215,3.5525,-0.001586,-0.421144,-0.930006,-0.05054,0.24836,0.33446
-16.7404,0,0,21.7404,21.7404,5,5,27.9007,12.0422,-12.3797,-0.171535,0.0269577,-0.0495623,0,0,1.715,53.97,3.99,-0.00305,-0.418094,-0.9272,-0.05054,0.24836,0.33446
-16.7372,0,0,21.7372,21.7372,5,5,27.8954,12.0547,-12.3508,-0.170776,0.0285659,-0.0509124,0,0,1.855,52.745,3.535,-0.002074,-0.416386,-0.928542,-0.05054,0.24836,0.33446
-16.7351,0,0,21.7351,21.7351,5,5,27.8919,12.0606,-12.3271,-0.171242,0.0261824,-0.0515184,0,0,2.415,48.5625,1.8725,-0.00244,-0.418704,-0.929152,-0.05054,0.24836,0.33446
-16.7327,0,0,21.7327,21.7327,5,5,27.8878,12.0627,-12.3061,-0.172371,0.0268493,-0.0518609,0,0,2.7825,46.48,1.1025,-0.003538,-0.417972,-0.929518,-0.05054,0.24836,0.33446
-16.7309,0,0,21.7309,21.7309,5,5,27.8849,12.0631,-12.2897,-0.170191,0.026805,-0.0488883,0,0,3.2375,43.295,0.665,-0.001342,-0.417972,-0.92659,-0.05054,0.24836,0.33446
-16.729,0,0,21.729,21.729,5,5,27.8816,12.0582,-12.2721,-0.173631,0.0268865,-0.0513058,0,0,3.5875,42.7525,0.3675,-0.00488,-0.41785,-0.92903,-0.05054,0.24836,0.33446
-16.7277,0,0,21.7277,21.7277,5,5,27.8796,12.0527,-12.2596,-0.174752,0.0251548,-0.0533615,0,0,3.64,43.785,0.2275,-0.0061,-0.419558,-0.931104,-0.05306,0.252,0.32802
-16.7253,0,0,21.7253,21.7253,5,5,27.8755,12.0502,-12.2466,-0.174466,0.0264413,-0.0534439,0,0,3.1325,45.185,0.315,-0.005856,-0.418216,-0.931226,-0.05306,0.252,0.32802
-16.7254,0,0,21.7254,21.7254,5,5,27.8757,12.0503,-12.227,-0.174346,0.0218032,-0.0545525,0,0,2.7125,48.5975,1.96,-0.005734,-0.422852,-0.932324,-0.05306,0.252,0.32802
-16.7233,0,0,21.7233,21.7233,5,5,27.8721,12.0589,-12.2096,-0.170727,0.0247876,-0.0545515,0,0,2.2225,50.1375,2.275,-0.001952,-0.419802,-0.932324,-0.05306,0.252,0.32802
-16.7244,0,0,21.7244,21.7244,5,5,27.874,12.0672,-12.1877,-0.171355,0.0202833,-0.0525034,0,0,2.0475,52.045,2.905,-0.00244,-0.424316,-0.93025,-0.05306,0.252,0.32802
-16.7236,0,0,21.7236,21.7236,5,5,27.8727,12.0752,-12.166,-0.172706,0.0219598,-0.0552235,0,0,1.75,52.3775,2.73,-0.00366,-0.422608,-0.932934,-0.05306,0.252,0.32802
-16.7236,0,0,21.7236,21.7236,5,5,27.8727,12.0801,-12.1448,-0.172911,0.0199975,-0.0564688,0,0,1.8375,51.0125,2.9225,-0.003782,-0.42456,-0.934154,-0.05306,0.252,0.32802
-16.7228,0,0,21.7228,21.7228,5,5,27.8714,12.0838,-12.1271,-0.172609,0.0220472,-0.056716,0,0,2.5375,49.1575,2.3275,-0.003416,-0.422486,-0.934398,-0.05306,0.252,0.32802
-16.722,0,0,21.722,21.722,5,5,27.87,12.0844,-12.0955,-0.173712,0.0220255,-0.0557232,0,0,2.5725,47.53,1.19,-0.004514,-0.422486,-0.933422,-0.04984,0.24234,0.33334
-16.7207,0,0,21.7207,21.7207,5,5,27.8678,12.0848,-12.0693,-0.171048,0.0226024,-0.0549697,0,0,2.7825,44.66,0.735,-0.00183,-0.421876,-0.93269,-0.04984,0.24234,0.33334
-16.7207,0,0,21.7207,21.7207,5,5,27.8679,12.0782,-12.0412,-0.174337,0.0218815,-0.0521209,0,0,2.87,43.4525,0.7,-0.005246,-0.422608,-0.929884,-0.04984,0.24234,0.33334
-16.7196,0,0,21.7196,21.7196,5,5,27.8659,12.0749,-12.0161,-0.172093,0.0218582,-0.0547997,0,0,2.6775,43.12,0.42,-0.00305,-0.422608,-0.932568,-0.04984,0.24234,0.33334
-16.7177,0,0,21.7177,21.7177,5,5,27.8629,12.0707,-11.9896,-0.173479,0.0223081,-0.0563603,0,0,2.52,43.7325,0.63,-0.004514,-0.42212,-0.934154,-0.04984,0.24234,0.33334
-16.716,0,0,21.716,21.716,5,5,27.86,12.0719,-11.9617,-0.172164,0.0242162,-0.0524066,0,0,2.3975,46.1125,1.1725,-0.003172,-0.420168,-0.93025,-0.04984,0.24234,0.33334
-16.7147,0,0,21.7147,21.7147,5,5,27.8579,12.0772,-11.9332,-0.170188,0.0225881,-0.0536365,0,0,2.205,47.4425,1.75,-0.001098,-0.421754,-0.93147,-0.04984,0.24234,0.33334
-16.7119,0,0,21.7119,21.7119,5,5,27.8532,12.0854,-11.9024,-0.171058,0.0256777,-0.0533794,0,0,1.89,49.875,2.4675,-0.00183,-0.418582,-0.931226,-0.04984,0.24234,0.33334
-16.7084,0,0,21.7084,21.7084,5,5,27.8474,12.0837,-11.8676,-0.178926,0.0251051,-0.0589835,0,0,1.8375,50.5925,2.52,-0.00976,-0.41907,-0.936838,-0.05096,0.24402,0.3346
-16.7053,0,0,21.7053,21.7053,5,5,27.8421,12.089,-11.8361,-0.174277,0.0284361,-0.0493685,0,0,1.7675,50.7675,2.7125,-0.005002,-0.415654,-0.927322,-0.05096,0.24402,0.3346
-16.7033,0,0,21.7033,21.7033,5,5,27.8389,12.0848,-11.8012,-0.179672,0.027295,-0.0485912,0,0,1.89,49.8925,2.6075,-0.010492,-0.416752,-0.92659,-0.05096,0.24402,0.3346
-16.702,0,0,21.702,21.702,5,5,27.8367,12.082,-11.7713,-0.176344,0.0248253,-0.0502866,0,0,2.1875,47.7575,1.9425,-0.007198,-0.419192,-0.928298,-0.05096,0.24402,0.3346
-16.7011,0,0,21.7011,21.7011,5,5,27.8352,12.0759,-11.7427,-0.177334,0.0246904,-0.0490251,0,0,2.345,46.305,1.33,-0.008296,-0.419314,-0.927078,-0.05096,0.24402,0.3346
-16.6983,0,0,21.6983,21.6983,5,5,27.8305,12.0703,-11.719,-0.17566,0.0265823,-0.0520432,0,0,2.7125,44.205,0.8575,-0.00671,-0.417362,-0.930128,-0.05096,0.24402,0.3346
-16.6969,0,0,21.6969,21.6969,5,5,27.8282,12.0679,-11.698,-0.172702,0.0260641,-0.0472224,0,0,2.9575,43.6275,0.49,-0.003782,-0.41785,-0.92537,-0.05096,0.24402,0.3346
-16.6953,0,0,21.6953,21.6953,5,5,27.8256,12.0605,-11.675,-0.175857,0.0246929,-0.0509888,0,0,2.8,43.4,0.385,-0.007076,-0.419192,-0.929152,-0.05096,0.24402,0.3346
-16.6952,0,0,21.6952,21.6952,5,5,27.8254,12.0566,-11.6524,-0.173604,0.0232315,-0.0477783,0,0,2.7125,44.065,0.455,-0.00488,-0.420656,-0.92598,-0.05096,0.24402,0.3346
-16.6929,0,0,21.6929,21.6929,5,5,27.8216,12.0552,-11.6339,-0.174309,0.0239091,-0.0554892,0,0,2.6425,45.885,1.0675,-0.005612,-0.419924,-0.933666,-0.05138,0.24696,0.33166
-16.6919,0,0,21.6919,21.6919,5,5,27.8199,12.0526,-11.6127,-0.175722,0.0221785,-0.0544837,0,0,2.485,46.9,1.225,-0.007076,-0.421632,-0.93269,-0.05138,0.24696,0.33166
-16.6908,0,0,21.6908,21.6908,5,5,27.8179,12.0518,-11.5896,-0.175709,0.0221503,-0.0544658,0,0,2.0825,48.405,1.8375,-0.007076,-0.421632,-0.93269,-0.05138,0.24696,0.33166
-16.69,0,0,21.69,21.69,5,5,27.8167,12.0537,-11.5671,-0.173797,0.019441,-0.0577811,0,0,1.925,48.72,1.96,-0.005124,-0.424316,-0.935984,-0.05138,0.24696,0.33166
-16.6893,0,0,21.6893,21.6893,5,5,27.8156,12.0559,-11.5447,-0.173834,0.019421,-0.0577795,0,0,2.0125,48.9475,1.96,-0.005124,-0.424316,-0.935984,-0.05138,0.24696,0.33166
-16.6879,0,0,21.6879,21.6879,5,5,27.8132,12.0543,-11.5212,-0.17648,0.0224415,-0.0546821,0,0,2.0125,48.5625,2.065,-0.007808,-0.421266,-0.932934,-0.05138,0.24696,0.33166
-16.6879,0,0,21.6879,21.6879,5,5,27.8131,12.0525,-11.5008,-0.174749,0.0209772,-0.0527084,0,0,2.38,46.935,1.435,-0.0061,-0.42273,-0.930982,-0.05138,0.24696,0.33166
-16.6882,0,0,21.6882,21.6882,5,5,27.8137,12.0469,-11.4804,-0.176232,0.0203854,-0.0526951,0,0,2.555,45.78,1.19,-0.007686,-0.42334,-0.930982,-0.05138,0.24696,0.33166
-16.6872,0,0,21.6872,21.6872,5,5,27.812,12.0408,-11.4576,-0.175033,0.0212251,-0.0559813,0,0,2.8175,43.89,0.77,-0.006588,-0.422486,-0.934276,-0.05138,0.24318,0.33152
-16.6865,0,0,21.6865,21.6865,5,5,27.8108,12.0288,-11.4327,-0.178596,0.021471,-0.0551954,0,0,2.905,43.365,0.63,-0.01037,-0.422242,-0.933544,-0.05138,0.24318,0.33152
-16.6847,0,0,21.6847,21.6847,5,5,27.8078,12.0209,-11.4107,-0.176273,0.0236377,-0.0539165,0,0,2.9575,43.26,0.4375,-0.008174,-0.420046,-0.932324,-0.05138,0.24318,0.33152
-16.6843,0,0,21.6843,21.6843,5,5,27.8071,12.0142,-11.3888,-0.174823,0.0216839,-0.0522909,0,0,2.8875,43.295,0.5075,-0.006832,-0.421998,-0.930738,-0.05138,0.24318,0.33152
-16.6845,0,0,21.6845,21.6845,5,5,27.8076,12.0033,-11.3625,-0.178646,0.0226868,-0.0479566,0,0,2.66,44.38,0.8575,-0.010858,-0.421022,-0.926468,-0.05138,0.24318,0.33152
-16.6836,0,0,21.6836,21.6836,5,5,27.8061,11.9991,-11.3388,-0.175051,0.024625,-0.0480538,0,0,2.7125,45.01,1.12,-0.00732,-0.41907,-0.92659,-0.05138,0.24318,0.33152
-16.6826,0,0,21.6826,21.6826,5,5,27.8043,11.9954,-11.3122,-0.176202,0.023505,-0.0509784,0,0,2.3975,46.7075,1.61,-0.00854,-0.420168,-0.929518,-0.05138,0.24318,0.33152
-16.6837,0,0,21.6837,21.6837,5,5,27.8061,11.9908,-11.2836,-0.176732,0.0214642,-0.0470441,0,0,2.31,47.355,1.6275,-0.00915,-0.422242,-0.925614,-0.05138,0.24318,0.33152
-16.6833,0,0,21.6833,21.6833,5,5,27.8056,11.9891,-11.2633,-0.175974,0.0218256,-0.0499851,0,0,2.03,47.635,1.8375,-0.008418,-0.421876,-0.928542,-0.04914,0.2471,0.33334
-16.6828,0,0,21.6828,21.6828,5,5,27.8047,11.9859,-11.2427,-0.176891,0.0215731,-0.0509512,0,0,1.925,47.4425,1.75,-0.009394,-0.42212,-0.929518,-0.04914,0.2471,0.33334
-16.6816,0,0,21.6816,21.6816,5,5,27.8027,11.9786,-11.2217,-0.179318,0.023143,-0.0511581,0,0,2.17,46.6375,1.645,-0.011956,-0.420534,-0.929762,-0.04914,0.2471,0.33334
-16.6815,0,0,21.6815,21.6815,5,5,27.8025,11.976,-11.2042,-0.175021,0.0211911,-0.0507795,0,0,2.4325,45.955,1.4525,-0.007686,-0.422486,-0.929396,-0.04914,0.2471,0.33334
-16.6821,0,0,21.6821,21.6821,5,5,27.8035,11.9723,-11.1887,-0.174351,0.0212119,-0.0484394,0,0,2.73,44.625,1.1025,-0.007076,-0.422486,-0.927078,-0.04914,0.2471,0.33334
-16.6825,0,0,21.6825,21.6825,5,5,27.8042,11.9651,-11.1727,-0.176294,0.0203806,-0.0508815,0,0,2.8,44.0125,0.8225,-0.00915,-0.42334,-0.929518,-0.04914,0.2471,0.33334
-16.6802,0,0,21.6802,21.6802,5,5,27.8004,11.9644,-11.1623,-0.172029,0.0214232,-0.0573648,0,0,2.7475,43.33,0.5075,-0.00488,-0.422242,-0.935984,-0.04914,0.2471,0.33334
-16.6805,0,0,21.6805,21.6805,5,5,27.8009,11.9615,-11.1501,-0.17283,0.0199698,-0.050966,0,0,2.8,43.3825,0.42,-0.005734,-0.423706,-0.92964,-0.04914,0.2471,0.33334
-16.6826,0,0,21.6826,21.6826,5,5,27.8044,11.9585,-11.1369,-0.172293,0.0168523,-0.0507385,0,0,2.8,43.575,0.525,-0.005246,-0.426878,-0.929396,-0.04914,0.2471,0.33334
-16.682,0,0,21.682,21.682,5,5,27.8033,11.9602,-11.1277,-0.170986,0.02013,-0.0525793,0,0,2.555,43.8725,0.6125,-0.003904,-0.423584,-0.931226,-0.04536,0.24724,0.33502
-16.6824,0,0,21.6824,21.6824,5,5,27.804,11.9607,-11.1159,-0.172331,0.0198958,-0.0495129,0,0,2.485,44.7475,0.9625,-0.005246,-0.423828,-0.928176,-0.04536,0.24724,0.33502
-16.6825,0,0,21.6825,21.6825,5,5,27.8041,11.9625,-11.1038,-0.172118,0.0197721,-0.0505029,0,0,2.2575,45.36,1.0675,-0.005002,-0.42395,-0.929152,-0.04536,0.24724,0.33502
-16.6813,0,0,21.6813,21.6813,5,5,27.8021,11.9669,-11.0928,-0.170979,0.0212001,-0.0520996,0,0,2.24,45.6925,1.2425,-0.003782,-0.422486,-0.930738,-0.04536,0.24724,0.33502
-16.6826,0,0,21.6826,21.6826,5,5,27.8043,11.9715,-11.0807,-0.170327,0.0181722,-0.0495496,0,0,2.345,46.025,1.33,-0.00305,-0.425536,-0.928176,-0.04536,0.24724,0.33502
-16.6826,0,0,21.6826,21.6826,5,5,27.8043,11.9767,-11.0689,-0.170661,0.0201169,-0.0504269,0,0,2.2925,46.3225,1.365,-0.003294,-0.423584,-0.92903,-0.04536,0.24724,0.33502
