pid_x,pid_y,pid_z,front_left_speed,front_right_speed,back_left_speed,back_right_speed,orientation_x,orientation_y,orientation_z,acceleration_x,acceleration_y,acceleration_z,accel_rejected,mag_rejected,gyro_x,gyro_y,gyro_z,accel_x,accel_y,accel_z,mag_x,mag_y,mag_z
-0.042396,0,0,15.0424,15.0424,14.9576,14.9576,0.0169584,0.0647342,0.013892,0.0498166,-0.0143042,0.00252018,0,0,3.5525,0.2625,-0.8225,0.010858,-0.00244,-1.01016,-0.06454,0.11088,0.44604
-0.090704,0,0,15.0907,15.0907,14.9093,14.9093,0.0362816,0.132127,0.024518,0.051799,-0.0165316,-0.00412122,0,0,3.5,0.5425,-0.8575,0.01403,-0.005002,-1.01675,-0.06454,0.11088,0.44604
-0.135235,0,0,15.1352,15.1352,14.8648,14.8648,0.0540939,0.195059,0.0373617,0.0482709,-0.0148773,0.00128514,0,0,3.675,0.42,-0.98,0.01159,-0.00366,-1.01138,-0.06454,0.11088,0.44604
-0.181237,0,0,15.1812,15.1812,14.8188,14.8188,0.0724947,0.263199,0.0440063,0.0525485,-0.0152889,-0.000564202,0,0,3.7625,0.385,-1.0325,0.01708,-0.004392,-1.01321,-0.06454,0.11088,0.44604
-0.225762,0,0,15.2258,15.2258,14.7742,14.7742,0.0903047,0.329847,0.0507163,0.0513853,-0.0149781,-0.000570663,0,0,3.64,0.4025,-0.9975,0.01708,-0.004392,-1.01321,-0.06454,0.11088,0.44604
-0.274112,0,0,15.2741,15.2741,14.7259,14.7259,0.109645,0.393522,0.059916,0.0489376,-0.0162282,-0.00107006,0,0,3.6925,0.3325,-0.9625,0.015738,-0.005978,-1.0137,-0.06692,0.11074,0.4445
-0.31005,0,0,15.3101,15.3101,14.6899,14.6899,0.12402,0.450319,0.0730534,0.0443018,-0.0120693,-0.000954925,0,0,3.6225,-0.07,-1.05,0.012078,-0.002074,-1.01358,-0.06692,0.11074,0.4445
-0.345498,0,0,15.3455,15.3455,14.6545,14.6545,0.138199,0.501283,0.0903716,0.0396463,-0.0120661,-0.000839929,0,0,3.5175,-0.0175,-1.085,0.008296,-0.002318,-1.01345,-0.06692,0.11074,0.4445
-0.388569,0,0,15.3886,15.3886,14.6114,14.6114,0.155428,0.555946,0.103655,0.0424583,-0.0146965,-0.0053986,0,0,3.57,0.1575,-1.1025,0.012078,-0.005246,-1.01797,-0.06692,0.11074,0.4445
-0.43309,0,0,15.4331,15.4331,14.5669,14.5669,0.173236,0.605054,0.121651,0.0373493,-0.0149963,0.001354,0,0,3.6225,0.4375,-0.9275,0.007808,-0.005856,-1.01126,-0.06692,0.11074,0.4445
-0.4757,0,0,15.4757,15.4757,14.5243,14.5243,0.19028,0.652849,0.139645,0.0365151,-0.0146989,0.0013439,0,0,3.395,0.315,-0.91,0.007808,-0.005856,-1.01126,-0.06692,0.11074,0.4445
-0.50886,0,0,15.5089,15.5089,14.4911,14.4911,0.203544,0.702924,0.154292,0.0384354,-0.0115364,0.00329994,0,0,3.325,0.28,-0.91,0.010614,-0.002928,-1.00931,-0.06692,0.11074,0.4445
-0.544162,0,0,15.5442,15.5442,14.4558,14.4558,0.217665,0.751275,0.175249,0.0369841,-0.0116564,0.00291948,0,0,3.7275,0.315,-1.12,0.010004,-0.003294,-1.00967,-0.06762,0.10752,0.44436
-0.580866,0,0,15.5809,15.5809,14.4191,14.4191,0.232347,0.797891,0.196355,0.0361706,-0.0127436,0.00130914,0,0,3.36,-0.0525,-1.0675,0.010004,-0.004636,-1.01126,-0.06762,0.10752,0.44436
-0.609383,0,0,15.6094,15.6094,14.3906,14.3906,0.243753,0.840247,0.220457,0.0328802,-0.00985783,-0.00165302,0,0,3.43,0.1225,-1.05,0.007442,-0.001952,-1.01419,-0.06762,0.10752,0.44436
-0.646338,0,0,15.6463,15.6463,14.3537,14.3537,0.258535,0.887973,0.238834,0.0366638,-0.0128973,0.0059561,0,0,3.2725,0.07,-1.085,0.012078,-0.005246,-1.00662,-0.06762,0.10752,0.44436
-0.683631,0,0,15.6836,15.6836,14.3164,14.3164,0.273452,0.934393,0.256904,0.0358537,-0.0126371,0.005942,0,0,3.5175,-0.07,-1.2425,0.012078,-0.005246,-1.00662,-0.06762,0.10752,0.44436
-0.716175,0,0,15.7162,15.7162,14.2838,14.2838,0.28647,0.979069,0.276099,0.0347096,-0.0113108,0.000518141,0,0,3.3775,0.035,-0.98,0.011712,-0.004148,-1.01199,-0.06762,0.10752,0.44436
-0.743448,0,0,15.7434,15.7434,14.2566,14.2566,0.297379,1.01841,0.299267,0.0302571,-0.00965501,0.00443956,0,0,3.2375,0.14,-0.98,0.00793,-0.002684,-1.00809,-0.06762,0.10752,0.44436
-0.770702,0,0,15.7707,15.7707,14.2293,14.2293,0.308281,1.05663,0.311367,0.02959,-0.00946484,0.00442647,0,0,3.36,0.07,-1.05,0.00793,-0.002684,-1.00809,-0.06678,0.11354,0.44212
-0.801342,0,0,15.8013,15.8013,14.1987,14.1987,0.320537,1.09121,0.326631,0.0268,-0.0108387,-0.0049301,0,0,3.325,0.2975,-0.9275,0.005734,-0.00427,-1.01736,-0.06678,0.11354,0.44212
-0.828258,0,0,15.8283,15.8283,14.1717,14.1717,0.331303,1.13525,0.332596,0.033685,-0.00942963,0.00820939,0,0,3.2725,0.2975,-0.8575,0.01342,-0.00305,-1.0043,-0.06678,0.11354,0.44212
-0.85502,0,0,15.855,15.855,14.145,14.145,0.342008,1.17799,0.338491,0.0329392,-0.00924293,0.00819323,0,0,3.36,0.105,-0.8925,0.01342,-0.00305,-1.0043,-0.06678,0.11354,0.44212
-0.87733,0,0,15.8773,15.8773,14.1227,14.1227,0.350932,1.22099,0.343206,0.0334037,-0.00762178,-0.000429815,0,0,3.5,0.315,-1.0675,0.01464,-0.001586,-1.01284,-0.06678,0.11354,0.44212
-0.903064,0,0,15.9031,15.9031,14.0969,14.0969,0.361225,1.2564,0.354401,0.027319,-0.00902991,-0.0040098,0,0,3.395,0.4725,-0.9975,0.00915,-0.003172,-1.01638,-0.06678,0.11354,0.44212
-0.927957,0,0,15.928,15.928,14.072,14.072,0.371183,1.29046,0.365359,0.0267247,-0.00885625,-0.00402412,0,0,3.325,0.14,-1.12,0.00915,-0.003172,-1.01638,-0.06678,0.11354,0.44212
-0.945715,0,0,15.9457,15.9457,14.0543,14.0543,0.378286,1.32597,0.371294,0.0284134,-0.00628987,-0.0109242,0,0,3.43,0.0175,-0.8575,0.011468,-0.000732,-1.02321,-0.07014,0.1155,0.448
-0.966102,0,0,15.9661,15.9661,14.0339,14.0339,0.386441,1.36094,0.377101,0.0274387,-0.00712469,-0.000365881,0,0,3.395,0.0175,-0.8225,0.011102,-0.001708,-1.01272,-0.07014,0.1155,0.448
-0.982669,0,0,15.9827,15.9827,14.0173,14.0173,0.393068,1.39562,0.382276,0.027441,-0.00591002,-0.0023484,0,0,3.3425,-0.035,-0.84,0.011712,-0.00061,-1.01467,-0.07014,0.1155,0.448
-0.998273,0,0,15.9983,15.9983,14.0017,14.0017,0.399309,1.42984,0.387321,0.0268439,-0.00580122,-0.00236388,0,0,3.2025,0.14,-0.91,0.011712,-0.00061,-1.01467,-0.07014,0.1155,0.448
-1.01711,0,0,16.0171,16.0171,13.9829,13.9829,0.406844,1.45896,0.396579,0.0229343,-0.00689113,-0.00582017,0,0,3.255,0.1575,-0.7875,0.008296,-0.00183,-1.01809,-0.07014,0.1155,0.448
-1.03868,0,0,16.0387,16.0387,13.9613,13.9613,0.41547,1.48745,0.406065,0.0220727,-0.00759559,-0.00534225,0,0,3.4125,0.4025,-0.875,0.00793,-0.002684,-1.0176,-0.07014,0.1155,0.448
-1.05988,0,0,16.0599,16.0599,13.9401,13.9401,0.423953,1.51514,0.415407,0.0215896,-0.0074477,-0.00535599,0,0,3.43,0.2975,-0.945,0.00793,-0.002684,-1.0176,-0.07014,0.1155,0.448
-1.08043,0,0,16.0804,16.0804,13.9196,13.9196,0.432171,1.54337,0.42368,0.022069,-0.00706017,-0.0022965,0,0,3.5,0.175,-0.8225,0.008906,-0.00244,-1.01455,-0.07014,0.1155,0.448
-1.10077,0,0,16.1008,16.1008,13.8992,13.8992,0.44031,1.57071,0.424943,0.0215919,-0.00691827,-0.00231054,0,0,3.5525,0.0525,-0.945,0.008906,-0.00244,-1.01455,-0.06972,0.11928,0.44702
-1.11976,0,0,16.1198,16.1198,13.8802,13.8802,0.447905,1.59916,0.424328,0.0225535,-0.00666374,-0.00330889,0,0,3.43,0.035,-1.12,0.01037,-0.002318,-1.01553,-0.06972,0.11928,0.44702
-1.28266,0,0,16.2827,16.2827,13.7173,13.7173,0.513064,1.6487,0.406751,0.040155,-0.0585302,-0.0296539,0,0,3.64,0.035,-0.91,0.028914,-0.055266,-1.04164,-0.06972,0.11928,0.44702
-1.44234,0,0,16.4423,16.4423,13.5577,13.5577,0.576935,1.69713,0.389261,0.03931,-0.0574162,-0.0296892,0,0,3.64,0.035,-0.91,0.028914,-0.055266,-1.04164,-0.06972,0.11928,0.44702
-1.38849,0,0,16.3885,16.3885,13.6115,13.6115,0.555396,1.66495,0.439663,-0.0248804,0.0193923,-0.051185,0,0,3.57,0.105,-1.225,-0.036112,0.021838,-1.06299,-0.06972,0.11928,0.44702
-1.62397,0,0,16.624,16.624,13.376,13.376,0.649589,1.64964,0.47983,-0.014044,-0.0799632,0.0190091,0,0,3.885,0.105,-1.295,-0.025498,-0.079056,-0.993324,-0.06972,0.11928,0.44702
-1.85337,0,0,16.8534,16.8534,13.1466,13.1466,0.741348,1.63414,0.519795,-0.0137737,-0.0783624,0.0189974,0,0,3.57,-0.175,-1.2775,-0.025498,-0.079056,-0.993324,-0.06972,0.11928,0.44702
-1.9299,0,0,16.9299,16.9299,13.0701,13.0701,0.771959,1.94241,0.261996,0.259051,-0.0282472,-0.0137589,0,0,3.7975,-0.42,-1.9075,0.253882,-0.029524,-1.02565,-0.06678,0.11858,0.46578
-1.98167,0,0,16.9817,16.9817,13.0183,13.0183,0.792668,1.74679,0.457139,-0.139654,-0.0143284,0.136835,0,0,3.325,0.175,-1.4,-0.149938,-0.015982,-0.876326,-0.06678,0.11858,0.46578
-1.98051,0,0,16.9805,16.9805,13.0195,13.0195,0.792206,1.74784,0.456856,0.0189877,0.328962,-0.0691042,1,0,3.185,0.6825,-1.19,0.009394,0.32696,-1.08068,-0.06678,0.11858,0.46578
-1.97442,0,0,16.9744,16.9744,13.0256,13.0256,0.789769,1.75032,0.457343,0.0189445,0.328919,-0.0691049,1,0,2.065,1.5225,-0.7525,0.009394,0.32696,-1.08068,-0.06678,0.11858,0.46578
-1.96613,0,0,16.9661,16.9661,13.0339,13.0339,0.786452,1.75169,0.457635,0.206009,-0.0663408,0.650882,1,0,1.575,0.875,-0.8575,0.197274,-0.067832,-0.366244,-0.06678,0.11858,0.46578
-1.96065,0,0,16.9606,16.9606,13.0394,13.0394,0.78426,1.75151,0.457965,0.318143,0.0824935,-0.395778,1,0,2.205,-0.035,-0.8225,0.30988,0.080886,-1.40483,-0.06678,0.11858,0.46578
-1.96377,0,0,16.9638,16.9638,13.0362,13.0362,0.785508,1.75165,0.458509,0.31814,0.0825153,-0.395779,1,0,4.13,0.1575,-0.7,0.30988,0.080886,-1.40483,-0.06678,0.11858,0.46578
-2.58084,0,0,17.5808,17.5808,12.4192,12.4192,1.03233,1.28599,0.908106,-0.390744,-0.223866,0.0569417,0,0,4.8125,0.0175,-0.4025,-0.410164,-0.229482,-0.955748,-0.06678,0.11858,0.46578
-3.18604,0,0,18.186,18.186,11.814,11.814,1.27442,0.826936,1.3425,-0.382733,-0.219639,0.0570044,0,0,4.8125,0.0175,-0.4025,-0.410164,-0.229482,-0.955748,-0.06594,0.12516,0.45934
-3.9185,0,0,18.9185,18.9185,11.0815,11.0815,1.5674,0.839949,1.36174,0.0060371,-0.278278,-0.0413615,0,0,4.27,-0.3325,0.525,-0.01952,-0.293166,-1.05323,-0.06594,0.12516,0.45934
-4.63701,0,0,19.637,19.637,10.363,10.363,1.8548,0.852476,1.38088,0.00581848,-0.273265,-0.0415145,0,0,4.27,-0.3325,0.525,-0.01952,-0.293166,-1.05323,-0.06594,0.12516,0.45934
-4.1641,0,0,19.1641,19.1641,10.8359,10.8359,1.66564,0.771542,1.48402,-0.0560631,0.141232,0.182127,0,0,2.73,3.8325,0.8225,-0.083082,0.124196,-0.83143,-0.06594,0.12516,0.45934
-4.16183,0,0,19.1618,19.1618,10.8382,10.8382,1.66473,0.773032,1.4873,0.589364,0.119233,0.645643,1,0,2.905,0.9975,0.875,0.565104,0.102236,-0.37149,-0.06594,0.12516,0.45934
-4.16474,0,0,19.1647,19.1647,10.8353,10.8353,1.66589,0.773337,1.48924,0.589359,0.119253,0.645643,1,0,4.0775,0.28,0.105,0.565104,0.102236,-0.37149,-0.06594,0.12516,0.45934
-4.16437,0,0,19.1644,19.1644,10.8356,10.8356,1.66575,0.774654,1.49132,0.841419,0.0344947,-0.138769,1,0,3.3425,0.875,0.175,0.818254,0.017568,-1.14985,-0.06594,0.12516,0.45934
-4.18656,0,0,19.1866,19.1866,10.8134,10.8134,1.67462,0.774392,1.4932,0.841423,0.0346495,-0.138774,1,0,8.4,-0.0525,0.0875,0.818254,0.017568,-1.14985,-0.06594,0.12516,0.45934
-4.19692,0,0,19.1969,19.1969,10.8031,10.8031,1.67877,0.774609,1.49405,-0.649939,-0.593254,-0.801345,1,0,5.7575,0.21,-0.525,-0.679418,-0.609756,-1.80731,-0.06664,0.13048,0.47418
-4.19379,0,0,19.1938,19.1938,10.8062,10.8062,1.67752,0.774162,1.49509,-0.649931,-0.593276,-0.801344,1,0,2.73,-0.175,-0.4025,-0.679418,-0.609756,-1.80731,-0.06664,0.13048,0.47418
-4.18502,0,0,19.185,19.185,10.815,10.815,1.67401,0.773387,1.49306,0.193072,0.992112,-0.635239,1,0,1.4875,-0.42,-2.1875,0.16714,0.974048,-1.64249,-0.06664,0.13048,0.47418
-4.1766,0,0,19.1766,19.1766,10.8234,10.8234,1.67064,0.776104,1.49221,-0.145192,-0.407397,0.63273,1,0,1.5575,1.645,-1.5575,-0.172508,-0.42395,-0.3843,-0.06664,0.13048,0.47418
-4.16773,0,0,19.1677,19.1677,10.8323,10.8323,1.66709,0.776301,1.48964,-0.145195,-0.407459,0.632732,1,0,1.47,0.14,-2.52,-0.172508,-0.42395,-0.3843,-0.06664,0.13048,0.47418
-4.16829,0,0,19.1683,19.1683,10.8317,10.8317,1.66731,0.77926,1.48664,-0.247295,-0.2068,-0.146394,1,0,3.5875,1.75,-2.8175,-0.274988,-0.223504,-1.15741,-0.06664,0.13048,0.47418
-4.17283,0,0,19.1728,19.1728,10.8272,10.8272,1.66913,0.781229,1.48373,-0.247329,-0.206769,-0.146395,1,0,4.48,1.1725,-2.7475,-0.274988,-0.223504,-1.15741,-0.06664,0.13048,0.47418
-4.17526,0,0,19.1753,19.1753,10.8247,10.8247,1.6701,0.782599,1.48092,0.418753,0.424277,-0.230616,1,0,4.0075,0.8225,-2.6775,0.393938,0.40687,-1.24098,-0.06664,0.13048,0.47418
-4.18055,0,0,19.1805,19.1805,10.8195,10.8195,1.67222,0.782235,1.47707,0.418759,0.424314,-0.230617,1,0,4.655,-0.21,-3.255,0.393938,0.40687,-1.24098,-0.06692,0.13328,0.47628
-4.186,0,0,19.186,19.186,10.814,10.814,1.6744,0.781692,1.47325,-0.00667411,-0.0706277,-0.106317,1,0,4.69,-0.315,-3.2375,-0.033306,-0.087596,-1.11764,-0.06692,0.13328,0.47628
-4.1838,0,0,19.1838,19.1838,10.8162,10.8162,1.67352,0.781414,1.46955,-0.00666926,-0.0706431,-0.106316,1,0,2.975,-0.1575,-3.1675,-0.033306,-0.087596,-1.11764,-0.06692,0.13328,0.47628
-3.99907,0,0,18.9991,18.9991,11.0009,11.0009,1.59963,0.500499,1.72636,-0.236841,0.0675382,-0.0510207,0,0,3.5175,-0.7875,-3.605,-0.269376,0.051728,-1.06286,-0.06692,0.13328,0.47628
-3.81701,0,0,18.817,18.817,11.183,11.183,1.5268,0.22438,1.98419,-0.232022,0.0662685,-0.0509556,0,0,3.36,-1.4525,-3.0275,-0.269376,0.051728,-1.06286,-0.06692,0.13328,0.47628
-3.53596,0,0,18.536,18.536,11.464,11.464,1.41438,0.219164,2.0077,-0.000865578,0.106197,-0.0891419,0,0,3.4475,-0.6475,-2.6425,-0.037332,0.093574,-1.10081,-0.06692,0.13328,0.47628
-3.25628,0,0,18.2563,18.2563,11.7437,11.7437,1.30251,0.214495,2.03208,-0.000784099,0.104245,-0.0890953,0,0,2.52,-0.4025,-2.1525,-0.037332,0.093574,-1.10081,-0.06692,0.13328,0.47628
-3.40176,0,0,18.4018,18.4018,11.5982,11.5982,1.3607,0.875156,1.45679,0.546884,-0.0541181,0.125317,0,0,2.0475,0.315,-1.8725,0.524234,-0.065636,-0.887916,-0.06692,0.13328,0.47628
-3.54309,0,0,18.5431,18.5431,11.4569,11.4569,1.41724,1.52376,0.870652,0.535567,-0.0531377,0.125056,0,0,2.0475,0.8925,-0.98,0.524234,-0.065636,-0.887916,-0.06748,0.14378,0.48412
-3.65621,0,0,18.6562,18.6562,11.3438,11.3438,1.46248,1.36862,0.992207,-0.130262,-0.04392,-0.0606709,0,0,3.885,0.42,-0.7875,-0.147132,-0.057218,-1.07226,-0.06748,0.14378,0.48412
-3.77414,0,0,18.7741,18.7741,11.2259,11.2259,1.50966,1.2149,1.11437,-0.12758,-0.0430956,-0.0606317,0,0,5.46,-0.7,-0.0875,-0.147132,-0.057218,-1.07226,-0.06748,0.14378,0.48412
-3.78661,0,0,18.7866,18.7866,11.2134,11.2134,1.51465,1.21366,1.11641,-0.140922,0.0586009,-0.119403,1,0,6.2125,-0.63,0.1925,-0.160552,0.044286,-1.13057,-0.06748,0.14378,0.48412
-3.78974,0,0,18.7897,18.7897,11.2103,11.2103,1.5159,1.21231,1.11875,-0.140898,0.0586227,-0.119403,1,0,4.1125,-0.6825,0.3675,-0.160552,0.044286,-1.13057,-0.06748,0.14378,0.48412
-3.7889,0,0,18.7889,18.7889,11.2111,11.2111,1.51556,1.21129,1.12134,0.0172939,0.155097,-0.12973,1,0,3.22,-0.49,0.5075,-0.001708,0.140666,-1.14082,-0.06748,0.14378,0.48412
-3.7862,0,0,18.7862,18.7862,11.2138,11.2138,1.51448,1.21226,1.12421,0.0172769,0.155078,-0.12973,1,0,2.8,0.6825,0.6475,-0.001708,0.140666,-1.14082,-0.06748,0.14378,0.48412
-3.18603,0,0,18.186,18.186,11.814,11.814,1.27441,1.32587,1.01622,0.0941388,0.225875,-0.0418868,0,0,2.94,1.19,0.8225,0.07747,0.215574,-1.05371,-0.06748,0.14378,0.48412
-2.59816,0,0,17.5982,17.5982,12.4018,12.4018,1.03926,1.4383,0.902035,0.0921771,0.221772,-0.0418513,0,0,3.1325,0.805,0.595,0.07747,0.215574,-1.05371,-0.07196,0.14742,0.47782
-2.87126,0,0,17.8713,17.8713,12.1287,12.1287,1.1485,1.44241,0.879108,0.00548613,-0.100813,-0.0366027,0,0,4.0775,0.4725,0.56,-0.009516,-0.10858,-1.04847,-0.07196,0.14742,0.47782
-3.14177,0,0,18.1418,18.1418,11.8582,11.8582,1.25671,1.44727,0.855931,0.00540132,-0.0989255,-0.0366444,0,0,4.69,0.945,0.3675,-0.009516,-0.10858,-1.04847,-0.07196,0.14742,0.47782
-3.15082,0,0,18.1508,18.1508,11.8492,11.8492,1.26033,1.44828,0.857876,0.124926,0.0673521,-0.0995959,1,0,5.4425,0.6825,0.105,0.110532,0.057462,-1.11093,-0.07196,0.14742,0.47782
-3.15987,0,0,18.1599,18.1599,11.8401,11.8401,1.26395,1.44928,0.859821,0.124908,0.0674153,-0.0995977,1,0,5.4425,0.6825,0.105,0.110532,0.057462,-1.11093,-0.07196,0.14742,0.47782
-2.89279,0,0,17.8928,17.8928,12.1072,12.1072,1.15711,1.40983,0.87294,-0.032335,0.0980378,-0.0181493,0,0,4.34,-0.6125,-0.8225,-0.048068,0.089914,-1.03017,-0.07196,0.14742,0.47782
-2.63086,0,0,17.6309,17.6309,12.3691,12.3691,1.05235,1.37118,0.886182,-0.0316606,0.0962104,-0.0180977,0,0,4.34,-0.6125,-0.8225,-0.048068,0.089914,-1.03017,-0.07196,0.14742,0.47782
-2.63391,0,0,17.6339,17.6339,12.3661,12.3661,1.05356,1.37144,0.885649,-0.0285063,-0.0392069,0.218824,1,0,4.13,0.21,-1.33,-0.044896,-0.045384,-0.795074,-0.07196,0.14742,0.47782
-2.63696,0,0,17.637,17.637,12.363,12.363,1.05478,1.37169,0.885116,-0.0285107,-0.0391856,0.218823,1,0,4.13,0.21,-1.33,-0.044896,-0.045384,-0.795074,-0.06832,0.15806,0.49
-2.63461,0,0,17.6346,17.6346,12.3654,12.3654,1.05384,1.37286,0.8831,-0.0556225,0.271122,-0.0943269,1,0,2.94,0.735,-2.205,-0.072102,0.264618,-1.10581,-0.06832,0.15806,0.49
-2.63226,0,0,17.6323,17.6323,12.3677,12.3677,1.0529,1.37404,0.881084,-0.055643,0.271106,-0.0943271,1,0,2.94,0.735,-2.205,-0.072102,0.264618,-1.10581,-0.06832,0.15806,0.49
-3.31398,0,0,18.314,18.314,11.686,11.686,1.32559,1.41459,0.80068,0.0444825,-0.268701,-0.0584192,0,0,3.535,0.7,-2.415,0.029158,-0.27938,-1.07006,-0.06832,0.15806,0.49
-3.98295,0,0,18.983,18.983,11.017,11.017,1.59318,1.45447,0.720917,0.0437868,-0.264034,-0.0585555,0,0,3.535,0.7,-2.415,0.029158,-0.27938,-1.07006,-0.06832,0.15806,0.49
-3.99364,0,0,18.9936,18.9936,11.0064,11.0064,1.59745,1.44688,0.717767,-0.0425786,-0.00932527,-0.172527,1,0,5.88,-4.4275,-2.73,-0.057706,-0.02501,-1.18316,-0.06832,0.15806,0.49
-4.00432,0,0,19.0043,19.0043,10.9957,10.9957,1.60173,1.43929,0.714616,-0.0424462,-0.00925064,-0.172526,1,0,5.88,-4.4275,-2.73,-0.057706,-0.02501,-1.18316,-0.06832,0.15806,0.49
-3.86241,0,0,18.8624,18.8624,11.1376,11.1376,1.54497,1.83185,0.324949,0.334478,0.0553361,-0.000320712,0,0,4.69,-0.9625,-2.1525,0.327692,0.040504,-1.01211,-0.06832,0.15806,0.49
-3.72234,0,0,18.7223,18.7223,11.2777,11.2777,1.48894,2.21569,-0.0677067,0.327783,0.0543529,-0.000531336,0,0,4.69,-0.9625,-2.1525,0.327692,0.040504,-1.01211,-0.06762,0.1603,0.5005
-3.26967,0,0,18.2697,18.2697,11.7303,11.7303,1.30787,2.26923,-0.171904,0.0320038,0.15427,0.0597539,0,0,2.94,-0.4025,-1.995,0.031598,0.143472,-0.952332,-0.06762,0.1603,0.5005
-2.82554,0,0,17.8255,17.8255,12.1745,12.1745,1.13021,2.32147,-0.276256,0.0310928,0.151172,0.0597833,0,0,2.94,-0.4025,-1.995,0.031598,0.143472,-0.952332,-0.06762,0.1603,0.5005
-2.17486,0,0,17.1749,17.1749,12.8251,12.8251,0.869942,2.25083,-0.267859,-0.0666862,0.213926,0.110198,0,0,3.64,-0.105,-1.1725,-0.067832,0.210694,-0.902434,-0.06762,0.1603,0.5005
-2.78136,0,0,17.7814,17.7814,12.2186,12.2186,1.11255,2.58074,-0.616735,0.304167,-0.23677,-0.00777989,0,0,4.795,0.805,-1.295,0.310368,-0.243756,-1.01919,-0.06762,0.1603,0.5005
-3.3782,0,0,18.3782,18.3782,11.6218,11.6218,1.35128,2.90377,-0.960803,0.298535,-0.232615,-0.00813904,0,0,5.04,0.595,-0.525,0.310368,-0.243756,-1.01919,-0.06762,0.1603,0.5005
-3.38929,0,0,18.3893,18.3893,11.6107,11.6107,1.35572,2.90431,-0.959736,-0.146598,0.324727,-0.301005,1,0,5.8975,0.4025,-0.4025,-0.13664,0.31293,-1.30979,-0.06762,0.1603,0.5005
-3.39658,0,0,18.3966,18.3966,11.6034,11.6034,1.35863,2.90324,-0.958557,-0.146579,0.324777,-0.301005,1,0,5.04,-0.5425,-0.315,-0.13664,0.31293,-1.30979,-0.06762,0.1603,0.5005
-3.4007,0,0,18.4007,18.4007,11.5993,11.5993,1.36028,2.9022,-0.957138,0.327355,0.109252,-0.092607,1,0,4.3225,-0.525,-0.175,0.339282,0.0976,-1.103,-0.06846,0.1673,0.50302
-2.85625,0,0,17.8562,17.8562,12.1438,12.1438,1.1425,2.55841,-0.721183,-0.273594,0.181792,0.119971,0,0,3.2025,-0.315,-0.385,-0.27023,0.17385,-0.89243,-0.06846,0.1673,0.50302
-2.32143,0,0,17.3214,17.3214,12.6786,12.6786,0.928574,2.22216,-0.48343,-0.267731,0.178067,0.120283,0,0,3.1325,0.28,-0.4725,-0.27023,0.17385,-0.89243,-0.06846,0.1673,0.50302
-2.42432,0,0,17.4243,17.4243,12.5757,12.5757,0.969727,2.36498,-0.675908,0.109786,-0.0354276,0.0604183,0,0,2.7475,0.315,-0.42,0.111386,-0.040138,-0.951722,-0.06846,0.1673,0.50302
-2.52553,0,0,17.5255,17.5255,12.4745,12.4745,1.01021,2.50465,-0.868125,0.10735,-0.0347235,0.0603026,0,0,2.835,0.21,-0.6475,0.111386,-0.040138,-0.951722,-0.06846,0.1673,0.50302
-2.42803,0,0,17.428,17.428,12.572,12.572,0.971212,2.89754,-1.28765,0.306905,0.0338369,0.086917,0,0,3.36,0.07,-0.77,0.318664,0.029036,-0.925004,-0.06846,0.1673,0.50302
-2.33684,0,0,17.3368,17.3368,12.6632,12.6632,0.934734,3.28183,-1.70668,0.300207,0.0331952,0.0865661,0,0,4.515,-0.2975,-0.7175,0.318664,0.029036,-0.925004,-0.06846,0.1673,0.50302
-2.73391,0,0,17.7339,17.7339,12.2661,12.2661,1.09356,2.9436,-1.47943,-0.284319,-0.151008,-0.043119,0,0,5.3025,-0.035,-0.77,-0.274256,-0.157746,-1.05396,-0.06846,0.1673,0.50302
-3.12607,0,0,18.1261,18.1261,11.8739,11.8739,1.25043,2.61319,-1.25455,-0.278559,-0.148268,-0.0428954,0,0,6.02,-0.28,-0.9275,-0.274256,-0.157746,-1.05396,-0.06622,0.16702,0.50512
-3.13785,0,0,18.1379,18.1379,11.8621,11.8621,1.25514,2.61275,-1.25486,0.33811,-0.0729556,-0.0420362,1,0,6.09,-0.1925,-1.19,0.345016,-0.082594,-1.0531,-0.06622,0.16702,0.50512
-3.14082,0,0,18.1408,18.1408,11.8592,11.8592,1.25633,2.61223,-1.25583,0.338119,-0.0729349,-0.0420363,1,0,4.13,-0.245,-1.575,0.345016,-0.082594,-1.0531,-0.06622,0.16702,0.50512
-3.13858,0,0,18.1386,18.1386,11.8614,11.8614,1.25543,2.61318,-1.25662,0.099505,-0.0303283,-0.0942898,1,0,2.9575,0.6125,-1.4875,0.105408,-0.040016,-1.10495,-0.06622,0.16702,0.50512
-3.13661,0,0,18.1366,18.1366,11.8634,11.8634,1.25464,2.61312,-1.25782,0.0995061,-0.0303421,-0.0942895,1,0,3.0275,0.0175,-1.715,0.105408,-0.040016,-1.10495,-0.06622,0.16702,0.50512
-3.1352,0,0,18.1352,18.1352,11.8648,11.8648,1.25408,2.61443,-1.25887,-0.038889,0.00420994,-0.180108,1,0,3.15,0.8225,-1.645,-0.03355,-0.00549,-1.19011,-0.06622,0.16702,0.50512
-3.13699,0,0,18.137,18.137,11.863,11.863,1.25479,2.61575,-1.25923,-0.0389121,0.0042224,-0.18011,1,0,3.85,0.84,-1.2425,-0.03355,-0.00549,-1.19011,-0.06622,0.16702,0.50512
-3.86625,0,0,18.8662,18.8662,11.1338,11.1338,1.5465,2.79273,-1.48272,0.161005,-0.265116,0.0436325,0,0,4.7775,0.49,-1.435,0.170312,-0.279624,-0.967826,-0.06622,0.16702,0.50512
-4.58388,0,0,19.5839,19.5839,10.4161,10.4161,1.83355,2.96561,-1.7032,0.157992,-0.260119,0.0433334,0,0,5.0925,0.035,-1.0325,0.170312,-0.279624,-0.967826,-0.06622,0.16702,0.50512
-4.59093,0,0,19.5909,19.5909,10.4091,10.4091,1.83637,2.96547,-1.70326,-0.145113,0.363265,0.219763,1,0,5.0225,-0.0175,-1.05,-0.134078,0.343064,-0.792756,-0.06552,0.16086,0.50022
-4.39855,0,0,19.3986,19.3986,10.6014,10.6014,1.75942,3.30393,-2.07235,0.249649,0.0672228,0.106861,0,0,3.7275,-0.525,-1.2775,0.268278,0.048678,-0.904508,-0.06552,0.16086,0.50022
-4.20697,0,0,19.207,19.207,10.793,10.793,1.68279,3.63526,-2.44161,0.243876,0.0658778,0.106552,0,0,3.255,-0.595,-1.3825,0.268278,0.048678,-0.904508,-0.06552,0.16086,0.50022
-4.20608,0,0,19.2061,19.2061,10.7939,10.7939,1.68243,3.6345,-2.44205,-0.093233,0.201799,0.124995,1,0,3.255,-0.385,-1.26,-0.070272,0.184464,-0.886208,-0.06552,0.16086,0.50022
-4.20956,0,0,19.2096,19.2096,10.7904,10.7904,1.68383,3.63474,-2.44294,-0.0932372,0.201823,0.124994,1,0,4.2525,0.1925,-1.54,-0.070272,0.184464,-0.886208,-0.06552,0.16086,0.50022
-4.21782,0,0,19.2178,19.2178,10.7822,10.7822,1.68713,3.63526,-2.44322,-0.0300737,0.162922,0.15118,1,0,5.3025,0.3675,-1.19,-0.006832,0.145546,-0.860222,-0.06552,0.16086,0.50022
-4.22676,0,0,19.2268,19.2268,10.7732,10.7732,1.6907,3.63602,-2.44368,-0.0300869,0.162984,0.151177,1,0,5.46,0.5075,-1.295,-0.006832,0.145546,-0.860222,-0.06552,0.16086,0.50022
-3.31834,0,0,18.3183,18.3183,11.6817,11.6817,1.32734,4.08878,-2.91912,0.317374,0.31541,0.181918,0,0,5.5825,0.1225,-1.33,0.350018,0.304146,-0.829356,-0.07308,0.1519,0.4949
-3.32265,0,0,18.3227,18.3227,11.6773,11.6773,1.32906,4.08872,-2.92008,-0.140382,-0.145589,-0.198977,1,0,4.445,0.0175,-1.575,-0.109678,-0.156404,-1.20731,-0.07308,0.1519,0.4949
-3.32449,0,0,18.3245,18.3245,11.6755,11.6755,1.3298,4.08758,-2.92134,-0.140363,-0.145576,-0.198976,1,0,3.9025,-0.6125,-1.7325,-0.109678,-0.156404,-1.20731,-0.07308,0.1519,0.4949
-2.69246,0,0,17.6925,17.6925,12.3075,12.3075,1.07699,3.61803,-2.58269,-0.414519,0.239252,0.0446129,0,0,3.7275,-1.015,-1.89,-0.393206,0.23241,-0.96624,-0.07308,0.1519,0.4949
-2.07147,0,0,17.0715,17.0715,12.9285,12.9285,0.828586,3.15771,-2.24064,-0.406499,0.234933,0.0451596,0,0,3.745,-0.5075,-1.8725,-0.393206,0.23241,-0.96624,-0.07308,0.1519,0.4949
-2.37054,0,0,17.3705,17.3705,12.6295,12.6295,0.948217,3.14468,-2.27981,-0.0075556,-0.097976,0.0787047,0,0,4.06,-1.2075,-1.47,0.007198,-0.102236,-0.932934,-0.07308,0.1519,0.4949
-2.6622,0,0,17.6622,17.6622,12.3378,12.3378,1.06488,3.13393,-2.31892,-0.00736828,-0.095943,0.0786793,0,0,3.675,-0.105,-1.47,0.007198,-0.102236,-0.932934,-0.07308,0.1519,0.4949
-2.66545,0,0,17.6654,17.6654,12.3346,12.3346,1.06618,3.1346,-2.31938,0.0972193,-0.173593,-0.186768,1,0,4.1825,0.455,-1.295,0.11224,-0.179828,-1.19633,-0.07308,0.1519,0.4949
-2.6687,0,0,17.6687,17.6687,12.3313,12.3313,1.06748,3.13526,-2.31985,0.0972076,-0.17357,-0.186769,1,0,4.1825,0.455,-1.295,0.11224,-0.179828,-1.19633,-0.06846,0.14994,0.49364
-2.67329,0,0,17.6733,17.6733,12.3267,12.3267,1.06932,3.13713,-2.3202,-0.248209,-0.352454,-0.135501,1,0,4.48,1.155,-1.2425,-0.234606,-0.358558,-1.14546,-0.06846,0.14994,0.49364
-2.67788,0,0,17.6779,17.6779,12.3221,12.3221,1.07115,3.13899,-2.32055,-0.248241,-0.352422,-0.135504,1,0,4.48,1.155,-1.2425,-0.234606,-0.358558,-1.14546,-0.06846,0.14994,0.49364
-2.89739,0,0,17.8974,17.8974,12.1026,12.1026,1.15896,2.55859,-1.83802,-0.465302,-0.0720667,0.133981,0,0,4.9,1.155,-0.77,-0.462746,-0.080032,-0.878522,-0.06846,0.14994,0.49364
-3.11186,0,0,18.1119,18.1119,11.8881,11.8881,1.24474,1.98897,-1.35794,-0.455368,-0.0705627,0.134344,0,0,4.9,1.155,-0.77,-0.462746,-0.080032,-0.878522,-0.06846,0.14994,0.49364
-3.69749,0,0,18.6975,18.6975,11.3025,11.3025,1.47899,1.97656,-1.37066,-0.00103816,-0.234402,-0.0691024,0,0,4.13,-0.455,-0.595,-0.00671,-0.247782,-1.08031,-0.06846,0.14994,0.49364
-4.27223,0,0,19.2722,19.2722,10.7278,10.7278,1.70889,1.96454,-1.38348,-0.000828536,-0.230393,-0.0692068,0,0,4.13,-0.455,-0.595,-0.00671,-0.247782,-1.08031,-0.06846,0.14994,0.49364
-4.2701,0,0,19.2701,19.2701,10.7299,10.7299,1.70804,1.96481,-1.38233,0.329608,0.222194,-0.27576,1,0,2.94,0.245,-0.35,0.32513,0.20435,-1.28527,-0.06846,0.14994,0.49364
-4.26797,0,0,19.268,19.268,10.732,10.732,1.70719,1.96507,-1.38118,0.329603,0.222179,-0.27576,1,0,2.94,0.245,-0.35,0.32513,0.20435,-1.28527,-0.06986,0.1547,0.49406
-4.39413,0,0,19.3941,19.3941,10.6059,10.6059,1.75765,2.1493,-1.5791,0.152423,-0.0463565,0.00909295,0,0,3.6925,0.2275,-0.21,0.150426,-0.064782,-1.00247,-0.06986,0.1547,0.49406
-4.51785,0,0,19.5179,19.5179,10.4821,10.4821,1.80714,2.32968,-1.77623,0.149277,-0.0454976,0.00894314,0,0,3.6925,0.2275,-0.21,0.150426,-0.064782,-1.00247,-0.06986,0.1547,0.49406
-4.52625,0,0,19.5262,19.5262,10.4738,10.4738,1.8105,2.33002,-1.77462,-0.231951,-0.0854967,-0.210399,1,0,5.285,0.2975,-0.0875,-0.23241,-0.104798,-1.22012,-0.06986,0.1547,0.49406
-4.53464,0,0,19.5346,19.5346,10.4654,10.4654,1.81386,2.33036,-1.77302,-0.231957,-0.0854382,-0.210401,1,0,5.285,0.2975,-0.0875,-0.23241,-0.104798,-1.22012,-0.06986,0.1547,0.49406
-4.98421,0,0,19.9842,19.9842,10.0158,10.0158,1.99368,2.01837,-1.53352,-0.233441,-0.146291,0.103589,0,0,5.215,-0.5425,-0.4375,-0.239364,-0.168726,-0.908656,-0.06986,0.1547,0.49406
-4.53643,0,0,19.5364,19.5364,10.4636,10.4636,1.81457,2.37928,-1.89478,0.301241,0.172138,0.0168952,0,0,4.8475,-0.1925,-1.0325,0.303902,0.1525,-0.994544,-0.06986,0.1547,0.49406
-4.0904,0,0,19.0904,19.0904,10.9096,10.9096,1.63616,2.73121,-2.25753,0.295105,0.169021,0.0167151,0,0,3.6225,-1.19,-1.1025,0.303902,0.1525,-0.994544,-0.06986,0.1547,0.49406
-3.66306,0,0,18.6631,18.6631,11.3369,11.3369,1.46523,2.83392,-2.40686,0.0785272,0.159079,0.000602484,0,0,4.4975,-0.5775,-1.19,0.088206,0.145546,-1.01053,-0.06986,0.1547,0.49406
-3.24456,0,0,18.2446,18.2446,11.7554,11.7554,1.29783,2.93333,-2.55217,0.0767944,0.156159,0.000585579,0,0,4.7075,-0.49,-1.855,0.088206,0.145546,-1.01053,-0.06832,0.15106,0.50204
-3.25064,0,0,18.2506,18.2506,11.7494,11.7494,1.30025,2.93356,-2.55315,-0.0768891,-0.017829,0.125377,1,0,4.83,0.1925,-1.5925,-0.066124,-0.028304,-0.886696,-0.06832,0.15106,0.50204
-3.26095,0,0,18.261,18.261,11.739,11.739,1.30438,2.9336,-2.55453,-0.0768897,-0.0177571,0.125375,1,0,5.7925,0.07,-1.82,-0.066124,-0.028304,-0.886696,-0.06832,0.15106,0.50204
-3.26853,0,0,18.2685,18.2685,11.7315,11.7315,1.30741,2.93408,-2.55596,0.0205334,-0.121512,0.152668,1,0,5.18,0.3325,-1.855,0.03172,-0.132004,-0.859612,-0.06832,0.15106,0.50204
-3.27875,0,0,18.2787,18.2787,11.7213,11.7213,1.3115,2.93433,-2.55748,0.0205291,-0.121441,0.152667,1,0,5.775,0.1925,-1.9075,0.03172,-0.132004,-0.859612,-0.06832,0.15106,0.50204
-3.55401,0,0,18.554,18.554,11.446,11.446,1.4216,3.06443,-2.71736,0.116422,-0.101084,-0.0142162,0,0,5.6875,0.035,-1.9425,0.130296,-0.113582,-1.02504,-0.06832,0.15106,0.50204
-3.82175,0,0,18.8218,18.8218,11.1782,11.1782,1.5287,3.19177,-2.87557,0.114203,-0.0992213,-0.0143854,0,0,5.1275,-0.035,-1.4525,0.130296,-0.113582,-1.02504,-0.06832,0.15106,0.50204
-2.3876,0,0,17.3876,17.3876,12.6124,12.6124,0.955038,3.21177,-2.97247,-0.0141916,0.569198,0.0712609,0,0,4.6375,-0.21,-1.7675,0.001708,0.564128,-0.940254,-0.06832,0.15106,0.50204
-0.976254,0,0,15.9763,15.9763,14.0237,14.0237,0.390501,3.22597,-3.06137,-0.0144391,0.559361,0.0713625,0,0,4.41,-0.07,-1.89,0.001708,0.564128,-0.940254,-0.07364,0.14546,0.49756
-0.98122,0,0,15.9812,15.9812,14.0188,14.0188,0.392488,3.22562,-3.06182,0.27689,-0.0931275,0.190254,1,0,4.5675,-0.14,-1.2775,0.294264,-0.087718,-0.82228,-0.07364,0.14546,0.49756
-0.988851,0,0,15.9889,15.9889,14.0111,14.0111,0.395541,3.22506,-3.06218,0.276899,-0.0930743,0.190254,1,0,5.1625,-0.2625,-1.225,0.294264,-0.087718,-0.82228,-0.07364,0.14546,0.49756
-0.997233,0,0,15.9972,15.9972,14.0028,14.0028,0.398893,3.2253,-3.06221,0.114347,0.149406,0.274473,1,0,5.32,0.21,-1.0325,0.131028,0.154452,-0.73871,-0.07364,0.14546,0.49756
-1.00759,0,0,16.0076,16.0076,13.9924,13.9924,0.403035,3.22601,-3.06151,0.114335,0.149478,0.274472,1,0,5.74,0.49,-0.6125,0.131028,0.154452,-0.73871,-0.07364,0.14546,0.49756
-1.94428,0,0,16.9443,16.9443,13.0557,13.0557,0.777712,3.01533,-2.88404,-0.155215,-0.303309,0.159648,0,0,5.495,1.2075,-0.4025,-0.14335,-0.30439,-0.85278,-0.07364,0.14546,0.49756
-2.86223,0,0,17.8622,17.8622,12.1378,12.1378,1.14489,2.8081,-2.71026,-0.151603,-0.296907,0.159724,0,0,5.145,0.63,-0.6825,-0.14335,-0.30439,-0.85278,-0.07364,0.14546,0.49756
-2.86519,0,0,17.8652,17.8652,12.1348,12.1348,1.14608,2.8102,-2.70925,-0.588016,-0.362346,-0.103019,1,0,4.0775,1.3125,-0.455,-0.581574,-0.369782,-1.11349,-0.07364,0.14546,0.49756
-2.87371,0,0,17.8737,17.8737,12.1263,12.1263,1.14949,2.80953,-2.70815,-0.588004,-0.362287,-0.10302,1,0,5.32,-0.315,-0.3675,-0.581574,-0.369782,-1.11349,-0.0672,0.13734,0.48622
-2.88108,0,0,17.8811,17.8811,12.1189,12.1189,1.15243,2.80898,-2.70759,-0.233499,-0.244139,-0.353097,1,0,5.075,-0.245,-0.6825,-0.225578,-0.251808,-1.36164,-0.0672,0.13734,0.48622
-2.88844,0,0,17.8884,17.8884,12.1116,12.1116,1.15537,2.80843,-2.70703,-0.23349,-0.244088,-0.353098,1,0,5.075,-0.245,-0.6825,-0.225578,-0.251808,-1.36164,-0.0672,0.13734,0.48622
-2.90263,0,0,17.9026,17.9026,12.0974,12.0974,1.16105,2.80803,-2.7061,0.19354,-0.144455,-0.0746212,1,0,6.5975,-0.1575,-0.4725,0.203252,-0.152378,-1.08531,-0.0672,0.13734,0.48622
-2.91683,0,0,17.9168,17.9168,12.0832,12.0832,1.16673,2.80762,-2.70518,0.193547,-0.144356,-0.0746229,1,0,6.5975,-0.1575,-0.4725,0.203252,-0.152378,-1.08531,-0.0672,0.13734,0.48622
-3.56455,0,0,18.5645,18.5645,11.4355,11.4355,1.42582,2.6349,-2.55443,-0.133883,-0.218854,0.0910297,0,0,5.215,0.14,-0.4725,-0.128588,-0.231312,-0.920978,-0.0672,0.13734,0.48622
-4.20021,0,0,19.2002,19.2002,10.7998,10.7998,1.68008,2.46578,-2.40562,-0.130934,-0.214418,0.0910408,0,0,5.215,0.14,-0.4725,-0.128588,-0.231312,-0.920978,-0.0672,0.13734,0.48622
-4.20455,0,0,19.2046,19.2046,10.7954,10.7954,1.68182,2.46575,-2.40475,0.174117,0.0711443,-0.194692,1,0,4.3925,0.07,-0.5075,0.177754,0.053924,-1.20451,-0.0672,0.13734,0.48622
-4.20889,0,0,19.2089,19.2089,10.7911,10.7911,1.68356,2.46573,-2.40388,0.174117,0.0711746,-0.194693,1,0,4.3925,0.07,-0.5075,0.177754,0.053924,-1.20451,-0.06524,0.13734,0.48328
-4.22113,0,0,19.2211,19.2211,10.7789,10.7789,1.68845,2.46493,-2.40288,0.0702607,0.000304285,0.107881,1,0,6.16,-0.385,-0.42,0.073444,-0.016958,-0.904264,-0.06524,0.13734,0.48328
-4.23337,0,0,19.2334,19.2334,10.7666,10.7666,1.69335,2.46412,-2.40188,0.0702747,0.000389625,0.107879,1,0,6.16,-0.385,-0.42,0.073444,-0.016958,-0.904264,-0.06524,0.13734,0.48328
-4.24616,0,0,19.2462,19.2462,10.7538,10.7538,1.69847,2.46352,-2.4015,-0.247035,0.074854,-0.0817096,1,0,6.3,-0.28,-0.7875,-0.24522,0.05734,-1.09239,-0.06524,0.13734,0.48328
-4.25577,0,0,19.2558,19.2558,10.7442,10.7442,1.70231,2.4633,-2.401,-0.151908,0.00408752,-0.164948,1,0,5.5825,-0.0525,-0.7175,-0.149694,-0.01342,-1.17498,-0.06524,0.13734,0.48328
-4.26563,0,0,19.2656,19.2656,10.7344,10.7344,1.70625,2.46328,-2.40043,-0.151908,0.0041562,-0.16495,1,0,5.635,0.07,-0.6825,-0.149694,-0.01342,-1.17498,-0.06524,0.13734,0.48328
-3.72287,0,0,18.7229,18.7229,11.2771,11.2771,1.48915,2.50293,-2.46762,0.0347316,0.221054,-0.0778264,0,0,5.5825,0.14,-0.6825,0.03843,0.207034,-1.08861,-0.06524,0.13734,0.48328
-3.18963,0,0,18.1896,18.1896,11.8104,11.8104,1.27585,2.5417,-2.53548,0.0340556,0.217336,-0.0777665,0,0,5.495,0.14,-1.015,0.03843,0.207034,-1.08861,-0.06524,0.13734,0.48328
-3.20084,0,0,18.2008,18.2008,11.7992,11.7992,1.28034,2.54269,-2.53537,-0.384844,-0.159225,-0.039655,1,0,5.95,0.6475,-0.9625,-0.382226,-0.169214,-1.05079,-0.07,0.13944,0.48104
-3.20961,0,0,18.2096,18.2096,11.7904,11.7904,1.28384,2.54274,-2.53614,-0.0653377,0.0120576,-0.146622,1,0,5.425,0.0875,-1.47,-0.061366,0.00183,-1.15693,-0.07,0.13944,0.48104
-3.21724,0,0,18.2172,18.2172,11.7828,11.7828,1.2869,2.54159,-2.538,-0.0653176,0.0121109,-0.146622,1,0,5.1975,-0.63,-2.0825,-0.061366,0.00183,-1.15693,-0.07,0.13944,0.48104
-2.91476,0,0,17.9148,17.9148,12.0852,12.0852,1.16591,2.7188,-2.72796,0.161808,0.122966,-0.0704905,0,0,5.3375,-0.105,-1.89,0.169824,0.11468,-1.08129,-0.07,0.13944,0.48104
-2.61917,0,0,17.6192,17.6192,12.3808,12.3808,1.04767,2.89307,-2.91862,0.15877,0.120902,-0.0705996,0,0,5.6875,0.2975,-2.1525,0.169824,0.11468,-1.08129,-0.07,0.13944,0.48104
-2.62543,0,0,17.6254,17.6254,12.3746,12.3746,1.05017,2.89457,-2.9206,-0.0189896,-0.0885013,0.182426,1,0,4.9,0.9275,-2.1875,-0.008662,-0.09455,-0.83021,-0.07,0.13944,0.48104
-2.63269,0,0,17.6327,17.6327,12.3673,12.3673,1.05308,2.89523,-2.92395,-0.0190011,-0.0884507,0.182425,1,0,5.1625,0.42,-2.975,-0.008662,-0.09455,-0.83021,-0.07,0.13944,0.48104
-2.3818,0,0,17.3818,17.3818,12.6182,12.6182,0.952722,2.67589,-2.76506,-0.193154,0.0993441,-0.0352233,0,0,4.76,-0.07,-2.9225,-0.187392,0.094794,-1.04639,-0.07,0.13944,0.48104
-2.13591,0,0,17.1359,17.1359,12.8641,12.8641,0.854363,2.45922,-2.59705,-0.189376,0.097632,-0.0350269,0,0,4.83,-0.6475,-2.6775,-0.187392,0.094794,-1.04639,-0.06972,0.13412,0.4788
-2.14453,0,0,17.1445,17.1445,12.8555,12.8555,0.857811,2.45822,-2.59994,-0.187293,-0.124701,-0.125025,1,0,5.4425,-0.5425,-2.695,-0.185318,-0.127368,-1.1357,-0.06972,0.13412,0.4788
-2.15102,0,0,17.151,17.151,12.849,12.849,0.860408,2.4576,-2.60232,-0.187283,-0.124655,-0.125026,1,0,4.9525,-0.315,-2.3975,-0.185318,-0.127368,-1.1357,-0.06972,0.13412,0.4788
-2.15756,0,0,17.1576,17.1576,12.8424,12.8424,0.863022,2.45691,-2.60428,0.269637,0.0971724,-0.156501,1,0,4.9525,-0.35,-2.1525,0.273524,0.094184,-1.16693,-0.06972,0.13412,0.4788
-2.16175,0,0,17.1617,17.1617,12.8383,12.8383,0.8647,2.45641,-2.6048,0.269646,0.0972016,-0.156501,1,0,4.3925,-0.2275,-1.3125,0.273524,0.094184,-1.16693,-0.06972,0.13412,0.4788
-2.27278,0,0,17.2728,17.2728,12.7272,12.7272,0.90911,2.57952,-2.72475,0.105802,-0.0413722,-0.00415085,0,0,4.0775,0.0175,-1.225,0.111142,-0.045018,-1.01565,-0.06972,0.13412,0.4788
-2.38188,0,0,17.3819,17.3819,12.6181,12.6181,0.952753,2.70008,-2.84298,0.1037,-0.0406129,-0.00426011,0,0,4.0775,0.0175,-0.4725,0.111142,-0.045018,-1.01565,-0.06972,0.13412,0.4788
-2.2387,0,0,17.2387,17.2387,12.7613,12.7613,0.895481,2.68031,-2.84347,-0.0156189,0.0573116,-0.0832837,0,0,3.99,0.35,0.0525,-0.009028,0.053802,-1.0941,-0.06972,0.13412,0.4788
-2.10172,0,0,17.1017,17.1017,12.8983,12.8983,0.840686,2.66059,-2.83644,-0.0152752,0.0563567,-0.0832532,0,0,4.725,0.42,0.9275,-0.009028,0.053802,-1.0941,-0.0742,0.13118,0.47614
-2.1079,0,0,17.1079,17.1079,12.8921,12.8921,0.843162,2.66101,-2.83249,-0.184391,-0.396935,-0.0523941,1,0,4.725,0.35,1.2775,-0.178852,-0.399062,-1.06347,-0.0742,0.13118,0.47614
-2.11409,0,0,17.1141,17.1141,12.8859,12.8859,0.845638,2.66144,-2.82855,-0.184398,-0.396891,-0.0523951,1,0,4.725,0.35,1.2775,-0.178852,-0.399062,-1.06347,-0.0742,0.13118,0.47614
-2.22197,0,0,17.222,17.222,12.778,12.778,0.888789,2.43831,-2.63001,-0.195086,-0.0394044,-0.0465776,0,0,4.97,0.315,1.7675,-0.193492,-0.0427,-1.05786,-0.0742,0.13118,0.47614
-2.32758,0,0,17.3276,17.3276,12.6724,12.6724,0.931032,2.2197,-2.43219,-0.191274,-0.0386653,-0.0464343,0,0,4.97,0.315,1.7675,-0.193492,-0.0427,-1.05786,-0.0742,0.13118,0.47614
-2.23791,0,0,17.2379,17.2379,12.7621,12.7621,0.895162,2.22741,-2.44037,0.00977235,0.0361834,-0.0743388,0,0,4.235,-0.035,1.19,0.00854,0.032696,-1.08556,-0.0742,0.13118,0.47614
-2.1499,0,0,17.1499,17.1499,12.8501,12.8501,0.85996,2.23495,-2.44853,0.00964082,0.0355695,-0.0743345,0,0,4.235,-0.035,1.19,0.00854,0.032696,-1.08556,-0.0742,0.13118,0.47614
-2.22593,0,0,17.2259,17.2259,12.7741,12.7741,0.890374,2.2585,-2.46759,0.0173696,-0.025208,0.047975,0,0,4.06,-0.1225,0.4375,0.016714,-0.028548,-0.964166,-0.0742,0.13118,0.47614
-2.30057,0,0,17.3006,17.3006,12.6994,12.6994,0.92023,2.28143,-2.48988,0.0169697,-0.0246877,0.0479509,0,0,4.06,-0.1225,0.4375,0.016714,-0.028548,-0.964166,-0.07322,0.133,0.48314
-2.30444,0,0,17.3044,17.3044,12.6956,12.6956,0.921776,2.28154,-2.4906,0.0664126,0.0603395,-0.237044,1,0,4.3225,0.1225,-1.435,0.066368,0.056364,-1.24696,-0.07322,0.133,0.48314
-2.30831,0,0,17.3083,17.3083,12.6917,12.6917,0.923322,2.28164,-2.49132,0.0664108,0.0603665,-0.237045,1,0,4.3225,0.1225,-1.435,0.066368,0.056364,-1.24696,-0.07322,0.133,0.48314
-2.31149,0,0,17.3115,17.3115,12.6885,12.6885,0.924598,2.28169,-2.49413,-0.0850827,-0.0719967,0.263109,1,0,4.2175,0.07,-2.66,-0.085766,-0.075884,-0.750666,-0.07322,0.133,0.48314
-2.31468,0,0,17.3147,17.3147,12.6853,12.6853,0.925873,2.28173,-2.49695,-0.0850835,-0.0719744,0.263109,1,0,4.2175,0.07,-2.66,-0.085766,-0.075884,-0.750666,-0.07322,0.133,0.48314
-2.3158,0,0,17.3158,17.3158,12.6842,12.6842,0.926319,2.28147,-2.50101,0.237951,-0.112757,-0.218357,1,0,3.78,-0.1225,-3.3775,0.238632,-0.116632,-1.22842,-0.07322,0.133,0.48314
-2.22631,0,0,17.2263,17.2263,12.7737,12.7737,0.890525,2.07964,-2.33383,-0.170486,0.03415,0.00174151,0,0,3.5525,-0.35,-3.4825,-0.17507,0.030744,-1.01016,-0.07322,0.133,0.48314
-2.13954,0,0,17.1395,17.1395,12.8605,12.8605,0.855817,1.88232,-2.16665,-0.167045,0.0335465,0.00186977,0,0,3.815,-0.0875,-3.43,-0.17507,0.030744,-1.01016,-0.07322,0.133,0.48314
-2.14067,0,0,17.1407,17.1407,12.8593,12.8593,0.856269,1.88194,-2.17043,-0.203605,0.148109,-0.222388,1,0,3.7625,-0.1925,-3.22,-0.211792,0.14518,-1.23269,-0.07322,0.133,0.48314
-2.14398,0,0,17.144,17.144,12.856,12.856,0.857593,1.88219,-2.17331,-0.20361,0.148132,-0.222389,1,0,4.235,0.1925,-2.695,-0.211792,0.14518,-1.23269,-0.07042,0.13748,0.48062
-2.29176,0,0,17.2918,17.2918,12.7082,12.7082,0.916704,1.95393,-2.2439,0.0698183,-0.0610174,-0.090031,0,0,4.13,0.21,-2.4325,0.06405,-0.064782,-1.10129,-0.07042,0.13748,0.48062
-2.43412,0,0,17.4341,17.4341,12.5659,12.5659,0.973649,2.02439,-2.31272,0.0685893,-0.060025,-0.0900901,0,0,3.5,0.3325,-1.5575,0.06405,-0.064782,-1.10129,-0.07042,0.13748,0.48062
-2.43483,0,0,17.4348,17.4348,12.5652,12.5652,0.973933,2.02514,-2.31303,0.153859,0.000921217,-0.112221,1,0,3.605,0.5075,-1.2075,0.149694,-0.003904,-1.12325,-0.07042,0.13748,0.48062
-2.43234,0,0,17.4323,17.4323,12.5677,12.5677,0.972935,2.02513,-2.31252,0.153859,0.000903814,-0.112221,1,0,2.87,0.07,-0.7175,0.149694,-0.003904,-1.12325,-0.07042,0.13748,0.48062
-2.36948,0,0,17.3695,17.3695,12.6305,12.6305,0.947793,2.04242,-2.33814,0.0104475,0.0215931,0.0750261,0,0,2.59,0.1575,-0.4375,0.005978,0.017202,-0.937448,-0.07042,0.13748,0.48062
-2.31064,0,0,17.3106,17.3106,12.6894,12.6894,0.924257,2.05881,-2.3633,0.0101617,0.0211825,0.0750226,0,0,3.22,-0.1575,-0.1925,0.005978,0.017202,-0.937448,-0.07042,0.13748,0.48062
-2.31072,0,0,17.3107,17.3107,12.6893,12.6893,0.924288,2.05828,-2.36196,0.179279,0.255911,-0.0591139,1,0,3.43,-0.2275,-0.2275,0.175802,0.251686,-1.07055,-0.07042,0.13748,0.48062
-2.31377,0,0,17.3138,17.3138,12.6862,12.6862,0.925509,2.05757,-2.3605,0.179291,0.255932,-0.0591138,1,0,4.095,-0.3325,-0.1575,0.175802,0.251686,-1.07055,-0.07546,0.13328,0.47656
-2.31597,0,0,17.316,17.316,12.684,12.684,0.926388,2.05776,-2.35902,0.177709,-0.00393847,0.144243,1,0,3.9025,0.1925,-0.1575,0.174216,-0.00793,-0.868762,-0.07546,0.13328,0.47656
-2.31508,0,0,17.3151,17.3151,12.6849,12.6849,0.926032,2.05784,-2.35803,0.177707,-0.00394468,0.144243,1,0,3.22,0.1225,-0.4375,0.174216,-0.00793,-0.868762,-0.07546,0.13328,0.47656
-2.31237,0,0,17.3124,17.3124,12.6876,12.6876,0.92495,2.05836,-2.35726,0.115741,0.195714,-0.0898512,1,0,2.8175,0.385,-0.5775,0.111996,0.19154,-1.10105,-0.07546,0.13328,0.47656
-2.30866,0,0,17.3087,17.3087,12.6913,12.6913,0.923464,2.05881,-2.35731,0.115733,0.195688,-0.0898511,1,0,2.6075,0.3325,-1.05,0.111996,0.19154,-1.10105,-0.07546,0.13328,0.47656
-2.23363,0,0,17.2336,17.2336,12.7664,12.7664,0.89345,1.91234,-2.23091,-0.13173,0.0279742,-0.0860658,0,0,2.485,0.21,-1.1375,-0.13908,0.024522,-1.09739,-0.07546,0.13328,0.47656
-2.1633,0,0,17.1633,17.1633,12.8367,12.8367,0.865319,1.76841,-2.10481,-0.129219,0.0274847,-0.0859776,0,0,3.255,-0.0525,-1.2425,-0.13908,0.024522,-1.09739,-0.07546,0.13328,0.47656
-2.40688,0,0,17.4069,17.4069,12.5931,12.5931,0.962753,1.85595,-2.17418,0.0666679,-0.0848829,0.0741489,0,0,3.2375,0.0875,-1.1375,0.05917,-0.089426,-0.938424,-0.07546,0.13328,0.47656
-2.64675,0,0,17.6468,17.6468,12.3532,12.3532,1.0587,1.94262,-2.23233,0.065156,-0.0832104,0.0740692,0,0,3.4125,0.2275,-0.9275,0.05917,-0.089426,-0.938424,-0.0735,0.12628,0.4767
-2.97648,0,0,17.9765,17.9765,12.0235,12.0235,1.19059,2.13726,-2.38551,0.16223,-0.124512,0.031363,0,0,3.08,-0.1225,-0.875,0.160064,-0.13298,-0.980636,-0.0735,0.12628,0.4767
-3.29845,0,0,18.2984,18.2984,11.7016,11.7016,1.31938,2.32814,-2.53688,0.158901,-0.122269,0.0311841,0,0,2.66,0.0175,-0.49,0.160064,-0.13298,-0.980636,-0.0735,0.12628,0.4767
-3.21293,0,0,18.2129,18.2129,11.7871,11.7871,1.28517,2.39817,-2.59616,0.0625564,0.0307686,-0.0362285,0,0,2.59,0.14,-0.105,0.064538,0.020496,-1.04749,-0.0735,0.12628,0.4767
-3.13118,0,0,18.1312,18.1312,11.8688,11.8688,1.25247,2.46655,-2.65522,0.061364,0.0301974,-0.0362666,0,0,3.08,0.0175,-0.035,0.064538,0.020496,-1.04749,-0.0735,0.12628,0.4767
-3.3615,0,0,18.3615,18.3615,11.6385,11.6385,1.3446,2.12515,-2.34037,-0.290336,-0.0864096,0.0289754,0,0,3.0975,0.14,0.14,-0.29463,-0.0976,-0.982954,-0.0735,0.12628,0.4767
-3.58715,0,0,18.5871,18.5871,11.4129,11.4129,1.43486,1.79048,-2.02726,-0.284498,-0.0848309,0.0291367,0,0,3.0975,0.14,0.14,-0.29463,-0.0976,-0.982954,-0.0735,0.12628,0.4767
-3.58323,0,0,18.5832,18.5832,11.4168,11.4168,1.43329,1.79041,-2.02591,-0.0268262,0.0627931,-0.141392,1,0,2.5375,0.0525,-0.2275,-0.035868,0.049898,-1.15217,-0.0735,0.12628,0.4767
-3.57931,0,0,18.5793,18.5793,11.4207,11.4207,1.43173,1.79035,-2.02455,-0.0268251,0.0627657,-0.141391,1,0,2.5375,0.0525,-0.2275,-0.035868,0.049898,-1.15217,-0.0749,0.12978,0.47712
-3.47375,0,0,18.4737,18.4737,11.5263,11.5263,1.3895,1.84243,-2.06347,0.0467372,0.0378475,-0.0544775,0,0,1.995,0.8575,-0.35,0.038918,0.025742,-1.06591,-0.0749,0.12978,0.47712
-3.37012,0,0,18.3701,18.3701,11.6299,11.6299,1.34805,1.89344,-2.10234,0.0458474,0.037124,-0.0544892,0,0,1.995,0.8575,-0.35,0.038918,0.025742,-1.06591,-0.0749,0.12978,0.47712
-3.54263,0,0,18.5426,18.5426,11.4574,11.4574,1.41705,1.86685,-2.06795,-0.0228141,-0.07122,-0.0397492,0,0,1.995,0.595,-1.5225,-0.0305,-0.083692,-1.05127,-0.0749,0.12978,0.47712
-3.71198,0,0,18.712,18.712,11.288,11.288,1.48479,1.8408,-2.03375,-0.0223597,-0.0700383,-0.0397644,0,0,1.995,0.595,-1.5225,-0.0305,-0.083692,-1.05127,-0.0749,0.12978,0.47712
-3.71135,0,0,18.7113,18.7113,11.2887,11.2887,1.48454,1.84119,-2.03623,0.0624304,0.22758,-0.18509,1,0,3.3425,0.2625,-2.4675,0.054656,0.213622,-1.19548,-0.0749,0.12978,0.47712
-3.71072,0,0,18.7107,18.7107,11.2893,11.2893,1.48429,1.84159,-2.03871,0.0624235,0.227576,-0.18509,1,0,3.3425,0.2625,-2.4675,0.054656,0.213622,-1.19548,-0.0749,0.12978,0.47712
-3.99137,0,0,18.9914,18.9914,11.0086,11.0086,1.59655,1.92691,-2.10322,0.0668879,-0.100332,0.052714,0,0,3.57,-0.07,-3.08,0.060634,-0.1159,-0.959408,-0.0749,0.12978,0.47712
-4.26697,0,0,19.267,19.267,10.733,10.733,1.70679,2.0096,-2.17215,0.0654455,-0.0984117,0.052609,0,0,3.57,-0.07,-3.08,0.060634,-0.1159,-0.959408,-0.07154,0.1323,0.47908
-3.60569,0,0,18.6057,18.6057,11.3943,11.3943,1.44228,2.28721,-2.44049,0.208087,0.230011,0.137389,0,0,2.66,0.2275,-2.9225,0.208742,0.216794,-0.875228,-0.07154,0.1323,0.47908
-4.72538,0,0,19.7254,19.7254,10.2746,10.2746,1.89015,2.55749,-2.65388,0.249053,-0.461241,0.0769634,0,0,2.17,-0.035,-2.87,0.254614,-0.481534,-0.934764,-0.07154,0.1323,0.47908
-5.83269,0,0,20.8327,20.8327,9.16731,9.16731,2.33308,2.82242,-2.86297,0.244434,-0.453533,0.076462,0,0,3.36,-0.1575,-2.87,0.254614,-0.481534,-0.934764,-0.07154,0.1323,0.47908
-6.11044,0,0,21.1104,21.1104,8.88956,8.88956,2.44418,2.8978,-2.93622,0.0698817,-0.112088,-0.0311412,0,0,3.2025,-0.2975,-2.8175,0.080642,-0.142374,-1.04139,-0.07154,0.1323,0.47908
-6.38732,0,0,21.3873,21.3873,8.61268,8.61268,2.55493,2.97133,-3.00748,0.0686,-0.110162,-0.0312911,0,0,4.095,-0.4375,-1.89,0.080642,-0.142374,-1.04139,-0.07154,0.1323,0.47908
-6.10171,0,0,21.1017,21.1017,8.89829,8.89829,2.44068,2.90139,-2.97266,-0.0598061,0.106091,0.0407831,0,0,3.8675,-0.175,-1.61,-0.049532,0.07564,-0.970022,-0.07154,0.1323,0.47908
-5.81914,0,0,20.8191,20.8191,9.18086,9.18086,2.32766,2.83282,-2.93622,-0.0586109,0.104125,0.0409248,0,0,3.3425,-0.14,-0.805,-0.049532,0.07564,-0.970022,-0.07154,0.1323,0.47908
-5.97127,0,0,20.9713,20.9713,9.02873,9.02873,2.38851,2.81365,-2.9157,-0.0158783,-0.0548,0.0326601,0,0,3.115,-0.42,-0.455,-0.006954,-0.08418,-0.978196,-0.07056,0.12502,0.48076
-5.42438,0,0,20.4244,20.4244,9.57562,9.57562,2.16975,2.84971,-2.96757,0.0317231,0.214586,-0.0338574,0,0,2.8875,-0.1225,0.175,0.04148,0.188734,-1.04432,-0.07056,0.12502,0.48076
-4.89144,0,0,19.8914,19.8914,10.1086,10.1086,1.95657,2.88487,-3.01867,0.0311102,0.210871,-0.0337543,0,0,3.7975,-0.175,0.63,0.04148,0.188734,-1.04432,-0.07056,0.12502,0.48076
-5.01893,0,0,20.0189,20.0189,9.98107,9.98107,2.00757,2.56031,-2.72782,-0.267067,-0.0423767,0.0567281,0,0,4.2175,-0.0175,0.8925,-0.263642,-0.065148,-0.954772,-0.07056,0.12502,0.48076
-5.1409,0,0,20.1409,20.1409,9.8591,9.8591,2.05636,2.243,-2.43775,-0.261534,-0.0415183,0.0569298,0,0,3.605,0.4725,1.12,-0.263642,-0.065148,-0.954772,-0.07056,0.12502,0.48076
-5.1433,0,0,20.1433,20.1433,9.8567,9.8567,2.05732,2.2435,-2.43424,-0.150019,0.0791597,-0.173231,1,0,3.9025,0.4375,1.015,-0.151646,0.055388,-1.18316,-0.07056,0.12502,0.48076
-5.14164,0,0,20.1416,20.1416,9.85836,9.85836,2.05666,2.24347,-2.43085,-0.150019,0.0791481,-0.17323,1,0,2.9925,0.1225,0.9625,-0.151646,0.055388,-1.18316,-0.07056,0.12502,0.48076
-5.1403,0,0,20.1403,20.1403,9.8597,9.8597,2.05612,2.24377,-2.42741,0.134982,-0.192471,-0.199418,1,0,3.0625,0.315,0.98,0.134566,-0.21594,-1.20914,-0.07056,0.12502,0.48076
-5.14298,0,0,20.143,20.143,9.85702,9.85702,2.05719,2.24411,-2.42508,0.134976,-0.192452,-0.199419,1,0,3.99,0.315,0.3325,0.134566,-0.21594,-1.20914,-0.07266,0.12978,0.48076
-5.28241,0,0,20.2824,20.2824,9.71759,9.71759,2.11296,2.42406,-2.57706,0.164396,-0.0587334,-0.0511835,0,0,3.9725,0.245,-0.21,0.167262,-0.083326,-1.06189,-0.07266,0.12978,0.48076
-5.4221,0,0,20.4221,20.4221,9.5779,9.5779,2.16884,2.60068,-2.72901,0.161316,-0.0577648,-0.0513549,0,0,4.62,0.4375,-0.6125,0.167262,-0.083326,-1.06189,-0.07266,0.12978,0.48076
-5.42692,0,0,20.4269,20.4269,9.57308,9.57308,2.17077,2.60127,-2.72874,-0.201207,0.0612202,0.20413,1,0,4.515,0.42,-0.875,-0.196786,0.035502,-0.808372,-0.07266,0.12978,0.48076
-5.43068,0,0,20.4307,20.4307,9.56932,9.56932,2.17227,2.60232,-2.72966,-0.201226,0.0612464,0.204129,1,0,4.305,0.665,-1.575,-0.196786,0.035502,-0.808372,-0.07266,0.12978,0.48076
-4.87712,0,0,19.8771,19.8771,10.1229,10.1229,1.95085,2.69338,-2.83354,0.0738096,0.21383,0.00526335,0,0,3.955,0.84,-1.785,0.081008,0.191784,-1.00577,-0.07266,0.12978,0.48076
-4.33087,0,0,19.3309,19.3309,10.6691,10.6691,1.73235,2.78237,-2.93864,0.0722582,0.210021,0.00531162,0,0,3.43,0.7,-2.2925,0.081008,0.191784,-1.00577,-0.07266,0.12978,0.48076
-4.45767,0,0,19.4577,19.4577,10.5423,10.5423,1.78307,2.75892,-2.92424,-0.0194191,-0.0478816,-0.00637583,0,0,3.885,0.3325,-2.4675,-0.011468,-0.066734,-1.01736,-0.07266,0.12978,0.48076
-4.58213,0,0,19.5821,19.5821,10.4179,10.4179,1.83285,2.73563,-2.9151,-0.0190132,-0.0470135,-0.00638374,0,0,3.885,0.245,-2.6075,-0.011468,-0.066734,-1.01736,-0.07126,0.13272,0.47978
-4.44277,0,0,19.4428,19.4428,10.5572,10.5572,1.77711,3.00053,-3.16895,0.231368,0.0539838,-0.00031399,0,0,4.165,0.2975,-2.905,0.24461,0.035136,-1.01114,-0.07126,0.13272,0.47978
-4.30125,0,0,19.3013,19.3013,10.6987,10.6987,1.7205,3.26004,-3.42276,0.226845,0.0529902,-0.000531094,0,0,3.2025,0.2275,-2.975,0.24461,0.035136,-1.01114,-0.07126,0.13272,0.47978
-4.40521,0,0,19.4052,19.4052,10.5948,10.5948,1.76208,3.27712,-3.45733,0.0155269,-0.0420334,-0.00388971,0,0,2.31,0.28,-2.7125,0.032696,-0.060512,-1.01443,-0.07126,0.13272,0.47978
-4.51271,0,0,19.5127,19.5127,10.4873,10.4873,1.80508,3.29278,-3.49202,0.0152542,-0.0412851,-0.00392868,0,0,3.535,-0.3675,-2.8175,0.032696,-0.060512,-1.01443,-0.07126,0.13272,0.47978
-4.5129,0,0,19.5129,19.5129,10.4871,10.4871,1.80516,3.2923,-3.49471,-0.260146,0.0104981,-0.266915,1,0,3.57,-0.2625,-2.5725,-0.243878,-0.008784,-1.27539,-0.07126,0.13272,0.47978
-4.51648,0,0,19.5165,19.5165,10.4835,10.4835,1.80659,3.2923,-3.49669,-0.260146,0.010523,-0.266916,1,0,4.305,0.035,-2.17,-0.243878,-0.008784,-1.27539,-0.07126,0.13272,0.47978
-4.72572,0,0,19.7257,19.7257,10.2743,10.2743,1.89029,3.28149,-3.50255,-0.00556626,-0.079492,-0.0184732,0,0,4.8125,-0.35,-1.6625,0.01159,-0.100162,-1.02883,-0.07126,0.13272,0.47978
-4.93117,0,0,19.9312,19.9312,10.0688,10.0688,1.97247,3.27095,-3.50847,-0.0053825,-0.0780605,-0.0185109,0,0,4.8125,-0.35,-1.6625,0.01159,-0.100162,-1.02883,-0.07126,0.13272,0.47978
-4.934,0,0,19.934,19.934,10.066,10.066,1.9736,3.27088,-3.5091,0.141009,0.12127,-0.208098,1,0,4.095,0.0175,-1.3825,0.1586,0.098942,-1.21695,-0.0805,0.12936,0.47348
-4.93505,0,0,19.9351,19.9351,10.0649,10.0649,1.97402,3.27049,-3.508,-0.0402409,0.167075,0.17169,1,0,3.64,-0.14,-0.3675,-0.023424,0.144692,-0.840092,-0.0805,0.12936,0.47348
-4.93814,0,0,19.9381,19.9381,10.0619,10.0619,1.97526,3.27052,-3.50628,-0.0402415,0.167096,0.171689,1,0,4.0775,0.1225,-0.0175,-0.023424,0.144692,-0.840092,-0.0805,0.12936,0.47348
-4.94565,0,0,19.9457,19.9457,10.0543,10.0543,1.97826,3.27031,-3.50367,0.0331395,-0.0891952,0.298447,1,0,5.04,0,0.5075,0.050264,-0.111386,-0.71431,-0.0805,0.12936,0.47348
-4.95316,0,0,19.9532,19.9532,10.0468,10.0468,1.98126,3.27011,-3.50106,0.0331431,-0.0891429,0.298446,1,0,5.04,0,0.5075,0.050264,-0.111386,-0.71431,-0.0805,0.12936,0.47348
-4.96065,0,0,19.9606,19.9606,10.0394,10.0394,1.98426,3.26959,-3.49804,-0.00280757,-0.0261955,-0.151424,1,0,5.0225,-0.175,0.7525,0.014152,-0.048556,-1.16071,-0.0805,0.12936,0.47348
-4.96814,0,0,19.9681,19.9681,10.0319,10.0319,1.98726,3.26907,-3.49502,-0.0027985,-0.0261433,-0.151425,1,0,5.0225,-0.175,0.7525,0.014152,-0.048556,-1.16071,-0.0805,0.12936,0.47348
-4.76441,0,0,19.7644,19.7644,10.2356,10.2356,1.90576,3.26987,-3.5134,0.00362615,0.0813746,-0.0869528,0,0,3.3075,0.35,0.5075,0.020618,0.060268,-1.09678,-0.0805,0.12936,0.47348
-4.5643,0,0,19.5643,19.5643,10.4357,10.4357,1.82572,3.27108,-3.53774,0.00360519,0.0799805,-0.0869086,0,0,3.3075,0.35,0.5075,0.020618,0.060268,-1.09678,-0.0763,0.13244,0.47656
-5.00734,0,0,20.0073,20.0073,9.99266,9.99266,2.00293,3.16924,-3.45508,-0.0740719,-0.146894,0.114232,0,0,3.9375,-4.34,0.3675,-0.05917,-0.169458,-0.897188,-0.0763,0.13244,0.47656
-5.01347,0,0,20.0135,20.0135,9.98653,9.98653,2.00539,3.16892,-3.45271,-0.0786827,0.226001,-0.131543,1,0,4.7425,-0.07,0.3675,-0.063806,0.203008,-1.14107,-0.0763,0.13244,0.47656
-5.01917,0,0,20.0192,20.0192,9.98083,9.98083,2.00767,3.16949,-3.45185,-0.0786927,0.226041,-0.131545,1,0,4.69,0.42,-0.525,-0.063806,0.203008,-1.14107,-0.0763,0.13244,0.47656
-5.0238,0,0,20.0238,20.0238,9.9762,9.9762,2.00952,3.17028,-3.45131,-0.197276,0.271016,-0.0698272,1,0,4.4625,0.5425,-0.7175,-0.182878,0.247904,-1.07982,-0.0763,0.13244,0.47656
-5.02873,0,0,20.0287,20.0287,9.97127,9.97127,2.01149,3.17113,-3.45149,-0.197291,0.27105,-0.0698292,1,0,4.55,0.56,-1.1375,-0.182878,0.247904,-1.07982,-0.0763,0.13244,0.47656
-5.03174,0,0,20.0317,20.0317,9.96826,9.96826,2.0127,3.17177,-3.452,-0.000495698,0.220144,-0.155403,1,0,4.13,0.4375,-1.33,0.014762,0.19703,-1.16473,-0.0763,0.13244,0.47656
-5.0325,0,0,20.0325,20.0325,9.9675,9.9675,2.013,3.17234,-3.45348,-0.0005055,0.22015,-0.155403,1,0,3.6575,0.3675,-1.89,0.014762,0.19703,-1.16473,-0.0763,0.13244,0.47656
-4.48546,0,0,19.4855,19.4855,10.5145,10.5145,1.79418,3.23705,-3.54205,0.0569229,0.221099,-0.0427191,0,0,3.8325,0.1225,-2.1175,0.073566,0.201788,-1.05298,-0.07672,0.1267,0.47936
-3.95166,0,0,18.9517,18.9517,11.0483,11.0483,1.58067,3.30059,-3.6303,0.0558157,0.217379,-0.0426727,0,0,4.6375,0.245,-1.8375,0.073566,0.201788,-1.05298,-0.07672,0.1267,0.47936
-3.95755,0,0,18.9576,18.9576,11.0424,11.0424,1.58302,3.30125,-3.63136,-0.0342166,0.224991,0.131789,1,0,4.795,0.4375,-1.645,-0.016836,0.209352,-0.879864,-0.07672,0.1267,0.47936
-3.96065,0,0,18.9607,18.9607,11.0393,11.0393,1.58426,3.30174,-3.63284,-0.0342252,0.225013,0.131788,1,0,4.1825,0.3325,-1.89,-0.016836,0.209352,-0.879864,-0.07672,0.1267,0.47936
-3.96284,0,0,18.9628,18.9628,11.0372,11.0372,1.58514,3.30251,-3.63471,0.165241,0.182894,0.189573,1,0,3.99,0.49,-2.1175,0.183488,0.167262,-0.822524,-0.07672,0.1267,0.47936
-3.96242,0,0,18.9624,18.9624,11.0376,11.0376,1.58497,3.30263,-3.63675,0.165239,0.182892,0.189573,1,0,3.4125,0.105,-2.205,0.183488,0.167262,-0.822524,-0.07672,0.1267,0.47936
-3.87645,0,0,18.8765,18.8765,11.1235,11.1235,1.55058,3.29421,-3.64518,-0.00736721,0.034031,-0.0137591,0,0,4.095,0.2275,-2.1525,0.010004,0.019154,-1.02431,-0.07672,0.1267,0.47936
-3.79246,0,0,18.7925,18.7925,11.2075,11.2075,1.51698,3.28587,-3.65386,-0.00722189,0.033446,-0.0137351,0,0,4.2,0.175,-2.3275,0.010004,0.019154,-1.02431,-0.07672,0.1267,0.47936
-3.79682,0,0,18.7968,18.7968,11.2032,11.2032,1.51873,3.28663,-3.65633,0.109756,-0.0539663,-0.0866451,1,0,4.4975,0.4725,-2.4675,0.12749,-0.068198,-1.09666,-0.0763,0.12922,0.47796
-4.14841,0,0,19.1484,19.1484,10.8516,10.8516,1.65937,3.47189,-3.82087,0.15087,-0.127241,0.0702246,0,0,4.6725,-0.07,-2.1,0.17202,-0.143838,-0.940742,-0.0763,0.12922,0.47796
-4.49534,0,0,19.4953,19.4953,10.5047,10.5047,1.79813,3.65394,-3.98422,0.147699,-0.124831,0.0699543,0,0,5.005,0.21,-2.1175,0.17202,-0.143838,-0.940742,-0.0763,0.12922,0.47796
-4.50114,0,0,19.5011,19.5011,10.4989,10.4989,1.80046,3.65344,-3.98622,0.0350904,-0.00168643,0.180853,1,0,4.8125,-0.2625,-2.17,0.058926,-0.020862,-0.830698,-0.0763,0.12922,0.47796
-4.50316,0,0,19.5032,19.5032,10.4968,10.4968,1.80126,3.6526,-3.98798,0.035105,-0.00167236,0.180854,1,0,3.955,-0.455,-2.03,0.058926,-0.020862,-0.830698,-0.0763,0.12922,0.47796
-4.76152,0,0,19.7615,19.7615,10.2385,10.2385,1.90461,3.36638,-3.74751,-0.248802,-0.100618,-0.0175837,0,0,4.2175,-0.49,-1.6625,-0.23119,-0.121512,-1.02785,-0.0763,0.12922,0.47796
-5.01487,0,0,20.0149,20.0149,9.98513,9.98513,2.00595,3.08601,-3.50762,-0.243916,-0.0988434,-0.0173687,0,0,4.2,-0.385,-1.085,-0.23119,-0.121512,-1.02785,-0.0763,0.12922,0.47796
-4.37809,0,0,19.3781,19.3781,10.6219,10.6219,1.75123,3.05401,-3.51513,-0.0317304,0.253453,-0.0104311,0,0,4.06,-0.175,-0.98,-0.018666,0.23485,-1.02114,-0.0763,0.12922,0.47796
-3.75055,0,0,18.7506,18.7506,11.2494,11.2494,1.50022,3.0211,-3.51584,-0.0311568,0.249081,-0.0102766,0,0,3.535,-0.105,-0.35,-0.018666,0.23485,-1.02114,-0.08106,0.12684,0.4648
-3.75308,0,0,18.7531,18.7531,11.2469,11.2469,1.50123,3.02028,-3.51412,0.0684757,-0.247103,-0.374573,1,0,3.955,-0.385,0,0.081374,-0.260836,-1.38263,-0.08106,0.12684,0.4648
-3.75503,0,0,18.755,18.755,11.245,11.245,1.50201,3.01996,-3.51082,0.0684813,-0.247089,-0.374573,1,0,3.78,-0.07,0.91,0.081374,-0.260836,-1.38263,-0.08106,0.12684,0.4648
-3.75965,0,0,18.7597,18.7597,11.2403,11.2403,1.50386,3.01973,-3.50679,-0.0209282,0.179288,-0.0931443,1,0,4.3575,0,1.33,-0.008418,0.165066,-1.10337,-0.08106,0.12684,0.4648
-3.76388,0,0,18.7639,18.7639,11.2361,11.2361,1.50555,3.01956,-3.50226,-0.0209252,0.179317,-0.0931449,1,0,4.2525,0.035,1.6275,-0.008418,0.165066,-1.10337,-0.08106,0.12684,0.4648
-4.46565,0,0,19.4657,19.4657,10.5343,10.5343,1.78626,3.2687,-3.68911,0.220013,-0.279881,0.0468834,0,0,3.9725,0.28,1.7325,0.2379,-0.298534,-0.964044,-0.08106,0.12684,0.4648
-5.15305,0,0,20.1531,20.1531,9.84695,9.84695,2.06122,3.51463,-3.8744,0.215728,-0.275102,0.0464688,0,0,3.3775,1.2775,1.1025,0.2379,-0.298534,-0.964044,-0.08106,0.12684,0.4648
-5.15534,0,0,20.1553,20.1553,9.84466,9.84466,2.06214,3.51635,-3.87142,0.203428,-0.0796834,0.145932,1,0,3.85,1.1375,0.6825,0.225578,-0.103334,-0.865346,-0.08106,0.12684,0.4648
-5.16015,0,0,20.1602,20.1602,9.83985,9.83985,2.06406,3.51662,-3.86978,0.203423,-0.0796499,0.14593,1,0,4.4625,0.2625,-0.07,0.225578,-0.103334,-0.865346,-0.07714,0.12964,0.47348
-5.16639,0,0,20.1664,20.1664,9.83361,9.83361,2.06656,3.51675,-3.86851,-0.411783,-0.144578,-0.22636,1,0,4.795,0.175,-0.28,-0.39223,-0.168238,-1.23476,-0.07714,0.12964,0.47348
-5.17189,0,0,20.1719,20.1719,9.82811,9.82811,2.06876,3.51795,-3.8685,-0.411804,-0.14454,-0.226362,1,0,4.6725,0.77,-1.0325,-0.39223,-0.168238,-1.23476,-0.07714,0.12964,0.47348
-5.17494,0,0,20.1749,20.1749,9.82506,9.82506,2.06997,3.51921,-3.86923,-0.0394718,-0.0425427,-0.218127,1,0,4.1475,0.7875,-1.47,-0.0183,-0.066368,-1.22659,-0.07714,0.12964,0.47348
-5.17539,0,0,20.1754,20.1754,9.82461,9.82461,2.07016,3.5203,-3.87211,-0.0394909,-0.0425396,-0.218128,1,0,3.64,0.6475,-2.7125,-0.0183,-0.066368,-1.22659,-0.07714,0.12964,0.47348
-5.17168,0,0,20.1717,20.1717,9.82832,9.82832,2.06867,3.52103,-3.87566,-0.0125337,0.0584334,0.239118,1,0,2.73,0.42,-3.0975,0.008784,0.034526,-0.77287,-0.07714,0.12964,0.47348
-5.16625,0,0,20.1663,20.1663,9.83375,9.83375,2.0665,3.52161,-3.88023,-0.0125439,0.0583956,0.239118,1,0,2.38,0.315,-3.6925,0.008784,0.034526,-0.77287,-0.07714,0.12964,0.47348
-5.16112,0,0,20.1611,20.1611,9.83888,9.83888,2.06445,3.52172,-3.88492,0.111613,0.00816574,0.168424,1,0,2.45,0.035,-3.745,0.133468,-0.015616,-0.84302,-0.07714,0.12964,0.47348
-5.16215,0,0,20.1621,20.1621,9.83785,9.83785,2.06486,3.52109,-3.88963,0.111624,0.00817292,0.168424,1,0,3.8325,-0.4025,-3.745,0.133468,-0.015616,-0.84302,-0.07462,0.12642,0.47138
-5.42206,0,0,20.4221,20.4221,9.57794,9.57794,2.16883,3.57831,-3.9466,0.0546219,-0.10201,-0.0174794,0,0,4.9175,-0.7175,-3.535,0.077226,-0.12749,-1.02736,-0.07462,0.12642,0.47138
-5.67693,0,0,20.6769,20.6769,9.32307,9.32307,2.27077,3.63497,-4.00165,0.053635,-0.100238,-0.0176103,0,0,4.76,-0.35,-2.59,0.077226,-0.12749,-1.02736,-0.07462,0.12642,0.47138
-5.68037,0,0,20.6804,20.6804,9.31963,9.31963,2.27215,3.63496,-4.00375,-0.0990724,0.0271645,-0.152609,1,0,4.2875,0.0175,-2.24,-0.076128,-0.000244,-1.16132,-0.07462,0.12642,0.47138
-5.68166,0,0,20.6817,20.6817,9.31834,9.31834,2.27266,3.63485,-4.00472,-0.0990705,0.0271734,-0.152609,1,0,3.7625,-0.0175,-1.575,-0.076128,-0.000244,-1.16132,-0.07462,0.12642,0.47138
-5.59027,0,0,20.5903,20.5903,9.40973,9.40973,2.23611,3.53934,-3.93967,-0.0825856,0.0343573,-0.0208019,0,0,2.625,0.245,-1.1025,-0.061244,0.007564,-1.03066,-0.07462,0.12642,0.47138
-5.50383,0,0,20.5038,20.5038,9.49617,9.49617,2.20153,3.44577,-3.87299,-0.0809555,0.0337593,-0.0206791,0,0,3.325,0.2975,-0.14,-0.061244,0.007564,-1.03066,-0.07462,0.12642,0.47138
-5.50342,0,0,20.5034,20.5034,9.49658,9.49658,2.20137,3.44619,-3.87128,0.0752679,0.288635,0.27243,1,0,3.29,0.35,-0.035,0.095648,0.262178,-0.739808,-0.07462,0.12642,0.47138
-5.51009,0,0,20.5101,20.5101,9.48991,9.48991,2.20404,3.4453,-3.86918,0.0752833,0.288681,0.272429,1,0,4.865,-0.4025,0.2275,0.095648,0.262178,-0.739808,-0.07728,0.12404,0.47544
-5.86977,0,0,20.8698,20.8698,9.13023,9.13023,2.34791,3.47188,-3.88203,0.0246467,-0.134915,0.0182898,0,0,5.2325,-0.49,0.385,0.045262,-0.16348,-0.99186,-0.07728,0.12404,0.47544
-6.22354,0,0,21.2235,21.2235,8.77646,8.77646,2.48942,3.4982,-3.89551,0.0241882,-0.132454,0.0181579,0,0,5.355,-0.35,0,0.045262,-0.16348,-0.99186,-0.07728,0.12404,0.47544
-6.22938,0,0,21.2294,21.2294,8.77062,8.77062,2.49175,3.49828,-3.89379,-0.0438451,0.0655545,-0.123972,1,0,4.69,0.1575,-0.0175,-0.023058,0.034282,-1.13289,-0.07728,0.12404,0.47544
-6.22892,0,0,21.2289,21.2289,8.77108,8.77108,2.49157,3.49804,-3.89239,-0.043841,0.0655514,-0.123972,1,0,3.29,-0.035,-0.1925,-0.023058,0.034282,-1.13289,-0.07728,0.12404,0.47544
-6.0722,0,0,21.0722,21.0722,8.9278,8.9278,2.42888,2.92331,-3.40743,-0.509564,0.0660718,0.0715095,0,0,2.17,0.07,-0.315,-0.50081,0.035868,-0.939522,-0.07728,0.12404,0.47544
-5.92228,0,0,20.9223,20.9223,9.07772,9.07772,2.36891,2.35802,-2.92311,-0.499708,0.0650462,0.0720074,0,0,3.5,-0.315,-0.875,-0.50081,0.035868,-0.939522,-0.07728,0.12404,0.47544
-5.7568,0,0,20.7568,20.7568,9.2432,9.2432,2.30272,2.28723,-2.85825,-0.0603963,0.064994,-0.0347378,0,0,3.255,-0.1225,-0.8925,-0.060878,0.036966,-1.04554,-0.07728,0.12404,0.47544
-5.59997,0,0,20.6,20.6,9.40003,9.40003,2.23999,2.21755,-2.79309,-0.0591812,0.0639027,-0.0346466,0,0,4.5325,-0.2975,-0.735,-0.060878,0.036966,-1.04554,-0.07728,0.12404,0.47544
-6.23179,0,0,21.2318,21.2318,8.76821,8.76821,2.49271,2.44432,-2.95966,0.21045,-0.264618,-0.0059736,0,0,4.7075,-0.3325,-0.3675,0.213866,-0.295606,-1.01675,-0.0721,0.12516,0.47222
-6.19837,0,0,21.1984,21.1984,8.80163,8.80163,2.47935,2.54281,-3.04041,0.0849389,0.0124958,-0.00296449,0,0,3.535,0.0875,-0.5075,0.089548,-0.018544,-1.0137,-0.0721,0.12516,0.47222
-6.51852,0,0,21.5185,21.5185,8.48148,8.48148,2.60741,2.54986,-3.03063,0.0108312,-0.136589,-0.0657728,0,0,3.7975,-0.3675,-0.56,0.01525,-0.169702,-1.07592,-0.0721,0.12516,0.47222
-6.42063,0,0,21.4206,21.4206,8.57937,8.57937,2.56825,2.73471,-3.19037,0.175623,0.0363867,-0.0711773,0,0,3.22,-0.0875,-0.35,0.183976,0.003782,-1.08116,-0.0721,0.12516,0.47222
-6.41827,0,0,21.4183,21.4183,8.58173,8.58173,2.56731,2.73569,-3.18885,-0.169778,-0.0227391,-0.180233,1,0,2.87,0.6825,-0.1575,-0.16287,-0.055266,-1.18938,-0.0721,0.12516,0.47222
-6.39422,0,0,21.3942,21.3942,8.60578,8.60578,2.55769,2.69272,-3.14906,-0.0373383,0.00787084,-0.0608067,0,0,3.6225,0.91,-0.3675,-0.030622,-0.024522,-1.07092,-0.0721,0.12516,0.47222
-6.39194,0,0,21.3919,21.3919,8.60806,8.60806,2.55677,2.69322,-3.14883,-0.166486,0.0515763,-0.16937,1,0,2.9225,0.3675,-0.8925,-0.160308,0.019154,-1.17864,-0.0721,0.12516,0.47222
-7.02915,0,0,22.0291,22.0291,7.97085,7.97085,2.81166,2.57037,-3.0159,-0.109311,-0.265662,-0.0209579,0,0,3.045,0.2975,-0.98,-0.105042,-0.302194,-1.03127,-0.0721,0.12516,0.47222
-7.40032,0,0,22.4003,22.4003,7.59968,7.59968,2.96013,2.97632,-3.35032,0.32011,-0.134006,0.140247,0,0,3.5,0.7525,-1.33,0.333304,-0.17324,-0.870836,-0.07546,0.12852,0.46172
-7.72639,0,0,22.7264,22.7264,7.27361,7.27361,3.09056,3.09826,-3.44796,0.0974881,-0.121606,0.0546878,0,0,3.1325,0.9625,-1.785,0.111874,-0.163114,-0.955504,-0.07546,0.12852,0.46172
-8.05169,0,0,23.0517,23.0517,6.94831,6.94831,3.22068,3.21682,-3.54717,0.0954219,-0.119348,0.0544492,0,0,4.305,0.3675,-3.0975,0.111874,-0.163114,-0.955504,-0.07546,0.12852,0.46172
-8.06256,0,0,23.0626,23.0626,6.93744,6.93744,3.22502,3.30757,-3.63701,0.0662633,-0.0004479,0.0751332,0,0,3.57,0.3675,-3.3425,0.08418,-0.044408,-0.934886,-0.07546,0.12852,0.46172
-8.07419,0,0,23.0742,23.0742,6.92581,6.92581,3.22968,3.39686,-3.72739,0.0647076,-0.000372118,0.0750377,0,0,3.815,0.5775,-3.8325,0.08418,-0.044408,-0.934886,-0.07546,0.12852,0.46172
-8.32001,0,0,23.32,23.32,6.67999,6.67999,3.32801,3.3348,-3.67965,-0.0522952,-0.0829255,0.0789375,0,0,4.025,0.8225,-3.675,-0.034404,-0.128588,-0.930982,-0.07546,0.12852,0.46172
-8.56459,0,0,23.5646,23.5646,6.43541,6.43541,3.42584,3.27332,-3.63248,-0.0512239,-0.0812202,0.0788989,0,0,4.7425,0.385,-3.745,-0.034404,-0.128588,-0.930982,-0.07546,0.12852,0.46172
-8.78301,0,0,23.783,23.783,6.21699,6.21699,3.5132,3.2432,-3.61294,-0.0204492,-0.0960638,-0.0884964,0,0,4.7775,-0.2975,-3.5875,-0.004026,-0.144936,-1.09702,-0.07546,0.12852,0.46172
-8.99973,0,0,23.9997,23.9997,6.00027,6.00027,3.59989,3.21302,-3.58477,-0.0199232,-0.0945542,-0.0885605,0,0,5.25,-1.0325,-2.6075,-0.004026,-0.144936,-1.09702,-0.07756,0.12362,0.48272
-9.00329,0,0,24.0033,24.0033,5.99671,5.99671,3.60132,3.21186,-3.58637,-0.0660676,-0.00537691,0.304014,1,0,4.2875,-0.665,-1.9075,-0.050386,-0.055876,-0.707478,-0.07756,0.12362,0.48272
-9.00611,0,0,24.0061,24.0061,5.99389,5.99389,3.60244,3.21107,-3.58657,-0.0660538,-0.00535726,0.304013,1,0,4.0775,-0.4025,-1.1025,-0.050386,-0.055876,-0.707478,-0.07756,0.12362,0.48272
-8.5009,0,0,23.5009,23.5009,6.4991,6.4991,3.40036,3.04849,-3.47148,-0.136233,0.193867,0.0394289,0,0,2.9575,-0.6125,-0.4025,-0.123708,0.146644,-0.970388,-0.07756,0.12362,0.48272
-8.00187,0,0,23.0019,23.0019,6.99813,6.99813,3.20075,2.88931,-3.35327,-0.133459,0.190402,0.0397729,0,0,2.3275,-0.3675,0.875,-0.123708,0.146644,-0.970388,-0.07756,0.12362,0.48272
-7.99815,0,0,22.9982,22.9982,7.00185,7.00185,3.19926,2.88827,-3.34963,-0.0633435,0.0692267,-0.147106,1,0,2.5025,-0.42,1.1375,-0.053314,0.02562,-1.15583,-0.07756,0.12362,0.48272
-7.99577,0,0,22.9958,22.9958,7.00423,7.00423,3.19831,2.88827,-3.34527,-0.0633435,0.0692101,-0.147106,1,0,2.7825,0.21,1.5225,-0.053314,0.02562,-1.15583,-0.07756,0.12362,0.48272
-7.90396,0,0,22.904,22.904,7.09604,7.09604,3.16158,2.49243,-3.00397,-0.326384,0.0418431,0.0730857,0,0,4.0775,-0.2625,1.6975,-0.324398,-0.001098,-0.937692,-0.07756,0.12362,0.48272
-7.81846,0,0,22.8185,22.8185,7.18154,7.18154,3.12738,2.10484,-2.67124,-0.319624,0.0412625,0.0733893,0,0,5.32,0.035,1.995,-0.324398,-0.001098,-0.937692,-0.0763,0.12978,0.47306
-7.92295,0,0,22.9229,22.9229,7.07705,7.07705,3.16918,2.19075,-2.73139,0.0699397,-0.0365403,0.0291546,0,0,4.7075,0.315,1.785,0.06832,-0.079544,-0.98149,-0.0763,0.12978,0.47306
-8.03008,0,0,23.0301,23.0301,6.96992,6.96992,3.21203,2.27472,-2.7935,0.0684752,-0.0357972,0.029056,0,0,5.7575,0.14,0.49,0.06832,-0.079544,-0.98149,-0.0763,0.12978,0.47306
-8.035,0,0,23.035,23.035,6.965,6.965,3.214,2.27533,-2.79151,0.0269165,0.447248,0.205239,1,0,4.4975,0.49,0.1225,0.026596,0.402966,-0.806664,-0.0763,0.12978,0.47306
-8.0422,0,0,23.0422,23.0422,6.9578,6.9578,3.21688,2.27604,-2.79084,0.0269041,0.447298,0.205236,1,0,5.04,0.5075,-0.6475,0.026596,0.402966,-0.806664,-0.0763,0.12978,0.47306
-8.0496,0,0,23.0496,23.0496,6.9504,6.9504,3.21984,2.2767,-2.79128,0.0439006,0.532472,-0.0200094,1,0,5.11,0.4375,-1.295,0.043676,0.488,-1.03017,-0.0763,0.12978,0.47306
-8.049,0,0,23.049,23.049,6.951,6.951,3.2196,2.27804,-2.79376,0.0438773,0.532468,-0.0200101,1,0,3.36,0.77,-2.5025,0.043676,0.488,-1.03017,-0.0763,0.12978,0.47306
-8.0502,0,0,23.0502,23.0502,6.9498,6.9498,3.22008,2.27871,-2.79621,0.0913664,0.103689,-0.209229,1,0,3.7625,0.385,-2.4675,0.091378,0.059658,-1.21793,-0.0763,0.12978,0.47306
-8.05373,0,0,23.0537,23.0537,6.94627,6.94627,3.22149,2.27892,-2.79875,0.0913628,0.103714,-0.20923,1,0,4.2875,0.105,-2.5025,0.091378,0.059658,-1.21793,-0.07056,0.1309,0.4753
-7.28454,0,0,22.2845,22.2845,7.71546,7.71546,2.91382,2.17514,-2.73716,-0.0937938,0.307929,0.0177212,0,0,3.885,0.21,-2.765,-0.09638,0.26901,-0.99308,-0.07056,0.1309,0.4753
-6.53082,0,0,21.5308,21.5308,8.46918,8.46918,2.61233,2.07253,-2.67482,-0.0920041,0.30268,0.018041,0,0,4.445,-0.175,-2.905,-0.09638,0.26901,-0.99308,-0.07056,0.1309,0.4753
-5.99714,0,0,20.9971,20.9971,9.00286,9.00286,2.39885,1.90928,-2.54932,-0.138601,0.204316,0.0571544,0,0,3.6925,0.2275,-2.6775,-0.146034,0.17446,-0.954528,-0.07056,0.1309,0.4753
-5.46858,0,0,20.4686,20.4686,9.53142,9.53142,2.18743,1.75094,-2.4222,-0.135839,0.200634,0.0573901,0,0,2.7825,1.33,-2.345,-0.146034,0.17446,-0.954528,-0.07056,0.1309,0.4753
-5.46655,0,0,20.4666,20.4666,9.53345,9.53345,2.18662,1.75306,-2.42367,0.246561,0.0881415,0.313368,1,0,3.01,1.2775,-1.925,0.238022,0.062098,-0.700524,-0.07056,0.1309,0.4753
-5.46929,0,0,20.4693,20.4693,9.53071,9.53071,2.18772,1.7535,-2.42503,0.246553,0.0881606,0.313367,1,0,4.0775,0.2975,-1.82,0.238022,0.062098,-0.700524,-0.07056,0.1309,0.4753
-5.31722,0,0,20.3172,20.3172,9.68278,9.68278,2.12689,2.16004,-2.78146,0.330455,0.0599791,0.122718,0,0,4.4975,0.4025,-1.715,0.3294,0.035014,-0.889502,-0.07056,0.1309,0.4753
-5.17687,0,0,20.1769,20.1769,9.82313,9.82313,2.07075,2.561,-3.13448,0.323462,0.0589902,0.122466,0,0,6.7375,0.4725,-1.2075,0.3294,0.035014,-0.889502,-0.07476,0.13006,0.47768
-5.19241,0,0,20.1924,20.1924,9.80759,9.80759,2.07696,2.56146,-3.1347,0.105631,0.217985,0.221189,1,0,6.93,0.3325,-1.155,0.110654,0.193736,-0.791536,-0.07476,0.13006,0.47768
-5.20482,0,0,20.2048,20.2048,9.79518,9.79518,2.08193,2.5624,-3.13505,0.105614,0.218072,0.221185,1,0,6.23,0.6125,-1.2425,0.110654,0.193736,-0.791536,-0.07476,0.13006,0.47768
-4.97957,0,0,19.9796,19.9796,10.0204,10.0204,1.99183,2.48348,-3.07845,-0.0673415,0.0871717,0.08446,0,0,5.285,0.1575,-1.4875,-0.064416,0.064538,-0.927322,-0.07476,0.13006,0.47768
-4.74851,0,0,19.7485,19.7485,10.2515,10.2515,1.8994,2.40658,-3.02178,-0.0660007,0.0855629,0.0845719,0,0,3.0975,0.455,-1.5575,-0.064416,0.064538,-0.927322,-0.07476,0.13006,0.47768
-4.74868,0,0,19.7487,19.7487,10.2513,10.2513,1.89947,2.40668,-3.02274,-0.0325938,0.0152191,0.132399,1,0,3.5,0.105,-1.575,-0.030866,-0.005734,-0.879864,-0.07476,0.13006,0.47768
-4.75267,0,0,19.7527,19.7527,10.2473,10.2473,1.90107,2.40546,-3.02293,-0.0325726,0.015247,0.132399,1,0,4.34,-0.6475,-1.1025,-0.030866,-0.005734,-0.879864,-0.07476,0.13006,0.47768
-4.6975,0,0,19.6975,19.6975,10.3025,10.3025,1.879,2.43953,-3.05684,0.0341364,0.0227998,-0.0512987,0,0,4.4625,-0.56,-0.84,0.036722,0.002196,-1.06213,-0.07476,0.13006,0.47768
-4.65019,0,0,19.6502,19.6502,10.3498,10.3498,1.86007,2.47234,-3.0905,0.0335642,0.0224692,-0.0513125,0,0,6.0025,-0.8925,-0.7175,0.036722,0.002196,-1.06213,-0.07476,0.13006,0.47768
-4.65946,0,0,19.6595,19.6595,10.3405,10.3405,1.86379,2.4715,-3.08944,-0.0803747,0.231004,-0.295736,1,0,5.495,-0.4025,-0.385,-0.077714,0.21045,-1.30467,-0.07266,0.1288,0.4739
-4.666,0,0,19.666,19.666,10.334,10.334,1.8664,2.47119,-3.08708,-0.158849,-0.0323776,0.371751,1,0,4.8475,-0.07,0.3675,-0.156526,-0.052704,-0.64233,-0.07266,0.1288,0.4739
-4.651,0,0,19.651,19.651,10.349,10.349,1.8604,2.47166,-3.08391,-0.158857,-0.0324822,0.371754,1,0,0,0.4025,0.8225,-0.156526,-0.052704,-0.64233,-0.07266,0.1288,0.4739
-4.01405,0,0,19.0141,19.0141,10.9859,10.9859,1.60562,2.58075,-3.20084,0.104201,0.271445,-0.0538436,0,0,3.78,0.1575,0.875,0.109556,0.255346,-1.06469,-0.07266,0.1288,0.4739
-3.40788,0,0,18.4079,18.4079,11.5921,11.5921,1.36315,2.68582,-3.31808,0.102369,0.267217,-0.0538183,0,0,8.2775,-0.98,1.05,0.109556,0.255346,-1.06469,-0.07266,0.1288,0.4739
-3.41651,0,0,18.4165,18.4165,11.5835,11.5835,1.3666,2.68481,-3.31468,0.280728,0.148814,-0.239102,1,0,5.285,-0.4725,0.98,0.288652,0.137006,-1.24855,-0.07266,0.1288,0.4739
-3.42164,0,0,18.4216,18.4216,11.5784,11.5784,1.36866,2.68415,-3.31181,0.280739,0.14885,-0.239103,1,0,4.515,-0.28,0.665,0.288652,0.137006,-1.24855,-0.07266,0.1288,0.4739
-3.68798,0,0,18.688,18.688,11.312,11.312,1.47519,2.59164,-3.22359,-0.0784605,-0.0950105,0.0450596,0,0,5.74,-0.385,0.105,-0.073688,-0.108458,-0.966606,-0.07266,0.1288,0.4739
-3.94861,0,0,18.9486,18.9486,11.0514,11.0514,1.57944,2.50187,-3.13548,-0.0768953,-0.0931916,0.0450807,0,0,5.565,0.245,-0.875,-0.073688,-0.108458,-0.966606,-0.07574,0.12796,0.47026
-4.0344,0,0,19.0344,19.0344,10.9656,10.9656,1.61376,2.45209,-3.08695,-0.0444409,-0.029575,0.0315772,0,0,4.5675,0.875,-1.085,-0.041968,-0.045506,-0.980026,-0.07574,0.12796,0.47026
-4.11757,0,0,19.1176,19.1176,10.8824,10.8824,1.64703,2.40376,-3.04009,-0.0435981,-0.0289941,0.0315964,0,0,4.3575,1.12,-1.96,-0.041968,-0.045506,-0.980026,-0.07574,0.12796,0.47026
-3.65936,0,0,18.6594,18.6594,11.3406,11.3406,1.46374,2.2153,-2.89014,-0.176983,0.19265,-0.0498221,0,0,3.3775,0.91,-2.835,-0.179218,0.179096,-1.06103,-0.07574,0.12796,0.47026
-3.23212,0,0,18.2321,18.2321,11.7679,11.7679,1.29285,2.03026,-2.73986,-0.173756,0.189673,-0.0496308,0,0,8.5925,0.8575,-3.185,-0.179218,0.179096,-1.06103,-0.07574,0.12796,0.47026
-3.24086,0,0,18.2409,18.2409,11.7591,11.7591,1.29634,2.03219,-2.743,0.283118,0.145402,-0.100165,1,0,5.46,1.155,-2.87,0.279624,0.13481,-1.11118,-0.07574,0.12796,0.47026
-3.24681,0,0,18.2468,18.2468,11.7532,11.7532,1.29872,2.03356,-2.74662,0.283095,0.145443,-0.100167,1,0,4.8475,0.8225,-3.15,0.279624,0.13481,-1.11118,-0.07574,0.12796,0.47026
-3.30091,0,0,18.3009,18.3009,11.6991,11.6991,1.32036,1.64736,-2.40084,-0.334969,-0.0134277,0.0672507,0,0,6.4575,-0.105,-3.3775,-0.347822,-0.024278,-0.945256,-0.07574,0.12796,0.47026
-3.35216,0,0,18.3522,18.3522,11.6478,11.6478,1.34086,1.26871,-2.04779,-0.328363,-0.0130662,0.0674106,0,0,6.1425,0.21,-2.5375,-0.347822,-0.024278,-0.945256,-0.07644,0.12334,0.47026
-3.36247,0,0,18.3625,18.3625,11.6375,11.6375,1.34499,1.26926,-2.04967,0.134731,-0.0344886,-0.136686,1,0,5.775,0.3675,-2.1175,0.117242,-0.04575,-1.14778,-0.07644,0.12334,0.47026
-3.35041,0,0,18.3504,18.3504,11.6496,11.6496,1.34016,1.27001,-2.05109,0.134718,-0.0345728,-0.136684,1,0,0.7525,0.49,-1.855,0.117242,-0.04575,-1.14778,-0.07644,0.12334,0.47026
-3.3479,0,0,18.3479,18.3479,11.6521,11.6521,1.33916,1.27096,-2.0519,0.184146,-0.203003,-0.0718903,1,0,2.8875,0.6125,-1.505,0.166896,-0.213988,-1.08348,-0.07644,0.12334,0.47026
-3.3482,0,0,18.3482,18.3482,11.6518,11.6518,1.33928,1.27047,-2.0514,0.184154,-0.203001,-0.0718901,1,0,3.5,-0.21,-0.7175,0.166896,-0.213988,-1.08348,-0.07644,0.12334,0.47026
-3.91437,0,0,18.9144,18.9144,11.0856,11.0856,1.56575,1.32228,-2.05331,0.0388039,-0.214317,0.0658145,0,0,3.64,-0.315,-0.3675,0.021838,-0.229238,-0.94672,-0.07644,0.12334,0.47026
-4.47738,0,0,19.4774,19.4774,10.5226,10.5226,1.79095,1.37224,-2.05517,0.0379323,-0.21039,0.0656789,0,0,5.0925,-0.735,-0.4375,0.021838,-0.229238,-0.94672,-0.07644,0.12334,0.47026
-4.48645,0,0,19.4865,19.4865,10.5135,10.5135,1.79458,1.37164,-2.05407,-0.115737,-0.249407,-0.109647,1,0,5.46,-0.2625,-0.3675,-0.132492,-0.268278,-1.12069,-0.07644,0.12334,0.47026
-4.49366,0,0,19.4937,19.4937,10.5063,10.5063,1.79746,1.37161,-2.05284,-0.115736,-0.249357,-0.109649,1,0,5.04,0.07,-0.2975,-0.132492,-0.268278,-1.12069,-0.07672,0.12306,0.4725
-4.50196,0,0,19.502,19.502,10.498,10.498,1.80078,1.37205,-2.05165,-0.265657,-0.226461,-0.100307,1,0,5.285,0.35,-0.3325,-0.28304,-0.245464,-1.11142,-0.07672,0.12306,0.4725
-4.50854,0,0,19.5085,19.5085,10.4915,10.4915,1.80342,1.37294,-2.05048,-0.265673,-0.226415,-0.100309,1,0,4.9,0.6125,-0.35,-0.28304,-0.245464,-1.11142,-0.07672,0.12306,0.4725
-4.30531,0,0,19.3053,19.3053,10.6947,10.6947,1.72213,1.40561,-2.05933,0.0256874,0.0793153,0.079226,0,0,5.145,0.14,-0.4375,0.010126,0.061366,-0.9333,-0.07672,0.12306,0.4725
-4.10604,0,0,19.106,19.106,10.894,10.894,1.64242,1.43673,-2.06788,0.0251444,0.0779248,0.0792533,0,0,5.2325,-0.4025,-0.245,0.010126,0.061366,-0.9333,-0.07672,0.12306,0.4725
-4.11467,0,0,19.1147,19.1147,10.8853,10.8853,1.64587,1.4358,-2.0665,0.370302,-0.212921,-0.0167708,1,0,5.355,-0.455,-0.1925,0.356728,-0.229238,-1.02858,-0.07672,0.12306,0.4725
-4.12055,0,0,19.1205,19.1205,10.8795,10.8795,1.64822,1.43469,-2.06536,0.370321,-0.21288,-0.0167715,1,0,4.7425,-0.56,-0.3325,0.356728,-0.229238,-1.02858,-0.07672,0.12306,0.4725
-4.12469,0,0,19.1247,19.1247,10.8753,10.8753,1.64988,1.43354,-2.06455,0.0230134,-0.000716824,0.126463,1,0,4.3575,-0.595,-0.525,0.00793,-0.017324,-0.886452,-0.07672,0.12306,0.4725
-4.12124,0,0,19.1212,19.1212,10.8788,10.8788,1.6485,1.4337,-2.06289,0.0230106,-0.0007409,0.126464,1,0,2.6425,0.1925,-0.0525,0.00793,-0.017324,-0.886452,-0.07238,0.1211,0.4676
-4.23841,0,0,19.2384,19.2384,10.7616,10.7616,1.69536,1.44935,-2.04547,0.0153269,-0.0518276,-0.0483997,0,0,2.625,-0.2625,-0.105,0.000488,-0.069174,-1.05994,-0.07238,0.1211,0.4676
-4.35285,0,0,19.3529,19.3529,10.6471,10.6471,1.74114,1.46494,-2.02915,0.0150548,-0.0510295,-0.0484305,0,0,2.485,-0.1225,-0.7175,0.000488,-0.069174,-1.05994,-0.07238,0.1211,0.4676
-4.19242,0,0,19.1924,19.1924,10.8076,10.8076,1.67697,1.37589,-1.93019,-0.0749917,0.0635065,0.0338939,0,0,3.85,-0.2625,-0.8575,-0.0915,0.04636,-0.978318,-0.07238,0.1211,0.4676
-4.03463,0,0,19.0346,19.0346,10.9654,10.9654,1.61385,1.28967,-1.83034,-0.0734873,0.0624067,0.0339605,0,0,3.815,0.385,-0.3675,-0.0915,0.04636,-0.978318,-0.07238,0.1211,0.4676
-4.03526,0,0,19.0353,19.0353,10.9647,10.9647,1.6141,1.29001,-1.82943,-0.159383,-0.114673,-0.166077,1,0,3.57,0.28,-0.49,-0.177754,-0.13054,-1.17681,-0.07238,0.1211,0.4676
-4.03416,0,0,19.0342,19.0342,10.9658,10.9658,1.61367,1.29087,-1.83012,-0.159398,-0.11468,-0.166077,1,0,3.2025,0.56,-1.435,-0.177754,-0.13054,-1.17681,-0.07238,0.1211,0.4676
-4.03272,0,0,19.0327,19.0327,10.9673,10.9673,1.61309,1.29234,-1.83146,-0.0114546,-0.0233396,-0.325296,1,0,3.1325,0.91,-1.82,-0.029158,-0.039284,-1.3348,-0.07238,0.1211,0.4676
-4.031,0,0,19.031,19.031,10.969,10.969,1.6124,1.29494,-1.83354,-0.0115,-0.0233517,-0.325296,1,0,3.08,1.5575,-2.275,-0.029158,-0.039284,-1.3348,-0.07238,0.1211,0.4676
-4.31387,0,0,19.3139,19.3139,10.6861,10.6861,1.72555,1.39031,-1.8919,0.075885,-0.106135,0.0503378,0,0,4.0425,1.365,-2.66,0.060268,-0.123952,-0.96197,-0.0791,0.12852,0.47082
-4.03498,0,0,19.035,19.035,10.965,10.965,1.61399,1.53438,-2.01144,0.137151,0.118829,-0.0551594,0,0,4.795,0.3675,-2.7125,0.124318,0.102724,-1.06665,-0.0791,0.12852,0.47082
-3.76226,0,0,18.7623,18.7623,11.2377,11.2377,1.5049,1.67516,-2.13136,0.134695,0.116924,-0.0551764,0,0,5.1275,0.0525,-2.8175,0.124318,0.102724,-1.06665,-0.0791,0.12852,0.47082
-3.22511,0,0,18.2251,18.2251,11.7749,11.7749,1.29005,2.08719,-2.50075,0.327716,0.198905,0.17447,0,0,4.445,0.315,-2.5025,0.325374,0.188368,-0.838628,-0.0791,0.12852,0.47082
-2.68769,0,0,17.6877,17.6877,12.3123,12.3123,1.07508,2.49114,-2.87189,0.320672,0.195151,0.174266,0,0,2.6775,-0.1925,-2.3275,0.325374,0.188368,-0.838628,-0.0791,0.12852,0.47082
-2.05731,0,0,17.0573,17.0573,12.9427,12.9427,0.822923,2.69745,-3.07905,0.172992,0.240946,0.0775379,0,0,2.065,0.0525,-2.1875,0.180682,0.23851,-0.93452,-0.0791,0.12852,0.47082
-1.43698,0,0,16.437,16.437,13.563,13.563,0.57479,2.89995,-3.28739,0.169462,0.236619,0.0774181,0,0,2.065,0.0525,-2.1875,0.180682,0.23851,-0.93452,-0.0791,0.12852,0.47082
-0.238706,0,0,15.2387,15.2387,14.7613,14.7613,0.0954825,3.03597,-3.45451,0.118862,0.475937,0.129597,0,0,2.0825,0.1925,-1.0675,0.132248,0.485926,-0.88267,-0.07462,0.1155,0.47432
-0.691371,0,0,15.6914,15.6914,14.3086,14.3086,0.276548,3.04968,-3.43725,0.0120799,-0.180025,0.0101912,0,0,4.0425,-0.28,-0.49,0.025254,-0.172508,-1.00113,-0.07462,0.1155,0.47432
-1.13633,0,0,16.1363,16.1363,13.8637,13.8637,0.45453,3.06309,-3.42014,0.0118462,-0.176923,0.0101589,0,0,4.0425,-0.28,-0.49,0.025254,-0.172508,-1.00113,-0.07462,0.1155,0.47432
-1.1364,0,0,16.1364,16.1364,13.8636,13.8636,0.45456,3.06328,-3.41809,-0.126286,-0.38063,-0.233156,1,0,3.395,0.1925,0.175,-0.11346,-0.376004,-1.24257,-0.07462,0.1155,0.47432
-1.13647,0,0,16.1365,16.1365,13.8635,13.8635,0.45459,3.06348,-3.41604,-0.12629,-0.38063,-0.233157,1,0,3.395,0.1925,0.175,-0.11346,-0.376004,-1.24257,-0.07462,0.1155,0.47432
-1.0614,0,0,16.0614,16.0614,13.9386,13.9386,0.424558,3.19594,-3.52801,0.121176,0.0269937,0.00376599,0,0,2.1,-0.28,0.5075,0.137372,0.03172,-1.00735,-0.07462,0.1155,0.47432
-0.987587,0,0,15.9876,15.9876,14.0124,14.0124,0.395035,3.32588,-3.63984,0.118912,0.0264783,0.00364066,0,0,2.1,-0.28,0.5075,0.137372,0.03172,-1.00735,-0.07462,0.1155,0.47432
-0.98441,0,0,15.9844,15.9844,14.0156,14.0156,0.393764,3.33307,-3.63778,0.0986202,0.0275553,-0.19124,1,0,2.66,4.2875,0.1575,0.11712,0.032818,-1.20072,-0.07462,0.1155,0.47432
-0.981234,0,0,15.9812,15.9812,14.0188,14.0188,0.392494,3.34026,-3.63571,0.098495,0.0275331,-0.191247,1,0,2.66,4.2875,0.1575,0.11712,0.032818,-1.20072,-0.06944,0.12026,0.47614
-0.98561,0,0,15.9856,15.9856,14.0144,14.0144,0.394244,3.34655,-3.63378,-0.0329407,0.152621,0.185461,1,0,4.3575,3.7625,0.0875,-0.014762,0.157746,-0.826916,-0.06944,0.12026,0.47614
-0.989986,0,0,15.99,15.99,14.01,14.01,0.395994,3.35284,-3.63184,-0.0330503,0.152652,0.185454,1,0,4.3575,3.7625,0.0875,-0.014762,0.157746,-0.826916,-0.06944,0.12026,0.47614
-0.996181,0,0,15.9962,15.9962,14.0038,14.0038,0.398473,3.23243,-3.52734,-0.111497,-0.00301581,-0.0341346,0,0,3.0275,0.1225,-1.365,-0.095648,0.002196,-1.04493,-0.06944,0.12026,0.47614
-1.0022,0,0,16.0022,16.0022,13.9978,13.9978,0.40088,3.1143,-3.42302,-0.109439,-0.00297306,-0.0340208,0,0,3.0275,0.1225,-1.365,-0.095648,0.002196,-1.04493,-0.06944,0.12026,0.47614
-1.1979,0,0,16.1979,16.1979,13.8021,13.8021,0.479161,3.04163,-3.34872,-0.0678389,-0.0886846,-0.0901506,0,0,1.8375,0.595,-1.1375,-0.055144,-0.08479,-1.10068,-0.06944,0.12026,0.47614
-1.19833,0,0,16.1983,16.1983,13.8017,13.8017,0.479333,3.04214,-3.34928,-0.151066,0.0739912,-0.289819,1,0,3.5525,0.3675,-1.3475,-0.138714,0.077714,-1.29881,-0.06944,0.12026,0.47614
-1.19783,0,0,16.1978,16.1978,13.8022,13.8022,0.479134,3.0423,-3.35036,-0.151068,0.0739877,-0.28982,1,0,3.36,0.1575,-1.645,-0.138714,0.077714,-1.29881,-0.06944,0.12026,0.47614
-1.40953,0,0,16.4095,16.4095,13.5905,13.5905,0.563814,3.05809,-3.35628,0.0163068,-0.0874537,-0.0317788,0,0,3.6925,0.525,-1.925,0.029646,-0.085034,-1.04273,-0.06944,0.12026,0.47614
-1.61652,0,0,16.6165,16.6165,13.3835,13.3835,0.646606,3.07382,-3.37063,0.0160326,-0.086011,-0.0318087,0,0,3.4475,1.015,-2.135,0.029646,-0.085034,-1.04273,-0.0749,0.1267,0.476
-1.70265,0,0,16.7026,16.7026,13.2974,13.2974,0.681059,3.13235,-3.42776,0.0464774,-0.0348508,0.0505045,0,0,2.1175,1.1025,-2.0825,0.061244,-0.034526,-0.960994,-0.0749,0.1267,0.476
-1.78373,0,0,16.7837,16.7837,13.2163,13.2163,0.713493,3.18769,-3.48454,0.0455129,-0.0342863,0.0504444,0,0,1.3125,-0.105,-1.96,0.061244,-0.034526,-0.960994,-0.0749,0.1267,0.476
-2.39744,0,0,17.3974,17.3974,12.6026,12.6026,0.958975,3.03741,-3.3367,-0.13276,-0.24727,0.0382295,0,0,1.1375,-0.14,-1.9425,-0.120414,-0.251564,-0.973194,-0.0749,0.1267,0.476
-3.00495,0,0,18.0049,18.0049,11.9951,11.9951,1.20198,2.88987,-3.1909,-0.130189,-0.243033,0.0382828,0,0,2.1175,-0.2275,-2.1,-0.120414,-0.251564,-0.973194,-0.0749,0.1267,0.476
-2.70893,0,0,17.7089,17.7089,12.2911,12.2911,1.08357,2.69111,-3.0309,-0.172281,0.111029,0.0709512,0,0,2.17,0.35,-1.9075,-0.166164,0.104188,-0.940986,-0.0749,0.1267,0.476
-2.4231,0,0,17.4231,17.4231,12.5769,12.5769,0.969242,2.49675,-2.87096,-0.168892,0.109038,0.0711404,0,0,3.36,0.77,-2.2575,-0.166164,0.104188,-0.940986,-0.0749,0.1267,0.476
-2.42203,0,0,17.422,17.422,12.578,12.578,0.968813,2.49848,-2.87252,0.0338373,0.0739803,0.320971,1,0,3.2375,1.0675,-1.9425,0.037454,0.069174,-0.693082,-0.0749,0.1267,0.476
-2.42076,0,0,17.4208,17.4208,12.5792,12.5792,0.968302,2.49898,-2.87383,0.0338286,0.0739714,0.32097,1,0,3.185,0.35,-1.785,0.037454,0.069174,-0.693082,-0.07616,0.13006,0.46844
-2.17589,0,0,17.1759,17.1759,12.8241,12.8241,0.870356,2.76639,-3.12363,0.223786,0.0913123,0.08546,0,0,2.5375,0.245,-1.365,0.232898,0.088206,-0.92659,-0.07616,0.13006,0.46844
-1.93592,0,0,16.9359,16.9359,13.0641,13.0641,0.774368,3.02791,-3.37347,0.219228,0.089636,0.0852533,0,0,2.7825,-0.28,-1.2425,0.232898,0.088206,-0.92659,-0.07616,0.13006,0.46844
-1.93179,0,0,16.9318,16.9318,13.0682,13.0682,0.772718,3.02738,-3.37365,-0.166966,0.329708,0.308037,1,0,2.52,-0.245,-1.12,-0.15494,0.328058,-0.705526,-0.07616,0.13006,0.46844
-1.93121,0,0,16.9312,16.9312,13.0688,13.0688,0.772485,3.02698,-3.37299,-0.166959,0.329704,0.308037,1,0,3.29,-0.1575,-0.63,-0.15494,0.328058,-0.705526,-0.07616,0.13006,0.46844
-0.609309,0,0,15.6093,15.6093,14.3907,14.3907,0.243724,3.00642,-3.41399,-0.0352744,0.52786,0.150272,0,0,3.1675,-0.0525,-0.56,-0.023058,0.535214,-0.862174,-0.07616,0.13006,0.46844
0.697787,0,0,14.3022,14.3022,15.6978,15.6978,-0.279115,2.98559,-3.45407,-0.0349114,0.518748,0.150288,0,0,2.1175,-0.21,-0.28,-0.023058,0.535214,-0.862174,-0.07616,0.13006,0.46844
0.703798,0,0,14.2962,14.2962,15.7038,15.7038,-0.281519,2.98489,-3.45196,0.136396,0.270544,-0.134829,1,0,2.03,-0.35,0.21,0.148962,0.28731,-1.14509,-0.07616,0.13006,0.46844
0.716657,0,0,14.2833,14.2833,15.7167,15.7167,-0.286663,2.98371,-3.4497,0.136416,0.270454,-0.134828,1,0,0.49,-0.63,0.2975,0.148962,0.28731,-1.14509,-0.07504,0.1183,0.4676
0.724969,0,0,14.275,14.275,15.725,15.725,-0.289988,2.98166,-3.44728,0.210072,-0.164741,0.350451,1,0,1.505,-1.1375,0.385,0.222894,-0.147376,-0.663558,-0.07504,0.1183,0.4676
0.732233,0,0,14.2678,14.2678,15.7322,15.7322,-0.292893,2.97979,-3.4446,0.210105,-0.164792,0.350452,1,0,1.7325,-1.0325,0.5425,0.222894,-0.147376,-0.663558,-0.07504,0.1183,0.4676
0.892865,0,0,14.1071,14.1071,15.8929,15.8929,-0.357146,2.79283,-3.27515,-0.162149,0.0588005,0.0776647,0,0,2.695,-0.805,0.21,-0.154208,0.077104,-0.934398,-0.07504,0.1183,0.4676
1.05089,0,0,13.9491,13.9491,16.0509,16.0509,-0.420356,2.6093,-3.10548,-0.158949,0.0576976,0.0778082,0,0,2.695,-0.805,0.21,-0.154208,0.077104,-0.934398,-0.07504,0.1183,0.4676
1.72546,0,0,13.2745,13.2745,16.7255,16.7255,-0.690185,2.83344,-3.32722,0.194797,0.257436,0.107945,0,0,3.325,0.385,-0.28,0.20496,0.281332,-0.904264,-0.07504,0.1183,0.4676
2.38948,0,0,12.6105,12.6105,17.3895,17.3895,-0.955791,3.05368,-3.55048,0.190959,0.252809,0.107681,0,0,3.325,0.385,-0.28,0.20496,0.281332,-0.904264,-0.07504,0.1183,0.4676
2.10523,0,0,12.8948,12.8948,17.1052,17.1052,-0.842092,3.38099,-3.83373,0.299573,-0.117203,0.0678024,0,0,3.64,0.735,-0.9275,0.319762,-0.09028,-0.943548,-0.07504,0.1183,0.4676
1.82536,0,0,13.1746,13.1746,16.8254,16.8254,-0.730143,3.70053,-4.12645,0.294007,-0.115248,0.0674847,0,0,3.64,0.735,-0.9275,0.319762,-0.09028,-0.943548,-0.0735,0.12586,0.46942
1.82179,0,0,13.1782,13.1782,16.8218,16.8218,-0.728716,3.7286,-4.17131,0.0251558,-0.000667769,0.00622496,0,0,4.0425,0.315,-1.8375,0.050264,0.024156,-1.0043,-0.0735,0.12586,0.46942
1.39501,0,0,13.605,13.605,16.395,16.395,-0.558003,3.73392,-4.17607,0.0110922,-0.181862,-0.040837,0,0,2.4325,0.6125,-2.3275,0.036234,-0.15982,-1.05103,-0.0735,0.12586,0.46942
0.976802,0,0,14.0232,14.0232,15.9768,15.9768,-0.390721,3.73863,-4.18186,0.0110103,-0.178948,-0.0408182,0,0,2.17,0.28,-2.87,0.036234,-0.15982,-1.05103,-0.0735,0.12586,0.46942
0.985494,0,0,14.0145,14.0145,15.9855,15.9855,-0.394198,3.73911,-4.18514,0.00286231,-0.259002,-0.0802856,1,0,1.61,0.3675,-2.9225,0.02806,-0.23973,-1.09019,-0.0735,0.12586,0.46942
0.993206,0,0,14.0068,14.0068,15.9932,15.9932,-0.397282,3.73879,-4.18862,0.00286789,-0.259056,-0.0802856,1,0,1.8375,-0.105,-3.045,0.02806,-0.23973,-1.09019,-0.0735,0.12586,0.46942
0.993992,0,0,14.006,14.006,15.994,15.994,-0.397597,3.7391,-4.19175,-0.0955409,-0.281044,-0.13967,1,0,3.3775,0.2625,-2.835,-0.07076,-0.26169,-1.14912,-0.0735,0.12586,0.46942
0.993252,0,0,14.0067,14.0067,15.9933,15.9933,-0.397301,3.73945,-4.19412,-0.0955469,-0.281039,-0.139671,1,0,3.6925,0.28,-2.3975,-0.07076,-0.26169,-1.14912,-0.0735,0.12586,0.46942
0.992165,0,0,14.0078,14.0078,15.9922,15.9922,-0.396866,3.73994,-4.19677,0.11753,-0.373848,-0.0973767,1,0,3.78,0.3675,-2.555,0.143228,-0.35441,-1.10715,-0.07378,0.1225,0.47586
0.990936,0,0,14.0091,14.0091,15.9909,15.9909,-0.396374,3.74008,-4.19854,0.117528,-0.373839,-0.0973768,1,0,3.78,0.1575,-2.0475,0.143228,-0.35441,-1.10715,-0.07378,0.1225,0.47586
0.994672,0,0,14.0053,14.0053,15.9947,15.9947,-0.397869,3.74047,-4.19917,-0.0292334,-0.369591,-0.113361,1,0,2.625,0.2975,-1.3825,-0.004148,-0.35014,-1.12301,-0.07378,0.1225,0.47586
0.997958,0,0,14.002,14.002,15.998,15.998,-0.399183,3.74086,-4.19944,0.0011312,-0.0197204,-0.148893,1,0,2.7125,0.2975,-1.1725,0.026352,-0.00061,-1.15827,-0.07378,0.1225,0.47586
1.00225,0,0,13.9978,13.9978,16.0022,16.0022,-0.400899,3.74125,-4.19917,0.00112437,-0.0197503,-0.148894,1,0,2.4675,0.2975,-0.8575,0.026352,-0.00061,-1.15827,-0.07378,0.1225,0.47586
1.00162,0,0,13.9984,13.9984,16.0016,16.0016,-0.400649,3.74117,-4.19794,0.109977,-0.139308,0.192657,1,0,3.535,0.0175,-0.2975,0.135664,-0.120048,-0.819352,-0.07378,0.1225,0.47586
0.997873,0,0,14.0021,14.0021,15.9979,15.9979,-0.399149,3.74106,-4.19622,0.109979,-0.139282,0.192657,1,0,4.2175,0,-0.0175,0.135664,-0.120048,-0.819352,-0.07378,0.1225,0.47586
0.995533,0,0,14.0045,14.0045,15.9955,15.9955,-0.398213,3.73997,-4.19501,-0.00602103,-0.136457,-0.180121,1,0,3.92,-0.5775,-0.315,0.019154,-0.117242,-1.18926,-0.07378,0.1225,0.47586
0.993925,0,0,14.0061,14.0061,15.9939,15.9939,-0.39757,3.73963,-4.19254,-0.00601512,-0.136445,-0.180121,1,0,3.71,-0.14,0.42,0.019154,-0.117242,-1.18926,-0.07182,0.1253,0.47054
0.992965,0,0,14.007,14.007,15.993,15.993,-0.397186,3.73935,-4.19022,0.0902064,-0.117021,-0.427616,1,0,3.57,-0.105,0.3325,0.115778,-0.097844,-1.43484,-0.07182,0.1253,0.47054
0.997088,0,0,14.0029,14.0029,15.9971,15.9971,-0.398835,3.73865,-4.18796,0.0902186,-0.117049,-0.427615,1,0,2.4325,-0.35,0.2975,0.115778,-0.097844,-1.43484,-0.07182,0.1253,0.47054
0.863084,0,0,14.1369,14.1369,15.8631,15.8631,-0.345234,3.38691,-3.87689,-0.348049,-0.0554212,-0.044489,0,0,4.095,-1.0325,0.0875,-0.330498,-0.03721,-1.05506,-0.07182,0.1253,0.47054
0.72806,0,0,14.2719,14.2719,15.7281,15.7281,-0.291224,3.04333,-3.56695,-0.342062,-0.0544819,-0.0441474,0,0,4.935,0.105,0.035,-0.330498,-0.03721,-1.05506,-0.07182,0.1253,0.47054
0.719966,0,0,14.28,14.28,15.72,15.72,-0.287986,3.044,-3.56502,0.0568857,-0.225647,0.422565,1,0,5.1975,0.455,0.105,0.07015,-0.208254,-0.591944,-0.07182,0.1253,0.47054
0.717618,0,0,14.2824,14.2824,15.7176,15.7176,-0.287047,3.04403,-3.56406,0.056885,-0.225631,0.422565,1,0,3.9375,0.0875,-0.455,0.07015,-0.208254,-0.591944,-0.07182,0.1253,0.47054
0.725248,0,0,14.2748,14.2748,15.7252,15.7252,-0.290099,3.04416,-3.56361,-0.138952,-0.301525,0.242445,1,0,1.715,0.14,-0.7525,-0.126514,-0.284016,-0.770674,-0.07182,0.1253,0.47054
0.732968,0,0,14.267,14.267,15.733,15.733,-0.293187,3.0441,-3.56325,-0.138951,-0.301579,0.242445,1,0,1.6975,0.035,-0.805,-0.126514,-0.284016,-0.770674,-0.07378,0.12978,0.47586
0.742441,0,0,14.2576,14.2576,15.7424,15.7424,-0.296976,3.04413,-3.56315,0.223319,0.1247,-0.406601,1,0,1.3125,0.0875,-0.9625,0.23729,0.141886,-1.41471,-0.07378,0.12978,0.47586
0.751904,0,0,14.2481,14.2481,15.7519,15.7519,-0.300762,3.04297,-3.56417,0.223339,0.124634,-0.4066,1,0,1.3475,-0.6125,-1.61,0.23729,0.141886,-1.41471,-0.07378,0.12978,0.47586
0.757073,0,0,14.2429,14.2429,15.7571,15.7571,-0.302829,3.04177,-3.56575,0.0699235,-0.0440592,-0.281561,1,0,2.3275,-0.63,-1.9425,0.083204,-0.026596,-1.29064,-0.07378,0.12978,0.47586
0.761461,0,0,14.2385,14.2385,15.7615,15.7615,-0.304585,3.04271,-3.56791,0.069907,-0.0440897,-0.281562,1,0,2.52,0.63,-2.275,0.083204,-0.026596,-1.29064,-0.07378,0.12978,0.47586
1.02423,0,0,13.9758,13.9758,16.0242,16.0242,-0.409691,2.97769,-3.53316,-0.0627155,0.0978212,0.0742995,0,0,3.29,0.7875,-2.5025,-0.051118,0.116998,-0.93757,-0.07378,0.12978,0.47586
1.28225,0,0,13.7177,13.7177,16.2823,16.2823,-0.512901,2.91457,-3.49868,-0.0616152,0.0960218,0.0743417,0,0,3.36,1.225,-2.7825,-0.051118,0.116998,-0.93757,-0.07378,0.12978,0.47586
1.45599,0,0,13.544,13.544,16.456,16.456,-0.582398,2.79051,-3.40459,-0.113028,0.0642777,0.078741,0,0,3.43,1.0325,-2.94,-0.10492,0.086498,-0.9333,-0.07378,0.12978,0.47586
1.62544,0,0,13.3746,13.3746,16.6254,16.6254,-0.650175,2.66876,-3.31256,-0.110905,0.0630951,0.0788295,0,0,3.7275,0.9275,-2.73,-0.10492,0.086498,-0.9333,-0.07266,0.13146,0.46998
1.93216,0,0,13.0678,13.0678,16.9322,16.9322,-0.772862,2.69831,-3.36236,0.0281665,0.130935,-0.0465057,0,0,3.3075,0.9275,-2.6425,0.035258,0.156404,-1.05762,-0.07266,0.13146,0.46998
2.23284,0,0,12.7672,12.7672,17.2328,17.2328,-0.893136,2.72573,-3.41234,0.0276885,0.128839,-0.0465588,0,0,3.5,0.0175,-2.765,0.035258,0.156404,-1.05762,-0.07266,0.13146,0.46998
2.23426,0,0,12.7657,12.7657,17.2343,17.2343,-0.893703,2.72611,-3.41472,-0.0565078,0.0592168,-0.106681,1,0,3.185,0.315,-2.3975,-0.049288,0.086864,-1.11728,-0.07266,0.13146,0.46998
2.24204,0,0,12.758,12.758,17.242,17.242,-0.896817,2.72729,-3.41617,-0.0565283,0.0591626,-0.106683,1,0,1.7325,0.77,-1.855,-0.049288,0.086864,-1.11728,-0.07266,0.13146,0.46998
1.97708,0,0,13.0229,13.0229,16.9771,16.9771,-0.790834,2.61341,-3.31163,-0.105931,-0.110335,0.00286102,0,0,1.5225,0.385,-0.875,-0.100894,-0.084302,-1.0087,-0.07266,0.13146,0.46998
1.71671,0,0,13.2833,13.2833,16.7167,16.7167,-0.686683,2.50164,-3.20772,-0.103982,-0.10852,0.00297147,0,0,1.5225,0.385,-0.875,-0.100894,-0.084302,-1.0087,-0.07266,0.13146,0.46998
2.52488,0,0,12.4751,12.4751,17.5249,17.5249,-1.00995,2.54393,-3.2811,0.0314655,0.307914,0.0981406,0,0,1.1025,-0.63,0.175,0.035868,0.33733,-0.914146,-0.07266,0.13146,0.46998
3.32008,0,0,11.6799,11.6799,18.3201,18.3201,-1.32803,2.58539,-3.35475,0.0307427,0.30237,0.0979951,0,0,1.1025,-0.63,0.175,0.035868,0.33733,-0.914146,-0.07266,0.13146,0.46998
3.3468,0,0,11.6532,11.6532,18.3468,18.3468,-1.33872,2.50326,-3.27614,-0.0766764,0.0106657,-0.00509941,0,0,3.0275,-0.5775,1.2075,-0.073444,0.046116,-1.0165,-0.07462,0.12502,0.4753
3.42657,0,0,11.5734,11.5734,18.4266,18.4266,-1.37063,2.35142,-3.13291,-0.141575,0.0314789,0.0193434,0,0,3.185,-0.35,1.3825,-0.141276,0.067466,-0.992348,-0.07462,0.12502,0.4753
3.5009,0,0,11.4991,11.4991,18.5009,18.5009,-1.40036,2.20137,-2.99068,-0.138958,0.0309581,0.0194349,0,0,4.1475,-0.8925,0.77,-0.141276,0.067466,-0.992348,-0.07462,0.12502,0.4753
3.50094,0,0,11.4991,11.4991,18.5009,18.5009,-1.40037,2.20044,-2.98739,0.212273,0.00970772,-0.240601,1,0,3.36,-0.525,0.8925,0.211426,0.046238,-1.25038,-0.07462,0.12502,0.4753
3.50097,0,0,11.499,11.499,18.501,18.501,-1.40039,2.19951,-2.98409,0.21229,0.00970744,-0.2406,1,0,3.36,-0.525,0.8925,0.211426,0.046238,-1.25038,-0.07462,0.12502,0.4753
3.49845,0,0,11.5016,11.5016,18.4984,18.4984,-1.39938,2.19975,-2.98172,-0.0672531,0.278526,-0.0984712,1,0,3.955,0.175,0.3675,-0.069296,0.31476,-1.10935,-0.07462,0.12502,0.4753
3.49592,0,0,11.5041,11.5041,18.4959,18.4959,-1.39837,2.19998,-2.97935,-0.0672573,0.278544,-0.0984709,1,0,3.955,0.175,0.3675,-0.069296,0.31476,-1.10935,-0.07462,0.12502,0.4753
3.49741,0,0,11.5026,11.5026,18.4974,18.4974,-1.39896,2.19848,-2.97973,-0.0196087,-0.520664,-0.000603179,1,0,3.115,-0.805,-1.26,-0.021472,-0.483608,-1.01223,-0.0742,0.12642,0.46872
4.40919,0,0,10.5908,10.5908,19.4092,19.4092,-1.76368,2.29385,-3.10024,0.0920743,0.375985,0.0617369,0,0,2.0475,-0.21,-2.17,0.092354,0.41846,-0.950136,-0.0742,0.12642,0.46872
5.30676,0,0,9.69324,9.69324,20.3068,20.3068,-2.1227,2.38754,-3.22167,0.0904405,0.36973,0.0614578,0,0,2.0475,-0.21,-2.17,0.092354,0.41846,-0.950136,-0.0742,0.12642,0.46872
5.15492,0,0,9.84508,9.84508,20.1549,20.1549,-2.06197,2.48793,-3.31217,0.10424,-0.0653239,-0.0548873,0,0,2.8175,0.35,-2.94,0.10797,-0.017202,-1.06555,-0.0742,0.12642,0.46872
5.00563,0,0,9.99437,9.99437,20.0056,20.0056,-2.00225,2.58651,-3.40239,0.102521,-0.0642807,-0.0549265,0,0,2.8175,0.35,-2.94,0.10797,-0.017202,-1.06555,-0.0742,0.12642,0.46872
5.00616,0,0,9.99384,9.99384,20.0062,20.0062,-2.00246,2.58631,-3.40667,-0.0603875,0.0850767,0.161094,1,0,3.43,0.035,-3.5175,-0.055632,0.132004,-0.851194,-0.0742,0.12642,0.46872
5.00668,0,0,9.99332,9.99332,20.0067,20.0067,-2.00267,2.5861,-3.41096,-0.0603839,0.085073,0.161094,1,0,3.43,0.035,-3.5175,-0.055632,0.132004,-0.851194,-0.0742,0.12642,0.46872
4.11837,0,0,10.8816,10.8816,19.1184,19.1184,-1.64735,2.52269,-3.32151,-0.0635303,-0.386496,-0.0080823,0,0,2.7125,0.6475,-3.185,-0.059902,-0.34526,-1.01931,-0.0742,0.12642,0.46872
3.24382,0,0,11.7562,11.7562,18.2438,18.2438,-1.29753,2.45739,-3.24028,-0.0623916,-0.3804,-0.00787606,0,0,2.7125,0.6475,-3.185,-0.059902,-0.34526,-1.01931,-0.07672,0.13188,0.47376
3.252,0,0,11.748,11.748,18.252,18.252,-1.3008,2.45802,-3.24272,-0.186683,-0.0553554,-0.125171,1,0,1.6625,0.4725,-2.4325,-0.184708,-0.020496,-1.1357,-0.07672,0.13188,0.47376
3.25814,0,0,11.7419,11.7419,18.2581,18.2581,-1.30326,2.45939,-3.24422,0.212738,0.119487,0.148388,1,0,2.1,0.8925,-1.8725,0.216428,0.154208,-0.864248,-0.07672,0.13188,0.47376
3.2684,0,0,11.7316,11.7316,18.2684,18.2684,-1.30736,2.46062,-3.24563,0.212717,0.119416,0.148385,1,0,1.1725,0.805,-1.82,0.216428,0.154208,-0.864248,-0.07672,0.13188,0.47376
2.70504,0,0,12.295,12.295,17.705,17.705,-1.08202,2.68731,-3.44001,0.234641,-0.25439,-0.0262974,0,0,1.2775,1.015,-1.4875,0.242414,-0.223138,-1.03749,-0.07672,0.13188,0.47376
2.14627,0,0,12.8537,12.8537,17.1463,17.1463,-0.858506,2.90941,-3.63182,0.230769,-0.250491,-0.0264207,0,0,2.24,0.6825,-1.12,0.242414,-0.223138,-1.03749,-0.07672,0.13188,0.47376
2.21745,0,0,12.7826,12.7826,17.2174,17.2174,-0.886978,2.96468,-3.69669,0.0536516,0.0273401,-0.032748,0,0,1.96,0.84,-0.665,0.065514,0.0549,-1.04371,-0.07672,0.13188,0.47376
2.28111,0,0,12.7189,12.7189,17.2811,17.2811,-0.912444,3.01707,-3.7604,0.0527386,0.026897,-0.0328027,0,0,3.3425,-0.2625,-0.0525,0.065514,0.0549,-1.04371,-0.07672,0.13188,0.47376
2.05554,0,0,12.9445,12.9445,17.0555,17.0555,-0.822216,3.14438,-3.88173,0.106403,-0.0859616,0.097796,0,0,3.465,-0.3675,0.175,0.121634,-0.059414,-0.914024,-0.07672,0.13188,0.47376
1.83119,0,0,13.1688,13.1688,16.8312,16.8312,-0.732477,3.26948,-3.99772,0.104223,-0.0843963,0.097695,0,0,4.025,-0.56,0.56,0.121634,-0.059414,-0.914024,-0.0763,0.12908,0.46676
1.83153,0,0,13.1685,13.1685,16.8315,16.8315,-0.732613,3.26772,-3.99541,0.223188,0.212491,0.198269,1,0,3.29,-0.98,0.315,0.241072,0.237168,-0.814228,-0.0763,0.12908,0.46676
1.83262,0,0,13.1674,13.1674,16.8326,16.8326,-0.733048,3.26626,-3.9929,0.223214,0.212484,0.19827,1,0,3.115,-0.805,0.4375,0.241072,0.237168,-0.814228,-0.0763,0.12908,0.46676
2.09202,0,0,12.908,12.908,17.092,17.092,-0.83681,3.35993,-4.10184,0.083574,0.101252,0.0297113,0,0,2.555,-0.42,0.7,0.10248,0.127856,-0.981368,-0.0763,0.12908,0.46676
2.3485,0,0,12.6515,12.6515,17.3485,17.3485,-0.939401,3.45167,-4.21082,0.0819756,0.099466,0.0295885,0,0,2.24,-0.525,0.7175,0.10248,0.127856,-0.981368,-0.0763,0.12908,0.46676
2.35359,0,0,12.6464,12.6464,17.3536,17.3536,-0.941436,3.44942,-4.20805,-0.0110432,-0.0415037,-0.307535,1,0,2.205,-1.2775,0.5775,0.009028,-0.012932,-1.31589,-0.0763,0.12908,0.46676
2.36276,0,0,12.6372,12.6372,17.3628,17.3628,-0.945106,3.44805,-4.20598,-0.0110194,-0.0415677,-0.307534,1,0,1.3125,-0.7525,0.175,0.009028,-0.012932,-1.31589,-0.0763,0.12908,0.46676
2.37108,0,0,12.6289,12.6289,17.3711,17.3711,-0.948431,3.44637,-4.20442,-0.0655373,0.0917368,0.218563,1,0,1.5225,-0.9275,-0.1225,-0.04575,0.120292,-0.793854,-0.0763,0.12908,0.46676
2.38253,0,0,12.6175,12.6175,17.3825,17.3825,-0.953012,3.4454,-4.20401,-0.0655202,0.091657,0.218563,1,0,0.8575,-0.5075,-0.7875,-0.04575,0.120292,-0.793854,-0.07714,0.1344,0.4746
2.39153,0,0,12.6085,12.6085,17.3915,17.3915,-0.956614,3.44417,-4.20444,-0.0871233,-0.14924,0.111475,1,0,1.435,-0.6475,-1.2775,-0.067466,-0.120292,-0.900116,-0.07714,0.1344,0.4746
2.39931,0,0,12.6007,12.6007,17.3993,17.3993,-0.959724,3.44425,-4.20657,-0.0871248,-0.149294,0.111474,1,0,1.7675,0.14,-2.2575,-0.067466,-0.120292,-0.900116,-0.07714,0.1344,0.4746
2.40699,0,0,12.593,12.593,17.407,17.407,-0.962797,3.44515,-4.20859,0.246824,-0.1673,-0.230816,1,0,1.785,0.6125,-2.1875,0.267912,-0.138226,-1.23976,-0.07714,0.1344,0.4746
2.40809,0,0,12.5919,12.5919,17.4081,17.4081,-0.963234,3.44608,-4.21194,0.246808,-0.167308,-0.230817,1,0,3.3075,0.6475,-2.9575,0.267912,-0.138226,-1.23976,-0.07714,0.1344,0.4746
2.34994,0,0,12.6501,12.6501,17.3499,17.3499,-0.939974,3.24005,-4.04884,-0.202623,-0.0245061,-0.0478996,0,0,2.9225,0.84,-3.6575,-0.187026,0.004026,-1.05847,-0.07714,0.1344,0.4746
2.29532,0,0,12.7047,12.7047,17.2953,17.2953,-0.91813,3.03814,-3.88622,-0.199104,-0.0241286,-0.0477005,0,0,2.38,1.0675,-3.71,-0.187026,0.004026,-1.05847,-0.07714,0.1344,0.4746
2.70067,0,0,12.2993,12.2993,17.7007,17.7007,-1.08027,2.8937,-3.79015,-0.148235,0.17382,-0.0423325,0,0,2.0475,1.155,-3.535,-0.13847,0.204594,-1.05323,-0.07714,0.1344,0.4746
3.099,0,0,11.901,11.901,18.099,18.099,-1.2396,2.75023,-3.68298,-0.145734,0.17104,-0.0422655,0,0,2.0475,1.155,-3.535,-0.13847,0.204594,-1.05323,-0.07532,0.12698,0.4655
3.17955,0,0,11.8205,11.8205,18.1795,18.1795,-1.27182,3.08635,-4.00104,0.308838,0.0239334,0.0790196,0,0,1.1725,1.3825,-2.555,0.32391,0.058194,-0.932568,-0.07532,0.12698,0.4655
3.2591,0,0,11.7409,11.7409,18.2591,18.2591,-1.30364,3.41664,-4.31886,0.303082,0.0233864,0.0786803,0,0,1.1725,1.3825,-2.555,0.32391,0.058194,-0.932568,-0.07532,0.12698,0.4655
3.4988,0,0,11.5012,11.5012,18.4988,18.4988,-1.39952,3.41997,-4.34711,0.00186126,0.0960917,-0.00927075,0,0,1.715,0.175,-1.1025,0.021472,0.132492,-1.0198,-0.07532,0.12698,0.4655
3.73447,0,0,11.2655,11.2655,18.7345,18.7345,-1.49379,3.42321,-4.37527,0.00180488,0.09445,-0.00931558,0,0,1.715,0.175,-1.1025,0.021472,0.132492,-1.0198,-0.07532,0.12698,0.4655
3.74086,0,0,11.2591,11.2591,18.7409,18.7409,-1.49634,3.41554,-4.37284,-0.245042,-0.188807,0.252694,1,0,1.925,-4.4625,0.28,-0.226554,-0.150426,-0.759816,-0.07532,0.12698,0.4655
3.74725,0,0,11.2527,11.2527,18.7473,18.7473,-1.4989,3.40786,-4.37041,-0.244908,-0.188851,0.252701,1,0,1.925,-4.4625,0.28,-0.226554,-0.150426,-0.759816,-0.07532,0.12698,0.4655
3.93385,0,0,11.0661,11.0661,18.9339,18.9339,-1.57354,3.51635,-4.48913,0.0865586,0.0630205,0.102555,0,0,1.61,0.1925,1.575,0.108214,0.10248,-0.908656,-0.07532,0.12698,0.4655
4.11748,0,0,10.8825,10.8825,19.1175,19.1175,-1.64699,3.62348,-4.6163,0.0846924,0.0617448,0.102403,0,0,1.61,0.1925,1.575,0.108214,0.10248,-0.908656,-0.07504,0.13272,0.4655
4.12433,0,0,10.8757,10.8757,19.1243,19.1243,-1.64973,3.62261,-4.61146,0.333875,0.338803,-0.0983727,1,0,1.7325,-0.525,1.785,0.358436,0.379298,-1.10788,-0.07504,0.13272,0.4655
4.13118,0,0,10.8688,10.8688,19.1312,19.1312,-1.65247,3.62173,-4.60662,0.33389,0.338755,-0.0983731,1,0,1.7325,-0.525,1.785,0.358436,0.379298,-1.10788,-0.07504,0.13272,0.4655
4.55621,0,0,10.4438,10.4438,19.5562,19.5562,-1.82249,3.6275,-4.65452,0.00128332,0.175443,-0.00195466,0,0,2.485,-0.385,0.84,0.024522,0.219112,-1.01211,-0.07504,0.13272,0.4655
4.97418,0,0,10.0258,10.0258,19.9742,19.9742,-1.98967,3.63306,-4.70233,0.00118647,0.172532,-0.00205766,0,0,2.485,-0.385,0.84,0.024522,0.219112,-1.01211,-0.07504,0.13272,0.4655
4.7779,0,0,10.2221,10.2221,19.7779,19.7779,-1.91116,3.60582,-4.69565,-0.0227578,-0.0804918,0.00146142,0,0,2.9925,-0.5775,-0.875,0,-0.035014,-1.0087,-0.07504,0.13272,0.4655
4.77985,0,0,10.2201,10.2201,19.7799,19.7799,-1.91194,3.60518,-4.69638,-0.0805737,-0.20825,-0.207551,1,0,3.0275,-0.2975,-1.4525,-0.058072,-0.162626,-1.2161,-0.07504,0.13272,0.4655
4.78123,0,0,10.2188,10.2188,19.7812,19.7812,-1.91249,3.60339,-4.69893,-0.0805426,-0.20826,-0.207549,1,0,3.22,-0.9275,-2.5375,-0.058072,-0.162626,-1.2161,-0.07504,0.13272,0.4655
3.89168,0,0,11.1083,11.1083,18.8917,18.8917,-1.55667,3.34766,-4.44422,-0.223814,-0.337266,0.149951,0,0,3.2375,-0.6475,-3.22,-0.206424,-0.29768,-0.861808,-0.07896,0.1295,0.47012
3.89497,0,0,11.105,11.105,18.895,18.895,-1.55799,3.34724,-4.44887,0.127408,0.043502,-0.204632,1,0,2.8525,-0.105,-3.7275,0.146278,0.082716,-1.21366,-0.07896,0.1295,0.47012
3.89785,0,0,11.1021,11.1021,18.8979,18.8979,-1.55914,3.34823,-4.45334,0.127391,0.043482,-0.204634,1,0,2.94,0.7175,-3.605,0.146278,0.082716,-1.21366,-0.07896,0.1295,0.47012
3.75368,0,0,11.2463,11.2463,18.7537,18.7537,-1.50147,3.46274,-4.57191,0.109724,-0.0611501,0.00391794,0,0,3.115,0.84,-3.675,0.13054,-0.022814,-1.00662,-0.07896,0.1295,0.47012
3.61037,0,0,11.3896,11.3896,18.6104,18.6104,-1.44415,3.57445,-4.68976,0.107778,-0.0601488,0.00382398,0,0,3.4475,0.4025,-3.4825,0.13054,-0.022814,-1.00662,-0.07896,0.1295,0.47012
3.61102,0,0,11.389,11.389,18.611,18.611,-1.44441,3.57579,-4.69264,0.0405735,-0.0176532,0.128984,1,0,3.395,0.8925,-2.6775,0.063074,0.019642,-0.882426,-0.07896,0.1295,0.47012
3.61532,0,0,11.3847,11.3847,18.6153,18.6153,-1.44613,3.57607,-4.69343,0.0405686,-0.0176831,0.128983,1,0,2.5025,0.245,-1.47,0.063074,0.019642,-0.882426,-0.07896,0.1295,0.47012
3.62361,0,0,11.3764,11.3764,18.6236,18.6236,-1.44944,3.57649,-4.69323,-0.216988,-0.0367926,0.123325,1,0,1.575,0.315,-0.8925,-0.195566,0.00061,-0.888038,-0.07896,0.1295,0.47012
3.63063,0,0,11.3694,11.3694,18.6306,18.6306,-1.45225,3.57753,-4.69148,-0.217006,-0.0368415,0.123323,1,0,1.8025,0.6475,0.0175,-0.195566,0.00061,-0.888038,-0.07952,0.13104,0.48146
3.57931,0,0,11.4207,11.4207,18.5793,18.5793,-1.43173,3.70038,-4.82117,0.122471,-0.0250007,-0.0180719,0,0,1.8375,0.14,0.4725,0.147498,0.012078,-1.02822,-0.07952,0.13104,0.48146
3.52503,0,0,11.475,11.475,18.525,18.525,-1.41001,3.82136,-4.95021,0.120365,-0.0246192,-0.0182009,0,0,2.6775,0.3325,0.6825,0.147498,0.012078,-1.02822,-0.07952,0.13104,0.48146
3.55852,0,0,11.4415,11.4415,18.5585,18.5585,-1.42341,3.68049,-4.8449,-0.136311,0.0163003,-0.0260376,0,0,3.7625,-0.1225,0.6825,-0.112728,0.053192,-1.03615,-0.07952,0.13104,0.48146
3.59217,0,0,11.4078,11.4078,18.5922,18.5922,-1.43687,3.54408,-4.73931,-0.133935,0.0160621,-0.0258935,0,0,3.605,0.9975,0.91,-0.112728,0.053192,-1.03615,-0.07952,0.13104,0.48146
3.86213,0,0,11.1379,11.1379,18.8621,18.8621,-1.54485,3.216,-4.46482,-0.312391,0.106989,0.0709096,0,0,3.6225,1.015,0.595,-0.29768,0.145912,-0.940376,-0.07952,0.13104,0.48146
4.13368,0,0,10.8663,10.8663,19.1337,19.1337,-1.65347,2.89318,-4.1906,-0.306765,0.105088,0.0711569,0,0,2.38,0.8925,-0.1575,-0.29768,0.145912,-0.940376,-0.07952,0.13104,0.48146
4.6026,0,0,10.3974,10.3974,19.6026,19.6026,-1.84104,2.96276,-4.28556,0.0708146,0.205996,-0.0480189,0,0,2.17,0.4025,-0.7875,0.082716,0.249978,-1.05847,-0.07952,0.13104,0.48146
5.06205,0,0,9.93795,9.93795,20.062,20.062,-2.02482,3.03014,-4.38132,0.0696401,0.202797,-0.0481884,0,0,2.6075,0.105,-1.925,0.082716,0.249978,-1.05847,-0.07784,0.12992,0.47264
5.06381,0,0,9.93619,9.93619,20.0638,20.0638,-2.02552,3.02987,-4.38314,0.116052,0.329674,-0.228185,1,0,3.0975,-0.0525,-2.0825,0.12932,0.376736,-1.23708,-0.07784,0.12992,0.47264
5.06237,0,0,9.93763,9.93763,20.0624,20.0624,-2.02495,3.02733,-4.38668,0.116097,0.329684,-0.228182,1,0,3.8675,-1.3475,-3.1325,0.12932,0.376736,-1.23708,-0.07784,0.12992,0.47264
5.06277,0,0,9.93723,9.93723,20.0628,20.0628,-2.02511,3.02564,-4.39058,0.107501,-0.0976399,0.470781,1,0,3.465,-0.84,-3.325,0.120658,-0.050142,-0.54351,-0.07784,0.12992,0.47264
5.06318,0,0,9.93682,9.93682,20.0632,20.0632,-2.02527,3.02395,-4.39449,0.10753,-0.0976428,0.470783,1,0,3.465,-0.84,-3.325,0.120658,-0.050142,-0.54351,-0.07784,0.12992,0.47264
5.51249,0,0,9.48751,9.48751,20.5125,20.5125,-2.205,2.97779,-4.38697,-0.0482604,0.166072,0.0894459,0,0,2.2225,-0.175,-2.73,-0.0366,0.216428,-0.921832,-0.07784,0.12992,0.47264
5.95436,0,0,9.04564,9.04564,20.9544,20.9544,-2.38174,2.93235,-4.37911,-0.0474683,0.162992,0.0893635,0,0,2.2225,-0.175,-2.73,-0.0366,0.216428,-0.921832,-0.07784,0.12992,0.47264
6.31764,0,0,8.68236,8.68236,21.3176,21.3176,-2.52706,3.19079,-4.65085,0.268871,0.155587,-0.00541013,0,0,2.0825,-0.5775,-1.3125,0.285602,0.211548,-1.01553,-0.07784,0.12992,0.47264
6.67543,0,0,8.32457,8.32457,21.6754,21.6754,-2.67017,3.44527,-4.91587,0.264437,0.153108,-0.00577999,0,0,2.0825,-0.5775,-1.3125,0.285602,0.211548,-1.01553,-0.08218,0.12544,0.47054
6.67805,0,0,8.32195,8.32195,21.6781,21.6781,-2.67122,3.44579,-4.91385,0.0558372,0.235892,-0.0789357,1,0,2.7825,0.315,0.175,0.076128,0.294264,-1.08812,-0.08218,0.12544,0.47054
6.67998,0,0,8.32002,8.32002,21.68,21.68,-2.67199,3.44638,-4.91134,-0.209862,-0.223563,-0.200902,1,0,2.9225,0.35,0.455,-0.190686,-0.1647,-1.20914,-0.08218,0.12544,0.47054
6.68345,0,0,8.31655,8.31655,21.6835,21.6835,-2.67338,3.44751,-4.90715,-0.209882,-0.223587,-0.200904,1,0,2.52,0.6125,1.4525,-0.190686,-0.1647,-1.20914,-0.08218,0.12544,0.47054
7.019,0,0,7.981,7.981,22.019,22.019,-2.8076,3.49734,-4.97922,0.0560325,0.151818,-0.0777513,0,0,1.785,-0.1225,1.19,0.077226,0.212646,-1.08678,-0.08218,0.12544,0.47054
7.35154,0,0,7.64846,7.64846,22.3515,22.3515,-2.94062,3.54512,-5.05167,0.0552001,0.149507,-0.0779186,0,0,1.225,-0.77,0.9625,0.077226,0.212646,-1.08678,-0.08218,0.12544,0.47054
7.35364,0,0,7.64636,7.64636,22.3536,22.3536,-2.94146,3.54443,-5.04835,-0.116933,-0.280761,-0.205539,1,0,2.8525,-0.4375,0.8925,-0.095648,-0.21716,-1.21341,-0.08218,0.12544,0.47054
7.35756,0,0,7.64244,7.64244,22.3576,22.3576,-2.94302,3.54636,-5.04514,-0.116967,-0.280788,-0.205543,1,0,2.45,1.1025,0.91,-0.095648,-0.21716,-1.21341,-0.08218,0.12544,0.47054
7.35876,0,0,7.64124,7.64124,22.3588,22.3588,-2.9435,3.54853,-5.04305,0.0103124,0.0236659,0.103916,1,0,3.0975,1.2775,0.2625,0.032208,0.086986,-0.906338,-0.0791,0.13118,0.47614
7.48309,0,0,7.51691,7.51691,22.4831,22.4831,-2.99324,3.884,-5.38964,0.295671,0.0364988,0.145418,0,0,2.8875,-0.21,-1.3825,0.324642,0.10065,-0.864736,-0.0791,0.13118,0.47614
7.60815,0,0,7.39185,7.39185,22.6082,22.6082,-3.04326,4.21318,-5.73819,0.28994,0.0356504,0.144967,0,0,2.415,-0.5425,-2.5375,0.324642,0.10065,-0.864736,-0.0791,0.13118,0.47614
8.11748,0,0,6.88252,6.88252,23.1175,23.1175,-3.24699,4.13518,-5.72878,-0.0862799,0.220546,-0.0230767,0,0,2.765,-0.28,-3.0625,-0.054534,0.288896,-1.03139,-0.0791,0.13118,0.47614
8.62046,0,0,6.37954,6.37954,23.6205,23.6205,-3.44819,4.06016,-5.72062,-0.0849737,0.217044,-0.0231878,0,0,2.3625,0.84,-4.06,-0.054534,0.288896,-1.03139,-0.0791,0.13118,0.47614
8.6242,0,0,6.3758,6.3758,23.6242,23.6242,-3.44968,4.06007,-5.72607,0.0439241,0.128231,-0.263554,1,0,2.8175,0.21,-4.1825,0.074908,0.200202,-1.2699,-0.0791,0.13118,0.47614
8.62966,0,0,6.37034,6.37034,23.6297,23.6297,-3.45187,4.05851,-5.73112,0.0439512,0.128193,-0.263554,1,0,2.415,-0.665,-4.0075,0.074908,0.200202,-1.2699,-0.0791,0.13118,0.47614
8.92574,0,0,6.07426,6.07426,23.9257,23.9257,-3.57029,4.00299,-5.7325,-0.0570086,0.129306,-0.0434114,0,0,2.6075,-0.9625,-3.955,-0.02745,0.203374,-1.0514,-0.0791,0.13118,0.47614
9.2179,0,0,5.7821,5.7821,24.2179,24.2179,-3.68716,3.94859,-5.73196,-0.0560615,0.127272,-0.0434745,0,0,2.3275,-0.665,-3.6225,-0.02745,0.203374,-1.0514,-0.08176,0.1309,0.47908
8.88856,0,0,6.11144,6.11144,23.8886,23.8886,-3.55542,3.9174,-5.71724,-0.0249041,-0.140097,-0.0223911,0,0,1.785,-0.3325,-2.8175,0.003294,-0.066002,-1.03066,-0.08176,0.1309,0.47908
8.56468,0,0,6.43532,6.43532,23.5647,23.5647,-3.42587,3.88718,-5.70108,-0.0243777,-0.137848,-0.022218,0,0,1.7325,-0.1925,-1.82,0.003294,-0.066002,-1.03066,-0.08176,0.1309,0.47908
8.57135,0,0,6.42865,6.42865,23.5713,23.5713,-3.42854,3.88766,-5.70146,0.2492,0.10929,0.388427,1,0,1.96,0.3675,-1.225,0.278038,0.180926,-0.623176,-0.08176,0.1309,0.47908
8.57759,0,0,6.42241,6.42241,23.5776,23.5776,-3.43104,3.88947,-5.69985,0.249168,0.109247,0.388422,1,0,1.9775,1.0675,-0.0175,0.278038,0.180926,-0.623176,-0.08176,0.1309,0.47908
8.58107,0,0,6.41893,6.41893,23.5811,23.5811,-3.43243,3.89098,-5.69711,-0.0391438,-0.0778752,0.23584,1,0,2.555,0.8575,0.63,-0.011468,-0.005978,-0.774578,-0.08176,0.1309,0.47908
8.58387,0,0,6.41613,6.41613,23.5839,23.5839,-3.43355,3.89069,-5.6936,-0.0391386,-0.0778947,0.235839,1,0,2.6775,-0.2275,1.015,-0.011468,-0.005978,-0.774578,-0.08176,0.1309,0.47908
8.58865,0,0,6.41135,6.41135,23.5886,23.5886,-3.43546,3.89035,-5.6902,0.202745,-0.0321304,-0.078788,1,0,2.24,-0.245,0.945,0.231434,0.039772,-1.08678,-0.08176,0.1309,0.47908
8.59197,0,0,6.40803,6.40803,23.592,23.592,-3.43679,3.89114,-5.68703,0.202731,-0.0321535,-0.0787903,1,0,2.5725,0.42,0.8575,0.231434,0.039772,-1.08678,-0.08176,0.1309,0.47908
8.59224,0,0,6.40776,6.40776,23.5922,23.5922,-3.4369,3.89098,-5.68376,0.138347,0.120381,-0.178133,1,0,3.255,-0.14,0.875,0.166774,0.19215,-1.18535,-0.07574,0.14266,0.4865
8.59668,0,0,6.40332,6.40332,23.5967,23.5967,-3.43867,3.89297,-5.68069,0.138312,0.12035,-0.178137,1,0,2.3275,1.12,0.84,0.166774,0.19215,-1.18535,-0.07574,0.14266,0.4865
8.7674,0,0,6.2326,6.2326,23.7674,23.7674,-3.50696,3.8631,-5.71207,-0.0341633,0.0656697,0.0260438,0,0,2.8525,0.2975,-4.2875,-0.006954,0.138714,-0.98271,-0.07574,0.14266,0.4865
8.93912,0,0,6.06088,6.06088,23.9391,23.9391,-3.57565,3.83179,-5.73718,-0.0336181,0.0644735,0.0260065,0,0,1.75,-1.0325,-0.77,-0.006954,0.138714,-0.98271,-0.07574,0.14266,0.4865
8.94864,0,0,6.05136,6.05136,23.9486,23.9486,-3.57946,3.82981,-5.73831,-0.0673565,-0.00447226,0.105429,1,0,1.3475,-1.05,-1.75,-0.04087,0.069906,-0.903898,-0.07574,0.14266,0.4865
8.95538,0,0,6.04462,6.04462,23.9554,23.9554,-3.58215,3.82877,-5.74054,-0.0673385,-0.00451916,0.105428,1,0,2.0125,-0.455,-2.345,-0.04087,0.069906,-0.903898,-0.07574,0.14266,0.4865
8.96168,0,0,6.03832,6.03832,23.9617,23.9617,-3.58467,3.82934,-5.74346,0.227619,-0.0222713,0.291076,1,0,2.135,0.5075,-2.695,0.255346,0.052216,-0.719678,-0.07574,0.14266,0.4865
8.97036,0,0,6.02964,6.02964,23.9704,23.9704,-3.58814,3.82912,-5.74655,0.227623,-0.0223316,0.291073,1,0,1.61,0.0525,-2.8175,0.255346,0.052216,-0.719678,-0.07574,0.14266,0.4865
8.42353,0,0,6.57647,6.57647,23.4235,23.4235,-3.36941,3.56762,-5.51352,-0.252308,-0.230193,0.0251686,0,0,1.9075,-0.5075,-2.8875,-0.23119,-0.15921,-0.984052,-0.07868,0.14,0.4865
8.4335,0,0,6.5665,6.5665,23.4335,23.4335,-3.3734,3.56619,-5.5171,-0.0695683,-0.141354,-0.193068,1,0,1.33,-0.6475,-3.15,-0.047702,-0.070394,-1.2006,-0.07868,0.14,0.4865
8.44281,0,0,6.55719,6.55719,23.4428,23.4428,-3.37713,3.56563,-5.51954,-0.0695585,-0.141419,-0.193071,1,0,1.435,-0.175,-2.45,-0.047702,-0.070394,-1.2006,-0.07868,0.14,0.4865
8.4518,0,0,6.5482,6.5482,23.4518,23.4518,-3.38072,3.56487,-5.52132,0.149007,-0.0664953,-0.178935,1,0,1.4875,-0.315,-2.0825,0.171776,0.004514,-1.18657,-0.07868,0.14,0.4865
8.46192,0,0,6.53808,6.53808,23.4619,23.4619,-3.38477,3.56651,-5.52244,0.148979,-0.0665656,-0.17894,1,0,1.2075,1.0675,-1.61,0.171776,0.004514,-1.18657,-0.07868,0.14,0.4865
8.4685,0,0,6.5315,6.5315,23.4685,23.4685,-3.3874,3.5682,-5.52278,-0.132411,0.0589351,-0.14538,1,0,1.9775,1.0675,-1.155,-0.110776,0.12993,-1.15327,-0.07868,0.14,0.4865
8.48062,0,0,6.51938,6.51938,23.4806,23.4806,-3.39225,3.56931,-5.5217,-0.132431,0.0588508,-0.145386,1,0,0.6825,0.6825,-0.35,-0.110776,0.12993,-1.15327,-0.07868,0.14,0.4865
8.49252,0,0,6.50748,6.50748,23.4925,23.4925,-3.39701,3.56985,-5.52016,0.175405,-0.221635,-0.224694,1,0,0.7175,0.3325,-0.105,0.198372,-0.150182,-1.23196,-0.07868,0.14,0.4865
8.5086,0,0,6.4914,6.4914,23.5086,23.5086,-3.40344,3.57002,-5.51843,0.175402,-0.221747,-0.2247,1,0,-0.2275,0.105,0,0.198372,-0.150182,-1.23196,-0.08176,0.14294,0.48118
8.24825,0,0,6.75175,6.75175,23.2482,23.2482,-3.2993,4.04194,-5.98415,0.442713,-0.125134,0.181573,0,0,-0.455,0.35,0.385,0.475068,-0.05551,-0.82838,-0.08176,0.14294,0.48118
7.9869,0,0,7.0131,7.0131,22.9869,22.9869,-3.19476,4.50651,-6.44744,0.434627,-0.123283,0.181073,0,0,0.5775,0.315,0.2975,0.475068,-0.05551,-0.82838,-0.08176,0.14294,0.48118
7.99378,0,0,7.00622,7.00622,22.9938,22.9938,-3.19751,4.50629,-6.44607,-0.0223982,0.246347,-0.0661786,1,0,1.8375,-0.105,-0.2275,0.016104,0.313784,-1.07372,-0.08176,0.14294,0.48118
8.00005,0,0,6.99995,6.99995,23.0001,23.0001,-3.20002,4.50636,-6.44484,-0.0223995,0.246303,-0.0661811,1,0,1.9775,0.07,-0.2975,0.016104,0.313784,-1.07372,-0.08176,0.14294,0.48118
8.00388,0,0,6.99612,6.99612,23.0039,23.0039,-3.20155,4.50644,-6.44345,-0.137691,-0.0716195,0.128814,1,0,2.52,0.07,-0.21,-0.099674,-0.003782,-0.88023,-0.08176,0.14294,0.48118
8.01672,0,0,6.98328,6.98328,23.0167,23.0167,-3.20669,4.50403,-6.44383,-0.137649,-0.0717088,0.128812,1,0,0.5775,-1.33,-1.3125,-0.099674,-0.003782,-0.88023,-0.08176,0.14294,0.48118
8.03187,0,0,6.96813,6.96813,23.0319,23.0319,-3.21275,4.40762,-6.40959,-0.0936943,0.0009661,-0.0317572,0,0,-0.5425,-0.945,-1.82,-0.057218,0.06893,-1.03968,-0.08176,0.14294,0.48118
8.04377,0,0,6.95623,6.95623,23.0438,23.0438,-3.21751,4.31412,-6.37498,-0.0920671,0.000876445,-0.0316379,0,0,0.1925,-0.665,-1.9425,-0.057218,0.06893,-1.03968,-0.07658,0.14126,0.48496
8.06147,0,0,6.93853,6.93853,23.0615,23.0615,-3.22459,4.31425,-6.37637,-0.0765192,0.042765,0.178474,1,0,-0.4725,0.1925,-1.82,-0.041602,0.110898,-0.831186,-0.07658,0.14126,0.48496
8.07321,0,0,6.92679,6.92679,23.0732,23.0732,-3.22928,4.31436,-6.37881,-0.076521,0.0426834,0.178469,1,0,0.91,0.21,-2.4325,-0.041602,0.110898,-0.831186,-0.07658,0.14126,0.48496
8.08367,0,0,6.91633,6.91633,23.0837,23.0837,-3.23347,4.31343,-6.3815,-0.249986,0.150326,0.160762,1,0,1.2075,-0.385,-2.6075,-0.215818,0.218502,-0.848754,-0.07658,0.14126,0.48496
8.09612,0,0,6.90388,6.90388,23.0961,23.0961,-3.23845,4.31194,-6.38358,-0.249961,0.15024,0.160759,1,0,0.735,-0.735,-2.275,-0.215818,0.218502,-0.848754,-0.07658,0.14126,0.48496
8.11025,0,0,6.88975,6.88975,23.1103,23.1103,-3.2441,4.31069,-6.38504,0.228715,0.0304573,0.214115,1,0,0.3325,-0.6125,-1.9075,0.264862,0.098942,-0.795806,-0.07658,0.14126,0.48496
8.12843,0,0,6.87157,6.87157,23.1284,23.1284,-3.25137,4.31147,-6.38605,0.228701,0.030331,0.214106,1,0,-0.595,0.56,-1.575,0.264862,0.098942,-0.795806,-0.07658,0.14126,0.48496
7.89405,0,0,7.10595,7.10595,22.894,22.894,-3.15762,4.31615,-6.42658,0.00387133,-0.102623,0.0584157,0,0,-1.3475,0.8575,-1.365,0.039162,-0.035502,-0.95038,-0.07658,0.14126,0.48496
7.65971,0,0,7.34029,7.34029,22.6597,22.6597,-3.06388,4.32017,-6.47139,0.00380125,-0.100994,0.0584989,0,0,-0.5775,0.7875,-0.56,0.039162,-0.035502,-0.95038,-0.07756,0.1456,0.47838
7.67781,0,0,7.32219,7.32219,22.6778,22.6778,-3.07113,4.3207,-6.46991,0.209224,-0.0443309,-0.157775,1,0,-0.6825,0.3325,-0.14,0.245464,0.021228,-1.16498,-0.07756,0.1456,0.47838
7.69184,0,0,7.30816,7.30816,22.6918,22.6918,-3.07673,4.32091,-6.46832,0.209221,-0.0444284,-0.15778,1,0,0.2275,0.14,-0.0875,0.245464,0.021228,-1.16498,-0.07756,0.1456,0.47838
7.70486,0,0,7.29514,7.29514,22.7049,22.7049,-3.08195,4.32075,-6.46641,-0.24817,0.132321,-0.0894257,1,0,0.4375,-0.0875,0.0875,-0.213866,0.197884,-1.09715,-0.07756,0.1456,0.47838
7.7199,0,0,7.2801,7.2801,22.7199,22.7199,-3.08796,4.32139,-6.46439,-0.248181,0.132216,-0.0894322,1,0,-0.0175,0.385,0.175,-0.213866,0.197884,-1.09715,-0.07756,0.1456,0.47838
6.80908,0,0,8.19092,8.19092,21.8091,21.8091,-2.72363,4.32447,-6.46878,0.0136882,-0.363758,0.116332,0,0,0.1925,0.7875,0.1575,0.049166,-0.303902,-0.893284,-0.07756,0.1456,0.47838
5.91261,0,0,9.08739,9.08739,20.9126,20.9126,-2.36504,4.32715,-6.47399,0.0136416,-0.357524,0.116606,0,0,0.1575,0.42,-0.1575,0.049166,-0.303902,-0.893284,-0.07756,0.1456,0.47838
5.60379,0,0,9.39621,9.39621,20.6038,20.6038,-2.24152,4.32146,-6.50477,0.00159218,-0.134937,-0.00145398,0,0,-0.4025,0.5075,-0.6825,0.036966,-0.083692,-1.01053,-0.07756,0.1456,0.47838
5.29851,0,0,9.70149,9.70149,20.2985,20.2985,-2.1194,4.31492,-6.53589,0.00170585,-0.132814,-0.00136455,0,0,-0.035,-0.105,-0.875,0.036966,-0.083692,-1.01053,-0.07756,0.1456,0.47838
5.15764,0,0,9.84236,9.84236,20.1576,20.1576,-2.06305,3.90063,-6.18031,-0.421506,-0.0665147,0.0225491,0,0,-0.0175,-0.3325,-1.155,-0.39528,-0.018422,-0.987346,-0.07238,0.13776,0.47628
5.01825,0,0,9.98175,9.98175,20.0183,20.0183,-2.0073,3.49344,-5.82629,-0.414414,-0.0655605,0.0230415,0,0,0.28,-0.0875,-1.47,-0.39528,-0.018422,-0.987346,-0.07238,0.13776,0.47628
4.38882,0,0,10.6112,10.6112,19.3888,19.3888,-1.75553,3.48055,-5.81558,0.0010489,-0.284913,-0.0460208,0,0,0.49,-0.8225,-2.065,0.021716,-0.241926,-1.05603,-0.07238,0.13776,0.47628
3.76952,0,0,11.2305,11.2305,18.7695,18.7695,-1.50781,3.46803,-5.8052,0.00126707,-0.2806,-0.0458847,0,0,0.49,-0.8225,-2.065,0.021716,-0.241926,-1.05603,-0.07238,0.13776,0.47628
3.78479,0,0,11.2152,11.2152,18.7848,18.7848,-1.51392,3.47522,-5.8068,0.349927,0.0801784,-0.107,1,0,0.07,4.305,-1.8375,0.371978,0.118584,-1.11667,-0.07238,0.13776,0.47628
3.80006,0,0,11.1999,11.1999,18.8001,18.8001,-1.52002,3.48241,-5.8084,0.349802,0.0800722,-0.107011,1,0,0.07,4.305,-1.8375,0.371978,0.118584,-1.11667,-0.07238,0.13776,0.47628
3.80998,0,0,11.19,11.19,18.81,18.81,-1.52399,3.48215,-5.8092,0.0428121,-0.0416351,-0.290943,1,0,1.2425,-0.07,-1.4875,0.063684,-0.002928,-1.29918,-0.07238,0.13776,0.47628
3.8209,0,0,11.1791,11.1791,18.8209,18.8209,-1.52836,3.48197,-5.80941,-0.0849877,0.0966584,0.159046,1,0,0.9975,-0.035,-1.1375,-0.06466,0.135298,-0.852658,-0.07238,0.13776,0.47628
3.83314,0,0,11.1669,11.1669,18.8331,18.8331,-1.53326,3.48251,-5.80957,0.128939,0.0632326,-0.13714,1,0,0.7,0.385,-1.1025,0.150182,0.101992,-1.14656,-0.07616,0.1428,0.48538
