pid_x,pid_y,pid_z,front_left_speed,front_right_speed,back_left_speed,back_right_speed,orientation_x,orientation_y,orientation_z,acceleration_x,acceleration_y,acceleration_z,accel_rejected,mag_rejected,gyro_x,gyro_y,gyro_z,accel_x,accel_y,accel_z,mag_x,mag_y,mag_z
-0.0210542,0,0,15.0211,15.0211,14.9789,14.9789,0.0175452,0.0625989,0.0175552,0.0480315,-0.0151488,0.00202842,0,0,3.325,0.07,-1.085,0.009028,-0.003294,-1.01065,-0.07,0.11046,0.44464
-0.0419447,0,0,15.0419,15.0419,14.9581,14.9581,0.0349539,0.123426,0.0352665,0.0469699,-0.014845,0.00202656,0,0,3.4475,-0.14,-0.98,0.009028,-0.003294,-1.01065,-0.07,0.11046,0.44464
-0.0599248,0,0,15.0599,15.0599,14.9401,14.9401,0.0499374,0.183668,0.0519756,0.0466474,-0.0126295,0.00288419,0,0,3.535,-0.1575,-1.0325,0.00976,-0.001342,-1.00979,-0.07,0.11046,0.44464
-0.0775445,0,0,15.0775,15.0775,14.9225,14.9225,0.0646205,0.242564,0.0686619,0.0456195,-0.0123732,0.00288011,0,0,3.535,-0.1575,-1.0325,0.00976,-0.001342,-1.00979,-0.07,0.11046,0.44464
-0.0983561,0,0,15.0984,15.0984,14.9016,14.9016,0.0819634,0.303479,0.0828011,0.047229,-0.0153679,-0.00376456,0,0,3.15,-0.0175,-0.9625,0.012444,-0.004636,-1.01638,-0.07,0.11046,0.44464
-0.118751,0,0,15.1188,15.1188,14.8812,14.8812,0.0989588,0.363031,0.0969255,0.0461897,-0.0150713,-0.00377108,0,0,3.15,-0.0175,-0.9625,0.012444,-0.004636,-1.01638,-0.07,0.11046,0.44464
-0.136163,0,0,15.1362,15.1362,14.8638,14.8638,0.113469,0.420565,0.111718,0.0440921,-0.0123755,0.00482798,0,0,3.43,0.1575,-0.98,0.011346,-0.002196,-1.00784,-0.07,0.11046,0.44464
-0.153224,0,0,15.1532,15.1532,14.8468,14.8468,0.127687,0.476865,0.124244,0.0431096,-0.0121274,0.00481977,0,0,3.43,0.1575,-0.98,0.011346,-0.002196,-1.00784,-0.0714,0.11172,0.44814
-0.172909,0,0,15.1729,15.1729,14.8271,14.8271,0.14409,0.535014,0.13407,0.0448889,-0.0144058,-0.00600934,0,0,3.29,0.28,-1.085,0.014152,-0.004758,-1.01858,-0.0714,0.11172,0.44814
-0.192807,0,0,15.1928,15.1928,14.8072,14.8072,0.160673,0.585916,0.149112,0.0393841,-0.0144828,-0.00921546,0,0,3.3775,0.2625,-1.1725,0.009516,-0.005124,-1.02175,-0.0714,0.11172,0.44814
-0.212303,0,0,15.2123,15.2123,14.7877,14.7877,0.17692,0.635268,0.164453,0.0385227,-0.0141993,-0.00922548,0,0,3.3775,0.035,-0.98,0.009516,-0.005124,-1.02175,-0.0714,0.11172,0.44814
-0.229714,0,0,15.2297,15.2297,14.7703,14.7703,0.191429,0.684404,0.17888,0.0381512,-0.0126027,-0.00333464,0,0,3.3775,0.035,-0.98,0.010004,-0.003782,-1.01589,-0.0714,0.11172,0.44814
-0.245845,0,0,15.2458,15.2458,14.7542,14.7542,0.204871,0.733073,0.192997,0.0377877,-0.0117576,-0.00445249,0,0,3.3425,0.1225,-0.8575,0.010492,-0.003172,-1.01699,-0.0714,0.11172,0.44814
-0.261653,0,0,15.2617,15.2617,14.7383,14.7383,0.218044,0.780656,0.20709,0.0369573,-0.0115277,-0.00446431,0,0,3.3425,0.1225,-0.8575,0.010492,-0.003172,-1.01699,-0.0714,0.11172,0.44814
-0.278705,0,0,15.2787,15.2787,14.7213,14.7213,0.232254,0.825291,0.217954,0.0345991,-0.0123789,-0.00410736,0,0,3.3775,0.2975,-1.015,0.008906,-0.00427,-1.01663,-0.06664,0.1141,0.43918
-0.295463,0,0,15.2955,15.2955,14.7045,14.7045,0.246219,0.865313,0.231466,0.0312279,-0.011891,0.00461066,0,0,3.465,-0.175,-0.945,0.006222,-0.004026,-1.00796,-0.06664,0.1141,0.43918
-0.311646,0,0,15.3116,15.3116,14.6884,14.6884,0.259705,0.911261,0.238772,0.0363789,-0.0115336,-0.00523869,0,0,3.535,-0.14,-0.945,0.0122,-0.003904,-1.01772,-0.06664,0.1141,0.43918
-0.327498,0,0,15.3275,15.3275,14.6725,14.6725,0.272915,0.956337,0.24571,0.0355923,-0.0113031,-0.00525258,0,0,3.535,-0.0525,-1.155,0.0122,-0.003904,-1.01772,-0.06664,0.1141,0.43918
-0.343903,0,0,15.3439,15.3439,14.6561,14.6561,0.286585,0.998084,0.254896,0.03292,-0.0116752,-0.00489733,0,0,3.5525,-0.035,-1.1025,0.010248,-0.004514,-1.01736,-0.06664,0.1141,0.43918
-0.359646,0,0,15.3596,15.3596,14.6404,14.6404,0.299705,1.03902,0.264307,0.0322056,-0.0114464,-0.0049112,0,0,3.395,0.035,-0.9625,0.010248,-0.004514,-1.01736,-0.06664,0.1141,0.43918
-0.379483,0,0,15.3795,15.3795,14.6205,14.6205,0.316235,1.07967,0.273435,0.0318608,-0.0143333,-0.00234395,0,0,3.4125,-0.035,-0.8225,0.010614,-0.007686,-1.0148,-0.06664,0.1141,0.43918
-0.399177,0,0,15.3992,15.3992,14.6008,14.6008,0.332648,1.1195,0.282277,0.0311657,-0.014047,-0.00235891,0,0,3.535,0.0175,-0.98,0.010614,-0.007686,-1.0148,-0.06664,0.1141,0.43918
-0.415,0,0,15.415,15.415,14.585,14.585,0.345834,1.15835,0.300779,0.0303664,-0.0112523,0.00106881,0,0,3.5,0,-0.9625,0.010492,-0.005124,-1.01138,-0.06594,0.10822,0.4494
-0.428597,0,0,15.4286,15.4286,14.5714,14.5714,0.357164,1.19483,0.320845,0.0286363,-0.0100776,-0.00324868,0,0,3.2725,0.105,-0.875,0.009394,-0.004148,-1.01565,-0.06594,0.10822,0.4494
-0.44218,0,0,15.4422,15.4422,14.5578,14.5578,0.368484,1.23066,0.340719,0.0280111,-0.00988021,-0.00326316,0,0,3.395,0.1925,-0.9625,0.009394,-0.004148,-1.01565,-0.06594,0.10822,0.4494
-0.456273,0,0,15.4563,15.4563,14.5437,14.5437,0.380227,1.26711,0.35923,0.0285901,-0.0101639,-0.00290952,0,0,3.4475,0.1225,-0.9275,0.010614,-0.004636,-1.01528,-0.06594,0.10822,0.4494
-0.469744,0,0,15.4697,15.4697,14.5303,14.5303,0.391453,1.30265,0.377612,0.0279698,-0.00996812,-0.00292475,0,0,3.29,0.07,-0.98,0.010614,-0.004636,-1.01528,-0.06594,0.10822,0.4494
-0.485726,0,0,15.4857,15.4857,14.5143,14.5143,0.404772,1.33637,0.396936,0.0260451,-0.0114456,0.00259277,0,0,3.4475,0.175,-1.12,0.009272,-0.006344,-1.00979,-0.06594,0.10822,0.4494
-0.501623,0,0,15.5016,15.5016,14.4984,14.4984,0.41802,1.3693,0.416547,0.0254705,-0.0112145,0.00257754,0,0,3.5525,0.1575,-0.9275,0.009272,-0.006344,-1.00979,-0.06594,0.10822,0.4494
-0.517153,0,0,15.5172,15.5172,14.4828,14.4828,0.430961,1.40398,0.433683,0.0271736,-0.011111,0.000102247,0,0,3.4825,0.035,-0.91,0.01159,-0.006466,-1.01223,-0.06594,0.10822,0.4494
-0.532373,0,0,15.5324,15.5324,14.4676,14.4676,0.443645,1.43791,0.451228,0.0265816,-0.0108898,8.58743e-05,0,0,3.4825,0.035,-0.91,0.01159,-0.006466,-1.01223,-0.06538,0.10822,0.44226
-0.544897,0,0,15.5449,15.5449,14.4551,14.4551,0.454081,1.46798,0.47172,0.0228984,-0.00875379,0.00523498,0,0,3.5525,0.3675,-1.05,0.008418,-0.004514,-1.00711,-0.06538,0.10822,0.44226
-0.557173,0,0,15.5572,15.5572,14.4428,14.4428,0.464311,1.49738,0.492167,0.0223854,-0.00857542,0.00522027,0,0,3.5525,0.3675,-1.05,0.008418,-0.004514,-1.00711,-0.06538,0.10822,0.44226
-0.568776,0,0,15.5688,15.5688,14.4312,14.4312,0.47398,1.52634,0.511579,0.0228521,-0.00828471,-0.00401558,0,0,3.535,0.1225,-1.2775,0.009394,-0.004392,-1.01626,-0.06538,0.10822,0.44226
-0.580149,0,0,15.5801,15.5801,14.4199,14.4199,0.483457,1.55465,0.530948,0.0223581,-0.00811947,-0.00403025,0,0,3.535,0.1225,-1.2775,0.009394,-0.004392,-1.01626,-0.06538,0.10822,0.44226
-0.495221,0,0,15.4952,15.4952,14.5048,14.5048,0.412684,1.61636,0.515254,0.0537182,0.0634331,-0.0309761,0,0,3.43,0.2625,-1.1375,0.041968,0.06832,-1.04298,-0.06538,0.10822,0.44226
-0.553793,0,0,15.5538,15.5538,14.4462,14.4462,0.461494,1.62921,0.549798,0.00817983,-0.0418435,0.00442021,0,0,3.675,0.385,-1.0325,-0.003538,-0.037698,-1.00784,-0.06538,0.10822,0.44226
-0.610311,0,0,15.6103,15.6103,14.3897,14.3897,0.508593,1.64168,0.584618,0.00796228,-0.0410219,0.00440704,0,0,3.255,0.35,-0.805,-0.003538,-0.037698,-1.00784,-0.06538,0.10822,0.44226
-0.660144,0,0,15.6601,15.6601,14.3399,14.3399,0.55012,1.75927,0.506119,0.0888856,-0.0348024,0.0361831,0,0,3.3775,0.525,-0.7,0.079788,-0.032208,-0.976244,-0.0609,0.11648,0.45038
-0.817359,0,0,15.8174,15.8174,14.1826,14.1826,0.681133,1.64796,0.638548,-0.0914011,-0.113853,0.0162986,0,0,3.01,0.3675,-0.5075,-0.103212,-0.11346,-0.996008,-0.0609,0.11648,0.45038
-0.971805,0,0,15.9718,15.9718,14.0282,14.0282,0.809838,1.53912,0.769696,-0.0895022,-0.111607,0.0163223,0,0,3.185,0.4375,-0.735,-0.103212,-0.11346,-0.996008,-0.0609,0.11648,0.45038
-1.4264,0,0,16.4264,16.4264,13.5736,13.5736,1.18866,1.73571,0.631791,0.140442,-0.316402,0.111148,0,0,3.535,-0.1925,-0.7175,0.13115,-0.324642,-0.901702,-0.0609,0.11648,0.45038
-1.87432,0,0,16.8743,16.8743,13.1257,13.1257,1.56194,1.92646,0.496373,0.137115,-0.309895,0.110886,0,0,4.3575,-1.0325,-0.7,0.13115,-0.324642,-0.901702,-0.0609,0.11648,0.45038
-1.92914,0,0,16.9291,16.9291,13.0709,13.0709,1.60762,1.47884,0.918726,-0.424601,-0.0554344,-0.146236,0,0,3.08,-0.7875,-0.9625,-0.440786,-0.071248,-1.15705,-0.0609,0.11648,0.45038
-1.93172,0,0,16.9317,16.9317,13.0683,13.0683,1.60976,1.47876,0.918401,-0.4246,-0.055397,-0.146237,1,0,4.6375,0.07,-1.19,-0.440786,-0.071248,-1.15705,-0.0609,0.11648,0.45038
-1.46538,0,0,16.4654,16.4654,13.5346,13.5346,1.22115,1.55493,0.863082,0.0666956,0.340232,0.0589737,0,0,3.6575,0.14,-0.98,0.053924,0.330742,-0.953552,-0.0609,0.11648,0.45038
-1.00778,0,0,16.0078,16.0078,13.9922,13.9922,0.839817,1.63368,0.79727,0.0653216,0.333579,0.0590551,0,0,3.6575,0.14,-0.98,0.053924,0.330742,-0.953552,-0.06594,0.12278,0.46298
-1.267,0,0,16.267,16.267,13.733,13.733,1.05583,1.68971,0.767786,0.0207307,-0.129422,0.301788,0,0,3.3075,0.42,-1.365,0.010126,-0.135542,-0.712602,-0.06594,0.12278,0.46298
-1.26671,0,0,16.2667,16.2667,13.7333,13.7333,1.05559,1.69023,0.767173,0.0207217,-0.129426,0.301788,1,0,3.3075,0.42,-1.365,0.010126,-0.135542,-0.712602,-0.06594,0.12278,0.46298
-1.26783,0,0,16.2678,16.2678,13.7322,13.7322,1.05653,1.69056,0.767067,-0.227236,-0.153469,0.239821,1,0,3.955,0.315,-1.0675,-0.238876,-0.159576,-0.77409,-0.06594,0.12278,0.46298
-1.27212,0,0,16.2721,16.2721,13.7279,13.7279,1.0601,1.68952,0.766545,0.668131,-0.380928,0.775507,1,0,5.4425,-0.49,-1.295,0.660264,-0.386862,-0.242536,-0.06594,0.12278,0.46298
-1.27528,0,0,16.2753,16.2753,13.7247,13.7247,1.06273,1.68782,0.76469,0.668161,-0.380882,0.775507,1,0,4.935,-0.8925,-2.065,0.660264,-0.386862,-0.242536,-0.06594,0.12278,0.46298
-2.37203,0,0,17.372,17.372,12.628,12.628,1.97669,2.07711,0.451003,0.293876,-0.819141,0.504374,0,0,6.1075,0.0175,-1.8025,0.291214,-0.84058,-0.510936,-0.06594,0.12278,0.46298
-3.45087,0,0,18.4509,18.4509,11.5491,11.5491,2.87572,2.45985,0.149473,0.287201,-0.803487,0.503447,0,0,2.87,-0.4025,-1.89,0.291214,-0.84058,-0.510936,-0.06594,0.12278,0.46298
-3.88994,0,0,18.8899,18.8899,11.1101,11.1101,3.24162,1.38939,1.09007,-0.652163,-0.217223,0.661107,0,0,2.8175,0.9625,-2.4675,-0.670878,-0.261324,-0.354776,-0.0658,0.12516,0.46438
-3.88385,0,0,18.8839,18.8839,11.1161,11.1161,3.23655,1.38941,1.08804,0.669723,-0.417966,0.136859,1,0,0.6125,0.07,-2.1875,0.656604,-0.46177,-0.874984,-0.0658,0.12516,0.46438
-3.88313,0,0,18.8831,18.8831,11.1169,11.1169,3.23594,1.38801,1.08628,0.669747,-0.417976,0.13686,1,0,3.115,-0.7525,-1.9775,0.656604,-0.46177,-0.874984,-0.0658,0.12516,0.46438
-3.87622,0,0,18.8762,18.8762,11.1238,11.1238,3.23018,1.39014,1.08298,-0.283831,-1.55654,-0.130671,1,0,0.245,1.26,-2.9925,-0.300974,-1.59905,-1.14046,-0.0658,0.12516,0.46438
-3.87795,0,0,18.878,18.878,11.122,11.122,3.23163,1.39053,1.08088,-0.283838,-1.55652,-0.130672,1,0,4.27,0.28,-2.24,-0.300974,-1.59905,-1.14046,-0.0658,0.12516,0.46438
-3.87498,0,0,18.875,18.875,11.125,11.125,3.22915,1.39111,1.07891,-0.570554,-0.0710103,-0.420583,1,0,2.065,0.4025,-2.17,-0.588894,-0.115046,-1.42813,-0.0658,0.12516,0.46438
-3.88289,0,0,18.8829,18.8829,11.1171,11.1171,3.23574,1.38992,1.07671,-0.570534,-0.0708954,-0.420589,1,0,7.1575,-0.6475,-2.24,-0.588894,-0.115046,-1.42813,-0.0658,0.12516,0.46438
-4.22447,0,0,19.2245,19.2245,10.7755,10.7755,3.52039,1.31229,1.16002,-0.0608829,-0.232883,0.0841,0,0,5.3375,-0.9275,-1.96,-0.078446,-0.28182,-0.927078,-0.0658,0.12516,0.46438
-4.56225,0,0,19.5623,19.5623,10.4377,10.4377,3.80188,1.24016,1.24713,-0.0596243,-0.227979,0.0838144,0,0,6.615,0.1925,-2.0475,-0.078446,-0.28182,-0.927078,-0.05978,0.12138,0.47796
-4.23846,0,0,19.2385,19.2385,10.7615,10.7615,3.53205,1.94244,0.643815,0.530692,0.249457,0.220126,0,0,5.95,-0.385,-1.6275,0.526674,0.199836,-0.79178,-0.05978,0.12138,0.47796
-3.91389,0,0,18.9139,18.9139,11.0861,11.0861,3.26158,2.63621,0.0350071,0.518594,0.24472,0.219922,0,0,3.7975,1.715,-1.995,0.526674,0.199836,-0.79178,-0.05978,0.12138,0.47796
-3.35582,0,0,18.3558,18.3558,11.6442,11.6442,2.79651,2.58952,0.0542953,-0.0419777,0.42409,0.0432191,0,0,4.2875,0.77,-1.4875,-0.037088,0.387106,-0.967582,-0.05978,0.12138,0.47796
-2.80327,0,0,17.8033,17.8033,12.1967,12.1967,2.33606,2.5432,0.075264,-0.0411701,0.416071,0.0436147,0,0,2.1525,0.5775,-1.085,-0.037088,0.387106,-0.967582,-0.05978,0.12138,0.47796
-2.79924,0,0,17.7992,17.7992,12.2008,12.2008,2.3327,2.54366,0.0740888,-0.298363,-0.377201,-0.386334,1,0,1.575,0.3675,-1.6975,-0.295362,-0.405284,-1.39422,-0.05978,0.12138,0.47796
-2.79521,0,0,17.7952,17.7952,12.2048,12.2048,2.32934,2.54413,0.0729136,-0.298372,-0.377259,-0.386332,1,0,1.575,0.3675,-1.6975,-0.295362,-0.405284,-1.39422,-0.05978,0.12138,0.47796
-2.7894,0,0,17.7894,17.7894,12.2106,12.2106,2.3245,2.54467,0.073454,0.346708,-0.230059,-0.342314,1,0,0.7,0.455,-0.7,0.352458,-0.258152,-1.35054,-0.05978,0.12138,0.47796
-2.78358,0,0,17.7836,17.7836,12.2164,12.2164,2.31965,2.54521,0.0739944,0.346699,-0.230143,-0.342311,1,0,0.7,0.455,-0.7,0.352458,-0.258152,-1.35054,-0.06552,0.13636,0.4858
-2.78102,0,0,17.781,17.781,12.219,12.219,2.31752,2.54355,0.0765485,0.430674,-0.312372,-0.115222,1,0,2.17,-0.7875,0.525,0.43676,-0.340258,-1.12521,-0.06552,0.13636,0.4858
-2.77846,0,0,17.7785,17.7785,12.2215,12.2215,2.31538,2.54189,0.0791027,0.430703,-0.312409,-0.115219,1,0,2.17,-0.7875,0.525,0.43676,-0.340258,-1.12521,-0.06552,0.13636,0.4858
-2.51482,0,0,17.5148,17.5148,12.4852,12.4852,2.09569,2.45538,0.130222,-0.071711,0.190714,0.037942,0,0,3.71,0.0175,1.0675,-0.069296,0.166164,-0.973438,-0.06552,0.13636,0.4858
-2.5215,0,0,17.5215,17.5215,12.4785,12.4785,2.10125,2.45596,0.133975,0.316426,0.654526,0.0644949,1,0,6.4575,0.5425,1.1725,0.320494,0.629398,-0.947086,-0.06552,0.13636,0.4858
-2.5265,0,0,17.5265,17.5265,12.4735,12.4735,2.10542,2.45691,0.138043,0.316409,0.654599,0.0644915,1,0,5.67,0.77,1.3475,0.320494,0.629398,-0.947086,-0.06552,0.13636,0.4858
-2.05976,0,0,17.0598,17.0598,12.9402,12.9402,1.71647,2.33433,0.221753,-0.111877,0.383296,-0.0272814,0,0,9.03,0.0175,1.6625,-0.111752,0.365146,-1.03846,-0.06552,0.13636,0.4858
-1.59377,0,0,16.5938,16.5938,13.4062,13.4062,1.32814,2.21424,0.304637,-0.109783,0.376529,-0.0270183,0,0,5.425,0.14,0.2275,-0.111752,0.365146,-1.03846,-0.06552,0.13636,0.4858
-1.59899,0,0,16.599,16.599,13.401,13.401,1.33249,2.21378,0.306555,-0.280948,0.228953,-0.167304,1,0,5.8275,-0.1225,0.1225,-0.28365,0.217648,-1.17767,-0.06496,0.14168,0.48314
-1.59638,0,0,16.5964,16.5964,13.4036,13.4036,1.33031,2.21235,0.30758,-0.280923,0.228915,-0.167302,1,0,2.1875,-0.7,-0.385,-0.28365,0.217648,-1.17767,-0.06496,0.14168,0.48314
-1.5913,0,0,16.5913,16.5913,13.4087,13.4087,1.32608,2.20935,0.306407,0.0489626,-0.193106,0.284906,1,0,1.085,-1.645,-1.645,0.04758,-0.203862,-0.72895,-0.06496,0.14168,0.48314
-1.58623,0,0,16.5862,16.5862,13.4138,13.4138,1.32186,2.20636,0.305235,0.0490148,-0.19318,0.28491,1,0,1.085,-1.645,-1.645,0.04758,-0.203862,-0.72895,-0.06496,0.14168,0.48314
-1.57868,0,0,16.5787,16.5787,13.4213,13.4213,1.31556,2.20696,0.302315,0.0872723,0.0275156,0.668634,1,0,-0.035,0.4375,-2.7125,0.08601,0.016714,-0.348188,-0.06496,0.14168,0.48314
-1.57113,0,0,16.5711,16.5711,13.4289,13.4289,1.30927,2.20756,0.299394,0.0872618,0.0274059,0.668636,1,0,-0.035,0.4375,-2.7125,0.08601,0.016714,-0.348188,-0.06496,0.14168,0.48314
-0.783328,0,0,15.7833,15.7833,14.2167,14.2167,0.652773,2.1882,0.28679,-0.0386242,0.564674,0.218239,0,0,5.53,1.9425,-3.045,-0.040748,0.56486,-0.795318,-0.06496,0.14168,0.48314
-0.79107,0,0,15.7911,15.7911,14.2089,14.2089,0.659225,2.19293,0.28328,0.182519,-0.0181248,-0.544292,1,0,7.1225,2.87,-3.08,0.181414,-0.017446,-1.55196,-0.06496,0.14168,0.48314
-0.80179,0,0,15.8018,15.8018,14.1982,14.1982,0.668158,2.19503,0.280161,0.182482,-0.017969,-0.544295,1,0,8.505,1.33,-2.835,0.181414,-0.017446,-1.55196,-0.06202,0.154,0.49434
-0.803918,0,0,15.8039,15.8039,14.1961,14.1961,0.669932,2.19559,0.277564,-0.462252,0.144613,-0.640442,1,0,4.48,0.4375,-2.52,-0.46604,0.144936,-1.64737,-0.06202,0.154,0.49434
-0.806523,0,0,15.8065,15.8065,14.1935,14.1935,0.672103,2.19259,0.275555,-0.4622,0.14465,-0.64044,1,0,4.69,-1.645,-2.1525,-0.46604,0.144936,-1.64737,-0.06202,0.154,0.49434
-0.806686,0,0,15.8067,15.8067,14.1933,14.1933,0.672238,2.18816,0.27419,0.358392,-0.281814,-0.043891,1,0,3.535,-2.485,-1.7675,0.357948,-0.281088,-1.05542,-0.06202,0.154,0.49434
-0.800014,0,0,15.8,15.8,14.2,14.2,0.666678,2.18358,0.274085,0.358472,-0.281911,-0.0438868,1,0,0.315,-2.555,-1.0325,0.357948,-0.281088,-1.05542,-0.06202,0.154,0.49434
-0.797752,0,0,15.7978,15.7978,14.2022,14.2022,0.664793,2.17898,0.273769,0.0400164,0.063431,0.222792,1,0,2.38,-2.5725,-1.155,0.038064,0.063928,-0.790804,-0.06202,0.154,0.49434
-0.791701,0,0,15.7917,15.7917,14.2083,14.2083,0.659751,2.17953,0.275763,0.040007,0.063343,0.222793,1,0,0.56,0.455,0.1575,0.038064,0.063928,-0.790804,-0.06202,0.154,0.49434
-0.78844,0,0,15.7884,15.7884,14.2116,14.2116,0.657033,2.18139,0.277353,-0.0749509,-0.106338,0.18603,1,0,1.8725,1.225,-0.0875,-0.077348,-0.10553,-0.827282,-0.06202,0.154,0.49434
-0.791592,0,0,15.7916,15.7916,14.2084,14.2084,0.65966,2.18302,0.280741,-0.0749794,-0.106293,0.186029,1,0,4.83,1.1025,0.9625,-0.077348,-0.10553,-0.827282,-0.05992,0.15694,0.49574
-0.794068,0,0,15.7941,15.7941,14.2059,14.2059,0.661723,2.18516,0.284105,0.297458,0.354039,-0.474452,1,0,4.515,1.4,0.945,0.296704,0.354288,-1.48267,-0.05992,0.15694,0.49574
-0.803243,0,0,15.8032,15.8032,14.1968,14.1968,0.669369,2.18675,0.288153,0.297431,0.354172,-0.474455,1,0,7.63,1.085,1.3475,0.296704,0.354288,-1.48267,-0.05992,0.15694,0.49574
-0.811239,0,0,15.8112,15.8112,14.1888,14.1888,0.676033,2.18742,0.2918,0.250647,0.0300421,-0.369582,1,0,7.0875,0.5425,1.12,0.249734,0.030378,-1.3786,-0.05992,0.15694,0.49574
-0.819632,0,0,15.8196,15.8196,14.1804,14.1804,0.683027,2.18525,0.293492,0.250685,0.030164,-0.369582,1,0,7.315,-1.1375,0,0.249734,0.030378,-1.3786,-0.05992,0.15694,0.49574
-0.829419,0,0,15.8294,15.8294,14.1706,14.1706,0.691182,2.18146,0.295345,-0.303224,-0.308473,-0.168683,1,0,7.9625,-2.0825,0.105,-0.306586,-0.30805,-1.17925,-0.05992,0.15694,0.49574
-0.82874,0,0,15.8287,15.8287,14.1713,14.1713,0.690617,2.17894,0.296073,-0.30318,-0.308483,-0.168681,1,0,3.0975,-1.3475,-0.56,-0.306586,-0.30805,-1.17925,-0.05992,0.15694,0.49574
-0.823366,0,0,15.8234,15.8234,14.1766,14.1766,0.686138,2.17773,0.296486,-0.000416484,-0.278152,0.397375,1,0,0.91,-0.5775,-0.7525,-0.002562,-0.277672,-0.617564,-0.05992,0.15694,0.49574
-0.816005,0,0,15.816,15.816,14.184,14.184,0.680004,2.17899,0.296058,-0.000438402,-0.278259,0.397376,1,0,0,0.8575,-1.26,-0.002562,-0.277672,-0.617564,-0.05418,0.15512,0.49686
-0.804234,0,0,15.8042,15.8042,14.1958,14.1958,0.670195,2.18258,0.295028,-0.118221,0.564489,0.426637,1,0,-2.0475,2.2225,-1.6275,-0.12078,0.564372,-0.588528,-0.05418,0.15512,0.49686
-0.792464,0,0,15.7925,15.7925,14.2075,14.2075,0.660386,2.18618,0.293997,-0.118283,0.564318,0.426637,1,0,-2.0475,2.2225,-1.6275,-0.12078,0.564372,-0.588528,-0.05418,0.15512,0.49686
-0.594534,0,0,15.5945,15.5945,14.4055,14.4055,0.495445,2.11336,0.313659,-0.0697554,0.158179,-0.0454089,0,0,5.145,0.5775,-1.3825,-0.073322,0.161528,-1.05701,-0.05418,0.15512,0.49686
-0.400392,0,0,15.4004,15.4004,14.5996,14.5996,0.33366,2.04187,0.333674,-0.0685086,0.155358,-0.0453433,0,0,5.145,0.5775,-1.3825,-0.073322,0.161528,-1.05701,-0.05418,0.15512,0.49686
-0.413087,0,0,15.4131,15.4131,14.5869,14.5869,0.344239,2.04092,0.332716,0.284545,-0.267382,-0.0398111,1,0,9.38,-0.4375,-1.5575,0.28121,-0.260958,-1.05152,-0.05418,0.15512,0.49686
-0.41969,0,0,15.4197,15.4197,14.5803,14.5803,0.349742,2.03985,0.330346,-0.40098,-0.36914,-0.155874,1,0,6.5625,-0.5075,-2.38,-0.407236,-0.362706,-1.16669,-0.05418,0.15512,0.49686
-0.414904,0,0,15.4149,15.4149,14.5851,14.5851,0.345753,2.03775,0.32701,-0.400943,-0.36921,-0.155873,1,0,1.26,-1.12,-2.94,-0.407236,-0.362706,-1.16669,-0.05418,0.15512,0.49686
-0.409573,0,0,15.4096,15.4096,14.5904,14.5904,0.341311,2.03442,0.324087,-0.292641,-0.39359,0.521822,1,0,0.9975,-1.8375,-2.695,-0.298534,-0.386984,-0.494222,-0.0623,0.16128,0.50526
-0.396301,0,0,15.3963,15.3963,14.6037,14.6037,0.330251,2.03551,0.32116,0.568552,0.0840986,0.418792,1,0,-2.7125,0.7525,-2.7125,0.566324,0.090402,-0.596458,-0.0623,0.16128,0.50526
-0.397825,0,0,15.3978,15.3978,14.6022,14.6022,0.33152,2.03725,0.319107,0.568522,0.0841207,0.41879,1,0,4.1825,1.1375,-2.205,0.566324,0.090402,-0.596458,-0.0623,0.16128,0.50526
-0.400512,0,0,15.4005,15.4005,14.5995,14.5995,0.33376,2.04003,0.317991,-0.0604584,0.249031,-0.328493,1,0,4.7075,1.75,-1.6625,-0.06527,0.255102,-1.33797,-0.0623,0.16128,0.50526
-0.415445,0,0,15.4154,15.4154,14.5846,14.5846,0.346204,2.04117,0.316835,-0.0604783,0.249248,-0.328494,1,0,10.43,0.7875,-1.68,-0.06527,0.255102,-1.33797,-0.0623,0.16128,0.50526
-0.423613,0,0,15.4236,15.4236,14.5764,14.5764,0.35301,2.04461,0.315993,0.892031,0.268052,-0.992296,1,0,7.2625,2.135,-1.505,0.891332,0.273768,-1.99665,-0.0623,0.16128,0.50526
-0.428561,0,0,15.4286,15.4286,14.5714,14.5714,0.357135,2.04475,0.316091,0.892029,0.268124,-0.992297,1,0,5.74,0.21,-0.945,0.891332,0.273768,-1.99665,-0.0623,0.16128,0.50526
-0.430299,0,0,15.4303,15.4303,14.5697,14.5697,0.358583,2.04421,0.316426,-0.00902139,-0.235501,-0.321367,1,0,4.235,-0.1925,-0.805,-0.013542,-0.22936,-1.3309,-0.0623,0.16128,0.50526
-0.422132,0,0,15.4221,15.4221,14.5779,14.5779,0.351776,2.04041,0.31725,-0.00895508,-0.23562,-0.321364,1,0,-0.4025,-2.1,-0.5075,-0.013542,-0.22936,-1.3309,-0.06426,0.15932,0.51114
-0.051194,0,0,15.0512,15.0512,14.9488,14.9488,0.0426616,2.3981,-0.0586518,0.293623,0.278027,0.0687747,0,0,-0.7,-1.715,-0.7525,0.296582,0.28914,-0.943548,-0.06426,0.15932,0.51114
0.313686,0,0,14.6863,14.6863,15.3137,15.3137,-0.261405,2.74881,-0.437709,0.287509,0.272726,0.0684897,0,0,-0.7,-1.715,-0.7525,0.296582,0.28914,-0.943548,-0.06426,0.15932,0.51114
0.7901,0,0,14.2099,14.2099,15.7901,15.7901,-0.658416,2.98754,-0.719846,0.198186,0.387323,0.0163414,0,0,2.8525,-0.6475,-0.6125,0.21106,0.41053,-0.995032,-0.06426,0.15932,0.51114
1.07855,0,0,13.9214,13.9214,16.0786,16.0786,-0.898794,3.1375,-0.925119,0.0982621,0.203732,0.111184,0,0,7.07,0.98,-0.4025,0.113338,0.231312,-0.900726,-0.06426,0.15932,0.51114
1.35972,0,0,13.6403,13.6403,16.3597,16.3597,-1.1331,3.28426,-1.1303,0.0957046,0.199652,0.110968,0,0,7.9975,0.9625,0.245,0.113338,0.231312,-0.900726,-0.06426,0.15932,0.51114
1.35165,0,0,13.6484,13.6484,16.3516,16.3516,-1.12637,3.28645,-1.12833,-0.0866835,0.389188,-0.296237,1,0,7.14,1.3825,0.175,-0.069784,0.420534,-1.30479,-0.06426,0.15932,0.51114
1.35114,0,0,13.6489,13.6489,16.3511,16.3511,-1.12595,3.28657,-1.12646,-0.0866856,0.389195,-0.296237,1,0,3.605,0.175,0.0875,-0.069784,0.420534,-1.30479,-0.06426,0.15932,0.51114
1.59389,0,0,13.4061,13.4061,16.5939,16.5939,-1.32824,3.06372,-0.994581,-0.198578,0.173044,0.0668466,0,0,2.94,-0.7,0.6825,-0.18605,0.208132,-0.944646,-0.0637,0.16548,0.51436
1.60273,0,0,13.3973,13.3973,16.6027,16.6027,-1.33561,3.06295,-0.992933,0.428545,-0.240728,-0.163069,1,0,-0.7525,-0.35,-0.0525,0.443714,-0.205082,-1.17279,-0.0637,0.16548,0.51436
1.60817,0,0,13.3918,13.3918,16.6082,16.6082,-1.34014,3.06163,-0.991813,0.428568,-0.240807,-0.16307,1,0,0.8575,-0.665,-0.3675,0.443714,-0.205082,-1.17279,-0.0637,0.16548,0.51436
1.54484,0,0,13.4552,13.4552,16.5448,16.5448,-1.28737,3.1881,-1.18777,0.125929,-0.0522981,-0.0757528,0,0,2.345,0.1575,-0.455,0.142008,-0.01769,-1.08604,-0.0637,0.16548,0.51436
1.4747,0,0,13.5253,13.5253,16.4747,16.4747,-1.22892,3.31295,-1.38384,0.123754,-0.0512772,-0.0758539,0,0,6.1075,0.665,-0.8225,0.142008,-0.01769,-1.08604,-0.0637,0.16548,0.51436
1.46729,0,0,13.5327,13.5327,16.4673,16.4673,-1.22274,3.31619,-1.38448,0.0537217,0.138371,-0.152083,1,0,6.9125,2.03,-1.33,0.071736,0.171654,-1.16168,-0.0637,0.16548,0.51436
1.456,0,0,13.544,13.544,16.456,16.456,-1.21334,3.31887,-1.3832,0.0536749,0.138535,-0.152082,1,0,8.6625,1.68,-0.2275,0.071736,0.171654,-1.16168,-0.0637,0.16548,0.51436
1.44532,0,0,13.5547,13.5547,16.4453,16.4453,-1.20443,3.32091,-1.38249,-0.519895,0.0916715,-0.231506,1,0,8.4,1.3125,-0.56,-0.504226,0.124684,-1.2405,-0.0637,0.16548,0.51436
1.44356,0,0,13.5564,13.5564,16.4436,16.4436,-1.20297,3.32099,-1.38314,-0.519896,0.0916969,-0.231505,1,0,4.27,0.175,-1.3825,-0.504226,0.124684,-1.2405,-0.06888,0.1652,0.50638
1.44393,0,0,13.5561,13.5561,16.4439,16.4439,-1.20327,3.32025,-1.38405,-0.442983,-0.24147,-0.0990891,1,0,3.29,-0.2975,-1.54,-0.427,-0.208132,-1.1091,-0.06888,0.1652,0.50638
1.45603,0,0,13.544,13.544,16.456,16.456,-1.21336,3.31875,-1.38576,-0.442956,-0.241646,-0.0990913,1,0,-2.17,-0.735,-2.0125,-0.427,-0.208132,-1.1091,-0.06888,0.1652,0.50638
1.24145,0,0,13.7585,13.7585,16.2415,16.2415,-1.03454,3.111,-1.27421,-0.15506,-0.162449,0.0879319,0,0,-3.8675,-1.2775,-2.8,-0.14152,-0.132126,-0.923784,-0.06888,0.1652,0.50638
1.02841,0,0,13.9716,13.9716,16.0284,16.0284,-0.857004,2.90866,-1.1637,-0.151533,-0.159359,0.0881684,0,0,-2.66,-0.735,-2.555,-0.14152,-0.132126,-0.923784,-0.06888,0.1652,0.50638
1.03809,0,0,13.9619,13.9619,16.0381,16.0381,-0.865078,2.9085,-1.16594,-0.383568,-0.38348,0.295703,1,0,-1.0325,0.0525,-2.31,-0.37454,-0.355874,-0.717848,-0.06888,0.1652,0.50638
1.03049,0,0,13.9695,13.9695,16.0305,16.0305,-0.858738,2.9088,-1.16774,-0.383573,-0.383369,0.295705,1,0,7.035,0.315,-2.0475,-0.37454,-0.355874,-0.717848,-0.06888,0.1652,0.50638
1.01781,0,0,13.9822,13.9822,16.0178,16.0178,-0.848178,2.90996,-1.17,-0.318963,-0.0198581,-0.207399,1,0,9.415,0.8225,-2.31,-0.309636,0.007076,-1.21707,-0.06888,0.1652,0.50638
0.99873,0,0,14.0013,14.0013,15.9987,15.9987,-0.832275,2.91001,-1.17032,-0.318964,-0.019581,-0.207395,1,0,12.355,0.1575,-1.19,-0.309636,0.007076,-1.21707,-0.07308,0.15778,0.5047
0.993733,0,0,14.0063,14.0063,15.9937,15.9937,-0.828111,2.91031,-1.17008,-0.190073,0.170521,-0.12551,1,0,5.7575,0.2975,-0.8575,-0.180194,0.196908,-1.13582,-0.07308,0.15778,0.5047
0.989374,0,0,14.0106,14.0106,15.9894,15.9894,-0.824478,2.91054,-1.17047,0.000655617,-0.411106,-0.168541,1,0,5.4775,0.2625,-1.225,0.011346,-0.384178,-1.17852,-0.07308,0.15778,0.5047
0.997595,0,0,14.0024,14.0024,15.9976,15.9976,-0.831329,2.91062,-1.17139,0.000654341,-0.411225,-0.168543,1,0,-0.385,0.175,-1.54,0.011346,-0.384178,-1.17852,-0.07308,0.15778,0.5047
0.581989,0,0,14.418,14.418,15.582,15.582,-0.484991,2.73158,-1.0583,-0.133989,-0.321166,0.0756097,0,0,-4.6725,0.175,-1.645,-0.127002,-0.300242,-0.936472,-0.07308,0.15778,0.5047
0.173885,0,0,14.8261,14.8261,15.1739,15.1739,-0.144904,2.55496,-0.947389,-0.13091,-0.315238,0.0757845,0,0,-4.62,-0.7175,-1.5575,-0.127002,-0.300242,-0.936472,-0.07308,0.15778,0.5047
0.188929,0,0,14.8111,14.8111,15.1889,15.1889,-0.157441,2.55355,-0.947827,0.519549,0.143984,-0.00892651,1,0,-3.5875,-0.7,-1.26,0.526186,0.158722,-1.02053,-0.07308,0.15778,0.5047
0.188707,0,0,14.8113,14.8113,15.1887,15.1887,-0.157256,2.55217,-0.947186,0.519573,0.143987,-0.00892543,1,0,3.5175,-0.6825,-0.63,0.526186,0.158722,-1.02053,-0.07308,0.15778,0.5047
0.179221,0,0,14.8208,14.8208,15.1792,15.1792,-0.149351,2.5511,-0.945614,0.0567311,-0.347557,-0.190519,1,0,7.8225,-0.5075,-0.0875,0.061366,-0.33245,-1.20072,-0.06776,0.15582,0.50008
-0.0266697,0,0,15.0267,15.0267,14.9733,14.9733,0.0222247,2.18828,-0.657438,-0.309417,-0.148308,0.0085537,0,0,11.5675,-0.2275,0.665,-0.312686,-0.136396,-1.00345,-0.06776,0.15582,0.50008
-0.219816,0,0,15.2198,15.2198,14.7802,14.7802,0.18318,1.83459,-0.372229,-0.303248,-0.1455,0.00876534,0,0,7.49,0.8925,0.3325,-0.312686,-0.136396,-1.00345,-0.06776,0.15582,0.50008
-0.222829,0,0,15.2228,15.2228,14.7772,14.7772,0.185691,1.83517,-0.369849,0.124007,-0.655457,0.103435,1,0,4.795,0.4725,0.385,0.116388,-0.645868,-0.90951,-0.06776,0.15582,0.50008
-0.211072,0,0,15.2111,15.2111,14.7889,14.7889,0.175894,1.83454,-0.368763,0.124018,-0.655628,0.103436,1,0,-2.0825,-0.245,-0.3675,0.116388,-0.645868,-0.90951,-0.06776,0.15582,0.50008
0.127314,0,0,14.8727,14.8727,15.1273,15.1273,-0.106095,1.79508,-0.373339,-0.0401495,0.223894,0.105674,0,0,-4.9875,-1.0325,-0.6125,-0.049166,0.237656,-0.907314,-0.06776,0.15582,0.50008
0.453543,0,0,14.5465,14.5465,15.4535,15.4535,-0.377953,1.75669,-0.378244,-0.0394798,0.219152,0.105675,0,0,-2.2225,-0.7525,-0.9975,-0.049166,0.237656,-0.907314,-0.06776,0.15582,0.50008
0.543173,0,0,14.4568,14.4568,15.5432,15.5432,-0.452644,2.04328,-0.680727,0.258628,0.0658025,-0.027162,0,0,-0.21,0.0525,-0.735,0.255224,0.085766,-1.03895,-0.06776,0.15582,0.50008
0.615637,0,0,14.3844,14.3844,15.6156,15.6156,-0.513031,2.32515,-0.980951,0.253712,0.0647509,-0.0273584,0,0,7.0875,0.42,-0.28,0.255224,0.085766,-1.03895,-0.06832,0.1547,0.49322
0.60228,0,0,14.3977,14.3977,15.6023,15.6023,-0.5019,2.32539,-0.979715,-0.0692014,-0.375688,-0.264893,1,0,9.6425,0.2625,-0.28,-0.069052,-0.35441,-1.27466,-0.06832,0.1547,0.49322
0.592982,0,0,14.407,14.407,15.593,15.593,-0.494151,2.32727,-0.979544,-0.0692342,-0.375553,-0.264893,1,0,7.77,1.225,-0.8925,-0.069052,-0.35441,-1.27466,-0.06832,0.1547,0.49322
0.587116,0,0,14.4129,14.4129,15.5871,15.5871,-0.489263,2.32957,-0.979856,-0.0285765,-0.31758,-0.16838,1,0,6.1775,1.47,-1.1725,-0.028182,-0.296582,-1.17889,-0.06832,0.1547,0.49322
0.591734,0,0,14.4083,14.4083,15.5917,15.5917,-0.493112,2.33063,-0.981628,-0.0285949,-0.317647,-0.168381,1,0,1.3125,0.7525,-2.03,-0.028182,-0.296582,-1.17889,-0.06832,0.1547,0.49322
0.334468,0,0,14.6655,14.6655,15.3345,15.3345,-0.278724,2.43369,-1.12073,0.0895143,-0.19862,0.0657862,0,0,-2.59,0.0875,-2.4675,0.092232,-0.181414,-0.946476,-0.06832,0.1547,0.49322
0.0835907,0,0,14.9164,14.9164,15.0836,15.0836,-0.0696589,2.53429,-1.25991,0.0877601,-0.194975,0.0657212,0,0,-3.3425,-0.2275,-3.1325,0.092232,-0.181414,-0.946476,-0.06832,0.1547,0.49322
0.205487,0,0,14.7945,14.7945,15.2055,15.2055,-0.171239,2.94438,-1.68993,0.357477,0.0834139,0.039925,0,0,-3.045,-0.4725,-3.1675,0.37027,0.098454,-0.97173,-0.06832,0.1547,0.49322
0.325596,0,0,14.6744,14.6744,15.3256,15.3256,-0.27133,3.34769,-2.10845,0.350448,0.0816711,0.039532,0,0,-3.045,-0.4725,-3.1675,0.37027,0.098454,-0.97173,-0.07224,0.14714,0.48706
0.0730053,0,0,14.927,14.927,15.073,15.073,-0.0608378,3.06761,-1.89424,-0.224644,-0.183707,0.0550618,0,0,5.775,0.385,-2.765,-0.212158,-0.170312,-0.956602,-0.07224,0.14714,0.48706
-0.174778,0,0,15.1748,15.1748,14.8252,14.8252,0.145648,2.79326,-1.68238,-0.219862,-0.180108,0.0553039,0,0,5.775,0.385,-2.765,-0.212158,-0.170312,-0.956602,-0.07224,0.14714,0.48706
-0.132934,0,0,15.1329,15.1329,14.8671,14.8671,0.110779,2.63013,-1.57888,-0.131492,0.0380139,0.0764642,0,0,8.75,0.1225,-2.45,-0.12627,0.04819,-0.93574,-0.07224,0.14714,0.48706
-0.0918627,0,0,15.0919,15.0919,14.9081,14.9081,0.0765522,2.47027,-1.47533,-0.128704,0.0374173,0.0765893,0,0,8.75,0.1225,-2.45,-0.12627,0.04819,-0.93574,-0.07224,0.14714,0.48706
-0.0910834,0,0,15.0911,15.0911,14.9089,14.9089,0.0759028,2.47003,-1.47664,0.164688,0.196049,-0.0935712,1,0,3.0975,-0.0175,-1.7675,0.16836,0.206668,-1.10459,-0.07224,0.14714,0.48706
-0.0984765,0,0,15.0985,15.0985,14.9015,14.9015,0.0820638,2.51925,-1.55759,0.035419,-0.0114595,0.0745848,0,0,-0.56,0.0875,-1.785,0.039406,-0.000732,-0.937692,-0.07224,0.14714,0.48706
-0.105904,0,0,15.1059,15.1059,14.8941,14.8941,0.0882536,2.56605,-1.6378,0.034603,-0.0113516,0.0745484,0,0,-0.49,-0.735,-1.47,0.039406,-0.000732,-0.937692,-0.07224,0.14714,0.48706
-0.0989964,0,0,15.099,15.099,14.901,14.901,0.082497,2.56473,-1.63741,-0.084187,0.209109,0.218645,1,0,0.1925,-0.6475,-0.77,-0.07991,0.2196,-0.794708,-0.07028,0.14364,0.48692
-0.178317,0,0,15.1783,15.1783,14.8217,14.8217,0.148597,3.0457,-2.10129,0.372719,-0.0571972,0.170528,0,0,4.445,-1.19,0.455,0.38735,-0.04758,-0.842044,-0.07028,0.14364,0.48692
-0.259592,0,0,15.2596,15.2596,14.7404,14.7404,0.216327,3.51962,-2.56314,0.364461,-0.0560186,0.170051,0,0,6.09,-0.035,0.455,0.38735,-0.04758,-0.842044,-0.07028,0.14364,0.48692
-0.406843,0,0,15.4068,15.4068,14.5932,14.5932,0.339036,3.4778,-2.5631,-0.0289102,-0.110425,-0.0486406,0,0,7.9275,0.035,0.4375,-0.008418,-0.104066,-1.05908,-0.07028,0.14364,0.48692
-0.547359,0,0,15.5474,15.5474,14.4526,14.4526,0.456133,3.43792,-2.56245,-0.0282155,-0.108385,-0.0486128,0,0,6.055,0.6125,0.91,-0.008418,-0.104066,-1.05908,-0.07028,0.14364,0.48692
-0.836613,0,0,15.8366,15.8366,14.1634,14.1634,0.697178,3.19586,-2.36906,-0.198451,-0.220936,0.0188422,0,0,5.0925,0.875,0.7525,-0.18361,-0.220698,-0.992348,-0.07028,0.14364,0.48692
-1.11184,0,0,16.1118,16.1118,13.8882,13.8882,0.92653,2.95767,-2.17776,-0.1943,-0.216936,0.0190087,0,0,1.1025,0.1925,0.945,-0.18361,-0.220698,-0.992348,-0.07028,0.14364,0.48692
-1.10581,0,0,16.1058,16.1058,13.8942,13.8942,0.92151,2.95746,-2.17463,-0.040374,-0.0171022,0.141959,1,0,0.525,0.035,0.8225,-0.029036,-0.020984,-0.870348,-0.07028,0.14364,0.48692
-1.10011,0,0,16.1001,16.1001,13.8999,13.8999,0.916756,2.95789,-2.1718,-0.0403815,-0.017185,0.14196,1,0,0.6825,0.4025,0.6475,-0.029036,-0.020984,-0.870348,-0.06356,0.14602,0.483
-1.32821,0,0,16.3282,16.3282,13.6718,13.6718,1.10684,2.56241,-1.84094,-0.35263,-0.194736,-0.0216568,0,0,0.8575,0.5775,0.56,-0.34953,-0.201666,-1.03297,-0.06356,0.14602,0.483
-1.55653,0,0,16.5565,16.5565,13.4435,13.4435,1.2971,2.17464,-1.51472,-0.345868,-0.191413,-0.0214468,0,0,3.0625,0.49,-0.245,-0.34953,-0.201666,-1.03297,-0.06356,0.14602,0.483
-1.87661,0,0,16.8766,16.8766,13.1234,13.1234,1.56384,2.00214,-1.37736,-0.144352,-0.259913,-0.0176418,0,0,4.095,-0.07,-0.35,-0.150182,-0.274744,-1.02919,-0.06356,0.14602,0.483
-2.19558,0,0,17.1956,17.1956,12.8044,12.8044,1.82965,1.83417,-1.24305,-0.141422,-0.255275,-0.017681,0,0,6.37,0.4375,-1.0325,-0.150182,-0.274744,-1.02919,-0.06356,0.14602,0.483
-2.46974,0,0,17.4697,17.4697,12.5303,12.5303,2.05812,2.09571,-1.49212,0.195999,-0.182785,0.14641,0,0,6.545,0.07,-1.7325,0.193248,-0.206302,-0.866078,-0.06356,0.14602,0.483
-2.73713,0,0,17.7371,17.7371,12.2629,12.2629,2.28094,2.35336,-1.73906,0.191505,-0.178908,0.146088,0,0,5.6875,0.84,-1.995,0.193248,-0.206302,-0.866078,-0.06356,0.14602,0.483
-2.5989,0,0,17.5989,17.5989,12.4011,12.4011,2.16575,2.58439,-1.98178,0.162329,0.100947,0.123739,0,0,4.5675,0.525,-2.555,0.167994,0.075274,-0.88816,-0.06356,0.14602,0.483
-2.46299,0,0,17.463,17.463,12.537,12.537,2.05249,2.81204,-2.21947,0.15836,0.0989665,0.123624,0,0,4.5675,0.525,-2.555,0.167994,0.075274,-0.88816,-0.06888,0.1435,0.4711
-2.41071,0,0,17.4107,17.4107,12.5893,12.5893,2.00893,3.24118,-2.63494,0.352547,0.0371303,0.0678063,0,0,1.8725,0.385,-3.36,0.370514,0.014274,-0.943182,-0.06888,0.1435,0.4711
-2.35894,0,0,17.3589,17.3589,12.6411,12.6411,1.96578,3.66182,-3.04988,0.345219,0.0363638,0.0673907,0,0,1.8725,0.385,-3.36,0.370514,0.014274,-0.943182,-0.06888,0.1435,0.4711
-2.22712,0,0,17.2271,17.2271,12.7729,12.7729,1.85594,3.3157,-2.80216,-0.303681,0.102977,-0.0248813,0,0,1.2775,-0.14,-3.7975,-0.287188,0.082716,-1.03517,-0.06888,0.1435,0.4711
-2.09758,0,0,17.0976,17.0976,12.9024,12.9024,1.74798,2.97632,-2.5537,-0.297766,0.101107,-0.0244972,0,0,1.2775,-0.14,-3.7975,-0.287188,0.082716,-1.03517,-0.06888,0.1435,0.4711
-2.10037,0,0,17.1004,17.1004,12.8996,12.8996,1.7503,2.97512,-2.55773,-0.21222,-0.23922,-0.0830208,1,0,4.8475,-0.6475,-3.325,-0.2013,-0.257298,-1.09324,-0.06888,0.1435,0.4711
-2.10315,0,0,17.1031,17.1031,12.8969,12.8969,1.75262,2.97393,-2.56175,-0.212199,-0.23918,-0.083021,1,0,4.8475,-0.6475,-3.325,-0.2013,-0.257298,-1.09324,-0.06888,0.1435,0.4711
-2.11058,0,0,17.1106,17.1106,12.8894,12.8894,1.75882,2.97495,-2.56387,-0.089273,-0.0632094,-0.306546,1,0,6.965,0.6825,-2.2575,-0.077836,-0.081618,-1.31504,-0.06888,0.1435,0.4711
-2.11802,0,0,17.118,17.118,12.882,12.882,1.76501,2.97597,-2.566,-0.0892908,-0.0631015,-0.30655,1,0,6.965,0.6825,-2.2575,-0.077836,-0.081618,-1.31504,-0.06706,0.1393,0.46816
-2.11876,0,0,17.1188,17.1188,12.8812,12.8812,1.76563,2.97648,-2.56619,0.0468858,0.075523,-0.151636,1,0,3.78,0.42,-1.12,0.058926,0.056852,-1.16132,-0.06706,0.1393,0.46816
-2.11949,0,0,17.1195,17.1195,12.8805,12.8805,1.76624,2.97699,-2.56637,0.0468769,0.0755337,-0.151636,1,0,3.78,0.42,-1.12,0.058926,0.056852,-1.16132,-0.06706,0.1393,0.46816
-2.17358,0,0,17.1736,17.1736,12.8264,12.8264,1.81132,3.18832,-2.77833,0.169053,-0.0461804,0.0537108,0,0,-0.2975,0.105,-0.2275,0.185318,-0.065514,-0.957334,-0.06706,0.1393,0.46816
-2.22665,0,0,17.2267,17.2267,12.7733,12.7733,1.85554,3.39531,-2.98941,0.165446,-0.0454168,0.0534788,0,0,-0.2975,0.105,-0.2275,0.185318,-0.065514,-0.957334,-0.06706,0.1393,0.46816
-2.24918,0,0,17.2492,17.2492,12.7508,12.7508,1.87432,3.52499,-3.13703,0.0985566,-0.0150512,0.0737411,0,0,3.0625,-0.9975,1.2075,0.120414,-0.035502,-0.937082,-0.06706,0.1393,0.46816
-2.27129,0,0,17.2713,17.2713,12.7287,12.7287,1.89274,3.65199,-3.28421,0.0963444,-0.014735,0.0735919,0,0,3.0625,-0.9975,1.2075,0.120414,-0.035502,-0.937082,-0.06706,0.1393,0.46816
-2.28083,0,0,17.2808,17.2808,12.7192,12.7192,1.90069,3.65198,-3.28044,-0.229237,0.175188,-0.102721,1,0,7.7525,0.1925,1.19,-0.206546,0.154086,-1.11203,-0.06706,0.1393,0.46816
-2.28573,0,0,17.2857,17.2857,12.7143,12.7143,1.90478,3.65193,-3.27608,0.332878,-0.224706,-0.189279,1,0,5.565,0.175,1.54,0.357948,-0.245464,-1.19792,-0.06286,0.1358,0.48286
-2.22387,0,0,17.2239,17.2239,12.7761,12.7761,1.85323,3.20846,-2.91299,-0.376526,0.0511511,0.0493646,0,0,3.675,0.3675,1.6275,-0.362218,0.030988,-0.961604,-0.06286,0.1358,0.48286
-2.15664,0,0,17.1566,17.1566,12.8434,12.8434,1.7972,2.77408,-2.5506,-0.368955,0.0501877,0.0497912,0,0,0.84,0.735,1.1025,-0.362218,0.030988,-0.961604,-0.06286,0.1358,0.48286
-2.15309,0,0,17.1531,17.1531,12.8469,12.8469,1.79425,2.77229,-2.54707,0.247616,0.216839,-0.157743,1,0,1.68,-0.8575,1.085,0.256932,0.197518,-1.16754,-0.06286,0.1358,0.48286
-2.15298,0,0,17.153,17.153,12.847,12.847,1.79415,2.77238,-2.54511,0.247615,0.216838,-0.157743,1,0,3.325,0.21,0.14,0.256932,0.197518,-1.16754,-0.06286,0.1358,0.48286
-2.15721,0,0,17.1572,17.1572,12.8428,12.8428,1.79768,2.77081,-2.54392,0.137576,0.330355,-0.186759,1,0,5.3725,-0.77,-0.28,0.1464,0.310856,-1.19633,-0.06286,0.1358,0.48286
-2.1657,0,0,17.1657,17.1657,12.8343,12.8343,1.80475,2.77025,-2.54414,0.137586,0.330478,-0.186763,1,0,7.4025,-0.21,-1.12,0.1464,0.310856,-1.19633,-0.06286,0.1358,0.48286
-2.17287,0,0,17.1729,17.1729,12.8271,12.8271,1.81073,2.76983,-2.54511,0.206233,0.132737,-0.168692,1,0,6.8075,-0.14,-1.5575,0.21533,0.113216,-1.1784,-0.06286,0.1358,0.48286
-2.17899,0,0,17.179,17.179,12.821,12.821,1.81582,2.77029,-2.54758,0.206225,0.132826,-0.168695,1,0,6.3525,0.35,-2.45,0.21533,0.113216,-1.1784,-0.06384,0.13692,0.47614
-2.18072,0,0,17.1807,17.1807,12.8193,12.8193,1.81726,2.77202,-2.55136,0.171692,0.127233,-0.122469,1,0,4.34,1.0675,-3.2375,0.180682,0.107604,-1.13253,-0.06384,0.13692,0.47614
-2.18244,0,0,17.1824,17.1824,12.8176,12.8176,1.8187,2.77375,-2.55514,0.171662,0.127258,-0.122471,1,0,4.34,1.0675,-3.2375,0.180682,0.107604,-1.13253,-0.06384,0.13692,0.47614
-2.33682,0,0,17.3368,17.3368,12.6632,12.6632,1.94735,2.52417,-2.34894,-0.213956,-0.126593,-0.0116901,0,0,1.9425,0.945,-3.4125,-0.210938,-0.14823,-1.02273,-0.06384,0.13692,0.47614
-2.48825,0,0,17.4882,17.4882,12.5118,12.5118,2.07354,2.27971,-2.14431,-0.209693,-0.124388,-0.0115886,0,0,1.9425,0.945,-3.4125,-0.210938,-0.14823,-1.02273,-0.06384,0.13692,0.47614
-2.4697,0,0,17.4697,17.4697,12.5303,12.5303,2.05808,2.6108,-2.4578,0.259057,0.0177335,0.0924351,0,0,5.1625,0.4375,-3.71,0.265594,-0.005978,-0.91927,-0.06384,0.13692,0.47614
-2.57177,0,0,17.5718,17.5718,12.4282,12.4282,2.14315,2.24418,-2.14999,-0.301281,-0.0689498,0.0593325,0,0,7.14,0.42,-3.5875,-0.303536,-0.094062,-0.952332,-0.06384,0.13692,0.47614
-2.6717,0,0,17.6717,17.6717,12.3283,12.3283,2.22642,1.88512,-1.84299,-0.295018,-0.0674899,0.0595028,0,0,7.0875,0.6125,-3.115,-0.303536,-0.094062,-0.952332,-0.06384,0.13692,0.47614
-2.73503,0,0,17.735,17.735,12.265,12.265,2.27919,2.50916,-2.39644,0.556769,-0.0507101,0.0974093,0,0,5.95,0.0875,-2.45,0.562786,-0.078202,-0.914268,-0.07168,0.13832,0.48034
-2.53094,0,0,17.5309,17.5309,12.4691,12.4691,2.10911,2.37644,-2.31065,-0.115892,0.164937,-0.0196714,0,0,4.6025,0.3325,-2.17,-0.115046,0.140178,-1.03066,-0.07168,0.13832,0.48034
-2.32423,0,0,17.3242,17.3242,12.6758,12.6758,1.93686,2.2455,-2.22295,-0.113608,0.161938,-0.0194733,0,0,1.61,-0.1225,-1.3825,-0.115046,0.140178,-1.03066,-0.07168,0.13832,0.48034
-2.32114,0,0,17.3211,17.3211,12.6789,12.6789,1.93429,2.24591,-2.22178,-0.254539,0.0759161,0.29626,1,0,1.96,0.385,-0.3325,-0.256566,0.05429,-0.71736,-0.07168,0.13832,0.48034
-2.31809,0,0,17.3181,17.3181,12.6819,12.6819,1.93174,2.24446,-2.22053,-0.254513,0.0758718,0.296262,1,0,1.9775,-0.7,-0.245,-0.256566,0.05429,-0.71736,-0.07168,0.13832,0.48034
-2.31724,0,0,17.3172,17.3172,12.6828,12.6828,1.93103,2.24392,-2.21802,-0.227413,-0.496182,0.364008,1,0,2.975,-0.14,0.4725,-0.22936,-0.517158,-0.650138,-0.07168,0.13832,0.48034
-2.31638,0,0,17.3164,17.3164,12.6836,12.6836,1.93032,2.24339,-2.21551,-0.227403,-0.496195,0.364008,1,0,2.975,-0.14,0.4725,-0.22936,-0.517158,-0.650138,-0.07168,0.13832,0.48034
-2.61969,0,0,17.6197,17.6197,12.3803,12.3803,2.18308,2.52414,-2.45694,0.249149,-0.245956,0.0302102,0,0,5.0925,-0.6825,1.435,0.254126,-0.271572,-0.981002,-0.07168,0.13832,0.48034
-2.91771,0,0,17.9177,17.9177,12.0823,12.0823,2.43142,2.8007,-2.68883,0.244327,-0.241639,0.0298119,0,0,5.0925,-0.6825,1.435,0.254126,-0.271572,-0.981002,-0.07112,0.1337,0.47894
-2.65668,0,0,17.6567,17.6567,12.3433,12.3433,2.2139,2.68153,-2.61312,-0.104446,0.213162,-0.0127211,0,0,5.705,-0.1925,1.33,-0.09821,0.186538,-1.02346,-0.07112,0.1337,0.47894
-2.40035,0,0,17.4003,17.4003,12.5997,12.5997,2.00029,2.56463,-2.53662,-0.102408,0.209444,-0.0124909,0,0,5.705,-0.1925,1.33,-0.09821,0.186538,-1.02346,-0.07112,0.1337,0.47894
-2.40083,0,0,17.4008,17.4008,12.5992,12.5992,2.00069,2.56492,-2.53314,-0.0312226,0.139839,-0.214004,1,0,3.57,0.3675,1.015,-0.026718,0.116998,-1.22342,-0.07112,0.1337,0.47894
-2.40104,0,0,17.401,17.401,12.599,12.599,2.00087,2.56463,-2.52921,0.0823716,-0.123952,-0.0925307,1,0,3.43,0.035,1.295,0.087352,-0.146522,-1.10288,-0.07112,0.1337,0.47894
-2.39921,0,0,17.3992,17.3992,12.6008,12.6008,1.99934,2.56482,-2.52712,0.0823682,-0.123979,-0.0925299,1,0,2.52,0.28,0.21,0.087352,-0.146522,-1.10288,-0.07112,0.1337,0.47894
-2.43408,0,0,17.4341,17.4341,12.5659,12.5659,2.0284,2.90654,-2.83538,0.290104,-0.0306663,0.035526,0,0,2.5025,0.0175,0.14,0.30195,-0.053802,-0.975512,-0.07112,0.1337,0.47894
-2.4681,0,0,17.4681,17.4681,12.5319,12.5319,2.05675,3.24194,-3.1432,0.284259,-0.0301836,0.0351947,0,0,2.485,0.315,-0.2975,0.30195,-0.053802,-0.975512,-0.07112,0.1337,0.47894
-2.46676,0,0,17.4668,17.4668,12.5332,12.5332,2.05564,3.24224,-3.14252,0.00082756,0.188282,0.145111,1,0,2.7825,0.315,-0.6125,0.017324,0.164456,-0.866444,-0.06342,0.13132,0.4725
-2.46645,0,0,17.4664,17.4664,12.5336,12.5336,2.05537,3.2425,-3.14331,0.000822951,0.188277,0.145111,1,0,3.3075,0.2625,-1.47,0.017324,0.164456,-0.866444,-0.06342,0.13132,0.4725
-2.05176,0,0,17.0518,17.0518,12.9482,12.9482,1.7098,3.20995,-3.16533,-0.0397935,0.31318,0.0846042,0,0,3.955,0.63,-1.995,-0.024034,0.29524,-0.926712,-0.06342,0.13132,0.4725
-2.0546,0,0,17.0546,17.0546,12.9454,12.9454,1.71217,3.21137,-3.16772,-0.096066,0.131374,0.159969,1,0,4.83,0.91,-2.415,-0.08052,0.113582,-0.851926,-0.06342,0.13132,0.4725
-2.05874,0,0,17.0587,17.0587,12.9413,12.9413,1.71562,3.21395,-3.1713,-0.096111,0.131434,0.159965,1,0,5.4775,1.575,-3.1325,-0.08052,0.113582,-0.851926,-0.06342,0.13132,0.4725
-2.36176,0,0,17.3618,17.3618,12.6382,12.6382,1.96813,3.44863,-3.38022,0.221373,-0.257424,-0.0120508,0,0,4.9,1.2075,-3.36,0.242414,-0.279258,-1.02224,-0.06342,0.13132,0.4725
-2.65852,0,0,17.6585,17.6585,12.3415,12.3415,2.21543,3.6791,-3.58759,0.217358,-0.253128,-0.0124579,0,0,4.445,1.4175,-3.815,0.242414,-0.279258,-1.02224,-0.06342,0.13132,0.4725
-2.66047,0,0,17.6605,17.6605,12.3395,12.3395,2.21706,3.67891,-3.59195,0.107903,-0.121081,-0.241389,1,0,4.4975,-0.0875,-3.535,0.132492,-0.147376,-1.2494,-0.06342,0.13132,0.4725
-2.66022,0,0,17.6602,17.6602,12.3398,12.3398,2.21685,3.67889,-3.59616,0.107903,-0.121085,-0.241389,1,0,3.465,0.0175,-3.4475,0.132492,-0.147376,-1.2494,-0.06524,0.13174,0.4683
-2.66015,0,0,17.6601,17.6601,12.3399,12.3399,2.21679,3.67893,-3.60051,0.108145,-0.107041,-0.210529,1,0,3.5525,0.0525,-3.535,0.132736,-0.133346,-1.21878,-0.06524,0.13174,0.4683
-2.65859,0,0,17.6586,17.6586,12.3414,12.3414,2.21549,3.6777,-3.60425,0.108167,-0.107064,-0.210526,1,0,2.835,-0.6825,-3.15,0.132736,-0.133346,-1.21878,-0.06524,0.13174,0.4683
-2.6567,0,0,17.6567,17.6567,12.3433,12.3433,2.21392,3.67743,-3.60729,-0.409236,-0.0377231,-0.128518,1,0,2.66,-0.105,-2.765,-0.386862,-0.06405,-1.13741,-0.06524,0.13174,0.4683
-2.65467,0,0,17.6547,17.6547,12.3453,12.3453,2.21223,3.6771,-3.60889,-0.40923,-0.0377526,-0.128517,1,0,2.5375,-0.105,-1.925,-0.386862,-0.06405,-1.13741,-0.06524,0.13174,0.4683
-2.64298,0,0,17.643,17.643,12.357,12.357,2.20249,3.47212,-3.45728,-0.170099,0.00971588,0.0240458,0,0,2.73,-0.105,-1.5575,-0.150304,-0.01647,-0.986248,-0.06524,0.13174,0.4683
-2.63097,0,0,17.631,17.631,12.369,12.369,2.19248,3.27164,-3.30489,-0.166606,0.0095495,0.0242581,0,0,2.485,0.1225,-0.945,-0.150304,-0.01647,-0.986248,-0.06524,0.13174,0.4683
-2.63067,0,0,17.6307,17.6307,12.3693,12.3693,2.19223,3.27138,-3.30378,-0.155425,-0.172424,0.31995,1,0,3.255,0,-0.35,-0.13908,-0.19825,-0.692838,-0.06524,0.13174,0.4683
-2.63157,0,0,17.6316,17.6316,12.3684,12.3684,2.19297,3.27044,-3.30113,-0.155409,-0.172411,0.31995,1,0,3.7625,-0.3675,0.56,-0.13908,-0.19825,-0.692838,-0.06706,0.12838,0.46886
-2.80119,0,0,17.8012,17.8012,12.1988,12.1988,2.33433,3.24736,-3.28038,-0.0118962,-0.147844,-0.0825347,0,0,4.0425,-0.7175,1.12,0.004636,-0.176168,-1.09214,-0.06706,0.12838,0.46886
-2.96981,0,0,17.9698,17.9698,12.0302,12.0302,2.47484,3.22516,-3.25872,-0.0115094,-0.145396,-0.0826156,0,0,4.9875,-0.4725,1.8025,0.004636,-0.176168,-1.09214,-0.06706,0.12838,0.46886
-2.85242,0,0,17.8524,17.8524,12.1476,12.1476,2.37702,3.38632,-3.41969,0.121625,0.0909188,0.0751603,0,0,4.655,-0.5425,2.0475,0.141154,0.06161,-0.935496,-0.06706,0.12838,0.46886
-2.73483,0,0,17.7348,17.7348,12.2652,12.2652,2.27902,3.54433,-3.58056,0.118872,0.0892063,0.0750631,0,0,3.5875,-0.455,2.135,0.141154,0.06161,-0.935496,-0.06706,0.12838,0.46886
-2.92338,0,0,17.9234,17.9234,12.0766,12.0766,2.43615,3.40637,-3.45787,-0.11307,-0.149864,0.00415509,0,0,2.73,0.0175,1.995,-0.094184,-0.17995,-1.00589,-0.06706,0.12838,0.46886
-3.10716,0,0,18.1072,18.1072,11.8928,11.8928,2.5893,3.27162,-3.33681,-0.110722,-0.147192,0.00417496,0,0,2.17,0.1925,1.715,-0.094184,-0.17995,-1.00589,-0.06706,0.12838,0.46886
-3.10432,0,0,18.1043,18.1043,11.8957,11.8957,2.58693,3.272,-3.3329,-0.167949,0.0189815,0.219951,1,0,1.9775,0.455,1.26,-0.151646,-0.013908,-0.79178,-0.06706,0.12838,0.46886
-3.10306,0,0,18.1031,18.1031,11.8969,11.8969,2.58588,3.27213,-3.33052,-0.167951,0.0189633,0.219952,1,0,2.765,0.2625,0.385,-0.151646,-0.013908,-0.79178,-0.06706,0.12838,0.46886
-3.10327,0,0,18.1033,18.1033,11.8967,11.8967,2.58606,3.27314,-3.32914,0.0243432,-0.00460425,0.116059,1,0,3.4825,0.7525,-0.2275,0.04148,-0.037454,-0.89487,-0.06356,0.12936,0.46942
-3.23004,0,0,18.23,18.23,11.77,11.77,2.6917,3.1818,-3.25666,-0.0731974,-0.0833648,0.105368,0,0,4.1825,0.3675,-1.4875,-0.058072,-0.117974,-0.905484,-0.06356,0.12936,0.46942
-3.35748,0,0,18.3575,18.3575,11.6425,11.6425,2.7979,3.09315,-3.18656,-0.0716525,-0.0815121,0.105363,0,0,5.6525,0.77,-2.555,-0.058072,-0.117974,-0.905484,-0.06356,0.12936,0.46942
-3.36064,0,0,18.3606,18.3606,11.6394,11.6394,2.80053,3.0951,-3.18982,0.043239,0.291753,0.148514,1,0,5.005,1.1725,-2.9575,0.05734,0.254858,-0.862662,-0.06356,0.12936,0.46942
-3.36404,0,0,18.364,18.364,11.636,11.636,2.80337,3.09718,-3.19512,0.0432027,0.291802,0.14851,1,0,5.18,1.19,-4.1475,0.05734,0.254858,-0.862662,-0.06356,0.12936,0.46942
-3.36638,0,0,18.3664,18.3664,11.6336,11.6336,2.80531,3.0985,-3.2013,0.206457,0.316017,-0.242961,1,0,4.7075,0.7175,-4.6375,0.221308,0.279014,-1.25111,-0.06356,0.12936,0.46942
-3.36629,0,0,18.3663,18.3663,11.6337,11.6337,2.80524,3.09917,-3.20842,0.206445,0.316016,-0.242962,1,0,3.605,0.315,-5.1625,0.221308,0.279014,-1.25111,-0.06356,0.12936,0.46942
-3.36561,0,0,18.3656,18.3656,11.6344,11.6344,2.80468,3.10074,-3.2154,0.0308707,0.0981318,0.140145,1,0,3.325,0.84,-5.11,0.045018,0.061366,-0.870958,-0.06356,0.12936,0.46942
-3.36435,0,0,18.3644,18.3644,11.6356,11.6356,2.80363,3.10208,-3.22155,0.0308473,0.0981135,0.140145,1,0,3.0275,0.735,-4.62,0.045018,0.061366,-0.870958,-0.0693,0.1274,0.46858
-2.90356,0,0,17.9036,17.9036,12.0964,12.0964,2.41964,3.26338,-3.4127,0.113076,0.345079,0.12554,0,0,3.22,0.315,-4.1125,0.130418,0.31476,-0.885598,-0.0693,0.1274,0.46858
-2.45014,0,0,17.4501,17.4501,12.5499,12.5499,2.04179,3.42029,-3.60374,0.110342,0.338494,0.125636,0,0,3.08,-0.3325,-3.1325,0.130418,0.31476,-0.885598,-0.0693,0.1274,0.46858
-2.45168,0,0,17.4517,17.4517,12.5483,12.5483,2.04307,3.42038,-3.60638,0.136946,0.0947516,0.145307,1,0,4.235,0.1225,-2.5375,0.157136,0.071248,-0.866078,-0.0693,0.1274,0.46858
-2.45291,0,0,17.4529,17.4529,12.5471,12.5471,2.04409,3.41971,-3.60591,0.136958,0.0947695,0.145307,1,0,3.99,-0.2625,-0.7175,0.157136,0.071248,-0.866078,-0.0693,0.1274,0.46858
-2.4538,0,0,17.4538,17.4538,12.5462,12.5462,2.04483,3.41938,-3.6045,-0.224213,0.146442,0.205798,1,0,3.7975,-0.035,-0.175,-0.20557,0.122854,-0.806054,-0.0693,0.1274,0.46858
-2.45327,0,0,17.4533,17.4533,12.5467,12.5467,2.04439,3.41828,-3.60141,-0.224194,0.146434,0.205799,1,0,3.08,-0.455,0.8225,-0.20557,0.122854,-0.806054,-0.0693,0.1274,0.46858
-2.17262,0,0,17.1726,17.1726,12.8274,12.8274,1.81052,3.50805,-3.71574,0.0611912,0.208185,0.0886717,0,0,2.7125,0.035,1.155,0.082594,0.188612,-0.92232,-0.0693,0.1274,0.46858
-1.89916,0,0,16.8992,16.8992,13.1008,13.1008,1.58263,3.59599,-3.83204,0.0596593,0.204215,0.0886942,0,0,3.6925,0.28,2.0475,0.082594,0.188612,-0.92232,-0.06146,0.12796,0.46774
-1.70114,0,0,16.7011,16.7011,13.2989,13.2989,1.41762,3.79136,-4.04122,0.174705,0.164576,-0.0187842,0,0,4.305,-0.1225,2.205,0.201544,0.15189,-1.02883,-0.06146,0.12796,0.46774
-1.50726,0,0,16.5073,16.5073,13.4927,13.4927,1.25605,3.98258,-4.25055,0.171375,0.161758,-0.0189447,0,0,4.6375,-0.28,2.4325,0.201544,0.15189,-1.02883,-0.06146,0.12796,0.46774
-1.51166,0,0,16.5117,16.5117,13.4883,13.4883,1.25972,3.98079,-4.24535,-0.0256433,0.203589,0.151094,1,0,5.285,-0.8575,2.0475,0.00366,0.193614,-0.8601,-0.06146,0.12796,0.46774
-1.51412,0,0,16.5141,16.5141,13.4859,13.4859,1.26177,3.97908,-4.24102,-0.0256135,0.203625,0.151095,1,0,4.41,-0.8225,1.54,0.00366,0.193614,-0.8601,-0.06146,0.12796,0.46774
-1.51413,0,0,16.5141,16.5141,13.4859,13.4859,1.26178,3.9778,-4.23734,-0.214987,0.0376546,0.196588,1,0,3.29,-0.5775,1.155,-0.186538,0.027816,-0.81496,-0.06146,0.12796,0.46774
-1.51246,0,0,16.5125,16.5125,13.4875,13.4875,1.26038,3.97639,-4.23586,-0.214963,0.0376303,0.19659,1,0,2.59,-0.6825,-0.1225,-0.186538,0.027816,-0.81496,-0.06146,0.12796,0.46774
-1.30476,0,0,16.3048,16.3048,13.6952,13.6952,1.0873,4.04166,-4.34224,0.0610097,0.172497,-0.0626035,0,0,1.925,-0.6125,-0.7525,0.091744,0.165554,-1.07214,-0.06146,0.12796,0.46774
-1.10252,0,0,16.1025,16.1025,13.8975,13.8975,0.918767,4.10706,-4.44739,0.059871,0.169562,-0.0626332,0,0,2.8175,0.1925,-1.82,0.091744,0.165554,-1.07214,-0.0672,0.12726,0.46256
-1.10864,0,0,16.1086,16.1086,13.8914,13.8914,0.923867,4.12613,-4.4927,0.0246727,-0.00572361,-0.097453,0,0,4.2,0.4725,-2.135,0.05673,-0.009638,-1.10666,-0.0672,0.12726,0.46256
-1.11609,0,0,16.1161,16.1161,13.8839,13.8839,0.930078,4.14415,-4.53942,0.024359,-0.00561588,-0.0974774,0,0,4.935,0.07,-3.01,0.05673,-0.009638,-1.10666,-0.0672,0.12726,0.46256
-0.947586,0,0,15.9476,15.9476,14.0524,14.0524,0.789655,4.17081,-4.61282,0.0197645,0.140568,-0.0105499,0,0,6.5275,0,-3.57,0.052582,0.138836,-1.02041,-0.0672,0.12726,0.46256
-0.780057,0,0,15.7801,15.7801,14.2199,14.2199,0.650047,4.19818,-4.68684,0.0192879,0.138137,-0.0105542,0,0,5.6,0.7875,-3.99,0.052582,0.138836,-1.02041,-0.0672,0.12726,0.46256
-0.822998,0,0,15.823,15.823,14.177,14.177,0.685831,4.13115,-4.65535,-0.0572961,-0.0327047,-0.0541232,0,0,5.39,0.7175,-4.0075,-0.025498,-0.032452,-1.06372,-0.0672,0.12726,0.46256
-0.861082,0,0,15.8611,15.8611,14.1389,14.1389,0.717569,4.06466,-4.62289,-0.0561386,-0.0321512,-0.0540471,0,0,3.4475,0.245,-3.3425,-0.025498,-0.032452,-1.06372,-0.0672,0.12726,0.46256
-1.04146,0,0,16.0415,16.0415,13.9585,13.9585,0.867885,4.39482,-4.92925,0.301357,-0.153622,0.0373343,0,0,2.695,0.4375,-2.975,0.339282,-0.156404,-0.972584,-0.0672,0.12726,0.46256
-1.2191,0,0,16.2191,16.2191,13.7809,13.7809,1.01592,4.72042,-5.23564,0.295692,-0.151054,0.0368405,0,0,2.8525,0.8925,-2.3625,0.339282,-0.156404,-0.972584,-0.07154,0.13048,0.4704
-1.38083,0,0,16.3808,16.3808,13.6192,13.6192,1.15069,5.05912,-5.55755,0.30924,-0.137973,0.0358006,0,0,3.36,0.6825,-1.75,0.358802,-0.145668,-0.973072,-0.07154,0.13048,0.4704
-1.54059,0,0,16.5406,16.5406,13.4594,13.4594,1.28382,5.39231,-5.87583,0.303449,-0.135671,0.0352219,0,0,3.64,1.26,-1.015,0.358802,-0.145668,-0.973072,-0.07154,0.13048,0.4704
-1.2642,0,0,16.2642,16.2642,13.7358,13.7358,1.0535,5.33651,-5.90696,-0.0622252,0.224756,-0.00333423,0,0,4.48,0.56,-0.7,-0.009394,0.21838,-1.0115,-0.07154,0.13048,0.4704
-0.989893,0,0,15.9899,15.9899,14.0101,14.0101,0.824911,5.28178,-5.93641,-0.0612742,0.220785,-0.00318075,0,0,3.08,0.735,-0.0525,-0.009394,0.21838,-1.0115,-0.07154,0.13048,0.4704
-1.05747,0,0,16.0575,16.0575,13.9425,13.9425,0.881225,5.12948,-5.8388,-0.128481,-0.0506974,0.0222503,0,0,3.15,0.525,0.0875,-0.079544,-0.053802,-0.986492,-0.07154,0.13048,0.4704
-1.12314,0,0,16.1231,16.1231,13.8769,13.8769,0.935952,4.98089,-5.74151,-0.125898,-0.0497425,0.0224637,0,0,2.87,0.8925,0.1925,-0.079544,-0.053802,-0.986492,-0.07154,0.13048,0.4704
-1.12232,0,0,16.1223,16.1223,13.8777,13.8777,0.935263,4.98151,-5.73939,0.392471,-0.197528,0.0238154,1,0,2.94,0.5075,0.2275,0.44103,-0.201422,-0.98515,-0.07154,0.13048,0.4704
-1.12483,0,0,16.1248,16.1248,13.8752,13.8752,0.937361,4.98141,-5.73751,0.392472,-0.197491,0.0238149,1,0,4.515,0.0875,0.0875,0.44103,-0.201422,-0.98515,-0.05824,0.12866,0.46578
-1.12793,0,0,16.1279,16.1279,13.8721,13.8721,0.939942,4.98028,-5.7362,-0.0285774,0.0603631,-0.174869,1,0,4.8125,-0.525,-0.2275,0.018178,0.05612,-1.1823,-0.05824,0.12866,0.46578
-1.13338,0,0,16.1334,16.1334,13.8666,13.8666,0.944483,4.97917,-5.73567,-0.028558,0.0604421,-0.174868,1,0,5.95,-0.525,-0.6825,0.018178,0.05612,-1.1823,-0.05824,0.12866,0.46578
-1.24813,0,0,16.2481,16.2481,13.7519,13.7519,1.04011,4.71614,-5.52796,-0.230388,-0.0889592,-0.00447164,0,0,4.445,-0.0875,-0.56,-0.1891,-0.094794,-1.01358,-0.05824,0.12866,0.46578
-1.35859,0,0,16.3586,16.3586,13.6414,13.6414,1.13216,4.45784,-5.3223,-0.225894,-0.0873512,-0.00414152,0,0,3.535,-0.3325,-1.05,-0.1891,-0.094794,-1.01358,-0.05824,0.12866,0.46578
-1.35576,0,0,16.3558,16.3558,13.6442,13.6442,1.1298,4.4559,-5.32251,0.085629,0.0894473,-0.130775,1,0,2.1175,-1.015,-1.1025,0.123708,0.081862,-1.13924,-0.05824,0.12866,0.46578
-1.35253,0,0,16.3525,16.3525,13.6475,13.6475,1.1271,4.45373,-5.32351,0.0856666,0.0894004,-0.130771,1,0,1.96,-1.155,-1.5575,0.123708,0.081862,-1.13924,-0.05824,0.12866,0.46578
-1.20921,0,0,16.2092,16.2092,13.7908,13.7908,1.00768,4.38068,-5.3102,-0.068078,0.113948,-0.0234232,0,0,1.925,-0.42,-1.47,-0.031964,0.108458,-1.03285,-0.05824,0.12866,0.46578
-1.07258,0,0,16.0726,16.0726,13.9274,13.9274,0.893816,4.30911,-5.29576,-0.0668324,0.111968,-0.0232957,0,0,3.7975,-0.315,-0.9975,-0.031964,0.108458,-1.03285,-0.05824,0.12866,0.46578
-1.11893,0,0,16.1189,16.1189,13.8811,13.8811,0.932438,4.13027,-5.16876,-0.160665,-0.0384266,-0.0642645,0,0,3.7275,0.175,-0.9975,-0.12932,-0.042456,-1.07372,-0.06384,0.13314,0.46634
-1.57866,0,0,16.5787,16.5787,13.4213,13.4213,1.31555,3.82898,-4.88682,-0.261719,-0.377247,0.0499428,0,0,5.0925,-0.56,-1.12,-0.23607,-0.387594,-0.960628,-0.06384,0.13314,0.46634
-2.02977,0,0,17.0298,17.0298,12.9702,12.9702,1.69147,3.53529,-4.6091,-0.256604,-0.370693,0.0501001,0,0,4.8125,0.5425,-0.875,-0.23607,-0.387594,-0.960628,-0.06384,0.13314,0.46634
-2.03257,0,0,17.0326,17.0326,12.9674,12.9674,1.69381,3.5362,-4.60871,0.222763,-0.0161184,-0.184119,1,0,4.725,0.665,-0.7875,0.245342,-0.033428,-1.19304,-0.06384,0.13314,0.46634
-2.03537,0,0,17.0354,17.0354,12.9646,12.9646,1.69614,3.53711,-4.60831,0.222747,-0.0160778,-0.184121,1,0,4.725,0.665,-0.7875,0.245342,-0.033428,-1.19304,-0.06384,0.13314,0.46634
-1.66573,0,0,16.6657,16.6657,13.3343,13.3343,1.38811,3.79552,-4.89607,0.183015,0.265549,0.160237,0,0,1.33,0.8925,-0.7875,0.209962,0.253272,-0.851194,-0.06384,0.13314,0.46634
-1.30194,0,0,16.3019,16.3019,13.6981,13.6981,1.08495,4.049,-5.1858,0.178601,0.260265,0.160048,0,0,1.33,0.8925,-0.7875,0.209962,0.253272,-0.851194,-0.06384,0.13314,0.46634
-1.2982,0,0,16.2982,16.2982,13.7018,13.7018,1.08183,4.04936,-5.18572,-0.246848,0.157624,0.155868,1,0,1.68,0.3325,-0.9625,-0.217282,0.150792,-0.855342,-0.06384,0.13314,0.46634
-1.29446,0,0,16.2945,16.2945,13.7055,13.7055,1.07872,4.04971,-5.18565,-0.246854,0.15757,0.155869,1,0,1.68,0.3325,-0.9625,-0.217282,0.150792,-0.855342,-0.0623,0.133,0.46298
-1.80861,0,0,16.8086,16.8086,13.1914,13.1914,1.50718,4.01929,-5.1395,-0.0156229,-0.420691,0.0679527,0,0,3.99,0.6825,-2.135,0.014396,-0.43432,-0.94245,-0.0623,0.133,0.46298
-2.31425,0,0,17.3143,17.3143,12.6857,12.6857,1.92855,3.98965,-5.09436,-0.0151069,-0.413357,0.0677689,0,0,3.99,0.6825,-2.135,0.014396,-0.43432,-0.94245,-0.0623,0.133,0.46298
-2.31556,0,0,17.3156,17.3156,12.6844,12.6844,1.92963,3.99076,-5.09627,-0.211447,-0.330048,-0.0645257,1,0,4.1125,0.735,-2.135,-0.182756,-0.351116,-1.07372,-0.0623,0.133,0.46298
-2.31686,0,0,17.3169,17.3169,12.6831,12.6831,1.93071,3.99187,-5.09818,-0.211466,-0.330029,-0.0645277,1,0,4.1125,0.735,-2.135,-0.182756,-0.351116,-1.07372,-0.0623,0.133,0.46298
-2.31498,0,0,17.315,17.315,12.685,12.685,1.92915,3.99327,-5.10092,-0.00229238,0.114119,-0.160305,1,0,2.66,0.8925,-2.625,0.027328,0.092598,-1.16876,-0.0623,0.133,0.46298
-2.3131,0,0,17.3131,17.3131,12.6869,12.6869,1.92759,3.99468,-5.10366,-0.00231683,0.114091,-0.160306,1,0,2.66,0.8925,-2.625,0.027328,0.092598,-1.16876,-0.0623,0.133,0.46298
-2.31063,0,0,17.3106,17.3106,12.6894,12.6894,1.92553,3.99479,-5.10455,-0.163652,-0.107116,0.118296,1,0,2.31,0.175,-1.5225,-0.134688,-0.128344,-0.892308,-0.0623,0.133,0.46298
-2.18281,0,0,17.1828,17.1828,12.8172,12.8172,1.81901,4.03106,-5.17544,0.032159,0.104995,-0.0325453,0,0,3.6925,-0.385,-1.26,0.062586,0.0854,-1.042,-0.0637,0.12768,0.46312
-2.05731,0,0,17.0573,17.0573,12.9427,12.9427,1.71442,4.06585,-5.24493,0.0315534,0.103174,-0.032532,0,0,3.6575,-0.77,-0.49,0.062586,0.0854,-1.042,-0.0637,0.12768,0.46312
-2.03324,0,0,17.0332,17.0332,12.9668,12.9668,1.69437,3.86236,-5.09127,-0.179204,0.0230831,-0.0251452,0,0,4.725,-0.91,0.105,-0.152622,0.005734,-1.03493,-0.0637,0.12768,0.46312
-2.0095,0,0,17.0095,17.0095,12.9905,12.9905,1.67459,3.66281,-4.93771,-0.175729,0.0227455,-0.0249066,0,0,4.725,-0.91,0.105,-0.152622,0.005734,-1.03493,-0.0637,0.12768,0.46312
-2.196,0,0,17.196,17.196,12.804,12.804,1.83,3.98155,-5.21518,0.278787,-0.154209,0.0689415,0,0,2.065,0.2625,1.19,0.309392,-0.173728,-0.941352,-0.0637,0.12768,0.46312
-2.10175,0,0,17.1017,17.1017,12.8983,12.8983,1.75145,4.03404,-5.29073,0.0339295,0.0695016,0.0812151,0,0,1.96,0.3325,1.4875,0.064416,0.051118,-0.929152,-0.0637,0.12768,0.46312
-2.00885,0,0,17.0088,17.0088,12.9912,12.9912,1.67404,4.08501,-5.36656,0.0330422,0.0681526,0.0811924,0,0,1.82,0.07,1.2775,0.064416,0.051118,-0.929152,-0.0637,0.12768,0.46312
-1.66118,0,0,16.6612,16.6612,13.3388,13.3388,1.38432,3.93592,-5.29202,-0.141974,0.281844,0.0254444,0,0,2.8525,-0.1225,1.3475,-0.113948,0.26962,-0.984784,-0.0637,0.12768,0.46312
-1.32101,0,0,16.321,16.321,13.679,13.679,1.10084,3.79085,-5.22495,-0.139448,0.276913,0.025722,0,0,3.6575,-0.4025,0.805,-0.113948,0.26962,-0.984784,-0.06636,0.13342,0.47194
-0.74978,0,0,15.7498,15.7498,14.2502,14.2502,0.624817,3.7153,-5.24041,-0.0917246,0.503963,0.0254414,0,0,5.075,-0.315,-0.0525,-0.067344,0.504714,-0.985272,-0.06636,0.13342,0.47194
-0.185961,0,0,15.186,15.186,14.814,14.814,0.154967,3.64044,-5.25692,-0.0904208,0.49578,0.0255809,0,0,4.34,-0.42,-1.33,-0.067344,0.504714,-0.985272,-0.06636,0.13342,0.47194
-0.682215,0,0,15.6822,15.6822,14.3178,14.3178,0.568512,3.66459,-5.25667,0.0300368,-0.396847,0.0872287,0,0,4.27,-0.2275,-1.715,0.054046,-0.394182,-0.924028,-0.06636,0.13342,0.47194
-1.16642,0,0,16.1664,16.1664,13.8336,13.8336,0.972019,3.68937,-5.25792,0.0296051,-0.38982,0.0871065,0,0,2.5025,0.2975,-2.52,0.054046,-0.394182,-0.924028,-0.06636,0.13342,0.47194
-1.16077,0,0,16.1608,16.1608,13.8392,13.8392,0.967305,3.68991,-5.26133,-0.192116,-0.0829978,0.126943,1,0,0.91,0.4025,-2.9925,-0.168604,-0.087596,-0.8845,-0.06636,0.13342,0.47194
-1.15555,0,0,16.1555,16.1555,13.8445,13.8445,0.962957,3.69159,-5.26583,-0.192145,-0.0830735,0.126942,1,0,1.155,1.0675,-3.64,-0.168604,-0.087596,-0.8845,-0.06636,0.13342,0.47194
-0.955785,0,0,15.9558,15.9558,14.0442,14.0442,0.796487,3.37011,-5.02521,-0.312404,0.171475,-0.0459024,0,0,1.365,1.0675,-3.57,-0.294996,0.16958,-1.0564,-0.06636,0.13342,0.47194
-0.765313,0,0,15.7653,15.7653,14.2347,14.2347,0.63776,3.05616,-4.78191,-0.306933,0.168714,-0.0455607,0,0,4.2175,0.98,-3.605,-0.294996,0.16958,-1.0564,-0.06104,0.1316,0.4676
-0.769311,0,0,15.7693,15.7693,14.2307,14.2307,0.641092,3.05636,-4.78616,-0.0276408,0.381028,0.180049,1,0,5.425,0.21,-3.4825,-0.014518,0.381616,-0.832528,-0.06104,0.1316,0.4676
-0.775026,0,0,15.775,15.775,14.225,14.225,0.645855,3.05672,-4.78933,-0.0276471,0.381111,0.180048,1,0,6.195,0.315,-2.8525,-0.014518,0.381616,-0.832528,-0.06104,0.1316,0.4676
-0.595969,0,0,15.596,15.596,14.404,14.404,0.496641,3.40402,-5.14292,0.318731,0.153794,0.0323168,0,0,6.79,0.35,-2.6775,0.339404,0.157136,-0.978806,-0.06104,0.1316,0.4676
-0.413741,0,0,15.4137,15.4137,14.5863,14.5863,0.344784,3.745,-5.49602,0.312791,0.151146,0.0319652,0,0,3.99,0.385,-1.8025,0.339404,0.157136,-0.978806,-0.06104,0.1316,0.4676
-0.69182,0,0,15.6918,15.6918,14.3082,14.3082,0.576517,3.56602,-5.32933,-0.14926,-0.208265,0.0975405,0,0,2.065,1.1025,-1.2425,-0.127734,-0.205936,-0.913902,-0.06104,0.1316,0.4676
-0.961362,0,0,15.9614,15.9614,14.0386,14.0386,0.801135,3.38963,-5.16263,-0.146187,-0.20435,0.0976802,0,0,0.35,0.5775,-0.14,-0.127734,-0.205936,-0.913902,-0.06104,0.1316,0.4676
-0.955646,0,0,15.9556,15.9556,14.0444,14.0444,0.796372,3.38939,-5.16032,-0.0284632,-0.0863365,-0.21928,1,0,0.6825,0,0.35,-0.009516,-0.087962,-1.22842,-0.06104,0.1316,0.4676
-0.953139,0,0,15.9531,15.9531,14.0469,14.0469,0.794282,3.38991,-5.15712,-0.0284722,-0.0863729,-0.21928,1,0,2.1525,0.455,0.8575,-0.009516,-0.087962,-1.22842,-0.06916,0.13244,0.46648
-0.952945,0,0,15.9529,15.9529,14.0471,14.0471,0.794121,3.39084,-5.15352,-0.0128168,-0.103473,-0.145757,1,0,3.22,0.7,1.085,0.006222,-0.105042,-1.15546,-0.06916,0.13244,0.46648
-0.954661,0,0,15.9547,15.9547,14.0453,14.0453,0.795551,3.39051,-5.1494,-0.0128111,-0.103449,-0.145757,1,0,4.095,-0.035,1.4,0.006222,-0.105042,-1.15546,-0.06916,0.13244,0.46648
-0.956091,0,0,15.9561,15.9561,14.0439,14.0439,0.796743,3.3901,-5.14561,0.270258,-0.162293,-0.0423576,1,0,3.9725,-0.0875,1.2075,0.290482,-0.163846,-1.05286,-0.06916,0.13244,0.46648
-0.957482,0,0,15.9575,15.9575,14.0425,14.0425,0.797902,3.38903,-5.14238,0.270276,-0.162273,-0.0423567,1,0,3.9725,-0.4725,0.8925,0.290482,-0.163846,-1.05286,-0.06916,0.13244,0.46648
-0.648185,0,0,15.6482,15.6482,14.3518,14.3518,0.540154,3.46094,-5.25666,0.0584889,0.256894,0.00790666,0,0,4.025,-0.42,0.63,0.079056,0.259372,-1.00296,-0.06916,0.13244,0.46648
-0.341134,0,0,15.3411,15.3411,14.6589,14.6589,0.284278,3.53175,-5.37338,0.0572553,0.252436,0.00786336,0,0,2.6775,-0.1925,-0.595,0.079056,0.259372,-1.00296,-0.06916,0.13244,0.46648
-0.341553,0,0,15.3416,15.3416,14.6584,14.6584,0.284628,3.53177,-5.37379,-0.249618,0.416092,-0.0426685,1,0,3.64,0.14,-1.2425,-0.229116,0.422852,-1.0531,-0.06916,0.13244,0.46648
-0.34282,0,0,15.3428,15.3428,14.6572,14.6572,0.285684,3.53136,-5.3749,-0.249611,0.41611,-0.0426682,1,0,4.06,-0.1225,-1.645,-0.229116,0.422852,-1.0531,-0.06888,0.13006,0.46858
-0.348267,0,0,15.3483,15.3483,14.6517,14.6517,0.290222,3.53067,-5.37622,0.106233,-0.107246,-0.296188,1,0,6.02,-0.28,-1.7675,0.128222,-0.10004,-1.30467,-0.06888,0.13006,0.46858
-0.350793,0,0,15.3508,15.3508,14.6492,14.6492,0.292328,3.53012,-5.37853,0.106242,-0.107209,-0.296187,1,0,4.69,-0.21,-2.345,0.128222,-0.10004,-1.30467,-0.06888,0.13006,0.46858
-0.577496,0,0,15.5775,15.5775,14.4225,14.4225,0.481246,3.29728,-5.16649,-0.212245,-0.19197,-0.0334724,0,0,4.2,-0.21,-2.5375,-0.195688,-0.188002,-1.0442,-0.06888,0.13006,0.46858
-0.795704,0,0,15.7957,15.7957,14.2043,14.2043,0.663087,3.06834,-4.95674,-0.208256,-0.188799,-0.0332822,0,0,2.17,-0.56,-2.73,-0.195688,-0.188002,-1.0442,-0.06888,0.13006,0.46858
-0.792974,0,0,15.793,15.793,14.207,14.207,0.660812,3.06796,-4.95959,0.0797933,0.373433,0.28454,1,0,2.24,-0.1225,-2.66,0.093574,0.373686,-0.728828,-0.06888,0.13006,0.46858
-0.791588,0,0,15.7916,15.7916,14.2084,14.2084,0.659657,3.06801,-4.96193,0.0797924,0.373413,0.284541,1,0,2.8525,0.14,-2.3625,0.093574,0.373686,-0.728828,-0.06888,0.13006,0.46858
-0.793523,0,0,15.7935,15.7935,14.2065,14.2065,0.661269,3.06857,-4.96446,0.384955,0.23214,-0.0624209,1,0,4.41,0.4375,-2.485,0.400038,0.232532,-1.07311,-0.06888,0.13006,0.46858
-0.799478,0,0,15.7995,15.7995,14.2005,14.2005,0.666232,3.06957,-4.96565,0.384937,0.232227,-0.0624228,1,0,6.2475,0.7,-1.6975,0.400038,0.232532,-1.07311,-0.06398,0.1253,0.46872
-0.804595,0,0,15.8046,15.8046,14.1954,14.1954,0.670496,3.07196,-4.96588,-0.0585272,-0.444769,-0.0887369,1,0,5.8275,1.5225,-1.155,-0.045262,-0.443836,-1.09922,-0.06398,0.1253,0.46872
-0.809712,0,0,15.8097,15.8097,14.1903,14.1903,0.67476,3.07435,-4.96612,-0.0585688,-0.444695,-0.08874,1,0,5.8275,1.5225,-1.155,-0.045262,-0.443836,-1.09922,-0.06398,0.1253,0.46872
-0.87063,0,0,15.8706,15.8706,14.1294,14.1294,0.725525,3.15248,-5.03514,0.0766195,-0.0523952,-0.0582107,0,0,4.2875,1.12,-0.805,0.091866,-0.052826,-1.06884,-0.06398,0.1253,0.46872
-0.930487,0,0,15.9305,15.9305,14.0695,14.0695,0.775406,3.22911,-5.10393,0.0752842,-0.051527,-0.0582965,0,0,4.2875,1.12,-0.805,0.091866,-0.052826,-1.06884,-0.06398,0.1253,0.46872
-0.926688,0,0,15.9267,15.9267,14.0733,14.0733,0.77224,3.22926,-5.10251,0.127399,0.230042,-0.159851,1,0,1.61,0.2275,-0.175,0.144204,0.228506,-1.16961,-0.06398,0.1253,0.46872
-0.922889,0,0,15.9229,15.9229,14.0771,14.0771,0.769074,3.22942,-5.10109,0.127396,0.229987,-0.159851,1,0,1.61,0.2275,-0.175,0.144204,0.228506,-1.16961,-0.06398,0.1253,0.46872
-0.917768,0,0,15.9178,15.9178,14.0822,14.0822,0.764807,3.22953,-5.10039,-0.0673474,-0.178846,-0.230668,1,0,1.015,0.1925,-0.595,-0.051362,-0.179828,-1.23989,-0.06398,0.1253,0.46872
-0.912647,0,0,15.9126,15.9126,14.0874,14.0874,0.760539,3.22963,-5.09969,-0.0673492,-0.17892,-0.230667,1,0,1.015,0.1925,-0.595,-0.051362,-0.179828,-1.23989,-0.06398,0.13104,0.46578
-0.913031,0,0,15.913,15.913,14.087,14.087,0.76086,3.22872,-5.09843,0.00725895,-0.382622,-0.0661614,1,0,3.57,-0.4025,-0.2625,0.023546,-0.383324,-1.07665,-0.06398,0.13104,0.46578
-0.9203,0,0,15.9203,15.9203,14.0797,14.0797,0.766916,3.22829,-5.09786,-0.0709704,-0.113349,0.111498,1,0,6.8075,-0.1225,-0.665,-0.055022,-0.114436,-0.90036,-0.06398,0.13104,0.46578
-0.927747,0,0,15.9277,15.9277,14.0723,14.0723,0.773122,3.2286,-5.09686,-0.0709758,-0.113241,0.111496,1,0,6.8775,0.315,-0.42,-0.055022,-0.114436,-0.90036,-0.06398,0.13104,0.46578
-0.845733,0,0,15.8457,15.8457,14.1543,14.1543,0.704778,3.16268,-5.06197,-0.0609585,0.0699805,0.0605523,0,0,7.175,0.56,-0.5075,-0.046116,0.069784,-0.95099,-0.06398,0.13104,0.46578
-0.76294,0,0,15.7629,15.7629,14.2371,14.2371,0.635783,3.09682,-5.02781,-0.0598109,0.0687789,0.0606291,0,0,6.16,-0.1225,-0.9975,-0.046116,0.069784,-0.95099,-0.06398,0.13104,0.46578
-0.899428,0,0,15.8994,15.8994,14.1006,14.1006,0.749523,3.23127,-5.1522,0.128214,-0.116217,-0.0105886,0,0,3.2725,-0.35,-1.2775,0.145058,-0.116998,-1.02151,-0.06398,0.13104,0.46578
-1.02811,0,0,16.0281,16.0281,13.9719,13.9719,0.856758,3.36258,-5.27519,0.125926,-0.11435,-0.0107466,0,0,0.7,-0.6825,-0.8575,0.145058,-0.116998,-1.02151,-0.06398,0.13104,0.46578
-1.02228,0,0,16.0223,16.0223,13.9777,13.9777,0.851904,3.36114,-5.27494,0.150248,-0.217388,-0.123242,1,0,0.7,-0.7175,-0.84,0.169458,-0.219844,-1.13314,-0.06398,0.13104,0.46578
-1.01689,0,0,16.0169,16.0169,13.9831,13.9831,0.847412,3.36052,-5.27542,0.150259,-0.217466,-0.12324,1,0,0.9275,-0.245,-1.2775,0.169458,-0.219844,-1.13314,-0.06818,0.1316,0.46326
-0.9858,0,0,15.9858,15.9858,14.0142,14.0142,0.8215,3.19084,-5.14562,-0.14491,0.0219421,0.0619733,0,0,1.12,-0.3675,-1.4,-0.12993,0.019764,-0.949526,-0.06818,0.1316,0.46326
-0.960851,0,0,15.9609,15.9609,14.0391,14.0391,0.800709,3.02526,-5.01587,-0.142024,0.021582,0.0621351,0,0,3.7625,0.1225,-1.3825,-0.12993,0.019764,-0.949526,-0.06818,0.1316,0.46326
-0.774019,0,0,15.774,15.774,14.226,14.226,0.645016,2.92912,-4.9613,-0.0894461,0.156506,0.00865095,0,0,5.4075,0.21,-1.015,-0.078812,0.157258,-1.00272,-0.06818,0.1316,0.46326
-0.59442,0,0,15.5944,15.5944,14.4056,14.4056,0.49535,2.83577,-4.90696,-0.0878189,0.153899,0.00875884,0,0,7.28,0.8225,-1.435,-0.078812,0.157258,-1.00272,-0.06818,0.1316,0.46326
-0.570801,0,0,15.5708,15.5708,14.4292,14.4292,0.475668,3.07483,-5.13715,0.217438,0.0243436,0.00989907,0,0,7.245,0.4375,-1.68,0.231922,0.028182,-1.00138,-0.06818,0.1316,0.46326
-0.539282,0,0,15.5393,15.5393,14.4607,14.4607,0.449401,3.30945,-5.36646,0.21335,0.023884,0.00967475,0,0,3.3775,0.49,-1.3475,0.231922,0.028182,-1.00138,-0.06818,0.1316,0.46326
-0.535279,0,0,15.5353,15.5353,14.4647,14.4647,0.446066,3.30957,-5.36693,0.105347,0.20665,-0.120773,1,0,1.575,0.1925,-1.2775,0.123464,0.210816,-1.13082,-0.06818,0.1316,0.46326
-0.529418,0,0,15.5294,15.5294,14.4706,14.4706,0.441182,3.31012,-5.36827,0.105337,0.206565,-0.120773,1,0,0.735,0.4375,-1.785,0.123464,0.210816,-1.13082,-0.063,0.126,0.46354
-0.437775,0,0,15.4378,15.4378,14.5622,14.5622,0.364812,3.50886,-5.57067,0.182663,0.068817,0.000257129,0,0,0.1225,0.525,-1.7325,0.204594,0.074542,-1.01053,-0.063,0.126,0.46354
-0.352061,0,0,15.3521,15.3521,14.6479,14.6479,0.293384,3.70242,-5.77278,0.179291,0.0675716,5.18259e-05,0,0,2.17,-0.2975,-1.5575,0.204594,0.074542,-1.01053,-0.063,0.126,0.46354
-0.350538,0,0,15.3505,15.3505,14.6495,14.6495,0.292115,3.70206,-5.77358,-0.173011,-0.273184,-0.0980606,1,0,2.7475,-0.0875,-1.47,-0.149206,-0.265838,-1.10788,-0.063,0.126,0.46354
-0.354557,0,0,15.3546,15.3546,14.6454,14.6454,0.295464,3.70341,-5.77393,-0.173034,-0.273126,-0.0980624,1,0,5.32,0.91,-1.2075,-0.149206,-0.265838,-1.10788,-0.063,0.126,0.46354
-0.358868,0,0,15.3589,15.3589,14.6411,14.6411,0.299057,3.70463,-5.77436,-0.353462,-0.403128,-0.0471634,1,0,5.46,0.84,-1.26,-0.330376,-0.395768,-1.05737,-0.063,0.126,0.46354
-0.363566,0,0,15.3636,15.3636,14.6364,14.6364,0.302971,3.70606,-5.77417,-0.353487,-0.40306,-0.0471654,1,0,5.6175,0.9625,-0.8925,-0.330376,-0.395768,-1.05737,-0.063,0.126,0.46354
-0.365615,0,0,15.3656,15.3656,14.6344,14.6344,0.304679,3.70674,-5.77383,-0.0390938,-0.0313986,0.10111,1,0,4.375,0.525,-0.805,-0.01464,-0.024522,-0.910242,-0.063,0.126,0.46354
-0.364342,0,0,15.3643,15.3643,14.6357,14.6357,0.303619,3.70653,-5.77334,-0.0390901,-0.0314171,0.10111,1,0,2.8175,0,-0.7175,-0.01464,-0.024522,-0.910242,-0.0686,0.12782,0.47544
-0.175728,0,0,15.1757,15.1757,14.8243,14.8243,0.14644,3.81566,-5.9122,0.106979,0.162347,-0.0610504,0,0,1.785,-0.14,-0.4375,0.133956,0.171776,-1.07104,-0.0686,0.12782,0.47544
0.00743259,0,0,14.9926,14.9926,15.0074,15.0074,-0.00619382,3.92137,-6.05105,0.105138,0.159689,-0.0611716,0,0,2.8175,-0.8925,-0.2975,0.133956,0.171776,-1.07104,-0.0686,0.12782,0.47544
0.225434,0,0,14.7746,14.7746,15.2254,15.2254,-0.187862,4.03762,-6.20629,0.104936,0.182783,-8.94185e-05,0,0,3.9375,-0.945,-0.1925,0.135786,0.198006,-1.01028,-0.0686,0.12782,0.47544
0.441803,0,0,14.5582,14.5582,15.4418,15.4418,-0.368169,4.15297,-6.36228,0.102928,0.179645,-0.00024842,0,0,2.9925,-0.14,-0.42,0.135786,0.198006,-1.01028,-0.0686,0.12782,0.47544
0.468624,0,0,14.5314,14.5314,15.4686,15.4686,-0.39052,4.00884,-6.26072,-0.136684,0.028062,-0.093021,0,0,4.62,-0.665,-0.2625,-0.10736,0.04697,-1.10251,-0.0686,0.12782,0.47544
0.499669,0,0,14.5003,14.5003,15.4997,15.4997,-0.416391,3.86815,-6.16026,-0.134234,0.0276104,-0.0928556,0,0,2.485,-0.2275,-0.8925,-0.10736,0.04697,-1.10251,-0.0686,0.12782,0.47544
0.0365965,0,0,14.9634,14.9634,15.0366,15.0366,-0.030497,3.92395,-6.17547,0.0539477,-0.373451,0.102101,0,0,1.5575,-0.0875,-0.8225,0.082594,-0.360388,-0.909022,-0.0686,0.12782,0.47544
-0.418918,0,0,15.4189,15.4189,14.5811,14.5811,0.349098,3.97625,-6.19529,0.053037,-0.366842,0.10202,0,0,1.435,-0.5775,-0.9975,0.082594,-0.360388,-0.909022,-0.07196,0.13202,0.46998
-0.546535,0,0,15.5465,15.5465,14.4535,14.4535,0.455446,3.82467,-6.07208,-0.135785,-0.114995,-0.0548188,0,0,0.56,-0.245,-1.3475,-0.109678,-0.110654,-1.06482,-0.07196,0.13202,0.46998
-0.67885,0,0,15.6788,15.6788,14.3212,14.3212,0.565708,3.67604,-5.94977,-0.133197,-0.113074,-0.0546662,0,0,3.85,-0.2625,-1.365,-0.109678,-0.110654,-1.06482,-0.07196,0.13202,0.46998
-0.682436,0,0,15.6824,15.6824,14.3176,14.3176,0.568697,3.67677,-5.95086,-0.139526,-0.0293647,-0.209829,1,0,5.145,0.5425,-1.645,-0.116022,-0.027084,-1.21878,-0.07196,0.13202,0.46998
-0.686023,0,0,15.686,15.686,14.314,14.314,0.571686,3.67749,-5.95196,-0.139539,-0.0293127,-0.20983,1,0,5.145,0.5425,-1.645,-0.116022,-0.027084,-1.21878,-0.07196,0.13202,0.46998
-0.67545,0,0,15.6754,15.6754,14.3246,14.3246,0.562875,3.71975,-6.01699,0.0361222,0.0133999,0.0193001,0,0,6.44,-0.2975,-2.1175,0.061122,0.015738,-0.991372,-0.07196,0.13202,0.46998
-0.665063,0,0,15.6651,15.6651,14.3349,14.3349,0.554219,3.76119,-6.08191,0.0354005,0.0132487,0.0192544,0,0,6.44,-0.2975,-2.1175,0.061122,0.015738,-0.991372,-0.07196,0.13202,0.46998
-0.664191,0,0,15.6642,15.6642,14.3358,14.3358,0.553492,3.76206,-6.083,0.0167979,0.0380277,0.117735,1,0,3.0625,0.63,-1.645,0.042456,0.040504,-0.89365,-0.07196,0.13202,0.46998
-0.663318,0,0,15.6633,15.6633,14.3367,14.3367,0.552765,3.76294,-6.0841,0.0167827,0.0380151,0.117734,1,0,3.0625,0.63,-1.645,0.042456,0.040504,-0.89365,-0.07042,0.12656,0.46536
-0.58674,0,0,15.5867,15.5867,14.4133,14.4133,0.48895,3.71358,-6.06356,-0.0466236,0.0547347,0.000630716,0,0,-1.2075,0.7525,-1.3825,-0.022082,0.058316,-1.00992,-0.07042,0.12656,0.46536
-0.511496,0,0,15.5115,15.5115,14.4885,14.4885,0.426247,3.66514,-6.04293,-0.0457799,0.0536431,0.000693837,0,0,-1.2075,0.7525,-1.3825,-0.022082,0.058316,-1.00992,-0.07042,0.12656,0.46536
-0.506638,0,0,15.5066,15.5066,14.4934,14.4934,0.422198,3.67177,-6.0423,0.159051,-0.264201,-0.142302,1,0,1.1375,4.0075,-0.665,0.183732,-0.259128,-1.1518,-0.07042,0.12656,0.46536
-0.501779,0,0,15.5018,15.5018,14.4982,14.4982,0.418149,3.67839,-6.04167,0.158936,-0.264272,-0.142309,1,0,1.1375,4.0075,-0.665,0.183732,-0.259128,-1.1518,-0.07042,0.12656,0.46536
-0.508473,0,0,15.5085,15.5085,14.4915,14.4915,0.423727,3.67853,-6.04085,-0.166891,-0.215935,-0.222103,1,0,6.5275,0.21,-0.525,-0.143472,-0.210938,-1.23098,-0.07042,0.12656,0.46536
-0.515166,0,0,15.5152,15.5152,14.4848,14.4848,0.429305,3.67867,-6.04003,-0.166894,-0.215837,-0.222104,1,0,6.5275,0.21,-0.525,-0.143472,-0.210938,-1.23098,-0.07042,0.12656,0.46536
-0.713761,0,0,15.7138,15.7138,14.2862,14.2862,0.594801,3.83692,-6.1713,0.155324,-0.170335,-0.0182166,0,0,5.215,0.245,-0.1225,0.182878,-0.16836,-1.02846,-0.07042,0.12656,0.46536
-0.711764,0,0,15.7118,15.7118,14.2882,14.2882,0.593136,3.83771,-6.17005,-0.152656,-0.13739,-0.171657,1,0,2.45,0.595,-0.28,-0.126392,-0.13542,-1.18072,-0.07042,0.12656,0.46536
-0.706279,0,0,15.7063,15.7063,14.2937,14.2937,0.588566,3.83815,-6.16932,-0.152663,-0.137469,-0.171657,1,0,0.84,0.385,-0.5775,-0.126392,-0.13542,-1.18072,-0.06888,0.12544,0.46634
-0.697868,0,0,15.6979,15.6979,14.3021,14.3021,0.581557,3.83769,-6.16865,0.0475531,0.141224,0.144938,1,0,-0.525,-0.14,-0.6125,0.074664,0.143106,-0.866566,-0.06888,0.12544,0.46634
-0.69263,0,0,15.6926,15.6926,14.3074,14.3074,0.577192,3.83644,-6.16905,-0.0115886,-0.115562,0.160308,1,0,0.9975,-0.6125,-1.225,0.01525,-0.113338,-0.851316,-0.06888,0.12544,0.46634
-0.692489,0,0,15.6925,15.6925,14.3075,14.3075,0.577074,3.83635,-6.1694,-0.011587,-0.115564,0.160308,1,0,3.3775,0.07,-1.2075,0.01525,-0.113338,-0.851316,-0.06888,0.12544,0.46634
-0.916469,0,0,15.9165,15.9165,14.0835,14.0835,0.763724,4.07288,-6.37041,0.185839,-0.164466,0.15015,0,0,4.7425,0.2275,-1.7675,0.217648,-0.165432,-0.861076,-0.06888,0.12544,0.46634
-1.03691,0,0,16.0369,16.0369,13.9631,13.9631,0.864091,3.89063,-6.21342,-0.158072,-0.0882183,0.0432577,0,0,6.2825,0.0175,-1.9775,-0.130906,-0.091012,-0.967338,-0.06888,0.12544,0.46634
-1.15434,0,0,16.1543,16.1543,13.8457,13.8457,0.961952,3.71235,-6.05742,-0.154967,-0.086511,0.0434368,0,0,5.915,0.28,-2.0125,-0.130906,-0.091012,-0.967338,-0.06888,0.12544,0.46634
-1.35793,0,0,16.3579,16.3579,13.6421,13.6421,1.13161,3.61887,-5.98086,-0.0799619,-0.170753,-0.0227821,0,0,4.69,0.63,-1.995,-0.057218,-0.17812,-1.0331,-0.06734,0.13538,0.46676
-1.35764,0,0,16.3576,16.3576,13.6424,13.6424,1.13137,3.61994,-5.98221,-0.0879986,0.036614,0.121312,1,0,3.3425,0.735,-1.8025,-0.06527,0.029036,-0.890112,-0.06734,0.13538,0.46676
-1.3549,0,0,16.3549,16.3549,13.6451,13.6451,1.12908,3.62069,-5.98384,-0.0880116,0.0365741,0.121312,1,0,2.205,0.5425,-1.96,-0.06527,0.029036,-0.890112,-0.06734,0.13538,0.46676
-1.35178,0,0,16.3518,16.3518,13.6482,13.6482,1.12648,3.61963,-5.985,-0.0791247,0.0237056,-0.111919,1,0,2.0125,-0.5075,-1.6625,-0.056364,0.016226,-1.12155,-0.06734,0.13538,0.46676
-1.34923,0,0,16.3492,16.3492,13.6508,13.6508,1.12435,3.61832,-5.98508,-0.0791018,0.0236685,-0.111917,1,0,2.24,-0.6475,-1.0325,-0.056364,0.016226,-1.12155,-0.06734,0.13538,0.46676
-1.34976,0,0,16.3498,16.3498,13.6502,13.6502,1.1248,3.61664,-5.98498,-0.0540465,-0.269184,-0.113759,1,0,3.675,-0.8575,-0.9275,-0.031232,-0.27633,-1.12338,-0.06734,0.13538,0.46676
-1.34858,0,0,16.3486,16.3486,13.6514,13.6514,1.12382,3.61684,-5.98473,-0.05405,-0.269201,-0.113759,1,0,2.87,0.245,-0.8575,-0.031232,-0.27633,-1.12338,-0.06734,0.13538,0.46676
-1.62937,0,0,16.6294,16.6294,13.3706,13.3706,1.35781,3.72133,-6.07263,0.108865,-0.245955,-0.00736767,0,0,2.905,-0.2625,-0.63,0.1342,-0.257176,-1.0176,-0.06734,0.13538,0.46676
-1.9053,0,0,16.9053,16.9053,13.0947,13.0947,1.58775,3.82541,-6.1552,0.107052,-0.241955,-0.00759011,0,0,2.905,-0.2625,-0.63,0.1342,-0.257176,-1.0176,-0.07126,0.13314,0.46984
-1.90569,0,0,16.9057,16.9057,13.0943,13.0943,1.58807,3.8257,-6.15368,-0.0908532,-0.015526,-0.138777,1,0,3.5525,0.315,-0.1225,-0.064538,-0.030988,-1.14778,-0.07126,0.13314,0.46984
-1.90793,0,0,16.9079,16.9079,13.0921,13.0921,1.58994,3.82636,-6.15185,0.135463,-0.0291717,-0.117631,1,0,4.41,0.5425,0.0525,0.162748,-0.044652,-1.12679,-0.07126,0.13314,0.46984
-1.90858,0,0,16.9086,16.9086,13.0914,13.0914,1.59048,3.82554,-6.14943,0.135477,-0.0291623,-0.11763,1,0,3.64,-0.315,0.42,0.162748,-0.044652,-1.12679,-0.07126,0.13314,0.46984
-1.90987,0,0,16.9099,16.9099,13.0901,13.0901,1.59156,3.82518,-6.1473,0.00391462,0.371921,-0.0513613,1,0,3.955,-0.0525,0.245,0.030622,0.355996,-1.06103,-0.07126,0.13314,0.46984
-1.9099,0,0,16.9099,16.9099,13.0901,13.0901,1.59159,3.8249,-6.14598,0.00391948,0.371921,-0.051361,1,0,3.395,-0.0175,-0.2275,0.030622,0.355996,-1.06103,-0.07126,0.13314,0.46984
-1.51976,0,0,16.5198,16.5198,13.4802,13.4802,1.26647,3.56873,-5.98585,-0.236413,0.312776,0.102508,0,0,3.5,0.4375,-0.595,-0.215208,0.30256,-0.908778,-0.07126,0.13314,0.46984
-1.13444,0,0,16.1344,16.1344,13.8656,13.8656,0.945367,3.31549,-5.82401,-0.232001,0.307188,0.102881,0,0,2.8175,-0.2975,-1.085,-0.215208,0.30256,-0.908778,-0.07126,0.13314,0.46984
-0.764191,0,0,15.7642,15.7642,14.2358,14.2358,0.636826,3.48482,-6.03316,0.156476,0.321229,0.0047904,0,0,2.485,-0.5425,-1.3475,0.177876,0.321958,-1.00601,-0.06706,0.12936,0.46844
-0.765685,0,0,15.7657,15.7657,14.2343,14.2343,0.638071,3.49114,-6.03477,-0.249882,0.0884768,0.132158,1,0,4.1825,3.815,-1.9775,-0.230092,0.089426,-0.87962,-0.06706,0.12936,0.46844
-0.767179,0,0,15.7672,15.7672,14.2328,14.2328,0.639316,3.49746,-6.03637,-0.249992,0.0884984,0.132151,1,0,4.1825,3.815,-1.9775,-0.230092,0.089426,-0.87962,-0.06706,0.12936,0.46844
-0.999499,0,0,15.9995,15.9995,14.0005,14.0005,0.832916,3.26907,-5.82247,-0.209689,-0.192559,-0.00412982,0,0,5.7925,0.5425,-2.5025,-0.193614,-0.194712,-1.01504,-0.06706,0.12936,0.46844
-1.00274,0,0,16.0027,16.0027,13.9973,13.9973,0.835616,3.27042,-5.82547,-0.0430339,0.121842,0.109964,1,0,5.04,0.8925,-2.765,-0.02623,0.119316,-0.901824,-0.06706,0.12936,0.46844
-1.0033,0,0,16.0033,16.0033,13.9967,13.9967,0.836085,3.27025,-5.8282,-0.0430309,0.12185,0.109964,1,0,3.78,0,-2.59,-0.02623,0.119316,-0.901824,-0.06706,0.12936,0.46844
-0.759694,0,0,15.7597,15.7597,14.2403,14.2403,0.633078,3.35095,-5.94379,0.0695166,0.202946,0.00726643,0,0,2.87,0.1225,-2.485,0.088206,0.203862,-1.00369,-0.06706,0.12936,0.46844
-0.520557,0,0,15.5206,15.5206,14.4794,14.4794,0.433797,3.4287,-6.05374,0.0681619,0.199474,0.00721852,0,0,2.94,-0.0175,-1.96,0.088206,0.203862,-1.00369,-0.06678,0.12586,0.46886
0.0296999,0,0,14.9703,14.9703,15.0297,15.0297,-0.0247499,3.5681,-6.25811,0.0969553,0.414611,0.197546,0,0,2.66,0.0525,-1.365,0.11956,0.426756,-0.814716,-0.06678,0.12586,0.46886
0.175896,0,0,14.8241,14.8241,15.1759,15.1759,-0.14658,3.49846,-6.22651,-0.0670521,0.125735,-0.0412714,0,0,2.625,-0.0175,-1.1375,-0.04636,0.1403,-1.05176,-0.06678,0.12586,0.46886
0.319708,0,0,14.6803,14.6803,15.3197,15.3197,-0.266423,3.43092,-6.19405,-0.0658755,0.123647,-0.0412077,0,0,2.5375,0.49,-0.805,-0.04636,0.1403,-1.05176,-0.06678,0.12586,0.46886
0.320053,0,0,14.6799,14.6799,15.3201,15.3201,-0.266711,3.43092,-6.1926,0.148425,-0.0474581,-0.1076,1,0,3.22,0.1225,-0.1575,0.168848,-0.030622,-1.11764,-0.06678,0.12586,0.46886
0.320752,0,0,14.6792,14.6792,15.3208,15.3208,-0.267293,3.43081,-6.19034,0.148427,-0.0474682,-0.1076,1,0,3.0275,0.0525,0.315,0.168848,-0.030622,-1.11764,-0.06678,0.12586,0.46886
0.321254,0,0,14.6787,14.6787,15.3213,15.3213,-0.267711,3.4299,-6.1869,-0.162803,0.0873524,-0.234851,1,0,3.08,-0.42,0.9975,-0.143716,0.104066,-1.24391,-0.06678,0.12586,0.46886
0.319004,0,0,14.681,14.681,15.319,15.319,-0.265837,3.42967,-6.18323,-0.162799,0.0873851,-0.23485,1,0,4.3575,-0.0175,1.1375,-0.143716,0.104066,-1.24391,-0.06678,0.12586,0.46886
0.315413,0,0,14.6846,14.6846,15.3154,15.3154,-0.262844,3.43112,-6.18017,-0.12079,-0.250365,-0.196492,1,0,5.005,0.9625,0.7875,-0.101504,-0.233386,-1.20585,-0.06636,0.12866,0.46774
0.313095,0,0,14.6869,14.6869,15.3131,15.3131,-0.260912,3.43145,-6.17815,-0.033934,0.314993,-0.0961658,1,0,4.445,0.315,0.175,-0.014274,0.331352,-1.1063,-0.06636,0.12866,0.46774
0.314011,0,0,14.686,14.686,15.314,15.314,-0.261676,3.43092,-6.1763,-0.10961,0.125683,0.125265,1,0,2.94,-0.1925,0.07,-0.09028,0.142252,-0.886574,-0.06636,0.12866,0.46774
0.316085,0,0,14.6839,14.6839,15.3161,15.3161,-0.263404,3.43098,-6.17545,-0.109611,0.125653,0.125265,1,0,2.4325,0.1575,-0.5075,-0.09028,0.142252,-0.886574,-0.06636,0.12866,0.46774
0.391487,0,0,14.6085,14.6085,15.3915,15.3915,-0.326239,3.63694,-6.38946,0.206308,0.0647176,-0.0394675,0,0,3.2025,-0.1225,-0.84,0.23058,0.082472,-1.04981,-0.06636,0.12866,0.46774
0.463276,0,0,14.5367,14.5367,15.4633,15.4633,-0.386063,3.83869,-6.605,0.202794,0.0636771,-0.0397036,0,0,4.375,-0.35,-1.75,0.23058,0.082472,-1.04981,-0.06636,0.12866,0.46774
0.230466,0,0,14.7695,14.7695,15.2305,15.2305,-0.192055,3.86453,-6.62453,0.0368809,-0.206997,-0.0586509,0,0,4.2175,-0.3325,-2.1525,0.064416,-0.191296,-1.0686,-0.06636,0.12866,0.46774
0.000571721,0,0,14.9994,14.9994,15.0006,15.0006,-0.000476434,3.89088,-6.64508,0.0364221,-0.203661,-0.0586764,0,0,4.7425,0.1925,-2.7475,0.064416,-0.191296,-1.0686,-0.06636,0.12866,0.46774
-0.00172074,0,0,15.0017,15.0017,14.9983,14.9983,0.00143395,3.89147,-6.64913,-0.123585,-0.0165292,-0.284902,1,0,4.655,0.4725,-3.36,-0.096258,-0.004392,-1.29308,-0.06496,0.12348,0.46928
-0.136581,0,0,15.1366,15.1366,14.8634,14.8634,0.113818,3.8786,-6.63941,-0.00442621,-0.121922,-0.0719423,0,0,2.905,-0.2275,-3.325,0.02318,-0.11163,-1.08177,-0.06496,0.12348,0.46928
0.448042,0,0,14.552,14.552,15.448,15.448,-0.373369,3.90885,-6.76244,0.0156997,0.523828,0.0555003,0,0,2.415,-0.5075,-2.905,0.04392,0.541924,-0.95526,-0.06496,0.12348,0.46928
1.02259,0,0,13.9774,13.9774,16.0226,16.0226,-0.852156,3.93998,-6.885,0.0151575,0.515492,0.0553739,0,0,2.975,0.525,-2.345,0.04392,0.541924,-0.95526,-0.06496,0.12348,0.46928
1.17658,0,0,13.8234,13.8234,16.1766,16.1766,-0.98048,3.80195,-6.79674,-0.135632,0.131487,-0.00621934,0,0,3.78,0.7,-2.275,-0.109922,0.160552,-1.0165,-0.06496,0.12348,0.46928
1.32886,0,0,13.6711,13.6711,16.3289,16.3289,-1.10739,3.66647,-6.70668,-0.133273,0.129274,-0.00610564,0,0,3.29,0.77,-1.5575,-0.109922,0.160552,-1.0165,-0.06496,0.12348,0.46928
1.13911,0,0,13.8609,13.8609,16.1391,16.1391,-0.949259,3.68634,-6.71336,0.0181169,-0.152649,0.0438387,0,0,3.78,0.21,-0.77,0.042456,-0.12383,-0.966972,-0.06496,0.12348,0.46928
0.955459,0,0,14.0445,14.0445,15.9555,15.9555,-0.796216,3.70456,-6.72427,0.0177994,-0.149983,0.0438588,0,0,2.3275,-0.0525,0.21,0.042456,-0.12383,-0.966972,-0.07224,0.12922,0.46942
0.957866,0,0,14.0421,14.0421,15.9579,15.9579,-0.798222,3.71191,-6.72199,0.376905,-0.170413,-0.0194685,1,0,2.2225,4.41,0.385,0.40321,-0.144204,-1.0298,-0.07224,0.12922,0.46942
0.959203,0,0,14.0408,14.0408,15.9592,15.9592,-0.799336,3.71197,-6.71942,-0.259439,-0.152969,-0.184343,1,0,2.7125,0.14,0.49,-0.235826,-0.126758,-1.1934,-0.07224,0.12922,0.46942
0.958334,0,0,14.0417,14.0417,15.9583,15.9583,-0.798612,3.71216,-6.71692,-0.259442,-0.152956,-0.184343,1,0,3.745,0.21,0.455,-0.235826,-0.126758,-1.1934,-0.07224,0.12922,0.46942
0.958504,0,0,14.0415,14.0415,15.9585,15.9585,-0.798754,3.71201,-6.7143,-0.0659124,-0.030099,-0.140819,1,0,3.255,0.0175,0.525,-0.04148,-0.004026,-1.15022,-0.07224,0.12922,0.46942
0.958191,0,0,14.0418,14.0418,15.9582,15.9582,-0.798493,3.71269,-6.7122,-0.0659243,-0.0300944,-0.14082,1,0,3.5,0.5075,0.2275,-0.04148,-0.004026,-1.15022,-0.07224,0.12922,0.46942
0.957223,0,0,14.0428,14.0428,15.9572,15.9572,-0.797686,3.71166,-6.71759,-0.00188338,0.0397761,-0.170695,1,0,4.0775,-0.4375,-4.1475,0.022814,0.065758,-1.17986,-0.07224,0.12922,0.46942
0.956202,0,0,14.0438,14.0438,15.9562,15.9562,-0.796835,3.7114,-6.71649,-0.00187891,0.0397909,-0.170694,1,0,3.8675,-0.035,-0.3675,0.022814,0.065758,-1.17986,-0.07224,0.12922,0.46942
0.953832,0,0,14.0462,14.0462,15.9538,15.9538,-0.79486,3.71117,-6.71588,-0.110726,-0.145807,0.168767,1,0,4.515,-0.0175,-0.6475,-0.086498,-0.119682,-0.84302,-0.0679,0.13118,0.47348
0.954917,0,0,14.0451,14.0451,15.9549,15.9549,-0.795764,3.71106,-6.71683,0.271227,-0.0788976,-0.0854903,1,0,2.9575,0.07,-1.5575,0.29707,-0.052826,-1.09532,-0.0679,0.13118,0.47348
0.958152,0,0,14.0418,14.0418,15.9582,15.9582,-0.79846,3.71043,-6.71895,0.271238,-0.0789446,-0.0854902,1,0,1.995,-0.2275,-2.24,0.29707,-0.052826,-1.09532,-0.0679,0.13118,0.47348
1.05975,0,0,13.9402,13.9402,16.0598,16.0598,-0.883126,3.55942,-6.61923,-0.146108,0.0843273,-0.0206739,0,0,1.4525,-0.21,-2.66,-0.124684,0.111752,-1.03114,-0.0679,0.13118,0.47348
1.16007,0,0,13.8399,13.8399,16.1601,16.1601,-0.966722,3.41106,-6.51919,-0.143523,0.0828687,-0.02054,0,0,1.2425,-0.2275,-2.6775,-0.124684,0.111752,-1.03114,-0.0679,0.13118,0.47348
1.20983,0,0,13.7902,13.7902,16.2098,16.2098,-1.00819,3.36107,-6.50205,-0.0469216,0.0398895,-0.020255,0,0,1.8375,-0.35,-2.555,-0.028548,0.06954,-1.0309,-0.0679,0.13118,0.47348
1.25472,0,0,13.7453,13.7453,16.2547,16.2547,-1.0456,3.31233,-6.48521,-0.0460724,0.0392369,-0.0202172,0,0,3.7275,-0.14,-2.765,-0.028548,0.06954,-1.0309,-0.0679,0.13118,0.47348
1.25277,0,0,13.7472,13.7472,16.2528,16.2528,-1.04398,3.31321,-6.4879,0.164933,-0.0693054,-0.204886,1,0,4.4275,0.665,-2.555,0.183366,-0.038918,-1.21414,-0.0679,0.13118,0.47348
1.24993,0,0,13.7501,13.7501,16.2499,16.2499,-1.04161,3.31543,-6.48853,0.164894,-0.0692642,-0.204888,1,0,4.7775,1.435,-1.3475,0.183366,-0.038918,-1.21414,-0.07294,0.12726,0.47082
1.24871,0,0,13.7513,13.7513,16.2487,16.2487,-1.04059,3.3169,-6.48819,0.140207,-0.337192,-0.123128,1,0,3.99,0.98,-0.7875,0.1586,-0.306586,-1.13301,-0.07294,0.12726,0.47082
1.25019,0,0,13.7498,13.7498,16.2502,16.2502,-1.04182,3.31765,-6.48792,0.140194,-0.337214,-0.123129,1,0,2.73,0.56,-0.84,0.1586,-0.306586,-1.13301,-0.07294,0.12726,0.47082
1.25423,0,0,13.7458,13.7458,16.2542,16.2542,-1.04519,3.31837,-6.48736,-0.17884,0.0946897,0.219772,1,0,1.5225,0.5425,-0.665,-0.161772,0.124928,-0.792756,-0.07294,0.12726,0.47082
1.25898,0,0,13.741,13.741,16.259,16.259,-1.04915,3.31864,-6.48567,-0.178845,0.0946207,0.219771,1,0,1.155,0.2625,-0.0175,-0.161772,0.124928,-0.792756,-0.07294,0.12726,0.47082
1.26464,0,0,13.7354,13.7354,16.2646,16.2646,-1.05387,3.31902,-6.48411,-0.123575,0.210559,0.34493,1,0,0.735,0.3325,-0.0875,-0.106262,0.240828,-0.66856,-0.07294,0.12726,0.47082
1.26695,0,0,13.733,13.733,16.267,16.267,-1.05579,3.3192,-6.4823,-0.123579,0.210525,0.34493,1,0,2.2925,0.21,0.0525,-0.106262,0.240828,-0.66856,-0.07294,0.12726,0.47082
1.2675,0,0,13.7325,13.7325,16.2675,16.2675,-1.05625,3.32022,-6.48045,0.0713883,0.139562,-0.122153,1,0,3.115,0.7,0.0875,0.089548,0.169946,-1.13204,-0.07294,0.12726,0.47082
1.26369,0,0,13.7363,13.7363,16.2637,16.2637,-1.05308,3.32086,-6.47796,0.0713772,0.139617,-0.122153,1,0,5.1275,0.4725,0.455,0.089548,0.169946,-1.13204,-0.07294,0.12726,0.47082
1.25864,0,0,13.7414,13.7414,16.2586,16.2586,-1.04886,3.32099,-6.47585,0.0953077,0.202342,-0.236493,1,0,5.7225,0.175,0.2275,0.113582,0.232532,-1.2455,-0.0637,0.12936,0.47488
1.25581,0,0,13.7442,13.7442,16.2558,16.2558,-1.04651,3.31986,-6.47508,0.0953272,0.202383,-0.236492,1,0,4.725,-0.5425,-0.56,0.113582,0.232532,-1.2455,-0.0637,0.12936,0.47488
1.35113,0,0,13.6489,13.6489,16.3511,16.3511,-1.12594,3.44675,-6.62307,0.100527,0.0700815,0.114247,0,0,4.235,0,-0.945,0.121024,0.101748,-0.89731,-0.0637,0.12936,0.47488
1.44486,0,0,13.5551,13.5551,16.4449,16.4449,-1.20405,3.57132,-6.77116,0.0983569,0.0687238,0.114086,0,0,4.235,0,-0.945,0.121024,0.101748,-0.89731,-0.0637,0.12936,0.47488
1.6864,0,0,13.3136,13.3136,16.6864,16.6864,-1.40534,3.45619,-6.72334,-0.111023,0.206638,-0.00131948,0,0,2.765,-4.095,-2.1175,-0.091256,0.243024,-1.01187,-0.0637,0.12936,0.47488
1.92386,0,0,13.0761,13.0761,16.9239,16.9239,-1.60321,3.34292,-6.67473,-0.109049,0.203189,-0.00129279,0,0,2.765,-4.095,-2.1175,-0.091256,0.243024,-1.01187,-0.0637,0.12936,0.47488
1.72005,0,0,13.2799,13.2799,16.7201,16.7201,-1.43338,3.69419,-6.99944,0.369681,-0.191977,0.0204173,0,0,1.7675,-0.875,-1.995,0.395646,-0.154696,-0.99003,-0.0637,0.12936,0.47488
1.51934,0,0,13.4807,13.4807,16.5193,16.5193,-1.26612,4.03957,-7.32167,0.363667,-0.189056,0.0200795,0,0,1.7675,-0.875,-1.995,0.395646,-0.154696,-0.99003,-0.0637,0.12936,0.47488
1.52,0,0,13.48,13.48,16.52,16.52,-1.26667,4.03977,-7.32368,0.161268,-0.10089,-0.139139,1,0,3.2025,0.2625,-2.17,0.192394,-0.066612,-1.14802,-0.06804,0.1274,0.47572
1.23979,0,0,13.7602,13.7602,16.2398,16.2398,-1.03316,3.91432,-7.19397,-0.116451,-0.245212,-0.0334161,0,0,3.85,0.49,-1.9075,-0.088694,-0.214842,-1.04334,-0.06804,0.1274,0.47572
0.96391,0,0,14.0361,14.0361,15.9639,15.9639,-0.803258,3.79216,-7.06485,-0.114323,-0.241211,-0.0332087,0,0,4.0425,1.0325,-1.435,-0.088694,-0.214842,-1.04334,-0.06804,0.1274,0.47572
0.96316,0,0,14.0368,14.0368,15.9632,15.9632,-0.802633,3.79325,-7.06531,0.0132177,-0.132752,-0.187387,1,0,3.7975,0.77,-1.26,0.039406,-0.106506,-1.19633,-0.06804,0.1274,0.47572
0.963544,0,0,14.0365,14.0365,15.9635,15.9635,-0.802953,3.7939,-7.06544,0.0132063,-0.132757,-0.187388,1,0,3.255,0.5075,-1.0675,0.039406,-0.106506,-1.19633,-0.06804,0.1274,0.47572
0.964832,0,0,14.0352,14.0352,15.9648,15.9648,-0.804027,3.7937,-7.06515,0.19313,-0.149263,-0.296197,1,0,2.8175,0,-0.84,0.220088,-0.122976,-1.3043,-0.06804,0.1274,0.47572
0.965717,0,0,14.0343,14.0343,15.9657,15.9657,-0.804764,3.79379,-7.06452,0.193129,-0.149276,-0.296198,1,0,2.9925,0.175,-0.63,0.220088,-0.122976,-1.3043,-0.06804,0.1274,0.47572
0.728153,0,0,14.2718,14.2718,15.7282,15.7282,-0.606794,3.5674,-6.84177,-0.208083,-0.194316,0.0447886,0,0,3.395,0.8225,-0.6125,-0.186782,-0.17141,-0.96624,-0.06804,0.1274,0.47572
0.494073,0,0,14.5059,14.5059,15.4941,15.4941,-0.411727,3.3434,-6.63008,-0.204181,-0.190919,0.0450545,0,0,3.57,0.98,-0.5775,-0.186782,-0.17141,-0.96624,-0.0672,0.13384,0.4683
0.493016,0,0,14.507,14.507,15.493,15.493,-0.410847,3.344,-6.6289,0.0300333,-0.0454511,0.218411,1,0,3.885,0.4725,-0.315,0.048434,-0.026108,-0.79422,-0.0672,0.13384,0.4683
0.492426,0,0,14.5076,14.5076,15.4924,15.4924,-0.410355,3.34367,-6.62796,0.030039,-0.0454425,0.218412,1,0,3.675,-0.07,-0.455,0.048434,-0.026108,-0.79422,-0.0672,0.13384,0.4683
0.491439,0,0,14.5086,14.5086,15.4914,15.4914,-0.409533,3.34269,-6.62672,-0.0428353,0.408028,-0.0428527,1,0,3.85,-0.455,-0.28,-0.024766,0.426878,-1.05347,-0.0672,0.13384,0.4683
0.491237,0,0,14.5088,14.5088,15.4912,15.4912,-0.409364,3.3415,-6.62544,-0.0428146,0.408031,-0.0428515,1,0,3.4825,-0.5775,-0.2625,-0.024766,0.426878,-1.05347,-0.0672,0.13384,0.4683
0.132187,0,0,14.8678,14.8678,15.1322,15.1322,-0.110156,3.14561,-6.4237,-0.167568,-0.275673,0.126666,0,0,3.8325,0.035,-0.7175,-0.153476,-0.261324,-0.885476,-0.0672,0.13384,0.4683
-0.220979,0,0,15.221,15.221,14.779,14.779,0.184149,2.95412,-6.22556,-0.164231,-0.270543,0.12684,0,0,3.9375,0.525,-1.33,-0.153476,-0.261324,-0.885476,-0.0672,0.13384,0.4683
0.0114267,0,0,14.9886,14.9886,15.0114,15.0114,-0.00952227,3.02149,-6.32722,0.0531475,0.189063,0.0509248,0,0,3.4125,0.6125,-1.19,0.066002,0.201178,-0.96075,-0.0672,0.13384,0.4683
0.238824,0,0,14.7612,14.7612,15.2388,15.2388,-0.19902,3.08524,-6.42319,0.0520363,0.185761,0.0508595,0,0,3.8675,-0.0525,-1.26,0.066002,0.201178,-0.96075,-0.06874,0.12978,0.47838
0.0864514,0,0,14.9135,14.9135,15.0865,15.0865,-0.0720428,2.9679,-6.30905,-0.107859,-0.127113,0.00634261,0,0,3.5875,0.2625,-1.435,-0.096624,-0.113582,-1.00504,-0.06874,0.12978,0.47838
-0.0616669,0,0,15.0617,15.0617,14.9383,14.9383,0.0513891,2.85258,-6.19616,-0.105849,-0.124962,0.00644519,0,0,2.8525,0.1575,-1.715,-0.096624,-0.113582,-1.00504,-0.06874,0.12978,0.47838
-0.0597642,0,0,15.0598,15.0598,14.9402,14.9402,0.0498035,2.85225,-6.19729,0.231037,-0.165902,-0.119208,1,0,2.5725,-0.07,-1.6625,0.241682,-0.154452,-1.12972,-0.06874,0.12978,0.47838
-0.0572713,0,0,15.0573,15.0573,14.9427,14.9427,0.0477261,2.852,-6.19764,0.231041,-0.165938,-0.119208,1,0,2.275,-0.0175,-1.2075,0.241682,-0.154452,-1.12972,-0.06874,0.12978,0.47838
-0.104113,0,0,15.1041,15.1041,14.8959,14.8959,0.0867608,3.13472,-6.45682,0.279689,-0.0458181,-0.00241913,0,0,3.045,-0.1925,-1.365,0.295484,-0.035136,-1.01358,-0.06874,0.12978,0.47838
-0.151568,0,0,15.1516,15.1516,14.8484,14.8484,0.126307,3.41286,-6.71578,0.274842,-0.0451296,-0.00269763,0,0,3.7275,0.105,-1.785,0.295484,-0.035136,-1.01358,-0.06874,0.12978,0.47838
-0.151983,0,0,15.152,15.152,14.848,14.848,0.126652,3.41242,-6.7168,0.181306,0.184719,-0.194005,1,0,3.6575,-0.14,-1.5925,0.201544,0.194468,-1.20341,-0.06874,0.12978,0.47838
-0.154263,0,0,15.1543,15.1543,14.8457,14.8457,0.128552,3.41122,-6.71739,0.181327,0.184752,-0.194004,1,0,4.515,-0.5775,-1.3475,0.201544,0.194468,-1.20341,-0.07182,0.12866,0.46998
-0.157168,0,0,15.1572,15.1572,14.8428,14.8428,0.130974,3.41211,-6.71868,-0.0469605,-0.160092,0.164759,1,0,4.83,0.6475,-1.75,-0.027694,-0.15006,-0.847412,-0.07182,0.12866,0.46998
-0.156566,0,0,15.1566,15.1566,14.8434,14.8434,0.130471,3.41361,-6.71978,-0.0469865,-0.1601,0.164757,1,0,3.185,0.9975,-1.645,-0.027694,-0.15006,-0.847412,-0.07182,0.12866,0.46998
-0.403226,0,0,15.4032,15.4032,14.5968,14.5968,0.336022,3.26956,-6.56939,-0.132554,-0.20659,0.0211625,0,0,3.535,1.54,-1.575,-0.116144,-0.20008,-0.99003,-0.07182,0.12866,0.46998
-0.644393,0,0,15.6444,15.6444,14.3556,14.3556,0.536994,3.12653,-6.41956,-0.130061,-0.203087,0.021275,0,0,2.9225,0.56,-1.05,-0.116144,-0.20008,-0.99003,-0.07182,0.12866,0.46998
-0.237943,0,0,15.2379,15.2379,14.7621,14.7621,0.198286,2.88725,-6.26068,-0.245676,0.372578,-0.00404132,0,0,2.2925,-0.4025,-0.6475,-0.236436,0.380884,-1.01541,-0.07182,0.12866,0.46998
0.161651,0,0,14.8383,14.8383,15.1617,15.1617,-0.134709,2.65108,-6.09913,-0.241559,0.366773,-0.00383896,0,0,2.5025,-0.805,-0.5775,-0.236436,0.380884,-1.01541,-0.07182,0.12866,0.46998
0.162768,0,0,14.8372,14.8372,15.1628,15.1628,-0.13564,2.64992,-6.09833,-0.00816437,-0.0200182,0.131159,1,0,2.8875,-0.56,-0.5425,-0.002074,-0.00549,-0.88145,-0.07182,0.12866,0.46998
0.161344,0,0,14.8387,14.8387,15.1613,15.1613,-0.134453,2.64959,-6.09698,-0.00815865,-0.0199975,0.13116,1,0,4.06,-0.07,-0.21,-0.002074,-0.00549,-0.88145,-0.06538,0.12964,0.46508
0.159696,0,0,14.8403,14.8403,15.1597,15.1597,-0.13308,2.64959,-6.09565,0.177714,-0.148329,-0.238178,1,0,4.165,0.1225,-0.2275,0.184586,-0.133712,-1.24794,-0.06538,0.12964,0.46508
0.158078,0,0,14.8419,14.8419,15.1581,15.1581,-0.131732,2.6492,-6.09417,0.177721,-0.148305,-0.238177,1,0,4.1475,-0.105,-0.14,0.184586,-0.133712,-1.24794,-0.06538,0.12964,0.46508
0.140887,0,0,14.8591,14.8591,15.1409,15.1409,-0.117406,2.33177,-5.80469,-0.295762,-0.0110298,0.0476735,0,0,4.2875,0.245,-0.385,-0.29646,0.003172,-0.964532,-0.06538,0.12964,0.46508
0.127015,0,0,14.873,14.873,15.127,15.127,-0.105846,2.01995,-5.51567,-0.290324,-0.0108285,0.0478805,0,0,2.9575,0.28,-0.42,-0.29646,0.003172,-0.964532,-0.06538,0.12964,0.46508
0.105227,0,0,14.8948,14.8948,15.1052,15.1052,-0.0876892,1.96296,-5.45436,-0.0551051,-0.0212591,-0.046017,0,0,2.135,0.595,-0.7525,-0.061244,-0.007564,-1.05774,-0.06538,0.12964,0.46508
0.0838247,0,0,14.9162,14.9162,15.0838,15.0838,-0.0698539,1.90701,-5.39318,-0.0541292,-0.020948,-0.0459836,0,0,2.135,0.595,-0.7525,-0.061244,-0.007564,-1.05774,-0.06538,0.12964,0.46508
0.0864337,0,0,14.9136,14.9136,15.0864,15.0864,-0.0720281,1.90713,-5.3938,0.0657752,-0.375642,-0.0628277,1,0,2.2225,0.1925,-1.365,0.05917,-0.361852,-1.07445,-0.06538,0.12964,0.46508
0.0890428,0,0,14.911,14.911,15.089,15.089,-0.0742023,1.90724,-5.39443,0.0657732,-0.37568,-0.0628278,1,0,2.2225,0.1925,-1.365,0.05917,-0.361852,-1.07445,-0.06538,0.12964,0.46508
0.00708603,0,0,14.9929,14.9929,15.0071,15.0071,-0.00590502,2.0812,-5.53855,0.17973,-0.0767435,-0.062072,0,0,3.605,-0.105,-1.6625,0.176656,-0.064416,-1.0736,-0.06748,0.12936,0.47656
0.109071,0,0,14.8909,14.8909,15.1091,15.1091,-0.0908922,2.03193,-5.50251,-0.0453744,0.0918966,-0.0424936,0,0,4.0425,-0.8575,-1.89,-0.050264,0.10553,-1.0542,-0.06748,0.12936,0.47656
0.209336,0,0,14.7907,14.7907,15.2093,15.2093,-0.174447,1.98354,-5.46634,-0.0445304,0.0904392,-0.0424674,0,0,4.0425,-0.8575,-1.89,-0.050264,0.10553,-1.0542,-0.06748,0.12936,0.47656
0.437298,0,0,14.5627,14.5627,15.4373,15.4373,-0.364415,1.96604,-5.47141,-0.0170122,0.191544,0.0454358,0,0,5.39,-0.35,-2.1,-0.022936,0.20984,-0.966972,-0.06748,0.12936,0.47656
0.661468,0,0,14.3385,14.3385,15.6615,15.6615,-0.551223,1.94881,-5.47631,-0.0167117,0.188285,0.04542,0,0,5.39,-0.35,-2.1,-0.022936,0.20984,-0.966972,-0.06748,0.12936,0.47656
0.560852,0,0,14.4391,14.4391,15.5609,15.5609,-0.467377,1.98997,-5.4971,0.0342017,-0.0823503,0.0494656,0,0,3.3425,0.945,-1.785,0.028914,-0.061976,-0.962946,-0.06748,0.12936,0.47656
0.461924,0,0,14.5381,14.5381,15.4619,15.4619,-0.384937,2.03038,-5.51781,0.0334969,-0.0809122,0.0494516,0,0,3.3425,0.945,-1.785,0.028914,-0.061976,-0.962946,-0.06748,0.12936,0.47656
0.46528,0,0,14.5347,14.5347,15.4653,15.4653,-0.387733,2.02974,-5.51834,-0.325847,-0.310193,-0.0844393,1,0,1.8725,-0.245,-1.3125,-0.331962,-0.29097,-1.0958,-0.06748,0.12936,0.47656
0.508405,0,0,14.4916,14.4916,15.5084,15.5084,-0.42367,2.13772,-5.61596,0.0971054,0.0315021,0.0523294,0,0,2.1,-0.2975,-1.1025,0.094672,0.050996,-0.960018,-0.06174,0.12656,0.4704
0.549241,0,0,14.4508,14.4508,15.5492,15.5492,-0.457701,2.24352,-5.71212,0.0952603,0.0309092,0.0522543,0,0,2.8,-0.4375,-0.28,0.094672,0.050996,-0.960018,-0.06174,0.12656,0.4704
0.54889,0,0,14.4511,14.4511,15.5489,15.5489,-0.457408,2.2435,-5.71103,-0.130581,0.244148,-0.0850791,1,0,3.57,0.105,-0.3675,-0.132126,0.264008,-1.09629,-0.06174,0.12656,0.4704
0.548539,0,0,14.4515,14.4515,15.5485,15.5485,-0.457116,2.24347,-5.70995,-0.130581,0.244153,-0.0850791,1,0,3.57,0.105,-0.3675,-0.132126,0.264008,-1.09629,-0.06174,0.12656,0.4704
0.436692,0,0,14.5633,14.5633,15.4367,15.4367,-0.36391,2.13034,-5.5868,-0.112693,-0.0983755,-0.0687629,0,0,4.655,-0.07,0.105,-0.116144,-0.079788,-1.08019,-0.06174,0.12656,0.4704
0.32411,0,0,14.6759,14.6759,15.3241,15.3241,-0.270092,2.24873,-5.67537,0.0991785,-0.0883121,0.0982542,0,0,3.6575,0.1575,0.2625,0.098698,-0.07137,-0.91439,-0.06174,0.12656,0.4704
0.217517,0,0,14.7825,14.7825,15.2175,15.2175,-0.181265,2.36484,-5.76369,0.0971536,-0.0867627,0.0981788,0,0,1.7325,0.0875,0.1575,0.098698,-0.07137,-0.91439,-0.06174,0.12656,0.4704
-0.189743,0,0,15.1897,15.1897,14.8103,14.8103,0.15812,2.00994,-5.39312,-0.357088,-0.369551,0.0547697,0,0,2.17,0.385,-0.21,-0.363682,-0.359778,-0.9577,-0.063,0.13006,0.4753
-0.188266,0,0,15.1883,15.1883,14.8117,14.8117,0.156889,2.01152,-5.39263,0.179852,0.102081,0.234028,1,0,2.73,1.05,-0.7175,0.175558,0.111386,-0.779824,-0.063,0.13006,0.4753
-0.186565,0,0,15.1866,15.1866,14.8134,14.8134,0.155471,2.01158,-5.39301,0.179851,0.102056,0.234028,1,0,2.6425,0.1575,-1.225,0.175558,0.111386,-0.779824,-0.063,0.13006,0.4753
-0.0586419,0,0,15.0586,15.0586,14.9414,14.9414,0.0488683,1.8063,-5.2142,-0.183455,0.100441,0.0883334,0,0,2.4325,0.28,-1.505,-0.192882,0.11163,-0.924516,-0.063,0.13006,0.4753
0.0563764,0,0,14.9436,14.9436,15.0564,15.0564,-0.0469803,1.60324,-5.03542,-0.179913,0.0987687,0.0884389,0,0,7.5075,-0.525,-1.855,-0.192882,0.11163,-0.924516,-0.063,0.13006,0.4753
-0.0551931,0,0,15.0552,15.0552,14.9448,14.9448,0.0459943,1.37654,-4.80895,-0.198432,-0.0838984,0.104648,0,0,4.655,-0.385,-2.03,-0.215452,-0.072468,-0.908534,-0.063,0.13006,0.4753
-0.166829,0,0,15.1668,15.1668,14.8332,14.8332,0.139025,1.15534,-4.58406,-0.194573,-0.082275,0.104731,0,0,5.6,0.4725,-2.3625,-0.215452,-0.072468,-0.908534,-0.063,0.13006,0.4753
-0.108177,0,0,15.1082,15.1082,14.8918,14.8918,0.0901475,0.820103,-4.26748,-0.305835,0.0520666,0.0845468,0,0,5.005,0.42,-2.59,-0.33306,0.062586,-0.928664,-0.063,0.13006,0.4753
-0.0481461,0,0,15.0481,15.0481,14.9519,14.9519,0.0401218,0.490064,-3.94811,-0.300075,0.0511936,0.0846136,0,0,3.955,0.6125,-2.17,-0.33306,0.062586,-0.928664,-0.06482,0.12908,0.47488
-0.0483525,0,0,15.0484,15.0484,14.9516,14.9516,0.0402937,0.491048,-3.94993,-0.0775303,-0.104149,0.134776,1,0,3.535,0.7,-2.065,-0.109556,-0.092598,-0.878888,-0.06482,0.12908,0.47488
-0.0452675,0,0,15.0453,15.0453,14.9547,14.9547,0.0377229,0.491076,-3.95127,-0.0775308,-0.104193,0.134776,1,0,1.995,0.14,-1.785,-0.109556,-0.092598,-0.878888,-0.06482,0.12908,0.47488
-0.0854221,0,0,15.0854,15.0854,14.9146,14.9146,0.0711851,0.643425,-4.05985,0.148325,-0.0394929,-0.0207802,0,0,1.855,-0.1225,-1.54,0.119926,-0.028548,-1.03322,-0.06482,0.12908,0.47488
-0.122527,0,0,15.1225,15.1225,14.8775,14.8775,0.102105,0.793338,-4.1664,0.145709,-0.0389534,-0.0208139,0,0,0.735,0.0875,-0.56,0.119926,-0.028548,-1.03322,-0.06482,0.12908,0.47488
-0.296424,0,0,15.2964,15.2964,14.7036,14.7036,0.24702,0.797054,-4.12938,-1.75266e-05,-0.144018,0.0528237,0,0,2.31,0.1575,-0.5075,-0.026352,-0.13603,-0.96014,-0.06482,0.12908,0.47488
-0.470792,0,0,15.4708,15.4708,14.5292,14.5292,0.392327,0.799686,-4.09249,-6.34551e-05,-0.141482,0.0528089,0,0,3.885,-0.4025,-0.49,-0.026352,-0.13603,-0.96014,-0.06482,0.12908,0.47488
-0.47371,0,0,15.4737,15.4737,14.5263,14.5263,0.394759,0.798846,-4.08376,-0.166606,-0.26491,-0.0641152,1,0,4.725,-0.3325,4.095,-0.193614,-0.259372,-1.07616,-0.06482,0.12908,0.47488
-0.477347,0,0,15.4773,15.4773,14.5227,14.5227,0.397789,0.798737,-4.08135,-0.166604,-0.264857,-0.0641155,1,0,5.11,0.07,0.4025,-0.193614,-0.259372,-1.07616,-0.06118,0.1309,0.4725
-0.480765,0,0,15.4808,15.4808,14.5192,14.5192,0.400637,0.797759,-4.07856,0.0590122,-0.0557264,0.131127,1,0,5.005,-0.4375,0.63,0.03294,-0.050508,-0.882426,-0.06118,0.1309,0.4725
-0.481574,0,0,15.4816,15.4816,14.5184,14.5184,0.401312,0.797627,-4.0772,0.0590145,-0.0557146,0.131127,1,0,3.7975,0.0525,-0.21,0.03294,-0.050508,-0.882426,-0.06118,0.1309,0.4725
-0.386005,0,0,15.386,15.386,14.614,14.614,0.321671,1.10121,-4.34295,0.308351,0.0859055,-0.0150153,0,0,4.0775,0.14,-0.49,0.288652,0.092354,-1.02736,-0.06118,0.1309,0.4725
-0.287225,0,0,15.2872,15.2872,14.7128,14.7128,0.239354,1.40037,-4.60957,0.303131,0.0844686,-0.0151223,0,0,1.9075,0.63,-0.8225,0.288652,0.092354,-1.02736,-0.06118,0.1309,0.4725
-0.283268,0,0,15.2833,15.2833,14.7167,14.7167,0.236056,1.40172,-4.61042,0.0167654,0.391926,-0.083482,1,0,1.5925,0.91,-1.505,0.001098,0.39955,-1.09519,-0.06118,0.1309,0.4725
-0.27931,0,0,15.2793,15.2793,14.7207,14.7207,0.232758,1.40306,-4.61128,0.0167419,0.391869,-0.0834823,1,0,1.5925,0.91,-1.505,0.001098,0.39955,-1.09519,-0.06118,0.1309,0.4725
-0.220184,0,0,15.2202,15.2202,14.7798,14.7798,0.183487,1.17023,-4.39357,-0.222896,0.051619,0.00685626,0,0,3.115,-0.4025,-1.9075,-0.243634,0.060512,-1.00565,-0.06118,0.1309,0.4725
-0.161948,0,0,15.1619,15.1619,14.8381,14.8381,0.134956,0.941495,-4.17568,-0.218904,0.0507723,0.00693218,0,0,3.115,-0.4025,-1.9075,-0.243634,0.060512,-1.00565,-0.06118,0.1309,0.4725
-0.233726,0,0,15.2337,15.2337,14.7663,14.7663,0.194771,1.05375,-4.25089,0.0992517,-0.0534572,0.0576728,0,0,6.51,-0.0875,-2.2925,0.077836,-0.044652,-0.95526,-0.06342,0.12712,0.47124
-0.236961,0,0,15.237,15.237,14.763,14.763,0.197467,1.05423,-4.25367,-0.220872,-0.272017,-0.0564237,1,0,4.97,0.4025,-2.625,-0.243634,-0.263032,-1.06848,-0.06342,0.12712,0.47124
-0.239159,0,0,15.2392,15.2392,14.7608,14.7608,0.199299,1.05483,-4.25591,-0.220882,-0.271985,-0.056424,1,0,4.48,0.4725,-2.31,-0.243634,-0.263032,-1.06848,-0.06342,0.12712,0.47124
-0.0439742,0,0,15.044,15.044,14.956,14.956,0.0366452,1.02031,-4.22024,-0.0314908,0.174969,-0.0411617,0,0,2.695,0.4725,-1.995,-0.054046,0.186294,-1.05335,-0.06342,0.12712,0.47124
0.149937,0,0,14.8501,14.8501,15.1499,15.1499,-0.124948,0.985561,-4.18338,-0.0308844,0.172149,-0.0411532,0,0,1.7675,-0.035,-1.4175,-0.054046,0.186294,-1.05335,-0.06342,0.12712,0.47124
0.154047,0,0,14.846,14.846,15.154,15.154,-0.128372,0.985201,-4.18286,0.0299862,0.329511,-0.0630381,1,0,1.505,-0.0875,-0.7,0.007076,0.343552,-1.07506,-0.06342,0.12712,0.47124
0.157546,0,0,14.8425,14.8425,15.1575,15.1575,-0.131288,0.986305,-4.18184,0.0299669,0.32946,-0.0630385,1,0,1.785,0.77,-0.4025,0.007076,0.343552,-1.07506,-0.06342,0.12712,0.47124
0.0902253,0,0,14.9098,14.9098,15.0902,15.0902,-0.0751877,1.0012,-4.1646,0.0148857,-0.0610991,-0.0512382,0,0,3.22,0.035,-0.105,-0.007808,-0.04758,-1.06335,-0.06342,0.12712,0.47124
0.0240563,0,0,14.9759,14.9759,15.0241,15.0241,-0.0200469,1.01609,-4.14254,0.0146259,-0.0601369,-0.051242,0,0,3.22,0.035,-0.105,-0.007808,-0.04758,-1.06335,-0.0637,0.1239,0.4683
0.0225388,0,0,14.9775,14.9775,15.0225,15.0225,-0.0187824,1.01597,-4.13989,0.0799873,-0.135589,0.142402,1,0,4.1125,0.0525,0.5425,0.057828,-0.122976,-0.871202,-0.0637,0.1239,0.4683
0.291328,0,0,14.7087,14.7087,15.2913,15.2913,-0.242773,1.03727,-4.15498,0.0243396,0.22615,0.0510356,0,0,4.13,-0.1575,0.7,0.002318,0.242292,-0.961848,-0.0637,0.1239,0.4683
0.546093,0,0,14.4539,14.4539,15.5461,15.5461,-0.455077,1.05785,-4.17,0.0239804,0.222445,0.0510065,0,0,8.6275,-0.4025,0.7525,0.002318,0.242292,-0.961848,-0.0637,0.1239,0.4683
0.694486,0,0,14.3055,14.3055,15.6945,15.6945,-0.578738,0.927547,-4.03494,-0.125117,0.134187,-0.0153658,0,0,4.62,-0.1575,0.2625,-0.149694,0.156282,-1.02773,-0.0637,0.1239,0.4683
0.841635,0,0,14.1584,14.1584,15.8416,15.8416,-0.701363,0.800781,-3.9003,-0.122905,0.132047,-0.0153563,0,0,4.0775,0.56,-0.2625,-0.149694,0.156282,-1.02773,-0.0637,0.1239,0.4683
0.699685,0,0,14.3003,14.3003,15.6997,15.6997,-0.583071,1.00955,-4.0496,0.199034,-0.12614,0.00981372,0,0,3.1325,1.3475,-0.735,0.177266,-0.1037,-1.00272,-0.0637,0.1239,0.4683
0.5614,0,0,14.4386,14.4386,15.5614,15.5614,-0.467834,1.21403,-4.1994,0.195466,-0.124129,0.00976292,0,0,2.52,1.05,-1.5925,0.177266,-0.1037,-1.00272,-0.0637,0.1239,0.4683
0.3228,0,0,14.6772,14.6772,15.3228,15.3228,-0.269,1.27371,-4.22638,0.0503422,-0.193447,0.0889414,0,0,2.3275,0.0175,-1.925,0.032574,-0.176412,-0.92415,-0.06608,0.13398,0.46928
0.374747,0,0,14.6253,14.6253,15.3747,15.3747,-0.312289,1.02212,-3.99225,-0.21776,0.0399145,0.120746,0,0,3.2025,-0.1225,-2.2225,-0.241072,0.057462,-0.892674,-0.06608,0.13398,0.46928
0.423849,0,0,14.5762,14.5762,15.4238,15.4238,-0.353208,0.774037,-3.75848,-0.213431,0.0392,0.12081,0,0,4.1825,-0.6475,-2.5025,-0.241072,0.057462,-0.892674,-0.06608,0.13398,0.46928
0.669343,0,0,14.3307,14.3307,15.6693,15.6693,-0.557786,0.634434,-3.63521,-0.123646,0.200134,0.0870007,0,0,4.445,-0.2625,-2.7825,-0.153354,0.221796,-0.926224,-0.06608,0.13398,0.46928
0.909661,0,0,14.0903,14.0903,15.9097,15.9097,-0.758051,0.497037,-3.51091,-0.121248,0.196639,0.0869843,0,0,5.005,-0.385,-2.695,-0.153354,0.221796,-0.926224,-0.06608,0.13398,0.46928
0.906278,0,0,14.0937,14.0937,15.9063,15.9063,-0.755232,0.496434,-3.51335,-0.179672,0.117672,0.242269,1,0,5.0225,-0.21,-2.4325,-0.212036,0.142862,-0.772138,-0.06608,0.13398,0.46928
0.907041,0,0,14.093,14.093,15.907,15.907,-0.755868,0.496293,-3.51475,-0.17967,0.117661,0.242269,1,0,3.08,0.0525,-1.82,-0.212036,0.142862,-0.772138,-0.06608,0.13398,0.46928
1.06042,0,0,13.9396,13.9396,16.0604,16.0604,-0.883682,0.715952,-3.70596,0.231978,0.142055,-0.0467326,0,0,3.29,-0.0875,-1.505,0.205204,0.169458,-1.05884,-0.06986,0.13146,0.46774
1.06424,0,0,13.9358,13.9358,16.0642,16.0642,-0.886865,0.716727,-3.70587,0.377018,-0.12387,-0.0396026,1,0,1.645,0.5775,-0.945,0.350872,-0.096136,-1.05176,-0.06986,0.13146,0.46774
1.06617,0,0,13.9338,13.9338,16.0662,16.0662,-0.888473,0.716862,-3.7047,0.377016,-0.123898,-0.0396031,1,0,2.52,0.1925,-0.315,0.350872,-0.096136,-1.05176,-0.06986,0.13146,0.46774
0.533273,0,0,14.4667,14.4667,15.5333,15.5333,-0.444394,0.679311,-3.60702,-0.0457066,-0.4636,0.108648,0,0,1.54,0.525,-0.1925,-0.074298,-0.443226,-0.904752,-0.06986,0.13146,0.46774
0.00535475,0,0,14.9946,14.9946,15.0054,15.0054,-0.00446229,0.641415,-3.50959,-0.0450452,-0.455922,0.108686,0,0,2.905,0.0875,0.3325,-0.074298,-0.443226,-0.904752,-0.06986,0.13146,0.46774
0.00584689,0,0,14.9942,14.9942,15.0058,15.0058,-0.00487241,0.64177,-3.50722,0.019579,-0.0750158,0.173234,1,0,3.185,0.3325,0.385,-0.009394,-0.062708,-0.840702,-0.06986,0.13146,0.46774
0.00345203,0,0,14.9965,14.9965,15.0035,15.0035,-0.0028767,0.641289,-3.50463,0.0195874,-0.074981,0.173234,1,0,4.5325,-0.1575,0.5075,-0.009394,-0.062708,-0.840702,-0.06986,0.13146,0.46774
-0.0576437,0,0,15.0576,15.0576,14.9424,14.9424,0.0480364,0.431596,-3.28444,-0.196885,-0.0484458,0.0270818,0,0,5.0225,-0.2275,0.2275,-0.230458,-0.037088,-0.98576,-0.06986,0.13146,0.46774
-0.115674,0,0,15.1157,15.1157,14.8843,14.8843,0.096395,0.227444,-3.05958,-0.193322,-0.0476018,0.0271013,0,0,4.13,0.525,-0.315,-0.230458,-0.037088,-0.98576,-0.06916,0.12698,0.46522
-0.117515,0,0,15.1175,15.1175,14.8825,14.8825,0.0979289,0.227918,-3.05852,0.0887596,-0.0516052,-0.227156,1,0,4.2875,0.4025,-0.385,0.052826,-0.041114,-1.23806,-0.06916,0.12698,0.46522
-0.11594,0,0,15.1159,15.1159,14.8841,14.8841,0.0966171,0.229229,-3.05881,0.0887367,-0.0516281,-0.227156,1,0,2.695,0.8925,-1.1725,0.052826,-0.041114,-1.23806,-0.06916,0.12698,0.46522
-0.115227,0,0,15.1152,15.1152,14.8848,14.8848,0.0960223,0.229406,-3.05932,-0.0396768,-0.0572563,-0.148469,1,0,3.0975,0.2275,-1.295,-0.076128,-0.046726,-1.15998,-0.06916,0.12698,0.46522
-0.113423,0,0,15.1134,15.1134,14.8866,14.8866,0.0945189,0.228957,-3.06066,-0.039669,-0.0572825,-0.148469,1,0,2.59,-0.14,-1.785,-0.076128,-0.046726,-1.15998,-0.06916,0.12698,0.46522
-0.5088,0,0,15.5088,15.5088,14.4912,14.4912,0.424,0.283552,-3.04931,0.0388298,-0.321799,0.116577,0,0,2.975,-0.35,-1.9075,0.00366,-0.316712,-0.896944,-0.06916,0.12698,0.46522
-0.899103,0,0,15.8991,15.8991,14.1009,14.1009,0.749253,0.337805,-3.03871,0.037883,-0.316122,0.116514,0,0,3.5,0.14,-2.52,0.00366,-0.316712,-0.896944,-0.06916,0.12698,0.46522
-0.962634,0,0,15.9626,15.9626,14.0374,14.0374,0.802195,0.523538,-3.16908,0.174593,-0.0572671,0.0033647,0,0,3.1675,0.1225,-2.555,0.144204,-0.059048,-1.00918,-0.06916,0.12698,0.46522
-1.02794,0,0,16.0279,16.0279,13.9721,13.9721,0.856621,0.705513,-3.2982,0.171417,-0.0563178,0.00331689,0,0,4.4975,-0.07,-2.1525,0.144204,-0.059048,-1.00918,-0.06916,0.12698,0.46522
-0.88566,0,0,15.8857,15.8857,14.1143,14.1143,0.73805,0.730228,-3.30674,0.0262963,0.126391,-0.0243231,0,0,3.6925,0.1575,-1.575,-0.001098,0.125538,-1.03663,-0.07182,0.13048,0.4704
-0.888121,0,0,15.8881,15.8881,14.1119,14.1119,0.740101,0.730384,-3.30751,-0.1874,0.00100241,-0.211205,1,0,4.585,0.21,-1.4525,-0.215696,0.000244,-1.22207,-0.07182,0.13048,0.4704
-0.887524,0,0,15.8875,15.8875,14.1125,14.1125,0.739603,0.731126,-3.3074,-0.187413,0.000993724,-0.211205,1,0,3.15,0.56,-0.945,-0.215696,0.000244,-1.22207,-0.07182,0.13048,0.4704
-0.886484,0,0,15.8865,15.8865,14.1135,14.1135,0.738736,0.732371,-3.30684,0.221608,-0.0565431,-0.289893,1,0,2.94,0.8575,-0.6825,0.195078,-0.057218,-1.30015,-0.07182,0.13048,0.4704
-0.883054,0,0,15.8831,15.8831,14.1169,14.1169,0.735879,0.733429,-3.30577,0.221589,-0.056593,-0.289892,1,0,1.82,0.7525,-0.385,0.195078,-0.057218,-1.30015,-0.07182,0.13048,0.4704
-0.81231,0,0,15.8123,15.8123,14.1877,14.1877,0.676925,0.822418,-3.35654,0.0736461,0.0529027,0.10292,0,0,1.6975,0.7,4.1475,0.048068,0.053192,-0.910364,-0.07182,0.13048,0.4704
-0.744211,0,0,15.7442,15.7442,14.2558,14.2558,0.620176,0.909727,-3.41403,0.0721225,0.0519122,0.102908,0,0,2.4325,0.6125,0.245,0.048068,0.053192,-0.910364,-0.07182,0.13048,0.4704
-0.246084,0,0,15.2461,15.2461,14.7539,14.7539,0.20507,1.14252,-3.64285,0.23571,0.444389,0.0931746,0,0,2.5375,0.07,0.28,0.216428,0.452498,-0.920002,-0.06566,0.12838,0.47138
0.0221153,0,0,14.9779,14.9779,15.0221,15.0221,-0.0184294,1.23325,-3.72852,0.095512,0.241911,-0.011727,0,0,3.605,-0.735,0.175,0.077226,0.254126,-1.02407,-0.06566,0.12838,0.47138
0.282754,0,0,14.7172,14.7172,15.2828,15.2828,-0.235628,1.32391,-3.81556,0.0939301,0.238121,-0.0117707,0,0,5.1275,0.1225,-0.35,0.077226,0.254126,-1.02407,-0.06566,0.12838,0.47138
0.271696,0,0,14.7283,14.7283,15.2717,15.2717,-0.226413,1.31791,-3.79266,-0.00606937,-0.00560533,0.00360096,0,0,5.495,0.245,-0.63,-0.023302,0.010492,-1.00882,-0.06566,0.12838,0.47138
0.263206,0,0,14.7368,14.7368,15.2632,15.2632,-0.219338,1.3121,-3.77064,-0.00596803,-0.00548189,0.00360377,0,0,4.3925,0.2975,-1.12,-0.023302,0.010492,-1.00882,-0.06566,0.12838,0.47138
0.261688,0,0,14.7383,14.7383,15.2617,15.2617,-0.218073,1.31239,-3.77129,-0.107292,-0.127587,-0.152541,1,0,4.1475,0.2975,-1.3825,-0.12505,-0.111508,-1.16376,-0.06566,0.12838,0.47138
0.264075,0,0,14.7359,14.7359,15.2641,15.2641,-0.220063,1.31271,-3.77231,-0.107298,-0.127621,-0.152541,1,0,2.3275,0.315,-1.5925,-0.12505,-0.111508,-1.16376,-0.06566,0.12838,0.47138
0.266291,0,0,14.7337,14.7337,15.2663,15.2663,-0.221909,1.31306,-3.77389,0.139676,-0.291059,-0.218565,1,0,2.415,0.3325,-1.925,0.122976,-0.274744,-1.22927,-0.06566,0.12838,0.47138
0.270582,0,0,14.7294,14.7294,15.2706,15.2706,-0.225485,1.31224,-3.77604,0.139691,-0.291121,-0.218565,1,0,1.4525,-0.35,-2.2575,0.122976,-0.274744,-1.22927,-0.06986,0.1323,0.47614
0.274709,0,0,14.7253,14.7253,15.2747,15.2747,-0.228924,1.31134,-3.77765,0.0609838,-0.0861307,0.195649,1,0,1.5225,-0.4025,-1.9425,0.04392,-0.069906,-0.818254,-0.06986,0.1323,0.47614
0.278836,0,0,14.7212,14.7212,15.2788,15.2788,-0.232363,1.31043,-3.77926,0.0609996,-0.0861907,0.195649,1,0,1.5225,-0.4025,-1.9425,0.04392,-0.069906,-0.818254,-0.06986,0.1323,0.47614
0.372225,0,0,14.6278,14.6278,15.3722,15.3722,-0.310188,1.72472,-4.15692,0.389072,0.0759801,0.105945,0,0,3.5875,0.3325,-1.68,0.38064,0.093452,-0.90707,-0.06986,0.1323,0.47614
0.464424,0,0,14.5356,14.5356,15.4644,15.4644,-0.38702,2.1322,-4.53496,0.381964,0.0746414,0.105697,0,0,3.5875,0.3325,-1.68,0.38064,0.093452,-0.90707,-0.06986,0.1323,0.47614
0.460414,0,0,14.5396,14.5396,15.4604,15.4604,-0.383678,2.13234,-4.53492,-0.250614,0.0375732,-0.135159,1,0,5.3025,0.21,-0.98,-0.254614,0.056364,-1.14607,-0.06986,0.1323,0.47614
0.456404,0,0,14.5436,14.5436,15.4564,15.4564,-0.380337,2.13249,-4.53488,-0.250617,0.0376314,-0.135158,1,0,5.3025,0.21,-0.98,-0.254614,0.056364,-1.14607,-0.06986,0.1323,0.47614
0.45659,0,0,14.5434,14.5434,15.4566,15.4566,-0.380492,2.13381,-4.53401,0.253526,-0.217616,-0.0602836,1,0,3.325,0.8925,-0.49,0.251686,-0.198616,-1.07177,-0.06986,0.1323,0.47614
0.456776,0,0,14.5432,14.5432,15.4568,15.4568,-0.380646,2.13512,-4.53314,0.253503,-0.217619,-0.0602844,1,0,3.325,0.8925,-0.49,0.251686,-0.198616,-1.07177,-0.06986,0.1323,0.47614
0.0846016,0,0,14.9154,14.9154,15.0846,15.0846,-0.0705014,1.97192,-4.33848,-0.164963,-0.336901,0.0251652,0,0,1.575,1.0675,-0.14,-0.17141,-0.323178,-0.987102,-0.06818,0.1267,0.47012
0.0877492,0,0,14.9123,14.9123,15.0877,15.0877,-0.0731243,1.97198,-4.3367,0.102183,0.0638731,0.449337,1,0,1.925,0.1575,0.035,0.096868,0.077226,-0.566202,-0.06818,0.1267,0.47012
0.0908967,0,0,14.9091,14.9091,15.0909,15.0909,-0.0757473,1.97204,-4.33492,0.102182,0.0638273,0.449337,1,0,1.925,0.1575,0.035,0.096868,0.077226,-0.566202,-0.06818,0.1267,0.47012
0.143013,0,0,14.857,14.857,15.143,15.143,-0.119178,2.08398,-4.43194,0.108612,0.0460943,-0.00539666,0,0,4.0075,0.35,-0.5075,0.105286,0.060268,-1.01736,-0.06818,0.1267,0.47012
0.194276,0,0,14.8057,14.8057,15.1943,15.1943,-0.161897,2.19392,-4.52895,0.106695,0.0453494,-0.0054701,0,0,4.0075,0.35,-0.5075,0.105286,0.060268,-1.01736,-0.06818,0.1267,0.47012
0.44732,0,0,14.5527,14.5527,15.4473,15.4473,-0.372766,2.33671,-4.68602,0.144052,0.223275,0.0358479,0,0,5.705,-4.4275,-0.5775,0.145302,0.241682,-0.976244,-0.06818,0.1267,0.47012
0.696375,0,0,14.3036,14.3036,15.6964,15.6964,-0.580313,2.47702,-4.84382,0.141605,0.219657,0.0357149,0,0,5.705,-4.4275,-0.5775,0.145302,0.241682,-0.976244,-0.06818,0.1267,0.47012
0.695139,0,0,14.3049,14.3049,15.6951,15.6951,-0.579282,2.48427,-4.84454,0.0619054,-0.113976,-0.186335,1,0,4.025,4.375,-1.3825,0.065392,-0.091622,-1.19658,-0.0693,0.1274,0.4809
0.742086,0,0,14.2579,14.2579,15.7421,15.7421,-0.618405,2.67485,-5.02552,0.200599,0.0416662,-0.0549373,0,0,2.8525,0.6475,-1.68,0.20801,0.064538,-1.06604,-0.0693,0.1274,0.4809
0.788306,0,0,14.2117,14.2117,15.7883,15.7883,-0.656922,2.86209,-5.20643,0.197335,0.0409965,-0.0551026,0,0,2.8525,0.6475,-1.68,0.20801,0.064538,-1.06604,-0.0693,0.1274,0.4809
0.79295,0,0,14.207,14.207,15.793,15.793,-0.660792,2.86138,-5.20768,-0.0761168,-0.132247,0.122558,1,0,1.295,-0.28,-1.7325,-0.066612,-0.108458,-0.889746,-0.0693,0.1274,0.4809
0.797594,0,0,14.2024,14.2024,15.7976,15.7976,-0.664662,2.86068,-5.20893,-0.0761045,-0.132314,0.122558,1,0,1.295,-0.28,-1.7325,-0.066612,-0.108458,-0.889746,-0.0693,0.1274,0.4809
0.796935,0,0,14.2031,14.2031,15.7969,15.7969,-0.664112,2.86128,-5.21043,-0.0674896,0.20501,0.12809,1,0,3.78,0.49,-1.8725,-0.05795,0.228506,-0.884256,-0.0693,0.1274,0.4809
0.796275,0,0,14.2037,14.2037,15.7963,15.7963,-0.663563,2.86189,-5.21193,-0.0675002,0.205019,0.12809,1,0,3.78,0.49,-1.8725,-0.05795,0.228506,-0.884256,-0.0693,0.1274,0.4809
0.792738,0,0,14.2073,14.2073,15.7927,15.7927,-0.660615,2.8625,-5.21292,-0.0909576,0.0758604,-0.138094,1,0,5.11,0.49,-1.575,-0.081496,0.09943,-1.14839,-0.0693,0.1274,0.4809
0.85199,0,0,14.148,14.148,15.852,15.852,-0.709992,2.78457,-5.16376,-0.0772075,0.0533825,0.0122059,0,0,4.7425,0.7875,-1.085,-0.069052,0.077836,-0.999302,-0.07098,0.13594,0.47642
0.481508,0,0,14.5185,14.5185,15.4815,15.4815,-0.401256,2.84295,-5.19588,0.0642774,-0.33546,0.0119621,0,0,3.4475,0.9625,-1.1375,0.074054,-0.31598,-0.999546,-0.07098,0.13594,0.47642
0.116231,0,0,14.8838,14.8838,15.1162,15.1162,-0.0968588,2.89869,-5.22733,0.0633058,-0.330154,0.0119365,0,0,3.71,-0.035,-0.98,0.074054,-0.31598,-0.999546,-0.07098,0.13594,0.47642
0.120517,0,0,14.8795,14.8795,15.1205,15.1205,-0.100431,2.89839,-5.22699,0.0363413,0.227658,0.169802,1,0,1.4175,-0.0525,-0.805,0.04697,0.241316,-0.842898,-0.07098,0.13594,0.47642
0.124263,0,0,14.8757,14.8757,15.1243,15.1243,-0.103553,2.89788,-5.22638,0.0363501,0.227604,0.169803,1,0,1.6625,-0.175,-0.6475,0.04697,0.241316,-0.842898,-0.07098,0.13594,0.47642
0.12611,0,0,14.8739,14.8739,15.1261,15.1261,-0.105091,2.89919,-5.22596,-0.0810279,0.0704001,-0.115685,1,0,2.555,0.8925,-0.7525,-0.070882,0.084302,-1.12618,-0.07098,0.13594,0.47642
