pid_x,pid_y,pid_z,front_left_speed,front_right_speed,back_left_speed,back_right_speed,orientation_x,orientation_y,orientation_z,acceleration_x,acceleration_y,acceleration_z,accel_rejected,mag_rejected,gyro_x,gyro_y,gyro_z,accel_x,accel_y,accel_z,mag_x,mag_y,mag_z
-0.448941,0,0,15.4489,15.4489,14.5511,14.5511,0.498823,-0.0620687,-0.272933,0.0390307,-0.431384,0.0907594,0,0,3.4475,0.0875,-0.56,-0.002196,-0.427488,-0.922564,-0.06566,0.26334,0.31766
-0.890176,0,0,15.8902,15.8902,14.1098,14.1098,0.989084,-0.120008,-0.544298,0.040042,-0.422828,0.0906467,0,0,3.5175,0.07,-0.5775,-0.002196,-0.427488,-0.922564,-0.06566,0.26334,0.31766
-1.3254,0,0,16.3254,16.3254,13.6746,13.6746,1.47267,-0.175943,-0.812594,0.0398033,-0.416222,0.0904629,0,0,3.675,0.0525,-0.6825,-0.003416,-0.429318,-0.922564,-0.06566,0.26334,0.31766
-1.75308,0,0,16.7531,16.7531,13.2469,13.2469,1.94787,-0.227746,-1.079,0.0407075,-0.407932,0.0902122,0,0,3.745,0.175,-0.5775,-0.003416,-0.429318,-0.922564,-0.06566,0.26334,0.31766
-2.17242,0,0,17.1724,17.1724,12.8276,12.8276,2.4138,-0.269267,-1.34889,0.0461701,-0.397363,0.0942028,0,0,3.57,0.1225,-0.56,0.001342,-0.426878,-0.918294,-0.06566,0.26334,0.31766
-2.58448,0,0,17.5845,17.5845,12.4155,12.4155,2.87165,-0.307088,-1.61688,0.0468302,-0.389381,0.093831,0,0,3.675,0.245,-0.595,0.001342,-0.426878,-0.918294,-0.06566,0.26334,0.31766
-2.98913,0,0,17.9891,17.9891,12.0109,12.0109,3.32125,-0.34797,-1.88714,0.0449925,-0.382034,0.0924195,0,0,3.64,0.21,-0.6475,-0.00122,-0.427366,-0.91927,-0.06748,0.26796,0.31976
-3.38681,0,0,18.3868,18.3868,11.6132,11.6132,3.76313,-0.385415,-2.15514,0.0457675,-0.375314,0.0903405,0,0,3.7625,0.1925,-0.525,-0.001098,-0.428342,-0.920856,-0.06748,0.26796,0.31976
-3.77627,0,0,18.7763,18.7763,11.2237,11.2237,4.19585,-0.418838,-2.4214,0.0467153,-0.366804,0.0900582,0,0,3.605,0.1925,-0.455,-0.000732,-0.427366,-0.920612,-0.06748,0.26796,0.31976
-4.15881,0,0,19.1588,19.1588,10.8412,10.8412,4.6209,-0.449163,-2.68548,0.0472445,-0.359408,0.089484,0,0,3.6925,0.1575,-0.42,-0.000732,-0.427366,-0.920612,-0.06748,0.26796,0.31976
-4.53721,0,0,19.5372,19.5372,10.4628,10.4628,5.04134,-0.480339,-2.94443,0.0456019,-0.356248,0.0870174,0,0,3.7275,0.14,-0.385,-0.002928,-0.431514,-0.922442,-0.06748,0.26796,0.31976
-4.90861,0,0,19.9086,19.9086,10.0914,10.0914,5.45401,-0.50847,-3.20142,0.0460929,-0.349077,0.0863544,0,0,3.675,0.14,-0.49,-0.002928,-0.431514,-0.922442,-0.06748,0.26796,0.31976
-5.27078,0,0,20.2708,20.2708,9.72922,9.72922,5.85642,-0.532081,-3.45746,0.0472338,-0.338547,0.087257,0,0,3.7275,0.0525,-0.525,-0.002196,-0.427976,-0.920856,-0.06748,0.26796,0.31976
-5.62646,0,0,20.6265,20.6265,9.37354,9.37354,6.25162,-0.552767,-3.71106,0.0475949,-0.331688,0.0865262,0,0,3.85,0.175,-0.42,-0.002196,-0.427976,-0.920856,-0.06748,0.26796,0.31976
-5.97423,0,0,20.9742,20.9742,9.02577,9.02577,6.63804,-0.565551,-3.96047,0.0503692,-0.325598,0.0824474,0,0,3.78,0.1575,-0.4725,0.000366,-0.428586,-0.92415,-0.06902,0.26586,0.31934
-6.31603,0,0,21.316,21.316,8.68397,8.68397,7.01781,-0.582964,-4.20286,0.0460566,-0.319262,0.0828859,0,0,3.57,-0.07,-0.5775,-0.00427,-0.42883,-0.92293,-0.06902,0.26586,0.31934
-6.65546,0,0,21.6555,21.6555,8.34454,8.34454,7.39496,-0.599556,-4.4418,0.0456173,-0.314197,0.0883276,0,0,3.6225,0.0175,-0.56,-0.005002,-0.430294,-0.916708,-0.06902,0.26586,0.31934
-6.98853,0,0,21.9885,21.9885,8.01147,8.01147,7.76504,-0.614136,-4.67835,0.0458717,-0.307795,0.087473,0,0,3.6225,-0.175,-0.4375,-0.005002,-0.430294,-0.916708,-0.06902,0.26586,0.31934
-7.31306,0,0,22.3131,22.3131,7.68694,7.68694,8.12562,-0.623054,-4.91511,0.0482141,-0.301563,0.0820523,0,0,3.5175,-0.175,-0.49,-0.002806,-0.430294,-0.921222,-0.06902,0.26586,0.31934
-7.63134,0,0,22.6313,22.6313,7.36866,7.36866,8.47926,-0.629786,-5.14931,0.0483316,-0.295456,0.0811599,0,0,3.4475,-0.0875,-0.35,-0.002806,-0.430294,-0.921222,-0.06902,0.26586,0.31934
-7.94186,0,0,22.9419,22.9419,7.05814,7.05814,8.82429,-0.630976,-5.38375,0.0506606,-0.289137,0.0771801,0,0,3.5,-0.0875,-0.4025,-0.000488,-0.429928,-0.924272,-0.06902,0.26586,0.31934
-8.24662,0,0,23.2466,23.2466,6.75338,6.75338,9.16291,-0.629554,-5.6136,0.0506358,-0.2833,0.0762566,0,0,3.64,0,-0.455,-0.000488,-0.429928,-0.924272,-0.06874,0.26516,0.32158
-8.54455,0,0,23.5446,23.5446,6.45545,6.45545,9.49395,-0.630189,-5.8387,0.0479742,-0.275156,0.0786396,0,0,3.43,-0.1575,-0.49,-0.003172,-0.427488,-0.920978,-0.06874,0.26516,0.32158
-8.83703,0,0,23.837,23.837,6.16297,6.16297,9.81892,-0.629029,-6.06135,0.0479539,-0.269565,0.0776885,0,0,3.5875,-0.07,-0.42,-0.003172,-0.427488,-0.920978,-0.06874,0.26516,0.32158
-9.12839,0,0,24.1284,24.1284,5.87161,5.87161,10.1427,-0.624094,-6.28336,0.0500545,-0.267786,0.0797839,0,0,3.5525,-0.0525,-0.5075,-0.000976,-0.43127,-0.917928,-0.06874,0.26516,0.32158
-9.41449,0,0,24.4145,24.4145,5.58551,5.58551,10.4605,-0.617636,-6.50312,0.0499418,-0.262328,0.0787929,0,0,3.7625,-0.035,-0.56,-0.000976,-0.43127,-0.917928,-0.06874,0.26516,0.32158
-9.69661,0,0,24.6966,24.6966,5.30339,5.30339,10.774,-0.61735,-6.71514,0.0448345,-0.257073,0.0808587,0,0,3.6925,0.035,-0.56,-0.0061,-0.431392,-0.914878,-0.06874,0.26516,0.32158
-9.9732,0,0,24.9732,24.9732,5.0268,5.0268,11.0813,-0.615667,-6.92499,0.0448051,-0.251807,0.0798423,0,0,3.64,-0.0525,-0.5775,-0.0061,-0.431392,-0.914878,-0.06874,0.26516,0.32158
-10.2382,0,0,25.2382,25.2382,5,5,11.3758,-0.6052,-7.13769,0.0488744,-0.244201,0.0702372,0,0,3.71,-0.07,-0.595,-0.00183,-0.42883,-0.923418,-0.06874,0.26516,0.32158
-10.4975,0,0,25.4975,25.4975,5,5,11.6639,-0.593638,-7.34768,0.0486726,-0.239274,0.0692351,0,0,3.395,-0.105,-0.49,-0.00183,-0.42883,-0.923418,-0.06832,0.26558,0.32438
-10.7527,0,0,25.7527,25.7527,5,5,11.9474,-0.579976,-7.55625,0.0491631,-0.233819,0.0712989,0,0,3.5175,-0.1575,-0.5775,-0.001098,-0.42822,-0.920368,-0.06832,0.26558,0.32438
-11.0029,0,0,26.0029,26.0029,5,5,12.2254,-0.5653,-7.76256,0.048907,-0.229074,0.0702854,0,0,3.5175,-0.1575,-0.5775,-0.001098,-0.42822,-0.920368,-0.06832,0.26558,0.32438
-11.2499,0,0,26.2499,26.2499,5,5,12.4999,-0.55532,-7.96244,0.0450882,-0.226349,0.0682778,0,0,3.6575,-0.035,-0.525,-0.004758,-0.430172,-0.921344,-0.06832,0.26558,0.32438
-11.4921,0,0,26.4921,26.4921,5,5,12.7691,-0.544281,-8.16017,0.0448956,-0.221765,0.0672522,0,0,3.6575,-0.035,-0.525,-0.004758,-0.430172,-0.921344,-0.06832,0.26558,0.32438
-11.7274,0,0,26.7274,26.7274,5,5,13.0305,-0.523583,-8.36175,0.0502442,-0.214996,0.0675894,0,0,3.5,-0.245,-0.5075,0.000976,-0.427854,-0.920002,-0.06832,0.26558,0.32438
-11.9581,0,0,26.9581,26.9581,5,5,13.2868,-0.502186,-8.56109,0.0498707,-0.210639,0.0665742,0,0,3.5,-0.245,-0.5075,0.000976,-0.427854,-0.920002,-0.06832,0.26558,0.32438
-12.1822,0,0,27.1822,27.1822,5,5,13.5358,-0.522203,-8.73025,0.0217924,-0.211909,0.0460146,0,0,3.395,-0.0875,-0.63,-0.027572,-0.433344,-0.9394,-0.06832,0.26558,0.32438
-12.4019,0,0,27.4019,27.4019,5,5,13.7798,-0.540488,-8.89774,0.0221115,-0.207771,0.0450059,0,0,3.395,-0.0875,-0.63,-0.027572,-0.433344,-0.9394,-0.06832,0.26558,0.32438
-12.7125,0,0,27.7125,27.7125,5,5,14.125,-0.412968,-9.15448,0.140521,-0.321971,0.0502107,0,0,3.325,0.0525,-0.49,0.093574,-0.55327,-0.932812,-0.06622,0.26446,0.32018
-12.789,0,0,27.789,27.789,5,5,14.21,-0.369729,-9.36175,0.0420921,-0.0928864,-0.0454326,0,0,3.6225,-0.2625,-0.665,-0.004514,-0.325862,-1.02736,-0.06622,0.26446,0.32018
-12.864,0,0,27.864,27.864,5,5,14.2934,-0.327285,-9.56704,0.0413514,-0.0914753,-0.0457864,0,0,3.6225,-0.2625,-0.665,-0.004514,-0.325862,-1.02736,-0.06622,0.26446,0.32018
-13.1932,0,0,28.1932,28.1932,5,5,14.6591,0.0516739,-9.9717,0.28439,-0.272511,0.205907,0,0,3.7275,0.28,-1.295,0.246196,-0.512888,-0.776042,-0.06622,0.26446,0.32018
-13.5165,0,0,28.5165,28.5165,5,5,15.0183,0.422544,-10.3681,0.277918,-0.266458,0.204276,0,0,3.7275,0.28,-1.295,0.246196,-0.512888,-0.776042,-0.06622,0.26446,0.32018
-13.7238,0,0,28.7238,28.7238,5,5,15.2486,0.0152507,-10.2726,-0.191441,-0.0907378,0.230916,0,0,4.025,0.8575,-0.6825,-0.232288,-0.341234,-0.748592,-0.06622,0.26446,0.32018
-13.7245,0,0,28.7245,28.7245,5,5,15.2494,0.01667,-10.2724,-0.191466,-0.0907242,0.230912,1,0,4.025,0.8575,-0.6825,-0.232288,-0.341234,-0.748592,-0.06622,0.26446,0.32018
-13.6334,0,0,28.6334,28.6334,5,5,15.1482,0.138548,-10.5293,0.0654148,0.0745168,-0.0322288,0,0,2.7475,-0.4375,-0.2275,0.027816,-0.17446,-1.01016,-0.07042,0.27188,0.33642
-13.9295,0,0,28.9295,28.9295,5,5,15.4772,0.0336582,-10.6253,-0.0208317,-0.261898,0.0980581,0,0,3.22,0.595,-0.21,-0.060634,-0.51606,-0.879376,-0.07042,0.27188,0.33642
-14.08,0,0,29.08,29.08,5,5,15.6444,0.122201,-10.848,0.0682513,-0.0818822,0.173378,0,0,4.0775,0.8225,-0.1225,0.030378,-0.339038,-0.803858,-0.07042,0.27188,0.33642
-14.0812,0,0,29.0812,29.0812,5,5,15.6458,0.12183,-10.8477,0.0682578,-0.0818588,0.173372,1,0,4.3575,-0.1225,-0.2975,0.030378,-0.339038,-0.803858,-0.07042,0.27188,0.33642
-14.0827,0,0,29.0827,29.0827,5,5,15.6475,0.121575,-10.8474,-0.460808,-0.253785,-0.679407,1,0,4.515,-0.0525,-0.2975,-0.500932,-0.510814,-1.65005,-0.07042,0.27188,0.33642
-14.0831,0,0,29.0831,29.0831,5,5,15.6479,0.120631,-10.846,-0.460791,-0.253778,-0.679409,1,0,3.815,-0.28,0.385,-0.500932,-0.510814,-1.65005,-0.07042,0.27188,0.33642
-14.0835,0,0,29.0835,29.0835,5,5,15.6483,0.119936,-10.8448,0.202168,0.0246785,-0.26864,1,0,3.815,-0.1575,0.28,0.164822,-0.232654,-1.24245,-0.07042,0.27188,0.33642
-14.0823,0,0,29.0823,29.0823,5,5,15.647,0.120306,-10.8422,0.202162,0.0246553,-0.268633,1,0,2.8,0.6475,0.84,0.164822,-0.232654,-1.24245,-0.07042,0.27188,0.33642
-14.0798,0,0,29.0798,29.0798,5,5,15.6442,0.12066,-10.8404,0.937265,-0.801823,0.512102,1,0,2.03,0.525,0.4375,0.903044,-1.05823,-0.467748,-0.06748,0.27664,0.34398
-14.0768,0,0,29.0768,29.0768,5,5,15.6409,0.119725,-10.8397,-0.363101,-0.0229544,0.22737,1,0,1.6975,-0.3675,0.0525,-0.402844,-0.280112,-0.7503,-0.06748,0.27664,0.34398
-14.0769,0,0,29.0769,29.0769,5,5,15.641,0.117797,-10.8399,-0.363068,-0.0229525,0.227369,1,0,3.64,-1.085,-0.35,-0.402844,-0.280112,-0.7503,-0.06748,0.27664,0.34398
-14.0769,0,0,29.0769,29.0769,5,5,15.641,0.116549,-10.8396,0.844158,-0.10722,-0.103854,1,0,3.57,-0.6125,-0.14,0.80947,-0.364292,-1.07897,-0.06748,0.27664,0.34398
-14.0852,0,0,29.0852,29.0852,5,5,15.6502,0.117625,-10.8409,0.844139,-0.107064,-0.103898,1,0,8.7675,0.4375,-1.435,0.80947,-0.364292,-1.07897,-0.06748,0.27664,0.34398
-14.0888,0,0,29.0888,29.0888,5,5,15.6542,0.117687,-10.8422,0.121055,-0.69516,-1.00292,1,0,5.7925,-0.14,-1.295,0.083326,-0.951844,-1.97103,-0.06748,0.27664,0.34398
-14.0933,0,0,29.0933,29.0933,5,5,15.6592,0.119308,-10.8428,0.121027,-0.695076,-1.00294,1,0,6.3875,0.8575,-1.12,0.083326,-0.951844,-1.97103,-0.06748,0.27664,0.34398
-14.0975,0,0,29.0975,29.0975,5,5,15.6639,0.120665,-10.8436,0.615814,-0.55968,-0.629813,1,0,6.23,0.6825,-1.1725,0.580232,-0.816668,-1.60076,-0.06748,0.27664,0.34398
-14.0993,0,0,29.0993,29.0993,5,5,15.6659,0.123028,-10.8455,0.615773,-0.559647,-0.629823,1,0,4.69,1.0675,-1.9775,0.580232,-0.816668,-1.60076,-0.06818,0.28364,0.34916
-14.0982,0,0,29.0982,29.0982,5,5,15.6646,0.125372,-10.847,-0.528785,0.0399738,0.612824,1,0,2.8525,1.12,-1.75,-0.56913,-0.217648,-0.367708,-0.06818,0.28364,0.34916
-14.0958,0,0,29.0958,29.0958,5,5,15.662,0.126227,-10.8482,-0.5288,0.039929,0.612836,1,0,2.0825,0.3325,-1.33,-0.56913,-0.217648,-0.367708,-0.06818,0.28364,0.34916
-14.6441,0,0,29.6441,29.6441,5,5,16.2712,0.279086,-11.0937,0.196718,-0.477316,0.302162,0,0,1.3825,-1.2075,-1.47,0.162138,-0.744566,-0.673074,-0.06818,0.28364,0.34916
-15.1844,0,0,30.1844,30.1844,5,5,16.8716,0.431213,-11.3348,0.194063,-0.467277,0.299158,0,0,2.03,-1.47,-1.6975,0.162138,-0.744566,-0.673074,-0.06818,0.28364,0.34916
-15.1817,0,0,30.1817,30.1817,5,5,16.8686,0.428352,-11.3373,0.224727,-0.266551,-0.133974,1,0,1.89,-1.995,-1.4525,0.192882,-0.543998,-1.10288,-0.06818,0.28364,0.34916
-15.181,0,0,30.181,30.181,5,5,16.8677,0.429788,-11.3374,0.224702,-0.266566,-0.13397,1,0,3.0975,0.8225,-0.84,0.192882,-0.543998,-1.10288,-0.06818,0.28364,0.34916
-15.1954,0,0,30.1954,30.1954,5,5,16.8838,0.742795,-11.712,0.209399,-0.034762,-0.0088199,0,0,3.7275,1.5575,-0.5775,0.183,-0.312686,-0.978562,-0.06818,0.28364,0.34916
-15.2103,0,0,30.2103,30.2103,5,5,16.9003,1.04604,-12.0892,0.204107,-0.0345095,-0.00898294,0,0,4.165,1.085,-0.4025,0.183,-0.312686,-0.978562,-0.06664,0.28462,0.3402
-15.2113,0,0,30.2113,30.2113,5,5,16.9014,1.0478,-12.0886,-0.570395,0.050631,-0.0303821,1,0,4.1825,1.12,-0.525,-0.59475,-0.227652,-0.99979,-0.06664,0.28462,0.3402
-15.212,0,0,30.212,30.212,5,5,16.9023,1.04896,-12.0869,-0.570415,0.0506453,-0.0303868,1,0,4.0425,0.98,0.245,-0.59475,-0.227652,-0.99979,-0.06664,0.28462,0.3402
-15.4939,0,0,30.4939,30.4939,5,5,17.2154,1.16984,-12.3346,0.136952,-0.283655,0.068174,0,0,3.745,0.63,0.105,0.11773,-0.566812,-0.90036,-0.06664,0.28462,0.3402
-15.7696,0,0,30.7696,30.7696,5,5,17.5218,1.28621,-12.5786,0.134921,-0.278566,0.0665368,0,0,3.22,-1.0675,0.4725,0.11773,-0.566812,-0.90036,-0.06664,0.28462,0.3402
-15.9973,0,0,30.9973,30.9973,5,5,17.7748,1.17236,-12.6882,-0.0286772,-0.143427,0.169868,0,0,2.9925,-1.715,0.525,-0.048556,-0.436028,-0.796538,-0.06664,0.28462,0.3402
-16.2216,0,0,31.2216,31.2216,5,5,18.024,1.06409,-12.7972,-0.026788,-0.139277,0.168567,0,0,3.8325,-1.1725,0.2975,-0.048556,-0.436028,-0.796538,-0.06664,0.28462,0.3402
-16.2227,0,0,31.2227,31.2227,5,5,18.0253,1.06223,-12.7963,-0.36728,-0.107624,-0.172991,1,0,4.305,-0.8225,0.35,-0.390522,-0.40443,-1.13545,-0.06664,0.28462,0.3402
-16.2233,0,0,31.2233,31.2233,5,5,18.0259,1.06187,-12.7953,-0.367274,-0.107613,-0.172994,1,0,3.9375,0.0175,0.0875,-0.390522,-0.40443,-1.13545,-0.06664,0.28462,0.3402
-16.2241,0,0,31.2241,31.2241,5,5,18.0267,1.0616,-12.7945,-0.0397435,-0.193822,-0.179023,1,0,4.0075,0.035,-0.035,-0.06161,-0.490562,-1.14143,-0.06972,0.28658,0.34986
-16.3839,0,0,31.3839,31.3839,5,5,18.2043,1.08878,-12.9814,0.0466444,-0.151798,0.0448779,0,0,1.6975,0.2275,-0.35,0.02562,-0.451522,-0.918294,-0.06972,0.28658,0.34986
-16.5426,0,0,31.5426,31.5426,5,5,18.3807,1.11772,-13.1659,0.0461396,-0.148879,0.0439028,0,0,2.9575,1.12,-0.5425,0.02562,-0.451522,-0.918294,-0.06972,0.28658,0.34986
-16.5413,0,0,31.5413,31.5413,5,5,18.3792,1.11918,-13.1659,-0.0701478,0.0127919,0.104155,1,0,2.7475,0.8575,-0.7875,-0.091134,-0.289994,-0.858514,-0.06972,0.28658,0.34986
-16.5415,0,0,31.5415,31.5415,5,5,18.3795,1.1197,-13.1669,-0.0701568,0.012796,0.104154,1,0,3.7275,0.14,-1.1725,-0.091134,-0.289994,-0.858514,-0.06972,0.28658,0.34986
-16.7603,0,0,31.7603,31.7603,5,5,18.6225,1.31067,-13.4391,0.141419,-0.144412,0.187698,0,0,4.1125,-0.49,-1.1375,0.124684,-0.451034,-0.774212,-0.06972,0.28658,0.34986
-16.9757,0,0,31.9757,31.9757,5,5,18.8619,1.49632,-13.7067,0.13818,-0.140483,0.186281,0,0,4.5325,-1.19,-0.7525,0.124684,-0.451034,-0.774212,-0.06972,0.28658,0.34986
-17.1258,0,0,32.1258,32.1258,5,5,19.0287,1.5567,-13.9224,0.0716456,-0.155081,0.0120755,0,0,5.04,-1.12,-0.8225,0.058926,-0.468358,-0.94611,-0.06174,0.29218,0.35728
-17.1272,0,0,32.1272,32.1272,5,5,19.0302,1.55639,-13.9231,0.0570727,-0.272542,-0.17961,1,0,4.445,-0.2625,-0.84,0.044286,-0.585722,-1.13631,-0.06174,0.29218,0.35728
-17.1287,0,0,32.1287,32.1287,5,5,19.0319,1.55726,-13.9237,0.0570575,-0.272515,-0.17962,1,0,4.515,0.4025,-1.0325,0.044286,-0.585722,-1.13631,-0.06174,0.29218,0.35728
-17.129,0,0,32.129,32.129,5,5,19.0323,1.55904,-13.9241,0.0760996,-0.326977,0.0601268,1,0,3.815,0.945,-1.1025,0.06344,-0.640134,-0.898408,-0.06174,0.29218,0.35728
-17.1283,0,0,32.1283,32.1283,5,5,19.0315,1.56193,-13.9241,0.0760493,-0.326991,0.0601302,1,0,3.115,1.645,-1.05,0.06344,-0.640134,-0.898408,-0.06174,0.29218,0.35728
-17.127,0,0,32.127,32.127,5,5,19.03,1.56498,-13.9243,0.160793,0.0451046,0.335419,1,0,2.7475,1.68,-1.2425,0.148596,-0.2684,-0.62525,-0.06174,0.29218,0.35728
-17.1256,0,0,32.1256,32.1256,5,5,19.0285,1.56685,-13.9242,0.16076,0.0450801,0.335426,1,0,2.7475,1.1025,-0.805,0.148596,-0.2684,-0.62525,-0.06174,0.29218,0.35728
-17.1245,0,0,32.1245,32.1245,5,5,19.0272,1.56777,-13.9247,-0.141755,0.110519,0.193674,1,0,2.87,0.455,-0.9625,-0.155184,-0.203008,-0.765916,-0.06174,0.29218,0.35728
-17.125,0,0,32.125,32.125,5,5,19.0277,1.56782,-13.9248,-0.141756,0.110527,0.193671,1,0,3.8675,0.035,-0.63,-0.155184,-0.203008,-0.765916,-0.06748,0.29176,0.3521
-17.0787,0,0,32.0787,32.0787,5,5,18.9763,1.87349,-14.2916,0.199267,0.0138799,-0.0433564,0,0,5.005,-0.6125,-0.5075,0.192638,-0.298656,-1.00125,-0.06748,0.29176,0.3521
-17.0334,0,0,32.0334,32.0334,5,5,18.926,2.17051,-14.6551,0.194087,0.0129901,-0.0432443,0,0,5.005,-0.6125,-0.5075,0.192638,-0.298656,-1.00125,-0.06748,0.29176,0.3521
-17.0361,0,0,32.0361,32.0361,5,5,18.929,2.16864,-14.656,0.155244,-0.249777,-0.190306,1,0,5.25,-1.155,-0.63,0.153598,-0.5612,-1.14717,-0.06748,0.29176,0.3521
-17.0387,0,0,32.0387,32.0387,5,5,18.9319,2.16677,-14.6568,0.155276,-0.249728,-0.190322,1,0,5.25,-1.155,-0.63,0.153598,-0.5612,-1.14717,-0.06748,0.29176,0.3521
-17.0378,0,0,32.0378,32.0378,5,5,18.9308,2.1671,-14.656,0.0856594,-0.112231,0.203119,1,0,2.9575,0.3675,-0.1575,0.083692,-0.423828,-0.756766,-0.06748,0.29176,0.3521
-17.0368,0,0,32.0368,32.0368,5,5,18.9298,2.16742,-14.6552,0.0856537,-0.112249,0.203125,1,0,2.9575,0.3675,-0.1575,0.083692,-0.423828,-0.756766,-0.06748,0.29176,0.3521
-17.0363,0,0,32.0363,32.0363,5,5,18.9292,2.16784,-14.6548,0.0428835,0.0894951,0.175219,1,0,3.255,0.35,-0.3675,0.040748,-0.222284,-0.78446,-0.06748,0.29176,0.3521
-17.0374,0,0,32.0374,32.0374,5,5,18.9305,2.16748,-14.6548,0.204344,0.0516568,0.289431,1,0,4.2875,-0.1575,-0.455,0.202886,-0.260104,-0.671122,-0.06468,0.2863,0.35476
-17.3021,0,0,32.3021,32.3021,5,5,19.2245,1.83016,-14.6027,-0.171237,-0.213329,0.0908622,0,0,4.27,-0.28,-0.0175,-0.180194,-0.529724,-0.866688,-0.06468,0.2863,0.35476
-17.5615,0,0,32.5615,32.5615,5,5,19.5127,1.50313,-14.5541,-0.165532,-0.208531,0.0893513,0,0,4.8475,-0.56,-0.1925,-0.180194,-0.529724,-0.866688,-0.06468,0.2863,0.35476
-17.701,0,0,32.701,32.701,5,5,19.6678,1.60882,-14.7678,0.0989209,-0.149698,0.0149966,0,0,4.1475,-0.63,0.035,0.08723,-0.473482,-0.939522,-0.06468,0.2863,0.35476
-17.8379,0,0,32.8379,32.8379,5,5,19.8199,1.71234,-14.9797,0.0971149,-0.147219,0.0140513,0,0,4.095,-0.8575,-0.5075,0.08723,-0.473482,-0.939522,-0.06468,0.2863,0.35476
-17.461,0,0,32.461,32.461,5,5,19.4011,1.33555,-14.9446,-0.298429,0.398702,0.0279796,0,0,3.4475,-0.7175,-0.2975,-0.31659,0.07869,-0.928298,-0.06468,0.2863,0.35476
-17.0894,0,0,32.0894,32.0894,5,5,18.9883,0.967313,-14.9059,-0.292003,0.391942,0.0304698,0,0,2.87,0.2975,-0.42,-0.31659,0.07869,-0.928298,-0.06468,0.2863,0.35476
-17.0898,0,0,32.0898,32.0898,5,5,18.9887,0.968642,-14.9053,-0.171634,0.122904,0.118867,1,0,3.815,0.8925,-0.4375,-0.195688,-0.190076,-0.84058,-0.06468,0.2863,0.35476
-17.0898,0,0,32.0898,32.0898,5,5,18.9886,0.971161,-14.9045,-0.171678,0.122903,0.118866,1,0,3.535,1.575,-0.595,-0.195688,-0.190076,-0.84058,-0.0602,0.29568,0.3612
-17.0902,0,0,32.0902,32.0902,5,5,18.9891,0.972881,-14.9042,0.0220616,-0.252019,-0.0112161,1,0,3.8325,1.05,-0.6825,-0.001098,-0.564616,-0.969656,-0.0602,0.29568,0.3612
-17.0912,0,0,32.0912,32.0912,5,5,18.9903,0.973599,-14.9048,0.0220491,-0.252,-0.0112228,1,0,4.2175,0.3325,-0.9625,-0.001098,-0.564616,-0.969656,-0.0602,0.29568,0.3612
-16.8642,0,0,31.8642,31.8642,5,5,18.7379,1.31543,-15.2971,0.187622,0.190047,-0.0656077,0,0,4.4275,0.35,-0.84,0.171166,-0.118828,-1.02492,-0.0602,0.29568,0.3612
-16.6421,0,0,31.6421,31.6421,5,5,18.4913,1.64626,-15.6887,0.18185,0.18592,-0.0643753,0,0,4.9525,-0.1925,-0.7175,0.171166,-0.118828,-1.02492,-0.0602,0.29568,0.3612
-16.8638,0,0,31.8638,31.8638,5,5,18.7376,1.82106,-15.9443,0.16653,-0.225634,0.0606795,0,0,4.6025,-0.665,-0.7525,0.158844,-0.533994,-0.899384,-0.0602,0.29568,0.3612
-17.081,0,0,32.081,32.081,5,5,18.9789,1.99214,-16.1956,0.163546,-0.221683,0.0592249,0,0,4.3225,-0.8575,-0.6125,0.158844,-0.533994,-0.899384,-0.0602,0.29568,0.3612
-17.0816,0,0,32.0816,32.0816,5,5,18.9795,1.9912,-16.1961,0.0401331,-0.144977,-0.0863489,1,0,3.92,-0.5775,-0.6125,0.034892,-0.457378,-1.04383,-0.0602,0.29568,0.3612
-17.0816,0,0,32.0816,32.0816,5,5,18.9795,1.99144,-16.1958,0.0401288,-0.144977,-0.0863491,1,0,3.57,0.2275,-0.42,0.034892,-0.457378,-1.04383,-0.06146,0.29218,0.36386
-17.0811,0,0,32.0811,32.0811,5,5,18.979,1.99195,-16.1955,-0.0700676,-0.15158,0.308687,1,0,3.29,0.385,-0.4375,-0.075762,-0.463966,-0.651846,-0.06146,0.29218,0.36386
-17.0821,0,0,32.0821,32.0821,5,5,18.9802,1.99286,-16.1952,-0.0700834,-0.151562,0.30868,1,0,4.2175,0.595,-0.5425,-0.075762,-0.463966,-0.651846,-0.06146,0.29218,0.36386
-17.0832,0,0,32.0832,32.0832,5,5,18.9814,1.99344,-16.1953,0.0213852,-0.173158,-0.0386568,1,0,4.2525,0.35,-0.665,0.016104,-0.48556,-0.996496,-0.06146,0.29218,0.36386
-17.0862,0,0,32.0862,32.0862,5,5,18.9846,1.99365,-16.1952,0.0213815,-0.173104,-0.0386755,1,0,5.4075,0.175,-0.5075,0.016104,-0.48556,-0.996496,-0.06146,0.29218,0.36386
-17.0892,0,0,32.0892,32.0892,5,5,18.988,1.99359,-16.1949,0.204583,-0.116383,-0.0457023,1,0,5.425,0.0525,-0.3675,0.20008,-0.428952,-1.00345,-0.06146,0.29218,0.36386
-17.0912,0,0,32.0912,32.0912,5,5,18.9903,1.99313,-16.1943,0.204591,-0.116344,-0.0457152,1,0,4.865,-0.105,-0.1225,0.20008,-0.428952,-1.00345,-0.06146,0.29218,0.36386
-17.0922,0,0,32.0922,32.0922,5,5,18.9913,1.99242,-16.194,0.290494,-0.295731,-0.0175656,1,0,4.165,-0.2975,-0.2275,0.286334,-0.60817,-0.975512,-0.06146,0.29218,0.36386
-17.093,0,0,32.093,32.093,5,5,18.9922,1.99168,-16.1939,0.290507,-0.295717,-0.01757,1,0,4.0425,-0.35,-0.315,0.286334,-0.60817,-0.975512,-0.06146,0.29218,0.36386
-17.094,0,0,32.094,32.094,5,5,18.9933,1.99007,-16.1944,-0.240722,-0.412695,-0.0776973,1,0,4.2175,-0.945,-0.49,-0.247172,-0.725046,-1.03517,-0.0595,0.3031,0.37282
-17.0308,0,0,32.0308,32.0308,5,5,18.9231,2.23474,-16.531,0.149839,0.044315,-0.00392517,0,0,4.48,-0.77,-0.4725,0.149328,-0.267302,-0.962214,-0.0595,0.3031,0.37282
-16.9694,0,0,31.9694,31.9694,5,5,18.8548,2.47347,-16.8645,0.145676,0.0431333,-0.00370172,0,0,4.7075,-0.14,-0.49,0.149328,-0.267302,-0.962214,-0.0595,0.3031,0.37282
-17.0864,0,0,32.0864,32.0864,5,5,18.9849,1.85429,-16.6605,-0.394341,-0.0447178,0.069103,0,0,4.8475,0.1925,-0.56,-0.40382,-0.357338,-0.889624,-0.0595,0.3031,0.37282
-17.1992,0,0,32.1992,32.1992,5,5,19.1103,1.251,-16.4599,-0.383816,-0.0425577,0.068659,0,0,4.6725,0.3325,-0.9275,-0.40382,-0.357338,-0.889624,-0.0595,0.3031,0.37282
-17.201,0,0,32.201,32.201,5,5,19.1122,1.2516,-16.4604,0.114022,-0.0939405,-0.160774,1,0,4.69,0.28,-0.8925,0.096136,-0.4087,-1.11728,-0.0595,0.3031,0.37282
-17.2029,0,0,32.2029,32.2029,5,5,19.1143,1.25221,-16.4609,0.114011,-0.0939069,-0.160786,1,0,4.725,0.28,-0.9275,0.096136,-0.4087,-1.11728,-0.0595,0.3031,0.37282
-17.2052,0,0,32.2052,32.2052,5,5,19.1169,1.25313,-16.4615,0.0705035,-0.22796,-0.070803,1,0,5.0225,0.4375,-1.015,0.05246,-0.542656,-1.02797,-0.0595,0.3031,0.37282
-17.2073,0,0,32.2073,32.2073,5,5,19.1192,1.25287,-16.4618,0.070508,-0.227921,-0.0708162,1,0,4.8825,-0.175,-0.6825,0.05246,-0.542656,-1.02797,-0.05964,0.30324,0.3822
-17.2097,0,0,32.2097,32.2097,5,5,19.1219,1.25245,-16.4621,-0.11633,-0.396044,0.0610919,1,0,5.1275,-0.245,-0.595,-0.135176,-0.71065,-0.897066,-0.05964,0.30324,0.3822
-17.2122,0,0,32.2122,32.2122,5,5,19.1247,1.25203,-16.4624,-0.116322,-0.395999,0.0610763,1,0,5.1275,-0.245,-0.595,-0.135176,-0.71065,-0.897066,-0.05964,0.30324,0.3822
-17.4438,0,0,32.4438,32.4438,5,5,19.382,1.50119,-16.7418,0.22605,-0.250005,0.0624478,0,0,5.215,-0.6125,-0.595,0.213012,-0.569008,-0.894138,-0.05964,0.30324,0.3822
-17.6714,0,0,32.6714,32.6714,5,5,19.6349,1.74517,-17.0164,0.221794,-0.245887,0.060861,0,0,5.215,-0.6125,-0.595,0.213012,-0.569008,-0.894138,-0.05964,0.30324,0.3822
-17.6733,0,0,32.6733,32.6733,5,5,19.637,1.74548,-17.0161,0.086089,-0.035794,-0.125911,1,0,4.7775,0.2625,-0.4375,0.076738,-0.359168,-1.07946,-0.05964,0.30324,0.3822
-17.6753,0,0,32.6753,32.6753,5,5,19.6392,1.74579,-17.0159,0.0860837,-0.0357587,-0.125923,1,0,4.7775,0.2625,-0.4375,0.076738,-0.359168,-1.07946,-0.05964,0.30324,0.3822
-17.6636,0,0,32.6636,32.6636,5,5,19.6262,1.71328,-17.1645,-0.0247517,0.0211895,0.0134694,0,0,4.9175,0.7175,-0.28,-0.035136,-0.302072,-0.94123,-0.05964,0.30324,0.3822
-17.652,0,0,32.652,32.652,5,5,19.6134,1.682,-17.3314,-0.0242059,0.0209834,0.01356,0,0,4.9175,0.7175,-0.28,-0.035136,-0.302072,-0.94123,-0.05684,0.31402,0.3829
-17.6097,0,0,32.6097,32.6097,5,5,19.5664,1.99716,-17.6984,0.199904,0.0261357,0.017603,0,0,6.0375,-0.3675,0.1575,0.195444,-0.296094,-0.937326,-0.05684,0.31402,0.3829
-17.5684,0,0,32.5684,32.5684,5,5,19.5205,2.30366,-18.0619,0.194559,0.0253143,0.0176816,0,0,6.0375,-0.3675,0.1575,0.195444,-0.296094,-0.937326,-0.05684,0.31402,0.3829
-17.5727,0,0,32.5727,32.5727,5,5,19.5252,2.30159,-18.0617,-0.52703,-0.104794,0.368673,1,0,6.23,-1.0675,-0.0175,-0.529236,-0.426146,-0.589016,-0.05684,0.31402,0.3829
-17.5401,0,0,32.5401,32.5401,5,5,19.489,3.16754,-18.7176,0.555254,0.0384795,0.221896,0,0,6.3525,-1.2425,-0.175,0.57279,-0.282186,-0.734196,-0.05684,0.31402,0.3829
-17.5073,0,0,32.5073,32.5073,5,5,19.4526,4.01343,-19.3661,0.540519,0.037573,0.221235,0,0,6.195,-1.0325,-0.49,0.57279,-0.282186,-0.734196,-0.05684,0.31402,0.3829
-17.5113,0,0,32.5113,32.5113,5,5,19.4571,4.01318,-19.3666,-0.533045,-0.46576,-0.163988,1,0,6.1075,-0.21,-0.7875,-0.505324,-0.78507,-1.11642,-0.05684,0.31402,0.3829
-17.5161,0,0,32.5161,32.5161,5,5,19.4624,4.01292,-19.3681,-0.533041,-0.465672,-0.164018,1,0,6.615,-0.385,-1.2775,-0.505324,-0.78507,-1.11642,-0.05684,0.31402,0.3829
-17.5206,0,0,32.5206,32.5206,5,5,19.4674,4.01413,-19.3691,-0.336741,0.0533254,0.430161,1,0,6.405,0.5075,-1.3125,-0.308172,-0.266692,-0.526796,-0.05992,0.31192,0.37688
-17.5253,0,0,32.5253,32.5253,5,5,19.4725,4.01579,-19.3704,-0.0522506,-0.056138,0.382917,1,0,6.5275,0.7,-1.575,-0.022448,-0.376126,-0.573644,-0.05992,0.31192,0.37688
-17.5306,0,0,32.5306,32.5306,5,5,19.4785,4.01644,-19.3725,-0.0522619,-0.0560408,0.382882,1,0,6.9825,0,-1.7675,-0.022448,-0.376126,-0.573644,-0.05992,0.31192,0.37688
-17.5363,0,0,32.5363,32.5363,5,5,19.4848,4.01647,-19.3749,-0.402627,-0.129091,-0.100588,1,0,7.21,-0.42,-1.8725,-0.374296,-0.449204,-1.05335,-0.05992,0.31192,0.37688
-17.5424,0,0,32.5424,32.5424,5,5,19.4915,4.01443,-19.3781,-0.402592,-0.128979,-0.100625,1,0,7.49,-1.715,-1.89,-0.374296,-0.449204,-1.05335,-0.05992,0.31192,0.37688
-17.6495,0,0,32.6495,32.6495,5,5,19.6106,3.83425,-19.4563,-0.0996276,-0.100697,-0.0318958,0,0,7.3325,-1.2775,-1.4525,-0.0732,-0.422974,-0.984662,-0.05992,0.31192,0.37688
-17.7544,0,0,32.7544,32.7544,5,5,19.7271,3.66013,-19.5336,-0.0965952,-0.0987195,-0.0323917,0,0,7.5425,-0.8575,-1.2425,-0.0732,-0.422974,-0.984662,-0.05992,0.31192,0.37688
-17.6624,0,0,32.6624,32.6624,5,5,19.6249,3.79124,-19.8121,0.0697436,0.0727312,-0.0420146,0,0,7.7525,-0.4375,-0.9275,0.096136,-0.249978,-0.994666,-0.05992,0.31192,0.37688
-17.5724,0,0,32.5724,32.5724,5,5,19.5249,3.91893,-20.0745,0.06752,0.0710401,-0.0415723,0,0,7.6125,0.28,-0.6475,0.096136,-0.249978,-0.994666,-0.06552,0.30898,0.385
-17.3466,0,0,32.3466,32.3466,5,5,19.2741,4.04308,-20.3591,0.0352299,0.199866,-0.0689103,0,0,7.9625,0.0525,-0.42,0.06588,-0.11712,-1.02309,-0.06552,0.30898,0.385
-17.1269,0,0,32.1269,32.1269,5,5,19.0299,4.16353,-20.6408,0.033133,0.195802,-0.0676581,0,0,8.89,0.84,0.28,0.06588,-0.11712,-1.02309,-0.06552,0.30898,0.385
-17.1361,0,0,32.1361,32.1361,5,5,19.0402,4.16509,-20.6385,-0.267814,-0.0358267,-0.124643,1,0,9.2225,1.33,0.42,-0.236314,-0.348676,-1.07958,-0.06552,0.30898,0.385
-17.1458,0,0,32.1458,32.1458,5,5,19.0509,4.16474,-20.6362,-0.267808,-0.0356493,-0.124704,1,0,9.52,0.2975,0.84,-0.236314,-0.348676,-1.07958,-0.06552,0.30898,0.385
-17.1557,0,0,32.1557,32.1557,5,5,19.0619,4.16357,-20.6337,0.107725,0.434598,0.328054,1,0,9.6425,-0.14,1.05,0.140788,0.120902,-0.630252,-0.06552,0.30898,0.385
-17.1653,0,0,32.1653,32.1653,5,5,19.0726,4.16092,-20.6309,0.107771,0.434774,0.327997,1,0,9.4325,-0.8925,1.5225,0.140788,0.120902,-0.630252,-0.06552,0.30898,0.385
-17.0197,0,0,32.0197,32.0197,5,5,18.9107,4.46712,-21.0037,0.157232,0.134113,0.0575548,0,0,9.1875,-1.19,1.3125,0.19581,-0.176656,-0.89914,-0.06552,0.30898,0.385
-16.8772,0,0,31.8772,31.8772,5,5,18.7525,4.76537,-21.3829,0.152043,0.131372,0.058047,0,0,9.275,-0.5075,0.735,0.19581,-0.176656,-0.89914,-0.06104,0.31024,0.37898
-16.8869,0,0,31.8869,31.8869,5,5,18.7632,4.76429,-21.3815,0.342552,0.0204139,0.376548,1,0,9.5375,-0.315,0.4025,0.387106,-0.287676,-0.583038,-0.06104,0.31024,0.37898
-16.8997,0,0,31.8997,31.8997,5,5,18.7775,4.76339,-21.3807,0.342567,0.0206493,0.376469,1,0,11.5325,-0.2975,0.1225,0.387106,-0.287676,-0.583038,-0.06104,0.31024,0.37898
-16.9138,0,0,31.9138,31.9138,5,5,18.7931,4.76351,-21.3802,0.199333,-0.386263,-0.177747,1,0,12.3375,0.1925,-0.2975,0.243268,-0.694424,-1.13289,-0.06104,0.31024,0.37898
-16.9292,0,0,31.9292,31.9292,5,5,18.8102,4.76472,-21.3803,0.199312,-0.385983,-0.177845,1,0,13.1425,0.7,-0.7875,0.243268,-0.694424,-1.13289,-0.06104,0.31024,0.37898
-17.1204,0,0,32.1204,32.1204,5,5,19.0226,4.35595,-21.2937,-0.251334,-0.136706,0.0103426,0,0,12.9675,0.595,-0.91,-0.216428,-0.449082,-0.9455,-0.06104,0.31024,0.37898
-17.3046,0,0,32.3046,32.3046,5,5,19.2273,3.95785,-21.2102,-0.244404,-0.133175,0.00965125,0,0,11.9,0.1225,-1.0325,-0.216428,-0.449082,-0.9455,-0.06104,0.31024,0.37898
-17.3172,0,0,32.3172,32.3172,5,5,19.2413,3.95736,-21.2117,-0.101164,0.181532,0.264444,1,0,11.4975,-0.525,-1.26,-0.07259,-0.134932,-0.692594,-0.06104,0.31024,0.37898
-17.3297,0,0,32.3297,32.3297,5,5,19.2553,3.95547,-21.2131,-0.101131,0.181762,0.264366,1,0,11.445,-1.2775,-0.945,-0.07259,-0.134932,-0.692594,-0.05614,0.30604,0.38388
-17.3436,0,0,32.3436,32.3436,5,5,19.2707,3.95304,-21.2142,-0.0737543,0.207908,0.0653492,1,0,12.2675,-1.5225,-0.665,-0.04514,-0.109068,-0.88999,-0.05614,0.30604,0.38388
-17.3596,0,0,32.3596,32.3596,5,5,19.2885,3.95113,-21.2148,-0.0737211,0.2082,0.0652491,1,0,13.5625,-1.12,-0.455,-0.04514,-0.109068,-0.88999,-0.05614,0.30604,0.38388
-17.3771,0,0,32.3771,32.3771,5,5,19.3079,3.94924,-21.2145,-0.011609,-0.173859,0.259767,1,0,14.4375,-0.945,0.0175,0.017202,-0.49105,-0.696864,-0.05614,0.30604,0.38388
-17.3945,0,0,32.3945,32.3945,5,5,19.3273,3.94734,-21.2141,-0.011576,-0.173539,0.259658,1,0,14.4375,-0.945,0.0175,0.017202,-0.49105,-0.696864,-0.05614,0.30604,0.38388
-17.4124,0,0,32.4124,32.4124,5,5,19.3471,3.94585,-21.213,0.0590331,-0.0149372,-0.221552,1,0,14.63,-0.56,0.4025,0.088084,-0.332938,-1.17425,-0.05614,0.30604,0.38388
-17.4302,0,0,32.4302,32.4302,5,5,19.3669,3.94436,-21.2118,0.0590591,-0.0146113,-0.221665,1,0,14.63,-0.56,0.4025,0.088084,-0.332938,-1.17425,-0.05614,0.30604,0.38388
-17.7888,0,0,32.7888,32.7888,5,5,19.7653,3.88165,-21.2611,0.0227335,-0.259508,0.182427,0,0,13.02,0.455,0.105,0.050508,-0.584136,-0.77104,-0.05614,0.30604,0.38388
-18.1404,0,0,33.1404,33.1404,5,5,20.156,3.82173,-21.3152,0.0237769,-0.253089,0.18017,0,0,13.02,0.455,0.105,0.050508,-0.584136,-0.77104,-0.05516,0.30926,0.38724
-18.1579,0,0,33.1579,33.1579,5,5,20.1755,3.82057,-21.3144,0.0834465,0.011756,0.2178,1,0,14.4375,-0.42,0.1925,0.11041,-0.319884,-0.733586,-0.05516,0.30926,0.38724
-18.1754,0,0,33.1754,33.1754,5,5,20.1949,3.81941,-21.3135,0.0834667,0.0120741,0.217684,1,0,14.4375,-0.42,0.1925,0.11041,-0.319884,-0.733586,-0.05516,0.30926,0.38724
-18.4539,0,0,33.4539,33.4539,5,5,20.5044,3.87618,-21.4495,0.0884309,-0.207976,0.136569,0,0,17.255,-0.805,-0.4725,0.116388,-0.54473,-0.812154,-0.05516,0.30926,0.38724
-18.727,0,0,33.727,33.727,5,5,20.8078,3.93338,-21.5838,0.0874351,-0.203056,0.134642,0,0,17.255,-0.805,-0.4725,0.116388,-0.54473,-0.812154,-0.05516,0.30926,0.38724
-18.7476,0,0,33.7476,33.7476,5,5,20.8306,3.93265,-21.5847,0.147948,-0.105105,-0.165493,1,0,16.415,-0.5425,-0.8575,0.177144,-0.447252,-1.10983,-0.05516,0.30926,0.38724
-18.7681,0,0,33.7681,33.7681,5,5,20.8535,3.93193,-21.5856,0.14796,-0.104733,-0.165634,1,0,16.415,-0.5425,-0.8575,0.177144,-0.447252,-1.10983,-0.05516,0.30926,0.38724
-19.1823,0,0,34.1823,34.1823,5,5,21.3137,3.95697,-21.6605,0.0962572,-0.323812,0.209399,0,0,14.9975,-0.7875,-0.8925,0.12566,-0.673562,-0.734806,-0.05516,0.30926,0.38724
-19.2003,0,0,34.2003,34.2003,5,5,21.3336,3.95691,-21.661,0.266824,0.16282,-0.184531,1,0,14.77,-0.105,-0.805,0.296948,-0.187758,-1.12557,-0.0525,0.30128,0.38976
-19.0808,0,0,34.0808,34.0808,5,5,21.2009,3.98412,-21.8509,-0.00517017,0.103987,-0.128027,0,0,17.5,-0.1925,-0.3675,0.024278,-0.244366,-1.07031,-0.0525,0.30128,0.38976
-18.9648,0,0,33.9648,33.9648,5,5,21.072,4.00915,-22.0385,-0.0056059,0.101883,-0.127247,0,0,18.13,-0.4375,0.2275,0.024278,-0.244366,-1.07031,-0.0525,0.30128,0.38976
-19.4498,0,0,34.4498,34.4498,5,5,21.6109,3.70121,-21.8945,-0.12015,-0.353082,0.219586,0,0,18.41,-0.7175,0.28,-0.096136,-0.707722,-0.723094,-0.0525,0.30128,0.38976
-19.9215,0,0,34.9215,34.9215,5,5,22.135,3.4041,-21.757,-0.114974,-0.34449,0.216483,0,0,16.9225,-0.5775,0.0875,-0.096136,-0.707722,-0.723094,-0.0525,0.30128,0.38976
-19.9423,0,0,34.9423,34.9423,5,5,22.1581,3.40231,-21.7562,-0.351233,-0.130883,-0.215339,1,0,16.5025,-0.7525,0.315,-0.333426,-0.49471,-1.15144,-0.0525,0.30128,0.38976
-19.9638,0,0,34.9638,34.9638,5,5,22.182,3.40147,-21.7549,-0.351218,-0.130497,-0.215495,1,0,16.94,-0.1225,0.3675,-0.333426,-0.49471,-1.15144,-0.0525,0.30128,0.38976
-20.01,0,0,35.01,35.01,5,5,22.2333,3.47679,-21.9177,0.0653803,-0.0610635,-0.0630816,0,0,17.43,0.0525,0.385,0.086254,-0.426146,-0.99979,-0.0525,0.30128,0.38976
-20.0595,0,0,35.0595,35.0595,5,5,22.2883,3.55021,-22.0794,0.0641013,-0.0602066,-0.0635172,0,0,20.02,-0.14,0.6475,0.086254,-0.426146,-0.99979,-0.05796,0.30478,0.3878
-20.0867,0,0,35.0867,35.0867,5,5,22.3185,3.54924,-22.0778,-0.0911405,-0.526,-0.300883,1,0,20.44,-0.1225,0.5775,-0.069662,-0.891942,-1.23513,-0.05796,0.30478,0.3878
-20.1153,0,0,35.1153,35.1153,5,5,22.3503,3.5475,-22.0767,-0.0911102,-0.525486,-0.301092,1,0,21.3675,-0.665,0.4375,-0.069662,-0.891942,-1.23513,-0.05796,0.30478,0.3878
-20.1418,0,0,35.1418,35.1418,5,5,22.3798,3.54715,-22.0759,0.334582,-0.0838902,-0.113545,1,0,20.055,0.0175,-0.035,0.357826,-0.451278,-1.04883,-0.05796,0.30478,0.3878
-20.1672,0,0,35.1672,35.1672,5,5,22.408,3.54514,-22.0758,0.412611,-0.0579104,-0.193032,1,0,19.39,-1.015,0,0.43615,-0.42578,-1.12752,-0.05796,0.30478,0.3878
-20.1932,0,0,35.1932,35.1932,5,5,22.4369,3.54413,-22.0748,0.412628,-0.0574437,-0.193223,1,0,19.775,-0.28,0.245,0.43615,-0.42578,-1.12752,-0.05796,0.30478,0.3878
-20.2209,0,0,35.2209,35.2209,5,5,22.4677,3.54306,-22.074,0.536076,-0.0418049,-0.0827728,1,0,20.7725,-0.3675,0.14,0.560102,-0.410652,-1.01772,-0.05796,0.30478,0.3878
-20.2525,0,0,35.2525,35.2525,5,5,22.5028,3.54088,-22.0731,0.536114,-0.0412385,-0.0830047,1,0,23.24,-0.945,0.4375,0.560102,-0.410652,-1.01772,-0.05796,0.30478,0.3878
-20.2839,0,0,35.2839,35.2839,5,5,22.5377,3.53855,-22.0723,0.059202,-0.374571,-0.00995777,1,0,23.1,-1.0325,0.4375,0.08113,-0.7442,-0.945012,-0.05782,0.30436,0.38864
-20.3155,0,0,35.3155,35.3155,5,5,22.5728,3.53706,-22.072,0.0813383,0.546953,-0.325062,1,0,23.275,-0.7175,-0.07,0.103334,0.175802,-1.25745,-0.05782,0.30436,0.38864
-20.3441,0,0,35.3441,35.3441,5,5,22.6045,3.53383,-22.0722,0.0813947,0.547465,-0.325271,1,0,21.3675,-1.75,0.105,0.103334,0.175802,-1.25745,-0.05782,0.30436,0.38864
-20.3722,0,0,35.3722,35.3722,5,5,22.6358,3.53052,-22.0723,-0.226757,0.0465164,-0.147448,1,0,21.105,-1.7675,0.175,-0.20618,-0.32513,-1.0808,-0.05782,0.30436,0.38864
-20.4017,0,0,35.4017,35.4017,5,5,22.6685,3.5286,-22.0718,-0.226723,0.0470429,-0.147666,1,0,21.8925,-0.8925,0.1575,-0.20618,-0.32513,-1.0808,-0.05782,0.30436,0.38864
-20.4352,0,0,35.4352,35.4352,5,5,22.7058,3.52597,-22.071,0.259751,-0.515971,-0.0955377,1,0,24.465,-1.19,0.525,0.282308,-0.88816,-1.02883,-0.05782,0.30436,0.38864
-20.4718,0,0,35.4718,35.4718,5,5,22.7464,3.52407,-22.0696,0.259784,-0.515318,-0.0958092,1,0,26.3025,-0.6825,0.63,0.282308,-0.88816,-1.02883,-0.05782,0.30436,0.38864
-20.5116,0,0,35.5116,35.5116,5,5,22.7907,3.52175,-22.0688,-0.10524,-0.60095,0.115489,1,0,28.35,-1.0325,0.4375,-0.084302,-0.974414,-0.818864,-0.05782,0.30436,0.38864
-20.5493,0,0,35.5493,35.5493,5,5,22.8325,3.52203,-22.068,-0.105245,-0.600278,0.115206,1,0,27.0025,0.3675,-0.175,-0.084302,-0.974414,-0.818864,-0.05852,0.29582,0.39242
-20.5871,0,0,35.5871,35.5871,5,5,22.8746,3.52055,-22.0674,0.181973,-0.0574815,-0.280848,1,0,27.1425,-0.63,0.1225,0.204106,-0.432856,-1.21158,-0.05852,0.29582,0.39242
-20.6223,0,0,35.6223,35.6223,5,5,22.9137,3.51868,-22.0666,0.182006,-0.0568529,-0.281111,1,0,25.48,-0.7875,0.3325,0.204106,-0.432856,-1.21158,-0.05852,0.29582,0.39242
-20.6577,0,0,35.6577,35.6577,5,5,22.953,3.5156,-22.0665,0.0309312,0.347774,-0.301539,1,0,25.6025,-1.5925,0.245,0.052338,-0.02928,-1.23159,-0.05852,0.29582,0.39242
-20.6976,0,0,35.6976,35.6976,5,5,22.9973,3.51389,-22.0654,0.030961,0.348485,-0.301838,1,0,28.3675,-0.63,0.455,0.052338,-0.02928,-1.23159,-0.05852,0.29582,0.39242
-20.739,0,0,35.739,35.739,5,5,23.0433,3.51231,-22.0647,-0.488484,-0.308428,-0.0711299,1,0,29.365,-0.665,0.1925,-0.469334,-0.68625,-1.00235,-0.05852,0.29582,0.39242
-20.7852,0,0,35.7852,35.7852,5,5,23.0947,3.51167,-22.0645,-0.488473,-0.307605,-0.0714798,1,0,32.3575,-0.245,-0.245,-0.469334,-0.68625,-1.00235,-0.05852,0.29582,0.39242
-20.8749,0,0,35.8749,35.8749,5,5,23.1943,3.4894,-22.1494,-0.0029929,-0.0608913,-0.036977,0,0,31.885,-0.35,-0.63,0.017812,-0.441396,-0.96746,-0.05852,0.29582,0.39242
-20.9604,0,0,35.9604,35.9604,5,5,23.2893,3.46701,-22.243,-0.00260267,-0.0593621,-0.0376079,0,0,30.3275,-0.665,-0.0525,0.017812,-0.441396,-0.96746,-0.05796,0.3024,0.39368
-20.9013,0,0,35.9013,35.9013,5,5,23.2237,3.92416,-22.6049,0.256218,0.0930201,0.114212,0,0,28.455,-1.0325,4.27,0.285724,-0.28792,-0.81679,-0.05796,0.3024,0.39368
-20.8472,0,0,35.8472,35.8472,5,5,23.1636,4.37061,-22.9696,0.248446,0.091837,0.114106,0,0,30.8,-1.645,0.5075,0.285724,-0.28792,-0.81679,-0.05796,0.3024,0.39368
-20.8933,0,0,35.8933,35.8933,5,5,23.2148,4.36825,-22.9682,-0.35554,0.0959551,0.407482,1,0,32.235,-0.9275,0.735,-0.32086,-0.284626,-0.525332,-0.05796,0.3024,0.39368
-20.9451,0,0,35.9451,35.9451,5,5,23.2723,4.36587,-22.9663,-0.355498,0.0968759,0.40709,1,0,35.735,-0.7875,1.0675,-0.32086,-0.284626,-0.525332,-0.05796,0.3024,0.39368
-21.0007,0,0,36.0007,36.0007,5,5,23.3342,4.36471,-22.9649,-0.385728,-0.170325,0.324905,1,0,38.185,-0.28,0.455,-0.351238,-0.552538,-0.606462,-0.05796,0.3024,0.39368
-21.057,0,0,36.057,36.057,5,5,23.3967,4.36253,-22.9627,-0.38569,-0.169325,0.324476,1,0,38.5525,-0.6125,1.1725,-0.351238,-0.552538,-0.606462,-0.05796,0.3024,0.39368
-21.1024,0,0,36.1024,36.1024,5,5,23.4471,4.50728,-23.1519,0.0806044,0.0322999,0.0902232,0,0,37.3625,0.14,1.715,0.11956,-0.351848,-0.838384,-0.05796,0.3024,0.39368
-21.1468,0,0,36.1468,36.1468,5,5,23.4964,4.64916,-23.33,0.0781361,0.0330091,0.0896997,0,0,37.3625,0.14,1.715,0.11956,-0.351848,-0.838384,-0.06146,0.29638,0.3836
-21.2011,0,0,36.2011,36.2011,5,5,23.5568,4.64645,-23.3273,0.0107586,0.0404455,0.170676,1,0,37.275,-0.7875,1.54,0.05185,-0.345382,-0.75762,-0.06146,0.29638,0.3836
-21.2554,0,0,36.2554,36.2554,5,5,23.6171,4.64374,-23.3247,0.0108057,0.0414088,0.17026,1,0,37.275,-0.7875,1.54,0.05185,-0.345382,-0.75762,-0.06146,0.29638,0.3836
-21.3109,0,0,36.3109,36.3109,5,5,23.6788,4.64216,-23.3251,-0.619677,-0.0738723,-0.0306974,1,0,38.1675,-0.9275,-0.42,-0.58133,-0.461526,-0.956602,-0.06146,0.29638,0.3836
-21.3664,0,0,36.3664,36.3664,5,5,23.7404,4.64058,-23.3256,-0.61965,-0.0728893,-0.0311267,1,0,38.1675,-0.9275,-0.42,-0.58133,-0.461526,-0.956602,-0.06146,0.29638,0.3836
-21.4289,0,0,36.4289,36.4289,5,5,23.8098,4.63671,-23.3238,0.0498035,-0.117213,-0.207671,1,0,42.42,-1.61,1.3475,0.09089,-0.50691,-1.13131,-0.06146,0.29638,0.3836
-21.403,0,0,36.403,36.403,5,5,23.7811,4.74665,-23.5076,0.0475267,0.0963549,0.0577099,0,0,41.8425,-2.59,1.5925,0.090524,-0.293044,-0.86803,-0.06146,0.29638,0.3836
-21.3786,0,0,36.3786,36.3786,5,5,23.7541,4.85635,-23.6888,0.0456187,0.0958593,0.0577531,0,0,42.28,-0.8925,1.3475,0.090524,-0.293044,-0.86803,-0.06146,0.29638,0.3836
-21.4398,0,0,36.4398,36.4398,5,5,23.8221,4.8525,-23.6878,0.107522,0.0945012,-0.152961,1,0,41.65,-1.785,0.9275,0.152622,-0.295484,-1.07665,-0.0602,0.28896,0.38472
-21.5037,0,0,36.5037,36.5037,5,5,23.893,4.848,-23.6871,0.1076,0.0956321,-0.153454,1,0,43.3125,-2.205,0.91,0.152622,-0.295484,-1.07665,-0.0602,0.28896,0.38472
-21.449,0,0,36.449,36.449,5,5,23.8323,5.18887,-23.9793,0.200928,0.0899374,0.017519,0,0,45.22,-0.945,1.89,0.252296,-0.299998,-0.906948,-0.0602,0.28896,0.38472
-21.523,0,0,36.523,36.523,5,5,23.9144,5.18646,-23.9746,-0.245369,-0.171328,0.324562,1,0,49.385,-0.14,2.5375,-0.195932,-0.562298,-0.601704,-0.0602,0.28896,0.38472
-21.5944,0,0,36.5944,36.5944,5,5,23.9937,5.18368,-23.9713,-0.245321,-0.170066,0.324006,1,0,47.88,-0.665,1.89,-0.195932,-0.562298,-0.601704,-0.0602,0.28896,0.38472
-21.666,0,0,36.666,36.666,5,5,24.0733,5.18099,-23.9693,0.422168,0.159965,0.364511,1,0,48.1075,-0.9275,1.1725,0.474336,-0.233874,-0.560956,-0.0602,0.28896,0.38472
-21.7341,0,0,36.7341,36.7341,5,5,24.149,5.17732,-23.9702,0.422232,0.161168,0.363979,1,0,46.06,-2.1525,-0.1575,0.474336,-0.233874,-0.560956,-0.0602,0.28896,0.38472
-21.8037,0,0,36.8037,36.8037,5,5,24.2263,5.17414,-23.9716,-0.862788,-0.422347,0.292,1,0,46.9875,-1.995,-0.5075,-0.81618,-0.81801,-0.631838,-0.0602,0.28896,0.38472
-21.879,0,0,36.879,36.879,5,5,24.31,5.16821,-23.9737,-0.862685,-0.421017,0.29141,1,0,50.61,-3.6225,-0.1925,-0.81618,-0.81801,-0.631838,-0.05432,0.28308,0.39214
-21.9552,0,0,36.9552,36.9552,5,5,24.3947,5.16333,-23.9738,-0.0362546,-0.497835,0.124461,1,0,51.03,-2.59,0.595,0.013664,-0.89609,-0.796904,-0.05432,0.28308,0.39214
-22.0339,0,0,37.0339,37.0339,5,5,24.4821,5.16075,-23.9723,-0.0362098,-0.49645,0.123836,1,0,52.5,-0.98,0.875,0.013664,-0.89609,-0.796904,-0.05432,0.28308,0.39214
-21.8969,0,0,36.8969,36.8969,5,5,24.3299,5.60219,-24.3343,0.265058,0.159962,-0.033472,0,0,52.6575,-0.63,0.7875,0.32391,-0.237656,-0.95343,-0.05432,0.28308,0.39214
-21.7632,0,0,36.7632,36.7632,5,5,24.1813,6.0275,-24.6951,0.257673,0.1573,-0.0330975,0,0,52.92,-3.045,1.3475,0.32391,-0.237656,-0.95343,-0.05432,0.28308,0.39214
-21.8446,0,0,36.8446,36.8446,5,5,24.2718,6.02124,-24.6939,0.566598,-0.0295824,-0.0200842,1,0,54.2325,-3.01,1.6275,0.634034,-0.42578,-0.939888,-0.05432,0.28308,0.39214
-21.9284,0,0,36.9284,36.9284,5,5,24.3649,6.01467,-24.6912,0.566712,-0.0281044,-0.0207389,1,0,55.6325,-2.835,2.45,0.634034,-0.42578,-0.939888,-0.05432,0.28308,0.39214
-22.002,0,0,37.002,37.002,5,5,24.4467,6.74241,-25.128,0.425922,0.0438043,0.258204,0,0,61.1625,-1.4175,2.7825,0.505324,-0.354654,-0.66124,-0.05432,0.28308,0.39214
-22.0756,0,0,37.0756,37.0756,5,5,24.5284,7.45624,-25.5572,0.413559,0.0444539,0.256217,0,0,61.3025,0.4375,2.2575,0.505324,-0.354654,-0.66124,-0.05432,0.28308,0.39214
-22.1686,0,0,37.1686,37.1686,5,5,24.6318,7.45459,-25.5541,-0.0376104,0.185062,-0.368734,1,0,61.3025,-0.105,1.47,0.052216,-0.215818,-1.28063,-0.05418,0.28392,0.3878
-22.2582,0,0,37.2582,37.2582,5,5,24.7313,7.44865,-25.555,-0.544224,0.110793,-0.208132,1,0,59.4475,-3.325,0.49,-0.456646,-0.29158,-1.12057,-0.05418,0.28392,0.3878
-22.3498,0,0,37.3498,37.3498,5,5,24.8332,7.44194,-25.5564,-0.544108,0.112399,-0.208857,1,0,60.7775,-3.885,0.35,-0.456646,-0.29158,-1.12057,-0.05418,0.28392,0.3878
-22.439,0,0,37.439,37.439,5,5,24.9322,7.43419,-25.5573,-0.84295,-0.193187,0.177725,1,0,59.1675,-4.305,0.8925,-0.756888,-0.59841,-0.73627,-0.05418,0.28392,0.3878
-22.5413,0,0,37.5413,37.5413,5,5,25.0459,7.42841,-25.5562,-0.84285,-0.191398,0.176905,1,0,67.2525,-2.7475,1.505,-0.756888,-0.59841,-0.73627,-0.05418,0.28392,0.3878
-23.1427,0,0,38.1427,38.1427,5,5,25.7142,7.5366,-25.5206,0.173085,-0.411143,0.326396,0,0,68.04,-1.3125,1.6275,0.265228,-0.828258,-0.582794,-0.05418,0.28392,0.3878
-23.726,0,0,38.726,38.726,5,5,26.3623,7.6468,-25.4852,0.171178,-0.40118,0.321246,0,0,63.28,-0.5425,1.4875,0.265228,-0.828258,-0.582794,-0.05418,0.28392,0.3878
-23.8252,0,0,38.8252,38.8252,5,5,26.4725,7.64092,-25.4843,0.330912,-0.363927,-0.57527,1,0,65.2925,-2.8175,1.4525,0.425536,-0.792756,-1.47156,-0.05824,0.27622,0.39102
-23.931,0,0,38.931,38.931,5,5,26.59,7.63284,-25.4817,0.331052,-0.362101,-0.576161,1,0,69.2475,-3.5175,2.94,0.425536,-0.792756,-1.47156,-0.05824,0.27622,0.39102
-24.0321,0,0,39.0321,39.0321,5,5,26.7023,7.62325,-25.477,0.310687,-0.0480752,0.361207,1,0,66.22,-3.745,4.445,0.404918,-0.480802,-0.540582,-0.05824,0.27622,0.39102
-24.1535,0,0,39.1535,39.1535,5,5,26.8372,7.62155,-25.4732,0.310716,-0.0459901,0.36016,1,0,78.925,0.1225,1.8375,0.404918,-0.480802,-0.540582,-0.05824,0.27622,0.39102
-24.0896,0,0,39.0896,39.0896,5,5,26.7663,7.72956,-25.6511,0.0372058,0.148692,-0.0692168,0,0,77.805,0.42,1.505,0.132126,-0.285114,-0.966972,-0.05824,0.27622,0.39102
-24.018,0,0,39.018,39.018,5,5,26.6867,7.83075,-25.8306,0.0354558,0.147356,-0.0688115,0,0,72.31,-2.2575,0.91,0.132126,-0.285114,-0.966972,-0.05824,0.27622,0.39102
-24.1282,0,0,39.1282,39.1282,5,5,26.8091,7.82531,-25.8307,-0.750584,-0.718336,-0.141801,1,0,72.2225,-2.835,0.8575,-0.657336,-1.1518,-1.03846,-0.05824,0.27622,0.39102
-24.2439,0,0,39.2439,39.2439,5,5,26.9377,7.8167,-25.8324,-0.750435,-0.716345,-0.142787,1,0,75.7575,-4.9,0.875,-0.657336,-1.1518,-1.03846,-0.05824,0.27622,0.39102
-24.3553,0,0,39.3553,39.3553,5,5,27.0615,7.80446,-25.8325,-0.136964,0.711161,0.286464,1,0,72.9925,-6.3875,2.6425,-0.04148,0.272304,-0.611586,-0.05824,0.27622,0.39102
-24.4782,0,0,39.4782,39.4782,5,5,27.198,7.80257,-25.8301,-0.136931,0.713264,0.285392,1,0,79.9225,-0.315,1.2075,-0.04148,0.272304,-0.611586,-0.05558,0.27244,0.39466
-24.6039,0,0,39.6039,39.6039,5,5,27.3377,7.79854,-25.8292,-0.505327,-0.066928,0.986083,1,0,81.8475,-1.82,1.015,-0.411506,-0.509228,0.08479,-0.05558,0.27244,0.39466
-24.7229,0,0,39.7229,39.7229,5,5,27.4699,7.79424,-25.8276,-0.505253,-0.0648931,0.98504,1,0,77.595,-1.7675,1.4525,-0.411506,-0.509228,0.08479,-0.05558,0.27244,0.39466
-24.8509,0,0,39.8509,39.8509,5,5,27.6121,7.7833,-25.8235,0.534611,-0.16077,-0.878252,1,0,82.95,-4.5325,4.55,0.63257,-0.607194,-1.76302,-0.05558,0.27244,0.39466
-24.9808,0,0,39.9808,39.9808,5,5,27.7565,7.77415,-25.8163,0.534769,-0.158548,-0.879393,1,0,83.9825,-2.7825,5.6175,0.63257,-0.607194,-1.76302,-0.05558,0.27244,0.39466
-25.1181,0,0,40.1181,40.1181,5,5,27.909,7.76748,-25.8176,1.37119,-0.664989,-0.300908,1,0,89.18,-3.745,0.665,1.47242,-1.11545,-1.18779,-0.05558,0.27244,0.39466
-25.2608,0,0,40.2608,40.2608,5,5,28.0676,7.7672,-25.8145,1.3712,-0.662567,-0.302194,1,0,92.2425,0.735,1.1375,1.47242,-1.11545,-1.18779,-0.05558,0.27244,0.39466
-25.3928,0,0,40.3928,40.3928,5,5,28.2142,7.76118,-25.8139,1.52923,0.770146,-0.497636,1,0,85.7325,-2.9225,1.4,1.63102,0.31354,-1.38055,-0.05558,0.27244,0.39466
-25.5292,0,0,40.5292,40.5292,5,5,28.3657,7.75316,-25.8125,1.52937,0.772463,-0.498862,1,0,88.445,-3.71,2.415,1.63102,0.31354,-1.38055,-0.05684,0.2751,0.40908
-25.676,0,0,40.676,40.676,5,5,28.5289,7.74265,-25.8121,0.590833,0.917966,-0.42076,1,0,95.025,-5.2675,2.59,0.688324,0.456402,-1.30174,-0.05684,0.2751,0.40908
-25.8163,0,0,40.8163,40.8163,5,5,28.6848,7.7286,-25.8107,0.591076,0.920349,-0.422021,1,0,90.86,-6.79,4.13,0.688324,0.456402,-1.30174,-0.05684,0.2751,0.40908
-25.9651,0,0,40.9651,40.9651,5,5,28.8501,7.72077,-25.8088,-0.446763,-0.978284,-0.653049,1,0,96.0925,-3.465,2.6075,-0.354044,-1.44277,-1.52964,-0.05684,0.2751,0.40908
-26.1118,0,0,41.1118,41.1118,5,5,29.0131,7.71098,-25.8097,-0.446593,-0.975805,-0.654392,1,0,95.025,-5.215,1.82,-0.354044,-1.44277,-1.52964,-0.05684,0.2751,0.40908
-26.2515,0,0,41.2515,41.2515,5,5,29.1683,7.70274,-25.8084,0.379773,0.540678,-0.725516,1,0,90.5275,-3.815,2.4675,0.475678,0.069784,-1.59893,-0.05684,0.2751,0.40908
-26.4078,0,0,41.4078,41.4078,5,5,29.342,7.68961,-25.8054,0.38,0.543314,-0.726957,1,0,100.713,-5.845,4.69,0.475678,0.069784,-1.59893,-0.05684,0.2751,0.40908
-26.566,0,0,41.566,41.566,5,5,29.5178,7.67911,-25.7991,-0.0831645,0.727821,0.297452,1,0,101.658,-3.5,5.6875,0.01037,0.251442,-0.580964,-0.05684,0.2751,0.40908
-26.7305,0,0,41.7305,41.7305,5,5,29.7006,7.66717,-25.7952,-0.0829579,0.730583,0.295915,1,0,105.753,-4.935,4.865,0.01037,0.251442,-0.580964,-0.05012,0.26054,0.41034
-26.8984,0,0,41.8984,41.8984,5,5,29.8871,7.66436,-25.7914,0.00407453,0.987898,0.280055,1,0,107.853,-0.28,2.2225,0.097722,0.50569,-0.595116,-0.05012,0.26054,0.41034
-27.0542,0,0,42.0542,42.0542,5,5,30.0603,7.65343,-25.7931,0.00426346,0.990506,0.278581,1,0,100.818,-6.02,1.7675,0.097722,0.50569,-0.595116,-0.05012,0.26054,0.41034
-27.2156,0,0,42.2156,42.2156,5,5,30.2396,7.64675,-25.7922,-1.45649,-0.974022,-0.0936534,1,0,104.02,-3.08,1.89,-1.36933,-1.45949,-0.962946,-0.05012,0.26054,0.41034
-27.3938,0,0,42.3938,42.3938,5,5,30.4375,7.63828,-25.7909,-1.45634,-0.971056,-0.0953662,1,0,114.468,-3.85,2.6425,-1.36933,-1.45949,-0.962946,-0.05012,0.26054,0.41034
-27.5639,0,0,42.5639,42.5639,5,5,30.6265,7.62621,-25.7898,-0.27857,0.291633,0.40143,1,0,109.445,-5.7225,3.605,-0.186782,-0.200934,-0.468358,-0.05012,0.26054,0.41034
-27.7365,0,0,42.7365,42.7365,5,5,30.8184,7.62258,-25.79,-0.278507,0.294491,0.399742,1,0,111.16,-1.8725,0.42,-0.186782,-0.200934,-0.468358,-0.05012,0.26054,0.41034
-27.9095,0,0,42.9095,42.9095,5,5,31.0106,7.61416,-25.7937,0.638734,1.11267,-0.50894,1,0,111.598,-5.3025,0.1575,0.734196,0.613538,-1.36835,-0.05012,0.26054,0.41034
-28.0734,0,0,43.0734,43.0734,5,5,31.1926,7.60653,-25.7897,0.638866,1.11538,-0.510552,1,0,105.35,-2.5725,3.78,0.734196,0.613538,-1.36835,-0.05684,0.25704,0.42924
-28.2492,0,0,43.2492,43.2492,5,5,31.388,7.59464,-25.7846,-0.260287,-0.495137,-0.760394,1,0,112.735,-4.375,5.6,-0.16897,-0.998204,-1.61455,-0.05684,0.25704,0.42924
-28.4257,0,0,43.4257,43.4257,5,5,31.5841,7.58395,-25.7761,-0.260102,-0.49223,-0.762145,1,0,112.893,-2.73,6.9125,-0.16897,-0.998204,-1.61455,-0.05684,0.25704,0.42924
-28.6093,0,0,43.6093,43.6093,5,5,31.7882,7.57437,-25.7694,-0.27415,0.182482,0.50202,1,0,117.478,-2.6775,5.74,-0.183244,-0.327204,-0.358314,-0.05684,0.25704,0.42924
-28.8006,0,0,43.8006,43.8006,5,5,32.0007,7.5646,-25.7692,-0.273981,0.185616,0.500096,1,0,122.728,-4.7775,2.555,-0.183244,-0.327204,-0.358314,-0.05684,0.25704,0.42924
-28.9814,0,0,43.9814,43.9814,5,5,32.2016,7.55292,-25.7701,0.0484008,-0.0457864,-0.354499,1,0,116.27,-6.0375,2.6425,0.1403,-0.561322,-1.20451,-0.05684,0.25704,0.42924
-29.1778,0,0,44.1778,44.1778,5,5,32.4198,7.54322,-25.7674,0.0485686,-0.0425843,-0.356498,1,0,125.685,-3.92,3.8325,0.1403,-0.561322,-1.20451,-0.05684,0.25704,0.42924
-29.3839,0,0,44.3839,44.3839,5,5,32.6487,7.53419,-25.7643,-0.332497,1.44571,-0.124517,1,0,131.723,-3.4475,3.8325,-0.242536,0.922076,-0.972218,-0.05684,0.25704,0.42924
-29.5865,0,0,44.5865,44.5865,5,5,32.8739,7.52507,-25.7615,-0.332339,1.44899,-0.126608,1,0,129.588,-3.5875,3.6925,-0.242536,0.922076,-0.972218,-0.05684,0.25704,0.42924
-29.7942,0,0,44.7942,44.7942,5,5,33.1046,7.5143,-25.7606,-0.605253,0.0167556,0.587783,1,0,132.878,-4.9525,3.36,-0.516792,-0.512034,-0.261202,-0.0518,0.238,0.44156
-29.9821,0,0,44.9821,44.9821,5,5,33.3134,7.49936,-25.7622,-0.404178,0.0425127,0.153422,1,0,120.75,-7.7875,3.4825,-0.315126,-0.489342,-0.690276,-0.0518,0.238,0.44156
-30.1732,0,0,45.1732,45.1732,5,5,33.5257,7.48566,-25.7574,0.127801,-0.165683,-0.538931,1,0,122.273,-5.145,6.16,0.218868,-0.700402,-1.37531,-0.0518,0.238,0.44156
-30.3834,0,0,45.3834,45.3834,5,5,33.7593,7.47188,-25.7511,-0.902766,-0.732388,-0.897326,1,0,134.05,-4.655,6.965,-0.816302,-1.2699,-1.72874,-0.0518,0.238,0.44156
-30.5855,0,0,45.5855,45.5855,5,5,33.9839,7.46234,-25.7442,1.23494,0.438138,0.601604,1,0,128.993,-2.38,5.88,1.33029,-0.103822,-0.239242,-0.0518,0.238,0.44156
-30.8082,0,0,45.8082,45.8082,5,5,34.2314,7.45091,-25.7439,0.0455495,-0.67747,0.36845,1,0,142.31,-5.39,3.3775,0.135664,-1.22183,-0.468236,-0.0518,0.238,0.44156
-31.0285,0,0,46.0285,46.0285,5,5,34.4761,7.43311,-25.7468,0.459881,1.86873,-0.0673004,1,0,140.98,-9.52,3.955,0.55144,1.31821,-0.898286,-0.0518,0.238,0.44156
-31.2414,0,0,46.2414,46.2414,5,5,34.7126,7.41811,-25.7445,0.658891,0.299979,-0.0354172,1,0,136.028,-6.4575,5.5125,0.751032,-0.252296,-0.86437,-0.0518,0.238,0.44156
-31.4713,0,0,46.4713,46.4713,5,5,34.9681,7.40818,-25.7418,-1.20088,-1.21258,-0.679101,1,0,146.615,-3.815,4.095,-1.11679,-1.76693,-1.5006,-0.05096,0.23268,0.4487
-31.7054,0,0,46.7054,46.7054,5,5,35.2282,7.40014,-25.7392,-0.0624229,1.76929,-0.248527,1,0,149.205,-2.9575,3.395,0.026352,1.20817,-1.07079,-0.05096,0.23268,0.4487
-31.9484,0,0,46.9484,46.9484,5,5,35.4982,7.38801,-25.7416,-0.062213,1.77312,-0.25121,1,0,155.138,-6.5625,2.4325,0.026352,1.20817,-1.07079,-0.05096,0.23268,0.4487
-32.1825,0,0,47.1825,47.1825,5,5,35.7583,7.36954,-25.7464,1.2357,0.382849,-0.45027,1,0,149.73,-10.3775,3.5,1.32943,-0.184342,-1.26575,-0.05096,0.23268,0.4487
-32.4038,0,0,47.4038,47.4038,5,5,36.0042,7.35412,-25.7447,1.23596,0.386318,-0.452737,1,0,141.295,-6.685,5.565,1.32943,-0.184342,-1.26575,-0.05096,0.23268,0.4487
-32.6406,0,0,47.6406,47.6406,5,5,36.2674,7.34125,-25.742,-0.429141,-1.00015,1.20244,1,0,150.938,-5.145,5.145,-0.342942,-1.57307,0.379298,-0.05096,0.23268,0.4487
-32.8738,0,0,47.8738,47.8738,5,5,36.5265,7.33188,-25.7325,-0.428979,-0.996532,1.19979,1,0,148.173,-1.12,7.1225,-0.342942,-1.57307,0.379298,-0.05096,0.23268,0.4487
-33.1279,0,0,48.1279,48.1279,5,5,36.8087,7.32969,-25.7234,-1.31396,-2.24123,0.669799,1,0,161.158,2.17,4.4625,-1.23171,-2.8204,-0.143716,-0.05096,0.23268,0.4487
-33.3615,0,0,48.3615,48.3615,5,5,37.0684,7.31238,-25.7268,-1.31366,-2.23762,0.667128,1,0,149.398,-9.2575,3.9725,-1.23171,-2.8204,-0.143716,-0.04746,0.22428,0.45332
-33.8554,0,0,48.8554,48.8554,5,5,37.6172,5.6661,-25.0211,-1.07981,0.53308,0.711642,0,0,146.02,-8.6975,7.7525,-1.02553,-0.062098,-0.09638,-0.04746,0.22428,0.45332
-34.3814,0,0,49.3814,49.3814,5,5,38.2015,4.02044,-24.3189,-1.05119,0.542587,0.707312,0,0,169.558,-3.6925,4.1825,-1.02553,-0.062098,-0.09638,-0.04746,0.22428,0.45332
-34.6397,0,0,49.6397,49.6397,5,5,38.4886,4.01913,-24.316,-0.266002,2.60263,0.471963,1,0,164.395,0.525,1.3125,-0.237046,1.99189,-0.326838,-0.04746,0.22428,0.45332
-34.9003,0,0,49.9003,49.9003,5,5,38.7781,4.00755,-24.3112,-0.2658,2.60658,0.468826,1,0,165.725,-3.535,5.845,-0.237046,1.99189,-0.326838,-0.04746,0.22428,0.45332
-35.1903,0,0,50.1903,50.1903,5,5,39.1004,3.9788,-24.3175,0.647908,1.74692,-1.86504,1,0,184.503,-15.3825,7.1575,0.680028,1.12874,-2.63923,-0.04746,0.22428,0.45332
-35.4471,0,0,50.4471,50.4471,5,5,39.3857,3.96343,-24.3155,0.648176,1.75078,-1.86817,1,0,163.45,-6.195,6.055,0.680028,1.12874,-2.63923,-0.04746,0.22428,0.45332
-35.7134,0,0,50.7134,50.7134,5,5,39.6815,3.94522,-24.3124,0.814685,-1.84724,0.286932,1,0,169.313,-7.0175,7.6475,0.846924,-2.46952,-0.497516,-0.04746,0.22428,0.45332
-35.9883,0,0,50.9883,50.9883,5,5,39.9871,3.93249,-24.3022,0.814907,-1.84315,0.283536,1,0,174.475,-1.8725,8.785,0.846924,-2.46952,-0.497516,-0.05348,0.2051,0.46718
-37.2231,0,0,52.2231,52.2231,5,5,41.359,3.7385,-23.8761,-0.0843536,-0.296951,1.21902,0,0,180.303,-2.6075,5.985,-0.059536,-0.943182,0.446032,-0.05348,0.2051,0.46718
-38.4498,0,0,53.4498,53.4498,5,5,42.722,3.54625,-23.4623,-0.081005,-0.279176,1.20328,0,0,180.303,-2.6075,5.985,-0.059536,-0.943182,0.446032,-0.05348,0.2051,0.46718
-38.7146,0,0,53.7146,53.7146,5,5,43.0163,3.51932,-23.4649,0.00170984,0.952951,0.922812,1,0,168.613,-12.53,9.0825,0.023058,0.283894,0.171166,-0.05348,0.2051,0.46718
-38.9794,0,0,53.9794,53.9794,5,5,43.3105,3.49241,-23.4675,0.00217867,0.956709,0.919327,1,0,168.613,-12.53,9.0825,0.023058,0.283894,0.171166,-0.05348,0.2051,0.46718
-39.2785,0,0,54.2785,54.2785,5,5,43.6428,3.49073,-23.4693,-3.62195,1.89371,-1.17933,1,0,189.928,-1.365,-0.5775,-3.61645,1.21573,-1.90735,-0.05348,0.2051,0.46718
-39.5775,0,0,54.5775,54.5775,5,5,43.975,3.48906,-23.471,-3.62192,1.89789,-1.18333,1,0,189.928,-1.365,-0.5775,-3.61645,1.21573,-1.90735,-0.05348,0.2051,0.46718
-39.8847,0,0,54.8847,54.8847,5,5,44.3163,3.45486,-23.4799,-0.241475,-0.0818859,-0.57369,1,0,195.23,-17.955,9.66,-0.222284,-0.766282,-1.29832,-0.05348,0.2051,0.46718
-40.1919,0,0,55.1919,55.1919,5,5,44.6576,3.42072,-23.4889,-0.24088,-0.0776189,-0.577832,1,0,195.23,-17.955,9.66,-0.222284,-0.766282,-1.29832,-0.05642,0.1813,0.47712
-40.5083,0,0,55.5083,55.5083,5,5,45.0092,3.40512,-23.4814,1.28173,-2.6814,3.33795,1,0,200.41,-3.3425,8.995,1.3065,-3.37171,2.59152,-0.05642,0.1813,0.47712
-40.8246,0,0,55.8246,55.8246,5,5,45.3607,3.38948,-23.474,1.282,-2.67707,3.33362,1,0,200.41,-3.3425,8.995,1.3065,-3.37171,2.59152,-0.05642,0.1813,0.47712
-41.1252,0,0,56.1252,56.1252,5,5,45.6946,3.37065,-23.4805,0.256869,-3.29913,0.806946,1,0,191.013,-10.395,4.6725,0.276696,-3.99721,0.08845,-0.05642,0.1813,0.47712
-41.4371,0,0,56.4371,56.4371,5,5,46.0412,3.34461,-23.4953,0.84094,4.35939,0.201043,1,0,198.363,-16.8,4.375,0.862784,3.64914,-0.508496,-0.05642,0.1813,0.47712
-41.7564,0,0,56.7564,56.7564,5,5,46.396,3.30778,-23.5024,0.841581,4.36369,0.196606,1,0,202.703,-17.9025,12.11,0.862784,3.64914,-0.508496,-0.05642,0.1813,0.47712
-42.1054,0,0,57.1054,57.1054,5,5,46.7838,3.28428,-23.5004,-1.37877,-2.9496,-0.829251,1,0,220.955,-8.5575,10.255,-1.36738,-3.66122,-1.52158,-0.05642,0.1813,0.47712
-42.4237,0,0,57.4237,57.4237,5,5,47.1375,3.30124,-23.4889,-1.37906,-2.94541,-0.833766,1,0,201.478,11.7425,-3.185,-1.36738,-3.66122,-1.52158,-0.05642,0.1813,0.47712
-42.7559,0,0,57.7559,57.7559,5,5,47.5066,3.28913,-23.4862,-0.127307,-1.42276,-1.31479,1,0,210.42,-3.605,5.74,-0.110532,-2.14452,-1.99421,-0.05194,0.16646,0.4837
-43.1036,0,0,58.1036,58.1036,5,5,47.8929,3.25945,-23.4959,0.689716,2.90508,0.347065,1,0,220.5,-15.89,8.4525,0.70943,2.17428,-0.340258,-0.05194,0.16646,0.4837
-43.4297,0,0,58.4297,58.4297,5,5,48.2552,3.23821,-23.4879,0.690086,2.90931,0.342381,1,0,206.448,-4.795,11.8125,0.70943,2.17428,-0.340258,-0.05194,0.16646,0.4837
-43.7742,0,0,58.7742,58.7742,5,5,48.638,3.22362,-23.473,-0.958585,3.58227,-3.34798,1,0,217.683,0.91,11.62,-0.946476,2.84211,-3.99721,-0.05194,0.16646,0.4837
-44.1065,0,0,59.1065,59.1065,5,5,49.0072,3.21083,-23.467,-0.958362,3.58651,-3.35282,1,0,210.385,-2.24,7.4025,-0.946476,2.84211,-3.99721,-0.05194,0.16646,0.4837
-44.4624,0,0,59.4624,59.4624,5,5,49.4027,3.1852,-23.4753,0.503314,-2.39293,0.817437,1,0,225.558,-13.475,7.6125,0.52094,-3.13564,0.146034,-0.05194,0.16646,0.4837
-44.779,0,0,59.779,59.779,5,5,49.7544,3.1506,-23.4879,0.503917,-2.38893,0.812793,1,0,201.163,-18.725,10.08,0.52094,-3.13564,0.146034,-0.05194,0.16646,0.4837
-45.1233,0,0,60.1233,60.1233,5,5,50.1371,3.11843,-23.4883,-1.2782,-2.17468,3.66196,1,0,218.12,-12.2325,13.72,-1.26929,-2.92593,2.97826,-0.05194,0.16646,0.4837
-45.4983,0,0,60.4983,60.4983,5,5,50.5537,3.10652,-23.4855,-1.278,-2.17004,3.65637,1,0,237.073,-3.185,5.845,-1.26929,-2.92593,2.97826,-0.04942,0.14518,0.49658
-45.8366,0,0,60.8366,60.8366,5,5,50.9296,3.11304,-23.4799,1.04822,-0.709169,3.65314,1,0,214.165,5.005,-1.4,1.06689,-1.47071,2.98009,-0.04942,0.14518,0.49658
-46.2312,0,0,61.2312,61.2312,5,5,51.368,3.06562,-23.5032,1.04905,-0.704341,3.64722,1,0,250.075,-28.0175,12.495,1.06689,-1.47071,2.98009,-0.04942,0.14518,0.49658
-46.5958,0,0,61.5958,61.5958,5,5,51.7731,3.02957,-23.5153,1.25535,0.688899,-2.77952,1,0,231.053,-18.6375,11.5675,1.27344,-0.083326,-3.3916,-0.04942,0.14518,0.49658
-47.0042,0,0,62.0042,62.0042,5,5,52.2268,3.0071,-23.5163,1.25574,0.693783,-2.78574,1,0,257.985,-8.5225,9.45,1.27344,-0.083326,-3.3916,-0.04942,0.14518,0.49658
-47.3961,0,0,62.3961,62.3961,5,5,52.6624,2.99792,-23.5038,0.634138,4.6436,-3.40207,1,0,247.38,2.5725,8.1725,0.64904,3.85776,-3.99721,-0.04942,0.14518,0.49658
-47.7713,0,0,62.7713,62.7713,5,5,53.0793,2.9785,-23.5068,0.634477,4.648,-3.40785,1,0,237.405,-8.2075,7.4725,0.64904,3.85776,-3.99721,-0.04942,0.14518,0.49658
-48.1711,0,0,63.1711,63.1711,5,5,53.5235,2.94095,-23.5285,1.49646,-1.06227,-2.17509,1,0,253.243,-23.3275,9.45,1.51402,-1.85123,-2.76781,-0.04942,0.14518,0.49658
-48.5389,0,0,63.5389,63.5389,5,5,53.9322,2.90189,-23.5453,1.49715,-1.05802,-2.18081,1,0,233.188,-21.4025,12.075,1.51402,-1.85123,-2.76781,-0.03808,0.1134,0.50246
-48.9361,0,0,63.9361,63.9361,5,5,54.3734,2.8707,-23.558,-3.86505,-2.32948,4.42797,1,0,251.318,-16.695,9.8875,-3.87143,-3.12588,3.79615,-0.03808,0.1134,0.50246
-49.3319,0,0,64.3319,64.3319,5,5,54.8132,2.87891,-23.5536,-3.8652,-2.32504,4.42172,1,0,250.005,4.935,-2.94,-3.87143,-3.12588,3.79615,-0.03808,0.1134,0.50246
-49.7111,0,0,64.7111,64.7111,5,5,55.2345,2.87033,-23.5402,2.77317,-1.0584,0.293855,1,0,239.435,3.57,8.05,2.7949,-1.86477,-0.293898,-0.03808,0.1134,0.50246
-50.1478,0,0,65.1478,65.1478,5,5,55.7198,2.82927,-23.5641,2.77389,-1.05358,0.286906,1,0,276.29,-25.1125,11.3225,2.7949,-1.86477,-0.293898,-0.03808,0.1134,0.50246
-50.549,0,0,65.549,65.549,5,5,56.1655,2.78761,-23.5863,-1.89335,-1.52671,-1.07686,1,0,254.083,-24.4125,12.355,-1.89283,-2.34179,-1.64078,-0.03808,0.1134,0.50246
-51.0001,0,0,66.0001,66.0001,5,5,56.6668,2.76164,-23.5877,-1.8929,-1.52186,-1.08413,1,0,284.673,-9.0475,11.655,-1.89283,-2.34179,-1.64078,-0.03808,0.1134,0.50246
-51.429,0,0,66.429,66.429,5,5,57.1433,2.75962,-23.5778,0.234231,4.82826,-3.29592,1,0,270.445,4.235,3.605,0.243268,3.99721,-3.8286,-0.03808,0.1134,0.50246
-51.8616,0,0,66.8616,66.8616,5,5,57.624,2.74076,-23.5838,0.23456,4.83279,-3.30297,1,0,273.245,-8.8375,6.8775,0.243268,3.99721,-3.8286,-0.03808,0.1134,0.50246
-52.3183,0,0,67.3183,67.3183,5,5,58.1314,2.71777,-23.6016,0.454242,-1.34345,-3.48037,1,0,288.523,-15.9425,5.32,0.463478,-2.17733,-3.99721,-0.03906,0.08596,0.51184
-52.7311,0,0,67.7311,67.7311,5,5,58.5901,2.67037,-23.6122,-1.97234,0.321704,1.1887,1,0,261.013,-19.8275,19.775,-1.9742,-0.518134,0.642574,-0.03906,0.08596,0.51184
-53.1439,0,0,68.1439,68.1439,5,5,59.0488,2.62305,-23.6232,-1.97151,0.325877,1.18187,1,0,261.013,-19.8275,19.775,-1.9742,-0.518134,0.642574,-0.03906,0.08596,0.51184
-53.5658,0,0,68.5658,68.5658,5,5,59.5175,2.62229,-23.6089,2.74773,4.03855,1.06026,1,0,266.018,7.035,4.13,2.76501,3.18652,0.52887,-0.03906,0.08596,0.51184
-53.9877,0,0,68.9877,68.9877,5,5,59.9863,2.62141,-23.5945,2.74775,4.04267,1.0532,1,0,266.018,7.035,4.13,2.76501,3.18652,0.52887,-0.03906,0.08596,0.51184
-54.4392,0,0,69.4392,69.4392,5,5,60.488,2.58645,-23.6045,-1.59925,4.85857,-2.24128,1,0,285.11,-15.19,14.2975,-1.60101,3.99721,-2.73268,-0.03906,0.08596,0.51184
-54.8907,0,0,69.8907,69.8907,5,5,60.9897,2.55159,-23.6147,-1.59864,4.86287,-2.2489,1,0,285.11,-15.19,14.2975,-1.60101,3.99721,-2.73268,-0.03906,0.08596,0.51184
-55.388,0,0,70.388,70.388,5,5,61.5422,2.55498,-23.5934,-2.055,4.50576,-3.53171,1,0,312.813,11.935,3.71,-2.05924,3.63584,-3.99721,-0.04942,0.06538,0.52388
-55.8141,0,0,70.8141,70.8141,5,5,62.0156,2.51256,-23.6272,-1.25489,-3.13129,-0.814309,1,0,269.833,-29.1375,11.97,-1.25648,-3.99721,-1.29357,-0.04942,0.06538,0.52388
-56.3121,0,0,71.3121,71.3121,5,5,62.569,2.47965,-23.662,3.10545,-0.3484,-3.52992,1,0,314.65,-26.95,7.0525,3.12174,-1.22171,-3.97976,-0.04942,0.06538,0.52388
-56.7822,0,0,71.7822,71.7822,5,5,63.0913,2.44521,-23.6731,3.10605,-0.344218,-3.53801,1,0,296.695,-14.945,14.4025,3.12174,-1.22171,-3.97976,-0.04942,0.06538,0.52388
-57.2848,0,0,72.2848,72.2848,5,5,63.6498,2.40895,-23.6674,1.39932,-2.96665,-0.815403,1,0,316.558,-6.4925,19.88,1.40715,-3.84581,-1.26953,-0.04942,0.06538,0.52388
-57.7574,0,0,72.7574,72.7574,5,5,64.1749,2.41717,-23.6576,1.39918,-2.96263,-0.823629,1,0,297.728,7.2975,-2.3275,1.40715,-3.84581,-1.26953,-0.04942,0.06538,0.52388
-58.2538,0,0,73.2538,73.2538,5,5,64.7264,2.40457,-23.6736,0.0992549,1.08441,2.60571,1,0,313.18,-11.6025,2.0825,0.101504,0.192882,2.14195,-0.04942,0.06538,0.52388
-58.7634,0,0,73.7634,73.7634,5,5,65.2927,2.34826,-23.7156,0.100237,1.08862,2.59677,1,0,322.018,-36.1725,18.9175,0.101504,0.192882,2.14195,-0.04942,0.06538,0.52388
-59.2611,0,0,74.2611,74.2611,5,5,65.8457,2.29903,-23.7387,-3.37145,2.15856,4.45768,1,0,314.16,-24.2025,20.055,-3.38574,1.2577,3.99721,-0.04578,0.01932,0.53634
-59.7868,0,0,74.7868,74.7868,5,5,66.4298,2.30108,-23.7481,0.46333,4.90503,-3.6082,1,0,331.24,-4.4975,-3.8325,0.465308,3.99721,-3.99721,-0.04578,0.01932,0.53634
-60.2884,0,0,75.2884,75.2884,5,5,66.9871,2.28944,-23.7541,0.463533,4.90888,-3.61712,1,0,316.173,-5.8975,4.3225,0.465308,3.99721,-3.99721,-0.04578,0.01932,0.53634
-60.8265,0,0,75.8265,75.8265,5,5,67.585,2.25046,-23.7841,0.856733,-1.933,-0.0950355,1,0,339.43,-24.9725,13.7025,0.85949,-2.84162,-0.492758,-0.04578,0.01932,0.53634
-61.3389,0,0,76.3389,76.3389,5,5,68.1543,2.20331,-23.8135,0.857555,-1.92923,-0.104221,1,0,323.418,-26.3375,18.4975,0.85949,-2.84162,-0.492758,-0.04578,0.01932,0.53634
-61.8548,0,0,76.8548,76.8548,5,5,68.7275,2.16083,-23.8297,-3.27853,-3.08232,4.41136,1,0,325.29,-17.92,19.0575,-3.29485,-3.99721,3.99721,-0.04578,0.01932,0.53634
-62.3897,0,0,77.3897,77.3897,5,5,69.3219,2.16779,-23.8279,-3.27866,-3.07861,4.40168,1,0,336.805,2.5025,-3.9375,-3.29485,-3.99721,3.99721,-0.04578,0.01932,0.53634
-62.9132,0,0,77.9132,77.9132,5,5,69.9036,2.14868,-23.8239,-1.92704,-0.711788,1.13232,1,0,329.578,-1.6975,10.7275,-1.93785,-1.63639,0.7625,-0.04578,0.01932,0.53634
-63.4831,0,0,78.4831,78.4831,5,5,70.5368,2.10732,-23.8527,-1.92632,-0.708026,1.12194,1,0,359.188,-24.0275,16.5025,-1.93785,-1.63639,0.7625,-0.0434,-0.01162,0.53564
-64.0333,0,0,79.0333,79.0333,5,5,71.1481,2.06794,-23.8644,-0.286787,2.99179,-3.60922,1,0,346.57,-13.9825,18.9525,-0.292068,2.05607,-3.92218,-0.0434,-0.01162,0.53564
-64.5963,0,0,79.5963,79.5963,5,5,71.7737,2.02829,-23.8692,3.68151,-2.74541,-2.48216,1,0,354.375,-9.9925,20.5275,3.69233,-3.67867,-2.79356,-0.0434,-0.01162,0.53564
-65.1136,0,0,80.1136,80.1136,5,5,72.3484,2.01994,-23.8445,3.68165,-2.74232,-2.4917,1,0,325.343,12.285,8.54,3.69233,-3.67867,-2.79356,-0.0434,-0.01162,0.53564
-65.6894,0,0,80.6894,80.6894,5,5,72.9882,1.99338,-23.8539,3.94064,-0.704104,2.56104,1,0,362.425,-9.8525,12.635,3.95195,-1.6459,2.23077,-0.0434,-0.01162,0.53564
-66.2272,0,0,81.2272,81.2272,5,5,73.5857,1.95607,-23.8777,3.94129,-0.701085,2.55106,1,0,339.063,-19.635,16.3275,3.95195,-1.6459,2.23077,-0.0434,-0.01162,0.53564
-66.7535,0,0,81.7535,81.7535,5,5,74.1706,1.91588,-23.9031,1.14697,4.19991,1.28092,1,0,331.958,-20.79,17.885,1.14509,3.24715,0.980148,-0.0434,-0.01162,0.53564
-67.3141,0,0,82.3141,82.3141,5,5,74.7934,1.90886,-23.8757,1.14709,4.20282,1.27046,1,0,352.258,14.4025,7.7,1.14509,3.24715,0.980148,-0.0434,-0.01162,0.53564
-67.8541,0,0,82.8541,82.8541,5,5,75.3935,1.9325,-23.8489,-0.405424,-2.79859,1.81471,1,1,339.483,18.7775,-9.835,-0.41358,-3.74967,1.53025,-0.0497,-0.04676,0.54222
-68.4241,0,0,83.4241,83.4241,5,5,76.0268,1.92023,-23.8964,1.11105,-2.24214,-0.496233,1,1,359.52,-28.6825,-0.42,1.1091,-3.19652,-0.752252,-0.0497,-0.04676,0.54222
-68.9365,0,0,83.9365,83.9365,5,5,76.5961,1.8757,-23.9326,1.11183,-2.23976,-0.505876,1,1,323.453,-26.7225,19.7225,1.1091,-3.19652,-0.752252,-0.0497,-0.04676,0.54222
-69.4833,0,0,84.4833,84.4833,5,5,77.2037,1.82989,-23.9485,-3.84217,-3.03885,4.20097,1,1,344.488,-15.1025,23.415,-3.86667,-3.99721,3.92852,-0.0497,-0.04676,0.54222
-70.0128,0,0,85.0128,85.0128,5,5,77.792,1.86171,-23.8977,-3.84272,-3.03665,4.19095,1,1,332.518,33.075,-12.25,-3.86667,-3.99721,3.92852,-0.0497,-0.04676,0.54222
-70.5361,0,0,85.5361,85.5361,5,5,78.3735,1.87289,-23.8624,0.00137752,-1.11644,3.39096,1,1,328.93,21.63,-2.66,-0.0061,-2.08108,3.14455,-0.0497,-0.04676,0.54222
-71.0901,0,0,86.0901,86.0901,5,5,78.989,1.86712,-23.8934,0.00147829,-1.11433,3.38043,1,1,349.23,-18.4275,-0.77,-0.0061,-2.08108,3.14455,-0.0497,-0.04676,0.54222
-71.5918,0,0,86.5918,86.5918,5,5,79.5464,1.84645,-23.9371,-0.109321,1.50394,3.36178,1,1,316.89,-27.3525,6.58,-0.11773,0.532652,3.13552,-0.0497,-0.04676,0.54222
-72.1079,0,0,87.1079,87.1079,5,5,80.1199,1.82821,-23.9537,-0.109002,1.50572,3.35193,1,1,325.395,-11.41,8.2425,-0.11773,0.532652,3.13552,-0.03626,-0.0917,0.5425
-72.5898,0,0,87.5898,87.5898,5,5,80.6554,1.8542,-23.9263,2.76587,4.97542,-3.68711,1,1,303.293,18.4275,-12.81,2.76977,3.99721,-3.84007,-0.03626,-0.0917,0.5425
-73.0524,0,0,88.0524,88.0524,5,5,81.1694,1.86536,-23.9376,2.76567,4.97683,-3.69596,1,1,291.953,-5.4775,-7.9975,2.76977,3.99721,-3.84007,-0.03626,-0.0917,0.5425
-73.557,0,0,88.557,88.557,5,5,81.73,1.86813,-23.9833,-0.00424923,4.85823,-3.86399,1,1,318.71,-26.18,-6.09,-0.011834,3.87728,-3.99721,-0.03626,-0.0917,0.5425
-73.9903,0,0,88.9903,88.9903,5,5,82.2114,1.8625,-24.0222,-0.00415095,4.8594,-3.8723,1,1,274.208,-22.96,-0.4375,-0.011834,3.87728,-3.99721,-0.03626,-0.0917,0.5425
-74.4635,0,0,89.4635,89.4635,5,5,82.7372,1.85266,-24.0474,0.810096,-3.02206,0.379015,1,1,298.83,-15.365,3.2375,0.805688,-3.99721,0.230336,-0.03626,-0.0917,0.5425
-74.8207,0,0,89.8207,89.8207,5,5,83.1341,1.90972,-24.001,0.809101,-3.02124,0.372141,1,1,225.225,31.115,-30.24,0.805688,-3.99721,0.230336,-0.03626,-0.0917,0.5425
-75.174,0,0,90.174,90.174,5,5,83.5267,1.94727,-23.9874,0.182673,0.642113,4.00473,1,1,223.423,10.5175,-21.3675,0.177266,-0.338428,3.84166,-0.03626,-0.0917,0.5425
-75.5274,0,0,90.5274,90.5274,5,5,83.9193,1.98472,-23.9735,0.18202,0.64284,3.99793,1,1,223.423,10.5175,-21.3675,0.177266,-0.338428,3.84166,-0.04116,-0.12516,0.53382
-75.878,0,0,90.878,90.878,5,5,84.3089,2.00302,-24.0218,-0.726283,3.93545,0.679424,1,1,222.915,-26.985,-14.035,-0.734562,2.95008,0.555466,-0.04116,-0.12516,0.53382
-76.2285,0,0,91.2285,91.2285,5,5,84.6984,2.02165,-24.0699,-0.726608,3.93609,0.67266,1,1,222.915,-26.985,-14.035,-0.734562,2.95008,0.555466,-0.04116,-0.12516,0.53382
-76.5265,0,0,91.5265,91.5265,5,5,85.0295,2.0741,-24.0085,2.39442,2.26185,-2.98282,1,1,187.968,38.5875,-27.8075,2.40059,1.2771,-3.0661,-0.04116,-0.12516,0.53382
-76.8246,0,0,91.8246,91.8246,5,5,85.3606,2.1262,-23.9468,2.39351,2.2623,-2.98858,1,1,187.968,38.5875,-27.8075,2.40059,1.2771,-3.0661,-0.04116,-0.12516,0.53382
-77.1039,0,0,92.1039,92.1039,5,5,85.6711,2.14602,-23.9918,-3.0675,2.51979,-3.93232,1,1,178.553,-25.27,-14.105,-3.08318,1.53391,-3.99721,-0.04116,-0.12516,0.53382
-77.3476,0,0,92.3476,92.3476,5,5,85.9418,2.15659,-24.0141,1.21918,0.191049,2.97698,1,1,155.838,-12.53,-7.63,1.22183,-0.792756,2.86346,-0.04116,-0.12516,0.53382
-77.5417,0,0,92.5417,92.5417,5,5,86.1574,2.1856,-23.9826,1.21868,0.191289,2.97323,1,1,123.795,19.565,-16.1525,1.22183,-0.792756,2.86346,-0.04116,-0.12516,0.53382
-77.6774,0,0,92.6774,92.6774,5,5,86.3082,2.2171,-23.9675,-2.14059,-0.0686893,1.763,1,1,87.78,10.115,-18.2875,-2.1511,-1.05262,1.66518,-0.04172,-0.1386,0.5299
-77.8318,0,0,92.8318,92.8318,5,5,86.4797,2.22794,-23.9924,-0.624878,2.86607,-2.74617,1,1,100.293,-14.1575,-7.7525,-0.628788,1.87892,-2.80624,-0.04172,-0.1386,0.5299
-77.9635,0,0,92.9635,92.9635,5,5,86.6261,2.20672,-24.0031,-0.624508,2.86624,-2.74872,1,1,85.8725,-6.9125,11.4625,-0.628788,1.87892,-2.80624,-0.04172,-0.1386,0.5299
-78.0943,0,0,93.0943,93.0943,5,5,86.7714,2.18381,-23.9991,-1.52347,0.599487,-0.794769,1,1,84.9625,1.5575,12.95,-1.53195,-0.385642,-0.864858,-0.04172,-0.1386,0.5299
-78.153,0,0,93.153,93.153,5,5,86.8367,2.17698,-23.9805,-1.52335,0.599555,-0.795905,1,1,39.7425,10.7275,4.06,-1.53195,-0.385642,-0.864858,-0.04172,-0.1386,0.5299
-78.1893,0,0,93.1893,93.1893,5,5,86.877,2.15289,-23.9745,-0.175409,2.56377,-0.376984,1,1,26.0925,2.7475,13.7025,-0.17873,1.57648,-0.448472,-0.04172,-0.1386,0.5299
-78.2548,0,0,93.2548,93.2548,5,5,86.9497,2.11097,-23.9922,-0.174677,2.56387,-0.378248,1,1,44.695,-11.6375,23.345,-0.17873,1.57648,-0.448472,-0.04172,-0.1386,0.5299
-78.3012,0,0,93.3012,93.3012,5,5,87.0014,2.06783,-23.997,0.149591,4.66489,1.41111,1,1,32.62,-4.0775,24.465,0.146156,3.67525,1.32797,-0.04172,-0.1386,0.5299
-78.3165,0,0,93.3165,93.3165,5,5,87.0183,2.02354,-23.9881,0.150364,4.66493,1.41081,1,1,12.915,3.8675,25.55,0.146156,3.67525,1.32797,-0.0322,-0.1547,0.5292
-78.3116,0,0,93.3116,93.3116,5,5,87.0128,1.97541,-23.9942,-0.10586,4.95806,0.645924,1,1,0.6125,-5.005,27.335,-0.111996,3.96805,0.568886,-0.0322,-0.1547,0.5292
-78.2956,0,0,93.2956,93.2956,5,5,86.9951,1.92772,-24.0132,-0.105028,4.95807,0.646235,1,1,-6.0025,-12.495,26.6875,-0.111996,3.96805,0.568886,-0.0322,-0.1547,0.5292
-78.28,0,0,93.28,93.28,5,5,86.9777,1.8812,-24.0281,0.639883,4.89372,0.0342554,1,1,-5.8975,-10.1325,26.1275,0.635254,3.90376,-0.038674,-0.0322,-0.1547,0.5292
-78.2431,0,0,93.2431,93.2431,5,5,86.9368,1.83641,-24.0231,0.640664,4.89371,0.0349697,1,1,-19.46,1.5575,25.725,0.635254,3.90376,-0.038674,-0.0322,-0.1547,0.5292
-78.2132,0,0,93.2132,93.2132,5,5,86.9035,1.80384,-24.0217,-0.344988,3.03456,-0.0131374,1,1,-15.1025,-0.175,18.4975,-0.355142,2.04655,-0.086986,-0.0322,-0.1547,0.5292
-78.1426,0,0,93.1426,93.1426,5,5,86.8251,1.77439,-24.0248,-0.344475,3.0345,-0.0117711,1,1,-40.32,-2.695,16.5375,-0.355142,2.04655,-0.086986,-0.0322,-0.1547,0.5292
-78.0726,0,0,93.0726,93.0726,5,5,86.7473,1.74826,-24.0225,-0.635463,2.94004,0.896085,1,1,-40.11,0.5075,14.77,-0.64782,1.95224,0.81252,-0.0322,-0.1547,0.5292
-77.9876,0,0,92.9876,92.9876,5,5,86.6529,1.73187,-24.0203,-0.635177,2.93995,0.89773,1,1,-49.4025,0.805,9.1,-0.64782,1.95224,0.81252,-0.04438,-0.15316,0.52808
-77.8909,0,0,92.8909,92.8909,5,5,86.5455,1.72123,-24.0142,-0.443044,2.33288,0.673375,1,1,-56.735,3.2375,5.88,-0.45506,1.3459,0.58804,-0.04438,-0.15316,0.52808
-77.7866,0,0,92.7866,92.7866,5,5,86.4295,1.72554,-23.9996,-0.443119,2.33275,0.675394,1,1,-61.6875,8.68,-2.52,-0.45506,1.3459,0.58804,-0.04438,-0.15316,0.52808
-77.6789,0,0,92.6789,92.6789,5,5,86.3099,1.73944,-23.9952,-1.00062,2.01643,-0.150951,1,1,-63.5425,3.1675,-8.4525,-1.01467,1.03005,-0.233996,-0.04438,-0.15316,0.52808
-77.5609,0,0,92.5609,92.5609,5,5,86.1787,1.75153,-23.9972,-1.00083,2.01627,-0.148668,1,1,-69.9475,-0.6825,-7.6475,-1.01467,1.03005,-0.233996,-0.04438,-0.15316,0.52808
-77.4403,0,0,92.4403,92.4403,5,5,86.0447,1.77749,-23.988,3.22557,-0.286847,-0.0312565,1,1,-71.715,6.4225,-15.2775,3.23007,-1.27051,-0.119804,-0.04438,-0.15316,0.52808
-77.3197,0,0,92.3197,92.3197,5,5,85.9107,1.80348,-23.9789,3.22512,-0.287025,-0.0289256,1,1,-71.715,6.4225,-15.2775,3.23007,-1.27051,-0.119804,-0.04438,-0.15316,0.52808
-77.1674,0,0,92.1674,92.1674,5,5,85.7416,1.8229,-23.9496,3.98868,-3.01678,3.6487,1,1,-91.7875,17.9725,-10.5875,3.99721,-3.99721,3.52653,-0.04438,-0.15316,0.52808
-77.0152,0,0,92.0152,92.0152,5,5,85.5724,1.84241,-23.9204,3.98834,-3.01702,3.65164,1,1,-91.7875,17.9725,-10.5875,3.99721,-3.99721,3.52653,-0.0413,-0.15106,0.52682
-76.8624,0,0,91.8624,91.8624,5,5,85.4027,1.87432,-23.9011,0.220027,4.41707,4.12893,1,1,-91.91,12.81,-18.2,0.2135,3.42942,3.99721,-0.0413,-0.15106,0.52682
-76.7097,0,0,91.7097,91.7097,5,5,85.233,1.90628,-23.8818,0.219469,4.41681,4.13188,1,1,-91.91,12.81,-18.2,0.2135,3.42942,3.99721,-0.0413,-0.15106,0.52682
-76.5134,0,0,91.5134,91.5134,5,5,85.0149,1.89784,-23.8675,-3.97334,4.98487,-3.9209,1,1,-119,7.98,5.0925,-3.99721,3.99721,-3.99721,-0.0413,-0.15106,0.52682
-76.3171,0,0,91.3171,91.3171,5,5,84.7967,1.88945,-23.8531,-3.97319,4.98454,-3.91711,1,1,-119,7.98,5.0925,-3.99721,3.99721,-3.99721,-0.0413,-0.15106,0.52682
-76.1964,0,0,91.1964,91.1964,5,5,84.6627,1.94219,-23.8234,3.29182,4.88281,0.738693,1,1,-72.135,20.2125,-29.575,3.29949,3.89583,0.62037,-0.0413,-0.15106,0.52682
-76.0758,0,0,91.0758,91.0758,5,5,84.5287,1.99499,-23.7937,3.2909,4.88256,0.741018,1,1,-72.135,20.2125,-29.575,3.29949,3.89583,0.62037,-0.0413,-0.15106,0.52682
-75.8909,0,0,90.8909,90.8909,5,5,84.3232,2.00839,-23.8028,-3.97527,3.27782,-3.80771,1,1,-111.44,-4.48,-8.82,-3.99721,2.29311,-3.8968,-0.0413,-0.15106,0.52682
-75.706,0,0,90.706,90.706,5,5,84.1177,2.02175,-23.8119,-3.9755,3.27745,-3.80414,1,0,-111.44,-4.48,-8.82,-3.99721,2.29311,-3.8968,-0.0574,-0.14182,0.48272
-75.4549,0,0,90.4549,90.4549,5,5,83.8387,2.02009,-23.8136,2.59059,4.98281,0.317382,1,0,-152.81,-1.05,0.3325,2.59665,3.99721,0.188124,-0.0574,-0.14182,0.48272
-75.1798,0,0,90.1798,90.1798,5,5,83.5331,2.02531,-23.8292,-3.97556,-2.92133,0.932382,1,0,-167.475,-8.6975,-4.55,-3.99721,-3.89814,0.793122,-0.0574,-0.14182,0.48272
-74.9162,0,0,89.9162,89.9162,5,5,83.2402,2.07546,-23.8221,-3.97644,-2.92195,0.937453,1,0,-160.79,7.5775,-29.12,-3.99721,-3.89814,0.793122,-0.0574,-0.14182,0.48272
-74.6361,0,0,89.6361,89.6361,5,5,82.929,2.13098,-23.7944,-2.95547,0.618544,4.17183,1,0,-171.448,20.0375,-30.7475,-2.97094,-0.360632,3.99721,-0.0574,-0.14182,0.48272
-74.4374,0,0,89.4374,89.4374,5,5,82.7082,2.14763,-23.8086,-2.95576,0.618052,4.17565,1,0,-119.91,-7,-11.2,-2.97094,-0.360632,3.99721,-0.0574,-0.14182,0.48272
-74.2152,0,0,89.2152,89.2152,5,5,82.4613,2.17585,-23.8172,-3.97819,-1.85107,1.52804,1,0,-134.663,-2.8,-17.5,-3.99721,-2.82662,1.36579,-0.0574,-0.14182,0.48272
-73.9579,0,0,88.9579,88.9579,5,5,82.1754,2.22119,-23.8061,-3.97898,-1.85177,1.53298,1,0,-156.958,10.0275,-25.8825,-3.99721,-2.82662,1.36579,-0.0574,-0.14182,0.48272
-73.6545,0,0,88.6545,88.6545,5,5,81.8384,2.26446,-23.7938,-0.0559901,-1.88034,-3.67225,1,0,-185.675,10.675,-24.535,-0.056852,-2.85431,-3.80506,-0.0574,-0.14182,0.48272
-73.3632,0,0,88.3632,88.3632,5,5,81.5147,2.28309,-23.8355,-0.0563151,-1.88117,-3.66667,1,1,-176.96,-22.54,-14.805,-0.056852,-2.85431,-3.80506,-0.06636,-0.15442,0.4921
-73.0812,0,0,88.0812,88.0812,5,5,81.2014,2.3001,-23.8511,-0.748351,-1.77477,-1.86339,1,1,-171.728,-7.49,-11.7075,-0.75152,-2.7472,-2.02105,-0.06636,-0.15442,0.4921
-72.816,0,0,87.816,87.816,5,5,80.9067,2.33138,-23.8348,-0.748897,-1.77559,-1.85832,1,1,-161.998,12.3025,-17.08,-0.75152,-2.7472,-2.02105,-0.06636,-0.15442,0.4921
-72.5358,0,0,87.5358,87.5358,5,5,80.5954,2.35915,-23.8134,3.8853,4.16168,-2.37242,1,1,-171.483,15.05,-14.5075,3.90278,3.18481,-2.5365,-0.06636,-0.15442,0.4921
-72.2597,0,0,87.2597,87.2597,5,5,80.2885,2.36227,-23.8227,3.88524,4.16079,-2.36714,1,1,-168.245,-5.0225,-3.22,3.90278,3.18481,-2.5365,-0.06636,-0.15442,0.4921
-72.0342,0,0,87.0342,87.0342,5,5,80.038,2.36091,-23.863,2.95092,0.434449,-0.318452,1,1,-135.958,-23.3625,-3.7625,2.96448,-0.536922,-0.507886,-0.06636,-0.15442,0.4921
-71.7641,0,0,86.7641,86.7641,5,5,79.7379,2.38214,-23.8428,2.95055,0.433515,-0.313302,1,1,-165.148,13.86,-10.6575,2.96448,-0.536922,-0.507886,-0.06636,-0.15442,0.4921
-71.4897,0,0,86.4897,86.4897,5,5,79.433,2.39322,-23.8258,1.64524,-1.72873,-0.478482,1,1,-167.72,11.0075,-5.0925,1.65383,-2.69596,-0.676978,-0.06636,-0.15442,0.4921
-71.145,0,0,86.145,86.145,5,5,79.05,2.388,-23.8102,1.64533,-1.72997,-0.47192,1,0,-211.523,8.4525,4.165,1.65383,-2.69596,-0.676978,-0.05754,-0.15064,0.4851
-70.8277,0,0,85.8277,85.8277,5,5,78.6975,2.38043,-23.8065,0.213143,0.174511,-1.35591,1,0,-194.18,1.2775,4.2175,0.215452,-0.792268,-1.56014,-0.05754,-0.15064,0.4851
-70.5663,0,0,85.5663,85.5663,5,5,78.4071,2.37851,-23.8107,0.213177,0.173507,-1.35095,1,0,-159.145,-2.59,0.0875,0.215452,-0.792268,-1.56014,-0.05754,-0.15064,0.4851
-70.2883,0,0,85.2883,85.2883,5,5,78.0981,2.36468,-23.8117,-2.91933,2.95288,-3.72571,1,0,-169.593,-2.17,7.2625,-2.93056,1.98531,-3.92181,-0.05754,-0.15064,0.4851
-70.0067,0,0,85.0067,85.0067,5,5,77.7852,2.35127,-23.7916,-2.9191,2.95175,-3.72037,1,0,-172.34,9.905,9.5725,-2.93056,1.98531,-3.92181,-0.05754,-0.15064,0.4851
-69.7194,0,0,84.7194,84.7194,5,5,77.466,2.35315,-23.7693,-1.0949,3.59526,-0.0537713,1,0,-175.91,13.0375,1.19,-1.09861,2.62934,-0.288896,-0.05754,-0.15064,0.4851
-69.3802,0,0,84.3802,84.3802,5,5,77.0891,2.36049,-23.732,-1.09503,3.59381,-0.0473611,1,0,-208.6,22.2775,0.0875,-1.09861,2.62934,-0.288896,-0.05754,-0.15064,0.4851
-69.0516,0,0,84.0516,84.0516,5,5,76.724,2.35016,-23.7111,0.505237,-2.18862,-0.155869,1,0,-201.6,10.57,8.1025,0.508252,-3.14565,-0.402722,-0.05754,-0.15064,0.4851
-68.723,0,0,83.723,83.723,5,5,76.3589,2.33996,-23.6901,0.505415,-2.19009,-0.149675,1,0,-201.6,10.57,8.1025,0.508252,-3.14565,-0.402722,-0.04872,-0.1246,0.48384
-68.4561,0,0,83.4561,83.4561,5,5,76.0623,2.32692,-23.6757,0.0447256,1.66508,3.2818,1,0,-163.03,6.4225,8.8725,0.045384,0.706746,2.9973,-0.04872,-0.1246,0.48384
-68.1891,0,0,83.1891,83.1891,5,5,75.7657,2.31395,-23.6612,0.0449518,1.66383,3.28682,1,0,-163.03,6.4225,8.8725,0.045384,0.706746,2.9973,-0.04872,-0.1246,0.48384
-67.914,0,0,82.914,82.914,5,5,75.46,2.30937,-23.622,-2.03286,0.968829,-0.467411,1,0,-168.718,21.5775,7.735,-2.0413,0.013786,-0.733098,-0.04872,-0.1246,0.48384
-67.6388,0,0,82.6388,82.6388,5,5,75.1542,2.305,-23.5829,-2.03278,0.96748,-0.462253,1,0,-168.718,21.5775,7.735,-2.0413,0.013786,-0.733098,-0.04872,-0.1246,0.48384
-67.3691,0,0,82.3691,82.3691,5,5,74.8545,2.30065,-23.5981,0.480224,0.92705,-0.825802,1,0,-164.133,-9.2225,-0.3675,0.482266,-0.025254,-1.09885,-0.04872,-0.1246,0.48384
-67.0993,0,0,82.0993,82.0993,5,5,74.5548,2.29621,-23.6133,0.480301,0.925674,-0.820759,1,0,-164.133,-9.2225,-0.3675,0.482266,-0.025254,-1.09885,-0.04872,-0.1246,0.48384
-66.8592,0,0,81.8592,81.8592,5,5,74.288,2.28031,-23.5926,-0.410397,-0.0796911,0.110019,1,0,-146.44,9.205,11.655,-0.412482,-1.02834,-0.179706,-0.04872,-0.1246,0.48384
-66.6191,0,0,81.6191,81.6191,5,5,74.0213,2.2645,-23.5718,-0.410122,-0.0809508,0.114497,1,0,-146.44,9.205,11.655,-0.412482,-1.02834,-0.179706,-0.04382,-0.11368,0.48468
-66.3286,0,0,81.3286,81.3286,5,5,73.6984,2.26648,-23.5555,1.69653,0.676378,-1.43871,1,0,-177.783,9.5025,0.9975,1.70312,-0.27023,-1.7263,-0.04382,-0.11368,0.48468
-66.038,0,0,81.038,81.038,5,5,73.3756,2.26855,-23.5393,1.69649,0.674781,-1.43331,1,0,-177.783,9.5025,0.9975,1.70312,-0.27023,-1.7263,-0.04382,-0.11368,0.48468
-65.7735,0,0,80.7735,80.7735,5,5,73.0817,2.25714,-23.5651,1.88657,2.72895,-0.976938,1,0,-160.633,-16.38,1.505,1.89381,1.78327,-1.27832,-0.04382,-0.11368,0.48468
-65.5311,0,0,80.5311,80.5311,5,5,72.8123,2.23126,-23.5665,-2.26293,4.87116,-1.73693,1,0,-147.42,-5.145,13.685,-2.27371,3.92462,-2.03691,-0.04382,-0.11368,0.48468
-65.3382,0,0,80.3382,80.3382,5,5,72.598,2.23292,-23.5559,-2.26296,4.87004,-1.73337,1,0,-116.83,6.2475,0.385,-2.27371,3.92462,-2.03691,-0.04382,-0.11368,0.48468
-65.1077,0,0,80.1077,80.1077,5,5,72.3419,2.24546,-23.533,-3.56319,4.4167,0.886742,1,0,-140.49,15.0325,-3.4825,-3.57924,3.4731,0.55876,-0.04382,-0.11368,0.48468
-64.831,0,0,79.831,79.831,5,5,72.0345,2.24653,-23.5193,-3.56321,4.41506,0.891846,1,0,-169.085,7.84,1.3125,-3.57924,3.4731,0.55876,-0.04382,-0.11368,0.48468
-64.5785,0,0,79.5785,79.5785,5,5,71.7539,2.23603,-23.5305,-3.97924,-0.841203,-0.646874,1,0,-153.458,-8.085,3.2725,-3.99721,-1.7762,-0.972706,-0.0581,-0.09198,0.48216
-64.3602,0,0,79.3602,79.3602,5,5,71.5114,2.23363,-23.5459,1.26072,2.96061,-2.15648,1,0,-132.09,-8.9775,-2.03,1.2649,2.023,-2.47465,-0.0581,-0.09198,0.48216
-64.1699,0,0,79.1699,79.1699,5,5,71.2999,2.20955,-23.5431,1.26114,2.95945,-2.15298,1,0,-115.063,-2.8875,13.3175,1.2649,2.023,-2.47465,-0.0581,-0.09198,0.48216
-64.0308,0,0,79.0308,79.0308,5,5,71.1453,2.21291,-23.5264,1.1328,4.93484,-3.51478,1,0,-83.4225,9.9225,0.7525,1.13606,3.99721,-3.82848,-0.0581,-0.09198,0.48216
-63.8058,0,0,78.8058,78.8058,5,5,70.8954,2.21565,-23.5111,1.13275,4.93342,-3.51066,1,0,-136.885,9.0125,0.8575,1.13606,3.99721,-3.82848,-0.0581,-0.09198,0.48216
-63.5846,0,0,78.5846,78.5846,5,5,70.6496,2.22728,-23.4911,-0.202582,-0.580435,-2.96073,1,0,-134.663,13.335,-3.0975,-0.204716,-1.50951,-3.2868,-0.0581,-0.09198,0.48216
-63.3656,0,0,78.3656,78.3656,5,5,70.4062,2.23042,-23.5008,-0.202637,-0.581852,-2.95673,1,0,-132.65,-4.6725,-4.13,-0.204716,-1.50951,-3.2868,-0.0581,-0.09198,0.48216
-63.1883,0,0,78.1883,78.1883,5,5,70.2092,2.22872,-23.5172,0.573443,1.72336,-1.45045,1,0,-106.523,-9.345,-2.8175,0.57462,0.794464,-1.79535,-0.0581,-0.09198,0.48216
-63.0507,0,0,78.0507,78.0507,5,5,70.0563,2.22085,-23.5234,0.57358,1.72245,-1.44793,1,0,-82.04,-4.97,2.555,0.57462,0.794464,-1.79535,-0.049,-0.0833,0.4767
-62.9118,0,0,77.9118,77.9118,5,5,69.902,2.23668,-23.5237,-0.175898,2.66446,-2.65375,1,0,-82.915,3.0625,-9.2575,-0.177754,1.73643,-2.99437,-0.049,-0.0833,0.4767
-62.6903,0,0,77.6903,77.6903,5,5,69.6559,2.25663,-23.5088,-0.176246,2.66297,-2.64973,1,0,-134.75,12.25,-8.4525,-0.177754,1.73643,-2.99437,-0.049,-0.0833,0.4767
-62.4788,0,0,77.4788,77.4788,5,5,69.4209,2.27799,-23.491,-0.73035,1.81274,-1.53603,1,0,-128.573,14.175,-8.575,-0.73383,0.888526,-1.89307,-0.049,-0.0833,0.4767
-62.2976,0,0,77.2976,77.2976,5,5,69.2195,2.2946,-23.4911,0.251572,2.27581,-1.76623,1,0,-109.288,3.4475,-9.6075,0.25254,1.35237,-2.12475,-0.049,-0.0833,0.4767
-62.1829,0,0,77.1829,77.1829,5,5,69.0921,2.30394,-23.4892,0.251409,2.27502,-1.76416,1,0,-67.9175,3.01,-5.2325,0.25254,1.35237,-2.12475,-0.049,-0.0833,0.4767
-62.0803,0,0,77.0803,77.0803,5,5,68.9781,2.30466,-23.4876,-1.36801,-1.84295,0.986211,1,0,-60.375,1.085,-0.5775,-1.37372,-2.76062,0.602558,-0.049,-0.0833,0.4767
-61.9431,0,0,76.9431,76.9431,5,5,68.8257,2.32592,-23.4657,-1.36838,-1.84392,0.988686,1,0,-82.3725,16.4675,-7.5075,-1.37372,-2.76062,0.602558,-0.049,-0.0833,0.4767
-61.7741,0,0,76.7741,76.7741,5,5,68.6379,2.35531,-23.449,-0.470018,-0.657571,-0.114807,1,0,-102.078,15.4175,-12.9675,-0.471042,-1.57429,-0.495442,-0.05754,-0.05894,0.4725
-61.6196,0,0,76.6196,76.6196,5,5,68.4662,2.37192,-23.4408,-1.33383,2.26076,-1.58802,1,0,-92.9075,8.05,-7.805,-1.33822,1.34212,-1.96005,-0.05754,-0.05894,0.4725
-61.5028,0,0,76.5028,76.5028,5,5,68.3365,2.38346,-23.4386,-1.33403,2.25992,-1.58592,1,0,-69.195,3.71,-6.3175,-1.33822,1.34212,-1.96005,-0.05754,-0.05894,0.4725
-61.4202,0,0,76.4202,76.4202,5,5,68.2446,2.39101,-23.4367,0.445726,-0.0624267,-1.97603,1,0,-47.9675,2.695,-4.2175,0.449204,-0.97722,-2.34862,-0.05754,-0.05894,0.4725
-61.3375,0,0,76.3375,76.3375,5,5,68.1528,2.39857,-23.4349,0.445594,-0.0630267,-1.97454,1,0,-47.9675,2.695,-4.2175,0.449204,-0.97722,-2.34862,-0.05754,-0.05894,0.4725
-61.2502,0,0,76.2502,76.2502,5,5,68.0558,2.42094,-23.4185,0.447755,1.8299,-0.693453,1,0,-51.1525,13.8075,-9.0825,0.451766,0.91439,-1.07897,-0.05754,-0.05894,0.4725
-61.1327,0,0,76.1327,76.1327,5,5,67.9253,2.43963,-23.4168,0.587259,0.980012,0.760183,1,0,-69.6675,5.0925,-10.255,0.592188,0.066246,0.361364,-0.05754,-0.05894,0.4725
-61.0202,0,0,76.0202,76.0202,5,5,67.8002,2.44791,-23.4185,0.587115,0.979184,0.762201,1,0,-66.5,0.91,-5.39,0.592188,0.066246,0.361364,-0.05754,-0.05894,0.4725
-60.9224,0,0,75.9224,75.9224,5,5,67.6916,2.45361,-23.4213,-1.54336,1.92067,0.430761,1,0,-57.2425,-0.1925,-4.2175,-1.5472,1.00748,0.030744,-0.05446,-0.06314,0.4732
-60.8626,0,0,75.8626,75.8626,5,5,67.6251,2.45815,-23.419,-0.382763,0.622386,-0.0886078,1,0,-33.7925,2.2925,-2.4675,-0.381616,-0.289018,-0.485682,-0.05446,-0.06314,0.4732
-60.8187,0,0,75.8187,75.8187,5,5,67.5764,2.45694,-23.4221,-0.382742,0.622063,-0.0878227,1,0,-23.6425,-1.9075,-0.56,-0.381616,-0.289018,-0.485682,-0.05446,-0.06314,0.4732
-60.7588,0,0,75.7588,75.7588,5,5,67.5098,2.45711,-23.4201,-2.22823,2.94423,-1.09099,1,0,-33.8275,1.155,-0.175,-2.23492,2.03118,-1.48218,-0.05446,-0.06314,0.4732
-60.6851,0,0,75.6851,75.6851,5,5,67.4279,2.46028,-23.42,-2.22829,2.94368,-1.08968,1,0,-42.2975,0.8225,-2.205,-2.23492,2.03118,-1.48218,-0.05446,-0.06314,0.4732
-60.6237,0,0,75.6237,75.6237,5,5,67.3596,2.45584,-23.412,-0.00198633,0.8965,-0.954807,1,0,-34.9125,3.36,3.6575,0.000732,-0.01342,-1.34944,-0.05446,-0.06314,0.4732
-60.5769,0,0,75.5769,75.5769,5,5,67.3076,2.44883,-23.4133,-0.00186413,0.896155,-0.953968,1,0,-25.55,-2.24,2.9575,0.000732,-0.01342,-1.34944,-0.05446,-0.06314,0.4732
-60.5517,0,0,75.5517,75.5517,5,5,67.2797,2.44422,-23.4109,1.62236,0.772134,-0.582459,1,0,-12.145,0.2625,2.485,1.63175,-0.137128,-0.981246,-0.05544,-0.05586,0.4725
-60.5338,0,0,75.5338,75.5338,5,5,67.2598,2.43833,-23.4085,-1.36827,0.207412,-1.32167,1,0,-7.63,0,3.185,-1.37165,-0.701134,-1.71508,-0.05544,-0.05586,0.4725
-60.0018,0,0,75.0018,75.0018,5,5,66.6687,1.51407,-23.6552,-0.446962,1.60542,-0.200266,0,0,-14.56,5.3025,3.0975,-0.462624,0.698938,-0.611952,-0.05544,-0.05586,0.4725
-59.4831,0,0,74.4831,74.4831,5,5,66.0924,0.573955,-23.8952,-0.430557,1.60166,-0.190932,0,0,-7.4725,-0.0875,1.61,-0.462624,0.698938,-0.611952,-0.05544,-0.05586,0.4725
-59.4673,0,0,74.4673,74.4673,5,5,66.0748,0.566898,-23.892,-0.087601,2.31744,-0.47122,1,0,-6.2825,0.105,4.0075,-0.11834,1.4141,-0.890356,-0.05544,-0.05586,0.4725
-59.4536,0,0,74.4536,74.4536,5,5,66.0596,0.557661,-23.8916,-0.0874398,2.31734,-0.470976,1,0,-4.97,-1.9775,4.48,-0.11834,1.4141,-0.890356,-0.05544,-0.05586,0.4725
-58.7348,0,0,73.7348,73.7348,5,5,65.2609,0.455101,-23.7608,0.0782343,0.858788,-0.624865,0,0,-2.66,2.6075,3.6575,0.046238,-0.03721,-1.05567,-0.05544,-0.05586,0.4725
-58.0206,0,0,73.0206,73.0206,5,5,64.4674,0.353515,-23.6321,0.0800073,0.852916,-0.612322,0,0,-2.6425,-0.9275,2.7475,0.046238,-0.03721,-1.05567,-0.05544,-0.05586,0.4725
-58.0202,0,0,73.0202,73.0202,5,5,64.4668,0.347546,-23.6341,0.76602,1.61193,-0.705263,1,0,3.29,-2.555,2.1,0.73505,0.72102,-1.1479,-0.0546,-0.05502,0.47376
-57.9571,0,0,72.9571,72.9571,5,5,64.3968,0.561434,-23.0812,0.137972,-0.0482041,-0.0688971,0,0,7.5425,-0.735,1.96,0.108092,-0.936838,-0.517524,-0.0546,-0.05502,0.47376
-57.8943,0,0,72.8943,72.8943,5,5,64.327,0.773441,-22.5286,0.134272,-0.04877,-0.0678176,0,0,5.8975,3.6225,1.4875,0.108092,-0.936838,-0.517524,-0.0546,-0.05502,0.47376
-57.8965,0,0,72.8965,72.8965,5,5,64.3295,0.772967,-22.5223,-0.163967,1.52461,-0.657395,1,0,4.935,3.2375,1.3125,-0.191418,0.634888,-1.10251,-0.0546,-0.05502,0.47376
-57.9182,0,0,72.9182,72.9182,5,5,64.3536,0.771116,-22.5187,-0.163935,1.52479,-0.657774,1,0,17.0625,1.4875,1.365,-0.191418,0.634888,-1.10251,-0.0546,-0.05502,0.47376
-57.9487,0,0,72.9487,72.9487,5,5,64.3875,0.768637,-22.5197,-0.431039,0.1212,-0.645397,1,0,22.575,-1.12,0.525,-0.459696,-0.767502,-1.0897,-0.0546,-0.05502,0.47376
-57.9808,0,0,72.9808,72.9808,5,5,64.4231,0.766058,-22.5226,-0.430994,0.121469,-0.645958,1,0,23.5725,-2.135,0.105,-0.459696,-0.767502,-1.0897,-0.0546,-0.05502,0.47376
-58.0147,0,0,73.0147,73.0147,5,5,64.4608,0.767681,-22.5215,-0.274184,1.56786,-0.0520958,1,0,24.71,1.0325,-1.1025,-0.302194,0.6771,-0.499834,-0.0546,-0.05502,0.47376
-58.0472,0,0,73.0472,73.0472,5,5,64.4969,0.772461,-22.5174,-0.274267,1.56813,-0.0526648,1,0,23.7825,3.4125,-2.0125,-0.302194,0.6771,-0.499834,-0.05054,-0.05082,0.47334
-58.0751,0,0,73.0751,73.0751,5,5,64.5279,0.776776,-22.5142,0.0902358,1.31983,-1.00465,1,0,20.9125,2.7825,-2.0125,0.063928,0.42883,-1.44399,-0.05054,-0.05082,0.47334
-58.1063,0,0,73.1063,73.1063,5,5,64.5626,0.774609,-22.5217,0.0902736,1.32009,-1.0052,1,0,23.0825,-4.4625,-1.26,0.063928,0.42883,-1.44399,-0.05054,-0.05082,0.47334
-57.3221,0,0,72.3221,72.3221,5,5,63.6912,1.32334,-22.8002,0.462406,1.28667,-0.448161,0,0,29.365,-4.1125,-1.6975,0.447252,0.402234,-0.904752,-0.05054,-0.05082,0.47334
-56.5372,0,0,71.5372,71.5372,5,5,62.8191,1.87055,-23.0912,0.452859,1.27959,-0.434694,0,0,29.26,-5.005,-1.61,0.447252,0.402234,-0.904752,-0.05054,-0.05082,0.47334
-56.5798,0,0,71.5798,71.5798,5,5,62.8664,1.8706,-23.0972,0.0121082,0.727098,-0.312725,1,0,30.1875,-3.08,-2.1525,0.004636,-0.15006,-0.782996,-0.05054,-0.05082,0.47334
-56.6251,0,0,71.6251,71.6251,5,5,62.9168,1.87165,-23.1018,0.01209,0.727498,-0.313508,1,0,31.92,-2.1175,-2.31,0.004636,-0.15006,-0.782996,-0.05054,-0.05082,0.47334
-55.9834,0,0,70.9834,70.9834,5,5,62.2038,2.69522,-23.1744,0.49266,0.79478,-0.276548,0,0,34.8425,-3.115,-1.6975,0.501664,-0.076616,-0.75701,-0.05054,-0.05082,0.47334
-55.3592,0,0,70.3592,70.3592,5,5,61.5102,3.49267,-23.2528,0.478763,0.788416,-0.266244,0,0,39.5325,-4.3575,0.1575,0.501664,-0.076616,-0.75701,-0.04956,-0.05964,0.4627
-55.4188,0,0,70.4188,70.4188,5,5,61.5764,3.48663,-23.2565,0.396743,0.685408,-0.72401,1,0,40.845,-3.5525,1.54,0.419192,-0.180072,-1.21024,-0.04956,-0.05964,0.4627
-55.4909,0,0,70.4909,70.4909,5,5,61.6566,3.4829,-23.2576,0.396808,0.686075,-0.725236,1,0,48.5275,-1.54,1.1025,0.419192,-0.180072,-1.21024,-0.04956,-0.05964,0.4627
-55.5624,0,0,70.5624,70.5624,5,5,61.736,3.47775,-23.2602,0.214791,0.980207,-0.226543,1,0,48.2125,-2.73,1.4,0.236314,0.113094,-0.714188,-0.04956,-0.05964,0.4627
-55.6375,0,0,70.6375,70.6375,5,5,61.8195,3.47276,-23.263,0.214878,0.980899,-0.227822,1,0,50.47,-2.835,1.2425,0.236314,0.113094,-0.714188,-0.04956,-0.05964,0.4627
-55.7124,0,0,70.7124,70.7124,5,5,61.9026,3.46736,-23.2653,-0.17111,1.16136,-0.243359,1,0,50.2775,-2.625,1.6275,-0.151402,0.292678,-0.72834,-0.04956,-0.05964,0.4627
-55.7862,0,0,70.7862,70.7862,5,5,61.9847,3.46212,-23.2658,-0.171018,1.16204,-0.244618,1,0,49.5775,-1.68,2.03,-0.151402,0.292678,-0.72834,-0.04956,-0.05964,0.4627
-55.1238,0,0,70.1238,70.1238,5,5,61.2487,3.04467,-23.5212,-0.159857,1.48946,-0.368996,0,0,47.88,-2.2575,2.4325,-0.147498,0.625494,-0.86315,-0.04956,-0.05964,0.4627
-54.4704,0,0,69.4704,69.4704,5,5,60.5226,2.62612,-23.7663,-0.15256,1.48362,-0.357763,0,0,53.375,-2.3275,2.765,-0.147498,0.625494,-0.86315,-0.05166,-0.05992,0.47572
-54.5584,0,0,69.5584,69.5584,5,5,60.6204,2.61828,-23.7688,0.163075,0.887265,-0.382113,1,0,58.4675,-3.4825,2.7475,0.169336,0.028914,-0.885842,-0.05166,-0.05992,0.47572
-54.6549,0,0,69.6549,69.6549,5,5,60.7276,2.61135,-23.7713,0.163195,0.888186,-0.383741,1,0,63.7525,-3.2375,2.275,0.169336,0.028914,-0.885842,-0.05166,-0.05992,0.47572
-54.7556,0,0,69.7556,69.7556,5,5,60.8395,2.60571,-23.773,0.080562,0.959853,-0.397859,1,0,66.3425,-2.3975,1.89,0.086254,0.099552,-0.898164,-0.05166,-0.05992,0.47572
-54.8581,0,0,69.8581,69.8581,5,5,60.9534,2.60122,-23.7722,0.0806403,0.960822,-0.399593,1,0,67.4275,-0.8575,1.9775,0.086254,0.099552,-0.898164,-0.05166,-0.05992,0.47572
-54.1993,0,0,69.1993,69.1993,5,5,60.2214,3.21488,-23.9211,0.457726,0.957991,-0.402638,0,0,65.3975,-1.05,2.6075,0.475678,0.103456,-0.91195,-0.05166,-0.05992,0.47572
-53.5469,0,0,68.5469,68.5469,5,5,59.4965,3.82117,-24.0829,0.447164,0.951089,-0.392043,0,0,67.3225,-3.1675,2.6425,0.475678,0.103456,-0.91195,-0.05166,-0.05992,0.47572
-52.9349,0,0,67.9349,67.9349,5,5,58.8166,3.45304,-24.13,-0.117163,1.115,-0.47105,0,0,71.1025,-4.1125,3.64,-0.097478,0.272914,-1.00064,-0.05166,-0.05992,0.47572
-52.3264,0,0,67.3264,67.3264,5,5,58.1405,3.08594,-24.1674,-0.110767,1.10915,-0.460816,0,0,71.1025,-4.1125,3.64,-0.097478,0.272914,-1.00064,-0.05166,-0.05992,0.47572
-51.853,0,0,66.853,66.853,5,5,57.6145,3.01585,-23.995,0.0567688,0.682019,-0.444042,0,0,79.625,-2.8525,3.15,0.06954,-0.148962,-0.991738,-0.0518,-0.06692,0.48216
-51.9803,0,0,66.9803,66.9803,5,5,57.7558,3.01063,-23.9956,0.191223,1.41415,-0.386123,1,0,82.845,-1.8725,1.8725,0.204472,0.581086,-0.932202,-0.0518,-0.06692,0.48216
-52.1085,0,0,67.1085,67.1085,5,5,57.8984,3.00593,-23.9988,0.191305,1.41547,-0.388224,1,0,83.58,-3.01,0.805,0.204472,0.581086,-0.932202,-0.0518,-0.06692,0.48216
-52.2419,0,0,67.2419,67.2419,5,5,58.0466,3.00135,-24.0005,0.561552,1.32684,-0.669751,1,0,86.73,-2.24,1.2075,0.576206,0.491172,-1.20939,-0.0518,-0.06692,0.48216
-52.3767,0,0,67.3767,67.3767,5,5,58.1963,2.99523,-24.0024,0.0617446,1.61901,-0.410698,1,0,87.5525,-2.8175,1.9075,0.074176,0.781654,-0.950136,-0.0518,-0.06692,0.48216
-51.8551,0,0,66.8551,66.8551,5,5,57.6168,2.9969,-23.9248,0.0896572,0.80577,-0.364396,0,0,91.98,-2.66,2.1525,0.102236,-0.025376,-0.912682,-0.0518,-0.06692,0.48216
-51.2064,0,0,66.2064,66.2064,5,5,56.896,2.96049,-24.1665,0.0827597,1.29081,-0.326394,0,0,94.815,-3.6225,1.68,0.094672,0.465918,-0.885476,-0.0518,-0.06692,0.48216
-50.7631,0,0,65.7631,65.7631,5,5,56.4034,2.27995,-24.0338,-0.281738,0.97304,-0.380273,0,0,99.6975,-4.0775,1.82,-0.283284,0.152744,-0.946354,-0.0518,-0.06692,0.48216
-50.923,0,0,65.923,65.923,5,5,56.5811,2.27323,-24.0396,0.210032,1.21254,-0.0105668,1,0,103.355,-4.97,0.875,0.21045,0.390278,-0.576938,-0.05376,-0.0742,0.47558
-51.0824,0,0,66.0824,66.0824,5,5,56.7582,2.26665,-24.0471,0.401973,1.03666,-0.768541,1,0,103.04,-5.74,0.28,0.403088,0.21289,-1.32651,-0.05376,-0.0742,0.47558
-51.2427,0,0,66.2427,66.2427,5,5,56.9364,2.26186,-24.051,0.402056,1.03837,-0.77114,1,0,103.53,-3.4475,0.5425,0.403088,0.21289,-1.32651,-0.05376,-0.0742,0.47558
-51.405,0,0,66.405,66.405,5,5,57.1167,2.25619,-24.0568,-0.116224,1.29545,-0.485461,1,0,104.79,-4.6025,0.42,-0.117486,0.467992,-1.04042,-0.05376,-0.0742,0.47558
-51.5738,0,0,66.5738,66.5738,5,5,57.3042,2.24531,-24.0612,-0.116034,1.29722,-0.488206,1,0,108.798,-5.6,3.4125,-0.117486,0.467992,-1.04042,-0.05376,-0.0742,0.47558
-51.7541,0,0,66.7541,66.7541,5,5,57.5046,2.23321,-24.0664,0.12897,0.756749,-0.668192,1,0,116.025,-6.3,3.815,0.128344,-0.07381,-1.2161,-0.05376,-0.0742,0.47558
-51.9439,0,0,66.9439,66.9439,5,5,57.7155,2.22093,-24.0682,0.129184,0.758727,-0.671293,1,0,121.853,-4.725,4.9525,0.128344,-0.07381,-1.2161,-0.05376,-0.0742,0.47558
-52.1346,0,0,67.1346,67.1346,5,5,57.9273,2.21262,-24.0661,-0.923952,0.946942,-2.4761,1,0,122.308,-1.505,4.235,-0.929396,0.11224,-3.00388,-0.05376,-0.0742,0.47558
-52.3259,0,0,67.3259,67.3259,5,5,58.1399,2.20747,-24.061,-0.923862,0.948908,-2.47925,1,0,122.64,0.9625,3.5875,-0.929396,0.11224,-3.00388,-0.05096,-0.08652,0.48174
-52.5216,0,0,67.5216,67.5216,5,5,58.3573,2.20297,-24.061,-0.560784,-1.18851,-0.0881719,1,0,125.475,-1.365,1.6975,-0.56486,-2.02496,-0.628056,-0.05096,-0.08652,0.48174
-52.7022,0,0,67.7022,67.7022,5,5,58.558,2.19017,-24.065,-0.560561,-1.18667,-0.0911496,1,0,116.148,-5.845,4.6375,-0.56486,-2.02496,-0.628056,-0.05096,-0.08652,0.48174
-52.8859,0,0,67.8859,67.8859,5,5,58.7621,2.17565,-24.067,-0.0585719,0.283884,-0.694174,1,0,118.055,-5.4075,6.09,-0.061,-0.557784,-1.22342,-0.05096,-0.08652,0.48174
-53.0841,0,0,68.0841,68.0841,5,5,58.9824,2.16448,-24.0681,-0.058377,0.285876,-0.697459,1,0,127.103,-3.8675,4.7425,-0.061,-0.557784,-1.22342,-0.05096,-0.08652,0.48174
-53.2811,0,0,68.2811,68.2811,5,5,59.2012,2.1521,-24.0715,0.413446,1.42094,-0.695197,1,0,126.333,-5.425,4.6375,0.412604,0.574132,-1.21793,-0.05096,-0.08652,0.48174
-53.4941,0,0,68.4941,68.4941,5,5,59.4379,2.13822,-24.0767,0.413688,1.42305,-0.698742,1,0,136.395,-6.7375,4.8825,0.412604,0.574132,-1.21793,-0.05096,-0.08652,0.48174
-53.7111,0,0,68.7111,68.7111,5,5,59.679,2.12908,-24.0778,-1.2646,0.569443,-1.87726,1,0,138.758,-3.2025,3.7625,-1.27295,-0.280722,-2.38376,-0.05096,-0.08652,0.48174
-53.9249,0,0,68.9249,68.9249,5,5,59.9166,2.12712,-24.0717,-1.26456,0.571529,-1.88084,1,0,136.657,2.52,2.24,-1.27295,-0.280722,-2.38376,-0.05222,-0.1057,0.47698
-54.1257,0,0,69.1257,69.1257,5,5,60.1396,2.12679,-24.0745,-0.471986,1.08958,-1.05591,1,0,128.678,-1.47,-1.1725,-0.47702,0.23485,-1.56184,-0.05222,-0.1057,0.47698
-54.3237,0,0,69.3237,69.3237,5,5,60.3597,2.11746,-24.0671,-0.471823,1.09149,-1.05924,1,0,126.805,1.1025,6.3525,-0.47702,0.23485,-1.56184,-0.05222,-0.1057,0.47698
-54.5319,0,0,69.5319,69.5319,5,5,60.591,2.1079,-24.0639,-0.589497,-3.02536,-3.29524,1,0,133.175,-1.12,5.2325,-0.59536,-3.87972,-3.77712,-0.05222,-0.1057,0.47698
-54.7275,0,0,69.7275,69.7275,5,5,60.8083,2.09775,-24.0625,-0.58932,-3.0235,-3.29854,1,0,125.388,-2.1525,5.04,-0.59536,-3.87972,-3.77712,-0.05222,-0.1057,0.47698
-54.9248,0,0,69.9248,69.9248,5,5,61.0275,2.0883,-24.0593,0.667614,-1.18241,-1.67601,1,0,126.42,-1.015,5.1975,0.66673,-2.0424,-2.16379,-0.05222,-0.1057,0.47698
-55.1257,0,0,70.1257,70.1257,5,5,61.2508,2.07474,-24.067,0.66785,-1.18052,-1.67942,1,0,128.905,-7.7175,4.2525,0.66673,-2.0424,-2.16379,-0.05222,-0.1057,0.47698
-55.328,0,0,70.328,70.328,5,5,61.4755,2.06488,-24.0684,-0.242756,-0.575211,0.132848,1,0,129.588,-3.4475,4.13,-0.247904,-1.4396,-0.362096,-0.05222,-0.1057,0.47698
-55.5345,0,0,70.5345,70.5345,5,5,61.705,2.06329,-24.0742,-0.242728,-0.573305,0.129327,1,0,132.353,-3.4125,-1.33,-0.247904,-1.4396,-0.362096,-0.04872,-0.12138,0.47404
-55.7197,0,0,70.7197,70.7197,5,5,61.9108,2.05653,-24.0792,-0.585078,3.38396,-0.415053,1,0,119.053,-4.41,1.575,-0.591822,2.51186,-0.89914,-0.04872,-0.12138,0.47404
-55.907,0,0,70.907,70.907,5,5,62.1189,2.04099,-24.0767,-0.584807,3.38567,-0.418254,1,0,120.19,-2.9575,8.155,-0.591822,2.51186,-0.89914,-0.04872,-0.12138,0.47404
-56.1013,0,0,71.1013,71.1013,5,5,62.3348,2.0297,-24.0795,-0.93619,1.84546,-0.642521,1,0,124.67,-4.445,4.5675,-0.94489,0.971486,-1.11837,-0.04872,-0.12138,0.47404
-56.2815,0,0,71.2815,71.2815,5,5,62.535,2.02236,-24.0791,-0.936062,1.84708,-0.645616,1,0,115.85,-1.785,3.36,-0.94489,0.971486,-1.11837,-0.04872,-0.12138,0.47404
-56.4689,0,0,71.4689,71.4689,5,5,62.7433,2.01335,-24.0816,1.22132,2.0902,-1.6912,1,0,120.365,-3.675,3.4825,1.22146,1.21268,-2.15269,-0.04872,-0.12138,0.47404
-56.6668,0,0,71.6668,71.6668,5,5,62.9631,2.00641,-24.0783,1.22144,2.09195,-1.69461,1,0,126.77,-0.0875,3.955,1.22146,1.21268,-2.15269,-0.04872,-0.12138,0.47404
-56.8658,0,0,71.8658,71.8658,5,5,63.1842,2.00339,-24.0766,-0.0182712,0.509958,-0.138565,1,0,127.47,0.14,1.505,-0.023546,-0.369416,-0.605242,-0.04872,-0.12138,0.47404
-57.035,0,0,72.035,72.035,5,5,63.3723,2.01067,-24.0711,-0.0183982,0.51143,-0.141497,1,0,108.92,4.8125,-2.8875,-0.023546,-0.369416,-0.605242,-0.04872,-0.12138,0.47404
-57.1836,0,0,72.1836,72.1836,5,5,63.5373,2.00887,-24.0768,-0.169981,3.0129,-1.31233,1,0,96.2325,-3.4475,-1.085,-0.175802,2.12817,-1.76449,-0.05152,-0.13916,0.48034
-57.3374,0,0,72.3374,72.3374,5,5,63.7083,2.00613,-24.0752,-0.169933,3.01422,-1.315,1,0,99.3825,0.1925,1.33,-0.175802,2.12817,-1.76449,-0.05152,-0.13916,0.48034
-57.4935,0,0,72.4935,72.4935,5,5,63.8817,2.00616,-24.0789,0.191122,1.03991,-0.999768,1,0,100.87,-1.925,-1.505,0.186782,0.154574,-1.44899,-0.05152,-0.13916,0.48034
-57.6302,0,0,72.6302,72.6302,5,5,64.0335,2.00736,-24.0789,0.191101,1.04108,-1.00215,1,0,88.69,0.35,-1.155,0.186782,0.154574,-1.44899,-0.05152,-0.13916,0.48034
-57.7677,0,0,72.7677,72.7677,5,5,64.1864,2.01085,-24.078,0.263445,2.12245,-0.380215,1,0,89.25,1.435,-2.1175,0.259494,1.23366,-0.829478,-0.05152,-0.13916,0.48034
-57.9093,0,0,72.9093,72.9093,5,5,64.3437,2.01506,-24.079,0.263372,2.12364,-0.382689,1,0,91.8225,0.5775,-2.9925,0.259494,1.23366,-0.829478,-0.05152,-0.13916,0.48034
-58.0548,0,0,73.0548,73.0548,5,5,64.5054,2.0294,-24.0794,0.170064,1.02131,-0.378105,1,0,94.22,3.43,-8.19,0.166042,0.131272,-0.822402,-0.05152,-0.13916,0.48034
-58.1793,0,0,73.1793,73.1793,5,5,64.6436,2.04358,-24.0752,0.169816,1.02234,-0.380286,1,0,80.99,5.8625,-6.93,0.166042,0.131272,-0.822402,-0.05152,-0.13916,0.48034
-58.2904,0,0,73.2904,73.2904,5,5,64.7671,2.05092,-24.074,0.580189,2.7875,-0.734606,1,0,72.765,2.52,-4.095,0.57828,1.89368,-1.17205,-0.05488,-0.14812,0.48132
-58.4019,0,0,73.4019,73.4019,5,5,64.891,2.0588,-24.0655,-0.482463,1.97834,-0.211943,1,0,72.905,6.475,-2.59,-0.488732,1.08446,-0.65148,-0.05488,-0.14812,0.48132
-58.5102,0,0,73.5102,73.5102,5,5,65.0113,2.06879,-24.0665,0.348568,1.90815,-0.255649,1,0,71.015,1.995,-6.055,0.345992,1.01345,-0.69296,-0.05488,-0.14812,0.48132
-58.5995,0,0,73.5995,73.5995,5,5,65.1105,2.08218,-24.0609,0.066002,1.49291,-0.808277,1,0,59.0975,6.3175,-6.23,0.062464,0.597922,-1.23976,-0.05488,-0.14812,0.48132
-58.6849,0,0,73.6849,73.6849,5,5,65.2054,2.09363,-24.0575,0.632411,2.7228,-0.337291,1,0,56.7175,4.6725,-5.7575,0.631472,1.82585,-0.770918,-0.05488,-0.14812,0.48132
-58.0209,0,0,73.0209,73.0209,5,5,64.4677,2.47444,-24.511,0.380126,1.55481,-0.313465,0,0,60.165,1.5925,-7.3325,0.384788,0.664778,-0.758718,-0.05488,-0.14812,0.48132
-58.1116,0,0,73.1116,73.1116,5,5,64.5684,2.48623,-24.5125,0.959772,1.56948,-0.501443,1,0,60.06,2.205,-7.1225,0.967094,0.678686,-0.94367,-0.05488,-0.14812,0.48132
-58.1903,0,0,73.1903,73.1903,5,5,64.6559,2.49886,-24.5153,-0.300862,1.73695,-0.418606,1,0,52.71,1.75,-7.875,-0.298656,0.845338,-0.8601,-0.05488,-0.14812,0.48132
-58.2566,0,0,73.2566,73.2566,5,5,64.7295,2.50793,-24.5202,0.592021,1.28709,0.702504,1,0,44.9575,-0.315,-6.545,0.598166,0.395402,0.253516,-0.05264,-0.14714,0.476
-58.3152,0,0,73.3152,73.3152,5,5,64.7946,2.51508,-24.5272,-0.57631,2.61655,-0.531206,1,0,40.25,-1.8725,-6.0375,-0.574986,1.72301,-0.969656,-0.05264,-0.14714,0.476
-58.3679,0,0,73.3679,73.3679,5,5,64.8532,2.51601,-24.5393,-0.576326,2.61699,-0.532131,1,0,36.715,-6.125,-4.0075,-0.574986,1.72301,-0.969656,-0.05264,-0.14714,0.476
-57.9143,0,0,72.9143,72.9143,5,5,64.3492,1.87339,-24.9959,-0.27489,1.73979,-0.0703269,0,0,39.3575,-5.845,-4.305,-0.283528,0.850096,-0.519476,-0.05264,-0.14714,0.476
-57.451,0,0,72.451,72.451,5,5,63.8344,1.21743,-25.4363,-0.263445,1.73614,-0.0621132,0,0,31.325,-1.715,-2.0475,-0.283528,0.850096,-0.519476,-0.05264,-0.14714,0.476
-57.4938,0,0,72.4938,72.4938,5,5,63.882,1.21723,-25.4431,-0.148881,2.09263,-0.384861,1,0,30.345,-3.5875,-2.17,-0.168482,1.20585,-0.838994,-0.05264,-0.14714,0.476
-57.539,0,0,72.539,72.539,5,5,63.9322,1.21152,-25.454,-0.148781,2.09302,-0.385646,1,0,31.8325,-7.14,-0.315,-0.168482,1.20585,-0.838994,-0.05264,-0.14714,0.476
-57.5777,0,0,72.5777,72.5777,5,5,63.9753,1.20785,-25.4598,0.250485,2.31635,-0.5389,1,0,27.79,-3.955,-0.0875,0.23241,1.42862,-0.990396,-0.05264,-0.14714,0.476
-57.6008,0,0,72.6008,72.6008,5,5,64.0009,1.20282,-25.4672,0.250573,2.31655,-0.5393,1,0,18.0075,-5.1975,0.1925,0.23241,1.42862,-0.990396,-0.04914,-0.15008,0.48034
-57.6232,0,0,72.6232,72.6232,5,5,64.0258,1.19547,-25.472,0.0447827,1.9572,-0.245844,1,0,17.6225,-4.34,2.1175,0.02562,1.06945,-0.698816,-0.04914,-0.15008,0.48034
-57.6391,0,0,72.6391,72.6391,5,5,64.0435,1.18496,-25.4788,0.0449661,1.95734,-0.246119,1,0,13.5625,-6.265,3.2375,0.02562,1.06945,-0.698816,-0.04914,-0.15008,0.48034
-57.6495,0,0,72.6495,72.6495,5,5,64.055,1.17529,-25.4818,0.507995,1.79061,-0.557359,1,0,10.08,-3.99,3.7975,0.49044,0.9028,-1.00748,-0.04914,-0.15008,0.48034
-57.6571,0,0,72.6571,72.6571,5,5,64.0635,1.16617,-25.4827,0.508154,1.79067,-0.55749,1,0,8.33,-2.7825,4.025,0.49044,0.9028,-1.00748,-0.04914,-0.15008,0.48034
-57.662,0,0,72.662,72.662,5,5,64.0688,1.15842,-25.4822,-0.148097,2.00969,-0.510729,1,0,6.5625,-1.68,3.675,-0.168726,1.12155,-0.960994,-0.04914,-0.15008,0.48034
-57.6615,0,0,72.6615,72.6615,5,5,64.0683,1.1535,-25.4821,-0.148012,2.00969,-0.510721,1,0,3.29,-1.155,2.0825,-0.168726,1.12155,-0.960994,-0.04914,-0.15008,0.48034
-57.6603,0,0,72.6603,72.6603,5,5,64.067,1.14938,-25.4807,-0.129717,1.98684,-0.380128,1,0,2.835,-0.315,1.9775,-0.150426,1.09873,-0.83143,-0.04914,-0.15008,0.48034
-57.6431,0,0,72.6431,72.6431,5,5,64.0479,1.14635,-25.4735,-0.129664,1.9867,-0.379828,1,0,-7.2275,3.0625,2.905,-0.150426,1.09873,-0.83143,-0.04606,-0.15092,0.47768
-57.6253,0,0,72.6253,72.6253,5,5,64.0281,1.14527,-25.4676,0.151473,1.32608,-0.00968741,1,0,-7.6125,2.8875,1.5575,0.131882,0.438956,-0.464454,-0.04606,-0.15092,0.47768
-57.6074,0,0,72.6074,72.6074,5,5,64.0082,1.14419,-25.4616,0.151492,1.32593,-0.0093761,1,0,-7.6125,2.8875,1.5575,0.131882,0.438956,-0.464454,-0.04606,-0.15092,0.47768
-57.5776,0,0,72.5776,72.5776,5,5,63.9751,1.14398,-25.4586,0.392037,1.73566,-0.374382,1,0,-15.0325,1.5925,0.3675,0.373442,0.84851,-0.82716,-0.04606,-0.15092,0.47768
-57.5478,0,0,72.5478,72.5478,5,5,63.942,1.14377,-25.4555,0.392041,1.7354,-0.373863,1,0,-15.0325,1.5925,0.3675,0.373442,0.84851,-0.82716,-0.04606,-0.15092,0.47768
-56.7662,0,0,71.7662,71.7662,5,5,63.0735,1.28188,-25.8624,0.265108,1.53637,-0.316922,0,0,-20.09,3.885,-1.6975,0.248392,0.656482,-0.784094,-0.04606,-0.15092,0.47768
-55.9831,0,0,70.9831,70.9831,5,5,62.2035,1.41923,-26.2721,0.262711,1.52934,-0.303465,0,0,-20.09,3.885,-1.6975,0.248392,0.656482,-0.784094,-0.04606,-0.15092,0.47768
-55.9354,0,0,70.9354,70.9354,5,5,62.1504,1.42483,-26.2679,0.114158,1.70392,-0.336459,1,0,-26.215,3.71,-2.2925,0.099308,0.831308,-0.817644,-0.04606,-0.15092,0.47768
-55.8877,0,0,70.8877,70.8877,5,5,62.0974,1.43044,-26.2638,0.11406,1.70348,-0.335642,1,0,-26.215,3.71,-2.2925,0.099308,0.831308,-0.817644,-0.04844,-0.14616,0.47838
-55.1424,0,0,70.1424,70.1424,5,5,61.2693,1.50878,-26.7994,0.183155,1.63578,-0.0761819,0,0,-31.5875,3.955,-3.3775,0.170068,0.770552,-0.57279,-0.04844,-0.14616,0.47838
-54.3942,0,0,69.3942,69.3942,5,5,60.438,1.58563,-27.3385,0.181814,1.62868,-0.0635323,0,0,-31.5875,3.955,-3.3775,0.170068,0.770552,-0.57279,-0.04844,-0.14616,0.47838
-54.3279,0,0,69.3279,69.3279,5,5,60.3644,1.59217,-27.3371,0.424672,1.18937,-0.109138,1,0,-37.7125,2.625,-3.4475,0.414068,0.332328,-0.61915,-0.04844,-0.14616,0.47838
-54.2617,0,0,69.2617,69.2617,5,5,60.2908,1.5987,-27.3358,0.424558,1.18873,-0.108024,1,0,-37.7125,2.625,-3.4475,0.414068,0.332328,-0.61915,-0.04844,-0.14616,0.47838
-53.4415,0,0,68.4415,68.4415,5,5,59.3795,1.71051,-27.7674,0.208549,1.4512,-0.161436,0,0,-43.7675,1.365,-3.5175,0.199104,0.602558,-0.685762,-0.04844,-0.14616,0.47838
-52.6424,0,0,67.6424,67.6424,5,5,58.4915,1.55221,-28.1124,0.0649207,1.41629,-0.199765,0,0,-46.0075,1.6275,-4.0775,0.052094,0.575596,-0.737002,-0.04844,-0.14616,0.47838
-51.8393,0,0,66.8393,66.8393,5,5,57.5993,1.39267,-28.4495,0.0677042,1.40811,-0.186518,0,0,-49.21,3.7975,-3.4825,0.052094,0.575596,-0.737002,-0.04844,-0.14616,0.47838
-51.7536,0,0,66.7536,66.7536,5,5,57.504,1.39891,-28.4477,-0.224456,1.40245,-0.41417,1,0,-49.84,2.87,-3.045,-0.241194,0.570838,-0.964288,-0.05362,-0.14728,0.48118
-51.6631,0,0,66.6631,66.6631,5,5,57.4034,1.40221,-28.4486,-0.0456869,1.43228,-0.753505,1,0,-52.815,0.6125,-2.45,-0.06161,0.601582,-1.30247,-0.05362,-0.14728,0.48118
-51.5642,0,0,66.5642,66.5642,5,5,57.2935,1.40548,-28.451,-0.0457439,1.43125,-0.751891,1,0,-57.995,-0.0875,-2.87,-0.06161,0.601582,-1.30247,-0.05362,-0.14728,0.48118
-51.4672,0,0,66.4672,66.4672,5,5,57.1858,1.40795,-28.4538,-0.216231,1.2507,-0.568347,1,0,-56.805,-0.56,-2.625,-0.232776,0.422242,-1.12191,-0.05362,-0.14728,0.48118
-51.3612,0,0,66.3612,66.3612,5,5,57.068,1.40774,-28.4568,-0.216228,1.24959,-0.566621,1,0,-62.4225,-1.5225,-1.3825,-0.232776,0.422242,-1.12191,-0.05362,-0.14728,0.48118
-51.2534,0,0,66.2534,66.2534,5,5,56.9482,1.40746,-28.4605,-0.00398738,1.44825,-0.468599,1,0,-63.5075,-1.855,-1.5575,-0.019642,0.621834,-1.02639,-0.05362,-0.14728,0.48118
-51.1479,0,0,66.1479,66.1479,5,5,56.831,1.40987,-28.4597,-0.00402945,1.44713,-0.466886,1,0,-62.195,1.225,-1.435,-0.019642,0.621834,-1.02639,-0.05362,-0.14728,0.48118
-51.0401,0,0,66.0401,66.0401,5,5,56.7112,1.41186,-28.4591,0.201976,1.56005,-0.39014,1,0,-63.5775,0.9625,-1.3125,0.18727,0.735782,-0.951966,-0.05362,-0.14728,0.48118
-50.9266,0,0,65.9266,65.9266,5,5,56.5851,1.4121,-28.4584,0.201971,1.55884,-0.388302,1,0,-67.1475,0.455,-0.42,0.18727,0.735782,-0.951966,-0.05222,-0.13664,0.47978
-50.8149,0,0,65.8149,65.8149,5,5,56.461,1.41108,-28.4589,0.106016,0.929915,-0.328588,1,0,-65.9575,-0.5425,-0.1925,0.09089,0.108702,-0.894504,-0.05222,-0.13664,0.47978
-50.701,0,0,65.701,65.701,5,5,56.3344,1.40881,-28.4583,0.106055,0.928693,-0.326747,1,0,-67.41,-0.4025,0.77,0.09089,0.108702,-0.894504,-0.05222,-0.13664,0.47978
-49.872,0,0,64.872,64.872,5,5,55.4134,1.60693,-28.5635,0.281304,1.03147,-0.345954,0,0,-67.9525,0.4375,1.0325,0.270352,0.220454,-0.926712,-0.05222,-0.13664,0.47978
-49.0483,0,0,64.0483,64.0483,5,5,54.4981,1.80478,-28.6695,0.277852,1.02222,-0.33294,0,0,-67.655,1.05,0.84,0.270352,0.220454,-0.926712,-0.05222,-0.13664,0.47978
-48.9293,0,0,63.9293,63.9293,5,5,54.3659,1.80313,-28.669,-0.420419,1.94831,-0.279425,1,0,-70.56,-0.2975,0.42,-0.430904,1.14692,-0.875472,-0.05222,-0.13664,0.47978
-48.8142,0,0,63.8142,63.8142,5,5,54.238,1.80408,-28.6665,-0.420435,1.94701,-0.277615,1,0,-68.145,1.5575,-0.1225,-0.430904,1.14692,-0.875472,-0.05222,-0.13664,0.47978
-48.7008,0,0,63.7008,63.7008,5,5,54.1121,1.80782,-28.6644,-0.356963,1.15116,-0.702957,1,0,-67.095,2.3275,-1.575,-0.367098,0.35319,-1.2993,-0.05222,-0.13664,0.47978
-48.5832,0,0,63.5832,63.5832,5,5,53.9813,1.8119,-28.6637,-0.357035,1.14982,-0.701112,1,0,-69.7375,1.785,-2.205,-0.367098,0.35319,-1.2993,-0.05222,-0.13664,0.47978
-48.4691,0,0,63.4691,63.4691,5,5,53.8546,1.81502,-28.6658,0.271235,0.567804,0.176682,1,0,-67.445,0.105,-2.73,0.263886,-0.22692,-0.43005,-0.05502,-0.12544,0.4865
-48.3592,0,0,63.3592,63.3592,5,5,53.7324,1.8161,-28.6662,-0.764935,1.30773,-0.408924,1,0,-64.9075,0.2275,-1.1725,-0.776652,0.513498,-1.01284,-0.05502,-0.12544,0.4865
-48.2447,0,0,63.2447,63.2447,5,5,53.6052,1.82256,-28.6649,-0.765048,1.30641,-0.407139,1,0,-67.7425,2.8875,-3.115,-0.776652,0.513498,-1.01284,-0.05502,-0.12544,0.4865
-48.1268,0,0,63.1268,63.1268,5,5,53.4742,1.82671,-28.6704,-0.386693,2.37379,0.37161,1,0,-69.79,-1.12,-4.3925,-0.396622,1.58112,-0.241926,-0.05502,-0.12544,0.4865
-48.0052,0,0,63.0052,63.0052,5,5,53.3391,1.82704,-28.6728,-0.386698,2.37238,0.373502,1,0,-72.1525,-0.9625,-1.505,-0.396622,1.58112,-0.241926,-0.05502,-0.12544,0.4865
-47.8902,0,0,62.8902,62.8902,5,5,53.2113,1.82724,-28.6755,-0.144581,-0.45582,-0.838091,1,0,-67.9875,-1.155,-1.5575,-0.153476,-1.24281,-1.44594,-0.05502,-0.12544,0.4865
-47.785,0,0,62.785,62.785,5,5,53.0944,1.83873,-28.6761,-0.144781,-0.457048,-0.836463,1,0,-61.95,3.7625,-6.125,-0.153476,-1.24281,-1.44594,-0.05502,-0.12544,0.4865
-47.674,0,0,62.674,62.674,5,5,52.9711,1.84864,-28.6761,0.746022,1.13736,-0.994948,1,0,-65.59,3.535,-5.145,0.741272,0.351238,-1.60491,-0.04676,-0.1204,0.4942
-47.5702,0,0,62.5702,62.5702,5,5,52.8558,1.85932,-28.6833,0.351615,0.841574,-0.501308,1,0,-60.935,0.49,-7.9975,0.345382,0.056974,-1.11667,-0.04676,-0.1204,0.4942
-47.4616,0,0,62.4616,62.4616,5,5,52.7351,1.86586,-28.6831,0.351501,0.840299,-0.499634,1,0,-64.0675,2.415,-3.5175,0.345382,0.056974,-1.11667,-0.04676,-0.1204,0.4942
-47.3521,0,0,62.3521,62.3521,5,5,52.6135,1.87429,-28.6795,-0.48216,0.331083,0.215521,1,0,-64.715,4.7075,-3.1675,-0.49166,-0.450424,-0.4087,-0.04676,-0.1204,0.4942
-47.2426,0,0,62.2426,62.2426,5,5,52.4918,1.88273,-28.6759,-0.482307,0.329788,0.217204,1,0,-64.715,4.7075,-3.1675,-0.49166,-0.450424,-0.4087,-0.04676,-0.1204,0.4942
-47.1437,0,0,62.1437,62.1437,5,5,52.3819,1.88217,-28.6771,-0.618604,2.17469,0.156757,1,0,-57.995,-0.7,-0.6825,-0.628544,1.39373,-0.470188,-0.04676,-0.1204,0.4942
-47.0448,0,0,62.0448,62.0448,5,5,52.272,1.88161,-28.6783,-0.618595,2.17352,0.158274,1,0,-57.995,-0.7,-0.6825,-0.628544,1.39373,-0.470188,-0.04676,-0.1204,0.4942
-46.954,0,0,61.954,61.954,5,5,52.1711,1.88668,-28.6771,0.29331,1.8157,0.211794,1,0,-53.0425,2.415,-2.4325,0.28731,1.03737,-0.41846,-0.04676,-0.1204,0.4942
-46.8631,0,0,61.8631,61.8631,5,5,52.0702,1.89175,-28.6759,0.293222,1.81462,0.213182,1,0,-53.0425,2.415,-2.4325,0.28731,1.03737,-0.41846,-0.0483,-0.10962,0.4893
-46.805,0,0,61.805,61.805,5,5,52.0056,2.08773,-28.0816,0.114621,-0.123585,0.0226894,0,0,-50.4175,2.1525,-3.92,0.111386,-0.898042,-0.608292,-0.0483,-0.10962,0.4893
-46.7496,0,0,61.7496,61.7496,5,5,51.944,2.279,-27.4925,0.111285,-0.124347,0.023457,0,0,-50.4175,2.1525,-3.92,0.111386,-0.898042,-0.608292,-0.0483,-0.10962,0.4893
-46.6703,0,0,61.6703,61.6703,5,5,51.8559,2.2823,-27.4847,1.0039,-0.0395632,-0.0321381,1,0,-45.9725,4.83,0.77,1.00784,-0.812398,-0.664656,-0.0483,-0.10962,0.4893
-46.2027,0,0,61.2027,61.2027,5,5,51.3363,1.23626,-27.6496,-0.565544,1.52286,0.227481,0,0,-42.9275,5.425,-0.7525,-0.586576,0.753594,-0.414434,-0.0483,-0.10962,0.4893
-45.7355,0,0,60.7355,60.7355,5,5,50.8172,0.176181,-27.8001,-0.547044,1.51735,0.234671,0,0,-44.59,4.48,-1.82,-0.586576,0.753594,-0.414434,-0.0483,-0.10962,0.4893
-45.6669,0,0,60.6669,60.6669,5,5,50.741,0.175696,-27.8004,0.432747,2.37787,0.611064,1,0,-39.165,-0.28,-0.42,0.397354,1.61406,-0.041968,-0.0483,-0.10962,0.4893
-45.6017,0,0,60.6017,60.6017,5,5,50.6686,0.171302,-27.8001,0.432823,2.37707,0.612042,1,0,-37.03,-1.47,1.5575,0.397354,1.61406,-0.041968,-0.0483,-0.10962,0.4893
-45.5365,0,0,60.5365,60.5365,5,5,50.5961,0.166808,-27.8018,0.0955359,0.680048,0.696625,1,0,-37.0475,-2.3975,0.875,0.05856,-0.080398,0.040992,-0.05096,-0.10276,0.48608
-45.4672,0,0,60.4672,60.4672,5,5,50.5191,0.171356,-27.7976,0.0954566,0.679194,0.697664,1,0,-39.6375,3.6575,-0.9975,0.05856,-0.080398,0.040992,-0.05096,-0.10276,0.48608
-44.8772,0,0,59.8772,59.8772,5,5,49.8635,1.42395,-28.1103,0.88743,0.755171,0.135038,0,0,-38.535,1.05,-0.21,0.875838,0.00305,-0.52582,-0.05096,-0.10276,0.48608
-44.3113,0,0,59.3113,59.3113,5,5,49.2348,2.66054,-28.4343,0.865861,0.747471,0.142883,0,0,-25.2,-0.42,1.2425,0.875838,0.00305,-0.52582,-0.05096,-0.10276,0.48608
-44.2638,0,0,59.2638,59.2638,5,5,49.182,2.65701,-28.4349,0.768977,2.89826,-0.442513,1,0,-26.0225,-1.5575,0.8225,0.778482,2.1522,-1.10739,-0.05096,-0.10276,0.48608
-44.2197,0,0,59.2197,59.2197,5,5,49.133,2.6535,-28.4325,0.769039,2.8977,-0.441866,1,0,-23.94,-0.2625,1.925,0.778482,2.1522,-1.10739,-0.05096,-0.10276,0.48608
-43.4222,0,0,58.4222,58.4222,5,5,48.2469,2.9246,-28.7646,0.292584,1.19917,-0.13878,0,0,-20.615,0.9975,1.82,0.304756,0.465796,-0.81801,-0.05096,-0.10276,0.48608
-42.6231,0,0,57.6231,57.6231,5,5,47.359,3.19197,-29.1047,0.287924,1.18859,-0.127484,0,0,-23.205,-1.33,1.3825,0.304756,0.465796,-0.81801,-0.05096,-0.10276,0.48608
-42.5862,0,0,57.5862,57.5862,5,5,47.318,3.1847,-29.1062,-0.551537,0.163104,-0.162854,1,0,-19.39,-3.5175,1.9775,-0.538386,-0.55815,-0.853634,-0.04452,-0.10794,0.48538
-42.5515,0,0,57.5515,57.5515,5,5,47.2794,3.17339,-29.1075,-0.313593,2.4921,-0.183131,1,0,-18.0075,-5.005,3.815,-0.299632,1.76888,-0.874252,-0.04452,-0.10794,0.48538
-42.5231,0,0,57.5231,57.5231,5,5,47.2479,3.16826,-29.1054,-0.313503,2.49173,-0.182724,1,0,-14.175,-1.12,2.485,-0.299632,1.76888,-0.874252,-0.04452,-0.10794,0.48538
-42.493,0,0,57.493,57.493,5,5,47.2144,3.16336,-29.1034,-0.252796,1.9055,-0.731872,1,0,-15.2425,-1.05,2.3625,-0.238754,1.18364,-1.41959,-0.04452,-0.10794,0.48538
-42.4572,0,0,57.4572,57.4572,5,5,47.1747,3.15154,-29.1052,-0.25259,1.90504,-0.731357,1,0,-18.655,-5.4075,3.85,-0.238754,1.18364,-1.41959,-0.04452,-0.10794,0.48538
-42.4415,0,0,57.4415,57.4415,5,5,47.1572,3.14279,-29.1056,0.05893,0.983999,-0.415765,1,0,-6.2125,-3.64,3.045,0.073932,0.263764,-1.10666,-0.04452,-0.10794,0.48538
-42.4179,0,0,57.4179,57.4179,5,5,47.1311,3.13705,-29.1003,0.0590301,0.983694,-0.415427,1,0,-11.235,0.0175,4.025,0.073932,0.263764,-1.10666,-0.04452,-0.10794,0.48538
-42.3986,0,0,57.3986,57.3986,5,5,47.1096,3.13219,-29.0942,0.0455084,0.968055,0.106152,1,0,-8.645,0.7175,3.9725,0.060268,0.248392,-0.589382,-0.04452,-0.10794,0.48538
-42.3832,0,0,57.3832,57.3832,5,5,47.0924,3.12739,-29.0909,0.0455919,0.967855,0.106374,1,0,-6.1425,-0.455,2.835,0.060268,0.248392,-0.589382,-0.04452,-0.10794,0.48538
-42.372,0,0,57.372,57.372,5,5,47.08,3.12422,-29.0894,0.0636271,1.89978,-0.0706341,1,0,-3.4475,-0.595,1.4175,0.078324,1.1795,-0.765184,-0.0525,-0.0994,0.48412
-42.3683,0,0,57.3683,57.3683,5,5,47.0759,3.12014,-29.085,0.0636981,1.89973,-0.0705795,1,0,1.155,0.315,2.975,0.078324,1.1795,-0.765184,-0.0525,-0.0994,0.48412
-42.3688,0,0,57.3688,57.3688,5,5,47.0764,3.11716,-29.078,-0.373112,0.670782,-0.00861781,1,0,3.64,1.8375,3.5175,-0.360388,-0.04819,-0.703696,-0.0525,-0.0994,0.48412
-42.3635,0,0,57.3635,57.3635,5,5,47.0706,3.11721,-29.0767,-0.373113,0.670712,-0.00854339,1,0,0.2625,0.63,-0.0175,-0.360388,-0.04819,-0.703696,-0.0525,-0.0994,0.48412
-42.3588,0,0,57.3588,57.3588,5,5,47.0653,3.11692,-29.0758,-0.411255,1.12716,0.195618,1,0,0.595,0.315,-0.035,-0.398696,0.407846,-0.501176,-0.0525,-0.0994,0.48412
-42.356,0,0,57.356,57.356,5,5,47.0622,3.11637,-29.0733,-0.411245,1.12712,0.195658,1,0,1.7675,0.875,0.6825,-0.398696,0.407846,-0.501176,-0.0525,-0.0994,0.48412
-41.9027,0,0,56.9027,56.9027,5,5,46.5586,2.42701,-28.8154,-0.305198,0.808528,-0.172781,0,0,1.855,0.91,0.42,-0.304268,0.09516,-0.87352,-0.0525,-0.0994,0.48412
-41.4568,0,0,56.4568,56.4568,5,5,46.0631,1.75031,-28.5444,-0.293395,0.802869,-0.166235,0,0,5.18,3.045,-1.82,-0.304268,0.09516,-0.87352,-0.0525,-0.0994,0.48412
-41.1428,0,0,56.1428,56.1428,5,5,45.7143,1.16295,-28.0999,-0.270148,0.552247,-0.193036,0,0,6.9125,4.34,-1.26,-0.291214,-0.151158,-0.90463,-0.0553,-0.09982,0.48706
-41.1541,0,0,56.1541,56.1541,5,5,45.7268,1.16717,-28.0976,0.44132,1.15338,-0.401959,1,0,10.5525,2.695,-1.3825,0.42334,0.449204,-1.11179,-0.0553,-0.09982,0.48706
-41.17,0,0,56.17,56.17,5,5,45.7444,1.16892,-28.0995,0.441289,1.1536,-0.402181,1,0,13.51,0,-1.995,0.42334,0.449204,-1.11179,-0.0553,-0.09982,0.48706
-40.4456,0,0,55.4456,55.4456,5,5,44.9396,1.27099,-28.3894,0.209657,1.19341,-0.0593958,0,0,14.1575,-0.2975,-2.2575,0.192516,0.498858,-0.781532,-0.0553,-0.09982,0.48706
-39.7237,0,0,54.7237,54.7237,5,5,44.1375,1.37316,-28.6801,0.207875,1.1834,-0.0496088,0,0,13.7025,0.245,-2.31,0.192516,0.498858,-0.781532,-0.0553,-0.09982,0.48706
-39.7424,0,0,54.7424,54.7424,5,5,44.1582,1.37548,-28.6818,-0.134998,0.432458,-0.552598,1,0,15.2075,0.3325,-2.17,-0.151768,-0.251564,-1.28039,-0.0553,-0.09982,0.48706
-39.7582,0,0,54.7582,54.7582,5,5,44.1758,1.37413,-28.6866,-0.134975,0.432678,-0.552811,1,0,13.4925,-2.5025,-1.995,-0.151768,-0.251564,-1.28039,-0.0553,-0.09982,0.48706
-39.8694,0,0,54.8694,54.8694,5,5,44.2993,-0.096241,-28.0993,-0.96834,0.657548,0.340464,0,0,13.7725,-1.54,-2.0825,-1.01443,-0.02867,-0.392718,-0.0553,-0.09982,0.48706
-39.9811,0,0,54.9811,54.9811,5,5,44.4235,-1.55941,-27.4993,-0.942806,0.65884,0.338684,0,0,18.025,1.9425,-1.19,-1.01443,-0.02867,-0.392718,-0.05432,-0.10094,0.4858
-40.0008,0,0,55.0008,55.0008,5,5,44.4453,-1.55698,-27.4968,-0.724903,0.981039,-0.765782,1,0,15.855,2.0475,-0.5075,-0.795562,0.292922,-1.4884,-0.05432,-0.10094,0.4858
