pid_x,pid_y,pid_z,front_left_speed,front_right_speed,back_left_speed,back_right_speed,orientation_x,orientation_y,orientation_z,acceleration_x,acceleration_y,acceleration_z,accel_rejected,mag_rejected,gyro_x,gyro_y,gyro_z,accel_x,accel_y,accel_z,mag_x,mag_y,mag_z
-0.287385,0,0,5.28738,5.28738,5,5,0.495491,-0.059767,-0.252468,0.0349815,-0.426557,0.0919894,0,0,3.7975,0.0875,-0.175,-0.006222,-0.422608,-0.921344,-0.04438,0.25494,0.33432
-0.564029,0,0,5.56403,5.56403,5,5,0.972464,-0.110998,-0.507341,0.0386698,-0.413592,0.0798325,0,0,3.7625,-0.14,-0.21,-0.003416,-0.417972,-0.9333,-0.04438,0.25494,0.33432
-0.835716,0,0,5.83572,5.83572,5,5,1.44089,-0.158238,-0.760829,0.0394943,-0.405418,0.0796584,0,0,3.71,0.105,-0.2275,-0.003416,-0.417972,-0.9333,-0.04438,0.25494,0.33432
-1.10527,0,0,6.10527,6.10527,5,5,1.90564,-0.209248,-1.01397,0.0413565,-0.398288,0.0885169,0,0,3.6225,-4.4625,-0.28,-0.00244,-0.418948,-0.924272,-0.04438,0.25494,0.33432
-1.36905,0,0,6.36905,6.36905,5,5,2.36043,-0.252614,-1.26275,0.0395622,-0.3906,0.08453,0,0,3.5,-0.245,-0.35,-0.005002,-0.419192,-0.927932,-0.04438,0.25494,0.33432
-1.62803,0,0,6.62803,6.62803,5,5,2.80695,-0.289968,-1.50369,0.0402141,-0.382815,0.0841756,0,0,3.5175,-0.1925,-0.315,-0.005002,-0.419192,-0.927932,-0.04508,0.25158,0.33334
-1.88302,0,0,6.88302,6.88302,5,5,3.24659,-0.324586,-1.7428,0.0405753,-0.374542,0.0879474,0,0,3.5,-0.14,-0.3325,-0.005246,-0.418582,-0.923784,-0.04508,0.25158,0.33334
-2.1331,0,0,7.1331,7.1331,5,5,3.67776,-0.355178,-1.98104,0.0417167,-0.366664,0.0865062,0,0,3.7275,-0.035,-0.385,-0.004636,-0.418216,-0.92476,-0.04508,0.25158,0.33334
-2.38057,0,0,7.38057,7.38057,5,5,4.10443,-0.385791,-2.21523,0.0405502,-0.362288,0.087104,0,0,3.7275,0.0175,-0.3325,-0.006344,-0.421266,-0.923662,-0.04508,0.25158,0.33334
-2.62342,0,0,7.62342,7.62342,5,5,4.52313,-0.413892,-2.44765,0.0410406,-0.355002,0.0865509,0,0,3.64,-0.1225,-0.2625,-0.006344,-0.421266,-0.923662,-0.04508,0.25158,0.33334
-2.85763,0,0,7.85763,7.85763,5,5,4.92695,-0.439597,-2.67776,0.0403959,-0.343215,0.0809261,0,0,3.5175,-0.1575,-0.2625,-0.007442,-0.416508,-0.928664,-0.04508,0.25158,0.33334
-3.08856,0,0,8.08856,8.08856,5,5,5.3251,-0.46113,-2.90742,0.0422295,-0.337272,0.0816548,0,0,3.71,-0.1575,-0.1925,-0.005978,-0.417484,-0.927322,-0.04508,0.25158,0.33334
-3.31514,0,0,8.31514,8.31514,5,5,5.71577,-0.480152,-3.13498,0.0425615,-0.330485,0.0809962,0,0,3.6925,-0.2625,-0.2275,-0.005978,-0.417484,-0.927322,-0.0483,0.25158,0.3311
-3.53673,0,0,8.53673,8.53673,5,5,6.09781,-0.489533,-3.35939,0.0422393,-0.322998,0.079325,0,0,3.6925,4.3225,-0.175,-0.006466,-0.41663,-0.928298,-0.0483,0.25158,0.3311
-3.75502,0,0,8.75502,8.75502,5,5,6.47417,-0.498412,-3.58694,0.0466462,-0.316592,0.08217,0,0,3.6225,0.1925,-0.105,-0.002196,-0.416752,-0.92476,-0.0483,0.25158,0.3311
-3.96922,0,0,8.96922,8.96922,5,5,6.84348,-0.505757,-3.81271,0.0467744,-0.31019,0.0814215,0,0,3.6225,-0.07,-0.175,-0.002196,-0.416752,-0.92476,-0.0483,0.25158,0.3311
-4.18075,0,0,9.18075,9.18075,5,5,7.2082,-0.516879,-4.03215,0.043081,-0.305582,0.0817477,0,0,3.6925,-0.0525,-0.2275,-0.0061,-0.41846,-0.923662,-0.0483,0.25158,0.3311
-4.38829,0,0,9.38829,9.38829,5,5,7.56601,-0.525637,-4.2496,0.0432338,-0.29939,0.0809435,0,0,3.675,0.1925,-0.1925,-0.0061,-0.41846,-0.923662,-0.0483,0.25158,0.3311
-4.59359,0,0,9.59359,9.59359,5,5,7.91998,-0.526737,-4.46987,0.047991,-0.296199,0.0802339,0,0,3.7975,0.1225,-0.28,-0.001342,-0.421388,-0.92354,-0.0483,0.25158,0.3311
-4.79482,0,0,9.79482,9.79482,5,5,8.26693,-0.526115,-4.68821,0.0479801,-0.290204,0.0793815,0,0,3.6225,0.1575,-0.3325,-0.001342,-0.421388,-0.92354,-0.0483,0.25158,0.3311
-4.98808,0,0,9.98808,9.98808,5,5,8.60013,-0.529427,-4.90729,0.0442719,-0.277491,0.0781593,0,0,3.4825,0.1575,-0.28,-0.005124,-0.414434,-0.923906,-0.04872,0.25326,0.32466
-5.17937,0,0,10.1794,10.1794,5,5,8.92995,-0.53376,-5.12274,0.0432541,-0.277176,0.0724865,0,0,3.4125,0.0175,-0.3675,-0.006222,-0.419802,-0.928664,-0.04872,0.25326,0.32466
-5.3674,0,0,10.3674,10.3674,5,5,9.25413,-0.537375,-5.33553,0.0427098,-0.271223,0.0741737,0,0,3.325,0,-0.3675,-0.006832,-0.419436,-0.926102,-0.04872,0.25326,0.32466
-5.55228,0,0,10.5523,10.5523,5,5,9.57289,-0.539283,-5.54627,0.0427431,-0.265734,0.0732635,0,0,3.7625,0.07,-0.3325,-0.006832,-0.419436,-0.926102,-0.04872,0.25326,0.32466
-5.73243,0,0,10.7324,10.7324,5,5,9.8835,-0.532988,-5.75998,0.0472497,-0.25917,0.071365,0,0,3.71,0,-0.315,-0.002196,-0.418216,-0.927078,-0.04872,0.25326,0.32466
-5.9089,0,0,10.9089,10.9089,5,5,10.1878,-0.525279,-5.97157,0.0471151,-0.253941,0.0704408,0,0,3.5,0.0875,-0.2975,-0.002196,-0.418216,-0.927078,-0.04872,0.25326,0.32466
-6.08485,0,0,11.0849,11.0849,5,5,10.4911,-0.520106,-6.17827,0.0448381,-0.249831,0.077606,0,0,3.5,0.0875,-0.245,-0.004392,-0.419314,-0.919026,-0.04872,0.25326,0.32466
-6.25763,0,0,11.2576,11.2576,5,5,10.789,-0.513399,-6.38296,0.044721,-0.244722,0.0766471,0,0,3.71,0.245,-0.28,-0.004392,-0.419314,-0.919026,-0.04872,0.25326,0.32466
-6.42379,0,0,11.4238,11.4238,5,5,11.0755,-0.504537,-6.57891,0.0438375,-0.239446,0.0654955,0,0,3.605,0.21,-0.175,-0.005124,-0.418948,-0.929152,-0.04816,0.2506,0.32718
-6.58692,0,0,11.5869,11.5869,5,5,11.3568,-0.493334,-6.77414,0.0448568,-0.234264,0.0662636,0,0,3.605,-0.035,-0.1225,-0.003904,-0.418582,-0.927444,-0.04816,0.2506,0.32718
-6.74677,0,0,11.7468,11.7468,5,5,11.6324,-0.481399,-6.96755,0.0446485,-0.229551,0.0653069,0,0,3.4825,-0.175,-0.175,-0.003904,-0.418582,-0.927444,-0.04816,0.2506,0.32718
-6.90583,0,0,11.9058,11.9058,5,5,11.9066,-0.466586,-7.16049,0.0462123,-0.227551,0.0675294,0,0,3.465,-0.1575,-0.28,-0.002074,-0.421266,-0.924272,-0.04816,0.2506,0.32718
-7.06189,0,0,12.0619,12.0619,5,5,12.1757,-0.451134,-7.35146,0.0459426,-0.222958,0.0665518,0,0,3.5525,-0.2625,-0.2625,-0.002074,-0.421266,-0.924272,-0.04816,0.2506,0.32718
-7.21516,0,0,12.2152,12.2152,5,5,12.4399,-0.439154,-7.53723,0.0426964,-0.21723,0.0693817,0,0,3.4125,-0.21,-0.1925,-0.005124,-0.420046,-0.92049,-0.04816,0.2506,0.32718
-7.36531,0,0,12.3653,12.3653,5,5,12.6988,-0.426017,-7.721,0.0424671,-0.21282,0.0684002,0,0,3.29,-0.0175,-0.175,-0.005124,-0.420046,-0.92049,-0.04816,0.2506,0.32718
-7.50932,0,0,12.5093,12.5093,5,5,12.9471,-0.410719,-7.90409,0.0424431,-0.204564,0.0639977,0,0,3.465,-0.035,-0.28,-0.00488,-0.41602,-0.923906,-0.04816,0.2506,0.32718
-7.65068,0,0,12.6507,12.6507,5,5,13.1908,-0.394584,-8.08363,0.0421615,-0.20042,0.0630378,0,0,3.675,-0.105,-0.2625,-0.00488,-0.41602,-0.923906,-0.0462,0.25088,0.33502
-7.80079,0,0,12.8008,12.8008,5,5,13.4496,-0.394214,-8.24961,0.0337725,-0.215565,0.0615053,0,0,3.6575,-0.21,-0.2975,-0.013298,-0.43554,-0.924394,-0.0462,0.25088,0.33502
-7.94808,0,0,12.9481,12.9481,5,5,13.7036,-0.392795,-8.41396,0.0337477,-0.211257,0.0604651,0,0,3.78,-0.245,-0.2975,-0.013298,-0.43554,-0.924394,-0.0462,0.25088,0.33502
-8.08476,0,0,13.0848,13.0848,5,5,13.9392,-0.392623,-8.57505,0.031315,-0.216056,0.013254,0,0,3.7275,-0.07,-0.245,-0.015738,-0.444324,-0.970266,-0.0462,0.25088,0.33502
-8.2189,0,0,13.2189,13.2189,5,5,14.1705,-0.391118,-8.73465,0.0312888,-0.212141,0.0122739,0,0,3.885,0.105,-0.35,-0.015738,-0.444324,-0.970266,-0.0462,0.25088,0.33502
-8.3418,0,0,13.3418,13.3418,5,5,14.3824,-0.338555,-8.92797,0.0625651,-0.180954,0.0432112,0,0,3.815,-0.14,-0.4725,0.016592,-0.416752,-0.938668,-0.0462,0.25088,0.33502
-8.46222,0,0,13.4622,13.4622,5,5,14.59,-0.28618,-9.11951,0.061651,-0.177445,0.0423096,0,0,3.745,-0.0175,-0.735,0.016592,-0.416752,-0.938668,-0.0462,0.25088,0.33502
-8.65171,0,0,13.6517,13.6517,5,5,14.9167,0.268006,-9.63185,0.373551,-0.213331,0.272002,0,0,3.64,-0.0875,-0.9975,0.339526,-0.45811,-0.709308,-0.0462,0.25088,0.33502
-8.96815,0,0,13.9682,13.9682,5,5,15.4623,-0.170268,-9.47503,-0.216023,-0.401985,0.244063,0,0,3.5,0.07,-0.98,-0.260226,-0.65575,-0.734562,-0.04718,0.25634,0.34146
-9.01232,0,0,14.0123,14.0123,5,5,15.5385,0.155543,-9.85048,0.303352,-0.189914,-0.282511,0,0,2.905,0.735,-0.7175,0.267058,-0.445178,-1.25672,-0.04718,0.25634,0.34146
-9.01183,0,0,14.0118,14.0118,5,5,15.5376,0.156615,-9.8499,0.303333,-0.189928,-0.282507,1,0,3.1325,0.6475,-0.07,0.267058,-0.445178,-1.25672,-0.04718,0.25634,0.34146
-9.01133,0,0,14.0113,14.0113,5,5,15.5368,0.156658,-9.8493,0.137504,-0.158312,-0.187218,1,0,3.115,0.07,0.105,0.100528,-0.41358,-1.16217,-0.04718,0.25634,0.34146
-8.93165,0,0,13.9317,13.9317,5,5,15.3994,0.410574,-10.1847,0.154454,0.100723,-0.0487743,0,0,3.2025,-0.14,0.3325,0.122,-0.1525,-1.02541,-0.04718,0.25634,0.34146
-8.85376,0,0,13.8538,13.8538,5,5,15.2651,0.657032,-10.518,0.150153,0.098452,-0.0481931,0,0,3.465,-0.2275,0.77,0.122,-0.1525,-1.02541,-0.04718,0.25634,0.34146
-8.84566,0,0,13.8457,13.8457,5,5,15.2511,1.14066,-11.003,0.391609,-0.0500796,-0.14514,0,0,4.3575,-0.2625,0.9975,0.372954,-0.300608,-1.12155,-0.04718,0.25634,0.34146
-8.84617,0,0,13.8462,13.8462,5,5,15.252,1.13951,-11.0017,0.391629,-0.0500648,-0.145144,1,0,4.0775,-0.49,0.7175,0.372954,-0.300608,-1.12155,-0.0462,0.26012,0.35
-8.93123,0,0,13.9312,13.9312,5,5,15.3987,1.48509,-11.3973,0.226696,-0.0900113,0.155393,0,0,3.885,-0.35,0.6475,0.213378,-0.342942,-0.822524,-0.0462,0.26012,0.35
-9.01377,0,0,14.0138,14.0138,5,5,15.541,1.82245,-11.7877,0.22081,-0.0876639,0.154567,0,0,2.9925,-0.245,0.63,0.213378,-0.342942,-0.822524,-0.0462,0.26012,0.35
-9.00194,0,0,14.0019,14.0019,5,5,15.5206,1.27567,-11.5941,-0.324718,0.0804753,0.157616,0,0,2.975,-0.07,0.6125,-0.34404,-0.174704,-0.81984,-0.0462,0.26012,0.35
-9.00181,0,0,14.0018,14.0018,5,5,15.5204,1.27589,-11.5919,-0.324722,0.0804714,0.157617,1,0,3.4475,0.42,0.98,-0.34404,-0.174704,-0.81984,-0.0462,0.26012,0.35
-9.00231,0,0,14.0023,14.0023,5,5,15.5212,1.27506,-11.5896,-0.247686,-0.287238,-0.0222603,1,0,4.06,-0.1575,1.19,-0.266692,-0.542046,-0.998326,-0.0462,0.26012,0.35
-9.00293,0,0,14.0029,14.0029,5,5,15.5223,1.27451,-11.5881,-0.247676,-0.28722,-0.0222651,1,0,4.1825,-0.1225,0.7,-0.266692,-0.542046,-0.998326,-0.0462,0.26012,0.35
-9.03023,0,0,14.0302,14.0302,5,5,15.5694,1.6366,-11.9952,0.24677,-0.0451491,0.0485473,0,0,4.165,0.105,0.49,0.236192,-0.300974,-0.927688,-0.0462,0.26012,0.35
-9.05726,0,0,14.0573,14.0573,5,5,15.616,1.99013,-12.4015,0.240603,-0.0444183,0.0481407,0,0,4.4975,0.2625,0.28,0.236192,-0.300974,-0.927688,-0.04872,0.26544,0.36078
-9.05709,0,0,14.0571,14.0571,5,5,15.6157,1.9889,-12.4004,0.473756,-0.396881,-0.17255,1,0,3.4125,-0.5775,0.56,0.47031,-0.653066,-1.14668,-0.04872,0.26544,0.36078
-9.05583,0,0,14.0558,14.0558,5,5,15.6135,1.98736,-12.4012,0.473782,-0.396917,-0.172539,1,0,2.3975,-1.0325,-0.4025,0.47031,-0.653066,-1.14668,-0.04872,0.26544,0.36078
-9.21404,0,0,14.214,14.214,5,5,15.8863,1.32038,-12.1102,-0.389521,-0.154221,0.173085,0,0,2.73,-0.7525,-0.805,-0.408334,-0.415288,-0.80276,-0.04872,0.26544,0.36078
-9.36838,0,0,14.3684,14.3684,5,5,16.1524,0.673293,-11.8257,-0.378229,-0.149703,0.171992,0,0,2.9575,0.84,-1.33,-0.408334,-0.415288,-0.80276,-0.04872,0.26544,0.36078
-9.54358,0,0,14.5436,14.5436,5,5,16.4545,0.135105,-11.6086,-0.293515,-0.17247,0.190739,0,0,3.22,0.77,-1.3125,-0.332694,-0.443104,-0.782752,-0.04872,0.26544,0.36078
-9.71595,0,0,14.716,14.716,5,5,16.7516,-0.388588,-11.3971,-0.284375,-0.167505,0.189238,0,0,4.4975,0.63,-1.3475,-0.332694,-0.443104,-0.782752,-0.04872,0.26544,0.36078
-9.80494,0,0,14.8049,14.8049,5,5,16.9051,-0.149494,-11.6923,0.188526,-0.159318,-0.000613344,0,0,4.2,-0.35,-1.505,0.1464,-0.437492,-0.970388,-0.04872,0.26544,0.36078
-9.89198,0,0,14.892,14.892,5,5,17.0551,0.0839563,-11.9836,0.184452,-0.156813,-0.00137598,0,0,3.9375,-0.28,-1.54,0.1464,-0.437492,-0.970388,-0.04872,0.26544,0.36078
-9.89216,0,0,14.8922,14.8922,5,5,17.0554,0.0848908,-11.9854,0.214442,-0.345738,-0.139818,1,0,3.78,0.1575,-1.4175,0.176534,-0.626226,-1.10776,-0.0434,0.26726,0.35672
-9.8914,0,0,14.8914,14.8914,5,5,17.0541,0.0856032,-11.9866,-0.119413,0.0507861,0.136208,1,0,2.87,0.14,-1.0325,-0.158722,-0.230092,-0.83387,-0.0434,0.26726,0.35672
-9.88961,0,0,14.8896,14.8896,5,5,17.051,0.0843825,-11.9889,-0.119391,0.0507346,0.136224,1,0,1.8725,-1.12,-1.2775,-0.158722,-0.230092,-0.83387,-0.0434,0.26726,0.35672
-9.8878,0,0,14.8878,14.8878,5,5,17.0479,0.0832011,-11.9907,0.11862,-0.14472,0.217878,1,0,1.855,-1.015,-1.015,0.080276,-0.425292,-0.752862,-0.0434,0.26726,0.35672
-9.88651,0,0,14.8865,14.8865,5,5,17.0457,0.0838519,-11.9925,0.118608,-0.144757,0.217889,1,0,2.3625,0,-1.365,0.080276,-0.425292,-0.752862,-0.0434,0.26726,0.35672
-9.8851,0,0,14.8851,14.8851,5,5,17.0433,0.0848454,-11.9942,0.410764,-0.0723768,0.0024961,1,0,2.24,0.21,-1.365,0.373686,-0.352946,-0.966606,-0.0434,0.26726,0.35672
-9.88635,0,0,14.8863,14.8863,5,5,17.0454,0.0870712,-11.995,0.410725,-0.0723408,0.00248502,1,0,4.8125,1.0675,-1.0325,0.373686,-0.352946,-0.966606,-0.0434,0.26726,0.35672
-9.88814,0,0,14.8881,14.8881,5,5,17.0485,0.0886862,-11.9948,0.437788,-0.123094,-0.212076,1,0,5.3375,0.8925,-0.385,0.400892,-0.403698,-1.1795,-0.04564,0.2618,0.36036
-9.88912,0,0,14.8891,14.8891,5,5,17.0502,0.0888799,-11.9951,-0.501907,-0.0215785,-0.194626,1,0,4.55,0,-0.455,-0.542778,-0.302316,-1.16217,-0.04564,0.2618,0.36036
-9.89021,0,0,14.8902,14.8902,5,5,17.0521,0.088621,-11.9954,-0.501902,-0.0215472,-0.194636,1,0,4.655,-0.245,-0.35,-0.542778,-0.302316,-1.16217,-0.04564,0.2618,0.36036
-9.88945,0,0,14.8894,14.8894,5,5,17.0508,0.0877711,-11.9959,0.184507,-0.110111,-0.232989,1,0,2.87,-0.6125,-0.3675,0.146522,-0.390766,-1.20024,-0.04564,0.2618,0.36036
-9.88807,0,0,14.8881,14.8881,5,5,17.0484,0.0855259,-11.995,0.184546,-0.11015,-0.232977,1,0,2.275,-1.155,0.6475,0.146522,-0.390766,-1.20024,-0.04564,0.2618,0.36036
-9.86416,0,0,14.8642,14.8642,5,5,17.0072,0.446263,-12.3728,0.216882,0.0416892,0.0889625,0,0,2.485,-1.365,1.05,0.185318,-0.238388,-0.880962,-0.04564,0.2618,0.36036
-9.84073,0,0,14.8407,14.8407,5,5,16.9668,0.798963,-12.7485,0.210727,0.0409955,0.0891045,0,0,2.5375,-0.63,0.2275,0.185318,-0.238388,-0.880962,-0.04564,0.2618,0.36036
-9.83972,0,0,14.8397,14.8397,5,5,16.965,0.799294,-12.7479,-0.230151,-0.278883,-0.0199421,1,0,2.625,0.245,0.07,-0.25742,-0.557906,-0.989176,-0.04564,0.2618,0.36036
-9.83872,0,0,14.8387,14.8387,5,5,16.9633,0.799624,-12.7473,-0.230156,-0.278912,-0.0199333,1,0,2.625,0.245,0.07,-0.25742,-0.557906,-0.989176,-0.04116,0.2723,0.35868
-9.75251,0,0,14.7525,14.7525,5,5,16.8147,1.20962,-13.1877,0.265761,0.101925,-0.050037,0,0,3.92,1.1725,0.91,0.247782,-0.174948,-1.01968,-0.04116,0.2723,0.35868
-9.6678,0,0,14.6678,14.6678,5,5,16.6686,1.60856,-13.6264,0.258801,0.0994356,-0.0494669,0,0,3.92,1.1725,0.91,0.247782,-0.174948,-1.01968,-0.04116,0.2723,0.35868
-9.66913,0,0,14.6691,14.6691,5,5,16.6709,1.60723,-13.627,0.192857,-0.175189,0.226787,1,0,4.9,-0.91,-0.385,0.181536,-0.449326,-0.745542,-0.04116,0.2723,0.35868
-9.67046,0,0,14.6705,14.6705,5,5,16.6732,1.6059,-13.6277,0.19288,-0.17515,0.226777,1,0,4.9,-0.91,-0.385,0.181536,-0.449326,-0.745542,-0.04116,0.2723,0.35868
-9.93854,0,0,14.9385,14.9385,5,5,17.1354,1.50268,-13.6927,0.00358416,-0.341207,0.195955,0,0,3.92,-1.2075,0.6825,-0.01037,-0.622932,-0.773846,-0.04116,0.2723,0.35868
-10.2014,0,0,15.2014,15.2014,5,5,17.5886,1.4046,-13.7585,0.00529551,-0.333647,0.193636,0,0,3.92,-1.2075,0.6825,-0.01037,-0.622932,-0.773846,-0.04116,0.2723,0.35868
-10.3903,0,0,15.3903,15.3903,5,5,17.9143,1.47988,-13.9457,0.106759,-0.286477,0.0845382,0,0,3.43,-0.175,-0.3325,0.092842,-0.581208,-0.880352,-0.04116,0.2723,0.35868
-10.3893,0,0,15.3893,15.3893,5,5,17.9126,1.48145,-13.9463,0.0767245,-0.00109572,-0.100491,1,0,2.66,0.7175,-0.8575,0.062708,-0.296094,-1.06396,-0.04312,0.2751,0.35588
-10.3892,0,0,15.3892,15.3892,5,5,17.9124,1.48406,-13.9472,0.076679,-0.00110057,-0.10049,1,0,3.465,1.2425,-1.19,0.062708,-0.296094,-1.06396,-0.04312,0.2751,0.35588
-10.3903,0,0,15.3903,15.3903,5,5,17.9143,1.48652,-13.9474,-0.424007,0.0725746,-0.106896,1,0,4.725,1.2775,-0.8225,-0.440054,-0.222528,-1.07031,-0.04312,0.2751,0.35588
-10.3911,0,0,15.3911,15.3911,5,5,17.9156,1.48856,-13.9482,-0.424042,0.0725958,-0.106903,1,0,4.34,0.945,-1.0325,-0.440054,-0.222528,-1.07031,-0.04312,0.2751,0.35588
-10.6425,0,0,15.6425,15.6425,5,5,18.3491,1.25616,-13.9313,-0.0903965,-0.337371,0.14792,0,0,4.795,0.9625,-1.47,-0.109068,-0.63928,-0.815204,-0.04312,0.2751,0.35588
-10.8871,0,0,15.8871,15.8871,5,5,18.7708,1.03062,-13.9174,-0.0864607,-0.33037,0.145652,0,0,3.22,0.105,-1.295,-0.109068,-0.63928,-0.815204,-0.04312,0.2751,0.35588
-10.8868,0,0,15.8868,15.8868,5,5,18.7703,1.03051,-13.9193,-0.112943,-0.0814847,0.440732,1,0,3.3075,-0.455,-1.225,-0.135664,-0.390644,-0.522404,-0.04312,0.2751,0.35588
-10.887,0,0,15.887,15.887,5,5,18.7706,1.02878,-13.9208,-0.112912,-0.0814793,0.440731,1,0,3.7975,-1.295,-0.735,-0.135664,-0.390644,-0.522404,-0.04312,0.2751,0.35588
-10.8876,0,0,15.8876,15.8876,5,5,18.7718,1.02686,-13.9219,0.0635182,0.14997,0.43175,1,0,4.27,-1.3125,-0.455,0.04148,-0.159454,-0.53131,-0.04312,0.2751,0.35588
-10.8876,0,0,15.8876,15.8876,5,5,18.7717,1.02592,-13.923,0.0635347,0.149969,0.43175,1,0,3.57,-0.7875,-0.6825,0.04148,-0.159454,-0.53131,-0.04452,0.27174,0.36582
-10.8884,0,0,15.8884,15.8884,5,5,18.7732,1.02602,-13.9234,-0.179196,-0.118319,0.43457,1,0,4.4275,-0.07,-0.4725,-0.202276,-0.427488,-0.528504,-0.04452,0.27174,0.36582
-10.8899,0,0,15.8899,15.8899,5,5,18.7757,1.02803,-13.9229,-0.179231,-0.118277,0.434555,1,0,5.0225,1.1725,-0.2975,-0.202276,-0.427488,-0.528504,-0.04452,0.27174,0.36582
-10.7691,0,0,15.7691,15.7691,5,5,18.5675,0.956712,-14.0439,-0.0735084,0.193863,0.0483279,0,0,4.9875,0.98,0,-0.097356,-0.11224,-0.912926,-0.04452,0.27174,0.36582
-10.6497,0,0,15.6497,15.6497,5,5,18.3615,0.883922,-14.1651,-0.0722382,0.190459,0.0494859,0,0,3.9725,-0.5775,-0.105,-0.097356,-0.11224,-0.912926,-0.04452,0.27174,0.36582
-10.6498,0,0,15.6498,15.6498,5,5,18.3618,0.882451,-14.1655,0.0784298,0.0768866,0.59513,1,0,3.78,-0.945,-0.1925,0.053924,-0.2257,-0.37149,-0.04452,0.27174,0.36582
-10.6494,0,0,15.6494,15.6494,5,5,18.361,0.881632,-14.165,0.0784441,0.0768734,0.595135,1,0,3.15,-0.42,0.175,0.053924,-0.2257,-0.37149,-0.04452,0.27174,0.36582
-10.6485,0,0,15.6485,15.6485,5,5,18.3595,0.880227,-14.1637,-0.180903,-0.0156014,0.279043,1,0,2.7475,-0.595,0.735,-0.206546,-0.318054,-0.685152,-0.04452,0.27174,0.36582
-10.6481,0,0,15.6481,15.6481,5,5,18.3589,0.878624,-14.163,-0.180875,-0.0156114,0.279046,1,0,3.255,-0.805,0.4725,-0.206546,-0.318054,-0.685152,-0.0441,0.27188,0.36946
-10.648,0,0,15.648,15.648,5,5,18.3586,0.877862,-14.1618,0.182745,-0.402025,0.0865109,1,0,3.43,-0.245,0.595,0.1586,-0.704062,-0.876204,-0.0441,0.27188,0.36946
-10.6478,0,0,15.6478,15.6478,5,5,18.3583,0.8771,-14.1606,0.182758,-0.40203,0.0865127,1,0,3.43,-0.245,0.595,0.1586,-0.704062,-0.876204,-0.0441,0.27188,0.36946
-10.6489,0,0,15.6489,15.6489,5,5,18.3602,0.87887,-14.159,0.122835,-0.34521,-0.309638,1,0,4.655,1.225,0.315,0.098454,-0.647332,-1.26929,-0.0441,0.27188,0.36946
-10.65,0,0,15.65,15.65,5,5,18.3621,0.880641,-14.1574,0.122804,-0.345178,-0.309649,1,0,4.655,1.225,0.315,0.098454,-0.647332,-1.26929,-0.0441,0.27188,0.36946
-10.6521,0,0,15.6521,15.6521,5,5,18.3657,0.88123,-14.1564,-0.175333,0.0277343,-0.19963,1,0,5.6175,0.4725,0.245,-0.200934,-0.274866,-1.1601,-0.0441,0.27188,0.36946
-10.6542,0,0,15.6542,15.6542,5,5,18.3693,0.881819,-14.1553,-0.175343,0.027794,-0.19965,1,0,5.6175,0.4725,0.245,-0.200934,-0.274866,-1.1601,-0.0441,0.27188,0.36946
-10.6539,0,0,15.6539,15.6539,5,5,18.3687,0.882219,-14.1546,0.295407,-0.179098,-0.160058,1,0,3.2725,0.2975,0.07,0.271816,-0.481534,-1.12081,-0.0441,0.27188,0.36946
-10.6535,0,0,15.6535,15.6535,5,5,18.3681,0.882619,-14.154,0.2954,-0.179108,-0.160055,1,0,3.2725,0.2975,0.07,0.271816,-0.481534,-1.12081,-0.0469,0.27706,0.37548
-10.6528,0,0,15.6528,15.6528,5,5,18.3668,0.882083,-14.1542,0.175017,0.210455,0.142283,1,0,2.87,-0.385,-0.245,0.150914,-0.092354,-0.820816,-0.0469,0.27706,0.37548
-10.652,0,0,15.652,15.652,5,5,18.3655,0.881548,-14.1544,0.175027,0.210433,0.14229,1,0,2.87,-0.385,-0.245,0.150914,-0.092354,-0.820816,-0.0469,0.27706,0.37548
-10.653,0,0,15.653,15.653,5,5,18.3672,0.88105,-14.155,-0.0884671,-0.542328,0.0730613,1,0,4.55,-0.4375,-0.4725,-0.113704,-0.844362,-0.889502,-0.0469,0.27706,0.37548
-10.6539,0,0,15.6539,15.6539,5,5,18.3689,0.880552,-14.1556,-0.0884584,-0.542301,0.0730522,1,0,4.55,-0.4375,-0.4725,-0.113704,-0.844362,-0.889502,-0.0469,0.27706,0.37548
-10.6559,0,0,15.6559,15.6559,5,5,18.3722,0.880971,-14.156,0.149403,-0.24047,-0.241715,1,0,5.495,0.105,-0.5425,0.125172,-0.5429,-1.20182,-0.0469,0.27706,0.37548
-10.6579,0,0,15.6579,15.6579,5,5,18.3756,0.88139,-14.1565,0.149396,-0.240414,-0.241733,1,0,5.495,0.105,-0.5425,0.125172,-0.5429,-1.20182,-0.0469,0.27706,0.37548
-10.6584,0,0,15.6584,15.6584,5,5,18.3766,0.88111,-14.1569,0.340619,0.401378,-0.559191,1,0,4.1475,-0.28,-0.4025,0.3172,0.09821,-1.51683,-0.0469,0.27706,0.37548
-10.659,0,0,15.659,15.659,5,5,18.3775,0.88083,-14.1573,0.340624,0.401394,-0.559197,1,0,4.1475,-0.28,-0.4025,0.3172,0.09821,-1.51683,-0.04914,0.2807,0.36946
-10.8187,0,0,15.8187,15.8187,5,5,18.6529,0.300962,-13.9238,-0.325324,-0.143952,0.180755,0,0,3.4125,0,-0.6125,-0.36173,-0.451156,-0.781166,-0.04914,0.2807,0.36946
-10.9744,0,0,15.9744,15.9744,5,5,18.9214,-0.26356,-13.6957,-0.315471,-0.139515,0.179249,0,0,3.4125,0,-0.6125,-0.36173,-0.451156,-0.781166,-0.04914,0.2807,0.36946
-10.9758,0,0,15.9758,15.9758,5,5,18.9238,-0.264419,-13.6964,0.429373,-0.42171,-0.20461,1,0,4.9525,-0.665,-0.4725,0.386252,-0.733098,-1.16205,-0.04914,0.2807,0.36946
-10.9772,0,0,15.9772,15.9772,5,5,18.9262,-0.265278,-13.6972,0.429388,-0.42167,-0.204623,1,0,4.9525,-0.665,-0.4725,0.386252,-0.733098,-1.16205,-0.04914,0.2807,0.36946
-10.9782,0,0,15.9782,15.9782,5,5,18.9279,-0.264928,-13.6978,0.206941,0.0220437,-0.649091,1,0,4.5325,0.0175,-0.665,0.16287,-0.289872,-1.60308,-0.04914,0.2807,0.36946
-10.9788,0,0,15.9788,15.9788,5,5,18.929,-0.264974,-13.6987,-0.167598,-0.144153,0.260967,1,0,4.2175,-0.2275,-0.665,-0.213256,-0.455914,-0.700036,-0.04914,0.2807,0.36946
-10.9838,0,0,15.9838,15.9838,5,5,18.9376,-0.265454,-13.6995,-0.16759,-0.14401,0.260918,1,0,8.435,-0.4725,-0.595,-0.213256,-0.455914,-0.700036,-0.04914,0.2807,0.36946
-10.9844,0,0,15.9844,15.9844,5,5,18.9386,-0.265685,-13.7006,0.695206,-0.0188148,-0.24293,1,0,4.13,-0.385,-0.7875,0.653188,-0.330864,-1.19999,-0.04802,0.27538,0.37226
-10.9856,0,0,15.9856,15.9856,5,5,18.9407,-0.2668,-13.7013,0.695225,-0.0187787,-0.242942,1,0,4.83,-0.805,-0.42,0.653188,-0.330864,-1.19999,-0.04802,0.27538,0.37226
-10.7469,0,0,15.7469,15.7469,5,5,18.5291,0.112614,-14.089,0.203997,0.344587,-0.0820232,0,0,4.06,0.14,-0.1925,0.16653,0.038918,-1.04261,-0.04802,0.27538,0.37226
-10.5123,0,0,15.5123,15.5123,5,5,18.1246,0.481483,-14.4793,0.197559,0.337874,-0.0798347,0,0,4.0775,-0.0875,-0.3325,0.16653,0.038918,-1.04261,-0.04802,0.27538,0.37226
-10.743,0,0,15.743,15.743,5,5,18.5224,0.372645,-14.5104,-0.014721,-0.279476,0.191433,0,0,4.06,-0.07,-0.0875,-0.048556,-0.58438,-0.771284,-0.04802,0.27538,0.37226
-10.9697,0,0,15.9697,15.9697,5,5,18.9133,0.269119,-14.5417,-0.0129141,-0.273011,0.189253,0,0,4.62,0.3325,0.1225,-0.048556,-0.58438,-0.771284,-0.04802,0.27538,0.37226
-10.9716,0,0,15.9716,15.9716,5,5,18.9166,0.268797,-14.5412,0.0850089,-0.195529,-0.122808,1,0,5.4075,-0.14,0.0875,0.049776,-0.507032,-1.08092,-0.04802,0.27538,0.37226
-10.9734,0,0,15.9734,15.9734,5,5,18.9197,0.268812,-14.5415,0.0850087,-0.195477,-0.122826,1,0,5.355,-0.0875,-0.3675,0.049776,-0.507032,-1.08092,-0.04802,0.27538,0.37226
-10.9751,0,0,15.9751,15.9751,5,5,18.9226,0.26861,-14.5417,0.048931,0.0060791,-0.107596,1,0,5.215,-0.21,-0.3325,0.013542,-0.305732,-1.06579,-0.03892,0.26908,0.35966
-10.9752,0,0,15.9752,15.9752,5,5,18.9227,0.268494,-14.5412,-0.0107165,0.0803348,0.115677,1,0,3.6925,-0.0175,0.07,-0.04636,-0.231556,-0.84424,-0.03892,0.26908,0.35966
-10.974,0,0,15.974,15.974,5,5,18.9207,0.268955,-14.5407,-0.0107245,0.0803014,0.115689,1,0,2.4675,0.315,0,-0.04636,-0.231556,-0.84424,-0.03892,0.26908,0.35966
-10.9729,0,0,15.9729,15.9729,5,5,18.9189,0.268762,-14.5399,0.242941,-0.2408,0.0147584,1,0,2.5725,-0.0175,0.21,0.208376,-0.552294,-0.944402,-0.03892,0.26908,0.35966
-10.9734,0,0,15.9734,15.9734,5,5,18.9196,0.269123,-14.5388,0.242935,-0.240788,0.0147542,1,0,4.0075,0.3675,0.3325,0.208376,-0.552294,-0.944402,-0.03892,0.26908,0.35966
-10.9747,0,0,15.9747,15.9747,5,5,18.9219,0.269691,-14.5376,0.0537715,-0.169428,-0.0977568,1,0,4.9,0.49,0.315,0.018422,-0.481046,-1.05603,-0.03892,0.26908,0.35966
-10.9766,0,0,15.9766,15.9766,5,5,18.9251,0.269894,-14.5368,0.053768,-0.169375,-0.0977749,1,0,5.39,0.2275,0.21,0.018422,-0.481046,-1.05603,-0.03892,0.26908,0.35966
-10.9784,0,0,15.9784,15.9784,5,5,18.9282,0.270022,-14.5361,0.0866884,-0.0359617,-0.307788,1,0,5.3375,0.1575,0.14,0.051484,-0.347822,-1.26441,-0.03892,0.26908,0.35966
-10.9793,0,0,15.9793,15.9793,5,5,18.9298,0.269934,-14.5354,0.0866899,-0.0359358,-0.307797,1,0,4.48,0.035,0.175,0.051484,-0.347822,-1.26441,-0.03906,0.26404,0.35938
-10.979,0,0,15.979,15.979,5,5,18.9294,0.269952,-14.535,-0.337053,-0.0254391,0.21031,1,0,3.395,0.035,-0.0175,-0.374052,-0.33733,-0.7503,-0.03906,0.26404,0.35938
-10.9791,0,0,15.9791,15.9791,5,5,18.9294,0.270615,-14.5348,-0.337064,-0.0254385,0.21031,1,0,3.6225,0.35,-0.2625,-0.374052,-0.33733,-0.7503,-0.03906,0.26404,0.35938
-10.9787,0,0,15.9787,15.9787,5,5,18.9288,0.270298,-14.5349,-0.213629,0.0866631,0.499611,1,0,3.2375,-0.245,-0.2275,-0.2501,-0.225334,-0.463234,-0.03906,0.26404,0.35938
-10.9788,0,0,15.9788,15.9788,5,5,18.929,0.269786,-14.5354,-0.21362,0.0866662,0.49961,1,0,3.71,-0.42,-0.385,-0.2501,-0.225334,-0.463234,-0.03906,0.26404,0.35938
-11.0184,0,0,16.0184,16.0184,5,5,18.9973,0.465897,-14.7766,0.144134,-0.0719551,0.0166289,0,0,3.9375,-0.385,-0.5075,0.112606,-0.38491,-0.942084,-0.03906,0.26404,0.35938
-11.058,0,0,16.058,16.058,5,5,19.0655,0.658453,-15.0144,0.140774,-0.0708399,0.0162094,0,0,4.5325,0.4725,-0.4025,0.112606,-0.38491,-0.942084,-0.03906,0.26404,0.35938
-11.059,0,0,16.059,16.059,5,5,19.0672,0.659036,-15.0147,0.636668,0.103951,-0.00248832,1,0,4.5325,0.21,-0.525,0.61061,-0.210328,-0.960628,-0.03906,0.26404,0.35938
-11.0605,0,0,16.0605,16.0605,5,5,19.0698,0.658314,-15.0157,0.636681,0.103994,-0.00250326,1,0,5.0925,-0.63,-0.6125,0.61061,-0.210328,-0.960628,-0.03906,0.26404,0.35938
-11.0618,0,0,16.0618,16.0618,5,5,19.0721,0.657803,-15.0169,-0.0670771,-0.065357,-0.214726,1,0,4.9175,-0.56,-0.7875,-0.096136,-0.379542,-1.1712,-0.04564,0.26124,0.357
-11.0486,0,0,16.0486,16.0486,5,5,19.0494,1.41927,-15.5907,0.471059,0.0368972,0.200865,0,0,4.375,-0.5775,-0.6825,0.457622,-0.27694,-0.758718,-0.04564,0.26124,0.357
-11.0346,0,0,16.0346,16.0346,5,5,19.0252,2.16261,-16.1579,0.458091,0.0363659,0.20062,0,0,3.6225,-0.35,-0.455,0.457622,-0.27694,-0.758718,-0.04564,0.26124,0.357
-11.3738,0,0,16.3738,16.3738,5,5,19.61,2.00968,-16.1012,-0.0204462,-0.355285,0.354466,0,0,2.6775,-0.5775,-0.35,-0.02562,-0.677832,-0.602802,-0.04564,0.26124,0.357
-11.7069,0,0,16.7069,16.7069,5,5,20.1843,1.86391,-16.0481,-0.0179034,-0.345836,0.351137,0,0,2.9575,-0.2275,-0.455,-0.02562,-0.677832,-0.602802,-0.04564,0.26124,0.357
-11.7071,0,0,16.7071,16.7071,5,5,20.1846,1.86397,-16.0486,-0.152268,-0.120018,0.194376,1,0,3.7975,-0.105,-0.49,-0.160552,-0.452254,-0.758352,-0.04564,0.26124,0.357
-11.7076,0,0,16.7076,16.7076,5,5,20.1855,1.86452,-16.0486,-0.152277,-0.120003,0.19437,1,0,4.13,0.2625,-0.315,-0.160552,-0.452254,-0.758352,-0.04564,0.26124,0.357
-11.7089,0,0,16.7089,16.7089,5,5,20.1878,1.86412,-16.0485,-0.267682,0.0838633,-0.11031,1,0,4.8475,-0.2625,-0.1225,-0.276452,-0.248636,-1.06067,-0.04564,0.26124,0.357
-11.7095,0,0,16.7095,16.7095,5,5,20.1888,1.86366,-16.0479,-0.267674,0.0838806,-0.110316,1,0,4.1825,-0.175,0.1925,-0.276452,-0.248636,-1.06067,-0.0448,0.2611,0.36344
-11.5699,0,0,16.5699,16.5699,5,5,19.9481,1.91566,-16.2292,0.000996072,0.195457,-0.098944,0,0,4.1825,-0.105,0.3675,-0.005734,-0.133224,-1.05079,-0.0448,0.2611,0.36344
-11.433,0,0,16.433,16.433,5,5,19.712,1.96483,-16.4098,0.000138368,0.191574,-0.0975745,0,0,4.2,-0.42,0.5075,-0.005734,-0.133224,-1.05079,-0.0448,0.2611,0.36344
-11.522,0,0,16.522,16.522,5,5,19.8656,1.76046,-16.3839,-0.116811,-0.121075,0.0229777,0,0,4.1825,0.105,0.77,-0.126758,-0.448106,-0.930372,-0.0448,0.2611,0.36344
-11.6093,0,0,16.6093,16.6093,5,5,20.016,1.56212,-16.3587,-0.11335,-0.118574,0.0221772,0,0,4.3925,0.1925,0.98,-0.126758,-0.448106,-0.930372,-0.0448,0.2611,0.36344
-11.6269,0,0,16.6269,16.6269,5,5,20.0463,2.07975,-16.7693,0.337443,-0.0246262,0.115659,0,0,4.83,0.2625,1.0325,0.335012,-0.354654,-0.837164,-0.0448,0.2611,0.36344
-11.6441,0,0,16.6441,16.6441,5,5,20.076,2.58363,-17.1755,0.328656,-0.0242633,0.115145,0,0,4.6025,-0.1575,0.7875,0.335012,-0.354654,-0.837164,-0.0448,0.2611,0.36344
-11.6453,0,0,16.6453,16.6453,5,5,20.0781,2.58326,-17.1741,-0.0981165,0.00850211,0.108002,1,0,4.7775,0.035,0.63,-0.093574,-0.321958,-0.84424,-0.0448,0.2611,0.36344
-11.6507,0,0,16.6507,16.6507,5,5,20.0874,2.58269,-17.1729,-0.0981066,0.00865397,0.107947,1,0,8.7675,-0.1225,0.5425,-0.093574,-0.321958,-0.84424,-0.03948,0.26516,0.3535
-11.9845,0,0,16.9845,16.9845,5,5,20.663,2.17187,-16.9611,-0.205382,-0.464967,0.225712,0,0,3.85,0.49,0.28,-0.208498,-0.80459,-0.724192,-0.03948,0.26516,0.3535
-12.3074,0,0,17.3074,17.3074,5,5,21.2197,1.77371,-16.7587,-0.198437,-0.455812,0.222465,0,0,0.1225,0.455,-0.105,-0.208498,-0.80459,-0.724192,-0.03948,0.26516,0.3535
-12.5329,0,0,17.5329,17.5329,5,5,21.6085,1.54227,-16.6851,-0.0972109,-0.277012,0.172885,0,0,3.4125,0.455,-0.3325,-0.110898,-0.632326,-0.77104,-0.03948,0.26516,0.3535
-12.7541,0,0,17.7541,17.7541,5,5,21.9899,1.31873,-16.6155,-0.0933104,-0.270796,0.170504,0,0,3.9375,0.3325,-0.7175,-0.110898,-0.632326,-0.77104,-0.03948,0.26516,0.3535
-12.6739,0,0,17.6739,17.6739,5,5,21.8515,1.54651,-16.8804,0.124427,0.11187,0.0106197,0,0,3.9725,-0.6825,-1.3125,0.111752,-0.247782,-0.930494,-0.03948,0.26516,0.3535
-12.5997,0,0,17.5997,17.5997,5,5,21.7237,1.76903,-17.1441,0.120544,0.109757,0.0113432,0,0,8.295,-0.035,-1.75,0.111752,-0.247782,-0.930494,-0.03948,0.26516,0.3535
-12.601,0,0,17.601,17.601,5,5,21.7259,1.77008,-17.1469,-0.0325458,-0.152046,0.30788,1,0,4.9175,-0.0875,-1.9775,-0.041968,-0.50935,-0.63623,-0.03948,0.26516,0.3535
-12.6024,0,0,17.6024,17.6024,5,5,21.7282,1.77106,-17.1495,-0.0325629,-0.15201,0.307865,1,0,4.9175,-0.0875,-1.8725,-0.041968,-0.50935,-0.63623,-0.04214,0.26166,0.35182
-12.6034,0,0,17.6034,17.6034,5,5,21.7299,1.77216,-17.1524,-0.0308813,-0.169201,-0.0629598,1,0,4.6375,-0.07,-2.0125,-0.04026,-0.526552,-1.00418,-0.04214,0.26166,0.35182
-12.6034,0,0,17.6034,17.6034,5,5,21.73,1.7723,-17.1554,-0.0308837,-0.169201,-0.0629601,1,0,3.675,-0.6125,-1.855,-0.04026,-0.526552,-1.00418,-0.04214,0.26166,0.35182
-12.6033,0,0,17.6033,17.6033,5,5,21.7298,1.77265,-17.1576,0.131172,-0.0211859,-0.147302,1,0,3.5525,-0.35,-1.5225,0.122488,-0.378688,-1.08787,-0.04214,0.26166,0.35182
-12.6033,0,0,17.6033,17.6033,5,5,21.7299,1.77292,-17.159,0.131167,-0.0211851,-0.147302,1,0,3.6575,-0.21,-1.0675,0.122488,-0.378688,-1.08787,-0.04214,0.26166,0.35182
-12.4967,0,0,17.4967,17.4967,5,5,21.546,1.70627,-17.2551,-0.0676353,0.178699,0.0393194,0,0,3.675,-0.07,-0.8225,-0.078324,-0.176046,-0.903898,-0.04214,0.26166,0.35182
-12.3931,0,0,17.3931,17.3931,5,5,21.3674,1.64006,-17.3494,-0.0664802,0.175811,0.0404908,0,0,4.62,-0.1575,-0.1925,-0.078324,-0.176046,-0.903898,-0.04214,0.26166,0.35182
-12.394,0,0,17.394,17.394,5,5,21.3689,1.63968,-17.349,-0.0586985,-0.0141929,0.190355,1,0,4.4625,-0.1575,0.105,-0.070516,-0.365878,-0.75518,-0.04214,0.26166,0.35182
-12.395,0,0,17.395,17.395,5,5,21.3707,1.63986,-17.347,-0.0587017,-0.0141646,0.190344,1,0,4.55,0.4725,0.805,-0.070516,-0.365878,-0.75518,-0.04634,0.25732,0.35994
-12.3959,0,0,17.3959,17.3959,5,5,21.3722,1.63981,-17.3447,0.0434687,-0.0262307,0.180376,1,0,4.41,0.42,1.05,0.032086,-0.377956,-0.765062,-0.04634,0.25732,0.35994
-12.3966,0,0,17.3966,17.3966,5,5,21.3734,1.63889,-17.3414,0.0434848,-0.0262107,0.180369,1,0,4.235,0.14,1.7325,0.032086,-0.377956,-0.765062,-0.04634,0.25732,0.35994
-12.2226,0,0,17.2226,17.2226,5,5,21.0735,1.87103,-17.6104,0.117429,0.240599,-0.0820692,0,0,4.515,-0.3675,1.8375,0.11041,-0.106506,-1.02724,-0.04634,0.25732,0.35994
-12.0518,0,0,17.0518,17.0518,5,5,20.779,2.09602,-17.8793,0.113505,0.235753,-0.0803618,0,0,4.4275,-0.5075,1.925,0.11041,-0.106506,-1.02724,-0.04634,0.25732,0.35994
-11.9844,0,0,16.9844,16.9844,5,5,20.6628,2.35411,-18.1443,0.159298,0.080282,-0.0216536,0,0,4.6025,-0.665,1.7675,0.160918,-0.25986,-0.969534,-0.04634,0.25732,0.35994
-11.9185,0,0,16.9185,16.9185,5,5,20.5492,2.60534,-18.4075,0.154918,0.0783607,-0.0211339,0,0,4.655,-0.455,1.7325,0.160918,-0.25986,-0.969534,-0.04634,0.25732,0.35994
-11.9192,0,0,16.9192,16.9192,5,5,20.5503,2.60477,-18.4049,-0.013573,-0.288367,0.413729,1,0,4.165,0.175,1.3125,-0.008296,-0.626226,-0.53802,-0.04634,0.25732,0.35994
-11.9196,0,0,16.9196,16.9196,5,5,20.5511,2.60443,-18.4035,-0.0135672,-0.288354,0.413724,1,0,4.025,0.0525,0.595,-0.008296,-0.626226,-0.53802,-0.04928,0.26418,0.35812
-11.9071,0,0,16.9071,16.9071,5,5,20.5295,3.01902,-18.7529,0.264454,0.0108681,0.0762757,0,0,3.9375,0.2275,0.315,0.27816,-0.326838,-0.872666,-0.04928,0.26418,0.35812
-11.8956,0,0,16.8956,16.8956,5,5,20.5096,3.42349,-19.0998,0.257406,0.0104043,0.0760257,0,0,4.4625,0.4025,-0.6125,0.27816,-0.326838,-0.872666,-0.04928,0.26418,0.35812
-11.9101,0,0,16.9101,16.9101,5,5,20.5346,3.56628,-19.2955,0.0975943,-0.0245358,0.0264284,0,0,4.9,0.315,-0.9625,0.12017,-0.362096,-0.921588,-0.04928,0.26418,0.35812
-11.9247,0,0,16.9247,16.9247,5,5,20.5598,3.70539,-19.4899,0.0951713,-0.0241792,0.0261304,0,0,5.1625,0.1225,-1.4525,0.12017,-0.362096,-0.921588,-0.04928,0.26418,0.35812
-12.0605,0,0,17.0605,17.0605,5,5,20.7939,3.68487,-19.5508,0.0189929,-0.165931,0.111637,0,0,4.725,0.1575,-1.82,0.04331,-0.50752,-0.835334,-0.04928,0.26418,0.35812
-12.1929,0,0,17.1929,17.1929,5,5,21.0222,3.66525,-19.6119,0.0193345,-0.162209,0.110238,0,0,4.13,-0.42,-2.03,0.04331,-0.50752,-0.835334,-0.04928,0.26418,0.35812
-12.1928,0,0,17.1928,17.1928,5,5,21.0221,3.666,-19.6154,-0.522262,-0.174179,-0.0215627,1,0,3.675,-0.3675,-2.275,-0.500566,-0.519476,-0.966118,-0.04928,0.26418,0.35812
-12.1929,0,0,17.1929,17.1929,5,5,21.0223,3.66695,-19.6189,-0.522278,-0.174176,-0.021565,1,0,3.85,-0.2625,-2.3275,-0.500566,-0.519476,-0.966118,-0.04928,0.26418,0.35812
-12.1937,0,0,17.1937,17.1937,5,5,21.0236,3.66756,-19.6226,0.127781,-0.123107,-0.147842,1,0,4.445,-0.49,-2.3625,0.152256,-0.46848,-1.09141,-0.04676,0.26026,0.35532
-12.1954,0,0,17.1954,17.1954,5,5,21.0266,3.66817,-19.6253,-0.242761,-0.147362,-0.128435,1,0,5.3725,-0.2975,-1.855,-0.219844,-0.492758,-1.07214,-0.04676,0.26026,0.35532
-12.1974,0,0,17.1974,17.1974,5,5,21.03,3.66915,-19.6268,-0.242778,-0.147306,-0.128458,1,0,5.5825,0.175,-1.2425,-0.219844,-0.492758,-1.07214,-0.04676,0.26026,0.35532
-12.1913,0,0,17.1913,17.1913,5,5,21.0195,3.18261,-19.4591,-0.31023,0.0893868,0.0909299,0,0,5.1975,-0.245,-1.015,-0.296094,-0.256322,-0.854976,-0.04676,0.26026,0.35532
-12.1842,0,0,17.1842,17.1842,5,5,21.0072,2.70691,-19.2905,-0.301938,0.0893389,0.0914053,0,0,4.795,-0.28,-0.1225,-0.296094,-0.256322,-0.854976,-0.04676,0.26026,0.35532
-12.1847,0,0,17.1847,17.1847,5,5,21.0081,2.70586,-19.29,0.386904,0.025848,-0.034007,1,0,4.095,-0.5075,0.28,0.395646,-0.319762,-0.979416,-0.04676,0.26026,0.35532
-12.1852,0,0,17.1852,17.1852,5,5,21.009,2.70477,-19.288,0.386923,0.0258636,-0.0340121,1,0,4.0775,-0.2275,1.085,0.395646,-0.319762,-0.979416,-0.04676,0.26026,0.35532
-12.2168,0,0,17.2168,17.2168,5,5,21.0635,2.35662,-19.1747,-0.241405,-0.038613,-0.0535287,0,0,4.3925,-0.2975,1.1725,-0.241438,-0.385154,-0.998692,-0.04676,0.26026,0.35532
-12.2473,0,0,17.2473,17.2473,5,5,21.116,2.01716,-19.0717,-0.235485,-0.0376784,-0.0536468,0,0,4.4275,-0.4025,1.4875,-0.241438,-0.385154,-0.998692,-0.04606,0.26474,0.35294
-12.3109,0,0,17.3109,17.3109,5,5,21.2256,2.22765,-19.2678,0.141702,-0.0596364,0.133278,0,0,5.25,-0.0175,1.68,0.141032,-0.408822,-0.812398,-0.04606,0.26474,0.35294
-12.3735,0,0,17.3735,17.3735,5,5,21.3335,2.43354,-19.4615,0.138111,-0.0579359,0.132459,0,0,5.215,0.1925,1.435,0.141032,-0.408822,-0.812398,-0.04606,0.26474,0.35294
-12.3755,0,0,17.3755,17.3755,5,5,21.3371,2.43312,-19.4586,0.0660774,-0.2142,-0.0628057,1,0,5.53,0.3325,1.4175,0.068686,-0.564982,-1.00613,-0.04606,0.26474,0.35294
-12.377,0,0,17.377,17.377,5,5,21.3397,2.43278,-19.4563,0.0660833,-0.214158,-0.062822,1,0,5.005,0.245,1.0675,0.068686,-0.564982,-1.00613,-0.04606,0.26474,0.35294
-12.3788,0,0,17.3788,17.3788,5,5,21.3428,2.43248,-19.4544,0.0312222,0.107331,0.198178,1,0,5.32,0.1925,0.875,0.033672,-0.243878,-0.747128,-0.04606,0.26474,0.35294
-12.3802,0,0,17.3802,17.3802,5,5,21.3453,2.43235,-19.4534,0.0312244,0.10737,0.198163,1,0,4.935,0.105,0.3675,0.033672,-0.243878,-0.747128,-0.04606,0.26474,0.35294
-12.5277,0,0,17.5277,17.5277,5,5,21.5995,2.48281,-19.5321,0.0595011,-0.142786,0.192079,0,0,5.0575,0.315,0.245,0.062952,-0.497882,-0.75152,-0.04606,0.26474,0.35294
-12.6721,0,0,17.6721,17.6721,5,5,21.8485,2.53428,-19.6046,0.0586037,-0.138767,0.190435,0,0,5.145,-0.035,-0.175,0.062952,-0.497882,-0.75152,-0.04438,0.26012,0.35238
-12.6732,0,0,17.6732,17.6732,5,5,21.8503,2.53419,-19.6049,0.203173,-0.230699,-0.0220318,1,0,4.62,-0.1575,-0.3675,0.208132,-0.589748,-0.962336,-0.04438,0.26012,0.35238
-12.6745,0,0,17.6745,17.6745,5,5,21.8525,2.53478,-19.6061,0.203163,-0.230664,-0.0220464,1,0,4.865,0,-1.0325,0.208132,-0.589748,-0.962336,-0.04438,0.26012,0.35238
-12.6751,0,0,17.6751,17.6751,5,5,21.8537,2.53558,-19.6076,0.0319756,0.00908946,-0.296844,1,0,4.2875,0.0525,-1.225,0.036234,-0.350262,-1.23501,-0.04438,0.26012,0.35238
-12.6757,0,0,17.6757,17.6757,5,5,21.8546,2.53639,-19.6091,0.0319615,0.00910436,-0.296851,1,0,4.165,0.07,-1.2075,0.036234,-0.350262,-1.23501,-0.04438,0.26012,0.35238
-12.7367,0,0,17.7367,17.7367,5,5,21.9598,2.27555,-19.5329,-0.165156,-0.0704589,0.00841482,0,0,4.62,0.8225,-1.19,-0.166286,-0.431514,-0.931592,-0.04438,0.26012,0.35238
-12.7961,0,0,17.7961,17.7961,5,5,22.0622,2.02061,-19.4584,-0.16071,-0.0687408,0.00790018,0,0,4.69,0.0525,-1.2075,-0.166286,-0.431514,-0.931592,-0.04438,0.26012,0.35238
-12.8564,0,0,17.8564,17.8564,5,5,22.1662,2.13307,-19.5859,0.0794496,-0.0541407,0.112518,0,0,5.215,0.49,-1.0675,0.07686,-0.418582,-0.827038,-0.04438,0.26012,0.35238
-12.9155,0,0,17.9155,17.9155,5,5,22.2681,2.24246,-19.712,0.0775418,-0.0525239,0.111779,0,0,4.97,0.245,-0.805,0.07686,-0.418582,-0.827038,-0.04536,0.26096,0.35252
-12.9173,0,0,17.9173,17.9173,5,5,22.2711,2.24288,-19.7125,-0.265177,-0.0104634,-0.0816395,1,0,5.32,0.0525,-0.63,-0.267302,-0.376614,-1.01894,-0.04536,0.26096,0.35252
-12.9185,0,0,17.9185,17.9185,5,5,22.2733,2.24286,-19.7131,-0.265176,-0.0104279,-0.081654,1,0,4.8475,-0.175,-0.5075,-0.267302,-0.376614,-1.01894,-0.04536,0.26096,0.35252
-12.8434,0,0,17.8434,17.8434,5,5,22.1437,2.66037,-20.0526,0.271435,0.0781024,-0.0174012,0,0,5.18,-0.7175,-0.455,0.278892,-0.285968,-0.955748,-0.04536,0.26096,0.35252
-12.7695,0,0,17.7695,17.7695,5,5,22.0164,3.06679,-20.3894,0.26435,0.0759128,-0.0168954,0,0,4.8825,-0.455,-0.245,0.278892,-0.285968,-0.955748,-0.04536,0.26096,0.35252
-12.7704,0,0,17.7704,17.7704,5,5,22.0179,3.06603,-20.3894,0.0475117,-0.0676838,-0.119444,1,0,4.445,-0.4725,-0.0875,0.061122,-0.42944,-1.0575,-0.04536,0.26096,0.35252
-12.7717,0,0,17.7717,17.7717,5,5,22.0201,3.06574,-20.3893,0.0475168,-0.0676478,-0.119458,1,0,4.8475,-0.1925,-0.1225,0.061122,-0.42944,-1.0575,-0.04536,0.26096,0.35252
-12.7727,0,0,17.7727,17.7727,5,5,22.0219,3.06542,-20.3892,0.0945373,-0.133079,-0.119838,1,0,4.6025,-0.1925,-0.0875,0.108336,-0.494832,-1.05786,-0.04536,0.26096,0.35252
-12.774,0,0,17.774,17.774,5,5,22.0241,3.06529,-20.3888,0.0945395,-0.133044,-0.119852,1,0,4.795,-0.035,0,0.108336,-0.494832,-1.05786,-0.04046,0.26082,0.34986
-12.7756,0,0,17.7756,17.7756,5,5,22.0269,3.0651,-20.3883,-0.109432,0.0323611,0.108445,1,0,5.1625,-0.035,0.105,-0.096502,-0.329644,-0.831308,-0.04046,0.26082,0.34986
-12.7769,0,0,17.7769,17.7769,5,5,22.0291,3.06415,-20.3876,-0.109415,0.0323968,0.108432,1,0,4.8125,-0.42,0.3325,-0.096502,-0.329644,-0.831308,-0.04046,0.26082,0.34986
-12.7784,0,0,17.7784,17.7784,5,5,22.0317,3.06321,-20.3869,0.0134234,-0.17481,-0.341945,1,0,5.04,-0.4025,0.3675,0.02684,-0.536678,-1.27819,-0.04046,0.26082,0.34986
-12.7793,0,0,17.7793,17.7793,5,5,22.0333,3.06213,-20.3863,0.0134422,-0.174783,-0.341955,1,0,4.515,-0.49,0.3675,0.02684,-0.536678,-1.27819,-0.04046,0.26082,0.34986
-12.6813,0,0,17.6813,17.6813,5,5,21.8643,3.08736,-20.5315,-0.0104443,0.149165,-0.0135865,0,0,4.9875,-0.7875,0.035,0.003294,-0.210328,-0.95343,-0.04046,0.26082,0.34986
-12.585,0,0,17.585,17.585,5,5,21.6982,3.11158,-20.675,-0.0108663,0.146469,-0.0125338,0,0,4.7775,-0.4375,0.3675,0.003294,-0.210328,-0.95343,-0.04046,0.26082,0.34986
-12.5533,0,0,17.5533,17.5533,5,5,21.6437,3.20511,-20.8349,0.0585729,0.0295321,-0.03993,0,0,4.935,-0.0525,0.28,0.074664,-0.326228,-0.98088,-0.04046,0.26082,0.34986
-12.5223,0,0,17.5223,17.5223,5,5,21.5902,3.29618,-20.9939,0.0569859,0.028633,-0.0396707,0,0,4.8475,-0.035,-0.0175,0.074664,-0.326228,-0.98088,-0.04046,0.26082,0.34986
-12.7061,0,0,17.7061,17.7061,5,5,21.907,3.29727,-21.016,0.0512571,-0.263863,0.114919,0,0,4.2875,0.1575,-0.07,0.06893,-0.623542,-0.825452,-0.04522,0.2611,0.34748
-12.8862,0,0,17.8862,17.8862,5,5,22.2176,3.30026,-21.0382,0.051205,-0.258849,0.112884,0,0,4.2525,0.3675,-0.2275,0.06893,-0.623542,-0.825452,-0.04522,0.2611,0.34748
-12.8869,0,0,17.8869,17.8869,5,5,22.2187,3.30035,-21.038,0.0991903,-0.0164094,-0.093554,1,0,4.235,0.035,-0.1575,0.11712,-0.381372,-1.03029,-0.04522,0.2611,0.34748
-12.8882,0,0,17.8882,17.8882,5,5,22.221,3.30036,-21.0383,0.0991902,-0.0163735,-0.0935687,1,0,4.865,-0.1225,-0.42,0.11712,-0.381372,-1.03029,-0.04522,0.2611,0.34748
-12.8198,0,0,17.8198,17.8198,5,5,22.103,3.32074,-21.165,-0.00746497,0.109826,0.0049315,0,0,5.18,-0.0875,-0.595,0.01037,-0.253394,-0.9333,-0.04522,0.2611,0.34748
-12.7529,0,0,17.7529,17.7529,5,5,21.9877,3.34007,-21.2909,-0.00780181,0.107957,0.00566735,0,0,5.355,-0.1575,-0.7525,0.01037,-0.253394,-0.9333,-0.04522,0.2611,0.34748
-12.8303,0,0,17.8303,17.8303,5,5,22.1213,3.12669,-21.2342,-0.125326,-0.0839889,0.0411352,0,0,5.11,-0.105,-0.8925,-0.111386,-0.447374,-0.897432,-0.04522,0.2611,0.34748
-12.9055,0,0,17.9055,17.9055,5,5,22.2508,2.92003,-21.1785,-0.121724,-0.0818269,0.0404589,0,0,4.76,0.2975,-0.945,-0.111386,-0.447374,-0.897432,-0.04522,0.2611,0.34748
-12.9061,0,0,17.9061,17.9061,5,5,22.2518,2.92089,-21.1791,0.0397151,-0.192701,-0.115816,1,0,4.2175,0.28,-0.7525,0.050752,-0.55815,-1.05249,-0.04662,0.25732,0.34622
-12.8533,0,0,17.8533,17.8533,5,5,22.1609,3.26026,-21.4583,0.228299,0.0406819,-0.0301864,0,0,4.795,-0.0525,-0.7,0.246074,-0.323422,-0.967826,-0.04662,0.25732,0.34622
-12.8027,0,0,17.8027,17.8027,5,5,22.0737,3.58993,-21.7351,0.222556,0.0391452,-0.0299329,0,0,5.67,-0.315,-0.595,0.246074,-0.323422,-0.967826,-0.04662,0.25732,0.34622
-12.8049,0,0,17.8049,17.8049,5,5,22.0774,3.59005,-21.7359,-0.0914869,-0.228863,-0.0919235,1,0,5.7225,-0.1575,-0.6825,-0.069296,-0.591212,-1.02931,-0.04662,0.25732,0.34622
-12.8068,0,0,17.8068,17.8068,5,5,22.0807,3.59049,-21.7356,-0.0914946,-0.228809,-0.0919458,1,0,5.46,0.2625,-0.1575,-0.069296,-0.591212,-1.02931,-0.04662,0.25732,0.34622
-12.8124,0,0,17.8124,17.8124,5,5,22.0904,3.54647,-21.7898,-0.0263403,-0.031523,-0.0722929,0,0,4.8125,0.14,0,-0.004636,-0.394304,-1.00979,-0.04662,0.25732,0.34622
-12.8173,0,0,17.8173,17.8173,5,5,22.0988,3.50338,-21.8431,-0.0255897,-0.0313693,-0.0723054,0,0,4.305,0.07,0.21,-0.004636,-0.394304,-1.00979,-0.04662,0.25732,0.34622
-12.8527,0,0,17.8527,17.8527,5,5,22.1598,3.3951,-21.8479,-0.0642796,-0.0397457,0.012357,0,0,4.2175,-0.1925,0.245,-0.045384,-0.403698,-0.925492,-0.04662,0.25732,0.34622
-12.8874,0,0,17.8874,17.8874,5,5,22.2197,3.28944,-21.8521,-0.0624386,-0.0387395,0.0120627,0,0,4.34,-0.1225,0.4725,-0.045384,-0.403698,-0.925492,-0.0504,0.25956,0.34846
-12.8888,0,0,17.8888,17.8888,5,5,22.222,3.28845,-21.8513,0.111182,0.0774415,-0.246144,1,0,4.9,-0.4025,0.4375,0.128954,-0.287676,-1.18169,-0.0504,0.25956,0.34846
-12.8905,0,0,17.8905,17.8905,5,5,22.2251,3.28761,-21.8508,0.111196,0.0774911,-0.246163,1,0,5.3025,-0.4025,0.21,0.128954,-0.287676,-1.18169,-0.0504,0.25956,0.34846
-12.892,0,0,17.892,17.892,5,5,22.2277,3.28646,-21.8506,0.00443057,-0.20287,-0.0259783,1,0,5.04,-0.6125,0.175,0.021716,-0.567788,-0.96319,-0.0504,0.25956,0.34846
-12.8926,0,0,17.8926,17.8926,5,5,22.2286,3.28611,-21.8507,0.00443666,-0.202854,-0.0259843,1,0,4.1475,-0.2625,-0.21,0.021716,-0.567788,-0.96319,-0.0504,0.25956,0.34846
-12.7975,0,0,17.7975,17.7975,5,5,22.0647,3.06292,-21.8392,-0.165884,0.184898,0.0495534,0,0,3.7625,-0.0875,-0.21,-0.153232,-0.177876,-0.889502,-0.0504,0.25956,0.34846
-12.7039,0,0,17.7039,17.7039,5,5,21.9034,2.84465,-21.8272,-0.16208,0.182364,0.050788,0,0,3.7625,-0.0525,-0.3675,-0.153232,-0.177876,-0.889502,-0.0504,0.25956,0.34846
-12.6902,0,0,17.6902,17.6902,5,5,21.8797,2.72125,-21.8355,-0.0912893,0.00359293,-0.0939173,0,0,4.3575,-0.245,-0.5775,-0.084302,-0.356118,-1.03334,-0.0504,0.25956,0.34846
-12.6771,0,0,17.6771,17.6771,5,5,21.857,2.60193,-21.8483,-0.0892091,0.00326224,-0.0936804,0,0,4.9525,0,-0.9625,-0.084302,-0.356118,-1.03334,-0.04844,0.26124,0.34986
-12.6786,0,0,17.6786,17.6786,5,5,21.8596,2.60238,-21.8493,-0.16879,-0.319966,0.0178168,1,0,5.075,-0.035,-0.8925,-0.164212,-0.679052,-0.922686,-0.04844,0.26124,0.34986
-12.6801,0,0,17.6801,17.6801,5,5,21.8622,2.60282,-21.8504,-0.168798,-0.319924,0.0177998,1,0,5.075,-0.035,-0.8925,-0.164212,-0.679052,-0.922686,-0.04844,0.26124,0.34986
-12.6811,0,0,17.6811,17.6811,5,5,21.8639,2.6032,-21.8513,0.24534,-0.0293565,-0.058071,1,0,4.6025,-0.035,-0.7875,0.251686,-0.388814,-0.99796,-0.04844,0.26124,0.34986
-12.6821,0,0,17.6821,17.6821,5,5,21.8657,2.60358,-21.8521,0.245334,-0.0293285,-0.0580826,1,0,4.6025,-0.035,-0.7875,0.251686,-0.388814,-0.99796,-0.04844,0.26124,0.34986
-12.8943,0,0,17.8943,17.8943,5,5,22.2316,2.30436,-21.6741,-0.150716,-0.243646,0.169028,0,0,3.5875,0.2625,-0.105,-0.15128,-0.608902,-0.77043,-0.04844,0.26124,0.34986
-12.8951,0,0,17.8951,17.8951,5,5,22.2329,2.30501,-21.6731,0.00829752,-0.0927997,-0.129008,1,0,4.2875,0.525,0.175,0.008418,-0.458232,-1.06616,-0.04844,0.26124,0.34986
-12.896,0,0,17.896,17.896,5,5,22.2346,2.30499,-21.6719,0.00829792,-0.0927726,-0.129019,1,0,4.515,0.21,0.4375,0.008418,-0.458232,-1.06616,-0.04844,0.26124,0.34986
-12.8975,0,0,17.8975,17.8975,5,5,22.237,2.3055,-21.6701,-0.0535472,-0.0347226,0.199114,1,0,4.9525,0.6125,0.595,-0.05368,-0.400282,-0.74054,-0.03668,0.25606,0.34804
-12.8986,0,0,17.8986,17.8986,5,5,22.2389,2.30559,-21.6684,-0.13215,-0.194434,-0.0795,1,0,4.6375,0.385,0.6825,-0.132614,-0.559858,-1.01699,-0.03668,0.25606,0.34804
-12.895,0,0,17.895,17.895,5,5,22.2328,2.30524,-21.6669,-0.132144,-0.194532,-0.0794595,1,0,0.14,0.105,0.6825,-0.132614,-0.559858,-1.01699,-0.03668,0.25606,0.34804
-12.8956,0,0,17.8956,17.8956,5,5,22.2338,2.30444,-21.6652,0.132587,-0.012669,-0.0960636,1,0,4.13,-0.1225,0.84,0.133224,-0.3782,-1.03346,-0.03668,0.25606,0.34804
-12.8965,0,0,17.8965,17.8965,5,5,22.2353,2.30348,-21.664,0.132604,-0.0126447,-0.0960728,1,0,4.41,-0.2975,0.6475,0.133224,-0.3782,-1.03346,-0.03668,0.25606,0.34804
-12.9475,0,0,17.9475,17.9475,5,5,22.3233,2.18559,-21.6461,-0.0672492,-0.0427036,0.0605484,0,0,4.445,-0.2625,0.385,-0.06954,-0.409676,-0.877546,-0.03668,0.25606,0.34804
-12.9975,0,0,17.9975,17.9975,5,5,22.4095,2.07114,-21.6291,-0.0652531,-0.041284,0.0600445,0,0,4.69,-0.315,0.1225,-0.06954,-0.409676,-0.877546,-0.03668,0.25606,0.34804
-12.9292,0,0,17.9292,17.9292,5,5,22.2918,2.06765,-21.7156,-0.0184202,0.075769,-0.120276,0,0,4.0425,0.175,-0.2975,-0.02257,-0.290848,-1.05725,-0.03668,0.25606,0.34804
-12.8618,0,0,17.8618,17.8618,5,5,22.1754,2.06431,-21.805,-0.0183619,0.0738912,-0.119506,0,0,3.64,0.035,-0.84,-0.02257,-0.290848,-1.05725,-0.03948,0.25914,0.34776
-12.9115,0,0,17.9115,17.9115,5,5,22.2611,1.78473,-21.6976,-0.186238,-0.0554606,-0.00238063,0,0,2.8875,-0.2275,-1.1725,-0.196054,-0.42151,-0.94062,-0.03948,0.25914,0.34776
-12.9606,0,0,17.9606,17.9606,5,5,22.3458,1.51286,-21.5918,-0.181495,-0.0540426,-0.00281471,0,0,3.7625,-0.0175,-1.365,-0.196054,-0.42151,-0.94062,-0.03948,0.25914,0.34776
-12.961,0,0,17.961,17.961,5,5,22.3466,1.5135,-21.5941,0.0114135,-0.0487776,0.135988,1,0,4.1125,-0.2275,-1.645,-0.002318,-0.416264,-0.802882,-0.03948,0.25914,0.34776
-12.9622,0,0,17.9622,17.9622,5,5,22.3485,1.51455,-21.5962,0.0113952,-0.048747,0.135975,1,0,4.7075,0.0525,-1.5925,-0.002318,-0.416264,-0.802882,-0.03948,0.25914,0.34776
-12.7689,0,0,17.7689,17.7689,5,5,22.0153,2.14186,-22.0692,0.387748,0.260826,0.0140371,0,0,4.935,-0.1225,-1.505,0.386618,-0.101504,-0.925736,-0.03948,0.25914,0.34776
-12.5779,0,0,17.5779,17.5779,5,5,21.686,2.75208,-22.542,0.377108,0.255327,0.0157522,0,0,4.06,-0.63,-0.875,0.386618,-0.101504,-0.925736,-0.03948,0.25914,0.34776
-12.57,0,0,17.57,17.57,5,5,21.6723,2.74201,-22.6127,-0.00940541,0.0132973,-0.00431537,0,0,4.06,-0.14,-0.7875,-0.001708,-0.343064,-0.945744,-0.03948,0.25914,0.34776
-12.5614,0,0,17.5614,17.5614,5,5,21.6575,2.73203,-22.6803,-0.0092315,0.0130605,-0.00421234,0,0,3.255,0.07,-0.1575,-0.001708,-0.343064,-0.945744,-0.04144,0.25914,0.34622
-12.5827,0,0,17.5827,17.5827,5,5,21.6944,2.42128,-22.5674,-0.201714,0.0269374,0.0663493,0,0,3.64,0.245,0.245,-0.200446,-0.329888,-0.875716,-0.04144,0.25914,0.34622
-12.6037,0,0,17.6037,17.6037,5,5,21.7306,2.1172,-22.455,-0.196411,0.0276019,0.0663109,0,0,4.2525,-0.175,0.735,-0.200446,-0.329888,-0.875716,-0.04144,0.25914,0.34622
-12.6046,0,0,17.6046,17.6046,5,5,21.7321,2.11632,-22.4531,-0.01526,0.0100402,-0.192136,1,0,4.41,-0.1225,0.98,-0.018544,-0.347456,-1.13216,-0.04144,0.25914,0.34622
-12.6051,0,0,17.6051,17.6051,5,5,21.7329,2.11548,-22.4507,-0.0152453,0.010053,-0.192141,1,0,3.99,0.0175,1.26,-0.018544,-0.347456,-1.13216,-0.04144,0.25914,0.34622
-12.6005,0,0,17.6005,17.6005,5,5,21.7251,2.23375,-22.5778,0.0926364,-0.0369994,-0.079419,0,0,4.3925,0.07,1.26,0.091866,-0.394304,-1.02029,-0.04144,0.25914,0.34622
-12.5959,0,0,17.5959,17.5959,5,5,21.7171,2.34909,-22.7038,0.0906249,-0.0371583,-0.0794423,0,0,4.06,0.1225,1.19,0.091866,-0.394304,-1.02029,-0.04144,0.25914,0.34622
-12.5964,0,0,17.5964,17.5964,5,5,21.7179,2.34888,-22.7023,0.110066,-0.231205,-0.180511,1,0,4.0075,0.1575,0.63,0.111386,-0.588162,-1.12057,-0.04144,0.25914,0.34622
-12.597,0,0,17.597,17.597,5,5,21.719,2.34841,-22.7013,0.110075,-0.231187,-0.180518,1,0,4.2,-0.0875,0.42,0.111386,-0.588162,-1.12057,-0.0434,0.26292,0.34412
-12.5979,0,0,17.5979,17.5979,5,5,21.7205,2.34811,-22.7014,0.0964735,-0.0847317,-0.143643,1,0,4.48,-0.245,-0.245,0.097722,-0.441884,-1.08397,-0.0434,0.26292,0.34412
-12.5983,0,0,17.5983,17.5983,5,5,21.7213,2.34761,-22.702,0.0964821,-0.0847197,-0.143647,1,0,4.025,-0.4375,-0.42,0.097722,-0.441884,-1.08397,-0.0434,0.26292,0.34412
-12.6888,0,0,17.6888,17.6888,5,5,21.8772,2.22881,-22.6712,-0.0594989,-0.125397,0.0341869,0,0,3.675,-0.665,-1.05,-0.061,-0.485072,-0.906582,-0.0434,0.26292,0.34412
-12.7772,0,0,17.7772,17.7772,5,5,22.0296,2.11368,-22.6412,-0.057491,-0.122903,0.0332637,0,0,3.675,-0.665,-1.05,-0.061,-0.485072,-0.906582,-0.0434,0.26292,0.34412
-12.6428,0,0,17.6428,17.6428,5,5,21.798,1.77491,-22.5689,-0.2575,0.256902,0.0270888,0,0,3.43,-0.105,-1.645,-0.26779,-0.101992,-0.91439,-0.0434,0.26292,0.34412
-12.5105,0,0,17.5105,17.5105,5,5,21.5699,1.44287,-22.4951,-0.251707,0.253263,0.0287106,0,0,3.43,-0.105,-1.645,-0.26779,-0.101992,-0.91439,-0.0434,0.26292,0.34412
-12.5729,0,0,17.5729,17.5729,5,5,21.6775,1.44559,-22.5313,0.0162428,-0.0915872,0.0319518,0,0,4.0425,0.7175,-1.4,0.001342,-0.448228,-0.910486,-0.0434,0.26292,0.34412
-12.6339,0,0,17.6339,17.6339,5,5,21.7826,1.44977,-22.5559,0.01617,-0.0898848,0.0312713,0,0,4.0425,0.7175,-1.4,0.001342,-0.448228,-0.910486,-0.0441,0.25788,0.3507
-12.661,0,0,17.661,17.661,5,5,21.8292,1.26305,-22.4881,-0.121495,-0.00947361,0.0320241,0,0,3.9375,-0.1225,-0.6825,-0.140178,-0.368684,-0.90951,-0.0441,0.25788,0.3507
-12.6871,0,0,17.6871,17.6871,5,5,21.8744,1.08112,-22.4211,-0.118321,-0.00871827,0.0317912,0,0,3.9375,-0.1225,-0.6825,-0.140178,-0.368684,-0.90951,-0.0441,0.25788,0.3507
-12.6869,0,0,17.6869,17.6869,5,5,21.874,1.08108,-22.42,0.0454425,-0.0216699,0.121546,1,0,3.3775,0.175,0.385,0.024278,-0.381616,-0.82045,-0.0441,0.25788,0.3507
-12.6867,0,0,17.6867,17.6867,5,5,21.8736,1.08105,-22.4188,0.0454431,-0.0216761,0.121549,1,0,3.3775,0.175,0.385,0.024278,-0.381616,-0.82045,-0.0441,0.25788,0.3507
-12.6871,0,0,17.6871,17.6871,5,5,21.8743,1.07959,-22.4172,-0.251199,-0.126327,-0.275579,1,0,3.99,-0.49,0.9625,-0.273646,-0.48617,-1.21451,-0.0441,0.25788,0.3507
-12.6875,0,0,17.6875,17.6875,5,5,21.875,1.07813,-22.4156,-0.251174,-0.126315,-0.275584,1,0,3.99,-0.49,0.9625,-0.273646,-0.48617,-1.21451,-0.0441,0.25788,0.3507
-12.6874,0,0,17.6874,17.6874,5,5,21.8749,1.07772,-22.4133,0.0696769,0.0446602,-0.161363,1,0,3.5,0.2275,1.1025,0.048556,-0.31537,-1.10117,-0.0441,0.25788,0.3507
-12.6874,0,0,17.6874,17.6874,5,5,21.8748,1.0773,-22.411,0.0696841,0.0446579,-0.161362,1,0,3.5,0.2275,1.1025,0.048556,-0.31537,-1.10117,-0.0441,0.25788,0.3507
-12.7174,0,0,17.7174,17.7174,5,5,21.9266,1.07607,-22.4404,0.00786945,-0.0591651,-0.016989,0,0,3.675,-0.3325,0.56,-0.013542,-0.419924,-0.957578,-0.04648,0.26054,0.35196
-12.7283,0,0,17.7283,17.7283,5,5,21.9453,1.3059,-22.6026,0.160454,-0.0286062,0.0393681,0,0,4.235,-0.245,0.105,0.143716,-0.389668,-0.901458,-0.04648,0.26054,0.35196
-12.7392,0,0,17.7392,17.7392,5,5,21.9642,1.52992,-22.7629,0.156545,-0.0283364,0.0391551,0,0,4.235,-0.245,0.105,0.143716,-0.389668,-0.901458,-0.04648,0.26054,0.35196
-12.6572,0,0,17.6572,17.6572,5,5,21.8227,1.55974,-22.8575,-0.00178485,0.140955,0.0421529,0,0,4.4975,-0.4025,-0.9975,-0.014762,-0.218258,-0.899384,-0.04648,0.26054,0.35196
-12.5767,0,0,17.5767,17.5767,5,5,21.6839,1.5883,-22.9515,-0.00228319,0.138701,0.0430375,0,0,4.4975,-0.4025,-0.9975,-0.014762,-0.218258,-0.899384,-0.04648,0.26054,0.35196
-12.5761,0,0,17.5761,17.5761,5,5,21.6829,1.58911,-22.9542,-0.161201,-0.345181,0.0863213,1,0,3.0975,-0.175,-1.82,-0.174338,-0.701622,-0.85644,-0.04648,0.26054,0.35196
-12.5755,0,0,17.5755,17.5755,5,5,21.682,1.58992,-22.9568,-0.161215,-0.345197,0.0863272,1,0,3.0975,-0.175,-1.82,-0.174338,-0.701622,-0.85644,-0.04648,0.26054,0.35196
-12.5757,0,0,17.5757,17.5757,5,5,21.6822,1.58988,-22.9596,-0.20665,-0.16811,-0.0974821,1,0,3.7625,-0.6825,-1.75,-0.219966,-0.524722,-1.03883,-0.04606,0.2576,0.34734
-12.5761,0,0,17.5761,17.5761,5,5,21.683,1.5909,-22.961,-0.179941,-0.0429162,0.152466,1,0,4.095,0.21,-1.19,-0.193126,-0.399672,-0.790804,-0.04606,0.2576,0.34734
-12.5766,0,0,17.5766,17.5766,5,5,21.6838,1.59192,-22.9623,-0.179958,-0.0429028,0.15246,1,0,4.095,0.21,-1.19,-0.193126,-0.399672,-0.790804,-0.04606,0.2576,0.34734
-12.4978,0,0,17.4978,17.4978,5,5,21.5479,1.52667,-23.0008,-0.0623152,0.143468,0.030783,0,0,4.5325,-0.0175,-0.3325,-0.076128,-0.211304,-0.912438,-0.04606,0.2576,0.34734
-12.4204,0,0,17.4204,17.4204,5,5,21.4145,1.46254,-23.0389,-0.0611962,0.141312,0.0316628,0,0,4.5325,-0.0175,-0.3325,-0.076128,-0.211304,-0.912438,-0.04606,0.2576,0.34734
-12.5133,0,0,17.5133,17.5133,5,5,21.5747,1.48766,-23.0551,0.0370119,-0.112069,0.10243,0,0,3.4125,0.1225,0.665,0.022936,-0.467016,-0.84119,-0.04606,0.2576,0.34734
-12.6045,0,0,17.6045,17.6045,5,5,21.7318,1.51277,-23.0711,0.0365737,-0.109525,0.101408,0,0,3.4125,0.1225,0.665,0.022936,-0.467016,-0.84119,-0.04606,0.2576,0.34734
-12.6045,0,0,17.6045,17.6045,5,5,21.7319,1.51251,-23.0684,-0.0246506,-0.000342643,0.125751,1,0,3.605,0.4025,1.3125,-0.038552,-0.357948,-0.817034,-0.04606,0.2576,0.34734
-12.6045,0,0,17.6045,17.6045,5,5,21.732,1.51225,-23.0657,-0.024646,-0.000341388,0.125751,1,0,3.605,0.4025,1.3125,-0.038552,-0.357948,-0.817034,-0.04256,0.26124,0.3388
-12.605,0,0,17.605,17.605,5,5,21.7328,1.5101,-23.0636,0.0256867,-0.157383,0.232835,1,0,4.025,-0.77,1.365,0.011956,-0.51484,-0.710772,-0.04256,0.26124,0.3388
-12.6055,0,0,17.6055,17.6055,5,5,21.7336,1.50794,-23.0615,0.0257243,-0.15737,0.232831,1,0,4.025,-0.77,1.365,0.011956,-0.51484,-0.710772,-0.04256,0.26124,0.3388
-12.5355,0,0,17.5355,17.5355,5,5,21.6129,1.44982,-23.1076,-0.0583017,0.109485,-0.0366087,0,0,3.43,0.0525,0.6475,-0.073444,-0.246318,-0.978928,-0.04256,0.26124,0.3388
-12.4668,0,0,17.4668,17.4668,5,5,21.4945,1.39267,-23.1533,-0.0573045,0.107572,-0.0358263,0,0,3.43,0.0525,0.6475,-0.073444,-0.246318,-0.978928,-0.04256,0.26124,0.3388
-12.3527,0,0,17.3527,17.3527,5,5,21.2978,1.60649,-23.3663,0.125202,0.146597,-0.0577798,0,0,3.78,0.14,-0.525,0.113582,-0.204106,-1.00186,-0.04256,0.26124,0.3388
-12.241,0,0,17.241,17.241,5,5,21.1052,1.81433,-23.5786,0.121577,0.143425,-0.0566652,0,0,3.78,0.14,-0.525,0.113582,-0.204106,-1.00186,-0.04256,0.26124,0.3388
-12.3238,0,0,17.3238,17.3238,5,5,21.2479,1.81375,-23.6016,0.0178379,-0.099117,0.0864081,0,0,3.7625,0.14,-1.5575,0.009394,-0.448716,-0.859002,-0.04256,0.26124,0.3388
-12.405,0,0,17.405,17.405,5,5,21.3879,1.81379,-23.6245,0.0178372,-0.0968422,0.0855203,0,0,3.7625,0.14,-1.5575,0.009394,-0.448716,-0.859002,-0.04256,0.26124,0.3388
-12.4049,0,0,17.4049,17.4049,5,5,21.3878,1.81444,-23.6266,0.204063,0.0745,-0.107017,1,0,3.5875,-0.14,-1.505,0.19642,-0.27755,-1.05005,-0.04158,0.25606,0.3402
-12.4253,0,0,17.4253,17.4253,5,5,21.4229,1.68615,-23.5946,-0.09146,-0.050085,-0.0739804,0,0,3.0975,0,-1.54,-0.102602,-0.4026,-1.01711,-0.04158,0.25606,0.3402
-12.4459,0,0,17.4459,17.4459,5,5,21.4584,1.56081,-23.5626,-0.0892732,-0.0494857,-0.0741492,0,0,3.9375,-0.14,-1.3475,-0.102602,-0.4026,-1.01711,-0.04158,0.25606,0.3402
-12.4071,0,0,17.4071,17.4071,5,5,21.3915,1.47829,-23.5767,-0.0648727,0.0937959,0.0619247,0,0,4.235,0.07,-1.26,-0.079544,-0.258396,-0.882548,-0.04158,0.25606,0.3402
-12.3694,0,0,17.3694,17.3694,5,5,21.3266,1.39708,-23.5893,-0.0634557,0.0927532,0.0623707,0,0,4.69,0.0525,-0.56,-0.079544,-0.258396,-0.882548,-0.04158,0.25606,0.3402
-12.349,0,0,17.349,17.349,5,5,21.2914,1.60172,-23.7498,0.141079,0.00971112,0.000295036,0,0,3.78,0.385,-0.1575,0.129442,-0.340746,-0.94428,-0.04158,0.25606,0.3402
-12.3285,0,0,17.3285,17.3285,5,5,21.256,1.80082,-23.9081,0.137605,0.00909833,0.000422919,0,0,3.0275,0.3675,0.245,0.129442,-0.340746,-0.94428,-0.04158,0.25606,0.3402
-12.3279,0,0,17.3279,17.3279,5,5,21.255,1.80038,-23.907,0.0655721,0.202165,0.0973128,1,0,3.0275,-0.0525,0.4725,0.057096,-0.147864,-0.848144,-0.04158,0.25606,0.3402
-12.3279,0,0,17.3279,17.3279,5,5,21.2551,1.80004,-23.9054,0.0655781,0.202166,0.0973125,1,0,3.6225,0.105,0.7175,0.057096,-0.147864,-0.848144,-0.04466,0.25914,0.34706
-12.4143,0,0,17.4143,17.4143,5,5,21.4039,1.66434,-23.8378,-0.0744359,-0.103637,0.0554929,0,0,4.69,-0.21,0.7525,-0.085888,-0.455792,-0.88877,-0.04466,0.25914,0.34706
-12.4983,0,0,17.4983,17.4983,5,5,21.5489,1.53234,-23.7716,-0.0721329,-0.10126,0.0546267,0,0,4.4275,-0.385,0.6825,-0.085888,-0.455792,-0.88877,-0.04466,0.25914,0.34706
-12.5505,0,0,17.5505,17.5505,5,5,21.6387,1.30472,-23.6644,-0.144819,-0.0360158,0.0531575,0,0,4.1475,-0.0875,0.5425,-0.16287,-0.392108,-0.889746,-0.04466,0.25914,0.34706
-12.6,0,0,17.6,17.6,5,5,21.7241,1.08292,-23.5592,-0.140949,-0.0346019,0.0526822,0,0,3.0625,-0.2625,0.1575,-0.16287,-0.392108,-0.889746,-0.04466,0.25914,0.34706
-12.5993,0,0,17.5993,17.5993,5,5,21.7229,1.08279,-23.5588,0.133854,0.0701638,0.238834,1,0,2.94,-0.035,0.0175,0.113094,-0.287432,-0.705038,-0.04466,0.25914,0.34706
-12.5993,0,0,17.5993,17.5993,5,5,21.723,1.08254,-23.5597,0.133859,0.0701656,0.238833,1,0,3.675,-0.385,-0.6825,0.113094,-0.287432,-0.705038,-0.04466,0.25914,0.34706
-12.6457,0,0,17.6457,17.6457,5,5,21.8029,0.918028,-23.4865,-0.0990743,-0.0168194,0.0894726,0,0,4.3225,-0.2275,-0.9625,-0.123708,-0.375638,-0.85278,-0.04466,0.25914,0.34706
-12.6909,0,0,17.6909,17.6909,5,5,21.8808,0.757634,-23.4207,-0.0962751,-0.0155417,0.0890045,0,0,4.4275,-0.385,-1.05,-0.123708,-0.375638,-0.85278,-0.04326,0.26208,0.34664
-12.738,0,0,17.738,17.738,5,5,21.9621,0.888528,-23.511,0.105415,-0.083727,0.0301665,0,0,4.655,-0.77,-1.0325,0.08113,-0.445056,-0.910608,-0.04326,0.26208,0.34664
-12.7833,0,0,17.7833,17.7833,5,5,22.0402,1.01748,-23.5999,0.103165,-0.0824778,0.0296214,0,0,3.4825,-0.175,-1.2075,0.08113,-0.445056,-0.910608,-0.04326,0.26208,0.34664
-12.783,0,0,17.783,17.783,5,5,22.0397,1.01817,-23.6015,-0.0172397,0.175202,0.141753,1,0,3.3425,-0.0175,-1.225,-0.039772,-0.187636,-0.799344,-0.04326,0.26208,0.34664
-12.7822,0,0,17.7822,17.7822,5,5,22.0382,1.01872,-23.6028,-0.0172493,0.175177,0.141763,1,0,2.765,-0.035,-1.05,-0.039772,-0.187636,-0.799344,-0.04326,0.26208,0.34664
-12.7819,0,0,17.7819,17.7819,5,5,22.0378,1.01882,-23.6039,0.0468935,0.0679433,0.0841029,1,0,3.395,-0.245,-0.8575,0.024644,-0.294752,-0.856562,-0.04326,0.26208,0.34664
-12.7828,0,0,17.7828,17.7828,5,5,22.0393,1.01907,-23.6043,0.0468891,0.0679679,0.0840928,1,0,4.4625,0.0175,-0.455,0.024644,-0.294752,-0.856562,-0.04326,0.26208,0.34664
-12.7707,0,0,17.7707,17.7707,5,5,22.0185,1.19692,-23.7414,0.125667,-0.00554505,-0.0108658,0,0,4.13,0.07,-0.14,0.106872,-0.36783,-0.950868,-0.04326,0.26208,0.34664
-12.7586,0,0,17.7586,17.7586,5,5,21.9976,1.37045,-23.8668,0.122639,-0.00590889,-0.0107919,0,0,3.745,-0.07,0.2275,0.106872,-0.36783,-0.950868,-0.04648,0.25732,0.3437
-12.7583,0,0,17.7583,17.7583,5,5,21.9971,1.37042,-23.8656,0.0349269,0.103509,0.0954386,1,0,3.325,0.21,0.455,0.018788,-0.258518,-0.84546,-0.04648,0.25732,0.3437
-12.7586,0,0,17.7586,17.7586,5,5,21.9975,1.36993,-23.8639,0.0349355,0.103515,0.0954363,1,0,3.7975,0.0525,0.7875,0.018788,-0.258518,-0.84546,-0.04648,0.25732,0.3437
-12.8581,0,0,17.8581,17.8581,5,5,22.1691,1.43771,-23.8866,0.0664325,-0.117824,0.121947,0,0,4.34,-0.105,0.735,0.051606,-0.482388,-0.81801,-0.04648,0.25732,0.3437
-12.9557,0,0,17.9557,17.9557,5,5,22.3374,1.50478,-23.9095,0.0652622,-0.115118,0.120808,0,0,4.2,-0.035,0.385,0.051606,-0.482388,-0.81801,-0.04648,0.25732,0.3437
-13.0216,0,0,18.0216,18.0216,5,5,22.451,1.62277,-23.9723,0.0879867,-0.0625022,0.130205,0,0,4.06,-0.035,0.2625,0.076494,-0.431636,-0.807884,-0.04648,0.25732,0.3437
-13.0857,0,0,18.0857,18.0857,5,5,22.5616,1.73833,-24.0349,0.0859708,-0.0607418,0.129412,0,0,3.395,-0.1575,-0.21,0.076494,-0.431636,-0.807884,-0.04648,0.25732,0.3437
-13.066,0,0,18.066,18.066,5,5,22.5276,1.29918,-23.8395,-0.291599,0.117337,0.0838445,0,0,3.1325,-0.35,-0.42,-0.310368,-0.253272,-0.853512,-0.04648,0.25732,0.3437
-13.047,0,0,18.047,18.047,5,5,22.4949,0.870029,-23.6433,-0.28411,0.116864,0.084194,0,0,4.27,-0.0525,-0.84,-0.310368,-0.253272,-0.853512,-0.04746,0.25704,0.34496
-13.107,0,0,18.107,18.107,5,5,22.5983,0.568403,-23.4787,-0.198544,-0.0463147,0.040285,0,0,4.13,0.07,-0.735,-0.229726,-0.417972,-0.896456,-0.04746,0.25704,0.34496
-13.1654,0,0,18.1654,18.1654,5,5,22.6989,0.274132,-23.3161,-0.193408,-0.0446795,0.0396436,0,0,4.305,-0.0875,-0.7525,-0.229726,-0.417972,-0.896456,-0.04746,0.25704,0.34496
-13.1662,0,0,18.1662,18.1662,5,5,22.7004,0.274597,-23.3171,0.364446,0.048771,-0.10815,1,0,4.4275,-0.0175,-0.8575,0.330498,-0.324642,-1.0431,-0.04746,0.25704,0.34496
-13.1659,0,0,18.1659,18.1659,5,5,22.6999,0.274979,-23.3183,0.36444,0.0487624,-0.108147,1,0,3.3075,-0.1225,-0.98,0.330498,-0.324642,-1.0431,-0.04746,0.25704,0.34496
-13.2723,0,0,18.2723,18.2723,5,5,22.8833,0.0861278,-23.1898,-0.107516,-0.123289,0.0827909,0,0,3.1325,0.0175,-0.7875,-0.146766,-0.499468,-0.852414,-0.04746,0.25704,0.34496
-13.3756,0,0,18.3756,18.3756,5,5,23.0614,-0.0973972,-23.063,-0.104313,-0.120427,0.0815772,0,0,2.5375,0.105,-0.595,-0.146766,-0.499468,-0.852414,-0.04746,0.25704,0.34496
-13.4589,0,0,18.4589,18.4589,5,5,23.2049,-0.0961411,-23.04,0.0199447,-0.165998,-0.0182572,0,0,3.36,0.1575,-0.6475,-0.02196,-0.547292,-0.950502,-0.04746,0.25704,0.34496
-13.5414,0,0,18.5414,18.5414,5,5,23.3473,-0.0941473,-23.0165,0.0199099,-0.163715,-0.0192389,0,0,4.2525,0.455,-0.35,-0.02196,-0.547292,-0.950502,-0.04746,0.25704,0.34496
-13.5541,0,0,18.5541,18.5541,5,5,23.3691,-0.240001,-22.9405,-0.0934418,0.0194552,0.0495773,0,0,4.06,0,0,-0.138348,-0.364658,-0.88206,-0.05082,0.25928,0.35084
-13.5545,0,0,18.5545,18.5545,5,5,23.3698,-0.240606,-22.94,0.180883,-0.118048,-0.0619418,1,0,3.99,-0.245,0.21,0.137128,-0.50203,-0.992714,-0.05082,0.25928,0.35084
-13.5546,0,0,18.5546,18.5546,5,5,23.37,-0.240874,-22.9384,0.180888,-0.118045,-0.0619435,1,0,3.745,0.175,0.6825,0.137128,-0.50203,-0.992714,-0.05082,0.25928,0.35084
-13.6339,0,0,18.6339,18.6339,5,5,23.5067,-0.212211,-22.9258,0.0364273,-0.113292,0.063378,0,0,3.7975,0.5075,0.735,-0.007442,-0.499468,-0.86742,-0.05082,0.25928,0.35084
-13.7117,0,0,18.7117,18.7117,5,5,23.6409,-0.185117,-22.9146,0.0359544,-0.111143,0.0624423,0,0,3.885,-0.49,0.3675,-0.007442,-0.499468,-0.86742,-0.05082,0.25928,0.35084
-13.7122,0,0,18.7122,18.7122,5,5,23.6417,-0.186207,-22.914,-0.243687,-0.183185,-0.0356763,1,0,4.06,-0.5075,0.315,-0.288286,-0.571448,-0.964776,-0.05082,0.25928,0.35084
-13.7121,0,0,18.7121,18.7121,5,5,23.6416,-0.185725,-22.9134,-0.243695,-0.183188,-0.035675,1,0,3.5,0.3675,0.0175,-0.288286,-0.571448,-0.964776,-0.05082,0.25928,0.35084
-13.7116,0,0,18.7116,18.7116,5,5,23.6407,-0.185206,-22.9133,0.229969,-0.205061,-0.242469,1,0,3.15,0.245,-0.315,0.187392,-0.593286,-1.16998,-0.05082,0.25928,0.35084
-13.7113,0,0,18.7113,18.7113,5,5,23.6402,-0.185024,-22.9141,0.229965,-0.205071,-0.242465,1,0,3.2725,-0.14,-0.7,0.187392,-0.593286,-1.16998,-0.04438,0.2625,0.3521
-13.6121,0,0,18.6121,18.6121,5,5,23.4691,0.130886,-23.132,0.201127,0.11876,-0.03324,0,0,3.99,-0.2975,-0.6125,0.163968,-0.267058,-0.963556,-0.04438,0.2625,0.3521
-13.5152,0,0,18.5152,18.5152,5,5,23.3021,0.439163,-23.3484,0.195746,0.116074,-0.0321076,0,0,4.1825,0.245,-0.49,0.163968,-0.267058,-0.963556,-0.04438,0.2625,0.3521
-13.7063,0,0,18.7063,18.7063,5,5,23.6315,0.151375,-23.1433,-0.165389,-0.254914,0.119189,0,0,4.1475,0.28,-0.455,-0.20374,-0.64294,-0.811178,-0.04438,0.2625,0.3521
-13.8925,0,0,18.8925,18.8925,5,5,23.9526,-0.128756,-22.9434,-0.1605,-0.249786,0.116929,0,0,3.6225,-0.175,-0.805,-0.20374,-0.64294,-0.811178,-0.04438,0.2625,0.3521
-13.891,0,0,18.891,18.891,5,5,23.95,-0.0435904,-23.0024,0.0564451,0.0125017,0.0480986,0,0,3.2375,-0.49,-0.9275,0.015616,-0.380884,-0.879498,-0.04438,0.2625,0.3521
-13.8888,0,0,18.8888,18.8888,5,5,23.9462,0.0407724,-23.0598,0.0549727,0.0124417,0.0481253,0,0,2.4325,0.49,-0.7,0.015616,-0.380884,-0.879498,-0.04438,0.2625,0.3521
-13.8884,0,0,18.8884,18.8884,5,5,23.9456,0.274926,-23.195,0.169092,-0.037523,-0.00708436,0,0,2.17,0.42,-0.455,0.134322,-0.430782,-0.934276,-0.04438,0.2625,0.3521
-13.8903,0,0,18.8903,18.8903,5,5,23.9489,0.503004,-23.324,0.165111,-0.0374817,-0.00713226,0,0,3.92,0.49,-0.63,0.134322,-0.430782,-0.934276,-0.04256,0.25956,0.3591
-13.9013,0,0,18.9013,18.9013,5,5,23.9678,0.505589,-23.3331,0.0039758,-0.0318063,-0.0286598,0,0,4.1825,0.42,-0.455,-0.02745,-0.425414,-0.955504,-0.04256,0.25956,0.3591
-13.9121,0,0,18.9121,18.9121,5,5,23.9864,0.50723,-23.3417,0.00394716,-0.0315096,-0.0287921,0,0,4.2,0.0175,0,-0.02745,-0.425414,-0.955504,-0.04256,0.25956,0.3591
-13.9052,0,0,18.9052,18.9052,5,5,23.9744,0.424726,-23.3127,-0.0627664,-0.000675627,-0.0601712,0,0,4.41,0.28,-0.07,-0.095892,-0.394426,-0.986736,-0.04256,0.25956,0.3591
-13.8973,0,0,18.8973,18.8973,5,5,23.9609,0.343879,-23.2842,-0.0613554,-0.000887821,-0.0600666,0,0,3.5525,0.0175,-0.1575,-0.095892,-0.394426,-0.986736,-0.04256,0.25956,0.3591
-13.897,0,0,18.897,18.897,5,5,23.9604,0.343411,-23.284,0.0777539,0.0412375,0.123499,1,0,3.3075,-0.2625,-0.035,0.043798,-0.352336,-0.80459,-0.04256,0.25956,0.3591
-13.897,0,0,18.897,18.897,5,5,23.9604,0.34267,-23.284,0.0777668,0.0412376,0.123499,1,0,3.605,-0.4375,-0.035,0.043798,-0.352336,-0.80459,-0.04256,0.25956,0.3591
-13.8546,0,0,18.8546,18.8546,5,5,23.8873,-0.228961,-23.0146,-0.389452,0.178568,0.084436,0,0,3.5525,-0.4725,-4.4625,-0.435418,-0.213988,-0.843874,-0.04256,0.25956,0.3591
-13.8125,0,0,18.8125,18.8125,5,5,23.8146,-0.791678,-22.7406,-0.379631,0.177372,0.0848689,0,0,3.9025,0.315,-0.385,-0.435418,-0.213988,-0.843874,-0.04536,0.2618,0.35658
-13.8127,0,0,18.8127,18.8127,5,5,23.8149,-0.791147,-22.7409,0.0110574,0.101903,-0.349018,1,0,3.78,0.175,-0.49,-0.043066,-0.289384,-1.27441,-0.04536,0.2618,0.35658
-13.8136,0,0,18.8136,18.8136,5,5,23.8165,-0.791114,-22.7412,0.0110568,0.101928,-0.349029,1,0,4.48,-0.105,-0.4025,-0.043066,-0.289384,-1.27441,-0.04536,0.2618,0.35658
-13.8148,0,0,18.8148,18.8148,5,5,23.8187,-0.791154,-22.7417,0.221592,0.145929,-0.225851,1,0,4.83,-0.175,-0.455,0.16836,-0.245464,-1.15217,-0.04536,0.2618,0.35658
-13.8156,0,0,18.8156,18.8156,5,5,23.8199,-0.791264,-22.7419,0.221594,0.145948,-0.225859,1,0,4.2875,-0.1575,-0.315,0.16836,-0.245464,-1.15217,-0.04536,0.2618,0.35658
-14.1593,0,0,19.1593,19.1593,5,5,24.4126,-1.30135,-22.3559,-0.268203,-0.343199,0.395206,0,0,3.815,0.2625,-0.315,-0.33245,-0.743468,-0.531554,-0.04536,0.2618,0.35658
-14.4957,0,0,19.4957,19.4957,5,5,24.9926,-1.79865,-21.981,-0.259527,-0.334106,0.390764,0,0,3.465,0.2975,-0.245,-0.33245,-0.743468,-0.531554,-0.04536,0.2618,0.35658
-14.685,0,0,19.685,19.685,5,5,25.319,-1.60343,-22.0107,0.182677,-0.316451,0.156185,0,0,3.29,0.14,-0.245,0.115046,-0.731024,-0.762012,-0.04536,0.2618,0.35658
-14.8708,0,0,19.8708,19.8708,5,5,25.6394,-1.40963,-22.0324,0.179295,-0.311367,0.153861,0,0,3.29,0.14,-0.245,0.115046,-0.731024,-0.762012,-0.0476,0.25774,0.35098
-14.8704,0,0,19.8704,19.8704,5,5,25.6386,-1.40921,-22.0321,0.242947,0.118385,0.0989088,1,0,3.1675,0.245,-0.175,0.178974,-0.301706,-0.816546,-0.0476,0.25774,0.35098
-14.8699,0,0,19.8699,19.8699,5,5,25.6378,-1.4088,-22.0318,0.242939,0.118373,0.0989149,1,0,3.1675,0.245,-0.175,0.178974,-0.301706,-0.816546,-0.0476,0.25774,0.35098
-14.8086,0,0,19.8086,19.8086,5,5,25.532,-1.12917,-22.1784,0.193961,0.0339526,-0.0988752,0,0,4.935,0.0875,0,0.134688,-0.384422,-1.0137,-0.0476,0.25774,0.35098
-14.7487,0,0,19.7487,19.7487,5,5,25.4288,-0.856943,-22.3242,0.18921,0.0323628,-0.0980264,0,0,4.935,0.0875,0,0.134688,-0.384422,-1.0137,-0.0476,0.25774,0.35098
-14.765,0,0,19.765,19.765,5,5,25.457,-0.815149,-22.328,0.0312784,-0.0308173,0.00504901,0,0,4.6375,0.7525,0.245,-0.02318,-0.447984,-0.911218,-0.0476,0.25774,0.35098
-14.7305,0,0,19.7305,19.7305,5,5,25.3974,-0.741178,-22.3664,0.042379,0.0585033,0.0179289,0,0,3.7625,0.35,0.245,-0.010736,-0.357826,-0.898896,-0.0476,0.25774,0.35098
-14.6966,0,0,19.6966,19.6966,5,5,25.339,-0.669785,-22.4051,0.0411331,0.057589,0.0183794,0,0,3.6575,-0.035,0.14,-0.010736,-0.357826,-0.898896,-0.0476,0.25774,0.35098
-14.6964,0,0,19.6964,19.6964,5,5,25.3386,-0.671098,-22.4049,-0.047893,-0.0252194,0.155224,1,0,3.3775,-0.7,0.1925,-0.100162,-0.440542,-0.76311,-0.05152,0.26236,0.35266
-14.6971,0,0,19.6971,19.6971,5,5,25.3397,-0.672063,-22.4047,-0.0478762,-0.0252018,0.155215,1,0,4.235,-0.5075,0.1225,-0.100162,-0.440542,-0.76311,-0.05152,0.26236,0.35266
-14.6973,0,0,19.6973,19.6973,5,5,25.3401,-0.6726,-22.4038,0.40977,-0.296317,-0.0691686,1,0,3.815,-0.1225,0.35,0.359412,-0.711382,-0.98576,-0.05152,0.26236,0.35266
-14.6985,0,0,19.6985,19.6985,5,5,25.3423,-0.673322,-22.4035,-0.239923,0.0835312,-0.33709,1,0,4.83,-0.35,0.1225,-0.293044,-0.331962,-1.2516,-0.05152,0.26236,0.35266
-14.7003,0,0,19.7003,19.7003,5,5,25.3453,-0.674086,-22.4033,-0.23991,0.0835779,-0.337112,1,0,5.2675,-0.4025,0.07,-0.293044,-0.331962,-1.2516,-0.05152,0.26236,0.35266
-14.7012,0,0,19.7012,19.7012,5,5,25.3469,-0.67443,-22.4028,0.143384,0.23785,0.0611057,1,0,4.5325,-0.105,0.1225,0.091866,-0.177876,-0.85644,-0.05152,0.26236,0.35266
-14.702,0,0,19.702,19.702,5,5,25.3483,-0.67345,-22.4023,0.143367,0.237871,0.0610959,1,0,4.3575,0.595,-0.21,0.091866,-0.177876,-0.85644,-0.05152,0.26236,0.35266
-14.7021,0,0,19.7021,19.7021,5,5,25.3485,-0.672638,-22.4022,-0.0905076,0.227739,0.210231,1,0,3.745,0.42,-0.35,-0.142984,-0.188002,-0.708454,-0.05152,0.26236,0.35266
-14.702,0,0,19.702,19.702,5,5,25.3484,-0.67205,-22.4026,-0.0905179,0.227736,0.210232,1,0,3.5175,0.1575,-0.595,-0.142984,-0.188002,-0.708454,-0.0413,0.25984,0.35238
-14.6262,0,0,19.6262,19.6262,5,5,25.2176,-1.01866,-22.2501,-0.274594,0.155534,-0.0848111,0,0,4.13,0.0175,-0.8225,-0.333914,-0.25803,-1.00211,-0.0413,0.25984,0.35238
-14.5516,0,0,19.5516,19.5516,5,5,25.089,-1.35794,-22.0972,-0.268674,0.153451,-0.0839688,0,0,4.7075,-0.07,-0.7525,-0.333914,-0.25803,-1.00211,-0.0413,0.25984,0.35238
-14.5278,0,0,19.5278,19.5278,5,5,25.0479,-1.00884,-22.283,0.237783,0.00935497,0.0207098,0,0,5.53,0.21,-0.63,0.180804,-0.40138,-0.898652,-0.0413,0.25984,0.35238
-14.5043,0,0,19.5043,19.5043,5,5,25.0074,-0.669205,-22.4679,0.231856,0.00875231,0.021087,0,0,5.0575,-0.28,-0.945,0.180804,-0.40138,-0.898652,-0.0413,0.25984,0.35238
-14.6178,0,0,19.6178,19.6178,5,5,25.2031,-0.550142,-22.4929,0.115095,-0.216156,0.0405592,0,0,4.6375,-0.4375,-0.7525,0.065636,-0.629154,-0.877912,-0.0413,0.25984,0.35238
-14.7286,0,0,19.7286,19.7286,5,5,25.3941,-0.432284,-22.5161,0.113038,-0.213135,0.0391508,0,0,3.7975,0.42,-0.49,0.065636,-0.629154,-0.877912,-0.0413,0.25984,0.35238
-14.7288,0,0,19.7288,19.7288,5,5,25.3944,-0.430843,-22.516,0.107911,-0.122879,-0.100029,1,0,3.78,0.7525,-0.5075,0.060512,-0.538996,-1.01602,-0.0413,0.25984,0.35238
-14.7297,0,0,19.7297,19.7297,5,5,25.396,-0.430067,-22.5163,0.107897,-0.122853,-0.100041,1,0,4.4975,0.28,-0.595,0.060512,-0.538996,-1.01602,-0.04102,0.26432,0.3542
-14.705,0,0,19.705,19.705,5,5,25.3535,-0.747142,-22.3701,-0.223935,0.0893192,0.00362512,0,0,4.5325,0.0175,-0.21,-0.278282,-0.32635,-0.913414,-0.04102,0.26432,0.3542
-14.6809,0,0,19.6809,19.6809,5,5,25.3118,-1.05766,-22.2241,-0.218516,0.088625,0.00385932,0,0,5.1625,-0.2975,0.1575,-0.278282,-0.32635,-0.913414,-0.04102,0.26432,0.3542
-14.6559,0,0,19.6559,19.6559,5,5,25.2688,-0.705906,-22.4181,0.231767,0.0257018,0.0549203,0,0,5.04,0.07,0.1575,0.180072,-0.38857,-0.86315,-0.04102,0.26432,0.3542
-14.6319,0,0,19.6319,19.6319,5,5,25.2275,-0.363604,-22.6107,0.225793,0.0250732,0.0552784,0,0,5.0925,-0.2975,-0.0175,0.180072,-0.38857,-0.86315,-0.04102,0.26432,0.3542
-14.5042,0,0,19.5042,19.5042,5,5,25.0072,-0.455101,-22.6173,-0.0837349,0.229448,0.0168184,0,0,4.48,0.07,0.1575,-0.13237,-0.180926,-0.902922,-0.04102,0.26432,0.3542
-14.3787,0,0,19.3787,19.3787,5,5,24.7908,-0.544749,-22.6233,-0.0821703,0.226016,0.0183963,0,0,4.515,0.28,0.1575,-0.13237,-0.180926,-0.902922,-0.04102,0.26432,0.3542
-14.3791,0,0,19.3791,19.3791,5,5,24.7916,-0.544529,-22.6225,0.3491,-0.313283,0.0332674,1,0,4.0425,0.28,0.175,0.30073,-0.719678,-0.88816,-0.04102,0.26432,0.3542
-14.3792,0,0,19.3792,19.3792,5,5,24.7918,-0.543868,-22.6221,0.349089,-0.31328,0.0332662,1,0,3.71,0.4025,-0.175,0.30073,-0.719678,-0.88816,-0.04102,0.26432,0.3542
-14.3835,0,0,19.3835,19.3835,5,5,24.7991,-0.554098,-22.6255,-0.0049852,0.0383161,0.0922261,0,0,4.3575,0.0175,-0.5075,-0.055022,-0.368562,-0.8296,-0.04298,0.26516,0.35364
-14.4601,0,0,19.4601,19.4601,5,5,24.9313,-0.639743,-22.5651,-0.0464964,-0.134117,-0.00514956,0,0,4.9,-0.42,-0.2625,-0.09821,-0.5429,-0.925248,-0.04298,0.26516,0.35364
-14.5359,0,0,19.5359,19.5359,5,5,25.062,-0.722073,-22.5062,-0.0450596,-0.132057,-0.00612881,0,0,5.635,-0.1925,-0.7525,-0.09821,-0.5429,-0.925248,-0.04298,0.26516,0.35364
-14.5388,0,0,19.5388,19.5388,5,5,25.0669,-0.72138,-22.5072,0.236654,-0.143336,-0.146327,1,0,6.37,0.0875,-0.8925,0.184708,-0.554246,-1.06433,-0.04298,0.26516,0.35364
-14.541,0,0,19.541,19.541,5,5,25.0707,-0.721608,-22.508,0.236658,-0.143277,-0.146355,1,0,5.7225,-0.385,-0.63,0.184708,-0.554246,-1.06433,-0.04298,0.26516,0.35364
-14.6726,0,0,19.6726,19.6726,5,5,25.2975,-0.558148,-22.5548,0.135887,-0.158855,0.17473,0,0,5.1975,-0.2625,-0.2625,0.086376,-0.5734,-0.744078,-0.04298,0.26516,0.35364
-14.8013,0,0,19.8013,19.8013,5,5,25.5194,-0.395982,-22.5997,0.133057,-0.155346,0.173089,0,0,4.445,0.945,-0.455,0.086376,-0.5734,-0.744078,-0.04298,0.26516,0.35364
-14.802,0,0,19.802,19.802,5,5,25.5207,-0.394226,-22.5991,-0.114926,-0.386024,0.109761,1,0,4.3225,1.0325,-0.35,-0.162626,-0.803858,-0.806908,-0.04298,0.26516,0.35364
-14.8038,0,0,19.8038,19.8038,5,5,25.5238,-0.394158,-22.5986,-0.114927,-0.385974,0.109738,1,0,5.355,0.105,0,-0.162626,-0.803858,-0.806908,-0.049,0.25984,0.35476
-14.8059,0,0,19.8059,19.8059,5,5,25.5274,-0.39517,-22.598,-0.0824726,0.0617991,0.128768,1,0,5.635,-0.4375,0.3325,-0.130052,-0.356606,-0.787998,-0.049,0.25984,0.35476
-14.8092,0,0,19.8092,19.8092,5,5,25.5332,-0.395874,-22.5966,-0.0824603,0.0618894,0.128724,1,0,6.825,-0.0525,0.7175,-0.130052,-0.356606,-0.787998,-0.049,0.25984,0.35476
-14.8123,0,0,19.8123,19.8123,5,5,25.5385,-0.396302,-22.5953,0.287107,-0.0589331,-0.26598,1,0,6.5625,0.035,0.525,0.241072,-0.477386,-1.17962,-0.049,0.25984,0.35476
-14.8142,0,0,19.8142,19.8142,5,5,25.5418,-0.397379,-22.5946,0.287125,-0.0588806,-0.266005,1,0,5.4775,-0.4375,0.42,0.241072,-0.477386,-1.17962,-0.049,0.25984,0.35476
-14.8157,0,0,19.8157,19.8157,5,5,25.5443,-0.397735,-22.5931,-0.089717,-0.0115779,-0.144059,1,0,5.0225,0.14,0.6475,-0.137372,-0.430172,-1.05859,-0.049,0.25984,0.35476
-14.8163,0,0,19.8163,19.8163,5,5,25.5454,-0.397328,-22.5916,-0.0897241,-0.0115613,-0.144067,1,0,4.2,0.56,0.49,-0.137372,-0.430172,-1.05859,-0.049,0.25984,0.35476
-14.817,0,0,19.817,19.817,5,5,25.5465,-0.397437,-22.5913,0.149362,0.164441,0.0965345,1,0,4.235,-0.035,-0.0525,0.102724,-0.25437,-0.81984,-0.049,0.25984,0.35476
-14.8176,0,0,19.8176,19.8176,5,5,25.5476,-0.397545,-22.591,0.149364,0.164459,0.096526,1,0,4.235,-0.035,-0.0525,0.102724,-0.25437,-0.81984,-0.04312,0.2632,0.35308
-14.916,0,0,19.916,19.916,5,5,25.7173,-0.951322,-22.2805,-0.350361,-0.0286904,0.138052,0,0,5.9675,-0.49,-0.3675,-0.408822,-0.449936,-0.777262,-0.04312,0.2632,0.35308
-15.0113,0,0,20.0113,20.0113,5,5,25.8815,-1.49228,-21.9737,-0.340922,-0.0261976,0.136623,0,0,5.9675,-0.49,-0.3675,-0.408822,-0.449936,-0.777262,-0.04312,0.2632,0.35308
-14.929,0,0,19.929,19.929,5,5,25.7396,-1.05743,-22.218,0.307149,0.065929,-0.0774298,0,0,6.5625,0.4025,-0.91,0.249612,-0.355752,-0.990884,-0.04312,0.2632,0.35308
-14.8486,0,0,19.8486,19.8486,5,5,25.601,-0.633716,-22.4611,0.299754,0.0637964,-0.0762837,0,0,6.5625,0.4025,-0.91,0.249612,-0.355752,-0.990884,-0.04312,0.2632,0.35308
-14.6197,0,0,19.6197,19.6197,5,5,25.2063,-0.275549,-22.7276,0.181372,0.341906,0.0253212,0,0,5.1625,0.14,-1.0675,0.137006,-0.071736,-0.89304,-0.04312,0.2632,0.35308
-14.3947,0,0,19.3947,19.3947,5,5,24.8185,0.0734263,-22.9959,0.175281,0.335777,0.0281927,0,0,5.1625,0.14,-1.0675,0.137006,-0.071736,-0.89304,-0.04312,0.2632,0.35308
-14.3966,0,0,19.3966,19.3966,5,5,24.8217,0.0750073,-22.9961,-0.101369,0.1138,0.139315,1,0,5.3725,0.7525,-0.7,-0.140788,-0.293532,-0.782752,-0.04312,0.2632,0.35308
-14.3984,0,0,19.3984,19.3984,5,5,24.8248,0.0765882,-22.9962,-0.101397,0.11385,0.139292,1,0,5.3725,0.7525,-0.7,-0.140788,-0.293532,-0.782752,-0.04242,0.25844,0.35532
-14.4015,0,0,19.4015,19.4015,5,5,24.8302,0.0754094,-22.9956,-0.119842,0.0293024,0.25384,1,0,6.65,-0.525,0.385,-0.159332,-0.378078,-0.669048,-0.04242,0.25844,0.35532
-14.4045,0,0,19.4045,19.4045,5,5,24.8354,0.0741492,-22.9951,0.270027,-0.166996,-0.163485,1,0,6.4925,-0.5775,0.385,0.232166,-0.574254,-1.08312,-0.04242,0.25844,0.35532
-14.4076,0,0,19.4076,19.4076,5,5,24.8406,0.0734417,-22.9943,0.27004,-0.166913,-0.163523,1,0,6.5275,-0.245,0.3325,0.232166,-0.574254,-1.08312,-0.04242,0.25844,0.35532
-14.2991,0,0,19.2991,19.2991,5,5,24.6537,-0.325316,-22.831,-0.277218,0.256707,0.0592588,0,0,5.3375,0,0.5425,-0.324398,-0.148108,-0.863394,-0.04242,0.25844,0.35532
-14.1918,0,0,19.1918,19.1918,5,5,24.4687,-0.715195,-22.6664,-0.270414,0.253744,0.0605449,0,0,5.285,0.455,0.3325,-0.324398,-0.148108,-0.863394,-0.04242,0.25844,0.35532
-14.2866,0,0,19.2866,19.2866,5,5,24.6321,-0.871996,-22.5475,-0.0867855,-0.0933266,0.104693,0,0,4.7425,0.5075,0.1925,-0.14274,-0.497394,-0.818376,-0.04242,0.25844,0.35532
-14.3786,0,0,19.3786,19.3786,5,5,24.7907,-1.02562,-22.4312,-0.0841047,-0.0908302,0.103496,0,0,4.095,-0.3325,0.035,-0.14274,-0.497394,-0.818376,-0.04242,0.25844,0.35532
-14.3096,0,0,19.3096,19.3096,5,5,24.6717,-0.337349,-22.8172,0.50463,0.0529178,0.0395778,0,0,5.075,-0.2975,-0.1925,0.46055,-0.35197,-0.882792,-0.04074,0.26124,0.3514
-14.1739,0,0,19.1739,19.1739,5,5,24.4378,-0.419679,-22.8322,-0.0877547,0.230314,-0.0597979,0,0,6.2475,-0.385,-0.525,-0.135786,-0.171044,-0.983076,-0.04074,0.26124,0.3514
-14.0415,0,0,19.0415,19.0415,5,5,24.2094,-0.500971,-22.8476,-0.0863359,0.226678,-0.0581668,0,0,7.1575,-0.665,-0.84,-0.135786,-0.171044,-0.983076,-0.04074,0.26124,0.3514
-14.0447,0,0,19.0447,19.0447,5,5,24.215,-0.500683,-22.849,0.229036,-0.064994,-0.162959,1,0,6.72,-0.2275,-1.0325,0.180926,-0.462502,-1.08702,-0.04074,0.26124,0.3514
-14.0474,0,0,19.0474,19.0474,5,5,24.2196,-0.500141,-22.8504,0.229026,-0.0649202,-0.162992,1,0,6.195,-0.0875,-1.085,0.180926,-0.462502,-1.08702,-0.04074,0.26124,0.3514
-14.0396,0,0,19.0396,19.0396,5,5,24.2062,-0.323686,-22.9549,0.120011,0.00705121,0.0295393,0,0,5.355,0.2975,-1.015,0.074542,-0.3904,-0.89609,-0.04074,0.26124,0.3514
-14.0316,0,0,19.0316,19.0316,5,5,24.1925,-0.151983,-23.0583,0.117015,0.00683826,0.0296486,0,0,4.83,0.14,-0.91,0.074542,-0.3904,-0.89609,-0.04074,0.26124,0.3514
-14.0331,0,0,19.0331,19.0331,5,5,24.1949,-0.151717,-23.0592,0.0498283,-0.2353,-0.0464742,1,0,4.9875,-0.1225,-0.77,0.007076,-0.632326,-0.971608,-0.04074,0.26124,0.3514
-14.0353,0,0,19.0353,19.0353,5,5,24.1988,-0.152233,-23.0592,0.0498373,-0.235238,-0.0465021,1,0,5.7925,-0.3325,-0.1225,0.007076,-0.632326,-0.971608,-0.0462,0.25928,0.34944
-14.0709,0,0,19.0709,19.0709,5,5,24.2602,0.0437201,-23.1531,0.146521,-0.0626707,0.0500673,0,0,6.51,-1.05,0.14,0.107604,-0.460916,-0.87535,-0.0462,0.25928,0.34944
-14.107,0,0,19.107,19.107,5,5,24.3224,0.235245,-23.2441,0.143179,-0.0616855,0.0496137,0,0,7.2275,-0.525,0.91,0.107604,-0.460916,-0.87535,-0.0462,0.25928,0.34944
-13.9704,0,0,18.9704,18.9704,5,5,24.0869,0.633615,-23.5083,0.262693,0.173913,-0.064321,0,0,6.9825,0.0525,1.155,0.234606,-0.221796,-0.99003,-0.0462,0.25928,0.34944
-13.8352,0,0,18.8352,18.8352,5,5,23.8537,1.02204,-23.7724,0.255914,0.170155,-0.0627573,0,0,5.635,0.1925,1.05,0.234606,-0.221796,-0.99003,-0.0462,0.25928,0.34944
-13.8369,0,0,18.8369,18.8369,5,5,23.8568,1.022,-23.7703,0.151437,-0.352866,-0.154252,1,0,5.285,0.42,0.875,0.129686,-0.744322,-1.0808,-0.0462,0.25928,0.34944
-13.8386,0,0,18.8386,18.8386,5,5,23.8597,1.02193,-23.769,0.151438,-0.352819,-0.154273,1,0,5.2325,0.2275,0.5075,0.129686,-0.744322,-1.0808,-0.0462,0.25928,0.34944
-13.8403,0,0,18.8403,18.8403,5,5,23.8625,1.02127,-23.768,0.0226751,0.11888,-0.153063,1,0,5.18,-0.175,0.4375,0.000366,-0.273158,-1.07958,-0.0462,0.25928,0.34944
-13.8424,0,0,18.8424,18.8424,5,5,23.8663,1.02108,-23.7678,0.0226783,0.11894,-0.15309,1,0,5.705,-0.0875,-0.0525,0.000366,-0.273158,-1.07958,-0.04816,0.26152,0.35182
-13.8449,0,0,18.8449,18.8449,5,5,23.8706,1.02098,-23.7679,-0.148007,-0.200964,-0.0519335,1,0,6.02,-0.14,-0.28,-0.171044,-0.592798,-0.979172,-0.04816,0.26152,0.35182
-13.8472,0,0,18.8472,18.8472,5,5,23.8746,1.02081,-23.7689,-0.148004,-0.2009,-0.0519616,1,0,5.845,-0.385,-0.735,-0.171044,-0.592798,-0.979172,-0.04816,0.26152,0.35182
-13.8072,0,0,18.8072,18.8072,5,5,23.8055,1.08946,-23.8394,0.0339982,0.0892608,0.0651835,0,0,6.405,-0.875,-0.77,0.012932,-0.301828,-0.863394,-0.04816,0.26152,0.35182
-13.7677,0,0,18.7677,18.7677,5,5,23.7374,1.15744,-23.9096,0.0328119,0.0881644,0.065641,0,0,6.1425,-0.2625,-1.2075,0.012932,-0.301828,-0.863394,-0.04816,0.26152,0.35182
-13.77,0,0,18.77,18.77,5,5,23.7414,1.15921,-23.9109,0.34755,-0.102046,0.00733495,1,0,5.845,0.595,-1.33,0.329034,-0.491904,-0.921222,-0.04816,0.26152,0.35182
-13.7724,0,0,18.7724,18.7724,5,5,23.7456,1.16009,-23.9126,0.347535,-0.101979,0.00730528,1,0,5.9675,0.035,-1.3125,0.329034,-0.491904,-0.921222,-0.04816,0.26152,0.35182
-13.7747,0,0,18.7747,18.7747,5,5,23.7495,1.15986,-23.9138,-0.0187403,-0.00140588,-0.139154,1,0,5.8275,-0.455,-0.8225,-0.038796,-0.391498,-1.06652,-0.04816,0.26152,0.35182
-13.7773,0,0,18.7773,18.7773,5,5,23.7539,1.16007,-23.9136,-0.0187439,-0.00133551,-0.139185,1,0,6.0725,0.105,-0.175,-0.038796,-0.391498,-1.06652,-0.0455,0.2576,0.34706
-13.8699,0,0,18.8699,18.8699,5,5,23.9136,0.896988,-23.7547,-0.176336,-0.126131,0.0116057,0,0,6.1775,-0.1225,0.1225,-0.201666,-0.518744,-0.915854,-0.0455,0.2576,0.34706
-13.9603,0,0,18.9603,18.9603,5,5,24.0695,0.640333,-23.5972,-0.171857,-0.123621,0.0105543,0,0,6.3175,-0.1225,0.6475,-0.201666,-0.518744,-0.915854,-0.0455,0.2576,0.34706
-13.9831,0,0,18.9831,18.9831,5,5,24.1088,0.794005,-23.6757,0.118606,-0.0576719,0.00446557,0,0,5.9675,0.0525,0.8575,0.09272,-0.453474,-0.921588,-0.0455,0.2576,0.34706
-14.0057,0,0,19.0057,19.0057,5,5,24.1477,0.943998,-23.7532,0.115988,-0.0570672,0.0041512,0,0,5.9675,0.0525,0.8575,0.09272,-0.453474,-0.921588,-0.0455,0.2576,0.34706
-13.7141,0,0,18.7141,18.7141,5,5,23.645,1.52729,-24.1832,0.351211,0.435055,-0.0200365,0,0,5.005,0.21,0.8225,0.33916,0.046238,-0.948916,-0.0455,0.2576,0.34706
-13.4267,0,0,18.4267,18.4267,5,5,23.1496,2.09703,-24.6172,0.341272,0.426998,-0.016893,0,0,5.005,0.21,0.8225,0.33916,0.046238,-0.948916,-0.0455,0.2576,0.34706
-13.4286,0,0,18.4286,18.4286,5,5,23.1528,2.09613,-24.6166,-0.178549,-0.431135,-0.0182669,1,0,5.39,-0.4025,0.2975,-0.182878,-0.811056,-0.950258,-0.0455,0.2576,0.34706
-13.5013,0,0,18.5013,18.5013,5,5,23.2781,2.23197,-24.6815,0.124497,-0.139966,0.0250509,0,0,5.8625,-0.105,0,0.12383,-0.52216,-0.906338,-0.0406,0.25704,0.35532
-13.5038,0,0,18.5038,18.5038,5,5,23.2824,2.23179,-24.6827,-0.136694,-0.0813985,-0.0810831,1,0,6.0375,-0.42,-0.8225,-0.13847,-0.463722,-1.01162,-0.0406,0.25704,0.35532
-13.5059,0,0,18.5059,18.5059,5,5,23.286,2.23138,-24.6848,-0.136687,-0.0813402,-0.081108,1,0,5.6875,-0.7525,-1.26,-0.13847,-0.463722,-1.01162,-0.0406,0.25704,0.35532
-13.5077,0,0,18.5077,18.5077,5,5,23.2891,2.23115,-24.6867,-0.103396,-0.0572308,-0.213176,1,0,5.4075,-0.63,-1.225,-0.105042,-0.439688,-1.14265,-0.0406,0.25704,0.35532
-13.5091,0,0,18.5091,18.5091,5,5,23.2916,2.23299,-24.6883,-0.103428,-0.0571923,-0.213194,1,0,5.005,0.5775,-1.505,-0.105042,-0.439688,-1.14265,-0.0406,0.25704,0.35532
-13.5965,0,0,18.5965,18.5965,5,5,23.4422,2.09436,-24.6037,-0.0857032,-0.155743,-0.0273935,0,0,5.565,0.7175,-1.61,-0.08967,-0.540582,-0.957334,-0.0406,0.25704,0.35532
-13.6821,0,0,18.6821,18.6821,5,5,23.5898,1.95722,-24.5202,-0.0833112,-0.153349,-0.0283429,0,0,5.7225,-0.49,-0.8925,-0.08967,-0.540582,-0.957334,-0.0406,0.25704,0.35532
-13.783,0,0,18.783,18.783,5,5,23.7637,1.92437,-24.4822,0.00230194,-0.164241,0.0330371,0,0,5.915,-0.56,-0.525,-0.00427,-0.554246,-0.895236,-0.0406,0.25704,0.35532
-13.8813,0,0,18.8813,18.8813,5,5,23.9333,1.8935,-24.439,0.0028403,-0.161528,0.0318577,0,0,5.39,-0.1575,-0.0875,-0.00427,-0.554246,-0.895236,-0.04648,0.25634,0.35168
-13.8957,0,0,18.8957,18.8957,5,5,23.9581,2.14867,-24.5768,0.172965,-0.0128118,0.0986681,0,0,4.935,-0.0175,0.3675,0.171044,-0.406016,-0.828624,-0.04648,0.25634,0.35168
-13.9101,0,0,18.9101,18.9101,5,5,23.983,2.39738,-24.7122,0.168627,-0.0124864,0.098335,0,0,4.725,0.0175,0.77,0.171044,-0.406016,-0.828624,-0.04648,0.25634,0.35168
-13.9107,0,0,18.9107,18.9107,5,5,23.984,2.39696,-24.7101,-0.232025,-0.0438569,-0.125807,1,0,4.1125,0.245,1.0325,-0.231312,-0.43737,-1.05103,-0.04648,0.25634,0.35168
-13.9118,0,0,18.9118,18.9118,5,5,23.9858,2.39729,-24.7077,-0.232031,-0.0438275,-0.12582,1,0,4.585,0.7,0.98,-0.231312,-0.43737,-1.05103,-0.04648,0.25634,0.35168
-13.8929,0,0,18.8929,18.8929,5,5,23.9533,2.40176,-24.7352,0.000414582,0.00572557,-0.0738318,0,0,5.285,0.6475,0.875,0.002196,-0.38735,-0.999668,-0.04648,0.25634,0.35168
-13.8755,0,0,18.8755,18.8755,5,5,23.9232,2.40508,-24.7637,0.000356646,0.00524435,-0.0736209,0,0,6.2825,-0.14,0.4375,0.002196,-0.38735,-0.999668,-0.04648,0.25634,0.35168
-13.9802,0,0,18.9802,18.9802,5,5,24.1039,2.0877,-24.5728,-0.199541,-0.089246,0.0948411,0,0,6.475,0.175,0.455,-0.204106,-0.484706,-0.83143,-0.04648,0.25634,0.35168
-14.0814,0,0,19.0814,19.0814,5,5,24.2783,1.77953,-24.3941,-0.194165,-0.086397,0.0937602,0,0,5.74,0.2975,-0.2625,-0.204106,-0.484706,-0.83143,-0.04242,0.2597,0.35196
-14.0831,0,0,19.0831,19.0831,5,5,24.2813,1.7798,-24.3954,0.070669,-0.0731594,-0.161503,1,0,5.32,-0.21,-0.9625,0.061854,-0.47153,-1.0847,-0.04242,0.2597,0.35196
-14.0827,0,0,19.0827,19.0827,5,5,24.2805,1.77962,-24.3976,0.0706722,-0.0731718,-0.161497,1,0,3.2025,-0.665,-1.33,0.061854,-0.47153,-1.0847,-0.04242,0.2597,0.35196
-13.9849,0,0,18.9849,18.9849,5,5,24.1119,2.03425,-24.5913,0.148355,0.140006,0.0223976,0,0,3.3425,-0.0175,-1.3825,0.144326,-0.255834,-0.903288,-0.04242,0.2597,0.35196
-13.8894,0,0,18.8894,18.8894,5,5,23.9473,2.28248,-24.7844,0.144025,0.137316,0.023418,0,0,3.5525,0.14,-1.54,0.144326,-0.255834,-0.903288,-0.04242,0.2597,0.35196
-13.9975,0,0,18.9975,18.9975,5,5,24.1336,1.97442,-24.6036,-0.20291,-0.127824,0.0515381,0,0,4.4625,0.5775,-1.26,-0.209474,-0.523746,-0.874252,-0.04242,0.2597,0.35196
-14.1043,0,0,19.1043,19.1043,5,5,24.3178,1.67142,-24.426,-0.197624,-0.124825,0.0503728,0,0,5.9675,-0.98,-0.7875,-0.209474,-0.523746,-0.874252,-0.04242,0.2597,0.35196
-14.2331,0,0,19.2331,19.2331,5,5,24.5399,1.60113,-24.3547,-0.0186646,-0.190041,0.0726547,0,0,6.335,-0.91,-0.07,-0.030988,-0.592432,-0.850584,-0.04242,0.2597,0.35196
-14.3594,0,0,19.3594,19.3594,5,5,24.7575,1.53339,-24.2846,-0.0174826,-0.186576,0.0711006,0,0,6.335,-0.91,-0.07,-0.030988,-0.592432,-0.850584,-0.04242,0.2597,0.35196
-14.4313,0,0,19.4313,19.4313,5,5,24.8815,1.74971,-24.3795,0.172756,-0.119443,0.0854631,0,0,5.075,0.385,0.2275,0.163846,-0.527284,-0.835334,-0.04396,0.26138,0.3486
-14.432,0,0,19.432,19.432,5,5,24.8828,1.74976,-24.378,-0.124277,-0.166319,-0.136346,1,0,4.3225,0.3325,0.525,-0.134444,-0.574132,-1.05542,-0.04396,0.26138,0.3486
-14.4322,0,0,19.4322,19.4322,5,5,24.8831,1.74943,-24.3758,-0.124272,-0.166313,-0.136348,1,0,3.745,0.315,1.015,-0.134444,-0.574132,-1.05542,-0.04396,0.26138,0.3486
-14.433,0,0,19.433,19.433,5,5,24.8844,1.74871,-24.374,-0.0771226,0.0496269,0.179867,1,0,4.2875,0.0175,0.91,-0.087108,-0.358436,-0.741638,-0.04396,0.26138,0.3486
-14.4342,0,0,19.4342,19.4342,5,5,24.8865,1.74897,-24.3726,-0.0771272,0.0496607,0.179851,1,0,4.7775,0.4375,0.455,-0.087108,-0.358436,-0.741638,-0.04396,0.26138,0.3486
-14.4358,0,0,19.4358,19.4358,5,5,24.8894,1.74894,-24.3716,-0.231778,-0.0205177,0.395236,1,0,5.1625,0.175,0.2975,-0.242414,-0.428586,-0.527894,-0.04396,0.26138,0.3486
-14.4375,0,0,19.4375,19.4375,5,5,24.8922,1.74891,-24.3706,-0.231777,-0.0204732,0.395215,1,0,5.1625,0.175,0.2975,-0.242414,-0.428586,-0.527894,-0.04396,0.26138,0.3486
-14.4564,0,0,19.4564,19.4564,5,5,24.9248,1.7014,-24.3441,-0.0302543,-0.0647666,-0.0797061,0,0,4.69,-0.0525,-0.595,-0.04087,-0.47336,-0.998936,-0.0413,0.2527,0.35504
-14.457,0,0,19.457,19.457,5,5,24.9259,1.70199,-24.3464,-0.0409553,-0.55057,0.0402836,1,0,4.235,-0.2975,-1.575,-0.051606,-0.958676,-0.879864,-0.0413,0.2527,0.35504
-14.4576,0,0,19.4576,19.4576,5,5,24.9269,1.70258,-24.3486,-0.0409656,-0.550554,0.0402755,1,0,4.235,-0.2975,-1.575,-0.051606,-0.958676,-0.879864,-0.0413,0.2527,0.35504
-14.4702,0,0,19.4702,19.4702,5,5,24.9487,1.21948,-24.1029,-0.32313,0.0881153,0.0978505,0,0,2.975,0.1225,-1.68,-0.34343,-0.321104,-0.822768,-0.0413,0.2527,0.35504
-14.4815,0,0,19.4815,19.4815,5,5,24.9681,0.746837,-23.8584,-0.314882,0.0884828,0.0978356,0,0,2.975,0.1225,-1.68,-0.34343,-0.321104,-0.822768,-0.0413,0.2527,0.35504
-14.476,0,0,19.476,19.476,5,5,24.9586,0.695382,-23.8327,-0.0395483,-0.00740962,-0.0588438,0,0,4.3925,-0.7,-1.085,-0.067832,-0.416752,-0.978318,-0.0413,0.2527,0.35504
-14.4705,0,0,19.4705,19.4705,5,5,24.9492,0.64514,-23.8071,-0.0386715,-0.00755507,-0.0587648,0,0,4.3925,-0.7,-1.085,-0.067832,-0.416752,-0.978318,-0.0413,0.2527,0.35504
-14.4371,0,0,19.4371,19.4371,5,5,24.8916,0.533116,-23.7589,-0.0815446,0.0958377,0.0479047,0,0,5.0925,-0.245,0.4025,-0.11285,-0.312564,-0.87291,-0.0413,0.2527,0.35504
-14.4041,0,0,19.4041,19.4041,5,5,24.8347,0.423465,-23.7119,-0.0796309,0.0949437,0.0483365,0,0,5.0925,-0.245,0.4025,-0.11285,-0.312564,-0.87291,-0.04396,0.2555,0.35938
-14.4045,0,0,19.4045,19.4045,5,5,24.8353,0.422642,-23.71,0.281074,-0.0180143,-0.0984681,1,0,3.92,-0.035,0.945,0.249368,-0.425414,-1.01858,-0.04396,0.2555,0.35938
-14.4048,0,0,19.4048,19.4048,5,5,24.8358,0.421819,-23.7082,0.281089,-0.0180051,-0.0984723,1,0,3.92,-0.035,0.945,0.249368,-0.425414,-1.01858,-0.04396,0.2555,0.35938
-14.4107,0,0,19.4107,19.4107,5,5,24.8461,0.357667,-23.6655,-0.0442236,-0.00636011,-0.00718955,0,0,2.9225,0,1.2775,-0.078446,-0.413946,-0.927932,-0.04396,0.2555,0.35938
-14.411,0,0,19.411,19.411,5,5,24.8466,0.357765,-23.6632,-0.0852874,-0.114556,-0.347269,1,0,3.885,0.56,0.945,-0.119682,-0.522038,-1.26538,-0.04396,0.2555,0.35938
-14.4118,0,0,19.4118,19.4118,5,5,24.8479,0.358464,-23.6614,-0.0852996,-0.114536,-0.347278,1,0,4.3225,0.7525,0.525,-0.119682,-0.522038,-1.26538,-0.04396,0.2555,0.35938
-14.413,0,0,19.413,19.413,5,5,24.8501,0.358635,-23.6599,0.0202684,0.00249641,-0.156847,1,0,4.83,0.42,0.5425,-0.013664,-0.405162,-1.07641,-0.04396,0.2555,0.35938
-14.4138,0,0,19.4138,19.4138,5,5,24.8514,0.358503,-23.6596,0.0202707,0.00251823,-0.156857,1,0,4.375,-0.0525,-0.0525,-0.013664,-0.405162,-1.07641,-0.04396,0.2555,0.35938
-14.5845,0,0,19.5845,19.5845,5,5,25.1457,0.351953,-23.589,0.0372716,-0.296068,0.0901899,0,0,3.9375,-0.0525,-0.35,0.003294,-0.708088,-0.829112,-0.04578,0.25788,0.34846
-14.5847,0,0,19.5847,19.5847,5,5,25.146,0.352485,-23.5905,0.174298,0.139074,-0.46431,1,0,3.78,-0.1575,-1.19,0.14091,-0.273402,-1.37933,-0.04578,0.25788,0.34846
-14.5847,0,0,19.5847,19.5847,5,5,25.1461,0.353601,-23.5929,0.174279,0.139076,-0.464311,1,0,3.675,-0.0525,-1.7675,0.14091,-0.273402,-1.37933,-0.04578,0.25788,0.34846
-14.5847,0,0,19.5847,19.5847,5,5,25.146,0.354867,-23.5957,-0.0893674,-0.0947978,-0.0896868,1,0,3.5875,-0.07,-2.0125,-0.12383,-0.507032,-1.0076,-0.04578,0.25788,0.34846
-14.5842,0,0,19.5842,19.5842,5,5,25.1451,0.355588,-23.5978,-0.08938,-0.0948118,-0.0896803,1,0,3.115,-0.1925,-1.5225,-0.12383,-0.507032,-1.0076,-0.04578,0.25788,0.34846
-14.5447,0,0,19.5447,19.5447,5,5,25.077,0.230403,-23.5507,-0.0998296,0.0731396,-0.0413386,0,0,3.9375,-0.7,-1.19,-0.136518,-0.338184,-0.96014,-0.04578,0.25788,0.34846
-14.5052,0,0,19.5052,19.5052,5,5,25.0089,0.108104,-23.502,-0.0976951,0.0720651,-0.0408296,0,0,3.465,-0.21,-0.315,-0.136518,-0.338184,-0.96014,-0.04578,0.25788,0.34846
-14.5052,0,0,19.5052,19.5052,5,5,25.009,0.107615,-23.5016,-0.0433825,-0.00108732,0.139412,1,0,3.6575,-0.1925,0.14,-0.081984,-0.411262,-0.781288,-0.04578,0.25788,0.34846
-14.5048,0,0,19.5048,19.5048,5,5,25.0082,0.108044,-23.4998,-0.0433899,-0.00109958,0.139418,1,0,3.1675,0.63,0.63,-0.081984,-0.411262,-0.781288,-0.04928,0.2618,0.35
-14.5264,0,0,19.5264,19.5264,5,5,25.0456,0.48851,-23.6808,0.285027,-0.0729442,0.0562433,0,0,3.325,0.105,0.84,0.254492,-0.483608,-0.863516,-0.04928,0.2618,0.35
-14.5488,0,0,19.5488,19.5488,5,5,25.0842,0.858798,-23.8593,0.278565,-0.0723661,0.055889,0,0,3.7975,-0.455,0.91,0.254492,-0.483608,-0.863516,-0.04928,0.2618,0.35
-14.6195,0,0,19.6195,19.6195,5,5,25.206,0.847397,-23.8298,0.0105236,-0.120879,0.0244973,0,0,3.5175,-0.35,1.0675,-0.014884,-0.533994,-0.893772,-0.04928,0.2618,0.35
-14.6897,0,0,19.6897,19.6897,5,5,25.327,0.838439,-23.8007,0.0106799,-0.118968,0.0235978,0,0,4.375,0.5775,0.665,-0.014884,-0.533994,-0.893772,-0.04928,0.2618,0.35
-14.6897,0,0,19.6897,19.6897,5,5,25.3271,0.838827,-23.7997,0.186827,-0.029203,-0.225497,1,0,3.6575,0.4025,0.1925,0.162016,-0.444324,-1.14094,-0.04928,0.2618,0.35
-14.6905,0,0,19.6905,19.6905,5,5,25.3285,0.838515,-23.7996,0.186833,-0.0291817,-0.225507,1,0,4.3575,-0.1925,-0.105,0.162016,-0.444324,-1.14094,-0.04928,0.2618,0.35
-14.6903,0,0,19.6903,19.6903,5,5,25.3281,0.838843,-23.7996,-0.0515278,0.444785,-0.384107,1,0,3.36,0.1225,-0.315,-0.077348,0.029158,-1.29832,-0.04928,0.2618,0.35
-14.6902,0,0,19.6902,19.6902,5,5,25.328,0.839526,-23.8006,-0.0515397,0.444785,-0.384107,1,0,3.5875,0.07,-0.91,-0.077348,0.029158,-1.29832,-0.04802,0.25774,0.35266
-14.7032,0,0,19.7032,19.7032,5,5,25.3503,0.85503,-23.8026,0.0145209,-0.037511,-0.0223165,0,0,3.57,-0.0175,-1.2775,-0.010736,-0.452986,-0.939156,-0.04802,0.25774,0.35266
-14.7149,0,0,19.7149,19.7149,5,5,25.3705,0.870106,-23.8055,0.0142578,-0.0371935,-0.0224713,0,0,2.6425,-0.28,-1.6625,-0.010736,-0.452986,-0.939156,-0.04802,0.25774,0.35266
-14.7149,0,0,19.7149,19.7149,5,5,25.3706,0.870394,-23.8082,0.169997,-0.127933,-0.301811,1,0,3.6575,-0.595,-1.7675,0.145668,-0.543632,-1.21634,-0.04802,0.25774,0.35266
-14.715,0,0,19.715,19.715,5,5,25.3706,0.870682,-23.811,0.169992,-0.127932,-0.301811,1,0,3.6575,-0.595,-1.7675,0.145668,-0.543632,-1.21634,-0.04802,0.25774,0.35266
-14.6121,0,0,19.6121,19.6121,5,5,25.1933,1.05629,-23.9454,0.116701,0.122171,-0.0997642,0,0,3.15,-0.4375,-0.84,0.095404,-0.29097,-1.01711,-0.04802,0.25774,0.35266
-14.5114,0,0,19.5114,19.5114,5,5,25.0196,1.23685,-24.0794,0.11355,0.1194,-0.0985351,0,0,3.15,-0.4375,-0.84,0.095404,-0.29097,-1.01711,-0.04802,0.25774,0.35266
-14.5108,0,0,19.5108,19.5108,5,5,25.0186,1.23661,-24.0782,-0.381014,-0.126335,-0.0671759,1,0,3.045,0.1225,0.4725,-0.401258,-0.536434,-0.986004,-0.04802,0.25774,0.35266
-14.5102,0,0,19.5102,19.5102,5,5,25.0176,1.23637,-24.077,-0.381009,-0.12635,-0.0671687,1,0,3.045,0.1225,0.4725,-0.401258,-0.536434,-0.986004,-0.04802,0.25774,0.35266
-14.3576,0,0,19.3576,19.3576,5,5,24.7544,1.12993,-24.0892,-0.103987,0.273617,0.0165596,0,0,2.975,-0.2275,1.33,-0.124928,-0.132736,-0.904874,-0.04522,0.25718,0.35504
-14.3577,0,0,19.3577,19.3577,5,5,24.7546,1.13543,-24.0834,0.135365,0.192528,0.0600801,1,0,3.6575,4.2875,1.4875,0.115534,-0.213744,-0.861686,-0.04522,0.25718,0.35504
-14.3578,0,0,19.3578,19.3578,5,5,24.7549,1.14092,-24.0776,0.13527,0.19253,0.0600768,1,0,3.6575,4.2875,1.4875,0.115534,-0.213744,-0.861686,-0.04522,0.25718,0.35504
-14.3993,0,0,19.3993,19.3993,5,5,24.8264,0.839756,-23.9093,-0.194411,0.015641,0.0967662,0,0,3.745,0.8925,0.49,-0.22082,-0.39162,-0.824842,-0.04522,0.25718,0.35504
-14.4394,0,0,19.4394,19.4394,5,5,24.8955,0.545756,-23.7427,-0.18928,0.0167606,0.0963158,0,0,3.745,0.8925,0.49,-0.22082,-0.39162,-0.824842,-0.04522,0.25718,0.35504
-14.4396,0,0,19.4396,19.4396,5,5,24.8959,0.546547,-23.7419,0.0014387,-0.0425865,-0.127945,1,0,3.8325,0.56,-0.0175,-0.02928,-0.450912,-1.04737,-0.04522,0.25718,0.35504
-14.4396,0,0,19.4396,19.4396,5,5,24.8959,0.546678,-23.7418,-0.105228,-0.45855,0.205982,1,0,3.6225,0.0525,-0.1925,-0.136396,-0.866444,-0.716018,-0.04522,0.25718,0.35504
-14.4399,0,0,19.4399,19.4399,5,5,24.8963,0.547621,-23.7427,-0.105244,-0.458543,0.205979,1,0,3.8325,0.21,-0.98,-0.136396,-0.866444,-0.716018,-0.04186,0.25676,0.35602
-14.3002,0,0,19.3002,19.3002,5,5,24.6555,0.620739,-23.8386,0.0178808,0.231314,0.0175278,0,0,3.3775,-0.14,-1.2425,-0.011468,-0.173484,-0.904752,-0.04186,0.25676,0.35602
-14.1641,0,0,19.1641,19.1641,5,5,24.4209,0.690572,-23.9348,0.016662,0.227585,0.0192149,0,0,4.48,-0.735,-1.2775,-0.011468,-0.173484,-0.904752,-0.04186,0.25676,0.35602
-14.025,0,0,19.025,19.025,5,5,24.1811,0.751178,-24.0284,0.00989453,0.228039,-0.00169698,0,0,3.78,-0.2275,-1.1725,-0.017202,-0.169214,-0.9272,-0.04186,0.25676,0.35602
-13.8883,0,0,18.8883,18.8883,5,5,23.9453,0.81013,-24.1219,0.0088657,0.224277,-3.23707e-05,0,0,3.675,0,-1.295,-0.017202,-0.169214,-0.9272,-0.04186,0.25676,0.35602
-13.8881,0,0,18.8881,18.8881,5,5,23.9449,0.810687,-24.1233,0.300908,0.215599,-0.158264,1,0,3.395,-0.105,-1.155,0.276086,-0.177876,-1.08421,-0.04186,0.25676,0.35602
-13.887,0,0,18.887,18.887,5,5,23.9431,0.810878,-24.1231,0.300904,0.215571,-0.158252,1,0,2.59,0.105,-0.1575,0.276086,-0.177876,-1.08421,-0.04186,0.25676,0.35602
-14.0826,0,0,19.0826,19.0826,5,5,24.2804,0.67094,-23.9735,-0.0571016,-0.252774,0.180186,0,0,3.325,0.4375,0.1575,-0.085888,-0.651114,-0.74603,-0.04186,0.25676,0.35602
-14.2738,0,0,19.2738,19.2738,5,5,24.61,0.534313,-23.8259,-0.0547171,-0.247526,0.177828,0,0,2.8175,0.07,0.945,-0.085888,-0.651114,-0.74603,-0.04186,0.25676,0.35602
-14.2738,0,0,19.2738,19.2738,5,5,24.61,0.53309,-23.8239,0.244645,-0.36428,-0.164706,1,0,3.5525,-0.1925,1.1725,0.21472,-0.767746,-1.08592,-0.04438,0.25872,0.3521
-14.2743,0,0,19.2743,19.2743,5,5,24.6109,0.532108,-23.8218,0.130709,-0.311874,-0.0834432,1,0,4.095,-0.07,1.1025,0.100284,-0.715408,-1.00528,-0.04438,0.25872,0.3521
-14.2746,0,0,19.2746,19.2746,5,5,24.6114,0.532743,-23.8198,0.130697,-0.311866,-0.0834471,1,0,3.885,0.7875,0.7,0.100284,-0.715408,-1.00528,-0.04438,0.25872,0.3521
-14.2751,0,0,19.2751,19.2751,5,5,24.6122,0.533251,-23.8192,0.0497791,0.138062,-0.346194,1,0,4.06,0.3675,-0.035,0.019032,-0.26596,-1.26599,-0.04438,0.25872,0.3521
-14.2754,0,0,19.2754,19.2754,5,5,24.6128,0.533576,-23.8201,0.0497734,0.138072,-0.346198,1,0,3.9375,-0.105,-0.805,0.019032,-0.26596,-1.26599,-0.04438,0.25872,0.3521
-14.3388,0,0,19.3388,19.3388,5,5,24.722,0.691866,-23.8788,0.119659,-0.0731978,0.124733,0,0,3.36,0.2625,-0.875,0.091988,-0.478728,-0.79788,-0.04438,0.25872,0.3521
-14.4019,0,0,19.4019,19.4019,5,5,24.8308,0.846801,-23.937,0.116955,-0.0714889,0.123904,0,0,3.955,0.21,-1.19,0.091988,-0.478728,-0.79788,-0.04438,0.25872,0.3521
-14.4027,0,0,19.4027,19.4027,5,5,24.8322,0.848196,-23.939,0.0383299,-0.201654,-0.0263497,1,0,4.41,0.21,-1.61,0.013054,-0.60878,-0.946964,-0.04438,0.25872,0.3521
-14.4029,0,0,19.4029,19.4029,5,5,24.8326,0.848968,-23.9412,0.0383164,-0.201648,-0.0263528,1,0,3.85,-0.1925,-1.61,0.013054,-0.60878,-0.946964,-0.04452,0.26404,0.35756
-14.3274,0,0,19.3274,19.3274,5,5,24.7023,0.815842,-23.9689,-0.0432299,0.113088,-0.0754328,0,0,3.7625,-0.8925,-1.505,-0.069418,-0.292312,-0.996618,-0.04452,0.26404,0.35756
-14.2526,0,0,19.2526,19.2526,5,5,24.5734,0.784083,-23.9951,-0.0426756,0.111046,-0.0744877,0,0,3.2375,-0.0525,-1.1025,-0.069418,-0.292312,-0.996618,-0.04452,0.26404,0.35756
-14.1582,0,0,19.1582,19.1582,5,5,24.4107,1.15139,-24.2326,0.246611,0.112447,-0.0145166,0,0,3.5,0.1575,-0.7525,0.22753,-0.288286,-0.93818,-0.04452,0.26404,0.35756
-14.0647,0,0,19.0647,19.0647,5,5,24.2495,1.5082,-24.4691,0.240385,0.109826,-0.01349,0,0,2.4325,-0.49,-0.4725,0.22753,-0.288286,-0.93818,-0.04452,0.26404,0.35756
-14.0639,0,0,19.0639,19.0639,5,5,24.2481,1.50804,-24.4689,0.0964271,-0.36356,-0.146141,1,0,2.8,-0.0875,-0.0875,0.08296,-0.761158,-1.06982,-0.04452,0.26404,0.35756
-14.0639,0,0,19.0639,19.0639,5,5,24.2481,1.50779,-24.4676,0.0964315,-0.363561,-0.146141,1,0,3.5525,0.1225,0.5075,0.08296,-0.761158,-1.06982,-0.04452,0.26404,0.35756
-14.0414,0,0,19.0414,19.0414,5,5,24.2093,1.74893,-24.6178,0.184918,-0.0138453,-0.0422034,0,0,3.4825,-0.175,0.7,0.176046,-0.41114,-0.96685,-0.04452,0.26404,0.35756
-14.0202,0,0,19.0202,19.0202,5,5,24.1728,1.98329,-24.7657,0.18083,-0.0144802,-0.0420643,0,0,4.06,-0.5775,1.12,0.176046,-0.41114,-0.96685,-0.04508,0.26418,0.3577
-14.0208,0,0,19.0208,19.0208,5,5,24.1737,1.98199,-24.7636,-0.254552,0.0114256,-0.269279,1,0,4.0775,-0.245,1.19,-0.261202,-0.385276,-1.19231,-0.04508,0.26418,0.3577
-14.0209,0,0,19.0209,19.0209,5,5,24.1739,1.98186,-24.7619,-0.25455,0.0114291,-0.26928,1,0,3.6925,0.2975,0.7175,-0.261202,-0.385276,-1.19231,-0.04508,0.26418,0.3577
-14.0207,0,0,19.0207,19.0207,5,5,24.1736,1.98163,-24.7612,0.117443,0.0822571,-0.238295,1,0,3.395,-0.0175,0.175,0.112362,-0.314516,-1.16156,-0.04508,0.26418,0.3577
-14.0205,0,0,19.0205,19.0205,5,5,24.1732,1.98139,-24.7606,0.117448,0.0822516,-0.238292,1,0,3.395,-0.0175,0.175,0.112362,-0.314516,-1.16156,-0.04508,0.26418,0.3577
-14.0207,0,0,19.0207,19.0207,5,5,24.1736,1.98225,-24.7614,0.297231,0.228687,-0.246041,1,0,3.815,0.21,-0.875,0.292922,-0.168238,-1.16925,-0.04508,0.26418,0.3577
-14.0209,0,0,19.0209,19.0209,5,5,24.1739,1.98311,-24.7622,0.297216,0.228692,-0.246044,1,0,3.815,0.21,-0.875,0.292922,-0.168238,-1.16925,-0.04508,0.26418,0.3577
-14.0221,0,0,19.0221,19.0221,5,5,24.176,1.9844,-24.7633,-0.119502,-0.219114,-0.0474976,1,0,4.795,0.385,-1.1025,-0.125538,-0.615612,-0.972218,-0.04508,0.26418,0.3577
-14.0233,0,0,19.0233,19.0233,5,5,24.1781,1.98569,-24.7644,-0.119524,-0.219081,-0.0475132,1,0,4.795,0.385,-1.1025,-0.125538,-0.615612,-0.972218,-0.04662,0.2541,0.35714
-13.9129,0,0,18.9129,18.9129,5,5,23.9877,1.76424,-24.7083,-0.195842,0.206604,-0.08096,0,0,4.5675,0.105,-0.6125,-0.206058,-0.187392,-1.00687,-0.04662,0.2541,0.35714
-13.804,0,0,18.804,18.804,5,5,23.8001,1.54705,-24.6514,-0.192053,0.203655,-0.0795337,0,0,4.5675,0.105,-0.6125,-0.206058,-0.187392,-1.00687,-0.04662,0.2541,0.35714
-13.8048,0,0,18.8048,18.8048,5,5,23.8013,1.5403,-24.6546,0.111293,-0.0123661,0.133161,1,0,4.3575,-4.41,-0.315,0.098454,-0.40321,-0.795806,-0.04662,0.2541,0.35714
-13.8055,0,0,18.8055,18.8055,5,5,23.8026,1.53355,-24.6577,0.111411,-0.0123447,0.133155,1,0,4.3575,-4.41,-0.315,0.098454,-0.40321,-0.795806,-0.04662,0.2541,0.35714
-13.805,0,0,18.805,18.805,5,5,23.8018,1.54001,-24.6534,0.368362,-0.204464,-0.0158556,1,0,3.0975,4.4275,0.5425,0.356606,-0.595116,-0.94367,-0.04662,0.2541,0.35714
-13.8046,0,0,18.8046,18.8046,5,5,23.801,1.54647,-24.6491,0.368249,-0.204478,-0.0158528,1,0,3.0975,4.4275,0.5425,0.356606,-0.595116,-0.94367,-0.04662,0.2541,0.35714
-13.7741,0,0,18.7741,18.7741,5,5,23.7484,1.30364,-24.5401,-0.1742,0.104439,0.0467023,0,0,3.0975,-0.3325,1.0675,-0.192394,-0.285724,-0.88206,-0.04662,0.2541,0.35714
-13.7432,0,0,18.7432,18.7432,5,5,23.6951,1.06816,-24.4473,-0.170091,0.103621,0.0471546,0,0,3.0975,-0.3325,1.0675,-0.192394,-0.285724,-0.88206,-0.04354,0.26292,0.35784
-13.7436,0,0,18.7436,18.7436,5,5,23.6958,1.06763,-24.4459,-0.280998,-0.0333939,-0.143912,1,0,3.9725,-0.0175,0.6125,-0.30378,-0.422608,-1.07165,-0.04354,0.26292,0.35784
-13.7444,0,0,18.7444,18.7444,5,5,23.6973,1.06801,-24.4446,-0.00146585,-0.0791671,0.209677,1,0,4.445,0.4725,0.4025,-0.023058,-0.468358,-0.720776,-0.04354,0.26292,0.35784
-13.7444,0,0,18.7444,18.7444,5,5,23.6973,1.06811,-24.4445,-0.00146765,-0.079168,0.209677,1,0,3.57,0.0175,-0.2275,-0.023058,-0.468358,-0.720776,-0.04354,0.26292,0.35784
-13.7444,0,0,18.7444,18.7444,5,5,23.6972,1.06794,-24.4456,-0.036088,-0.409766,-0.017039,1,0,3.57,-0.385,-0.735,-0.057828,-0.798612,-0.945744,-0.04354,0.26292,0.35784
-13.7445,0,0,18.7445,18.7445,5,5,23.6973,1.0683,-24.4471,-0.0360943,-0.409764,-0.0170402,1,0,3.71,-0.2275,-1.155,-0.057828,-0.798612,-0.945744,-0.04354,0.26292,0.35784
-13.7445,0,0,18.7445,18.7445,5,5,23.6973,1.06902,-24.4488,0.0541569,0.357192,0.0493517,1,0,3.6225,-0.0525,-1.295,0.032818,-0.032452,-0.879864,-0.04354,0.26292,0.35784
-13.7453,0,0,18.7453,18.7453,5,5,23.6987,1.06958,-24.451,0.0541472,0.357214,0.0493417,1,0,4.41,-0.2625,-1.5225,0.032818,-0.032452,-0.879864,-0.04354,0.26292,0.35784
-13.7692,0,0,18.7692,18.7692,5,5,23.7399,1.29663,-24.567,0.170942,-0.0527509,0.0516827,0,0,4.06,0.56,-1.47,0.154086,-0.442616,-0.87718,-0.04368,0.25676,0.35042
-13.7693,0,0,18.7693,18.7693,5,5,23.7402,1.29825,-24.5681,-0.122717,0.191141,0.103318,1,0,3.78,0.5775,-1.155,-0.140788,-0.198982,-0.82594,-0.04368,0.25676,0.35042
-13.7696,0,0,18.7696,18.7696,5,5,23.7406,1.29929,-24.5688,-0.122735,0.191147,0.103315,1,0,3.85,0.3325,-0.875,-0.140788,-0.198982,-0.82594,-0.04368,0.25676,0.35042
-13.8604,0,0,18.8604,18.8604,5,5,23.8972,1.23983,-24.5093,-0.0220795,-0.131445,0.0619054,0,0,3.3775,-0.2275,-0.7175,-0.040748,-0.523746,-0.865956,-0.04368,0.25676,0.35042
-13.9495,0,0,18.9495,18.9495,5,5,24.0508,1.18291,-24.4494,-0.0210864,-0.128988,0.0608359,0,0,3.3775,0.42,-0.105,-0.040748,-0.523746,-0.865956,-0.04368,0.25676,0.35042
-13.7959,0,0,18.7959,18.7959,5,5,23.786,1.30376,-24.5837,0.0556493,0.222769,-0.122985,0,0,3.1675,0.455,0.21,0.03843,-0.168116,-1.05018,-0.04368,0.25676,0.35042
-13.6457,0,0,18.6457,18.6457,5,5,23.5271,1.41926,-24.7177,0.0536339,0.218612,-0.121216,0,0,3.78,-0.42,0.84,0.03843,-0.168116,-1.05018,-0.04368,0.25676,0.35042
-13.6464,0,0,18.6464,18.6464,5,5,23.5283,1.41738,-24.7163,0.173816,0.00503184,-0.163272,1,0,4.2525,-0.735,0.945,0.159088,-0.381494,-1.0919,-0.04368,0.25676,0.35042
-13.6466,0,0,18.6466,18.6466,5,5,23.5287,1.41623,-24.7149,0.173836,0.00503813,-0.163274,1,0,3.7975,-0.3325,0.805,0.159088,-0.381494,-1.0919,-0.0518,0.25564,0.35546
-13.6473,0,0,18.6473,18.6473,5,5,23.5298,1.41589,-24.7139,-0.0707086,0.134877,-0.250084,1,0,4.235,-0.0175,0.35,-0.086498,-0.251808,-1.17803,-0.0518,0.25564,0.35546
-13.6471,0,0,18.6471,18.6471,5,5,23.5295,1.41542,-24.7137,-0.0707005,0.134872,-0.250081,1,0,3.4125,-0.245,0,-0.086498,-0.251808,-1.17803,-0.0518,0.25564,0.35546
-13.6982,0,0,18.6982,18.6982,5,5,23.6176,1.25435,-24.6105,-0.108223,-0.0676445,0.00890819,0,0,3.4825,-0.42,-0.07,-0.127002,-0.455548,-0.92049,-0.0518,0.25564,0.35546
-13.7481,0,0,18.7481,18.7481,5,5,23.7035,1.09808,-24.5095,-0.105496,-0.0662483,0.00835758,0,0,3.535,-0.2625,-0.77,-0.127002,-0.455548,-0.92049,-0.0518,0.25564,0.35546
-13.7482,0,0,18.7482,18.7482,5,5,23.7038,1.09775,-24.5106,0.0607018,-0.384873,0.103149,1,0,3.745,-0.49,-0.7525,0.039894,-0.773846,-0.826428,-0.0518,0.25564,0.35546
-13.7489,0,0,18.7489,18.7489,5,5,23.705,1.09785,-24.512,0.0607001,-0.384854,0.103141,1,0,4.305,-0.315,-0.98,0.039894,-0.773846,-0.826428,-0.0518,0.25564,0.35546
-13.719,0,0,18.719,18.719,5,5,23.6534,0.822561,-24.3837,-0.224361,0.068666,-0.0792485,0,0,4.06,-0.0175,-1.1025,-0.251198,-0.320006,-1.00784,-0.0518,0.25564,0.35546
-13.6887,0,0,18.6887,18.6887,5,5,23.6012,0.554385,-24.2579,-0.219681,0.0678536,-0.0788318,0,0,3.7975,0.5425,-0.8925,-0.251198,-0.320006,-1.00784,-0.05124,0.25704,0.35476
-13.6889,0,0,18.6889,18.6889,5,5,23.6016,0.555097,-24.2583,0.0378567,0.22125,0.0539501,1,0,3.7975,0.245,-0.595,0.007442,-0.166774,-0.876082,-0.05124,0.25704,0.35476
-13.6894,0,0,18.6894,18.6894,5,5,23.6025,0.554948,-24.2582,0.0378593,0.221265,0.0539436,1,0,4.13,-0.105,-0.14,0.007442,-0.166774,-0.876082,-0.05124,0.25704,0.35476
-13.7978,0,0,18.7978,18.7978,5,5,23.7893,0.577899,-24.2202,0.0407388,-0.154344,0.10267,0,0,3.885,0.175,0.21,0.010736,-0.544974,-0.826428,-0.05124,0.25704,0.35476
-13.9038,0,0,18.9038,18.9038,5,5,23.9721,0.601045,-24.1818,0.0403349,-0.151429,0.101375,0,0,3.4475,0.4375,0.63,0.010736,-0.544974,-0.826428,-0.05124,0.25704,0.35476
-13.903,0,0,18.903,18.903,5,5,23.9707,0.600614,-24.1799,0.356934,-0.0796406,-0.160496,1,0,2.8175,0.175,0.8925,0.328668,-0.473238,-1.08629,-0.05124,0.25704,0.35476
-13.9029,0,0,18.9029,18.9029,5,5,23.9704,0.599136,-24.1781,0.35696,-0.0796441,-0.160494,1,0,3.465,-0.4025,1.1025,0.328668,-0.473238,-1.08629,-0.05124,0.25704,0.35476
-13.9795,0,0,18.9795,18.9795,5,5,24.1026,-0.0633448,-23.8041,-0.441544,0.0333749,0.171069,0,0,3.4825,-0.035,0.8925,-0.484828,-0.362462,-0.7564,-0.05124,0.25704,0.35476
-14.0532,0,0,19.0532,19.0532,5,5,24.2296,-0.712542,-23.4353,-0.430214,0.0353665,0.170091,0,0,3.4825,-0.035,0.8925,-0.484828,-0.362462,-0.7564,-0.0511,0.2583,0.35392
-13.9969,0,0,18.9969,18.9969,5,5,24.1326,-0.464316,-23.5696,0.17106,0.0596092,-0.0222038,0,0,3.99,0.14,-0.1575,0.123342,-0.33672,-0.94794,-0.0511,0.2583,0.35392
-13.942,0,0,18.942,18.942,5,5,24.0379,-0.222303,-23.7031,0.166836,0.0581109,-0.0215063,0,0,3.99,0.14,-0.1575,0.123342,-0.33672,-0.94794,-0.0511,0.2583,0.35392
-13.9421,0,0,18.9421,18.9421,5,5,24.0381,-0.222566,-23.7044,0.242648,0.15838,-0.175931,1,0,3.6925,-0.5075,-0.875,0.19947,-0.236558,-1.10117,-0.0511,0.2583,0.35392
-13.9422,0,0,18.9422,18.9422,5,5,24.0383,-0.22283,-23.7057,0.242652,0.158382,-0.175932,1,0,3.6925,-0.5075,-0.875,0.19947,-0.236558,-1.10117,-0.0511,0.2583,0.35392
-14.0991,0,0,19.0991,19.0991,5,5,24.3087,-0.315122,-23.5905,-0.0328457,-0.21261,0.141056,0,0,3.4475,-0.2975,-1.505,-0.078812,-0.611464,-0.784704,-0.0511,0.2583,0.35392
-14.253,0,0,19.253,19.253,5,5,24.5741,-0.404333,-23.4773,-0.0312887,-0.208398,0.139132,0,0,3.4475,-0.2975,-1.505,-0.078812,-0.611464,-0.784704,-0.0511,0.2583,0.35392
-14.3844,0,0,19.3844,19.3844,5,5,24.8007,-0.939158,-23.1464,-0.391514,-0.144397,0.0799631,0,0,3.955,0.1225,-1.295,-0.449936,-0.551074,-0.841678,-0.0511,0.2583,0.35392
-14.5123,0,0,19.5123,19.5123,5,5,25.0211,-1.462,-22.8202,-0.382391,-0.140989,0.0781695,0,0,3.955,0.1225,-1.295,-0.449936,-0.551074,-0.841678,-0.0511,0.2583,0.35392
-14.5126,0,0,19.5126,19.5126,5,5,25.0217,-1.46105,-22.821,0.13172,-0.158689,-0.155436,1,0,3.9025,0.245,-0.91,0.066368,-0.568764,-1.07348,-0.04592,0.25802,0.36008
-14.4847,0,0,19.4847,19.4847,5,5,24.9737,-1.57552,-22.751,-0.0824061,0.0800199,0.0328582,0,0,3.3425,0.105,-0.455,-0.15067,-0.329522,-0.88694,-0.04592,0.25802,0.36008
-14.4846,0,0,19.4846,19.4846,5,5,24.9734,-1.57512,-22.7503,0.0921619,-0.29186,-0.0848016,1,0,3.4825,0.3325,0.035,0.024644,-0.701012,-1.00369,-0.04592,0.25802,0.36008
-14.4841,0,0,19.4841,19.4841,5,5,24.9726,-1.57552,-22.7488,0.0921688,-0.291873,-0.0847958,1,0,3.1675,0.105,0.6475,0.024644,-0.701012,-1.00369,-0.04592,0.25802,0.36008
-14.505,0,0,19.505,19.505,5,5,25.0086,-1.46546,-22.7757,0.0805298,-0.00855791,0.0925224,0,0,3.325,-0.2625,0.7525,0.014884,-0.418582,-0.827526,-0.04592,0.25802,0.36008
-14.5257,0,0,19.5257,19.5257,5,5,25.0443,-1.35757,-22.802,0.0786472,-0.00797387,0.092301,0,0,3.3075,0.0175,0.7875,0.014884,-0.418582,-0.827526,-0.04592,0.25802,0.36008
-14.525,0,0,19.525,19.525,5,5,25.0431,-1.35817,-22.8008,-0.0926371,-0.152959,-0.0564575,1,0,2.905,-0.0525,0.595,-0.157136,-0.563396,-0.975146,-0.04592,0.25802,0.36008
-14.5247,0,0,19.5247,19.5247,5,5,25.0425,-1.3585,-22.8004,-0.0926313,-0.152967,-0.0564537,1,0,3.3075,-0.14,0.035,-0.157136,-0.563396,-0.975146,-0.05026,0.2583,0.35168
-14.451,0,0,19.451,19.451,5,5,24.9155,-1.03502,-22.9714,0.227549,0.0718629,-0.0436077,0,0,2.7125,-0.2625,-0.28,0.170068,-0.336842,-0.963434,-0.05026,0.2583,0.35168
-14.38,0,0,19.38,19.38,5,5,24.7931,-0.719904,-23.1425,0.22205,0.0699594,-0.0426332,0,0,3.64,-0.63,-0.6825,0.170068,-0.336842,-0.963434,-0.05026,0.2583,0.35168
-14.4505,0,0,19.4505,19.4505,5,5,24.9147,-0.526946,-23.2021,0.167537,-0.166735,0.0161379,0,0,3.395,-0.35,-0.6825,0.118706,-0.57523,-0.904264,-0.05026,0.2583,0.35168
-14.5203,0,0,19.5203,19.5203,5,5,25.035,-0.338138,-23.2603,0.164241,-0.16482,0.0152737,0,0,3.5175,-0.21,-0.6125,0.118706,-0.57523,-0.904264,-0.05026,0.2583,0.35168
-14.5209,0,0,19.5209,19.5209,5,5,25.0361,-0.338094,-23.2615,-0.303358,0.0672372,0.144731,1,0,4.2,-0.315,-0.8575,-0.350872,-0.34343,-0.775798,-0.05026,0.2583,0.35168
-14.5206,0,0,19.5206,19.5206,5,5,25.0356,-0.337978,-23.2619,-0.30336,0.0672294,0.144734,1,0,3.325,-0.105,-0.5075,-0.350872,-0.34343,-0.775798,-0.05026,0.2583,0.35168
-14.5202,0,0,19.5202,19.5202,5,5,25.0348,-0.337542,-23.2625,0.0705655,-0.261426,-0.052961,1,0,3.15,0.0525,-0.6125,0.024644,-0.671732,-0.971974,-0.05026,0.2583,0.35168
-14.5199,0,0,19.5199,19.5199,5,5,25.0343,-0.336649,-23.2628,0.0705499,-0.261435,-0.052957,1,0,3.3075,0.3325,-0.6475,0.024644,-0.671732,-0.971974,-0.05026,0.2583,0.35168
-14.5192,0,0,19.5192,19.5192,5,5,25.033,-0.336265,-23.2628,0.0621606,0.0364133,-0.166921,1,0,2.9225,0.175,-0.28,0.016226,-0.374174,-1.08507,-0.05068,0.25774,0.35
-14.519,0,0,19.519,19.519,5,5,25.0328,-0.336507,-23.262,0.107115,-0.338398,0.0917642,1,0,3.465,0,0.21,0.061366,-0.748592,-0.82838,-0.05068,0.25774,0.35
-14.5194,0,0,19.5194,19.5194,5,5,25.0335,-0.336585,-23.2601,0.107116,-0.338387,0.0917592,1,0,3.99,0.385,0.805,0.061366,-0.748592,-0.82838,-0.05068,0.25774,0.35
-14.5198,0,0,19.5198,19.5198,5,5,25.0342,-0.336851,-23.2582,-0.191856,0.0990817,-0.145413,1,0,3.99,0.28,0.84,-0.238876,-0.311588,-1.06372,-0.05068,0.25774,0.35
-14.5204,0,0,19.5204,19.5204,5,5,25.0352,-0.337429,-23.2565,-0.191846,0.0990989,-0.145422,1,0,4.2175,0.07,0.8225,-0.238876,-0.311588,-1.06372,-0.05068,0.25774,0.35
-14.28,0,0,19.28,19.28,5,5,24.6207,-0.0959874,-23.4576,0.117981,0.379415,-0.0277812,0,0,3.815,0.07,0.8925,0.076494,-0.02501,-0.950014,-0.05068,0.25774,0.35
-14.0431,0,0,19.0431,19.0431,5,5,24.2122,0.139571,-23.6612,0.11387,0.372922,-0.0248351,0,0,3.3075,-0.0175,0.3675,0.076494,-0.02501,-0.950014,-0.05068,0.25774,0.35
-14.057,0,0,19.057,19.057,5,5,24.2361,0.203573,-23.6831,0.0557759,-0.0725828,-0.0716073,0,0,2.905,0,0.1575,0.019276,-0.470432,-0.996252,-0.05068,0.25774,0.35
-14.071,0,0,19.071,19.071,5,5,24.2603,0.265047,-23.7141,0.054703,-0.0721994,-0.0717848,0,0,3.0625,-0.595,-0.2625,0.019276,-0.470432,-0.996252,-0.04802,0.26222,0.35308
-14.0707,0,0,19.0707,19.0707,5,5,24.2599,0.264128,-23.7152,-0.0627577,-0.0833204,-0.178624,1,0,3.3425,-0.805,-0.595,-0.098698,-0.481534,-1.10227,-0.04802,0.26222,0.35308
-14.0709,0,0,19.0709,19.0709,5,5,24.2601,0.26429,-23.7167,-0.0627605,-0.0833165,-0.178625,1,0,3.745,-0.3325,-1.085,-0.098698,-0.481534,-1.10227,-0.04802,0.26222,0.35308
-13.9302,0,0,18.9302,18.9302,5,5,24.0177,-0.0641095,-23.6089,-0.273152,0.293373,-0.0291017,0,0,4.025,-0.5075,-1.155,-0.315736,-0.101382,-0.955626,-0.04802,0.26222,0.35308
-13.7914,0,0,18.7914,18.7914,5,5,23.7783,-0.386028,-23.4993,-0.267533,0.289545,-0.0274298,0,0,4.0425,-0.2275,-1.155,-0.315736,-0.101382,-0.955626,-0.04802,0.26222,0.35308
-13.7914,0,0,18.7914,18.7914,5,5,23.7783,-0.384352,-23.5002,-0.150693,0.20491,0.124166,1,0,3.5525,0.63,-1.12,-0.198372,-0.185928,-0.8052,-0.04802,0.26222,0.35308
-13.7914,0,0,18.7914,18.7914,5,5,23.7782,-0.382591,-23.5014,-0.150724,0.20491,0.124167,1,0,3.5875,0.63,-1.2425,-0.198372,-0.185928,-0.8052,-0.04802,0.26222,0.35308
-13.7911,0,0,18.7911,18.7911,5,5,23.7777,-0.381827,-23.5018,0.463859,-0.123009,-0.126276,1,0,3.3075,0.2625,-0.63,0.418826,-0.513498,-1.05371,-0.04802,0.26222,0.35308
-13.7904,0,0,18.7904,18.7904,5,5,23.7766,-0.38213,-23.5019,0.463864,-0.123027,-0.126267,1,0,2.9575,-0.2275,-0.1925,0.418826,-0.513498,-1.05371,-0.04788,0.25606,0.3591
-13.7902,0,0,18.7902,18.7902,5,5,23.7762,-0.382851,-23.5008,0.432412,-0.223542,0.0638131,1,0,3.43,-0.1925,0.49,0.387228,-0.613904,-0.865102,-0.04788,0.25606,0.3591
-13.7898,0,0,18.7898,18.7898,5,5,23.7755,-0.383234,-23.4995,0.432418,-0.223555,0.0638186,1,0,3.1675,0.07,0.595,0.387228,-0.613904,-0.865102,-0.04788,0.25606,0.3591
-13.7897,0,0,18.7897,18.7897,5,5,23.7754,-0.383824,-23.4982,-0.143535,0.15345,0.107957,1,0,3.5875,-0.07,0.5775,-0.191174,-0.23729,-0.821304,-0.04788,0.25606,0.3591
-13.7897,0,0,18.7897,18.7897,5,5,23.7754,-0.384413,-23.497,-0.143525,0.153449,0.107957,1,0,3.5875,-0.07,0.5775,-0.191174,-0.23729,-0.821304,-0.04788,0.25606,0.3591
-13.9231,0,0,18.9231,18.9231,5,5,24.0053,-0.335182,-23.459,0.0673656,-0.222083,0.0968699,0,0,3.535,0.315,0.6125,0.021472,-0.6161,-0.830698,-0.04788,0.25606,0.3591
-14.0543,0,0,19.0543,19.0543,5,5,24.2315,-0.286386,-23.4213,0.066514,-0.218479,0.0952615,0,0,3.535,0.315,0.6125,0.021472,-0.6161,-0.830698,-0.04788,0.25606,0.3591
-14.1834,0,0,19.1834,19.1834,5,5,24.4542,-0.244277,-23.3821,0.0544809,-0.143003,0.188087,0,0,2.905,-0.035,-0.315,0.010126,-0.544242,-0.737002,-0.04788,0.25606,0.3591
-14.3107,0,0,19.3107,19.3107,5,5,24.6737,-0.203594,-23.3483,0.0537708,-0.139518,0.186497,0,0,2.905,-0.035,-0.315,0.010126,-0.544242,-0.737002,-0.04536,0.25536,0.34454
-14.3105,0,0,19.3105,19.3105,5,5,24.6732,-0.204045,-23.3497,-0.0865373,0.0933708,0.406209,1,0,3.3425,-0.63,-0.8575,-0.130784,-0.311588,-0.518988,-0.04536,0.25536,0.34454
-14.3102,0,0,19.3102,19.3102,5,5,24.6728,-0.204496,-23.3511,-0.0865294,0.0933634,0.406212,1,0,3.3425,-0.63,-0.8575,-0.130784,-0.311588,-0.518988,-0.04536,0.25536,0.34454
-14.3105,0,0,19.3105,19.3105,5,5,24.6733,-0.203983,-23.3525,0.151695,-0.0481739,-0.0841097,1,0,3.8675,-0.105,-1.0675,0.108458,-0.452986,-1.00552,-0.04536,0.25536,0.34454
-14.3108,0,0,19.3108,19.3108,5,5,24.6737,-0.20347,-23.3538,0.151686,-0.0481663,-0.0841132,1,0,3.8675,-0.105,-1.0675,0.108458,-0.452986,-1.00552,-0.04536,0.25536,0.34454
-14.3109,0,0,19.3109,19.3109,5,5,24.6739,-0.202845,-23.3546,0.103445,0.204394,-0.400584,1,0,3.6925,0.0875,-0.805,0.060024,-0.20069,-1.31955,-0.04536,0.25536,0.34454
-14.2362,0,0,19.2362,19.2362,5,5,24.5452,-0.142418,-23.4085,0.0297423,0.0843787,-0.133831,0,0,4.34,0.14,-0.6825,-0.012932,-0.318542,-1.05579,-0.04536,0.25536,0.34454
-14.1617,0,0,19.1617,19.1617,5,5,24.4167,-0.0838456,-23.4618,0.0287201,0.0823391,-0.1329,0,0,3.1325,0.21,-0.42,-0.012932,-0.318542,-1.05579,-0.04536,0.25536,0.34454
-14.16,0,0,19.16,19.16,5,5,24.4137,0.120434,-23.5705,0.142874,0.00437419,0.0678957,0,0,3.1325,-0.035,0.035,0.105286,-0.396378,-0.856562,-0.04774,0.26264,0.34776
-14.1583,0,0,19.1583,19.1583,5,5,24.4108,0.319763,-23.6769,0.139395,0.00432255,0.0679045,0,0,2.835,0.1925,0.5775,0.105286,-0.396378,-0.856562,-0.04774,0.26264,0.34776
-14.2891,0,0,19.2891,19.2891,5,5,24.6363,0.125498,-23.5343,-0.117801,-0.205691,0.0553403,0,0,3.115,-0.5075,0.7175,-0.156404,-0.609756,-0.86742,-0.04774,0.26264,0.34776
-14.2899,0,0,19.2899,19.2899,5,5,24.6377,0.123948,-23.5327,-0.103924,0.0439583,0.141886,1,0,4.375,-0.5075,0.945,-0.142496,-0.360388,-0.781532,-0.04774,0.26264,0.34776
