pid_x,pid_y,pid_z,front_left_speed,front_right_speed,back_left_speed,back_right_speed,orientation_x,orientation_y,orientation_z,acceleration_x,acceleration_y,acceleration_z,accel_rejected,mag_rejected,ahrs_initialized,gyro_x,gyro_y,gyro_z,accel_x,accel_y,accel_z,mag_x,mag_y,mag_z
-0,0,0,5,5,5,5,0.0520237,0.0339332,0.671533,0.00248878,-0.0445902,0.00116784,0,0,0,3.3075,-0.3675,-1.155,-0.03721,-0.033306,-1.0115,-0.16296,-0.2408,0.35224
-0,0,0,5,5,5,5,0.107245,0.0743139,1.33602,0.00542857,-0.0463132,0.0132148,0,0,0,3.36,0,-1.225,-0.03355,-0.03599,-0.999546,-0.16296,-0.2408,0.35224
-0,0,0,5,5,5,5,0.16189,0.112833,1.99715,0.00475629,-0.0453595,0.0132115,0,0,0,3.465,-0.1225,-1.2075,-0.03355,-0.03599,-0.999546,-0.16296,-0.2408,0.35224
-0,0,0,5,5,5,5,0.210426,0.140034,2.65939,-0.000577887,-0.0403601,0.00374062,0,0,0,3.5525,-0.0525,-1.2075,-0.03843,-0.031842,-1.00894,-0.16296,-0.2408,0.35224
-0,0,0,5,5,5,5,0.257334,0.162142,3.31991,-0.00339345,-0.0390529,-0.00265707,0,0,0,3.57,-0.0525,-1.4,-0.04087,-0.031354,-1.01528,-0.16296,-0.2408,0.35224
-0,0,0,5,5,5,5,0.303838,0.183367,3.98437,-0.0037639,-0.0382413,-0.00266216,0,0,0,3.7275,-0.0875,-1.4875,-0.04087,-0.031354,-1.01528,-0.16744,-0.24388,0.3451
-0,0,0,5,5,5,5,0.348802,0.201894,4.64589,-0.00481618,-0.036968,-0.00180707,0,0,0,3.57,-0.2625,-1.33,-0.041602,-0.030866,-1.01443,-0.16744,-0.24388,0.3451
-0,0,0,5,5,5,5,0.397259,0.221915,5.30294,-0.00504412,-0.0394197,0.00310407,0,0,0,3.5525,-0.2625,-1.365,-0.04148,-0.03416,-1.00955,-0.16744,-0.24388,0.3451
-0,0,0,5,5,5,5,0.444973,0.240845,5.95612,-0.0053745,-0.038587,0.00309661,0,0,0,3.5525,-0.2625,-1.365,-0.04148,-0.03416,-1.00955,-0.16744,-0.24388,0.3451
-0,0,0,5,5,5,5,0.489518,0.260165,6.60402,-0.00425387,-0.0358556,-0.00182914,0,0,0,3.6575,0.2625,-1.365,-0.040016,-0.032208,-1.01443,-0.16744,-0.24388,0.3451
-0,0,0,5,5,5,5,0.531265,0.280264,7.24659,-0.00278238,-0.0336615,0.00135937,0,0,0,3.36,0.3675,-1.2075,-0.038186,-0.030744,-1.01126,-0.16744,-0.24388,0.3451
-0,0,0,5,5,5,5,0.572524,0.298961,7.88493,-0.00310869,-0.0329414,0.00135079,0,0,0,3.465,0.14,-1.295,-0.038186,-0.030744,-1.01126,-0.16744,-0.24388,0.3451
-0,0,0,5,5,5,5,0.617119,0.318786,8.5186,-0.0034547,-0.0349721,0.00736532,0,0,0,3.5875,0.175,-1.295,-0.038186,-0.03355,-1.00528,-0.16366,-0.2429,0.3451
-0,0,0,5,5,5,5,0.657603,0.335734,9.14829,-0.00350752,-0.0317009,0.00305257,0,0,0,3.6225,-0.0175,-1.2425,-0.037942,-0.030988,-1.00955,-0.16366,-0.2429,0.3451
-0,0,0,5,5,5,5,0.697028,0.351701,9.77383,-0.0037862,-0.0310129,0.00304277,0,0,0,3.4125,-0.0525,-1.2075,-0.037942,-0.030988,-1.00955,-0.16366,-0.2429,0.3451
-0,0,0,5,5,5,5,0.737245,0.3753,10.3947,-0.00419807,-0.0317766,0.000203555,0,0,0,3.2725,4.4275,-1.3125,-0.037942,-0.032452,-1.01236,-0.16366,-0.2429,0.3451
-0,0,0,5,5,5,5,0.778173,0.392516,11.0099,-0.00340517,-0.0319173,0.00265107,0,0,0,3.3775,0.07,-1.365,-0.036844,-0.033306,-1.00992,-0.16366,-0.2429,0.3451
-0,0,0,5,5,5,5,0.818075,0.408707,11.6209,-0.00368775,-0.031221,0.00263939,0,0,0,3.2025,0.0175,-1.2775,-0.036844,-0.033306,-1.00992,-0.16366,-0.2429,0.3451
-0,0,0,5,5,5,5,0.858688,0.427871,12.2254,-0.00183547,-0.031245,0.00619208,0,0,0,3.29,0.175,-1.2775,-0.034648,-0.034038,-1.00638,-0.16366,-0.2429,0.3451
-0,0,0,5,5,5,5,0.896968,0.4448,12.8209,-0.00200943,-0.0293558,0.00236819,0,0,0,3.4125,-0.035,-1.295,-0.034526,-0.032818,-1.01016,-0.16394,-0.238,0.34328
-0,0,0,5,5,5,5,0.933293,0.457077,13.4143,-0.0047749,-0.0279892,0.00223343,0,0,0,3.325,0.0875,-1.2775,-0.037088,-0.032086,-1.01028,-0.16394,-0.238,0.34328
-0,0,0,5,5,5,5,0.971161,0.471177,14.002,-0.00404911,-0.0287939,0.00763019,0,0,0,3.29,0.1575,-1.26,-0.036112,-0.03355,-1.00491,-0.16394,-0.238,0.34328
-0,0,0,5,5,5,5,1.01085,0.493264,14.5797,0.0016397,-0.0295668,0.00478715,0,0,0,3.5175,-0.0525,-1.26,-0.030012,-0.035014,-1.00772,-0.16394,-0.238,0.34328
-0,0,0,5,5,5,5,1.05012,0.514316,15.1529,0.00127229,-0.0288818,0.0047716,0,0,0,3.6925,-0.0525,-1.26,-0.030012,-0.035014,-1.00772,-0.16394,-0.238,0.34328
-0,0,0,5,5,5,5,1.0837,0.520581,15.73,-0.00758403,-0.0253648,0.00193188,0,0,0,3.5175,0.035,-1.1375,-0.038796,-0.032086,-1.01053,-0.16394,-0.238,0.34328
-0,0,0,5,5,5,5,1.11779,0.531514,16.2992,-0.00400877,-0.0255026,-0.000786169,0,0,0,3.57,-0.1225,-1.0675,-0.035014,-0.032818,-1.01321,-0.16394,-0.238,0.34328
-0,0,0,5,5,5,5,1.15121,0.541678,16.8603,-0.00418617,-0.0249195,-0.000799377,0,0,0,3.57,-0.1225,-1.0675,-0.035014,-0.032818,-1.01321,-0.1666,-0.23842,0.34734
-0,0,0,5,5,5,5,1.185,0.552878,17.4158,-0.00389569,-0.0251848,0.0061948,0,0,0,3.255,0.0175,-1.2075,-0.034526,-0.033672,-1.00626,-0.1666,-0.23842,0.34734
-0,0,0,5,5,5,5,1.21768,0.558954,17.9693,-0.00703887,-0.0244925,0.00298515,0,0,0,3.3425,-0.035,-1.225,-0.037576,-0.03355,-1.00943,-0.1666,-0.23842,0.34734
-0,0,0,5,5,5,5,1.24968,0.564628,18.5184,-0.00713788,-0.0239342,0.00297216,0,0,0,3.325,0.0525,-1.12,-0.037576,-0.03355,-1.00943,-0.1666,-0.23842,0.34734
-0,0,0,5,5,5,5,1.28367,0.571799,19.0616,-0.00677711,-0.0251731,0.00885933,0,0,0,3.185,0.07,-1.19,-0.037088,-0.03538,-1.00357,-0.1666,-0.23842,0.34734
-0,0,0,5,5,5,5,1.3175,0.578626,19.6,-0.00689625,-0.0245828,0.00884473,0,0,0,3.4825,0.21,-1.4,-0.037088,-0.03538,-1.00357,-0.1666,-0.23842,0.34734
-0,0,0,5,5,5,5,1.34697,0.583039,20.1344,-0.00685178,-0.0218705,-0.000880935,0,0,0,3.43,0.0175,-1.3125,-0.036966,-0.033184,-1.01321,-0.1666,-0.23842,0.34734
-0,0,0,5,5,5,5,1.37561,0.586926,20.6644,-0.00691962,-0.0213707,-0.000893503,0,0,0,3.3075,-0.0175,-1.2425,-0.036966,-0.033184,-1.01321,-0.1666,-0.23842,0.34734
-0,0,0,5,5,5,5,1.40095,0.59098,21.199,-0.00565402,-0.0186083,0.00425889,0,0,0,3.2725,-0.105,-1.1725,-0.035624,-0.030866,-1.00809,-0.16618,-0.24248,0.33936
-0,0,0,5,5,5,5,1.42745,0.593791,21.729,-0.00667496,-0.0192451,0.00572235,0,0,0,3.3775,-0.245,-1.33,-0.0366,-0.031964,-1.00662,-0.16618,-0.24248,0.33936
-0,0,0,5,5,5,5,1.4534,0.596209,22.2543,-0.00671718,-0.0187923,0.00571053,0,0,0,3.3775,-0.245,-1.33,-0.0366,-0.031964,-1.00662,-0.16618,-0.24248,0.33936
-0,0,0,5,5,5,5,1.4801,0.596864,22.7763,-0.00867238,-0.0194256,0.00569848,0,0,0,3.36,0.105,-1.1375,-0.038552,-0.033062,-1.00662,-0.16618,-0.24248,0.33936
-0,0,0,5,5,5,5,1.50625,0.597179,23.2936,-0.00867787,-0.0189695,0.00568654,0,0,0,3.36,0.105,-1.1375,-0.038552,-0.033062,-1.00662,-0.16618,-0.24248,0.33936
-0,0,0,5,5,5,5,1.52978,0.605327,23.8011,-0.00177391,-0.0164828,0.00444468,0,0,0,3.465,0.035,-1.1025,-0.031476,-0.030988,-1.00784,-0.16618,-0.24248,0.33936
-0,0,0,5,5,5,5,1.55281,0.612994,24.304,-0.00190771,-0.016081,0.00443245,0,0,0,3.465,0.035,-1.1025,-0.031476,-0.030988,-1.00784,-0.16618,-0.24248,0.33936
-0,0,0,5,5,5,5,1.5822,0.61863,24.8074,-0.0111175,-0.0209419,0.00675338,0,0,0,3.535,4.4275,-1.2425,-0.040626,-0.036356,-1.00552,-0.16618,-0.24248,0.33936
-0,0,0,5,5,5,5,1.61088,0.623668,25.3009,-0.0112054,-0.0204415,0.00673848,0,0,0,3.535,4.4275,-1.2425,-0.040626,-0.036356,-1.00552,-0.16856,-0.2422,0.34482
-0,0,0,5,5,5,5,1.63274,0.622738,25.7883,-0.00790907,-0.0157858,0.00156402,0,0,0,3.4475,0.1575,-1.3125,-0.037332,-0.032086,-1.01065,-0.16856,-0.2422,0.34482
-0,0,0,5,5,5,5,1.65429,0.622742,26.2704,-0.00705875,-0.0151655,0.00487284,0,0,0,3.57,0.1925,-1.3475,-0.036478,-0.031842,-1.00735,-0.16856,-0.2422,0.34482
-0,0,0,5,5,5,5,1.67541,0.622459,26.748,-0.00705381,-0.0147972,0.00486219,0,0,0,3.5875,0.175,-1.2425,-0.036478,-0.031842,-1.00735,-0.16856,-0.2422,0.34482
-0,0,0,5,5,5,5,1.69763,0.621601,27.2208,-0.00764626,-0.0158752,0.000547745,0,0,0,3.5,0.035,-1.3125,-0.037088,-0.033306,-1.01162,-0.16856,-0.2422,0.34482
-0,0,0,5,5,5,5,1.71951,0.620498,27.6892,-0.00762701,-0.0154934,0.000536568,0,0,0,3.5875,0.035,-1.19,-0.037088,-0.033306,-1.01162,-0.16856,-0.2422,0.34482
-0,0,0,5,5,5,5,1.74523,0.625948,28.149,-0.00395608,-0.0174872,0.00654644,0,0,0,3.57,0.0875,-1.12,-0.033306,-0.035746,-1.00565,-0.16856,-0.2422,0.34482
-0,0,0,5,5,5,5,1.77037,0.630702,28.6042,-0.00403904,-0.0170487,0.00653207,0,0,0,3.57,-0.07,-1.155,-0.033306,-0.035746,-1.00565,-0.16856,-0.2422,0.34482
-0,0,0,5,5,5,5,1.79016,0.629217,29.0653,-0.00717175,-0.0141389,0.000374202,0,0,0,3.395,-0.07,-1.1725,-0.036478,-0.033184,-1.01175,-0.16268,-0.24178,0.34006
-0,0,0,5,5,5,5,1.80777,0.627147,29.5222,-0.00701413,-0.0126105,0.00110264,0,0,0,3.3775,0,-1.1725,-0.036356,-0.031964,-1.01101,-0.16268,-0.24178,0.34006
-0,0,0,5,5,5,5,1.82544,0.62493,29.9742,-0.00697546,-0.0123022,0.00109329,0,0,0,3.64,0,-1.3475,-0.036356,-0.031964,-1.01101,-0.16268,-0.24178,0.34006
-0,0,0,5,5,5,5,1.84304,0.620313,30.4231,-0.00883864,-0.0126057,-0.00112875,0,0,0,3.5525,0.035,-1.2425,-0.038308,-0.032574,-1.01321,-0.16268,-0.24178,0.34006
-0,0,0,5,5,5,5,1.8604,0.615644,30.8671,-0.00875716,-0.0123029,-0.00113766,0,0,0,3.64,0.0525,-1.4175,-0.038308,-0.032574,-1.01321,-0.16268,-0.24178,0.34006
-0,0,0,5,5,5,5,1.87942,0.612406,31.3059,-0.00833619,-0.0131924,0.00278647,0,0,0,3.6225,0.1925,-1.33,-0.037942,-0.033794,-1.00931,-0.16268,-0.24178,0.34006
-0,0,0,5,5,5,5,1.89835,0.608902,31.7404,-0.00827503,-0.0128623,0.00277624,0,0,0,3.815,0.1225,-1.19,-0.037942,-0.033794,-1.00931,-0.16268,-0.24178,0.34006
-0,0,0,5,5,5,5,1.91714,0.606795,32.1694,-0.00714489,-0.0125344,0.00792954,0,0,0,3.71,0.07,-1.225,-0.036844,-0.033794,-1.00418,-0.16268,-0.24178,0.34006
-0,0,0,5,5,5,5,1.93516,0.604371,32.5904,-0.00710258,-0.0122201,0.00791942,0,0,0,3.535,0,-1.2075,-0.036844,-0.033794,-1.00418,-0.16926,-0.24374,0.3395
-0,0,0,5,5,5,5,1.95239,0.605711,33.0048,-0.00408883,-0.0116754,0.00323693,0,0,0,3.465,0.07,-1.2775,-0.033794,-0.03355,-1.00882,-0.16926,-0.24374,0.3395
-0,0,0,5,5,5,5,1.9692,0.606827,33.4149,-0.0041083,-0.0113822,0.00322669,0,0,0,3.465,0.07,-1.2775,-0.033794,-0.03355,-1.00882,-0.16926,-0.24374,0.3395
-0,0,0,5,5,5,5,1.98362,0.605631,33.8217,-0.00505932,-0.0100314,0.00149695,0,0,0,3.4125,-0.0175,-1.295,-0.03477,-0.032452,-1.01053,-0.16926,-0.24374,0.3395
-0,0,0,5,5,5,5,1.99887,0.601027,34.2256,-0.00765165,-0.0106203,0.00222624,0,0,0,3.5525,-0.14,-1.33,-0.037454,-0.033306,-1.00979,-0.16926,-0.24374,0.3395
-0,0,0,5,5,5,5,2.01364,0.596461,34.6251,-0.00757196,-0.0103628,0.00221805,0,0,0,3.4825,-0.0875,-1.4,-0.037454,-0.033306,-1.00979,-0.16926,-0.24374,0.3395
-0,0,0,5,5,5,5,2.03142,0.593935,35.0188,-0.00692046,-0.0121288,0.00294524,0,0,0,3.5525,0,-1.3825,-0.036844,-0.03538,-1.00906,-0.16926,-0.24374,0.3395
-0,0,0,5,5,5,5,2.04903,0.591258,35.4073,-0.00687374,-0.0118215,0.00293478,0,0,0,3.71,0,-1.435,-0.036844,-0.03538,-1.00906,-0.16422,-0.2415,0.34678
-0,0,0,5,5,5,5,2.0615,0.58743,35.7931,-0.00632099,-0.00842882,0.00341946,0,0,0,3.6575,0,-1.2425,-0.036356,-0.032208,-1.00857,-0.16422,-0.2415,0.34678
-0,0,0,5,5,5,5,2.07466,0.582189,36.1755,-0.00768735,-0.00905403,0.0039039,0,0,0,3.605,0.0525,-1.225,-0.03782,-0.033062,-1.00809,-0.16422,-0.2415,0.34678
-0,0,0,5,5,5,5,2.08699,0.576871,36.5538,-0.00759454,-0.00883903,0.00389702,0,0,0,3.3075,0.0175,-1.155,-0.03782,-0.033062,-1.00809,-0.16422,-0.2415,0.34678
-0,0,0,5,5,5,5,2.10116,0.575105,36.9258,-0.00525548,-0.00944676,0.00610137,0,0,0,3.5,0.0175,-1.26,-0.035502,-0.033916,-1.00589,-0.16422,-0.2415,0.34678
-0,0,0,5,5,5,5,2.11523,0.572786,37.2936,-0.00521501,-0.00920131,0.00609274,0,0,0,3.64,-0.245,-1.3125,-0.035502,-0.033916,-1.00589,-0.16422,-0.2415,0.34678
-0,0,0,5,5,5,5,2.12601,0.56787,37.6595,-0.00658704,-0.00730355,0.0049801,0,0,0,3.605,-0.0525,-1.225,-0.036966,-0.032208,-1.00699,-0.16422,-0.2415,0.34678
-0,0,0,5,5,5,5,2.13625,0.562891,38.0216,-0.00650016,-0.0071249,0.00497431,0,0,0,3.4475,-0.0875,-1.1025,-0.036966,-0.032208,-1.00699,-0.16422,-0.2415,0.34678
-0,0,0,5,5,5,5,2.15009,0.561849,38.3781,-0.00429523,-0.00895962,0.00803916,0,0,0,3.5175,-0.1575,-1.26,-0.03477,-0.034282,-1.00394,-0.1645,-0.24318,0.3472
-0,0,0,5,5,5,5,2.16135,0.558336,38.7325,-0.00569174,-0.00766412,0.00102431,0,0,0,3.605,0.035,-1.1725,-0.036234,-0.033184,-1.01089,-0.1645,-0.24318,0.3472
-0,0,0,5,5,5,5,2.16701,0.553106,39.0847,-0.00547899,-0.00439019,-0.000453916,0,0,0,3.36,-0.0875,-1.155,-0.036112,-0.030012,-1.01236,-0.1645,-0.24318,0.3472
-0,0,0,5,5,5,5,2.1729,0.548277,39.4328,-0.0053947,-0.0042873,-0.000457004,0,0,0,3.57,0.105,-1.2775,-0.036112,-0.030012,-1.01236,-0.1645,-0.24318,0.3472
-0,0,0,5,5,5,5,2.17884,0.540777,39.7784,-0.00732906,-0.00430579,0.00175338,0,0,0,3.675,0.0175,-1.19,-0.038186,-0.030134,-1.01016,-0.1645,-0.24318,0.3472
-0,0,0,5,5,5,5,2.18455,0.533554,40.1199,-0.00720299,-0.00420615,0.00175076,0,0,0,3.6225,0.105,-1.3475,-0.038186,-0.030134,-1.01016,-0.1645,-0.24318,0.3472
-0,0,0,5,5,5,5,2.19112,0.528382,40.4562,-0.00565491,-0.00445806,0.0077717,0,0,0,3.5,-0.07,-1.4175,-0.036722,-0.0305,-1.00418,-0.1645,-0.24318,0.3472
-0,0,0,5,5,5,5,2.19752,0.523235,40.7888,-0.00556507,-0.00434628,0.00776825,0,0,0,3.5,-0.0875,-1.3825,-0.036722,-0.0305,-1.00418,-0.1645,-0.24318,0.3472
-0,0,0,5,5,5,5,2.20541,0.519053,41.1162,-0.00524912,-0.00555216,-0.00108867,0,0,0,3.57,0.0175,-1.2775,-0.036478,-0.031842,-1.01297,-0.16394,-0.24024,0.34314
-0,0,0,5,5,5,5,2.21243,0.515973,41.4396,-0.00422348,-0.00469684,0.00554631,0,0,0,3.4825,0.0175,-1.2425,-0.035502,-0.03111,-1.00638,-0.16394,-0.24024,0.34314
-0,0,0,5,5,5,5,2.22203,0.515732,41.7576,-0.00263996,-0.00623926,0.00320385,0,0,0,3.4825,0.035,-1.19,-0.033916,-0.032818,-1.0087,-0.16394,-0.24024,0.34314
-0,0,0,5,5,5,5,2.23166,0.515145,42.0717,-0.00262973,-0.00607134,0.00319741,0,0,0,3.64,-0.1225,-1.365,-0.033916,-0.032818,-1.0087,-0.16394,-0.24024,0.34314
-0,0,0,5,5,5,5,2.23875,0.512323,42.3838,-0.00367383,-0.0049707,-0.000987224,0,0,0,3.465,-0.21,-1.2075,-0.035014,-0.031842,-1.01284,-0.16394,-0.24024,0.34314
-0,0,0,5,5,5,5,2.24535,0.509559,42.6924,-0.00362559,-0.00485558,-0.0009913,0,0,0,3.29,-0.175,-1.225,-0.035014,-0.031842,-1.01284,-0.16394,-0.24024,0.34314
-0,0,0,5,5,5,5,2.25199,0.510165,42.9958,-0.000720523,-0.00449549,0.000110593,0,0,0,3.29,-0.35,-1.225,-0.032086,-0.031598,-1.01175,-0.16394,-0.24024,0.34314
-0,0,0,5,5,5,5,2.25884,0.511358,43.2863,-0.000741347,-0.00437595,0.0001057,0,0,0,3.5175,0.0525,-1.26,-0.032086,-0.031598,-1.01175,-0.16912,-0.238,0.34706
-0,0,0,5,5,5,5,2.26587,0.504404,43.5772,-0.00742318,-0.00498615,0.00526577,0,0,0,3.57,0.21,-1.225,-0.038918,-0.03233,-1.00662,-0.16912,-0.238,0.34706
-0,0,0,5,5,5,5,2.27226,0.497428,43.8648,-0.00730143,-0.0048746,0.00526242,0,0,0,3.3075,0.14,-1.2075,-0.038918,-0.03233,-1.00662,-0.16912,-0.238,0.34706
-0,0,0,5,5,5,5,2.28015,0.493646,44.1472,-0.00504868,-0.00571402,0.00230675,0,0,0,3.2725,0.07,-1.295,-0.036722,-0.033306,-1.00955,-0.16912,-0.238,0.34706
-0,0,0,5,5,5,5,2.28797,0.489506,44.4266,-0.00497642,-0.0055776,0.00230193,0,0,0,3.3425,-0.14,-1.085,-0.036722,-0.033306,-1.00955,-0.16912,-0.238,0.34706
-0,0,0,5,5,5,5,2.2937,0.483397,44.7042,-0.00620615,-0.00425639,0.00266769,0,0,0,3.465,0.0175,-1.1725,-0.038064,-0.032086,-1.00918,-0.16912,-0.238,0.34706
-0,0,0,5,5,5,5,2.29914,0.477592,44.9784,-0.00610484,-0.00416149,0.00266473,0,0,0,3.3775,0.14,-1.2425,-0.038064,-0.032086,-1.00918,-0.16912,-0.238,0.34706
-0,0,0,5,5,5,5,2.30759,0.476688,45.2466,-0.00268746,-0.00572397,-0.000414773,0,0,0,3.4125,0,-1.2075,-0.034648,-0.033794,-1.01223,-0.16912,-0.238,0.34706
-0,0,0,5,5,5,5,2.31591,0.475973,45.5115,-0.00267497,-0.00557888,-0.000420527,0,0,0,3.465,0.14,-1.295,-0.034648,-0.033794,-1.01223,-0.16912,-0.238,0.34706
-0,0,0,5,5,5,5,2.32065,0.473654,45.7777,-0.00299896,-0.00317575,0.00400261,0,0,0,3.465,0.035,-1.3475,-0.035014,-0.031476,-1.00784,-0.16898,-0.24136,0.34832
-0,0,0,5,5,5,5,2.32834,0.472092,46.0398,-0.00297171,-0.00499572,0.00621046,0,0,0,3.3775,-0.07,-1.26,-0.035014,-0.033428,-1.00565,-0.16898,-0.24136,0.34832
-0,0,0,5,5,5,5,2.33545,0.470591,46.2988,-0.0029455,-0.00487167,0.00620563,0,0,0,3.1675,-0.0175,-1.295,-0.035014,-0.033428,-1.00565,-0.16898,-0.24136,0.34832
-0,0,0,5,5,5,5,2.34433,0.466145,46.5556,-0.00529762,-0.00581603,0.00570814,0,0,0,3.57,-0.175,-1.26,-0.037454,-0.034526,-1.00613,-0.16898,-0.24136,0.34832
-0,0,0,5,5,5,5,2.35304,0.461967,46.8092,-0.00522471,-0.00566405,0.0057025,0,0,0,3.605,-0.035,-1.3475,-0.037454,-0.034526,-1.00613,-0.16898,-0.24136,0.34832
-0,0,0,5,5,5,5,2.359,0.456883,47.0607,-0.00537895,-0.00421678,0.00692842,0,0,0,3.3425,-0.07,-1.365,-0.037698,-0.033184,-1.00491,-0.16898,-0.24136,0.34832
-0,0,0,5,5,5,5,2.36469,0.451732,47.3096,-0.00528905,-0.00411754,0.00692504,0,0,0,3.2725,-0.14,-1.2075,-0.037698,-0.033184,-1.00491,-0.16898,-0.24136,0.34832
-0,0,0,5,5,5,5,2.37317,0.44671,47.5546,-0.00580883,-0.0059236,0.0036,0,0,0,3.395,-0.105,-1.295,-0.038308,-0.035136,-1.00821,-0.16898,-0.24136,0.34832
-0,0,0,5,5,5,5,2.3816,0.441703,47.7975,-0.00572144,-0.00577656,0.00359457,0,0,0,3.4825,-0.1225,-1.3125,-0.038308,-0.035136,-1.00821,-0.16618,-0.23926,0.35
-0,0,0,5,5,5,5,2.3852,0.43646,48.039,-0.00502252,-0.0027827,0.00310087,0,0,0,3.43,0,-1.3475,-0.037698,-0.032208,-1.0087,-0.16618,-0.23926,0.35
-0,0,0,5,5,5,5,2.38882,0.431416,48.2779,-0.00493448,-0.00271963,0.00309891,0,0,0,3.4825,0.07,-1.2075,-0.037698,-0.032208,-1.0087,-0.16618,-0.23926,0.35
-0,0,0,5,5,5,5,2.39207,0.428945,48.5132,-0.00258312,-0.00229644,-0.00206698,0,0,0,3.605,-0.0175,-1.1725,-0.03538,-0.031842,-1.01382,-0.16618,-0.23926,0.35
-0,0,0,5,5,5,5,2.39491,0.42645,48.7455,-0.00253958,-0.00224703,-0.00206872,0,0,0,3.4125,-0.0525,-1.26,-0.03538,-0.031842,-1.01382,-0.16618,-0.23926,0.35
-0,0,0,5,5,5,5,2.4052,0.425737,48.9725,-0.00289159,-0.00646402,0.00468601,0,0,0,3.5175,0.07,-1.2075,-0.035746,-0.036234,-1.00711,-0.16618,-0.23926,0.35
-0,0,0,5,5,5,5,2.41529,0.425072,49.1968,-0.00287999,-0.00628813,0.0046787,0,0,0,3.5525,0.14,-1.19,-0.035746,-0.036234,-1.00711,-0.16618,-0.23926,0.35
-0,0,0,5,5,5,5,2.41931,0.422965,49.4206,-0.00260025,-0.00279852,0.00246294,0,0,0,3.395,0.0175,-1.1725,-0.035502,-0.032818,-1.00931,-0.16618,-0.23926,0.35
-0,0,0,5,5,5,5,2.4233,0.420737,49.6461,-0.00256136,-0.00272891,0.00246028,0,0,0,3.43,-0.07,-1.19,-0.035502,-0.032818,-1.00931,-0.1659,-0.2429,0.34762
-0,0,0,5,5,5,5,2.43131,0.420457,49.8671,-0.00182756,-0.00527599,-0.00320123,0,0,0,3.5175,-0.035,-1.1375,-0.03477,-0.035502,-1.01492,-0.1659,-0.2429,0.34762
-0,0,0,5,5,5,5,2.43923,0.420029,50.0855,-0.00182009,-0.00513787,-0.00320705,0,0,0,3.5875,-0.0875,-1.155,-0.03477,-0.035502,-1.01492,-0.1659,-0.2429,0.34762
-0,0,0,5,5,5,5,2.44475,0.418291,50.3022,-0.00227569,-0.0036983,-0.000383118,0,0,0,3.4825,-0.1925,-1.225,-0.035258,-0.03416,-1.01211,-0.1659,-0.2429,0.34762
-0,0,0,5,5,5,5,2.45012,0.416902,50.5164,-0.00225145,-0.00360462,-0.000386945,0,0,0,3.4825,0.0175,-1.19,-0.035258,-0.03416,-1.01211,-0.1659,-0.2429,0.34762
-0,0,0,5,5,5,5,2.45242,0.410863,50.7305,-0.00530469,-0.00222106,-0.00505995,0,0,0,3.57,-0.0175,-1.295,-0.03843,-0.032818,-1.01675,-0.1659,-0.2429,0.34762
-0,0,0,5,5,5,5,2.45456,0.404787,50.9423,-0.00519865,-0.00218381,-0.00506079,0,0,0,3.5,-0.105,-1.225,-0.03843,-0.032818,-1.01675,-0.1659,-0.2429,0.34762
-0,0,0,5,5,5,5,2.45915,0.404284,51.1486,-0.00130233,-0.00234788,0.0107962,0,0,0,3.605,-0.035,-1.295,-0.034526,-0.033062,-1.00101,-0.1659,-0.2429,0.34762
-0,0,0,5,5,5,5,2.46414,0.404212,51.3541,-0.00130106,-0.00226095,0.0107925,0,0,0,3.885,0.2275,-1.295,-0.034526,-0.033062,-1.00101,-0.16884,-0.24794,0.34552
-0,0,0,5,5,5,5,2.46588,0.401037,51.5588,-0.00282496,-0.00137562,-0.00260984,0,0,0,3.64,-0.0175,-1.3125,-0.036112,-0.032208,-1.01431,-0.16884,-0.24794,0.34552
-0,0,0,5,5,5,5,2.46775,0.397805,51.761,-0.00276856,-0.00134314,-0.00261085,0,0,0,3.7275,-0.0875,-1.3825,-0.036112,-0.032208,-1.01431,-0.16884,-0.24794,0.34552
-0,0,0,5,5,5,5,2.47588,0.394559,51.9588,-0.00404825,-0.00510934,0.00611276,0,0,0,3.5525,-0.175,-1.26,-0.037454,-0.036112,-1.00565,-0.16884,-0.24794,0.34552
-0,0,0,5,5,5,5,2.48387,0.39147,52.1542,-0.00399433,-0.0049701,0.0061071,0,0,0,3.5875,-0.0875,-1.2425,-0.037454,-0.036112,-1.00565,-0.16884,-0.24794,0.34552
-0,0,0,5,5,5,5,2.48317,0.392666,52.3485,0.00120868,0.000757784,0.00106659,0,0,0,3.605,0,-1.2425,-0.032208,-0.030378,-1.01065,-0.16884,-0.24794,0.34552
-0,0,0,5,5,5,5,2.48225,0.393962,52.5405,0.00118606,0.000741617,0.00106714,0,0,0,3.465,0.07,-1.26,-0.032208,-0.030378,-1.01065,-0.16884,-0.24794,0.34552
-0,0,0,5,5,5,5,2.48413,0.387968,52.7315,-0.00526956,-0.00191228,0.00143527,0,0,0,3.36,-0.035,-1.365,-0.038796,-0.033062,-1.01028,-0.16884,-0.24794,0.34552
-0,0,0,5,5,5,5,2.48602,0.381706,52.9201,-0.00516026,-0.00187926,0.00143458,0,0,0,3.3775,-0.2625,-1.2775,-0.038796,-0.033062,-1.01028,-0.1659,-0.24444,0.34916
-0,0,0,5,5,5,5,2.4898,0.381493,53.104,-0.000661582,-0.00230184,0.00155468,0,0,0,3.5,-0.1575,-1.155,-0.034282,-0.03355,-1.01016,-0.1659,-0.24444,0.34916
-0,0,0,5,5,5,5,2.49351,0.381652,53.2856,-0.000664357,-0.00223718,0.00155185,0,0,0,3.5175,0.07,-1.26,-0.034282,-0.03355,-1.01016,-0.1659,-0.24444,0.34916
-0,0,0,5,5,5,5,2.49598,0.380278,53.4657,-0.00149078,-0.0017056,0.00290257,0,0,0,3.36,-0.105,-1.2775,-0.035136,-0.033062,-1.00882,-0.1659,-0.24444,0.34916
-0,0,0,5,5,5,5,2.49842,0.378663,53.6439,-0.00146259,-0.00166305,0.0029009,0,0,0,3.3775,-0.245,-1.085,-0.035136,-0.033062,-1.00882,-0.1659,-0.24444,0.34916
-0,0,0,5,5,5,5,2.5025,0.376814,53.8197,-0.00215924,-0.0029354,-0.00115929,0,0,0,3.3775,-0.105,-1.0675,-0.035868,-0.034404,-1.01284,-0.1659,-0.24444,0.34916
-0,0,0,5,5,5,5,2.5064,0.375107,53.9931,-0.00212944,-0.00286732,-0.00116207,0,0,0,3.3425,-0.035,-1.225,-0.035868,-0.034404,-1.01284,-0.1659,-0.24444,0.34916
-0,0,0,5,5,5,5,2.50573,0.369318,54.1675,-0.00470108,-0.000314252,0.000806268,0,0,0,3.36,0.035,-1.1025,-0.038552,-0.031842,-1.01089,-0.1659,-0.24444,0.34916
-0,0,0,5,5,5,5,2.50513,0.363761,54.3397,-0.0046041,-0.000324671,0.000807345,0,0,0,3.3775,0.0875,-1.2425,-0.038552,-0.031842,-1.01089,-0.1659,-0.24444,0.34916
-0,0,0,5,5,5,5,2.50742,0.361658,54.5027,-0.00238066,-0.00162814,0.00228121,0,0,0,3.465,0.1575,-1.2425,-0.036356,-0.033184,-1.00943,-0.168,-0.2415,0.34874
-0,0,0,5,5,5,5,2.50962,0.359317,54.6637,-0.0023398,-0.00158975,0.00227979,0,0,0,3.4475,0,-1.2425,-0.036356,-0.033184,-1.00943,-0.168,-0.2415,0.34874
-0,0,0,5,5,5,5,2.51009,0.362525,54.8215,0.00258512,0.000128112,0.00240203,0,0,0,3.4475,0,-1.26,-0.031354,-0.031476,-1.00931,-0.168,-0.2415,0.34874
-0,0,0,5,5,5,5,2.51056,0.365414,54.9776,0.0025347,0.000136338,0.00240135,0,0,0,3.465,-0.14,-1.1725,-0.031354,-0.031476,-1.00931,-0.168,-0.2415,0.34874
-0,0,0,5,5,5,5,2.51062,0.360718,55.1344,-0.00382207,-0.000351148,0.00449195,0,0,0,3.4825,-0.035,-1.2075,-0.03782,-0.031964,-1.00723,-0.168,-0.2415,0.34874
-0,0,0,5,5,5,5,2.51057,0.356187,55.2893,-0.00374299,-0.000352053,0.00449248,0,0,0,3.4125,0,-1.2425,-0.03782,-0.031964,-1.00723,-0.168,-0.2415,0.34874
-0,0,0,5,5,5,5,2.51231,0.354512,55.4406,-0.00177,-0.00105439,0.00879453,0,0,0,3.3425,0,-1.3475,-0.035868,-0.032696,-1.00296,-0.168,-0.2415,0.34874
-0,0,0,5,5,5,5,2.51414,0.35297,55.5903,-0.00174308,-0.0010225,0.00879329,0,0,0,3.4125,0.07,-1.19,-0.035868,-0.032696,-1.00296,-0.168,-0.2415,0.34874
-0,0,0,5,5,5,5,2.51871,0.353367,55.7391,-0.000656636,-0.00265263,0.00522424,0,0,0,3.4475,0.0875,-1.3125,-0.03477,-0.034404,-1.0065,-0.16604,-0.24122,0.34664
-0,0,0,5,5,5,5,2.5206,0.351446,55.8874,-0.00195946,-0.00152046,-0.00141622,0,0,0,3.4475,0.0175,-1.505,-0.036112,-0.033306,-1.01309,-0.16604,-0.24122,0.34664
-0,0,0,5,5,5,5,2.52351,0.350552,56.0333,-0.00133643,-0.00183609,0.00325368,0,0,0,3.4475,0.035,-1.4525,-0.035502,-0.033672,-1.00845,-0.16604,-0.24122,0.34664
-0,0,0,5,5,5,5,2.52401,0.350315,56.1781,-0.00023891,-0.000239679,0.000548453,0,0,0,3.5525,0,-1.47,-0.034404,-0.032086,-1.01114,-0.16604,-0.24122,0.34664
-0,0,0,5,5,5,5,2.52546,0.348158,56.3215,-0.00190208,-0.00070298,0.00694089,0,0,0,3.5875,-0.0875,-1.4175,-0.036112,-0.032574,-1.00479,-0.16604,-0.24122,0.34664
-0,0,0,5,5,5,5,2.52416,0.345521,56.4643,-0.00185604,0.000617726,0.00190128,0,0,0,3.4825,-0.0525,-1.365,-0.036112,-0.031232,-1.00979,-0.16604,-0.24122,0.34664
-0,0,0,5,5,5,5,2.52587,0.343937,56.6041,-0.00146395,-0.00106216,0.000916544,0,0,0,3.605,-0.07,-1.365,-0.035746,-0.03294,-1.01077,-0.16604,-0.24122,0.34664
-0,0,0,5,5,5,5,2.52501,0.344627,56.7425,0.000589261,0.000510446,0.000671238,0,0,0,3.3775,0.105,-1.3125,-0.033672,-0.031354,-1.01101,-0.16604,-0.24122,0.34664
-0,0,0,5,5,5,5,2.52439,0.345099,56.876,0.000581032,0.000499625,0.000671666,0,0,0,3.5,-0.0175,-1.295,-0.033672,-0.031354,-1.01101,-0.16898,-0.24192,0.34664
-0,0,0,5,5,5,5,2.5258,0.340473,57.0087,-0.00419766,-0.00106343,0.00890861,0,0,0,3.4475,0.0525,-1.365,-0.038552,-0.03294,-1.00284,-0.16898,-0.24192,0.34664
-0,0,0,5,5,5,5,2.52734,0.335694,57.1399,-0.00411426,-0.0010365,0.00890792,0,0,0,3.535,-0.0875,-1.295,-0.038552,-0.03294,-1.00284,-0.16898,-0.24192,0.34664
-0,0,0,5,5,5,5,2.52783,0.329563,57.2704,-0.00497914,-0.000783718,0.00399022,0,0,0,3.5,-0.14,-1.26,-0.039528,-0.032696,-1.00772,-0.16898,-0.24192,0.34664
-0,0,0,5,5,5,5,2.52804,0.323733,57.3994,-0.00487738,-0.000779917,0.00399064,0,0,0,3.3425,-0.035,-1.155,-0.039528,-0.032696,-1.00772,-0.16898,-0.24192,0.34664
-0,0,0,5,5,5,5,2.52509,0.320132,57.5278,-0.0025063,0.00148891,-0.002523,0,0,0,3.6225,0.0875,-1.085,-0.03721,-0.030378,-1.01419,-0.16898,-0.24192,0.34664
-0,0,0,5,5,5,5,2.52247,0.316491,57.6544,-0.00244276,0.00144333,-0.00252064,0,0,0,3.7625,0,-1.2425,-0.03721,-0.030378,-1.01419,-0.16898,-0.24192,0.34664
-0,0,0,5,5,5,5,2.52703,0.313899,57.7763,-0.00276198,-0.00275159,0.00780378,0,0,0,3.5,-0.14,-1.2425,-0.037576,-0.034648,-1.00394,-0.16898,-0.24192,0.34664
-0,0,0,5,5,5,5,2.5316,0.311234,57.8972,-0.00271547,-0.00267193,0.00780051,0,0,0,3.57,-0.1925,-1.12,-0.037576,-0.034648,-1.00394,-0.16856,-0.24178,0.34748
-0,0,0,5,5,5,5,2.5332,0.309868,58.0172,-0.0012338,-0.000934253,0.0082912,0,0,0,3.325,-0.1575,-1.12,-0.036112,-0.03294,-1.00345,-0.16856,-0.24178,0.34748
-0,0,0,5,5,5,5,2.53473,0.308922,58.1355,-0.00121728,-0.000907602,0.00829011,0,0,0,3.3075,0.07,-1.295,-0.036112,-0.03294,-1.00345,-0.16856,-0.24178,0.34748
-0,0,0,5,5,5,5,2.53855,0.30648,58.2521,-0.00299695,-0.00255073,0.00656611,0,0,0,3.36,0.175,-1.19,-0.037942,-0.034648,-1.00516,-0.16856,-0.24178,0.34748
-0,0,0,5,5,5,5,2.5424,0.304069,58.3674,-0.00295486,-0.00248362,0.00656335,0,0,0,3.43,0.175,-1.225,-0.037942,-0.034648,-1.00516,-0.16856,-0.24178,0.34748
-0,0,0,5,5,5,5,2.54133,0.300722,58.4833,-0.00265348,0.0004288,0.00213834,0,0,0,3.535,0.0525,-1.2075,-0.037698,-0.03172,-1.00955,-0.16856,-0.24178,0.34748
-0,0,0,5,5,5,5,2.54049,0.297185,58.5978,-0.00259176,0.000414177,0.00213931,0,0,0,3.64,-0.105,-1.2075,-0.037698,-0.03172,-1.00955,-0.16856,-0.24178,0.34748
-0,0,0,5,5,5,5,2.54674,0.295247,58.7077,-0.00255793,-0.00387338,0.00459362,0,0,0,3.5175,-0.0875,-1.2425,-0.037698,-0.036112,-1.00711,-0.16856,-0.24178,0.34748
-0,0,0,5,5,5,5,2.55306,0.293608,58.8122,-0.00252932,-0.00376321,0.00458886,0,0,0,3.6575,0.0875,-1.33,-0.037698,-0.036112,-1.00711,-0.17024,-0.23926,0.34566
-0,0,0,5,5,5,5,2.5563,0.293184,58.9163,-0.000942602,-0.0017527,0.000283178,0,0,0,3.78,0.105,-1.3475,-0.036112,-0.03416,-1.01138,-0.17024,-0.23926,0.34566
-0,0,0,5,5,5,5,2.55942,0.29244,59.0193,-0.000929617,-0.0016983,0.000280815,0,0,0,3.7625,-0.07,-1.2075,-0.036112,-0.03416,-1.01138,-0.17024,-0.23926,0.34566
-0,0,0,5,5,5,5,2.55792,0.284904,59.1247,-0.005779,0.000351702,0.0037252,0,0,0,3.57,-0.175,-1.155,-0.041114,-0.032086,-1.00796,-0.17024,-0.23926,0.34566
-0,0,0,5,5,5,5,2.55658,0.278147,59.2285,-0.00566108,0.000328392,0.00372683,0,0,0,3.6225,0.175,-1.3125,-0.041114,-0.032086,-1.00796,-0.17024,-0.23926,0.34566
-0,0,0,5,5,5,5,2.55703,0.276753,59.3288,-0.00126327,-0.000274402,0.00139057,0,0,0,3.5875,0.0525,-1.295,-0.036722,-0.032696,-1.01028,-0.17024,-0.23926,0.34566
-0,0,0,5,5,5,5,2.55709,0.275197,59.4282,-0.00123611,-0.000273204,0.00139065,0,0,0,3.3775,-0.0525,-1.155,-0.036722,-0.032696,-1.01028,-0.17024,-0.23926,0.34566
-0,0,0,5,5,5,5,2.557,0.276008,59.5261,0.00069351,0.000213674,0.000530015,0,0,0,3.5175,0.0525,-1.1025,-0.03477,-0.032208,-1.01114,-0.17024,-0.23926,0.34566
-0,0,0,5,5,5,5,2.55713,0.277219,59.6228,0.000672364,0.000215853,0.000529815,0,0,0,3.64,0.2975,-1.1025,-0.03477,-0.032208,-1.01114,-0.17024,-0.23926,0.34566
-0,0,0,5,5,5,5,2.56016,0.277286,59.7215,-0.000665142,-0.00168529,0.00433885,0,0,0,3.5175,0.175,-1.0675,-0.036112,-0.03416,-1.00735,-0.16758,-0.24024,0.34692
-0,0,0,5,5,5,5,2.56317,0.276808,59.8187,-0.000656798,-0.00163284,0.00433654,0,0,0,3.5525,-0.14,-1.225,-0.036112,-0.03416,-1.00735,-0.16758,-0.24024,0.34692
-0,0,0,5,5,5,5,2.56344,0.271235,59.9175,-0.00469005,-0.000651031,-8.93514e-05,0,0,0,3.64,0,-1.1375,-0.04026,-0.033184,-1.01175,-0.16758,-0.24024,0.34692
-0,0,0,5,5,5,5,2.56379,0.266265,60.0149,-0.00460331,-0.000644931,-8.92172e-05,0,0,0,3.675,0.28,-1.2425,-0.04026,-0.033184,-1.01175,-0.16758,-0.24024,0.34692
-0,0,0,5,5,5,5,2.56642,0.267264,60.1087,-0.000125769,-0.00120973,0.00396595,0,0,0,3.675,0.42,-1.26,-0.035746,-0.033794,-1.00772,-0.16758,-0.24024,0.34692
-0,0,0,5,5,5,5,2.56875,0.268052,60.2012,-0.000139516,-0.00116907,0.00396406,0,0,0,3.5525,0.315,-1.3125,-0.035746,-0.033794,-1.00772,-0.16758,-0.24024,0.34692
-0,0,0,5,5,5,5,2.56656,0.268654,60.2943,0.000700375,0.00111315,-0.00513246,0,0,0,3.4125,0.1575,-1.295,-0.034892,-0.031476,-1.01675,-0.16758,-0.24024,0.34692
-0,0,0,5,5,5,5,2.56415,0.269194,60.3863,0.000690947,0.0010711,-0.00513062,0,0,0,3.255,0.1225,-1.26,-0.034892,-0.031476,-1.01675,-0.16758,-0.24024,0.34692
-0,0,0,5,5,5,5,2.56663,0.270512,60.4758,0.000667947,-0.0019388,-0.00537857,0,0,0,3.2375,0.035,-1.225,-0.034892,-0.034526,-1.01699,-0.16646,-0.23912,0.34622
-0,0,0,5,5,5,5,2.56795,0.274929,60.564,0.00326354,3.81636e-05,0.00912796,0,0,0,3.4475,0.175,-1.2775,-0.032208,-0.032574,-1.0026,-0.16646,-0.23912,0.34622
-0,0,0,5,5,5,5,2.5689,0.279005,60.6511,0.00319239,5.47291e-05,0.00912687,0,0,0,3.2725,0.035,-1.26,-0.032208,-0.032574,-1.0026,-0.16646,-0.23912,0.34622
-0,0,0,5,5,5,5,2.57034,0.282837,60.7372,0.00288255,-0.000408632,0.00642055,0,0,0,3.2725,0.07,-1.155,-0.032452,-0.033062,-1.00528,-0.16646,-0.23912,0.34622
-0,0,0,5,5,5,5,2.57198,0.286401,60.8222,0.00282035,-0.000380091,0.00641896,0,0,0,3.4125,-0.035,-1.1725,-0.032452,-0.033062,-1.00528,-0.16646,-0.23912,0.34622
-0,0,0,5,5,5,5,2.56686,0.279221,60.9116,-0.00507241,0.00197318,-0.00513358,0,0,0,3.3075,-0.1575,-1.12,-0.040504,-0.030622,-1.01675,-0.16646,-0.23912,0.34622
-0,0,0,5,5,5,5,2.56197,0.272258,60.9999,-0.00495087,0.00188797,-0.00512918,0,0,0,3.3425,-0.14,-1.19,-0.040504,-0.030622,-1.01675,-0.16646,-0.23912,0.34622
-0,0,0,5,5,5,5,2.56089,0.268128,61.0853,-0.00342096,0.000281458,0.000650588,0,0,0,3.5525,0.0875,-1.12,-0.03904,-0.032208,-1.01101,-0.16646,-0.23912,0.34622
-0,0,0,5,5,5,5,2.55952,0.26427,61.1649,-0.00335363,0.000257631,0.000651966,0,0,0,3.3775,0.1925,-1.2425,-0.03904,-0.032208,-1.01101,-0.17066,-0.24024,0.3458
-0,0,0,5,5,5,5,2.5596,0.264024,61.242,-0.000312192,-0.000107384,0.00188141,0,0,0,3.395,0.07,-1.2425,-0.03599,-0.032574,-1.00979,-0.17066,-0.24024,0.3458
-0,0,0,5,5,5,5,2.5598,0.263569,61.3183,-0.000304257,-0.00010386,0.00188129,0,0,0,3.465,-0.0525,-1.19,-0.03599,-0.032574,-1.00979,-0.17066,-0.24024,0.3458
-0,0,0,5,5,5,5,2.56003,0.261647,61.394,-0.00172854,-0.000344041,0.00360254,0,0,0,3.3775,0.035,-1.19,-0.037454,-0.032818,-1.00809,-0.17066,-0.24024,0.3458
-0,0,0,5,5,5,5,2.56033,0.260281,61.4687,-0.00170469,-0.000338877,0.00360242,0,0,0,3.4125,0.3325,-1.3125,-0.037454,-0.032818,-1.00809,-0.17066,-0.24024,0.3458
-0,0,0,5,5,5,5,2.56223,0.261529,61.5412,0.000338778,-0.00091641,0.00151071,0,0,0,3.5875,0.3325,-1.295,-0.03538,-0.033428,-1.01016,-0.17066,-0.24024,0.3458
-0,0,0,5,5,5,5,2.56369,0.262387,61.6128,0.000323799,-0.000890865,0.0015095,0,0,0,3.3775,0.1225,-1.3475,-0.03538,-0.033428,-1.01016,-0.17066,-0.24024,0.3458
-0,0,0,5,5,5,5,2.56719,0.261856,61.6829,-0.00100326,-0.00205114,0.00814603,0,0,0,3.325,-0.035,-1.3825,-0.036722,-0.034648,-1.00357,-0.17066,-0.24024,0.3458
-0,0,0,5,5,5,5,2.57052,0.261868,61.7494,-0.00100348,-0.00199306,0.00814342,0,0,0,3.29,0.2975,-1.26,-0.036722,-0.034648,-1.00357,-0.17248,-0.2401,0.35098
-0,0,0,5,5,5,5,2.57159,0.260254,61.8166,-0.00206867,-0.0011195,0.00347067,0,0,0,3.185,0.315,-1.12,-0.03782,-0.033794,-1.00821,-0.17248,-0.2401,0.35098
-0,0,0,5,5,5,5,2.57295,0.258136,61.8827,-0.00203172,-0.00109582,0.00346977,0,0,0,3.36,0,-1.2075,-0.03782,-0.033794,-1.00821,-0.17248,-0.2401,0.35098
-0,0,0,5,5,5,5,2.57248,0.25035,61.9501,-0.00675524,-0.000859813,0.00187242,0,0,0,3.255,0.07,-1.2775,-0.0427,-0.03355,-1.00979,-0.17248,-0.2401,0.35098
-0,0,0,5,5,5,5,2.57242,0.242556,62.0165,-0.00661922,-0.000860778,0.00187305,0,0,0,3.465,-0.035,-1.365,-0.0427,-0.03355,-1.00979,-0.17248,-0.2401,0.35098
-0,0,0,5,5,5,5,2.56988,0.239043,62.0824,-0.00267037,0.00129319,0.00187529,0,0,0,3.535,0.07,-1.2425,-0.038796,-0.031354,-1.00979,-0.17248,-0.2401,0.35098
-0,0,0,5,5,5,5,2.56717,0.235649,62.1474,-0.00261113,0.001246,0.00187766,0,0,0,3.395,0.0875,-1.26,-0.038796,-0.031354,-1.00979,-0.17248,-0.2401,0.35098
-0,0,0,5,5,5,5,2.57055,0.239605,62.2075,0.0026652,-0.00150392,0.00802215,0,0,0,3.29,0.105,-1.2425,-0.033428,-0.03416,-1.00369,-0.17248,-0.2401,0.35098
-0,0,0,5,5,5,5,2.57395,0.243653,62.2663,0.00259455,-0.00144479,0.00801919,0,0,0,3.3425,0.21,-1.26,-0.033428,-0.03416,-1.00369,-0.17514,-0.24318,0.34384
-0,0,0,5,5,5,5,2.57991,0.244988,62.3241,-0.000222921,-0.0034169,0.00887505,0,0,0,3.29,0.2625,-1.155,-0.036234,-0.036234,-1.00284,-0.17514,-0.24318,0.34384
-0,0,0,5,5,5,5,2.58586,0.245983,62.3808,-0.000240297,-0.00331319,0.0088703,0,0,0,3.3775,0.0875,-1.4,-0.036234,-0.036234,-1.00284,-0.17514,-0.24318,0.34384
-0,0,0,5,5,5,5,2.58758,0.247913,62.438,0.00142682,-0.000840717,0.0048115,0,0,0,3.2725,-0.0525,-1.4175,-0.034526,-0.033794,-1.00687,-0.17514,-0.24318,0.34384
-0,0,0,5,5,5,5,2.58984,0.249958,62.4949,0.00139113,-0.000801388,0.00480957,0,0,0,3.605,0.0525,-1.2425,-0.034526,-0.033794,-1.00687,-0.17514,-0.24318,0.34384
-0,0,0,5,5,5,5,2.58736,0.243886,62.5548,-0.00494163,0.000620922,-0.000720705,0,0,0,3.3775,0.07,-1.1375,-0.040992,-0.03233,-1.01236,-0.17514,-0.24318,0.34384
-0,0,0,5,5,5,5,2.58506,0.23787,62.6139,-0.00483664,0.000580968,-0.000718459,0,0,0,3.43,0.0175,-1.225,-0.040992,-0.03233,-1.01236,-0.17514,-0.24318,0.34384
-0,0,0,5,5,5,5,2.58492,0.236195,62.6705,-0.00128431,8.99232e-05,0.00469151,0,0,0,3.465,-0.07,-1.155,-0.037454,-0.032818,-1.00699,-0.17514,-0.24318,0.34384
-0,0,0,5,5,5,5,2.58463,0.234729,62.727,-0.00125872,8.49012e-05,0.00469184,0,0,0,3.3775,0.035,-1.0675,-0.037454,-0.032818,-1.00699,-0.17514,-0.24444,0.3507
-0,0,0,5,5,5,5,2.58545,0.232247,62.7826,-0.00218729,-0.000511369,0.00506022,0,0,0,3.5525,-0.0175,-1.1375,-0.03843,-0.033428,-1.00662,-0.17514,-0.24444,0.3507
-0,0,0,5,5,5,5,2.58651,0.23006,62.8374,-0.00214912,-0.000492896,0.00505954,0,0,0,3.6925,0.1225,-1.26,-0.03843,-0.033428,-1.00662,-0.17514,-0.24444,0.3507
-0,0,0,5,5,5,5,2.59284,0.233164,62.8879,0.00168424,-0.00282503,0.0116935,0,0,0,3.6575,0.035,-1.295,-0.034526,-0.035868,-1.00003,-0.17514,-0.24444,0.3507
-0,0,0,5,5,5,5,2.59855,0.235881,62.9377,0.00163682,-0.00272557,0.0116888,0,0,0,3.4125,-0.14,-1.4,-0.034526,-0.035868,-1.00003,-0.17514,-0.24444,0.3507
-0,0,0,5,5,5,5,2.59986,0.238664,62.9885,0.00243865,-0.00013814,0.00689261,0,0,0,3.465,-0.1575,-1.4525,-0.033672,-0.033306,-1.00479,-0.17514,-0.24444,0.3507
-0,0,0,5,5,5,5,2.60096,0.24159,63.0387,0.00238757,-0.000118924,0.00689153,0,0,0,3.3775,-0.035,-1.4525,-0.033672,-0.033306,-1.00479,-0.17514,-0.24444,0.3507
-0,0,0,5,5,5,5,2.60599,0.24458,63.0867,0.00184944,-0.00271804,0.0045513,0,0,0,3.3425,-0.035,-1.3825,-0.03416,-0.03599,-1.00711,-0.17514,-0.24444,0.3507
-0,0,0,5,5,5,5,2.61121,0.24739,63.1343,0.00180041,-0.00262704,0.00454694,0,0,0,3.535,-0.0875,-1.3475,-0.03416,-0.03599,-1.00711,-0.17514,-0.24444,0.3507
-0,0,0,5,5,5,5,2.61095,0.249869,63.1854,0.00236456,0.000910198,0.00651413,0,0,0,3.5875,-0.0875,-1.2775,-0.03355,-0.032452,-1.00516,-0.17458,-0.24598,0.35182
-0,0,0,5,5,5,5,2.60876,0.25031,63.2371,0.000777551,0.00160466,0.00405687,0,0,0,3.465,-0.0175,-1.2075,-0.035136,-0.03172,-1.0076,-0.17458,-0.24598,0.35182
-0,0,0,5,5,5,5,2.60659,0.251138,63.2884,0.000763117,0.00156688,0.00405853,0,0,0,3.4475,0.21,-1.155,-0.035136,-0.03172,-1.0076,-0.17458,-0.24598,0.35182
-0,0,0,5,5,5,5,2.60684,0.253418,63.3381,0.00181669,0.00034998,0.000984443,0,0,0,3.6575,0.1575,-1.0675,-0.034038,-0.03294,-1.01065,-0.17458,-0.24598,0.35182
-0,0,0,5,5,5,5,2.60714,0.2553,63.3869,0.00178384,0.000355145,0.000984062,0,0,0,3.6925,-0.0525,-1.1725,-0.034038,-0.03294,-1.01065,-0.17458,-0.24598,0.35182
-0,0,0,5,5,5,5,2.60649,0.256487,63.4356,0.0011557,0.00083236,0.00430409,0,0,0,3.5525,0.0175,-1.225,-0.034648,-0.032452,-1.00735,-0.17458,-0.24598,0.35182
-0,0,0,5,5,5,5,2.60598,0.257358,63.4835,0.0011405,0.000823471,0.00430443,0,0,0,3.6225,-0.1575,-1.2775,-0.034648,-0.032452,-1.00735,-0.17458,-0.24598,0.35182
-0,0,0,5,5,5,5,2.60368,0.256001,63.532,-0.000293658,0.00114973,-0.00577542,0,0,0,3.535,-0.2975,-1.2775,-0.036112,-0.032086,-1.01736,-0.17458,-0.24598,0.35182
-0,0,0,5,5,5,5,2.60142,0.254982,63.579,-0.000275874,0.00111038,-0.00577355,0,0,0,3.5175,-0.1225,-1.2425,-0.036112,-0.032086,-1.01736,-0.1736,-0.24276,0.3521
-0,0,0,5,5,5,5,2.59798,0.255398,63.6256,0.000931727,0.0022717,-0.00429548,0,0,0,3.6925,0.0525,-1.33,-0.034892,-0.030866,-1.01589,-0.1736,-0.24276,0.3521
-0,0,0,5,5,5,5,2.59464,0.255973,63.6716,0.00092169,0.00221341,-0.00429288,0,0,0,3.6925,0.14,-1.3475,-0.034892,-0.030866,-1.01589,-0.1736,-0.24276,0.3521
-0,0,0,5,5,5,5,2.59421,0.25693,63.7156,0.000783502,0.00037403,0.00517442,0,0,0,3.2725,0.0525,-1.33,-0.035014,-0.032696,-1.0065,-0.1736,-0.24276,0.3521
-0,0,0,5,5,5,5,2.59382,0.257985,63.7591,0.000765094,0.000367246,0.00517464,0,0,0,3.29,0.1225,-1.2775,-0.035014,-0.032696,-1.0065,-0.1736,-0.24276,0.3521
-0,0,0,5,5,5,5,2.59201,0.256012,63.8034,-0.00150869,0.00094635,0.00284021,0,0,0,3.43,0.0525,-1.2775,-0.037332,-0.032086,-1.00882,-0.1736,-0.24276,0.3521
-0,0,0,5,5,5,5,2.59002,0.253806,63.8475,-0.00147019,0.000911504,0.00284195,0,0,0,3.29,-0.105,-1.1025,-0.037332,-0.032086,-1.00882,-0.1736,-0.24276,0.3521
-0,0,0,5,5,5,5,2.58655,0.251376,63.8917,-0.00154927,0.00158381,0.000754749,0,0,0,3.185,-0.0525,-1.12,-0.037454,-0.031354,-1.01089,-0.1736,-0.24276,0.3521
-0,0,0,5,5,5,5,2.58331,0.249011,63.9395,-0.00150799,0.00152737,0.000757478,0,0,0,3.255,-0.0525,-1.1025,-0.037454,-0.031354,-1.01089,-0.17248,-0.24654,0.35224
-0,0,0,5,5,5,5,2.58197,0.242988,63.9867,-0.00504744,3.84195e-05,0.00284911,0,0,0,3.325,-0.0175,-1.225,-0.041114,-0.032818,-1.00882,-0.17248,-0.24654,0.35224
-0,0,0,5,5,5,5,2.58102,0.237462,64.0332,-0.004951,2.20265e-05,0.00285025,0,0,0,3.5175,0.1925,-1.3475,-0.041114,-0.032818,-1.00882,-0.17248,-0.24654,0.35224
-0,0,0,5,5,5,5,2.58326,0.235931,64.0769,-0.00176566,-0.00152667,0.00112733,0,0,0,3.5175,0.0875,-1.3475,-0.037942,-0.034404,-1.01053,-0.17248,-0.24654,0.35224
-0,0,0,5,5,5,5,2.5855,0.234307,64.12,-0.00173731,-0.00148763,0.00112568,0,0,0,3.5525,0.0175,-1.4175,-0.037942,-0.034404,-1.01053,-0.17248,-0.24654,0.35224
-0,0,0,5,5,5,5,2.58552,0.233224,64.1632,-0.000746519,-0.000143767,0.00309292,0,0,0,3.3425,-0.14,-1.3475,-0.036966,-0.033062,-1.00857,-0.17248,-0.24654,0.35224
-0,0,0,5,5,5,5,2.58562,0.232153,64.2061,-0.000727831,-0.000142139,0.00309292,0,0,0,3.3775,-0.14,-1.225,-0.036966,-0.033062,-1.00857,-0.17248,-0.24654,0.35224
-0,0,0,5,5,5,5,2.59132,0.23244,64.246,-0.000489861,-0.00321805,0.00825224,0,0,0,3.4125,-0.07,-1.19,-0.036722,-0.036234,-1.00345,-0.17248,-0.24654,0.35224
-0,0,0,5,5,5,5,2.59674,0.232641,64.2869,-0.000493369,-0.00312352,0.00824794,0,0,0,3.3425,-0.105,-1.2425,-0.036722,-0.036234,-1.00345,-0.17164,-0.24696,0.34944
-0,0,0,5,5,5,5,2.59942,0.23743,64.3275,0.00391801,-0.000756416,0.00984381,0,0,0,3.3425,-0.105,-1.19,-0.032208,-0.033916,-1.00186,-0.17164,-0.24696,0.34944
-0,0,0,5,5,5,5,2.6021,0.242535,64.3674,0.00382892,-0.000709731,0.00984132,0,0,0,3.395,0.14,-1.295,-0.032208,-0.033916,-1.00186,-0.17164,-0.24696,0.34944
-0,0,0,5,5,5,5,2.60681,0.246069,64.4063,0.00243088,-0.00245952,0.00246041,0,0,0,3.43,0,-1.2775,-0.03355,-0.035746,-1.00918,-0.17164,-0.24696,0.34944
-0,0,0,5,5,5,5,2.61153,0.249601,64.4446,0.00236924,-0.00237724,0.00245639,0,0,0,3.5175,0.0525,-1.3125,-0.03355,-0.035746,-1.00918,-0.17164,-0.24696,0.34944
-0,0,0,5,5,5,5,2.61124,0.252219,64.4848,0.00232356,0.000304621,-0.00430575,0,0,0,3.4825,0.07,-1.2775,-0.03355,-0.033062,-1.01589,-0.17164,-0.24696,0.34944
-0,0,0,5,5,5,5,2.61059,0.254627,64.5246,0.00228153,0.000293132,-0.00430541,0,0,0,3.2725,-0.0175,-1.1725,-0.03355,-0.033062,-1.01589,-0.17164,-0.24696,0.34944
-0,0,0,5,5,5,5,2.61213,0.255369,64.5634,0.000446294,-0.00114544,-0.00184773,0,0,0,3.325,0,-1.2075,-0.03538,-0.034526,-1.01345,-0.17164,-0.24696,0.34944
-0,0,0,5,5,5,5,2.61426,0.25603,64.6051,0.000434758,-0.00110839,-0.00184947,0,0,0,3.675,-0.035,-1.225,-0.03538,-0.034526,-1.01345,-0.16954,-0.2478,0.34804
-0,0,0,5,5,5,5,2.61498,0.253506,64.6474,-0.00207239,-0.000729398,-0.00184985,0,0,0,3.57,-0.1225,-1.225,-0.037942,-0.03416,-1.01345,-0.16954,-0.2478,0.34804
-0,0,0,5,5,5,5,2.61572,0.25142,64.6892,-0.00203598,-0.000716422,-0.00185028,0,0,0,3.5875,0.105,-1.26,-0.037942,-0.03416,-1.01345,-0.16954,-0.2478,0.34804
-0,0,0,5,5,5,5,2.62148,0.252419,64.7276,-0.000109657,-0.00305855,0.00822683,0,0,0,3.535,0.105,-1.33,-0.03599,-0.0366,-1.00345,-0.16954,-0.2478,0.34804
-0,0,0,5,5,5,5,2.62692,0.253198,64.7655,-0.000123239,-0.00296376,0.00822242,0,0,0,3.4475,0,-1.4,-0.03599,-0.0366,-1.00345,-0.16954,-0.2478,0.34804
-0,0,0,5,5,5,5,2.63019,0.255952,64.8032,0.00189395,-0.00144128,0.00625242,0,0,0,3.465,0.035,-1.4525,-0.033916,-0.035136,-1.0054,-0.16954,-0.2478,0.34804
-0,0,0,5,5,5,5,2.63317,0.258896,64.8406,0.00184257,-0.00138935,0.0062498,0,0,0,3.36,0.1925,-1.365,-0.033916,-0.035136,-1.0054,-0.16954,-0.2478,0.34804
-0,0,0,5,5,5,5,2.63426,0.26151,64.8787,0.00191843,-0.000149005,0.00932243,0,0,0,3.3075,0.1225,-1.155,-0.033794,-0.033916,-1.00235,-0.16954,-0.2478,0.34804
-0,0,0,5,5,5,5,2.63535,0.263946,64.9163,0.00187591,-0.000130095,0.00932136,0,0,0,3.325,0.0525,-1.155,-0.033794,-0.033916,-1.00235,-0.16954,-0.2478,0.34804
-0,0,0,5,5,5,5,2.62867,0.25619,64.9553,-0.0058853,0.00305092,-1.67586e-05,0,0,0,3.325,0,-1.2075,-0.041724,-0.030622,-1.01162,-0.17108,-0.24612,0.35182
-0,0,0,5,5,5,5,2.6222,0.248522,64.9934,-0.00575146,0.00293825,-1.10022e-05,0,0,0,3.325,-0.07,-1.435,-0.041724,-0.030622,-1.01162,-0.17108,-0.24612,0.35182
-0,0,0,5,5,5,5,2.6219,0.246687,65.0278,-0.00146744,0.000124121,0.00552206,0,0,0,3.395,-0.07,-1.295,-0.037454,-0.033428,-1.00613,-0.17108,-0.24612,0.35182
-0,0,0,5,5,5,5,2.62162,0.244891,65.0617,-0.00143609,0.000119174,0.00552242,0,0,0,3.395,-0.07,-1.295,-0.037454,-0.033428,-1.00613,-0.17108,-0.24612,0.35182
-0,0,0,5,5,5,5,2.61911,0.247049,65.0957,0.0022923,0.00215152,0.00380298,0,0,0,3.5875,0.035,-1.155,-0.033672,-0.031354,-1.00784,-0.17108,-0.24612,0.35182
-0,0,0,5,5,5,5,2.61666,0.249176,65.1294,0.00225519,0.00210879,0.00380478,0,0,0,3.5875,0.035,-1.155,-0.033672,-0.031354,-1.00784,-0.17108,-0.24612,0.35182
-0,0,0,5,5,5,5,2.62211,0.250532,65.1592,0.000530718,-0.00304766,0.00355443,0,0,0,3.5175,-0.0525,-1.295,-0.03538,-0.0366,-1.00809,-0.17108,-0.24612,0.35182
-0,0,0,5,5,5,5,2.6274,0.251835,65.1886,0.000507964,-0.0029554,0.0035501,0,0,0,3.5175,-0.0525,-1.295,-0.03538,-0.0366,-1.00809,-0.17108,-0.24612,0.35182
-0,0,0,5,5,5,5,2.62745,0.253351,65.2177,0.00133191,0.000220804,0.00133687,0,0,0,3.4825,0.035,-1.225,-0.034526,-0.033428,-1.01028,-0.17374,-0.2478,0.3514
-0,0,0,5,5,5,5,2.62967,0.255598,65.2453,0.00141419,-0.000839715,0.00490043,0,0,0,3.5525,0.1925,-1.3125,-0.034404,-0.034526,-1.00674,-0.17374,-0.2478,0.3514
-0,0,0,5,5,5,5,2.63156,0.25739,65.2728,0.0013829,-0.000806661,0.00489877,0,0,0,3.4125,-0.035,-1.1725,-0.034404,-0.034526,-1.00674,-0.17374,-0.2478,0.3514
-0,0,0,5,5,5,5,2.62984,0.257474,65.3019,0.000409547,0.00148369,0.0111705,0,0,0,3.36,-0.07,-1.1025,-0.03538,-0.032208,-1.00052,-0.17374,-0.2478,0.3514
-0,0,0,5,5,5,5,2.62801,0.257654,65.3306,0.000406408,0.00145175,0.011172,0,0,0,3.2725,-0.0175,-1.1025,-0.03538,-0.032208,-1.00052,-0.17374,-0.2478,0.3514
-0,0,0,5,5,5,5,2.6251,0.253908,65.3604,-0.0030513,0.00103461,-0.00271859,0,0,0,3.325,0.105,-1.1025,-0.038918,-0.032574,-1.01431,-0.17374,-0.2478,0.3514
-0,0,0,5,5,5,5,2.62234,0.250428,65.3892,-0.00299055,0.000986562,-0.00271612,0,0,0,3.36,0.1925,-1.4525,-0.038918,-0.032574,-1.01431,-0.17374,-0.2478,0.3514
-0,0,0,5,5,5,5,2.61845,0.249651,65.4179,-0.000547289,0.00250645,0.00564754,0,0,0,3.4475,0.28,-1.3475,-0.036478,-0.030988,-1.00601,-0.17374,-0.2478,0.3514
-0,0,0,5,5,5,5,2.61503,0.249026,65.4446,-0.000536373,0.00244676,0.00565031,0,0,0,3.64,0.35,-1.2775,-0.036478,-0.030988,-1.00601,-0.17416,-0.24612,0.35406
-0,0,0,5,5,5,5,2.61189,0.2492,65.4707,0.000189499,0.00251424,0.0092183,0,0,0,3.6225,0.2975,-1.295,-0.035746,-0.030866,-1.00247,-0.17416,-0.24612,0.35406
-0,0,0,5,5,5,5,2.6085,0.248783,65.4966,0.000196777,0.00245513,0.00922103,0,0,0,3.43,-0.0525,-1.225,-0.035746,-0.030866,-1.00247,-0.17416,-0.24612,0.35406
-0,0,0,5,5,5,5,2.60362,0.24692,65.523,-0.000621096,0.00273639,0.000249801,0,0,0,3.325,-0.21,-1.225,-0.0366,-0.0305,-1.01138,-0.17416,-0.24612,0.35406
-0,0,0,5,5,5,5,2.59929,0.245297,65.549,-0.000592776,0.00266083,0.000253356,0,0,0,3.5525,-0.105,-1.26,-0.0366,-0.0305,-1.01138,-0.17416,-0.24612,0.35406
-0,0,0,5,5,5,5,2.60001,0.24644,65.5722,0.00108807,-0.000135474,-0.00220627,0,0,0,3.71,-0.035,-1.33,-0.034892,-0.033306,-1.01382,-0.17416,-0.24612,0.35406
-0,0,0,5,5,5,5,2.60027,0.247617,65.595,0.00106753,-0.000130913,-0.00220657,0,0,0,3.465,0,-1.33,-0.034892,-0.033306,-1.01382,-0.17416,-0.24612,0.35406
-0,0,0,5,5,5,5,2.60001,0.247899,65.618,0.000212203,0.000352949,0.0073836,0,0,0,3.325,0.035,-1.2775,-0.035746,-0.032818,-1.0043,-0.17416,-0.24612,0.35406
-0,0,0,5,5,5,5,2.59971,0.248141,65.6431,0.000207995,0.000347871,0.00738382,0,0,0,3.3075,0.0175,-1.19,-0.035746,-0.032818,-1.0043,-0.17136,-0.24388,0.35126
-0,0,0,5,5,5,5,2.59946,0.247445,65.6681,-0.00050878,9.9217e-05,0.00689228,0,0,0,3.22,-0.07,-1.1025,-0.036478,-0.033062,-1.00479,-0.17136,-0.24388,0.35126
-0,0,0,5,5,5,5,2.59966,0.24668,65.6928,-0.000495432,0.000102595,0.00689218,0,0,0,3.465,-0.1225,-1.1725,-0.036478,-0.033062,-1.00479,-0.17136,-0.24388,0.35126
-0,0,0,5,5,5,5,2.59935,0.243415,65.7179,-0.00274667,-0.00014691,-0.000607196,0,0,0,3.57,-0.035,-1.1725,-0.038796,-0.033306,-1.01223,-0.17136,-0.24388,0.35126
-0,0,0,5,5,5,5,2.59885,0.240699,65.7427,-0.00269927,-0.000155609,-0.000606601,0,0,0,3.4475,0.245,-1.2425,-0.038796,-0.033306,-1.01223,-0.17136,-0.24388,0.35126
-0,0,0,5,5,5,5,2.59956,0.245514,65.7652,0.0038984,0.000100871,0.000621972,0,0,0,3.43,0.2275,-1.2075,-0.032086,-0.033062,-1.01101,-0.17136,-0.24388,0.35126
-0,0,0,5,5,5,5,2.60003,0.250461,65.7876,0.00381207,0.00010918,0.000621221,0,0,0,3.325,0.3675,-1.1025,-0.032086,-0.033062,-1.01101,-0.17136,-0.24388,0.35126
-0,0,0,5,5,5,5,2.59712,0.250605,65.8122,-7.79896e-05,0.00176822,0.00197595,0,0,0,3.395,0.42,-1.12,-0.03599,-0.031354,-1.00967,-0.17136,-0.24388,0.35126
-0,0,0,5,5,5,5,2.59446,0.250795,65.8392,-8.13016e-05,0.0017217,0.00197804,0,0,0,3.4825,0.4375,-1.155,-0.03599,-0.031354,-1.00967,-0.16898,-0.24388,0.357
-0,0,0,5,5,5,5,2.59612,0.247502,65.865,-0.00354692,-0.00130252,-0.000113146,0,0,0,3.6925,0.2975,-1.1375,-0.039528,-0.034404,-1.01175,-0.16898,-0.24388,0.357
-0,0,0,5,5,5,5,2.59765,0.244098,65.8903,-0.0034875,-0.0012758,-0.000114103,0,0,0,3.64,0.1925,-1.2425,-0.039528,-0.034404,-1.01175,-0.16898,-0.24388,0.357
-0,0,0,5,5,5,5,2.59726,0.244397,65.9154,-9.11317e-05,0.000671392,0.00541887,0,0,0,3.6575,0.315,-1.225,-0.036112,-0.032452,-1.00626,-0.16898,-0.24388,0.357
-0,0,0,5,5,5,5,2.59697,0.244483,65.9403,-9.26236e-05,0.00066636,0.00541909,0,0,0,3.71,0.1925,-1.2075,-0.036112,-0.032452,-1.00626,-0.16898,-0.24388,0.357
-0,0,0,5,5,5,5,2.59654,0.244387,65.9647,0.000152024,0.000781051,0.0083702,0,0,0,3.5875,-0.0875,-1.26,-0.035868,-0.03233,-1.00333,-0.16898,-0.24388,0.357
-0,0,0,5,5,5,5,2.59591,0.244508,65.9887,0.000149917,0.000770012,0.00837069,0,0,0,3.465,0.035,-1.3125,-0.035868,-0.03233,-1.00333,-0.16898,-0.24388,0.357
-0,0,0,5,5,5,5,2.59486,0.239694,66.0136,-0.00438252,-0.000225291,-0.000111573,0,0,0,3.2725,0.1225,-1.295,-0.040504,-0.033306,-1.01175,-0.16898,-0.24388,0.357
-0,0,0,5,5,5,5,2.59406,0.235335,66.0374,-0.00430646,-0.000239217,-0.000110626,0,0,0,3.395,0.3325,-1.3475,-0.040504,-0.033306,-1.01175,-0.17122,-0.24668,0.34888
-0,0,0,5,5,5,5,2.59287,0.229606,66.0615,-0.00529982,-0.000137825,0.000874307,0,0,0,3.36,0.21,-1.295,-0.041602,-0.033184,-1.01077,-0.17122,-0.24668,0.34888
-0,0,0,5,5,5,5,2.59148,0.223459,66.0852,-0.00519255,-0.000161953,0.000875824,0,0,0,3.22,-0.105,-1.3125,-0.041602,-0.033184,-1.01077,-0.17122,-0.24668,0.34888
-0,0,0,5,5,5,5,2.59378,0.22284,66.1061,-0.000808257,-0.00158742,0.00517725,0,0,0,3.22,-0.07,-1.26,-0.03721,-0.034648,-1.0065,-0.17122,-0.24668,0.34888
-0,0,0,5,5,5,5,2.59617,0.222278,66.1269,-0.000798454,-0.00154571,0.0051754,0,0,0,3.3075,-0.035,-1.2075,-0.03721,-0.034648,-1.0065,-0.17122,-0.24668,0.34888
-0,0,0,5,5,5,5,2.5969,0.221746,66.1481,-0.000667686,-0.000556058,0.00406832,0,0,0,3.3075,0.0525,-1.2075,-0.037088,-0.033672,-1.0076,-0.17122,-0.24668,0.34888
-0,0,0,5,5,5,5,2.59779,0.221058,66.1688,-0.000655667,-0.00054049,0.00406766,0,0,0,3.4125,-0.0525,-1.4,-0.037088,-0.033672,-1.0076,-0.17122,-0.24668,0.34888
-0,0,0,5,5,5,5,2.5976,0.223284,66.1891,0.00209966,0.000555402,0.00222343,0,0,0,3.5175,-0.0175,-1.4,-0.034282,-0.032574,-1.00943,-0.17122,-0.24668,0.34888
-0,0,0,5,5,5,5,2.59726,0.225363,66.2096,0.00206336,0.000549391,0.00222356,0,0,0,3.43,-0.07,-1.225,-0.034282,-0.032574,-1.00943,-0.17122,-0.24668,0.34888
-0,0,0,5,5,5,5,2.59295,0.225697,66.2318,0.000599712,0.00255043,-0.000354973,0,0,0,3.325,0.21,-1.225,-0.035746,-0.0305,-1.01199,-0.1701,-0.24458,0.3493
-0,0,0,5,5,5,5,2.58879,0.226345,66.2538,0.000588397,0.00247791,-0.000351736,0,0,0,3.3425,0.385,-1.2775,-0.035746,-0.0305,-1.01199,-0.1701,-0.24458,0.3493
-0,0,0,5,5,5,5,2.5846,0.226058,66.2756,-0.000257003,0.00252697,0.0022335,0,0,0,3.3775,0.385,-1.33,-0.0366,-0.030378,-1.00943,-0.1701,-0.24458,0.3493
-0,0,0,5,5,5,5,2.58053,0.225796,66.2973,-0.000252421,0.00245593,0.00223673,0,0,0,3.3775,0.385,-1.33,-0.0366,-0.030378,-1.00943,-0.1701,-0.24458,0.3493
-0,0,0,5,5,5,5,2.5835,0.228607,66.315,0.0023712,-0.00140028,0.00420137,0,0,0,3.395,-0.1575,-1.26,-0.033916,-0.034282,-1.00748,-0.1701,-0.24458,0.3493
-0,0,0,5,5,5,5,2.58638,0.23135,66.3325,0.00232333,-0.00135006,0.00419891,0,0,0,3.395,-0.1575,-1.26,-0.033916,-0.034282,-1.00748,-0.1701,-0.24458,0.3493
-0,0,0,5,5,5,5,2.58311,0.227777,66.3539,-0.00283819,0.00189034,0.0069066,0,0,0,3.465,0.07,-1.225,-0.039162,-0.030988,-1.00479,-0.1701,-0.24458,0.3493
-0,0,0,5,5,5,5,2.57994,0.224288,66.3749,-0.0027773,0.00183514,0.00690933,0,0,0,3.465,0.07,-1.225,-0.039162,-0.030988,-1.00479,-0.1701,-0.24458,0.3493
-0,0,0,5,5,5,5,2.57753,0.224088,66.3952,-0.000101127,0.00167088,0.00764893,0,0,0,3.36,0.1575,-1.365,-0.036478,-0.03111,-1.00406,-0.17094,-0.24682,0.34342
-0,0,0,5,5,5,5,2.57155,0.218937,66.4176,-0.00377729,0.00315432,0.00384256,0,0,0,3.36,-0.0175,-1.4175,-0.04026,-0.029524,-1.00784,-0.17094,-0.24682,0.34342
-0,0,0,5,5,5,5,2.56604,0.214053,66.44,-0.00369204,0.00305827,0.00384719,0,0,0,3.5175,0.07,-1.2775,-0.04026,-0.029524,-1.00784,-0.17094,-0.24682,0.34342
-0,0,0,5,5,5,5,2.56644,0.212798,66.4593,-0.00124042,-0.000354268,0.00126504,0,0,0,3.5,0.07,-1.1025,-0.03782,-0.03294,-1.0104,-0.17094,-0.24682,0.34342
-0,0,0,5,5,5,5,2.56665,0.211267,66.4783,-0.00121371,-0.000350629,0.00126498,0,0,0,3.395,-0.105,-1.1025,-0.03782,-0.03294,-1.0104,-0.17094,-0.24682,0.34342
-0,0,0,5,5,5,5,2.56862,0.21392,66.4956,0.00226307,-0.000926964,0.00175506,0,0,0,3.3775,-0.07,-1.1025,-0.034282,-0.03355,-1.00992,-0.17094,-0.24682,0.34342
-0,0,0,5,5,5,5,2.57099,0.216453,66.5127,0.00221888,-0.000885631,0.00175304,0,0,0,3.64,-0.105,-1.1025,-0.034282,-0.03355,-1.00992,-0.17094,-0.24682,0.34342
-0,0,0,5,5,5,5,2.57213,0.220366,66.5297,0.00348692,0.000111274,0.00679278,0,0,0,3.4825,-0.0525,-1.085,-0.03294,-0.032574,-1.00491,-0.17094,-0.24682,0.34342
-0,0,0,5,5,5,5,2.57328,0.223805,66.5477,0.0034269,0.000131253,0.00679164,0,0,0,3.5175,-0.28,-1.085,-0.03294,-0.032574,-1.00491,-0.16912,-0.24528,0.34748
-0,0,0,5,5,5,5,2.57183,0.224698,66.5668,0.00134606,0.00108304,0.0039649,0,0,0,3.325,-0.21,-1.155,-0.035014,-0.031598,-1.00772,-0.16912,-0.24528,0.34748
-0,0,0,5,5,5,5,2.57083,0.226082,66.5857,0.0013219,0.00106553,0.00396559,0,0,0,3.5525,0.0875,-1.1025,-0.035014,-0.031598,-1.00772,-0.16912,-0.24528,0.34748
-0,0,0,5,5,5,5,2.5758,0.22933,66.6015,0.00211562,-0.00263361,0.00187134,0,0,0,3.535,0.1225,-1.19,-0.03416,-0.03538,-1.00979,-0.16912,-0.24528,0.34748
-0,0,0,5,5,5,5,2.58113,0.232174,66.6168,0.00206597,-0.00254075,0.00186696,0,0,0,3.815,-0.07,-1.33,-0.03416,-0.03538,-1.00979,-0.16912,-0.24528,0.34748
-0,0,0,5,5,5,5,2.58281,0.232213,66.6337,-0.000242931,-0.000801658,0.00260333,0,0,0,3.6225,0.07,-1.365,-0.036478,-0.033672,-1.00906,-0.16912,-0.24528,0.34748
-0,0,0,5,5,5,5,2.58395,0.232264,66.6507,-0.000243823,-0.000781843,0.00260243,0,0,0,3.3425,0.0875,-1.2425,-0.036478,-0.033672,-1.00906,-0.16912,-0.24528,0.34748
-0,0,0,5,5,5,5,2.58451,0.236319,66.6669,0.00369444,8.27536e-05,0.00174106,0,0,0,3.325,-0.0525,-1.26,-0.032452,-0.032818,-1.00992,-0.16912,-0.24528,0.34748
-0,0,0,5,5,5,5,2.5853,0.240274,66.6808,0.00362541,9.65669e-05,0.00174015,0,0,0,3.465,-0.07,-1.33,-0.032452,-0.032818,-1.00992,-0.17276,-0.2492,0.3423
-0,0,0,5,5,5,5,2.5856,0.242895,66.6951,0.00212183,0.000468128,0.00579702,0,0,0,3.5525,0.1575,-1.33,-0.033916,-0.032452,-1.00589,-0.17276,-0.2492,0.3423
-0,0,0,5,5,5,5,2.58625,0.245647,66.7092,0.0020738,0.00047951,0.0057963,0,0,0,3.7625,0.2625,-1.3825,-0.033916,-0.032452,-1.00589,-0.17276,-0.2492,0.3423
-0,0,0,5,5,5,5,2.58389,0.244563,66.7248,-0.00082294,0.00153753,0.000142611,0,0,0,3.6575,0.1575,-1.4875,-0.036844,-0.031354,-1.0115,-0.17276,-0.2492,0.3423
-0,0,0,5,5,5,5,2.5812,0.24297,66.7403,-0.000795126,0.00149056,0.000144849,0,0,0,3.43,-0.1575,-1.435,-0.036844,-0.031354,-1.0115,-0.17276,-0.2492,0.3423
-0,0,0,5,5,5,5,2.57757,0.241719,66.7559,-0.00053032,0.00228219,0.0037133,0,0,0,3.4475,-0.0525,-1.4875,-0.0366,-0.0305,-1.00796,-0.17276,-0.2492,0.3423
-0,0,0,5,5,5,5,2.57402,0.240243,66.7719,-0.00050457,0.00222026,0.00371619,0,0,0,3.43,-0.1925,-1.155,-0.0366,-0.0305,-1.00796,-0.17276,-0.2492,0.3423
-0,0,0,5,5,5,5,2.5796,0.244449,66.7829,0.00343105,-0.00268961,0.00506393,0,0,0,3.5,-0.2275,-1.155,-0.032574,-0.035502,-1.00662,-0.17276,-0.2492,0.3423
-0,0,0,5,5,5,5,2.5847,0.249204,66.796,0.00334806,-0.00260071,0.00505957,0,0,0,3.3425,0.1575,-1.3125,-0.032574,-0.035502,-1.00662,-0.16926,-0.2464,0.34678
-0,0,0,5,5,5,5,2.58051,0.247385,66.8142,-0.00135813,0.00245565,0.00358761,0,0,0,3.395,0.1925,-1.26,-0.037332,-0.030378,-1.00809,-0.16926,-0.2464,0.34678
-0,0,0,5,5,5,5,2.57667,0.245512,66.832,-0.00132545,0.00238859,0.00359077,0,0,0,3.5175,0.1225,-1.4175,-0.037332,-0.030378,-1.00809,-0.16926,-0.2464,0.34678
-0,0,0,5,5,5,5,2.57896,0.247125,66.8463,0.00119761,-0.00111319,0.00174463,0,0,0,3.535,0,-1.4,-0.03477,-0.033916,-1.00992,-0.16926,-0.2464,0.34678
-0,0,0,5,5,5,5,2.58171,0.248921,66.8608,0.00116625,-0.00106522,0.00174233,0,0,0,3.8325,0.14,-1.225,-0.03477,-0.033916,-1.00992,-0.16926,-0.2464,0.34678
-0,0,0,5,5,5,5,2.58772,0.254815,66.8729,0.00470796,-0.00205965,0.00985175,0,0,0,3.9375,-0.0525,-1.2075,-0.03111,-0.035014,-1.00186,-0.16926,-0.2464,0.34678
-0,0,0,5,5,5,5,2.59319,0.260845,66.8847,0.00460272,-0.00196421,0.00984696,0,0,0,3.745,0.105,-1.3125,-0.03111,-0.035014,-1.00186,-0.16926,-0.2464,0.34678
-0,0,0,5,5,5,5,2.59757,0.259954,66.8982,-0.00145601,-0.00225419,0.0108272,0,0,0,3.6225,0.0525,-1.2075,-0.03721,-0.03538,-1.00089,-0.16926,-0.2464,0.34678
-0,0,0,5,5,5,5,2.60194,0.259253,66.9158,-0.00144379,-0.00217798,0.0108238,0,0,0,3.675,0.1575,-1.295,-0.03721,-0.03538,-1.00089,-0.1673,-0.24934,0.34566
-0,0,0,5,5,5,5,2.60349,0.261298,66.9339,0.00143619,-0.00044129,0.00209302,0,0,0,3.675,0.1925,-1.2775,-0.034282,-0.033672,-1.00955,-0.1673,-0.24934,0.34566
-0,0,0,5,5,5,5,2.60445,0.263234,66.9518,0.0014024,-0.000424499,0.0020921,0,0,0,3.3775,0.1575,-1.2425,-0.034282,-0.033672,-1.00955,-0.1673,-0.24934,0.34566
-0,0,0,5,5,5,5,2.60665,0.26063,66.9697,-0.00304713,-0.00209593,0.000123392,0,0,0,3.22,0.21,-1.295,-0.038796,-0.03538,-1.0115,-0.1673,-0.24934,0.34566
-0,0,0,5,5,5,5,2.60883,0.258007,66.9873,-0.00300135,-0.00205792,0.000121868,0,0,0,3.2375,0.175,-1.2775,-0.038796,-0.03538,-1.0115,-0.1673,-0.24934,0.34566
-0,0,0,5,5,5,5,2.60555,0.252972,67.0074,-0.00437131,0.00118234,-0.00159642,0,0,0,3.3425,0.14,-1.3825,-0.04026,-0.032086,-1.01321,-0.1673,-0.24934,0.34566
-0,0,0,5,5,5,5,2.60257,0.247853,67.0277,-0.00428196,0.00113037,-0.00159366,0,0,0,3.4475,0.035,-1.155,-0.04026,-0.032086,-1.01321,-0.1673,-0.24934,0.34566
-0,0,0,5,5,5,5,2.60233,0.247652,67.0455,-2.64527e-05,0.000393545,0.00688998,0,0,0,3.43,-0.07,-1.2075,-0.03599,-0.032818,-1.00479,-0.1673,-0.24934,0.34566
-0,0,0,5,5,5,5,2.60198,0.247455,67.0632,-2.30093e-05,0.00038743,0.00689028,0,0,0,3.36,-0.07,-1.19,-0.03599,-0.032818,-1.00479,-0.1673,-0.24934,0.34566
-0,0,0,5,5,5,5,2.60462,0.245567,67.0712,-0.00205531,-0.00188693,0.00430641,0,0,0,3.36,-0.0175,-1.2075,-0.038064,-0.035136,-1.00735,-0.17206,-0.2457,0.34566
-0,0,0,5,5,5,5,2.60657,0.245751,67.079,6.73566e-06,-0.00136446,-0.000121298,0,0,0,3.36,-0.0525,-1.2075,-0.03599,-0.034648,-1.01175,-0.17206,-0.2457,0.34566
-0,0,0,5,5,5,5,2.60515,0.245026,67.0884,-0.000831018,0.00093116,0.00725679,0,0,0,3.3425,0.2275,-1.19,-0.036844,-0.03233,-1.00443,-0.17206,-0.2457,0.34566
-0,0,0,5,5,5,5,2.60816,0.247462,67.0954,0.0014347,-0.00182522,-0.00442589,0,0,0,3.535,0.2975,-1.2075,-0.034526,-0.035136,-1.01602,-0.17206,-0.2457,0.34566
-0,0,0,5,5,5,5,2.61137,0.249627,67.1023,0.00139691,-0.00176939,-0.0044286,0,0,0,3.6925,0.175,-1.19,-0.034526,-0.035136,-1.01602,-0.17206,-0.2457,0.34566
-0,0,0,5,5,5,5,2.61035,0.247392,67.1115,-0.00208717,0.000411158,0.00233455,0,0,0,3.465,0.14,-1.225,-0.038064,-0.03294,-1.00931,-0.17206,-0.2457,0.34566
-0,0,0,5,5,5,5,2.60959,0.245031,67.1204,-0.00204597,0.000397862,0.00233533,0,0,0,3.5875,0.035,-1.295,-0.038064,-0.03294,-1.00931,-0.17206,-0.2457,0.34566
-0,0,0,5,5,5,5,2.61269,0.245987,67.127,0.000610033,-0.00186844,-0.00406053,0,0,0,3.64,-0.035,-1.295,-0.03538,-0.035258,-1.01565,-0.17206,-0.2457,0.34566
-0,0,0,5,5,5,5,2.6142,0.245314,67.1387,-0.000593078,-0.000742913,0.00786432,0,0,0,3.4125,-0.14,-1.155,-0.0366,-0.03416,-1.00382,-0.17038,-0.24892,0.34776
-0,0,0,5,5,5,5,2.61359,0.242595,67.1515,-0.00212493,-0.000142993,0.000979897,0,0,0,3.255,-0.175,-1.0325,-0.038186,-0.03355,-1.01065,-0.17038,-0.24892,0.34776
-0,0,0,5,5,5,5,2.61369,0.240156,67.1639,-0.00208237,-0.000141286,0.000979999,0,0,0,3.64,-0.0525,-1.2425,-0.038186,-0.03355,-1.01065,-0.17038,-0.24892,0.34776
-0,0,0,5,5,5,5,2.61275,0.239277,67.1762,-0.000730675,0.000819359,0.00270209,0,0,0,3.675,0.0875,-1.3125,-0.036844,-0.032574,-1.00894,-0.17038,-0.24892,0.34776
-0,0,0,5,5,5,5,2.61193,0.238185,67.1883,-0.000711619,0.000805121,0.00270282,0,0,0,3.7275,-0.0525,-1.3825,-0.036844,-0.032574,-1.00894,-0.17038,-0.24892,0.34776
-0,0,0,5,5,5,5,2.61256,0.240955,67.1989,0.00276312,0.000327632,0.00233327,0,0,0,3.675,-0.14,-1.365,-0.033306,-0.033062,-1.00931,-0.17038,-0.24892,0.34776
-0,0,0,5,5,5,5,2.61307,0.244098,67.2097,0.00270826,0.000336561,0.00233263,0,0,0,3.6225,0.1225,-1.1375,-0.033306,-0.033062,-1.00931,-0.17038,-0.24892,0.34776
-0,0,0,5,5,5,5,2.61018,0.242388,67.2225,-0.00114943,0.00162955,-0.00196814,0,0,0,3.5525,0.035,-1.225,-0.03721,-0.03172,-1.01358,-0.17038,-0.24892,0.34776
-0,0,0,5,5,5,5,2.60706,0.24055,67.2271,-0.00111736,0.00157518,-0.00196553,0,0,0,3.3775,-0.07,-1.3125,-0.03721,-0.03172,-1.01358,-0.17528,-0.2464,0.35028
-0,0,0,5,5,5,5,2.60537,0.238869,67.2313,-0.0012095,0.000812849,0.00209324,0,0,0,3.3425,-0.0525,-1.1725,-0.037332,-0.032452,-1.00955,-0.17528,-0.2464,0.35028
-0,0,0,5,5,5,5,2.60369,0.237621,67.2353,-0.00118771,0.000783642,0.00209466,0,0,0,3.325,0.175,-1.2425,-0.037332,-0.032452,-1.00955,-0.17528,-0.2464,0.35028
-0,0,0,5,5,5,5,2.60426,0.239002,67.2378,0.000974912,-6.13361e-05,0.00504487,0,0,0,3.4125,0.14,-1.3125,-0.035136,-0.033306,-1.00662,-0.17528,-0.2464,0.35028
-0,0,0,5,5,5,5,2.60474,0.240045,67.2398,0.000956723,-5.29097e-05,0.00504441,0,0,0,3.3775,-0.0525,-1.54,-0.035136,-0.033306,-1.00662,-0.17528,-0.2464,0.35028
-0,0,0,5,5,5,5,2.6049,0.243742,67.2416,0.00356488,0.000438219,0.00147851,0,0,0,3.43,-0.105,-1.4875,-0.032452,-0.032818,-1.01016,-0.17528,-0.2464,0.35028
-0,0,0,5,5,5,5,2.6049,0.247477,67.2436,0.00349969,0.000438353,0.00147823,0,0,0,3.36,-0.035,-1.365,-0.032452,-0.032818,-1.01016,-0.17528,-0.2464,0.35028
-0,0,0,5,5,5,5,2.60335,0.250683,67.2465,0.00307928,0.00138834,0.00135626,0,0,0,3.395,0.07,-1.26,-0.032818,-0.031842,-1.01028,-0.17528,-0.2464,0.35028
-0,0,0,5,5,5,5,2.60182,0.253414,67.2546,0.00303161,0.00136153,0.00135727,0,0,0,3.395,-0.175,-1.33,-0.032818,-0.031842,-1.01028,-0.1701,-0.24444,0.35224
-0,0,0,5,5,5,5,2.60166,0.253129,67.2627,-5.4991e-07,0.000259578,0.00529177,0,0,0,3.4125,-0.14,-1.2075,-0.035868,-0.03294,-1.00638,-0.1701,-0.24444,0.35224
-0,0,0,5,5,5,5,2.60175,0.25279,67.2708,5.36629e-06,0.000261211,0.00529173,0,0,0,3.5525,-0.175,-1.2075,-0.035868,-0.03294,-1.00638,-0.1701,-0.24444,0.35224
-0,0,0,5,5,5,5,2.60426,0.250578,67.2781,-0.00189981,-0.00116046,0.0105767,0,0,0,3.6575,-0.2625,-1.2425,-0.03782,-0.034404,-1.00113,-0.1701,-0.24444,0.35224
-0,0,0,5,5,5,5,2.60684,0.248854,67.2851,-0.00186971,-0.00111548,0.0105748,0,0,0,3.7275,0,-1.33,-0.03782,-0.034404,-1.00113,-0.1701,-0.24444,0.35224
-0,0,0,5,5,5,5,2.61164,0.24904,67.2909,-0.000415127,-0.00237528,0.00872672,0,0,0,3.7275,0,-1.2775,-0.036356,-0.035746,-1.00296,-0.1701,-0.24444,0.35224
-0,0,0,5,5,5,5,2.61608,0.249474,67.2965,-0.000422706,-0.00229777,0.00872315,0,0,0,3.605,0.1575,-1.3125,-0.036356,-0.035746,-1.00296,-0.1701,-0.24444,0.35224
-0,0,0,5,5,5,5,2.61587,0.247824,67.3044,-0.00148728,1.88227e-05,0.00306782,0,0,0,3.4475,0.0175,-1.2425,-0.037454,-0.033428,-1.00857,-0.1701,-0.24444,0.35224
-0,0,0,5,5,5,5,2.61547,0.246246,67.3135,-0.00145974,1.19989e-05,0.00306825,0,0,0,3.3425,0.0525,-0.98,-0.037454,-0.033428,-1.00857,-0.16968,-0.24486,0.34944
-0,0,0,5,5,5,5,2.61458,0.2455,67.3225,-0.000596323,0.000607003,0.00552799,0,0,0,3.3775,0.035,-0.9975,-0.0366,-0.032818,-1.00613,-0.16968,-0.24486,0.34944
-0,0,0,5,5,5,5,2.61374,0.244791,67.3311,-0.000583949,0.000592359,0.00552871,0,0,0,3.395,0.035,-1.2425,-0.0366,-0.032818,-1.00613,-0.16968,-0.24486,0.34944
-0,0,0,5,5,5,5,2.61516,0.242396,67.3389,-0.00224295,-0.00133685,-0.00234095,0,0,0,3.4825,-0.07,-1.225,-0.038308,-0.03477,-1.01394,-0.16968,-0.24486,0.34944
-0,0,0,5,5,5,5,2.61658,0.239862,67.3467,-0.00219871,-0.00131201,-0.0023419,0,0,0,3.5,-0.175,-1.2075,-0.038308,-0.03477,-1.01394,-0.16968,-0.24486,0.34944
-0,0,0,5,5,5,5,2.61722,0.241518,67.3538,0.00153844,-7.97289e-05,0.0042967,0,0,0,3.395,-0.0525,-1.26,-0.034526,-0.03355,-1.00735,-0.16968,-0.24486,0.34944
-0,0,0,5,5,5,5,2.61786,0.243472,67.3608,0.00150433,-6.85905e-05,0.00429604,0,0,0,3.4125,0.14,-1.3125,-0.034526,-0.03355,-1.00735,-0.16968,-0.24486,0.34944
-0,0,0,5,5,5,5,2.61837,0.245752,67.3675,0.001829,-5.96785e-05,0.00392662,0,0,0,3.325,0.1225,-1.3475,-0.03416,-0.03355,-1.00772,-0.16968,-0.24486,0.34944
-0,0,0,5,5,5,5,2.61889,0.247796,67.3717,0.00179332,-5.05865e-05,0.00392605,0,0,0,3.3425,0.0175,-1.2075,-0.03416,-0.03355,-1.00772,-0.16968,-0.24066,0.35
-0,0,0,5,5,5,5,2.61549,0.243384,67.3787,-0.00359653,0.00159997,0.00233076,0,0,0,3.3775,0,-1.26,-0.03965,-0.031842,-1.00931,-0.16968,-0.24066,0.35
-0,0,0,5,5,5,5,2.61236,0.239314,67.3854,-0.0035255,0.00154536,0.00233355,0,0,0,3.465,0.14,-1.33,-0.03965,-0.031842,-1.00931,-0.16968,-0.24066,0.35
-0,0,0,5,5,5,5,2.61065,0.240452,67.3905,0.00131407,0.00114926,0.000121749,0,0,0,3.3775,0,-1.3125,-0.03477,-0.032208,-1.0115,-0.16968,-0.24066,0.35
-0,0,0,5,5,5,5,2.60912,0.241473,67.3958,0.00129624,0.00112246,0.000122895,0,0,0,3.4475,-0.0525,-1.155,-0.03477,-0.032208,-1.0115,-0.16968,-0.24066,0.35
-0,0,0,5,5,5,5,2.60701,0.241208,67.4016,0.000207507,0.00145205,0.00246061,0,0,0,3.465,-0.07,-1.1025,-0.035868,-0.031842,-1.00918,-0.16968,-0.24066,0.35
-0,0,0,5,5,5,5,2.6048,0.240755,67.4072,0.000215412,0.00141353,0.0024624,0,0,0,3.3775,-0.1925,-1.2075,-0.035868,-0.031842,-1.00918,-0.16968,-0.24066,0.35
-0,0,0,5,5,5,5,2.60262,0.23598,67.4134,-0.00395325,0.000764888,0.00332511,0,0,0,3.325,-0.105,-1.295,-0.040138,-0.032452,-1.00833,-0.16968,-0.24066,0.35
-0,0,0,5,5,5,5,2.60092,0.23158,67.4193,-0.00387646,0.000735293,0.00332677,0,0,0,3.5525,0.0525,-1.3825,-0.040138,-0.032452,-1.00833,-0.16968,-0.24066,0.35
-0,0,0,5,5,5,5,2.60085,0.228397,67.4258,-0.00297051,1.41736e-06,0.00554012,0,0,0,3.605,0.0525,-1.435,-0.039284,-0.033184,-1.00613,-0.168,-0.23968,0.3493
-0,0,0,5,5,5,5,2.59825,0.228078,67.4328,7.22124e-05,0.0014216,-0.00294125,0,0,0,3.395,0.0175,-1.33,-0.036234,-0.03172,-1.01455,-0.168,-0.23968,0.3493
-0,0,0,5,5,5,5,2.59601,0.227836,67.4397,7.6438e-05,0.0013824,-0.00293945,0,0,0,3.5525,0.0525,-1.3475,-0.036234,-0.03172,-1.01455,-0.168,-0.23968,0.3493
-0,0,0,5,5,5,5,2.59109,0.224497,67.4483,-0.00217353,0.00312858,0.000138374,0,0,0,3.7625,-0.0875,-1.4,-0.038552,-0.02989,-1.0115,-0.168,-0.23968,0.3493
-0,0,0,5,5,5,5,2.58604,0.220867,67.4572,-0.00211017,0.00304051,0.000142602,0,0,0,3.605,-0.2975,-1.1725,-0.038552,-0.02989,-1.0115,-0.168,-0.23968,0.3493
-0,0,0,5,5,5,5,2.58495,0.214523,67.4649,-0.00540104,-0.000153707,-0.00305278,0,0,0,3.5525,-0.175,-1.1725,-0.041968,-0.033062,-1.01467,-0.168,-0.23968,0.3493
-0,0,0,5,5,5,5,2.58395,0.208455,67.4724,-0.00529514,-0.000171158,-0.0030516,0,0,0,3.57,-0.0875,-1.19,-0.041968,-0.033062,-1.01467,-0.168,-0.23968,0.3493
-0,0,0,5,5,5,5,2.58882,0.21258,67.4757,0.00313687,-0.00228442,0.0086244,0,0,0,3.43,0.0175,-1.05,-0.033428,-0.035258,-1.00308,-0.168,-0.23968,0.3493
-0,0,0,5,5,5,5,2.59368,0.217072,67.4761,0.00305847,-0.00219982,0.00862027,0,0,0,3.4825,0.28,-1.12,-0.033428,-0.035258,-1.00308,-0.17234,-0.24402,0.34636
-0,0,0,5,5,5,5,2.58868,0.213226,67.482,-0.00319167,0.00284231,-0.000227819,0,0,0,3.6225,0.245,-1.2425,-0.039772,-0.030134,-1.01187,-0.17234,-0.24402,0.34636
-0,0,0,5,5,5,5,2.58417,0.209143,67.488,-0.00312041,0.00276373,-0.000224006,0,0,0,3.815,0.0525,-1.2075,-0.039772,-0.030134,-1.01187,-0.17234,-0.24402,0.34636
-0,0,0,5,5,5,5,2.5897,0.214943,67.4878,0.00479642,-0.00251339,0.000877797,0,0,0,3.6925,-0.035,-1.155,-0.03172,-0.035502,-1.01077,-0.17234,-0.24402,0.34636
-0,0,0,5,5,5,5,2.59475,0.220497,67.4875,0.00469949,-0.00242537,0.000873443,0,0,0,3.5175,-0.105,-1.225,-0.03172,-0.035502,-1.01077,-0.17234,-0.24402,0.34636
-0,0,0,5,5,5,5,2.59181,0.222847,67.4911,0.0027147,0.00204206,-0.00490297,0,0,0,3.4825,-0.0175,-1.225,-0.033672,-0.030988,-1.0165,-0.17234,-0.24402,0.34636
-0,0,0,5,5,5,5,2.58916,0.225236,67.4944,0.00267302,0.00199581,-0.00490104,0,0,0,3.605,0.0175,-1.3825,-0.033672,-0.030988,-1.0165,-0.17234,-0.24402,0.34636
-0,0,0,5,5,5,5,2.58938,0.223138,67.4974,-0.00202832,-0.000442957,-0.00182736,0,0,0,3.5525,0.07,-1.3125,-0.03843,-0.033428,-1.01345,-0.17234,-0.24402,0.34636
-0,0,0,5,5,5,5,2.5895,0.221135,67.5,-0.00199337,-0.000440748,-0.00182732,0,0,0,3.5,0.105,-1.2425,-0.03843,-0.033428,-1.01345,-0.17234,-0.2436,0.35448
-0,0,0,5,5,5,5,2.59274,0.224052,67.5005,0.00232921,-0.00123918,0.00628452,0,0,0,3.64,0,-1.225,-0.034038,-0.034282,-1.0054,-0.17234,-0.2436,0.35448
-0,0,0,5,5,5,5,2.59566,0.227406,67.5009,0.00227067,-0.00118824,0.00628199,0,0,0,3.5175,0.2975,-1.2075,-0.034038,-0.034282,-1.0054,-0.17234,-0.2436,0.35448
-0,0,0,5,5,5,5,2.59455,0.229597,67.5031,0.0017465,0.000868485,0.00197952,0,0,0,3.325,0.28,-1.2775,-0.034526,-0.032208,-1.00967,-0.17234,-0.2436,0.35448
-0,0,0,5,5,5,5,2.59355,0.231576,67.505,0.00171195,0.000851052,0.00198017,0,0,0,3.3775,0.175,-1.3475,-0.034526,-0.032208,-1.00967,-0.17234,-0.2436,0.35448
-0,0,0,5,5,5,5,2.5965,0.23376,67.5052,0.00143086,-0.00141799,0.00443665,0,0,0,3.5175,0.14,-1.4175,-0.03477,-0.034526,-1.00723,-0.17234,-0.2436,0.35448
-0,0,0,5,5,5,5,2.59929,0.235704,67.5056,0.00139694,-0.00136923,0.0044343,0,0,0,3.4825,0.035,-1.3125,-0.03477,-0.034526,-1.00723,-0.17234,-0.2436,0.35448
-0,0,0,5,5,5,5,2.59732,0.236868,67.5082,0.00137662,0.00140521,-0.00208049,0,0,0,3.5175,0.035,-1.2775,-0.03477,-0.03172,-1.0137,-0.17234,-0.2436,0.35448
-0,0,0,5,5,5,5,2.59515,0.237532,67.5177,0.00136503,0.0013675,-0.00207882,0,0,0,3.395,-0.245,-1.26,-0.03477,-0.03172,-1.0137,-0.16744,-0.24444,0.3444
-0,0,0,5,5,5,5,2.59772,0.23907,67.5251,0.00133819,-0.000908216,0.012427,0,0,0,3.43,-0.175,-1.2425,-0.03477,-0.034038,-0.999302,-0.16744,-0.24444,0.3444
-0,0,0,5,5,5,5,2.60005,0.241073,67.5325,0.00130324,-0.000867543,0.012425,0,0,0,3.3425,0.1225,-1.2075,-0.03477,-0.034038,-0.999302,-0.16744,-0.24444,0.3444
-0,0,0,5,5,5,5,2.60005,0.241918,67.541,0.000681055,-1.26322e-05,0.0043103,0,0,0,3.22,0.0525,-1.155,-0.03538,-0.033184,-1.00735,-0.16744,-0.24444,0.3444
-0,0,0,5,5,5,5,2.60077,0.242633,67.5492,0.000668569,-1.5833e-07,0.00430968,0,0,0,3.6225,-0.0175,-1.225,-0.03538,-0.033184,-1.00735,-0.16744,-0.24444,0.3444
-0,0,0,5,5,5,5,2.59508,0.24169,67.5604,0.000199084,0.00356448,-0.00552163,0,0,0,3.6225,-0.105,-1.19,-0.035868,-0.029524,-1.01711,-0.16744,-0.24444,0.3444
-0,0,0,5,5,5,5,2.58936,0.240966,67.5715,0.000211732,0.00346478,-0.00551706,0,0,0,3.5175,0,-1.1725,-0.035868,-0.029524,-1.01711,-0.16744,-0.24444,0.3444
-0,0,0,5,5,5,5,2.58647,0.236354,67.5819,-0.00383829,0.00121606,-0.00428496,0,0,0,3.5875,0,-1.26,-0.040016,-0.03172,-1.01589,-0.16744,-0.24444,0.3444
-0,0,0,5,5,5,5,2.58359,0.231827,67.5878,-0.00375928,0.00116599,-0.00428238,0,0,0,3.5525,0,-1.1375,-0.040016,-0.03172,-1.01589,-0.17066,-0.2436,0.34524
-0,0,0,5,5,5,5,2.58162,0.228337,67.5932,-0.00296946,0.000643087,-0.00206751,0,0,0,3.4125,0.0175,-1.05,-0.039284,-0.032208,-1.0137,-0.17066,-0.2436,0.34524
-0,0,0,5,5,5,5,2.57993,0.225049,67.5983,-0.00291206,0.000613645,-0.00206595,0,0,0,3.535,0.0875,-1.155,-0.039284,-0.032208,-1.0137,-0.17066,-0.2436,0.34524
-0,0,0,5,5,5,5,2.58295,0.228056,67.6003,0.00213785,-0.00116557,0.00813619,0,0,0,3.535,0.175,-1.155,-0.03416,-0.034038,-1.00357,-0.17066,-0.2436,0.34524
-0,0,0,5,5,5,5,2.58591,0.230884,67.6021,0.00208849,-0.00111397,0.00813366,0,0,0,3.5525,0.105,-1.2775,-0.03416,-0.034038,-1.00357,-0.17066,-0.2436,0.34524
-0,0,0,5,5,5,5,2.58844,0.22842,67.6047,-0.00260646,-0.002047,0.00100083,0,0,0,3.395,-0.0175,-1.3125,-0.038918,-0.035014,-1.01065,-0.17066,-0.2436,0.34524
-0,0,0,5,5,5,5,2.59065,0.226355,67.6072,-0.0025704,-0.00200839,0.000999232,0,0,0,3.255,0.1925,-1.3475,-0.038918,-0.035014,-1.01065,-0.17066,-0.2436,0.34524
-0,0,0,5,5,5,5,2.59261,0.227202,67.6094,0.000330464,-0.00124147,0.00480903,0,0,0,3.255,0.105,-1.225,-0.03599,-0.034282,-1.00687,-0.17066,-0.2436,0.34524
-0,0,0,5,5,5,5,2.59489,0.227964,67.6117,0.000317174,-0.00120174,0.00480718,0,0,0,3.465,0.07,-1.19,-0.03599,-0.034282,-1.00687,-0.17066,-0.2436,0.34524
-0,0,0,5,5,5,5,2.5969,0.229684,67.6147,0.00113755,-0.000800352,0.00800213,0,0,0,3.43,0.1225,-1.225,-0.035136,-0.033916,-1.00369,-0.17038,-0.24458,0.34622
-0,0,0,5,5,5,5,2.59903,0.23109,67.6178,0.00111301,-0.000763123,0.00800034,0,0,0,3.535,-0.035,-1.155,-0.035136,-0.033916,-1.00369,-0.17038,-0.24458,0.34622
-0,0,0,5,5,5,5,2.59633,0.229259,67.6234,-0.00128475,0.00175444,0.00369941,0,0,0,3.535,0,-1.2425,-0.037576,-0.031354,-1.00796,-0.17038,-0.24458,0.34622
-0,0,0,5,5,5,5,2.59371,0.227474,67.6289,-0.0012536,0.00170872,0.00370161,0,0,0,3.535,0,-1.2425,-0.037576,-0.031354,-1.00796,-0.17038,-0.24458,0.34622
-0,0,0,5,5,5,5,2.59518,0.230167,67.6313,0.00222249,-0.000341797,0.00505269,0,0,0,3.5175,0.07,-1.5225,-0.034038,-0.033428,-1.00662,-0.17038,-0.24458,0.34622
-0,0,0,5,5,5,5,2.5966,0.232803,67.6338,0.00217648,-0.00031702,0.00505138,0,0,0,3.5175,0.07,-1.5225,-0.034038,-0.033428,-1.00662,-0.17038,-0.24458,0.34622
-0,0,0,5,5,5,5,2.59711,0.236257,67.6365,0.00284511,0.000546765,0.00910803,0,0,0,3.5175,0.1925,-1.47,-0.033306,-0.032574,-1.0026,-0.17038,-0.24458,0.34622
-0,0,0,5,5,5,5,2.5976,0.239645,67.6392,0.00278599,0.000555195,0.0091074,0,0,0,3.5175,0.1925,-1.47,-0.033306,-0.032574,-1.0026,-0.17038,-0.24458,0.34622
-0,0,0,5,5,5,5,2.59555,0.240272,67.6445,0.000102353,0.00137442,-0.00330882,0,0,0,3.6575,0.5425,-1.2425,-0.03599,-0.03172,-1.01492,-0.1708,-0.24612,0.3458
-0,0,0,5,5,5,5,2.60043,0.243758,67.646,0.00174232,-0.00257071,0.00836717,0,0,0,3.3775,0.5075,-1.3125,-0.034282,-0.035746,-1.00333,-0.1708,-0.24612,0.3458
-0,0,0,5,5,5,5,2.60516,0.247188,67.6474,0.00168245,-0.00248817,0.00836316,0,0,0,3.3775,0.525,-1.3125,-0.034282,-0.035746,-1.00333,-0.1708,-0.24612,0.3458
-0,0,0,5,5,5,5,2.60194,0.243625,67.6535,-0.00372222,0.00124155,-0.0014699,0,0,0,3.3075,0.5075,-1.26,-0.039772,-0.031964,-1.01309,-0.1708,-0.24612,0.3458
-0,0,0,5,5,5,5,2.59885,0.239547,67.6594,-0.00365104,0.00118764,-0.00146715,0,0,0,3.325,0.1575,-1.2775,-0.039772,-0.031964,-1.01309,-0.1708,-0.24612,0.3458
-0,0,0,5,5,5,5,2.5961,0.239433,67.6645,-4.48691e-06,0.00175034,0.00369887,0,0,0,3.3425,0.175,-1.2425,-0.036112,-0.031354,-1.00796,-0.1708,-0.24612,0.3458
-0,0,0,5,5,5,5,2.59327,0.239652,67.6698,-8.31615e-06,0.001701,0.00370109,0,0,0,3.255,0.3675,-1.1375,-0.036112,-0.031354,-1.00796,-0.1708,-0.24612,0.3458
-0,0,0,5,5,5,5,2.59406,0.241028,67.6729,0.00093956,-0.000361295,0.00468395,0,0,0,3.3075,0.14,-1.295,-0.035136,-0.033428,-1.00699,-0.1708,-0.24612,0.3458
-0,0,0,5,5,5,5,2.59508,0.242219,67.6795,0.00091877,-0.000343621,0.00468306,0,0,0,3.4475,0.0525,-1.2425,-0.035136,-0.033428,-1.00699,-0.16786,-0.2457,0.34846
-0,0,0,5,5,5,5,2.59487,0.240732,67.687,-0.00148499,-0.000102887,-0.0012182,0,0,0,3.5175,0.105,-1.3125,-0.037576,-0.033184,-1.01284,-0.16786,-0.2457,0.34846
-0,0,0,5,5,5,5,2.59459,0.238878,67.6945,-0.00145263,-0.000107836,-0.00121784,0,0,0,3.465,-0.1225,-1.2075,-0.037576,-0.033184,-1.01284,-0.16786,-0.2457,0.34846
-0,0,0,5,5,5,5,2.59674,0.235255,67.7013,-0.00357613,-0.00178009,0.00197738,0,0,0,3.5,-0.0525,-1.2425,-0.039772,-0.034892,-1.00967,-0.16786,-0.2457,0.34846
-0,0,0,5,5,5,5,2.59866,0.232044,67.7081,-0.0035201,-0.0017466,0.00197609,0,0,0,3.395,0.1575,-1.1725,-0.039772,-0.034892,-1.00967,-0.16786,-0.2457,0.34846
-0,0,0,5,5,5,5,2.59639,0.229619,67.7165,-0.00226292,0.00126704,1.08809e-05,0,0,0,3.605,0.2275,-1.26,-0.038552,-0.031842,-1.01162,-0.16786,-0.2457,0.34846
-0,0,0,5,5,5,5,2.5942,0.227164,67.7247,-0.00222007,0.00122872,1.27889e-05,0,0,0,3.605,0.175,-1.33,-0.038552,-0.031842,-1.01162,-0.16786,-0.2457,0.34846
-0,0,0,5,5,5,5,2.59461,0.230443,67.7306,0.00294658,0.000381101,0.000995819,0,0,0,3.64,0.105,-1.365,-0.033306,-0.032696,-1.01065,-0.16786,-0.2457,0.34846
-0,0,0,5,5,5,5,2.59448,0.233455,67.7351,0.00289401,0.000378702,0.000995714,0,0,0,3.3425,-0.0175,-1.435,-0.033306,-0.032696,-1.01065,-0.16688,-0.24192,0.34986
-0,0,0,5,5,5,5,2.59379,0.232994,67.7407,-0.000499529,0.000122525,-0.00392165,0,0,0,3.43,0.1225,-1.4175,-0.036722,-0.03294,-1.01553,-0.16688,-0.24192,0.34986
-0,0,0,5,5,5,5,2.59344,0.23221,67.7462,-0.000485845,0.0001164,-0.00392132,0,0,0,3.605,-0.07,-1.3475,-0.036722,-0.03294,-1.01553,-0.16688,-0.24192,0.34986
-0,0,0,5,5,5,5,2.59272,0.235158,67.7514,0.00298578,0.00144716,0.00960338,0,0,0,3.5875,-0.0525,-1.2775,-0.033184,-0.031598,-1.00211,-0.16688,-0.24192,0.34986
-0,0,0,5,5,5,5,2.59222,0.238225,67.7566,0.00293225,0.00143849,0.00960355,0,0,0,3.71,0.0525,-1.1725,-0.033184,-0.031598,-1.00211,-0.16688,-0.24192,0.34986
-0,0,0,5,5,5,5,2.59069,0.239218,67.7624,0.000971154,0.00141189,0.00247367,0,0,0,3.64,0.1575,-1.2775,-0.035136,-0.031598,-1.00918,-0.16688,-0.24192,0.34986
-0,0,0,5,5,5,5,2.58908,0.240172,67.7681,0.000954503,0.00138375,0.00247487,0,0,0,3.57,0.14,-1.33,-0.035136,-0.031598,-1.00918,-0.16688,-0.24192,0.34986
-0,0,0,5,5,5,5,2.5877,0.244399,67.7728,0.00391786,0.00148187,0.00407397,0,0,0,3.36,0.1575,-1.3475,-0.032086,-0.031476,-1.0076,-0.16688,-0.24192,0.34986
-0,0,0,5,5,5,5,2.58635,0.248343,67.7766,0.00384903,0.0014583,0.00407474,0,0,0,3.36,0.035,-1.33,-0.032086,-0.031476,-1.0076,-0.16912,-0.24514,0.35308
-0,0,0,5,5,5,5,2.58604,0.25147,67.78,0.00294406,0.000597973,0.000878089,0,0,0,3.43,0.0525,-1.365,-0.03294,-0.03233,-1.01077,-0.16912,-0.24514,0.35308
-0,0,0,5,5,5,5,2.5857,0.254377,67.7837,0.00289332,0.000591951,0.000878137,0,0,0,3.4125,-0.035,-1.2075,-0.03294,-0.03233,-1.01077,-0.16912,-0.24514,0.35308
-0,0,0,5,5,5,5,2.58508,0.253628,67.7881,-0.000495207,9.26771e-05,-0.00686707,0,0,0,3.5525,-0.0175,-1.2425,-0.036356,-0.032818,-1.01846,-0.16912,-0.24514,0.35308
-0,0,0,5,5,5,5,2.58436,0.252684,67.7926,-0.000478729,8.00731e-05,-0.00686643,0,0,0,3.4825,-0.14,-1.2075,-0.036356,-0.032818,-1.01846,-0.16912,-0.24514,0.35308
-0,0,0,5,5,5,5,2.58638,0.255463,67.7953,0.00238842,-0.000739516,0.00432007,0,0,0,3.5,0,-1.1725,-0.033428,-0.033672,-1.00735,-0.16912,-0.24514,0.35308
-0,0,0,5,5,5,5,2.58868,0.258432,67.7977,0.00233661,-0.000699367,0.00431802,0,0,0,3.6925,0.14,-1.3125,-0.033428,-0.033672,-1.00735,-0.16912,-0.24514,0.35308
-0,0,0,5,5,5,5,2.58772,0.25919,67.8021,0.000501093,0.00111565,0.00481052,0,0,0,3.6575,0.2625,-1.1725,-0.035258,-0.031842,-1.00687,-0.16912,-0.24514,0.35308
-0,0,0,5,5,5,5,2.58655,0.259731,67.8075,0.000491656,0.00109538,0.0048114,0,0,0,3.535,0.14,-1.19,-0.035258,-0.031842,-1.00687,-0.16618,-0.2408,0.35112
-0,0,0,5,5,5,5,2.59055,0.261057,67.8108,0.000225529,-0.00188808,0.00689826,0,0,0,3.7625,0.35,-1.1725,-0.035502,-0.034892,-1.00479,-0.16618,-0.2408,0.35112
-0,0,0,5,5,5,5,2.59388,0.261975,67.8142,0.00020951,-0.00183007,0.00689556,0,0,0,3.4475,0.14,-1.0325,-0.035502,-0.034892,-1.00479,-0.16618,-0.2408,0.35112
-0,0,0,5,5,5,5,2.59604,0.265085,67.8173,0.00258494,-0.000815442,0.00664771,0,0,0,3.395,0.035,-1.2075,-0.033062,-0.033916,-1.00504,-0.16618,-0.2408,0.35112
-0,0,0,5,5,5,5,2.59853,0.268289,67.8201,0.00252903,-0.000771969,0.00664548,0,0,0,3.6225,0.1225,-1.3475,-0.033062,-0.033916,-1.00504,-0.16618,-0.2408,0.35112
-0,0,0,5,5,5,5,2.59083,0.265277,67.8284,-0.00203486,0.0045895,-0.00416766,0,0,0,3.5525,0.1925,-1.33,-0.037698,-0.028426,-1.01577,-0.16618,-0.2408,0.35112
-0,0,0,5,5,5,5,2.58375,0.26241,67.8367,-0.00198483,0.00446607,-0.00416185,0,0,0,3.78,0.2275,-1.33,-0.037698,-0.028426,-1.01577,-0.16618,-0.2408,0.35112
-0,0,0,5,5,5,5,2.58447,0.259574,67.8416,-0.00278572,-0.0005286,0.000141005,0,0,0,3.7625,0.07,-1.2425,-0.038552,-0.033428,-1.0115,-0.16618,-0.2408,0.35112
-0,0,0,5,5,5,5,2.58471,0.256453,67.8466,-0.00273125,-0.000524379,0.00014106,0,0,0,3.5,-0.1225,-1.155,-0.038552,-0.033428,-1.0115,-0.16618,-0.2408,0.35112
-0,0,0,5,5,5,5,2.58691,0.256653,67.8441,5.9422e-05,-0.00121877,0.00333597,0,0,0,3.5175,-0.07,-1.12,-0.035746,-0.03416,-1.00833,-0.17136,-0.2415,0.35056
-0,0,0,5,5,5,5,2.58114,0.25765,67.8448,0.00174282,0.00405422,-0.00317584,0,0,0,3.6575,0.07,-1.3125,-0.034038,-0.028792,-1.0148,-0.17136,-0.2415,0.35056
-0,0,0,5,5,5,5,2.57521,0.25874,67.8455,0.00172381,0.00395079,-0.00317126,0,0,0,3.4825,0.1225,-1.3125,-0.034038,-0.028792,-1.0148,-0.17136,-0.2415,0.35056
-0,0,0,5,5,5,5,2.57402,0.256903,67.8448,-0.00164573,0.000266196,-0.00390788,0,0,0,3.4125,0.07,-1.2425,-0.037454,-0.032452,-1.01553,-0.17136,-0.2415,0.35056
-0,0,0,5,5,5,5,2.5728,0.254932,67.8439,-0.00161134,0.000244979,-0.00390677,0,0,0,3.3775,-0.035,-1.33,-0.037454,-0.032452,-1.01553,-0.17136,-0.2415,0.35056
-0,0,0,5,5,5,5,2.57382,0.252758,67.8421,-0.00181636,-0.000836334,0.00211707,0,0,0,3.4825,-0.21,-1.3125,-0.037698,-0.03355,-1.00955,-0.17136,-0.2415,0.35056
-0,0,0,5,5,5,5,2.57492,0.250853,67.8406,-0.00178311,-0.00081719,0.00211636,0,0,0,3.535,-0.07,-1.225,-0.037698,-0.03355,-1.00955,-0.17136,-0.2415,0.35056
-0,0,0,5,5,5,5,2.57325,0.250454,67.84,-0.000318331,0.000863473,-0.00280024,0,0,0,3.4475,0.14,-1.225,-0.036234,-0.031842,-1.01443,-0.17136,-0.2415,0.35056
-0,0,0,5,5,5,5,2.57168,0.250299,67.8451,-0.000315627,0.000836146,-0.002799,0,0,0,3.4825,0.28,-1.1375,-0.036234,-0.031842,-1.01443,-0.16968,-0.2471,0.34664
-0,0,0,5,5,5,5,2.57516,0.249424,67.8482,-0.00139371,-0.00166786,0.0115833,0,0,0,3.675,0.0875,-1.2075,-0.037332,-0.034404,-1.00016,-0.16968,-0.2471,0.34664
-0,0,0,5,5,5,5,2.57821,0.248316,67.8511,-0.00137439,-0.00161474,0.011581,0,0,0,3.4825,-0.0525,-1.26,-0.037332,-0.034404,-1.00016,-0.16968,-0.2471,0.34664
-0,0,0,5,5,5,5,2.5817,0.249433,67.8536,0.000671384,-0.00167602,0.00788973,0,0,0,3.57,-0.035,-1.225,-0.035258,-0.034526,-1.00382,-0.16968,-0.2471,0.34664
-0,0,0,5,5,5,5,2.58475,0.250604,67.856,0.000650935,-0.00162283,0.00788724,0,0,0,3.3775,0.0175,-1.225,-0.035258,-0.034526,-1.00382,-0.16968,-0.2471,0.34664
-0,0,0,5,5,5,5,2.58463,0.253223,67.8592,0.00194157,8.49154e-05,0.00272329,0,0,0,3.15,0.315,-1.295,-0.033916,-0.032818,-1.00894,-0.16968,-0.2471,0.34664
-0,0,0,5,5,5,5,2.58451,0.255831,67.8622,0.00189605,8.27582e-05,0.00272319,0,0,0,3.15,0.3325,-1.4,-0.033916,-0.032818,-1.00894,-0.16968,-0.2471,0.34664
-0,0,0,5,5,5,5,2.58301,0.254938,67.8667,-0.00112549,0.000789373,0.00297033,0,0,0,3.36,0.2975,-1.33,-0.036966,-0.032086,-1.0087,-0.16968,-0.2471,0.34664
-0,0,0,5,5,5,5,2.58178,0.253812,67.8694,-0.00110585,0.000767861,0.00297139,0,0,0,3.4825,0.1575,-1.12,-0.036966,-0.032086,-1.0087,-0.16954,-0.2436,0.34888
-0,0,0,5,5,5,5,2.57945,0.249353,67.873,-0.0038222,0.000727228,0.000145747,0,0,0,3.29,-0.0525,-1.12,-0.039772,-0.032086,-1.0115,-0.16954,-0.2436,0.34888
-0,0,0,5,5,5,5,2.57694,0.245143,67.8764,-0.00374872,0.00068359,0.000148029,0,0,0,3.15,0.035,-1.225,-0.039772,-0.032086,-1.0115,-0.16954,-0.2436,0.34888
-0,0,0,5,5,5,5,2.58058,0.24588,67.8763,0.000368943,-0.00218409,0.00764498,0,0,0,3.2725,-0.1225,-1.2075,-0.035624,-0.035014,-1.00406,-0.16954,-0.2436,0.34888
-0,0,0,5,5,5,5,2.58411,0.246857,67.8762,0.000351888,-0.00212245,0.00764213,0,0,0,3.2725,0.035,-1.2075,-0.035624,-0.035014,-1.00406,-0.16954,-0.2436,0.34888
-0,0,0,5,5,5,5,2.58813,0.246483,67.8761,-0.000977938,-0.00229671,0.00886848,0,0,0,3.5,0.0525,-1.3125,-0.036966,-0.035258,-1.00284,-0.16954,-0.2436,0.34888
-0,0,0,5,5,5,5,2.59194,0.246038,67.8761,-0.000970165,-0.00223017,0.0088655,0,0,0,3.4475,0.0175,-1.26,-0.036966,-0.035258,-1.00284,-0.16954,-0.2436,0.34888
-0,0,0,5,5,5,5,2.58866,0.242689,67.8796,-0.00261252,0.00149855,0.000138995,0,0,0,3.2725,-0.07,-1.155,-0.038674,-0.031476,-1.0115,-0.16954,-0.2436,0.34888
-0,0,0,5,5,5,5,2.58538,0.239715,67.8843,-0.00256061,0.00144144,0.000141794,0,0,0,3.22,0.105,-1.1725,-0.038674,-0.031476,-1.0115,-0.16786,-0.24192,0.34482
-0,0,0,5,5,5,5,2.58973,0.240388,67.885,0.000100334,-0.0027573,0.00431857,0,0,0,3.3425,-0.035,-1.19,-0.03599,-0.035746,-1.00735,-0.16786,-0.24192,0.34482
-0,0,0,5,5,5,5,2.59395,0.241323,67.8859,8.40117e-05,-0.00268364,0.00431517,0,0,0,3.3425,0.14,-1.1025,-0.03599,-0.035746,-1.00735,-0.16786,-0.24192,0.34482
-0,0,0,5,5,5,5,2.59552,0.240203,67.8881,-0.00147575,-0.00106869,0.00874016,0,0,0,3.2725,0.105,-1.1375,-0.037576,-0.03416,-1.00296,-0.16786,-0.24192,0.34482
-0,0,0,5,5,5,5,2.59708,0.238985,67.8901,-0.0014545,-0.00104149,0.00873902,0,0,0,3.29,0.035,-1.225,-0.037576,-0.03416,-1.00296,-0.16786,-0.24192,0.34482
-0,0,0,5,5,5,5,2.59641,0.235485,67.8936,-0.00333718,-0.000442445,-0.00207967,0,0,0,3.2375,0.0525,-1.155,-0.039528,-0.03355,-1.0137,-0.16786,-0.24192,0.34482
-0,0,0,5,5,5,5,2.59603,0.232093,67.8967,-0.00327798,-0.00044916,-0.00207913,0,0,0,3.3775,0.07,-1.295,-0.039528,-0.03355,-1.0137,-0.16786,-0.24192,0.34482
-0,0,0,5,5,5,5,2.59751,0.232343,67.8984,-0.000123722,-0.00066753,0.00677197,0,0,0,3.4825,0.105,-1.3825,-0.036356,-0.033794,-1.00491,-0.16786,-0.24192,0.34482
-0,0,0,5,5,5,5,2.59892,0.232512,67.8982,-0.000126659,-0.000642878,0.00677084,0,0,0,3.465,0.07,-1.225,-0.036356,-0.033794,-1.00491,-0.16856,-0.23982,0.34174
-0,0,0,5,5,5,5,2.59857,0.229181,67.8994,-0.00334865,-0.000160579,0.0035747,0,0,0,3.43,0.1575,-1.155,-0.03965,-0.033306,-1.00809,-0.16856,-0.23982,0.34174
-0,0,0,5,5,5,5,2.59839,0.226285,67.9004,-0.0032981,-0.000163702,0.00357504,0,0,0,3.5175,0.3675,-1.3125,-0.03965,-0.033306,-1.00809,-0.16856,-0.23982,0.34174
-0,0,0,5,5,5,5,2.59903,0.227254,67.9004,0.000329556,-0.000152528,0.00382036,0,0,0,3.5175,0.3325,-1.295,-0.03599,-0.033306,-1.00784,-0.16856,-0.23982,0.34174
-0,0,0,5,5,5,5,2.59962,0.228169,67.9005,0.000313589,-0.000142249,0.00381983,0,0,0,3.5,0.315,-1.2425,-0.03599,-0.033306,-1.00784,-0.16856,-0.23982,0.34174
-0,0,0,5,5,5,5,2.59637,0.22264,67.9034,-0.00505676,0.00151099,0.00197855,0,0,0,3.535,0.175,-1.2425,-0.04148,-0.031598,-1.00967,-0.16856,-0.23982,0.34174
-0,0,0,5,5,5,5,2.59336,0.217377,67.9061,-0.00496492,0.00145848,0.00198128,0,0,0,3.605,0.2625,-1.2775,-0.04148,-0.031598,-1.00967,-0.16856,-0.23982,0.34174
-0,0,0,5,5,5,5,2.59081,0.215128,67.9082,-0.00225298,0.001414,0.000631013,0,0,0,3.535,0.315,-1.26,-0.038796,-0.031598,-1.01101,-0.16856,-0.23982,0.34174
-0,0,0,5,5,5,5,2.58834,0.21302,67.9102,-0.00221618,0.00137085,0.000633102,0,0,0,3.535,0.3675,-1.26,-0.038796,-0.031598,-1.01101,-0.16856,-0.23982,0.34174
-0,0,0,5,5,5,5,2.58532,0.207802,67.9164,-0.00504076,0.00107401,-0.00133136,0,0,0,3.395,0.2975,-1.19,-0.041724,-0.031842,-1.01297,-0.16772,-0.24402,0.3521
-0,0,0,5,5,5,5,2.58227,0.202611,67.9224,-0.00495018,0.00102095,-0.00132864,0,0,0,3.325,0.245,-1.3125,-0.041724,-0.031842,-1.01297,-0.16772,-0.24402,0.3521
-0,0,0,5,5,5,5,2.58063,0.205827,67.9264,0.00289028,0.00148083,0.00469692,0,0,0,3.3075,0.245,-1.2075,-0.033794,-0.031354,-1.00699,-0.16772,-0.24402,0.3521
-0,0,0,5,5,5,5,2.57915,0.208992,67.9302,0.00283502,0.00145491,0.00469789,0,0,0,3.3775,0.245,-1.26,-0.033794,-0.031354,-1.00699,-0.16772,-0.24402,0.3521
-0,0,0,5,5,5,5,2.58388,0.214218,67.931,0.00408016,-0.00249272,0.000636531,0,0,0,3.465,0.1925,-1.2425,-0.032452,-0.03538,-1.01101,-0.16772,-0.24402,0.3521
-0,0,0,5,5,5,5,2.58894,0.219176,67.9319,0.00399363,-0.0024045,0.000632218,0,0,0,3.7275,0.105,-1.19,-0.032452,-0.03538,-1.01101,-0.16772,-0.24402,0.3521
-0,0,0,5,5,5,5,2.59092,0.219003,67.935,-0.000133871,-0.000904507,0.00112246,0,0,0,3.78,-0.105,-1.155,-0.0366,-0.033916,-1.01053,-0.16772,-0.24402,0.3521
-0,0,0,5,5,5,5,2.59285,0.218827,67.9381,-0.000130786,-0.000870927,0.00112096,0,0,0,3.78,-0.105,-1.155,-0.0366,-0.033916,-1.01053,-0.16772,-0.24402,0.3521
-0,0,0,5,5,5,5,2.59434,0.218918,67.9425,-0.000375348,-0.00108913,0.000505028,0,0,0,3.4125,0.175,-1.225,-0.036844,-0.03416,-1.01114,-0.16604,-0.24304,0.34664
-0,0,0,5,5,5,5,2.59315,0.220643,67.9476,0.00153831,0.000599956,-0.00441209,0,0,0,3.325,0.1925,-1.3125,-0.034892,-0.032452,-1.01602,-0.16604,-0.24304,0.34664
-0,0,0,5,5,5,5,2.59234,0.222402,67.9526,0.00150761,0.000585689,-0.00441156,0,0,0,3.5175,0.2275,-1.33,-0.034892,-0.032452,-1.01602,-0.16604,-0.24304,0.34664
-0,0,0,5,5,5,5,2.5936,0.223768,67.9568,0.000876341,-0.000369212,0.00407079,0,0,0,3.605,0.1925,-1.3125,-0.035502,-0.033428,-1.0076,-0.16604,-0.24304,0.34664
-0,0,0,5,5,5,5,2.59474,0.225136,67.9609,0.000852476,-0.000349402,0.0040698,0,0,0,3.5525,0.21,-1.33,-0.035502,-0.033428,-1.0076,-0.16604,-0.24304,0.34664
-0,0,0,5,5,5,5,2.59363,0.223632,67.9664,-0.00142951,0.000486094,-0.00158485,0,0,0,3.5175,0.1225,-1.295,-0.03782,-0.032574,-1.01321,-0.16604,-0.24304,0.34664
-0,0,0,5,5,5,5,2.59233,0.222552,67.9718,-0.00141067,0.000463493,-0.00158375,0,0,0,3.395,0.35,-1.3475,-0.03782,-0.032574,-1.01321,-0.16604,-0.24304,0.34664
-0,0,0,5,5,5,5,2.59291,0.225618,67.9755,0.00254486,-0.000259282,0.00234994,0,0,0,3.185,0.175,-1.225,-0.033794,-0.033306,-1.00931,-0.16604,-0.24304,0.34664
-0,0,0,5,5,5,5,2.59388,0.228242,67.9709,0.00249907,-0.000242285,0.00234898,0,0,0,3.4125,-0.0525,-1.1725,-0.033794,-0.033306,-1.00931,-0.17234,-0.24192,0.34286
-0,0,0,5,5,5,5,2.59269,0.224582,67.9682,-0.00326838,-1.87387e-05,-0.00576443,0,0,0,3.4475,-0.0175,-1.26,-0.03965,-0.033062,-1.01736,-0.17234,-0.24192,0.34286
-0,0,0,5,5,5,5,2.59114,0.220782,67.9656,-0.00320206,-4.57275e-05,-0.00576295,0,0,0,3.22,-0.14,-1.2075,-0.03965,-0.033062,-1.01736,-0.17234,-0.24192,0.34286
-0,0,0,5,5,5,5,2.59147,0.220365,67.9617,-0.000157628,-0.000406355,-0.000353445,0,0,0,3.36,-0.1575,-1.2425,-0.0366,-0.033428,-1.01199,-0.17234,-0.24192,0.34286
-0,0,0,5,5,5,5,2.59198,0.220011,67.9579,-0.000151448,-0.000397457,-0.000353824,0,0,0,3.465,-0.1225,-1.2075,-0.0366,-0.033428,-1.01199,-0.17234,-0.24192,0.34286
-0,0,0,5,5,5,5,2.58957,0.215964,67.9562,-0.00348243,0.000903894,-0.000474601,0,0,0,3.3775,-0.0175,-1.1375,-0.040016,-0.032086,-1.01211,-0.17234,-0.24192,0.34286
-0,0,0,5,5,5,5,2.5873,0.212294,67.9546,-0.00341836,0.00086432,-0.000472572,0,0,0,3.4125,0.1575,-1.05,-0.040016,-0.032086,-1.01211,-0.17234,-0.24192,0.34286
-0,0,0,5,5,5,5,2.58812,0.214225,67.9506,0.00152885,-0.00034276,0.000141403,0,0,0,3.4475,0.1575,-1.2075,-0.035014,-0.033306,-1.0115,-0.17234,-0.24192,0.34286
-0,0,0,5,5,5,5,2.58877,0.215987,67.9476,0.00149809,-0.000331331,0.000140771,0,0,0,3.3775,0.0875,-1.1025,-0.035014,-0.033306,-1.0115,-0.17094,-0.24066,0.34818
-0,0,0,5,5,5,5,2.5914,0.216398,67.9441,3.3085e-05,-0.00150675,0.0057943,0,0,0,3.43,0.0175,-1.0675,-0.036478,-0.034526,-1.00589,-0.17094,-0.24066,0.34818
-0,0,0,5,5,5,5,2.5939,0.217128,67.9405,2.03425e-05,-0.00146323,0.00579228,0,0,0,3.395,0.21,-1.1725,-0.036478,-0.034526,-1.00589,-0.17094,-0.24066,0.34818
-0,0,0,5,5,5,5,2.59301,0.220578,67.9376,0.00324025,0.000719481,-0.00096941,0,0,0,3.2375,0.1225,-1.2775,-0.033184,-0.03233,-1.0126,-0.17094,-0.24066,0.34818
-0,0,0,5,5,5,5,2.59243,0.223852,67.9346,0.00318311,0.000709523,-0.000969181,0,0,0,3.4125,0.0525,-1.33,-0.033184,-0.03233,-1.0126,-0.17094,-0.24066,0.34818
-0,0,0,5,5,5,5,2.59084,0.223173,67.9329,-0.000449622,0.000925905,-0.00441043,0,0,0,3.605,0.07,-1.3125,-0.036844,-0.032086,-1.01602,-0.17094,-0.24066,0.34818
-0,0,0,5,5,5,5,2.58934,0.222448,67.9314,-0.000436967,0.000899902,-0.00440921,0,0,0,3.64,0.035,-1.2425,-0.036844,-0.032086,-1.01602,-0.17094,-0.24066,0.34818
-0,0,0,5,5,5,5,2.5906,0.224986,67.928,0.00206995,-0.000177415,0.00554846,0,0,0,3.5525,0.14,-1.3125,-0.034282,-0.033184,-1.00613,-0.17094,-0.24066,0.34818
-0,0,0,5,5,5,5,2.59133,0.227527,67.9281,0.00202559,-0.0001646,0.00554771,0,0,0,3.29,0.175,-1.295,-0.034282,-0.033184,-1.00613,-0.1687,-0.24178,0.34916
-0,0,0,5,5,5,5,2.59431,0.227006,67.9279,-0.00124542,-0.00206668,0.00320937,0,0,0,3.4125,0.21,-1.2775,-0.037576,-0.035136,-1.00845,-0.1687,-0.24178,0.34916
-0,0,0,5,5,5,5,2.59756,0.226393,67.9277,-0.00123473,-0.00201007,0.00320684,0,0,0,3.605,0.1575,-1.2775,-0.037576,-0.035136,-1.00845,-0.1687,-0.24178,0.34916
-0,0,0,5,5,5,5,2.60047,0.229021,67.9269,0.00199952,-0.00122661,0.00517154,0,0,0,3.605,0.105,-1.3475,-0.034282,-0.034404,-1.0065,-0.1687,-0.24178,0.34916
-0,0,0,5,5,5,5,2.60335,0.231863,67.926,0.00194992,-0.00117632,0.00516905,0,0,0,3.64,0.2625,-1.4,-0.034282,-0.034404,-1.0065,-0.1687,-0.24178,0.34916
-0,0,0,5,5,5,5,2.6041,0.23091,67.9265,-0.00131356,-0.000430503,0.00234071,0,0,0,3.605,0.21,-1.47,-0.037576,-0.033672,-1.00931,-0.1687,-0.24178,0.34916
-0,0,0,5,5,5,5,2.60446,0.229718,67.9273,-0.00129275,-0.000424236,0.00234051,0,0,0,3.395,0.07,-1.2775,-0.037576,-0.033672,-1.00931,-0.1687,-0.24178,0.34916
-0,0,0,5,5,5,5,2.60611,0.229722,67.9275,-0.000320935,-0.00100615,0.00442933,0,0,0,3.4125,0.07,-1.225,-0.0366,-0.034282,-1.00723,-0.1687,-0.24178,0.34916
-0,0,0,5,5,5,5,2.60806,0.229719,67.9267,-0.000320893,-0.000972136,0.00442778,0,0,0,3.605,0.07,-1.2075,-0.0366,-0.034282,-1.00723,-0.16996,-0.24262,0.34524
-0,0,0,5,5,5,5,2.60792,0.228517,67.927,-0.00127179,2.4384e-06,0.000370672,0,0,0,3.5525,0.1225,-1.225,-0.037576,-0.033306,-1.01126,-0.16996,-0.24262,0.34524
-0,0,0,5,5,5,5,2.60744,0.226971,67.9274,-0.00124481,-5.83292e-06,0.000371156,0,0,0,3.36,-0.0875,-1.12,-0.037576,-0.033306,-1.01126,-0.16996,-0.24262,0.34524
-0,0,0,5,5,5,5,2.6081,0.2282,67.9267,0.00140643,-0.000360728,-0.000981886,0,0,0,3.4125,-0.1575,-1.19,-0.034892,-0.033672,-1.0126,-0.16996,-0.24262,0.34524
-0,0,0,5,5,5,5,2.60893,0.229471,67.9259,0.00138423,-0.000346369,-0.000982629,0,0,0,3.5175,-0.1225,-1.295,-0.034892,-0.033672,-1.0126,-0.16996,-0.24262,0.34524
-0,0,0,5,5,5,5,2.61141,0.232494,67.924,0.0027893,-0.00103586,0.000859414,0,0,0,3.605,-0.0875,-1.365,-0.033428,-0.034404,-1.01077,-0.16996,-0.24262,0.34524
-0,0,0,5,5,5,5,2.61416,0.235535,67.9223,0.00273623,-0.000987925,0.000857009,0,0,0,3.7975,-0.035,-1.2775,-0.033428,-0.034404,-1.01077,-0.16996,-0.24262,0.34524
-0,0,0,5,5,5,5,2.61659,0.235666,67.921,-6.02221e-05,-0.00131183,0.00319108,0,0,0,3.605,-0.0525,-1.3125,-0.036234,-0.03477,-1.00845,-0.16996,-0.24262,0.34524
-0,0,0,5,5,5,5,2.61865,0.23633,67.9195,-7.18239e-05,-0.00127593,0.00318939,0,0,0,3.43,0.2625,-1.4175,-0.036234,-0.03477,-1.00845,-0.16996,-0.24262,0.34524
-0,0,0,5,5,5,5,2.6168,0.239235,67.9231,0.00279314,0.00162271,0.00343656,0,0,0,3.36,0.1575,-1.47,-0.033306,-0.031842,-1.00821,-0.1694,-0.24794,0.34664
-0,0,0,5,5,5,5,2.62093,0.242308,67.9242,0.0018891,-0.00196907,0.00650675,0,0,0,3.605,0.315,-1.47,-0.03416,-0.035502,-1.00516,-0.1694,-0.24794,0.34664
-0,0,0,5,5,5,5,2.62488,0.245022,67.9257,0.00184173,-0.00190019,0.0065034,0,0,0,3.57,0.1575,-1.225,-0.03416,-0.035502,-1.00516,-0.1694,-0.24794,0.34664
-0,0,0,5,5,5,5,2.63125,0.245207,67.9265,-0.000834169,-0.00386518,0.00772776,0,0,0,3.5175,0.0875,-1.225,-0.036844,-0.037576,-1.00394,-0.1694,-0.24794,0.34664
-0,0,0,5,5,5,5,2.63724,0.245694,67.9273,-0.000842683,-0.00376074,0.00772292,0,0,0,3.395,0.28,-1.26,-0.036844,-0.037576,-1.00394,-0.1694,-0.24794,0.34664
-0,0,0,5,5,5,5,2.63906,0.24617,67.9298,-0.000365043,-0.000797989,0.0115328,0,0,0,3.395,0.3325,-1.2075,-0.036356,-0.034648,-1.00016,-0.1694,-0.24794,0.34664
-0,0,0,5,5,5,5,2.64086,0.246339,67.9322,-0.000367988,-0.000766606,0.0115314,0,0,0,3.4125,0.1575,-1.295,-0.036356,-0.034648,-1.00016,-0.1694,-0.24794,0.34664
-0,0,0,5,5,5,5,2.63235,0.242721,67.9396,-0.00249158,0.00470281,-0.00567432,0,0,0,3.255,0.1225,-1.225,-0.038552,-0.029036,-1.01724,-0.1694,-0.24794,0.34664
-0,0,0,5,5,5,5,2.62409,0.238818,67.9432,-0.00242347,0.00455887,-0.00566742,0,0,0,3.255,-0.105,-1.19,-0.038552,-0.029036,-1.01724,-0.16996,-0.2429,0.34762
-0,0,0,5,5,5,5,2.62495,0.240314,67.9424,0.001195,0.000177203,0.00674958,0,0,0,3.6925,0.1225,-1.2425,-0.034892,-0.033428,-1.00491,-0.16996,-0.2429,0.34762
-0,0,0,5,5,5,5,2.62584,0.241935,67.9414,0.00116671,0.000192694,0.00674875,0,0,0,3.7275,0.21,-1.33,-0.034892,-0.033428,-1.00491,-0.16996,-0.2429,0.34762
-0,0,0,5,5,5,5,2.62642,0.245367,67.9401,0.00329354,0.0004471,0.00441201,0,0,0,3.605,0,-1.295,-0.032696,-0.033184,-1.00723,-0.16996,-0.2429,0.34762
-0,0,0,5,5,5,5,2.62676,0.248694,67.9391,0.00323548,0.000452976,0.00441149,0,0,0,3.4825,-0.0175,-1.155,-0.032696,-0.033184,-1.00723,-0.16996,-0.2429,0.34762
-0,0,0,5,5,5,5,2.63014,0.251448,67.9367,0.00209405,-0.00156423,0.00477742,0,0,0,3.5875,0.0875,-1.2775,-0.033794,-0.035258,-1.00687,-0.16996,-0.2429,0.34762
-0,0,0,5,5,5,5,2.63333,0.254479,67.9348,0.00204114,-0.0015086,0.00477463,0,0,0,3.535,0.2975,-1.05,-0.033794,-0.035258,-1.00687,-0.16996,-0.2429,0.34762
-0,0,0,5,5,5,5,2.62838,0.25506,67.9366,0.0011806,0.00341222,-0.00431963,0,0,0,3.6225,0.1225,-1.155,-0.034648,-0.030256,-1.01589,-0.16996,-0.2429,0.34762
-0,0,0,5,5,5,5,2.62316,0.255709,67.939,0.00116927,0.00332127,-0.00431551,0,0,0,3.4125,0.1575,-1.225,-0.034648,-0.030256,-1.01589,-0.16912,-0.24206,0.33978
-0,0,0,5,5,5,5,2.62368,0.253501,67.9393,-0.00219379,-0.000699837,0.00244641,0,0,0,3.36,0,-1.225,-0.038064,-0.034282,-1.00918,-0.16912,-0.24206,0.33978
-0,0,0,5,5,5,5,2.62417,0.251461,67.9401,-0.00215819,-0.000691372,0.00244618,0,0,0,3.3425,0.0875,-0.98,-0.038064,-0.034282,-1.00918,-0.16912,-0.24206,0.33978
-0,0,0,5,5,5,5,2.6185,0.248444,67.9437,-0.00222702,0.00324001,0.000360807,0,0,0,3.3425,0.0875,-0.9625,-0.038186,-0.030256,-1.01126,-0.16912,-0.24206,0.33978
-0,0,0,5,5,5,5,2.61292,0.245946,67.9467,-0.00218342,0.00314285,0.000365434,0,0,0,3.3075,0.3325,-1.2775,-0.038186,-0.030256,-1.01126,-0.16912,-0.24206,0.33978
-0,0,0,5,5,5,5,2.60964,0.247881,67.9479,0.00203481,0.00210859,-0.000123895,0,0,0,3.2025,0.175,-1.26,-0.033916,-0.031232,-1.01175,-0.16912,-0.24206,0.33978
-0,0,0,5,5,5,5,2.60684,0.249829,67.949,0.00200081,0.00205977,-0.000121819,0,0,0,3.43,0.1925,-1.3475,-0.033916,-0.031232,-1.01175,-0.16912,-0.24206,0.33978
-0,0,0,5,5,5,5,2.61032,0.250731,67.9475,-8.01877e-05,-0.00215408,0.00258022,0,0,0,3.5,0.2975,-1.3825,-0.03599,-0.035502,-1.00906,-0.16912,-0.24206,0.33978
-0,0,0,5,5,5,5,2.61382,0.251626,67.9438,-9.57998e-05,-0.00209299,0.00257736,0,0,0,3.57,0.315,-1.295,-0.03599,-0.035502,-1.00906,-0.17178,-0.24346,0.34314
-0,0,0,5,5,5,5,2.6156,0.253396,67.9406,0.00120964,-0.000718634,0.00491183,0,0,0,3.5175,0.175,-1.2425,-0.034648,-0.03416,-1.00674,-0.17178,-0.24346,0.34314
-0,0,0,5,5,5,5,2.61695,0.254551,67.9377,0.00118949,-0.000695103,0.00491067,0,0,0,3.3075,-0.1575,-1.12,-0.034648,-0.03416,-1.00674,-0.17178,-0.24346,0.34314
-0,0,0,5,5,5,5,2.61645,0.25217,67.9364,-0.00180611,0.000151104,0.00343587,0,0,0,3.43,-0.2275,-1.0325,-0.037698,-0.033306,-1.00821,-0.17178,-0.24346,0.34314
-0,0,0,5,5,5,5,2.61603,0.250202,67.9349,-0.00177175,0.000143879,0.00343635,0,0,0,3.465,-0.0175,-1.1375,-0.037698,-0.033306,-1.00821,-0.17178,-0.24346,0.34314
-0,0,0,5,5,5,5,2.61413,0.248435,67.9339,-0.00125498,0.000843413,-0.00209468,0,0,0,3.3775,-0.0875,-1.1725,-0.03721,-0.032574,-1.0137,-0.17178,-0.24346,0.34314
-0,0,0,5,5,5,5,2.61209,0.24689,67.9329,-0.00122801,0.000807895,-0.00209294,0,0,0,3.2725,0.0175,-1.2075,-0.03721,-0.032574,-1.0137,-0.17178,-0.24346,0.34314
-0,0,0,5,5,5,5,2.61395,0.24956,67.9297,0.00212699,-0.000869453,0.0040528,0,0,0,3.36,0.1225,-1.19,-0.033794,-0.034282,-1.0076,-0.17178,-0.24346,0.34314
-0,0,0,5,5,5,5,2.61616,0.252462,67.928,0.00207635,-0.000830995,0.00405082,0,0,0,3.5875,0.2975,-1.0675,-0.033794,-0.034282,-1.0076,-0.17192,-0.24598,0.3465
-0,0,0,5,5,5,5,2.61618,0.252432,67.9277,-0.000231361,0.000268614,0.000608244,0,0,0,3.7275,0.1925,-1.12,-0.036112,-0.033184,-1.01101,-0.17192,-0.24598,0.3465
-0,0,0,5,5,5,5,2.61605,0.252142,67.9272,-0.000226306,0.000266338,0.00060837,0,0,0,3.64,0.035,-1.225,-0.036112,-0.033184,-1.01101,-0.17192,-0.24598,0.3465
-0,0,0,5,5,5,5,2.61307,0.246556,67.9289,-0.00474526,0.00119142,-0.000618319,0,0,0,3.4475,-0.1225,-1.12,-0.040748,-0.032208,-1.01223,-0.17192,-0.24598,0.3465
-0,0,0,5,5,5,5,2.61007,0.241208,67.9304,-0.00465192,0.00113901,-0.000615531,0,0,0,3.3775,-0.0525,-1.19,-0.040748,-0.032208,-1.01223,-0.17192,-0.24598,0.3465
-0,0,0,5,5,5,5,2.60991,0.24107,67.9299,-0.000154545,0.000281469,0.00405664,0,0,0,3.5,0.0525,-1.225,-0.036234,-0.033062,-1.0076,-0.17192,-0.24598,0.3465
-0,0,0,5,5,5,5,2.60983,0.240754,67.9294,-0.000149023,0.000279981,0.00405673,0,0,0,3.535,-0.0525,-1.19,-0.036234,-0.033062,-1.0076,-0.17192,-0.24598,0.3465
-0,0,0,5,5,5,5,2.61076,0.242938,67.928,0.0019996,-0.000192338,0.00503942,0,0,0,3.395,0,-1.2075,-0.034038,-0.03355,-1.00662,-0.17192,-0.24598,0.3465
-0,0,0,5,5,5,5,2.61153,0.245282,67.9267,0.00195869,-0.000178879,0.00503864,0,0,0,3.325,0.1225,-1.1375,-0.034038,-0.03355,-1.00662,-0.17192,-0.24598,0.3465
-0,0,0,5,5,5,5,2.60684,0.243344,67.927,-0.00140909,0.00267035,-0.000244277,0,0,0,3.3075,0.1225,-1.1725,-0.037454,-0.030622,-1.01187,-0.17024,-0.2401,0.34454
-0,0,0,5,5,5,5,2.60237,0.240871,67.9271,-0.00136593,0.00259238,-0.000240548,0,0,0,3.36,-0.2275,-1.295,-0.037454,-0.030622,-1.01187,-0.17024,-0.2401,0.34454
-0,0,0,5,5,5,5,2.60128,0.242091,67.9253,0.00201438,0.000985893,0.000497909,0,0,0,3.4475,-0.3675,-1.155,-0.034038,-0.032208,-1.01114,-0.17024,-0.2401,0.34454
-0,0,0,5,5,5,5,2.59985,0.243495,67.9237,0.00198987,0.000960936,0.000498939,0,0,0,3.2375,-0.245,-1.085,-0.034038,-0.032208,-1.01114,-0.17024,-0.2401,0.34454
-0,0,0,5,5,5,5,2.60218,0.246028,67.9199,0.0024316,-0.00119684,0.00861151,0,0,0,3.1325,-0.2275,-1.26,-0.03355,-0.034404,-1.00308,-0.17024,-0.2401,0.34454
-0,0,0,5,5,5,5,2.60443,0.248506,67.9162,0.00238835,-0.00115754,0.00860954,0,0,0,3.1325,-0.2275,-1.26,-0.03355,-0.034404,-1.00308,-0.17024,-0.2401,0.34454
-0,0,0,5,5,5,5,2.60122,0.244897,67.916,-0.00325848,0.00147321,0.00332557,0,0,0,3.22,0.105,-1.33,-0.039284,-0.03172,-1.00833,-0.17024,-0.2401,0.34454
-0,0,0,5,5,5,5,2.5981,0.241365,67.9158,-0.00319683,0.00141885,0.0033283,0,0,0,3.22,0.105,-1.33,-0.039284,-0.03172,-1.00833,-0.17024,-0.2401,0.34454
-0,0,0,5,5,5,5,2.59763,0.243087,67.9099,0.00126807,0.000433581,0.00406624,0,0,0,3.2725,0.28,-1.05,-0.03477,-0.032696,-1.0076,-0.1743,-0.24136,0.34398
-0,0,0,5,5,5,5,2.5974,0.24192,67.9046,-0.00138424,-0.000303036,-0.00195798,0,0,0,3.36,0.1925,-1.05,-0.037454,-0.033428,-1.01358,-0.1743,-0.24136,0.34398
-0,0,0,5,5,5,5,2.59763,0.240602,67.8991,-0.00136122,-0.000299105,-0.00195806,0,0,0,3.605,0.0875,-1.12,-0.037454,-0.033428,-1.01358,-0.1743,-0.24136,0.34398
-0,0,0,5,5,5,5,2.60158,0.243156,67.8913,0.0018743,-0.00194004,0.0086122,0,0,0,3.465,0.035,-1.155,-0.03416,-0.035136,-1.00308,-0.1743,-0.24136,0.34398
-0,0,0,5,5,5,5,2.60557,0.245545,67.8832,0.0018326,-0.00187045,0.00860886,0,0,0,3.5525,-0.035,-1.3475,-0.03416,-0.035136,-1.00308,-0.1743,-0.24136,0.34398
-0,0,0,5,5,5,5,2.60853,0.250578,67.8751,0.00453894,-0.000841809,0.00922087,0,0,0,3.4825,-0.0525,-1.33,-0.031354,-0.03416,-1.00247,-0.1743,-0.24136,0.34398
-0,0,0,5,5,5,5,2.61152,0.255952,67.8672,0.00444514,-0.000789663,0.00921808,0,0,0,3.5525,0.21,-1.295,-0.031354,-0.03416,-1.00247,-0.1743,-0.24136,0.34398
-0,0,0,5,5,5,5,2.60629,0.254629,67.8642,-0.000998628,0.00339345,-0.000244694,0,0,0,3.5525,0.315,-1.225,-0.036844,-0.02989,-1.01187,-0.1743,-0.24136,0.34398
-0,0,0,5,5,5,5,2.60147,0.253266,67.8639,-0.000974829,0.00330951,-0.000240771,0,0,0,3.71,0.2625,-1.2775,-0.036844,-0.02989,-1.01187,-0.17164,-0.24066,0.34342
-0,0,0,5,5,5,5,2.60204,0.2526,67.8612,-0.00120617,-0.000466534,-0.00122476,0,0,0,3.605,0.3325,-1.295,-0.037088,-0.033672,-1.01284,-0.17164,-0.24066,0.34342
-0,0,0,5,5,5,5,2.60234,0.25164,67.8586,-0.00118942,-0.000461201,-0.00122493,0,0,0,3.465,0.1575,-1.225,-0.037088,-0.033672,-1.01284,-0.17164,-0.24066,0.34342
-0,0,0,5,5,5,5,2.60193,0.253348,67.856,0.00157494,0.00087493,0.00713577,0,0,0,3.5175,0.105,-1.2075,-0.034282,-0.03233,-1.00455,-0.17164,-0.24066,0.34342
-0,0,0,5,5,5,5,2.60151,0.255148,67.8533,0.00154351,0.000867739,0.00713596,0,0,0,3.5175,0.175,-1.2425,-0.034282,-0.03233,-1.00455,-0.17164,-0.24066,0.34342
-0,0,0,5,5,5,5,2.60111,0.258715,67.8504,0.00342503,0.00122704,0.00898023,0,0,0,3.5175,0.07,-1.1375,-0.03233,-0.031964,-1.00272,-0.17164,-0.24066,0.34342
-0,0,0,5,5,5,5,2.60067,0.262337,67.8477,0.00336182,0.00121937,0.00898029,0,0,0,3.5,0.14,-1.12,-0.03233,-0.031964,-1.00272,-0.17164,-0.24066,0.34342
-0,0,0,5,5,5,5,2.60261,0.260985,67.8447,-0.00171698,-0.00118935,0.00885591,0,0,0,3.43,0.0875,-1.1025,-0.037454,-0.034404,-1.00284,-0.17164,-0.24066,0.34342
-0,0,0,5,5,5,5,2.60472,0.259353,67.8406,-0.0016885,-0.00115258,0.00885437,0,0,0,3.5525,-0.0875,-1.1375,-0.037454,-0.034404,-1.00284,-0.17276,-0.24108,0.3472
-0,0,0,5,5,5,5,2.60901,0.263236,67.8344,0.00298167,-0.00217682,0.00749822,0,0,0,3.3775,0.105,-1.1725,-0.032696,-0.035502,-1.00418,-0.17276,-0.24108,0.3472
-0,0,0,5,5,5,5,2.61375,0.267524,67.828,0.00290684,-0.00209433,0.00749411,0,0,0,3.6925,0.385,-1.3475,-0.032696,-0.035502,-1.00418,-0.17276,-0.24108,0.3472
-0,0,0,5,5,5,5,2.61324,0.26904,67.8244,0.00105809,0.00095002,0.00306824,0,0,0,3.745,0.35,-1.3475,-0.034526,-0.032452,-1.00857,-0.17276,-0.24108,0.3472
-0,0,0,5,5,5,5,2.61293,0.270527,67.8209,0.00103213,0.000944602,0.00306836,0,0,0,3.85,0.35,-1.3125,-0.034526,-0.032452,-1.00857,-0.17276,-0.24108,0.3472
-0,0,0,5,5,5,5,2.61683,0.275123,67.815,0.00350312,-0.00155211,0.0015895,0,0,0,3.85,0.3325,-1.33,-0.031964,-0.035014,-1.01004,-0.17276,-0.24108,0.3472
-0,0,0,5,5,5,5,2.61996,0.279342,67.8094,0.00342949,-0.00149761,0.00158665,0,0,0,3.4825,0.175,-1.19,-0.031964,-0.035014,-1.01004,-0.17276,-0.24108,0.3472
-0,0,0,5,5,5,5,2.62096,0.282818,67.805,0.00312585,-0.000258904,-0.00296354,0,0,0,3.5525,0.14,-1.1375,-0.032208,-0.033794,-1.01455,-0.17276,-0.24108,0.3472
-0,0,0,5,5,5,5,2.62172,0.286284,67.8025,0.00306536,-0.000245537,-0.00296446,0,0,0,3.4475,0.175,-1.1375,-0.032208,-0.033794,-1.01455,-0.1708,-0.24038,0.34888
-0,0,0,5,5,5,5,2.62203,0.285665,67.8008,-0.000932869,-0.000118043,0.00170739,0,0,0,3.605,0.21,-1.3475,-0.036234,-0.033672,-1.00992,-0.1708,-0.24038,0.34888
-0,0,0,5,5,5,5,2.62206,0.285134,67.7994,-0.000923594,-0.000117648,0.00170742,0,0,0,3.4475,0.2625,-1.19,-0.036234,-0.033672,-1.00992,-0.1708,-0.24038,0.34888
-0,0,0,5,5,5,5,2.62071,0.286083,67.7982,0.000639146,0.00108019,0.00576571,0,0,0,3.3425,0.28,-1.19,-0.034648,-0.032452,-1.00589,-0.1708,-0.24038,0.34888
-0,0,0,5,5,5,5,2.6194,0.287021,67.797,0.000622786,0.00105731,0.00576668,0,0,0,3.3425,0.28,-1.19,-0.034648,-0.032452,-1.00589,-0.1708,-0.24038,0.34888
-0,0,0,5,5,5,5,2.61888,0.286198,67.796,-0.00106366,0.000315521,0.0028164,0,0,0,3.4825,0.2275,-1.1375,-0.036356,-0.033184,-1.00882,-0.1708,-0.24038,0.34888
-0,0,0,5,5,5,5,2.61838,0.285392,67.7951,-0.00104959,0.00030678,0.00281687,0,0,0,3.4825,0.2275,-1.1375,-0.036356,-0.033184,-1.00882,-0.1708,-0.24038,0.34888
-0,0,0,5,5,5,5,2.62045,0.28625,67.7923,0.000636245,-0.00124472,0.0019545,0,0,0,3.4475,-0.035,-1.295,-0.034648,-0.03477,-1.00967,-0.1708,-0.24038,0.34888
-0,0,0,5,5,5,5,2.62247,0.287084,67.7875,0.000621675,-0.00120953,0.00195282,0,0,0,3.4475,-0.035,-1.295,-0.034648,-0.03477,-1.00967,-0.17248,-0.24024,0.34832
-0,0,0,5,5,5,5,2.62071,0.286727,67.7846,-0.000222485,0.000835876,0.000355926,0,0,0,3.22,0.07,-1.1725,-0.035502,-0.032696,-1.01126,-0.17248,-0.24024,0.34832
-0,0,0,5,5,5,5,2.61971,0.287759,67.7813,0.000852868,0.00106265,0.00588932,0,0,0,3.4825,0.1925,-1.2075,-0.034404,-0.032452,-1.00577,-0.17248,-0.24024,0.34832
-0,0,0,5,5,5,5,2.61885,0.288626,67.7782,0.00083774,0.00104773,0.00588992,0,0,0,3.5525,0.105,-1.19,-0.034404,-0.032452,-1.00577,-0.17248,-0.24024,0.34832
-0,0,0,5,5,5,5,2.6164,0.291118,67.7756,0.00261654,0.00234833,0.0024491,0,0,0,3.6575,0.1575,-1.1375,-0.032574,-0.03111,-1.00918,-0.17248,-0.24024,0.34832
-0,0,0,5,5,5,5,2.6135,0.293409,67.7728,0.00257654,0.00229774,0.00245121,0,0,0,3.3775,0.0525,-1.33,-0.032574,-0.03111,-1.00918,-0.17248,-0.24024,0.34832
-0,0,0,5,5,5,5,2.61154,0.290213,67.7704,-0.00307751,0.000798148,0.00466612,0,0,0,3.2725,0.1225,-1.3825,-0.038308,-0.032574,-1.00699,-0.17248,-0.24024,0.34832
-0,0,0,5,5,5,5,2.60968,0.287095,67.7684,-0.00302308,0.000765734,0.00466787,0,0,0,3.29,0.14,-1.155,-0.038308,-0.032574,-1.00699,-0.17248,-0.24024,0.34832
-0,0,0,5,5,5,5,2.60934,0.288363,67.7676,0.00108531,0.000271199,0.000733685,0,0,0,3.36,0.14,-1.1375,-0.03416,-0.033062,-1.01089,-0.1708,-0.24094,0.34706
-0,0,0,5,5,5,5,2.61122,0.288902,67.7659,0.000225488,-0.00140563,0.00220752,0,0,0,3.255,0.0175,-1.12,-0.035014,-0.03477,-1.00943,-0.1708,-0.24094,0.34706
-0,0,0,5,5,5,5,2.61341,0.289431,67.7641,0.000216266,-0.00136759,0.00220574,0,0,0,3.4475,0.0175,-1.19,-0.035014,-0.03477,-1.00943,-0.1708,-0.24094,0.34706
-0,0,0,5,5,5,5,2.61217,0.287932,67.7642,-0.00121541,0.000686942,-0.000498013,0,0,0,3.535,0,-1.19,-0.036478,-0.032696,-1.01211,-0.1708,-0.24094,0.34706
-0,0,0,5,5,5,5,2.61077,0.286593,67.7641,-0.00119204,0.000662686,-0.00049679,0,0,0,3.43,0.07,-1.295,-0.036478,-0.032696,-1.01211,-0.1708,-0.24094,0.34706
-0,0,0,5,5,5,5,2.61318,0.282106,67.763,-0.00487978,-0.00210421,0.00478847,0,0,0,3.4825,0.105,-1.3125,-0.04026,-0.035502,-1.00687,-0.1708,-0.24094,0.34706
-0,0,0,5,5,5,5,2.61521,0.277018,67.7623,-0.00479097,-0.00206893,0.00478729,0,0,0,3.29,-0.28,-1.085,-0.04026,-0.035502,-1.00687,-0.1708,-0.24094,0.34706
-0,0,0,5,5,5,5,2.61617,0.275885,67.7613,-0.00100515,-0.000830818,0.00158996,0,0,0,3.395,-0.1225,-1.1375,-0.036478,-0.034282,-1.01004,-0.1708,-0.24094,0.34706
-0,0,0,5,5,5,5,2.6173,0.274767,67.7565,-0.00098563,-0.000811186,0.00158915,0,0,0,3.5,-0.1225,-1.1375,-0.036478,-0.034282,-1.01004,-0.17192,-0.23688,0.3514
-0,0,0,5,5,5,5,2.61665,0.272452,67.7526,-0.00179562,0.00015447,0.000237431,0,0,0,3.465,-0.1925,-1.19,-0.037332,-0.033306,-1.01138,-0.17192,-0.23688,0.3514
-0,0,0,5,5,5,5,2.61636,0.270598,67.7487,-0.00176328,0.000149536,0.00023781,0,0,0,3.6575,0.0525,-1.19,-0.037332,-0.033306,-1.01138,-0.17192,-0.23688,0.3514
-0,0,0,5,5,5,5,2.61709,0.267954,67.7449,-0.00268901,-0.000326264,0.00478654,0,0,0,3.7625,0.07,-1.085,-0.038308,-0.033794,-1.00687,-0.17192,-0.23688,0.3514
-0,0,0,5,5,5,5,2.61772,0.265011,67.7408,-0.00263765,-0.000315368,0.00478628,0,0,0,3.71,-0.14,-1.2775,-0.038308,-0.033794,-1.00687,-0.17192,-0.23688,0.3514
-0,0,0,5,5,5,5,2.62,0.26594,67.7353,0.000869224,-0.00100822,0.00220246,0,0,0,3.7275,-0.105,-1.2775,-0.03477,-0.034526,-1.00943,-0.17192,-0.23688,0.3514
-0,0,0,5,5,5,5,2.62186,0.267238,67.7297,0.000846563,-0.000975933,0.00220088,0,0,0,3.5175,0.1225,-1.365,-0.03477,-0.034526,-1.00943,-0.17192,-0.23688,0.3514
-0,0,0,5,5,5,5,2.62368,0.263555,67.7252,-0.00394858,-0.00167686,0.00613407,0,0,0,3.36,0.0525,-1.2425,-0.03965,-0.035258,-1.00552,-0.17192,-0.23688,0.3514
-0,0,0,5,5,5,5,2.62555,0.259899,67.724,-0.00388477,-0.00164428,0.00613287,0,0,0,3.395,0.035,-1.1375,-0.03965,-0.035258,-1.00552,-0.16926,-0.23674,0.35084
-0,0,0,5,5,5,5,2.62536,0.256756,67.7235,-0.00273653,-0.000182011,0.00490378,0,0,0,3.3775,-0.175,-1.1375,-0.038552,-0.033794,-1.00674,-0.16926,-0.23674,0.35084
-0,0,0,5,5,5,5,2.62519,0.253669,67.723,-0.00268267,-0.000184984,0.00490416,0,0,0,3.3775,-0.175,-1.1375,-0.038552,-0.033794,-1.00674,-0.16926,-0.23674,0.35084
-0,0,0,5,5,5,5,2.62824,0.250561,67.7213,-0.00335734,-0.00220796,0.0017053,0,0,0,3.6925,-0.0175,-1.2425,-0.039284,-0.035868,-1.00992,-0.16926,-0.23674,0.35084
-0,0,0,5,5,5,5,2.63122,0.247498,67.7195,-0.00330387,-0.00215593,0.00170314,0,0,0,3.6925,-0.0175,-1.2425,-0.039284,-0.035868,-1.00992,-0.16926,-0.23674,0.35084
-0,0,0,5,5,5,5,2.63036,0.248575,67.7188,0.000564877,0.000882137,0.00244144,0,0,0,3.57,0.4025,-1.2425,-0.03538,-0.032818,-1.00918,-0.16926,-0.23674,0.35084
-0,0,0,5,5,5,5,2.63269,0.250245,67.7168,0.000900182,-0.000786938,0.00870982,0,0,0,3.675,0.28,-1.1375,-0.035014,-0.034526,-1.00296,-0.16926,-0.23674,0.35084
-0,0,0,5,5,5,5,2.63506,0.251695,67.7149,0.000874875,-0.000745741,0.00870781,0,0,0,3.7275,0.175,-1.1025,-0.035014,-0.034526,-1.00296,-0.16926,-0.23674,0.35084
-0,0,0,5,5,5,5,2.63542,0.253224,67.7139,0.00121264,0.000481822,0.00440421,0,0,0,3.7625,0.21,-1.085,-0.034648,-0.033306,-1.00723,-0.16926,-0.23674,0.35084
-0,0,0,5,5,5,5,2.63564,0.254701,67.7118,0.00118686,0.000485704,0.00440391,0,0,0,3.6925,0.1925,-1.155,-0.034648,-0.033306,-1.00723,-0.1708,-0.23814,0.34958
-0,0,0,5,5,5,5,2.63455,0.253495,67.7107,-0.0012218,0.000711,0.00170001,0,0,0,3.5525,0.1575,-1.1375,-0.037088,-0.033062,-1.00992,-0.1708,-0.23814,0.34958
-0,0,0,5,5,5,5,2.63347,0.252354,67.7093,-0.00120188,0.000692042,0.00170097,0,0,0,3.535,0.175,-1.26,-0.037088,-0.033062,-1.00992,-0.1708,-0.23814,0.34958
-0,0,0,5,5,5,5,2.63441,0.25133,67.7074,-0.00154848,-0.000634938,0.00305273,0,0,0,3.5525,0.28,-1.155,-0.037454,-0.034404,-1.00857,-0.1708,-0.23814,0.34958
-0,0,0,5,5,5,5,2.63539,0.24981,67.7055,-0.00152195,-0.000617781,0.00305206,0,0,0,3.5875,-0.0175,-1.1025,-0.037454,-0.034404,-1.00857,-0.1708,-0.23814,0.34958
-0,0,0,5,5,5,5,2.6325,0.248525,67.7051,-0.000649123,0.0020187,0.00157909,0,0,0,3.57,-0.07,-1.155,-0.0366,-0.03172,-1.01004,-0.1708,-0.23814,0.34958
-0,0,0,5,5,5,5,2.62948,0.247315,67.7045,-0.000627998,0.00196592,0.0015816,0,0,0,3.4475,-0.0525,-1.295,-0.0366,-0.03172,-1.01004,-0.1708,-0.23814,0.34958
-0,0,0,5,5,5,5,2.63075,0.246403,67.7023,-0.000855055,-0.00106498,-0.00247665,0,0,0,3.5175,-0.0875,-1.2075,-0.036844,-0.03477,-1.01406,-0.1708,-0.23814,0.34958
-0,0,0,5,5,5,5,2.63231,0.245745,67.7,-0.000843573,-0.00103777,-0.00247785,0,0,0,3.6925,0.0525,-1.2425,-0.036844,-0.03477,-1.01406,-0.17164,-0.23982,0.34762
-0,0,0,5,5,5,5,2.63103,0.242726,67.6994,-0.00285613,0.00101599,0.00895761,0,0,0,3.6225,0.0875,-1.2075,-0.038918,-0.032696,-1.00272,-0.17164,-0.23982,0.34762
-0,0,0,5,5,5,5,2.62988,0.239566,67.6986,-0.00280099,0.000995971,0.00895876,0,0,0,3.675,-0.035,-1.33,-0.038918,-0.032696,-1.00272,-0.17164,-0.23982,0.34762
-0,0,0,5,5,5,5,2.62932,0.238131,67.6974,-0.00131811,0.000619774,0.00305779,0,0,0,3.7275,0.0525,-1.33,-0.037454,-0.033062,-1.00857,-0.17164,-0.23982,0.34762
-0,0,0,5,5,5,5,2.62862,0.236832,67.6964,-0.00129544,0.000607597,0.00305845,0,0,0,3.64,0.1225,-1.19,-0.037454,-0.033062,-1.00857,-0.17164,-0.23982,0.34762
-0,0,0,5,5,5,5,2.62594,0.237528,67.6959,0.000879152,0.00190436,0.0014622,0,0,0,3.4125,0.14,-1.085,-0.035258,-0.03172,-1.01016,-0.17164,-0.23982,0.34762
-0,0,0,5,5,5,5,2.62349,0.238406,67.6954,0.00086383,0.00186158,0.0014641,0,0,0,3.5,0.245,-1.155,-0.035258,-0.03172,-1.01016,-0.17164,-0.23982,0.34762
-0,0,0,5,5,5,5,2.62331,0.23936,67.6937,0.00060422,0.00039288,0.00490674,0,0,0,3.4475,0.2275,-1.225,-0.035502,-0.033184,-1.00674,-0.17164,-0.23982,0.34762
-0,0,0,5,5,5,5,2.62294,0.239929,67.6981,0.000594287,0.000386403,0.00490699,0,0,0,3.3425,0.0175,-1.12,-0.035502,-0.033184,-1.00674,-0.16786,-0.2422,0.34944
-0,0,0,5,5,5,5,2.62025,0.237961,67.7042,-0.00180109,0.0015609,0.00478633,0,0,0,3.325,0.1575,-1.015,-0.037942,-0.031964,-1.00687,-0.16786,-0.2422,0.34944
-0,0,0,5,5,5,5,2.61818,0.236111,67.7099,-0.0017688,0.00152466,0.00478812,0,0,0,3.6225,0.1925,-1.1725,-0.037942,-0.031964,-1.00687,-0.16786,-0.2422,0.34944
-0,0,0,5,5,5,5,2.61327,0.23297,67.717,-0.00256437,0.0029047,-0.00393709,0,0,0,3.605,0.1575,-1.19,-0.038796,-0.0305,-1.01553,-0.16786,-0.2422,0.34944
-0,0,0,5,5,5,5,2.60853,0.229793,67.7238,-0.00250893,0.00282211,-0.0039331,0,0,0,3.6225,0.0875,-1.3125,-0.038796,-0.0305,-1.01553,-0.16786,-0.2422,0.34944
-0,0,0,5,5,5,5,2.61109,0.231998,67.7266,0.0017046,-0.00116351,0.00700713,0,0,0,3.465,0.07,-1.2075,-0.034526,-0.034526,-1.00467,-0.16786,-0.2422,0.34944
-0,0,0,5,5,5,5,2.61348,0.233995,67.7294,0.00166973,-0.00112183,0.00700508,0,0,0,3.4125,-0.0175,-1.1025,-0.034526,-0.034526,-1.00467,-0.16786,-0.2422,0.34944
-0,0,0,5,5,5,5,2.61802,0.23791,67.7309,0.00342369,-0.0023861,0.00405042,0,0,0,3.465,-0.105,-1.1725,-0.032696,-0.035868,-1.0076,-0.16786,-0.2422,0.34944
-0,0,0,5,5,5,5,2.62244,0.241768,67.7255,0.00335637,-0.00230914,0.00404662,0,0,0,3.465,-0.0875,-1.1375,-0.032696,-0.035868,-1.0076,-0.17178,-0.2387,0.3514
-0,0,0,5,5,5,5,2.62249,0.241831,67.7226,0.000196634,0.000134341,0.00269414,0,0,0,3.5,-0.0525,-1.225,-0.035868,-0.033428,-1.00894,-0.17178,-0.2387,0.3514
-0,0,0,5,5,5,5,2.62257,0.241965,67.7194,0.000194297,0.000135782,0.00269406,0,0,0,3.5175,-0.0175,-1.3825,-0.035868,-0.033428,-1.00894,-0.17178,-0.2387,0.3514
-0,0,0,5,5,5,5,2.62537,0.241227,67.7152,-0.00112916,-0.00213579,-0.000135939,0,0,0,3.43,0.0175,-1.365,-0.03721,-0.035746,-1.01175,-0.17178,-0.2387,0.3514
-0,0,0,5,5,5,5,2.62795,0.240151,67.7113,-0.00111039,-0.00209085,-0.000137922,0,0,0,3.3425,-0.175,-1.2075,-0.03721,-0.035746,-1.01175,-0.17178,-0.2387,0.3514
-0,0,0,5,5,5,5,2.62968,0.239298,67.7077,-0.000609561,-0.00145002,-0.00112283,0,0,0,3.3775,-0.2625,-1.26,-0.036722,-0.035136,-1.01272,-0.17178,-0.2387,0.3514
-0,0,0,5,5,5,5,2.63125,0.239014,67.7043,-0.00060461,-0.0014227,-0.00112407,0,0,0,3.3075,0.07,-1.1725,-0.036722,-0.035136,-1.01272,-0.17178,-0.2387,0.3514
-0,0,0,5,5,5,5,2.63284,0.241601,67.7005,0.00214442,-0.000906431,0.000595745,0,0,0,3.3425,0.1225,-1.1375,-0.033916,-0.034648,-1.01101,-0.17178,-0.2387,0.3514
-0,0,0,5,5,5,5,2.63451,0.24394,67.7001,0.00210359,-0.000877377,0.000594235,0,0,0,3.4125,0,-1.3125,-0.033916,-0.034648,-1.01101,-0.17122,-0.24374,0.35084
-0,0,0,5,5,5,5,2.63509,0.242379,67.7007,-0.0017567,-0.000745076,-0.00235688,0,0,0,3.5,0.105,-1.4175,-0.03782,-0.034526,-1.01394,-0.17122,-0.24374,0.35084
-0,0,0,5,5,5,5,2.63582,0.240903,67.7014,-0.00173094,-0.00073234,-0.00235736,0,0,0,3.5875,0.14,-1.4175,-0.03782,-0.034526,-1.01394,-0.17122,-0.24374,0.35084
-0,0,0,5,5,5,5,2.64052,0.243201,67.6994,0.00163054,-0.0028488,0.00292549,0,0,0,3.43,-0.0175,-1.4875,-0.034404,-0.036722,-1.0087,-0.17122,-0.24374,0.35084
-0,0,0,5,5,5,5,2.64502,0.245453,67.6978,0.00159124,-0.00277026,0.00292169,0,0,0,3.395,0,-1.26,-0.034404,-0.036722,-1.0087,-0.17122,-0.24374,0.35084
-0,0,0,5,5,5,5,2.6457,0.247576,67.6978,0.00204013,-0.000193704,0.00304393,0,0,0,3.3425,-0.0175,-1.19,-0.033916,-0.03416,-1.00857,-0.17122,-0.24374,0.35084
-0,0,0,5,5,5,5,2.6463,0.249505,67.698,0.00200646,-0.000183326,0.00304331,0,0,0,3.3075,-0.105,-1.1375,-0.033916,-0.03416,-1.00857,-0.17122,-0.24374,0.35084
-0,0,0,5,5,5,5,2.6465,0.250652,67.6983,0.00125753,-0.000179879,0.000707039,0,0,0,3.2725,-0.0875,-1.2425,-0.034648,-0.03416,-1.01089,-0.17122,-0.24374,0.35084
-0,0,0,5,5,5,5,2.647,0.251924,67.6986,0.00123533,-0.000171146,0.000706538,0,0,0,3.4475,0,-1.2075,-0.034648,-0.03416,-1.01089,-0.17122,-0.24374,0.35084
-0,0,0,5,5,5,5,2.64748,0.252935,67.7032,0.000731751,-4.05872e-05,0.00390273,0,0,0,3.4825,0.14,-1.2075,-0.035136,-0.034038,-1.00772,-0.16716,-0.24248,0.34804
-0,0,0,5,5,5,5,2.60241,0.247082,67.7288,0.000590923,0.0305601,0.00197203,0,0,0,3.5525,0.14,-1.2075,-0.03538,-0.002684,-1.00967,-0.16716,-0.24248,0.34804
-0,0,0,5,5,5,5,2.55836,0.241128,67.7538,0.000694851,0.0297922,0.00200708,0,0,0,3.4825,-0.0875,-1.3475,-0.03538,-0.002684,-1.00967,-0.16716,-0.24248,0.34804
-0,0,0,5,5,5,5,2.55959,0.240764,67.7587,-0.000149199,-0.000840231,0.00262089,0,0,0,3.395,-0.21,-1.19,-0.036234,-0.033306,-1.00906,-0.16716,-0.24248,0.34804
-0,0,0,5,5,5,5,2.56069,0.240306,67.7637,-0.000141204,-0.000820996,0.00262007,0,0,0,3.3425,-0.2625,-1.1025,-0.036234,-0.033306,-1.00906,-0.16716,-0.24248,0.34804
-0,0,0,5,5,5,5,2.56183,0.238047,67.769,-0.00204556,-0.000678964,0.00704549,0,0,0,3.535,-0.175,-1.1725,-0.038186,-0.033184,-1.00467,-0.16716,-0.24248,0.34804
-0,0,0,5,5,5,5,2.56302,0.236452,67.7742,-0.00201772,-0.000658334,0.00704468,0,0,0,3.57,0.1925,-1.1725,-0.038186,-0.033184,-1.00467,-0.16716,-0.24248,0.34804
-0,0,0,5,5,5,5,2.56113,0.233503,67.7811,-0.00281664,0.00114072,0.00434149,0,0,0,3.5525,0.14,-1.12,-0.03904,-0.031354,-1.00735,-0.16716,-0.24248,0.34804
-0,0,0,5,5,5,5,2.55913,0.23044,67.7865,-0.00276319,0.00110576,0.00434327,0,0,0,3.4475,0.035,-1.155,-0.03904,-0.031354,-1.00735,-0.16898,-0.24444,0.36036
-0,0,0,5,5,5,5,2.5614,0.230037,67.7894,-0.000690894,-0.00166358,-0.000945252,0,0,0,3.5,0.0175,-1.2075,-0.036966,-0.03416,-1.0126,-0.16898,-0.24444,0.36036
-0,0,0,5,5,5,5,2.5637,0.229242,67.7924,-0.000677019,-0.00162334,-0.000946997,0,0,0,3.5525,-0.21,-1.1725,-0.036966,-0.03416,-1.0126,-0.16898,-0.24444,0.36036
-0,0,0,5,5,5,5,2.56624,0.228882,67.7953,-0.0001848,-0.00170126,-0.00267023,0,0,0,3.6225,-0.245,-1.085,-0.036478,-0.034282,-1.01431,-0.16898,-0.24444,0.36036
-0,0,0,5,5,5,5,2.56871,0.229068,67.798,-0.000188038,-0.00165816,-0.00267218,0,0,0,3.6225,0.07,-1.225,-0.036478,-0.034282,-1.01431,-0.16898,-0.24444,0.36036
-0,0,0,5,5,5,5,2.56949,0.228376,67.8015,-0.000783397,-0.000301153,0.00421238,0,0,0,3.605,0.035,-1.225,-0.037088,-0.03294,-1.00748,-0.16898,-0.24444,0.36036
-0,0,0,5,5,5,5,2.57004,0.227454,67.805,-0.000767305,-0.000291644,0.00421201,0,0,0,3.4825,-0.105,-1.2075,-0.037088,-0.03294,-1.00748,-0.16898,-0.24444,0.36036
-0,0,0,5,5,5,5,2.56863,0.228124,67.8092,0.000921808,0.00102723,-0.00414743,0,0,0,3.5875,0.035,-1.155,-0.03538,-0.031598,-1.01577,-0.16898,-0.24444,0.36036
-0,0,0,5,5,5,5,2.56723,0.228515,67.8105,0.000914976,0.00100275,-0.00414636,0,0,0,3.57,-0.1225,-1.12,-0.03538,-0.031598,-1.01577,-0.17038,-0.24178,0.3507
-0,0,0,5,5,5,5,2.56745,0.225715,67.8114,-0.00243775,-0.000580928,-0.00574467,0,0,0,3.64,-0.1575,-1.2425,-0.038796,-0.033184,-1.01736,-0.17038,-0.24178,0.3507
-0,0,0,5,5,5,5,2.56778,0.223054,67.8122,-0.00239131,-0.000575251,-0.00574475,0,0,0,3.6925,-0.105,-1.26,-0.038796,-0.033184,-1.01736,-0.17038,-0.24178,0.3507
-0,0,0,5,5,5,5,2.56556,0.225055,67.8134,0.00255468,0.00182858,-0.00242354,0,0,0,3.535,-0.0875,-1.19,-0.033794,-0.030744,-1.01406,-0.17038,-0.24178,0.3507
-0,0,0,5,5,5,5,2.56336,0.226946,67.8144,0.00252168,0.00179017,-0.00242195,0,0,0,3.5175,-0.14,-1.2775,-0.033794,-0.030744,-1.01406,-0.17038,-0.24178,0.3507
-0,0,0,5,5,5,5,2.56438,0.228765,67.814,0.00188251,-0.000268149,0.00101968,0,0,0,3.57,-0.0875,-1.295,-0.034404,-0.032818,-1.01065,-0.17038,-0.24178,0.3507
-0,0,0,5,5,5,5,2.5654,0.2307,67.8136,0.00184872,-0.00025034,0.00101875,0,0,0,3.5875,0,-1.3475,-0.034404,-0.032818,-1.01065,-0.17038,-0.24178,0.3507
-0,0,0,5,5,5,5,2.56733,0.23183,67.8129,0.00073564,-0.000705247,0.00556626,0,0,0,3.675,0.105,-1.3475,-0.035502,-0.033306,-1.00613,-0.17038,-0.24178,0.3507
-0,0,0,5,5,5,5,2.56911,0.233069,67.8175,0.000714007,-0.00067423,0.00556478,0,0,0,3.6225,0.1925,-1.2075,-0.035502,-0.033306,-1.00613,-0.16674,-0.24276,0.3514
