pid_x,pid_y,pid_z,front_left_speed,front_right_speed,back_left_speed,back_right_speed,orientation_x,orientation_y,orientation_z,acceleration_x,acceleration_y,acceleration_z,accel_rejected,mag_rejected,ahrs_initialized,gyro_x,gyro_y,gyro_z,accel_x,accel_y,accel_z,mag_x,mag_y,mag_z
-0.0140155,0,0,10.014,10.014,9.98598,9.98598,0.0077864,0.00916776,0.694985,0.0030425,-0.00677028,0.000184818,0,0,0,4.27,1.05,-0.84,-0.037088,0.005246,-1.01248,-0.16884,-0.24542,0.32816
-0.0280891,0,0,10.0281,10.0281,9.97191,9.97191,0.015605,0.0178553,1.38667,0.0026479,-0.00651169,0.00288962,0,0,0,4.41,1.19,-0.91,-0.037332,0.005368,-1.00979,-0.16884,-0.24542,0.32816
-0.0415352,0,0,10.0415,10.0415,9.95846,9.95846,0.0230751,0.0264749,2.07444,0.00249746,-0.00638131,0.00288952,0,0,0,4.27,1.33,-1.26,-0.037332,0.005368,-1.00979,-0.16884,-0.24542,0.32816
-0.0577293,0,0,10.0577,10.0577,9.94227,9.94227,0.0320718,0.038435,2.75722,0.00411101,-0.00744556,0.00608599,0,0,0,4.34,1.47,-1.12,-0.035502,0.004148,-1.00662,-0.16884,-0.24542,0.32816
-0.0741548,0,0,10.0742,10.0742,9.92585,9.92585,0.0411971,0.0498385,3.43321,0.00391198,-0.00728629,0.00608573,0,0,0,4.48,1.4,-0.91,-0.035502,0.004148,-1.00662,-0.16786,-0.24234,0.32858
-0.0901128,0,0,10.0901,10.0901,9.90989,9.90989,0.0500627,0.0633202,4.10368,0.00586342,-0.00713156,0.000429745,0,0,0,4.41,1.12,-0.91,-0.033306,0.004148,-1.01223,-0.16786,-0.24234,0.32858
-0.104162,0,0,10.1042,10.1042,9.89584,9.89584,0.0578675,0.0747441,4.77121,0.00481364,-0.00638471,0.00719154,0,0,0,4.27,1.05,-0.91,-0.03416,0.004758,-1.00552,-0.16786,-0.24234,0.32858
-0.118021,0,0,10.118,10.118,9.88198,9.88198,0.0655675,0.0857921,5.43518,0.00462081,-0.00625032,0.00719113,0,0,0,4.27,1.05,-0.91,-0.03416,0.004758,-1.00552,-0.16786,-0.24234,0.32858
-0.13241,0,0,10.1324,10.1324,9.86759,9.86759,0.0735611,0.0948476,6.09569,0.00349088,-0.00623293,-0.00227632,0,0,0,4.48,0.91,-1.12,-0.035136,0.004636,-1.01492,-0.16786,-0.24234,0.32858
-0.144262,0,0,10.1443,10.1443,9.85574,9.85574,0.0801458,0.102813,6.75295,0.00310888,-0.00501886,0.00423955,0,0,0,4.48,1.05,-0.91,-0.03538,0.005734,-1.00845,-0.16786,-0.24234,0.32858
-0.155938,0,0,10.1559,10.1559,9.84406,9.84406,0.0866325,0.110502,7.40645,0.00297469,-0.00490565,0.00423914,0,0,0,4.48,1.05,-0.91,-0.03538,0.005734,-1.00845,-0.16786,-0.24234,0.32858
-0.167594,0,0,10.1676,10.1676,9.83241,9.83241,0.0931075,0.116607,8.05666,0.00201774,-0.00503689,-0.00215457,0,0,0,4.41,0.91,-0.84,-0.036234,0.00549,-1.0148,-0.16786,-0.24234,0.32858
-0.174825,0,0,10.1748,10.1748,9.82517,9.82517,0.0971251,0.119426,8.70245,0.000753671,-0.00289062,0.000427128,0,0,0,4.55,0.91,-0.98,-0.037454,0.007564,-1.01223,-0.16702,-0.24374,0.33306
-0.189317,0,0,10.1893,10.1893,9.81068,9.81068,0.105176,0.132557,9.33797,0.00659877,-0.00580328,0.00386893,0,0,0,4.55,0.91,-1.26,-0.031354,0.004514,-1.00882,-0.16702,-0.24374,0.33306
-0.202226,0,0,10.2022,10.2022,9.79777,9.79777,0.112348,0.140938,9.9726,0.00329388,-0.00494535,-0.00326267,0,0,0,4.76,1.26,-1.05,-0.034526,0.005246,-1.01589,-0.16702,-0.24374,0.33306
-0.208643,0,0,10.2086,10.2086,9.79136,9.79136,0.115913,0.14822,10.6032,0.00365273,-0.00317335,-0.00129593,0,0,0,3.99,1.05,-0.84,-0.034038,0.006954,-1.01394,-0.16702,-0.24374,0.33306
-0.221831,0,0,10.2218,10.2218,9.77817,9.77817,0.12324,0.156097,11.2298,0.00266485,-0.00597652,0.00128535,0,0,0,4.06,1.05,-0.91,-0.034892,0.004026,-1.01138,-0.16702,-0.24374,0.33306
-0.235476,0,0,10.2355,10.2355,9.76452,9.76452,0.13082,0.163566,11.8526,0.00253449,-0.00584421,0.0012847,0,0,0,4.27,0.98,-0.63,-0.034892,0.004026,-1.01138,-0.16702,-0.24374,0.33306
-0.245452,0,0,10.2455,10.2455,9.75455,9.75455,0.136362,0.170684,12.4702,0.00350362,-0.00391559,0.00214475,0,0,0,4.48,0.77,-0.77,-0.033794,0.005856,-1.01053,-0.16702,-0.24374,0.33306
-0.253076,0,0,10.2531,10.2531,9.74692,9.74692,0.140598,0.172496,13.0841,-0.000537018,-0.00335316,0.00546408,0,0,0,4.27,1.19,-0.98,-0.03782,0.006344,-1.00723,-0.1694,-0.24416,0.33558
-0.261128,0,0,10.2611,10.2611,9.73887,9.73887,0.145071,0.180665,13.6901,0.00369388,-0.00339721,0.00681588,0,0,0,4.2,1.4,-0.84,-0.033428,0.006222,-1.00589,-0.1694,-0.24416,0.33558
-0.268044,0,0,10.268,10.268,9.73196,9.73196,0.148913,0.181785,14.2957,-0.000942111,-0.0030859,-0.00154485,0,0,0,4.27,1.26,-0.84,-0.038064,0.006466,-1.01419,-0.1694,-0.24416,0.33558
-0.277529,0,0,10.2775,10.2775,9.72247,9.72247,0.154183,0.19029,14.8918,0.00401184,-0.00384882,0.0044789,0,0,0,4.27,1.19,-1.12,-0.03294,0.005612,-1.00821,-0.1694,-0.24416,0.33558
-0.285118,0,0,10.2851,10.2851,9.71488,9.71488,0.158399,0.190813,15.4875,-0.00109969,-0.00304247,0.0022656,0,0,0,4.48,1.05,-1.33,-0.038064,0.006344,-1.0104,-0.1694,-0.24416,0.33558
-0.292565,0,0,10.2926,10.2926,9.70744,9.70744,0.162536,0.191271,16.079,-0.00110767,-0.00297027,0.00226537,0,0,0,4.48,1.05,-1.19,-0.038064,0.006344,-1.0104,-0.1694,-0.24416,0.33558
-0.297796,0,0,10.2978,10.2978,9.7022,9.7022,0.165442,0.191171,16.6657,-0.000862957,-0.00206465,-0.00265271,0,0,0,4.48,0.91,-1.05,-0.03782,0.007198,-1.01528,-0.16744,-0.24262,0.33502
-0.308317,0,0,10.3083,10.3083,9.69168,9.69168,0.171287,0.20036,17.2425,0.00492946,-0.00391667,0.00681348,0,0,0,4.41,0.84,-0.98,-0.031842,0.005246,-1.00589,-0.16744,-0.24262,0.33502
-0.314192,0,0,10.3142,10.3142,9.68581,9.68581,0.174551,0.199891,17.82,-0.00113664,-0.00276056,0.00373962,0,0,0,4.13,0.63,-1.05,-0.037942,0.006344,-1.00894,-0.16744,-0.24262,0.33502
-0.324531,0,0,10.3245,10.3245,9.67547,9.67547,0.180295,0.200495,18.3929,-0.00163313,-0.0048586,0.00324748,0,0,0,3.92,0.84,-0.98,-0.03843,0.004148,-1.00943,-0.16744,-0.24262,0.33502
-0.333308,0,0,10.3333,10.3333,9.66669,9.66669,0.185171,0.207378,18.9572,0.00334915,-0.00367436,-0.0027777,0,0,0,4.13,0.98,-0.98,-0.033306,0.005246,-1.01541,-0.16744,-0.24262,0.33502
-0.341463,0,0,10.3415,10.3415,9.65854,9.65854,0.189702,0.214271,19.5168,0.00322883,-0.00359528,-0.0027784,0,0,0,3.99,1.12,-1.05,-0.033306,0.005246,-1.01541,-0.16744,-0.24262,0.33502
-0.374812,0,0,10.3748,10.3748,9.62519,9.62519,0.208229,0.182493,20.0962,-0.0307185,-0.0159731,0.000173164,0,0,0,3.85,1.12,-1.05,-0.067954,-0.007442,-1.01248,-0.16744,-0.24262,0.33502
-0.268663,0,0,10.2687,10.2687,9.73134,9.73134,0.149257,0.121853,20.6825,-0.0238288,0.0397866,0.0309163,0,0,0,4.62,1.12,-1.19,-0.062098,0.049288,-0.981978,-0.16842,-0.2443,0.33768
-0.483037,0,0,10.483,10.483,9.51696,9.51696,0.268354,0.417057,21.0485,0.174022,-0.0708579,0.0503104,0,0,0,4.41,0.7,-0.84,0.141764,-0.063318,-0.962702,-0.16842,-0.2443,0.33768
-0.381305,0,0,10.3813,10.3813,9.6187,9.6187,0.211836,0.123798,21.7542,-0.20269,0.0268342,0.00755258,0,0,0,4.41,0.77,-1.19,-0.241682,0.035258,-1.00516,-0.16842,-0.2443,0.33768
-0.61861,0,0,10.6186,10.6186,9.38139,9.38139,0.343672,0.385795,22.134,0.144803,-0.079802,0.0510449,0,0,0,4.48,1.61,-1.05,0.111874,-0.073566,-0.96197,-0.16842,-0.2443,0.33768
-0.851352,0,0,10.8514,10.8514,9.14865,9.14865,0.472973,0.63964,22.5107,0.140373,-0.0775457,0.0509891,0,0,0,4.76,1.4,-1.33,0.111874,-0.073566,-0.96197,-0.16842,-0.2443,0.33768
-0.968523,0,0,10.9685,10.9685,9.03148,9.03148,0.538068,1.00491,22.7988,0.298612,-0.0340326,-0.126896,0,0,0,4.62,0.56,-1.33,0.277184,-0.031232,-1.13838,-0.16842,-0.2443,0.33768
-0.673324,0,0,10.6733,10.6733,9.32668,9.32668,0.374069,0.647477,23.5097,-0.207942,0.0976899,0.0532134,0,0,0,4.76,0.63,-1.61,-0.237778,0.103212,-0.959774,-0.16842,-0.2443,0.33768
-0.32791,0,0,10.3279,10.3279,9.67209,9.67209,0.182172,0.965298,23.7893,0.262128,0.136719,0.184952,0,0,0,4.48,1.89,-1.19,0.239852,0.145546,-0.82899,-0.16156,-0.23772,0.34566
-0.325553,0,0,10.3256,10.3256,9.67445,9.67445,0.180863,0.966937,23.7892,-0.0916667,-0.031717,-0.132624,1,0,0,3.64,2.03,-1.05,-0.115412,-0.022692,-1.14412,-0.16156,-0.23772,0.34566
-0.405073,0,0,10.4051,10.4051,9.59493,9.59493,0.22504,0.866508,24.3531,-0.0907645,-0.0379072,0.0166608,0,0,0,3.64,1.26,-0.91,-0.116266,-0.029646,-0.996008,-0.16156,-0.23772,0.34566
-0.48325,0,0,10.4833,10.4833,9.51675,9.51675,0.268472,0.766877,24.9118,-0.0890258,-0.0371491,0.0166823,0,0,0,3.71,0.63,-0.7,-0.116266,-0.029646,-0.996008,-0.16156,-0.23772,0.34566
-0.692562,0,0,10.6926,10.6926,9.30744,9.30744,0.384757,0.585178,25.5082,-0.197257,-0.106564,-0.101691,0,0,0,4.2,0.98,-0.56,-0.22814,-0.101016,-1.11349,-0.16156,-0.23772,0.34566
-0.588598,0,0,10.5886,10.5886,9.4114,9.4114,0.326999,0.593111,25.9985,0.0238298,0.0416672,0.00872137,0,0,0,4.41,1.61,0,-0.005978,0.048068,-1.00394,-0.16156,-0.23772,0.34566
-0.489356,0,0,10.4894,10.4894,9.51064,9.51064,0.271864,0.599743,26.4736,0.0237141,0.040705,0.0087252,0,0,0,5.04,0.28,0.28,-0.005978,0.048068,-1.00394,-0.16576,-0.23086,0.34678
-0.644745,0,0,10.6447,10.6447,9.35526,9.35526,0.358191,0.84975,26.7905,0.170358,-0.0486511,-0.0204771,0,0,0,4.69,0.91,0.56,0.145668,-0.0427,-1.03285,-0.16576,-0.23086,0.34678
-0.580302,0,0,10.5803,10.5803,9.4197,9.4197,0.32239,1.01029,27.1618,0.104262,0.0303505,0.193534,0,0,0,4.9,2.59,0.7,0.082106,0.036844,-0.82045,-0.16576,-0.23086,0.34678
-0.700844,0,0,10.7008,10.7008,9.29916,9.29916,0.389358,0.69517,27.793,-0.259191,-0.0663038,0.0520954,0,0,0,4.2,2.1,0.63,-0.288408,-0.060878,-0.960872,-0.16576,-0.23086,0.34678
-0.924363,0,0,10.9244,10.9244,9.07564,9.07564,0.513535,0.853688,28.1524,0.0904729,-0.0873412,-0.0784075,0,0,0,3.57,1.26,0.56,0.065514,-0.084058,-1.09031,-0.16576,-0.23086,0.34678
-0.547188,0,0,10.5472,10.5472,9.45281,9.45281,0.303993,0.838515,28.6208,0.049311,0.140799,0.0671936,0,0,0,4.76,0.77,0.7,0.023912,0.147498,-0.945866,-0.16576,-0.23086,0.34678
-0.837497,0,0,10.8375,10.8375,9.1625,9.1625,0.465276,0.788387,29.0873,-0.0912235,-0.123234,-0.0445731,0,0,0,5.25,0.91,0.07,-0.118096,-0.119072,-1.05676,-0.16576,-0.23086,0.34678
-1.12389,0,0,11.1239,11.1239,8.87611,8.87611,0.624384,0.736746,29.5487,-0.0903223,-0.120457,-0.0445875,0,0,0,6.02,0.35,-0.21,-0.118096,-0.119072,-1.05676,-0.16324,-0.22988,0.34748
-1.12604,0,0,11.126,11.126,8.87396,8.87396,0.625578,0.735274,29.549,-0.212633,0.0857139,0.141188,1,0,0,5.04,0.21,-0.77,-0.24095,0.086864,-0.872422,-0.16324,-0.22988,0.34748
-1.12658,0,0,11.1266,11.1266,8.87342,8.87342,0.62588,0.73549,29.548,-0.212636,0.0857192,0.141188,1,0,0,4.55,1.19,-1.61,-0.24095,0.086864,-0.872422,-0.16324,-0.22988,0.34748
-1.12285,0,0,11.1228,11.1228,8.87715,8.87715,0.623805,0.736427,29.5466,-0.00794941,0.159081,0.13627,1,0,0,3.22,1.61,-1.82,-0.03538,0.160186,-0.877302,-0.16324,-0.22988,0.34748
-1.11661,0,0,11.1166,11.1166,8.88339,8.88339,0.620341,0.738572,29.544,-0.00798684,0.159021,0.13627,1,0,0,2.45,2.31,-2.52,-0.03538,0.160186,-0.877302,-0.16324,-0.22988,0.34748
-1.11262,0,0,11.1126,11.1126,8.88738,8.88738,0.618119,0.740602,29.541,-0.0601396,0.0135289,0.157663,1,0,0,3.15,2.24,-2.8,-0.087718,0.014884,-0.856074,-0.16324,-0.22988,0.34748
-0.973578,0,0,10.9736,10.9736,9.02642,9.02642,0.540877,1.03314,29.7976,0.22462,0.0672594,0.123418,0,0,0,3.64,0.84,-2.73,0.203374,0.069906,-0.88999,-0.16324,-0.22988,0.34748
-0.841472,0,0,10.8415,10.8415,9.15853,9.15853,0.467484,1.31985,30.0363,0.219617,0.0659779,0.123327,0,0,0,4.55,-0.07,-3.29,0.203374,0.069906,-0.88999,-0.16506,-0.22148,0.35308
-0.8475,0,0,10.8475,10.8475,9.1525,9.1525,0.470833,1.31985,30.0325,0.230429,0.0880191,0.197218,1,0,0,6.3,1.05,-3.22,0.214232,0.091866,-0.816668,-0.16506,-0.22148,0.35308
-0.852399,0,0,10.8524,10.8524,9.1476,9.1476,0.473555,1.31889,30.0286,-0.324136,-0.107214,-0.184783,1,0,0,5.95,0.49,-3.29,-0.342698,-0.103212,-1.19572,-0.16506,-0.22148,0.35308
-0.860582,0,0,10.8606,10.8606,9.13942,9.13942,0.478101,1.68439,30.206,0.29526,0.0223182,0.00426704,0,0,0,4.83,0.35,-3.5,0.285724,0.026108,-1.00796,-0.16506,-0.22148,0.35308
-0.398489,0,0,10.3985,10.3985,9.60151,9.60151,0.221383,1.4553,30.7556,-0.0980016,0.153767,0.0935416,0,0,0,3.85,1.19,-3.15,-0.113216,0.161894,-0.919514,-0.16506,-0.22148,0.35308
0.0564032,0,0,9.9436,9.9436,10.0564,10.0564,-0.0313351,1.2365,31.3028,-0.0941839,0.149358,0.0936386,0,0,0,2.87,2.59,-2.94,-0.113216,0.161894,-0.919514,-0.16506,-0.22148,0.35308
0.0606148,0,0,9.93939,9.93939,10.0606,10.0606,-0.0336749,1.23945,31.3013,0.0657613,0.0348842,0.216832,1,0,0,3.08,2.8,-1.89,0.047458,0.04758,-0.79727,-0.16506,-0.22148,0.35308
-0.0137639,0,0,10.0138,10.0138,9.98624,9.98624,0.0076466,1.05244,31.7996,-0.156331,-0.0428001,0.0214092,0,0,0,3.64,1.33,-1.54,-0.178852,-0.030744,-0.99125,-0.1694,-0.21896,0.35112
-0.4143,0,0,10.4143,10.4143,9.5857,9.5857,0.230166,1.02471,32.1842,-0.0842924,-0.158968,0.0109593,0,0,0,4.76,0.21,-0.35,-0.106994,-0.15067,-1.00162,-0.1694,-0.21896,0.35112
-0.452686,0,0,10.4527,10.4527,9.54731,9.54731,0.251492,1.23839,32.4506,0.161025,0.0027336,0.0175233,0,0,0,6.3,0.49,0,0.143106,0.010492,-0.995032,-0.1694,-0.21896,0.35112
-0.486931,0,0,10.4869,10.4869,9.51307,9.51307,0.270517,1.44745,32.7156,0.157377,0.00306517,0.0174362,0,0,0,5.46,0.77,0.49,0.143106,0.010492,-0.995032,-0.1694,-0.21896,0.35112
-0.67993,0,0,10.6799,10.6799,9.32007,9.32007,0.377739,1.61556,32.9915,0.107186,-0.0652875,-0.0376107,0,0,0,5.39,1.05,0.77,0.095648,-0.059658,-1.04957,-0.1694,-0.21896,0.35112
-0.867897,0,0,10.8679,10.8679,9.1321,9.1321,0.482165,1.77873,33.2651,0.104339,-0.0634664,-0.0377087,0,0,0,5.39,1.05,0.77,0.095648,-0.059658,-1.04957,-0.1694,-0.21896,0.35112
-0.82998,0,0,10.83,10.83,9.17002,9.17002,0.4611,1.65518,33.7099,-0.0963866,0.00541252,-0.0850992,0,0,0,4.41,1.61,0.84,-0.108092,0.009516,-1.09666,-0.1694,-0.21896,0.35112
-0.79327,0,0,10.7933,10.7933,9.20673,9.20673,0.440705,1.53477,34.1502,-0.0942857,0.00505718,-0.0850379,0,0,0,4.41,1.61,0.84,-0.108092,0.009516,-1.09666,-0.1694,-0.21896,0.35112
-0.327319,0,0,10.3273,10.3273,9.67268,9.67268,0.181844,1.1344,34.7578,-0.24183,0.146849,0.0545729,0,0,0,2.94,1.61,1.4,-0.263276,0.155672,-0.95831,-0.16842,-0.21574,0.36106
-0.323093,0,0,10.3231,10.3231,9.67691,9.67691,0.179496,1.13424,34.7621,0.314213,0.0180867,0.249201,1,0,0,3.01,0.98,1.47,0.295118,0.027084,-0.765184,-0.16842,-0.21574,0.36106
-0.323318,0,0,10.3233,10.3233,9.67668,9.67668,0.179621,1.13156,34.7651,0.31426,0.0180889,0.249202,1,0,0,4.41,-0.49,0.77,0.295118,0.027084,-0.765184,-0.16842,-0.21574,0.36106
-0.143958,0,0,10.144,10.144,9.85604,9.85604,0.0799769,1.3215,35.0283,0.167835,0.0804665,0.0731952,0,0,0,4.9,-0.63,0.35,0.151402,0.091134,-0.939766,-0.16842,-0.21574,0.36106
0.0284993,0,0,9.9715,9.9715,10.0285,10.0285,-0.0158329,1.5098,35.2879,0.16455,0.0787948,0.0731149,0,0,0,5.95,0.42,-0.56,0.151402,0.091134,-0.939766,-0.16842,-0.21574,0.36106
0.307664,0,0,9.69234,9.69234,10.3077,10.3077,-0.170924,1.32076,35.7657,-0.11084,0.102346,-0.0411501,0,0,0,7,1.05,-0.84,-0.128466,0.117364,-1.05323,-0.16842,-0.21574,0.36106
0.584488,0,0,9.41551,9.41551,10.5845,10.5845,-0.324716,1.13858,36.2385,-0.107661,0.0996621,-0.0410935,0,0,0,5.6,1.61,-1.54,-0.128466,0.117364,-1.05323,-0.16842,-0.21574,0.36106
0.581266,0,0,9.41873,9.41873,10.5813,10.5813,-0.322926,1.13985,36.2373,0.0405294,-0.114639,-0.101093,1,0,0,5.39,1.82,-1.68,0.020374,-0.096746,-1.11276,-0.16842,-0.21574,0.36106
0.579198,0,0,9.4208,9.4208,10.5792,10.5792,-0.321776,1.14088,36.2353,0.0405114,-0.114619,-0.101093,1,0,0,5.04,1.68,-2.17,0.020374,-0.096746,-1.11276,-0.16618,-0.22134,0.3647
0.581192,0,0,9.41881,9.41881,10.5812,10.5812,-0.322884,1.14179,36.2328,-0.335381,0.152086,-0.0472418,1,0,0,3.78,1.61,-2.45,-0.357094,0.169702,-1.05933,-0.16618,-0.22134,0.3647
0.585662,0,0,9.41434,9.41434,10.5857,10.5857,-0.325368,1.14258,36.2302,-0.335395,0.152043,-0.0472423,1,0,0,3.01,1.54,-2.52,-0.357094,0.169702,-1.05933,-0.16618,-0.22134,0.3647
0.357464,0,0,9.64254,9.64254,10.3575,10.3575,-0.198591,0.800985,36.7307,-0.327126,-0.122118,-0.0138121,0,0,0,3.43,1.33,-2.52,-0.354776,-0.106384,-1.02626,-0.16618,-0.22134,0.3647
0.132093,0,0,9.86791,9.86791,10.1321,10.1321,-0.0733848,0.463616,37.2225,-0.321238,-0.119933,-0.0137419,0,0,0,3.85,0.14,-3.22,-0.354776,-0.106384,-1.02626,-0.16618,-0.22134,0.3647
0.088881,0,0,9.91112,9.91112,10.0889,10.0889,-0.0493783,0.181352,37.7071,-0.244756,-0.0406201,-0.0410083,0,0,0,4.2,-0.63,-3.29,-0.282918,-0.027572,-1.05335,-0.16618,-0.22134,0.3647
0.0407871,0,0,9.95921,9.95921,10.0408,10.0408,-0.0226595,-0.0927049,38.1867,-0.239973,-0.0401538,-0.0410043,0,0,0,5.74,0.56,-2.66,-0.282918,-0.027572,-1.05335,-0.16618,-0.22134,0.3647
-0.0411249,0,0,10.0411,10.0411,9.95888,9.95888,0.0228471,0.061947,38.4424,0.122028,-0.0189643,-0.0851421,0,0,0,5.95,1.4,-2.87,0.083326,-0.007198,-1.09715,-0.16618,-0.22134,0.3647
-0.121747,0,0,10.1217,10.1217,9.87825,9.87825,0.0676371,0.214787,38.7049,0.11936,-0.0181826,-0.0851491,0,0,0,6.09,2.31,-2.45,0.083326,-0.007198,-1.09715,-0.16632,-0.22316,0.34944
-0.0147461,0,0,10.0147,10.0147,9.98525,9.98525,0.00819227,0.339325,38.9976,0.113056,0.0513691,0.0117245,0,0,0,5.67,2.66,-2.1,0.079178,0.063318,-1.00101,-0.16632,-0.22316,0.34944
0.0950166,0,0,9.90498,9.90498,10.095,10.095,-0.052787,0.460529,39.2895,0.110941,0.0503049,0.0117093,0,0,0,4.13,2.03,-1.12,0.079178,0.063318,-1.00101,-0.16632,-0.22316,0.34944
0.393344,0,0,9.60666,9.60666,10.3933,10.3933,-0.218524,0.506653,39.6366,0.0708958,0.104446,0.0970219,0,0,0,3.5,1.89,-0.77,0.039772,0.120292,-0.916342,-0.16632,-0.22316,0.34944
0.68537,0,0,9.31463,9.31463,10.6854,10.6854,-0.380761,0.552039,39.9817,0.0701038,0.101614,0.0969998,0,0,0,3.29,1.19,-0.42,0.039772,0.120292,-0.916342,-0.16632,-0.22316,0.34944
0.687848,0,0,9.31215,9.31215,10.6878,10.6878,-0.382138,0.551977,40.0134,-0.158045,0.102689,0.167326,1,0,0,3.43,0.91,17.5,-0.189344,0.12139,-0.846558,-0.16632,-0.22316,0.34944
0.689255,0,0,9.31074,9.31074,10.6893,10.6893,-0.38292,0.550886,40.0162,-0.158026,0.102676,0.167326,1,0,0,3.92,0.42,0.63,-0.189344,0.12139,-0.846558,-0.16632,-0.22316,0.34944
0.747729,0,0,9.25227,9.25227,10.7477,10.7477,-0.415405,0.69047,40.2856,0.114095,0.030909,0.0647569,0,0,0,4.55,0.42,0.35,0.086376,0.050264,-0.948306,-0.16632,-0.22316,0.34944
0.800286,0,0,9.19971,9.19971,10.8003,10.8003,-0.444603,0.828012,40.5404,0.111695,0.0303997,0.0647212,0,0,0,5.6,0.28,0.21,0.086376,0.050264,-0.948306,-0.1743,-0.22274,0.35854
0.773984,0,0,9.22602,9.22602,10.774,10.774,-0.429991,0.83049,40.8536,6.39963e-06,-0.00818161,-0.067693,0,0,0,5.6,0.91,0.56,-0.025742,0.011468,-1.0797,-0.1743,-0.22274,0.35854
0.748548,0,0,9.25145,9.25145,10.7485,10.7485,-0.41586,0.835054,41.1641,-7.32405e-05,-0.007935,-0.0676923,0,0,0,5.53,2.24,0.91,-0.025742,0.011468,-1.0797,-0.1743,-0.22274,0.35854
1.06046,0,0,8.93954,8.93954,11.0605,11.0605,-0.589143,0.660154,41.5984,-0.102471,0.108236,-0.0331305,0,0,0,5.11,1.89,0.63,-0.131638,0.13054,-1.04542,-0.1743,-0.22274,0.35854
1.36877,0,0,8.63123,8.63123,11.3688,11.3688,-0.76043,0.48993,42.0284,-0.0994997,0.105247,-0.0331359,0,0,0,3.71,1.33,0.35,-0.131638,0.13054,-1.04542,-0.1743,-0.22274,0.35854
1.37131,0,0,8.62869,8.62869,11.3713,11.3713,-0.761841,0.490407,42.031,-0.0516427,-0.0956763,0.136164,1,0,0,3.57,1.33,0.49,-0.08357,-0.07015,-0.877424,-0.1743,-0.22274,0.35854
1.37453,0,0,8.62547,8.62547,11.3745,11.3745,-0.76363,0.49112,42.0332,-0.0516551,-0.0957075,0.136163,1,0,0,3.36,1.47,0.28,-0.08357,-0.07015,-0.877424,-0.1743,-0.22274,0.35854
1.37844,0,0,8.62156,8.62156,11.3784,11.3784,-0.765802,0.490145,42.0343,-0.203495,0.0120925,0.125958,1,0,0,3.15,0.49,-0.35,-0.23607,0.037576,-0.88755,-0.1743,-0.22274,0.35854
1.38235,0,0,8.61765,8.61765,11.3824,11.3824,-0.767975,0.48917,42.0355,-0.203478,0.0120546,0.125958,1,0,0,3.15,0.49,-0.35,-0.23607,0.037576,-0.88755,-0.17052,-0.22218,0.35168
0.986811,0,0,9.01319,9.01319,10.9868,10.9868,-0.548228,0.561252,42.2567,0.00446217,-0.143608,-0.00777762,0,0,0,4.69,0.63,-1.19,-0.025986,-0.121756,-1.02029,-0.17052,-0.22218,0.35168
0.601663,0,0,9.39834,9.39834,10.6017,10.6017,-0.334257,0.629707,42.4758,0.00326747,-0.139874,-0.00776127,0,0,0,4.69,0.63,-1.19,-0.025986,-0.121756,-1.02029,-0.17052,-0.22218,0.35168
0.596411,0,0,9.40359,9.40359,10.5964,10.5964,-0.33134,0.629185,42.474,-0.0630546,0.0434895,-0.112759,1,0,0,6.02,0.77,-2.03,-0.092598,0.061366,-1.12447,-0.17052,-0.22218,0.35168
0.591159,0,0,9.40884,9.40884,10.5912,10.5912,-0.328422,0.628663,42.4723,-0.0630455,0.0435405,-0.112759,1,0,0,6.02,0.77,-2.03,-0.092598,0.061366,-1.12447,-0.17052,-0.22218,0.35168
0.719974,0,0,9.28003,9.28003,10.72,10.72,-0.399985,0.52009,42.8398,-0.0703836,0.0386276,0.0110617,0,0,0,4.55,1.47,-2.24,-0.10187,0.057706,-1.00162,-0.17052,-0.22218,0.35168
0.845172,0,0,9.15483,9.15483,10.8452,10.8452,-0.46954,0.414638,43.2036,-0.0685431,0.0374136,0.0110675,0,0,0,4.55,1.47,-2.24,-0.10187,0.057706,-1.00162,-0.17052,-0.22218,0.35168
0.851603,0,0,9.1484,9.1484,10.8516,10.8516,-0.473113,0.415301,43.2013,-0.125896,0.0926747,0.181351,1,0,0,2.38,1.47,-2.38,-0.159454,0.112972,-0.83265,-0.17052,-0.22218,0.35168
0.858033,0,0,9.14197,9.14197,10.858,10.858,-0.476685,0.415965,43.1989,-0.125908,0.0926123,0.18135,1,0,0,2.38,1.47,-2.38,-0.159454,0.112972,-0.83265,-0.17052,-0.22218,0.35168
0.7666,0,0,9.2334,9.2334,10.7666,10.7666,-0.425889,0.273877,43.553,-0.12197,-0.0445045,0.0627266,0,0,0,3.64,1.05,-2.94,-0.15799,-0.024888,-0.95038,-0.16856,-0.22946,0.3549
0.494662,0,0,9.50534,9.50534,10.4947,10.4947,-0.274812,0.519762,43.6936,0.150119,-0.0744755,0.0917288,0,0,0,4.69,1.33,-2.8,0.11956,-0.057462,-0.921588,-0.16856,-0.22946,0.3549
0.225708,0,0,9.77429,9.77429,10.2257,10.2257,-0.125394,0.757773,43.8338,0.145965,-0.0718677,0.0916916,0,0,0,6.23,0.56,-2.59,0.11956,-0.057462,-0.921588,-0.16856,-0.22946,0.3549
0.5241,0,0,9.4759,9.4759,10.5241,10.5241,-0.291167,0.709867,44.1852,0.00271891,0.112948,-0.0275682,0,0,0,6.37,0.7,-2.31,-0.025132,0.130052,-1.03993,-0.16856,-0.22946,0.3549
0.816527,0,0,9.18347,9.18347,10.8165,10.8165,-0.453626,0.665317,44.5339,0.00349639,0.110113,-0.0275773,0,0,0,5.88,1.19,-2.1,-0.025132,0.130052,-1.03993,-0.16856,-0.22946,0.3549
0.996526,0,0,9.00347,9.00347,10.9965,10.9965,-0.553626,0.572054,44.8896,-0.0547684,0.0628142,-0.0440502,0,0,0,5.25,1.47,-1.89,-0.085278,0.084546,-1.05628,-0.16856,-0.22946,0.3549
1.17814,0,0,8.82186,8.82186,11.1781,11.1781,-0.65452,0.481448,45.243,-0.0531871,0.0610533,-0.0440542,0,0,0,3.22,1.26,-1.12,-0.085278,0.084546,-1.05628,-0.16856,-0.22946,0.3549
1.18207,0,0,8.81793,8.81793,11.1821,11.1821,-0.656703,0.481891,45.2429,-0.0280473,0.0180266,0.157089,1,0,0,3.15,1.33,-1.05,-0.060024,0.041602,-0.856684,-0.16856,-0.22946,0.3549
1.18599,0,0,8.81401,8.81401,11.186,11.186,-0.658882,0.481861,45.2433,-0.0280468,0.0179886,0.157089,1,0,0,3.15,1.05,-0.77,-0.060024,0.041602,-0.856684,-0.17752,-0.2247,0.34594
1.19148,0,0,8.80852,8.80852,11.1915,11.1915,-0.661933,0.481236,45.2439,0.134876,-0.0372659,0.1384,1,0,0,2.66,0.7,-0.7,0.103578,-0.013542,-0.875228,-0.17752,-0.2247,0.34594
1.19405,0,0,8.80595,8.80595,11.194,11.194,-0.66336,0.480374,45.2446,0.134891,-0.0372908,0.1384,1,0,0,3.57,0.56,-0.56,0.103578,-0.013542,-0.875228,-0.17752,-0.2247,0.34594
0.965522,0,0,9.03448,9.03448,10.9655,10.9655,-0.536401,0.575608,45.4395,0.0480679,-0.0753769,0.00918875,0,0,0,4.41,0.63,-0.56,0.018056,-0.053802,-1.00345,-0.17752,-0.2247,0.34594
0.736844,0,0,9.26316,9.26316,10.7368,10.7368,-0.409358,0.666453,45.6325,0.0464825,-0.0731596,0.00918986,0,0,0,6.44,-0.07,-0.49,0.018056,-0.053802,-1.00345,-0.17752,-0.2247,0.34594
0.733319,0,0,9.26668,9.26668,10.7333,10.7333,-0.407399,0.664878,45.6342,0.0565933,-0.0726369,-0.179167,1,0,0,5.46,0.14,0,0.028182,-0.053314,-1.19035,-0.17752,-0.2247,0.34594
0.732239,0,0,9.26776,9.26776,10.7322,10.7322,-0.406799,0.664507,45.6373,0.0565998,-0.0726265,-0.179167,1,0,0,4.69,0.84,0.77,0.028182,-0.053314,-1.19035,-0.17752,-0.2247,0.34594
0.927471,0,0,9.07253,9.07253,10.9275,10.9275,-0.515262,0.684907,45.922,0.0433663,0.0764294,-0.0268528,0,0,0,4.2,1.19,0.56,0.01525,0.097478,-1.0392,-0.17752,-0.2247,0.34594
1.12163,0,0,8.87837,8.87837,11.1216,11.1216,-0.623129,0.705431,46.2199,0.0430081,0.074547,-0.0268758,0,0,0,3.43,1.4,0.77,0.01525,0.097478,-1.0392,-0.1666,-0.22862,0.34888
0.819977,0,0,9.18002,9.18002,10.82,10.82,-0.455543,0.536542,46.52,-0.183895,-0.130022,-0.00161189,0,0,0,2.94,1.19,0.7,-0.215574,-0.1098,-1.01419,-0.1666,-0.22862,0.34888
0.526059,0,0,9.47394,9.47394,10.5261,10.5261,-0.292255,0.36905,46.815,-0.180972,-0.127172,-0.00157019,0,0,0,2.73,0.77,0.35,-0.215574,-0.1098,-1.01419,-0.1666,-0.22862,0.34888
0.57079,0,0,9.42921,9.42921,10.5708,10.5708,-0.317106,0.381847,47.0852,0.0152469,0.0149158,0.0212945,0,0,0,2.59,0.98,0.28,-0.0183,0.032574,-0.991494,-0.1666,-0.22862,0.34888
0.608124,0,0,9.39188,9.39188,10.6081,10.6081,-0.337847,0.395872,47.3521,0.0150021,0.0145538,0.0212907,0,0,0,4.55,1.75,0,-0.0183,0.032574,-0.991494,-0.1666,-0.22862,0.34888
0.298039,0,0,9.70196,9.70196,10.298,10.298,-0.165577,0.444878,47.5442,0.00151229,-0.114459,-0.05825,0,0,0,5.39,1.4,-0.21,-0.030988,-0.099308,-1.07043,-0.1666,-0.22862,0.34888
-0.00474271,0,0,10.0047,10.0047,9.99526,9.99526,0.00263484,0.490047,47.7337,0.000723965,-0.111523,-0.0582523,0,0,0,5.74,0.63,-0.49,-0.030988,-0.099308,-1.07043,-0.1666,-0.22862,0.34888
-0.00891374,0,0,10.0089,10.0089,9.99109,9.99109,0.00495208,0.489893,47.7342,0.0736181,0.0844089,-0.102268,1,0,0,5.67,0.98,-0.7,0.042212,0.09638,-1.1141,-0.1666,-0.22862,0.34888
-0.0106034,0,0,10.0106,10.0106,9.9894,9.9894,0.00589077,0.490337,47.7341,0.0736103,0.0844253,-0.102268,1,0,0,4.9,1.33,-1.05,0.042212,0.09638,-1.1141,-0.16772,-0.23212,0.3409
-0.279192,0,0,10.2792,10.2792,9.72081,9.72081,0.155107,0.310114,48.0187,-0.195615,-0.122051,-0.0422507,0,0,0,4.41,1.19,-1.26,-0.231312,-0.112484,-1.05457,-0.16772,-0.23212,0.3409
-0.536447,0,0,10.5364,10.5364,9.46355,9.46355,0.298026,0.133322,48.2967,-0.19253,-0.119557,-0.0422486,0,0,0,2.8,1.68,-2.59,-0.231312,-0.112484,-1.05457,-0.16772,-0.23212,0.3409
-0.629649,0,0,10.6296,10.6296,9.37035,9.37035,0.349805,0.227085,48.4894,0.0620472,-0.0264476,0.0326168,0,0,0,2.45,1.75,-2.8,0.025986,-0.020374,-0.98027,-0.16772,-0.23212,0.3409
-0.724883,0,0,10.7249,10.7249,9.27512,9.27512,0.402713,0.317531,48.6805,0.0604687,-0.0255243,0.0326032,0,0,0,3.99,1.26,-2.66,0.025986,-0.020374,-0.98027,-0.16772,-0.23212,0.3409
-0.82066,0,0,10.8207,10.8207,9.17934,9.17934,0.455922,0.399031,48.8707,0.0588033,-0.0289923,-0.0456079,0,0,0,4.13,0.84,-3.08,0.025742,-0.024766,-1.05786,-0.16772,-0.23212,0.3409
-0.917327,0,0,10.9173,10.9173,9.08267,9.08267,0.509626,0.479396,49.0588,0.0574007,-0.0280551,-0.0456266,0,0,0,5.32,1.47,-3.22,0.025742,-0.024766,-1.05786,-0.16772,-0.23212,0.3409
-0.942488,0,0,10.9425,10.9425,9.05751,9.05751,0.523604,0.475741,49.2902,-0.00534362,-0.00875941,-0.0785784,0,0,0,6.09,1.12,-3.15,-0.037332,-0.005734,-1.09056,-0.16772,-0.23212,0.3409
-0.964078,0,0,10.9641,10.9641,9.03592,9.03592,0.535599,0.470979,49.5187,-0.0052605,-0.00855008,-0.0785797,0,0,0,5.18,0.49,-2.8,-0.037332,-0.005734,-1.09056,-0.17066,-0.23562,0.34342
-1.50517,0,0,11.5052,11.5052,8.49483,8.49483,0.836205,0.465405,49.6533,-0.0765968,-0.213851,-0.0604453,0,0,0,4.9,1.12,-2.73,-0.109068,-0.216062,-1.0725,-0.17066,-0.23562,0.34342
-2.03057,0,0,12.0306,12.0306,7.96943,7.96943,1.12809,0.457862,49.7863,-0.0764652,-0.208757,-0.0605316,0,0,0,4.55,1.33,-2.8,-0.109068,-0.216062,-1.0725,-0.17066,-0.23562,0.34342
-2.02757,0,0,12.0276,12.0276,7.97243,7.97243,1.12643,0.286268,50.0696,-0.137129,-0.0163139,0.052847,0,0,0,2.94,1.47,-2.66,-0.172996,-0.02379,-0.960018,-0.17066,-0.23562,0.34342
-2.02517,0,0,12.0252,12.0252,7.97483,7.97483,1.1251,0.118352,50.3503,-0.134198,-0.016337,0.0528578,0,0,0,2.8,1.4,-2.03,-0.172996,-0.02379,-0.960018,-0.17066,-0.23562,0.34342
-2.06067,0,0,12.0607,12.0607,7.93933,7.93933,1.14482,-0.000152988,50.6049,-0.097142,-0.0228319,0.0710495,0,0,0,3.57,1.68,-1.89,-0.13786,-0.030622,-0.941962,-0.17066,-0.23562,0.34342
-2.09857,0,0,12.0986,12.0986,7.90143,7.90143,1.16587,-0.116946,50.8574,-0.0951036,-0.0224645,0.07104,0,0,0,4.41,1.26,-1.19,-0.13786,-0.030622,-0.941962,-0.17066,-0.23562,0.34342
-1.82832,0,0,11.8283,11.8283,8.17168,8.17168,1.01573,-0.131856,51.1244,0.0197177,0.0974086,-0.0194008,0,0,0,4.41,1.47,-0.63,-0.022814,0.091744,-1.03175,-0.17066,-0.23562,0.34342
-1.56877,0,0,11.5688,11.5688,8.43123,8.43123,0.871538,-0.146938,51.3894,0.0199809,0.0948923,-0.01936,0,0,0,5.53,0.49,-0.21,-0.022814,0.091744,-1.03175,-0.17066,-0.23562,0.34342
-1.5736,0,0,11.5736,11.5736,8.4264,8.4264,0.87422,-0.147959,51.3915,0.068107,-0.0148529,-0.130014,1,0,0,5.88,0.49,0.21,0.025498,-0.017934,-1.14155,-0.17318,-0.23576,0.34146
-1.46468,0,0,11.4647,11.4647,8.53532,8.53532,0.813712,-0.199728,51.6425,-0.027935,0.0346516,0.033397,0,0,0,5.67,0.56,0.98,-0.071858,0.032574,-0.979416,-0.17318,-0.23576,0.34146
-1.35534,0,0,11.3553,11.3553,8.64466,8.64466,0.752967,-0.249385,51.8908,-0.0270683,0.0335915,0.0334081,0,0,0,4.55,0.84,1.12,-0.071858,0.032574,-0.979416,-0.17318,-0.23576,0.34146
-1.13852,0,0,11.1385,11.1385,8.86148,8.86148,0.632513,-0.29006,52.1533,-0.0080141,0.0686158,0.064782,0,0,0,3.64,1.12,1.26,-0.053436,0.069662,-0.948306,-0.17318,-0.23576,0.34146
-0.929458,0,0,10.9295,10.9295,9.07054,9.07054,0.516366,-0.327688,52.4127,-0.00735738,0.0665888,0.0647988,0,0,0,4.2,1.82,1.12,-0.053436,0.069662,-0.948306,-0.17318,-0.23576,0.34146
-0.800777,0,0,10.8008,10.8008,9.19922,9.19922,0.444876,-0.402579,52.6692,-0.0478414,0.0374961,0.0141461,0,0,0,4.13,1.47,0.84,-0.095404,0.041846,-0.99857,-0.17318,-0.23576,0.34146
-0.674364,0,0,10.6744,10.6744,9.32564,9.32564,0.374647,-0.475492,52.9228,-0.0465689,0.0362704,0.0141452,0,0,0,3.64,1.33,0.84,-0.095404,0.041846,-0.99857,-0.17318,-0.23576,0.34146
-1.11799,0,0,11.118,11.118,8.88201,8.88201,0.621104,-0.364417,52.9999,0.0423639,-0.153366,-0.0278034,0,0,0,4.13,1.82,0.84,-0.004148,-0.15189,-1.04017,-0.17318,-0.23576,0.34146
-1.54836,0,0,11.5484,11.5484,8.45164,8.45164,0.860201,-0.258098,53.0785,0.0405083,-0.149193,-0.0278473,0,0,0,4.27,1.68,0.7,-0.004148,-0.15189,-1.04017,-0.16954,-0.2338,0.34286
-1.54868,0,0,11.5487,11.5487,8.45132,8.45132,0.86038,-0.257692,53.0811,-0.113907,-0.0564955,-0.15055,1,0,0,4.48,1.33,0.49,-0.15921,-0.059292,-1.16193,-0.16954,-0.2338,0.34286
-1.55329,0,0,11.5533,11.5533,8.44671,8.44671,0.862938,-0.258697,53.0821,-0.11389,-0.0564508,-0.150551,1,0,0,5.81,0.49,-0.42,-0.15921,-0.059292,-1.16193,-0.16954,-0.2338,0.34286
-1.55745,0,0,11.5575,11.5575,8.44255,8.44255,0.86525,-0.259331,53.0822,-0.0765824,-0.0579981,-0.111823,1,0,0,5.67,0.7,-0.91,-0.121756,-0.060878,-1.1235,-0.16954,-0.2338,0.34286
-1.55982,0,0,11.5598,11.5598,8.44018,8.44018,0.866566,-0.260075,53.0818,-0.0765694,-0.0579752,-0.111823,1,0,0,5.11,0.63,-1.26,-0.121756,-0.060878,-1.1235,-0.16954,-0.2338,0.34286
-1.40918,0,0,11.4092,11.4092,8.59082,8.59082,0.782876,-0.322601,53.3239,-0.0322292,0.0448605,0.0839265,0,0,0,4.69,1.26,-1.61,-0.078324,0.04331,-0.929274,-0.16954,-0.2338,0.34286
-1.25775,0,0,11.2578,11.2578,8.74225,8.74225,0.698751,-0.383805,53.5613,-0.031161,0.0433923,0.0839389,0,0,0,3.08,0.84,-2.73,-0.078324,0.04331,-0.929274,-0.16954,-0.2338,0.34286
-1.25319,0,0,11.2532,11.2532,8.74681,8.74681,0.696217,-0.384396,53.558,0.0231534,0.0591024,0.148119,1,0,0,2.94,0.7,-2.94,-0.02379,0.059048,-0.86559,-0.16954,-0.2338,0.34286
-1.24908,0,0,11.2491,11.2491,8.75092,8.75092,0.693933,-0.385346,53.5547,0.02317,0.0590626,0.148119,1,0,0,3.08,0.49,-2.94,-0.02379,0.059048,-0.86559,-0.16912,-0.22848,0.34846
-1.06343,0,0,11.0634,11.0634,8.93657,8.93657,0.590792,-0.390054,53.7727,0.0163274,0.0630025,0.0447388,0,0,0,3.85,0.98,-3.15,-0.030744,0.064782,-0.968192,-0.16912,-0.22848,0.34846
-0.887667,0,0,10.8877,10.8877,9.11233,9.11233,0.493149,-0.393206,53.9887,0.0163824,0.0612984,0.0447546,0,0,0,5.39,1.4,-3.01,-0.030744,0.064782,-0.968192,-0.16912,-0.22848,0.34846
-0.797673,0,0,10.7977,10.7977,9.20233,9.20233,0.443151,-0.541019,54.2375,-0.123055,0.0197575,-0.056446,0,0,0,6.09,1.33,-3.15,-0.173362,0.024156,-1.0686,-0.16912,-0.22848,0.34846
-0.709101,0,0,10.7091,10.7091,9.2909,9.2909,0.393945,-0.685978,54.4841,-0.120525,0.0188986,-0.0564668,0,0,0,5.53,0.91,-2.59,-0.173362,0.024156,-1.0686,-0.16912,-0.22848,0.34846
-0.698924,0,0,10.6989,10.6989,9.30108,9.30108,0.388291,-0.797028,54.7028,-0.0826269,-0.005015,0.0985469,0,0,0,5.6,0.98,-2.31,-0.13725,0.000366,-0.914756,-0.16912,-0.22848,0.34846
-0.685588,0,0,10.6856,10.6856,9.31441,9.31441,0.380882,-0.90624,54.9192,-0.080721,-0.00514447,0.0985194,0,0,0,4.34,0.63,-2.1,-0.13725,0.000366,-0.914756,-0.16912,-0.22848,0.34846
-0.29886,0,0,10.2989,10.2989,9.70114,9.70114,0.166033,-0.982793,55.1978,-0.021072,0.123003,0.0481064,0,0,0,3.15,0.7,-1.75,-0.07869,0.132126,-0.964776,-0.16912,-0.22848,0.34846
0.0822359,0,0,9.91776,9.91776,10.0822,10.0822,-0.0456866,-1.05574,55.4747,-0.019799,0.119308,0.0480876,0,0,0,2.66,1.68,-1.54,-0.07869,0.132126,-0.964776,-0.17486,-0.23842,0.33866
0.0216567,0,0,9.97834,9.97834,10.0217,10.0217,-0.0120315,-1.19348,55.6846,-0.116042,-0.0353274,0.0707862,0,0,0,2.59,1.26,-1.26,-0.177754,-0.022936,-0.942206,-0.17486,-0.23842,0.33866
-0.0400214,0,0,10.04,10.04,9.95998,9.95998,0.0222341,-1.3283,55.8932,-0.113689,-0.0347295,0.0707344,0,0,0,3.22,1.4,-0.28,-0.177754,-0.022936,-0.942206,-0.17486,-0.23842,0.33866
-0.0380647,0,0,10.0381,10.0381,9.96194,9.96194,0.0211471,-1.32714,55.8944,0.00437456,-0.119016,-0.0972128,1,0,0,3.78,1.75,-0.28,-0.05917,-0.107116,-1.10886,-0.17486,-0.23842,0.33866
-0.0423557,0,0,10.0424,10.0424,9.95764,9.95764,0.023531,-1.3267,55.8967,0.00436683,-0.118974,-0.0972126,1,0,0,5.74,1.33,0.35,-0.05917,-0.107116,-1.10886,-0.17486,-0.23842,0.33866
-0.0685873,0,0,10.0686,10.0686,9.93141,9.93141,0.0381041,-1.31261,56.0661,0.00873744,-0.00697407,-0.0809779,0,0,0,5.53,0.91,0.77,-0.054534,0.004514,-1.09275,-0.17486,-0.23842,0.33866
-0.0949253,0,0,10.0949,10.0949,9.90507,9.90507,0.0527363,-1.29905,56.2333,0.00850073,-0.00671875,-0.0809727,0,0,0,5.81,0.84,0.63,-0.054534,0.004514,-1.09275,-0.17486,-0.23842,0.33866
-0.29461,0,0,10.2946,10.2946,9.70539,9.70539,0.163672,-1.20178,56.3342,0.0660885,-0.0645029,-0.0843819,0,0,0,4.9,0.56,0.63,0.005002,-0.055144,-1.09617,-0.17486,-0.23842,0.33866
-0.483712,0,0,10.4837,10.4837,9.51629,9.51629,0.268729,-1.107,56.4351,0.0644347,-0.0626696,-0.0843555,0,0,0,3.64,0.84,0.7,0.005002,-0.055144,-1.09617,-0.17318,-0.2373,0.34048
-0.579631,0,0,10.5796,10.5796,9.42037,9.42037,0.322017,-1.11742,56.5847,-0.0200591,-0.0376808,-0.0142831,0,0,0,2.38,0.77,0.28,-0.080032,-0.03111,-1.02663,-0.17318,-0.2373,0.34048
-0.670499,0,0,10.6705,10.6705,9.3295,9.3295,0.3725,-1.12703,56.732,-0.0198914,-0.0367999,-0.0142918,0,0,0,1.61,1.33,0,-0.080032,-0.03111,-1.02663,-0.17318,-0.2373,0.34048
-0.655017,0,0,10.655,10.655,9.34498,9.34498,0.363898,-1.04315,56.8696,0.0693948,0.0117787,0.0588913,0,0,0,2.52,1.33,-0.07,0.011102,0.017568,-0.95404,-0.17318,-0.2373,0.34048
-0.645132,0,0,10.6451,10.6451,9.35487,9.35487,0.358407,-0.960628,57.0049,0.0679547,0.0116831,0.0589171,0,0,0,4.27,1.54,-0.49,0.011102,0.017568,-0.95404,-0.17318,-0.2373,0.34048
-0.813401,0,0,10.8134,10.8134,9.1866,9.1866,0.45189,-0.974917,57.1314,-0.0263118,-0.0547102,0.0857041,0,0,0,4.55,1.26,-0.56,-0.083814,-0.050386,-0.927444,-0.17318,-0.2373,0.34048
-0.981799,0,0,10.9818,10.9818,9.0182,9.0182,0.545444,-0.989783,57.256,-0.0260524,-0.0530777,0.0856854,0,0,0,6.02,1.12,-0.84,-0.083814,-0.050386,-0.927444,-0.17318,-0.2373,0.34048
-0.986417,0,0,10.9864,10.9864,9.01358,9.01358,0.54801,-0.990054,57.2558,0.0311721,-0.120203,-0.115951,1,0,0,5.81,0.91,-1.12,-0.026352,-0.117486,-1.12752,-0.17318,-0.2373,0.34048
-0.987238,0,0,10.9872,10.9872,9.01276,9.01276,0.548465,-0.990079,57.2548,0.0311725,-0.120195,-0.115951,1,0,0,4.62,1.05,-1.54,-0.026352,-0.117486,-1.12752,-0.17318,-0.2373,0.34048
-0.92265,0,0,10.9227,10.9227,9.07735,9.07735,0.512583,-0.972681,57.4133,0.0220005,0.0242658,-0.014876,0,0,0,3.92,0.84,-1.54,-0.035258,0.02745,-1.02724,-0.17458,-0.23982,0.33796
-1.07466,0,0,11.0747,11.0747,8.92534,8.92534,0.597032,-0.850052,57.4895,0.095546,-0.045338,-0.0721503,0,0,0,3.01,0.49,-2.66,0.040748,-0.043554,-1.08409,-0.17458,-0.23982,0.33796
-1.22241,0,0,11.2224,11.2224,8.77759,8.77759,0.679119,-0.729792,57.5651,0.0934473,-0.0439052,-0.0721373,0,0,0,3.22,0.91,-2.66,0.040748,-0.043554,-1.08409,-0.17458,-0.23982,0.33796
-1.11869,0,0,11.1187,11.1187,8.88131,8.88131,0.621497,-0.640579,57.6996,0.0858161,0.0439977,0.0189976,0,0,0,2.87,1.05,-2.52,0.034648,0.045262,-0.99369,-0.17458,-0.23982,0.33796
-1.01908,0,0,11.0191,11.0191,8.98092,8.98092,0.566154,-0.55275,57.8322,0.0842833,0.043032,0.0190236,0,0,0,3.43,1.12,-2.8,0.034648,0.045262,-0.99369,-0.17458,-0.23982,0.33796
-1.23147,0,0,11.2315,11.2315,8.76853,8.76853,0.684148,-0.342354,57.8613,0.169174,-0.0562737,-0.0560918,0,0,0,4.2,1.54,-2.45,0.123586,-0.055998,-1.06823,-0.17458,-0.23982,0.33796
-1.43909,0,0,11.4391,11.4391,8.56091,8.56091,0.799496,-0.137788,57.8916,0.165604,-0.0542604,-0.0561029,0,0,0,4.9,1.05,-1.75,0.123586,-0.055998,-1.06823,-0.17458,-0.23982,0.33796
-1.44124,0,0,11.4412,11.4412,8.55876,8.55876,0.800687,-0.137453,57.8908,0.0622138,-0.101136,-0.12852,1,0,0,5.04,1.26,-1.47,0.019764,-0.102846,-1.14009,-0.17556,-0.23744,0.3444
-1.41805,0,0,11.4181,11.4181,8.58195,8.58195,0.787806,-0.19668,58.0448,-0.0487623,0.00317932,0.00278929,0,0,0,5.81,1.54,-1.33,-0.09272,0.001586,-1.00979,-0.17556,-0.23744,0.3444
-1.39271,0,0,11.3927,11.3927,8.60729,8.60729,0.773729,-0.25624,58.1972,-0.0477228,0.0029336,0.00278853,0,0,0,4.83,0.56,-1.19,-0.09272,0.001586,-1.00979,-0.17556,-0.23744,0.3444
-1.40788,0,0,11.4079,11.4079,8.59212,8.59212,0.782155,-0.232219,58.3143,0.0190396,-0.0018044,0.0540578,0,0,0,4.27,0.56,-1.19,-0.025254,-0.003294,-0.95892,-0.17556,-0.23744,0.3444
-1.42158,0,0,11.4216,11.4216,8.57842,8.57842,0.789768,-0.207808,58.4307,0.0186135,-0.00167153,0.0540577,0,0,0,3.99,1.12,-0.91,-0.025254,-0.003294,-0.95892,-0.17556,-0.23744,0.3444
-1.04007,0,0,11.0401,11.0401,8.95993,8.95993,0.577816,-0.195511,58.6311,0.0459762,0.127992,0.0655368,0,0,0,3.36,0.98,-0.7,0.00244,0.12993,-0.947574,-0.17556,-0.23744,0.3444
-0.672184,0,0,10.6722,10.6722,9.32782,9.32782,0.373436,-0.18166,58.8304,0.0457344,0.124425,0.0655672,0,0,0,4.48,1.26,-0.28,0.00244,0.12993,-0.947574,-0.17556,-0.23744,0.3444
-0.459815,0,0,10.4598,10.4598,9.54018,9.54018,0.255453,-0.250217,59.023,-0.0376231,0.0674088,0.0170093,0,0,0,5.25,1.19,-0.14,-0.082472,0.07503,-0.995764,-0.17556,-0.23744,0.3444
-0.253336,0,0,10.2533,10.2533,9.74666,9.74666,0.140742,-0.316301,59.2179,-0.0364697,0.0654067,0.0170105,0,0,0,5.04,1.26,0.14,-0.082472,0.07503,-0.995764,-0.17094,-0.23422,0.3416
-0.693532,0,0,10.6935,10.6935,9.30647,9.30647,0.385296,-0.170991,59.2101,0.0870963,-0.145757,-0.0398005,0,0,0,5.67,1.33,0.35,0.044164,-0.140178,-1.05213,-0.17094,-0.23422,0.3416
-1.1214,0,0,11.1214,11.1214,8.8786,8.8786,0.623,-0.0304499,59.203,0.0846434,-0.141608,-0.0398327,0,0,0,5.88,1.05,0.35,0.044164,-0.140178,-1.05213,-0.17094,-0.23422,0.3416
-1.15252,0,0,11.1525,11.1525,8.84748,8.84748,0.640288,-0.00944544,59.3135,0.0167308,-0.00953159,-0.0902448,0,0,0,5.11,1.12,0.42,-0.023668,-0.00854,-1.10215,-0.17094,-0.23422,0.3416
-1.18198,0,0,11.182,11.182,8.81802,8.81802,0.656658,0.0101903,59.4219,0.0163881,-0.00924591,-0.090248,0,0,0,4.9,0.63,-0.07,-0.023668,-0.00854,-1.10215,-0.17094,-0.23422,0.3416
-1.12333,0,0,11.1233,11.1233,8.87667,8.87667,0.624074,-0.0524342,59.5707,-0.04557,0.0136338,0.0533618,0,0,0,4.34,0.7,-0.28,-0.086986,0.014884,-0.959652,-0.17094,-0.23422,0.3416
-1.06421,0,0,11.0642,11.0642,8.93579,8.93579,0.591226,-0.1127,59.7173,-0.0445182,0.0130605,0.0533664,0,0,0,3.57,1.19,-0.56,-0.086986,0.014884,-0.959652,-0.17094,-0.23422,0.3416
-1.06342,0,0,11.0634,11.0634,8.93658,8.93658,0.59079,-0.112624,59.7182,-0.0317635,0.0589725,0.172381,1,0,0,4.13,1.12,-0.49,-0.074176,0.060756,-0.841556,-0.17094,-0.23422,0.3416
-1.06264,0,0,11.0626,11.0626,8.93736,8.93736,0.590356,-0.112776,59.7181,-0.0317608,0.0589649,0.172381,1,0,0,4.13,0.98,-1.05,-0.074176,0.060756,-0.841556,-0.17094,-0.23422,0.3416
-1.08044,0,0,11.0804,11.0804,8.91956,8.91956,0.600244,-0.0285519,59.8087,0.0733121,0.00210435,-0.0237222,0,0,0,3.85,1.12,-1.4,0.032818,0.003782,-1.03615,-0.16842,-0.23604,0.34118
-0.993452,0,0,10.9935,10.9935,9.00655,9.00655,0.551918,-0.00116924,59.9374,0.0335943,0.0360671,-0.0320741,0,0,0,5.74,1.19,-1.75,-0.006588,0.038552,-1.04444,-0.16842,-0.23604,0.34118
-0.905756,0,0,10.9058,10.9058,9.09424,9.09424,0.503198,0.0261803,60.0644,0.033117,0.0352168,-0.0320663,0,0,0,4.83,1.33,-1.96,-0.006588,0.038552,-1.04444,-0.16842,-0.23604,0.34118
-1.14795,0,0,11.148,11.148,8.85205,8.85205,0.637752,0.12933,60.097,0.0622955,-0.0688073,0.0601192,0,0,0,5.04,1.68,-2.03,0.024522,-0.06771,-0.952942,-0.16842,-0.23604,0.34118
-1.38533,0,0,11.3853,11.3853,8.61467,8.61467,0.769627,0.228101,60.1284,0.0605717,-0.0665059,0.0600856,0,0,0,5.81,0.77,-2.59,0.024522,-0.06771,-0.952942,-0.16842,-0.23604,0.34118
-1.26572,0,0,11.2657,11.2657,8.73428,8.73428,0.703178,0.0792868,60.3037,-0.123069,0.0267384,-0.0410792,0,0,0,4.55,0.35,-2.38,-0.162504,0.026596,-1.05335,-0.16842,-0.23604,0.34118
-1.1492,0,0,11.1492,11.1492,8.8508,8.8508,0.638447,-0.0649435,60.4772,-0.120551,0.0256088,-0.0410656,0,0,0,4.2,0.98,-2.17,-0.162504,0.026596,-1.05335,-0.16842,-0.23604,0.34118
-1.2116,0,0,11.2116,11.2116,8.7884,8.7884,0.673112,-0.0744668,60.5724,-0.0133562,-0.0209272,0.0634335,0,0,0,4.34,1.12,-2.38,-0.055022,-0.020496,-0.949648,-0.16758,-0.23296,0.34468
-1.20656,0,0,11.2066,11.2066,8.79344,8.79344,0.670309,-0.0747122,60.57,-0.0793186,0.0430183,-0.123817,1,0,0,2.8,0.91,-2.38,-0.121268,0.043432,-1.13545,-0.16758,-0.23296,0.34468
-1.20668,0,0,11.2067,11.2067,8.79332,8.79332,0.670376,-0.0746146,60.569,-0.0793203,0.0430195,-0.123817,1,0,0,4.41,1.12,-1.61,-0.121268,0.043432,-1.13545,-0.16758,-0.23296,0.34468
-1.04991,0,0,11.0499,11.0499,8.95009,8.95009,0.583284,-0.0626028,60.7077,0.026527,0.0594522,-0.0492929,0,0,0,4.69,1.12,-0.91,-0.014762,0.061366,-1.06152,-0.16758,-0.23296,0.34468
-0.897781,0,0,10.8978,10.8978,9.10222,9.10222,0.498767,-0.0498502,60.8447,0.0263044,0.0579771,-0.0492787,0,0,0,4.83,1.4,-1.05,-0.014762,0.061366,-1.06152,-0.16758,-0.23296,0.34468
-1.07868,0,0,11.0787,11.0787,8.92132,8.92132,0.599269,0.0970949,60.8705,0.10878,-0.0451757,0.0344313,0,0,0,5.32,1.4,-0.56,0.070638,-0.043432,-0.97844,-0.16758,-0.23296,0.34468
-1.25385,0,0,11.2538,11.2538,8.74615,8.74615,0.696581,0.240573,60.8961,0.106276,-0.0434775,0.0344048,0,0,0,5.32,1.4,-0.56,0.070638,-0.043432,-0.97844,-0.16758,-0.23296,0.34468
-1.25307,0,0,11.2531,11.2531,8.74693,8.74693,0.696151,0.240409,60.897,0.00532385,0.0175783,0.123543,1,0,0,4.13,0.98,-0.49,-0.030744,0.017568,-0.88999,-0.16758,-0.23296,0.34468
-1.2523,0,0,11.2523,11.2523,8.7477,8.7477,0.695721,0.240245,60.8979,0.00532671,0.0175708,0.123543,1,0,0,4.13,0.98,-0.49,-0.030744,0.017568,-0.88999,-0.16856,-0.23702,0.34244
-1.24881,0,0,11.2488,11.2488,8.75119,8.75119,0.693781,0.254817,60.9985,0.0130904,0.00251538,-0.00579989,0,0,0,4.13,1.12,-0.28,-0.022692,0.002562,-1.01833,-0.16856,-0.23702,0.34244
-1.28293,0,0,11.2829,11.2829,8.71707,8.71707,0.712739,0.309653,61.0783,0.044813,-0.00692397,0.00451901,0,0,0,3.43,0.91,0,0.010126,-0.007198,-1.00809,-0.16856,-0.23702,0.34244
-1.31805,0,0,11.318,11.318,8.68195,8.68195,0.732249,0.363376,61.1577,0.0438754,-0.00658355,0.00450921,0,0,0,4.13,0.98,0.21,0.010126,-0.007198,-1.00809,-0.16856,-0.23702,0.34244
-1.1431,0,0,11.1431,11.1431,8.8569,8.8569,0.635058,0.330645,61.3048,-0.0125301,0.0615768,-0.0718181,0,0,0,4.27,0.7,0,-0.047092,0.062586,-1.08385,-0.16856,-0.23702,0.34244
-0.974468,0,0,10.9745,10.9745,9.02553,9.02553,0.541371,0.299632,61.4504,-0.0119889,0.0599418,-0.0717983,0,0,0,4.69,0.98,0.07,-0.047092,0.062586,-1.08385,-0.16856,-0.23702,0.34244
-0.998945,0,0,10.9989,10.9989,9.00106,9.00106,0.554969,0.213132,61.5681,-0.079483,-0.0182262,-0.00909012,0,0,0,4.69,1.19,0.07,-0.116388,-0.015738,-1.02163,-0.16856,-0.23702,0.34244
-1.01967,0,0,11.0197,11.0197,8.98033,8.98033,0.566483,0.127856,61.6837,-0.0779947,-0.0180252,-0.00908766,0,0,0,3.57,0.91,-0.21,-0.116388,-0.015738,-1.02163,-0.16856,-0.23702,0.34244
-1.31518,0,0,11.3152,11.3152,8.68482,8.68482,0.730654,0.390815,61.6421,0.215542,-0.0800096,-0.0309028,0,0,0,3.99,1.75,-0.56,0.183,-0.08052,-1.04322,-0.17178,-0.24066,0.34244
-0.811147,0,0,10.8111,10.8111,9.18885,9.18885,0.450637,0.198816,61.8931,-0.119688,0.150198,0.0538764,0,0,0,3.99,1.33,-1.05,-0.157014,0.15433,-0.959164,-0.17178,-0.24066,0.34244
-0.82252,0,0,10.8225,10.8225,9.17748,9.17748,0.456955,0.284615,61.959,0.0688182,0.0050992,0.090139,0,0,0,3.5,0.14,-1.47,0.033794,0.009272,-0.923174,-0.17178,-0.24066,0.34244
-0.837124,0,0,10.8371,10.8371,9.16288,9.16288,0.465069,0.370192,62.0243,0.0673247,0.00524073,0.0901293,0,0,0,4.76,1.05,-1.33,0.033794,0.009272,-0.923174,-0.17178,-0.24066,0.34244
-0.837908,0,0,10.8379,10.8379,9.16209,9.16209,0.465504,0.370163,62.0237,-0.00277207,0.0118432,-0.126875,1,0,0,4.62,1.05,-1.4,-0.0366,0.01586,-1.1385,-0.17178,-0.24066,0.34244
-0.83981,0,0,10.8398,10.8398,9.16019,9.16019,0.466561,0.370019,62.0225,-0.00276956,0.0118616,-0.126875,1,0,0,4.97,0.98,-1.68,-0.0366,0.01586,-1.1385,-0.17178,-0.24066,0.34244
-1.20109,0,0,11.2011,11.2011,8.79891,8.79891,0.667273,0.407785,62.0213,0.000823327,-0.124349,-0.0042115,0,0,0,4.9,0.98,-1.68,-0.03233,-0.123708,-1.01675,-0.17178,-0.24066,0.34244
-1.16746,0,0,11.1675,11.1675,8.83254,8.83254,0.648591,0.408236,62.1148,0.00300219,0.0114967,-0.0172404,0,0,0,4.06,1.4,-1.68,-0.030134,0.012322,-1.02968,-0.17178,-0.24066,0.34244
-1.1351,0,0,11.1351,11.1351,8.8649,8.8649,0.630611,0.409054,62.1983,0.00298791,0.0111829,-0.0172369,0,0,0,4.13,1.54,-1.82,-0.030134,0.012322,-1.02968,-0.17654,-0.23744,0.34342
-1.02967,0,0,11.0297,11.0297,8.97033,8.97033,0.572039,0.292922,62.3267,-0.0937531,0.0229841,0.00700705,0,0,0,3.92,1.54,-1.89,-0.12932,0.025132,-1.00565,-0.17654,-0.23744,0.34342
-1.21683,0,0,11.2168,11.2168,8.78317,8.78317,0.676017,0.419063,62.3276,0.0904044,-0.0488438,0.0508662,0,0,0,4.13,0.84,-1.96,0.057828,-0.048434,-0.962092,-0.17654,-0.23744,0.34342
-1.39854,0,0,11.3985,11.3985,8.60146,8.60146,0.776965,0.542541,62.3283,0.0882494,-0.0470824,0.0508258,0,0,0,4.27,1.05,-2.1,0.057828,-0.048434,-0.962092,-0.17654,-0.23744,0.34342
-1.66916,0,0,11.6692,11.6692,8.33084,8.33084,0.927312,0.550648,62.3372,-0.0170987,-0.100393,-0.0393358,0,0,0,4.13,0.84,-1.61,-0.047824,-0.10431,-1.05152,-0.17654,-0.23744,0.34342
-1.93313,0,0,11.9331,11.9331,8.06687,8.06687,1.07396,0.55769,62.3472,-0.0172216,-0.0978338,-0.0393817,0,0,0,4.41,0.77,-0.91,-0.047824,-0.10431,-1.05152,-0.17654,-0.23744,0.34342
-1.78289,0,0,11.7829,11.7829,8.21711,8.21711,0.990497,0.545049,62.4531,0.00328711,0.0543452,-0.0810329,0,0,0,4.06,0.91,-0.56,-0.02745,0.049166,-1.09288,-0.17654,-0.23744,0.34342
-1.64005,0,0,11.6401,11.6401,8.35995,8.35995,0.911139,0.533131,62.5745,0.00349512,0.0529605,-0.0810079,0,0,0,5.18,0.98,-0.49,-0.02745,0.049166,-1.09288,-0.16632,-0.2422,0.3465
-1.67687,0,0,11.6769,11.6769,8.32313,8.32313,0.931595,0.641054,62.6245,0.0963705,-0.00102928,-0.0275504,0,0,0,4.62,0.91,-0.28,0.06771,-0.005124,-1.03981,-0.16632,-0.2422,0.3465
-1.7105,0,0,11.7105,11.7105,8.2895,8.2895,0.950278,0.74684,62.6737,0.0945243,-0.000703647,-0.0275781,0,0,0,4.13,0.98,-0.42,0.06771,-0.005124,-1.03981,-0.16632,-0.2422,0.3465
-1.68493,0,0,11.6849,11.6849,8.31507,8.31507,0.936072,0.900971,62.7218,0.135569,0.0256715,0.0305419,0,0,0,3.71,1.4,-0.28,0.11163,0.021472,-0.9821,-0.16632,-0.2422,0.3465
-1.65671,0,0,11.6567,11.6567,8.34329,8.34329,0.920393,1.05283,62.7694,0.132919,0.0253972,0.0305012,0,0,0,2.94,1.82,-0.28,0.11163,0.021472,-0.9821,-0.16632,-0.2422,0.3465
-1.52753,0,0,11.5275,11.5275,8.47247,8.47247,0.848627,0.994286,62.8926,-0.0426993,0.0391668,-0.046304,0,0,0,3.43,1.4,-0.42,-0.065758,0.036478,-1.05835,-0.16632,-0.2422,0.3465
-1.40222,0,0,11.4022,11.4022,8.59778,8.59778,0.779013,0.937316,63.0145,-0.0417052,0.0379524,-0.04627,0,0,0,3.43,1.4,-0.42,-0.065758,0.036478,-1.05835,-0.16632,-0.2422,0.3465
-1.42883,0,0,11.4288,11.4288,8.57117,8.57117,0.793797,0.764034,63.1317,-0.165755,-0.0306685,-0.0576629,0,0,0,5.18,0.49,-0.42,-0.19337,-0.03233,-1.0697,-0.16632,-0.2422,0.3465
-1.4558,0,0,11.4558,11.4558,8.5442,8.5442,0.808775,0.594137,63.2474,-0.16279,-0.0304066,-0.0576314,0,0,0,5.18,0.49,-0.42,-0.19337,-0.03233,-1.0697,-0.16632,-0.2422,0.3465
-1.38568,0,0,11.3857,11.3857,8.61432,8.61432,0.76982,0.516425,63.3556,-0.0585355,0.016421,0.0836589,0,0,0,5.18,1.12,-0.49,-0.090036,0.015128,-0.929518,-0.17094,-0.24178,0.34202
-1.38466,0,0,11.3847,11.3847,8.61534,8.61534,0.769258,0.516037,63.3553,0.0738907,0.120585,-0.0921572,1,0,0,4.06,0.84,-1.19,0.042944,0.119194,-1.10398,-0.17094,-0.24178,0.34202
-1.38365,0,0,11.3837,11.3837,8.61635,8.61635,0.768696,0.515649,63.355,0.0738975,0.120576,-0.092157,1,0,0,4.06,0.84,-1.19,0.042944,0.119194,-1.10398,-0.17094,-0.24178,0.34202
-1.64916,0,0,11.6492,11.6492,8.35084,8.35084,0.9162,0.643975,63.3347,0.0835635,-0.0724978,0.0796645,0,0,0,4.13,1.26,-1.33,0.0549,-0.07625,-0.933422,-0.17094,-0.24178,0.34202
-1.90664,0,0,11.9066,11.9066,8.09336,8.09336,1.05924,0.769106,63.3148,0.0813797,-0.0700023,0.0795945,0,0,0,4.13,1.26,-1.33,0.0549,-0.07625,-0.933422,-0.17094,-0.24178,0.34202
-1.60599,0,0,11.606,11.606,8.39401,8.39401,0.892218,0.73409,63.4557,-0.00547892,0.100381,0.0187927,0,0,0,3.64,0.98,-1.54,-0.03294,0.096868,-0.993812,-0.17094,-0.24178,0.34202
-1.385,0,0,11.385,11.385,8.615,8.615,0.769445,0.863688,63.5394,0.128809,0.0909108,0.0544472,0,0,0,4.69,0.91,-1.68,0.104188,0.089548,-0.958432,-0.17094,-0.24178,0.34202
-1.1689,0,0,11.1689,11.1689,8.8311,8.8311,0.649391,0.99149,63.62,0.126579,0.0888155,0.0544371,0,0,0,4.55,0.98,-1.96,0.104188,0.089548,-0.958432,-0.17248,-0.24192,0.33782
-0.909505,0,0,10.9095,10.9095,9.09049,9.09049,0.505281,1.0359,63.7303,0.0620241,0.0974142,0.0110479,0,0,0,4.76,0.77,-2.1,0.040138,0.10065,-1.0015,-0.17248,-0.24192,0.33782
-0.658112,0,0,10.6581,10.6581,9.34189,9.34189,0.365618,1.08037,63.8396,0.0612481,0.094977,0.0110521,0,0,0,5.18,0.91,-2.1,0.040138,0.10065,-1.0015,-0.17248,-0.24192,0.33782
-0.444592,0,0,10.4446,10.4446,9.55541,9.55541,0.246995,0.914857,63.9913,-0.130605,0.0581011,-0.000812564,0,0,0,5.39,0.84,-2.1,-0.155428,0.06588,-1.01333,-0.17248,-0.24192,0.33782
-0.232586,0,0,10.2326,10.2326,9.76741,9.76741,0.129215,0.75297,64.1414,-0.12778,0.0560458,-0.000764694,0,0,0,3.71,0.63,-2.1,-0.155428,0.06588,-1.01333,-0.17248,-0.24192,0.33782
-0.838089,0,0,10.8381,10.8381,9.16191,9.16191,0.465605,0.854146,64.0452,0.0410202,-0.212014,-0.0181557,0,0,0,3.92,0.91,-1.89,0.01586,-0.207766,-1.03053,-0.17248,-0.24192,0.33782
-1.42648,0,0,11.4265,11.4265,8.57352,8.57352,0.792487,0.952445,63.951,0.0393048,-0.20631,-0.0182453,0,0,0,3.99,1.19,-1.75,0.01586,-0.207766,-1.03053,-0.17248,-0.24192,0.33782
-1.42281,0,0,11.4228,11.4228,8.57719,8.57719,0.790451,0.821038,64.0407,-0.122772,-0.0169268,-0.0478399,0,0,0,3.43,0.77,-1.61,-0.149206,-0.018544,-1.05994,-0.17248,-0.24192,0.33782
-1.42553,0,0,11.4255,11.4255,8.57447,8.57447,0.79196,0.693051,64.1236,-0.120539,-0.0169,-0.0478108,0,0,0,5.32,1.33,-1.4,-0.149206,-0.018544,-1.05994,-0.1736,-0.2352,0.34188
-1.56032,0,0,11.5603,11.5603,8.43968,8.43968,0.866844,0.643028,64.1593,-0.0581938,-0.0550401,-0.0333116,0,0,0,5.67,1.54,-0.7,-0.087474,-0.05795,-1.04554,-0.1736,-0.2352,0.34188
-1.69171,0,0,11.6917,11.6917,8.30829,8.30829,0.939841,0.593635,64.1946,-0.0573318,-0.0537661,-0.0333224,0,0,0,5.67,1.54,-0.7,-0.087474,-0.05795,-1.04554,-0.1736,-0.2352,0.34188
-1.92274,0,0,11.9227,11.9227,8.07726,8.07726,1.06819,0.741123,64.1605,0.112482,-0.0622742,0.0143124,0,0,0,5.74,1.05,-0.42,0.085644,-0.068686,-0.998204,-0.1736,-0.2352,0.34188
-2.14662,0,0,12.1466,12.1466,7.85338,7.85338,1.19257,0.885192,64.1269,0.109968,-0.0601047,0.0142339,0,0,0,5.74,1.05,-0.42,0.085644,-0.068686,-0.998204,-0.1736,-0.2352,0.34188
-1.95961,0,0,11.9596,11.9596,8.04039,8.04039,1.08867,0.887407,64.2176,0.0183294,0.0692467,-0.0533523,0,0,0,4.06,1.68,-0.14,-0.006344,0.062342,-1.0653,-0.1736,-0.2352,0.34188
-1.77762,0,0,11.7776,11.7776,8.22238,8.22238,0.987567,0.890084,64.3075,0.0182826,0.0674825,-0.053321,0,0,0,4.06,1.68,-0.14,-0.006344,0.062342,-1.0653,-0.1736,-0.2352,0.34188
-1.65954,0,0,11.6595,11.6595,8.34046,8.34046,0.921966,0.919641,64.3765,0.033317,0.0441106,0.0482453,0,0,0,4.13,1.4,-0.28,0.009272,0.040138,-0.964532,-0.1736,-0.2352,0.34188
-1.57405,0,0,11.5741,11.5741,8.42595,8.42595,0.874475,0.969739,64.4328,0.0547961,0.0372975,-0.0381889,0,0,0,4.13,1.05,-0.42,0.03172,0.03416,-1.0503,-0.1736,-0.2352,0.34188
-1.49233,0,0,11.4923,11.4923,8.50767,8.50767,0.82907,1.01982,64.4857,0.0539222,0.0365051,-0.0381923,0,0,0,4.62,1.47,-0.35,0.03172,0.03416,-1.0503,-0.1771,-0.23744,0.33796
-1.57435,0,0,11.5743,11.5743,8.42565,8.42565,0.874638,1.23754,64.4631,0.174646,-7.17544e-05,0.0839319,0,0,0,5.11,1.33,-0.21,0.15677,-0.003172,-0.92903,-0.1771,-0.23744,0.33796
-1.65358,0,0,11.6536,11.6536,8.34642,8.34642,0.918658,1.44994,64.4401,0.17094,0.000694865,0.0838329,0,0,0,5.32,0.77,-0.49,0.15677,-0.003172,-0.92903,-0.1771,-0.23744,0.33796
-1.50869,0,0,11.5087,11.5087,8.49131,8.49131,0.838162,1.51888,64.4983,0.0726699,0.0605977,0.0192753,0,0,0,4.83,0.91,-0.77,0.059292,0.058072,-0.99308,-0.1771,-0.23744,0.33796
-1.36678,0,0,11.3668,11.3668,8.63322,8.63322,0.759322,1.58741,64.5559,0.0714742,0.0592219,0.0192621,0,0,0,4.69,1.26,-0.7,0.059292,0.058072,-0.99308,-0.1771,-0.23744,0.33796
-1.22602,0,0,11.226,11.226,8.77398,8.77398,0.681119,1.37538,64.6762,-0.193553,0.0251288,-0.0770167,0,0,0,4.34,1.19,-0.77,-0.210572,0.025376,-1.08873,-0.1771,-0.23744,0.33796
-1.08829,0,0,11.0883,11.0883,8.91171,8.91171,0.604605,1.16872,64.7942,-0.189947,0.0237947,-0.0769217,0,0,0,3.64,1.61,-1.26,-0.210572,0.025376,-1.08873,-0.1771,-0.23744,0.33796
-1.47066,0,0,11.4707,11.4707,8.52934,8.52934,0.817033,1.16438,64.7496,-0.0352198,-0.130164,0.0545888,0,0,0,4.62,1.26,-1.47,-0.055266,-0.132126,-0.958188,-0.1771,-0.23744,0.33796
-1.84101,0,0,11.841,11.841,8.15899,8.15899,1.02278,1.15789,64.7051,-0.0351064,-0.126575,0.0545334,0,0,0,4.48,0.63,-1.68,-0.055266,-0.132126,-0.958188,-0.175,-0.23408,0.34062
-1.70075,0,0,11.7008,11.7008,8.29925,8.29925,0.944863,1.13872,64.7783,-0.00561534,0.0468295,0.00317102,0,0,0,3.5,0.77,-1.54,-0.025986,0.042456,-1.00918,-0.175,-0.23408,0.34062
-1.56846,0,0,11.5685,11.5685,8.43154,8.43154,0.871366,1.12125,64.8506,-0.00531058,0.0455472,0.00319735,0,0,0,4.76,1.33,-1.68,-0.025986,0.042456,-1.00918,-0.175,-0.23408,0.34062
-1.00607,0,0,11.0061,11.0061,8.99393,8.99393,0.55893,0.996845,65.0452,-0.0708072,0.198861,-0.0532508,0,0,0,4.48,1.26,-1.68,-0.09394,0.201056,-1.0653,-0.175,-0.23408,0.34062
-0.456325,0,0,10.4563,10.4563,9.54367,9.54367,0.253514,0.876512,65.2388,-0.0687072,0.193531,-0.0531787,0,0,0,3.57,1.26,-1.54,-0.09394,0.201056,-1.0653,-0.175,-0.23408,0.34062
-0.642459,0,0,10.6425,10.6425,9.35754,9.35754,0.356922,0.792094,65.2576,-0.0914097,-0.0759074,0.0106435,0,0,0,4.69,1.26,-1.4,-0.118218,-0.069906,-1.00199,-0.175,-0.23408,0.34062
-0.82197,0,0,10.822,10.822,9.17803,9.17803,0.45665,0.708262,65.2759,-0.0899467,-0.0741669,0.0106503,0,0,0,4.06,0.91,-1.4,-0.118218,-0.069906,-1.00199,-0.175,-0.23408,0.34062
-0.925341,0,0,10.9253,10.9253,9.07466,9.07466,0.514079,0.614207,65.3134,-0.0934076,-0.0487392,0.0133656,0,0,0,3.64,1.33,-1.26,-0.123342,-0.045506,-0.999302,-0.175,-0.23408,0.34062
-1.02948,0,0,11.0295,11.0295,8.97052,8.97052,0.571936,0.522356,65.3585,-0.0918046,-0.0477293,0.0133719,0,0,0,4.13,1.47,-1.47,-0.123342,-0.045506,-0.999302,-0.16716,-0.23184,0.34272
-0.848218,0,0,10.8482,10.8482,9.15178,9.15178,0.471232,0.5272,65.4482,0.0175695,0.0636026,0.0117888,0,0,0,3.57,1.68,-1.54,-0.01342,0.067466,-1.00089,-0.16716,-0.23184,0.34272
-0.672714,0,0,10.6727,10.6727,9.32729,9.32729,0.37373,0.531695,65.5376,0.017491,0.061901,0.0118006,0,0,0,3.85,1.26,-1.19,-0.01342,0.067466,-1.00089,-0.16716,-0.23184,0.34272
-0.715708,0,0,10.7157,10.7157,9.28429,9.28429,0.397615,0.400524,65.6066,-0.133899,-0.0340401,-0.0867883,0,0,0,4.41,1.19,-0.77,-0.16775,-0.028792,-1.09873,-0.16716,-0.23184,0.34272
-0.756778,0,0,10.7568,10.7568,9.24322,9.24322,0.420432,0.272051,65.675,-0.131657,-0.0336418,-0.0867779,0,0,0,3.92,1.33,-0.63,-0.16775,-0.028792,-1.09873,-0.16716,-0.23184,0.34272
-1.03372,0,0,11.0337,11.0337,8.96628,8.96628,0.57429,-0.00209128,65.7171,-0.28614,-0.137451,0.000503453,0,0,0,4.13,1.47,-0.49,-0.327692,-0.135176,-1.01211,-0.16716,-0.23184,0.34272
-1.30491,0,0,11.3049,11.3049,8.69509,8.69509,0.724951,-0.271817,65.758,-0.281432,-0.134822,0.000462388,0,0,0,4.13,1.47,-0.49,-0.327692,-0.135176,-1.01211,-0.16716,-0.23184,0.34272
-1.31498,0,0,11.315,11.315,8.68502,8.68502,0.730545,-0.44847,65.8415,-0.1582,-0.0244439,0.0358509,0,0,0,3.57,1.19,-0.21,-0.207034,-0.02501,-0.976976,-0.16716,-0.23184,0.34272
-1.32417,0,0,11.3242,11.3242,8.67583,8.67583,0.735651,-0.622131,65.9173,-0.155169,-0.0243552,0.0358215,0,0,0,3.57,1.19,-0.21,-0.207034,-0.02501,-0.976976,-0.17122,-0.22988,0.3423
-1.32113,0,0,11.3211,11.3211,8.67887,8.67887,0.733958,-0.621818,65.9182,0.0207368,-0.0996148,0.111312,1,0,0,3.43,1.26,-0.49,-0.030378,-0.100162,-0.902068,-0.17122,-0.22988,0.3423
-1.31808,0,0,11.3181,11.3181,8.68192,8.68192,0.732266,-0.621505,65.9191,0.0207313,-0.0996443,0.111313,1,0,0,3.43,1.26,-0.49,-0.030378,-0.100162,-0.902068,-0.17122,-0.22988,0.3423
-1.0994,0,0,11.0994,11.0994,8.9006,8.9006,0.61078,-0.595114,66.0081,0.0405589,0.0793496,0.0251556,0,0,0,4.55,1.33,-0.7,-0.010004,0.080764,-0.98759,-0.17122,-0.22988,0.3423
-0.886443,0,0,10.8864,10.8864,9.11356,9.11356,0.492469,-0.568677,66.0961,0.0400974,0.0772849,0.0251801,0,0,0,4.55,1.33,-0.7,-0.010004,0.080764,-0.98759,-0.17122,-0.22988,0.3423
-0.500191,0,0,10.5002,10.5002,9.49981,9.49981,0.277884,-0.487435,66.2144,0.104403,0.145839,0.0269397,0,0,0,4.97,0.77,-0.84,0.055998,0.152988,-0.985882,-0.17122,-0.22988,0.3423
-0.123553,0,0,10.1236,10.1236,9.87645,9.87645,0.0686405,-0.406787,66.3316,0.102996,0.142187,0.0269617,0,0,0,4.97,0.77,-0.84,0.055998,0.152988,-0.985882,-0.17122,-0.22988,0.3423
-0.235039,0,0,10.235,10.235,9.76496,9.76496,0.130577,-0.43637,66.3537,-0.0352245,-0.041998,0.031751,0,0,0,4.13,1.47,-1.19,-0.083326,-0.032086,-0.981124,-0.17122,-0.22988,0.3423
-0.343945,0,0,10.3439,10.3439,9.65606,9.65606,0.19108,-0.465572,66.3764,-0.0347149,-0.0409421,0.031744,0,0,0,4.13,1.47,-1.19,-0.083326,-0.032086,-0.981124,-0.17388,-0.23632,0.34244
-0.0202501,0,0,10.0203,10.0203,9.97975,9.97975,0.0112501,-0.39949,66.4815,0.0885331,0.124576,-0.00389679,0,0,0,4.62,0.35,-1.68,0.041602,0.136396,-1.0165,-0.17388,-0.23632,0.34244
0.295271,0,0,9.70473,9.70473,10.2953,10.2953,-0.16404,-0.333877,66.5855,0.087388,0.121517,-0.00389354,0,0,0,4.62,0.35,-1.68,0.041602,0.136396,-1.0165,-0.17388,-0.23632,0.34244
0.214941,0,0,9.78506,9.78506,10.2149,10.2149,-0.119412,-0.31669,66.6046,0.0105521,-0.0273093,-0.0579872,0,0,0,4.69,0.56,-2.03,-0.035258,-0.013054,-1.07018,-0.17388,-0.23632,0.34244
0.136926,0,0,9.86307,9.86307,10.1369,10.1369,-0.07607,-0.300027,66.6236,0.0102612,-0.0265528,-0.0579844,0,0,0,4.69,0.56,-2.03,-0.035258,-0.013054,-1.07018,-0.17388,-0.23632,0.34244
0.16773,0,0,9.83227,9.83227,10.1677,10.1677,-0.0931835,-0.264357,66.6644,0.0358796,0.0161371,-0.00708109,0,0,0,5.11,0.84,-2.1,-0.008906,0.02989,-1.01968,-0.17388,-0.23632,0.34244
0.197912,0,0,9.80209,9.80209,10.1979,10.1979,-0.109951,-0.229306,66.7047,0.0352678,0.0158444,-0.00707897,0,0,0,5.11,0.84,-2.1,-0.008906,0.02989,-1.01968,-0.17388,-0.23632,0.34244
0.223702,0,0,9.7763,9.7763,10.2237,10.2237,-0.124279,-0.329948,66.7727,-0.095638,-0.00101485,-0.0649968,0,0,0,5.67,0.56,-1.54,-0.14213,0.013298,-1.07714,-0.17388,-0.23632,0.34244
0.2487,0,0,9.7513,9.7513,10.2487,10.2487,-0.138166,-0.428694,66.8357,-0.0939146,-0.0012572,-0.0650088,0,0,0,5.67,0.56,-1.54,-0.14213,0.013298,-1.07714,-0.17542,-0.2331,0.33964
0.391917,0,0,9.60808,9.60808,10.3919,10.3919,-0.217732,-0.358361,66.8934,0.0787039,0.0629362,-0.0508656,0,0,0,4.76,1.61,-1.12,0.032452,0.078812,-1.06311,-0.17542,-0.2331,0.33964
0.531704,0,0,9.4683,9.4683,10.5317,10.5317,-0.295391,-0.289046,66.9505,0.0774941,0.0615808,-0.0508648,0,0,0,4.76,1.61,-1.12,0.032452,0.078812,-1.06311,-0.17542,-0.2331,0.33964
0.574448,0,0,9.42555,9.42555,10.5744,10.5744,-0.319138,-0.277231,66.9946,0.0142369,0.0156131,0.0173704,0,0,0,3.85,0.84,-1.26,-0.030866,0.033306,-0.995398,-0.17542,-0.2331,0.33964
0.616099,0,0,9.3839,9.3839,10.6161,10.6161,-0.342277,-0.265543,67.0382,0.0140329,0.0152092,0.017369,0,0,0,3.85,0.84,-1.26,-0.030866,0.033306,-0.995398,-0.17542,-0.2331,0.33964
0.569786,0,0,9.43021,9.43021,10.5698,10.5698,-0.316548,-0.305484,67.0726,-0.0390882,-0.0197585,0.0108519,0,0,0,5.39,0.77,-0.7,-0.084912,-0.002074,-1.00186,-0.17542,-0.2331,0.33964
0.524499,0,0,9.4755,9.4755,10.5245,10.5245,-0.291388,-0.344763,67.1067,-0.0384027,-0.0193194,0.0108503,0,0,0,5.39,0.77,-0.7,-0.084912,-0.002074,-1.00186,-0.17542,-0.2331,0.33964
0.666562,0,0,9.33344,9.33344,10.6666,10.6666,-0.370312,-0.292773,67.1675,0.0561777,0.0541669,0.0558466,0,0,0,5.25,1.05,-0.63,0.01098,0.072712,-0.957212,-0.17542,-0.2331,0.33964
0.805109,0,0,9.19489,9.19489,10.8051,10.8051,-0.447283,-0.241448,67.2277,0.0552819,0.0528235,0.0558412,0,0,0,5.25,1.05,-0.63,0.01098,0.072712,-0.957212,-0.17542,-0.2331,0.33964
0.963095,0,0,9.0369,9.0369,10.9631,10.9631,-0.535053,-0.303834,67.3156,-0.0411823,0.0435978,0.0875436,0,0,0,4.27,1.19,-0.28,-0.086986,0.065026,-0.925736,-0.17444,-0.23128,0.33768
0.618891,0,0,9.38111,9.38111,10.6189,10.6189,-0.343828,-0.0932022,67.2271,0.172479,-0.0998613,-0.0132359,0,0,0,5.04,1.26,-0.14,0.131272,-0.081618,-1.02578,-0.17444,-0.23128,0.33768
0.289563,0,0,9.71044,9.71044,10.2896,10.2896,-0.160868,0.112869,67.1397,0.168883,-0.0966681,-0.0132224,0,0,0,3.64,1.26,-0.21,0.131272,-0.081618,-1.02578,-0.17444,-0.23128,0.33768
0.424658,0,0,9.57534,9.57534,10.4247,10.4247,-0.235921,0.240241,67.1785,0.130579,0.0639621,-0.0188894,0,0,0,3.22,1.4,0,0.095038,0.080154,-1.03139,-0.17444,-0.23128,0.33768
0.555795,0,0,9.4442,9.4442,10.5558,10.5558,-0.308775,0.364995,67.2165,0.128401,0.0626906,-0.018907,0,0,0,3.57,1.12,-0.14,0.095038,0.080154,-1.03139,-0.17444,-0.23128,0.33768
0.557685,0,0,9.44232,9.44232,10.5577,10.5577,-0.309825,0.364609,67.2179,0.139099,0.077816,-0.116528,1,0,0,3.78,0.84,-0.21,0.105774,0.095282,-1.12826,-0.17444,-0.23128,0.33768
0.558237,0,0,9.44176,9.44176,10.5582,10.5582,-0.310132,0.363861,67.2183,0.139112,0.0778107,-0.116528,1,0,0,4.2,0.63,-0.77,0.105774,0.095282,-1.12826,-0.17444,-0.23128,0.33768
0.55879,0,0,9.44121,9.44121,10.5588,10.5588,-0.310439,0.36347,67.2186,0.255137,0.0103914,-0.196936,1,0,0,4.2,0.84,-0.84,0.222284,0.027938,-1.20804,-0.17444,-0.23128,0.33768
0.559797,0,0,9.4402,9.4402,10.5598,10.5598,-0.310998,0.36236,67.2185,0.255157,0.0103816,-0.196936,1,0,0,4.06,0.42,-1.05,0.222284,0.027938,-1.20804,-0.17542,-0.23716,0.34034
0.561255,0,0,9.43875,9.43875,10.5613,10.5613,-0.311808,0.361727,67.2183,0.0983298,-0.0863569,-0.134356,1,0,0,3.92,0.7,-1.12,0.064782,-0.068686,-1.14595,-0.17542,-0.23716,0.34034
0.561138,0,0,9.43886,9.43886,10.5611,10.5611,-0.311743,0.361812,67.2182,0.0983283,-0.0863558,-0.134356,1,0,0,4.41,1.12,-1.05,0.064782,-0.068686,-1.14595,-0.17542,-0.23716,0.34034
0.563046,0,0,9.43695,9.43695,10.563,10.563,-0.312804,0.361896,67.2179,-0.106255,0.0754436,-0.0946433,1,0,0,3.78,1.12,-1.19,-0.140666,0.092964,-1.10654,-0.17542,-0.23716,0.34034
0.564292,0,0,9.43571,9.43571,10.5643,10.5643,-0.313495,0.361616,67.2166,-0.10625,0.0754316,-0.0946433,1,0,0,3.99,0.91,-1.75,-0.140666,0.092964,-1.10654,-0.17542,-0.23716,0.34034
0.648049,0,0,9.35195,9.35195,10.648,10.648,-0.360027,0.462472,67.2481,0.0952352,0.0398134,0.0439022,0,0,0,4.2,1.19,-1.75,0.06344,0.058194,-0.969046,-0.17542,-0.23716,0.34034
0.732866,0,0,9.26713,9.26713,10.7329,10.7329,-0.407148,0.56122,67.2789,0.0935117,0.0389912,0.0438813,0,0,0,3.36,0.98,-1.89,0.06344,0.058194,-0.969046,-0.17542,-0.23716,0.34034
0.462611,0,0,9.53739,9.53739,10.4626,10.4626,-0.257006,0.719906,67.2122,0.13715,-0.0856445,-0.0733044,0,0,0,3.43,1.19,-2.03,0.110044,-0.06893,-1.08531,-0.17542,-0.23716,0.34034
0.197312,0,0,9.80269,9.80269,10.1973,10.1973,-0.109618,0.875292,67.1452,0.134438,-0.0830722,-0.0733339,0,0,0,4.48,1.33,-1.96,0.110044,-0.06893,-1.08531,-0.17584,-0.2359,0.34146
0.0532412,0,0,9.94676,9.94676,10.0532,10.0532,-0.0295784,0.843147,67.1422,-0.0417626,-0.0579828,-0.0325049,0,0,0,4.06,1.12,-2.24,-0.067466,-0.045262,-1.04481,-0.17584,-0.2359,0.34146
-0.08733,0,0,10.0873,10.0873,9.91267,9.91267,0.0485167,0.811418,67.1398,-0.0412089,-0.05662,-0.0324971,0,0,0,4.13,1.19,-1.89,-0.067466,-0.045262,-1.04481,-0.17584,-0.2359,0.34146
-0.11294,0,0,10.1129,10.1129,9.88706,9.88706,0.0627445,0.752443,67.1704,-0.0551224,-0.0155813,0.0487856,0,0,0,4.48,1.61,-1.61,-0.082472,-0.004514,-0.964166,-0.17584,-0.2359,0.34146
-0.137555,0,0,10.1376,10.1376,9.86245,9.86245,0.0764192,0.693951,67.2005,-0.0541016,-0.0153426,0.0487982,0,0,0,4.27,1.26,-1.68,-0.082472,-0.004514,-0.964166,-0.17584,-0.2359,0.34146
0.256646,0,0,9.74335,9.74335,10.2566,10.2566,-0.142581,0.566926,67.3443,-0.0828636,0.117495,0.0746396,0,0,0,4.2,1.26,-1.47,-0.113582,0.132004,-0.938546,-0.17584,-0.2359,0.34146
0.639063,0,0,9.36094,9.36094,10.6391,10.6391,-0.355035,0.443867,67.4877,-0.0807159,0.113787,0.0746424,0,0,0,4.34,1.54,-1.05,-0.113582,0.132004,-0.938546,-0.17584,-0.2359,0.34146
0.834889,0,0,9.16511,9.16511,10.8349,10.8349,-0.463827,0.282709,67.5957,-0.13488,0.0503365,0.00997578,0,0,0,4.06,1.26,-0.84,-0.1708,0.070516,-1.00272,-0.17584,-0.2359,0.34146
1.02344,0,0,8.97656,8.97656,11.0234,11.0234,-0.568579,0.124832,67.6999,-0.132125,0.0485082,0.00996911,0,0,0,4.48,1.12,-0.77,-0.1708,0.070516,-1.00272,-0.17808,-0.2359,0.34328
0.730314,0,0,9.26969,9.26969,10.7303,10.7303,-0.40573,0.223925,67.6383,0.0682982,-0.090683,0.024373,0,0,0,5.11,1.12,-0.63,0.032208,-0.07137,-0.988444,-0.17808,-0.2359,0.34328
0.447522,0,0,9.55248,9.55248,10.4475,10.4475,-0.248623,0.320816,67.5782,0.0666071,-0.087941,0.0243806,0,0,0,4.55,1.26,-0.35,0.032208,-0.07137,-0.988444,-0.17808,-0.2359,0.34328
0.619035,0,0,9.38096,9.38096,10.619,10.619,-0.343908,0.391714,67.6314,0.0776398,0.069283,0.013053,0,0,0,4.13,1.26,-0.14,0.04453,0.087352,-0.999668,-0.17808,-0.2359,0.34328
0.782595,0,0,9.21741,9.21741,10.7826,10.7826,-0.434775,0.461997,67.6845,0.0764132,0.0676972,0.0130331,0,0,0,5.32,1.47,0.07,0.04453,0.087352,-0.999668,-0.17808,-0.2359,0.34328
1.23522,0,0,8.76478,8.76478,11.2352,11.2352,-0.686234,0.349421,67.8433,-0.0694702,0.145134,0.0412823,0,0,0,5.11,1.47,0.07,-0.103944,0.169092,-0.971608,-0.17808,-0.2359,0.34328
1.67676,0,0,8.32324,8.32324,11.6768,11.6768,-0.931532,0.239831,68.0005,-0.0675575,0.140853,0.0412317,0,0,0,4.62,1.26,-0.14,-0.103944,0.169092,-0.971608,-0.17808,-0.2359,0.34328
1.51208,0,0,8.48792,8.48792,11.5121,11.5121,-0.840046,0.141095,68.0091,-0.0945048,-0.0649222,0.0997856,0,0,0,4.76,1.05,-0.49,-0.132736,-0.038064,-0.913536,-0.17808,-0.2359,0.34328
1.35174,0,0,8.64826,8.64826,11.3517,11.3517,-0.750967,0.0441475,68.021,-0.0928128,-0.0633676,0.0998099,0,0,0,4.41,1.12,-0.56,-0.132736,-0.038064,-0.913536,-0.17556,-0.2366,0.34384
1.35207,0,0,8.64793,8.64793,11.3521,11.3521,-0.75115,0.044125,68.0219,-0.106783,0.0521611,0.111367,1,0,0,4.27,1.05,-0.49,-0.146766,0.077348,-0.902068,-0.17556,-0.2366,0.34384
1.34881,0,0,8.65119,8.65119,11.3488,11.3488,-0.749337,0.0444546,68.0223,-0.106789,0.0521927,0.111367,1,0,0,5.39,1.26,-0.77,-0.146766,0.077348,-0.902068,-0.17556,-0.2366,0.34384
1.54789,0,0,8.45211,8.45211,11.5479,11.5479,-0.859939,-0.129714,68.1367,-0.143354,0.0496519,0.0400279,0,0,0,5.11,1.19,-0.7,-0.186538,0.076738,-0.972828,-0.17556,-0.2366,0.34384
1.74363,0,0,8.25637,8.25637,11.7436,11.7436,-0.968686,-0.301125,68.2491,-0.140362,0.0477544,0.0399864,0,0,0,4.13,0.56,-1.19,-0.186538,0.076738,-0.972828,-0.17556,-0.2366,0.34384
1.39122,0,0,8.60878,8.60878,11.3912,11.3912,-0.772902,-0.265503,68.1881,0.00637857,-0.117364,0.0465577,0,0,0,4.2,1.26,-0.91,-0.038552,-0.091622,-0.966362,-0.17556,-0.2366,0.34384
1.04735,0,0,8.95265,8.95265,11.0474,11.0474,-0.581863,-0.231613,68.1272,0.00578708,-0.11403,0.0465996,0,0,0,4.62,1.05,-1.33,-0.038552,-0.091622,-0.966362,-0.17556,-0.2366,0.34384
1.16335,0,0,8.83665,8.83665,11.1634,11.1634,-0.646307,-0.411013,68.2172,-0.169666,0.0213832,-0.053633,0,0,0,3.64,0.84,-1.54,-0.217892,0.044774,-1.06579,-0.17556,-0.2366,0.34384
1.27122,0,0,8.72878,8.72878,11.2712,11.2712,-0.706231,-0.586225,68.3061,-0.166608,0.0203378,-0.053672,0,0,0,4.83,1.12,-1.61,-0.217892,0.044774,-1.06579,-0.17556,-0.2366,0.34384
1.11123,0,0,8.88877,8.88877,11.1112,11.1112,-0.617349,-0.595665,68.2992,-0.0206603,-0.0573714,0.00167109,0,0,0,4.83,1.05,-1.89,-0.071492,-0.034404,-1.01089,-0.17514,-0.23856,0.3423
1.21606,0,0,8.78394,8.78394,11.2161,11.2161,-0.675586,-0.467175,68.3305,0.134178,0.0549457,-0.0411057,0,0,0,3.99,0.91,-1.47,0.086254,0.078812,-1.05335,-0.17514,-0.23856,0.3423
1.31702,0,0,8.68298,8.68298,11.317,11.317,-0.731678,-0.340287,68.3612,0.131964,0.0539666,-0.0411021,0,0,0,4.55,1.26,-1.54,0.086254,0.078812,-1.05335,-0.17514,-0.23856,0.3423
1.30301,0,0,8.69699,8.69699,11.303,11.303,-0.723897,-0.0583175,68.3334,0.280479,0.0299211,-0.032108,0,0,0,4.34,1.33,-1.33,0.24034,0.054656,-1.04444,-0.17514,-0.23856,0.3423
1.29034,0,0,8.70966,8.70966,11.2903,11.2903,-0.716856,0.217813,68.3057,0.275659,0.0300441,-0.0321132,0,0,0,4.48,0.91,-1.26,0.24034,0.054656,-1.04444,-0.17514,-0.23856,0.3423
1.16821,0,0,8.83179,8.83179,11.1682,11.1682,-0.649006,0.540809,68.2415,0.300515,-0.00626431,0.0208544,0,0,0,4.69,1.19,-1.12,0.270962,0.017202,-0.99186,-0.17514,-0.23856,0.3423
1.05186,0,0,8.94814,8.94814,11.0519,11.0519,-0.584364,0.85797,68.177,0.29498,-0.00513552,0.020799,0,0,0,4.34,1.26,-1.47,0.270962,0.017202,-0.99186,-0.17514,-0.23856,0.3423
1.20722,0,0,8.79278,8.79278,11.2072,11.2072,-0.670677,1.00878,68.2094,0.159929,0.077382,-0.0334806,0,0,0,3.92,1.61,-1.05,0.137982,0.101138,-1.04566,-0.17514,-0.23856,0.3423
1.35812,0,0,8.64188,8.64188,11.3581,11.3581,-0.754512,1.15681,68.2467,0.157346,0.0759198,-0.0335477,0,0,0,4.83,1.68,-1.05,0.137982,0.101138,-1.04566,-0.1722,-0.24164,0.33838
1.4657,0,0,8.5343,8.5343,11.4657,11.4657,-0.814276,1.22154,68.2896,0.0743349,0.0499635,-0.0685027,0,0,0,3.99,1.47,-0.98,0.055754,0.07625,-1.08031,-0.1722,-0.24164,0.33838
1.5701,0,0,8.4299,8.4299,11.5701,11.5701,-0.872279,1.28467,68.3321,0.0732332,0.0489519,-0.0685417,0,0,0,4.2,1.12,-0.91,0.055754,0.07625,-1.08031,-0.1722,-0.24164,0.33838
1.74954,0,0,8.25046,8.25046,11.7495,11.7495,-0.971968,1.3468,68.3932,0.0715417,0.0718826,0.0114448,0,0,0,4.83,0.77,-0.77,0.055144,0.100894,-1.00089,-0.1722,-0.24164,0.33838
1.9266,0,0,8.0734,8.0734,11.9266,11.9266,-1.07033,1.40912,68.4542,0.0704545,0.0701671,0.0113881,0,0,0,4.2,1.33,-0.42,0.055144,0.100894,-1.00089,-0.1722,-0.24164,0.33838
1.73985,0,0,8.26015,8.26015,11.7399,11.7399,-0.966584,1.48589,68.4265,0.0550226,-0.0572325,0.0379433,0,0,0,4.41,1.26,-0.42,0.040992,-0.028182,-0.974536,-0.1722,-0.24164,0.33838
1.55766,0,0,8.44234,8.44234,11.5577,11.5577,-0.865369,1.56072,68.3985,0.0537169,-0.0554663,0.0379368,0,0,0,4.69,1.19,-0.84,0.040992,-0.028182,-0.974536,-0.1722,-0.24164,0.33838
1.32949,0,0,8.67051,8.67051,11.3295,11.3295,-0.738608,1.60663,68.3639,0.0243669,-0.0760923,0.0271262,0,0,0,3.99,1.33,-0.63,0.012322,-0.050996,-0.985272,-0.1722,-0.24164,0.33838
1.10696,0,0,8.89304,8.89304,11.107,11.107,-0.614976,1.65041,68.326,0.0236032,-0.0739353,0.0271299,0,0,0,4.55,0.98,-0.91,0.012322,-0.050996,-0.985272,-0.17192,-0.23646,0.34188
1.01962,0,0,8.98038,8.98038,11.0196,11.0196,-0.566456,1.71762,68.3147,0.0614275,-0.0248485,-0.0580991,0,0,0,4.34,1.33,-0.84,0.051484,-0.002806,-1.06982,-0.17192,-0.23646,0.34188
0.934084,0,0,9.06592,9.06592,10.9341,10.9341,-0.518936,1.78304,68.3035,0.0602863,-0.0240192,-0.0581261,0,0,0,4.62,1.12,-0.84,0.051484,-0.002806,-1.06982,-0.17192,-0.23646,0.34188
0.917113,0,0,9.08289,9.08289,10.9171,10.9171,-0.509507,1.61039,68.3536,-0.171048,-0.0270308,-0.047216,0,0,0,4.9,1.12,-0.98,-0.183854,-0.005978,-1.05908,-0.17192,-0.23646,0.34188
0.89932,0,0,9.10068,9.10068,10.8993,10.8993,-0.499622,1.44132,68.4026,-0.168098,-0.026859,-0.0471359,0,0,0,4.97,1.33,-1.26,-0.183854,-0.005978,-1.05908,-0.17192,-0.23646,0.34188
0.744105,0,0,9.2559,9.2559,10.7441,10.7441,-0.413392,1.2139,68.4298,-0.245525,-0.0894717,-0.0728511,0,0,0,5.53,1.26,-1.26,-0.265594,-0.070028,-1.0847,-0.17192,-0.23646,0.34188
0.592782,0,0,9.40722,9.40722,10.5928,10.5928,-0.329323,0.990352,68.4563,-0.241624,-0.0880053,-0.0727666,0,0,0,5.18,1.26,-1.26,-0.265594,-0.070028,-1.0847,-0.17192,-0.23646,0.34188
0.31512,0,0,9.68488,9.68488,10.3151,10.3151,-0.175067,1.1447,68.3805,0.127914,-0.0829928,-0.0125601,0,0,0,5.53,1.26,-1.54,0.108214,-0.06771,-1.02492,-0.17192,-0.23646,0.34188
0.0494372,0,0,9.95056,9.95056,10.0494,10.0494,-0.0274651,1.29498,68.3008,0.125292,-0.0804172,-0.0126114,0,0,0,4.55,0.91,-1.61,0.108214,-0.06771,-1.02492,-0.17276,-0.23128,0.34468
-0.107997,0,0,10.108,10.108,9.892,9.892,0.0599983,1.33943,68.2656,0.0332808,-0.0549542,-0.0551699,0,0,0,4.48,1.05,-1.75,0.016592,-0.043798,-1.06713,-0.17276,-0.23128,0.34468
-0.260969,0,0,10.261,10.261,9.73903,9.73903,0.144983,1.38275,68.2308,0.032525,-0.0534714,-0.0551905,0,0,0,4.48,1.05,-1.75,0.016592,-0.043798,-1.06713,-0.17276,-0.23128,0.34468
-0.265984,0,0,10.266,10.266,9.73402,9.73402,0.147769,1.33007,68.2489,-0.0508668,-0.00860225,-0.0228334,0,0,0,4.48,1.4,-1.89,-0.068076,0.000976,-1.03505,-0.17276,-0.23128,0.34468
-0.271202,0,0,10.2712,10.2712,9.7288,9.7288,0.150668,1.27837,68.2669,-0.0499648,-0.00855162,-0.022813,0,0,0,4.48,1.4,-1.89,-0.068076,0.000976,-1.03505,-0.17276,-0.23128,0.34468
-0.349016,0,0,10.349,10.349,9.65098,9.65098,0.193898,1.38,68.239,0.0922225,-0.0161021,-0.0164631,0,0,0,4.48,0.98,-1.4,0.076494,-0.00732,-1.0287,-0.17276,-0.23128,0.34468
-0.424188,0,0,10.4242,10.4242,9.57581,9.57581,0.23566,1.47959,68.2114,0.0904849,-0.0153736,-0.0165092,0,0,0,4.48,0.98,-1.4,0.076494,-0.00732,-1.0287,-0.17276,-0.23128,0.34468
-0.394059,0,0,10.3941,10.3941,9.60594,9.60594,0.218921,1.72809,68.1806,0.256715,0.0462522,-0.0449076,0,0,0,4.97,0.98,-1.26,0.247782,0.054534,-1.05676,-0.17276,-0.23128,0.34468
-0.360794,0,0,10.3608,10.3608,9.63921,9.63921,0.200441,1.97157,68.1572,0.252468,0.0459293,-0.0450436,0,0,0,4.97,0.98,-1.26,0.247782,0.054534,-1.05676,-0.16996,-0.23744,0.34426
-0.44211,0,0,10.4421,10.4421,9.55789,9.55789,0.245617,2.10708,68.1277,0.119872,-0.0127588,0.0157287,0,0,0,4.76,1.4,-0.77,0.116998,-0.00488,-0.996374,-0.16996,-0.23744,0.34426
-0.513723,0,0,10.5137,10.5137,9.48628,9.48628,0.285402,1.71242,68.2001,-0.369149,-0.0722722,0.0915684,0,0,0,4.41,1.33,-0.98,-0.381006,-0.065026,-0.921344,-0.16996,-0.23744,0.34426
-0.586555,0,0,10.5866,10.5866,9.41345,9.41345,0.325864,1.32486,68.2713,-0.362387,-0.0715653,0.0917439,0,0,0,4.55,1.47,-0.77,-0.381006,-0.065026,-0.921344,-0.16996,-0.23744,0.34426
-1.10779,0,0,11.1078,11.1078,8.89221,8.89221,0.615441,1.18429,68.1885,-0.162398,-0.194013,0.0969199,0,0,0,3.64,1.33,-0.35,-0.182634,-0.192394,-0.91622,-0.16996,-0.23744,0.34426
-1.61763,0,0,11.6176,11.6176,8.38237,8.38237,0.898682,1.04522,68.1063,-0.159971,-0.18907,0.0969018,0,0,0,4.2,1.33,-0.42,-0.182634,-0.192394,-0.91622,-0.16996,-0.23744,0.34426
-1.94119,0,0,11.9412,11.9412,8.05881,8.05881,1.07844,1.12019,68.0272,0.0451244,-0.10875,0.0134639,0,0,0,3.71,1.4,-0.35,0.024644,-0.11529,-0.998936,-0.16996,-0.23744,0.34426
-2.25742,0,0,12.2574,12.2574,7.74258,7.74258,1.25412,1.1927,67.9491,0.0438593,-0.105685,0.013376,0,0,0,4.27,1.12,-0.35,0.024644,-0.11529,-0.998936,-0.16996,-0.23744,0.34426
-1.91581,0,0,11.9158,11.9158,8.08419,8.08419,1.06434,0.986363,68.0767,-0.164411,0.0952009,0.0459698,0,0,0,3.99,1.54,-0.07,-0.188124,0.088694,-0.966728,-0.17164,-0.23716,0.3458
-1.99946,0,0,11.9995,11.9995,8.00054,8.00054,1.11081,1.17447,68.0307,0.185465,-0.00816356,-0.062548,0,0,0,4.34,1.12,-0.35,0.16653,-0.015372,-1.07433,-0.17164,-0.23716,0.3458
-2.07806,0,0,12.0781,12.0781,7.92194,7.92194,1.15448,1.3592,67.9848,0.182242,-0.00740321,-0.0626344,0,0,0,3.78,1.26,-0.49,0.16653,-0.015372,-1.07433,-0.17164,-0.23716,0.3458
-2.24452,0,0,12.2445,12.2445,7.75548,7.75548,1.24696,1.51587,67.9227,0.1314,-0.0402312,0.0264009,0,0,0,3.99,1.54,-0.42,0.118218,-0.049776,-0.985882,-0.17164,-0.23716,0.3458
-2.4021,0,0,12.4021,12.4021,7.5979,7.5979,1.3345,1.66839,67.8608,0.128739,-0.0387059,0.0262926,0,0,0,2.87,0.98,-0.7,0.118218,-0.049776,-0.985882,-0.17164,-0.23716,0.3458
-2.34442,0,0,12.3444,12.3444,7.65558,7.65558,1.30245,1.83191,67.8465,0.157108,0.0412147,0.0109727,0,0,0,2.8,1.54,-0.77,0.149572,0.030622,-1.00101,-0.17164,-0.23716,0.3458
-2.29035,0,0,12.2904,12.2904,7.70965,7.70965,1.27242,1.99143,67.832,0.154326,0.0406888,0.0108916,0,0,0,3.78,0.91,-0.84,0.149572,0.030622,-1.00101,-0.17164,-0.23716,0.3458
-1.89918,0,0,11.8992,11.8992,8.10082,8.10082,1.0551,1.97196,67.93,0.0132559,0.150233,-0.0705345,0,0,0,3.29,1.12,-0.91,0.007564,0.143838,-1.0819,-0.17164,-0.23716,0.3458
-1.51821,0,0,11.5182,11.5182,8.48179,8.48179,0.843449,1.95322,68.0233,0.0135828,0.146542,-0.0704622,0,0,0,3.5,0.91,-1.12,0.007564,0.143838,-1.0819,-0.17346,-0.23576,0.3388
-1.57436,0,0,11.5744,11.5744,8.42564,8.42564,0.874645,1.9901,68.0059,0.0280037,-0.0149767,0.0402841,0,0,0,4.06,0.98,-1.12,0.022692,-0.018056,-0.971974,-0.17346,-0.23576,0.3388
-1.6281,0,0,11.6281,11.6281,8.3719,8.3719,0.904499,2.02595,67.9882,0.0273784,-0.0144564,0.0402541,0,0,0,3.85,0.84,-1.33,0.022692,-0.018056,-0.971974,-0.17346,-0.23576,0.3388
-1.90682,0,0,11.9068,11.9068,8.09318,8.09318,1.05934,2.24469,67.8829,0.201297,-0.0817372,-0.0469819,0,0,0,3.71,0.91,-1.68,0.201178,-0.087962,-1.05835,-0.17346,-0.23576,0.3388
-2.17943,0,0,12.1794,12.1794,7.82057,7.82057,1.2108,2.45938,67.779,0.197553,-0.0790997,-0.047188,0,0,0,4.41,1.12,-1.47,0.201178,-0.087962,-1.05835,-0.17346,-0.23576,0.3388
-2.17946,0,0,12.1795,12.1795,7.82054,7.82054,1.21081,2.45925,67.7778,-0.194358,0.0386308,-0.121695,1,0,0,4.41,0.98,-1.68,-0.192394,0.029646,-1.13228,-0.17346,-0.23576,0.3388
-2.17902,0,0,12.179,12.179,7.82098,7.82098,1.21057,2.45913,67.7764,-0.194355,0.0386265,-0.121694,1,0,0,4.27,0.98,-1.82,-0.192394,0.029646,-1.13228,-0.17346,-0.23576,0.3388
-2.55082,0,0,12.5508,12.5508,7.44918,7.44918,1.41712,2.39485,67.7002,-0.0900933,-0.150365,-0.0125513,0,0,0,4.76,1.33,-1.54,-0.088816,-0.162748,-1.02395,-0.17346,-0.23576,0.3388
-2.90838,0,0,12.9084,12.9084,7.09162,7.09162,1.61577,2.33035,67.6181,-0.0889685,-0.146901,-0.0125966,0,0,0,3.92,1.19,-1.4,-0.088816,-0.162748,-1.02395,-0.17668,-0.23184,0.34006
-2.9561,0,0,12.9561,12.9561,7.0439,7.0439,1.64228,2.45436,67.5723,0.106526,0.000721005,0.0474218,0,0,0,4.2,0.98,-1.54,0.109678,-0.015738,-0.964288,-0.17668,-0.23184,0.34006
-3.00179,0,0,13.0018,13.0018,6.99821,6.99821,1.66766,2.57598,67.5269,0.104406,0.00116071,0.0473159,0,0,0,4.2,0.98,-1.54,0.109678,-0.015738,-0.964288,-0.17668,-0.23184,0.34006
-2.78462,0,0,12.7846,12.7846,7.21538,7.21538,1.54701,2.58101,67.5643,0.0224365,0.084058,-0.0307014,0,0,0,4.76,1.26,-1.4,0.02745,0.069174,-1.04176,-0.17668,-0.23184,0.34006
-2.573,0,0,12.573,12.573,7.427,7.427,1.42944,2.58639,67.6015,0.0223428,0.0820087,-0.0306524,0,0,0,4.76,1.26,-1.4,0.02745,0.069174,-1.04176,-0.17668,-0.23184,0.34006
-2.79702,0,0,12.797,12.797,7.20298,7.20298,1.5539,2.67577,67.5237,0.0724158,-0.0734896,-0.0289362,0,0,0,5.32,0.56,-1.05,0.0793,-0.088328,-1.03993,-0.17668,-0.23184,0.34006
-2.28964,0,0,12.2896,12.2896,7.71036,7.71036,1.27202,2.58392,67.6475,-0.0485618,0.182584,-0.0216105,0,0,0,4.69,0.35,-1.26,-0.043798,0.172386,-1.03285,-0.17668,-0.23184,0.34006
-1.79671,0,0,11.7967,11.7967,8.20329,8.20329,0.998172,2.49587,67.7713,-0.0470266,0.177811,-0.0214478,0,0,0,4.97,0.91,-0.98,-0.043798,0.172386,-1.03285,-0.17668,-0.23184,0.34006
-1.4654,0,0,11.4654,11.4654,8.5346,8.5346,0.814109,2.33578,67.8812,-0.127696,0.10487,-0.012304,0,0,0,5.25,0.7,-0.91,-0.127612,0.102724,-1.02395,-0.17346,-0.23646,0.343
-1.142,0,0,11.142,11.142,8.858,8.858,0.634446,2.17984,67.9903,-0.124976,0.101738,-0.0121572,0,0,0,4.69,0.91,-0.91,-0.127612,0.102724,-1.02395,-0.17346,-0.23646,0.343
-1.08491,0,0,11.0849,11.0849,8.91509,8.91509,0.602727,1.93826,68.0555,-0.222082,-0.00872762,0.0256225,0,0,0,5.18,0.63,-0.77,-0.22936,-0.007076,-0.986614,-0.17346,-0.23646,0.343
-1.03097,0,0,11.031,11.031,8.96903,8.96903,0.572761,1.7013,68.1199,-0.217948,-0.00924898,0.0257592,0,0,0,5.18,0.63,-0.77,-0.22936,-0.007076,-0.986614,-0.17346,-0.23646,0.343
-1.41131,0,0,11.4113,11.4113,8.58869,8.58869,0.78406,1.64837,68.0464,-0.0826612,-0.157733,-0.054297,0,0,0,4.76,1.47,-1.26,-0.094428,-0.159088,-1.06604,-0.17346,-0.23646,0.343
-1.7818,0,0,11.7818,11.7818,8.2182,8.2182,0.989891,1.59566,67.9738,-0.0817417,-0.154142,-0.0543265,0,0,0,4.76,1.47,-1.26,-0.094428,-0.159088,-1.06604,-0.17346,-0.23646,0.343
-2.02292,0,0,12.0229,12.0229,7.97708,7.97708,1.12384,1.3822,67.9597,-0.224408,-0.119928,0.00388181,0,0,0,4.41,0.7,-1.12,-0.241438,-0.127246,-1.00833,-0.17346,-0.23646,0.343
-2.25907,0,0,12.2591,12.2591,7.74093,7.74093,1.25504,1.17212,67.9454,-0.220742,-0.117638,0.003916,0,0,0,4.41,0.7,-1.12,-0.241438,-0.127246,-1.00833,-0.17346,-0.23646,0.343
-2.44225,0,0,12.4423,12.4423,7.55775,7.55775,1.35681,1.19799,67.9022,0.0113303,-0.0676224,-0.0331413,0,0,0,4.27,1.33,-1.05,-0.00793,-0.079056,-1.04505,-0.17164,-0.2366,0.3486
-2.07644,0,0,12.0764,12.0764,7.92356,7.92356,1.15358,1.19379,67.996,0.0210009,0.131318,0.0429201,0,0,0,5.04,1.47,-1.05,0.001708,0.12322,-0.969656,-0.17164,-0.2366,0.3486
-1.71645,0,0,11.7164,11.7164,8.28355,8.28355,0.953583,1.18952,68.0892,0.0210754,0.127829,0.0429858,0,0,0,3.92,0.91,-0.98,0.001708,0.12322,-0.969656,-0.17164,-0.2366,0.3486
-1.71635,0,0,11.7163,11.7163,8.28365,8.28365,0.953527,1.18925,68.0893,0.183021,0.0740924,-0.136396,1,0,0,4.34,0.91,-0.91,0.164334,0.06954,-1.14765,-0.17164,-0.2366,0.3486
-1.7158,0,0,11.7158,11.7158,8.2842,8.2842,0.953223,1.18945,68.0896,0.183017,0.0740871,-0.136396,1,0,0,4.2,1.19,-0.84,0.164334,0.06954,-1.14765,-0.17164,-0.2366,0.3486
-1.77445,0,0,11.7745,11.7745,8.22555,8.22555,0.985808,1.28101,68.0663,0.0798574,-0.00985664,0.0193358,0,0,0,4.06,1.54,-0.84,0.062342,-0.014884,-0.99308,-0.17164,-0.2366,0.3486
-1.83213,0,0,11.8321,11.8321,8.16787,8.16787,1.01785,1.37064,68.0429,0.0782934,-0.00929827,0.0192898,0,0,0,4.41,1.47,-1.05,0.062342,-0.014884,-0.99308,-0.17164,-0.2366,0.3486
-1.85456,0,0,11.8546,11.8546,8.14544,8.14544,1.03031,1.4303,68.0327,0.0564785,-0.00126526,-0.0209437,0,0,0,4.13,1.12,-0.98,0.04148,-0.007076,-1.03297,-0.17164,-0.2366,0.3486
-1.87625,0,0,11.8763,11.8763,8.12375,8.12375,1.04236,1.48796,68.0226,0.0554724,-0.00105546,-0.0209731,0,0,0,4.2,0.63,-0.98,0.04148,-0.007076,-1.03297,-0.17164,-0.2366,0.3486
-2.00428,0,0,12.0043,12.0043,7.99572,7.99572,1.11349,1.3424,68.0265,-0.154466,-0.0707691,-0.0403596,0,0,0,4.2,1.26,-0.91,-0.171898,-0.077958,-1.05225,-0.16884,-0.23296,0.3409
-2.12828,0,0,12.1283,12.1283,7.87172,7.87172,1.18238,1.19938,68.03,-0.151971,-0.0695662,-0.0403283,0,0,0,3.71,1.33,-0.98,-0.171898,-0.077958,-1.05225,-0.16884,-0.23296,0.3409
-2.65906,0,0,12.6591,12.6591,7.34094,7.34094,1.47725,1.21856,67.9058,-0.0230448,-0.204013,-0.0207831,0,0,0,3.85,1.4,-0.98,-0.04209,-0.217404,-1.03273,-0.16884,-0.23296,0.3409
-3.17561,0,0,13.1756,13.1756,6.82439,6.82439,1.76423,1.23646,67.7831,-0.023357,-0.199008,-0.0209314,0,0,0,3.85,1.4,-0.98,-0.04209,-0.217404,-1.03273,-0.16884,-0.23296,0.3409
-3.04229,0,0,13.0423,13.0423,6.95771,6.95771,1.69016,1.19561,67.8242,-0.0298118,0.0440763,-0.0671059,0,0,0,3.85,1.4,-1.05,-0.049288,0.026718,-1.0786,-0.16884,-0.23296,0.3409
-2.91275,0,0,12.9127,12.9127,7.08725,7.08725,1.61819,1.15582,67.865,-0.0291175,0.0428214,-0.0670554,0,0,0,3.85,1.4,-1.05,-0.049288,0.026718,-1.0786,-0.16884,-0.23296,0.3409
-2.64744,0,0,12.6474,12.6474,7.35256,7.35256,1.4708,1.15767,67.9323,0.0216312,0.101069,-0.030594,0,0,0,4.55,1.89,-0.77,0.001708,0.087474,-1.04249,-0.16884,-0.23296,0.3409
-2.38896,0,0,12.389,12.389,7.61104,7.61104,1.3272,1.16006,67.9991,0.0215894,0.0985644,-0.0305337,0,0,0,4.55,1.89,-0.77,0.001708,0.087474,-1.04249,-0.16884,-0.23296,0.3409
-2.02584,0,0,12.0258,12.0258,7.97416,7.97416,1.12547,1.16747,68.0926,0.0315435,0.129485,0.0494556,0,0,0,3.85,1.19,-0.7,0.011834,0.121878,-0.96319,-0.16884,-0.238,0.33782
-1.97538,0,0,11.9754,11.9754,8.02462,8.02462,1.09743,1.13768,68.1208,-0.0241846,0.0148074,0.0595573,0,0,0,4.2,1.05,-0.56,-0.044652,0.007808,-0.953186,-0.16884,-0.238,0.33782
-1.92709,0,0,11.9271,11.9271,8.07291,8.07291,1.07061,1.10834,68.148,-0.0236726,0.0143395,0.0595762,0,0,0,4.41,0.91,-1.05,-0.044652,0.007808,-0.953186,-0.16884,-0.238,0.33782
-1.92676,0,0,11.9268,11.9268,8.07324,8.07324,1.07042,1.10843,68.148,0.15734,0.0412042,0.123632,1,0,0,4.27,1.12,-0.98,0.137128,0.034648,-0.889624,-0.16884,-0.238,0.33782
-1.9271,0,0,11.9271,11.9271,8.0729,8.0729,1.07061,1.10828,68.1478,0.157342,0.0412075,0.123632,1,0,0,4.48,0.98,-1.12,0.137128,0.034648,-0.889624,-0.16884,-0.238,0.33782
-1.46085,0,0,11.4608,11.4608,8.53915,8.53915,0.811583,0.95412,68.2974,-0.103227,0.138909,0.104944,0,0,0,4.06,1.05,-1.12,-0.127246,0.136762,-0.90829,-0.16884,-0.238,0.33782
-1.011,0,0,11.011,11.011,8.989,8.989,0.561667,0.803896,68.4445,-0.100606,0.134548,0.105036,0,0,0,5.11,0.98,-1.89,-0.127246,0.136762,-0.90829,-0.16884,-0.238,0.33782
-0.785699,0,0,10.7857,10.7857,9.2143,9.2143,0.4365,0.683897,68.5349,-0.0945024,0.0660494,0.0416412,0,0,0,4.9,1.12,-1.82,-0.12322,0.070516,-0.971242,-0.16884,-0.238,0.33782
-0.563794,0,0,10.5638,10.5638,9.43621,9.43621,0.313219,0.566157,68.6135,-0.0924475,0.063898,0.0416777,0,0,0,4.41,1.05,-1.82,-0.12322,0.070516,-0.971242,-0.17626,-0.23632,0.33474
-0.414203,0,0,10.4142,10.4142,9.5858,9.5858,0.230113,0.730399,68.6256,0.15519,0.0709964,0.0864054,0,0,0,4.06,0.84,-1.75,0.128344,0.079056,-0.926834,-0.17626,-0.23632,0.33474
-0.269917,0,0,10.2699,10.2699,9.73008,9.73008,0.149954,0.891801,68.6374,0.152373,0.0695974,0.0863701,0,0,0,4.83,0.77,-1.68,0.128344,0.079056,-0.926834,-0.17626,-0.23632,0.33474
-0.270214,0,0,10.2702,10.2702,9.72979,9.72979,0.150119,0.891293,68.6357,0.234992,0.0884078,-0.157928,1,0,0,4.48,0.77,-1.96,0.211304,0.097844,-1.16925,-0.17626,-0.23632,0.33474
-0.270068,0,0,10.2701,10.2701,9.72993,9.72993,0.150038,0.890785,68.6343,0.235001,0.0884063,-0.157928,1,0,0,4.34,0.77,-1.82,0.211304,0.097844,-1.16925,-0.17626,-0.23632,0.33474
-0.271716,0,0,10.2717,10.2717,9.72828,9.72828,0.150953,0.890635,68.6328,-0.00736046,-0.00195146,-0.15301,1,0,0,4.9,0.98,-1.89,-0.032086,0.007564,-1.16437,-0.17626,-0.23632,0.33474
-0.272482,0,0,10.2725,10.2725,9.72752,9.72752,0.151379,0.890842,68.6319,-0.00736408,-0.00194403,-0.15301,1,0,0,4.62,1.19,-1.54,-0.032086,0.007564,-1.16437,-0.17626,-0.23632,0.33474
-0.274144,0,0,10.2741,10.2741,9.72586,9.72586,0.152302,0.890931,68.6309,0.0377056,-0.0168274,-0.232312,1,0,0,4.9,1.12,-1.61,0.013176,-0.00732,-1.24306,-0.17626,-0.23632,0.33474
-0.274471,0,0,10.2745,10.2745,9.72553,9.72553,0.152484,0.891376,68.6303,0.0376978,-0.0168242,-0.232312,1,0,0,4.48,1.33,-1.33,0.013176,-0.00732,-1.24306,-0.17542,-0.23954,0.33838
-0.35177,0,0,10.3518,10.3518,9.64823,9.64823,0.195428,0.988126,68.604,0.0952944,-0.0180289,-0.0822222,0,0,0,4.27,1.26,-1.26,0.072712,-0.009272,-1.0941,-0.17542,-0.23954,0.33838
-0.426705,0,0,10.4267,10.4267,9.57329,9.57329,0.237058,1.08271,68.5783,0.0936438,-0.0173026,-0.0822548,0,0,0,4.34,1.12,-1.12,0.072712,-0.009272,-1.0941,-0.17542,-0.23954,0.33838
-0.584874,0,0,10.5849,10.5849,9.41513,9.41513,0.32493,1.09732,68.5471,0.00118125,-0.0572923,-0.0112029,0,0,0,4.48,1.82,-0.91,-0.019886,-0.050752,-1.02358,-0.17542,-0.23954,0.33838
-0.736296,0,0,10.7363,10.7363,9.2637,9.2637,0.409053,1.10992,68.5169,0.000961487,-0.0558244,-0.0112166,0,0,0,3.71,0.98,-0.56,-0.019886,-0.050752,-1.02358,-0.17542,-0.23954,0.33838
-0.735092,0,0,10.7351,10.7351,9.26491,9.26491,0.408384,1.11059,68.5176,0.106521,0.0234242,-0.121502,1,0,0,3.99,1.47,-0.56,0.086132,0.028426,-1.13301,-0.17542,-0.23954,0.33838
-0.735024,0,0,10.735,10.735,9.26498,9.26498,0.408347,1.11091,68.5188,0.106515,0.0234235,-0.121502,1,0,0,4.34,1.26,-0.35,0.086132,0.028426,-1.13301,-0.17542,-0.23954,0.33838
-1.07223,0,0,11.0722,11.0722,8.92777,8.92777,0.595684,0.995655,68.4675,-0.142463,-0.147704,-0.0345687,0,0,0,4.13,1.33,-0.07,-0.16592,-0.14579,-1.04676,-0.17542,-0.23954,0.33838
-1.40216,0,0,11.4022,11.4022,8.59784,8.59784,0.778976,0.881644,68.4225,-0.140473,-0.144505,-0.0345745,0,0,0,3.85,0.98,-0.28,-0.16592,-0.14579,-1.04676,-0.17094,-0.24038,0.33586
-1.4545,0,0,11.4545,11.4545,8.5455,8.5455,0.808057,0.821001,68.4336,-0.0606923,-0.0261454,0.037605,0,0,0,3.92,1.33,0.07,-0.086864,-0.02806,-0.975146,-0.17094,-0.24038,0.33586
-1.50719,0,0,11.5072,11.5072,8.49281,8.49281,0.837328,0.761131,68.4447,-0.0596475,-0.0256345,0.0376121,0,0,0,4.34,1.19,0.21,-0.086864,-0.02806,-0.975146,-0.17094,-0.24038,0.33586
-1.42181,0,0,11.4218,11.4218,8.57819,8.57819,0.789894,0.814525,68.4683,0.0538602,0.0370436,0.0414224,0,0,0,4.13,1.54,0.28,0.02806,0.03538,-0.971364,-0.17094,-0.24038,0.33586
-1.33787,0,0,11.3379,11.3379,8.66213,8.66213,0.743259,0.866278,68.4908,0.052957,0.0362296,0.0414201,0,0,0,3.99,1.05,-0.14,0.02806,0.03538,-0.971364,-0.17094,-0.24038,0.33586
-1.20845,0,0,11.2084,11.2084,8.79155,8.79155,0.671361,0.921955,68.5233,0.0602464,0.052561,0.0340435,0,0,0,3.5,1.12,0,0.036356,0.052948,-0.978684,-0.17094,-0.24038,0.33586
-1.08406,0,0,11.0841,11.0841,8.91594,8.91594,0.602257,0.977112,68.555,0.0592839,0.051355,0.0340409,0,0,0,4.13,1.26,-0.35,0.036356,0.052948,-0.978684,-0.17094,-0.24038,0.33586
-0.580519,0,0,10.5805,10.5805,9.41948,9.41948,0.322511,1.03752,68.6751,0.0841063,0.176294,0.112257,0,0,0,4.13,1.4,-0.84,0.062342,0.182634,-0.901092,-0.17094,-0.24038,0.33586
-0.0897554,0,0,10.0898,10.0898,9.91024,9.91024,0.0498641,1.09801,68.7986,0.0830506,0.171536,0.112253,0,0,0,3.99,1.33,-0.77,0.062342,0.182634,-0.901092,-0.16884,-0.2415,0.34734
0.129878,0,0,9.87012,9.87012,10.1299,10.1299,-0.0721546,1.20082,68.8511,0.103488,0.0863609,0.0963561,0,0,0,4.97,1.05,-0.98,0.084668,0.099674,-0.91683,-0.16884,-0.2415,0.34734
0.349934,0,0,9.65007,9.65007,10.3499,10.3499,-0.194408,1.30207,68.9025,0.101722,0.0842278,0.0963125,0,0,0,3.29,0.98,-1.26,0.084668,0.099674,-0.91683,-0.16884,-0.2415,0.34734
0.532248,0,0,9.46775,9.46775,10.5322,10.5322,-0.295693,1.24941,68.9743,-0.0358531,0.0547376,0.0926369,0,0,0,3.99,0.91,-1.54,-0.054412,0.07198,-0.92049,-0.16884,-0.2415,0.34734
0.707714,0,0,9.29229,9.29229,10.7077,10.7077,-0.393175,1.19872,69.045,-0.0349685,0.0530365,0.0926456,0,0,0,4.55,1.26,-1.82,-0.054412,0.07198,-0.92049,-0.16884,-0.2415,0.34734
1.03916,0,0,8.96084,8.96084,11.0392,11.0392,-0.57731,0.954487,69.19,-0.221925,0.0986734,-0.0237337,0,0,0,4.55,1.26,-1.82,-0.24644,0.12078,-1.03602,-0.16884,-0.2415,0.34734
1.35827,0,0,8.64173,8.64173,11.3583,11.3583,-0.754593,0.714919,69.3331,-0.217744,0.0955791,-0.0237088,0,0,0,5.25,0.91,-2.17,-0.24644,0.12078,-1.03602,-0.16884,-0.2415,0.34734
1.58614,0,0,8.41386,8.41386,11.5861,11.5861,-0.881188,0.625286,69.4287,-0.06736,0.0716312,0.0403341,0,0,0,5.46,0.77,-2.24,-0.09699,0.099064,-0.972462,-0.16884,-0.2415,0.34734
1.81157,0,0,8.18843,8.18843,11.8116,11.8116,-1.00643,0.53781,69.5232,-0.0658334,0.0694455,0.0403136,0,0,0,4.2,0.77,-2.31,-0.09699,0.099064,-0.972462,-0.16884,-0.2415,0.34734
1.42012,0,0,8.57988,8.57988,11.4201,11.4201,-0.788958,0.63421,69.4276,0.0635673,-0.130955,0.0267086,0,0,0,4.83,1.12,-2.45,0.034648,-0.10492,-0.986004,-0.16912,-0.23366,0.3451
1.48488,0,0,8.51512,8.51512,11.4849,11.4849,-0.824931,0.648843,69.4587,0.0169044,0.0236401,0.0750157,0,0,0,5.25,0.98,-2.45,-0.011956,0.050142,-0.938058,-0.16912,-0.23366,0.3451
1.54981,0,0,8.45019,8.45019,11.5498,11.5498,-0.861003,0.662864,69.4899,0.0166597,0.0230107,0.0750036,0,0,0,4.69,0.7,-2.17,-0.011956,0.050142,-0.938058,-0.16912,-0.23366,0.3451
1.76836,0,0,8.23164,8.23164,11.7684,11.7684,-0.982422,0.96391,69.506,0.295075,0.111145,0.0966568,0,0,0,5.25,0.77,-2.24,0.272914,0.1403,-0.916464,-0.16912,-0.23366,0.3451
1.98428,0,0,8.01572,8.01572,11.9843,11.9843,-1.10238,1.26147,69.5222,0.289883,0.109054,0.0965179,0,0,0,4.9,1.54,-1.82,0.272914,0.1403,-0.916464,-0.16912,-0.23366,0.3451
2.1666,0,0,7.8334,7.8334,12.1666,12.1666,-1.20367,1.62554,69.5166,0.346581,0.103016,0.126936,0,0,0,4.97,1.33,-1.82,0.336232,0.13603,-0.886086,-0.16912,-0.23366,0.3451
2.34724,0,0,7.65276,7.65276,12.3472,12.3472,-1.30402,1.98429,69.5109,0.340323,0.10127,0.126701,0,0,0,4.69,1.61,-1.54,0.336232,0.13603,-0.886086,-0.16912,-0.23366,0.3451
2.26953,0,0,7.73047,7.73047,12.2695,12.2695,-1.26085,2.03888,69.4943,0.0406378,-0.0219352,0.0791034,0,0,0,5.04,1.33,-1.26,0.036234,0.0122,-0.9333,-0.175,-0.23534,0.34874
2.23402,0,0,7.76598,7.76598,12.234,12.234,-1.24112,1.80708,69.5397,-0.228419,-0.0410123,0.0137151,0,0,0,4.62,1.05,-0.91,-0.238022,-0.007198,-0.998326,-0.175,-0.23534,0.34874
2.19822,0,0,7.80178,7.80178,12.1982,12.1982,-1.22124,1.58023,69.5854,-0.224461,-0.040668,0.0138395,0,0,0,4.55,1.54,-0.35,-0.238022,-0.007198,-0.998326,-0.175,-0.23534,0.34874
1.98033,0,0,8.01967,8.01967,11.9803,11.9803,-1.10018,1.1936,69.6143,-0.417681,-0.136139,0.0139226,0,0,0,4.55,1.26,-0.28,-0.438834,-0.104676,-0.998448,-0.175,-0.23534,0.34874
1.76655,0,0,8.23345,8.23345,11.7666,11.7666,-0.981418,0.812813,69.6422,-0.411036,-0.134069,0.0140766,0,0,0,4.27,1.12,-0.14,-0.438834,-0.104676,-0.998448,-0.175,-0.23534,0.34874
1.24835,0,0,8.75165,8.75165,11.2484,11.2484,-0.693528,0.646226,69.5563,-0.202575,-0.216366,0.021564,0,0,0,4.34,1.33,-0.07,-0.23241,-0.191906,-0.991128,-0.175,-0.23534,0.34874
0.743738,0,0,9.25626,9.25626,10.7437,10.7437,-0.413188,0.481248,69.4716,-0.199695,-0.211474,0.0216396,0,0,0,4.06,1.12,0.28,-0.23241,-0.191906,-0.991128,-0.175,-0.23534,0.34874
0.58934,0,0,9.41066,9.41066,10.5893,10.5893,-0.327411,0.409527,69.4564,-0.0776868,-0.0637915,0.057437,0,0,0,3.71,1.68,0.49,-0.111142,-0.045872,-0.955626,-0.175,-0.23534,0.34874
0.435461,0,0,9.56454,9.56454,10.4355,10.4355,-0.241923,0.338624,69.4427,-0.0764494,-0.0622995,0.0574525,0,0,0,4.62,1.54,0.63,-0.111142,-0.045872,-0.955626,-0.17472,-0.23646,0.34804
0.520453,0,0,9.47955,9.47955,10.5205,10.5205,-0.289141,0.346025,69.4734,0.0124705,0.0321352,-0.000952665,0,0,0,4.2,1.54,0.42,-0.021716,0.049288,-1.01358,-0.17472,-0.23646,0.34804
0.602147,0,0,9.39785,9.39785,10.6021,10.6021,-0.334526,0.353221,69.5035,0.0123449,0.0313431,-0.000957743,0,0,0,4.55,1.4,0.28,-0.021716,0.049288,-1.01358,-0.17472,-0.23646,0.34804
0.790863,0,0,9.20914,9.20914,10.7909,10.7909,-0.439368,0.537331,69.5288,0.180183,0.0872795,0.0801509,0,0,0,4.69,1.12,-0.07,0.15006,0.106994,-0.933056,-0.17472,-0.23646,0.34804
0.975882,0,0,9.02412,9.02412,10.9759,10.9759,-0.542157,0.718507,69.5535,0.177022,0.085486,0.0801009,0,0,0,4.69,1.12,-0.07,0.15006,0.106994,-0.933056,-0.17472,-0.23646,0.34804
0.976199,0,0,9.0238,9.0238,10.9762,10.9762,-0.542333,0.718479,69.5542,0.0572372,0.084628,0.142805,1,0,0,4.27,1.05,-0.63,0.029768,0.10614,-0.870836,-0.17472,-0.23646,0.34804
0.976516,0,0,9.02348,9.02348,10.9765,10.9765,-0.542509,0.718451,69.5548,0.0572377,0.084625,0.142805,1,0,0,4.27,1.05,-0.63,0.029768,0.10614,-0.870836,-0.17472,-0.23646,0.34804
1.07176,0,0,8.92824,8.92824,11.0718,11.0718,-0.595419,0.777003,69.5766,0.0683644,0.0449876,-0.0556568,0,0,0,3.78,0.84,-1.05,0.041968,0.067466,-1.06774,-0.17472,-0.23646,0.34804
1.16488,0,0,8.83512,8.83512,11.1649,11.1649,-0.647155,0.83467,69.5982,0.067358,0.0440849,-0.0556807,0,0,0,3.78,0.84,-1.05,0.041968,0.067466,-1.06774,-0.17472,-0.23646,0.34804
1.13175,0,0,8.86825,8.86825,11.1318,11.1318,-0.628752,0.897903,69.5988,0.0626099,-0.00566574,-0.0458579,0,0,0,3.57,0.98,-1.47,0.038308,0.017446,-1.05798,-0.1673,-0.24136,0.34342
0.673663,0,0,9.32634,9.32634,10.6737,10.6737,-0.374257,0.949408,69.496,0.0156681,-0.166706,0.00519006,0,0,0,2.94,1.54,-1.96,-0.00793,-0.147864,-1.00735,-0.1673,-0.24136,0.34342
0.227892,0,0,9.77211,9.77211,10.2279,10.2279,-0.126607,0.999258,69.3945,0.0147981,-0.162385,0.00519416,0,0,0,2.94,1.54,-1.96,-0.00793,-0.147864,-1.00735,-0.1673,-0.24136,0.34342
0.0939208,0,0,9.90608,9.90608,10.0939,10.0939,-0.0521782,0.987233,69.3781,-0.0211948,-0.0487292,0.0666741,0,0,0,3.57,0.98,-2.03,-0.044286,-0.035624,-0.946354,-0.1673,-0.24136,0.34342
-0.0365911,0,0,10.0366,10.0366,9.96341,9.96341,0.0203284,0.975172,69.362,-0.0209843,-0.0474639,0.066678,0,0,0,3.57,0.98,-2.03,-0.044286,-0.035624,-0.946354,-0.1673,-0.24136,0.34342
-0.0355238,0,0,10.0355,10.0355,9.96448,9.96448,0.0197354,0.975617,69.36,-0.187913,0.0466855,0.126677,1,0,0,4.06,1.33,-2.17,-0.211914,0.058438,-0.886818,-0.1673,-0.24136,0.34342
-0.0344565,0,0,10.0345,10.0345,9.96554,9.96554,0.0191425,0.976061,69.358,-0.187921,0.0466751,0.126677,1,0,0,4.06,1.33,-2.17,-0.211914,0.058438,-0.886818,-0.1673,-0.24136,0.34342
-0.0336286,0,0,10.0336,10.0336,9.96637,9.96637,0.0186826,0.974833,69.3565,0.0457173,0.0793971,0.109833,1,0,0,4.13,0.35,-1.89,0.022692,0.091134,-0.903532,-0.16912,-0.23828,0.34384
-0.11502,0,0,10.115,10.115,9.88498,9.88498,0.0638997,0.863932,69.3661,-0.104083,-0.0391316,0.10138,0,0,0,4.83,1.12,-1.96,-0.129686,-0.02806,-0.91195,-0.16912,-0.23828,0.34384
-0.19494,0,0,10.1949,10.1949,9.80506,9.80506,0.1083,0.754878,69.3754,-0.10218,-0.0383567,0.101406,0,0,0,4.83,1.12,-1.96,-0.129686,-0.02806,-0.91195,-0.16912,-0.23828,0.34384
-0.195474,0,0,10.1955,10.1955,9.80453,9.80453,0.108597,0.755325,69.374,0.011037,-0.0564263,-0.130844,1,0,0,4.55,1.33,-1.82,-0.015982,-0.046116,-1.14241,-0.16912,-0.23828,0.34384
-0.196008,0,0,10.196,10.196,9.80399,9.80399,0.108894,0.755771,69.3726,0.0110292,-0.0564212,-0.130844,1,0,0,4.55,1.33,-1.82,-0.015982,-0.046116,-1.14241,-0.16912,-0.23828,0.34384
-0.359835,0,0,10.3598,10.3598,9.64016,9.64016,0.199908,0.773811,69.3398,0.00536902,-0.0575196,0.0117677,0,0,0,4.83,1.12,-1.47,-0.02135,-0.0488,-1.00089,-0.16912,-0.23828,0.34384
-0.864929,0,0,10.8649,10.8649,9.13507,9.13507,0.480516,0.674284,69.2434,-0.143536,-0.215173,-0.0420909,0,0,0,4.69,1.4,-1.19,-0.17263,-0.211182,-1.05432,-0.16912,-0.23828,0.34384
-1.35704,0,0,11.357,11.357,8.64296,8.64296,0.753911,0.575366,69.1484,-0.14181,-0.210402,-0.0421235,0,0,0,4.62,1.26,-0.98,-0.17263,-0.211182,-1.05432,-0.16912,-0.23828,0.34384
-1.46829,0,0,11.4683,11.4683,8.53171,8.53171,0.815719,0.280759,69.1736,-0.285245,-0.0768152,0.0792503,0,0,0,4.2,1.75,-0.63,-0.321836,-0.078812,-0.93391,-0.1722,-0.23674,0.34118
-1.00807,0,0,11.0081,11.0081,8.99193,8.99193,0.560038,0.27578,69.2904,0.030583,0.179463,-0.0333165,0,0,0,5.39,1.12,-0.7,-0.004758,0.181658,-1.04566,-0.1722,-0.23674,0.34118
-0.557224,0,0,10.5572,10.5572,9.44278,9.44278,0.309569,0.272493,69.4073,0.0306403,0.175092,-0.0332831,0,0,0,4.69,1.47,-0.14,-0.004758,0.181658,-1.04566,-0.1722,-0.23674,0.34118
-0.7093,0,0,10.7093,10.7093,9.2907,9.2907,0.394056,0.202516,69.3887,-0.0836712,-0.0693967,-0.057262,0,0,0,4.76,1.05,-0.28,-0.12078,-0.06405,-1.06945,-0.1722,-0.23674,0.34118
-0.857554,0,0,10.8576,10.8576,9.14245,9.14245,0.476419,0.134579,69.3712,-0.0824855,-0.0679592,-0.0572694,0,0,0,4.69,1.68,0.28,-0.12078,-0.06405,-1.06945,-0.1722,-0.23674,0.34118
-0.859476,0,0,10.8595,10.8595,9.14052,9.14052,0.477487,0.13489,69.3728,0.0397237,-0.0556058,-0.150588,1,0,0,4.97,1.26,-0.07,0.001952,-0.051728,-1.16205,-0.1722,-0.23674,0.34118
-0.861399,0,0,10.8614,10.8614,9.1386,9.1386,0.478555,0.134603,69.3745,0.0397287,-0.0555871,-0.150588,1,0,0,4.97,0.91,0,0.001952,-0.051728,-1.16205,-0.1722,-0.23674,0.34118
-0.86377,0,0,10.8638,10.8638,9.13623,9.13623,0.479872,0.134677,69.3759,0.103143,-0.0818214,-0.0964905,1,0,0,5.11,1.12,-0.21,0.065636,-0.077958,-1.10837,-0.1722,-0.23674,0.34118
-0.865468,0,0,10.8655,10.8655,9.13453,9.13453,0.480816,0.134628,69.3776,0.103144,-0.0818049,-0.0964906,1,0,0,4.9,1.05,0,0.065636,-0.077958,-1.10837,-0.17262,-0.23184,0.3423
-0.866044,0,0,10.866,10.866,9.13396,9.13396,0.481135,0.135056,69.3796,0.0151807,-0.118315,-0.129318,1,0,0,4.55,1.33,0.14,-0.022692,-0.114436,-1.14094,-0.17262,-0.23184,0.3423
-0.867288,0,0,10.8673,10.8673,9.13271,9.13271,0.481827,0.135614,69.3802,0.0151709,-0.118303,-0.129318,1,0,0,4.76,1.4,-0.63,-0.022692,-0.114436,-1.14094,-0.17262,-0.23184,0.3423
-0.964404,0,0,10.9644,10.9644,9.0356,9.0356,0.53578,0.307727,69.3286,0.171313,-0.0153858,-0.0591345,0,0,0,4.41,1.54,-0.56,0.137128,-0.012566,-1.07128,-0.17262,-0.23184,0.3423
-1.05763,0,0,11.0576,11.0576,8.94237,8.94237,0.587573,0.475427,69.277,0.168386,-0.0144821,-0.0591633,0,0,0,4.27,0.84,-0.84,0.137128,-0.012566,-1.07128,-0.17262,-0.23184,0.3423
-0.931939,0,0,10.9319,10.9319,9.06806,9.06806,0.517744,0.4917,69.3046,0.0253567,0.0493928,-0.0211629,0,0,0,3.85,1.19,-0.63,-0.006222,0.05246,-1.03358,-0.17262,-0.23184,0.3423
-0.810721,0,0,10.8107,10.8107,9.18928,9.18928,0.450401,0.506974,69.331,0.0250901,0.0482175,-0.0211553,0,0,0,4.27,0.63,-1.19,-0.006222,0.05246,-1.03358,-0.17262,-0.23184,0.3423
-1.16987,0,0,11.1699,11.1699,8.83013,8.83013,0.649926,0.586398,69.2285,0.0517672,-0.124407,0.00240416,0,0,0,4.9,0.84,-1.33,0.02196,-0.123464,-1.01016,-0.17262,-0.23184,0.3423
-1.5195,0,0,11.5195,11.5195,8.4805,8.4805,0.844167,0.663508,69.1359,0.0504214,-0.121018,0.00234528,0,0,0,4.76,0.56,-1.68,0.02196,-0.123464,-1.01016,-0.16814,-0.23744,0.34104
-1.80478,0,0,11.8048,11.8048,8.19522,8.19522,1.00265,0.764329,69.0531,0.0766036,-0.092484,0.018508,0,0,0,4.27,0.63,-1.61,0.05002,-0.097722,-0.994056,-0.16814,-0.23744,0.34104
-2.08362,0,0,12.0836,12.0836,7.91638,7.91638,1.15757,0.862772,68.9706,0.0748856,-0.0897815,0.0184326,0,0,0,4.76,0.56,-2.03,0.05002,-0.097722,-0.994056,-0.16814,-0.23744,0.34104
-1.84552,0,0,11.8455,11.8455,8.15448,8.15448,1.02529,0.875246,69.0265,0.0304472,0.0913448,-0.00513281,0,0,0,4.2,0.77,-2.03,0.005612,0.085522,-1.01748,-0.16814,-0.23744,0.34104
-1.61455,0,0,11.6145,11.6145,8.38545,8.38545,0.89697,0.888203,69.0823,0.030221,0.0891058,-0.00509873,0,0,0,4.55,0.91,-1.82,0.005612,0.085522,-1.01748,-0.16814,-0.23744,0.34104
-1.28634,0,0,11.2863,11.2863,8.71366,8.71366,0.714633,0.902623,69.1626,0.037623,0.12415,0.0151056,0,0,0,4.48,1.05,-1.61,0.013298,0.123708,-0.997472,-0.16814,-0.23744,0.34104
-0.967017,0,0,10.967,10.967,9.03298,9.03298,0.537231,0.917094,69.2425,0.0373705,0.121054,0.0151355,0,0,0,4.69,0.84,-1.54,0.013298,0.123708,-0.997472,-0.16814,-0.23744,0.34104
-1.22371,0,0,11.2237,11.2237,8.77629,8.77629,0.679841,0.910345,69.1873,-0.0242265,-0.0878588,0.0807654,0,0,0,5.04,0.77,-1.75,-0.048678,-0.087474,-0.932324,-0.16814,-0.23744,0.34104
-1.47327,0,0,11.4733,11.4733,8.52673,8.52673,0.818481,0.903852,69.1328,-0.0241132,-0.0854396,0.0807356,0,0,0,4.9,1.12,-1.68,-0.048678,-0.087474,-0.932324,-0.16814,-0.23744,0.34104
-1.14478,0,0,11.1448,11.1448,8.85522,8.85522,0.635987,0.876396,69.2152,-0.00152363,0.125586,-0.0420421,0,0,0,5.25,0.91,-1.68,-0.026474,0.126514,-1.0542,-0.17416,-0.24136,0.33866
-1.27904,0,0,11.279,11.279,8.72096,8.72096,0.710579,0.841556,69.1887,-0.0452579,-0.058256,-0.0516383,0,0,0,4.48,0.98,-1.61,-0.071004,-0.058438,-1.06372,-0.17416,-0.24136,0.33866
-1.40957,0,0,11.4096,11.4096,8.59043,8.59043,0.783093,0.8078,69.1632,-0.0446688,-0.0569906,-0.0516463,0,0,0,4.34,1.4,-1.12,-0.071004,-0.058438,-1.06372,-0.17416,-0.24136,0.33866
-1.40832,0,0,11.4083,11.4083,8.59168,8.59168,0.782399,0.808253,69.1625,-0.130324,-0.0682383,-0.0917275,1,0,0,3.99,1.33,-1.4,-0.157014,-0.069662,-1.10349,-0.17416,-0.24136,0.33866
-1.40776,0,0,11.4078,11.4078,8.59224,8.59224,0.782089,0.808937,69.1625,-0.130336,-0.0682437,-0.0917276,1,0,0,4.2,1.47,-1.05,-0.157014,-0.069662,-1.10349,-0.17416,-0.24136,0.33866
-1.43298,0,0,11.433,11.433,8.56702,8.56702,0.796102,0.820377,69.1547,0.00892986,-0.00803504,-0.00849763,0,0,0,4.48,1.4,-0.91,-0.016958,-0.00976,-1.0209,-0.17416,-0.24136,0.33866
-1.45546,0,0,11.4555,11.4555,8.54454,8.54454,0.808591,0.831435,69.1474,0.00873687,-0.00781714,-0.00850346,0,0,0,3.85,1.33,-0.7,-0.016958,-0.00976,-1.0209,-0.17416,-0.24136,0.33866
-1.59602,0,0,11.596,11.596,8.40398,8.40398,0.886679,0.883812,69.1077,0.0397736,-0.0452911,0.00092973,0,0,0,4.76,1.61,-0.7,0.015128,-0.048556,-1.0115,-0.17458,-0.24598,0.3409
-1.64249,0,0,11.6425,11.6425,8.35751,8.35751,0.912495,0.90312,69.0955,0.0148965,-0.0139426,0.0178843,0,0,0,4.62,1.05,-0.42,-0.009516,-0.01769,-0.994666,-0.17458,-0.24598,0.3409
-1.6874,0,0,11.6874,11.6874,8.3126,8.3126,0.937447,0.921391,69.0835,0.0145777,-0.0135073,0.0178722,0,0,0,4.55,0.7,-0.42,-0.009516,-0.01769,-0.994666,-0.17458,-0.24598,0.3409
-1.44998,0,0,11.45,11.45,8.55002,8.55002,0.805545,0.738178,69.1731,-0.149754,0.0612538,0.0847145,0,0,0,4.83,0.91,-0.63,-0.177754,0.059292,-0.92842,-0.17458,-0.24598,0.3409
-1.2177,0,0,11.2177,11.2177,8.7823,8.7823,0.676503,0.558845,69.2622,-0.146624,0.0590023,0.0847791,0,0,0,4.13,0.91,-0.42,-0.177754,0.059292,-0.92842,-0.17458,-0.24598,0.3409
-1.00456,0,0,11.0046,11.0046,8.99544,8.99544,0.558091,0.419989,69.3414,-0.126828,0.0645079,-0.060749,0,0,0,4.13,0.7,-0.42,-0.160308,0.066856,-1.07287,-0.17458,-0.24598,0.3409
-0.798333,0,0,10.7983,10.7983,9.20167,9.20167,0.443518,0.285337,69.4201,-0.124478,0.0625085,-0.060717,0,0,0,4.27,1.4,-0.21,-0.160308,0.066856,-1.07287,-0.17458,-0.24598,0.3409
-0.651523,0,0,10.6515,10.6515,9.34848,9.34848,0.361957,0.0321331,69.5054,-0.229032,0.0212718,0.0594259,0,0,0,4.34,1.05,-0.35,-0.269742,0.027084,-0.953674,-0.17458,-0.24598,0.3409
-0.51235,0,0,10.5123,10.5123,9.48765,9.48765,0.284639,-0.215527,69.5893,-0.224709,0.0199223,0.0594266,0,0,0,4.76,1.33,-0.7,-0.269742,0.027084,-0.953674,-0.17304,-0.24234,0.34286
-0.238124,0,0,10.2381,10.2381,9.76188,9.76188,0.132291,-0.251594,69.6724,-0.0129374,0.0907837,0.0818103,0,0,0,5.18,0.77,-0.7,-0.057706,0.100528,-0.93147,-0.17304,-0.24234,0.34286
0.0288236,0,0,9.97118,9.97118,10.0288,10.0288,-0.0160131,-0.286411,69.7548,-0.0123298,0.0881953,0.0818101,0,0,0,5.18,0.77,-0.7,-0.057706,0.100528,-0.93147,-0.17304,-0.24234,0.34286
0.0273665,0,0,9.97263,9.97263,10.0274,10.0274,-0.0152036,-0.287281,69.7558,-0.10841,-0.0527248,0.149063,1,0,0,4.83,0.56,-0.42,-0.154208,-0.04026,-0.864736,-0.17304,-0.24234,0.34286
0.0259094,0,0,9.97409,9.97409,10.0259,10.0259,-0.0143941,-0.288151,69.7568,-0.108395,-0.0527107,0.149063,1,0,0,4.83,0.56,-0.42,-0.154208,-0.04026,-0.864736,-0.17304,-0.24234,0.34286
-0.160316,0,0,10.1603,10.1603,9.83968,9.83968,0.0890646,-0.285389,69.7191,-0.0123476,-0.0737427,-0.0588441,0,0,0,3.85,1.19,-1.54,-0.057706,-0.063074,-1.07104,-0.17304,-0.24234,0.34286
-0.341615,0,0,10.3416,10.3416,9.65838,9.65838,0.189786,-0.283017,69.6819,-0.012389,-0.0719848,-0.0588481,0,0,0,3.85,1.19,-1.54,-0.057706,-0.063074,-1.07104,-0.17304,-0.24234,0.34286
-0.33994,0,0,10.3399,10.3399,9.66006,9.66006,0.188856,-0.283049,69.6813,-0.141892,0.0150753,-0.104216,1,0,0,3.85,1.05,-1.33,-0.187758,0.023912,-1.11606,-0.17304,-0.24234,0.34286
-0.338265,0,0,10.3383,10.3383,9.66174,9.66174,0.187925,-0.283081,69.6808,-0.141892,0.0150591,-0.104216,1,0,0,3.85,1.05,-1.33,-0.187758,0.023912,-1.11606,-0.17374,-0.24346,0.33684
-0.485943,0,0,10.4859,10.4859,9.51406,9.51406,0.269968,-0.388615,69.6698,-0.121219,-0.0721731,-0.0400534,0,0,0,4.2,1.47,-1.19,-0.168848,-0.06466,-1.05237,-0.17374,-0.24346,0.33684
-0.249758,0,0,10.2498,10.2498,9.75024,9.75024,0.138755,-0.24998,69.7123,0.146059,0.100422,0.0589418,0,0,0,4.06,1.61,-1.05,0.101992,0.110044,-0.954162,-0.17374,-0.24346,0.33684
-0.0182751,0,0,10.0183,10.0183,9.98172,9.98172,0.0101528,-0.113836,69.7537,0.143683,0.0981779,0.0589522,0,0,0,3.92,1.33,-1.33,0.101992,0.110044,-0.954162,-0.17374,-0.24346,0.33684
0.204565,0,0,9.79544,9.79544,10.2046,10.2046,-0.113647,-0.154756,69.8243,-0.0256828,0.0814841,-0.0416233,0,0,0,4.83,1.54,-1.12,-0.068808,0.095526,-1.05396,-0.17374,-0.24346,0.33684
0.42182,0,0,9.57818,9.57818,10.4218,10.4218,-0.234345,-0.194458,69.8941,-0.0249899,0.0793776,-0.0416318,0,0,0,4.69,1.54,-1.19,-0.068808,0.095526,-1.05396,-0.17374,-0.24346,0.33684
0.182121,0,0,9.81788,9.81788,10.1821,10.1821,-0.101178,-0.125854,69.8336,0.0480405,-0.0786507,0.0326393,0,0,0,3.85,1.19,-1.26,0.005734,-0.06466,-0.98027,-0.17374,-0.24346,0.33684
-0.0515684,0,0,10.0516,10.0516,9.94843,9.94843,0.0286491,-0.0581625,69.7737,0.0468591,-0.0763848,0.0326426,0,0,0,4.06,1.61,-1.33,0.005734,-0.06466,-0.98027,-0.17374,-0.24346,0.33684
-0.0414184,0,0,10.0414,10.0414,9.95858,9.95858,0.0230102,-0.119225,69.7939,-0.0581322,-0.00491693,0.0348541,0,0,0,3.57,1.54,-1.05,-0.100772,0.006832,-0.978074,-0.17374,-0.24346,0.33684
-0.0323417,0,0,10.0323,10.0323,9.96766,9.96766,0.0179676,-0.180412,69.8205,-0.0570642,-0.00500494,0.0348513,0,0,0,3.43,0.7,-1.05,-0.100772,0.006832,-0.978074,-0.16772,-0.24122,0.34426
-0.231016,0,0,10.231,10.231,9.76898,9.76898,0.128342,-0.192661,69.7889,-0.026479,-0.0736678,0.0213238,0,0,0,4.69,1.33,-0.63,-0.070272,-0.063684,-0.991494,-0.16772,-0.24122,0.34426
-0.425877,0,0,10.4259,10.4259,9.57412,9.57412,0.236599,-0.205775,69.7574,-0.0262502,-0.0717784,0.021317,0,0,0,5.11,0.91,-0.84,-0.070272,-0.063684,-0.991494,-0.16772,-0.24122,0.34426
-0.838654,0,0,10.8387,10.8387,9.16135,9.16135,0.465919,-0.215016,69.6695,-0.0398167,-0.158028,-0.00268308,0,0,0,3.92,0.7,-0.56,-0.084058,-0.153842,-1.01528,-0.16772,-0.24122,0.34426
-1.2442,0,0,11.2442,11.2442,8.7558,8.7558,0.691222,-0.22467,69.582,-0.0396483,-0.154096,-0.00272343,0,0,0,5.04,0.77,-0.98,-0.084058,-0.153842,-1.01528,-0.16772,-0.24122,0.34426
-1.14121,0,0,11.1412,11.1412,8.85879,8.85879,0.634006,-0.410466,69.6477,-0.188992,0.0142953,-0.0590403,0,0,0,3.71,1.05,-1.05,-0.23729,0.015372,-1.07116,-0.16772,-0.24122,0.34426
-1.04186,0,0,11.0419,11.0419,8.95814,8.95814,0.578813,-0.592455,69.7128,-0.185815,0.0133318,-0.0590579,0,0,0,3.64,1.19,-0.98,-0.23729,0.015372,-1.07116,-0.16772,-0.24122,0.34426
-0.976451,0,0,10.9765,10.9765,9.02355,9.02355,0.542473,-0.816531,69.7779,-0.224303,-0.00403419,-0.00930561,0,0,0,4.62,1.4,-0.98,-0.279868,-0.001342,-1.02175,-0.16772,-0.24122,0.34426
-0.912015,0,0,10.912,10.912,9.08798,9.08798,0.506675,-1.03717,69.8394,-0.220453,-0.00465944,-0.00936218,0,0,0,4.13,1.05,-0.91,-0.279868,-0.001342,-1.02175,-0.16856,-0.2373,0.3465
-0.579816,0,0,10.5798,10.5798,9.42018,9.42018,0.32212,-0.976868,69.9225,0.0809941,0.123529,0.0680142,0,0,0,4.06,0.42,-0.98,0.023912,0.12993,-0.945012,-0.16856,-0.2373,0.3465
-0.258329,0,0,10.2583,10.2583,9.74167,9.74167,0.143516,-0.915167,70.0055,0.0799174,0.120412,0.0680447,0,0,0,4.9,1.47,-0.56,0.023912,0.12993,-0.945012,-0.16856,-0.2373,0.3465
-0.143611,0,0,10.1436,10.1436,9.85639,9.85639,0.079784,-1.01838,70.0639,-0.0886044,0.0292922,0.0458857,0,0,0,4.9,0.98,-0.91,-0.147132,0.040016,-0.966972,-0.16856,-0.2373,0.3465
-0.0304805,0,0,10.0305,10.0305,9.96952,9.96952,0.0169336,-1.11949,70.122,-0.08684,0.0281954,0.0458537,0,0,0,4.27,0.98,-0.77,-0.147132,0.040016,-0.966972,-0.16856,-0.2373,0.3465
0.215554,0,0,9.78445,9.78445,10.2156,10.2156,-0.119752,-1.09385,70.1935,0.0452535,0.101285,-0.0571706,0,0,0,5.04,0.91,-1.12,-0.01403,0.115412,-1.06921,-0.16856,-0.2373,0.3465
0.459259,0,0,9.54074,9.54074,10.4593,10.4593,-0.255144,-1.06768,70.2646,0.0447968,0.098922,-0.0571697,0,0,0,3.85,1.19,-0.91,-0.01403,0.115412,-1.06921,-0.16856,-0.2373,0.3465
0.294366,0,0,9.70563,9.70563,10.2944,10.2944,-0.163536,-1.10204,70.2416,-0.0428022,-0.0630072,0.0438884,0,0,0,4.13,0.77,-1.26,-0.102602,-0.047946,-0.968924,-0.16856,-0.2373,0.3465
0.133415,0,0,9.86658,9.86658,10.1334,10.1334,-0.0741196,-1.13533,70.2196,-0.0422213,-0.0614468,0.0438803,0,0,0,4.13,1.19,-1.12,-0.102602,-0.047946,-0.968924,-0.16968,-0.24052,0.3472
0.343025,0,0,9.65698,9.65698,10.343,10.343,-0.190569,-1.18583,70.2936,-0.0313783,0.0676853,0.0517265,0,0,0,4.2,0.7,-1.4,-0.092598,0.083082,-0.961116,-0.16968,-0.24052,0.3472
0.545112,0,0,9.45489,9.45489,10.5451,10.5451,-0.30284,-1.23437,70.3673,-0.0305313,0.0657264,0.0517001,0,0,0,4.76,1.05,-1.12,-0.092598,0.083082,-0.961116,-0.16968,-0.24052,0.3472
0.866737,0,0,9.13326,9.13326,10.8667,10.8667,-0.481521,-1.05515,70.435,0.18781,0.130388,0.101781,0,0,0,5.39,0.91,-1.05,0.129808,0.150792,-0.911462,-0.16968,-0.24052,0.3472
1.18407,0,0,8.81593,8.81593,11.1841,11.1841,-0.657816,-0.878923,70.5013,0.184734,0.127312,0.101803,0,0,0,4.55,0.63,-1.26,0.129808,0.150792,-0.911462,-0.16968,-0.24052,0.3472
1.27213,0,0,8.72787,8.72787,11.2721,11.2721,-0.70674,-0.984558,70.558,-0.0883443,0.0186203,0.0879923,0,0,0,5.46,0.91,-1.19,-0.146278,0.043066,-0.925126,-0.16968,-0.24052,0.3472
1.35931,0,0,8.64069,8.64069,11.3593,11.3593,-0.755173,-1.08728,70.6141,-0.0865517,0.0177756,0.0879491,0,0,0,4.83,1.4,-1.12,-0.146278,0.043066,-0.925126,-0.16968,-0.24052,0.3472
1.35828,0,0,8.64172,8.64172,11.3583,11.3583,-0.7546,-1.08744,70.6137,0.164441,-0.078206,-0.106924,1,0,0,4.69,0.98,-1.26,0.105774,-0.052826,-1.1185,-0.16968,-0.24052,0.3472
1.35795,0,0,8.64205,8.64205,11.358,11.358,-0.754417,-1.08711,70.6141,0.164435,-0.0782028,-0.106924,1,0,0,4.48,1.26,-0.77,0.105774,-0.052826,-1.1185,-0.16968,-0.2429,0.3451
1.35851,0,0,8.64149,8.64149,11.3585,11.3585,-0.754729,-1.0863,70.6142,0.0180305,-0.0339984,-0.153153,1,0,0,4.2,1.54,-0.91,-0.041236,-0.008662,-1.16437,-0.16968,-0.2429,0.3451
1.35974,0,0,8.64026,8.64026,11.3597,11.3597,-0.755413,-1.0861,70.6143,0.0180269,-0.0340103,-0.153153,1,0,0,3.99,1.19,-0.98,-0.041236,-0.008662,-1.16437,-0.16968,-0.2429,0.3451
1.35987,0,0,8.64013,8.64013,11.3599,11.3599,-0.755485,-1.08529,70.6149,0.0288249,-0.145513,-0.135571,1,0,0,4.34,1.54,-0.63,-0.030378,-0.120048,-1.14692,-0.16968,-0.2429,0.3451
1.36047,0,0,8.63953,8.63953,11.3605,11.3605,-0.755817,-1.08447,70.6161,0.0288107,-0.145519,-0.135571,1,0,0,4.2,1.54,-0.28,-0.030378,-0.120048,-1.14692,-0.16968,-0.2429,0.3451
0.942689,0,0,9.05731,9.05731,10.9427,10.9427,-0.523716,-1.15642,70.5396,-0.101746,-0.163207,0.0219472,0,0,0,3.99,1.47,-0.77,-0.162748,-0.141764,-0.99064,-0.16968,-0.2429,0.3451
0.535562,0,0,9.46444,9.46444,10.5356,10.5356,-0.297534,-1.22782,70.464,-0.1005,-0.159261,0.0219495,0,0,0,3.99,1.47,-0.77,-0.162748,-0.141764,-0.99064,-0.16968,-0.2429,0.3451
0.534345,0,0,9.46565,9.46565,10.5343,10.5343,-0.296858,-1.22714,70.4646,-0.265125,-0.0722946,-0.105425,1,0,0,4.76,1.47,-0.63,-0.328058,-0.0549,-1.11703,-0.16968,-0.2429,0.3451
0.533128,0,0,9.46687,9.46687,10.5331,10.5331,-0.296182,-1.22645,70.4652,-0.265137,-0.0722828,-0.105424,1,0,0,4.76,1.47,-0.63,-0.328058,-0.0549,-1.11703,-0.16842,-0.23772,0.3493
0.535063,0,0,9.46494,9.46494,10.5351,10.5351,-0.297257,-1.22624,70.466,-0.0900796,-0.178796,-0.134317,1,0,0,3.78,1.19,-0.56,-0.152256,-0.161284,-1.1457,-0.16842,-0.23772,0.3493
0.536997,0,0,9.463,9.463,10.537,10.537,-0.298332,-1.22603,70.4667,-0.0900833,-0.178815,-0.134317,1,0,0,3.78,1.19,-0.56,-0.152256,-0.161284,-1.1457,-0.16842,-0.23772,0.3493
0.348923,0,0,9.65108,9.65108,10.3489,10.3489,-0.193846,-1.06873,70.4063,0.151358,-0.0554757,-0.059256,0,0,0,3.43,0.84,-0.49,0.092964,-0.039894,-1.07128,-0.16842,-0.23772,0.3493
0.166468,0,0,9.83353,9.83353,10.1665,10.1665,-0.0924821,-0.914456,70.3465,0.148666,-0.053707,-0.059205,0,0,0,3.43,0.84,-0.49,0.092964,-0.039894,-1.07128,-0.16842,-0.23772,0.3493
-0.0914619,0,0,10.0915,10.0915,9.90854,9.90854,0.0508121,-0.958865,70.3,-0.0614583,-0.100912,0.00274928,0,0,0,5.25,0.28,-0.63,-0.118828,-0.089548,-1.00979,-0.16842,-0.23772,0.3493
-0.342871,0,0,10.3429,10.3429,9.65713,9.65713,0.190484,-1.00295,70.2541,-0.060689,-0.0984746,0.00273098,0,0,0,5.25,0.28,-0.63,-0.118828,-0.089548,-1.00979,-0.16842,-0.23772,0.3493
-0.647994,0,0,10.648,10.648,9.35201,9.35201,0.359997,-0.834957,70.1579,0.151773,-0.0980809,-0.0427272,0,0,0,4.76,1.12,-1.05,0.097478,-0.09211,-1.05493,-0.16842,-0.23772,0.3493
-0.944439,0,0,10.9444,10.9444,9.05556,9.05556,0.524688,-0.670304,70.063,0.1489,-0.0952065,-0.0427116,0,0,0,4.76,1.12,-1.05,0.097478,-0.09211,-1.05493,-0.16842,-0.23772,0.3493
-0.938579,0,0,10.9386,10.9386,9.06142,9.06142,0.521433,-0.482239,70.0341,0.182792,0.0250318,0.0320746,0,0,0,3.15,1.4,-1.26,0.13481,0.02806,-0.980758,-0.16996,-0.23408,0.3388
-0.982661,0,0,10.9827,10.9827,9.01734,9.01734,0.545923,-0.515163,70.0289,-0.0367651,-0.0213154,-0.0226464,0,0,0,4.55,1.05,-1.26,-0.086254,-0.018666,-1.03505,-0.16996,-0.23408,0.3388
-1.0258,0,0,11.0258,11.0258,8.9742,8.9742,0.569887,-0.547582,70.0237,-0.0361993,-0.0208972,-0.0226558,0,0,0,4.55,1.05,-1.26,-0.086254,-0.018666,-1.03505,-0.16996,-0.23408,0.3388
-1.01606,0,0,11.0161,11.0161,8.98394,8.98394,0.564477,-0.326722,69.9898,0.219318,0.0322559,0.0224967,0,0,0,3.92,1.12,-1.54,0.174216,0.034526,-0.990274,-0.16996,-0.23408,0.3388
-1.00537,0,0,11.0054,11.0054,8.99463,8.99463,0.558541,-0.109646,69.956,0.215529,0.0321525,0.0225121,0,0,0,3.92,1.12,-1.54,0.174216,0.034526,-0.990274,-0.16996,-0.23408,0.3388
-0.609329,0,0,10.6093,10.6093,9.39067,9.39067,0.338516,-0.144745,70.0587,-0.00654127,0.153737,-0.0555315,0,0,0,4.48,1.05,-1.96,-0.04941,0.15982,-1.06774,-0.16996,-0.23408,0.3388
-1.1813,0,0,11.1813,11.1813,8.8187,8.8187,0.656279,-0.100154,69.9081,0.00276379,-0.218822,-0.0237343,0,0,0,5.32,0.91,-2.38,-0.039284,-0.217892,-1.03615,-0.16996,-0.23408,0.3388
-1.73329,0,0,11.7333,11.7333,8.26671,8.26671,0.96294,-0.0568992,69.7568,0.00200884,-0.21347,-0.0238089,0,0,0,3.99,1.12,-1.68,-0.039284,-0.217892,-1.03615,-0.17598,-0.23968,0.34888
-2.08692,0,0,12.0869,12.0869,7.91308,7.91308,1.1594,-0.0280436,69.6551,0.00211265,-0.141895,-0.0683794,0,0,0,4.13,1.26,-1.82,-0.038674,-0.149816,-1.08031,-0.17598,-0.23968,0.34888
-2.43229,0,0,12.4323,12.4323,7.56771,7.56771,1.35127,-0.000611324,69.5547,0.00163386,-0.138547,-0.0684526,0,0,0,4.48,1.05,-1.82,-0.038674,-0.149816,-1.08031,-0.17598,-0.23968,0.34888
-2.64919,0,0,12.6492,12.6492,7.35081,7.35081,1.47177,-0.0141056,69.4912,-0.0315392,-0.0915021,-0.0591604,0,0,0,4.06,1.12,-1.82,-0.072224,-0.10492,-1.07104,-0.17598,-0.23968,0.34888
-2.86256,0,0,12.8626,12.8626,7.13744,7.13744,1.59031,-0.0286988,69.4287,-0.0312845,-0.089434,-0.0592157,0,0,0,4.69,0.56,-1.61,-0.072224,-0.10492,-1.07104,-0.17598,-0.23968,0.34888
-2.98065,0,0,12.9807,12.9807,7.01935,7.01935,1.65592,-0.01807,69.3854,0.00193858,-0.0355307,0.0950523,0,0,0,5.18,0.91,-1.68,-0.038674,-0.052216,-0.917928,-0.17598,-0.23968,0.34888
-3.09741,0,0,13.0974,13.0974,6.90259,6.90259,1.72079,-0.00821275,69.3431,0.00176653,-0.034399,0.0950189,0,0,0,5.74,0.7,-1.4,-0.038674,-0.052216,-0.917928,-0.17598,-0.23968,0.34888
-3.38761,0,0,13.3876,13.3876,6.61239,6.61239,1.88201,-0.16869,69.2859,-0.163569,-0.116465,0.112016,0,0,0,5.74,0.84,-0.98,-0.207522,-0.137006,-0.90097,-0.17598,-0.23968,0.34888
-3.66978,0,0,13.6698,13.6698,6.33022,6.33022,2.03877,-0.326809,69.2301,-0.160809,-0.113731,0.11191,0,0,0,5.25,0.91,-0.42,-0.207522,-0.137006,-0.90097,-0.17598,-0.23968,0.34888
-3.3923,0,0,13.3923,13.3923,6.6077,6.6077,1.88461,-0.569322,69.3293,-0.223272,0.0715322,0.00279125,0,0,0,4.34,1.12,-0.28,-0.2745,0.050752,-1.00931,-0.17374,-0.2429,0.34076
-3.34235,0,0,13.3423,13.3423,6.65765,6.65765,1.85686,-0.604705,69.3409,-0.0342304,0.0118164,-0.0519113,0,0,0,3.71,1.54,-0.21,-0.085278,-0.008418,-1.0636,-0.17374,-0.2429,0.34076
-3.29371,0,0,13.2937,13.2937,6.70629,6.70629,1.82984,-0.639106,69.3523,-0.0336301,0.0113449,-0.0519027,0,0,0,3.64,1.68,-0.28,-0.085278,-0.008418,-1.0636,-0.17374,-0.2429,0.34076
-3.29154,0,0,13.2915,13.2915,6.70846,6.70846,1.82863,-0.638359,69.3541,-0.0244102,-0.149151,-0.107966,1,0,0,3.71,1.54,0,-0.076006,-0.168726,-1.11923,-0.17374,-0.2429,0.34076
-3.1359,0,0,13.1359,13.1359,6.8641,6.8641,1.74217,-0.559341,69.3755,0.0929023,0.07149,-0.0429882,0,0,0,4.34,1.47,0.28,0.043188,0.053192,-1.05481,-0.17374,-0.2429,0.34076
-2.98282,0,0,12.9828,12.9828,7.01718,7.01718,1.65712,-0.481545,69.3964,0.0915445,0.0700068,-0.0429318,0,0,0,4.06,1.4,0.14,0.043188,0.053192,-1.05481,-0.17374,-0.2429,0.34076
-2.98844,0,0,12.9884,12.9884,7.01156,7.01156,1.66024,-0.642327,69.4173,-0.15348,-0.0222674,0.0518324,0,0,0,4.48,1.54,0.14,-0.205692,-0.03904,-0.96075,-0.17374,-0.2429,0.34076
-2.99456,0,0,12.9946,12.9946,7.00544,7.00544,1.66364,-0.800572,69.4322,-0.150719,-0.022209,0.0517959,0,0,0,4.83,1.54,0.28,-0.205692,-0.03904,-0.96075,-0.17584,-0.23716,0.33614
-2.6759,0,0,12.6759,12.6759,7.3241,7.3241,1.48661,-0.888931,69.5154,-0.0659589,0.110141,-0.0269519,0,0,0,4.48,1.26,-0.63,-0.122122,0.096258,-1.03895,-0.17584,-0.23716,0.33614
-2.36327,0,0,12.3633,12.3633,7.63673,7.63673,1.31293,-0.975347,69.598,-0.0644508,0.10711,-0.0269024,0,0,0,3.64,1.05,-0.49,-0.122122,0.096258,-1.03895,-0.17584,-0.23716,0.33614
-2.19986,0,0,12.1999,12.1999,7.80014,7.80014,1.22214,-0.903419,69.6205,0.0888238,0.0753612,-0.088321,0,0,0,3.85,1.47,-0.49,0.033062,0.066124,-1.09995,-0.17584,-0.23716,0.33614
-2.15354,0,0,12.1535,12.1535,7.84646,7.84646,1.19641,-0.901997,69.625,0.00327302,0.0161693,-0.0198288,0,0,0,3.43,1.75,-0.56,-0.052826,0.007442,-1.032,-0.17584,-0.23716,0.33614
-2.11383,0,0,12.1138,12.1138,7.88617,7.88617,1.17435,-0.902757,69.6283,0.00328629,0.0157844,-0.0198211,0,0,0,5.11,0.42,-1.19,-0.052826,0.007442,-1.032,-0.17584,-0.23716,0.33614
