pid_x,pid_y,pid_z,front_left_speed,front_right_speed,back_left_speed,back_right_speed,orientation_x,orientation_y,orientation_z,acceleration_x,acceleration_y,acceleration_z,accel_rejected,mag_rejected,gyro_x,gyro_y,gyro_z,accel_x,accel_y,accel_z,mag_x,mag_y,mag_z
-0.0130644,0,0,15.0131,15.0131,14.9869,14.9869,0.021774,0.060576,0.0549959,0.0478239,-0.0184946,-0.0028895,0,0,3.64,0.0525,-0.28,0.008784,-0.00671,-1.01553,-0.04354,0.08736,0.44464
-0.0231837,0,0,15.0232,15.0232,14.9768,14.9768,0.0386394,0.119368,0.110116,0.0469193,-0.0147807,-0.0085469,0,0,3.3775,0.1225,-0.2625,0.008906,-0.003294,-1.02114,-0.04354,0.08736,0.44464
-0.0367253,0,0,15.0367,15.0367,14.9633,14.9633,0.0612088,0.185433,0.157621,0.051719,-0.019394,0.00497402,0,0,3.4125,0.1575,-0.245,0.014884,-0.008296,-1.00772,-0.04354,0.08736,0.44464
-0.0499963,0,0,15.05,15.05,14.95,14.95,0.0833271,0.250056,0.205077,0.0505911,-0.0190079,0.00496925,0,0,3.4125,0.1575,-0.245,0.014884,-0.008296,-1.00772,-0.04354,0.08736,0.44464
-0.0596258,0,0,15.0596,15.0596,14.9404,14.9404,0.0993763,0.307027,0.257731,0.0453448,-0.0135985,-0.00118345,0,0,3.6225,0.0525,-0.21,0.010614,-0.003172,-1.01382,-0.04354,0.08736,0.44464
-0.0706173,0,0,15.0706,15.0706,14.9294,14.9294,0.117695,0.364499,0.308713,0.0457996,-0.0155992,-0.00524724,0,0,3.64,0.07,-0.315,0.012078,-0.00549,-1.01785,-0.04354,0.08736,0.44464
-0.0811811,0,0,15.0812,15.0812,14.9188,14.9188,0.135302,0.420476,0.359416,0.0448226,-0.0152919,-0.00525461,0,0,3.4475,-0.07,-0.4375,0.012078,-0.00549,-1.01785,-0.04354,0.08736,0.44464
-0.0907558,0,0,15.0908,15.0908,14.9092,14.9092,0.15126,0.483949,0.412038,0.0445652,-0.0137922,-0.00194444,0,0,3.465,4.3225,-0.525,0.012932,-0.00427,-1.01455,-0.04508,0.0854,0.4487
-0.100281,0,0,15.1003,15.1003,14.8997,14.8997,0.167135,0.533417,0.469777,0.0392069,-0.0136373,-0.00637902,0,0,3.57,0.2275,-0.595,0.008418,-0.004392,-1.01894,-0.04508,0.0854,0.4487
-0.112191,0,0,15.1122,15.1122,14.8878,14.8878,0.186985,0.585241,0.524559,0.0407322,-0.0171989,4.40078e-06,0,0,3.4125,0.0875,-0.455,0.010858,-0.008296,-1.0126,-0.04508,0.0854,0.4487
-0.121606,0,0,15.1216,15.1216,14.8784,14.8784,0.202677,0.628562,0.58542,0.0345093,-0.0135055,-0.00074223,0,0,3.5,-0.1575,-0.49,0.005368,-0.00488,-1.01333,-0.04508,0.0854,0.4487
-0.131001,0,0,15.131,15.131,14.869,14.869,0.218335,0.670902,0.646217,0.0337704,-0.0132323,-0.000751614,0,0,3.6575,-0.175,-0.4725,0.005368,-0.00488,-1.01333,-0.04508,0.0854,0.4487
-0.143005,0,0,15.143,15.143,14.857,14.857,0.238342,0.723215,0.697237,0.0413614,-0.0170355,0.00194075,0,0,3.5875,-0.0875,-0.4025,0.013908,-0.009028,-1.01065,-0.04508,0.0854,0.4487
-0.152743,0,0,15.1527,15.1527,14.8473,14.8473,0.254572,0.770014,0.751878,0.037143,-0.0141876,0.0014371,0,0,3.3425,-0.0875,-0.5075,0.010492,-0.006466,-1.01114,-0.04508,0.0854,0.4487
-0.16255,0,0,15.1625,15.1625,14.8375,14.8375,0.270916,0.816104,0.811606,0.0363387,-0.0139025,0.00142466,0,0,3.5875,0.0525,-0.4025,0.010492,-0.006466,-1.01114,-0.04522,0.08288,0.44562
-0.172914,0,0,15.1729,15.1729,14.8271,14.8271,0.28819,0.859013,0.87314,0.0340106,-0.0147002,-0.00239916,0,0,3.64,-0.035,-0.455,0.008906,-0.007564,-1.01492,-0.04522,0.08288,0.44562
-0.180476,0,0,15.1805,15.1805,14.8195,14.8195,0.300793,0.899639,0.935439,0.0325727,-0.0106944,-0.00388656,0,0,3.64,-0.035,-0.4725,0.008174,-0.003782,-1.01638,-0.04522,0.08288,0.44562
-0.18798,0,0,15.188,15.188,14.812,14.812,0.313299,0.939648,0.997581,0.0318745,-0.0104762,-0.00389894,0,0,3.7275,0.1225,-0.5075,0.008174,-0.003782,-1.01638,-0.04522,0.08288,0.44562
-0.197488,0,0,15.1975,15.1975,14.8025,14.8025,0.329146,0.983234,1.05582,0.034151,-0.0131308,0.00297187,0,0,3.7975,0.1925,-0.49,0.011224,-0.00671,-1.00955,-0.04522,0.08288,0.44562
-0.205444,0,0,15.2054,15.2054,14.7946,14.7946,0.342406,1.0252,1.11452,0.0331756,-0.0113118,-0.00134553,0,0,3.5875,0.2275,-0.4725,0.01098,-0.005124,-1.01382,-0.04522,0.08288,0.44562
-0.213111,0,0,15.2131,15.2131,14.7869,14.7869,0.355184,1.06632,1.17321,0.0324582,-0.0110889,-0.00135998,0,0,3.465,0.2625,-0.42,0.01098,-0.005124,-1.01382,-0.04522,0.08288,0.44562
-0.220199,0,0,15.2202,15.2202,14.7798,14.7798,0.366998,1.11019,1.22794,0.0348512,-0.0101501,0.00341917,0,0,3.4825,0.0525,-0.42,0.014152,-0.004392,-1.00906,-0.04522,0.08288,0.44562
-0.227255,0,0,15.2273,15.2273,14.7727,14.7727,0.378758,1.15329,1.2797,0.0340991,-0.00994501,0.00340298,0,0,3.5875,0.2275,-0.42,0.014152,-0.004392,-1.00906,-0.04396,0.08428,0.44674
-0.232674,0,0,15.2327,15.2327,14.7673,14.7673,0.38779,1.19456,1.3318,0.0331361,-0.00783346,0.00228063,0,0,3.4475,0.0175,-0.3675,0.013908,-0.00244,-1.01016,-0.04396,0.08428,0.44674
-0.238918,0,0,15.2389,15.2389,14.7611,14.7611,0.398197,1.22629,1.39187,0.0256576,-0.0092396,-0.00228141,0,0,3.36,-0.1225,-0.3675,0.006954,-0.004026,-1.01467,-0.04396,0.08428,0.44674
-0.245094,0,0,15.2451,15.2451,14.7549,14.7549,0.40849,1.25778,1.45184,0.0251081,-0.00906008,-0.00229459,0,0,3.4125,0.14,-0.3675,0.006954,-0.004026,-1.01467,-0.04396,0.08428,0.44674
-0.250145,0,0,15.2501,15.2501,14.7499,14.7499,0.416909,1.28978,1.51092,0.0257647,-0.00744776,-0.00894728,0,0,3.465,0.2975,-0.245,0.008174,-0.002562,-1.02126,-0.04396,0.08428,0.44674
-0.255127,0,0,15.2551,15.2551,14.7449,14.7449,0.425211,1.32836,1.56277,0.0308013,-0.00754727,0.00160985,0,0,3.2375,0.1925,-0.315,0.013908,-0.002806,-1.01077,-0.04396,0.08428,0.44674
-0.260193,0,0,15.2602,15.2602,14.7398,14.7398,0.433656,1.3659,1.61438,0.0301463,-0.00740005,0.00159334,0,0,3.4125,0.07,-0.4025,0.013908,-0.002806,-1.01077,-0.04396,0.08428,0.44674
-0.267151,0,0,15.2672,15.2672,14.7328,14.7328,0.445252,1.40135,1.66614,0.02807,-0.0101289,0.001208,0,0,3.4125,0.0525,-0.2975,0.012444,-0.005734,-1.01114,-0.04928,0.08568,0.4459
-0.273281,0,0,15.2733,15.2733,14.7267,14.7267,0.455468,1.4343,1.71897,0.0268876,-0.00909585,-0.00802877,0,0,3.4125,-0.14,-0.3325,0.011834,-0.00488,-1.02029,-0.04928,0.08568,0.4459
-0.279422,0,0,15.2794,15.2794,14.7206,14.7206,0.465703,1.46677,1.77185,0.026321,-0.0089174,-0.00804455,0,0,3.535,0,-0.245,0.011834,-0.00488,-1.02029,-0.04928,0.08568,0.4459
-0.285693,0,0,15.2857,15.2857,14.7143,14.7143,0.476155,1.49664,1.82636,0.0239777,-0.00885729,-0.00424812,0,0,3.6575,0.0175,-0.2975,0.010004,-0.005002,-1.0165,-0.04928,0.08568,0.4459
-0.291833,0,0,15.2918,15.2918,14.7082,14.7082,0.486388,1.52585,1.8804,0.023468,-0.00867885,-0.00426307,0,0,3.6575,0.0175,-0.5075,0.010004,-0.005002,-1.0165,-0.04928,0.08568,0.4459
-0.299875,0,0,15.2999,15.2999,14.7001,14.7001,0.499791,1.55755,1.93166,0.0253447,-0.0111319,-0.00415701,0,0,3.85,0.0175,-0.4725,0.012444,-0.007686,-1.01638,-0.04928,0.08568,0.4459
-0.307757,0,0,15.3078,15.3078,14.6922,14.6922,0.512928,1.58856,1.98284,0.0248037,-0.0109029,-0.0041739,0,0,3.85,0.0175,-0.4725,0.012444,-0.007686,-1.01638,-0.04928,0.08568,0.4459
-0.311572,0,0,15.3116,15.3116,14.6884,14.6884,0.519287,1.61389,2.03795,0.0205957,-0.00566274,-0.00148238,0,0,3.4125,-0.1225,-0.49,0.008662,-0.002562,-1.0137,-0.04928,0.08568,0.4459
-0.315311,0,0,15.3153,15.3153,14.6847,14.6847,0.525518,1.63863,2.09257,0.020164,-0.00555416,-0.00149563,0,0,3.4125,-0.1225,-0.49,0.008662,-0.002562,-1.0137,-0.04844,0.08554,0.44996
-0.320236,0,0,15.3202,15.3202,14.6798,14.6798,0.533727,1.66684,2.14399,0.0230735,-0.00760935,-0.0103634,0,0,3.29,0.07,-0.3675,0.012078,-0.004758,-1.02248,-0.04844,0.08554,0.44996
-0.325065,0,0,15.3251,15.3251,14.6749,14.6749,0.541775,1.69444,2.19532,0.0225921,-0.00746909,-0.0103789,0,0,3.29,0.07,-0.3675,0.012078,-0.004758,-1.02248,-0.04844,0.08554,0.44996
-0.330306,0,0,15.3303,15.3303,14.6697,14.6697,0.55051,1.71865,2.24894,0.0194969,-0.00780534,-0.00510614,0,0,3.4125,0.0875,-0.525,0.009394,-0.005246,-1.01724,-0.04844,0.08554,0.44996
-0.335443,0,0,15.3354,15.3354,14.6646,14.6646,0.559072,1.74234,2.30247,0.0190836,-0.00765609,-0.00512007,0,0,3.4125,0.0875,-0.525,0.009394,-0.005246,-1.01724,-0.04844,0.08554,0.44996
-0.351824,0,0,15.3518,15.3518,14.6482,14.6482,0.586374,1.83944,2.28823,0.0759459,-0.0233011,0.0194119,0,0,3.3425,0.21,-0.3325,0.068198,-0.02135,-0.992836,-0.04844,0.08554,0.44996
-0.367879,0,0,15.3679,15.3679,14.6321,14.6321,0.613132,1.93445,2.27405,0.0742885,-0.0228349,0.0193524,0,0,3.3425,0.21,-0.3325,0.068198,-0.02135,-0.992836,-0.04844,0.08554,0.44996
-0.344301,0,0,15.3443,15.3443,14.6557,14.6557,0.573835,1.73729,2.52626,-0.15103,0.0315599,0.0752884,0,0,3.3075,0.245,-0.385,-0.161528,0.033672,-0.937448,-0.04844,0.08554,0.44996
-0.575169,0,0,15.5752,15.5752,14.4248,14.4248,0.958615,1.88278,2.47117,0.117103,-0.387708,-0.0714362,0,0,3.78,0.6125,-0.4375,0.110288,-0.391864,-1.08287,-0.04172,0.08848,0.4564
-0.574796,0,0,15.5748,15.5748,14.4252,14.4252,0.957993,1.88343,2.47156,0.117091,-0.387718,-0.0714364,1,0,3.1675,0.4375,-0.175,0.110288,-0.391864,-1.08287,-0.04172,0.08848,0.4564
-0.77338,0,0,15.7734,15.7734,14.2266,14.2266,1.28897,1.75962,2.65544,-0.113759,-0.290227,0.0461808,0,0,3.4125,-4.4625,-0.7,-0.123708,-0.300242,-0.966118,-0.04172,0.08848,0.4564
-0.968231,0,0,15.9682,15.9682,14.0318,14.0318,1.61372,1.63785,2.8372,-0.111634,-0.284562,0.0461003,0,0,3.4125,-4.4625,-0.7,-0.123708,-0.300242,-0.966118,-0.04172,0.08848,0.4564
-0.953482,0,0,15.9535,15.9535,14.0465,14.0465,1.58914,1.90338,2.65516,0.245639,0.0222762,-0.0794383,0,0,3.605,-0.2275,-0.9625,0.23973,0.00671,-1.09056,-0.04172,0.08848,0.4564
-0.95355,0,0,15.9535,15.9535,14.0465,14.0465,1.58925,1.90293,2.65418,0.245647,0.0222781,-0.0794381,1,0,3.605,-0.2275,-0.9625,0.23973,0.00671,-1.09056,-0.04172,0.08848,0.4564
-0.887879,0,0,15.8879,15.8879,14.1121,14.1121,1.4798,1.7749,2.83077,-0.0941016,0.0892509,0.0907224,0,0,3.6575,0.5775,-1.12,-0.1037,0.075518,-0.921832,-0.04172,0.08848,0.4564
-0.823483,0,0,15.8235,15.8235,14.1765,14.1765,1.37247,1.64965,3.00772,-0.0919165,0.0873808,0.0908344,0,0,3.6575,0.5775,-1.12,-0.1037,0.075518,-0.921832,-0.04172,0.08848,0.4564
-0.785794,0,0,15.7858,15.7858,14.2142,14.2142,1.30966,1.55981,3.14587,-0.0696966,0.0531898,0.033241,0,0,3.3425,0.3675,-1.085,-0.08296,0.042456,-0.97905,-0.0441,0.09408,0.46606
-0.810551,0,0,15.8106,15.8106,14.1894,14.1894,1.35092,1.60505,3.16367,0.0372719,-0.0403728,-0.0454845,0,0,2.555,0.525,-0.8925,0.025254,-0.051728,-1.05713,-0.0441,0.09408,0.46606
-0.834818,0,0,15.8348,15.8348,14.1652,14.1652,1.39136,1.64929,3.18145,0.0365002,-0.0396679,-0.0455233,0,0,2.555,0.525,-0.8925,0.025254,-0.051728,-1.05713,-0.0441,0.09408,0.46606
-0.856682,0,0,15.8567,15.8567,14.1433,14.1433,1.4278,1.84151,3.06113,0.186948,-0.0417217,-0.151008,0,0,2.9225,0.21,-0.1225,0.179706,-0.054412,-1.16168,-0.0441,0.09408,0.46606
-0.856048,0,0,15.856,15.856,14.144,14.144,1.42675,1.84176,3.0616,0.186943,-0.0417402,-0.151008,1,0,2.9225,0.21,-0.1225,0.179706,-0.054412,-1.16168,-0.0441,0.09408,0.46606
-0.855973,0,0,15.856,15.856,14.144,14.144,1.42662,1.84065,3.06288,0.0447029,-0.0107221,-0.122975,1,0,3.43,-0.5775,0.3675,0.036844,-0.023424,-1.13387,-0.0441,0.09408,0.46606
-0.855897,0,0,15.8559,15.8559,14.1441,14.1441,1.4265,1.83955,3.06416,0.0447222,-0.0107243,-0.122974,1,0,3.43,-0.5775,0.3675,0.036844,-0.023424,-1.13387,-0.0441,0.09408,0.46606
-0.724243,0,0,15.7242,15.7242,14.2758,14.2758,1.20707,1.62429,3.31284,-0.176879,0.202715,-0.0346185,0,0,3.8675,0.35,0.9275,-0.189466,0.193614,-1.04639,-0.0441,0.09408,0.46606
-0.595113,0,0,15.5951,15.5951,14.4049,14.4049,0.991856,1.41437,3.55765,-0.173216,0.198963,-0.0344493,0,0,3.8675,0.35,0.9275,-0.189466,0.193614,-1.04639,-0.0448,0.0973,0.46732
-0.697266,0,0,15.6973,15.6973,14.3027,14.3027,1.16211,1.37017,3.6586,-0.0429411,-0.138556,0.0729706,0,0,3.815,0,1.26,-0.059414,-0.146522,-0.939766,-0.0448,0.0973,0.46732
-0.797434,0,0,15.7974,15.7974,14.2026,14.2026,1.32906,1.32668,3.75892,-0.0421822,-0.135644,0.0729251,0,0,3.815,0,1.26,-0.059414,-0.146522,-0.939766,-0.0448,0.0973,0.46732
-0.882977,0,0,15.883,15.883,14.117,14.117,1.47163,1.20464,3.93316,-0.112823,-0.133278,-0.0400783,0,0,3.78,0.945,1.33,-0.132492,-0.146644,-1.05188,-0.0448,0.0973,0.46732
-0.883007,0,0,15.883,15.883,14.117,14.117,1.47168,1.20588,3.93603,0.171432,0.0971763,-0.0979875,1,0,3.5175,0.8225,1.26,0.152988,0.08357,-1.10935,-0.0448,0.0973,0.46732
-0.882909,0,0,15.8829,15.8829,14.1171,14.1171,1.47152,1.2053,3.93774,0.171442,0.0971735,-0.0979872,1,0,3.4125,-0.2625,0.6125,0.152988,0.08357,-1.10935,-0.0448,0.0973,0.46732
-0.883162,0,0,15.8832,15.8832,14.1168,14.1168,1.47194,1.2041,3.93899,0.168062,-0.0111456,-0.118888,1,0,3.745,-0.63,0.35,0.149572,-0.024644,-1.13009,-0.0448,0.0973,0.46732
-0.888429,0,0,15.8884,15.8884,14.1116,14.1116,1.48071,1.20279,3.93978,0.168084,-0.0109925,-0.118892,1,0,8.435,-0.7,0.0875,0.149572,-0.024644,-1.13009,-0.0448,0.0973,0.46732
-0.967538,0,0,15.9675,15.9675,14.0325,14.0325,1.61256,1.14537,4.0266,-0.0518961,-0.123247,-0.0495903,0,0,4.3925,-0.91,-0.105,-0.072346,-0.13908,-1.06128,-0.04214,0.10934,0.48524
-1.04385,0,0,16.0438,16.0438,13.9562,13.9562,1.73975,1.09089,4.11158,-0.0509453,-0.121028,-0.0496367,0,0,3.2375,0.14,-0.91,-0.072346,-0.13908,-1.06128,-0.04214,0.10934,0.48524
-1.04838,0,0,16.0484,16.0484,13.9516,13.9516,1.74729,1.16804,4.07724,0.0544944,-0.00316696,0.0975021,0,0,3.255,0.49,-1.4,0.034892,-0.021472,-0.915244,-0.04214,0.10934,0.48524
-0.993883,0,0,15.9939,15.9939,14.0061,14.0061,1.65647,1.30608,3.98622,0.12279,0.0841557,-0.0464755,0,0,3.745,0.805,-1.6625,0.105896,0.067344,-1.05811,-0.04214,0.10934,0.48524
-0.940589,0,0,15.9406,15.9406,14.0594,14.0594,1.56765,1.44227,3.89429,0.120414,0.0826049,-0.0464889,0,0,3.9025,1.3475,-2.1,0.105896,0.067344,-1.05811,-0.04214,0.10934,0.48524
-0.898085,0,0,15.8981,15.8981,14.1019,14.1019,1.49681,1.59725,3.78102,0.131316,0.0647582,-0.00976593,0,0,3.955,1.085,-2.3975,0.11956,0.050752,-1.02163,-0.04214,0.10934,0.48524
-0.856033,0,0,15.856,15.856,14.144,14.144,1.42672,1.74894,3.66695,0.12867,0.0635339,-0.00981201,0,0,3.64,0.9975,-2.7825,0.11956,0.050752,-1.02163,-0.04214,0.10934,0.48524
-0.855387,0,0,15.8554,15.8554,14.1446,14.1446,1.42564,1.74952,3.66269,0.164255,0.0828112,-0.14899,1,0,2.9925,0.3325,-2.8875,0.155306,0.070028,-1.15973,-0.04214,0.10934,0.48524
-0.85542,0,0,15.8554,15.8554,14.1446,14.1446,1.4257,1.74756,3.6587,0.16429,0.0828121,-0.148989,1,0,3.6225,-1.155,-2.695,0.155306,0.070028,-1.15973,-0.0427,0.11214,0.48552
-0.855291,0,0,15.8553,15.8553,14.1447,14.1447,1.42549,1.74508,3.65508,0.0166062,0.0236991,-0.21292,1,0,3.465,-1.4525,-2.4675,0.006954,0.01098,-1.22317,-0.0427,0.11214,0.48552
-0.855029,0,0,15.855,15.855,14.145,14.145,1.42505,1.74454,3.65236,0.0166155,0.0236915,-0.21292,1,0,3.325,-0.2975,-1.9775,0.006954,0.01098,-1.22317,-0.0427,0.11214,0.48552
-0.855189,0,0,15.8552,15.8552,14.1448,14.1448,1.42532,1.7443,3.65021,0.0479631,0.0530066,-0.139151,1,0,3.71,-0.1225,-1.645,0.03843,0.04026,-1.14997,-0.0427,0.11214,0.48552
-0.854755,0,0,15.8548,15.8548,14.1452,14.1452,1.42459,1.74498,3.64934,0.0479513,0.0529939,-0.139151,1,0,3.1325,0.4375,-0.91,0.03843,0.04026,-1.14997,-0.0427,0.11214,0.48552
-0.809651,0,0,15.8097,15.8097,14.1903,14.1903,1.34942,2.05627,3.38168,0.2403,0.0653569,0.0995897,0,0,3.395,0.455,-0.6125,0.237046,0.053924,-0.912926,-0.0427,0.11214,0.48552
-0.764009,0,0,15.764,15.764,14.236,14.236,1.27335,2.3639,3.11524,0.234935,0.0640258,0.0994131,0,0,2.135,1.9775,0.2975,0.237046,0.053924,-0.912926,-0.0427,0.11214,0.48552
-0.763124,0,0,15.7631,15.7631,14.2369,14.2369,1.27187,2.36653,3.11679,0.0897135,0.000616225,0.204779,1,0,2.66,1.61,0.4725,0.091256,-0.009394,-0.808372,-0.0427,0.11214,0.48552
-0.762688,0,0,15.7627,15.7627,14.2373,14.2373,1.27115,2.36742,3.11836,0.089698,0.00060355,0.204778,1,0,3.08,0.595,0.5075,0.091256,-0.009394,-0.808372,-0.04494,0.11522,0.4879
-0.762555,0,0,15.7626,15.7626,14.2374,14.2374,1.27093,2.36609,3.12006,0.0335947,-0.139602,0.145518,1,0,3.36,-0.7,0.6125,0.034892,-0.14945,-0.867176,-0.04494,0.11522,0.4879
-0.763682,0,0,15.7637,15.7637,14.2363,14.2363,1.2728,2.36214,3.12194,0.0336637,-0.139569,0.14552,1,0,4.5325,-2.24,0.7525,0.034892,-0.14945,-0.867176,-0.04494,0.11522,0.4879
-0.741804,0,0,15.7418,15.7418,14.2582,14.2582,1.23634,2.16958,3.30495,-0.160635,0.0337066,-0.0337148,0,0,4.48,-2.5725,0.8925,-0.163602,0.024278,-1.04517,-0.04494,0.11522,0.4879
-0.719779,0,0,15.7198,15.7198,14.2802,14.2802,1.19963,1.9839,3.48885,-0.157397,0.0330691,-0.0335838,0,0,3.9375,-0.8575,1.4,-0.163602,0.024278,-1.04517,-0.04494,0.11522,0.4879
-0.77866,0,0,15.7787,15.7787,14.2213,14.2213,1.29777,1.65627,3.80671,-0.275232,-0.0883193,0.0293871,0,0,3.99,-0.5425,1.68,-0.287676,-0.098698,-0.982832,-0.04494,0.11522,0.4879
-0.835601,0,0,15.8356,15.8356,14.1644,14.1644,1.39267,1.33707,4.12228,-0.269663,-0.0866605,0.0294937,0,0,3.2725,0.5425,1.365,-0.287676,-0.098698,-0.982832,-0.04494,0.11522,0.4879
-0.934759,0,0,15.9348,15.9348,14.0652,14.0652,1.55793,0.844939,4.59872,-0.392037,-0.137998,0.150318,0,0,3.885,0.9275,1.3475,-0.419192,-0.152866,-0.863028,-0.04494,0.11522,0.4879
-1.03117,0,0,16.0312,16.0312,13.9688,13.9688,1.71861,0.367486,5.07692,-0.383704,-0.135192,0.150326,0,0,2.9225,2.2575,1.5575,-0.419192,-0.152866,-0.863028,-0.0413,0.11172,0.48118
-1.03055,0,0,16.0306,16.0306,13.9694,13.9694,1.71759,0.369741,5.07943,-0.21986,-0.411216,0.348274,1,0,2.94,1.4175,1.0325,-0.254614,-0.428586,-0.666608,-0.0413,0.11172,0.48118
-1.02963,0,0,16.0296,16.0296,13.9704,13.9704,1.71606,0.37075,5.08062,-0.219877,-0.411243,0.348274,1,0,2.66,0.665,0.28,-0.254614,-0.428586,-0.666608,-0.0413,0.11172,0.48118
-1.0289,0,0,16.0289,16.0289,13.9711,13.9711,1.71483,0.370228,5.08108,0.0777718,-0.266178,0.183032,1,0,2.835,-0.245,-0.1225,0.044286,-0.28365,-0.830576,-0.0413,0.11172,0.48118
-1.02938,0,0,16.0294,16.0294,13.9706,13.9706,1.71563,0.367938,5.0807,0.0778118,-0.266164,0.183032,1,0,3.9725,-1.295,-0.5775,0.044286,-0.28365,-0.830576,-0.0413,0.11172,0.48118
-1.10837,0,0,16.1084,16.1084,13.8916,13.8916,1.84728,0.39604,5.09083,0.0237461,-0.12965,-0.0817506,0,0,3.99,-2.1875,-1.2775,-0.009516,-0.149572,-1.09324,-0.0413,0.11172,0.48118
-1.18583,0,0,16.1858,16.1858,13.8142,13.8142,1.97638,0.423433,5.10097,0.023268,-0.127398,-0.0818292,0,0,3.99,-2.1875,-1.2775,-0.009516,-0.149572,-1.09324,-0.0413,0.11172,0.48118
-1.18684,0,0,16.1868,16.1868,13.8132,13.8132,1.97807,0.424537,5.09842,0.110597,-0.0641073,-0.19814,1,0,4.48,0.6475,-1.9075,0.078202,-0.086376,-1.20865,-0.0413,0.11172,0.48118
-1.18786,0,0,16.1879,16.1879,13.8121,13.8121,1.97976,0.425641,5.09587,0.110578,-0.0640779,-0.198141,1,0,4.48,0.6475,-1.9075,0.078202,-0.086376,-1.20865,-0.0413,0.11172,0.48118
-1.01014,0,0,16.0101,16.0101,13.9899,13.9899,1.68357,0.207283,5.33517,-0.159319,0.243767,0.129826,0,0,4.375,1.5925,-2.6425,-0.196664,0.22631,-0.883402,-0.04676,0.12306,0.49224
-1.00983,0,0,16.0098,16.0098,13.9902,13.9902,1.68304,0.211087,5.33179,-0.116622,-0.0560634,0.34806,1,0,3.2375,2.2225,-2.4325,-0.15372,-0.0732,-0.666852,-0.04676,0.12306,0.49224
-1.00951,0,0,16.0095,16.0095,13.9905,13.9905,1.68252,0.214892,5.32841,-0.116688,-0.0560726,0.34806,1,0,3.2375,2.2225,-2.4325,-0.15372,-0.0732,-0.666852,-0.04676,0.12306,0.49224
-1.00969,0,0,16.0097,16.0097,13.9903,13.9903,1.68281,0.214948,5.32543,-0.353951,0.337425,0.472361,1,0,3.6925,0.035,-2.135,-0.391986,0.319884,-0.54351,-0.04676,0.12306,0.49224
-1.00986,0,0,16.0099,16.0099,13.9901,13.9901,1.6831,0.215005,5.32245,-0.353952,0.33743,0.47236,1,0,3.6925,0.035,-2.135,-0.391986,0.319884,-0.54351,-0.04676,0.12306,0.49224
-1.01034,0,0,16.0103,16.0103,13.9897,13.9897,1.68389,0.212027,5.32004,-0.225733,-0.0837714,-0.120497,1,0,3.9725,-1.7325,-1.75,-0.263276,-0.100894,-1.13179,-0.04676,0.12306,0.49224
-1.01081,0,0,16.0108,16.0108,13.9892,13.9892,1.68469,0.209049,5.31764,-0.225681,-0.0837576,-0.120498,1,0,3.9725,-1.7325,-1.75,-0.263276,-0.100894,-1.13179,-0.04676,0.12306,0.49224
-1.01193,0,0,16.0119,16.0119,13.9881,13.9881,1.68655,0.207581,5.31674,-0.0744052,-0.00666315,-0.166604,1,0,4.5675,-0.8225,-0.8925,-0.111386,-0.023912,-1.17754,-0.04676,0.12306,0.49224
-1.01304,0,0,16.013,16.013,13.987,13.987,1.6884,0.206112,5.31585,-0.0743796,-0.00663071,-0.166605,1,0,4.5675,-0.8225,-0.8925,-0.111386,-0.023912,-1.17754,-0.049,0.12348,0.5012
-1.12477,0,0,16.1248,16.1248,13.8752,13.8752,1.87462,0.323079,5.2308,0.0911077,-0.165933,0.0130351,0,0,4.375,0.8225,0.805,0.056852,-0.186294,-0.99918,-0.049,0.12348,0.5012
-1.23437,0,0,16.2344,16.2344,13.7656,13.7656,2.05728,0.437472,5.14657,0.0891112,-0.162748,0.0129125,0,0,4.375,0.8225,0.805,0.056852,-0.186294,-0.99918,-0.049,0.12348,0.5012
-1.23533,0,0,16.2353,16.2353,13.7647,13.7647,2.05888,0.438026,5.14943,-0.162131,0.233459,0.288685,1,0,4.41,0.4375,1.26,-0.195444,0.209474,-0.725534,-0.049,0.12348,0.5012
-1.23629,0,0,16.2363,16.2363,13.7637,13.7637,2.06048,0.43858,5.15229,-0.162141,0.233487,0.288684,1,0,4.41,0.4375,1.26,-0.195444,0.209474,-0.725534,-0.049,0.12348,0.5012
-0.943855,0,0,15.9439,15.9439,14.0561,14.0561,1.57309,0.5845,5.06735,0.142064,0.466429,0.0532385,0,0,4.97,-1.3825,1.3825,0.112606,0.450668,-0.959408,-0.049,0.12348,0.5012
-0.656392,0,0,15.6564,15.6564,14.3436,14.3436,1.09399,0.727922,4.98073,0.139561,0.45807,0.0534045,0,0,4.97,-1.3825,1.3825,0.112606,0.450668,-0.959408,-0.049,0.12348,0.5012
-0.763572,0,0,15.7636,15.7636,14.2364,14.2364,1.27262,1.23218,4.52674,0.411393,-0.152138,0.129172,0,0,5.18,-0.525,0.945,0.394426,-0.162016,-0.884012,-0.049,0.12348,0.5012
-0.868487,0,0,15.8685,15.8685,14.1315,14.1315,1.44748,1.72123,4.07058,0.402861,-0.149093,0.128879,0,0,5.18,-0.525,0.945,0.394426,-0.162016,-0.884012,-0.04172,0.1267,0.5019
-0.869352,0,0,15.8694,15.8694,14.1306,14.1306,1.44892,1.72251,4.0722,0.19935,0.011529,0.132935,1,0,4.305,0.8225,0.525,0.190076,-0.001586,-0.879986,-0.04172,0.1267,0.5019
-0.779504,0,0,15.7795,15.7795,14.2205,14.2205,1.29917,1.4832,4.30058,-0.210012,0.139718,-0.0206937,0,0,4.1475,0.3675,0.4725,-0.225212,0.129076,-1.03261,-0.04172,0.1267,0.5019
-0.690612,0,0,15.6906,15.6906,14.3094,14.3094,1.15102,1.25108,4.52908,-0.205962,0.137135,-0.0205418,0,0,3.4825,1.785,-0.0175,-0.225212,0.129076,-1.03261,-0.04172,0.1267,0.5019
-0.689791,0,0,15.6898,15.6898,14.3102,14.3102,1.14965,1.25375,4.52978,0.134759,0.343872,0.353467,1,0,2.7475,1.6275,-0.0175,0.116998,0.335622,-0.661484,-0.04172,0.1267,0.5019
-0.689524,0,0,15.6895,15.6895,14.3105,14.3105,1.14921,1.25455,4.52993,0.134745,0.343864,0.353467,1,0,3.2725,0.525,-0.315,0.116998,0.335622,-0.661484,-0.04172,0.1267,0.5019
-0.691367,0,0,15.6914,15.6914,14.3086,14.3086,1.15228,1.25396,4.52955,-0.146606,-0.0393158,0.12097,1,0,5.25,-0.2975,-0.6125,-0.165554,-0.047214,-0.892186,-0.04172,0.1267,0.5019
-0.693893,0,0,15.6939,15.6939,14.3061,14.3061,1.15649,1.25213,4.52845,-0.146574,-0.0392423,0.12097,1,0,5.8975,-1.0325,-1.015,-0.165554,-0.047214,-0.892186,-0.04172,0.1267,0.5019
-0.696242,0,0,15.6962,15.6962,14.3038,14.3038,1.1604,1.25067,4.52667,0.260307,0.0531538,-0.115215,1,0,5.74,-0.8225,-1.4175,0.243024,0.045018,-1.12655,-0.04788,0.13048,0.50792
-0.698204,0,0,15.6982,15.6982,14.3018,14.3018,1.16367,1.24989,4.524,0.179168,-0.103111,0.164369,1,0,5.39,-0.4375,-1.9425,0.161528,-0.111142,-0.84912,-0.04788,0.13048,0.50792
-0.700806,0,0,15.7008,15.7008,14.2992,14.2992,1.16801,1.25155,4.52147,0.179139,-0.103036,0.164367,1,0,5.985,0.9975,-1.89,0.161528,-0.111142,-0.84912,-0.04788,0.13048,0.50792
-0.594932,0,0,15.5949,15.5949,14.4051,14.4051,0.991554,0.60793,5.12747,-0.539394,0.156828,0.176902,0,0,4.865,0.6825,-1.8375,-0.571326,0.151524,-0.83692,-0.04788,0.13048,0.50792
-0.491216,0,0,15.4912,15.4912,14.5088,14.5088,0.818693,-0.0245338,5.73576,-0.528355,0.153812,0.177006,0,0,5.4775,0.8575,-1.9775,-0.571326,0.151524,-0.83692,-0.04788,0.13048,0.50792
-0.56178,0,0,15.5618,15.5618,14.4382,14.4382,0.9363,-0.241906,5.94955,-0.183551,-0.102922,0.0450416,0,0,4.7075,0.5075,-2.135,-0.228872,-0.106994,-0.967826,-0.04788,0.13048,0.50792
-0.635293,0,0,15.6353,15.6353,14.3647,14.3647,1.05882,-0.455886,6.16277,-0.179816,-0.100784,0.0449816,0,0,8.6975,-0.0175,-1.6975,-0.228872,-0.106994,-0.967826,-0.04788,0.13048,0.50792
-0.636947,0,0,15.6369,15.6369,14.3631,14.3631,1.06158,-0.457365,6.1603,-0.101068,-0.0366199,0.218707,1,0,5.0575,-0.84,-1.82,-0.149816,-0.042944,-0.79544,-0.04788,0.13048,0.50792
-0.638728,0,0,15.6387,15.6387,14.3613,14.3613,1.06455,-0.459811,6.15845,-0.101025,-0.0365681,0.218705,1,0,5.18,-1.4,-1.4525,-0.149816,-0.042944,-0.79544,-0.04732,0.1358,0.51226
-0.641425,0,0,15.6414,15.6414,14.3586,14.3586,1.06904,-0.462326,6.1571,0.00592615,0.112505,-0.138339,1,0,6.0375,-1.435,-1.155,-0.042456,0.105896,-1.14973,-0.04732,0.1358,0.51226
-0.644231,0,0,15.6442,15.6442,14.3558,14.3558,1.07372,-0.463661,6.15658,0.00594946,0.112587,-0.138341,1,0,6.1425,-0.735,-0.6825,-0.042456,0.105896,-1.14973,-0.04732,0.1358,0.51226
-0.585943,0,0,15.5859,15.5859,14.4141,14.4141,0.976572,-0.433357,6.15819,0.0289888,0.0908627,0.021527,0,0,6.125,-0.8225,-0.385,-0.018788,0.085888,-0.991128,-0.04732,0.1358,0.51226
-0.528729,0,0,15.5287,15.5287,14.4713,14.4713,0.881214,-0.401931,6.16057,0.0284403,0.0891987,0.021558,0,0,6.09,0.175,0.0875,-0.018788,0.085888,-0.991128,-0.04732,0.1358,0.51226
-0.423007,0,0,15.423,15.423,14.577,14.577,0.705012,-0.169866,5.98243,0.190825,0.157202,0.0821114,0,0,6.1425,0.4025,0.14,0.148352,0.156892,-0.931104,-0.04732,0.1358,0.51226
-0.319109,0,0,15.3191,15.3191,14.6809,14.6809,0.531849,0.0572587,5.80442,0.186861,0.15418,0.0821479,0,0,6.0375,0.105,0.875,0.148352,0.156892,-0.931104,-0.04732,0.1358,0.51226
-0.206087,0,0,15.2061,15.2061,14.7939,14.7939,0.343479,-0.0768991,5.9616,-0.104064,0.163349,0.0834021,0,0,6.125,-0.1925,0.91,-0.146156,0.169336,-0.929884,-0.04732,0.1358,0.51226
-0.0953167,0,0,15.0953,15.0953,14.9047,14.9047,0.158861,-0.208423,6.11969,-0.101768,0.160127,0.0834105,0,0,6.23,-0.42,0.8225,-0.146156,0.169336,-0.929884,-0.04522,0.13552,0.50918
-0.0984146,0,0,15.0984,15.0984,14.9016,14.9016,0.164024,-0.209326,6.12181,-0.206473,0.208335,0.670366,1,0,6.4225,-0.4725,0.84,-0.25132,0.217404,-0.347456,-0.04522,0.13552,0.50918
-0.101831,0,0,15.1018,15.1018,14.8982,14.8982,0.169718,-0.210199,6.12398,-0.206458,0.208434,0.670366,1,0,6.72,-0.455,0.875,-0.25132,0.217404,-0.347456,-0.04522,0.13552,0.50918
-0.105958,0,0,15.106,15.106,14.894,14.894,0.176597,-0.210983,6.12622,-0.26172,-0.378265,-0.0179001,1,0,7.385,-0.4025,0.91,-0.30683,-0.368806,-1.03041,-0.04522,0.13552,0.50918
-0.109843,0,0,15.1098,15.1098,14.8902,14.8902,0.183071,-0.210334,6.12846,-0.261731,-0.378152,-0.0179004,1,0,7.1575,0.4375,0.91,-0.30683,-0.368806,-1.03041,-0.04522,0.13552,0.50918
-0.114007,0,0,15.114,15.114,14.886,14.886,0.190012,-0.209476,6.13091,0.0631064,-0.161378,-0.173554,1,0,7.42,0.56,1.0325,0.019398,-0.152378,-1.18486,-0.04522,0.13552,0.50918
-0.117067,0,0,15.1171,15.1171,14.8829,14.8829,0.195112,-0.207274,6.13333,0.063068,-0.161289,-0.173554,1,0,6.3875,1.3475,1.015,0.019398,-0.152378,-1.18486,-0.04522,0.13552,0.50918
-0.213626,0,0,15.2136,15.2136,14.7864,14.7864,0.356044,0.0537397,5.89711,0.20879,-0.132711,0.0864749,0,0,6.3875,1.155,1.0675,0.170312,-0.126636,-0.926834,-0.04522,0.13552,0.50918
-0.308265,0,0,15.3083,15.3083,14.6917,14.6917,0.513775,0.309451,5.67166,0.204327,-0.129958,0.0864399,0,0,6.23,0.4375,0.385,0.170312,-0.126636,-0.926834,-0.04396,0.12866,0.50134
-0.407215,0,0,15.4072,15.4072,14.5928,14.5928,0.678691,0.0152377,5.95765,-0.26336,-0.150773,0.0263027,0,0,6.02,0.805,0.1575,-0.304512,-0.150304,-0.986492,-0.04396,0.12866,0.50134
-0.505045,0,0,15.505,15.505,14.495,14.495,0.841741,-0.273864,6.2404,-0.258314,-0.147927,0.0262535,0,0,6.6675,0.5075,-0.4725,-0.304512,-0.150304,-0.986492,-0.04396,0.12866,0.50134
-0.508185,0,0,15.5082,15.5082,14.4918,14.4918,0.846975,-0.273922,6.24027,0.316678,0.186303,-0.264398,1,0,6.4575,0.0175,-0.4725,0.272914,0.183488,-1.2749,-0.04396,0.12866,0.50134
-0.51264,0,0,15.5126,15.5126,14.4874,14.4874,0.854401,-0.27414,6.23881,0.316682,0.186432,-0.2644,1,0,7.6825,-0.0875,-1.2425,0.272914,0.183488,-1.2749,-0.04396,0.12866,0.50134
-0.516871,0,0,15.5169,15.5169,14.4831,14.4831,0.861451,-0.273612,6.2374,0.185711,0.0759086,-0.107888,1,0,7.4725,0.35,-1.225,0.141398,0.072956,-1.11959,-0.04396,0.12866,0.50134
-0.521514,0,0,15.5215,15.5215,14.4785,14.4785,0.86919,-0.273049,6.23565,0.185702,0.0760436,-0.10789,1,0,7.8575,0.3675,-1.4175,0.141398,0.072956,-1.11959,-0.04396,0.12866,0.50134
-0.455617,0,0,15.4556,15.4556,14.5444,14.5444,0.759362,-0.394104,6.38646,-0.0970695,0.102949,0.046179,0,0,7.8925,0.4375,-1.54,-0.144692,0.101748,-0.966728,-0.04396,0.12866,0.50134
-0.390435,0,0,15.3904,15.3904,14.6096,14.6096,0.650725,-0.514033,6.55558,-0.0949764,0.101053,0.0461858,0,0,7.56,1.0325,-1.1725,-0.144692,0.101748,-0.966728,-0.04746,0.11746,0.5019
-0.394839,0,0,15.3948,15.3948,14.6052,14.6052,0.658066,-0.512729,6.55378,0.11262,0.150764,0.415768,1,0,7.63,0.805,-1.4525,0.063806,0.15128,-0.599996,-0.04746,0.11746,0.5019
-0.399244,0,0,15.3992,15.3992,14.6008,14.6008,0.665406,-0.511424,6.55198,0.112597,0.150892,0.415766,1,0,7.63,0.805,-1.4525,0.063806,0.15128,-0.599996,-0.04746,0.11746,0.5019
-0.435756,0,0,15.4358,15.4358,14.5642,14.5642,0.72626,-0.386985,6.48056,0.113462,-0.054806,-0.0783594,0,0,6.5275,-0.5075,-1.7675,0.066856,-0.055266,-1.09031,-0.04746,0.11746,0.5019
-0.471559,0,0,15.4716,15.4716,14.5284,14.5284,0.785932,-0.265081,6.40941,0.111335,-0.0537645,-0.0783611,0,0,6.5275,-0.5075,-1.7675,0.066856,-0.055266,-1.09031,-0.04746,0.11746,0.5019
-0.584115,0,0,15.5841,15.5841,14.4159,14.4159,0.973525,0.0560955,6.14158,0.272165,-0.167977,0.040613,0,0,5.4075,-0.735,-0.9975,0.233996,-0.17263,-0.972218,-0.04746,0.11746,0.5019
-0.694547,0,0,15.6945,15.6945,14.3055,14.3055,1.15758,0.370933,5.87588,0.26667,-0.164765,0.0405328,0,0,5.4075,-0.735,-0.9975,0.233996,-0.17263,-0.972218,-0.04746,0.11746,0.5019
-0.684547,0,0,15.6845,15.6845,14.3155,14.3155,1.14091,0.28992,5.98621,-0.0726837,0.0199661,-0.0755166,0,0,6.7375,-0.315,-0.7525,-0.108214,0.0122,-1.08739,-0.04746,0.11746,0.5019
-0.674737,0,0,15.6747,15.6747,14.3253,14.3253,1.12456,0.210543,6.09642,-0.0712983,0.019681,-0.0755049,0,0,6.7375,-0.315,-0.7525,-0.108214,0.0122,-1.08739,-0.04746,0.11746,0.5019
-0.609955,0,0,15.61,15.61,14.39,14.39,1.01659,0.135664,6.20733,-0.0607585,0.103408,0.00875398,0,0,6.93,0.385,-0.14,-0.098942,0.097722,-1.00382,-0.04536,0.12068,0.50008
-0.53773,0,0,15.5377,15.5377,14.4623,14.4623,0.896217,0.214317,6.17678,0.0693163,0.109978,0.0451776,0,0,5.4775,-0.2275,-0.0875,0.033062,0.106384,-0.967704,-0.04536,0.12068,0.50008
-0.5384,0,0,15.5384,15.5384,14.4616,14.4616,0.897333,0.213049,6.17753,0.199085,-0.171627,-0.173794,1,0,4.1475,-0.6825,0.0525,0.163358,-0.174948,-1.18499,-0.04536,0.12068,0.50008
-0.538976,0,0,15.539,15.539,14.461,14.461,0.898293,0.21193,6.17837,0.199105,-0.17161,-0.173794,1,0,4.06,-0.595,0.105,0.163358,-0.174948,-1.18499,-0.04536,0.12068,0.50008
-0.643027,0,0,15.643,15.643,14.357,14.357,1.07171,0.324974,6.09437,0.0911961,-0.153807,0.0299933,0,0,4.6725,-0.4375,0.0525,0.056974,-0.160186,-0.98271,-0.04536,0.12068,0.50008
-0.745493,0,0,15.7455,15.7455,14.2545,14.2545,1.24249,0.436698,6.0112,0.0892462,-0.150827,0.0299201,0,0,5.0225,0.1925,0.105,0.056974,-0.160186,-0.98271,-0.04536,0.12068,0.50008
-0.747102,0,0,15.7471,15.7471,14.2529,14.2529,1.24517,0.437273,6.01222,-0.132597,-0.0788474,-0.419458,1,0,5.0225,0.4025,0.1925,-0.165798,-0.088328,-1.42862,-0.04536,0.12068,0.50008
-0.748468,0,0,15.7485,15.7485,14.2515,14.2515,1.24745,0.437995,6.01333,-0.132609,-0.0788077,-0.419459,1,0,4.795,0.49,0.245,-0.165798,-0.088328,-1.42862,-0.04984,0.1183,0.49154
-0.748936,0,0,15.7489,15.7489,14.2511,14.2511,1.24823,0.440356,6.01463,0.122712,-0.091251,0.200078,1,0,3.955,1.4525,0.3325,0.090646,-0.100772,-0.813862,-0.04984,0.1183,0.49154
-0.749121,0,0,15.7491,15.7491,14.2509,14.2509,1.24853,0.441681,6.01552,0.122689,-0.0912457,0.200078,1,0,3.6925,0.84,0.105,0.090646,-0.100772,-0.813862,-0.04984,0.1183,0.49154
-0.752516,0,0,15.7525,15.7525,14.2475,14.2475,1.25419,0.0351741,6.42083,-0.360775,-0.0101762,0.0278544,0,0,2.9225,0.6475,0.1575,-0.40199,-0.019886,-0.984784,-0.04984,0.1183,0.49154
-0.757057,0,0,15.7571,15.7571,14.2429,14.2429,1.26176,-0.364248,6.82455,-0.353804,-0.0100446,0.0278315,0,0,4.1125,0.2275,-0.105,-0.40199,-0.019886,-0.984784,-0.04984,0.1183,0.49154
-0.62296,0,0,15.623,15.623,14.377,14.377,1.03827,-0.310772,6.83831,0.0524828,0.193549,0.0778323,0,0,3.29,0.28,-0.07,0.006954,0.187392,-0.935252,-0.04984,0.1183,0.49154
-0.491645,0,0,15.4916,15.4916,14.5084,14.5084,0.819408,-0.257889,6.85157,0.0515598,0.18973,0.0778988,0,0,3.57,0.4375,-0.2625,0.006954,0.187392,-0.935252,-0.04984,0.1183,0.49154
-0.331817,0,0,15.3318,15.3318,14.6682,14.6682,0.553029,-0.194715,6.85712,0.0607835,0.223673,0.111401,0,0,2.765,0.0875,-0.21,0.017324,0.225944,-0.902068,-0.04984,0.1183,0.49154
-0.174149,0,0,15.1741,15.1741,14.8259,14.8259,0.290248,-0.13316,6.86595,0.0597092,0.219087,0.111438,0,0,2.1,0.315,-0.42,0.017324,0.225944,-0.902068,-0.0497,0.11578,0.4907
-0.173225,0,0,15.1732,15.1732,14.8268,14.8268,0.288708,-0.132922,6.86591,-0.0298299,0.187063,0.167134,1,0,2.66,0.1925,-0.42,-0.07259,0.19398,-0.846802,-0.0497,0.11578,0.4907
-0.172301,0,0,15.1723,15.1723,14.8277,14.8277,0.287169,-0.132115,6.86563,-0.029844,0.187036,0.167134,1,0,2.66,0.525,-0.56,-0.07259,0.19398,-0.846802,-0.0497,0.11578,0.4907
-0.172202,0,0,15.1722,15.1722,14.8278,14.8278,0.287003,-0.131009,6.86536,-0.0151635,-0.0612507,-0.354291,1,0,3.43,0.7,-0.56,-0.057828,-0.054046,-1.3642,-0.0497,0.11578,0.4907
-0.172102,0,0,15.1721,15.1721,14.8279,14.8279,0.286837,-0.129903,6.86508,-0.0151828,-0.0612536,-0.354291,1,0,3.43,0.7,-0.56,-0.057828,-0.054046,-1.3642,-0.0497,0.11578,0.4907
-0.175349,0,0,15.1753,15.1753,14.8247,14.8247,0.292248,0.105191,6.69182,0.208257,-0.00424806,0.00226027,0,0,3.29,-0.0525,-0.42,0.170678,0.002806,-1.0104,-0.0497,0.11578,0.4907
-0.178497,0,0,15.1785,15.1785,14.8215,14.8215,0.297495,0.335722,6.51874,0.204233,-0.00415656,0.00224432,0,0,3.29,-0.0525,-0.42,0.170678,0.002806,-1.0104,-0.0497,0.11578,0.4907
-0.177051,0,0,15.1771,15.1771,14.8229,14.8229,0.295084,0.334822,6.51935,0.155047,0.202806,-0.109024,1,0,2.17,-0.4725,-0.035,0.121268,0.209596,-1.12081,-0.0497,0.11578,0.4907
-0.175604,0,0,15.1756,15.1756,14.8244,14.8244,0.292674,0.333922,6.51997,0.155063,0.202764,-0.109023,1,0,2.17,-0.4725,-0.035,0.121268,0.209596,-1.12081,-0.04242,0.10822,0.47852
-0.174421,0,0,15.1744,15.1744,14.8256,14.8256,0.290701,0.333351,6.52067,0.0216816,0.14301,-0.138039,1,0,2.415,-0.28,0.0175,-0.012688,0.149938,-1.14961,-0.04242,0.10822,0.47852
-0.173237,0,0,15.1732,15.1732,14.8268,14.8268,0.288728,0.332779,6.52138,0.0216916,0.142975,-0.138039,1,0,2.415,-0.28,0.0175,-0.012688,0.149938,-1.14961,-0.04242,0.10822,0.47852
-0.173906,0,0,15.1739,15.1739,14.8261,14.8261,0.289843,0.339527,6.52173,-0.0249552,0.356961,-0.197547,1,0,4.1475,4.0075,-0.21,-0.059414,0.363682,-1.20865,-0.04242,0.10822,0.47852
-0.174575,0,0,15.1746,15.1746,14.8254,14.8254,0.290958,0.346276,6.52208,-0.025073,0.35698,-0.197547,1,0,4.1475,4.0075,-0.21,-0.059414,0.363682,-1.20865,-0.04242,0.10822,0.47852
-0.168926,0,0,15.1689,15.1689,14.8311,14.8311,0.281544,0.110107,6.79489,-0.203423,0.00582377,0.0392685,0,0,2.8175,-0.175,-0.7175,-0.242658,0.013054,-0.973682,-0.04242,0.10822,0.47852
-0.163373,0,0,15.1634,15.1634,14.8366,14.8366,0.272288,-0.12151,7.06731,-0.19938,0.00566222,0.0392689,0,0,2.8175,-0.175,-0.7175,-0.242658,0.013054,-0.973682,-0.04242,0.10822,0.47852
-0.161158,0,0,15.1612,15.1612,14.8388,14.8388,0.268597,-0.122639,7.06583,-0.0385134,-0.207147,0.45422,1,0,1.4525,-0.6125,-1.26,-0.08113,-0.19947,-0.561932,-0.04242,0.10822,0.47852
-0.159936,0,0,15.1599,15.1599,14.8401,14.8401,0.266561,-0.12305,7.06425,0.138741,0.0811587,-0.128555,1,0,2.38,-0.1925,-1.3125,0.096868,0.088572,-1.14021,-0.04844,0.1113,0.48594
-0.159296,0,0,15.1593,15.1593,14.8407,14.8407,0.265493,-0.12319,7.06214,0.298133,-0.0684652,-0.0847856,1,0,2.9225,-0.035,-1.6275,0.256932,-0.060878,-1.09678,-0.04844,0.1113,0.48594
-0.159199,0,0,15.1592,15.1592,14.8408,14.8408,0.265332,-0.123628,7.05976,0.298141,-0.068468,-0.0847856,1,0,3.43,-0.21,-1.785,0.256932,-0.060878,-1.09678,-0.04844,0.1113,0.48594
-0.159514,0,0,15.1595,15.1595,14.8405,14.8405,0.265857,-0.123409,7.05741,0.0247941,-0.0280349,-0.234537,1,0,3.815,0.175,-1.7675,-0.017568,-0.020496,-1.24538,-0.04844,0.1113,0.48594
-0.159342,0,0,15.1593,15.1593,14.8407,14.8407,0.26557,-0.122592,7.05512,0.0247799,-0.0280399,-0.234537,1,0,3.36,0.525,-1.7325,-0.017568,-0.020496,-1.24538,-0.04844,0.1113,0.48594
-0.208529,0,0,15.2085,15.2085,14.7915,14.7915,0.347549,0.0601071,6.93144,0.166888,-0.0820546,-0.0616772,0,0,2.8,0.6475,-1.54,0.128344,-0.075884,-1.07384,-0.04844,0.1113,0.48594
-0.254784,0,0,15.2548,15.2548,14.7452,14.7452,0.42464,0.238657,6.80889,0.163772,-0.0807092,-0.0616944,0,0,0.945,0.3675,-1.2075,0.128344,-0.075884,-1.07384,-0.04844,0.1113,0.48594
-0.329234,0,0,15.3292,15.3292,14.6708,14.6708,0.548723,0.135545,6.94313,-0.0967162,-0.119945,0.00948027,0,0,0.91,0.315,-0.8925,-0.135054,-0.117242,-1.00321,-0.04844,0.1113,0.48594
-0.403213,0,0,15.4032,15.4032,14.5968,14.5968,0.672021,0.0336079,7.07301,-0.0949371,-0.117793,0.00945997,0,0,1.785,0.1225,-0.35,-0.135054,-0.117242,-1.00321,-0.04704,0.11424,0.4844
-0.35637,0,0,15.3564,15.3564,14.6436,14.6436,0.59395,0.271069,6.90246,0.207913,0.0713624,0.04057,0,0,2.7125,-0.3325,-0.0175,0.17324,0.073078,-0.97234,-0.04704,0.11424,0.4844
-0.310973,0,0,15.311,15.311,14.689,14.689,0.518289,0.504521,6.73283,0.203838,0.0700417,0.0405552,0,0,3.29,-0.035,0.735,0.17324,0.073078,-0.97234,-0.04704,0.11424,0.4844
-0.310884,0,0,15.3109,15.3109,14.6891,14.6891,0.51814,0.504442,6.73489,0.0131072,0.28657,0.196823,1,0,3.43,0.0175,0.805,-0.0183,0.289384,-0.817278,-0.04704,0.11424,0.4844
-0.310819,0,0,15.3108,15.3108,14.6892,14.6892,0.518032,0.505579,6.73794,0.0130874,0.286568,0.196823,1,0,3.4475,0.735,1.3825,-0.0183,0.289384,-0.817278,-0.04704,0.11424,0.4844
-0.26397,0,0,15.264,15.264,14.736,14.736,0.439949,0.604567,6.69323,0.0817,0.0678195,0.0743606,0,0,3.0975,0.84,1.645,0.052338,0.072224,-0.93879,-0.04704,0.11424,0.4844
-0.217555,0,0,15.2176,15.2176,14.7824,14.7824,0.362592,0.701144,6.64833,0.0800146,0.0664693,0.0743508,0,0,2.695,0.525,1.61,0.052338,0.072224,-0.93879,-0.04704,0.11424,0.4844
-0.217106,0,0,15.2171,15.2171,14.7829,14.7829,0.361844,0.701151,6.65182,0.028626,0.0284748,-0.125686,1,0,3.08,0.07,1.645,0.000732,0.034282,-1.13728,-0.04704,0.11424,0.4844
-0.217069,0,0,15.2171,15.2171,14.7829,14.7829,0.361781,0.700023,6.65519,0.0286457,0.0284737,-0.125686,1,0,3.465,-0.595,1.575,0.000732,0.034282,-1.13728,-0.04606,0.1106,0.48538
-0.344381,0,0,15.3444,15.3444,14.6556,14.6556,0.573969,0.287903,7.06664,-0.345262,-0.184964,0.15848,0,0,3.3425,-0.21,1.6275,-0.381982,-0.182634,-0.855342,-0.04606,0.1106,0.48538
-0.470052,0,0,15.4701,15.4701,14.5299,14.5299,0.783421,-0.117575,7.47329,-0.338185,-0.181309,0.158447,0,0,3.85,-0.5775,1.1375,-0.381982,-0.182634,-0.855342,-0.04606,0.1106,0.48538
-0.557692,0,0,15.5577,15.5577,14.4423,14.4423,0.929486,-0.344156,7.72618,-0.192214,-0.128077,0.0993776,0,0,2.5375,0.525,0.7875,-0.239364,-0.132004,-0.913902,-0.04606,0.1106,0.48538
-0.64299,0,0,15.643,15.643,14.357,14.357,1.07165,-0.567232,7.97583,-0.188321,-0.125597,0.0993033,0,0,1.82,0.0875,-0.0875,-0.239364,-0.132004,-0.913902,-0.04606,0.1106,0.48538
-0.596883,0,0,15.5969,15.5969,14.4031,14.4031,0.994805,-0.402395,7.88897,0.159653,0.0740832,-0.065645,0,0,2.03,-0.21,-0.42,0.112972,0.068808,-1.07763,-0.04606,0.1106,0.48538
-0.552458,0,0,15.5525,15.5525,14.4475,14.4475,0.920763,-0.2404,7.80056,0.156826,0.0727914,-0.0656076,0,0,2.8175,-0.0525,-1.19,0.112972,0.068808,-1.07763,-0.04606,0.1106,0.48538
-0.609934,0,0,15.6099,15.6099,14.3901,14.3901,1.01656,-0.277776,7.87841,-0.0356843,-0.0852788,0.0378838,0,0,3.64,-0.4725,-1.9075,-0.081008,-0.090768,-0.974902,-0.04606,0.1106,0.48538
-0.66651,0,0,15.6665,15.6665,14.3335,14.3335,1.11085,-0.312629,7.96159,-0.035076,-0.0836334,0.0378502,0,0,3.745,0.245,-2.5375,-0.081008,-0.090768,-0.974902,-0.04452,0.10654,0.47922
-0.66633,0,0,15.6663,15.6663,14.3337,14.3337,1.11055,-0.312639,7.95744,0.104876,-0.319099,-0.151367,1,0,3.3425,0,-2.8175,0.059536,-0.325984,-1.16266,-0.04452,0.10654,0.47922
-0.664971,0,0,15.665,15.665,14.335,14.335,1.10829,-0.311923,7.95285,0.104863,-0.319139,-0.151367,1,0,2.24,0.42,-3.08,0.059536,-0.325984,-1.16266,-0.04452,0.10654,0.47922
-0.663163,0,0,15.6632,15.6632,14.3368,14.3368,1.10527,-0.311926,7.94831,0.162326,-0.125987,0.150227,1,0,1.82,0,-3.045,0.117242,-0.13298,-0.863394,-0.04452,0.10654,0.47922
-0.662235,0,0,15.6622,15.6622,14.3378,14.3378,1.10372,-0.312081,7.94391,0.162329,-0.126014,0.150228,1,0,2.6425,-0.0875,-2.9575,0.117242,-0.13298,-0.863394,-0.04452,0.10654,0.47922
-0.662204,0,0,15.6622,15.6622,14.3378,14.3378,1.10367,-0.312719,7.93978,0.0116976,0.0866081,-0.137595,1,0,3.4825,-0.3675,-2.8,-0.034038,0.079422,-1.149,-0.04452,0.10654,0.47922
-0.663162,0,0,15.6632,15.6632,14.3368,14.3368,1.10527,-0.312579,7.93713,0.0116952,0.086636,-0.137595,1,0,4.41,0.105,-1.9425,-0.034038,0.079422,-1.149,-0.04452,0.10654,0.47922
-0.526128,0,0,15.5261,15.5261,14.4739,14.4739,0.87688,-0.075837,7.79297,0.226966,0.222119,0.0237959,0,0,5.4425,0.0175,-1.61,0.186294,0.218746,-0.988932,-0.04452,0.10654,0.47922
-0.389788,0,0,15.3898,15.3898,14.6102,14.6102,0.649646,0.156955,7.64863,0.222903,0.218154,0.0238459,0,0,3.8325,0.1575,-0.91,0.186294,0.218746,-0.988932,-0.04452,0.10654,0.47922
-0.389855,0,0,15.3899,15.3899,14.6101,14.6101,0.649759,0.156692,7.64808,0.319732,0.095052,-0.0656606,1,0,3.5875,-0.105,-0.7175,0.283528,0.09577,-1.07775,-0.05152,0.10822,0.47348
-0.497795,0,0,15.4978,15.4978,14.5022,14.5022,0.829659,0.340087,7.51829,0.159936,-0.179647,-0.029937,0,0,1.7325,0.0175,0.35,0.12627,-0.18178,-1.04225,-0.05152,0.10822,0.47348
-0.604671,0,0,15.6047,15.6047,14.3953,14.3953,1.00779,0.520376,7.39101,0.15679,-0.176539,-0.0300105,0,0,2.6075,0.4375,1.12,0.12627,-0.18178,-1.04225,-0.05152,0.10822,0.47348
-0.604624,0,0,15.6046,15.6046,14.3954,14.3954,1.00771,0.519609,7.39381,0.345956,0.0338841,-0.0761161,1,0,3.465,-0.3675,1.2425,0.316224,0.028426,-1.088,-0.05152,0.10822,0.47348
-0.605986,0,0,15.606,15.606,14.394,14.394,1.00998,0.519634,7.39746,0.345956,0.0339237,-0.0761168,1,0,4.7775,0.105,1.7325,0.316224,0.028426,-1.088,-0.05152,0.10822,0.47348
-0.608379,0,0,15.6084,15.6084,14.3916,14.3916,1.01397,0.519086,7.40139,0.0615674,0.174683,-0.189722,1,0,5.74,-0.2275,1.9075,0.030622,0.16897,-1.20072,-0.05152,0.10822,0.47348
-0.610303,0,0,15.6103,15.6103,14.3897,14.3897,1.01717,0.519886,7.40509,0.0615535,0.174739,-0.189723,1,0,5.3025,0.56,1.75,0.030622,0.16897,-1.20072,-0.05152,0.10822,0.47348
-0.611853,0,0,15.6119,15.6119,14.3881,14.3881,1.01976,0.519968,7.40885,-0.223575,-0.11258,-0.146692,1,0,4.9525,0.14,1.8025,-0.255712,-0.118096,-1.15802,-0.05152,0.10822,0.47348
-0.61312,0,0,15.6131,15.6131,14.3869,14.3869,1.02187,0.520087,7.41217,-0.223577,-0.112543,-0.146693,1,0,4.69,0.1575,1.54,-0.255712,-0.118096,-1.15802,-0.04914,0.09996,0.4711
-0.654621,0,0,15.6546,15.6546,14.3454,14.3454,1.09103,0.695278,7.30798,0.154223,-0.0640737,-0.0142091,0,0,4.2175,-0.0875,1.4,0.126758,-0.070882,-1.02651,-0.04914,0.09996,0.4711
-0.695212,0,0,15.6952,15.6952,14.3048,14.3048,1.15869,0.866196,7.20309,0.15124,-0.0628941,-0.014273,0,0,4.1125,-0.5425,0.735,0.126758,-0.070882,-1.02651,-0.04914,0.09996,0.4711
-0.696283,0,0,15.6963,15.6963,14.3037,14.3037,1.16047,0.865039,7.20417,-0.0943835,0.264803,0.14347,1,0,4.515,-0.6125,0.245,-0.119926,0.256444,-0.869982,-0.04914,0.09996,0.4711
-0.698039,0,0,15.698,15.698,14.302,14.302,1.1634,0.864196,7.20441,-0.0943688,0.264854,0.143469,1,0,5.1625,-0.4375,-0.245,-0.119926,0.256444,-0.869982,-0.04914,0.09996,0.4711
-0.653269,0,0,15.6533,15.6533,14.3467,14.3467,1.08878,0.806248,7.31334,-0.0436698,0.0680277,0.0796989,0,0,5.3375,-0.2275,-0.5775,-0.070028,0.061122,-0.9333,-0.04914,0.09996,0.4711
-0.608534,0,0,15.6085,15.6085,14.3915,14.3915,1.01422,0.750183,7.4216,-0.0426914,0.066727,0.079736,0,0,4.6025,0.1575,-0.9975,-0.070028,0.061122,-0.9333,-0.04914,0.09996,0.4711
-0.609525,0,0,15.6095,15.6095,14.3905,14.3905,1.01588,0.750063,7.41988,0.330029,0.308078,0.492105,1,0,4.4625,-0.035,-1.4,0.304268,0.302194,-0.524112,-0.04914,0.09996,0.4711
-0.610079,0,0,15.6101,15.6101,14.3899,14.3899,1.0168,0.750944,7.41733,0.330013,0.308094,0.492104,1,0,4.06,0.5425,-1.89,0.304268,0.302194,-0.524112,-0.0462,0.10178,0.47362
-0.611083,0,0,15.6111,15.6111,14.3889,14.3889,1.01847,0.75084,7.41477,-0.246556,0.0768155,-0.07641,1,0,4.48,-0.035,-1.89,-0.274744,0.071126,-1.08824,-0.0462,0.10178,0.47362
-0.612313,0,0,15.6123,15.6123,14.3877,14.3877,1.02052,0.752046,7.41241,-0.246577,0.0768512,-0.0764109,1,0,4.69,0.735,-1.785,-0.274744,0.071126,-1.08824,-0.0462,0.10178,0.47362
-0.613278,0,0,15.6133,15.6133,14.3867,14.3867,1.02213,0.752092,7.40979,-0.040538,-0.0341339,-0.135427,1,0,4.445,0.0525,-1.925,-0.067832,-0.039772,-1.1468,-0.0462,0.10178,0.47362
-0.614015,0,0,15.614,15.614,14.386,14.386,1.02336,0.752656,7.40664,-0.0405478,-0.0341125,-0.135427,1,0,4.235,0.35,-2.24,-0.067832,-0.039772,-1.1468,-0.0462,0.10178,0.47362
-0.614285,0,0,15.6143,15.6143,14.3857,14.3857,1.02381,0.752947,7.40369,0.460576,0.136995,-0.103707,1,0,3.7975,0.1925,-2.1175,0.435418,0.13115,-1.11532,-0.0462,0.10178,0.47362
-0.615048,0,0,15.615,15.615,14.385,14.385,1.02508,0.752927,7.40143,0.460576,0.137017,-0.103707,1,0,4.2525,0.0175,-1.715,0.435418,0.13115,-1.11532,-0.0462,0.10178,0.47362
-0.530356,0,0,15.5304,15.5304,14.4696,14.4696,0.883927,0.491187,7.69968,-0.225624,0.13138,0.0237582,0,0,3.955,0.0525,-1.6975,-0.258274,0.127978,-0.988932,-0.0462,0.10178,0.47362
-0.447299,0,0,15.4473,15.4473,14.5527,14.5527,0.745499,0.23175,7.99854,-0.221096,0.128964,0.0238211,0,0,4.2525,-0.3325,-1.3125,-0.258274,0.127978,-0.988932,-0.0518,0.1022,0.47054
-0.448733,0,0,15.4487,15.4487,14.5513,14.5513,0.747888,0.232329,7.99764,0.0671796,-0.127704,0.290742,1,0,4.865,0.385,-0.9275,0.031232,-0.128466,-0.72407,-0.0518,0.1022,0.47054
-0.4497,0,0,15.4497,15.4497,14.5503,14.5503,0.7495,0.23224,7.99756,0.0671812,-0.127676,0.290741,1,0,4.4275,0,-0.4375,0.031232,-0.128466,-0.72407,-0.0518,0.1022,0.47054
-0.533404,0,0,15.5334,15.5334,14.4666,14.4666,0.889007,0.428,7.8664,0.157552,-0.121456,0.061142,0,0,4.62,-0.1225,-0.385,0.125416,-0.124684,-0.951844,-0.0518,0.1022,0.47054
-0.614549,0,0,15.6145,15.6145,14.3855,14.3855,1.02425,0.619825,7.73568,0.154204,-0.119097,0.061072,0,0,3.6925,-0.105,-0.6825,0.125416,-0.124684,-0.951844,-0.0518,0.1022,0.47054
-0.652572,0,0,15.6526,15.6526,14.3474,14.3474,1.08762,0.831255,7.5895,0.177605,-0.0561956,0.0424396,0,0,3.22,-0.105,-0.315,0.152622,-0.062952,-0.970266,-0.0518,0.1022,0.47054
-0.689853,0,0,15.6899,15.6899,14.3101,14.3101,1.14975,1.03889,7.44531,0.173982,-0.0551127,0.0423593,0,0,3.2025,0.14,0.5075,0.152622,-0.062952,-0.970266,-0.0518,0.1022,0.47054
-0.489944,0,0,15.4899,15.4899,14.5101,14.5101,0.816573,1.04925,7.50024,0.020486,0.285792,0.133807,0,0,3.1675,-0.3325,0.7,-0.001342,0.283406,-0.87962,-0.0518,0.1022,0.47054
-0.294886,0,0,15.2949,15.2949,14.7051,14.7051,0.491476,1.0612,7.55286,0.0202774,0.280119,0.133867,0,0,4.3575,0.0525,0.6475,-0.001342,0.283406,-0.87962,-0.04788,0.10402,0.46984
-0.29584,0,0,15.2958,15.2958,14.7042,14.7042,0.493066,1.06094,7.555,-0.0448344,0.190262,-0.152972,1,0,4.3925,-0.0875,0.8575,-0.066734,0.193614,-1.16425,-0.04788,0.10402,0.46984
-0.297154,0,0,15.2972,15.2972,14.7028,14.7028,0.495257,1.06104,7.55757,-0.0448361,0.1903,-0.152972,1,0,4.725,0.1225,1.1025,-0.066734,0.193614,-1.16425,-0.04788,0.10402,0.46984
-0.172233,0,0,15.1722,15.1722,14.8278,14.8278,0.287055,1.24082,7.44824,0.149927,0.179461,0.131984,0,0,4.27,0.1925,1.155,0.132004,0.186416,-0.88145,-0.04788,0.10402,0.46984
-0.0481811,0,0,15.0482,15.0482,14.9518,14.9518,0.0803019,1.41696,7.33802,0.146854,0.175853,0.131925,0,0,3.0275,-0.07,1.1375,0.132004,0.186416,-0.88145,-0.04788,0.10402,0.46984
-0.0929976,0,0,15.093,15.093,14.907,14.907,0.154996,1.54684,7.25162,0.127337,-0.078455,-0.0857554,0,0,2.555,-0.175,1.0675,0.11468,-0.06893,-1.09739,-0.04788,0.10402,0.46984
-0.136624,0,0,15.1366,15.1366,14.8634,14.8634,0.227706,1.67456,7.16521,0.125108,-0.0771867,-0.0858223,0,0,2.2225,0.07,0.8575,0.11468,-0.06893,-1.09739,-0.04788,0.10402,0.46984
-0.135563,0,0,15.1356,15.1356,14.8644,14.8644,0.225939,1.67503,7.16703,-0.0762018,-0.0619517,0.214295,1,0,2.5025,0.3325,0.665,-0.087474,-0.05368,-0.799588,-0.04788,0.10402,0.46984
-0.134973,0,0,15.135,15.135,14.865,14.865,0.224954,1.67557,7.16789,-0.0762111,-0.0619689,0.214295,1,0,2.9575,0.3675,0.105,-0.087474,-0.05368,-0.799588,-0.04788,0.10402,0.46984
-0.134524,0,0,15.1345,15.1345,14.8655,14.8655,0.224207,1.67664,7.16833,-0.259066,-0.0666227,0.150976,1,0,3.0975,0.6825,-0.14,-0.271084,-0.058316,-0.862418,-0.042,0.10444,0.47264
-0.133648,0,0,15.1336,15.1336,14.8664,14.8664,0.222746,1.6776,7.16782,-0.259082,-0.0666482,0.150975,1,0,2.7125,0.6125,-0.7,-0.271084,-0.058316,-0.862418,-0.042,0.10444,0.47264
-0.132636,0,0,15.1326,15.1326,14.8674,14.8674,0.221059,1.67742,7.16708,0.0700253,-0.0961102,-0.158117,1,0,2.59,-0.0525,-0.8225,0.059414,-0.087718,-1.16913,-0.042,0.10444,0.47264
-0.131624,0,0,15.1316,15.1316,14.8684,14.8684,0.219373,1.67724,7.16635,0.0700284,-0.0961396,-0.158117,1,0,2.59,-0.0525,-0.8225,0.059414,-0.087718,-1.16913,-0.042,0.10444,0.47264
-0.20272,0,0,15.2027,15.2027,14.7973,14.7973,0.337867,1.70625,7.16189,0.0254231,-0.122894,-0.0747827,0,0,2.8175,0.5075,-2.1,0.015128,-0.11651,-1.08641,-0.042,0.10444,0.47264
-0.272523,0,0,15.2725,15.2725,14.7275,14.7275,0.454205,1.73462,7.15747,0.0249283,-0.120865,-0.0748116,0,0,2.8175,0.5075,-2.1,0.015128,-0.11651,-1.08641,-0.042,0.10444,0.47264
-0.272615,0,0,15.2726,15.2726,14.7274,14.7274,0.454359,1.73553,7.15465,0.179321,0.0101797,-0.215588,1,0,3.6575,0.5775,-2.0475,0.17019,0.014396,-1.2261,-0.042,0.10444,0.47264
-0.272707,0,0,15.2727,15.2727,14.7273,14.7273,0.454512,1.73645,7.15182,0.179305,0.0101823,-0.215589,1,0,3.6575,0.5775,-2.0475,0.17019,0.014396,-1.2261,-0.042,0.10444,0.47264
-0.223227,0,0,15.2232,15.2232,14.7768,14.7768,0.372045,1.50291,7.39899,-0.20659,0.074815,0.0217046,0,0,2.975,-0.1925,-2.275,-0.22143,0.080398,-0.990762,-0.0469,0.10584,0.4795
-0.222179,0,0,15.2222,15.2222,14.7778,14.7778,0.370298,1.5026,7.39703,0.223353,0.216696,-0.0778833,1,0,2.5725,-0.14,-1.54,0.210328,0.222162,-1.08958,-0.0469,0.10584,0.4795
-0.22113,0,0,15.2211,15.2211,14.7789,14.7789,0.36855,1.50228,7.39507,0.223359,0.216665,-0.077883,1,0,2.5725,-0.14,-1.54,0.210328,0.222162,-1.08958,-0.0469,0.10584,0.4795
-0.221445,0,0,15.2214,15.2214,14.7786,14.7786,0.369075,1.50279,7.39407,-0.188973,0.00881477,-0.141571,1,0,3.8325,0.35,-0.98,-0.20374,0.014518,-1.15278,-0.0469,0.10584,0.4795
-0.22176,0,0,15.2218,15.2218,14.7782,14.7782,0.3696,1.50331,7.39307,-0.188982,0.00882393,-0.141571,1,0,3.8325,0.35,-0.98,-0.20374,0.014518,-1.15278,-0.0469,0.10584,0.4795
-0.24241,0,0,15.2424,15.2424,14.7576,14.7576,0.404017,1.41205,7.5083,-0.0846125,-0.0334418,-0.0330939,0,0,4.2175,-0.3675,0.07,-0.100528,-0.028304,-1.04517,-0.0469,0.10584,0.4795
-0.262687,0,0,15.2627,15.2627,14.7373,14.7373,0.437812,1.32252,7.62323,-0.0830503,-0.0328519,-0.0330609,0,0,4.2175,-0.3675,0.07,-0.100528,-0.028304,-1.04517,-0.0469,0.10584,0.4795
-0.455668,0,0,15.4557,15.4557,14.5443,14.5443,0.759446,1.48535,7.48375,0.128652,-0.295309,0.0920953,0,0,2.59,-0.6475,0.9625,0.114924,-0.296094,-0.920856,-0.0469,0.10584,0.4795
-0.645299,0,0,15.6453,15.6453,14.3547,14.3547,1.0755,1.6448,7.34742,0.12587,-0.289797,0.091931,0,0,2.59,-0.6475,0.9625,0.114924,-0.296094,-0.920856,-0.0448,0.10514,0.47362
-0.644072,0,0,15.6441,15.6441,14.3559,14.3559,1.07345,1.64392,7.34941,-0.123403,-0.182728,-0.184087,1,0,2.345,-0.4375,0.77,-0.13542,-0.1891,-1.19475,-0.0448,0.10514,0.47362
-0.539801,0,0,15.5398,15.5398,14.4602,14.4602,0.899669,1.79652,7.24979,0.143998,0.168285,0.0114961,0,0,3.3075,0,0.91,0.135786,0.164578,-1.00064,-0.0448,0.10514,0.47362
-0.436982,0,0,15.437,15.437,14.563,14.563,0.728303,1.9457,7.14938,0.141395,0.165295,0.0114536,0,0,2.9575,-0.385,0.77,0.135786,0.164578,-1.00064,-0.0448,0.10514,0.47362
-0.437076,0,0,15.4371,15.4371,14.5629,14.5629,0.72846,1.94492,7.15155,0.215029,0.0473233,-0.13965,1,0,3.57,-0.385,0.875,0.209718,0.046726,-1.15058,-0.0448,0.10514,0.47362
-0.436734,0,0,15.4367,15.4367,14.5633,14.5633,0.727889,1.94454,7.15345,0.215036,0.0473133,-0.139649,1,0,3.1675,-0.1575,0.7175,0.209718,0.046726,-1.15058,-0.0448,0.10514,0.47362
-0.436107,0,0,15.4361,15.4361,14.5639,14.5639,0.726846,1.94404,7.1552,-0.190839,-0.0793503,0.136125,1,0,2.905,-0.2275,0.63,-0.197884,-0.079788,-0.876936,-0.0448,0.10514,0.47362
-0.435084,0,0,15.4351,15.4351,14.5649,14.5649,0.72514,1.944,7.15585,-0.190838,-0.0793801,0.136125,1,0,2.555,0.035,-0.0175,-0.197884,-0.079788,-0.876936,-0.0448,0.10514,0.47362
-0.433959,0,0,15.434,15.434,14.566,14.566,0.723265,1.94376,7.15611,0.0534736,0.105243,-0.185877,1,0,2.4675,-0.0875,-0.245,0.047458,0.104676,-1.19645,-0.04032,0.10318,0.47866
-0.210229,0,0,15.2102,15.2102,14.7898,14.7898,0.350381,2.14346,7.01505,0.173055,0.331512,0.15266,0,0,2.975,0.735,-0.8225,0.171044,0.337208,-0.860466,-0.04032,0.10318,0.47866
0.00895483,0,0,14.991,14.991,15.009,15.009,-0.0149247,2.34009,6.87172,0.169626,0.32514,0.152545,0,0,3.815,0.91,-1.12,0.171044,0.337208,-0.860466,-0.04032,0.10318,0.47866
0.00858183,0,0,14.9914,14.9914,15.0086,15.0086,-0.0143031,2.34152,6.87038,-0.00145066,0.0143387,-0.249375,1,0,3.9025,0.8925,-1.1725,-0.000732,0.026718,-1.25928,-0.04032,0.10318,0.47866
0.00854301,0,0,14.9915,14.9915,15.0085,15.0085,-0.0142384,2.34212,6.86917,-0.00146106,0.0143398,-0.249375,1,0,3.5875,0.4025,-1.1025,-0.000732,0.026718,-1.25928,-0.04032,0.10318,0.47866
0.0084535,0,0,14.9915,14.9915,15.0085,15.0085,-0.0140892,2.34281,6.8685,-0.0206678,-0.114135,0.140986,1,0,3.6225,0.455,-0.7875,-0.020008,-0.101626,-0.871934,-0.04032,0.10318,0.47866
0.00915427,0,0,14.9908,14.9908,15.0092,15.0092,-0.0152571,2.34397,6.86768,-0.0206881,-0.114155,0.140985,1,0,2.8875,0.735,-0.875,-0.020008,-0.101626,-0.871934,-0.04032,0.10318,0.47866
0.118486,0,0,14.8815,14.8815,15.1185,15.1185,-0.197477,2.56454,6.68932,0.209204,0.176871,0.0277014,0,0,2.9925,0.8925,-0.6825,0.21472,0.192272,-0.984174,-0.04032,0.10318,0.47866
0.226335,0,0,14.7737,14.7737,15.2263,15.2263,-0.377226,2.78289,6.50549,0.205398,0.173738,0.0275079,0,0,2.4675,0.42,-0.6125,0.21472,0.192272,-0.984174,-0.04592,0.1064,0.47586
0.121854,0,0,14.8781,14.8781,15.1219,15.1219,-0.203091,2.68409,6.6004,-0.0948934,-0.174097,-0.0239099,0,0,2.94,-0.35,-0.5425,-0.088572,-0.158234,-1.03529,-0.04592,0.1064,0.47586
0.0187918,0,0,14.9812,14.9812,15.0188,15.0188,-0.0313196,2.5881,6.69458,-0.09322,-0.171102,-0.0238267,0,0,3.36,0.2625,-0.49,-0.088572,-0.158234,-1.03529,-0.04592,0.1064,0.47586
-0.149285,0,0,15.1493,15.1493,14.8507,14.8507,0.248808,2.97945,6.32382,0.338278,-0.261967,0.138985,0,0,3.185,-0.1225,-0.5075,0.351604,-0.253882,-0.873398,-0.04592,0.1064,0.47586
-0.315299,0,0,15.3153,15.3153,14.6847,14.6847,0.525499,3.36348,5.95691,0.331586,-0.257148,0.138582,0,0,3.7975,-0.35,-0.4375,0.351604,-0.253882,-0.873398,-0.04592,0.1064,0.47586
-0.315337,0,0,15.3153,15.3153,14.6847,14.6847,0.525562,3.36315,5.95656,-0.208412,0.279967,-0.090963,1,0,3.57,-0.14,-0.595,-0.190686,0.282674,-1.10117,-0.04592,0.1064,0.47586
-0.315679,0,0,15.3157,15.3157,14.6843,14.6843,0.526131,3.3633,5.95634,-0.208415,0.279977,-0.0909632,1,0,3.85,0.14,-0.525,-0.190686,0.282674,-1.10117,-0.04592,0.1064,0.47586
-0.316567,0,0,15.3166,15.3166,14.6834,14.6834,0.527611,3.58419,5.74903,0.220226,-0.000158306,-0.0493945,0,0,3.99,0.0175,-0.4025,0.243634,0.002806,-1.05969,-0.04592,0.1064,0.47586
-0.317121,0,0,15.3171,15.3171,14.6829,14.6829,0.528535,3.79912,5.54984,0.216482,-0.000144434,-0.0496362,0,0,3.745,-0.945,-0.7175,0.243634,0.002806,-1.05969,-0.0448,0.10136,0.4634
-0.317251,0,0,15.3173,15.3173,14.6827,14.6827,0.528752,3.79769,5.54903,-0.189376,0.00291253,-0.148116,1,0,3.675,-0.7875,-0.8575,-0.163968,0.005856,-1.15741,-0.0448,0.10136,0.4634
-0.316832,0,0,15.3168,15.3168,14.6832,14.6832,0.528053,3.79638,5.54853,0.0421982,-0.204227,0.139708,1,0,3.15,-0.7175,-0.6825,0.068564,-0.201056,-0.871812,-0.0448,0.10136,0.4634
-0.315924,0,0,15.3159,15.3159,14.6841,14.6841,0.52654,3.79588,5.548,0.042207,-0.204253,0.139709,1,0,2.695,-0.245,-0.7,0.068564,-0.201056,-0.871812,-0.0448,0.10136,0.4634
-0.314552,0,0,15.3146,15.3146,14.6854,14.6854,0.524253,3.79529,5.54756,-0.0865575,-0.174494,0.189627,1,0,2.2575,-0.2975,-0.6475,-0.060756,-0.171288,-0.82228,-0.0448,0.10136,0.4634
-0.314277,0,0,15.3143,15.3143,14.6857,14.6857,0.523795,3.79547,5.5474,-0.0865607,-0.174502,0.189627,1,0,3.2725,0.1575,-0.49,-0.060756,-0.171288,-0.82228,-0.0448,0.10136,0.4634
-0.224394,0,0,15.2244,15.2244,14.7756,14.7756,0.37399,3.63211,5.70556,-0.152355,0.149213,-0.0355329,0,0,3.6575,0,-0.315,-0.129686,0.154696,-1.04591,-0.0448,0.10136,0.4634
-0.137946,0,0,15.1379,15.1379,14.8621,14.8621,0.22991,3.47264,5.86515,-0.149577,0.146704,-0.0353472,0,0,5.3375,0.5075,0.0525,-0.129686,0.154696,-1.04591,-0.0448,0.10136,0.4634
-0.140494,0,0,15.1405,15.1405,14.8595,14.8595,0.234156,3.47326,5.86586,-0.012309,-0.123244,-0.206861,1,0,5.88,0.42,0.0175,0.008174,-0.115046,-1.2161,-0.04186,0.10458,0.47488
-0.142356,0,0,15.1424,15.1424,14.8576,14.8576,0.23726,3.47424,5.8673,-0.117047,0.173334,0.217187,1,0,5.215,0.63,0.4375,-0.09699,0.18117,-0.795318,-0.04186,0.10458,0.47488
-0.142332,0,0,15.1423,15.1423,14.8577,14.8577,0.237221,3.47581,5.86939,-0.117074,0.173333,0.217185,1,0,3.43,0.98,0.8225,-0.09699,0.18117,-0.795318,-0.04186,0.10458,0.47488
-0.115065,0,0,15.1151,15.1151,14.8849,14.8849,0.191775,3.6688,5.6918,0.161046,0.0418652,0.0856692,0,0,3.43,0.4025,0.875,0.185684,0.05063,-0.925614,-0.04186,0.10458,0.47488
-0.0880117,0,0,15.088,15.088,14.912,14.912,0.146686,3.8573,5.51369,0.157764,0.0410793,0.0854556,0,0,3.22,-0.14,0.6475,0.185684,0.05063,-0.925614,-0.04186,0.10458,0.47488
-0.0876547,0,0,15.0877,15.0877,14.9123,14.9123,0.146091,3.85772,5.51521,-0.110363,-0.388573,-0.0721648,1,0,3.1325,0.2975,0.49,-0.08357,-0.378566,-1.08202,-0.04186,0.10458,0.47488
-0.0881042,0,0,15.0881,15.0881,14.9119,14.9119,0.14684,3.8581,5.51583,-0.110369,-0.38856,-0.0721653,1,0,3.92,0.28,-0.035,-0.08357,-0.378566,-1.08202,-0.04186,0.10458,0.47488
-0.192225,0,0,15.1922,15.1922,14.8078,14.8078,0.320375,3.81077,5.5518,-0.0451575,-0.165587,0.0157858,0,0,4.0075,0.56,-0.035,-0.01891,-0.158844,-0.994788,-0.04186,0.10458,0.47488
-0.294759,0,0,15.2948,15.2948,14.7052,14.7052,0.491264,3.76424,5.5874,-0.0443473,-0.162611,0.0158183,0,0,4.2875,0.5775,-0.3325,-0.01891,-0.158844,-0.994788,-0.04578,0.10444,0.4704
-0.324343,0,0,15.3243,15.3243,14.6757,14.6757,0.540572,3.8818,5.47185,0.109958,-0.046466,-0.00903885,0,0,4.4625,0.1575,-0.735,0.138104,-0.043676,-1.01931,-0.04578,0.10444,0.4704
-0.35287,0,0,15.3529,15.3529,14.6471,14.6471,0.588117,3.99706,5.35524,0.107951,-0.0456396,-0.0091852,0,0,4.025,0.105,-1.505,0.138104,-0.043676,-1.01931,-0.04578,0.10444,0.4704
-0.242316,0,0,15.2423,15.2423,14.7577,14.7577,0.40386,3.95207,5.39172,-0.0437305,0.170492,0.0532319,0,0,3.85,0.245,-2.2225,-0.015006,0.175436,-0.957456,-0.04578,0.10444,0.4704
-0.134898,0,0,15.1349,15.1349,14.8651,14.8651,0.22483,3.90789,5.42839,-0.0429612,0.167376,0.0533018,0,0,4.9525,0.2625,-2.38,-0.015006,0.175436,-0.957456,-0.04578,0.10444,0.4704
-0.0771584,0,0,15.0772,15.0772,14.9228,14.9228,0.128597,4.23412,5.11518,0.295164,0.0957203,0.0679025,0,0,4.62,0.35,-2.205,0.330254,0.10553,-0.942572,-0.04578,0.10444,0.4704
-0.0193961,0,0,15.0194,15.0194,14.9806,14.9806,0.0323268,4.55406,4.80095,0.289596,0.0940444,0.067477,0,0,3.7975,0.0875,-2.3275,0.330254,0.10553,-0.942572,-0.04578,0.10444,0.4704
0.0625157,0,0,14.9375,14.9375,15.0625,15.0625,-0.104193,4.58951,4.75054,0.0393263,0.141497,-0.0648664,0,0,3.3425,-0.2275,-1.7675,0.079544,0.155306,-1.07384,-0.04578,0.10444,0.4704
0.142988,0,0,14.857,14.857,15.143,15.143,-0.238314,4.62415,4.70107,0.0387237,0.139164,-0.0649219,0,0,3.3425,-0.2275,-1.7675,0.079544,0.155306,-1.07384,-0.04704,0.1036,0.47824
0.0339189,0,0,14.9661,14.9661,15.0339,15.0339,-0.0565316,4.28596,5.00282,-0.33467,-0.195965,-0.0442917,0,0,2.31,-0.2625,-0.77,-0.30134,-0.182634,-1.05384,-0.04704,0.1036,0.47824
-0.0732193,0,0,15.0732,15.0732,14.9268,14.9268,0.122032,3.95376,5.30189,-0.328887,-0.192857,-0.0438769,0,0,2.31,-0.2625,-0.77,-0.30134,-0.182634,-1.05384,-0.04704,0.1036,0.47824
-0.0734644,0,0,15.0735,15.0735,14.9265,14.9265,0.122441,3.95286,5.30299,-0.0775173,-0.196147,0.12149,1,0,3.71,-0.4725,0.245,-0.048922,-0.185928,-0.889746,-0.04704,0.1036,0.47824
-0.0737095,0,0,15.0737,15.0737,14.9263,14.9263,0.122849,3.95196,5.30409,-0.0775017,-0.19614,0.121491,1,0,3.71,-0.4725,0.245,-0.048922,-0.185928,-0.889746,-0.04704,0.1036,0.47824
-0.0749121,0,0,15.0749,15.0749,14.9251,14.9251,0.124853,3.9524,5.3066,-0.111161,0.192869,-0.182561,1,0,4.55,0.315,1.0675,-0.082716,0.202642,-1.19145,-0.04704,0.1036,0.47824
-0.0761147,0,0,15.0761,15.0761,14.9239,14.9239,0.126858,3.95285,5.30912,-0.111169,0.192904,-0.182562,1,0,4.55,0.315,1.0675,-0.082716,0.202642,-1.19145,-0.04704,0.1036,0.47824
0.178857,0,0,14.8211,14.8211,15.1789,15.1789,-0.298095,3.97507,5.29809,0.0162473,0.428537,0.054322,0,0,3.78,0.7875,1.75,0.045628,0.445422,-0.956358,-0.04704,0.1036,0.47824
0.4296,0,0,14.5704,14.5704,15.4296,15.4296,-0.715999,3.99825,5.28406,0.0158439,0.421261,0.0542294,0,0,3.78,0.7875,1.75,0.045628,0.445422,-0.956358,-0.04774,0.10626,0.4725
0.429161,0,0,14.5708,14.5708,15.4292,15.4292,-0.715268,3.99775,5.28754,-0.149004,-0.082743,-0.24601,1,0,3.7975,-0.2625,1.6275,-0.119926,-0.058072,-1.25428,-0.04774,0.10626,0.4725
0.428722,0,0,14.5713,14.5713,15.4287,15.4287,-0.714536,3.99726,5.29103,-0.148995,-0.0827303,-0.246009,1,0,3.7975,-0.2625,1.6275,-0.119926,-0.058072,-1.25428,-0.04774,0.10626,0.4725
0.44828,0,0,14.5517,14.5517,15.4483,15.4483,-0.747134,3.83539,5.43933,-0.158446,0.0349184,-0.0868512,0,0,3.64,-0.0525,0.35,-0.132248,0.060024,-1.09654,-0.04774,0.10626,0.4725
0.44849,0,0,14.5515,14.5515,15.4485,15.4485,-0.747483,3.83591,5.44033,0.134811,-0.117013,-0.140703,1,0,3.29,0.35,0.1925,0.16226,-0.091744,-1.14997,-0.04774,0.10626,0.4725
0.492896,0,0,14.5071,14.5071,15.4929,15.4929,-0.821494,4.02975,5.25099,0.192665,0.074173,-0.0209552,0,0,2.38,-0.0875,-0.5425,0.223748,0.100528,-1.0309,-0.04774,0.10626,0.4725
0.493625,0,0,14.5064,14.5064,15.4936,15.4936,-0.822708,4.02869,5.2503,-0.106658,0.167579,-0.235253,1,0,2.87,-0.56,-0.805,-0.07686,0.193858,-1.24355,-0.04774,0.10626,0.4725
0.494878,0,0,14.5051,14.5051,15.4949,15.4949,-0.824797,4.0291,5.24737,-0.126103,-0.196517,0.158918,1,0,2.4675,0.315,-2.1,-0.09638,-0.169824,-0.852414,-0.04774,0.10626,0.4725
0.495738,0,0,14.5043,14.5043,15.4957,15.4957,-0.82623,4.03092,5.24357,0.10153,-0.166743,-0.0821862,1,0,2.87,1.155,-2.59,0.132248,-0.140056,-1.09166,-0.04536,0.10948,0.4739
0.494823,0,0,14.5052,14.5052,15.4948,15.4948,-0.824705,4.03227,5.23921,-0.221524,0.0830324,-0.158047,1,0,4.55,0.875,-2.9225,-0.19215,0.109434,-1.16693,-0.04536,0.10948,0.4739
0.667261,0,0,14.3327,14.3327,15.6673,15.6673,-1.1121,4.20174,5.06777,0.149459,0.276978,0.0780864,0,0,4.7775,0.3325,-2.7125,0.183366,0.308172,-0.932324,-0.04536,0.10948,0.4739
0.838549,0,0,14.1615,14.1615,15.8385,15.8385,-1.39758,4.36903,4.89554,0.146547,0.272015,0.0777595,0,0,3.2025,0.8575,-2.45,0.183366,0.308172,-0.932324,-0.04536,0.10948,0.4739
0.839086,0,0,14.1609,14.1609,15.8391,15.8391,-1.39848,4.36969,4.89172,-0.0765121,0.134729,-0.278915,1,0,3.185,0.49,-2.6075,-0.040626,0.171044,-1.28625,-0.04536,0.10948,0.4739
0.841005,0,0,14.159,14.159,15.841,15.841,-1.40167,4.36957,4.88922,-0.07651,0.134674,-0.278917,1,0,1.8375,0.0175,-1.855,-0.040626,0.171044,-1.28625,-0.04536,0.10948,0.4739
0.821329,0,0,14.1787,14.1787,15.8213,15.8213,-1.36888,4.40582,4.8331,0.0266079,-0.0349992,0.0753864,0,0,1.2775,0.035,-1.085,0.063562,0.000976,-0.934642,-0.04536,0.10948,0.4739
0.800612,0,0,14.1994,14.1994,15.8006,15.8006,-1.33435,4.44123,4.77795,0.0259917,-0.0343974,0.0753529,0,0,2.5375,-0.0875,-0.56,0.063562,0.000976,-0.934642,-0.04536,0.10948,0.4739
0.802386,0,0,14.1976,14.1976,15.8024,15.8024,-1.33731,4.4415,4.7782,0.0749457,-0.0439747,0.146047,1,0,1.855,0.21,-0.245,0.112728,-0.00854,-0.864492,-0.0392,0.09968,0.47894
0.803401,0,0,14.1966,14.1966,15.8034,15.8034,-1.339,4.44122,4.78027,-0.0312279,-0.0985948,0.183423,1,0,2.485,-0.14,0.805,0.0061,-0.063074,-0.827404,-0.0392,0.09968,0.47894
0.803309,0,0,14.1967,14.1967,15.8033,15.8033,-1.33885,4.4429,4.7832,-0.0312571,-0.0985921,0.183421,1,0,3.4825,0.9975,1.33,0.0061,-0.063074,-0.827404,-0.0392,0.09968,0.47894
0.803205,0,0,14.1968,14.1968,15.8032,15.8032,-1.33868,4.44391,4.78677,-0.400713,0.0665263,-0.154812,1,0,3.465,0.595,1.6975,-0.364902,0.10187,-1.16303,-0.0392,0.09968,0.47894
0.802237,0,0,14.1978,14.1978,15.8022,15.8022,-1.33706,4.44347,4.7908,-0.400705,0.0665543,-0.154811,1,0,4.2525,-0.2625,1.9425,-0.364902,0.10187,-1.16303,-0.0392,0.09968,0.47894
0.95554,0,0,14.0445,14.0445,15.9555,15.9555,-1.59257,4.33449,4.8984,-0.105542,0.231129,0.0970196,0,0,4.27,-0.42,1.89,-0.070394,0.270718,-0.91317,-0.0392,0.09968,0.47894
1.10733,0,0,13.8927,13.8927,16.1073,16.1073,-1.84555,4.22706,5.00668,-0.103672,0.226724,0.0970274,0,0,3.22,-0.56,1.5225,-0.070394,0.270718,-0.91317,-0.0392,0.09968,0.47894
1.17478,0,0,13.8252,13.8252,16.1748,16.1748,-1.95797,4.5467,4.69191,0.276239,0.0950842,0.15174,0,0,3.22,-0.56,0.9625,0.316712,0.141154,-0.858392,-0.0392,0.09968,0.47894
1.24175,0,0,13.7583,13.7583,16.2417,16.2417,-2.06958,4.86349,4.37339,0.270729,0.0931599,0.151218,0,0,2.555,-0.875,0.5075,0.316712,0.141154,-0.858392,-0.04536,0.10136,0.476
1.32917,0,0,13.6708,13.6708,16.3292,16.3292,-2.21528,5.31844,3.91366,0.400949,0.124606,0.195542,0,0,2.2925,-0.175,0.2625,0.455426,0.17507,-0.813618,-0.04536,0.10136,0.476
1.41504,0,0,13.585,13.585,16.415,16.415,-2.3584,5.76574,3.45055,0.393179,0.122152,0.194689,0,0,2.66,-0.3325,-0.4725,0.455426,0.17507,-0.813618,-0.04536,0.10136,0.476
1.41544,0,0,13.5846,13.5846,16.4154,16.4154,-2.35906,5.7648,3.44937,-0.201356,0.0811061,0.164814,1,0,3.22,-0.4725,-1.1025,-0.141642,0.134078,-0.843264,-0.04536,0.10136,0.476
1.41633,0,0,13.5837,13.5837,16.4163,16.4163,-2.36055,5.76471,3.44644,-0.201354,0.0810802,0.164813,1,0,2.8525,0.07,-2.1,-0.141642,0.134078,-0.843264,-0.04536,0.10136,0.476
1.41685,0,0,13.5831,13.5831,16.4169,16.4169,-2.36142,5.76592,3.44318,-0.167238,-0.204711,0.201572,1,0,3.22,0.84,-2.2575,-0.10736,-0.151402,-0.806786,-0.04536,0.10136,0.476
1.41674,0,0,13.5833,13.5833,16.4167,16.4167,-2.36123,5.76606,3.44024,-0.16724,-0.204708,0.201572,1,0,3.7975,0.21,-2.1,-0.10736,-0.151402,-0.806786,-0.04536,0.10136,0.476
1.30178,0,0,13.6982,13.6982,16.3018,16.3018,-2.16963,5.7629,3.41422,0.00884741,-0.200407,-0.0734501,0,0,3.325,0.245,-2.17,0.069418,-0.150426,-1.07982,-0.04536,0.10136,0.476
1.18815,0,0,13.8118,13.8118,16.1882,16.1882,-1.98025,5.75934,3.3886,0.00890933,-0.19712,-0.0733247,0,0,3.92,-0.07,-1.8375,0.069418,-0.150426,-1.07982,-0.04536,0.10136,0.476
1.18901,0,0,13.811,13.811,16.189,16.189,-1.98169,5.75988,3.38621,-0.0226864,0.145542,-0.165784,1,0,2.8525,0.42,-1.7675,0.037698,0.191906,-1.17157,-0.04634,0.10164,0.47264
1.19025,0,0,13.8097,13.8097,16.1903,16.1903,-1.98375,5.76125,3.38441,-0.0227102,0.145507,-0.165787,1,0,2.4675,0.8925,-1.4175,0.037698,0.191906,-1.17157,-0.04634,0.10164,0.47264
1.19112,0,0,13.8089,13.8089,16.1911,16.1911,-1.9852,5.76233,3.38282,0.0491905,-0.121366,-0.301894,1,0,2.8,0.7175,-1.295,0.109922,-0.074664,-1.30662,-0.04634,0.10164,0.47264
1.19234,0,0,13.8077,13.8077,16.1923,16.1923,-1.98724,5.76384,3.38221,0.0491644,-0.121401,-0.301898,1,0,2.415,0.945,-0.7175,0.109922,-0.074664,-1.30662,-0.04634,0.10164,0.47264
1.19319,0,0,13.8068,13.8068,16.1932,16.1932,-1.98865,5.76424,3.38261,-0.311169,-0.0734294,0.213132,1,0,2.7125,0.28,-0.1575,-0.25193,-0.026718,-0.795562,-0.04634,0.10164,0.47264
1.19301,0,0,13.807,13.807,16.193,16.193,-1.98835,5.76534,3.38413,-0.311188,-0.0734241,0.21313,1,0,3.605,0.665,0.5075,-0.25193,-0.026718,-0.795562,-0.04634,0.10164,0.47264
1.193,0,0,13.807,13.807,16.193,16.193,-1.98833,5.76671,3.38597,0.0278545,-0.119099,-0.117112,1,0,3.43,0.8225,0.7,0.088572,-0.072346,-1.12325,-0.04634,0.10164,0.47264
1.19174,0,0,13.8083,13.8083,16.1917,16.1917,-1.98624,5.7665,3.38856,0.0278581,-0.119063,-0.117111,1,0,4.55,-0.1225,1.1025,0.088572,-0.072346,-1.12325,-0.04634,0.10164,0.47264
1.19079,0,0,13.8092,13.8092,16.1908,16.1908,-1.98465,5.76598,3.39082,-0.139662,-0.291722,-0.222598,1,0,4.2875,-0.2975,0.91,-0.079666,-0.244854,-1.22793,-0.04606,0.10276,0.46886
1.19028,0,0,13.8097,13.8097,16.1903,16.1903,-1.9838,5.76663,3.39311,-0.337452,-0.220996,-0.20637,1,0,3.8675,0.385,0.945,-0.278282,-0.174216,-1.21183,-0.04606,0.10276,0.46886
1.18977,0,0,13.8102,13.8102,16.1898,16.1898,-1.98294,5.7666,3.39494,-0.337451,-0.220982,-0.206369,1,0,3.9025,0,0.665,-0.278282,-0.174216,-1.21183,-0.04606,0.10276,0.46886
1.19036,0,0,13.8096,13.8096,16.1904,16.1904,-1.98394,5.76678,3.39664,0.060047,-0.171293,0.126943,1,0,2.87,0.1225,0.595,0.120902,-0.124562,-0.881084,-0.04606,0.10276,0.46886
1.18957,0,0,13.8104,13.8104,16.1896,16.1896,-1.98261,5.76707,3.39816,0.060042,-0.17127,0.126943,1,0,4.1825,0.1925,0.49,0.120902,-0.124562,-0.881084,-0.04606,0.10276,0.46886
1.18926,0,0,13.8107,13.8107,16.1893,16.1893,-1.98209,5.76623,3.39908,0.0759711,0.025485,-0.0926408,1,0,3.7625,-0.455,0.1225,0.136884,0.07198,-1.09898,-0.04606,0.10276,0.46886
1.18883,0,0,13.8112,13.8112,16.1888,16.1888,-1.98138,5.76536,3.39886,0.0759863,0.0254974,-0.0926389,1,0,3.9375,-0.455,-0.5425,0.136884,0.07198,-1.09898,-0.04606,0.10276,0.46886
1.35498,0,0,13.645,13.645,16.355,16.355,-2.25829,5.39733,3.72917,-0.385705,0.281774,0.0415755,0,0,4.0775,-0.105,-0.945,-0.333182,0.332816,-0.96624,-0.04606,0.10276,0.46886
1.51894,0,0,13.4811,13.4811,16.5189,16.5189,-2.53157,5.03805,4.05427,-0.379461,0.277005,0.0419467,0,0,3.36,-0.1225,-1.3475,-0.333182,0.332816,-0.96624,-0.04452,0.1085,0.46956
1.3289,0,0,13.6711,13.6711,16.3289,16.3289,-2.21483,5.25189,3.81459,0.199468,-0.306375,0.109093,0,0,3.3775,0.175,-1.1725,0.25193,-0.255468,-0.899506,-0.04452,0.1085,0.46956
1.14171,0,0,13.8583,13.8583,16.1417,16.1417,-1.90286,5.46169,3.57666,0.195822,-0.300945,0.108946,0,0,3.4825,-0.1225,-1.4175,0.25193,-0.255468,-0.899506,-0.04452,0.1085,0.46956
1.00368,0,0,13.9963,13.9963,16.0037,16.0037,-1.67281,5.44461,3.55748,-0.0133227,-0.221721,0.0441825,0,0,3.0275,-0.07,-1.365,0.041602,-0.180316,-0.963922,-0.04452,0.1085,0.46956
0.867308,0,0,14.1327,14.1327,15.8673,15.8673,-1.44551,5.4283,3.53774,-0.0130392,-0.217774,0.0443169,0,0,3.71,0.1575,-1.505,0.041602,-0.180316,-0.963922,-0.04452,0.1085,0.46956
0.867627,0,0,14.1324,14.1324,15.8676,15.8676,-1.44605,5.42847,3.53619,0.232845,0.151894,0.222223,1,0,3.3075,0.175,-1.295,0.28853,0.188978,-0.787388,-0.04452,0.1085,0.46956
0.867627,0,0,14.1324,14.1324,15.8676,15.8676,-1.44605,5.42945,3.53498,0.232828,0.151894,0.222221,1,0,3.5875,0.6475,-1.085,0.28853,0.188978,-0.787388,-0.04452,0.1085,0.46956
0.866687,0,0,14.1333,14.1333,15.8667,15.8667,-1.44448,5.43024,3.53416,-0.148772,0.0534874,-0.172813,1,0,4.445,0.525,-0.8575,-0.094672,0.090646,-1.17937,-0.04452,0.1085,0.46956
0.866238,0,0,14.1338,14.1338,15.8662,15.8662,-1.44373,5.43148,3.53361,-0.148794,0.0535005,-0.172815,1,0,3.9725,0.7875,-0.7,-0.094672,0.090646,-1.17937,-0.05418,0.09716,0.47362
0.866597,0,0,14.1334,14.1334,15.8666,15.8666,-1.44433,5.43312,3.53368,-0.0860145,-0.0843909,0.182381,1,0,3.185,1.015,-0.3325,-0.031598,-0.047092,-0.826916,-0.05418,0.09716,0.47362
0.866779,0,0,14.1332,14.1332,15.8668,15.8668,-1.44463,5.43427,3.53421,-0.0860344,-0.0843961,0.182379,1,0,3.325,0.7175,-0.07,-0.031598,-0.047092,-0.826916,-0.05418,0.09716,0.47362
0.866801,0,0,14.1332,14.1332,15.8668,15.8668,-1.44467,5.43427,3.53525,-0.0924731,0.187335,-0.146386,1,0,3.4475,0.035,0.21,-0.038064,0.224358,-1.15314,-0.05418,0.09716,0.47362
0.865605,0,0,14.1344,14.1344,15.8656,15.8656,-1.44267,5.43381,3.53631,-0.0924652,0.18737,-0.146384,1,0,4.585,-0.2275,0.21,-0.038064,0.224358,-1.15314,-0.05418,0.09716,0.47362
0.864711,0,0,14.1353,14.1353,15.8647,15.8647,-1.44118,5.43375,3.53732,-0.24262,-0.348496,0.200946,1,0,4.305,0,0.1925,-0.188856,-0.310978,-0.808494,-0.05418,0.09716,0.47362
0.864043,0,0,14.136,14.136,15.864,15.864,-1.44007,5.43441,3.53865,-0.242632,-0.348477,0.200946,1,0,4.0775,0.42,0.385,-0.188856,-0.310978,-0.808494,-0.05418,0.09716,0.47362
0.864055,0,0,14.1359,14.1359,15.8641,15.8641,-1.44009,5.43469,3.5402,-0.13172,-0.344447,-0.100648,1,0,3.43,0.1925,0.5075,-0.07747,-0.306952,-1.10776,-0.05418,0.09716,0.47362
0.864597,0,0,14.1354,14.1354,15.8646,15.8646,-1.44099,5.43526,3.54165,-0.13173,-0.344463,-0.100649,1,0,2.94,0.3675,0.455,-0.07747,-0.306952,-1.10776,-0.04578,0.10724,0.46886
0.945047,0,0,14.055,14.055,15.945,15.945,-1.57508,5.35512,3.58709,-0.08065,0.13243,0.000361971,0,0,3.3775,-0.56,0.28,-0.027572,0.171776,-1.0076,-0.04578,0.10724,0.46886
1.02434,0,0,13.9757,13.9757,16.0243,16.0243,-1.70723,5.27668,3.63242,-0.079287,0.130131,0.000422976,0,0,3.1675,-0.3325,-0.07,-0.027572,0.171776,-1.0076,-0.04578,0.10724,0.46886
1.02418,0,0,13.9758,13.9758,16.0242,16.0242,-1.70696,5.27576,3.63241,0.096276,0.175566,-0.185474,1,0,3.675,-0.49,-0.42,0.148718,0.21716,-1.19206,-0.04578,0.10724,0.46886
1.02337,0,0,13.9766,13.9766,16.0234,16.0234,-1.70562,5.27546,3.63247,0.0962811,0.17559,-0.185472,1,0,4.27,-0.1225,-0.3675,0.148718,0.21716,-1.19206,-0.04578,0.10724,0.46886
1.0894,0,0,13.9106,13.9106,16.0894,16.0894,-1.81567,5.32285,3.55672,0.0281544,0.0946645,0.111682,0,0,3.955,0.2625,-0.455,0.08113,0.138226,-0.897066,-0.04578,0.10724,0.46886
1.15539,0,0,13.8446,13.8446,16.1554,16.1554,-1.92564,5.36851,3.48037,0.0273609,0.0927569,0.111545,0,0,2.9575,-0.21,-0.805,0.08113,0.138226,-0.897066,-0.04578,0.10724,0.46886
1.15669,0,0,13.8433,13.8433,16.1567,16.1567,-1.92782,5.36873,3.47963,-0.0864749,-0.115751,0.10429,1,0,2.345,0.1925,-0.8225,-0.033184,-0.070028,-0.904264,-0.04578,0.10724,0.46886
1.15743,0,0,13.8426,13.8426,16.1574,16.1574,-1.92906,5.36855,3.47884,-0.0864718,-0.115773,0.104289,1,0,2.87,-0.035,-0.8575,-0.033184,-0.070028,-0.904264,-0.04816,0.10234,0.47824
1.24656,0,0,13.7534,13.7534,16.2466,16.2466,-2.0776,5.31546,3.50529,-0.0535985,0.156918,-0.0508756,0,0,3.325,0.28,-0.805,-0.001098,0.20496,-1.05823,-0.04816,0.10234,0.47824
1.33291,0,0,13.6671,13.6671,16.3329,16.3329,-2.22152,5.26274,3.53205,-0.0526822,0.154416,-0.0508847,0,0,4.4625,0,-0.8925,-0.001098,0.20496,-1.05823,-0.04816,0.10234,0.47824
1.30092,0,0,13.6991,13.6991,16.3009,16.3009,-2.1682,4.98012,3.78793,-0.263771,-0.0509472,0.0772113,0,0,4.7425,0.0175,-1.05,-0.218014,-0.001098,-0.931592,-0.04816,0.10234,0.47824
1.27072,0,0,13.7293,13.7293,16.2707,16.2707,-2.11787,4.70342,4.04332,-0.258959,-0.0500877,0.0776514,0,0,3.5875,0.63,-0.8925,-0.218014,-0.001098,-0.931592,-0.04816,0.10234,0.47824
1.31332,0,0,13.6867,13.6867,16.3133,16.3133,-2.18886,4.63423,4.1005,-0.0693309,0.0766634,-0.0656547,0,0,3.3075,1.19,-0.5425,-0.028792,0.126758,-1.07384,-0.04816,0.10234,0.47824
1.35516,0,0,13.6448,13.6448,16.3552,16.3552,-2.25861,4.56625,4.15792,-0.0681482,0.0754472,-0.0656067,0,0,3.3075,1.19,-0.5425,-0.028792,0.126758,-1.07384,-0.04816,0.10234,0.47824
1.29859,0,0,13.7014,13.7014,16.2986,16.2986,-2.16432,4.52687,4.18763,-0.0411006,-0.0897409,0.0644676,0,0,3.255,0.42,-0.21,-0.002318,-0.039894,-0.94489,-0.04816,0.10234,0.47824
1.24303,0,0,13.757,13.757,16.243,16.243,-2.07171,4.48792,4.21269,-0.0404229,-0.0881326,0.0645805,0,0,3.255,0.42,-0.21,-0.002318,-0.039894,-0.94489,-0.04494,0.10514,0.4781
1.08897,0,0,13.911,13.911,16.089,16.089,-1.81495,3.97687,4.7013,-0.489529,-0.251491,0.161413,0,0,3.675,0.14,-0.105,-0.462258,-0.207522,-0.849608,-0.04494,0.10514,0.4781
0.937343,0,0,14.0627,14.0627,15.9373,15.9373,-1.56224,3.47336,5.18477,-0.48076,-0.247108,0.162113,0,0,3.675,0.14,-0.105,-0.462258,-0.207522,-0.849608,-0.04494,0.10514,0.4781
0.90835,0,0,14.0917,14.0917,15.9083,15.9083,-1.51392,3.92296,4.75015,0.407974,-0.0517052,0.162859,0,0,3.0975,0.0875,0.28,0.438102,-0.013176,-0.848388,-0.04494,0.10514,0.4781
0.90921,0,0,14.0908,14.0908,15.9092,15.9092,-1.51535,3.92343,4.75123,-0.436724,-0.14589,-0.135292,1,0,2.6775,0.315,0.245,-0.410164,-0.107238,-1.14424,-0.04494,0.10514,0.4781
0.91079,0,0,14.0892,14.0892,15.9108,15.9108,-1.51798,3.92292,4.75214,-0.436715,-0.145936,-0.135293,1,0,2.0125,-0.2625,0.1225,-0.410164,-0.107238,-1.14424,-0.04494,0.10514,0.4781
0.750958,0,0,14.249,14.249,15.751,15.751,-1.2516,3.6847,4.97458,-0.23333,-0.268072,0.037346,0,0,2.6775,-0.4725,0.0175,-0.210084,-0.233874,-0.973316,-0.04494,0.10514,0.4781
0.593226,0,0,14.4068,14.4068,15.5932,15.5932,-0.98871,3.45226,5.19398,-0.229281,-0.263499,0.037688,0,0,3.255,0.595,-0.245,-0.210084,-0.233874,-0.973316,-0.04494,0.10514,0.4781
0.593112,0,0,14.4069,14.4069,15.5931,15.5931,-0.988519,3.45225,5.1937,0.194704,-0.128057,0.155596,1,0,3.64,0.0525,-0.56,0.215696,-0.098576,-0.856318,-0.04494,0.10514,0.4781
0.593674,0,0,14.4063,14.4063,15.5937,15.5937,-0.989456,3.45287,5.19335,0.194693,-0.128073,0.155595,1,0,3.01,0.42,-0.595,0.215696,-0.098576,-0.856318,-0.04508,0.1015,0.4739
0.59465,0,0,14.4053,14.4053,15.5947,15.5947,-0.991083,3.45193,5.19242,0.0398155,-0.117232,0.183136,1,0,2.6425,-0.49,-0.945,0.060146,-0.087718,-0.82899,-0.04508,0.1015,0.4739
0.595658,0,0,14.4043,14.4043,15.5957,15.5957,-0.992763,3.45083,5.19114,0.0398346,-0.117261,0.183136,1,0,2.625,-0.5775,-1.155,0.060146,-0.087718,-0.82899,-0.04508,0.1015,0.4739
0.562375,0,0,14.4376,14.4376,15.5624,15.5624,-0.937292,3.60795,5.04477,0.131735,-0.0531529,0.106018,0,0,2.625,-0.6475,-1.19,0.155184,-0.024644,-0.905362,-0.04508,0.1015,0.4739
0.52772,0,0,14.4723,14.4723,15.5277,15.5277,-0.879533,3.76293,4.8983,0.129036,-0.0521443,0.10586,0,0,4.4625,-0.245,-1.435,0.155184,-0.024644,-0.905362,-0.04508,0.1015,0.4739
0.558568,0,0,14.4414,14.4414,15.5586,15.5586,-0.930947,3.5144,5.14041,-0.235466,0.0484433,0.0398521,0,0,3.955,0.245,-1.2775,-0.215208,0.076738,-0.97112,-0.04508,0.1015,0.4739
0.589066,0,0,14.4109,14.4109,15.5891,15.5891,-0.981776,3.26957,5.38292,-0.2312,0.0475536,0.0400901,0,0,3.78,-0.14,-1.19,-0.215208,0.076738,-0.97112,-0.04508,0.1015,0.4739
0.718482,0,0,14.2815,14.2815,15.7185,15.7185,-1.19747,3.09746,5.56489,-0.175841,0.234799,-0.0625996,0,0,3.535,0.4025,-1.015,-0.162626,0.267546,-1.07311,-0.04508,0.1015,0.4739
0.846714,0,0,14.1533,14.1533,15.8467,15.8467,-1.41119,2.92739,5.75006,-0.172877,0.231071,-0.0625284,0,0,2.6075,0.6125,-0.35,-0.162626,0.267546,-1.07311,-0.0497,0.10094,0.4774
0.84735,0,0,14.1526,14.1526,15.8474,15.8474,-1.41225,2.92838,5.75026,0.186825,-0.299344,-0.0754393,1,0,2.9225,0.63,-0.2625,0.198616,-0.2623,-1.08592,-0.0497,0.10094,0.4774
0.848146,0,0,14.1519,14.1519,15.8481,15.8481,-1.41358,2.92857,5.75079,0.186822,-0.299367,-0.0754401,1,0,2.765,0.1575,-0.0875,0.198616,-0.2623,-1.08592,-0.0497,0.10094,0.4774
0.670474,0,0,14.3295,14.3295,15.6705,15.6705,-1.11746,3.07971,5.61558,0.117735,-0.266848,0.148548,0,0,3.64,-0.4375,0.14,0.131882,-0.234972,-0.863638,-0.0497,0.10094,0.4774
0.495167,0,0,14.5048,14.5048,15.4952,15.4952,-0.825279,3.22923,5.48232,0.115129,-0.261754,0.148491,0,0,4.13,0.2625,0.4725,0.131882,-0.234972,-0.863638,-0.0497,0.10094,0.4774
0.316192,0,0,14.6838,14.6838,15.3162,15.3162,-0.526986,3.10908,5.60334,-0.118581,-0.284036,0.0803085,0,0,4.165,-0.385,0.91,-0.10492,-0.262422,-0.93147,-0.0497,0.10094,0.4774
0.140201,0,0,14.8598,14.8598,15.1402,15.1402,-0.233669,2.99081,5.72283,-0.116519,-0.278925,0.0804523,0,0,4.165,-0.385,0.91,-0.10492,-0.262422,-0.93147,-0.0497,0.10094,0.4774
0.273926,0,0,14.7261,14.7261,15.2739,15.2739,-0.456544,3.07656,5.66349,0.0932498,0.233421,-0.0220664,0,0,2.9225,-0.665,0.63,0.107238,0.253272,-1.0331,-0.0497,0.10094,0.4774
0.405469,0,0,14.5945,14.5945,15.4055,15.4055,-0.675781,3.15976,5.60486,0.0917998,0.229601,-0.0221832,0,0,2.9225,-0.665,0.63,0.107238,0.253272,-1.0331,-0.04088,0.10024,0.47418
0.440044,0,0,14.56,14.56,15.44,15.44,-0.733407,3.16271,5.6193,0.00209202,0.0550549,0.0203418,0,0,3.0625,0.4025,-0.0175,0.017202,0.07991,-0.990884,-0.04088,0.10024,0.47418
0.47402,0,0,14.526,14.526,15.474,15.474,-0.790033,3.16562,5.63381,0.00204134,0.0540682,0.0203259,0,0,3.0625,0.4025,-0.0175,0.017202,0.07991,-0.990884,-0.04088,0.10024,0.47418
0.369336,0,0,14.6307,14.6307,15.3693,15.3693,-0.61556,3.0306,5.77342,-0.13665,-0.178475,-0.0107384,0,0,3.325,0.07,-0.595,-0.12444,-0.155428,-1.02187,-0.04088,0.10024,0.47418
0.266445,0,0,14.7336,14.7336,15.2664,15.2664,-0.444075,2.89786,5.91197,-0.134337,-0.175488,-0.0105909,0,0,3.325,0.07,-0.595,-0.12444,-0.155428,-1.02187,-0.04088,0.10024,0.47418
0.267211,0,0,14.7328,14.7328,15.2672,15.2672,-0.445352,2.89856,5.91039,-0.265189,-0.226193,-0.31366,1,0,2.8525,0.4725,-1.3125,-0.255834,-0.206058,-1.3226,-0.04088,0.10024,0.47418
0.267977,0,0,14.732,14.732,15.268,15.268,-0.446629,2.89927,5.90881,-0.265201,-0.226215,-0.313661,1,0,2.8525,0.4725,-1.3125,-0.255834,-0.206058,-1.3226,-0.04088,0.10024,0.47418
0.224163,0,0,14.7758,14.7758,15.2242,15.2242,-0.373604,3.0028,5.8232,0.0877322,-0.0677642,0.0767399,0,0,3.6925,-0.0525,-1.75,0.100406,-0.049044,-0.93513,-0.04088,0.10024,0.47418
0.223322,0,0,14.7767,14.7767,15.2233,15.2233,-0.372204,3.00257,5.82094,-0.085381,0.165644,-0.149977,1,0,4.375,-0.07,-1.715,-0.073444,0.184098,-1.1601,-0.04662,0.10164,0.47502
0.223258,0,0,14.7767,14.7767,15.2233,15.2233,-0.372096,3.00289,5.81843,-0.0853865,0.165646,-0.149977,1,0,3.6575,0.245,-1.855,-0.073444,0.184098,-1.1601,-0.04662,0.10164,0.47502
0.223074,0,0,14.7769,14.7769,15.2231,15.2231,-0.37179,3.00389,5.81613,0.0899,0.0201987,-0.115552,1,0,3.7625,0.6475,-1.7325,0.102602,0.038796,-1.12594,-0.04662,0.10164,0.47502
0.222891,0,0,14.7771,14.7771,15.2229,15.2229,-0.371485,3.00489,5.81383,0.0898825,0.020204,-0.115553,1,0,3.7625,0.6475,-1.7325,0.102602,0.038796,-1.12594,-0.04662,0.10164,0.47502
0.223532,0,0,14.7765,14.7765,15.2235,15.2235,-0.372553,3.00551,5.81331,0.0230545,0.390596,-0.217847,1,0,2.94,0.42,-0.7,0.035502,0.408822,-1.22744,-0.04662,0.10164,0.47502
0.223324,0,0,14.7767,14.7767,15.2233,15.2233,-0.372207,3.00491,5.81297,0.0505208,0.151478,0.204359,1,0,3.7275,-0.2975,-0.595,0.063074,0.169946,-0.808494,-0.04662,0.10164,0.47502
0.223136,0,0,14.7769,14.7769,15.2231,15.2231,-0.371893,3.00524,5.8138,0.050515,0.151483,0.204358,1,0,3.675,0.245,0.0875,0.063074,0.169946,-0.808494,-0.04662,0.10164,0.47502
0.112236,0,0,14.8878,14.8878,15.1122,15.1122,-0.187061,2.95187,5.87448,-0.0555837,-0.187617,-0.0117209,0,0,4.2525,0.2275,0.21,-0.044408,-0.17202,-1.02297,-0.04662,0.10164,0.47502
0.00373559,0,0,14.9963,14.9963,15.0037,15.0037,-0.00622599,2.89814,5.93203,-0.0546472,-0.184465,-0.0116677,0,0,3.7975,-0.175,0.735,-0.044408,-0.17202,-1.02297,-0.04438,0.10388,0.47768
0.00443457,0,0,14.9956,14.9956,15.0044,15.0044,-0.00739096,2.89829,5.93451,-0.0530705,-0.141497,-0.128961,1,0,2.8,0.14,1.05,-0.042822,-0.129076,-1.13936,-0.04438,0.10388,0.47768
0.00471374,0,0,14.9953,14.9953,15.0047,15.0047,-0.00785623,2.89715,5.93663,-0.0530507,-0.141505,-0.12896,1,0,3.2025,-0.6125,0.84,-0.042822,-0.129076,-1.13936,-0.04438,0.10388,0.47768
0.00922858,0,0,14.9908,14.9908,15.0092,15.0092,-0.015381,3.01667,5.83715,0.110087,0.00625969,0.0367902,0,0,2.6075,-0.42,0.9275,0.123098,0.018666,-0.97478,-0.04438,0.10388,0.47768
0.0128894,0,0,14.9871,14.9871,15.0129,15.0129,-0.0214823,3.13447,5.73709,0.108034,0.00615339,0.0366798,0,0,3.36,-0.1575,0.56,0.123098,0.018666,-0.97478,-0.04438,0.10388,0.47768
0.0125009,0,0,14.9875,14.9875,15.0125,15.0125,-0.0208348,3.13426,5.73885,-0.173931,-0.0430524,0.281348,1,0,3.8325,-0.07,0.63,-0.160064,-0.0305,-0.732,-0.04438,0.10388,0.47768
0.0124574,0,0,14.9875,14.9875,15.0125,15.0125,-0.0207623,3.13438,5.7398,-0.173933,-0.0430511,0.281347,1,0,3.535,0.1225,0.1575,-0.160064,-0.0305,-0.732,-0.04438,0.10388,0.47768
0.0125844,0,0,14.9874,14.9874,15.0126,15.0126,-0.020974,3.13438,5.74012,0.238511,-0.0508709,-0.306223,1,0,3.395,0.0525,-0.21,0.254126,-0.038308,-1.31504,-0.04438,0.10388,0.47768
0.0132053,0,0,14.9868,14.9868,15.0132,15.0132,-0.0220088,3.13417,5.73966,0.238515,-0.050889,-0.306223,1,0,2.9575,-0.07,-0.665,0.254126,-0.038308,-1.31504,-0.04732,0.1043,0.47502
0.0137236,0,0,14.9863,14.9863,15.0137,15.0137,-0.0228726,3.13336,5.7389,-0.070045,-0.0832676,-0.143193,1,0,3.0625,-0.42,-0.84,-0.055754,-0.070638,-1.15327,-0.04732,0.1043,0.47502
0.0133192,0,0,14.9867,14.9867,15.0133,15.0133,-0.0221987,3.13282,5.73715,-0.0700357,-0.0832559,-0.143192,1,0,3.955,-0.2625,-1.4175,-0.055754,-0.070638,-1.15327,-0.04732,0.1043,0.47502
-0.0138144,0,0,15.0138,15.0138,14.9862,14.9862,0.0230239,3.10301,5.76935,-0.0268746,-0.0459519,-0.0602967,0,0,4.655,-0.2275,-1.5225,-0.012932,-0.03416,-1.07104,-0.04732,0.1043,0.47502
-0.0400359,0,0,15.04,15.04,14.96,14.96,0.0667265,3.07436,5.80105,-0.0263753,-0.0451902,-0.0602703,0,0,4.2525,0.14,-1.75,-0.012932,-0.03416,-1.07104,-0.04732,0.1043,0.47502
-0.0230639,0,0,15.0231,15.0231,14.9769,14.9769,0.0384398,3.08001,5.80334,0.00316868,0.0278371,0.0409114,0,0,3.99,0.1575,-1.68,0.016836,0.039284,-0.970632,-0.04732,0.1043,0.47502
-0.00574934,0,0,15.0057,15.0057,14.9943,14.9943,0.00958224,3.08578,5.80568,0.00306818,0.0273342,0.0409062,0,0,3.395,0.28,-1.6625,0.016836,0.039284,-0.970632,-0.04732,0.1043,0.47502
0.0825548,0,0,14.9174,14.9174,15.0826,15.0826,-0.137591,2.9843,5.91504,-0.100613,0.157765,-0.0794924,0,0,2.52,0.84,-1.085,-0.08906,0.172142,-1.09019,-0.04732,0.1043,0.47502
0.1681,0,0,14.8319,14.8319,15.1681,15.1681,-0.280166,2.88243,6.03028,-0.098837,0.15528,-0.0794105,0,0,3.71,-0.0175,-0.8575,-0.08906,0.172142,-1.09019,-0.04746,0.10108,0.47138
0.131776,0,0,14.8682,14.8682,15.1318,15.1318,-0.219626,3.09834,5.84089,0.206581,-0.0599508,0.0206006,0,0,3.9025,0.1575,-0.56,0.22143,-0.04392,-0.990762,-0.04746,0.10108,0.47138
0.0960801,0,0,14.9039,14.9039,15.0961,15.0961,-0.160133,3.31041,5.65198,0.202885,-0.0589134,0.0203971,0,0,3.9025,0.1575,-0.56,0.22143,-0.04392,-0.990762,-0.04746,0.10108,0.47138
0.174823,0,0,14.8252,14.8252,15.1748,15.1748,-0.291372,3.34651,5.63269,0.0377647,0.136523,-0.0096479,0,0,4.7075,0.1225,0.3325,0.056242,0.153598,-1.02053,-0.04746,0.10108,0.47138
0.25223,0,0,14.7478,14.7478,15.2522,15.2522,-0.420383,3.38198,5.61344,0.0371466,0.134276,-0.0096982,0,0,4.7075,0.1225,0.3325,0.056242,0.153598,-1.02053,-0.04746,0.10108,0.47138
0.252662,0,0,14.7473,14.7473,15.2527,15.2527,-0.421103,3.38181,5.61463,-0.0361062,0.0437673,-0.29334,1,0,3.08,-0.0525,0.2975,-0.017324,0.063196,-1.30198,-0.04746,0.10108,0.47138
0.253094,0,0,14.7469,14.7469,15.2531,15.2531,-0.421824,3.38164,5.61582,-0.0361033,0.0437547,-0.29334,1,0,3.08,-0.0525,0.2975,-0.017324,0.063196,-1.30198,-0.04746,0.10108,0.47138
0.253978,0,0,14.746,14.746,15.254,15.254,-0.423296,3.38081,5.6175,0.0904992,-0.159734,0.218249,1,0,2.6425,-0.4375,0.5775,0.1098,-0.140056,-0.794342,-0.04746,0.10108,0.47138
0.254861,0,0,14.7451,14.7451,15.2549,15.2549,-0.424769,3.37999,5.61918,0.0905136,-0.15976,0.21825,1,0,2.6425,-0.4375,0.5775,0.1098,-0.140056,-0.794342,-0.0469,0.10416,0.47656
0.254267,0,0,14.7457,14.7457,15.2543,15.2543,-0.423778,3.37871,5.61974,0.0831253,-0.0533701,0.168088,1,0,4.06,-0.7,-0.07,0.102358,-0.033794,-0.844118,-0.0469,0.10416,0.47656
0.253673,0,0,14.7463,14.7463,15.2537,15.2537,-0.422788,3.37743,5.62031,0.0831476,-0.0533529,0.16809,1,0,4.06,-0.7,-0.07,0.102358,-0.033794,-0.844118,-0.0469,0.10416,0.47656
0.254102,0,0,14.7459,14.7459,15.2541,15.2541,-0.423503,3.37662,5.62001,-0.068331,0.152418,-0.111494,1,0,3.1325,-0.42,-0.5775,-0.049776,0.171776,-1.12155,-0.0469,0.10416,0.47656
0.254531,0,0,14.7455,14.7455,15.2545,15.2545,-0.424218,3.37581,5.6197,-0.0683169,0.152406,-0.111494,1,0,3.1325,-0.42,-0.5775,-0.049776,0.171776,-1.12155,-0.0469,0.10416,0.47656
0.255362,0,0,14.7446,14.7446,15.2554,15.2554,-0.425603,3.37622,5.61863,0.04648,-0.268101,-0.152805,1,0,2.7825,0.2975,-1.015,0.065514,-0.24827,-1.16254,-0.0469,0.10416,0.47656
0.256192,0,0,14.7438,14.7438,15.2562,15.2562,-0.426987,3.37663,5.61757,0.0464728,-0.268125,-0.152806,1,0,2.7825,0.2975,-1.015,0.065514,-0.24827,-1.16254,-0.0469,0.10416,0.47656
0.255345,0,0,14.7447,14.7447,15.2553,15.2553,-0.425575,3.37703,5.61575,0.0671184,-0.0419215,-0.112725,1,0,4.375,0.2975,-1.4525,0.086254,-0.022326,-1.12277,-0.0469,0.10416,0.47656
0.254514,0,0,14.7455,14.7455,15.2545,15.2545,-0.42419,3.37758,5.61402,-0.0169594,-0.128852,0.217146,1,0,4.3575,0.385,-1.4,0.00183,-0.10919,-0.79544,-0.0469,0.10416,0.47656
0.253834,0,0,14.7462,14.7462,15.2538,15.2538,-0.423057,3.3788,5.61277,-0.0169806,-0.128832,0.217145,1,0,4.2,0.77,-1.12,0.00183,-0.10919,-0.79544,-0.0511,0.1015,0.47334
0.254648,0,0,14.7454,14.7454,15.2546,15.2546,-0.424413,3.37921,5.61164,-0.0049606,-0.0978353,-0.204692,1,0,2.8,0.2975,-1.05,0.013908,-0.078202,-1.21402,-0.0511,0.1015,0.47334
0.254853,0,0,14.7451,14.7451,15.2549,15.2549,-0.424754,3.37897,5.61133,-0.00495639,-0.0978413,-0.204692,1,0,3.3425,-0.0875,-0.5775,0.013908,-0.078202,-1.21402,-0.0511,0.1015,0.47334
0.268008,0,0,14.732,14.732,15.268,15.268,-0.44668,3.24559,5.74683,-0.124969,0.0191395,0.0370334,0,0,2.9575,0.035,-0.315,-0.108946,0.03904,-0.974292,-0.0511,0.1015,0.47334
0.279707,0,0,14.7203,14.7203,15.2797,15.2797,-0.466178,3.11515,5.88262,-0.122695,0.0187987,0.037157,0,0,4.095,0.35,-0.105,-0.108946,0.03904,-0.974292,-0.0511,0.1015,0.47334
0.278716,0,0,14.7213,14.7213,15.2787,15.2787,-0.464527,3.11587,5.88333,-0.171788,-0.0512733,0.25662,1,0,4.4275,0.4725,0.0175,-0.158234,-0.030988,-0.756522,-0.0511,0.1015,0.47334
0.27894,0,0,14.7211,14.7211,15.2789,15.2789,-0.4649,3.11657,5.88469,-0.1718,-0.0512798,0.256619,1,0,3.2725,0.455,0.4025,-0.158234,-0.030988,-0.756522,-0.0511,0.1015,0.47334
0.279653,0,0,14.7203,14.7203,15.2797,15.2797,-0.466089,3.11793,5.88599,0.0517097,-0.148758,0.136374,1,0,2.8175,0.84,0.3675,0.066246,-0.128344,-0.875838,-0.0511,0.1015,0.47334
0.281161,0,0,14.7188,14.7188,15.2812,15.2812,-0.468601,3.11859,5.88705,0.0516981,-0.148801,0.136373,1,0,2.0825,0.4375,0.2275,0.066246,-0.128344,-0.875838,-0.04326,0.09954,0.47166
0.282313,0,0,14.7177,14.7177,15.2823,15.2823,-0.470521,3.11767,5.8881,0.235036,0.118378,0.162193,1,0,2.415,-0.49,0.21,0.250344,0.138592,-0.850218,-0.04326,0.09954,0.47166
0.281913,0,0,14.7181,14.7181,15.2819,15.2819,-0.469855,3.11604,5.88906,0.235064,0.11839,0.162194,1,0,3.8675,-0.91,0.1575,0.250344,0.138592,-0.850218,-0.04326,0.09954,0.47166
0.28179,0,0,14.7182,14.7182,15.2818,15.2818,-0.46965,3.11523,5.8896,-0.226689,0.190937,-0.165954,1,0,3.6225,-0.42,-0.0875,-0.213378,0.21106,-1.17584,-0.04326,0.09954,0.47166
0.282724,0,0,14.7173,14.7173,15.2827,15.2827,-0.471207,3.11553,5.88929,-0.226694,0.19091,-0.165955,1,0,2.66,0.2275,-0.5775,-0.213378,0.21106,-1.17584,-0.04326,0.09954,0.47166
0.283418,0,0,14.7166,14.7166,15.2834,15.2834,-0.472363,3.11532,5.88889,-0.0179777,0.0908678,-0.148127,1,0,2.8875,-0.07,-0.63,-0.003782,0.111142,-1.15815,-0.04326,0.09954,0.47166
0.284217,0,0,14.7158,14.7158,15.2842,15.2842,-0.473695,3.11501,5.88813,-0.0179723,0.0908446,-0.148127,1,0,2.8,-0.1225,-0.84,-0.003782,0.111142,-1.15815,-0.04326,0.09954,0.47166
0.26793,0,0,14.7321,14.7321,15.2679,15.2679,-0.446551,3.24833,5.77483,0.133262,-0.0277549,-0.0132552,0,0,3.465,0.2275,-1.05,0.150426,-0.007808,-1.02419,-0.04326,0.09954,0.47166
0.251729,0,0,14.7483,14.7483,15.2517,15.2517,-0.419548,3.38107,5.65616,0.130949,-0.0272834,-0.0133856,0,0,3.57,0.2625,-1.2425,0.150426,-0.007808,-1.02419,-0.05306,0.10318,0.47418
0.165495,0,0,14.8345,14.8345,15.1655,15.1655,-0.275825,3.21093,5.81683,-0.157166,-0.134939,0.090077,0,0,3.5875,0.2275,-1.2775,-0.141886,-0.117852,-0.92171,-0.05306,0.10318,0.47418
0.0800469,0,0,14.92,14.92,15.08,15.08,-0.133412,3.04387,5.97657,-0.154254,-0.132457,0.090245,0,0,4.2175,0.28,-1.1375,-0.141886,-0.117852,-0.92171,-0.05306,0.10318,0.47418
0.0235999,0,0,14.9764,14.9764,15.0236,15.0236,-0.0393332,3.1124,5.91913,0.0652908,-0.0949123,-0.00854442,0,0,4.1475,0.0875,-1.1375,0.079788,-0.081984,-1.01968,-0.05306,0.10318,0.47418
-0.0311373,0,0,15.0311,15.0311,14.9689,14.9689,0.0518954,3.17933,5.86257,0.0641245,-0.0933224,-0.00860869,0,0,3.43,-0.105,-0.735,0.079788,-0.081984,-1.01968,-0.05306,0.10318,0.47418
-0.129031,0,0,15.129,15.129,14.871,14.871,0.215051,3.37013,5.68652,0.161755,-0.152398,0.104061,0,0,3.465,-0.4375,-0.805,0.18117,-0.143838,-0.90768,-0.05306,0.10318,0.47418
-0.225051,0,0,15.2251,15.2251,14.7749,14.7749,0.375085,3.55772,5.5126,0.158486,-0.149611,0.103849,0,0,3.2025,-0.28,-0.1925,0.18117,-0.143838,-0.90768,-0.05306,0.10318,0.47418
-0.314542,0,0,15.3145,15.3145,14.6855,14.6855,0.524237,3.77127,5.31323,0.21065,-0.15703,0.0014202,0,0,3.1675,-0.175,0.035,0.23729,-0.153842,-1.00906,-0.05306,0.10318,0.47418
-0.403776,0,0,15.4038,15.4038,14.5962,14.5962,0.67296,3.98213,5.11766,0.206978,-0.154443,0.00114434,0,0,4.27,0.1575,0.2625,0.23729,-0.153842,-1.00906,-0.05376,0.10178,0.47124
-0.42733,0,0,15.4273,15.4273,14.5727,14.5727,0.712216,3.842,5.24539,-0.13062,-0.0390802,0.0294581,0,0,3.4825,0.2975,0.3325,-0.104188,-0.039284,-0.981124,-0.05376,0.10178,0.47124
-0.449837,0,0,15.4498,15.4498,14.5502,14.5502,0.749728,3.70496,5.37265,-0.128233,-0.0384249,0.0296072,0,0,2.8875,0.6125,0.315,-0.104188,-0.039284,-0.981124,-0.05376,0.10178,0.47124
-0.379027,0,0,15.379,15.379,14.621,14.621,0.631711,3.72318,5.36168,0.0194189,0.121215,-0.0273138,0,0,2.6075,0.6475,0.1925,0.044408,0.122244,-1.03761,-0.05376,0.10178,0.47124
-0.309698,0,0,15.3097,15.3097,14.6903,14.6903,0.516164,3.74003,5.35078,0.0191255,0.119203,-0.0273128,0,0,2.87,0.035,0.1925,0.044408,0.122244,-1.03761,-0.05376,0.10178,0.47124
-0.310089,0,0,15.3101,15.3101,14.6899,14.6899,0.516815,3.73904,5.35136,0.162253,0.089171,-0.106491,1,0,3.8675,-0.525,-0.0525,0.188124,0.092232,-1.11618,-0.05376,0.10178,0.47124
-0.309438,0,0,15.3094,15.3094,14.6906,14.6906,0.515731,3.73912,5.35165,0.162251,0.0891521,-0.10649,1,0,2.905,0.105,-0.2275,0.188124,0.092232,-1.11618,-0.05376,0.10178,0.47124
-0.403579,0,0,15.4036,15.4036,14.5964,14.5964,0.672631,3.71638,5.3703,-0.0205529,-0.1691,-0.0479695,0,0,3.4125,-0.14,-0.525,0.004148,-0.168482,-1.05811,-0.05376,0.10178,0.47124
-0.496151,0,0,15.4962,15.4962,14.5038,14.5038,0.826918,3.69444,5.39097,-0.0201709,-0.166413,-0.04798,0,0,3.4125,-0.14,-0.525,0.004148,-0.168482,-1.05811,-0.04662,0.09982,0.47628
-0.534694,0,0,15.5347,15.5347,14.4653,14.4653,0.891157,3.57355,5.50536,-0.120721,-0.0733305,-0.093231,0,0,3.605,0.035,-0.805,-0.098942,-0.076616,-1.10312,-0.04662,0.09982,0.47628
-0.572578,0,0,15.5726,15.5726,14.4274,14.4274,0.954297,3.45483,5.61926,-0.118652,-0.0722286,-0.0931217,0,0,3.605,0.035,-0.805,-0.098942,-0.076616,-1.10312,-0.04662,0.09982,0.47628
-0.565749,0,0,15.5657,15.5657,14.4343,14.4343,0.942915,3.30224,5.76771,-0.152925,0.00927848,-0.0826338,0,0,3.3075,0.4375,-1.365,-0.13603,0.005002,-1.09288,-0.04662,0.09982,0.47628
-0.467492,0,0,15.4675,15.4675,14.5325,14.5325,0.779153,3.45343,5.6395,0.141351,0.1636,0.0449971,0,0,3.115,0.105,-1.19,0.162138,0.162016,-0.966118,-0.04662,0.09982,0.47628
-0.370734,0,0,15.3707,15.3707,14.6293,14.6293,0.61789,3.60188,5.51137,0.138765,0.160789,0.0448719,0,0,3.01,0.0525,-0.8575,0.162138,0.162016,-0.966118,-0.04662,0.09982,0.47628
-0.371278,0,0,15.3713,15.3713,14.6287,14.6287,0.618797,3.60183,5.51057,-0.0944863,0.202328,0.271958,1,0,4.06,0.0175,-0.8575,-0.072102,0.203496,-0.740784,-0.04662,0.09982,0.47628
-0.371281,0,0,15.3713,15.3713,14.6287,14.6287,0.618801,3.60097,5.51031,-0.0944712,0.202328,0.271959,1,0,3.535,-0.455,-0.5425,-0.072102,0.203496,-0.740784,-0.04662,0.09982,0.47628
-0.371736,0,0,15.3717,15.3717,14.6283,14.6283,0.619559,3.60069,5.51063,-0.256164,-0.00429687,-0.106477,1,0,3.9375,-0.105,-0.21,-0.234484,-0.002928,-1.1163,-0.04662,0.10542,0.47348
-0.371846,0,0,15.3718,15.3718,14.6282,14.6282,0.619743,3.59991,5.51124,-0.25615,-0.00429366,-0.106476,1,0,3.605,-0.4025,-0.035,-0.234484,-0.002928,-1.1163,-0.04662,0.10542,0.47348
-0.372696,0,0,15.3727,15.3727,14.6273,14.6273,0.62116,3.59975,5.5121,0.22445,-0.124564,-0.103525,1,0,4.2875,-0.035,0.105,0.248148,-0.123098,-1.11337,-0.04662,0.10542,0.47348
-0.373546,0,0,15.3735,15.3735,14.6265,14.6265,0.622577,3.59959,5.51295,0.224453,-0.124539,-0.103525,1,0,4.2875,-0.035,0.105,0.248148,-0.123098,-1.11337,-0.04662,0.10542,0.47348
-0.373082,0,0,15.3731,15.3731,14.6269,14.6269,0.621803,3.60006,5.51373,-0.0865589,-0.215659,-0.346595,1,0,3.0625,0.3325,0.0525,-0.064172,-0.21411,-1.35457,-0.04662,0.10542,0.47348
-0.372618,0,0,15.3726,15.3726,14.6274,14.6274,0.62103,3.60053,5.5145,-0.086567,-0.215673,-0.346595,1,0,3.0625,0.3325,0.0525,-0.064172,-0.21411,-1.35457,-0.04662,0.10542,0.47348
-0.437746,0,0,15.4377,15.4377,14.5623,14.5623,0.729577,3.50579,5.59792,-0.0925702,-0.117423,-0.0420946,0,0,2.9925,0.035,0.07,-0.071858,-0.117852,-1.05249,-0.04662,0.10542,0.47348
-0.501768,0,0,15.5018,15.5018,14.4982,14.4982,0.83628,3.41273,5.68079,-0.0909491,-0.115563,-0.042022,0,0,2.9925,0.035,0.07,-0.071858,-0.117852,-1.05249,-0.04662,0.10542,0.47348
-0.501363,0,0,15.5014,15.5014,14.4986,14.4986,0.835604,3.4127,5.68063,-0.0302057,0.0414806,0.211867,1,0,3.15,0.035,-0.49,-0.010858,0.03904,-0.800564,-0.0469,0.09996,0.4676
-0.579527,0,0,15.5795,15.5795,14.4205,14.4205,0.965878,3.07662,5.99698,-0.345922,-0.146029,-0.0297995,0,0,3.7975,-0.1925,-0.315,-0.333792,-0.150548,-1.04066,-0.0469,0.09996,0.4676
-0.696434,0,0,15.6964,15.6964,14.3036,14.3036,1.16072,3.17022,5.91779,0.0863937,-0.201013,0.0104986,0,0,3.43,0,-0.42,0.101992,-0.208864,-1.00052,-0.0469,0.09996,0.4676
-0.81277,0,0,15.8128,15.8128,14.1872,14.1872,1.35462,3.26265,5.83882,0.0847829,-0.197637,0.0103339,0,0,4.725,0.3675,-0.63,0.101992,-0.208864,-1.00052,-0.0469,0.09996,0.4676
-0.843527,0,0,15.8435,15.8435,14.1565,14.1565,1.40588,3.4321,5.69111,0.170515,-0.0541038,-0.0336299,0,0,3.885,0.21,-0.735,0.191052,-0.066368,-1.04395,-0.0469,0.09996,0.4676
-0.873992,0,0,15.874,15.874,14.126,14.126,1.45665,3.59836,5.54339,0.167619,-0.053224,-0.0338299,0,0,4.13,0.14,-0.98,0.191052,-0.066368,-1.04395,-0.0469,0.09996,0.4676
-0.885577,0,0,15.8856,15.8856,14.1144,14.1144,1.47596,3.23646,5.87965,-0.370697,-0.0262545,-0.0450192,0,0,3.71,0.2275,-0.8575,-0.355874,-0.039772,-1.05542,-0.0469,0.09996,0.4676
-0.897379,0,0,15.8974,15.8974,14.1026,14.1026,1.49563,2.88176,6.21515,-0.364515,-0.0259032,-0.0446979,0,0,4.13,0.77,-0.7525,-0.355874,-0.039772,-1.05542,-0.0469,0.09996,0.4676
-0.828112,0,0,15.8281,15.8281,14.1719,14.1719,1.38019,3.12336,6.00803,0.217321,0.118143,0.0747607,0,0,4.3575,0.14,-0.525,0.232654,0.10614,-0.936716,-0.0504,0.10388,0.47082
-0.828365,0,0,15.8284,15.8284,14.1716,14.1716,1.38061,3.12276,6.00795,0.219033,-0.060765,0.175948,1,0,3.7625,-0.2975,-0.4375,0.234362,-0.07259,-0.83631,-0.0504,0.10388,0.47082
-0.828971,0,0,15.829,15.829,14.171,14.171,1.38162,3.12126,6.00832,0.219059,-0.0607474,0.175949,1,0,4.0775,-0.8225,-0.1575,0.234362,-0.07259,-0.83631,-0.0504,0.10388,0.47082
-0.829485,0,0,15.8295,15.8295,14.1705,14.1705,1.38247,3.12089,6.00878,-0.159241,-0.149641,0.125048,1,0,3.99,-0.1575,-0.1225,-0.145546,-0.161406,-0.886818,-0.0504,0.10388,0.47082
-0.83027,0,0,15.8303,15.8303,14.1697,14.1697,1.38378,3.12097,6.00892,-0.159243,-0.149618,0.125047,1,0,4.2525,0.105,-0.315,-0.145546,-0.161406,-0.886818,-0.0504,0.10388,0.47082
-0.762988,0,0,15.763,15.763,14.237,14.237,1.27165,3.46344,5.705,0.342479,0.124183,0.0228252,0,0,3.9725,0.1225,-0.2275,0.364292,0.11407,-0.987956,-0.0504,0.10388,0.47082
-0.695202,0,0,15.6952,15.6952,14.3048,14.3048,1.15867,3.80027,5.40015,0.336612,0.122208,0.0224946,0,0,2.625,0.2275,-0.21,0.364292,0.11407,-0.987956,-0.0504,0.10388,0.47082
-0.699232,0,0,15.6992,15.6992,14.3008,14.3008,1.16539,3.80983,5.38736,0.0136579,-0.0103053,-0.0640746,0,0,2.6075,0.175,-0.4375,0.040138,-0.018422,-1.07384,-0.0504,0.10388,0.47082
-0.704576,0,0,15.7046,15.7046,14.2954,14.2954,1.17429,3.81864,5.38379,0.0135044,-0.0101504,-0.064088,0,0,3.9025,-0.1575,-0.4725,0.040138,-0.018422,-1.07384,-0.04522,0.09744,0.47152
-0.704602,0,0,15.7046,15.7046,14.2954,14.2954,1.17434,3.81888,5.38366,0.0650102,0.0658132,0.213407,1,0,3.5525,0.1925,-0.4725,0.091866,0.057462,-0.79849,-0.04522,0.09744,0.47152
-0.704673,0,0,15.7047,15.7047,14.2953,14.2953,1.17445,3.81863,5.38278,0.0650146,0.0658152,0.213407,1,0,3.6225,-0.105,-0.91,0.091866,0.057462,-0.79849,-0.04522,0.09744,0.47152
-0.729752,0,0,15.7298,15.7298,14.2702,14.2702,1.21625,3.61501,5.57412,-0.201016,-0.0478849,-0.0450617,0,0,3.325,-0.665,-0.7175,-0.178852,-0.056852,-1.05518,-0.04522,0.09744,0.47152
-0.754994,0,0,15.755,15.755,14.245,14.245,1.25832,3.41618,5.7652,-0.197552,-0.0471476,-0.0448648,0,0,3.8675,0.0175,-0.5075,-0.178852,-0.056852,-1.05518,-0.04522,0.09744,0.47152
-0.746963,0,0,15.747,15.747,14.253,14.253,1.24494,3.55307,5.65017,0.116169,0.0166105,0.0822468,0,0,4.34,0.4375,-0.5775,0.138592,0.007076,-0.928908,-0.04522,0.09744,0.47152
-0.738634,0,0,15.7386,15.7386,14.2614,14.2614,1.23106,3.68783,5.53522,0.113822,0.0163656,0.0821035,0,0,3.955,0.63,-0.5775,0.138592,0.007076,-0.928908,-0.04522,0.09744,0.47152
-0.700522,0,0,15.7005,15.7005,14.2995,14.2995,1.16754,3.68449,5.54652,0.00029053,0.067774,-0.05299,0,0,3.9725,0.385,-0.6825,0.024522,0.059536,-1.06299,-0.04522,0.09744,0.47152
-0.662639,0,0,15.6626,15.6626,14.3374,14.3374,1.1044,3.68083,5.5555,0.000354359,0.0666746,-0.0529641,0,0,3.5525,0.0525,-0.385,0.024522,0.059536,-1.06299,-0.0462,0.09912,0.47824
-0.653946,0,0,15.6539,15.6539,14.3461,14.3461,1.08991,3.67365,5.56782,-0.00510899,0.0154957,-0.034263,0,0,4.0075,0.28,-0.035,0.01891,0.008662,-1.04444,-0.0462,0.09912,0.47824
-0.646084,0,0,15.6461,15.6461,14.3539,14.3539,1.07681,3.66617,5.57987,-0.00497858,0.0152676,-0.0342504,0,0,4.655,0.0175,-0.1925,0.01891,0.008662,-1.04444,-0.0462,0.09912,0.47824
-0.610078,0,0,15.6101,15.6101,14.3899,14.3899,1.0168,3.73105,5.52638,0.0562135,0.0602631,0.0536039,0,0,3.92,0.0525,0.1225,0.081496,0.054656,-0.957212,-0.0462,0.09912,0.47824
-0.574634,0,0,15.5746,15.5746,14.4254,14.4254,0.957723,3.79404,5.47288,0.0551165,0.0592332,0.0535495,0,0,3.885,-0.385,0.1225,0.081496,0.054656,-0.957212,-0.0462,0.09912,0.47824
-0.575142,0,0,15.5751,15.5751,14.4249,14.4249,0.958571,3.79321,5.47406,0.151348,0.0511876,0.291456,1,0,3.955,-0.42,0.2975,0.17812,0.046604,-0.721142,-0.0462,0.09912,0.47824
-0.576242,0,0,15.5762,15.5762,14.4238,14.4238,0.960403,3.79376,5.47502,0.151338,0.0512195,0.291454,1,0,4.515,0.385,0.1575,0.17812,0.046604,-0.721142,-0.0462,0.09912,0.47824
-0.609517,0,0,15.6095,15.6095,14.3905,14.3905,1.01586,3.71854,5.54675,-0.0730723,-0.058338,-0.0453552,0,0,4.6025,0.175,-0.4375,-0.048556,-0.063806,-1.05542,-0.0462,0.09912,0.47824
-0.642231,0,0,15.6422,15.6422,14.3578,14.3578,1.07038,3.64465,5.6182,-0.0717855,-0.057387,-0.0452897,0,0,4.6025,0.175,-0.4375,-0.048556,-0.063806,-1.05542,-0.0462,0.09912,0.47824
-0.641378,0,0,15.6414,15.6414,14.3586,14.3586,1.06896,3.64448,5.61761,-0.201408,-0.0194304,-0.123115,1,0,2.7475,-0.0525,-0.735,-0.17873,-0.025864,-1.13265,-0.04942,0.10108,0.47838
-0.651121,0,0,15.6511,15.6511,14.3489,14.3489,1.0852,3.60592,5.65422,-0.036123,-0.0192689,-0.0425469,0,0,3.08,0.28,-1.05,-0.01342,-0.025986,-1.05274,-0.04942,0.10108,0.47838
-0.661205,0,0,15.6612,15.6612,14.3388,14.3388,1.10201,3.56755,5.6907,-0.0354546,-0.0189754,-0.0425106,0,0,3.5525,-0.0175,-1.0675,-0.01342,-0.025986,-1.05274,-0.04942,0.10108,0.47838
-0.673407,0,0,15.6734,15.6734,14.3266,14.3266,1.12234,3.58165,5.67868,0.0111934,-0.0208198,0.0300068,0,0,2.8175,-0.105,-1.2775,0.033672,-0.028182,-0.980758,-0.04942,0.10108,0.47838
-0.685402,0,0,15.6854,15.6854,14.3146,14.3146,1.14234,3.59548,5.66667,0.0109523,-0.0204719,0.0299848,0,0,2.8175,-0.105,-1.2775,0.033672,-0.028182,-0.980758,-0.04942,0.10108,0.47838
-0.572299,0,0,15.5723,15.5723,14.4277,14.4277,0.953832,3.46613,5.80035,-0.129418,0.189847,0.022561,0,0,3.325,4.375,-0.7525,-0.109556,0.185196,-0.988322,-0.04942,0.10108,0.47838
-0.461077,0,0,15.4611,15.4611,14.5389,14.5389,0.768462,3.33903,5.9349,-0.127204,0.18662,0.0227412,0,0,3.325,4.375,-0.7525,-0.109556,0.185196,-0.988322,-0.04942,0.10108,0.47838
-0.462215,0,0,15.4622,15.4622,14.5378,14.5378,0.770358,3.33988,5.93388,-0.14447,-0.141624,-0.155781,1,0,4.62,0.5425,-0.9975,-0.12688,-0.14274,-1.16547,-0.04466,0.09996,0.46956
-0.494209,0,0,15.4942,15.4942,14.5058,14.5058,0.823681,3.25202,6.02411,-0.0866911,-0.057281,-0.0262413,0,0,3.325,0.2625,-0.315,-0.070394,-0.059414,-1.037,-0.04466,0.09996,0.46956
-0.526505,0,0,15.5265,15.5265,14.4735,14.4735,0.877509,3.16511,6.11462,-0.0851766,-0.0563419,-0.0261703,0,0,4.095,-0.0875,0.0525,-0.070394,-0.059414,-1.037,-0.04466,0.09996,0.46956
-0.527154,0,0,15.5272,15.5272,14.4728,14.4728,0.87859,3.1453,6.13927,-0.0110895,-0.00112147,-0.0241844,0,0,3.745,-4.095,0.175,0.00366,-0.00427,-1.03505,-0.04466,0.09996,0.46956
-0.527793,0,0,15.5278,15.5278,14.4722,14.4722,0.879655,3.12583,6.16389,-0.0107503,-0.00110263,-0.0241661,0,0,3.745,-4.095,0.175,0.00366,-0.00427,-1.03505,-0.04466,0.09996,0.46956
-0.644227,0,0,15.6442,15.6442,14.3558,14.3558,1.07371,2.90684,6.36706,-0.199731,-0.18677,0.0901965,0,0,3.5875,-4.34,0.5075,-0.189954,-0.193126,-0.92171,-0.04466,0.09996,0.46956
-0.758738,0,0,15.7587,15.7587,14.2413,14.2413,1.26456,2.69158,6.56835,-0.195979,-0.18344,0.090312,0,0,3.5875,-4.34,0.5075,-0.189954,-0.193126,-0.92171,-0.04466,0.09996,0.46956
-0.758987,0,0,15.759,15.759,14.241,14.241,1.26498,2.69844,6.57008,0.200552,0.322661,0.192722,1,0,3.71,4.095,0.525,0.208376,0.312442,-0.820084,-0.04466,0.09996,0.46956
-0.759235,0,0,15.7592,15.7592,14.2408,14.2408,1.26539,2.7053,6.57181,0.200433,0.322668,0.192717,1,0,3.71,4.095,0.525,0.208376,0.312442,-0.820084,-0.04284,0.1015,0.47194
-0.760566,0,0,15.7606,15.7606,14.2394,14.2394,1.26761,2.70582,6.57274,-0.389997,-0.0137527,-0.180188,1,0,4.7425,0.3675,0.14,-0.384544,-0.023668,-1.19011,-0.04284,0.1015,0.47194
-0.760255,0,0,15.7603,15.7603,14.2397,14.2397,1.26709,2.70597,6.57255,-0.0010021,-0.120134,-0.181417,1,0,3.2375,0.14,-0.5075,0.0061,-0.12993,-1.19133,-0.04284,0.1015,0.47194
-0.760033,0,0,15.76,15.76,14.24,14.24,1.26672,2.70577,6.57221,-0.000998579,-0.120141,-0.181417,1,0,3.325,-0.07,-0.595,0.0061,-0.12993,-1.19133,-0.04284,0.1015,0.47194
-0.759156,0,0,15.7592,15.7592,14.2408,14.2408,1.26526,2.70586,6.5719,0.0369033,0.0936779,-0.166785,1,0,2.7125,0.105,-0.5775,0.044164,0.083692,-1.17681,-0.04284,0.1015,0.47194
-0.759048,0,0,15.759,15.759,14.241,14.241,1.26508,2.70611,6.5703,0.036899,0.0936747,-0.166785,1,0,3.465,0.175,-1.33,0.044164,0.083692,-1.17681,-0.04284,0.1015,0.47194
-0.757829,0,0,15.7578,15.7578,14.2422,14.2422,1.26305,2.70537,6.56847,0.0178386,0.16545,0.172554,1,0,2.4325,-0.4025,-1.4525,0.02501,0.155428,-0.840092,-0.04284,0.1015,0.47194
-0.756358,0,0,15.7564,15.7564,14.2436,14.2436,1.2606,2.70534,6.56702,0.0178391,0.165407,0.172555,1,0,2.1875,0.0175,-1.2425,0.02501,0.155428,-0.840092,-0.04284,0.1015,0.47194
-0.63021,0,0,15.6302,15.6302,14.3698,14.3698,1.05035,2.36649,6.90895,-0.295274,0.194111,0.143506,0,0,3.22,0.1575,-1.015,-0.295362,0.187758,-0.86925,-0.04788,0.09576,0.47278
-0.675865,0,0,15.6759,15.6759,14.3241,14.3241,1.12644,2.37124,6.93108,-0.000511082,-0.0732414,0.0306103,0,0,4.5325,0.63,-1.0325,0.000732,-0.080642,-0.981246,-0.04788,0.09576,0.47278
-0.720296,0,0,15.7203,15.7203,14.2797,14.2797,1.20049,2.37532,6.95296,-0.000582124,-0.0719504,0.0305811,0,0,4.1125,0.315,-1.12,0.000732,-0.080642,-0.981246,-0.04788,0.09576,0.47278
-0.691961,0,0,15.692,15.692,14.308,14.308,1.15327,2.55392,6.81883,0.191531,0.0536247,-0.0670341,0,0,3.9375,0.105,-0.7,0.196786,0.045628,-1.07799,-0.04788,0.09576,0.47278
-0.66379,0,0,15.6638,15.6638,14.3362,14.3362,1.10632,2.73033,6.6863,0.188455,0.0528035,-0.0671599,0,0,3.64,0.665,0.28,0.196786,0.045628,-1.07799,-0.04788,0.09576,0.47278
-0.736022,0,0,15.736,15.736,14.264,14.264,1.2267,2.79939,6.64383,0.0677095,-0.130366,-0.0440235,0,0,3.745,0.385,0.385,0.076738,-0.139446,-1.05493,-0.04788,0.09576,0.47278
-0.80643,0,0,15.8064,15.8064,14.1936,14.1936,1.34405,2.86646,6.60174,0.0665403,-0.128322,-0.0441272,0,0,3.1675,0,0.49,0.076738,-0.139446,-1.05493,-0.04788,0.09576,0.47278
-0.806441,0,0,15.8064,15.8064,14.1936,14.1936,1.34407,2.86642,6.60356,-0.056524,-0.0267121,-0.168551,1,0,3.4825,0.0525,0.665,-0.046848,-0.037942,-1.1784,-0.04788,0.09576,0.47278
-0.806033,0,0,15.806,15.806,14.194,14.194,1.34339,2.86619,6.60577,-0.0565199,-0.026724,-0.168551,1,0,3.08,-0.0525,0.8925,-0.046848,-0.037942,-1.1784,-0.04606,0.10486,0.47404
-0.805545,0,0,15.8055,15.8055,14.1945,14.1945,1.34257,2.86623,6.60783,0.000334671,0.117616,0.18923,1,0,3.01,0.105,0.805,0.010248,0.106262,-0.823378,-0.04606,0.10486,0.47404
-0.806549,0,0,15.8065,15.8065,14.1935,14.1935,1.34425,2.8659,6.60904,0.000340386,0.117645,0.189229,1,0,4.4275,-0.1225,0.315,0.010248,0.106262,-0.823378,-0.04606,0.10486,0.47404
-0.806982,0,0,15.807,15.807,14.193,14.193,1.34497,2.86531,6.60995,0.15974,0.0821185,-0.131789,1,0,3.9025,-0.28,0.14,0.170312,0.07076,-1.14192,-0.04606,0.10486,0.47404
-0.807599,0,0,15.8076,15.8076,14.1924,14.1924,1.346,2.86461,6.6095,0.159752,0.0821365,-0.131789,1,0,4.1125,-0.3675,-0.6475,0.170312,0.07076,-1.14192,-0.04606,0.10486,0.47404
-0.807917,0,0,15.8079,15.8079,14.1921,14.1921,1.34653,2.86394,6.60845,-0.0930479,0.259962,-0.234204,1,0,3.85,-0.35,-0.9975,-0.08357,0.248392,-1.24355,-0.04606,0.10486,0.47404
-0.80734,0,0,15.8073,15.8073,14.1927,14.1927,1.34557,2.86302,6.60691,-0.0930319,0.259946,-0.234203,1,0,3.0275,-0.5075,-1.2775,-0.08357,0.248392,-1.24355,-0.04606,0.10486,0.47404
-0.807328,0,0,15.8073,15.8073,14.1927,14.1927,1.34555,2.86283,6.60486,-0.138343,0.0312018,-0.125394,1,0,3.57,-0.0875,-1.5925,-0.129076,0.019886,-1.13558,-0.04606,0.10486,0.47404
-0.805862,0,0,15.8059,15.8059,14.1941,14.1941,1.3431,2.86211,6.60239,-0.13833,0.0311592,-0.125392,1,0,2.2225,-0.4025,-1.82,-0.129076,0.019886,-1.13558,-0.0448,0.09562,0.48006
-0.925593,0,0,15.9256,15.9256,14.0744,14.0744,1.54266,3.05708,6.44036,0.175592,-0.209011,0.0344237,0,0,2.1525,4.4625,-1.8725,0.189588,-0.223504,-0.976732,-0.0448,0.09562,0.48006
-1.04338,0,0,16.0434,16.0434,13.9566,13.9566,1.73896,3.24847,6.27967,0.172257,-0.205597,0.0341421,0,0,2.1525,4.4625,-1.8725,0.189588,-0.223504,-0.976732,-0.0448,0.09562,0.48006
-1.04271,0,0,16.0427,16.0427,13.9573,13.9573,1.73785,3.24912,6.27791,0.119642,-0.198777,0.175533,1,0,2.9575,0.4025,-1.435,0.136762,-0.216672,-0.836432,-0.0448,0.09562,0.48006
-1.04204,0,0,16.042,16.042,13.958,13.958,1.73674,3.24977,6.27614,0.119631,-0.198796,0.175533,1,0,2.9575,0.4025,-1.435,0.136762,-0.216672,-0.836432,-0.0448,0.09562,0.48006
-1.04258,0,0,16.0426,16.0426,13.9574,13.9574,1.73763,3.25689,6.27599,0.0921725,0.109955,-0.145124,1,0,4.025,4.2175,-0.6125,0.109312,0.091744,-1.15461,-0.0448,0.09562,0.48006
-1.14652,0,0,16.1465,16.1465,13.8535,13.8535,1.91087,3.09519,6.43378,-0.151261,-0.16083,0.105628,0,0,3.7975,0.2625,0.0525,-0.137982,-0.18178,-0.90585,-0.0448,0.09562,0.48006
-1.24843,0,0,16.2484,16.2484,13.7516,13.7516,2.08072,2.93715,6.59162,-0.148507,-0.157867,0.10567,0,0,3.465,0.805,0.8575,-0.137982,-0.18178,-0.90585,-0.0448,0.09562,0.48006
-1.24809,0,0,16.2481,16.2481,13.7519,13.7519,2.08015,2.93767,6.59358,0.110856,0.115809,0.202184,1,0,3.15,0.4025,0.735,0.122488,0.091622,-0.81008,-0.0448,0.09562,0.48006
-1.24791,0,0,16.2479,16.2479,13.7521,13.7521,2.07985,2.93796,6.59643,0.110851,0.115804,0.202184,1,0,3.2725,0.28,1.26,0.122488,0.091622,-0.81008,-0.04648,0.10836,0.4795
-1.24697,0,0,16.247,16.247,13.753,13.753,2.07828,2.93856,6.5996,0.164173,0.241323,0.158538,1,0,2.555,0.4725,1.435,0.176046,0.217038,-0.85339,-0.04648,0.10836,0.4795
-1.24779,0,0,16.2478,16.2478,13.7522,13.7522,2.07965,2.93883,6.60209,0.164168,0.241347,0.158537,1,0,4.2175,0.2625,1.05,0.176046,0.217038,-0.85339,-0.04648,0.10836,0.4795
-1.30918,0,0,16.3092,16.3092,13.6908,13.6908,2.18196,2.85473,6.67585,-0.083533,-0.1147,-0.0687872,0,0,4.6725,0.1925,1.1025,-0.074176,-0.140422,-1.07897,-0.04648,0.10836,0.4795
-1.3692,0,0,16.3692,16.3692,13.6308,13.6308,2.282,2.77156,6.74785,-0.0820831,-0.112954,-0.0687839,0,0,4.3925,-0.175,0.3675,-0.074176,-0.140422,-1.07897,-0.04648,0.10836,0.4795
-1.37089,0,0,16.3709,16.3709,13.6291,13.6291,2.28482,2.77046,6.74834,-0.187149,0.0464704,-0.307797,1,0,5.0925,-0.5775,-0.0875,-0.179706,0.018788,-1.31614,-0.04648,0.10836,0.4795
-1.37062,0,0,16.3706,16.3706,13.6294,13.6294,2.28436,2.77038,6.74745,-0.187148,0.0464624,-0.307796,1,0,3.29,-0.0175,-0.91,-0.179706,0.018788,-1.31614,-0.04648,0.10836,0.4795
-1.40311,0,0,16.4031,16.4031,13.5969,13.5969,2.33851,2.79776,6.71949,0.0212089,-0.0498082,0.065291,0,0,3.395,-0.385,-1.4175,0.030012,-0.078324,-0.945866,-0.04648,0.10836,0.4795
-1.43473,0,0,16.4347,16.4347,13.5653,13.5653,2.39121,2.82568,6.70105,0.0207223,-0.0488913,0.0652292,0,0,3.0625,-0.175,-1.8025,0.030012,-0.078324,-0.945866,-0.04928,0.10136,0.4795
-1.41052,0,0,16.4105,16.4105,13.5895,13.5895,2.35087,2.76392,6.76699,-0.0571668,0.0384616,-0.0244416,0,0,2.3975,-0.2275,-1.82,-0.049288,0.009638,-1.03493,-0.04928,0.10136,0.4795
-1.38723,0,0,16.3872,16.3872,13.6128,13.6128,2.31205,2.70426,6.832,-0.0561268,0.0377875,-0.0243645,0,0,2.8875,0.315,-2.38,-0.049288,0.009638,-1.03493,-0.04928,0.10136,0.4795
-1.38665,0,0,16.3866,16.3866,13.6134,13.6134,2.31108,2.70582,6.82877,-0.0171571,0.136449,0.206286,1,0,3.0625,0.8925,-2.31,-0.010126,0.108214,-0.806054,-0.04928,0.10136,0.4795
-1.3871,0,0,16.3871,16.3871,13.6129,13.6129,2.31183,2.70658,6.82639,-0.0171703,0.136462,0.206285,1,0,4.0075,0.4375,-1.8025,-0.010126,0.108214,-0.806054,-0.04928,0.10136,0.4795
-1.30605,0,0,16.306,16.306,13.694,13.694,2.17675,2.73891,6.81563,0.0325612,0.14168,0.00262493,0,0,4.3925,0.6125,-1.6625,0.040382,0.115778,-1.00821,-0.04928,0.10136,0.4795
-1.22555,0,0,16.2256,16.2256,13.7744,13.7744,2.04259,2.76983,6.80626,0.0320221,0.139341,0.00268511,0,0,3.6225,0.14,-0.8575,0.040382,0.115778,-1.00821,-0.04928,0.10136,0.4795
-1.26482,0,0,16.2648,16.2648,13.7352,13.7352,2.10803,2.68635,6.89861,-0.0821769,-0.0726271,-0.04954,0,0,3.955,0.0175,3.9725,-0.075762,-0.097112,-1.06006,-0.04928,0.10136,0.4795
-1.30297,0,0,16.303,16.303,13.697,13.697,2.17162,2.60545,6.99054,-0.0807665,-0.0715169,-0.0495163,0,0,3.64,0.1575,0.5775,-0.075762,-0.097112,-1.06006,-0.04676,0.09744,0.4767
-1.3253,0,0,16.3253,16.3253,13.6747,13.6747,2.20884,2.72675,6.9029,0.100319,-0.030204,0.0878169,0,0,3.92,0.7875,0.945,0.108214,-0.056486,-0.923662,-0.04676,0.09744,0.4767
-1.34757,0,0,16.3476,16.3476,13.6524,13.6524,2.24595,2.845,6.81628,0.0982577,-0.0295615,0.0876916,0,0,4.2,0.315,1.4175,0.108214,-0.056486,-0.923662,-0.04676,0.09744,0.4767
-1.34729,0,0,16.3473,16.3473,13.6527,13.6527,2.24549,2.84552,6.81977,-0.0401236,0.0775356,0.20314,1,0,3.1675,0.4375,1.6275,-0.030744,0.050508,-0.809104,-0.04676,0.09744,0.4767
-1.34721,0,0,16.3472,16.3472,13.6528,13.6528,2.24535,2.84571,6.82343,-0.0401268,0.0775332,0.20314,1,0,3.3425,0.245,1.7325,-0.030744,0.050508,-0.809104,-0.04676,0.09744,0.4767
-1.34773,0,0,16.3477,16.3477,13.6523,13.6523,2.24621,2.84636,6.82669,-0.0544734,0.219093,-0.16583,1,0,3.92,0.5075,1.4875,-0.04514,0.191906,-1.17523,-0.04676,0.09744,0.4767
-1.34944,0,0,16.3494,16.3494,13.6506,13.6506,2.24907,2.84644,6.82915,-0.0544748,0.219143,-0.165832,1,0,5.0575,0.1575,1.0325,-0.04514,0.191906,-1.17523,-0.04676,0.09744,0.4767
-1.26841,0,0,16.2684,16.2684,13.7316,13.7316,2.11401,2.61013,7.0663,-0.211931,0.134606,0.0729743,0,0,5.1975,-0.28,0.175,-0.2074,0.1098,-0.938546,-0.04676,0.09744,0.4767
-1.18881,0,0,16.1888,16.1888,13.8112,13.8112,1.98136,2.37969,7.29525,-0.207913,0.132301,0.0732319,0,0,5.1975,-0.28,0.175,-0.2074,0.1098,-0.938546,-0.04522,0.10388,0.4788
-1.29803,0,0,16.298,16.298,13.702,13.702,2.16339,2.0614,7.58515,-0.290561,-0.173377,0.131487,0,0,3.5525,-0.2625,-1.295,-0.295972,-0.198738,-0.88084,-0.04522,0.10388,0.4788
-1.4055,0,0,16.4055,16.4055,13.5945,13.5945,2.34251,1.74847,7.87237,-0.285102,-0.170248,0.131545,0,0,3.5525,-0.2625,-1.295,-0.295972,-0.198738,-0.88084,-0.04522,0.10388,0.4788
-1.31293,0,0,16.3129,16.3129,13.6871,13.6871,2.18821,1.88825,7.77539,0.147864,0.166938,-0.0304717,0,0,3.0275,-0.7525,-2.2575,0.141276,0.140788,-1.04164,-0.04522,0.10388,0.4788
-1.22182,0,0,16.2218,16.2218,13.7782,13.7782,2.03637,2.02564,7.67798,0.145468,0.164288,-0.0304559,0,0,3.0275,-0.7525,-2.2575,0.141276,0.140788,-1.04164,-0.04522,0.10388,0.4788
-1.27213,0,0,16.2721,16.2721,13.7279,13.7279,2.12021,1.87086,7.82888,-0.149594,-0.0885147,0.0271228,0,0,2.38,0.175,-2.6425,-0.157746,-0.113216,-0.98454,-0.04522,0.10388,0.4788
-1.32161,0,0,16.3216,16.3216,13.6784,13.6784,2.20269,1.71881,7.97899,-0.146941,-0.0870739,0.0271516,0,0,2.38,0.175,-2.6425,-0.157746,-0.113216,-0.98454,-0.04522,0.10388,0.4788
-1.32246,0,0,16.3225,16.3225,13.6775,13.6775,2.2041,1.71944,7.9766,4.54613e-05,0.0803865,-0.171534,1,0,4.3575,0.3675,-1.8025,-0.010126,0.054046,-1.18169,-0.04522,0.10388,0.4788
-1.32331,0,0,16.3233,16.3233,13.6767,13.6767,2.20552,1.72007,7.97421,3.44818e-05,0.0804112,-0.171536,1,0,4.3575,0.3675,-1.8025,-0.010126,0.054046,-1.18169,-0.0462,0.09828,0.48328
-1.32349,0,0,16.3235,16.3235,13.6765,13.6765,2.20581,1.71987,7.97404,0.0628461,-0.0324287,-0.169938,1,0,3.6925,-0.07,-0.49,0.052948,-0.058682,-1.18011,-0.0462,0.09828,0.48328
-1.32367,0,0,16.3237,16.3237,13.6763,13.6763,2.20611,1.71966,7.97387,0.0628497,-0.0324235,-0.169938,1,0,3.6925,-0.07,-0.49,0.052948,-0.058682,-1.18011,-0.0462,0.09828,0.48328
-1.27531,0,0,16.2753,16.2753,13.7247,13.7247,2.12552,1.4933,8.21856,-0.201927,0.0775552,0.0788281,0,0,3.29,0.455,1.12,-0.216916,0.052582,-0.933422,-0.0462,0.09828,0.48328
-1.22772,0,0,16.2277,16.2277,13.7723,13.7723,2.0462,1.27097,8.46342,-0.198048,0.0761756,0.078972,0,0,3.29,0.455,1.12,-0.216916,0.052582,-0.933422,-0.0462,0.09828,0.48328
-1.22817,0,0,16.2282,16.2282,13.7718,13.7718,2.04695,1.27046,8.4666,-0.0792263,-0.00722397,-0.105451,1,0,3.9025,-0.175,1.47,-0.0976,-0.030744,-1.11642,-0.0462,0.09828,0.48328
-1.22862,0,0,16.2286,16.2286,13.7714,13.7714,2.04769,1.26996,8.46978,-0.0792175,-0.00721095,-0.105451,1,0,3.9025,-0.175,1.47,-0.0976,-0.030744,-1.11642,-0.0462,0.09828,0.48328
-1.22806,0,0,16.2281,16.2281,13.7719,13.7719,2.04677,1.26999,8.4738,0.244906,0.0548134,-0.114672,1,0,2.9575,0.1575,1.9425,0.227896,0.031232,-1.12557,-0.0462,0.09828,0.48328
-1.22921,0,0,16.2292,16.2292,13.7708,13.7708,2.04868,1.26952,8.47713,0.0581905,-0.278193,-0.28508,1,0,4.55,-0.1575,1.5575,0.040382,-0.301462,-1.29466,-0.04032,0.1057,0.47824
-1.23023,0,0,16.2302,16.2302,13.7698,13.7698,2.05039,1.26931,8.47858,0.058194,-0.278163,-0.285081,1,0,4.4625,-0.035,0.455,0.040382,-0.301462,-1.29466,-0.04032,0.1057,0.47824
-1.22936,0,0,16.2294,16.2294,13.7706,13.7706,2.04894,1.26928,8.47866,0.0386354,-0.0957311,0.186797,1,0,2.7125,0.035,-0.35,0.02074,-0.119194,-0.826428,-0.04032,0.1057,0.47824
-1.2285,0,0,16.2285,16.2285,13.7715,13.7715,2.0475,1.26925,8.47874,0.038636,-0.0957563,0.186798,1,0,2.7125,0.035,-0.35,0.02074,-0.119194,-0.826428,-0.04032,0.1057,0.47824
-1.15161,0,0,16.1516,16.1516,13.8484,13.8484,1.91934,1.24589,8.53594,-0.0164754,0.126845,0.0506571,0,0,3.115,-0.805,-1.75,-0.035014,0.105408,-0.961604,-0.04032,0.1057,0.47824
-1.07599,0,0,16.076,16.076,13.924,13.924,1.79331,1.22301,8.5933,-0.0160761,0.124647,0.0507369,0,0,3.115,-0.805,-1.75,-0.035014,0.105408,-0.961604,-0.04032,0.1057,0.47824
-1.07543,0,0,16.0754,16.0754,13.9246,13.9246,1.79238,1.22306,8.58977,0.165909,-0.0616126,0.235652,1,0,3.045,0.0175,-2.45,0.147742,-0.080642,-0.778116,-0.04032,0.1057,0.47824
-1.04364,0,0,16.0436,16.0436,13.9564,13.9564,1.7394,1.12276,8.71297,-0.0996098,0.0522634,-0.0484178,0,0,2.275,0.3325,-2.5375,-0.120658,0.034038,-1.06006,-0.04032,0.1057,0.47824
-1.01403,0,0,16.014,16.014,13.986,13.986,1.69005,1.02306,8.84546,-0.09787,0.0514037,-0.0483594,0,0,3.92,0.35,-2.24,-0.120658,0.034038,-1.06006,-0.04606,0.09926,0.47782
-1.01519,0,0,16.0152,16.0152,13.9848,13.9848,1.69198,1.02324,8.84257,0.184095,0.0839231,-0.0950809,1,0,4.6375,0.105,-2.0825,0.162504,0.06649,-1.10642,-0.04606,0.09926,0.47782
-1.01556,0,0,16.0156,16.0156,13.9844,13.9844,1.69259,1.02404,8.84063,0.184081,0.0839338,-0.0950815,1,0,3.885,0.49,-1.54,0.162504,0.06649,-1.10642,-0.04606,0.09926,0.47782
-1.01559,0,0,16.0156,16.0156,13.9844,13.9844,1.69265,1.02473,8.83935,-0.218535,-0.0423442,-0.113401,1,0,3.57,0.4375,-1.155,-0.241804,-0.059658,-1.1246,-0.04606,0.09926,0.47782
-1.01496,0,0,16.015,16.015,13.985,13.985,1.6916,1.02605,8.84028,-0.218557,-0.0423627,-0.113401,1,0,2.9225,0.84,0.1225,-0.241804,-0.059658,-1.1246,-0.04606,0.09926,0.47782
