pid_x,pid_y,pid_z,front_left_speed,front_right_speed,back_left_speed,back_right_speed,orientation_x,orientation_y,orientation_z,acceleration_x,acceleration_y,acceleration_z,accel_rejected,mag_rejected,ahrs_initialized,gyro_x,gyro_y,gyro_z,accel_x,accel_y,accel_z,mag_x,mag_y,mag_z
-0.0455041,0,0,5.0455,5.0455,4.9545,4.9545,0.000664616,0.0102004,0.704751,0.00739796,-0.000177606,0.00768468,0,0,0,3.675,-0.21,-1.1375,-0.032696,0.011956,-1.00504,-0.16394,-0.26334,0.33642
-0.02924,0,0,5.02924,5.02924,4.97076,4.97076,0.00107421,0.0188072,1.40712,0.0059114,-0.000170458,0.00719285,0,0,0,3.535,0.0875,-1.3475,-0.034038,0.011956,-1.00552,-0.16394,-0.26334,0.33642
-0.152291,0,0,5.15229,5.15229,4.84771,4.84771,0.00327027,0.0271803,2.10656,0.00540081,-0.00147552,0.00190601,0,0,0,3.6575,-0.1575,-1.3475,-0.034404,0.010614,-1.01077,-0.16394,-0.26334,0.33642
-0.239577,0,0,5.23958,5.23958,4.76042,4.76042,0.00668344,0.0356539,2.8028,0.00500994,-0.00251509,0.0153073,0,0,0,3.605,-0.2975,-1.33,-0.034648,0.009516,-0.997472,-0.16394,-0.26334,0.33642
-0.230141,0,0,5.23014,5.23014,4.76986,4.76986,0.00986905,0.0438488,3.49371,0.00486692,-0.00245949,0.0153072,0,0,0,3.5,-0.2975,-1.365,-0.034648,0.009516,-0.997472,-0.15918,-0.25816,0.33278
-0.241152,0,0,5.24115,5.24115,4.75885,4.75885,0.0131317,0.0492243,4.18284,0.00295081,-0.00252468,-0.00153683,0,0,0,3.535,-0.315,-1.365,-0.036478,0.009394,-1.01419,-0.15918,-0.25816,0.33278
-0.0959621,0,0,5.09596,5.09596,4.90404,4.90404,0.014188,0.0557473,4.86701,0.00465925,-0.000552213,0.00215151,0,0,0,3.605,-0.21,-1.33,-0.034648,0.011346,-1.01053,-0.15918,-0.25816,0.33278
-0.0107605,0,0,5.01076,5.01076,4.98924,4.98924,0.013972,0.0615168,5.54798,0.00431558,0.000176777,0.00879063,0,0,0,3.395,-0.0875,-1.225,-0.034892,0.012078,-1.00394,-0.15918,-0.25816,0.33278
-0.177423,0,0,5.17742,5.17742,4.82258,4.82258,0.0161959,0.0731971,6.22222,0.00739183,-0.00173844,0.00965102,0,0,0,3.36,0.0175,-1.2425,-0.031598,0.010126,-1.00308,-0.15918,-0.25816,0.33278
-0.192784,0,0,5.19278,5.19278,4.80722,4.80722,0.0185856,0.0844459,6.89283,0.00719551,-0.00169673,0.00965074,0,0,0,3.465,-0.0525,-1.2425,-0.031598,0.010126,-1.00308,-0.15918,-0.25816,0.33278
-0.148352,0,0,5.14835,5.14835,4.85165,4.85165,0.0202635,0.0953282,7.5594,0.00737003,-0.00105681,0.00866684,0,0,0,3.5,-0.1225,-1.225,-0.031232,0.010736,-1.00406,-0.15918,-0.25816,0.33278
-0.150569,0,0,5.15057,5.15057,4.84943,4.84943,0.0219296,0.105957,8.22125,0.00718452,-0.00102773,0.0086665,0,0,0,3.5,-0.1225,-1.225,-0.031232,0.010736,-1.00406,-0.16338,-0.26152,0.33726
-0.0695409,0,0,5.06954,5.06954,4.93046,4.93046,0.0223684,0.111415,8.8822,0.00368767,-4.30579e-05,-0.00289084,0,0,0,3.5875,0.1925,-1.2425,-0.034648,0.011712,-1.01553,-0.16338,-0.26152,0.33726
-0.0210059,0,0,5.02101,5.02101,4.97899,4.97899,0.0220867,0.118299,9.53829,0.00490386,0.000196279,-0.00153864,0,0,0,3.325,0.14,-1.0675,-0.033306,0.011956,-1.01419,-0.16338,-0.26152,0.33726
-0.0447442,0,0,5.04474,5.04474,4.95526,4.95526,0.0221591,0.125018,10.19,0.0047866,0.000197543,-0.00153889,0,0,0,3.5175,0.14,-1.295,-0.033306,0.011956,-1.01419,-0.16338,-0.26152,0.33726
-0.187243,0,0,5.18724,5.18724,4.81276,4.81276,0.0243109,0.134551,10.8362,0.00607804,-0.00135255,0.0113703,0,0,0,3.5,0,-1.155,-0.031842,0.01037,-1.00138,-0.16338,-0.26152,0.33726
-0.0901793,0,0,5.09018,5.09018,4.90982,4.90982,0.0249883,0.139935,11.4803,0.00367585,-0.00011946,0.00374727,0,0,0,3.64,0.105,-1.2075,-0.03416,0.01159,-1.00894,-0.16338,-0.26152,0.33726
-0.0585776,0,0,5.05858,5.05858,4.94142,4.94142,0.0251863,0.145063,12.1201,0.00358635,-0.000116004,0.00374705,0,0,0,3.3775,0.035,-1.33,-0.03416,0.01159,-1.00894,-0.16338,-0.26152,0.33726
0.0180043,0,0,4.982,4.982,5.018,5.018,0.0242605,0.149099,12.7587,0.00327293,0.000966979,0.00866481,0,0,0,3.5525,0.0875,-1.2425,-0.034404,0.012688,-1.00406,-0.16198,-0.26376,0.33768
0.0696172,0,0,4.93038,4.93038,5.06962,5.06962,0.0226052,0.152835,13.3928,0.0034507,0.00154872,0.00374671,0,0,0,3.57,0.035,-1.3125,-0.03416,0.013298,-1.00894,-0.16198,-0.26376,0.33768
-0.0814873,0,0,5.08149,5.08149,4.91851,4.91851,0.0232003,0.161594,14.0197,0.00633497,-2.85397e-05,0.00645115,0,0,0,3.5525,-0.035,-1.295,-0.03111,0.011712,-1.00626,-0.16198,-0.26376,0.33768
-0.0477533,0,0,5.04775,5.04775,4.95225,4.95225,0.023287,0.169956,14.6421,0.00618901,-2.70265e-05,0.00645073,0,0,0,3.2725,-0.14,-1.33,-0.03111,0.011712,-1.00626,-0.16198,-0.26376,0.33768
0.11021,0,0,4.88979,4.88979,5.11021,5.11021,0.0210642,0.170967,15.2645,0.00143344,0.00127757,-0.00252455,0,0,0,3.1325,-0.0175,-1.295,-0.035868,0.013054,-1.01516,-0.16198,-0.26376,0.33768
-0.154546,0,0,5.15455,5.15455,4.84545,4.84545,0.0227668,0.178183,15.879,0.00458761,-0.0013795,-0.000557765,0,0,0,3.2025,-0.0175,-1.295,-0.032574,0.01037,-1.01321,-0.16198,-0.26376,0.33768
-0.151426,0,0,5.15143,5.15143,4.84857,4.84857,0.0243789,0.185202,16.4891,0.00446509,-0.00135136,-0.000558165,0,0,0,3.1675,-0.0175,-1.26,-0.032574,0.01037,-1.01321,-0.16198,-0.26376,0.33768
-0.13535,0,0,5.13535,5.13535,4.86465,4.86465,0.0257139,0.190167,17.0955,0.00316359,-0.00108381,0.00103987,0,0,0,3.255,-0.07,-1.3825,-0.033794,0.010614,-1.01162,-0.16198,-0.26376,0.33768
-0.300056,0,0,5.30006,5.30006,4.69994,4.69994,0.0294193,0.193935,17.6938,0.00139702,-0.00272891,0.00140847,0,0,0,3.3775,-0.0175,-1.33,-0.035502,0.008906,-1.01126,-0.16478,-0.2625,0.33992
-0.313489,0,0,5.31349,5.31349,4.68651,4.68651,0.0332234,0.199902,18.2857,0.00311517,-0.00254039,0.00435883,0,0,0,3.4825,-0.0525,-1.47,-0.033672,0.009028,-1.00833,-0.16478,-0.2625,0.33992
-0.313243,0,0,5.31324,5.31324,4.68676,4.68676,0.0369238,0.205884,18.8733,0.00301076,-0.00247581,0.00435843,0,0,0,3.465,0.07,-1.33,-0.033672,0.009028,-1.00833,-0.16478,-0.2625,0.33992
-0.492462,0,0,5.49246,5.49246,4.50754,4.50754,0.0431444,0.213249,19.4554,0.00324668,-0.00419914,0.00509557,0,0,0,3.5,0,-1.2775,-0.033306,0.007198,-1.0076,-0.16478,-0.2625,0.33992
-0.304368,0,0,5.30437,5.30437,4.69563,4.69563,0.0464542,0.222618,20.0313,0.00575585,-0.00182097,0.00337362,0,0,0,3.605,0.1225,-1.2425,-0.030622,0.009516,-1.00931,-0.16478,-0.2625,0.33992
-0.297095,0,0,5.2971,5.2971,4.7029,4.7029,0.0495706,0.231779,20.6027,0.00559595,-0.00176658,0.00337294,0,0,0,3.535,0.1575,-1.19,-0.030622,0.009516,-1.00931,-0.16478,-0.2625,0.33992
-0.312478,0,0,5.31248,5.31248,4.68752,4.68752,0.0528297,0.236321,21.172,0.00223656,-0.00195395,0.00853641,0,0,0,3.605,0.0525,-1.1025,-0.033916,0.009272,-1.00418,-0.16478,-0.2625,0.33992
-0.31363,0,0,5.31363,5.31363,4.68637,4.68637,0.0560198,0.240712,21.737,0.00215993,-0.00189827,0.00853604,0,0,0,3.605,0.0525,-1.1025,-0.033916,0.009272,-1.00418,-0.16422,-0.26208,0.33922
-0.255414,0,0,5.25541,5.25541,4.74459,4.74459,0.0582756,0.252352,22.2927,0.00754512,-0.00112614,0.0106252,0,0,0,3.4125,0.245,-1.225,-0.028304,0.010004,-1.00211,-0.16422,-0.26208,0.33922
-0.234459,0,0,5.23446,5.23446,4.76554,4.76554,0.0601659,0.261766,22.8444,0.00628744,-0.000971026,0.00804256,0,0,0,3.395,0.0525,-1.2775,-0.029402,0.010126,-1.00467,-0.16422,-0.26208,0.33922
-0.230452,0,0,5.23045,5.23045,4.76955,4.76955,0.0619478,0.270512,23.3914,0.0061348,-0.000939926,0.00804181,0,0,0,3.36,-0.1925,-1.365,-0.029402,0.010126,-1.00467,-0.16422,-0.26208,0.33922
-0.109101,0,0,5.1091,5.1091,4.8909,4.8909,0.0619104,0.272123,23.9376,0.00136874,-8.56923e-05,0.00853348,0,0,0,3.29,-0.21,-1.365,-0.03416,0.01098,-1.00418,-0.16422,-0.26208,0.33922
-0.250129,0,0,5.25013,5.25013,4.74987,4.74987,0.0639336,0.280791,24.4752,0.0059554,-0.00114952,0.00373772,0,0,0,3.325,-0.1225,-1.2425,-0.029402,0.009882,-1.00894,-0.16422,-0.26208,0.33922
-0.254898,0,0,5.2549,5.2549,4.7451,4.7451,0.0659731,0.289494,25.008,0.0058035,-0.00111393,0.00373692,0,0,0,3.36,0.035,-1.2775,-0.029402,0.009882,-1.00894,-0.16422,-0.26208,0.33922
-0.16079,0,0,5.16079,5.16079,4.83921,4.83921,0.0665844,0.289425,25.541,-0.000269581,-0.000492626,0.00299922,0,0,0,3.4125,-0.0175,-1.225,-0.035502,0.010492,-1.00967,-0.16422,-0.26208,0.33922
-0.163125,0,0,5.16313,5.16313,4.83687,4.83687,0.0672135,0.289468,26.0662,-0.000270331,-0.000481645,0.00299921,0,0,0,3.43,0.0525,-1.26,-0.035502,0.010492,-1.00967,-0.16114,-0.25956,0.34412
-0.0187207,0,0,5.01872,5.01872,4.98128,4.98128,0.0657168,0.29221,26.5852,0.00259748,0.00132413,0.00103182,0,0,0,3.5525,0.0525,-1.19,-0.032574,0.012322,-1.01162,-0.16114,-0.25956,0.34412
-0.0265699,0,0,5.02657,5.02657,4.97343,4.97343,0.064374,0.294874,27.0994,0.00255098,0.0013007,0.00103161,0,0,0,3.6225,0.035,-1.295,-0.032574,0.012322,-1.01162,-0.16114,-0.25956,0.34412
-0.0474972,0,0,5.0475,5.0475,4.9525,4.9525,0.063372,0.29299,27.6114,-0.00118219,0.000794703,0.000908845,0,0,0,3.6225,0.1225,-1.435,-0.036356,0.011834,-1.01175,-0.16114,-0.25956,0.34412
-0.0323938,0,0,5.03239,5.03239,4.96761,4.96761,0.0621756,0.291074,28.1191,-0.00114875,0.000773823,0.000909039,0,0,0,3.5,0.07,-1.225,-0.036356,0.011834,-1.01175,-0.16114,-0.25956,0.34412
-0.111675,0,0,5.11168,5.11168,4.88832,4.88832,0.0621685,0.289232,28.622,-0.00135958,-8.11885e-05,0.00656483,0,0,0,3.465,-0.0525,-1.12,-0.0366,0.01098,-1.00613,-0.16114,-0.25956,0.34412
-0.118142,0,0,5.11814,5.11814,4.88186,4.88186,0.0622559,0.287464,29.1201,-0.00132872,-7.9663e-05,0.00656499,0,0,0,3.5175,-0.035,-1.26,-0.0366,0.01098,-1.00613,-0.16114,-0.25956,0.34412
-0.116547,0,0,5.11655,5.11655,4.88345,4.88345,0.0623176,0.292058,29.6098,0.00345053,0.000165666,0.000417154,0,0,0,3.4125,0.0525,-1.2775,-0.03172,0.011224,-1.01223,-0.16114,-0.25956,0.34412
-0.107905,0,0,5.1079,5.1079,4.8921,4.8921,0.0622513,0.296638,30.0961,0.0033706,0.000164508,0.000416745,0,0,0,3.3425,0.105,-1.33,-0.03172,0.011224,-1.01223,-0.16114,-0.2583,0.33908
-0.196929,0,0,5.19693,5.19693,4.80307,4.80307,0.0634868,0.294471,30.5813,-0.00217993,-0.00103519,0.00644139,0,0,0,3.4125,0.0525,-1.3125,-0.037332,0.010004,-1.00626,-0.16114,-0.2583,0.33908
-0.18262,0,0,5.18262,5.18262,4.81738,4.81738,0.0644807,0.29264,31.0623,-0.00214797,-0.00101785,0.00644154,0,0,0,3.29,0.2275,-1.155,-0.037332,0.010004,-1.00626,-0.16114,-0.2583,0.33908
-0.0991599,0,0,5.09916,5.09916,4.90084,4.90084,0.0642294,0.297525,31.5345,0.00371958,0.000321159,-0.00130465,0,0,0,3.3425,0.0875,-1.26,-0.031354,0.011346,-1.01394,-0.16114,-0.2583,0.33908
-0.120066,0,0,5.12007,5.12007,4.87993,4.87993,0.0642899,0.302146,32.0021,0.00363892,0.000322214,-0.00130508,0,0,0,3.5175,0,-1.2775,-0.031354,0.011346,-1.01394,-0.16114,-0.2583,0.33908
-0.0831789,0,0,5.08318,5.08318,4.91682,4.91682,0.0638099,0.306417,32.4653,0.0034429,0.00092447,0.00631734,0,0,0,3.7275,0.105,-1.3125,-0.031476,0.011956,-1.00638,-0.16114,-0.2583,0.33908
-0.0741295,0,0,5.07413,5.07413,4.92587,4.92587,0.0632102,0.310474,32.9243,0.00337208,0.000914003,0.00631698,0,0,0,3.6575,0.035,-1.19,-0.031476,0.011956,-1.00638,-0.16114,-0.2583,0.33908
-0.0937419,0,0,5.09374,5.09374,4.90626,4.90626,0.0629125,0.313062,33.3792,0.00211206,0.000420301,0.00176764,0,0,0,3.5,0.0175,-1.2425,-0.032696,0.011468,-1.01089,-0.16114,-0.2583,0.33908
-0.0938986,0,0,5.0939,5.0939,4.9061,4.9061,0.0626249,0.315602,33.8302,0.00206772,0.000415281,0.0017674,0,0,0,3.5,0.0175,-1.2425,-0.032696,0.011468,-1.01089,-0.16576,-0.26208,0.33684
-0.22379,0,0,5.22379,5.22379,4.77621,4.77621,0.0642418,0.318375,34.2763,0.00165487,-0.000899894,-0.000691866,0,0,0,3.465,0.035,-1.19,-0.033062,0.010126,-1.01333,-0.16576,-0.26208,0.33684
-0.223795,0,0,5.22379,5.22379,4.77621,4.77621,0.0658161,0.321065,34.7179,0.00160792,-0.000872417,-0.000692159,0,0,0,3.465,0.035,-1.19,-0.033062,0.010126,-1.01333,-0.16576,-0.26208,0.33684
-0.0112901,0,0,5.01129,5.01129,4.98871,4.98871,0.0642452,0.323699,35.1547,0.00277681,0.00105419,-0.00167597,0,0,0,3.29,-0.2275,-1.295,-0.031842,0.012078,-1.01431,-0.16576,-0.26208,0.33684
-0.0108498,0,0,5.01085,5.01085,4.98915,4.98915,0.062709,0.326288,35.5871,0.00273162,0.00102738,-0.0016762,0,0,0,3.29,-0.2275,-1.295,-0.031842,0.012078,-1.01431,-0.16576,-0.26208,0.33684
-0.168045,0,0,5.16804,5.16804,4.83196,4.83196,0.0635089,0.326909,36.0159,0.000655524,-0.000302052,0.00213513,0,0,0,3.5875,-0.245,-1.19,-0.033916,0.010736,-1.01053,-0.16576,-0.26208,0.33684
-0.168087,0,0,5.16809,5.16809,4.83191,4.83191,0.0642883,0.327507,36.4402,0.000645096,-0.000288449,0.00213505,0,0,0,3.5875,-0.245,-1.19,-0.033916,0.010736,-1.01053,-0.16576,-0.26208,0.33684
-0.19123,0,0,5.19123,5.19123,4.80877,4.80877,0.0653851,0.329556,36.8595,0.00133825,-0.000635688,-0.000570043,0,0,0,3.4125,-0.035,-1.1025,-0.033184,0.01037,-1.01321,-0.16576,-0.26208,0.33684
-0.298036,0,0,5.29804,5.29804,4.70196,4.70196,0.0680129,0.330493,37.2714,-1.44567e-05,-0.00181109,0.00754441,0,0,0,3.325,-0.07,-1.2425,-0.034526,0.00915,-1.00516,-0.16562,-0.26054,0.3402
-0.315421,0,0,5.31542,5.31542,4.68458,4.68458,0.0708253,0.331618,37.679,-3.4082e-05,-0.00176201,0.00754424,0,0,0,3.465,0.07,-1.26,-0.034526,0.00915,-1.00516,-0.16562,-0.26054,0.3402
-0.375946,0,0,5.37595,5.37595,4.62405,4.62405,0.0744477,0.330364,38.0831,-0.00183449,-0.00243155,0.00385583,0,0,0,3.4825,-0.1225,-1.2775,-0.036356,0.008418,-1.00882,-0.16562,-0.26054,0.3402
-0.376506,0,0,5.37651,5.37651,4.62349,4.62349,0.0779828,0.3291,38.4829,-0.00181242,-0.00236985,0.00385587,0,0,0,3.4825,-0.1225,-1.2775,-0.036356,0.008418,-1.00882,-0.16562,-0.26054,0.3402
-0.190095,0,0,5.19009,5.19009,4.80991,4.80991,0.0787022,0.332248,38.8763,0.00250612,-0.000281139,0.00717515,0,0,0,3.395,-0.21,-1.33,-0.031964,0.010492,-1.00552,-0.16562,-0.26054,0.3402
-0.189814,0,0,5.18981,5.18981,4.81019,4.81019,0.0793983,0.335315,39.2657,0.00245259,-0.000268989,0.00717482,0,0,0,3.395,-0.21,-1.33,-0.031964,0.010492,-1.00552,-0.16562,-0.26054,0.3402
-0.0485918,0,0,5.04859,5.04859,4.95141,4.95141,0.0780134,0.335124,39.6529,0.000147689,0.000805981,0.0124617,0,0,0,3.3775,-0.0175,-1.2425,-0.034282,0.01159,-1.00028,-0.16562,-0.26054,0.3402
0.113185,0,0,4.88681,4.88681,5.11319,5.11319,0.0743019,0.330013,40.0389,-0.00292174,0.00196247,0.00225754,0,0,0,3.3775,-0.1225,-1.12,-0.037454,0.01281,-1.0104,-0.16562,-0.26054,0.3402
0.0738562,0,0,4.92614,4.92614,5.07386,5.07386,0.0712621,0.32486,40.4186,-0.0028318,0.00190942,0.00225812,0,0,0,3.6925,-0.245,-1.365,-0.037454,0.01281,-1.0104,-0.1645,-0.25872,0.34314
-0.218437,0,0,5.21844,5.21844,4.78156,4.78156,0.0725713,0.324976,40.791,8.18355e-05,-0.000388139,-0.000446789,0,0,0,3.8325,-0.105,-1.365,-0.034526,0.010492,-1.01309,-0.1645,-0.25872,0.34314
-0.21845,0,0,5.21845,5.21845,4.78155,4.78155,0.0738461,0.325077,41.1594,8.00819e-05,-0.00036589,-0.000446828,0,0,0,3.8325,-0.105,-1.365,-0.034526,0.010492,-1.01309,-0.1645,-0.25872,0.34314
-0.160922,0,0,5.16092,5.16092,4.83908,4.83908,0.074247,0.326237,41.5234,0.00103171,-0.000236767,0.00483983,0,0,0,3.3775,-0.1925,-1.19,-0.03355,0.010614,-1.00784,-0.1645,-0.25872,0.34314
-0.160828,0,0,5.16083,5.16083,4.83917,4.83917,0.0746358,0.327367,41.8835,0.00101199,-0.000229981,0.00483971,0,0,0,3.3775,-0.1925,-1.19,-0.03355,0.010614,-1.00784,-0.1645,-0.25872,0.34314
0.0780529,0,0,4.92195,4.92195,5.07805,5.07805,0.0715252,0.326243,42.2417,-0.000304739,0.00203614,0.00631528,0,0,0,3.57,0.175,-1.2425,-0.034892,0.012932,-1.00638,-0.1645,-0.25872,0.34314
0.0780672,0,0,4.92193,4.92193,5.07807,5.07807,0.0684961,0.325178,42.5959,-0.000286137,0.00198327,0.00631545,0,0,0,3.57,0.175,-1.2425,-0.034892,0.012932,-1.00638,-0.1645,-0.25872,0.34314
-0.11972,0,0,5.11972,5.11972,4.88028,4.88028,0.0684352,0.326978,42.9444,0.00150472,0.000516687,0.0041022,0,0,0,3.745,0.0525,-1.1375,-0.033062,0.011468,-1.00857,-0.1645,-0.25872,0.34314
-0.11928,0,0,5.11928,5.11928,4.88072,4.88072,0.0683693,0.328737,43.2928,0.00147402,0.000515537,0.00410202,0,0,0,3.745,0.0525,-1.1375,-0.033062,0.011468,-1.00857,-0.16408,-0.26096,0.33978
0.0644795,0,0,4.93552,4.93552,5.06448,5.06448,0.0656212,0.326951,43.639,-0.000560057,0.00168884,0.00483995,0,0,0,3.5,-0.1225,-1.295,-0.035136,0.012688,-1.00784,-0.16408,-0.26096,0.33978
-0.525517,0,0,5.52552,5.52552,4.47448,4.47448,0.0715624,0.329839,43.977,0.00109034,-0.00333679,0.000659284,0,0,0,3.6575,-0.1225,-1.4525,-0.033428,0.007564,-1.01199,-0.16408,-0.26096,0.33978
-0.499673,0,0,5.49967,5.49967,4.50033,4.50033,0.0769697,0.332722,44.3117,0.00104002,-0.00324242,0.000658871,0,0,0,3.4475,-0.0525,-1.225,-0.033428,0.007564,-1.01199,-0.16408,-0.26096,0.33978
0.0394927,0,0,4.96051,4.96051,5.03949,5.03949,0.0743599,0.33108,44.6463,-0.000753608,0.0015971,-0.000939233,0,0,0,3.5175,0.0875,-1.295,-0.035258,0.012444,-1.01358,-0.16408,-0.26096,0.33978
0.0330126,0,0,4.96699,4.96699,5.03301,5.03301,0.0719132,0.329263,44.977,-0.000721889,0.0015544,-0.000938996,0,0,0,3.57,-0.0525,-1.47,-0.035258,0.012444,-1.01358,-0.16408,-0.26096,0.33978
-0.375249,0,0,5.37525,5.37525,4.62475,4.62475,0.0754935,0.330785,45.3009,0.000466395,-0.00204691,0.010495,0,0,0,3.5175,-0.105,-1.4525,-0.034038,0.008784,-1.00223,-0.16408,-0.26096,0.33978
-0.402942,0,0,5.40294,5.40294,4.59706,4.59706,0.0793841,0.332266,45.6215,0.00044054,-0.00197901,0.0104947,0,0,0,3.745,-0.0875,-1.225,-0.034038,0.008784,-1.00223,-0.16408,-0.26096,0.33978
-0.002522,0,0,5.00252,5.00252,4.99748,4.99748,0.0773238,0.333683,45.9341,0.00199512,0.00177096,0.000781714,0,0,0,3.7275,-0.1575,-1.12,-0.032452,0.012566,-1.01187,-0.16254,-0.2555,0.34832
-0.193217,0,0,5.19322,5.19322,4.80678,4.80678,0.0781027,0.335167,46.2424,0.000875855,-0.000291602,0.00594538,0,0,0,3.535,0.105,-1.155,-0.03355,0.010492,-1.00674,-0.16254,-0.2555,0.34832
-0.192803,0,0,5.1928,5.1928,4.8072,4.8072,0.0788549,0.336282,46.547,0.000856392,-0.000278474,0.00594525,0,0,0,3.535,-0.0875,-1.3125,-0.03355,0.010492,-1.00674,-0.16254,-0.2555,0.34832
-0.0692429,0,0,5.06924,5.06924,4.93076,4.93076,0.0777824,0.333951,46.8501,-0.00153263,0.00043557,0.00471603,0,0,0,3.395,-0.105,-1.295,-0.03599,0.011224,-1.00796,-0.16254,-0.2555,0.34832
-0.093196,0,0,5.0932,5.0932,4.9068,4.9068,0.0770879,0.33156,47.1499,-0.00149091,0.000423448,0.00471629,0,0,0,3.5875,-0.175,-1.225,-0.03599,0.011224,-1.00796,-0.16254,-0.2555,0.34832
-0.135704,0,0,5.1357,5.1357,4.8643,4.8643,0.0770323,0.334099,47.444,0.00210935,0.000300351,0.00385539,0,0,0,3.5,-0.0175,-1.2425,-0.03233,0.011102,-1.00882,-0.16254,-0.2555,0.34832
-0.137485,0,0,5.13749,5.13749,4.86251,4.86251,0.077004,0.33685,47.7348,0.00206134,0.000299857,0.00385511,0,0,0,3.5175,0.14,-1.2425,-0.03233,0.011102,-1.00882,-0.16254,-0.2555,0.34832
0.222901,0,0,4.7771,4.7771,5.2229,5.2229,0.0717127,0.334926,48.0255,-0.000334798,0.00313855,0.00508491,0,0,0,3.4125,-0.035,-1.2775,-0.03477,0.01403,-1.0076,-0.16254,-0.2555,0.34832
0.213811,0,0,4.78619,4.78619,5.21381,5.21381,0.066693,0.333096,48.3146,-0.000302845,0.00305094,0.0050852,0,0,0,3.5,-0.0175,-1.33,-0.03477,0.01403,-1.0076,-0.16618,-0.25816,0.33474
0.0195751,0,0,4.98042,4.98042,5.01958,5.01958,0.0646422,0.335893,48.5977,0.00280696,0.0014275,-0.00302964,0,0,0,3.36,-0.035,-1.3125,-0.031598,0.012444,-1.01565,-0.16618,-0.25816,0.33474
-0.00352096,0,0,5.00352,5.00352,4.99648,4.99648,0.0629824,0.338645,48.8773,0.00275893,0.00139853,-0.00302989,0,0,0,3.5525,-0.035,-1.3825,-0.031598,0.012444,-1.01565,-0.16618,-0.25816,0.33474
-0.185456,0,0,5.18546,5.18546,4.81454,4.81454,0.0640234,0.342248,49.1526,0.00269604,-0.000293074,0.00237945,0,0,0,3.5,0.0175,-1.4175,-0.031598,0.010736,-1.01028,-0.16618,-0.25816,0.33474
-0.159304,0,0,5.1593,5.1593,4.8407,4.8407,0.0646549,0.345673,49.4251,0.00263627,-0.000282053,0.00237908,0,0,0,3.29,-0.035,-1.1375,-0.031598,0.010736,-1.01028,-0.16618,-0.25816,0.33474
0.0153228,0,0,4.98468,4.98468,5.01532,5.01532,0.0627192,0.343031,49.6975,-0.0018126,0.000905431,0.00434657,0,0,0,3.395,0.035,-1.2075,-0.036112,0.011956,-1.00833,-0.16618,-0.25816,0.33474
0.0190177,0,0,4.98098,4.98098,5.01902,5.01902,0.0607803,0.340526,49.9666,-0.00176887,0.000871591,0.00434687,0,0,0,3.36,0.07,-1.26,-0.036112,0.011956,-1.00833,-0.16618,-0.25816,0.33474
-0.111064,0,0,5.11106,5.11106,4.88894,4.88894,0.0607921,0.341547,50.2306,0.00100747,0.000261163,4.35617e-05,0,0,0,3.605,-0.07,-1.295,-0.033306,0.011346,-1.0126,-0.16618,-0.25816,0.33474
-0.106356,0,0,5.10636,5.10636,4.89364,4.89364,0.0607347,0.342631,50.495,0.000988553,0.000260161,4.34498e-05,0,0,0,3.57,-0.0175,-1.1725,-0.033306,0.011346,-1.0126,-0.16422,-0.26278,0.34706
-0.232391,0,0,5.23239,5.23239,4.76761,4.76761,0.0625195,0.346686,50.7546,0.00274007,-0.000807829,0.00459208,0,0,0,3.43,0.1225,-1.1375,-0.031476,0.010248,-1.00809,-0.16422,-0.26278,0.34706
-0.227234,0,0,5.22723,5.22723,4.77277,4.77277,0.0641819,0.350696,51.0111,0.00267008,-0.000778816,0.00459163,0,0,0,3.395,0.1575,-1.225,-0.031476,0.010248,-1.00809,-0.16422,-0.26278,0.34706
-0.0871056,0,0,5.08711,5.08711,4.91289,4.91289,0.0637538,0.354725,51.2652,0.00308572,0.000557106,0.00409941,0,0,0,3.43,0.21,-1.2075,-0.030988,0.01159,-1.00857,-0.16422,-0.26278,0.34706
-0.0650138,0,0,5.06501,5.06501,4.93499,4.93499,0.0630142,0.35849,51.5163,0.00302001,0.000544197,0.00409901,0,0,0,3.255,0.105,-1.225,-0.030988,0.01159,-1.00857,-0.16422,-0.26278,0.34706
0.214714,0,0,4.78529,4.78529,5.21471,5.21471,0.0582083,0.355404,51.7684,-0.00166407,0.0026586,0.00176342,0,0,0,3.4125,0.0875,-1.225,-0.035746,0.013786,-1.01089,-0.16422,-0.26278,0.34706
0.202992,0,0,4.79701,4.79701,5.20299,5.20299,0.0536998,0.352426,52.0177,-0.0016121,0.00257992,0.00176381,0,0,0,3.5,0.0875,-1.1025,-0.035746,0.013786,-1.01089,-0.16422,-0.26278,0.34706
-0.195108,0,0,5.19511,5.19511,4.80489,4.80489,0.0551242,0.358949,52.2589,0.00459131,-0.000326267,0.00569744,0,0,0,3.4825,0.3325,-1.1025,-0.029402,0.010858,-1.00699,-0.16422,-0.26278,0.34706
-0.181789,0,0,5.18179,5.18179,4.81821,4.81821,0.0563165,0.365148,52.497,0.00448311,-0.000305458,0.00569673,0,0,0,3.3775,0.2275,-1.2075,-0.029402,0.010858,-1.00699,-0.16422,-0.25998,0.33754
0.0603384,0,0,4.93966,4.93966,5.06034,5.06034,0.053941,0.362839,52.7363,-0.00155087,0.00124073,0.00311511,0,0,0,3.4475,0.0875,-1.225,-0.035502,0.012444,-1.00955,-0.16422,-0.25998,0.33754
0.072544,0,0,4.92746,4.92746,5.07254,5.07254,0.0514495,0.360302,52.9728,-0.0015066,0.00119725,0.00311543,0,0,0,3.3425,-0.0875,-1.225,-0.035502,0.012444,-1.00955,-0.16422,-0.25998,0.33754
-0.0435489,0,0,5.04355,5.04355,4.95645,4.95645,0.050719,0.365245,53.2032,0.00411697,0.000818116,0.00569681,0,0,0,3.395,0.0525,-1.295,-0.029768,0.012078,-1.00699,-0.16422,-0.25998,0.33754
-0.0639764,0,0,5.06398,5.06398,4.93602,4.93602,0.0503059,0.370054,53.4307,0.00403303,0.000810907,0.00569628,0,0,0,3.57,0.035,-1.4175,-0.029768,0.012078,-1.00699,-0.16422,-0.25998,0.33754
0.05468,0,0,4.94532,4.94532,5.05468,5.05468,0.0481706,0.369494,53.6578,-8.77142e-05,0.00138427,0.00594227,0,0,0,3.57,0.0525,-1.4875,-0.033916,0.012688,-1.00674,-0.16422,-0.25998,0.33754
0.0649118,0,0,4.93509,4.93509,5.06491,5.06491,0.0459419,0.368756,53.8826,-7.48175e-05,0.00134537,0.00594239,0,0,0,3.4825,-0.07,-1.2775,-0.033916,0.012688,-1.00674,-0.16422,-0.25998,0.33754
-0.291439,0,0,5.29144,5.29144,4.70856,4.70856,0.0489763,0.371108,54.1021,0.00146345,-0.00165483,0.00213068,0,0,0,3.4475,-0.0875,-1.155,-0.03233,0.009638,-1.01053,-0.16422,-0.25998,0.33754
-0.301386,0,0,5.30139,5.30139,4.69861,4.69861,0.0520762,0.373384,54.319,0.00142372,-0.00160073,0.00213037,0,0,0,3.535,-0.0875,-1.12,-0.03233,0.009638,-1.01053,-0.16422,-0.25998,0.33754
-0.150682,0,0,5.15068,5.15068,4.84932,4.84932,0.0528933,0.374422,54.5397,0.000798179,-0.000243077,-0.000205783,0,0,0,3.605,-0.0175,-1.085,-0.03294,0.01098,-1.01284,-0.1603,-0.2611,0.3416
-0.17882,0,0,5.17882,5.17882,4.82118,4.82118,0.0540998,0.374554,54.7576,-0.000176024,-0.0005884,0.00422033,0,0,0,3.5875,0.0525,-1.295,-0.033916,0.010614,-1.00845,-0.1603,-0.2611,0.3416
-0.193544,0,0,5.19354,5.19354,4.80646,4.80646,0.0554895,0.374615,54.9727,-0.000177085,-0.000564146,0.0042203,0,0,0,3.71,0.0175,-1.3825,-0.033916,0.010614,-1.00845,-0.1603,-0.2611,0.3416
9.64693e-05,0,0,4.9999,4.9999,5.0001,5.0001,0.0540144,0.374456,55.1862,6.86725e-05,0.000875629,0.00704816,0,0,0,3.4475,0.035,-1.3825,-0.033672,0.012078,-1.00565,-0.1603,-0.2611,0.3416
0.0148082,0,0,4.98519,4.98519,5.01481,5.01481,0.052363,0.374102,55.3973,7.48451e-05,0.000846807,0.00704822,0,0,0,3.325,-0.0875,-1.295,-0.033672,0.012078,-1.00565,-0.1603,-0.2611,0.3416
0.031192,0,0,4.96881,4.96881,5.03119,5.03119,0.0505156,0.373778,55.606,8.05023e-05,0.000936692,-0.00475477,0,0,0,3.3075,0,-1.2425,-0.033672,0.0122,-1.01736,-0.1603,-0.2611,0.3416
0.0181173,0,0,4.98188,4.98188,5.01812,5.01812,0.0489076,0.373653,55.8122,8.26732e-05,0.000908628,-0.00475473,0,0,0,3.4125,0.105,-1.33,-0.033672,0.0122,-1.01736,-0.1603,-0.2611,0.3416
0.0806287,0,0,4.91937,4.91937,5.08063,5.08063,0.0464288,0.370115,56.0172,-0.00252826,0.00110962,-0.00364776,0,0,0,3.3775,0.0175,-1.33,-0.036356,0.012444,-1.01626,-0.1603,-0.2611,0.3416
0.0888483,0,0,4.91115,4.91115,5.08885,5.08885,0.043895,0.366576,56.2188,-0.0024665,0.0010654,-0.00364732,0,0,0,3.3075,-0.035,-1.3825,-0.036356,0.012444,-1.01626,-0.16184,-0.26166,0.3381
-0.234554,0,0,5.23455,5.23455,4.76545,4.76545,0.0461512,0.363269,56.4167,-0.00338066,-0.00133776,0.00729543,0,0,0,3.78,0.175,-1.4,-0.037332,0.010004,-1.0054,-0.16184,-0.26166,0.3381
-0.224269,0,0,5.22427,5.22427,4.77573,4.77573,0.0481978,0.359659,56.6125,-0.00331765,-0.00130204,0.0072958,0,0,0,3.6925,-0.035,-1.26,-0.037332,0.010004,-1.0054,-0.16184,-0.26166,0.3381
-0.0484143,0,0,5.04841,5.04841,4.95159,4.95159,0.047622,0.356129,56.8064,-0.00301308,-9.08217e-05,0.00508312,0,0,0,3.36,0.07,-1.3825,-0.037088,0.011224,-1.0076,-0.16184,-0.26166,0.3381
-0.0427189,0,0,5.04272,5.04272,4.95728,4.95728,0.0469781,0.352321,56.998,-0.00294662,-0.00010206,0.00508354,0,0,0,3.3075,-0.14,-1.4175,-0.037088,0.011224,-1.0076,-0.16184,-0.26166,0.3381
0.388948,0,0,4.61105,4.61105,5.38895,5.38895,0.0400462,0.352469,57.1884,0.00142429,0.00417352,-0.00401457,0,0,0,3.3775,0.0175,-1.33,-0.032696,0.015616,-1.01663,-0.16184,-0.26166,0.3381
0.375209,0,0,4.62479,4.62479,5.37521,5.37521,0.0334971,0.352872,57.3765,0.00141725,0.00405922,-0.00401454,0,0,0,3.4825,0.14,-1.3475,-0.032696,0.015616,-1.01663,-0.16184,-0.26166,0.3381
-0.230249,0,0,5.23025,5.23025,4.76975,4.76975,0.0359633,0.353413,57.5591,-5.00136e-05,-0.00127131,0.0131982,0,0,0,3.605,0.0175,-1.3825,-0.03416,0.010248,-0.999546,-0.16184,-0.26166,0.3381
-0.229877,0,0,5.22988,5.22988,4.77012,4.77012,0.0383591,0.353744,57.7381,-5.5801e-05,-0.0012295,0.0131981,0,0,0,3.605,-0.0875,-1.1725,-0.03416,0.010248,-0.999546,-0.16254,-0.26026,0.33684
-0.429725,0,0,5.42972,5.42972,4.57028,4.57028,0.0436107,0.34851,57.9156,-0.00506684,-0.00345825,0.00643642,0,0,0,3.6225,-0.1925,-1.19,-0.039284,0.00793,-1.00626,-0.16254,-0.26026,0.33684
-0.430044,0,0,5.43004,5.43004,4.56996,4.56996,0.0487289,0.343649,58.0909,-0.004982,-0.00336893,0.00643687,0,0,0,3.6225,-0.0175,-1.225,-0.039284,0.00793,-1.00626,-0.16254,-0.26026,0.33684
0.254259,0,0,4.74574,4.74574,5.25426,5.25426,0.0437176,0.310539,58.2762,-0.027122,8.52921e-05,0.00828446,0,0,0,3.605,0.105,-1.365,-0.062098,0.011468,-1.00443,-0.16254,-0.26026,0.33684
0.242529,0,0,4.75747,4.75747,5.24253,5.24253,0.0390094,0.277814,58.4592,-0.0265508,3.12105e-06,0.00828745,0,0,0,3.64,-0.105,-1.3825,-0.062098,0.011468,-1.00443,-0.16254,-0.26026,0.33684
-0.601726,0,0,5.60173,5.60173,4.39827,4.39827,0.0467557,0.31482,58.6142,0.0296586,-0.00120508,0.0136937,0,0,0,3.4475,-0.035,-1.365,-0.005002,0.010126,-0.999058,-0.16254,-0.26026,0.33684
-0.574002,0,0,5.574,5.574,4.426,4.426,0.0538934,0.350658,58.7675,0.0290331,-0.00108051,0.01369,0,0,0,3.29,-0.2275,-1.2425,-0.005002,0.010126,-0.999058,-0.16254,-0.26026,0.33684
0.119302,0,0,4.8807,4.8807,5.1193,5.1193,0.0507171,0.349316,58.9336,-0.000464448,0.00167297,-0.00155542,0,0,0,3.325,-0.0875,-1.4,-0.034648,0.012932,-1.01419,-0.16254,-0.26026,0.33684
0.120534,0,0,4.87947,4.87947,5.12053,5.12053,0.0476062,0.348024,59.1013,-0.000441905,0.00161868,-0.00155523,0,0,0,3.3075,-0.0875,-1.33,-0.034648,0.012932,-1.01419,-0.16058,-0.2618,0.33894
-0.447898,0,0,5.4479,5.4479,4.5521,4.5521,0.0528793,0.343288,59.2652,-0.0049757,-0.00378499,0.00655979,0,0,0,3.3075,-0.035,-1.2075,-0.039284,0.007442,-1.00613,-0.16058,-0.2618,0.33894
-0.452319,0,0,5.45232,5.45232,4.54768,4.54768,0.0580782,0.338586,59.4272,-0.00489364,-0.00369426,0.00656019,0,0,0,3.3425,-0.0525,-1.2425,-0.039284,0.007442,-1.00613,-0.16058,-0.2618,0.33894
-0.0339176,0,0,5.03392,5.03392,4.96608,4.96608,0.0570293,0.337711,59.5883,-0.000504893,0.000439746,0.00422427,0,0,0,3.3425,-0.07,-1.19,-0.034892,0.01159,-1.00845,-0.16058,-0.2618,0.33894
-0.0449923,0,0,5.04499,5.04499,4.95501,4.95501,0.0561696,0.336892,59.7475,-0.000490589,0.000424742,0.00422437,0,0,0,3.43,-0.0525,-1.1375,-0.034892,0.01159,-1.00845,-0.16058,-0.2618,0.33894
-0.351784,0,0,5.35178,5.35178,4.64822,4.64822,0.0598133,0.337486,59.9027,-1.50071e-05,-0.00207633,0.00692912,0,0,0,3.5,-0.0875,-1.1725,-0.034404,0.009028,-1.00577,-0.16058,-0.2618,0.33894
-0.35109,0,0,5.35109,5.35109,4.64891,4.64891,0.0633509,0.33861,60.0559,-3.46367e-05,-0.00201459,0.00692893,0,0,0,3.5,0.245,-1.2775,-0.034404,0.009028,-1.00577,-0.16058,-0.2618,0.33894
-0.381427,0,0,5.38143,5.38143,4.61857,4.61857,0.0672384,0.340682,60.2068,0.000901084,-0.00231312,0.00889582,0,0,0,3.3075,0.07,-1.1375,-0.033428,0.008662,-1.00382,-0.16058,-0.2618,0.33894
-0.362976,0,0,5.36298,5.36298,4.63702,4.63702,0.0707541,0.342625,60.355,0.000867183,-0.00225176,0.00889554,0,0,0,3.1675,0.035,-1.3475,-0.033428,0.008662,-1.00382,-0.16268,-0.26628,0.34636
0.0629362,0,0,4.93706,4.93706,5.06294,5.06294,0.0679565,0.345728,60.5032,0.00299977,0.00160747,0.00557567,0,0,0,3.115,0,-1.4175,-0.031232,0.012566,-1.00711,-0.16268,-0.26628,0.34636
0.0374814,0,0,4.96252,4.96252,5.03748,5.03748,0.0656041,0.348424,60.6497,0.00295271,0.00156641,0.00557543,0,0,0,3.325,-0.21,-1.3825,-0.031232,0.012566,-1.00711,-0.16268,-0.26628,0.34636
0.138824,0,0,4.86118,4.86118,5.13882,5.13882,0.0618332,0.345711,60.7967,-0.00125194,0.00198911,-0.000817533,0,0,0,3.3775,-0.2975,-1.26,-0.035502,0.013054,-1.01345,-0.16268,-0.26628,0.34636
0.129064,0,0,4.87094,4.87094,5.12906,5.12906,0.0583039,0.343318,60.942,-0.00121018,0.00192751,-0.000817217,0,0,0,3.4475,-0.1575,-1.225,-0.035502,0.013054,-1.01345,-0.16268,-0.26628,0.34636
-0.739155,0,0,5.73915,5.73915,4.26085,4.26085,0.0675481,0.381337,61.0692,0.0309274,-0.00206346,0.0101208,0,0,0,3.3425,-0.105,-1.225,-0.002562,0.008906,-1.0026,-0.16268,-0.26628,0.34636
-0.734285,0,0,5.73428,5.73428,4.26572,4.26572,0.076478,0.418742,61.1949,0.0302746,-0.00190762,0.0101161,0,0,0,3.3775,0.035,-1.2425,-0.002562,0.008906,-1.0026,-0.16268,-0.26628,0.34636
-0.305479,0,0,5.30548,5.30548,4.69452,4.69452,0.0789099,0.454823,61.3217,0.0301308,0.00204288,0.0115866,0,0,0,3.535,0.105,-1.2425,-0.002074,0.01281,-1.00113,-0.16268,-0.26628,0.34636
-0.301784,0,0,5.30178,5.30178,4.69822,4.69822,0.0812238,0.489957,61.4467,0.0295176,0.00208325,0.0115815,0,0,0,3.57,0,-1.47,-0.002074,0.01281,-1.00113,-0.16268,-0.26628,0.34636
-0.0242003,0,0,5.0242,5.0242,4.9758,4.9758,0.0794224,0.486941,61.5825,-0.00238046,0.000586291,0.00924595,0,0,0,3.255,-0.0175,-1.26,-0.03416,0.011346,-1.00345,-0.1624,-0.26586,0.34468
-0.0380735,0,0,5.03807,5.03807,4.96193,4.96193,0.0778708,0.48397,61.7169,-0.0023286,0.000559212,0.00924643,0,0,0,3.36,-0.035,-1.1375,-0.03416,0.011346,-1.00345,-0.1624,-0.26586,0.34468
-0.354351,0,0,5.35435,5.35435,4.64565,4.64565,0.0809792,0.484544,61.8469,-0.000273373,-0.00170695,0.00801679,0,0,0,3.57,0.1575,-1.26,-0.032086,0.009028,-1.00467,-0.1624,-0.26586,0.34468
-0.357943,0,0,5.35794,5.35794,4.64206,4.64206,0.0840582,0.485358,61.9753,-0.000287563,-0.00165321,0.00801659,0,0,0,3.605,0.315,-1.3475,-0.032086,0.009028,-1.00467,-0.1624,-0.26586,0.34468
0.229929,0,0,4.77007,4.77007,5.22993,5.22993,0.0784698,0.481847,62.1064,-0.00253452,0.0030122,-0.00366286,0,0,0,3.465,0.2975,-1.3475,-0.034404,0.013786,-1.01626,-0.1624,-0.26586,0.34468
0.217579,0,0,4.78242,4.78242,5.21758,5.21758,0.0732086,0.477965,62.236,-0.00246677,0.00292038,-0.00366217,0,0,0,3.5525,0.0175,-1.295,-0.034404,0.013786,-1.01626,-0.1624,-0.26586,0.34468
0.2105,0,0,4.7895,4.7895,5.2105,5.2105,0.0681889,0.471169,62.3649,-0.00502086,0.0024664,0.00420762,0,0,0,3.535,-0.0175,-1.2075,-0.037088,0.01342,-1.00845,-0.1624,-0.26586,0.34468
0.203963,0,0,4.79604,4.79604,5.20396,5.20396,0.0633966,0.464606,62.4923,-0.0049063,0.00238276,0.00420865,0,0,0,3.57,0.0175,-1.2075,-0.037088,0.01342,-1.00845,-0.1624,-0.26586,0.34468
0.0818495,0,0,4.91815,4.91815,5.08185,5.08185,0.0605136,0.46033,62.612,-0.00325237,0.00135543,0.000889699,0,0,0,3.4825,0.0175,-1.12,-0.035502,0.012444,-1.01175,-0.16324,-0.26026,0.34454
0.414838,0,0,4.58516,4.58516,5.41484,5.41484,0.0528428,0.452326,62.7328,-0.00566386,0.00390834,-0.00242867,0,0,0,3.4825,-0.0175,-1.2775,-0.038064,0.015128,-1.01504,-0.16324,-0.26026,0.34454
0.4033,0,0,4.5967,4.5967,5.4033,5.4033,0.0455421,0.444442,62.8523,-0.00552627,0.00378093,-0.00242748,0,0,0,3.5525,-0.07,-1.225,-0.038064,0.015128,-1.01504,-0.16324,-0.26026,0.34454
-0.237123,0,0,5.23712,5.23712,4.76288,4.76288,0.047787,0.441815,62.9653,-0.00256477,-0.00155347,0.00654808,0,0,0,3.5,-0.0525,-1.3125,-0.035136,0.00976,-1.00613,-0.16324,-0.26026,0.34454
-0.241711,0,0,5.24171,5.24171,4.75829,4.75829,0.0500399,0.439229,63.077,-0.00251965,-0.00151415,0.0065484,0,0,0,3.535,-0.0525,-1.19,-0.035136,0.00976,-1.00613,-0.16324,-0.26026,0.34454
0.229665,0,0,4.77033,4.77033,5.22967,5.22967,0.0453486,0.431021,63.1917,-0.00626394,0.0021899,-0.000458511,0,0,0,3.5875,-0.0525,-1.155,-0.03904,0.013542,-1.01309,-0.16324,-0.26026,0.34454
0.231429,0,0,4.76857,4.76857,5.23143,5.23143,0.0407548,0.422951,63.3049,-0.00612308,0.00210973,-0.000457401,0,0,0,3.5525,-0.0875,-1.1725,-0.03904,0.013542,-1.01309,-0.16324,-0.26026,0.34454
-0.116689,0,0,5.11669,5.11669,4.88331,4.88331,0.0413662,0.419575,63.4136,-0.00278405,-0.000566391,-0.00389953,0,0,0,3.57,-0.1225,-1.225,-0.035746,0.010858,-1.0165,-0.16324,-0.26026,0.34454
-0.118627,0,0,5.11863,5.11863,4.88137,4.88137,0.0419897,0.416455,63.528,-0.00272959,-0.000555508,-0.00389914,0,0,0,3.57,-0.0175,-1.1725,-0.035746,0.010858,-1.0165,-0.15862,-0.26138,0.3451
0.236591,0,0,4.76341,4.76341,5.23659,5.23659,0.0374085,0.413117,63.6429,-0.00242836,0.00241771,-0.00033316,0,0,0,3.4475,0.1575,-1.2775,-0.035502,0.013908,-1.01297,-0.15862,-0.26138,0.3451
0.254278,0,0,4.74572,4.74572,5.25428,5.25428,0.0326894,0.409396,63.7567,-0.00236343,0.00233535,-0.000332644,0,0,0,3.29,-0.1225,-1.12,-0.035502,0.013908,-1.01297,-0.15862,-0.26138,0.3451
-0.115782,0,0,5.11578,5.11578,4.88422,4.88422,0.0334993,0.406583,63.8666,-0.00243582,-0.000947942,0.000405389,0,0,0,3.2725,-0.1225,-1.225,-0.035624,0.010614,-1.01223,-0.15862,-0.26138,0.3451
-0.116155,0,0,5.11616,5.11616,4.88384,4.88384,0.0342932,0.403853,63.975,-0.00238817,-0.000934086,0.000405717,0,0,0,3.2725,-0.105,-1.33,-0.035624,0.010614,-1.01223,-0.15862,-0.26138,0.3451
-0.345024,0,0,5.34502,5.34502,4.65498,4.65498,0.038409,0.405025,64.0797,0.000385553,-0.00257203,0.0124545,0,0,0,3.2375,-0.0875,-1.365,-0.032818,0.008906,-1.00028,-0.15862,-0.26138,0.3451
-0.359051,0,0,5.35905,5.35905,4.64095,4.64095,0.0426213,0.406388,64.1831,0.000361759,-0.00249851,0.0124543,0,0,0,3.36,0.0525,-1.4,-0.032818,0.008906,-1.00028,-0.15862,-0.26138,0.3451
0.0734209,0,0,4.92658,4.92658,5.07342,5.07342,0.0404063,0.404435,64.2889,-0.00191239,0.00100451,-0.000578012,0,0,0,3.3775,0.35,-1.33,-0.035136,0.012444,-1.01321,-0.15862,-0.26138,0.3451
0.0891654,0,0,4.91083,4.91083,5.08917,5.08917,0.0380194,0.401926,64.3853,-0.0018686,0.000962849,-0.000577675,0,0,0,3.255,0,-1.26,-0.035136,0.012444,-1.01321,-0.16562,-0.26278,0.3395
0.370371,0,0,4.62963,4.62963,5.37037,5.37037,0.0315881,0.396645,64.483,-0.00335573,0.00317101,-0.00266709,0,0,0,3.255,-0.21,-1.19,-0.036722,0.014762,-1.01528,-0.16562,-0.26278,0.3395
0.338181,0,0,4.66182,4.66182,5.33818,5.33818,0.0257959,0.391775,64.5794,-0.00327074,0.00306992,-0.00266645,0,0,0,3.5,-0.0525,-1.225,-0.036722,0.014762,-1.01528,-0.16562,-0.26278,0.3395
-0.165832,0,0,5.16583,5.16583,4.83417,4.83417,0.0275174,0.39408,64.67,0.00179142,-0.000808089,0.00348068,0,0,0,3.4475,-0.035,-1.225,-0.031598,0.010858,-1.00918,-0.16562,-0.26278,0.3395
-0.169272,0,0,5.16927,5.16927,4.83073,4.83073,0.0292438,0.396539,64.7594,0.00174851,-0.000777959,0.00348037,0,0,0,3.4825,0.0875,-1.2775,-0.031598,0.010858,-1.00918,-0.16562,-0.26278,0.3395
0.0534632,0,0,4.94654,4.94654,5.05346,5.05346,0.0276716,0.397637,64.8492,0.00100043,0.0010265,-0.000945895,0,0,0,3.4475,0.14,-1.3475,-0.03233,0.012688,-1.01358,-0.16562,-0.26278,0.3395
0.0833319,0,0,4.91667,4.91667,5.08333,5.08333,0.0257043,0.398542,64.9379,0.000984631,0.000992169,-0.000945989,0,0,0,3.2025,0.035,-1.3125,-0.03233,0.012688,-1.01358,-0.16562,-0.26278,0.3395
-0.0326202,0,0,5.03262,5.03262,4.96738,4.96738,0.0254824,0.392357,65.0267,-0.00558913,-0.000721479,0.00225142,0,0,0,3.2725,0.105,-1.295,-0.03904,0.01098,-1.0104,-0.16562,-0.26278,0.3395
-0.0322365,0,0,5.03224,5.03224,4.96776,4.96776,0.0252605,0.386452,65.1147,-0.00548606,-0.00072535,0.00225212,0,0,0,3.255,0.1925,-1.3475,-0.03904,0.01098,-1.0104,-0.16394,-0.25984,0.33838
0.11563,0,0,4.88437,4.88437,5.11563,5.11563,0.0228848,0.385095,65.2016,-0.00121039,0.00118721,-0.00155911,0,0,0,3.395,0.245,-1.365,-0.03477,0.012932,-1.01419,-0.16394,-0.25984,0.33838
0.0955967,0,0,4.9044,4.9044,5.0956,5.0956,0.0208641,0.383928,65.2876,-0.00119002,0.00115195,-0.00155896,0,0,0,3.5525,0.3325,-1.26,-0.03477,0.012932,-1.01419,-0.16394,-0.25984,0.33838
-0.320777,0,0,5.32078,5.32078,4.67922,4.67922,0.0249779,0.385949,65.3692,0.000596999,-0.00231793,0.00741602,0,0,0,3.465,0.35,-1.295,-0.03294,0.009394,-1.00528,-0.16394,-0.25984,0.33838
-0.336663,0,0,5.33666,5.33666,4.66334,4.66334,0.0292155,0.387309,65.4498,0.000573251,-0.00224397,0.00741582,0,0,0,3.605,0,-1.33,-0.03294,0.009394,-1.00528,-0.16394,-0.25984,0.33838
-0.384444,0,0,5.38444,5.38444,4.61556,4.61556,0.0340394,0.39033,65.5287,0.00185688,-0.00264829,0.0106121,0,0,0,3.395,0,-1.295,-0.031598,0.008906,-1.00211,-0.16394,-0.25984,0.33838
-0.378627,0,0,5.37863,5.37863,4.62137,4.62137,0.0386515,0.393383,65.6065,0.00180359,-0.00256779,0.0106117,0,0,0,3.36,0.07,-1.365,-0.031598,0.008906,-1.00211,-0.16394,-0.25984,0.33838
0.020277,0,0,4.97972,4.97972,5.02028,5.02028,0.037316,0.390611,65.6872,-0.00252152,0.000462067,0.00274331,0,0,0,3.43,0.175,-1.295,-0.03599,0.011956,-1.00992,-0.16394,-0.25984,0.33838
0.0274169,0,0,4.97258,4.97258,5.02742,5.02742,0.0359113,0.387936,65.7708,-0.00247482,0.00043755,0.00274364,0,0,0,3.36,0.1925,-1.19,-0.03599,0.011956,-1.00992,-0.16226,-0.26208,0.3395
0.137273,0,0,4.86273,4.86273,5.13727,5.13727,0.0329389,0.385968,65.8537,-0.00159008,0.00136269,0.00643236,0,0,0,3.2725,0.14,-1.2775,-0.035136,0.012932,-1.00626,-0.16226,-0.26208,0.3395
0.12981,0,0,4.87019,4.87019,5.12981,5.12981,0.0301536,0.383935,65.9358,-0.0015546,0.00131408,0.00643262,0,0,0,3.325,0.07,-1.1375,-0.035136,0.012932,-1.00626,-0.16226,-0.26208,0.3395
0.0972176,0,0,4.90278,4.90278,5.09722,5.09722,0.0279175,0.379014,66.0174,-0.00401992,0.0010308,-0.000820746,0,0,0,3.6225,0.035,-1.19,-0.037698,0.012688,-1.01345,-0.16226,-0.26208,0.3395
0.0850689,0,0,4.91493,4.91493,5.08507,5.08507,0.0259175,0.374444,66.0981,-0.00394015,0.000995891,-0.000820205,0,0,0,3.71,0.175,-1.2075,-0.037698,0.012688,-1.01345,-0.16226,-0.26208,0.3395
-0.237218,0,0,5.23722,5.23722,4.76278,4.76278,0.0286773,0.377412,66.174,0.00196085,-0.00115422,0.00471211,0,0,0,3.675,0.1925,-1.3475,-0.03172,0.010492,-1.00796,-0.16226,-0.26208,0.3395
-0.193365,0,0,5.19336,5.19336,4.80664,4.80664,0.030724,0.379919,66.249,0.0019171,-0.0011185,0.00471181,0,0,0,3.325,-0.035,-1.3125,-0.03172,0.010492,-1.00796,-0.16226,-0.26208,0.3395
0.179958,0,0,4.82004,4.82004,5.17996,5.17996,0.0272641,0.378902,66.326,-0.000373383,0.00175215,0.000408758,0,0,0,3.2375,-0.0525,-1.3125,-0.034038,0.01342,-1.01223,-0.16226,-0.26208,0.3395
0.1898,0,0,4.8102,4.8102,5.1898,5.1898,0.0237515,0.377773,66.4022,-0.000353685,0.00169085,0.000408915,0,0,0,3.15,-0.14,-1.2775,-0.034038,0.01342,-1.01223,-0.16226,-0.26208,0.3395
-0.164191,0,0,5.16419,5.16419,4.83581,4.83581,0.0255014,0.380549,66.4724,0.00214907,-0.000965401,0.00926087,0,0,0,3.2725,-0.035,-1.3125,-0.031476,0.010736,-1.00345,-0.16226,-0.25872,0.33992
-0.186835,0,0,5.18684,5.18684,4.81316,4.81316,0.0275359,0.383439,66.5418,0.00209863,-0.000929892,0.00926052,0,0,0,3.465,0.07,-1.2775,-0.031476,0.010736,-1.00345,-0.16226,-0.25872,0.33992
-0.202541,0,0,5.20254,5.20254,4.79746,4.79746,0.0297463,0.386343,66.6105,0.00241241,-0.000891314,0.00594055,0,0,0,3.57,-0.105,-1.12,-0.03111,0.010736,-1.00674,-0.16226,-0.25872,0.33992
-0.20155,0,0,5.20155,5.20155,4.79845,4.79845,0.031884,0.389178,66.6784,0.00236293,-0.000854005,0.0059402,0,0,0,3.57,-0.105,-1.12,-0.03111,0.010736,-1.00674,-0.16226,-0.25872,0.33992
-0.297983,0,0,5.29798,5.29798,4.70202,4.70202,0.0353739,0.388388,66.7457,-0.00138935,-0.00201436,0.00335834,0,0,0,3.64,0.1575,-1.225,-0.034892,0.009516,-1.00931,-0.16226,-0.25872,0.33992
-0.297587,0,0,5.29759,5.29759,4.70241,4.70241,0.0387663,0.387598,66.8121,-0.00137555,-0.00195516,0.00335839,0,0,0,3.64,0.1575,-1.225,-0.034892,0.009516,-1.00931,-0.16226,-0.25872,0.33992
-0.174192,0,0,5.17419,5.17419,4.82581,4.82581,0.040267,0.398061,66.8776,0.0020864,-0.000829825,0.00692263,0,0,0,3.255,4.4625,-1.085,-0.031232,0.010614,-1.00577,-0.16226,-0.25872,0.33992
-0.171622,0,0,5.17162,5.17162,4.82838,4.82838,0.0416907,0.40831,66.9423,0.00190754,-0.000804979,0.00692135,0,0,0,3.255,4.4625,-1.085,-0.031232,0.010614,-1.00577,-0.16226,-0.25872,0.33992
-0.282017,0,0,5.28202,5.28202,4.71798,4.71798,0.0446892,0.404201,67.0157,-0.00409504,-0.00209604,0.00249567,0,0,0,3.57,0.035,-1.26,-0.037332,0.009272,-1.01016,-0.15652,-0.25984,0.33502
-0.269478,0,0,5.26948,5.26948,4.73052,4.73052,0.0474257,0.402541,67.0877,-0.00200081,-0.0016819,0.00507776,0,0,0,3.5875,0.105,-1.3125,-0.035258,0.009638,-1.0076,-0.15652,-0.25984,0.33502
-0.27579,0,0,5.27579,5.27579,4.72421,4.72421,0.0501823,0.400901,67.1588,-0.00197219,-0.00163379,0.00507792,0,0,0,3.64,0.105,-1.295,-0.035258,0.009638,-1.0076,-0.15652,-0.25984,0.33502
-0.045834,0,0,5.04583,5.04583,4.95417,4.95417,0.0495077,0.401222,67.23,0.000573413,0.000674845,0.000405846,0,0,0,3.6575,-0.0875,-1.3125,-0.032696,0.011956,-1.01223,-0.15652,-0.25984,0.33502
-0.052246,0,0,5.05225,5.05225,4.94775,4.94775,0.0489444,0.401569,67.3002,0.00056735,0.000665013,0.000405812,0,0,0,3.71,-0.07,-1.3825,-0.032696,0.011956,-1.01223,-0.15652,-0.25984,0.33502
0.0388039,0,0,4.9612,4.9612,5.0388,5.0388,0.0470659,0.4021,67.3699,0.00092253,0.00136499,-0.000823711,0,0,0,3.605,-0.0875,-1.47,-0.03233,0.012688,-1.01345,-0.15652,-0.25984,0.33502
0.0235443,0,0,4.97646,4.97646,5.02354,5.02354,0.0454596,0.40254,67.4389,0.000914852,0.00133695,-0.000823742,0,0,0,3.7275,-0.14,-1.365,-0.03233,0.012688,-1.01345,-0.15652,-0.25984,0.33502
0.0495634,0,0,4.95044,4.95044,5.04956,5.04956,0.0435154,0.401073,67.5075,-0.000760341,0.00142515,0.00446325,0,0,0,3.7975,-0.14,-1.4175,-0.034038,0.01281,-1.00821,-0.15652,-0.25984,0.33502
0.0958727,0,0,4.90413,4.90413,5.09587,5.09587,0.0409458,0.399763,67.5717,-0.000737475,0.0013803,0.00446344,0,0,0,3.4125,-0.07,-1.155,-0.034038,0.01281,-1.00821,-0.16016,-0.26138,0.33684
0.0349016,0,0,4.9651,4.9651,5.0349,5.0349,0.0393342,0.398824,67.6345,-0.000721082,0.000741542,0.000652173,0,0,0,3.3425,0.0525,-1.2425,-0.034038,0.0122,-1.01199,-0.16016,-0.26138,0.33684
0.0344248,0,0,4.96558,4.96558,5.03442,5.03442,0.0377719,0.397911,67.6966,-0.000705144,0.000714275,0.000652302,0,0,0,3.3425,0.0525,-1.2425,-0.034038,0.0122,-1.01199,-0.16016,-0.26138,0.33684
-0.0733093,0,0,5.07331,5.07331,4.92669,4.92669,0.0378241,0.394962,67.7579,-0.00271893,-0.000506081,-0.000330931,0,0,0,3.3075,0.035,-1.085,-0.036112,0.01098,-1.01297,-0.16016,-0.26138,0.33684
-0.0739488,0,0,5.07395,5.07395,4.92605,4.92605,0.0378842,0.392071,67.8185,-0.00266848,-0.000505032,-0.000330585,0,0,0,3.3075,0.035,-1.085,-0.036112,0.01098,-1.01297,-0.16016,-0.26138,0.33684
0.0867851,0,0,4.91321,4.91321,5.08679,5.08679,0.035595,0.390955,67.879,-0.0009482,0.00128692,0.00593995,0,0,0,3.5,0.1575,-1.2075,-0.034404,0.01281,-1.00674,-0.16016,-0.26138,0.33684
0.086159,0,0,4.91384,4.91384,5.08616,5.08616,0.033375,0.389871,67.9387,-0.000929292,0.00124817,0.0059401,0,0,0,3.5,0.1575,-1.2075,-0.034404,0.01281,-1.00674,-0.16016,-0.26138,0.33684
-0.268836,0,0,5.26884,5.26884,4.73116,4.73116,0.0363983,0.392167,67.9947,0.00170333,-0.00163011,0.00372672,0,0,0,3.4125,-0.0525,-1.2775,-0.03172,0.009882,-1.00894,-0.16016,-0.26138,0.33684
-0.268953,0,0,5.26895,5.26895,4.73105,4.73105,0.0393437,0.39441,68.0437,0.00166419,-0.0015787,0.00372642,0,0,0,3.4125,-0.0525,-1.2775,-0.03172,0.009882,-1.00894,-0.16464,-0.2611,0.33194
-0.201241,0,0,5.20124,5.20124,4.79876,4.79876,0.0412226,0.392557,68.0934,-0.00182657,-0.00142378,0.00348072,0,0,0,3.36,-0.07,-1.225,-0.035258,0.010004,-1.00918,-0.16464,-0.2611,0.33194
-0.201352,0,0,5.20135,5.20135,4.79865,4.79865,0.0430536,0.390733,68.1425,-0.00179474,-0.00139182,0.00348091,0,0,0,3.36,-0.07,-1.225,-0.035258,0.010004,-1.00918,-0.16464,-0.2611,0.33194
0.297822,0,0,4.70218,4.70218,5.29782,5.29782,0.0375457,0.389282,68.1938,-0.000433058,0.00303074,0.000899236,0,0,0,3.3075,-0.105,-1.2425,-0.033916,0.014518,-1.01175,-0.16464,-0.2611,0.33194
0.29657,0,0,4.70343,4.70343,5.29657,5.29657,0.0322008,0.387883,68.2446,-0.000408652,0.00293745,0.000899458,0,0,0,3.3075,-0.105,-1.2425,-0.033916,0.014518,-1.01175,-0.16464,-0.2611,0.33194
-0.100957,0,0,5.10096,5.10096,4.89904,4.89904,0.0328024,0.385127,68.2928,-0.00279026,-0.000593722,0.00655541,0,0,0,3.535,0.1575,-1.2425,-0.036356,0.01098,-1.00613,-0.16464,-0.2611,0.33194
-0.114272,0,0,5.11427,5.11427,4.88573,4.88573,0.0335827,0.387106,68.3395,0.00167017,-0.000213725,0.00286671,0,0,0,3.5,0,-1.2425,-0.031842,0.011346,-1.00979,-0.16464,-0.2611,0.33194
-0.105188,0,0,5.10519,5.10519,4.89481,4.89481,0.0342097,0.389042,68.3856,0.00163638,-0.000202782,0.00286648,0,0,0,3.43,0,-1.19,-0.031842,0.011346,-1.00979,-0.16464,-0.2611,0.33194
-0.115749,0,0,5.11575,5.11575,4.88425,4.88425,0.0349744,0.387111,68.4398,-0.00173151,-0.00080007,-0.00278893,0,0,0,3.325,-0.07,-1.1025,-0.035258,0.010736,-1.01541,-0.15918,-0.26166,0.33124
0.0301106,0,0,4.96989,4.96989,5.03011,5.03011,0.0335885,0.384525,68.4938,-0.00192935,0.00039701,0.00606368,0,0,0,3.2725,-0.175,-1.365,-0.035502,0.011956,-1.00662,-0.15918,-0.26166,0.33124
0.0207973,0,0,4.9792,4.9792,5.0208,5.0208,0.032375,0.381936,68.5471,-0.00188417,0.000375831,0.00606399,0,0,0,3.3425,-0.21,-1.4175,-0.035502,0.011956,-1.00662,-0.15918,-0.26166,0.33124
-0.0723748,0,0,5.07237,5.07237,4.92763,4.92763,0.0325542,0.381717,68.5991,0.000184915,-0.000109548,0.00569517,0,0,0,3.43,-0.28,-1.19,-0.033428,0.011468,-1.00699,-0.15918,-0.26166,0.33124
-0.0917435,0,0,5.09174,5.09174,4.90826,4.90826,0.0330115,0.382008,68.6508,0.000179829,-0.000101567,0.00569513,0,0,0,3.5875,0.0175,-1.0675,-0.033428,0.011468,-1.00699,-0.15918,-0.26166,0.33124
-0.0763624,0,0,5.07636,5.07636,4.92364,4.92364,0.033232,0.379124,68.7023,-0.0026855,-0.000219845,0.0022529,0,0,0,3.6575,0.07,-1.2075,-0.036356,0.011346,-1.0104,-0.15918,-0.26166,0.33124
-0.0661814,0,0,5.06618,5.06618,4.93382,4.93382,0.033298,0.376327,68.753,-0.00263667,-0.000218693,0.00225323,0,0,0,3.57,0.0875,-1.33,-0.036356,0.011346,-1.0104,-0.15918,-0.26166,0.33124
-0.162463,0,0,5.16246,5.16246,4.83754,4.83754,0.0347684,0.376416,68.8022,-0.000451486,-0.00055941,0.00717114,0,0,0,3.78,0.245,-1.3475,-0.03416,0.01098,-1.00552,-0.15918,-0.26166,0.33124
-0.153595,0,0,5.1536,5.1536,4.8464,4.8464,0.0360706,0.376138,68.8493,-0.000446638,-0.000536684,0.00717116,0,0,0,3.71,0.035,-1.225,-0.03416,0.01098,-1.00552,-0.16044,-0.26194,0.33628
-0.14766,0,0,5.14766,5.14766,4.85234,4.85234,0.0372517,0.377914,68.8956,0.00158762,-0.000393942,0.00139236,0,0,0,3.57,-0.07,-1.1025,-0.032086,0.011102,-1.01126,-0.16044,-0.26194,0.33628
-0.117235,0,0,5.11724,5.11724,4.88276,4.88276,0.0379574,0.37977,68.9415,0.00155524,-0.000381627,0.00139214,0,0,0,3.325,0,-1.015,-0.032086,0.011102,-1.01126,-0.16044,-0.26194,0.33628
0.126888,0,0,4.87311,4.87311,5.12689,5.12689,0.0350788,0.381653,68.9883,0.00188682,0.00188854,0.00630989,0,0,0,3.43,0.0875,-1.1375,-0.03172,0.01342,-1.00638,-0.16044,-0.26194,0.33628
0.116159,0,0,4.88384,4.88384,5.11616,5.11616,0.0324326,0.383631,69.0344,0.0018523,0.00184236,0.00630969,0,0,0,3.5175,0.1575,-1.1725,-0.03172,0.01342,-1.00638,-0.16044,-0.26194,0.33628
-0.251408,0,0,5.25141,5.25141,4.74859,4.74859,0.0352244,0.383669,69.0782,-0.000578069,-0.00152847,0.00483427,0,0,0,3.6225,0.175,-1.085,-0.03416,0.010004,-1.00784,-0.16044,-0.26194,0.33628
-0.231684,0,0,5.23168,5.23168,4.76832,4.76832,0.0376546,0.383754,69.1215,-0.000579549,-0.00148605,0.00483424,0,0,0,3.465,0.21,-1.12,-0.03416,0.010004,-1.00784,-0.16044,-0.26194,0.33628
-0.116967,0,0,5.11697,5.11697,4.88303,4.88303,0.0383454,0.384128,69.1647,0.000142837,-0.000496982,0.00225227,0,0,0,3.36,0.0525,-1.19,-0.033428,0.01098,-1.0104,-0.16044,-0.26194,0.33628
-0.108121,0,0,5.10812,5.10812,4.89188,4.89188,0.0388887,0.384222,69.2045,0.000141194,-0.0004875,0.00225225,0,0,0,3.29,-0.105,-1.1375,-0.033428,0.01098,-1.0104,-0.16268,-0.26222,0.343
0.0191797,0,0,4.98082,4.98082,5.01918,5.01918,0.0375583,0.384939,69.2446,0.000857598,0.000710548,0.00594064,0,0,0,3.29,-0.07,-1.1375,-0.032696,0.0122,-1.00674,-0.16268,-0.26222,0.343
0.0236813,0,0,4.97632,4.97632,5.02368,5.02368,0.0361971,0.385916,69.2835,0.000840541,0.000686791,0.00594054,0,0,0,3.255,0.0875,-1.505,-0.032696,0.0122,-1.00674,-0.16268,-0.26222,0.343
-0.110277,0,0,5.11028,5.11028,4.88972,4.88972,0.0368281,0.388737,69.321,0.00224913,-0.00027921,0.00126815,0,0,0,3.3075,0.1225,-1.435,-0.031232,0.011224,-1.01138,-0.16268,-0.26222,0.343
-0.143778,0,0,5.14378,5.14378,4.85622,4.85622,0.0379317,0.391501,69.358,0.0022009,-0.000259948,0.00126781,0,0,0,3.5875,0.1225,-1.4,-0.031232,0.011224,-1.01138,-0.16268,-0.26222,0.343
-0.0587884,0,0,5.05879,5.05879,4.94121,4.94121,0.037765,0.391956,69.3956,0.00037066,0.000225648,0.00151366,0,0,0,3.535,0.0525,-1.3475,-0.033062,0.011712,-1.01114,-0.16268,-0.26222,0.343
-0.0438271,0,0,5.04383,5.04383,4.95617,4.95617,0.037384,0.392225,69.4329,0.000365979,0.000218999,0.00151363,0,0,0,3.4125,-0.0525,-1.26,-0.033062,0.011712,-1.01114,-0.16268,-0.26222,0.343
0.202493,0,0,4.79751,4.79751,5.20249,5.20249,0.0334153,0.39163,69.4716,-0.000109589,0.00234801,0.00839886,0,0,0,3.465,0.0175,-1.225,-0.03355,0.013908,-1.0043,-0.16268,-0.26222,0.343
0.198445,0,0,4.80156,4.80156,5.19844,5.19844,0.02961,0.390491,69.5116,-8.97057e-05,0.0022816,0.00839903,0,0,0,3.5,-0.315,-1.26,-0.03355,0.013908,-1.0043,-0.16282,-0.26572,0.33866
-0.0186819,0,0,5.01868,5.01868,4.98132,4.98132,0.0290759,0.388184,69.5502,-0.00150727,0.000318253,0.000161761,0,0,0,3.6225,-0.2975,-1.225,-0.035014,0.011956,-1.01248,-0.16282,-0.26572,0.33866
-0.00653693,0,0,5.00654,5.00654,4.99346,4.99346,0.0283785,0.386073,69.5884,-0.00147043,0.00030608,0.000162016,0,0,0,3.5175,-0.21,-1.1375,-0.035014,0.011956,-1.01248,-0.16282,-0.26572,0.33866
-0.0761172,0,0,5.07612,5.07612,4.92388,4.92388,0.0287155,0.384198,69.6256,-0.0014377,-0.000298671,0.00434248,0,0,0,3.5175,-0.1925,-1.2075,-0.035014,0.011346,-1.00833,-0.16282,-0.26572,0.33866
-0.0764309,0,0,5.07643,5.07643,4.92357,4.92357,0.0290483,0.382507,69.6623,-0.00140819,-0.000292863,0.00434268,0,0,0,3.5175,-0.105,-1.2775,-0.035014,0.011346,-1.00833,-0.16282,-0.26572,0.33866
-0.167585,0,0,5.16759,5.16759,4.83241,4.83241,0.0307036,0.382613,69.6975,0.000169273,-0.000874607,0.00385086,0,0,0,3.535,-0.175,-1.33,-0.033428,0.010736,-1.00882,-0.16282,-0.26572,0.33866
-0.171725,0,0,5.17173,5.17173,4.82827,4.82827,0.0323757,0.383337,69.7326,0.000156633,-0.000845423,0.00385075,0,0,0,3.57,0.1925,-1.155,-0.033428,0.010736,-1.00882,-0.16282,-0.26572,0.33866
-0.386398,0,0,5.3864,5.3864,4.6136,4.6136,0.0371393,0.38583,69.7658,0.00144946,-0.00247206,0.00286682,0,0,0,3.6225,0.1575,-1.1025,-0.032086,0.009028,-1.00979,-0.16282,-0.26572,0.33866
-0.355255,0,0,5.35526,5.35526,4.64474,4.64474,0.0413226,0.387778,69.7988,0.00141547,-0.00239905,0.00286654,0,0,0,3.3775,-0.1225,-0.98,-0.032086,0.009028,-1.00979,-0.16282,-0.26572,0.33866
0.0640548,0,0,4.93595,4.93595,5.06405,5.06405,0.0392717,0.385579,69.8299,-0.00182627,0.000862578,0.00188324,0,0,0,3.325,0.035,-1.1375,-0.03538,0.012322,-1.01077,-0.1652,-0.26334,0.34496
0.0231428,0,0,4.97686,4.97686,5.02314,5.02314,0.037872,0.379981,69.8609,-0.00500868,0.000349644,0.00655595,0,0,0,3.5525,0.07,-1.225,-0.038674,0.011834,-1.00613,-0.1652,-0.26334,0.34496
0.0174967,0,0,4.9825,4.9825,5.0175,5.0175,0.0365916,0.374618,69.8914,-0.00491507,0.000327298,0.00655658,0,0,0,3.5875,0.14,-1.365,-0.038674,0.011834,-1.00613,-0.1652,-0.26334,0.34496
-0.0376379,0,0,5.03764,5.03764,4.96236,4.96236,0.0361501,0.371919,69.9206,-0.00255974,7.53379e-05,0.0129502,0,0,0,3.5525,0.0875,-1.4525,-0.036356,0.01159,-0.99979,-0.1652,-0.26334,0.34496
-0.0747236,0,0,5.07472,5.07472,4.92528,4.92528,0.0362617,0.369006,69.9496,-0.0025089,7.72863e-05,0.0129505,0,0,0,3.85,-0.07,-1.3475,-0.036356,0.01159,-0.99979,-0.1652,-0.26334,0.34496
0.112732,0,0,4.88727,4.88727,5.11273,5.11273,0.0336324,0.365448,69.9795,-0.00268977,0.00161905,0.00692649,0,0,0,3.7975,-0.105,-1.3125,-0.0366,0.013176,-1.00577,-0.1652,-0.26334,0.34496
0.124398,0,0,4.8756,4.8756,5.1244,5.1244,0.0309018,0.362149,70.009,-0.0026322,0.00157139,0.00692689,0,0,0,3.6925,0,-1.3825,-0.0366,0.013176,-1.00577,-0.1652,-0.26334,0.34496
-0.298768,0,0,5.29877,5.29877,4.70123,4.70123,0.0344235,0.362806,70.0377,0.000271993,-0.00203095,4.16635e-05,0,0,0,3.5,-0.0525,-1.2425,-0.033672,0.009516,-1.0126,-0.16198,-0.26068,0.34244
-0.174958,0,0,5.17496,5.17496,4.82504,4.82504,0.0360442,0.365183,70.0665,0.00205279,-0.000781397,0.000656125,0,0,0,3.4125,-0.0525,-1.1725,-0.031842,0.010736,-1.01199,-0.16198,-0.26068,0.34244
-0.178457,0,0,5.17846,5.17846,4.82154,4.82154,0.0376733,0.367328,70.095,0.00201535,-0.000752964,0.000655867,0,0,0,3.4475,-0.1575,-1.19,-0.031842,0.010736,-1.01199,-0.16198,-0.26068,0.34244
-0.347224,0,0,5.34722,5.34722,4.65278,4.65278,0.0417244,0.371812,70.1215,0.00388087,-0.00190353,0.00225364,0,0,0,3.5175,-0.175,-1.3825,-0.02989,0.009516,-1.0104,-0.16198,-0.26068,0.34244
-0.34567,0,0,5.34567,5.34567,4.65433,4.65433,0.0456463,0.376193,70.1476,0.00380441,-0.00183508,0.00225309,0,0,0,3.5175,-0.175,-1.3825,-0.02989,0.009516,-1.0104,-0.16198,-0.26068,0.34244
0.149907,0,0,4.85009,4.85009,5.14991,5.14991,0.0422267,0.372417,70.1781,-0.00329735,0.00164691,0.00741741,0,0,0,3.4475,0.1575,-1.2425,-0.037088,0.013054,-1.00528,-0.16198,-0.26068,0.34244
0.148582,0,0,4.85142,4.85142,5.14858,5.14858,0.0389163,0.368727,70.2084,-0.00323296,0.00158914,0.00741786,0,0,0,3.4475,0.1575,-1.2425,-0.037088,0.013054,-1.00528,-0.16198,-0.26068,0.34244
0.135405,0,0,4.86459,4.86459,5.13541,5.13541,0.0358853,0.367401,70.2378,-0.00102305,0.00141411,0.00471318,0,0,0,3.2025,0.07,-1.1025,-0.034892,0.012932,-1.00796,-0.16198,-0.26068,0.34244
0.134969,0,0,4.86503,4.86503,5.13497,5.13497,0.0329403,0.366109,70.265,-0.00100052,0.00136271,0.00471335,0,0,0,3.2025,0.07,-1.1025,-0.034892,0.012932,-1.00796,-0.16268,-0.25914,0.33796
-0.225362,0,0,5.22536,5.22536,4.77464,4.77464,0.0353355,0.366811,70.2894,0.000323572,-0.00152653,0.00581979,0,0,0,3.325,-0.0175,-1.085,-0.03355,0.010004,-1.00687,-0.16268,-0.25914,0.33796
-0.224868,0,0,5.22487,5.22487,4.77513,4.77513,0.0376604,0.36749,70.3135,0.00031172,-0.00148595,0.00581969,0,0,0,3.325,-0.0175,-1.085,-0.03355,0.010004,-1.00687,-0.16268,-0.25914,0.33796
-0.0281087,0,0,5.02811,5.02811,4.97189,4.97189,0.0370504,0.367534,70.3385,-0.000174989,0.000335305,0.00348367,0,0,0,3.4475,0.175,-1.26,-0.034038,0.011834,-1.00918,-0.16268,-0.25914,0.33796
0.316082,0,0,4.68392,4.68392,5.31608,5.31608,0.0314292,0.338321,70.3704,-0.026149,0.000481453,0.00250328,0,0,0,3.64,0.105,-1.26,-0.060634,0.012078,-1.01016,-0.16268,-0.25914,0.33796
0.30426,0,0,4.69574,4.69574,5.30426,5.30426,0.0261283,0.309695,70.4022,-0.0256494,0.000388939,0.00250615,0,0,0,3.675,0.105,-1.1025,-0.060634,0.012078,-1.01016,-0.16268,-0.25914,0.33796
0.0853738,0,0,4.91463,4.91463,5.08537,5.08537,0.0241638,0.313493,70.4268,0.00356237,0.00169805,0.00582541,0,0,0,3.5525,0.0875,-1.085,-0.031232,0.01342,-1.00687,-0.16268,-0.25914,0.33796
0.105177,0,0,4.89482,4.89482,5.10518,5.10518,0.0219616,0.317494,70.4512,0.00349254,0.00165961,0.00582504,0,0,0,3.395,0.245,-1.12,-0.031232,0.01342,-1.00687,-0.16268,-0.25914,0.33796
-0.372876,0,0,5.37288,5.37288,4.62712,4.62712,0.0267995,0.318394,70.4663,-4.62658e-05,-0.00277464,0.003243,0,0,0,3.57,0.1925,-1.1025,-0.03477,0.008906,-1.00943,-0.16702,-0.25788,0.33838
-0.00717359,0,0,5.00717,5.00717,4.99283,4.99283,0.0261689,0.319457,70.4832,0.000907068,0.0006339,0.00693136,0,0,0,3.5875,0.0875,-1.26,-0.033794,0.012322,-1.00577,-0.16702,-0.25788,0.33838
-0.0113328,0,0,5.01133,5.01133,4.98867,4.98867,0.0256155,0.320293,70.5,0.000892484,0.000624242,0.00693128,0,0,0,3.6225,-0.035,-1.2075,-0.033794,0.012322,-1.00577,-0.16702,-0.25788,0.33838
-0.190096,0,0,5.1901,5.1901,4.8099,4.8099,0.0276876,0.320673,70.5153,0.000278418,-0.00104937,0.0096361,0,0,0,3.5875,-0.1225,-1.2775,-0.034404,0.010614,-1.00308,-0.16702,-0.25788,0.33838
-0.200417,0,0,5.20042,5.20042,4.79958,4.79958,0.0298559,0.321128,70.5305,0.00027048,-0.00101153,0.00963603,0,0,0,3.675,-0.07,-1.26,-0.034404,0.010614,-1.00308,-0.16702,-0.25788,0.33838
-0.294788,0,0,5.29479,5.29479,4.70521,4.70521,0.0333454,0.321593,70.545,1.9401e-05,-0.00180551,0.00459507,0,0,0,3.71,0.0175,-1.2775,-0.034648,0.00976,-1.00809,-0.16702,-0.25788,0.33838
-0.272778,0,0,5.27278,5.27278,4.72722,4.72722,0.0364217,0.322125,70.5591,1.01098e-05,-0.00175182,0.00459498,0,0,0,3.535,0.07,-1.3475,-0.034648,0.00976,-1.00809,-0.16702,-0.25788,0.33838
-0.030739,0,0,5.03074,5.03074,4.96926,4.96926,0.0358818,0.323889,70.5744,0.00155863,0.000559166,0.0012752,0,0,0,3.5,0.0875,-1.365,-0.033062,0.012078,-1.01138,-0.16702,-0.25788,0.33838
-0.0431993,0,0,5.0432,5.0432,4.9568,4.9568,0.0355381,0.325711,70.5899,0.00152684,0.000553167,0.00127503,0,0,0,3.605,0.14,-1.365,-0.033062,0.012078,-1.01138,-0.16744,-0.25956,0.33894
-0.0996433,0,0,5.09964,5.09964,4.90036,4.90036,0.0360277,0.325959,70.605,6.46827e-05,-0.000171048,0.00926665,0,0,0,3.5525,0.0525,-1.365,-0.034526,0.011346,-1.00345,-0.16744,-0.25956,0.33894
-0.127343,0,0,5.12734,5.12734,4.87266,4.87266,0.036909,0.32629,70.62,5.89083e-05,-0.000155667,0.00926661,0,0,0,3.78,0.105,-1.3125,-0.034526,0.011346,-1.00345,-0.16744,-0.25956,0.33894
-0.152984,0,0,5.15298,5.15298,4.84702,4.84702,0.0381415,0.323963,70.6351,-0.0023302,-0.000622663,0.00619311,0,0,0,3.815,0.07,-1.3475,-0.036966,0.010858,-1.0065,-0.16744,-0.25956,0.33894
-0.0871392,0,0,5.08714,5.08714,4.91286,4.91286,0.0383798,0.321528,70.6501,-0.0022877,-0.000618504,0.00619335,0,0,0,3.2725,-0.0175,-1.295,-0.036966,0.010858,-1.0065,-0.16744,-0.25956,0.33894
0.0742788,0,0,4.92572,4.92572,5.07428,5.07428,0.0362541,0.323169,70.6655,0.0016927,0.00129842,0.00299655,0,0,0,3.29,0.0175,-1.2075,-0.03294,0.01281,-1.00967,-0.16744,-0.25956,0.33894
0.0765411,0,0,4.92346,4.92346,5.07654,5.07654,0.0341512,0.324875,70.6805,0.00166291,0.00126172,0.0029964,0,0,0,3.2725,0.07,-1.2775,-0.03294,0.01281,-1.00967,-0.16744,-0.25956,0.33894
-0.281857,0,0,5.28186,5.28186,4.71814,4.71814,0.0373382,0.323784,70.6938,-0.00171964,-0.00222433,0.00410301,0,0,0,3.36,0.1925,-1.225,-0.036356,0.009272,-1.00857,-0.16744,-0.25956,0.33894
-0.309047,0,0,5.30905,5.30905,4.69095,4.69095,0.0408384,0.322501,70.7155,-0.00169726,-0.00216324,0.0041031,0,0,0,3.57,0.07,-1.19,-0.036356,0.009272,-1.00857,-0.1631,-0.26446,0.33628
-0.249018,0,0,5.24902,5.24902,4.75098,4.75098,0.0433697,0.323283,70.7373,0.000354355,-0.00126417,0.00496363,0,0,0,3.64,0.0525,-1.05,-0.034282,0.010126,-1.00772,-0.1631,-0.26446,0.33628
-0.261119,0,0,5.26112,5.26112,4.73888,4.73888,0.0460111,0.32431,70.7583,0.00033644,-0.00121807,0.00496349,0,0,0,3.745,0.21,-1.3475,-0.034282,0.010126,-1.00772,-0.1631,-0.26446,0.33628
0.0942185,0,0,4.90578,4.90578,5.09422,5.09422,0.0433931,0.321564,70.782,-0.00240981,0.00154515,0.000660599,0,0,0,3.6925,0.1575,-1.2775,-0.037088,0.012932,-1.01199,-0.1631,-0.26446,0.33628
0.121017,0,0,4.87898,4.87898,5.12102,5.12102,0.0404524,0.318881,70.8054,-0.00236299,0.00149382,0.000660898,0,0,0,3.465,0.1575,-1.295,-0.037088,0.012932,-1.01199,-0.1631,-0.26446,0.33628
-0.21394,0,0,5.21394,5.21394,4.78606,4.78606,0.0424811,0.323776,70.8251,0.00386884,-0.000791176,0.00238167,0,0,0,3.43,0.245,-1.33,-0.030744,0.010614,-1.01028,-0.1631,-0.26446,0.33628
-0.227531,0,0,5.22753,5.22753,4.77247,4.77247,0.044655,0.328331,70.8446,0.00378935,-0.000753237,0.00238119,0,0,0,3.5525,0.105,-1.33,-0.030744,0.010614,-1.01028,-0.1631,-0.26446,0.33628
-0.275774,0,0,5.27577,5.27577,4.72423,4.72423,0.0474762,0.328215,70.8644,-0.000582116,-0.00155889,0.00840564,0,0,0,3.6225,0.0875,-1.2775,-0.035136,0.00976,-1.0043,-0.1631,-0.26446,0.33628
-0.258296,0,0,5.2583,5.2583,4.7417,4.7417,0.0499678,0.327762,70.884,-0.000574217,-0.0015154,0.00840565,0,0,0,3.4825,-0.105,-1.295,-0.035136,0.00976,-1.0043,-0.1631,-0.26446,0.33628
0.260788,0,0,4.73921,4.73921,5.26079,5.26079,0.0448123,0.329059,70.9034,0.00219732,0.00340182,-7.78542e-05,0,0,0,3.4825,-0.2275,-1.4175,-0.03233,0.014762,-1.01272,-0.16324,-0.25956,0.34552
-0.015415,0,0,5.01541,5.01541,4.98459,4.98459,0.0438264,0.330132,70.9211,0.00144968,0.0010642,0.00176628,0,0,0,3.7275,-0.175,-1.33,-0.033062,0.012444,-1.01089,-0.16324,-0.25956,0.34552
0.0167273,0,0,4.98327,4.98327,5.01673,5.01673,0.0423968,0.331338,70.9387,0.00142864,0.00103925,0.00176618,0,0,0,3.465,-0.0875,-1.3125,-0.033062,0.012444,-1.01089,-0.16324,-0.25956,0.34552
0.0223029,0,0,4.9777,4.9777,5.0223,5.0223,0.0409232,0.332616,70.9561,0.00128484,0.00101353,0.0074217,0,0,0,3.43,0.0175,-1.3475,-0.033184,0.012444,-1.00528,-0.16324,-0.25956,0.34552
0.0288172,0,0,4.97118,4.97118,5.02882,5.02882,0.0393932,0.333756,70.9732,0.00126494,0.000986831,0.0074216,0,0,0,3.3775,-0.0525,-1.365,-0.033184,0.012444,-1.00528,-0.16324,-0.25956,0.34552
-0.39725,0,0,5.39725,5.39725,4.60275,4.60275,0.0441263,0.335283,70.9874,0.0011168,-0.00259436,0.000536268,0,0,0,3.5875,-0.14,-1.3825,-0.033306,0.008784,-1.01211,-0.16324,-0.25956,0.34552
-0.411228,0,0,5.41123,5.41123,4.58877,4.58877,0.048939,0.337302,71.0013,0.00108156,-0.00251037,0.000535993,0,0,0,3.71,0.175,-1.47,-0.033306,0.008784,-1.01211,-0.16324,-0.25956,0.34552
-0.150655,0,0,5.15066,5.15066,4.84934,4.84934,0.0498193,0.337877,71.0172,9.96523e-05,-0.000296725,0.00287194,0,0,0,3.6575,0.2275,-1.3475,-0.034282,0.01098,-1.00979,-0.16324,-0.25956,0.34552
-0.142044,0,0,5.14204,5.14204,4.85796,4.85796,0.0505505,0.338049,71.0261,9.66467e-05,-0.000283962,0.00287191,0,0,0,3.5875,0,-1.225,-0.034282,0.01098,-1.00979,-0.168,-0.25872,0.34146
-0.276452,0,0,5.27645,5.27645,4.72355,4.72355,0.0532255,0.34208,71.0333,0.0034279,-0.00109216,0.00237966,0,0,0,3.5525,0,-1.26,-0.030866,0.010126,-1.01028,-0.168,-0.25872,0.34146
-0.275214,0,0,5.27521,5.27521,4.72479,4.72479,0.055812,0.346024,71.0405,0.00335905,-0.00104702,0.0023792,0,0,0,3.5525,0,-1.26,-0.030866,0.010126,-1.01028,-0.168,-0.25872,0.34146
-0.0818369,0,0,5.08184,5.08184,4.91816,4.91816,0.0555059,0.34786,71.0492,0.00150472,0.000535284,0.0031167,0,0,0,3.605,0.1575,-1.3125,-0.032696,0.011712,-1.00955,-0.168,-0.25872,0.34146
-0.0814627,0,0,5.08146,5.08146,4.91854,4.91854,0.0552023,0.349663,71.0577,0.00147327,0.000529985,0.00311652,0,0,0,3.605,0.1575,-1.3125,-0.032696,0.011712,-1.00955,-0.168,-0.25872,0.34146
-0.186371,0,0,5.18637,5.18637,4.81363,4.81363,0.0564389,0.340202,71.0658,-0.00176321,-0.000913954,0.00225685,0,0,0,3.5175,-4.4275,-1.4,-0.036112,0.010248,-1.0104,-0.168,-0.25872,0.34146
-0.188413,0,0,5.18841,5.18841,4.81159,4.81159,0.0576726,0.330915,71.0737,-0.00160113,-0.000892421,0.00225778,0,0,0,3.5175,-4.4275,-1.4,-0.036112,0.010248,-1.0104,-0.168,-0.25872,0.34146
-0.159005,0,0,5.159,5.159,4.841,4.841,0.0584442,0.32932,71.0819,-0.00157328,-0.000512574,0.00336446,0,0,0,3.5875,0.0175,-1.365,-0.036112,0.010614,-1.00931,-0.168,-0.25872,0.34146
0.210944,0,0,4.78906,4.78906,5.21094,5.21094,0.0537921,0.326535,71.0928,-0.00176765,0.00270365,0.005332,0,0,0,3.5525,-0.1575,-1.26,-0.036356,0.013908,-1.00735,-0.16814,-0.25928,0.34188
0.214135,0,0,4.78586,4.78586,5.21414,5.21414,0.0492155,0.32385,71.1033,-0.00172079,0.00262378,0.00533233,0,0,0,3.5175,-0.14,-1.47,-0.036356,0.013908,-1.00735,-0.16814,-0.25928,0.34188
-0.16157,0,0,5.16157,5.16157,4.83843,4.83843,0.0502466,0.324382,71.1109,0.000213693,-0.000655646,0.00766829,0,0,0,3.395,0.07,-1.3475,-0.034404,0.010614,-1.00504,-0.16814,-0.25928,0.34188
-0.161333,0,0,5.16133,5.16133,4.83867,4.83867,0.051247,0.3249,71.1184,0.00020465,-0.000638186,0.00766822,0,0,0,3.395,0.07,-1.3475,-0.034404,0.010614,-1.00504,-0.16814,-0.25928,0.34188
-0.233266,0,0,5.23327,5.23327,4.76673,4.76673,0.0532716,0.326846,71.1251,0.00175001,-0.00096923,0.00139762,0,0,0,3.5,-0.105,-1.365,-0.032818,0.010248,-1.01126,-0.16814,-0.25928,0.34188
-0.232594,0,0,5.23259,5.23259,4.76741,4.76741,0.0552331,0.328747,71.1318,0.00171682,-0.000934997,0.0013974,0,0,0,3.5,-0.105,-1.365,-0.032818,0.010248,-1.01126,-0.16814,-0.25928,0.34188
1.23072e-05,0,0,4.99999,4.99999,5.00001,5.00001,0.0537455,0.329962,71.1396,0.00169562,0.00123732,0.00938896,0,0,0,3.57,-0.2625,-1.5575,-0.032818,0.012444,-1.00333,-0.16814,-0.25928,0.34188
-0.518696,0,0,5.5187,5.5187,4.4813,4.4813,0.0598729,0.331267,71.1441,0.000579476,-0.00390719,0.00988051,0,0,0,3.185,-0.1225,-1.4,-0.033916,0.007198,-1.00284,-0.16814,-0.25928,0.34188
-0.536679,0,0,5.53668,5.53668,4.46332,4.46332,0.0661018,0.333031,71.1501,0.000548674,-0.00379847,0.00988021,0,0,0,3.3425,0.175,-1.3475,-0.033916,0.007198,-1.00284,-0.16674,-0.25872,0.34216
-0.190191,0,0,5.19019,5.19019,4.80981,4.80981,0.0671061,0.33397,71.1587,0.000289324,-0.000361398,0.0058228,0,0,0,3.64,0.2975,-1.33,-0.03416,0.010614,-1.00687,-0.16674,-0.25872,0.34216
-0.196378,0,0,5.19638,5.19638,4.80362,4.80362,0.0681742,0.334469,71.1674,0.00028062,-0.000342757,0.00582272,0,0,0,3.6925,0.0525,-1.19,-0.03416,0.010614,-1.00687,-0.16674,-0.25872,0.34216
-0.238512,0,0,5.23851,5.23851,4.76149,4.76149,0.0698294,0.334341,71.1757,-0.000446068,-0.000924501,0.00508501,0,0,0,3.57,0.0875,-1.2075,-0.034892,0.010004,-1.0076,-0.16674,-0.25872,0.34216
-0.227673,0,0,5.22767,5.22767,4.77233,4.77233,0.0712827,0.334419,71.184,-0.000447434,-0.000899137,0.00508497,0,0,0,3.4825,0.21,-1.2075,-0.034892,0.010004,-1.0076,-0.16674,-0.25872,0.34216
0.178437,0,0,4.82156,4.82156,5.17844,5.17844,0.0667661,0.333006,71.1948,-0.000908702,0.00268584,0.00102791,0,0,0,3.5,0.0875,-1.26,-0.03538,0.013664,-1.01162,-0.16674,-0.25872,0.34216
0.168974,0,0,4.83103,4.83103,5.16897,5.16897,0.0625064,0.331186,71.2057,-0.000876951,0.00261149,0.00102818,0,0,0,3.57,-0.175,-1.1725,-0.03538,0.013664,-1.01162,-0.16674,-0.25872,0.34216
-0.419469,0,0,5.41947,5.41947,4.58053,4.58053,0.0669531,0.334535,71.2118,0.00295215,-0.0023181,0.00656043,0,0,0,3.465,-0.245,-1.2075,-0.031476,0.008662,-1.00613,-0.16674,-0.25872,0.34216
-0.39621,0,0,5.39621,5.39621,4.60379,4.60379,0.070943,0.338219,71.2235,0.00288786,-0.00224846,0.00655997,0,0,0,3.29,0,-1.155,-0.031476,0.008662,-1.00613,-0.16366,-0.26152,0.34314
0.178203,0,0,4.8218,4.8218,5.1782,5.1782,0.0664381,0.334238,71.24,-0.00335993,0.00219161,0.00766701,0,0,0,3.325,0.0875,-1.12,-0.03782,0.013176,-1.00504,-0.16366,-0.26152,0.34314
0.172515,0,0,4.82749,4.82749,5.17251,5.17251,0.0621347,0.330379,71.2564,-0.00329258,0.0021165,0.00766749,0,0,0,3.36,0.105,-1.12,-0.03782,0.013176,-1.00504,-0.16366,-0.26152,0.34314
0.0161422,0,0,4.98386,4.98386,5.01614,5.01614,0.0602282,0.332258,71.2706,0.00177703,0.00122834,0.0100034,0,0,0,3.325,0.07,-1.1725,-0.032696,0.012322,-1.00272,-0.16366,-0.26152,0.34314
-0.00925571,0,0,5.00926,5.00926,4.99074,4.99074,0.0587426,0.333929,71.2844,0.00174786,0.00120241,0.0100032,0,0,0,3.535,-0.035,-1.26,-0.032696,0.012322,-1.00272,-0.16366,-0.26152,0.34314
0.132723,0,0,4.86728,4.86728,5.13272,5.13272,0.0552223,0.335308,71.2988,0.00160232,0.00224011,0.00557699,0,0,0,3.3775,0.035,-1.3475,-0.032818,0.01342,-1.00711,-0.16366,-0.26152,0.34314
0.128306,0,0,4.87169,4.87169,5.12831,5.12831,0.0518589,0.336822,71.3131,0.0015759,0.00218141,0.00557689,0,0,0,3.4125,0.1225,-1.295,-0.032818,0.01342,-1.00711,-0.16366,-0.26152,0.34314
0.133914,0,0,4.86609,4.86609,5.13391,5.13391,0.048502,0.337441,71.3275,0.000957651,0.00224495,-0.00130824,0,0,0,3.535,0.035,-1.295,-0.033428,0.013542,-1.01394,-0.16366,-0.26152,0.34314
0.139433,0,0,4.86057,4.86057,5.13943,5.13943,0.0451526,0.337766,71.3378,0.000951987,0.00218649,-0.00130823,0,0,0,3.4825,-0.14,-1.3825,-0.033428,0.013542,-1.01394,-0.16422,-0.25606,0.34062
0.373783,0,0,4.62622,4.62622,5.37378,5.37378,0.0384683,0.334442,71.3499,-0.00190565,0.0037796,0.00176591,0,0,0,3.395,-0.2625,-1.435,-0.036356,0.01525,-1.01089,-0.16422,-0.25606,0.34062
0.363585,0,0,4.63641,4.63641,5.36359,5.36359,0.0321086,0.331382,71.3622,-0.00185226,0.00366861,0.00176629,0,0,0,3.465,-0.1575,-1.19,-0.036356,0.01525,-1.01089,-0.16422,-0.25606,0.34062
-0.525225,0,0,5.52522,5.52522,4.47478,4.47478,0.0388977,0.362864,71.3634,0.0286986,-0.000487341,0.00618903,0,0,0,3.64,-0.105,-1.26,-0.005124,0.01098,-1.0065,-0.16422,-0.25606,0.34062
-0.526296,0,0,5.5263,5.5263,4.4737,4.4737,0.0455239,0.393938,71.3649,0.0281563,-0.000371698,0.00618536,0,0,0,3.71,0.0175,-1.12,-0.005124,0.01098,-1.0065,-0.16422,-0.25606,0.34062
-0.255844,0,0,5.25584,5.25584,4.74416,4.74416,0.0480256,0.394725,71.3727,0.000322339,-0.00118292,0.00286563,0,0,0,3.7275,0.105,-1.05,-0.033062,0.010126,-1.00979,-0.16422,-0.25606,0.34062
-0.255313,0,0,5.25531,5.25531,4.74469,4.74469,0.0504536,0.395458,71.3802,0.000309539,-0.00114055,0.0028655,0,0,0,3.7275,0.0875,-1.1725,-0.033062,0.010126,-1.00979,-0.16422,-0.25606,0.34062
-0.0983451,0,0,5.09835,5.09835,4.90165,4.90165,0.0505252,0.398181,71.3882,0.00244877,0.000448349,-0.00266751,0,0,0,3.64,0.105,-1.2425,-0.030866,0.011712,-1.01528,-0.16422,-0.25606,0.34062
-0.0888599,0,0,5.08886,5.08886,4.91114,4.91114,0.0504561,0.40073,71.3993,0.00240427,0.000447145,-0.00266782,0,0,0,3.57,0.035,-1.2425,-0.030866,0.011712,-1.01528,-0.1645,-0.26278,0.33796
-0.0870137,0,0,5.08701,5.08701,4.91299,4.91299,0.0503619,0.402181,71.4105,0.00140706,0.000323372,-0.00352864,0,0,0,3.5525,0.0175,-1.19,-0.031842,0.01159,-1.01614,-0.1645,-0.26278,0.33796
-0.09533,0,0,5.09533,5.09533,4.90467,4.90467,0.0503914,0.403157,71.4217,0.00139003,0.000323888,-0.00352876,0,0,0,3.6225,-0.245,-1.1025,-0.031842,0.01159,-1.01614,-0.1645,-0.26278,0.33796
-0.186052,0,0,5.18605,5.18605,4.81395,4.81395,0.0517452,0.402216,71.4324,-0.000780292,-0.000751626,0.0102416,0,0,0,3.5875,-0.175,-1.1725,-0.034038,0.010492,-1.00247,-0.1645,-0.26278,0.33796
-0.175491,0,0,5.17549,5.17549,4.82451,4.82451,0.0529089,0.401468,71.4431,-0.000767228,-0.000731315,0.0102416,0,0,0,3.5,-0.07,-1.1025,-0.034038,0.010492,-1.00247,-0.1645,-0.26278,0.33796
0.1964,0,0,4.8036,4.8036,5.1964,5.1964,0.0486103,0.400646,71.4562,-0.00050991,0.00249108,0.00274195,0,0,0,3.395,0.14,-1.015,-0.033794,0.013786,-1.00992,-0.1645,-0.26278,0.33796
0.183074,0,0,4.81693,4.81693,5.18307,5.18307,0.0446192,0.400452,71.4687,-0.000506529,0.00242143,0.00274203,0,0,0,3.5,0.49,-1.225,-0.033794,0.013786,-1.00992,-0.1645,-0.26278,0.33796
-0.340814,0,0,5.34081,5.34081,4.65919,4.65919,0.0483846,0.403013,71.4774,0.00139254,-0.00190942,0.00593833,0,0,0,3.64,0.35,-1.26,-0.031842,0.009394,-1.00674,-0.1645,-0.26278,0.33796
-0.341704,0,0,5.3417,5.3417,4.6583,4.6583,0.052064,0.405273,71.4889,0.00135311,-0.0018452,0.00593799,0,0,0,3.6575,0.21,-1.1375,-0.031842,0.009394,-1.00674,-0.16184,-0.26138,0.33726
0.337863,0,0,4.66214,4.66214,5.33786,5.33786,0.045721,0.399894,71.5056,-0.00462729,0.00329554,0.00347978,0,0,0,3.43,0.1925,-1.1725,-0.037942,0.01464,-1.00918,-0.16184,-0.26138,0.33726
0.325269,0,0,4.67473,4.67473,5.32527,5.32527,0.0397286,0.394638,71.5221,-0.00453557,0.00319096,0.00348049,0,0,0,3.5175,0.1925,-1.1375,-0.037942,0.01464,-1.00918,-0.16184,-0.26138,0.33726
-0.0841591,0,0,5.08416,5.08416,4.91584,4.91584,0.0398736,0.393239,71.5352,-0.0015955,-0.000348184,0.0109805,0,0,0,3.3775,0.1225,-1.1025,-0.035014,0.011102,-1.00174,-0.16184,-0.26138,0.33726
-0.0928766,0,0,5.09288,5.09288,4.90712,4.90712,0.040142,0.392195,71.5479,-0.00157727,-0.000343499,0.0109806,0,0,0,3.4475,0.315,-1.26,-0.035014,0.011102,-1.00174,-0.16184,-0.26138,0.33726
-0.144094,0,0,5.14409,5.14409,4.85591,4.85591,0.0411514,0.393312,71.5598,0.000347,-0.000570136,3.80729e-05,0,0,0,3.465,0.3675,-1.26,-0.033062,0.010858,-1.0126,-0.16184,-0.26138,0.33726
-0.137391,0,0,5.13739,5.13739,4.86261,4.86261,0.0420362,0.394256,71.5717,0.00033053,-0.000554694,3.79485e-05,0,0,0,3.4125,0.28,-1.19,-0.033062,0.010858,-1.0126,-0.16184,-0.26138,0.33726
-0.15664,0,0,5.15664,5.15664,4.84336,4.84336,0.0431788,0.392813,71.5837,-0.00170954,-0.000901132,0.00520194,0,0,0,3.4475,0.1225,-1.19,-0.035136,0.010492,-1.00748,-0.16184,-0.26138,0.33726
-0.167509,0,0,5.16751,5.16751,4.83249,4.83249,0.0444501,0.391453,71.5955,-0.00168581,-0.000878945,0.00520209,0,0,0,3.535,0.1575,-1.2075,-0.035136,0.010492,-1.00748,-0.16184,-0.26138,0.33726
0.00166439,0,0,4.99834,4.99834,5.00166,5.00166,0.0432169,0.390587,71.6101,-0.000941787,0.000809307,-8.45768e-05,0,0,0,3.605,0.1925,-1.2075,-0.034404,0.0122,-1.01272,-0.16156,-0.26404,0.33978
0.0505521,0,0,4.94945,4.94945,5.05055,5.05055,0.041302,0.389235,71.6244,-0.000918179,0.000775887,-8.43915e-05,0,0,0,3.2025,-0.105,-1.2775,-0.034404,0.0122,-1.01272,-0.16156,-0.26404,0.33978
-0.0619266,0,0,5.06193,5.06193,4.93807,4.93807,0.0410802,0.385587,71.6382,-0.00304127,-0.000571378,0.00827654,0,0,0,3.1325,-0.28,-1.19,-0.0366,0.010858,-1.00443,-0.16156,-0.26404,0.33978
-0.105443,0,0,5.10544,5.10544,4.89456,4.89456,0.0414997,0.382338,71.6518,-0.00298455,-0.000564056,0.00827691,0,0,0,3.4825,-0.0875,-1.2425,-0.0366,0.010858,-1.00443,-0.16156,-0.26404,0.33978
-0.217473,0,0,5.21747,5.21747,4.78253,4.78253,0.0435444,0.379277,71.6645,-0.00305262,-0.00162751,0.00471174,0,0,0,3.43,-0.0525,-1.225,-0.036722,0.00976,-1.00796,-0.16156,-0.26404,0.33978
-0.213719,0,0,5.21372,5.21372,4.78628,4.78628,0.0454804,0.376744,71.6772,-0.00300841,-0.00159372,0.004712,0,0,0,3.395,0.2275,-1.1375,-0.036722,0.00976,-1.00796,-0.16156,-0.26404,0.33978
-0.260881,0,0,5.26088,5.26088,4.73912,4.73912,0.0480542,0.377419,71.6892,-0.000104529,-0.0015488,0.00434304,0,0,0,3.4825,0.2625,-1.1025,-0.033794,0.00976,-1.00833,-0.16156,-0.26404,0.33978
-0.241196,0,0,5.2412,5.2412,4.7588,4.7588,0.0502728,0.377982,71.7009,-0.000114366,-0.00151008,0.00434294,0,0,0,3.325,0.21,-1.155,-0.033794,0.00976,-1.00833,-0.16156,-0.26404,0.33978
-0.00529308,0,0,5.00529,5.00529,4.99471,4.99471,0.0489873,0.379625,71.7141,0.0013148,0.000910019,-0.000821063,0,0,0,3.43,0.245,-1.12,-0.03233,0.0122,-1.01345,-0.16128,-0.26334,0.34888
-0.0856308,0,0,5.08563,5.08563,4.91437,4.91437,0.048909,0.380694,71.7268,0.000931679,0.000420144,0.00102304,0,0,0,3.6925,0.0875,-1.19,-0.032696,0.011712,-1.01162,-0.16128,-0.26334,0.34888
-0.0811057,0,0,5.08111,5.08111,4.91889,4.91889,0.0487665,0.381475,71.7393,0.00091805,0.000417657,0.00102295,0,0,0,3.6575,-0.07,-1.2425,-0.032696,0.011712,-1.01162,-0.16128,-0.26334,0.34888
-0.145507,0,0,5.14551,5.14551,4.85449,4.85449,0.0495683,0.383314,71.7512,0.00161486,-5.68566e-05,0.00409644,0,0,0,3.675,0.035,-1.1725,-0.031964,0.011224,-1.00857,-0.16128,-0.26334,0.34888
-0.1172,0,0,5.1172,5.1172,4.8828,4.8828,0.0499354,0.384937,71.7629,0.00158653,-5.04492e-05,0.00409624,0,0,0,3.4475,-0.07,-1.26,-0.031964,0.011224,-1.00857,-0.16128,-0.26334,0.34888
-0.0420492,0,0,5.04205,5.04205,4.95795,4.95795,0.0491952,0.382129,71.7756,-0.00249496,0.000180885,0.00557197,0,0,0,3.465,-0.0525,-1.26,-0.036112,0.011468,-1.00711,-0.16128,-0.26334,0.34888
-0.0599301,0,0,5.05993,5.05993,4.94007,4.94007,0.0487354,0.379315,71.7883,-0.00244586,0.000172862,0.0055723,0,0,0,3.605,-0.0875,-1.12,-0.036112,0.011468,-1.00711,-0.16128,-0.26334,0.34888
-0.222148,0,0,5.22215,5.22215,4.77785,4.77785,0.050657,0.381815,71.7991,0.00188399,-0.000892742,0.00335891,0,0,0,3.5175,0.1575,-1.155,-0.03172,0.01037,-1.00931,-0.16128,-0.26334,0.34888
-0.226079,0,0,5.22608,5.22608,4.77392,4.77392,0.0525853,0.384294,71.8147,0.00184073,-0.000859088,0.00335859,0,0,0,3.5525,0.175,-1.1725,-0.03172,0.01037,-1.00931,-0.15862,-0.2667,0.33838
0.0703655,0,0,4.92963,4.92963,5.07037,5.07037,0.0501331,0.383946,71.8323,-0.000461418,0.00141852,-0.000944531,0,0,0,3.43,0.2625,-1.19,-0.034038,0.012688,-1.01358,-0.15862,-0.2667,0.33838
0.0615403,0,0,4.93846,4.93846,5.06154,5.06154,0.0478741,0.383344,71.8496,-0.000450914,0.0013791,-0.000944427,0,0,0,3.5,0.105,-1.26,-0.034038,0.012688,-1.01358,-0.15862,-0.2667,0.33838
-0.0130449,0,0,5.01304,5.01304,4.98696,4.98696,0.0467638,0.381331,71.8668,-0.00187362,0.000749084,-0.00266546,0,0,0,3.71,0.105,-1.19,-0.035502,0.012078,-1.01528,-0.15862,-0.2667,0.33838
-0.00926633,0,0,5.00927,5.00927,4.99073,4.99073,0.0456273,0.37951,71.8836,-0.00184182,0.00072925,-0.00266523,0,0,0,3.675,0.1925,-1.26,-0.035502,0.012078,-1.01528,-0.15862,-0.2667,0.33838
-0.159053,0,0,5.15905,5.15905,4.84095,4.84095,0.0467084,0.38039,71.8989,0.000451037,-0.000473149,-0.0025424,0,0,0,3.5875,0.1925,-1.2075,-0.033184,0.010858,-1.01516,-0.15862,-0.2667,0.33838
-0.150153,0,0,5.15015,5.15015,4.84985,4.84985,0.047631,0.381579,71.9139,0.000430282,-0.000457048,-0.00254255,0,0,0,3.5175,0.385,-1.295,-0.033184,0.010858,-1.01516,-0.15862,-0.2667,0.33838
-0.0987219,0,0,5.09872,5.09872,4.90128,4.90128,0.047778,0.38246,71.9289,0.000414917,3.40249e-05,0.00766207,0,0,0,3.5175,0.2275,-1.33,-0.033184,0.011346,-1.00504,-0.15862,-0.2667,0.33838
-0.0986444,0,0,5.09864,5.09864,4.90136,4.90136,0.0479199,0.382935,71.94,0.000406617,3.65018e-05,0.00766201,0,0,0,3.5175,0,-1.295,-0.033184,0.011346,-1.00504,-0.16044,-0.26376,0.3402
-0.12424,0,0,5.12424,5.12424,4.87576,4.87576,0.0484318,0.379142,71.9515,-0.00390067,-0.00080945,0.00421989,0,0,0,3.4125,0.14,-1.2075,-0.037576,0.010492,-1.00845,-0.16044,-0.26376,0.3402
-0.129334,0,0,5.12933,5.12933,4.87067,4.87067,0.0490046,0.375299,71.963,-0.00383358,-0.000799454,0.00422032,0,0,0,3.4475,0.07,-1.1375,-0.037576,0.010492,-1.00845,-0.16044,-0.26376,0.3402
-0.127848,0,0,5.12785,5.12785,4.87215,4.87215,0.0495405,0.371776,71.9742,-0.00365062,-0.000545847,0.00102405,0,0,0,3.64,0.175,-1.33,-0.037454,0.010736,-1.01162,-0.16044,-0.26376,0.3402
-0.132938,0,0,5.13294,5.13294,4.86706,4.86706,0.0501365,0.368258,71.9855,-0.00358921,-0.000535445,0.00102444,0,0,0,3.675,0.14,-1.19,-0.037454,0.010736,-1.01162,-0.16044,-0.26376,0.3402
-0.057371,0,0,5.05737,5.05737,4.94263,4.94263,0.049613,0.371371,71.9961,0.0026737,0.000676687,-0.000574231,0,0,0,3.5,0.2275,-1.155,-0.03111,0.011956,-1.01321,-0.16044,-0.26376,0.3402
-0.0631246,0,0,5.06312,5.06312,4.93688,4.93688,0.0491873,0.374458,72.0065,0.00261982,0.000669255,-0.000574575,0,0,0,3.5525,0.245,-1.225,-0.03111,0.011956,-1.01321,-0.16044,-0.26376,0.3402
-0.195023,0,0,5.19502,5.19502,4.80498,4.80498,0.0506991,0.374009,72.0162,-0.00113839,-0.00113626,0.00741711,0,0,0,3.3775,0.2975,-1.3125,-0.034892,0.010126,-1.00528,-0.16044,-0.26376,0.3402
-0.192854,0,0,5.19285,5.19285,4.80715,4.80715,0.0521393,0.373292,72.0265,-0.00112588,-0.00111112,0.00741716,0,0,0,3.36,0.14,-1.1025,-0.034892,0.010126,-1.00528,-0.15848,-0.25956,0.33964
-0.00269826,0,0,5.0027,5.0027,4.9973,4.9973,0.0507642,0.37689,72.0373,0.00318481,0.00118528,0.00323653,0,0,0,3.43,0.2275,-1.12,-0.0305,0.012444,-1.00943,-0.15848,-0.25956,0.33964
-0.00616435,0,0,5.00616,5.00616,4.99384,4.99384,0.0494758,0.380097,72.0476,0.00312883,0.0011628,0.00323618,0,0,0,3.465,0.035,-1.3475,-0.0305,0.012444,-1.00943,-0.15848,-0.25956,0.33964
-0.227909,0,0,5.22791,5.22791,4.77209,4.77209,0.0514599,0.377599,72.0573,-0.00265887,-0.00161149,0.00458887,0,0,0,3.3775,0.0175,-1.2425,-0.036356,0.009638,-1.00809,-0.15848,-0.25956,0.33964
-0.249717,0,0,5.24972,5.24972,4.75028,4.75028,0.0537102,0.37517,72.0671,-0.00261648,-0.00157221,0.00458911,0,0,0,3.5525,0.035,-1.1375,-0.036356,0.009638,-1.00809,-0.15848,-0.25956,0.33964
-0.0977194,0,0,5.09772,5.09772,4.90228,4.90228,0.0536812,0.379322,72.0768,0.00387129,0.000747687,0.00102313,0,0,0,3.71,0.0875,-1.1725,-0.029768,0.011956,-1.01162,-0.15848,-0.25956,0.33964
-0.0839976,0,0,5.084,5.084,4.916,4.916,0.0534524,0.383427,72.0863,0.00379964,0.000743694,0.00102265,0,0,0,3.605,0.105,-1.225,-0.029768,0.011956,-1.01162,-0.15848,-0.25956,0.33964
-0.0970459,0,0,5.09705,5.09705,4.90295,4.90295,0.0534201,0.384765,72.0962,0.00110361,0.00037675,0.00360442,0,0,0,3.6575,0.1225,-1.19,-0.032452,0.01159,-1.00906,-0.15848,-0.25956,0.33964
-0.0522423,0,0,5.05224,5.05224,4.94776,4.94776,0.0527342,0.38599,72.1023,0.00108223,0.000364778,0.00360428,0,0,0,3.29,0.07,-1.12,-0.032452,0.01159,-1.00906,-0.16198,-0.26138,0.33698
-0.0640167,0,0,5.06402,5.06402,4.93598,4.93598,0.0522381,0.379826,72.1095,-0.0056134,-0.000376639,0.00680167,0,0,0,3.43,-0.1225,-1.0675,-0.039284,0.010858,-1.00589,-0.16198,-0.26138,0.33698
-0.0610247,0,0,5.06102,5.06102,4.93898,4.93898,0.0517113,0.373958,72.1163,-0.00551098,-0.000385833,0.00680235,0,0,0,3.395,-0.0175,-1.2075,-0.039284,0.010858,-1.00589,-0.16198,-0.26138,0.33698
-0.0326529,0,0,5.03265,5.03265,4.96735,4.96735,0.0507839,0.373633,72.1226,-0.000402922,0.000452867,-0.00020566,0,0,0,3.395,0.1225,-1.19,-0.03416,0.011712,-1.01284,-0.16198,-0.26138,0.33698
-0.0328089,0,0,5.03281,5.03281,4.96719,4.96719,0.0498829,0.373318,72.1287,-0.000397419,0.000437143,-0.000205611,0,0,0,3.395,0.1225,-1.19,-0.03416,0.011712,-1.01284,-0.16198,-0.26138,0.33698
-0.180227,0,0,5.18023,5.18023,4.81977,4.81977,0.0511587,0.373636,72.1339,8.29804e-05,-0.000761858,0.00458932,0,0,0,3.465,0.035,-1.1725,-0.033672,0.010492,-1.00809,-0.16198,-0.26138,0.33698
-0.180058,0,0,5.18006,5.18006,4.81994,4.81994,0.0523984,0.373943,72.139,7.76121e-05,-0.000740222,0.00458927,0,0,0,3.465,0.035,-1.1725,-0.033672,0.010492,-1.00809,-0.16198,-0.26138,0.33698
0.0840952,0,0,4.9159,4.9159,5.0841,5.0841,0.0497472,0.370105,72.1459,-0.00325699,0.00104541,0.00594218,0,0,0,3.2725,-0.0875,-1.295,-0.037088,0.012322,-1.00674,-0.16198,-0.26138,0.33698
0.0830347,0,0,4.91697,4.91697,5.08303,5.08303,0.0471812,0.366345,72.1527,-0.00319138,0.00100062,0.00594264,0,0,0,3.2725,-0.0875,-1.295,-0.037088,0.012322,-1.00674,-0.16198,-0.26138,0.33698
-0.0186846,0,0,5.01868,5.01868,4.98132,4.98132,0.0461681,0.368311,72.1615,-0.00541243,5.9294e-06,0.00729487,0,0,0,3.4475,4.4625,-1.2775,-0.039284,0.011346,-1.0054,-0.16044,-0.26166,0.33614
-0.151703,0,0,5.1517,5.1517,4.8483,4.8483,0.0471245,0.364007,72.1692,-0.00412246,-0.00119865,0.00225445,0,0,0,3.3425,-0.07,-1.155,-0.038064,0.010126,-1.0104,-0.16044,-0.26166,0.33614
0.133451,0,0,4.86655,4.86655,5.13345,5.13345,0.0438907,0.361207,72.1785,-0.00225131,0.00192021,0.0060662,0,0,0,3.6225,-0.0175,-1.225,-0.036234,0.013298,-1.00662,-0.16044,-0.26166,0.33614
0.134697,0,0,4.8653,4.8653,5.1347,5.1347,0.0407236,0.358798,72.1877,-0.00220926,0.00186494,0.00606651,0,0,0,3.605,0.175,-1.225,-0.036234,0.013298,-1.00662,-0.16044,-0.26166,0.33614
-0.0831861,0,0,5.08319,5.08319,4.91681,4.91681,0.040822,0.357093,72.1954,-0.00181505,3.47522e-05,0.00213234,0,0,0,3.7275,0.14,-1.2775,-0.035868,0.011468,-1.01053,-0.16044,-0.26166,0.33614
-0.0621694,0,0,5.06217,5.06217,4.93783,4.93783,0.0406109,0.355539,72.2029,-0.00178792,3.10663e-05,0.00213251,0,0,0,3.5525,0.21,-1.295,-0.035868,0.011468,-1.01053,-0.16044,-0.26166,0.33614
-0.051876,0,0,5.05188,5.05188,4.94812,4.94812,0.0402548,0.358454,72.21,0.00265618,0.000635485,0.000533869,0,0,0,3.5525,0.1225,-1.19,-0.031354,0.012078,-1.01211,-0.16044,-0.26166,0.33614
-0.052773,0,0,5.05277,5.05277,4.94723,4.94723,0.0399211,0.361323,72.2092,0.00260611,0.000629661,0.000533559,0,0,0,3.5525,0.1225,-1.1375,-0.031354,0.012078,-1.01211,-0.16604,-0.2611,0.33194
0.0748779,0,0,4.92512,4.92512,5.07488,5.07488,0.0377316,0.361776,72.2093,0.000532936,0.00144634,0.00397609,0,0,0,3.4825,0.0875,-1.225,-0.033428,0.012932,-1.0087,-0.16604,-0.2611,0.33194
0.0874759,0,0,4.91252,4.91252,5.08748,5.08748,0.0354157,0.3619,72.2097,0.000530782,0.00140592,0.0039761,0,0,0,3.3775,-0.105,-1.05,-0.033428,0.012932,-1.0087,-0.16604,-0.2611,0.33194
-0.0806493,0,0,5.08065,5.08065,4.91935,4.91935,0.0356161,0.359957,72.2094,-0.00174355,-0.00030036,0.00606644,0,0,0,3.4825,-0.0875,-1.0675,-0.035746,0.011224,-1.00662,-0.16604,-0.2611,0.33194
-0.0853843,0,0,5.08538,5.08538,4.91462,4.91462,0.0358804,0.35817,72.2093,-0.00171235,-0.000295748,0.00606663,0,0,0,3.5175,-0.0175,-1.015,-0.035746,0.011224,-1.00662,-0.16604,-0.2611,0.33194
-0.0607771,0,0,5.06078,5.06078,4.93922,4.93922,0.0357782,0.35725,72.209,-0.00108887,-5.32782e-05,0.00631263,0,0,0,3.465,0.1225,-1.0675,-0.035136,0.011468,-1.00638,-0.16604,-0.2611,0.33194
-0.0566713,0,0,5.05667,5.05667,4.94333,4.94333,0.0356186,0.356586,72.2086,-0.00107729,-5.60627e-05,0.00631271,0,0,0,3.43,0.2625,-1.1375,-0.035136,0.011468,-1.00638,-0.16604,-0.2611,0.33194
-0.208611,0,0,5.20861,5.20861,4.79139,4.79139,0.0376824,0.355256,72.2074,-0.00190446,-0.00148557,0.00668167,0,0,0,3.465,0.2275,-1.155,-0.03599,0.010004,-1.00601,-0.16604,-0.2611,0.33194
-0.226584,0,0,5.22658,5.22658,4.77342,4.77342,0.0399543,0.353916,72.2129,-0.00188109,-0.00144591,0.00668179,0,0,0,3.605,0.21,-1.085,-0.03599,0.010004,-1.00601,-0.16058,-0.25984,0.33474
-0.194926,0,0,5.19493,5.19493,4.80507,4.80507,0.041704,0.357091,72.2178,0.00267996,-0.000682616,0.00200938,0,0,0,3.535,0.105,-1.155,-0.031354,0.010736,-1.01065,-0.16058,-0.25984,0.33474
-0.187768,0,0,5.18777,5.18777,4.81223,4.81223,0.043303,0.360201,72.2227,0.00262568,-0.000654708,0.00200902,0,0,0,3.4825,0.105,-1.0675,-0.031354,0.010736,-1.01065,-0.16058,-0.25984,0.33474
-0.0484659,0,0,5.04847,5.04847,4.95153,4.95153,0.0428254,0.35732,72.2292,-0.00291238,-5.24108e-05,0.00336178,0,0,0,3.4475,0.1225,-1.12,-0.036966,0.011346,-1.00931,-0.16058,-0.25984,0.33474
-0.0768598,0,0,5.07686,5.07686,4.92314,4.92314,0.0427749,0.354614,72.2355,-0.00286515,-5.32919e-05,0.00336207,0,0,0,3.675,0.1925,-1.19,-0.036966,0.011346,-1.00931,-0.16058,-0.25984,0.33474
-0.101873,0,0,5.10187,5.10187,4.89813,4.89813,0.0430909,0.352936,72.2414,-0.00186397,-4.77752e-05,0.00102623,0,0,0,3.78,0.175,-1.2775,-0.03599,0.011346,-1.01162,-0.16058,-0.25984,0.33474
-0.089372,0,0,5.08937,5.08937,4.91063,4.91063,0.043216,0.351287,72.2471,-0.0018352,-4.5592e-05,0.0010264,0,0,0,3.675,0.175,-1.3125,-0.03599,0.011346,-1.01162,-0.16058,-0.25984,0.33474
-0.0970453,0,0,5.09705,5.09705,4.90295,4.90295,0.0434498,0.351629,72.2524,0.000224094,8.06147e-05,0.0103704,0,0,0,3.6225,0.035,-1.3125,-0.033916,0.011468,-1.00235,-0.16058,-0.25984,0.33474
-0.0969632,0,0,5.09696,5.09696,4.90304,4.90304,0.0436761,0.351964,72.2576,0.000218252,8.45648e-05,0.0103704,0,0,0,3.6225,0.035,-1.3125,-0.033916,0.011468,-1.00235,-0.16058,-0.25984,0.33474
0.148775,0,0,4.85123,4.85123,5.14877,5.14877,0.0403073,0.353298,72.2648,0.00153131,0.00234618,-0.0013098,0,0,0,3.5175,0.105,-1.26,-0.032574,0.013786,-1.01394,-0.1603,-0.25984,0.34062
0.104308,0,0,4.89569,4.89569,5.10431,5.10431,0.0376763,0.352927,72.272,-0.000163025,0.0015675,0.00926384,0,0,0,3.4125,0.035,-1.085,-0.034282,0.013054,-1.00345,-0.1603,-0.25984,0.34062
0.104048,0,0,4.89595,4.89595,5.10405,5.10405,0.0351183,0.352572,72.2792,-0.000156825,0.00152285,0.00926391,0,0,0,3.4125,0.035,-1.085,-0.034282,0.013054,-1.00345,-0.1603,-0.25984,0.34062
-0.0426841,0,0,5.04268,5.04268,4.95732,4.95732,0.0347706,0.350838,72.2853,-0.00182737,0.00017339,0.00225603,0,0,0,3.605,0.14,-1.295,-0.03599,0.011712,-1.0104,-0.1603,-0.25984,0.34062
-0.514195,0,0,5.5142,5.5142,4.4858,4.4858,0.0413186,0.351692,72.2879,-0.000384444,-0.00398676,0.00373125,0,0,0,3.57,0.28,-1.365,-0.034526,0.007442,-1.00894,-0.1603,-0.25984,0.34062
-0.513599,0,0,5.5136,5.5136,4.4864,4.4864,0.0476857,0.352062,72.2906,-0.000390887,-0.00387564,0.00373112,0,0,0,3.57,0.0175,-1.295,-0.034526,0.007442,-1.00894,-0.1603,-0.25984,0.34062
-0.0538708,0,0,5.05387,5.05387,4.94613,4.94613,0.0471707,0.352293,72.2962,0.000212495,0.000511935,-0.000449144,0,0,0,3.605,0.07,-1.2775,-0.033916,0.011834,-1.01309,-0.1603,-0.25984,0.34062
-0.0472459,0,0,5.04725,5.04725,4.95275,4.95275,0.0465723,0.352522,72.3049,0.000208511,0.000501491,-0.00044916,0,0,0,3.5525,0.07,-1.26,-0.033916,0.011834,-1.01309,-0.1596,-0.26404,0.33698
0.0860433,0,0,4.91396,4.91396,5.08604,5.08604,0.0440428,0.352822,72.3142,0.000689204,0.00167861,0.00434583,0,0,0,3.4825,-0.07,-1.225,-0.033428,0.013054,-1.00833,-0.1596,-0.26404,0.33698
0.0987414,0,0,4.90126,4.90126,5.09874,5.09874,0.0413942,0.353664,72.3234,0.000674523,0.00163239,0.00434578,0,0,0,3.3775,0.245,-1.2425,-0.033428,0.013054,-1.00833,-0.1596,-0.26404,0.33698
-0.121434,0,0,5.12143,5.12143,4.87857,4.87857,0.042031,0.35387,72.3311,-5.79871e-05,-0.000432655,0.00250152,0,0,0,3.43,0.105,-1.2775,-0.03416,0.01098,-1.01016,-0.1596,-0.26404,0.33698
-0.112786,0,0,5.11279,5.11279,4.88721,4.88721,0.0425246,0.35398,72.3387,-5.99175e-05,-0.000424039,0.0025015,0,0,0,3.36,0.0525,-1.295,-0.03416,0.01098,-1.01016,-0.1596,-0.26404,0.33698
0.0052545,0,0,4.99475,4.99475,5.00525,5.00525,0.0412811,0.351716,72.3472,-0.00220714,0.000409145,0.0036083,0,0,0,3.36,0.0875,-1.3475,-0.036356,0.011834,-1.00906,-0.1596,-0.26404,0.33698
-0.00595606,0,0,5.00596,5.00596,4.99404,4.99404,0.040234,0.349527,72.3555,-0.00216894,0.00039087,0.00360854,0,0,0,3.4475,0.105,-1.4175,-0.036356,0.011834,-1.00906,-0.1596,-0.26404,0.33698
0.278276,0,0,4.72172,4.72172,5.27828,5.27828,0.0350629,0.348378,72.3654,-0.000569569,0.00310953,0.00668244,0,0,0,3.43,0.0175,-1.365,-0.03477,0.01464,-1.00601,-0.1596,-0.26404,0.33698
0.288227,0,0,4.71177,4.71177,5.28823,5.28823,0.0298824,0.347207,72.3755,-0.000549126,0.00301912,0.00668261,0,0,0,3.3425,-0.0175,-1.2075,-0.03477,0.01464,-1.00601,-0.1596,-0.26404,0.33698
-0.410875,0,0,5.41087,5.41087,4.58913,4.58913,0.0350488,0.347351,72.3857,-0.000308675,-0.0032413,0.0112316,0,0,0,3.43,-0.1225,-1.3125,-0.034526,0.008296,-1.0015,-0.15596,-0.26418,0.33894
-0.416948,0,0,5.41695,5.41695,4.58305,4.58305,0.040168,0.347894,72.3958,-0.000318152,-0.00315196,0.0112315,0,0,0,3.4825,0.1225,-1.2425,-0.034526,0.008296,-1.0015,-0.15596,-0.26418,0.33894
-0.031223,0,0,5.03122,5.03122,4.96878,4.96878,0.0395187,0.347232,72.4085,-0.000671059,0.000378387,0.00213341,0,0,0,3.5,0.07,-1.2075,-0.034892,0.011834,-1.01053,-0.15596,-0.26418,0.33894
-0.0314077,0,0,5.03141,5.03141,4.96859,4.96859,0.0388892,0.346585,72.421,-0.000659757,0.000367399,0.00213349,0,0,0,3.5,0.07,-1.2075,-0.034892,0.011834,-1.01053,-0.15596,-0.26418,0.33894
-0.202349,0,0,5.20235,5.20235,4.79765,4.79765,0.0407728,0.348931,72.4317,0.00197199,-0.00106525,0.00188732,0,0,0,3.36,0.035,-1.26,-0.032208,0.01037,-1.01077,-0.15596,-0.26418,0.33894
-0.201751,0,0,5.20175,5.20175,4.79825,4.79825,0.0425981,0.351228,72.4422,0.0019319,-0.00103339,0.00188705,0,0,0,3.36,0.035,-1.26,-0.032208,0.01037,-1.01077,-0.15596,-0.26418,0.33894
-0.127082,0,0,5.12708,5.12708,4.87292,4.87292,0.0432847,0.35175,72.4536,0.000100501,-0.000288648,0.00151814,0,0,0,3.57,0.21,-1.295,-0.034038,0.011102,-1.01114,-0.15596,-0.26418,0.33894
-0.126938,0,0,5.12694,5.12694,4.87306,4.87306,0.043951,0.35226,72.4647,9.15959e-05,-0.000277018,0.00151808,0,0,0,3.57,0.21,-1.295,-0.034038,0.011102,-1.01114,-0.15596,-0.26418,0.33894
-0.245228,0,0,5.24523,5.24523,4.75477,4.75477,0.0463274,0.349434,72.4714,-0.00289622,-0.00170106,0.00311668,0,0,0,3.5525,-0.0525,-1.3125,-0.037088,0.009638,-1.00955,-0.1603,-0.26726,0.34104
-0.251763,0,0,5.25176,5.25176,4.74824,4.74824,0.0487367,0.351365,72.4771,0.00168653,-0.00104838,0.006559,0,0,0,3.675,-0.0525,-1.4,-0.032452,0.010248,-1.00613,-0.1603,-0.26726,0.34104
-0.223433,0,0,5.22343,5.22343,4.77657,4.77657,0.0506688,0.353253,72.4829,0.00165357,-0.00101466,0.00655877,0,0,0,3.4475,-0.0525,-1.3825,-0.032452,0.010248,-1.00613,-0.1603,-0.26726,0.34104
-0.0543104,0,0,5.05431,5.05431,4.94569,4.94569,0.0500798,0.357758,72.4894,0.00461209,0.000806961,0.00459111,0,0,0,3.3775,-0.14,-1.2425,-0.029402,0.012078,-1.00809,-0.1603,-0.26726,0.34104
-0.0854883,0,0,5.08549,5.08549,4.91451,4.91451,0.0499616,0.362511,72.4959,0.00452914,0.000804897,0.00459059,0,0,0,3.64,0.0525,-1.225,-0.029402,0.012078,-1.00809,-0.1603,-0.26726,0.34104
-0.282128,0,0,5.28213,5.28213,4.71787,4.71787,0.0527184,0.361656,72.5019,-0.00116577,-0.00171165,0.00557423,0,0,0,3.57,0.0175,-1.1025,-0.035136,0.009516,-1.00711,-0.1603,-0.26726,0.34104
-0.275689,0,0,5.27569,5.27569,4.72431,4.72431,0.0553085,0.360987,72.5079,-0.0011541,-0.00166644,0.00557426,0,0,0,3.5175,0.1225,-1.1375,-0.035136,0.009516,-1.00711,-0.1603,-0.26726,0.34104
0.0705878,0,0,4.92941,4.92941,5.07059,5.07059,0.0527729,0.358373,72.516,-0.0025663,0.00109822,0.00274677,0,0,0,3.29,0.175,-1.225,-0.0366,0.012322,-1.00992,-0.1603,-0.26726,0.34104
0.0449543,0,0,4.95505,4.95505,5.04495,5.04495,0.0506782,0.355781,72.5192,-0.00252106,0.00106166,0.00274709,0,0,0,3.5,0.1575,-1.1725,-0.0366,0.012322,-1.00992,-0.16282,-0.26446,0.3374
0.102872,0,0,4.89713,4.89713,5.10287,5.10287,0.0477925,0.358707,72.5219,0.00289473,0.00211044,0.00791065,0,0,0,3.43,0.1225,-1.2425,-0.03111,0.01342,-1.00479,-0.16282,-0.26446,0.3374
0.0968131,0,0,4.90319,4.90319,5.09681,5.09681,0.0450711,0.36132,72.5247,0.00284913,0.00206294,0.0079104,0,0,0,3.4825,-0.035,-1.1375,-0.03111,0.01342,-1.00479,-0.16282,-0.26446,0.3374
-0.0529266,0,0,5.05293,5.05293,4.94707,4.94707,0.0446082,0.360784,72.527,-0.000421627,0.000345085,-0.00180246,0,0,0,3.5525,0,-1.1375,-0.034404,0.011712,-1.01443,-0.16282,-0.26446,0.3374
-0.0402065,0,0,5.04021,5.04021,4.95979,4.95979,0.0439716,0.360617,72.5291,-0.000418726,0.000333974,-0.00180244,0,0,0,3.4475,0.21,-1.2075,-0.034404,0.011712,-1.01443,-0.16282,-0.26446,0.3374
-0.030363,0,0,5.03036,5.03036,4.96964,4.96964,0.0432079,0.358918,72.5317,-0.00208986,0.000320645,4.1987e-05,0,0,0,3.535,0.3325,-1.155,-0.036112,0.011712,-1.0126,-0.16282,-0.26446,0.3374
-0.0157354,0,0,5.01574,5.01574,4.98426,4.98426,0.0422504,0.357222,72.5341,-0.00206026,0.000303935,4.21845e-05,0,0,0,3.4125,0.315,-1.2775,-0.036112,0.011712,-1.0126,-0.16282,-0.26446,0.3374
0.124745,0,0,4.87526,4.87526,5.12474,5.12474,0.0392663,0.357611,72.537,0.000362651,0.00171737,0.0021323,0,0,0,3.29,0.1925,-1.2075,-0.033672,0.013176,-1.01053,-0.16282,-0.26446,0.3374
0.111587,0,0,4.88841,4.88841,5.11159,5.11159,0.0365527,0.357975,72.5405,0.000356307,0.00167001,0.0021323,0,0,0,3.395,0.175,-1.225,-0.033672,0.013176,-1.01053,-0.16156,-0.26236,0.33824
-0.0334388,0,0,5.03344,5.03344,4.96656,4.96656,0.0360286,0.356018,72.5432,-0.00191777,0.000195346,0.00471443,0,0,0,3.535,0.0525,-1.33,-0.03599,0.011712,-1.00796,-0.16156,-0.26236,0.33824
-0.0489428,0,0,5.04894,5.04894,4.95106,4.95106,0.0357447,0.354158,72.5462,-0.00188531,0.00019039,0.00471464,0,0,0,3.6575,0.0875,-1.2075,-0.03599,0.011712,-1.00796,-0.16156,-0.26236,0.33824
-0.0723982,0,0,5.0724,5.0724,4.9276,4.9276,0.0358107,0.35446,72.5487,5.32022e-05,0.000191542,-0.00130987,0,0,0,3.6575,0.175,-1.19,-0.034038,0.011712,-1.01394,-0.16156,-0.26236,0.33824
-0.0594528,0,0,5.05945,5.05945,4.94055,4.94055,0.0356858,0.354606,72.551,5.06462e-05,0.000189362,-0.00130989,0,0,0,3.5525,0.0875,-1.2775,-0.034038,0.011712,-1.01394,-0.16156,-0.26236,0.33824
-0.154947,0,0,5.15495,5.15495,4.84505,4.84505,0.0369588,0.355902,72.5526,0.00112141,-0.000521179,0.000288289,0,0,0,3.5875,0.0175,-1.2075,-0.03294,0.01098,-1.01236,-0.16156,-0.26236,0.33824
-0.169526,0,0,5.16953,5.16953,4.83047,4.83047,0.0384113,0.357588,72.5542,0.00109198,-0.00049583,0.000288089,0,0,0,3.71,0.2625,-1.26,-0.03294,0.01098,-1.01236,-0.16156,-0.26236,0.33824
-0.303014,0,0,5.30301,5.30301,4.69699,4.69699,0.0417751,0.35896,72.5548,0.000703566,-0.00178052,0.00102559,0,0,0,3.675,0.175,-1.26,-0.033306,0.009638,-1.01162,-0.16156,-0.26236,0.33824
-0.28731,0,0,5.28731,5.28731,4.71269,4.71269,0.0448211,0.360027,72.5565,0.000684948,-0.00172735,0.00102543,0,0,0,3.5525,0.0175,-1.2075,-0.033306,0.009638,-1.01162,-0.1603,-0.26082,0.33922
-0.305,0,0,5.305,5.305,4.695,4.695,0.0480452,0.3603,72.5578,-0.000170208,-0.00191534,0.00225484,0,0,0,3.57,0.0525,-1.3475,-0.03416,0.009394,-1.0104,-0.1603,-0.26082,0.33922
-0.287725,0,0,5.28772,5.28772,4.71228,4.71228,0.0509322,0.360348,72.5593,-0.000171051,-0.00186495,0.00225479,0,0,0,3.43,-0.07,-1.2775,-0.03416,0.009394,-1.0104,-0.1603,-0.26082,0.33922
-0.189753,0,0,5.18975,5.18975,4.81025,4.81025,0.0523121,0.361073,72.5615,0.000423719,-0.000741726,0.00471366,0,0,0,3.5175,0.07,-1.225,-0.03355,0.010492,-1.00796,-0.1603,-0.26082,0.33922
-0.174547,0,0,5.17455,5.17455,4.82545,4.82545,0.0534337,0.361692,72.5636,0.000412927,-0.000722153,0.00471357,0,0,0,3.395,0.0175,-1.26,-0.03355,0.010492,-1.00796,-0.1603,-0.26082,0.33922
-0.136463,0,0,5.13646,5.13646,4.86354,4.86354,0.0539693,0.360815,72.5661,-0.0010296,-0.00046855,0.00163995,0,0,0,3.4475,0.07,-1.33,-0.035014,0.010736,-1.01101,-0.1603,-0.26082,0.33922
-0.143089,0,0,5.14309,5.14309,4.85691,4.85691,0.0545875,0.360161,72.5687,-0.0010182,-0.00045776,0.00164001,0,0,0,3.5,0.1925,-1.26,-0.035014,0.010736,-1.01101,-0.1603,-0.26082,0.33922
-0.188913,0,0,5.18891,5.18891,4.81109,4.81109,0.0558587,0.360436,72.5706,7.03859e-05,-0.000924082,0.00188586,0,0,0,3.3425,0.0175,-1.2775,-0.033916,0.010248,-1.01077,-0.1603,-0.26082,0.33922
-0.191153,0,0,5.19115,5.19115,4.80885,4.80885,0.057129,0.360941,72.5724,6.15605e-05,-0.000901911,0.00188578,0,0,0,3.36,0.1575,-1.3125,-0.033916,0.010248,-1.01077,-0.16156,-0.26404,0.33726
-0.0796284,0,0,5.07963,5.07963,4.92037,4.92037,0.0567369,0.360944,72.5748,-0.000181453,0.000190387,4.15589e-05,0,0,0,3.43,0.14,-1.3825,-0.03416,0.011346,-1.0126,-0.16156,-0.26404,0.33726
-0.113878,0,0,5.11388,5.11388,4.88612,4.88612,0.0568553,0.360768,72.5773,-0.000178386,0.000192452,4.15762e-05,0,0,0,3.71,0.035,-1.3475,-0.03416,0.011346,-1.0126,-0.16156,-0.26404,0.33726
-0.473784,0,0,5.47378,5.47378,4.52622,4.52622,0.062227,0.361006,72.5773,-0.000304019,-0.00325547,0.00274632,0,0,0,3.5875,-0.035,-1.3475,-0.034282,0.007808,-1.00992,-0.16156,-0.26404,0.33726
-0.458556,0,0,5.45856,5.45856,4.54144,4.54144,0.067235,0.361133,72.5775,-0.00030623,-0.00316807,0.00274621,0,0,0,3.465,-0.0875,-1.2425,-0.034282,0.007808,-1.00992,-0.16156,-0.26404,0.33726
-0.331015,0,0,5.33101,5.33101,4.66899,4.66899,0.0702483,0.364874,72.5779,0.00327304,-0.00164996,0.0101226,0,0,0,3.3075,-0.0525,-1.225,-0.030622,0.009272,-1.0026,-0.16156,-0.26404,0.33726
-0.357756,0,0,5.35776,5.35776,4.64224,4.64224,0.0735728,0.368867,72.578,0.00320334,-0.00159193,0.0101221,0,0,0,3.535,0.14,-1.3475,-0.030622,0.009272,-1.0026,-0.16156,-0.26404,0.33726
-0.0366315,0,0,5.03663,5.03663,4.96337,4.96337,0.0721195,0.368026,72.5808,-0.00103397,0.000947364,0.00667969,0,0,0,3.5875,0.2275,-1.435,-0.034892,0.011834,-1.00601,-0.16156,-0.26404,0.33726
-0.0327338,0,0,5.03273,5.03273,4.96727,4.96727,0.0706474,0.366995,72.5838,-0.00101598,0.000921671,0.00667984,0,0,0,3.5525,0.105,-1.295,-0.034892,0.011834,-1.00601,-0.16156,-0.26404,0.33726
-0.0150467,0,0,5.01505,5.01505,4.98495,4.98495,0.0689554,0.366033,72.589,-0.000877698,0.00101427,0.00692588,0,0,0,3.5,0.07,-1.295,-0.03477,0.011956,-1.00577,-0.15806,-0.25984,0.32788
-0.0527183,0,0,5.05272,5.05272,4.94728,4.94728,0.067858,0.36533,72.5937,-0.000743952,0.000872989,0.00176214,0,0,0,3.6925,0.14,-1.4525,-0.034648,0.011834,-1.01089,-0.15806,-0.25984,0.32788
-0.0359889,0,0,5.03599,5.03599,4.96401,4.96401,0.066545,0.364494,72.5987,-0.000729361,0.000850073,0.00176226,0,0,0,3.5525,0.0525,-1.26,-0.034648,0.011834,-1.01089,-0.15806,-0.25984,0.32788
-0.278151,0,0,5.27815,5.27815,4.72185,4.72185,0.0688033,0.364068,72.6019,-0.000843398,-0.00167517,0.00545072,0,0,0,3.3075,0.07,-1.2425,-0.03477,0.009272,-1.00723,-0.15806,-0.25984,0.32788
-0.267617,0,0,5.26762,5.26762,4.73238,4.73238,0.0708482,0.363372,72.6055,-0.000831259,-0.00163949,0.00545075,0,0,0,3.22,-0.0875,-0.9975,-0.03477,0.009272,-1.00723,-0.15806,-0.25984,0.32788
-0.209748,0,0,5.20975,5.20975,4.79025,4.79025,0.071994,0.366707,72.6089,0.00336254,-0.000642475,0.00188485,0,0,0,3.185,-0.175,-0.9625,-0.0305,0.010248,-1.01077,-0.15806,-0.25984,0.32788
-0.228124,0,0,5.22812,5.22812,4.77188,4.77188,0.0733778,0.370307,72.6119,0.00329971,-0.000618323,0.00188441,0,0,0,3.3425,0.0175,-1.1025,-0.0305,0.010248,-1.01077,-0.15806,-0.25984,0.32788
-0.343091,0,0,5.34309,5.34309,4.65691,4.65691,0.0764043,0.37255,72.6146,0.00155976,-0.00154252,0.00372832,0,0,0,3.605,0.175,-1.12,-0.032208,0.009272,-1.00894,-0.15806,-0.25984,0.32788
-0.339912,0,0,5.33991,5.33991,4.66009,4.66009,0.0793046,0.374861,72.6156,0.00151943,-0.0014919,0.00372799,0,0,0,3.5875,0.245,-1.19,-0.032208,0.009272,-1.00894,-0.15904,-0.259,0.3325
-0.398933,0,0,5.39893,5.39893,4.60107,4.60107,0.0829906,0.377419,72.6162,0.00183923,-0.00191607,0.00212927,0,0,0,3.6225,0.1575,-1.19,-0.031842,0.008784,-1.01053,-0.15904,-0.259,0.3325
-0.398175,0,0,5.39818,5.39818,4.60182,4.60182,0.0865683,0.38004,72.6166,0.00179349,-0.00185363,0.00212888,0,0,0,3.6225,0.2275,-1.26,-0.031842,0.008784,-1.01053,-0.15904,-0.259,0.3325
-0.0963185,0,0,5.09632,5.09632,4.90368,4.90368,0.0856431,0.378964,72.6196,-0.00134636,0.00069488,-0.00229712,0,0,0,3.6925,0.28,-1.26,-0.035014,0.011346,-1.01492,-0.15904,-0.259,0.3325
-0.105277,0,0,5.10528,5.10528,4.89472,4.89472,0.0848727,0.377671,72.6227,-0.0013238,0.000681436,-0.00229695,0,0,0,3.7625,0.14,-1.1025,-0.035014,0.011346,-1.01492,-0.15904,-0.259,0.3325
0.0444803,0,0,4.95552,4.95552,5.04448,5.04448,0.0819352,0.374621,72.6272,-0.00272839,0.00172931,-0.0042637,0,0,0,3.6225,0.0875,-0.98,-0.036478,0.012444,-1.01687,-0.15904,-0.259,0.3325
0.0608213,0,0,4.93918,4.93918,5.06082,5.06082,0.0788361,0.371516,72.6314,-0.0026742,0.00167522,-0.00426327,0,0,0,3.4825,0.0175,-1.0325,-0.036478,0.012444,-1.01687,-0.15904,-0.259,0.3325
0.0811042,0,0,4.9189,4.9189,5.0811,5.0811,0.075522,0.36937,72.6358,-0.00190782,0.00186163,-0.00131219,0,0,0,3.4475,0.1225,-0.98,-0.035746,0.012688,-1.01394,-0.15904,-0.259,0.3325
0.0781629,0,0,4.92184,4.92184,5.07816,5.07816,0.0723378,0.367484,72.6434,-0.00187492,0.00180606,-0.00131191,0,0,0,3.465,0.245,-1.26,-0.035746,0.012688,-1.01394,-0.15708,-0.26138,0.33502
0.119288,0,0,4.88071,4.88071,5.11929,5.11929,0.0686366,0.365835,72.6511,-0.00136019,0.00222997,0.00299155,0,0,0,3.5,0.105,-1.365,-0.035258,0.013176,-1.00967,-0.15708,-0.26138,0.33502
0.122987,0,0,4.87701,4.87701,5.12299,5.12299,0.0649784,0.364108,72.6587,-0.00133004,0.00216613,0.00299182,0,0,0,3.465,0.035,-1.295,-0.035258,0.013176,-1.00967,-0.15708,-0.26138,0.33502
-0.52394,0,0,5.52394,5.52394,4.47606,4.47606,0.0708651,0.365625,72.6618,0.00070873,-0.00359322,0.00422102,0,0,0,3.4825,0.0525,-1.2775,-0.033184,0.00732,-1.00845,-0.15708,-0.26138,0.33502
-0.536199,0,0,5.5362,5.5362,4.4638,4.4638,0.0767759,0.366888,72.6648,0.000686692,-0.00349006,0.00422074,0,0,0,3.5875,-0.07,-1.26,-0.033184,0.00732,-1.00845,-0.15708,-0.26138,0.33502
-0.00591904,0,0,5.00592,5.00592,4.99408,4.99408,0.0747861,0.363563,72.6717,-0.00289984,0.000871778,-0.00204922,0,0,0,3.4125,-0.07,-1.2425,-0.036844,0.011712,-1.01467,-0.15708,-0.26138,0.33502
-0.000359602,0,0,5.00036,5.00036,4.99964,4.99964,0.0727672,0.360482,72.6787,-0.00284608,0.000836543,-0.00204883,0,0,0,3.36,0.035,-1.155,-0.036844,0.011712,-1.01467,-0.15708,-0.26138,0.33502
-0.0546203,0,0,5.05462,5.05462,4.94538,4.94538,0.0715938,0.363705,72.6845,0.00305048,0.00118244,0.00397532,0,0,0,3.535,0.14,-1.2075,-0.030866,0.012078,-1.0087,-0.15708,-0.26138,0.33502
-0.0457827,0,0,5.04578,5.04578,4.95422,4.95422,0.070322,0.367262,72.6884,0.00298838,0.00116024,0.00397495,0,0,0,3.465,0.3675,-1.26,-0.030866,0.012078,-1.0087,-0.15904,-0.26306,0.33558
0.17487,0,0,4.82513,4.82513,5.17487,5.17487,0.0658606,0.368253,72.6939,0.000905842,0.00279216,0.000532371,0,0,0,3.3425,0.3325,-1.26,-0.03294,0.013786,-1.01211,-0.15904,-0.26306,0.33558
0.157745,0,0,4.84226,4.84226,5.15774,5.15774,0.0617666,0.36897,72.6994,0.000893317,0.0027207,0.00053237,0,0,0,3.4825,0.175,-1.225,-0.03294,0.013786,-1.01211,-0.15904,-0.26306,0.33558
-0.173253,0,0,5.17325,5.17325,4.82675,4.82675,0.0626145,0.365219,72.7034,-0.00414361,-0.000806174,-0.00081966,0,0,0,3.64,0.245,-1.33,-0.038064,0.010248,-1.01345,-0.15904,-0.26306,0.33558
-0.19754,0,0,5.19754,5.19754,4.80246,4.80246,0.0637947,0.361383,72.7073,-0.00407666,-0.000785575,-0.000819258,0,0,0,3.8325,0.1575,-1.295,-0.038064,0.010248,-1.01345,-0.15904,-0.26306,0.33558
-0.0755199,0,0,5.07552,5.07552,4.92448,4.92448,0.0631615,0.363642,72.7112,0.0019582,0.000791022,0.0124589,0,0,0,3.5875,0.1575,-1.2075,-0.031964,0.011834,-1.00028,-0.15904,-0.26306,0.33558
-0.0430873,0,0,5.04309,5.04309,4.95691,4.95691,0.0620712,0.365891,72.715,0.00191894,0.000771992,0.0124587,0,0,0,3.325,0.175,-1.1375,-0.031964,0.011834,-1.00028,-0.15904,-0.26306,0.33558
0.134821,0,0,4.86518,4.86518,5.13482,5.13482,0.0584109,0.366204,72.72,0.000455649,0.00217363,0.00213107,0,0,0,3.29,0.14,-1.2775,-0.033428,0.013298,-1.01053,-0.15904,-0.26306,0.33558
0.147346,0,0,4.85265,4.85265,5.14735,5.14735,0.0546638,0.366285,72.7231,0.000454246,0.00210823,0.00213113,0,0,0,3.185,0,-1.2075,-0.033428,0.013298,-1.01053,-0.15974,-0.2611,0.33362
-0.0716624,0,0,5.07166,5.07166,4.92834,4.92834,0.0542139,0.37086,72.724,0.00438343,0.000390604,0.00938458,0,0,0,3.0975,0,-1.225,-0.029402,0.01159,-1.00333,-0.15974,-0.2611,0.33362
-0.0921246,0,0,5.09212,5.09212,4.90788,4.90788,0.0540745,0.375682,72.725,0.00429926,0.000388171,0.00938404,0,0,0,3.2725,0.1925,-1.19,-0.029402,0.01159,-1.00333,-0.15974,-0.2611,0.33362
-0.335399,0,0,5.3354,5.3354,4.6646,4.6646,0.0574919,0.378431,72.7248,0.00206455,-0.00199472,0.00704764,0,0,0,3.3775,0.105,-1.1725,-0.031598,0.00915,-1.00565,-0.15974,-0.2611,0.33362
-0.368803,0,0,5.3688,5.3688,4.6312,4.6312,0.0613071,0.38106,72.7244,0.00201867,-0.00192813,0.00704727,0,0,0,3.6575,0.07,-1.2775,-0.031598,0.00915,-1.00565,-0.15974,-0.2611,0.33362
-0.204417,0,0,5.20442,5.20442,4.79558,4.79558,0.062621,0.3817,72.7253,0.000671143,-0.000683936,-0.00586242,0,0,0,3.535,-0.07,-1.2075,-0.03294,0.01037,-1.01846,-0.15974,-0.2611,0.33362
-0.204145,0,0,5.20414,5.20414,4.79586,4.79586,0.0638962,0.382266,72.726,0.000661272,-0.00066168,-0.00586251,0,0,0,3.535,-0.105,-1.33,-0.03294,0.01037,-1.01846,-0.15974,-0.2611,0.33362
0.137807,0,0,4.86219,4.86219,5.13781,5.13781,0.0601433,0.381005,72.7292,-0.000531585,0.00244812,0.00016218,0,0,0,3.57,-0.14,-1.26,-0.03416,0.013542,-1.01248,-0.15974,-0.2611,0.33362
0.128822,0,0,4.87118,4.87118,5.12882,5.12882,0.0566201,0.380018,72.7325,-0.000514351,0.00238663,0.000162357,0,0,0,3.64,0,-1.2425,-0.03416,0.013542,-1.01248,-0.15974,-0.2611,0.33362
0.0583781,0,0,4.94162,4.94162,5.05838,5.05838,0.0542184,0.377799,72.7405,-0.00181197,0.0013677,-0.00278811,0,0,0,3.5,-0.035,-1.2075,-0.035502,0.012566,-1.01541,-0.15456,-0.25802,0.33068
0.0621836,0,0,4.93782,4.93782,5.06218,5.06218,0.0518241,0.375956,72.7482,-0.00177981,0.00132591,-0.00278786,0,0,0,3.465,0.1575,-1.3125,-0.035502,0.012566,-1.01541,-0.15456,-0.25802,0.33068
-0.267923,0,0,5.26792,5.26792,4.73208,4.73208,0.0543141,0.378584,72.7532,0.00194038,-0.00131742,0.00606409,0,0,0,3.4825,0.1925,-1.295,-0.03172,0.009882,-1.00662,-0.15456,-0.25802,0.33068
-0.288718,0,0,5.28872,5.28872,4.71128,4.71128,0.0570422,0.381038,72.7582,0.00189755,-0.00126981,0.00606376,0,0,0,3.6575,0.1225,-1.2425,-0.03172,0.009882,-1.00662,-0.15456,-0.25802,0.33068
-0.112226,0,0,5.11223,5.11223,4.88777,4.88777,0.0571207,0.384276,72.7642,0.00293443,0.000319208,0.00594043,0,0,0,3.4825,0.1225,-1.12,-0.030622,0.011468,-1.00674,-0.15456,-0.25802,0.33068
-0.120085,0,0,5.12009,5.12009,4.87991,4.87991,0.0573117,0.387335,72.7701,0.00288102,0.000322543,0.00594007,0,0,0,3.5525,0.0525,-1.1725,-0.030622,0.011468,-1.00674,-0.15456,-0.25802,0.33068
-0.142075,0,0,5.14207,5.14207,4.85793,4.85793,0.0578188,0.391079,72.7756,0.00342311,0.000209266,-0.00180614,0,0,0,3.5875,0.1575,-1.2425,-0.030012,0.011346,-1.01443,-0.15456,-0.25802,0.33068
-0.141312,0,0,5.14131,5.14131,4.85869,4.85869,0.0583013,0.394755,72.781,0.00335897,0.000217686,-0.00180659,0,0,0,3.5875,0.1575,-1.2425,-0.030012,0.011346,-1.01443,-0.15456,-0.25802,0.33068
-0.196995,0,0,5.197,5.197,4.803,4.803,0.0595843,0.397044,72.7829,0.00198266,-0.000492683,0.00421759,0,0,0,3.535,0.07,-1.365,-0.031354,0.010614,-1.00845,-0.15764,-0.2597,0.33572
-0.143527,0,0,5.14353,5.14353,4.85647,4.85647,0.0600525,0.400041,72.7849,0.00253779,-0.000118133,0.01184,0,0,0,3.3425,0.14,-1.3475,-0.030744,0.01098,-1.00089,-0.15764,-0.2597,0.33572
-0.151538,0,0,5.15154,5.15154,4.84846,4.84846,0.0606252,0.403281,72.7871,0.00248125,-0.000108137,0.0118396,0,0,0,3.4125,0.315,-1.2425,-0.030744,0.01098,-1.00089,-0.15764,-0.2597,0.33572
-0.00376523,0,0,5.00377,5.00377,4.99623,4.99623,0.0590244,0.402138,72.7909,-0.00114338,0.000963066,0.00790543,0,0,0,3.5175,0.105,-1.225,-0.034404,0.012078,-1.00479,-0.15764,-0.2597,0.33572
0.00662473,0,0,4.99338,4.99338,5.00662,5.00662,0.0573139,0.400752,72.7946,-0.00111919,0.000933212,0.00790563,0,0,0,3.43,-0.0525,-1.225,-0.034404,0.012078,-1.00479,-0.15764,-0.2597,0.33572
0.0518337,0,0,4.94817,4.94817,5.05183,5.05183,0.0549879,0.40137,72.7981,0.00117826,0.00150325,0.00643022,0,0,0,3.36,-0.21,-1.26,-0.032086,0.012688,-1.00626,-0.15764,-0.2597,0.33572
0.0689633,0,0,4.93104,4.93104,5.06896,5.06896,0.0524727,0.402491,72.8017,0.00115868,0.00145935,0.00643012,0,0,0,3.22,0.0875,-1.2425,-0.032086,0.012688,-1.00626,-0.15764,-0.2597,0.33572
0.0745286,0,0,4.92547,4.92547,5.07453,5.07453,0.0499422,0.399578,72.8059,-0.00267801,0.000926683,0.00237322,0,0,0,3.1325,0.0175,-1.1375,-0.03599,0.0122,-1.01028,-0.15764,-0.2597,0.33572
0.0568973,0,0,4.9431,4.9431,5.0569,5.0569,0.0477357,0.397112,72.8075,-0.00263497,0.000888173,0.00237355,0,0,0,3.2725,0.245,-1.1375,-0.03599,0.0122,-1.01028,-0.16086,-0.2625,0.34314
0.180135,0,0,4.81987,4.81987,5.18013,5.18013,0.0437872,0.391851,72.8106,-0.00509436,0.0019184,0.00311193,0,0,0,3.4475,0.21,-1.085,-0.038552,0.013298,-1.00955,-0.16086,-0.2625,0.34314
0.191749,0,0,4.80825,4.80825,5.19175,5.19175,0.0397727,0.386279,72.8136,-0.0049971,0.00184834,0.00311264,0,0,0,3.3425,-0.035,-1.085,-0.038552,0.013298,-1.00955,-0.16086,-0.2625,0.34314
-0.450273,0,0,5.45027,5.45027,4.54973,4.54973,0.0452408,0.390676,72.8113,0.00367313,-0.0029413,0.0123332,0,0,0,3.5175,-0.035,-1.05,-0.029768,0.008418,-1.0004,-0.16086,-0.2625,0.34314
-0.447106,0,0,5.44711,5.44711,4.55289,4.55289,0.0505188,0.395277,72.809,0.00359283,-0.00284918,0.0123326,0,0,0,3.5,0.14,-1.0325,-0.029768,0.008418,-1.0004,-0.16086,-0.2625,0.34314
0.137591,0,0,4.86241,4.86241,5.13759,5.13759,0.0471181,0.392858,72.8114,-0.00231777,0.00185441,-0.00143733,0,0,0,3.4125,0.1925,-1.0325,-0.035746,0.013176,-1.01406,-0.16086,-0.2625,0.34314
0.141254,0,0,4.85875,4.85875,5.14125,5.14125,0.0437532,0.390583,72.8138,-0.00227806,0.00179568,-0.00143702,0,0,0,3.3775,0.245,-1.015,-0.035746,0.013176,-1.01406,-0.16086,-0.2625,0.34314
0.166803,0,0,4.8332,4.8332,5.1668,5.1668,0.0401034,0.388976,72.8162,-0.00139962,0.00197624,3.86024e-05,0,0,0,3.29,0.1225,-1.0325,-0.034892,0.01342,-1.0126,-0.16086,-0.2625,0.34314
0.148253,0,0,4.85175,4.85175,5.14825,5.14825,0.0368205,0.387076,72.8192,-0.00136645,0.00191894,3.88655e-05,0,0,0,3.4475,-0.07,-1.085,-0.034892,0.01342,-1.0126,-0.16114,-0.26544,0.33572
-0.0850861,0,0,5.08509,5.08509,4.91491,4.91491,0.0370319,0.383672,72.821,-0.0033723,-0.000519906,-0.000452531,0,0,0,3.465,0,-1.085,-0.036966,0.01098,-1.01309,-0.16114,-0.26544,0.33572
-0.0730663,0,0,5.07307,5.07307,4.92693,4.92693,0.0370621,0.380537,72.823,-0.00331758,-0.000519379,-0.000452167,0,0,0,3.36,0.1225,-0.9625,-0.036966,0.01098,-1.01309,-0.16114,-0.26544,0.33572
0.274355,0,0,4.72565,4.72565,5.27435,5.27435,0.0320171,0.379226,72.8268,-0.000864988,0.00293425,0.00262175,0,0,0,3.3075,0.07,-1.015,-0.034526,0.014518,-1.01004,-0.16114,-0.26544,0.33572
0.276216,0,0,4.72378,4.72378,5.27622,5.27622,0.0270775,0.378044,72.8301,-0.000844359,0.00284804,0.00262193,0,0,0,3.29,0.1225,-1.225,-0.034526,0.014518,-1.01004,-0.16114,-0.26544,0.33572
-0.274886,0,0,5.27489,5.27489,4.72511,4.72511,0.0303169,0.378423,72.8297,-5.68682e-07,-0.00210262,0.00544967,0,0,0,3.4125,-0.0175,-1.2775,-0.033672,0.009516,-1.00723,-0.16114,-0.26544,0.33572
-0.268389,0,0,5.26839,5.26839,4.73161,4.73161,0.0333762,0.378516,72.8296,-2.19332e-06,-0.00204923,0.00544963,0,0,0,3.36,-0.175,-1.155,-0.033672,0.009516,-1.00723,-0.16114,-0.26544,0.33572
-0.00300359,0,0,5.003,5.003,4.997,4.997,0.0324789,0.376741,72.8312,-0.00118606,0.000255518,-0.00045168,0,0,0,3.3075,-0.28,-1.1725,-0.034892,0.011834,-1.01309,-0.16114,-0.26544,0.33572
-0.0182978,0,0,5.0183,5.0183,4.9817,4.9817,0.0318284,0.375478,72.8324,-0.00116403,0.000244166,-0.000451529,0,0,0,3.43,0,-1.365,-0.034892,0.011834,-1.01309,-0.1624,-0.26796,0.34244
-0.28232,0,0,5.28232,5.28232,4.71768,4.71768,0.0350512,0.382312,72.8308,0.00624881,-0.00140936,0.00655571,0,0,0,3.3775,0.035,-1.33,-0.027328,0.010126,-1.00613,-0.1624,-0.26796,0.34244
-0.276619,0,0,5.27662,5.27662,4.72338,4.72338,0.0381059,0.388716,72.8294,0.00613703,-0.00135605,0.00655493,0,0,0,3.3425,-0.14,-1.2425,-0.027328,0.010126,-1.00613,-0.1624,-0.26796,0.34244
0.0493789,0,0,4.95062,4.95062,5.04938,5.04938,0.0363188,0.386288,72.8312,-0.00183863,0.000811043,-0.00106757,0,0,0,3.36,-0.21,-1.225,-0.03538,0.012322,-1.0137,-0.1624,-0.26796,0.34244
0.0319175,0,0,4.96808,4.96808,5.03192,5.03192,0.0348337,0.383759,72.8327,-0.00179449,0.000785123,-0.00106726,0,0,0,3.5,-0.2975,-1.47,-0.03538,0.012322,-1.0137,-0.1624,-0.26796,0.34244
-0.0273836,0,0,5.02738,5.02738,4.97262,4.97262,0.0342536,0.382382,72.8339,-0.000798578,0.000408619,0.003482,0,0,0,3.57,-0.28,-1.33,-0.034404,0.011956,-1.00918,-0.1624,-0.26796,0.34244
-0.036267,0,0,5.03627,5.03627,4.96373,4.96373,0.0338185,0.38118,72.8351,-0.000777612,0.000401025,0.00348215,0,0,0,3.64,-0.1925,-1.295,-0.034404,0.011956,-1.00918,-0.1624,-0.26796,0.34244
0.163544,0,0,4.83646,4.83646,5.16354,5.16354,0.0304764,0.380767,72.8376,7.99977e-05,0.00229672,-0.000329177,0,0,0,3.5875,-0.035,-1.2425,-0.03355,0.013908,-1.01297,-0.1624,-0.26796,0.34244
0.150453,0,0,4.84955,4.84955,5.15045,5.15045,0.0274133,0.380433,72.8374,8.58413e-05,0.00224326,-0.000329111,0,0,0,3.6925,0,-1.4,-0.03355,0.013908,-1.01297,-0.16226,-0.26306,0.33768
-0.244011,0,0,5.24401,5.24401,4.75599,4.75599,0.030192,0.383048,72.8345,0.00222694,-0.00124991,-0.00143598,0,0,0,3.6925,0.07,-1.295,-0.031354,0.01037,-1.01406,-0.16226,-0.26306,0.33768
-0.243415,0,0,5.24342,5.24342,4.75658,4.75658,0.032889,0.385608,72.8316,0.00218226,-0.00120285,-0.0014363,0,0,0,3.6925,0.07,-1.295,-0.031354,0.01037,-1.01406,-0.16226,-0.26306,0.33768
-0.0487446,0,0,5.04874,5.04874,4.95126,4.95126,0.0326716,0.385975,72.8302,0.000596543,0.000503135,0.00126852,0,0,0,3.71,-0.0875,-1.295,-0.03294,0.012078,-1.01138,-0.16226,-0.26306,0.33768
-0.0486794,0,0,5.04868,5.04868,4.95132,4.95132,0.032459,0.386336,72.8289,0.000590244,0.000499424,0.00126848,0,0,0,3.71,-0.0875,-1.295,-0.03294,0.012078,-1.01138,-0.16226,-0.26306,0.33768
-0.0749207,0,0,5.07492,5.07492,4.92508,4.92508,0.0326351,0.38334,72.8276,-0.00300205,-0.000352389,0.0037278,0,0,0,3.5525,0.0175,-1.3825,-0.0366,0.011224,-1.00894,-0.16226,-0.26306,0.33768
-0.0755509,0,0,5.07555,5.07555,4.92445,4.92445,0.0328158,0.380397,72.8263,-0.00295068,-0.000349236,0.00372814,0,0,0,3.5525,0.0175,-1.3825,-0.0366,0.011224,-1.00894,-0.16226,-0.26306,0.33768
0.243652,0,0,4.75635,4.75635,5.24365,5.24365,0.0283294,0.379041,72.8273,-0.000497301,0.00286989,0.00950692,0,0,0,3.5175,-0.21,-1.1025,-0.03416,0.014518,-1.00321,-0.16226,-0.26306,0.33768
0.243244,0,0,4.75676,4.75676,5.24324,5.24324,0.023967,0.377723,72.8272,-0.000474292,0.00279375,0.00950711,0,0,0,3.5175,-0.21,-1.1025,-0.03416,0.014518,-1.00321,-0.16254,-0.26166,0.33614
0.0228346,0,0,4.97717,4.97717,5.02283,5.02283,0.0229384,0.37196,72.8258,-0.00559759,-3.31182e-05,0.00581932,0,0,0,3.43,0,-1.33,-0.039406,0.011712,-1.00687,-0.16254,-0.26166,0.33614
0.0215962,0,0,4.9784,4.9784,5.0216,5.0216,0.0219548,0.366302,72.8245,-0.00549885,-5.02835e-05,0.00581996,0,0,0,3.43,0,-1.33,-0.039406,0.011712,-1.00687,-0.16254,-0.26166,0.33614
0.00181685,0,0,4.99818,4.99818,5.00182,5.00182,0.021286,0.368788,72.8224,0.00247581,0.00115931,0.00127059,0,0,0,3.8325,0.0875,-1.2775,-0.031354,0.012932,-1.01138,-0.16254,-0.26166,0.33614
0.00231997,0,0,4.99768,4.99768,5.00232,5.00232,0.0206273,0.371233,72.8203,0.00243314,0.00114782,0.00127032,0,0,0,3.8325,0.0875,-1.2775,-0.031354,0.012932,-1.01138,-0.16254,-0.26166,0.33614
0.183624,0,0,4.81638,4.81638,5.18362,5.18362,0.0173379,0.369903,72.82,-0.000945237,0.00231167,0.00249998,0,0,0,3.7275,0.035,-1.19,-0.03477,0.014152,-1.01016,-0.16254,-0.26166,0.33614
0.183284,0,0,4.81672,4.81672,5.18328,5.18328,0.0141399,0.368606,72.8197,-0.000922599,0.00225586,0.00250014,0,0,0,3.7275,0.035,-1.19,-0.03477,0.014152,-1.01016,-0.16254,-0.26166,0.33614
-0.271442,0,0,5.27144,5.27144,4.72856,4.72856,0.0176675,0.366401,72.8164,-0.0028279,-0.00244552,0.00717241,0,0,0,3.57,0.14,-1.2425,-0.036722,0.009394,-1.00552,-0.16254,-0.26166,0.33614
-0.0315155,0,0,5.03152,5.03152,4.96848,4.96848,0.017598,0.3683,72.8139,0.00163394,0.000240058,-0.00315548,0,0,0,3.465,0.175,-1.295,-0.032208,0.012078,-1.01577,-0.16254,-0.26166,0.33614
-0.0115982,0,0,5.0116,5.0116,4.9884,4.9884,0.0172394,0.369835,72.8126,0.00160714,0.000233799,-0.00315565,0,0,0,3.3075,-0.0175,-1.365,-0.032208,0.012078,-1.01577,-0.15932,-0.25564,0.33796
-0.00872478,0,0,5.00872,5.00872,4.99128,4.99128,0.0168483,0.367212,72.8118,-0.00272056,-0.000261534,0.00422156,0,0,0,3.29,0.07,-1.3825,-0.0366,0.01159,-1.00845,-0.15932,-0.25564,0.33796
-0.0178989,0,0,5.0179,5.0179,4.9821,4.9821,0.0166014,0.364278,72.8113,-0.00266935,-0.000265844,0.00422189,0,0,0,3.36,-0.14,-1.2775,-0.0366,0.01159,-1.00845,-0.15932,-0.25564,0.33796
-0.121835,0,0,5.12183,5.12183,4.87817,4.87817,0.0178789,0.361604,72.8102,-0.00274417,-0.00122056,-0.000203969,0,0,0,3.395,-0.035,-1.2075,-0.036722,0.010614,-1.01284,-0.15932,-0.25564,0.33796
-0.143679,0,0,5.14368,5.14368,4.85632,4.85632,0.0194419,0.359332,72.809,-0.00270452,-0.00119328,-0.000203729,0,0,0,3.57,0.175,-1.295,-0.036722,0.010614,-1.01284,-0.15932,-0.25564,0.33796
-0.212621,0,0,5.21262,5.21262,4.78738,4.78738,0.0219707,0.362827,72.8065,0.00294431,-0.00114915,0.00409907,0,0,0,3.57,0.14,-1.295,-0.030988,0.010614,-1.00857,-0.15932,-0.25564,0.33796
-0.186238,0,0,5.18624,5.18624,4.81376,4.81376,0.0240477,0.366491,72.8041,0.00288036,-0.0011129,0.00409865,0,0,0,3.36,0.28,-1.295,-0.030988,0.010614,-1.00857,-0.15932,-0.25564,0.33796
0.182484,0,0,4.81752,4.81752,5.18248,5.18248,0.0206845,0.371105,72.804,0.00450063,0.00249221,0.00336046,0,0,0,3.29,0.245,-1.2425,-0.02928,0.014274,-1.00931,-0.15932,-0.25564,0.33796
0.18129,0,0,4.81871,4.81871,5.18129,5.18129,0.0174272,0.375169,72.8017,0.00442971,0.00243536,0.00336002,0,0,0,3.3075,-0.035,-1.1725,-0.02928,0.014274,-1.00931,-0.16366,-0.26292,0.33054
0.00273667,0,0,4.99726,4.99726,5.00274,5.00274,0.0168634,0.374252,72.7991,-0.00102115,0.000105109,0.00262243,0,0,0,3.3425,0.0875,-1.155,-0.03477,0.011956,-1.01004,-0.16366,-0.26292,0.33054
-0.00385584,0,0,5.00386,5.00386,4.99614,4.99614,0.0164106,0.372936,72.7965,-0.000998172,9.72067e-05,0.00262259,0,0,0,3.395,-0.1575,-1.19,-0.03477,0.011956,-1.01004,-0.16366,-0.26292,0.33054
-0.0890417,0,0,5.08904,5.08904,4.91096,4.91096,0.0172139,0.373311,72.7932,0.000453098,-0.000499407,0.0106142,0,0,0,3.4125,-0.14,-1.1025,-0.033306,0.011346,-1.00211,-0.16366,-0.26292,0.33054
-0.0760034,0,0,5.076,5.076,4.924,4.924,0.0178056,0.373977,72.7898,0.000441485,-0.00048908,0.0106141,0,0,0,3.3075,0.035,-1.26,-0.033306,0.011346,-1.00211,-0.16366,-0.26292,0.33054
0.186036,0,0,4.81396,4.81396,5.18604,5.18604,0.0145544,0.370853,72.7887,-0.00266263,0.00153033,-0.00131152,0,0,0,3.255,-0.0525,-1.155,-0.036478,0.01342,-1.01394,-0.16366,-0.26292,0.33054
0.159703,0,0,4.8403,4.8403,5.1597,5.1597,0.0117734,0.367825,72.7875,-0.00260977,0.00148179,-0.00131117,0,0,0,3.465,-0.035,-1.2075,-0.036478,0.01342,-1.01394,-0.16366,-0.26292,0.33054
-0.0953358,0,0,5.09534,5.09534,4.90466,4.90466,0.0127904,0.369155,72.7841,0.00149753,-0.00057661,-0.00266376,0,0,0,3.3775,-0.1575,-1.1725,-0.03233,0.011346,-1.01528,-0.16366,-0.26292,0.33054
-0.119767,0,0,5.11977,5.11977,4.88023,4.88023,0.0141375,0.370543,72.7889,0.0014733,-0.0005531,-0.00266392,0,0,0,3.5875,-0.105,-1.1375,-0.03233,0.011346,-1.01528,-0.15806,-0.26446,0.33642
-0.0921765,0,0,5.09218,5.09218,4.90782,4.90782,0.0150461,0.37237,72.7936,0.00192736,-0.000170861,0.00249971,0,0,0,3.6225,-0.105,-1.19,-0.031842,0.011712,-1.01016,-0.15806,-0.26446,0.33642
