pid_x,pid_y,pid_z,front_left_speed,front_right_speed,back_left_speed,back_right_speed,orientation_x,orientation_y,orientation_z,acceleration_x,acceleration_y,acceleration_z,accel_rejected,mag_rejected,ahrs_initialized,gyro_x,gyro_y,gyro_z,accel_x,accel_y,accel_z,mag_x,mag_y,mag_z
-0.0445005,0,0,10.0445,10.0445,9.9555,9.9555,0.0247225,0.0204528,0.692815,0.0040604,-0.0208856,0.00461083,0,0,0,3.535,-0.2625,-1.365,-0.035868,-0.00915,-1.00809,-0.16268,-0.24206,0.32494
-0.0794979,0,0,10.0795,10.0795,9.9205,9.9205,0.0441655,0.0343788,1.38458,0.0016306,-0.0166382,0.000922054,0,0,0,3.36,-0.2275,-1.155,-0.038064,-0.005246,-1.01175,-0.16268,-0.24206,0.32494
-0.115464,0,0,10.1155,10.1155,9.88454,9.88454,0.0641466,0.0551716,2.06841,0.0063701,-0.0170223,-0.00645547,0,0,0,3.3775,-0.175,-1.155,-0.03294,-0.005978,-1.01907,-0.16268,-0.24206,0.32494
-0.150286,0,0,10.1503,10.1503,9.84971,9.84971,0.083492,0.0753009,2.74898,0.00601877,-0.0166846,-0.0064563,0,0,0,3.1675,-0.1225,-1.0675,-0.03294,-0.005978,-1.01907,-0.16268,-0.24206,0.32494
-0.183375,0,0,10.1834,10.1834,9.81662,9.81662,0.101875,0.095115,3.41918,0.00640187,-0.0153868,0.00448508,0,0,0,3.29,-0.14,-1.1025,-0.032208,-0.005002,-1.00821,-0.1624,-0.24388,0.33544
-0.225088,0,0,10.2251,10.2251,9.77491,9.77491,0.125049,0.113633,4.0874,0.00377043,-0.0187682,0.00890984,0,0,0,3.5525,-0.1925,-1.225,-0.034526,-0.008784,-1.00382,-0.1624,-0.24388,0.33544
-0.264848,0,0,10.2648,10.2648,9.73515,9.73515,0.147138,0.135716,4.74874,0.00702959,-0.0175278,0.00927693,0,0,0,3.6575,-0.28,-1.225,-0.030866,-0.00793,-1.00345,-0.1624,-0.24388,0.33544
-0.30129,0,0,10.3013,10.3013,9.69871,9.69871,0.167383,0.145546,5.41332,-0.000917056,-0.0163196,-0.00252752,0,0,0,3.6575,-0.245,-1.26,-0.038674,-0.007076,-1.01516,-0.1624,-0.24388,0.33544
-0.327627,0,0,10.3276,10.3276,9.67237,9.67237,0.182015,0.153213,6.07398,-0.000443443,-0.0116677,-0.00351224,0,0,0,3.6575,0.035,-1.225,-0.038064,-0.002684,-1.01614,-0.1624,-0.24388,0.33544
-0.353443,0,0,10.3534,10.3534,9.64656,9.64656,0.196357,0.160571,6.73105,-0.000571865,-0.0114174,-0.00351341,0,0,0,3.6225,0.07,-1.1375,-0.038064,-0.002684,-1.01614,-0.1624,-0.24388,0.33544
-0.392986,0,0,10.393,10.393,9.60701,9.60701,0.218326,0.172808,7.38287,-5.65353e-05,-0.0173845,-0.00253183,0,0,0,3.6575,0.0525,-1.12,-0.037332,-0.009028,-1.01516,-0.1624,-0.24388,0.33544
-0.426101,0,0,10.4261,10.4261,9.5739,9.5739,0.236723,0.188681,8.03505,0.00391844,-0.0142545,0.0027528,0,0,0,3.6225,0.0875,-1.1375,-0.033062,-0.006222,-1.00992,-0.16226,-0.24458,0.32578
-0.455476,0,0,10.4555,10.4555,9.54452,9.54452,0.253042,0.200542,8.68466,0.00188914,-0.0129927,4.60143e-05,0,0,0,3.3775,-0.0175,-1.2425,-0.034892,-0.005246,-1.0126,-0.16226,-0.24458,0.32578
-0.487288,0,0,10.4873,10.4873,9.51271,9.51271,0.270716,0.210878,9.33096,0.000493894,-0.0137834,0.00225703,0,0,0,3.5175,-0.105,-1.26,-0.036112,-0.006344,-1.0104,-0.16226,-0.24458,0.32578
-0.517986,0,0,10.518,10.518,9.48201,9.48201,0.28777,0.216578,9.97554,-0.00239977,-0.0132415,-0.00118735,0,0,0,3.6225,-0.175,-1.225,-0.038918,-0.0061,-1.01382,-0.16226,-0.24458,0.32578
-0.547207,0,0,10.5472,10.5472,9.45279,9.45279,0.304004,0.221776,10.6157,-0.00249049,-0.0129582,-0.00118916,0,0,0,3.325,-0.2625,-1.3125,-0.038918,-0.0061,-1.01382,-0.16226,-0.24458,0.32578
-0.582466,0,0,10.5825,10.5825,9.41753,9.41753,0.323592,0.234404,11.2476,0.00190557,-0.0150588,3.7575e-05,0,0,0,3.4825,-0.3675,-1.0675,-0.034282,-0.00854,-1.0126,-0.16226,-0.24458,0.32578
-0.607688,0,0,10.6077,10.6077,9.39231,9.39231,0.337605,0.239967,11.8781,-0.000985697,-0.010662,0.00335537,0,0,0,3.5525,-0.35,-1.1025,-0.037088,-0.004392,-1.00931,-0.16226,-0.24458,0.32578
-0.631692,0,0,10.6317,10.6317,9.36831,9.36831,0.35094,0.245365,12.5076,-0.00107991,-0.0104292,0.00335357,0,0,0,3.3075,-0.28,-1.085,-0.037088,-0.004392,-1.00931,-0.1589,-0.24696,0.3269
-0.663982,0,0,10.664,10.664,9.33602,9.33602,0.368879,0.256141,13.1299,0.000797281,-0.0135357,0.00421142,0,0,0,3.465,0.0525,-1.33,-0.035014,-0.007808,-1.00845,-0.1589,-0.24696,0.3269
-0.69086,0,0,10.6909,10.6909,9.30914,9.30914,0.383811,0.268131,13.7461,0.00289625,-0.0114432,-0.00365995,0,0,0,3.325,0.035,-1.365,-0.032696,-0.005978,-1.01626,-0.1589,-0.24696,0.3269
-0.719914,0,0,10.7199,10.7199,9.28009,9.28009,0.399952,0.273721,14.3619,-0.00206076,-0.0123828,0.00383752,0,0,0,3.325,-0.14,-1.225,-0.037576,-0.007198,-1.00882,-0.1589,-0.24696,0.3269
-0.743858,0,0,10.7439,10.7439,9.25614,9.25614,0.413255,0.282569,14.9703,0.00155089,-0.0100744,-0.00403358,0,0,0,3.395,-0.1225,-1.295,-0.033794,-0.005124,-1.01663,-0.1589,-0.24696,0.3269
-0.774111,0,0,10.7741,10.7741,9.22589,9.22589,0.430061,0.291039,15.5747,-5.47774e-05,-0.01259,0.00235684,0,0,0,3.395,-0.1225,-1.2775,-0.035258,-0.00793,-1.01028,-0.1589,-0.24696,0.3269
-0.804878,0,0,10.8049,10.8049,9.19512,9.19512,0.447155,0.299265,16.165,-0.000198342,-0.0122917,0.00235382,0,0,0,3.745,0.035,-1.085,-0.035258,-0.00793,-1.01028,-0.16478,-0.24108,0.32676
-0.832844,0,0,10.8328,10.8328,9.16716,9.16716,0.462691,0.306308,16.7508,-0.000442747,-0.0112878,-0.00109154,0,0,0,3.6575,0,-1.12,-0.03538,-0.007198,-1.0137,-0.16478,-0.24108,0.32676
-0.86522,0,0,10.8652,10.8652,9.13478,9.13478,0.480678,0.317548,17.3293,0.00203377,-0.0130501,0.00480633,0,0,0,3.4475,-0.315,-1.085,-0.032696,-0.009272,-1.00784,-0.16478,-0.24108,0.32676
-0.900435,0,0,10.9004,10.9004,9.09957,9.09957,0.500241,0.331978,17.9009,0.00384717,-0.0139299,0.00492493,0,0,0,3.5175,-0.2625,-1.1025,-0.030622,-0.010492,-1.00772,-0.16478,-0.24108,0.32676
-0.935012,0,0,10.935,10.935,9.06499,9.06499,0.519451,0.346051,18.4677,0.00360156,-0.0135947,0.0049205,0,0,0,3.535,-0.1225,-1.295,-0.030622,-0.010492,-1.00772,-0.16478,-0.24108,0.32676
-0.964072,0,0,10.9641,10.9641,9.03593,9.03593,0.535595,0.33821,19.0423,-0.0112043,-0.0119695,0.0154923,0,0,0,3.57,-0.245,-1.3475,-0.045628,-0.00915,-0.997228,-0.16478,-0.24108,0.32676
-0.960652,0,0,10.9607,10.9607,9.03935,9.03935,0.533696,0.351183,19.598,0.00995073,0.00228613,0.0341794,0,0,0,3.5,-0.1575,-1.33,-0.024156,0.005124,-0.978684,-0.16478,-0.24108,0.32676
-0.957524,0,0,10.9575,10.9575,9.04248,9.04248,0.531958,0.364432,20.149,0.0097195,0.00225579,0.0341782,0,0,0,3.57,0.175,-1.4525,-0.024156,0.005124,-0.978684,-0.16478,-0.24108,0.32676
-1.22762,0,0,11.2276,11.2276,8.77238,8.77238,0.682009,0.537884,20.5988,0.0760606,-0.100521,0.0251514,0,0,0,3.6925,-0.1925,-1.4,0.045506,-0.100162,-0.98759,-0.16282,-0.2429,0.33698
-1.15109,0,0,11.1511,11.1511,8.84891,8.84891,0.639492,0.381531,21.2331,-0.0848518,0.0214745,0.18858,0,0,0,3.6925,0.1575,-1.575,-0.118828,0.022448,-0.825452,-0.16282,-0.2429,0.33698
-1.15203,0,0,11.152,11.152,8.84797,8.84797,0.640018,0.382069,21.2322,-0.0848612,0.0214836,0.18858,1,0,0,3.7975,0.2975,-1.7325,-0.118828,0.022448,-0.825452,-0.16282,-0.2429,0.33698
-1.15163,0,0,11.1516,11.1516,8.84837,8.84837,0.639794,0.382011,21.2312,-0.166863,-0.121286,0.143458,1,0,0,3.3775,-0.0525,-1.785,-0.201178,-0.12017,-0.870226,-0.16282,-0.2429,0.33698
-1.15286,0,0,11.1529,11.1529,8.84714,8.84714,0.640476,0.381534,21.2302,-0.166855,-0.121275,0.143458,1,0,0,3.885,-0.2975,-1.785,-0.201178,-0.12017,-0.870226,-0.16282,-0.2429,0.33698
-1.15437,0,0,11.1544,11.1544,8.84563,8.84563,0.641316,0.380874,21.2296,-0.223213,-0.0589752,0.280669,1,0,0,3.9725,-0.4025,-1.5575,-0.257786,-0.05795,-0.734074,-0.16282,-0.2429,0.33698
-1.15588,0,0,11.1559,11.1559,8.84412,8.84412,0.642156,0.380215,21.229,-0.223201,-0.0589606,0.280668,1,0,0,3.9725,-0.4025,-1.5575,-0.257786,-0.05795,-0.734074,-0.16282,-0.2429,0.33698
-1.15381,0,0,11.1538,11.1538,8.84619,8.84619,0.641003,0.381638,21.2291,-0.0245968,-0.175856,0.334397,1,0,0,2.8525,0.8225,-1.155,-0.058316,-0.174704,-0.68076,-0.15652,-0.23492,0.34216
-1.15151,0,0,11.1515,11.1515,8.84849,8.84849,0.639726,0.381268,21.2292,0.0281345,-0.226805,0.152311,1,0,0,2.7825,-0.2275,-1.12,-0.005368,-0.225578,-0.861442,-0.15652,-0.23492,0.34216
-1.14943,0,0,11.1494,11.1494,8.85057,8.85057,0.638575,0.381105,21.2295,0.0281373,-0.226825,0.152311,1,0,0,2.8525,-0.105,-0.9975,-0.005368,-0.225578,-0.861442,-0.15652,-0.23492,0.34216
-0.98474,0,0,10.9847,10.9847,9.01526,9.01526,0.547078,0.0727971,21.9371,-0.213827,0.0538131,-0.0331806,0,0,0,2.9225,-0.1575,-0.84,-0.25376,0.056364,-1.04554,-0.15652,-0.23492,0.34216
-0.825785,0,0,10.8258,10.8258,9.17421,9.17421,0.45877,-0.226885,22.6396,-0.208596,0.0522718,-0.0331741,0,0,0,3.7275,-0.035,-0.56,-0.25376,0.056364,-1.04554,-0.15652,-0.23492,0.34216
-1.26439,0,0,11.2644,11.2644,8.73561,8.73561,0.702441,-0.48796,23.3035,-0.271707,-0.183089,0.096465,0,0,0,4.095,-0.1225,0.2625,-0.321714,-0.183,-0.91683,-0.15652,-0.23492,0.34216
-1.42929,0,0,11.4293,11.4293,8.57071,8.57071,0.79405,-0.0666917,23.5541,0.332256,-0.0519129,-0.0933527,0,0,0,4.1125,-0.5425,0.42,0.29219,-0.053558,-1.1052,-0.15652,-0.23492,0.34216
-1.43125,0,0,11.4313,11.4313,8.56875,8.56875,0.79514,-0.066486,23.5579,0.332253,-0.0518939,-0.093353,1,0,0,4.1125,0.14,1.05,0.29219,-0.053558,-1.1052,-0.15666,-0.23212,0.34384
-1.4299,0,0,11.4299,11.4299,8.5701,8.5701,0.794388,-0.0646686,23.5619,0.163113,-0.0120937,-0.128639,1,0,0,3.08,1.085,1.1025,0.122366,-0.013786,-1.14021,-0.15666,-0.23212,0.34384
-1.20994,0,0,11.2099,11.2099,8.79006,8.79006,0.672189,-0.304865,24.2181,-0.137988,0.0726056,0.0510025,0,0,0,2.8525,0.8925,1.1375,-0.18422,0.072956,-0.96197,-0.15666,-0.23212,0.34384
-0.997215,0,0,10.9972,10.9972,9.00278,9.00278,0.554008,-0.538809,24.8685,-0.133905,0.0705429,0.0509946,0,0,0,3.71,0.35,0.6475,-0.18422,0.072956,-0.96197,-0.15666,-0.23212,0.34384
-0.711818,0,0,10.7118,10.7118,9.28818,9.28818,0.395455,-0.540205,25.3804,0.0597672,0.134457,-0.173241,0,0,0,4.0775,0.1575,0.4025,0.010248,0.139568,-1.1845,-0.15666,-0.23212,0.34384
-0.714094,0,0,10.7141,10.7141,9.28591,9.28591,0.396719,-0.541182,25.3822,0.0597842,0.134479,-0.173241,1,0,0,4.2175,-0.5775,-0.1575,0.010248,0.139568,-1.1845,-0.15666,-0.23212,0.34384
-0.66914,0,0,10.6691,10.6691,9.33086,9.33086,0.371744,-0.414264,25.8102,0.110172,0.0263275,-0.0254356,0,0,0,4.06,-0.665,-0.525,0.063074,0.031964,-1.03785,-0.15666,-0.23212,0.34384
-0.622699,0,0,10.6227,10.6227,9.3773,9.3773,0.345944,-0.289332,26.2339,0.107992,0.0258773,-0.0254194,0,0,0,3.3425,-0.2625,-1.1025,0.063074,0.031964,-1.03785,-0.15666,-0.23212,0.34384
-0.408263,0,0,10.4083,10.4083,9.59174,9.59174,0.226813,-0.232561,26.6799,0.0773587,0.083396,0.0701265,0,0,0,3.3775,-0.49,-1.4525,0.033306,0.0915,-0.94306,-0.15778,-0.21854,0.34188
-0.197364,0,0,10.1974,10.1974,9.80264,9.80264,0.109647,-0.175306,27.1214,0.0763594,0.0813511,0.070136,0,0,0,3.0625,-0.175,-2.2575,0.033306,0.0915,-0.94306,-0.15778,-0.21854,0.34188
-0.316715,0,0,10.3167,10.3167,9.68329,9.68329,0.175953,-0.411288,27.7205,-0.204041,-0.0612349,0.0472436,0,0,0,2.835,4.095,-2.94,-0.252418,-0.052094,-0.965752,-0.15778,-0.21854,0.34188
-0.433921,0,0,10.4339,10.4339,9.56608,9.56608,0.241067,-0.642551,28.3128,-0.200005,-0.0600986,0.0472024,0,0,0,2.835,4.095,-2.94,-0.252418,-0.052094,-0.965752,-0.15778,-0.21854,0.34188
-0.433514,0,0,10.4335,10.4335,9.56649,9.56649,0.240841,-0.640629,28.3081,0.02556,-0.00404638,-0.117056,1,0,0,3.3425,1.1025,-3.99,-0.025864,0.003904,-1.12874,-0.15778,-0.21854,0.34188
-0.433107,0,0,10.4331,10.4331,9.56689,9.56689,0.240615,-0.638707,28.3033,0.0255265,-0.00405032,-0.117056,1,0,0,3.3425,1.1025,-3.99,-0.025864,0.003904,-1.12874,-0.15778,-0.21854,0.34188
-0.431932,0,0,10.4319,10.4319,9.56807,9.56807,0.239962,-0.638991,28.2976,0.0603979,0.0770304,-0.101442,1,0,0,3.0975,-0.1925,-4.515,0.00915,0.084912,-1.11325,-0.15778,-0.21854,0.34188
-0.430756,0,0,10.4308,10.4308,9.56924,9.56924,0.239309,-0.639276,28.2919,0.0604028,0.077019,-0.101442,1,0,0,3.0975,-0.1925,-4.515,0.00915,0.084912,-1.11325,-0.15778,-0.21854,0.34188
-0.531998,0,0,10.532,10.532,9.468,9.468,0.295554,-0.353389,28.5774,0.215774,-0.0262954,-0.0739854,0,0,0,3.0625,4.1825,-4.2525,0.17019,-0.019276,-1.08604,-0.15988,-0.22288,0.34636
-0.500109,0,0,10.5001,10.5001,9.49989,9.49989,0.277838,-0.425073,29.075,-0.0465984,0.00636961,0.0675213,0,0,0,2.205,-0.2275,-4.0425,-0.09455,0.013664,-0.945622,-0.15988,-0.22288,0.34636
-0.47063,0,0,10.4706,10.4706,9.52937,9.52937,0.261461,-0.495529,29.5695,-0.0453687,0.00608374,0.0675128,0,0,0,2.695,-0.6125,-3.22,-0.09455,0.013664,-0.945622,-0.15988,-0.22288,0.34636
-0.280592,0,0,10.2806,10.2806,9.71941,9.71941,0.155884,-0.610987,30.0936,-0.0609692,0.0711666,-0.0647925,0,0,0,3.1675,-0.735,-2.695,-0.11224,0.08052,-1.07689,-0.15988,-0.22288,0.34636
-0.1001,0,0,10.1001,10.1001,9.8999,9.8999,0.0556113,-0.720117,30.6153,-0.0590646,0.0694165,-0.0648114,0,0,0,4.7775,0.7,-1.5225,-0.11224,0.08052,-1.07689,-0.15988,-0.22288,0.34636
-0.0908938,0,0,10.0909,10.0909,9.90911,9.90911,0.0504966,-0.79338,31.1064,-0.0559637,0.000814167,-0.000772057,0,0,0,5.0925,0.7525,-1.0675,-0.11041,0.012078,-1.01333,-0.15988,-0.22288,0.34636
-0.0785574,0,0,10.0786,10.0786,9.92144,9.92144,0.043643,-0.865089,31.5944,-0.0547123,0.000694548,-0.000790072,0,0,0,4.025,0.6125,-0.07,-0.11041,0.012078,-1.01333,-0.15988,-0.22288,0.34636
-0.24219,0,0,10.2422,10.2422,9.75781,9.75781,0.13455,-0.704941,31.9343,0.0897335,-0.0463254,0.103383,0,0,0,4.4275,0.0525,0.21,0.037454,-0.036478,-0.909998,-0.15988,-0.22288,0.34636
-0.397062,0,0,10.3971,10.3971,9.60294,9.60294,0.22059,-0.550927,32.2741,0.0870456,-0.0448237,0.103408,0,0,0,3.01,-0.84,0.875,0.037454,-0.036478,-0.909998,-0.15904,-0.22218,0.34286
-0.856903,0,0,10.8569,10.8569,9.1431,9.1431,0.476057,-0.340628,32.5511,0.0833753,-0.152966,0.085336,0,0,0,2.2575,-0.9975,1.015,0.037454,-0.148962,-0.927932,-0.15904,-0.22218,0.34286
-1.30595,0,0,11.306,11.306,8.69405,8.69405,0.725529,-0.135968,32.8272,0.0798034,-0.148612,0.0853052,0,0,0,2.52,0.1575,1.645,0.037454,-0.148962,-0.927932,-0.15904,-0.22218,0.34286
-0.918034,0,0,10.918,10.918,9.08197,9.08197,0.510019,-0.261908,33.3395,-0.0393628,0.152822,-0.0854374,0,0,0,3.045,-0.1575,1.645,-0.084424,0.155916,-1.09739,-0.15904,-0.22218,0.34286
-0.542655,0,0,10.5427,10.5427,9.45734,9.45734,0.301475,-0.382771,33.8488,-0.0372534,0.149182,-0.0854235,0,0,0,4.1825,-0.2275,1.9425,-0.084424,0.155916,-1.09739,-0.15904,-0.22218,0.34286
-0.0630852,0,0,10.0631,10.0631,9.93691,9.93691,0.0350474,-0.721192,34.4764,-0.182718,0.156623,0.0618256,0,0,0,4.935,0.1575,1.6625,-0.236436,0.167994,-0.951234,-0.15904,-0.22218,0.34286
0.404912,0,0,9.59509,9.59509,10.4049,10.4049,-0.224951,-1.04738,35.0989,-0.177026,0.152085,0.0617302,0,0,0,5.145,1.05,1.0675,-0.236436,0.167994,-0.951234,-0.15904,-0.22218,0.34286
0.397494,0,0,9.60251,9.60251,10.3975,10.3975,-0.22083,-1.0458,35.1024,-0.0770708,-0.201888,-0.104127,1,0,0,5.845,0.91,0.8225,-0.13603,-0.185684,-1.11581,-0.15904,-0.22218,0.34286
0.395151,0,0,9.60485,9.60485,10.3952,10.3952,-0.219529,-1.04466,35.1047,-0.0770906,-0.201865,-0.104126,1,0,0,4.2525,0.6475,0.1575,-0.13603,-0.185684,-1.11581,-0.1617,-0.22274,0.35098
0.395538,0,0,9.60446,9.60446,10.3955,10.3955,-0.219743,-1.04481,35.1063,-0.085349,0.0682752,-0.173715,1,0,0,3.395,-0.105,-0.28,-0.144326,0.08418,-1.18486,-0.1617,-0.22274,0.35098
0.398575,0,0,9.60142,9.60142,10.3986,10.3986,-0.221431,-1.04536,35.1065,-0.0853394,0.0682458,-0.173715,1,0,0,2.555,-0.3325,-1.085,-0.144326,0.08418,-1.18486,-0.1617,-0.22274,0.35098
0.0204532,0,0,9.97955,9.97955,10.0205,10.0205,-0.0113629,-1.00355,35.4503,-0.0305501,-0.15268,-0.0620576,0,0,0,2.2575,-0.3675,-1.575,-0.088572,-0.140178,-1.07409,-0.1617,-0.22274,0.35098
-0.34646,0,0,10.3465,10.3465,9.65354,9.65354,0.192478,-0.964605,35.7886,-0.0312297,-0.149122,-0.0620515,0,0,0,1.6625,-0.14,-2.6425,-0.088572,-0.140178,-1.07409,-0.1617,-0.22274,0.35098
-0.38895,0,0,10.3889,10.3889,9.61105,9.61105,0.216083,-1.07875,36.2346,-0.10626,-0.0278051,-0.0687277,0,0,0,2.5375,-0.0525,-3.185,-0.16592,-0.019398,-1.08068,-0.1617,-0.22274,0.35098
-0.436157,0,0,10.4362,10.4362,9.56384,9.56384,0.242309,-1.18964,36.6747,-0.104325,-0.0273476,-0.0687679,0,0,0,4.2,0.455,-3.605,-0.16592,-0.019398,-1.08068,-0.1617,-0.22274,0.35098
-0.44316,0,0,10.4432,10.4432,9.55684,9.55684,0.2462,-1.18868,36.6708,0.0169012,-0.00578541,-0.132455,1,0,0,5.635,0.5425,-3.4825,-0.044164,0.002074,-1.14387,-0.1617,-0.22274,0.35098
-0.452381,0,0,10.4524,10.4524,9.54762,9.54762,0.251323,-1.18861,36.6662,0.0168999,-0.00569602,-0.132455,1,0,0,6.3175,0.0175,-3.9025,-0.044164,0.002074,-1.14387,-0.16058,-0.21756,0.34972
-0.458411,0,0,10.4584,10.4584,9.54159,9.54159,0.254673,-1.18904,36.6613,0.206668,0.0909647,0.222373,1,0,0,5.32,-0.28,-4.06,0.1464,0.098576,-0.79178,-0.16058,-0.21756,0.34972
-0.460794,0,0,10.4608,10.4608,9.53921,9.53921,0.255997,-1.18804,36.6562,0.206651,0.0909878,0.222374,1,0,0,4.1825,0.56,-4.165,0.1464,0.098576,-0.79178,-0.16058,-0.21756,0.34972
-0.459901,0,0,10.4599,10.4599,9.5401,9.5401,0.2555,-1.18744,36.6516,0.136057,0.160836,0.295774,1,0,0,3.1675,0.3325,-3.885,0.075518,0.16836,-0.718946,-0.16058,-0.21756,0.34972
-0.453978,0,0,10.454,10.454,9.54602,9.54602,0.25221,-1.18859,36.6478,0.136077,0.160778,0.295774,1,0,0,1.61,-0.7,-3.43,0.075518,0.16836,-0.718946,-0.16058,-0.21756,0.34972
-0.472007,0,0,10.472,10.472,9.52799,9.52799,0.262226,-0.693394,36.7322,0.386079,0.0266142,0.0907142,0,0,0,1.4,-0.875,-3.0975,0.335256,0.03416,-0.922564,-0.16058,-0.21756,0.34972
-0.491025,0,0,10.491,10.491,9.50897,9.50897,0.272792,-0.207754,36.8176,0.377603,0.0267989,0.09078,0,0,0,2.3275,-0.49,-2.1,0.335256,0.03416,-0.922564,-0.16058,-0.21756,0.34972
-0.580161,0,0,10.5802,10.5802,9.41984,9.41984,0.322312,-0.0592516,37.0964,0.105799,-0.0231415,-0.00364292,0,0,0,3.43,-0.245,-1.6275,0.064904,-0.016592,-1.01626,-0.16058,-0.21756,0.34972
-0.671595,0,0,10.6716,10.6716,9.3284,9.3284,0.373109,0.0872146,37.3742,0.103242,-0.0222549,-0.00364892,0,0,0,4.97,0.8225,-0.77,0.064904,-0.016592,-1.01626,-0.16058,-0.21756,0.34972
-0.676321,0,0,10.6763,10.6763,9.32368,9.32368,0.375734,0.0881527,37.3755,0.073219,-0.11356,-0.119713,1,0,0,4.97,0.5425,-0.4725,0.03477,-0.107848,-1.13143,-0.15778,-0.23058,0.35924
-0.681218,0,0,10.6812,10.6812,9.31878,9.31878,0.378455,0.087978,37.3778,0.122788,0.123413,0.141184,1,0,0,5.0225,-0.105,0.1925,0.084546,0.128832,-0.872544,-0.15778,-0.23058,0.35924
-0.669993,0,0,10.67,10.67,9.33001,9.33001,0.372218,0.0887237,37.3811,0.122775,0.123305,0.141184,1,0,0,0,0.4375,0.7,0.084546,0.128832,-0.872544,-0.15778,-0.23058,0.35924
-0.669444,0,0,10.6694,10.6694,9.33056,9.33056,0.371913,0.0888999,37.3847,0.414702,-0.0528075,0.212126,1,0,0,3.325,0.105,0.8925,0.377712,-0.047092,-0.80215,-0.15778,-0.23058,0.35924
-0.666367,0,0,10.6664,10.6664,9.33363,9.33363,0.370204,0.0881199,37.3883,0.414716,-0.0528373,0.212126,1,0,0,2.5375,-0.455,0.9275,0.377712,-0.047092,-0.80215,-0.15778,-0.23058,0.35924
-0.701043,0,0,10.701,10.701,9.29896,9.29896,0.389469,0.428607,37.5643,0.286437,0.0102719,-0.0272838,0,0,0,2.17,-0.455,0.8225,0.254858,0.015616,-1.03968,-0.15778,-0.23058,0.35924
-0.736444,0,0,10.7364,10.7364,9.26356,9.26356,0.409136,0.761608,37.7397,0.280626,0.0106147,-0.0273465,0,0,0,2.9575,-0.455,1.2075,0.254858,0.015616,-1.03968,-0.15778,-0.23058,0.35924
-0.73564,0,0,10.7356,10.7356,9.26436,9.26436,0.408689,0.761541,37.7435,0.143226,0.0147592,-0.140951,1,0,0,3.22,-0.035,1.0325,0.116876,0.019764,-1.15241,-0.15778,-0.23058,0.35924
-0.751052,0,0,10.7511,10.7511,9.24895,9.24895,0.417251,0.7616,37.7465,0.143225,0.0149086,-0.140952,1,0,0,8.2775,0.035,0.525,0.116876,0.019764,-1.15241,-0.15834,-0.22694,0.33922
-0.974634,0,0,10.9746,10.9746,9.02537,9.02537,0.541463,0.755858,38.0914,-0.0391459,-0.0880749,-0.0309298,0,0,0,3.9025,0.0175,0.14,-0.066368,-0.085278,-1.04322,-0.15834,-0.22694,0.33922
-1.19126,0,0,11.1913,11.1913,8.80874,8.80874,0.661812,0.750347,38.4317,-0.0390497,-0.0859747,-0.0309506,0,0,0,3.4475,0.8225,-0.35,-0.066368,-0.085278,-1.04322,-0.15834,-0.22694,0.33922
-1.27743,0,0,11.2774,11.2774,8.72257,8.72257,0.709682,0.744608,38.7805,-0.018297,-0.0353116,-0.0494016,0,0,0,3.5525,0.4375,-0.6475,-0.045628,-0.035502,-1.06152,-0.15834,-0.22694,0.33922
-1.36056,0,0,11.3606,11.3606,8.63944,8.63944,0.755864,0.737613,39.1242,-0.0181749,-0.0345057,-0.0494103,0,0,0,3.2725,-0.105,-1.47,-0.045628,-0.035502,-1.06152,-0.15834,-0.22694,0.33922
-1.36132,0,0,11.3613,11.3613,8.63868,8.63868,0.756289,0.737349,39.1232,-0.0580176,-0.168349,-0.142728,1,0,0,3.745,-0.175,-1.82,-0.085644,-0.169214,-1.15412,-0.15834,-0.22694,0.33922
-1.36346,0,0,11.3635,11.3635,8.63654,8.63654,0.757477,0.736953,39.1208,-0.0580107,-0.168328,-0.142728,1,0,0,4.1825,-0.2625,-2.6075,-0.085644,-0.169214,-1.15412,-0.15834,-0.22694,0.33922
-1.36215,0,0,11.3622,11.3622,8.63785,8.63785,0.756751,0.736029,39.1176,-0.0238571,-0.135245,-0.198424,1,0,0,3.115,-0.5775,-3.0275,-0.051362,-0.136152,-1.20939,-0.15834,-0.22694,0.33922
-1.36077,0,0,11.3608,11.3608,8.63923,8.63923,0.755985,0.735383,39.1138,-0.0238458,-0.135258,-0.198423,1,0,0,3.0975,-0.42,-3.4475,-0.051362,-0.136152,-1.20939,-0.161,-0.23198,0.343
-1.31196,0,0,11.312,11.312,8.68804,8.68804,0.728864,0.6613,39.4974,-0.0542607,0.0115537,-0.0501257,0,0,0,2.8,-0.3675,-3.605,-0.083204,0.01098,-1.06225,-0.161,-0.23198,0.343
-1.26522,0,0,11.2652,11.2652,8.73478,8.73478,0.702899,0.589934,39.8766,-0.0530152,0.0111007,-0.0501064,0,0,0,2.9925,0.07,-3.8675,-0.083204,0.01098,-1.06225,-0.161,-0.23198,0.343
-1.40128,0,0,11.4013,11.4013,8.59872,8.59872,0.778491,0.576623,40.2041,-0.0312799,-0.0523073,0.00889419,0,0,0,3.115,0.35,-3.6925,-0.06161,-0.05368,-1.00369,-0.161,-0.23198,0.343
-1.53743,0,0,11.5374,11.5374,8.46257,8.46257,0.85413,0.56244,40.5281,-0.0310324,-0.0509873,0.00887784,0,0,0,4.1825,0.105,-3.5175,-0.06161,-0.05368,-1.00369,-0.161,-0.23198,0.343
-1.60602,0,0,11.606,11.606,8.39398,8.39398,0.892233,0.631205,40.8159,0.0461258,-0.0193024,-0.00835758,0,0,0,4.41,0.21,-3.0975,0.01708,-0.022692,-1.02077,-0.161,-0.23198,0.343
-1.67269,0,0,11.6727,11.6727,8.32731,8.32731,0.929274,0.698376,41.1014,0.0449535,-0.0186562,-0.00838146,0,0,0,4.4275,0.4025,-2.695,0.01708,-0.022692,-1.02077,-0.161,-0.23198,0.343
-1.71285,0,0,11.7128,11.7128,8.28715,8.28715,0.951582,0.80621,41.3654,0.0889932,-0.00678746,-0.0755424,0,0,0,4.27,0.1575,-2.555,0.063196,-0.011224,-1.08739,-0.161,-0.23198,0.343
-1.74994,0,0,11.7499,11.7499,8.25006,8.25006,0.972186,0.911028,41.6181,0.087164,-0.0064284,-0.0755759,0,0,0,3.4475,-0.42,-1.82,0.063196,-0.011224,-1.08739,-0.16716,-0.22848,0.3423
-1.8444,0,0,11.8444,11.8444,8.1556,8.1556,1.02467,1.09659,41.8195,0.143332,-0.0215123,-0.0328625,0,0,0,2.765,-0.5425,-1.4875,0.122854,-0.027206,-1.04493,-0.16716,-0.22848,0.3423
-1.93645,0,0,11.9365,11.9365,8.06355,8.06355,1.07581,1.27795,42.0201,0.140168,-0.0206213,-0.0329444,0,0,0,2.975,-0.2975,-0.875,0.122854,-0.027206,-1.04493,-0.16716,-0.22848,0.3423
-1.87321,0,0,11.8732,11.8732,8.12679,8.12679,1.04067,1.43671,42.2468,0.132538,0.037019,0.032164,0,0,0,2.8875,0.1925,-0.315,0.117974,0.030988,-0.98027,-0.16716,-0.22848,0.3423
-1.81088,0,0,11.8109,11.8109,8.18912,8.18912,1.00604,1.59224,42.4716,0.129825,0.0364137,0.032103,0,0,0,2.8875,0.1925,-0.315,0.117974,0.030988,-0.98027,-0.16716,-0.22848,0.3423
-1.73404,0,0,11.734,11.734,8.26596,8.26596,0.963353,1.52614,42.8046,-0.0434756,0.0230904,0.0229261,0,0,0,3.85,0.84,0.5425,-0.057218,0.018422,-0.98942,-0.16716,-0.22848,0.3423
-1.65937,0,0,11.6594,11.6594,8.34063,8.34063,0.921874,1.46193,43.1342,-0.0423554,0.0223673,0.0229672,0,0,0,3.85,0.84,0.5425,-0.057218,0.018422,-0.98942,-0.16716,-0.22848,0.3423
-1.7152,0,0,11.7152,11.7152,8.2848,8.2848,0.952889,1.39481,43.4467,-0.0626873,-0.0258197,-0.00246279,0,0,0,4.6025,0.875,0.945,-0.078812,-0.030256,-1.01467,-0.16716,-0.22848,0.3423
-1.76985,0,0,11.7698,11.7698,8.23015,8.23015,0.983248,1.32891,43.7574,-0.0615374,-0.0252896,-0.0024444,0,0,0,4.6025,0.875,0.945,-0.078812,-0.030256,-1.01467,-0.16744,-0.2282,0.33446
-1.69586,0,0,11.6959,11.6959,8.30414,8.30414,0.942147,1.18514,44.1152,-0.109324,0.0146625,-0.036557,0,0,0,3.815,-0.35,1.0675,-0.12932,0.01037,-1.04859,-0.16744,-0.2282,0.33446
-1.62436,0,0,11.6244,11.6244,8.37564,8.37564,0.902424,1.04502,44.469,-0.106879,0.0139701,-0.0364983,0,0,0,3.815,-0.35,1.0675,-0.12932,0.01037,-1.04859,-0.16744,-0.2282,0.33446
-1.59121,0,0,11.5912,11.5912,8.40879,8.40879,0.884004,0.980467,44.7807,-0.0464672,0.00644357,0.0198371,0,0,0,3.3775,-0.7,0.35,-0.069784,0.003172,-0.992714,-0.16744,-0.2282,0.33446
-1.55918,0,0,11.5592,11.5592,8.44082,8.44082,0.866213,0.91754,45.0889,-0.0453691,0.00613343,0.01986,0,0,0,3.3775,-0.7,0.35,-0.069784,0.003172,-0.992714,-0.16744,-0.2282,0.33446
-1.48449,0,0,11.4845,11.4845,8.51551,8.51551,0.824717,0.795174,45.4253,-0.0876974,0.0156685,0.0437546,0,0,0,3.255,0.6475,-0.665,-0.114436,0.01342,-0.969046,-0.16744,-0.2282,0.33446
-1.26529,0,0,11.2653,11.2653,8.73471,8.73471,0.702941,0.737712,45.7514,-0.019756,0.0803469,-0.0839471,0,0,0,3.2725,0.7,-0.98,-0.047214,0.080154,-1.0958,-0.16744,-0.2282,0.33446
-1.05233,0,0,11.0523,11.0523,8.94767,8.94767,0.584628,0.682689,46.0734,-0.0187957,0.0782824,-0.083912,0,0,0,3.4125,0.735,-1.505,-0.047214,0.080154,-1.0958,-0.16744,-0.2282,0.33446
-1.05147,0,0,11.0515,11.0515,8.94853,8.94853,0.58415,0.683466,46.0724,0.0477649,-0.130441,-0.137395,1,0,0,3.2375,0.4375,-1.7675,0.019642,-0.128344,-1.14887,-0.16352,-0.22974,0.3304
-1.05019,0,0,11.0502,11.0502,8.94981,8.94981,0.58344,0.683208,46.0704,-0.108461,0.029411,-0.115264,1,0,0,3.115,-0.175,-2.3975,-0.13725,0.031354,-1.12691,-0.16352,-0.22974,0.3304
-1.04658,0,0,11.0466,11.0466,8.95342,8.95342,0.581436,0.683412,46.067,-0.108465,0.029376,-0.115263,1,0,0,2.3975,0.0875,-3.15,-0.13725,0.031354,-1.12691,-0.16352,-0.22974,0.3304
-0.998983,0,0,10.999,10.999,9.00102,9.00102,0.55499,0.785376,46.2963,0.0880204,0.0256169,0.0281992,0,0,0,2.8,-0.5775,-3.465,0.061854,0.02806,-0.98454,-0.16352,-0.22974,0.3304
-0.953261,0,0,10.9533,10.9533,9.04674,9.04674,0.529589,0.885156,46.5234,0.0862791,0.0251734,0.028178,0,0,0,3.15,-0.665,-3.4825,0.061854,0.02806,-0.98454,-0.16352,-0.22974,0.3304
-0.880872,0,0,10.8809,10.8809,9.11913,9.11913,0.489373,0.962589,46.7618,0.0680413,0.0324096,0.0720551,0,0,0,3.8675,-0.7525,-3.29,0.044896,0.03599,-0.940986,-0.16352,-0.22974,0.3304
-0.811417,0,0,10.8114,10.8114,9.18858,9.18858,0.450787,1.04073,46.9984,0.0666778,0.0317361,0.0720368,0,0,0,4.305,0.4725,-2.94,0.044896,0.03599,-0.940986,-0.16352,-0.22974,0.3304
-0.726359,0,0,10.7264,10.7264,9.27364,9.27364,0.403533,1.00213,47.2861,-0.0208472,0.026515,0.0914808,0,0,0,4.3575,0.4025,-2.695,-0.043676,0.031598,-0.92171,-0.16352,-0.22974,0.3304
-0.640855,0,0,10.6409,10.6409,9.35914,9.35914,0.356031,0.965052,47.575,-0.0202003,0.0256862,0.0914974,0,0,0,3.4475,0.525,-2.45,-0.043676,0.031598,-0.92171,-0.16282,-0.23478,0.33656
-0.314347,0,0,10.3143,10.3143,9.68565,9.68565,0.174637,0.965005,47.8801,0.0432161,0.122909,-0.0377068,0,0,0,2.45,0.2625,-2.3625,0.020008,0.131882,-1.04993,-0.16282,-0.23478,0.33656
0.00413527,0,0,9.99586,9.99586,10.0041,10.0041,-0.00229737,0.966495,48.1831,0.0431901,0.119821,-0.0377026,0,0,0,2.38,0.2975,-1.995,0.020008,0.131882,-1.04993,-0.16282,-0.23478,0.33656
0.167415,0,0,9.83258,9.83258,10.1674,10.1674,-0.0930086,0.790231,48.5365,-0.130374,0.0441073,-0.0296651,0,0,0,2.7125,-0.245,-1.8025,-0.15738,0.057828,-1.042,-0.16282,-0.23478,0.33656
0.325034,0,0,9.67497,9.67497,10.325,10.325,-0.180574,0.618782,48.887,-0.127382,0.042579,-0.029632,0,0,0,2.905,-0.175,-1.1725,-0.15738,0.057828,-1.042,-0.16282,-0.23478,0.33656
0.0251656,0,0,9.97483,9.97483,10.0252,10.0252,-0.0139809,0.729825,49.0459,0.0491426,-0.0894636,0.0983395,0,0,0,3.4125,-0.385,-0.7175,0.021838,-0.076982,-0.915,-0.16282,-0.23478,0.33656
-0.270117,0,0,10.2701,10.2701,9.72988,9.72988,0.150065,0.836531,49.2043,0.0472804,-0.0866008,0.0983107,0,0,0,4.62,-0.735,-0.07,0.021838,-0.076982,-0.915,-0.16282,-0.23478,0.33656
-0.223835,0,0,10.2238,10.2238,9.77617,9.77617,0.124353,0.848556,49.4545,0.0142694,0.0177353,0.0820795,0,0,0,4.4975,-0.49,0.1225,-0.011102,0.027694,-0.931104,-0.16282,-0.23478,0.33656
-0.178008,0,0,10.178,10.178,9.82199,9.82199,0.0988933,0.861205,49.7083,0.0140487,0.017291,0.082077,0,0,0,4.3575,-0.0175,0.4375,-0.011102,0.027694,-0.931104,-0.16646,-0.2443,0.32984
-0.631476,0,0,10.6315,10.6315,9.36852,9.36852,0.35082,0.993171,49.829,0.0553591,-0.156374,-0.0215001,0,0,0,3.395,0.35,0.49,0.032696,-0.150182,-1.03383,-0.16646,-0.2443,0.32984
-1.06956,0,0,11.0696,11.0696,8.93044,8.93044,0.5942,1.1208,49.9489,0.053132,-0.152127,-0.0215762,0,0,0,2.6075,0.6475,0.49,0.032696,-0.150182,-1.03383,-0.16646,-0.2443,0.32984
-1.06669,0,0,11.0667,11.0667,8.93331,8.93331,0.592605,1.12186,49.9519,-0.116602,-0.143362,-0.218663,1,0,0,2.5725,0.63,0.5425,-0.137738,-0.141398,-1.22939,-0.16646,-0.2443,0.32984
-1.06522,0,0,11.0652,11.0652,8.93478,8.93478,0.591789,1.12108,49.9548,-0.116588,-0.143376,-0.218662,1,0,0,3.01,-0.455,0.49,-0.137738,-0.141398,-1.22939,-0.16646,-0.2443,0.32984
-1.06307,0,0,11.0631,11.0631,8.93693,8.93693,0.590594,1.12032,49.9574,-0.0947078,0.0345418,-0.124114,1,0,0,2.8,-0.4375,0.3325,-0.115778,0.036356,-1.13558,-0.16646,-0.2443,0.32984
-1.0637,0,0,11.0637,11.0637,8.9363,8.9363,0.590942,1.11979,49.9592,-0.0946985,0.0345479,-0.124114,1,0,0,3.675,-0.315,-0.1575,-0.115778,0.036356,-1.13558,-0.16646,-0.2443,0.32984
-0.845219,0,0,10.8452,10.8452,9.15478,9.15478,0.469566,0.950407,50.2949,-0.118713,0.0652825,-0.041297,0,0,0,3.7625,-0.4025,-0.5775,-0.142862,0.069174,-1.05347,-0.16646,-0.2443,0.32984
-0.634698,0,0,10.6347,10.6347,9.3653,9.3653,0.35261,0.786324,50.6255,-0.115849,0.0632418,-0.041239,0,0,0,3.85,-0.42,-0.9975,-0.142862,0.069174,-1.05347,-0.16394,-0.24024,0.33334
-0.506863,0,0,10.5069,10.5069,9.49314,9.49314,0.28159,0.641946,50.9332,-0.105676,0.0326922,-0.00222602,0,0,0,3.6925,-0.42,-1.4525,-0.135176,0.039894,-1.0148,-0.16394,-0.24024,0.33334
-0.383102,0,0,10.3831,10.3831,9.6169,9.6169,0.212834,0.501319,51.2374,-0.103222,0.0314923,-0.00219636,0,0,0,3.6925,-0.42,-1.4525,-0.135176,0.039894,-1.0148,-0.16394,-0.24024,0.33334
-0.75765,0,0,10.7577,10.7577,9.24235,9.24235,0.420917,0.581568,51.3669,0.0213586,-0.123152,0.0360073,0,0,0,3.1325,-0.1225,-2.3625,-0.008662,-0.118218,-0.976854,-0.16394,-0.24024,0.33334
-1.12165,0,0,11.1216,11.1216,8.87835,8.87835,0.623138,0.658501,51.4953,0.0200159,-0.119624,0.0359606,0,0,0,3.1325,-0.1225,-2.3625,-0.008662,-0.118218,-0.976854,-0.16394,-0.24024,0.33334
-1.42425,0,0,11.4242,11.4242,8.57575,8.57575,0.791247,0.728143,51.6324,0.022931,-0.103989,-0.010196,0,0,0,3.115,-0.14,-2.73,-0.004514,-0.10553,-1.0226,-0.16394,-0.24024,0.33334
-1.71829,0,0,11.7183,11.7183,8.28171,8.28171,0.954606,0.795009,51.7682,0.0217641,-0.101139,-0.0102549,0,0,0,3.115,-0.14,-2.73,-0.004514,-0.10553,-1.0226,-0.16394,-0.24024,0.33334
-1.70786,0,0,11.7079,11.7079,8.29214,8.29214,0.948814,0.831523,51.9645,0.0318176,0.00708658,0.00387679,0,0,0,3.2375,-0.175,-2.94,0.006222,0.002684,-1.00857,-0.16394,-0.24024,0.33334
-1.69752,0,0,11.6975,11.6975,8.30248,8.30248,0.943069,0.867291,52.1586,0.0311934,0.00698618,0.00386919,0,0,0,3.2375,-0.175,-2.94,0.006222,0.002684,-1.00857,-0.16394,-0.24024,0.33334
-1.6762,0,0,11.6762,11.6762,8.3238,8.3238,0.93122,0.787524,52.3933,-0.0604726,0.00116193,0.0817191,0,0,0,3.675,-0.0175,-2.765,-0.08723,-0.002928,-0.931348,-0.16352,-0.23646,0.33208
-1.51915,0,0,11.5192,11.5192,8.48085,8.48085,0.843973,0.851884,52.5957,0.0664502,0.059115,0.0780381,0,0,0,3.325,-0.525,-2.485,0.041358,0.056486,-0.935008,-0.16352,-0.23646,0.33208
-1.62044,0,0,11.6204,11.6204,8.37956,8.37956,0.900242,0.819918,52.7879,-0.0398994,-0.042978,-0.0664332,0,0,0,3.6575,-0.2275,-2.1525,-0.066002,-0.046482,-1.07836,-0.16352,-0.23646,0.33208
-1.71973,0,0,11.7197,11.7197,8.28027,8.28027,0.955406,0.78901,52.9783,-0.03936,-0.0420153,-0.0664412,0,0,0,3.8325,0.245,-1.8025,-0.066002,-0.046482,-1.07836,-0.16352,-0.23646,0.33208
-1.72071,0,0,11.7207,11.7207,8.27929,8.27929,0.955952,0.76577,53.1814,-0.021096,-0.00377999,-0.0441822,0,0,0,3.43,0.6825,-1.6625,-0.048068,-0.008296,-1.05628,-0.16352,-0.23646,0.33208
-1.72289,0,0,11.7229,11.7229,8.27711,8.27711,0.957162,0.742891,53.3834,-0.0206967,-0.0037588,-0.0441772,0,0,0,3.7625,0.6125,-0.98,-0.048068,-0.008296,-1.05628,-0.16352,-0.23646,0.33208
-1.30415,0,0,11.3042,11.3042,8.69585,8.69585,0.724528,0.653252,53.682,-0.0297016,0.142886,-0.0107796,0,0,0,3.57,0.5075,-0.735,-0.058682,0.142252,-1.02321,-0.16352,-0.23646,0.33208
-0.898524,0,0,10.8985,10.8985,9.10148,9.10148,0.49918,0.566975,53.9692,-0.0281959,0.138954,-0.0107215,0,0,0,3.78,0.07,-0.3325,-0.058682,0.142252,-1.02321,-0.16912,-0.23422,0.33698
-0.992273,0,0,10.9923,10.9923,9.00773,9.00773,0.551263,0.610121,54.12,0.022804,-0.0246419,0.0877441,0,0,0,4.4975,0.2975,-0.1575,-0.00671,-0.022082,-0.925492,-0.16912,-0.23422,0.33698
-1.08022,0,0,11.0802,11.0802,8.91978,8.91978,0.600123,0.651343,54.2695,0.0220846,-0.0237893,0.0877277,0,0,0,3.5525,-0.07,0.1225,-0.00671,-0.022082,-0.925492,-0.16912,-0.23422,0.33698
-1.0707,0,0,11.0707,11.0707,8.9293,8.9293,0.594832,0.659485,54.4468,0.00699978,0.00506238,0.061416,0,0,0,3.8675,-0.0875,0.175,-0.021716,0.006832,-0.9516,-0.16912,-0.23422,0.33698
-1.06055,0,0,11.0605,11.0605,8.93945,8.93945,0.589193,0.667819,54.6221,0.00685433,0.00496395,0.0614153,0,0,0,3.605,0.105,0.2275,-0.021716,0.006832,-0.9516,-0.16912,-0.23422,0.33698
-1.12343,0,0,11.1234,11.1234,8.87657,8.87657,0.624126,0.661666,54.7868,-0.012233,-0.0222713,0.0181323,0,0,0,3.675,0.1575,0.2975,-0.040992,-0.020984,-0.994544,-0.16912,-0.23422,0.33698
-1.18513,0,0,11.1851,11.1851,8.81487,8.81487,0.658407,0.656085,54.9492,-0.0121356,-0.0216731,0.0181267,0,0,0,3.8325,0.56,0.1575,-0.040992,-0.020984,-0.994544,-0.16912,-0.23422,0.33698
-1.10803,0,0,11.108,11.108,8.89197,8.89197,0.615574,0.503122,55.185,-0.116981,0.0117752,0.0536941,0,0,0,3.9375,0.6475,-0.0875,-0.148962,0.013176,-0.959286,-0.16912,-0.23422,0.33698
-1.03349,0,0,11.0335,11.0335,8.96651,8.96651,0.574161,0.352143,55.4174,-0.114346,0.0110527,0.0537213,0,0,0,3.815,-0.315,-0.3325,-0.148962,0.013176,-0.959286,-0.16912,-0.23422,0.33698
-0.951717,0,0,10.9517,10.9517,9.04828,9.04828,0.528732,0.441801,55.5729,0.082354,0.0376162,0.0383495,0,0,0,3.745,-0.1575,-0.595,0.050142,0.040504,-0.974536,-0.1673,-0.23716,0.33964
-0.870072,0,0,10.8701,10.8701,9.12993,9.12993,0.483373,0.529937,55.7259,0.0808158,0.0368244,0.0383435,0,0,0,3.255,-0.1225,-1.1375,0.050142,0.040504,-0.974536,-0.1673,-0.23716,0.33964
-0.853132,0,0,10.8531,10.8531,9.14687,9.14687,0.473962,0.609232,55.8698,0.0580504,0.0132118,0.0680846,0,0,0,3.6225,4.445,-1.6625,0.02867,0.01708,-0.945012,-0.1673,-0.23716,0.33964
-0.836218,0,0,10.8362,10.8362,9.16378,9.16378,0.464565,0.686923,56.0122,0.0566945,0.0130476,0.0680706,0,0,0,3.6225,4.445,-1.6625,0.02867,0.01708,-0.945012,-0.1673,-0.23716,0.33964
-1.02138,0,0,11.0214,11.0214,8.97862,8.97862,0.567435,0.72697,56.1218,0.0144475,-0.0609979,0.0153009,0,0,0,3.2025,-0.245,-2.065,-0.013054,-0.058682,-0.99735,-0.1673,-0.23716,0.33964
-1.20126,0,0,11.2013,11.2013,8.79874,8.79874,0.667366,0.765492,56.2301,0.0137752,-0.0592542,0.0152734,0,0,0,3.2025,-0.245,-2.065,-0.013054,-0.058682,-0.99735,-0.1673,-0.23716,0.33964
-1.36914,0,0,11.3691,11.3691,8.63086,8.63086,0.760636,0.817433,56.3333,0.0240455,-0.0489557,0.0742559,0,0,0,3.85,-0.1575,-2.5375,-0.00183,-0.05002,-0.93879,-0.1673,-0.23716,0.33964
-1.27314,0,0,11.2731,11.2731,8.72686,8.72686,0.707302,0.690898,56.5436,-0.0963253,0.0207032,0.0195848,0,0,0,3.5525,-0.3675,-2.6425,-0.124928,0.020496,-0.99308,-0.1673,-0.23716,0.33964
-1.27344,0,0,11.2734,11.2734,8.72656,8.72656,0.707464,0.691453,56.5414,0.0207772,0.0625955,0.104542,1,0,0,3.605,0.2975,-2.485,-0.00732,0.062342,-0.908778,-0.16282,-0.23716,0.33376
-1.27513,0,0,11.2751,11.2751,8.72487,8.72487,0.708406,0.692158,56.5392,0.0105601,0.0242641,0.111058,1,0,0,4.0425,0.385,-2.5025,-0.017568,0.024034,-0.902312,-0.16282,-0.23716,0.33376
-1.27588,0,0,11.2759,11.2759,8.72412,8.72412,0.708821,0.691844,56.5372,0.0105656,0.0242714,0.111058,1,0,0,3.745,-0.21,-2.3625,-0.017568,0.024034,-0.902312,-0.16282,-0.23716,0.33376
-1.27697,0,0,11.277,11.277,8.72303,8.72303,0.709429,0.691882,56.5358,0.00157495,0.00779489,0.144746,1,0,0,3.85,0,-2.03,-0.026596,0.007564,-0.868884,-0.16282,-0.23716,0.33376
-1.2787,0,0,11.2787,11.2787,8.7213,8.7213,0.710388,0.6926,56.5349,0.00156242,0.00781162,0.144745,1,0,0,4.0425,0.4025,-1.715,-0.026596,0.007564,-0.868884,-0.16282,-0.23716,0.33376
-1.36516,0,0,11.3652,11.3652,8.63484,8.63484,0.75842,0.719588,56.6673,0.0112962,-0.024813,0.0816562,0,0,0,3.29,0.385,-1.505,-0.016348,-0.025864,-0.93147,-0.16282,-0.23716,0.33376
-1.44725,0,0,11.4473,11.4473,8.55275,8.55275,0.804029,0.745621,56.7988,0.0108419,-0.0240172,0.0816395,0,0,0,2.7125,0.35,-1.225,-0.016348,-0.025864,-0.93147,-0.16282,-0.23716,0.33376
-1.68288,0,0,11.6829,11.6829,8.31712,8.31712,0.934934,0.745769,56.9061,-0.024999,-0.0783997,0.0650068,0,0,0,2.6775,0.6125,-0.9275,-0.052338,-0.082472,-0.94794,-0.16282,-0.23716,0.33376
-1.91281,0,0,11.9128,11.9128,8.08719,8.08719,1.06267,0.744929,57.01,-0.0249843,-0.0761708,0.0649681,0,0,0,3.1675,0.7175,-0.315,-0.052338,-0.082472,-0.94794,-0.16268,-0.23422,0.33796
-1.91297,0,0,11.913,11.913,8.08703,8.08703,1.06276,0.745752,57.0118,-0.0269424,0.00492288,0.118819,1,0,0,3.535,0.49,-0.175,-0.05429,-0.001464,-0.894504,-0.16268,-0.23422,0.33796
-1.9147,0,0,11.9147,11.9147,8.0853,8.0853,1.06372,0.745766,57.0138,-0.0269427,0.00493969,0.118819,1,0,0,4.025,0.0175,-0.035,-0.05429,-0.001464,-0.894504,-0.16268,-0.23422,0.33796
-1.8938,0,0,11.8938,11.8938,8.1062,8.1062,1.05211,0.630869,57.2026,-0.0916331,-0.00271218,0.0576185,0,0,0,4.165,-0.14,0.1575,-0.121268,-0.008906,-0.95526,-0.16268,-0.23422,0.33796
-1.87415,0,0,11.8742,11.8742,8.12585,8.12585,1.0412,0.519671,57.3896,-0.0896925,-0.00290232,0.0576414,0,0,0,4.165,0.56,0.49,-0.121268,-0.008906,-0.95526,-0.16268,-0.23422,0.33796
-1.87639,0,0,11.8764,11.8764,8.12361,8.12361,1.04244,0.520506,57.3925,-0.106837,-0.0760345,0.125508,1,0,0,4.1825,0.5075,0.455,-0.13847,-0.081984,-0.887916,-0.16268,-0.23422,0.33796
-1.87773,0,0,11.8777,11.8777,8.12227,8.12227,1.04318,0.520811,57.3949,-0.106842,-0.0760216,0.125508,1,0,0,3.9025,0.1925,0.21,-0.13847,-0.081984,-0.887916,-0.16268,-0.23422,0.33796
-2.18741,0,0,12.1874,12.1874,7.81259,7.81259,1.21523,0.555297,57.4658,-0.00248008,-0.10404,0.0257322,0,0,0,3.36,0.105,0.2275,-0.033062,-0.112972,-0.986858,-0.16268,-0.23422,0.33796
-2.48804,0,0,12.488,12.488,7.51196,7.51196,1.38224,0.588488,57.54,-0.00305933,-0.101126,0.0256603,0,0,0,2.975,0.21,0.105,-0.033062,-0.112972,-0.986858,-0.16226,-0.23772,0.33488
-2.61681,0,0,12.6168,12.6168,7.38319,7.38319,1.45379,0.498053,57.6831,-0.0872499,-0.0521258,0.0518324,0,0,0,2.975,-0.2275,-0.385,-0.119194,-0.06527,-0.960872,-0.16226,-0.23772,0.33488
-2.74414,0,0,12.7441,12.7441,7.25586,7.25586,1.52452,0.409762,57.8238,-0.085709,-0.0508913,0.0518125,0,0,0,3.465,0.1925,-0.665,-0.119194,-0.06527,-0.960872,-0.16226,-0.23772,0.33488
-2.84617,0,0,12.8462,12.8462,7.15383,7.15383,1.58121,0.445454,57.9301,0.0203325,-0.0328048,-0.0115374,0,0,0,3.675,0.2975,-0.735,-0.012078,-0.04819,-1.0237,-0.16226,-0.23772,0.33488
-2.94629,0,0,12.9463,12.9463,7.05371,7.05371,1.63683,0.478879,58.0339,0.0197492,-0.0318345,-0.0115694,0,0,0,4.025,-0.4025,-1.4875,-0.012078,-0.04819,-1.0237,-0.16226,-0.23772,0.33488
-3.16654,0,0,13.1665,13.1665,6.83346,6.83346,1.75919,0.493643,58.1161,-0.0095436,-0.0695134,0.0629949,0,0,0,3.955,0.035,-1.8025,-0.041236,-0.087962,-0.949648,-0.16226,-0.23772,0.33488
-3.37912,0,0,13.3791,13.3791,6.62088,6.62088,1.87729,0.507021,58.1969,-0.00977708,-0.0674533,0.0629275,0,0,0,3.5,-0.1575,-2.1175,-0.041236,-0.087962,-0.949648,-0.16226,-0.23772,0.33488
-3.5212,0,0,13.5212,13.5212,6.4788,6.4788,1.95622,0.516695,58.2906,-0.0058154,-0.0543524,-0.0545359,0,0,0,3.185,-0.1225,-2.1525,-0.037088,-0.07625,-1.06616,-0.16226,-0.23772,0.33488
-3.65844,0,0,13.6584,13.6584,6.34156,6.34156,2.03247,0.525946,58.3831,-0.00597686,-0.0530225,-0.0545837,0,0,0,3.045,0.105,-2.415,-0.037088,-0.07625,-1.06616,-0.1589,-0.23338,0.3367
-3.894,0,0,13.894,13.894,6.106,6.106,2.16333,0.555154,58.4461,0.00201738,-0.0837145,-0.0208613,0,0,0,3.2725,-0.1575,-2.8875,-0.028548,-0.10919,-1.03261,-0.1589,-0.23338,0.3367
-4.12403,0,0,14.124,14.124,5.87597,5.87597,2.29113,0.58295,58.5081,0.00153229,-0.081486,-0.0209528,0,0,0,3.64,-0.175,-3.0625,-0.028548,-0.10919,-1.03261,-0.1589,-0.23338,0.3367
-4.20905,0,0,14.209,14.209,5.79095,5.79095,2.33836,0.533558,58.6206,-0.0521528,-0.0377956,-0.0180269,0,0,0,3.15,-0.07,-3.045,-0.083326,-0.066368,-1.02968,-0.1589,-0.23338,0.3367
-4.29338,0,0,14.2934,14.2934,5.70662,5.70662,2.38521,0.484707,58.7321,-0.0513002,-0.0369783,-0.018053,0,0,0,3.57,-0.175,-2.7475,-0.083326,-0.066368,-1.02968,-0.1589,-0.23338,0.3367
-4.40733,0,0,14.4073,14.4073,5.59267,5.59267,2.44852,0.438743,58.8353,-0.0536566,-0.0507736,-0.0553466,0,0,0,3.5875,-0.0175,-2.5725,-0.086498,-0.081252,-1.06665,-0.1589,-0.23338,0.3367
-4.51954,0,0,14.5195,14.5195,5.48046,5.48046,2.51086,0.393219,58.9375,-0.0528621,-0.0496864,-0.0553879,0,0,0,3.9375,-0.0875,-2.4325,-0.086498,-0.081252,-1.06665,-0.1589,-0.23338,0.3367
-4.52098,0,0,14.521,14.521,5.47902,5.47902,2.51166,0.393346,58.9357,-0.117616,0.00540672,-0.131985,1,0,0,3.955,0.0175,-2.2225,-0.151524,-0.02623,-1.14265,-0.1589,-0.23338,0.3367
-4.52379,0,0,14.5238,14.5238,5.47621,5.47621,2.51321,0.393721,58.9351,-0.117623,0.00543389,-0.131987,1,0,0,4.375,0.1925,-1.5575,-0.151524,-0.02623,-1.14265,-0.16184,-0.23436,0.33194
-4.52671,0,0,14.5267,14.5267,5.47329,5.47329,2.51484,0.394524,58.935,-0.137074,-0.00833812,-0.108628,1,0,0,4.41,0.455,-1.295,-0.171044,-0.040016,-1.11947,-0.16184,-0.23436,0.33194
-4.52604,0,0,14.526,14.526,5.47396,5.47396,2.51447,0.395605,58.9353,-0.137093,-0.00834459,-0.108628,1,0,0,3.29,0.63,-1.015,-0.171044,-0.040016,-1.11947,-0.16184,-0.23436,0.33194
-4.5477,0,0,14.5477,14.5477,5.4523,5.4523,2.5265,0.424684,59.0335,0.024704,-0.00825712,-0.0807312,0,0,0,3.5175,0.49,-0.875,-0.008052,-0.040138,-1.09178,-0.16184,-0.23436,0.33194
-4.5683,0,0,14.5683,14.5683,5.4317,5.4317,2.53795,0.45211,59.1316,0.0242254,-0.00805766,-0.0807437,0,0,0,3.43,-0.0525,-0.245,-0.008052,-0.040138,-1.09178,-0.16184,-0.23436,0.33194
-4.56698,0,0,14.567,14.567,5.43302,5.43302,2.53721,0.451868,59.1335,-0.0674921,0.0537257,-0.105948,1,0,0,3.08,-0.105,-0.105,-0.100162,0.021594,-1.11679,-0.16184,-0.23436,0.33194
-4.5664,0,0,14.5664,14.5664,5.4336,5.4336,2.53689,0.452242,59.1356,-0.0674986,0.05372,-0.105947,1,0,0,3.3075,0.2625,0.035,-0.100162,0.021594,-1.11679,-0.16184,-0.23436,0.33194
-4.42565,0,0,14.4256,14.4256,5.57435,5.57435,2.45869,0.432798,59.2805,-0.00386522,0.0483265,-0.0129362,0,0,0,4.095,0.735,0.07,-0.0366,0.017568,-1.02456,-0.16184,-0.23436,0.33194
-4.28895,0,0,14.289,14.289,5.71105,5.71105,2.38275,0.412795,59.4235,-0.00351611,0.0470024,-0.0128776,0,0,0,4.13,-0.1225,-0.035,-0.0366,0.017568,-1.02456,-0.16184,-0.23436,0.33194
-4.20696,0,0,14.207,14.207,5.79304,5.79304,2.3372,0.376396,59.5449,-0.0228045,0.0258131,0.0149459,0,0,0,4.1475,-0.385,-4.4625,-0.056608,-0.002806,-0.996984,-0.1659,-0.23324,0.33586
-4.32605,0,0,14.3261,14.3261,5.67395,5.67395,2.40336,0.408748,59.6111,0.0175715,-0.0409358,-0.0325639,0,0,0,3.7275,-0.0525,-0.0875,-0.015494,-0.070638,-1.04408,-0.1659,-0.23324,0.33586
-4.43957,0,0,14.4396,14.4396,5.56043,5.56043,2.46643,0.439879,59.6762,0.0170282,-0.0398363,-0.0326147,0,0,0,3.08,-0.1575,-0.2975,-0.015494,-0.070638,-1.04408,-0.1659,-0.23324,0.33586
-4.44892,0,0,14.4489,14.4489,5.55108,5.55108,2.47162,0.539332,59.7422,0.0920715,0.00605119,-0.0665672,0,0,0,3.1675,-0.035,-0.5075,0.06161,-0.024888,-1.07775,-0.1659,-0.23324,0.33586
-4.45912,0,0,14.4591,14.4591,5.54088,5.54088,2.47729,0.636169,59.8066,0.0903814,0.00614921,-0.0665888,0,0,0,3.71,-0.3675,-0.9975,0.06161,-0.024888,-1.07775,-0.1659,-0.23324,0.33586
-4.42406,0,0,14.4241,14.4241,5.57594,5.57594,2.45781,0.544831,59.9306,-0.0736095,0.00226867,0.0183997,0,0,0,3.4475,-0.8925,-1.05,-0.104676,-0.028426,-0.993446,-0.1659,-0.23324,0.33586
-4.39069,0,0,14.3907,14.3907,5.60931,5.60931,2.43927,0.456326,60.0526,-0.0720649,0.00194598,0.018427,0,0,0,3.4825,-0.4375,-1.4175,-0.104676,-0.028426,-0.993446,-0.1659,-0.23324,0.33586
-4.41316,0,0,14.4132,14.4132,5.58684,5.58684,2.45176,0.534432,60.1164,0.0691962,-0.00101216,-0.0508141,0,0,0,3.2375,0.2975,-1.54,0.038552,-0.031598,-1.06213,-0.1659,-0.23324,0.33586
-4.4336,0,0,14.4336,14.4336,5.5664,5.5664,2.46311,0.609863,60.1759,0.0678797,-0.000814761,-0.0508357,0,0,0,2.87,-0.35,-1.9075,0.038552,-0.031598,-1.06213,-0.16926,-0.23576,0.34076
-4.15911,0,0,14.1591,14.1591,5.84089,5.84089,2.31062,0.713786,60.2882,0.110651,0.107661,0.0520391,0,0,0,2.9925,-0.1575,-2.0825,0.083326,0.079422,-0.96014,-0.16926,-0.23576,0.34076
-3.89399,0,0,13.894,13.894,6.10601,6.10601,2.16333,0.816591,60.3989,0.108857,0.105091,0.0521155,0,0,0,3.8675,-0.0525,-2.3625,0.083326,0.079422,-0.96014,-0.16926,-0.23576,0.34076
-3.89513,0,0,13.8951,13.8951,6.10487,6.10487,2.16396,0.816318,60.3971,0.136196,0.108766,0.14531,1,0,0,3.8675,-0.21,-2.205,0.110776,0.083082,-0.867664,-0.16926,-0.23576,0.34076
-3.89339,0,0,13.8934,13.8934,6.10661,6.10661,2.163,0.816568,60.395,0.136192,0.108749,0.145311,1,0,0,2.975,0.0875,-2.4325,0.110776,0.083082,-0.867664,-0.16926,-0.23576,0.34076
-3.89126,0,0,13.8913,13.8913,6.10874,6.10874,2.16181,0.81712,60.3928,0.0590388,0.199713,0.161664,1,0,0,2.8525,0.2625,-2.5025,0.033306,0.173972,-0.851438,-0.16926,-0.23576,0.34076
-3.88926,0,0,13.8893,13.8893,6.11074,6.11074,2.1607,0.817498,60.3912,0.0590322,0.199694,0.161664,1,0,0,2.8875,0.175,-2.1175,0.033306,0.173972,-0.851438,-0.16926,-0.23576,0.34076
-3.46062,0,0,13.4606,13.4606,6.53938,6.53938,1.92257,0.742476,60.5854,-0.0263993,0.142172,0.0176114,0,0,0,2.975,0.455,-2.1175,-0.053802,0.120658,-0.994544,-0.16926,-0.23576,0.34076
-3.04449,0,0,13.0445,13.0445,6.95551,6.95551,1.69138,0.670128,60.7851,-0.0251367,0.13814,0.0177542,0,0,0,3.0975,0.245,-1.6975,-0.053802,0.120658,-0.994544,-0.16478,-0.2366,0.3423
-3.03892,0,0,13.0389,13.0389,6.96108,6.96108,1.68829,0.612606,60.8947,-0.0508597,-0.00504656,-0.00915868,0,0,0,3.535,0.2975,-1.54,-0.080642,-0.022326,-1.02126,-0.16478,-0.2366,0.3423
-3.03255,0,0,13.0325,13.0325,6.96745,6.96745,1.68475,0.55715,61.0042,-0.0498918,-0.00510802,-0.00914699,0,0,0,3.115,0.8225,-0.8225,-0.080642,-0.022326,-1.02126,-0.16478,-0.2366,0.3423
-3.07232,0,0,13.0723,13.0723,6.92768,6.92768,1.70684,0.46115,61.1132,-0.0886711,-0.0254837,0.00806927,0,0,0,3.15,0.5075,-0.84,-0.121268,-0.043066,-1.00418,-0.16478,-0.2366,0.3423
-3.11312,0,0,13.1131,13.1131,6.88688,6.88688,1.72951,0.366536,61.2212,-0.0870198,-0.0250879,0.00806933,0,0,0,3.6225,0.245,-0.6125,-0.121268,-0.043066,-1.00418,-0.16478,-0.2366,0.3423
-3.27601,0,0,13.276,13.276,6.72399,6.72399,1.82,0.453856,61.2533,0.0607621,-0.0478129,0.00481285,0,0,0,3.36,0.595,-0.3325,0.02867,-0.067344,-1.00735,-0.16478,-0.2366,0.3423
-3.43305,0,0,13.433,13.433,6.56695,6.56695,1.90725,0.537665,61.2855,0.0592994,-0.0462914,0.00475068,0,0,0,3.0975,-0.14,-0.14,0.02867,-0.067344,-1.00735,-0.16478,-0.2366,0.3423
-3.67081,0,0,13.6708,13.6708,6.32919,6.32919,2.03934,0.605089,61.3028,0.0395354,-0.0818472,-0.0399707,0,0,0,3.3775,0.0175,-0.105,0.010004,-0.105164,-1.05164,-0.16478,-0.2366,0.3423
-3.90138,0,0,13.9014,13.9014,6.09862,6.09862,2.16743,0.670965,61.3158,0.0383857,-0.0796136,-0.0400656,0,0,0,2.9925,0.14,0.1225,0.010004,-0.105164,-1.05164,-0.16968,-0.23758,0.33642
-3.90885,0,0,13.9089,13.9089,6.09115,6.09115,2.17159,0.608657,61.4082,-0.057108,-0.0126153,-0.038212,0,0,0,3.15,-0.0525,0.035,-0.086986,-0.038308,-1.04981,-0.16968,-0.23758,0.33642
-3.9162,0,0,13.9162,13.9162,6.0838,6.0838,2.17567,0.547381,61.4991,-0.0560386,-0.0125437,-0.0382039,0,0,0,3.045,-0.1925,-0.0875,-0.086986,-0.038308,-1.04981,-0.16968,-0.23758,0.33642
-4.11222,0,0,14.1122,14.1122,5.88778,5.88778,2.28457,0.568348,61.5276,-0.000278138,-0.0643805,0.0314304,0,0,0,3.29,0.245,-0.0875,-0.030622,-0.091988,-0.980636,-0.16968,-0.23758,0.33642
-4.30221,0,0,14.3022,14.3022,5.69779,5.69779,2.39012,0.588078,61.5555,-0.000622462,-0.06254,0.0313518,0,0,0,3.15,0.105,-0.245,-0.030622,-0.091988,-0.980636,-0.16968,-0.23758,0.33642
-4.47811,0,0,14.4781,14.4781,5.52189,5.52189,2.48784,0.673143,61.5676,0.0555987,-0.0481357,0.0461397,0,0,0,3.3075,0.035,-0.56,0.027328,-0.0793,-0.965874,-0.16968,-0.23758,0.33642
-4.65055,0,0,14.6505,14.6505,5.34945,5.34945,2.58364,0.755676,61.5785,0.0541583,-0.0464662,0.0460478,0,0,0,3.92,-0.175,-1.26,0.027328,-0.0793,-0.965874,-0.16968,-0.23758,0.33642
-4.68416,0,0,14.6842,14.6842,5.31584,5.31584,2.60231,0.580816,61.6814,-0.152596,-0.0314839,0.0368474,0,0,0,3.6225,-0.385,-1.4,-0.183366,-0.06466,-0.975024,-0.16968,-0.23758,0.33642
-4.71765,0,0,14.7177,14.7177,5.28235,5.28235,2.62092,0.410503,61.7824,-0.149623,-0.0311583,0.0368583,0,0,0,3.3075,0.1225,-1.5925,-0.183366,-0.06466,-0.975024,-0.1659,-0.231,0.33964
-4.78133,0,0,14.7813,14.7813,5.21867,5.21867,2.6563,0.369477,61.8442,-0.0435793,-0.0310297,-0.0396392,0,0,0,3.4475,0.105,-1.645,-0.077592,-0.065148,-1.05091,-0.1659,-0.231,0.33964
-4.84303,0,0,14.843,14.843,5.15697,5.15697,2.69057,0.328925,61.9046,-0.0428715,-0.030432,-0.0396628,0,0,0,3.29,-0.0175,-2.03,-0.077592,-0.065148,-1.05091,-0.1659,-0.231,0.33964
-4.74894,0,0,14.7489,14.7489,5.25106,5.25106,2.6383,0.267199,62.0042,-0.0496908,0.0239804,-0.0793271,0,0,0,3.3775,0.245,-2.065,-0.085522,-0.009882,-1.09031,-0.1659,-0.231,0.33964
-4.65853,0,0,14.6585,14.6585,5.34147,5.34147,2.58807,0.206396,62.1022,-0.0486296,0.0231048,-0.0792828,0,0,0,3.5875,-0.14,-2.345,-0.085522,-0.009882,-1.09031,-0.1659,-0.231,0.33964
-4.45477,0,0,14.4548,14.4548,5.54523,5.54523,2.47487,0.178028,62.2173,-0.00670786,0.0712031,-0.0616122,0,0,0,3.9025,-0.175,-2.5025,-0.04392,0.040138,-1.07287,-0.1659,-0.231,0.33964
-4.25639,0,0,14.2564,14.2564,5.74361,5.74361,2.36466,0.151602,62.3312,-0.00624664,0.0692814,-0.0615297,0,0,0,3.7975,0.2625,-2.5375,-0.04392,0.040138,-1.07287,-0.1659,-0.231,0.33964
-4.35713,0,0,14.3571,14.3571,5.64287,5.64287,2.42063,0.212261,62.356,0.0409245,-0.0219486,0.0890381,0,0,0,3.6225,-0.42,-2.5025,0.004514,-0.051972,-0.923418,-0.1659,-0.231,0.33964
-4.45599,0,0,14.456,14.456,5.54401,5.54401,2.47555,0.271936,62.381,0.039883,-0.020991,0.0889927,0,0,0,4.025,-0.105,-2.275,0.004514,-0.051972,-0.923418,-0.1659,-0.231,0.33964
-4.10742,0,0,14.1074,14.1074,5.89258,5.89258,2.2819,0.211233,62.5345,-0.0212582,0.109361,0.0972521,0,0,0,3.57,0.2275,-1.995,-0.05795,0.081618,-0.915366,-0.16604,-0.23058,0.33488
-4.15001,0,0,14.15,14.15,5.84999,5.84999,2.30556,0.0961629,62.6147,-0.113887,-0.0348242,-0.074887,0,0,0,3.605,-0.21,-1.8725,-0.152988,-0.06283,-1.08617,-0.16604,-0.23058,0.33488
-4.19346,0,0,14.1935,14.1935,5.80654,5.80654,2.3297,-0.0148413,62.6945,-0.11195,-0.0344032,-0.0749026,0,0,0,3.99,0.8925,-1.4525,-0.152988,-0.06283,-1.08617,-0.16604,-0.23058,0.33488
-4.50793,0,0,14.5079,14.5079,5.49207,5.49207,2.50441,0.051702,62.6695,0.0315782,-0.10793,-0.0233932,0,0,0,3.675,0.2625,-1.155,-0.007686,-0.139324,-1.03493,-0.16604,-0.23058,0.33488
-4.28877,0,0,14.2888,14.2888,5.71123,5.71123,2.38265,-0.0159018,62.7959,-0.0375821,0.068496,0.0593191,0,0,0,4.095,-0.21,-0.805,-0.078324,0.03904,-0.952942,-0.16604,-0.23058,0.33488
-4.21521,0,0,14.2152,14.2152,5.78479,5.78479,2.34179,-0.0287386,62.8775,-0.00540733,0.0251612,-0.00372414,0,0,0,4.1825,0.4725,-0.7,-0.046238,-0.003538,-1.01553,-0.16604,-0.23058,0.33488
-4.14069,0,0,14.1407,14.1407,5.85931,5.85931,2.30038,0.0465124,62.9378,0.0738243,0.0364075,-0.00947365,0,0,0,3.92,0.315,-0.4725,0.034648,0.008418,-1.02126,-0.16604,-0.23058,0.33488
-4.14114,0,0,14.1411,14.1411,5.85886,5.85886,2.30063,0.0468621,62.9393,0.0435683,0.0114981,0.110524,1,0,0,3.64,0.2275,-0.35,0.00427,-0.01647,-0.90219,-0.16604,-0.23058,0.33488
-4.10544,0,0,14.1054,14.1054,5.89456,5.89456,2.2808,0.0239923,63.0156,-0.0168969,0.0110301,0.0239822,0,0,0,3.9025,0.175,-0.35,-0.056852,-0.016592,-0.988078,-0.16436,-0.2303,0.34006
-4.09647,0,0,14.0965,14.0965,5.90353,5.90353,2.27581,0.0176585,63.0817,-0.00390889,0.00092876,-0.0711764,0,0,0,4.3225,-0.5775,-0.1225,-0.04392,-0.026596,-1.08251,-0.16436,-0.2303,0.34006
-4.08817,0,0,14.0882,14.0882,5.91183,5.91183,2.27121,0.0124089,63.1469,-0.00381727,0.000848419,-0.0711732,0,0,0,4.445,-0.035,-0.1925,-0.04392,-0.026596,-1.08251,-0.16436,-0.2303,0.34006
-4.19373,0,0,14.1937,14.1937,5.80627,5.80627,2.32985,0.0262344,63.1807,0.00286612,-0.0347669,0.00796448,0,0,0,4.0425,0.245,-0.175,-0.036966,-0.063196,-1.00394,-0.16436,-0.2303,0.34006
-4.29579,0,0,14.2958,14.2958,5.70421,5.70421,2.38655,0.0388892,63.214,0.00264525,-0.0337782,0.00792364,0,0,0,3.885,-0.105,-0.14,-0.036966,-0.063196,-1.00394,-0.16436,-0.2303,0.34006
-3.95317,0,0,13.9532,13.9532,6.04683,6.04683,2.19621,0.165659,63.3196,0.146216,0.141329,-0.00977502,0,0,0,3.64,0.0875,-0.1925,0.109434,0.115046,-1.02163,-0.16436,-0.2303,0.34006
-3.62059,0,0,13.6206,13.6206,6.37941,6.37941,2.01144,0.289705,63.4231,0.144051,0.138106,-0.00966523,0,0,0,4.235,-0.595,-0.7,0.109434,0.115046,-1.02163,-0.16436,-0.2303,0.34006
-3.34348,0,0,13.3435,13.3435,6.65652,6.65652,1.85749,0.099721,63.5898,-0.14347,0.0765564,0.0198214,0,0,0,4.445,-0.49,-0.875,-0.182634,0.056242,-0.99247,-0.16436,-0.2303,0.34006
-3.07238,0,0,13.0724,13.0724,6.92762,6.92762,1.70688,-0.0843739,63.7584,-0.140257,0.073929,0.0199036,0,0,0,3.9025,0.35,-1.0675,-0.182634,0.056242,-0.99247,-0.16338,-0.23478,0.33264
-3.16677,0,0,13.1668,13.1668,6.83323,6.83323,1.75931,-0.0527365,63.7943,0.0202805,-0.0307958,-0.0306552,0,0,0,4.1125,0.3675,-1.435,-0.020862,-0.049288,-1.04261,-0.16338,-0.23478,0.33264
-3.2566,0,0,13.2566,13.2566,6.7434,6.7434,1.80922,-0.0234651,63.8292,0.0197696,-0.0299252,-0.030682,0,0,0,3.57,-0.5075,-1.75,-0.020862,-0.049288,-1.04261,-0.16338,-0.23478,0.33264
-3.32899,0,0,13.329,13.329,6.67101,6.67101,1.84944,0.0520689,63.8556,0.0597565,-0.0143242,0.0410972,0,0,0,3.5875,-0.56,-1.96,0.020618,-0.034404,-0.971364,-0.16338,-0.23478,0.33264
-3.3993,0,0,13.3993,13.3993,6.6007,6.6007,1.8885,0.126526,63.8812,0.0584569,-0.0136429,0.0410729,0,0,0,3.71,-0.21,-2.3275,0.020618,-0.034404,-0.971364,-0.16338,-0.23478,0.33264
-3.24958,0,0,13.2496,13.2496,6.75042,6.75042,1.80532,0.0533206,63.9896,-0.0545834,0.0446262,-0.0411309,0,0,0,3.43,-0.245,-2.4325,-0.094184,0.025254,-1.05298,-0.16338,-0.23478,0.33264
-3.10496,0,0,13.105,13.105,6.89504,6.89504,1.72498,-0.0173163,64.0969,-0.0533506,0.0432246,-0.0410873,0,0,0,3.5875,0.14,-2.415,-0.094184,0.025254,-1.05298,-0.16338,-0.23478,0.33264
-2.9993,0,0,12.9993,12.9993,7.0007,7.0007,1.66628,0.0188849,64.1704,0.0421128,0.0418342,-0.014746,0,0,0,3.4125,-0.0175,-2.5025,0.002318,0.024888,-1.02687,-0.16338,-0.23478,0.33264
-2.89686,0,0,12.8969,12.8969,7.10314,7.10314,1.60937,0.0543429,64.232,0.0414939,0.0408413,-0.014718,0,0,0,3.3075,-0.3325,-2.4325,0.002318,0.024888,-1.02687,-0.17206,-0.23534,0.3346
-2.95201,0,0,12.952,12.952,7.04799,7.04799,1.64,0.102301,64.2548,0.0379842,-0.0130928,0.010839,0,0,0,3.4825,-0.1225,-2.345,-0.000366,-0.029524,-1.0015,-0.17206,-0.23534,0.3346
-3.00323,0,0,13.0032,13.0032,6.99677,6.99677,1.66846,0.150013,64.2778,0.0371515,-0.0125963,0.0108228,0,0,0,2.835,0.385,-2.1175,-0.000366,-0.029524,-1.0015,-0.17206,-0.23534,0.3346
-2.96967,0,0,12.9697,12.9697,7.03033,7.03033,1.64981,0.121926,64.3368,-0.0229797,0.00759564,-0.0089613,0,0,0,3.045,0.1925,-1.855,-0.061244,-0.009028,-1.02114,-0.17206,-0.23534,0.3346
-2.93721,0,0,12.9372,12.9372,7.06279,7.06279,1.63178,0.094492,64.3951,-0.0225009,0.00728112,-0.00895139,0,0,0,3.045,0.1925,-1.855,-0.061244,-0.009028,-1.02114,-0.17206,-0.23534,0.3346
-2.8487,0,0,12.8487,12.8487,7.1513,7.1513,1.58261,0.0807251,64.4642,-0.00500961,0.0296273,-0.042246,0,0,0,3.395,-0.035,-1.26,-0.04392,0.014152,-1.0542,-0.17206,-0.23534,0.3346
-2.76271,0,0,12.7627,12.7627,7.23729,7.23729,1.53484,0.0674752,64.5325,-0.00477835,0.0287938,-0.042223,0,0,0,3.395,-0.035,-1.26,-0.04392,0.014152,-1.0542,-0.17206,-0.23534,0.3346
-2.74835,0,0,12.7484,12.7484,7.25165,7.25165,1.52686,0.0470287,64.5874,-0.0176634,0.00276382,0.00978827,0,0,0,3.5875,0.455,-0.49,-0.057218,-0.011712,-1.0026,-0.17206,-0.23534,0.3346
-2.73455,0,0,12.7346,12.7346,7.26545,7.26545,1.5192,0.0270367,64.6434,-0.0173145,0.00263005,0.00979206,0,0,0,3.5875,0.455,-0.49,-0.057218,-0.011712,-1.0026,-0.17094,-0.23548,0.33236
-3.01493,0,0,13.0149,13.0149,6.98507,6.98507,1.67496,0.0977236,64.6106,0.0415872,-0.0956513,-0.0340547,0,0,0,3.255,-0.035,-0.4025,0.003172,-0.112606,-1.04603,-0.17094,-0.23548,0.33236
-3.28709,0,0,13.2871,13.2871,6.71291,6.71291,1.82616,0.166339,64.5785,0.0403896,-0.0930136,-0.0341381,0,0,0,3.255,-0.035,-0.4025,0.003172,-0.112606,-1.04603,-0.17094,-0.23548,0.33236
-3.16418,0,0,13.1642,13.1642,6.83582,6.83582,1.75788,0.0672602,64.6719,-0.0826469,0.0301203,-0.0433184,0,0,0,2.7125,0.105,-0.245,-0.122122,0.01159,-1.05518,-0.17094,-0.23548,0.33236
-3.04533,0,0,13.0453,13.0453,6.95467,6.95467,1.69185,-0.0294846,64.7643,-0.0809584,0.0289685,-0.0432832,0,0,0,2.7125,0.105,-0.245,-0.122122,0.01159,-1.05518,-0.17094,-0.23548,0.33236
-3.04404,0,0,13.044,13.044,6.95596,6.95596,1.69114,-0.0293625,64.7659,0.0798865,0.054969,-0.0983638,1,0,0,3.0975,0.0875,-0.2625,0.039406,0.037576,-1.10983,-0.17094,-0.23548,0.33236
-2.89385,0,0,12.8939,12.8939,7.10615,7.10615,1.6077,-0.159593,64.8728,-0.108938,0.0365376,-0.0363595,0,0,0,2.87,-0.245,-0.2975,-0.1525,0.020618,-1.04835,-0.17094,-0.23548,0.33236
-2.74915,0,0,12.7492,12.7492,7.25085,7.25085,1.52731,-0.286115,64.9783,-0.106729,0.0351348,-0.0363297,0,0,0,3.01,0.14,-0.455,-0.1525,0.020618,-1.04835,-0.17094,-0.23548,0.33236
-2.70679,0,0,12.7068,12.7068,7.29321,7.29321,1.50377,-0.367238,65.0573,-0.0691107,0.00553574,0.02109,0,0,0,3.4125,0.42,-0.665,-0.116144,-0.00854,-0.991372,-0.16394,-0.231,0.34398
-2.66416,0,0,12.6642,12.6642,7.33584,7.33584,1.48009,-0.447636,65.135,-0.0677076,0.00512227,0.0210908,0,0,0,2.8,-0.175,-0.8925,-0.116144,-0.00854,-0.991372,-0.16394,-0.231,0.34398
-2.76586,0,0,12.7659,12.7659,7.23414,7.23414,1.53659,-0.214046,65.1074,0.210791,-0.00940142,-0.0171486,0,0,0,3.08,-0.07,-1.1025,0.167628,-0.024034,-1.02931,-0.16394,-0.231,0.34398
-2.86356,0,0,12.8636,12.8636,7.13644,7.13644,1.59087,0.0148925,65.0802,0.206796,-0.00845431,-0.0171675,0,0,0,3.08,-0.07,-1.1025,0.167628,-0.024034,-1.02931,-0.16394,-0.231,0.34398
-2.72617,0,0,12.7262,12.7262,7.27383,7.27383,1.51454,-0.0265331,65.1671,-0.0273133,0.0443162,-0.0451638,0,0,0,3.115,-0.1575,-1.54,-0.068198,0.030012,-1.05713,-0.16394,-0.231,0.34398
-2.85305,0,0,12.8531,12.8531,7.14695,7.14695,1.58503,-0.0706369,65.1915,-0.0532703,-0.0553307,-0.0512222,0,0,0,3.0625,-0.0875,-1.8725,-0.095038,-0.07076,-1.06311,-0.16394,-0.231,0.34398
-2.97712,0,0,12.9771,12.9771,7.02288,7.02288,1.65395,-0.114153,65.215,-0.0525109,-0.0541283,-0.0512574,0,0,0,3.185,-0.07,-2.1525,-0.095038,-0.07076,-1.06311,-0.16394,-0.231,0.34398
-2.94573,0,0,12.9457,12.9457,7.05427,7.05427,1.63651,-0.137493,65.2701,-0.0183305,0.00772998,-0.0126437,0,0,0,3.1325,-0.42,-2.1875,-0.061122,-0.008662,-1.0248,-0.16394,-0.231,0.34398
-2.91643,0,0,12.9164,12.9164,7.08357,7.08357,1.62024,-0.159797,65.323,-0.0179412,0.00744596,-0.0126367,0,0,0,3.5175,-0.105,-2.1,-0.061122,-0.008662,-1.0248,-0.16464,-0.22946,0.33544
-2.82472,0,0,12.8247,12.8247,7.17528,7.17528,1.56929,-0.144541,65.3822,0.0217613,0.0346463,-0.00966044,0,0,0,3.535,-0.175,-2.135,-0.020984,0.019398,-1.02187,-0.16464,-0.22946,0.33544
-2.73531,0,0,12.7353,12.7353,7.26469,7.26469,1.51961,-0.129444,65.4408,0.0214978,0.0337796,-0.00963644,0,0,0,3.5,-0.2275,-2.0825,-0.020984,0.019398,-1.02187,-0.16464,-0.22946,0.33544
-2.92298,0,0,12.923,12.923,7.07702,7.07702,1.62388,-0.0791957,65.4266,0.0307042,-0.0616142,-0.0132503,0,0,0,3.8675,0.0175,-1.96,-0.010858,-0.077714,-1.02541,-0.16464,-0.22946,0.33544
-3.10482,0,0,13.1048,13.1048,6.89518,6.89518,1.7249,-0.0305868,65.4127,0.0298558,-0.0598517,-0.013301,0,0,0,3.7625,-0.105,-1.89,-0.010858,-0.077714,-1.02541,-0.16464,-0.22946,0.33544
-3.03316,0,0,13.0332,13.0332,6.96684,6.96684,1.68509,-0.000882112,65.4616,0.0339538,0.0292169,-0.037501,0,0,0,3.4825,0.0175,-1.785,-0.006222,0.011956,-1.04944,-0.16464,-0.22946,0.33544
-2.96476,0,0,12.9648,12.9648,7.03524,7.03524,1.64709,0.0290396,65.51,0.0334316,0.028554,-0.0374819,0,0,0,3.955,0.385,-1.715,-0.006222,0.011956,-1.04944,-0.16464,-0.22946,0.33544
-3.01742,0,0,13.0174,13.0174,6.98258,6.98258,1.67634,0.0331086,65.5353,-0.00089843,-0.0214962,-0.0784385,0,0,0,3.955,0.2275,-1.5925,-0.040626,-0.038552,-1.09007,-0.16464,-0.22946,0.33544
-3.06833,0,0,13.0683,13.0683,6.93167,6.93167,1.70463,0.0364524,65.5633,-0.00095679,-0.0210027,-0.0784531,0,0,0,3.885,-0.0525,-1.085,-0.040626,-0.038552,-1.09007,-0.1652,-0.23422,0.34482
-2.80684,0,0,12.8068,12.8068,7.19316,7.19316,1.55936,-0.21887,65.7196,-0.224165,0.0650045,-0.0372003,0,0,0,3.8325,-0.105,-0.945,-0.269254,0.049898,-1.0492,-0.1652,-0.23422,0.34482
-2.55493,0,0,12.5549,12.5549,7.44507,7.44507,1.4194,-0.467921,65.8748,-0.219818,0.0625621,-0.0371628,0,0,0,4.0775,0.1925,-0.63,-0.269254,0.049898,-1.0492,-0.1652,-0.23422,0.34482
-2.55688,0,0,12.5569,12.5569,7.44312,7.44312,1.42049,-0.46754,65.8759,-0.293445,0.0503684,-0.0986375,1,0,0,4.1125,0.2275,-0.56,-0.343186,0.037698,-1.1102,-0.1652,-0.23422,0.34482
-2.55659,0,0,12.5566,12.5566,7.44341,7.44341,1.42033,-0.466973,65.8768,-0.293455,0.0503656,-0.0986373,1,0,0,3.4125,0.3325,-0.7175,-0.343186,0.037698,-1.1102,-0.1652,-0.23422,0.34482
-2.55765,0,0,12.5576,12.5576,7.44235,7.44235,1.42091,-0.466587,65.8777,-0.165537,0.0163024,-0.114867,1,0,0,3.8325,0.2275,-0.665,-0.21472,0.00366,-1.1263,-0.1652,-0.23422,0.34482
-2.55898,0,0,12.559,12.559,7.44102,7.44102,1.42166,-0.466113,65.8787,-0.165546,0.0163154,-0.114867,1,0,0,3.92,0.28,-0.6475,-0.21472,0.00366,-1.1263,-0.1652,-0.23422,0.34482
-2.71796,0,0,12.718,12.718,7.28204,7.28204,1.50998,-0.612279,65.9143,-0.157771,-0.081067,-0.0559152,0,0,0,3.675,0.035,-0.56,-0.209474,-0.09516,-1.06774,-0.1652,-0.23422,0.34482
-2.87338,0,0,12.8734,12.8734,7.12662,7.12662,1.59632,-0.756198,65.9419,-0.155259,-0.0795614,-0.055986,0,0,0,4.2525,0.21,-0.5425,-0.209474,-0.09516,-1.06774,-0.17066,-0.23338,0.33992
-2.95108,0,0,12.9511,12.9511,7.04892,7.04892,1.63949,-0.770339,65.9607,-0.0222284,-0.0337437,-0.0794937,0,0,0,3.7975,0.28,-0.7,-0.076128,-0.050142,-1.09105,-0.17066,-0.23338,0.33992
-3.02684,0,0,13.0268,13.0268,6.97316,6.97316,1.68158,-0.785313,65.979,-0.021967,-0.0330096,-0.0795185,0,0,0,3.8325,-0.2625,-0.8575,-0.076128,-0.050142,-1.09105,-0.17066,-0.23338,0.33992
-3.10179,0,0,13.1018,13.1018,6.89821,6.89821,1.72322,-0.797151,65.9965,-0.017387,-0.0292302,-0.024585,0,0,0,3.7975,-0.1225,-0.735,-0.071736,-0.047092,-1.03651,-0.17066,-0.23338,0.33992
-3.17313,0,0,13.1731,13.1731,6.82687,6.82687,1.76285,-0.808809,66.0133,-0.0171835,-0.028539,-0.0246089,0,0,0,3.29,-0.0525,-0.98,-0.071736,-0.047092,-1.03651,-0.17066,-0.23338,0.33992
-3.34096,0,0,13.341,13.341,6.65904,6.65904,1.85609,-0.879591,66.0169,-0.0772986,-0.0680699,0.0155257,0,0,0,3.2025,-0.14,-1.5575,-0.133346,-0.088206,-0.996618,-0.17066,-0.23338,0.33992
-3.50464,0,0,13.5046,13.5046,6.49536,6.49536,1.94702,-0.949411,66.0203,-0.0760801,-0.0664845,0.0154536,0,0,0,3.2025,-0.14,-1.5575,-0.133346,-0.088206,-0.996618,-0.17066,-0.23338,0.33992
-3.25798,0,0,13.258,13.258,6.74202,6.74202,1.80999,-0.968559,66.1117,0.00321973,0.0817075,0.0538863,0,0,0,2.94,-0.035,-1.6625,-0.054046,0.06222,-0.958554,-0.17066,-0.23338,0.33992
-3.01812,0,0,13.0181,13.0181,6.98188,6.98188,1.67673,-0.986683,66.202,0.00353601,0.079383,0.0539517,0,0,0,2.94,-0.035,-1.6625,-0.054046,0.06222,-0.958554,-0.17066,-0.23338,0.33992
-3.01799,0,0,13.018,13.018,6.98201,6.98201,1.67666,-0.986841,66.201,0.0452084,0.0166086,0.119606,1,0,0,3.4475,-0.1225,-1.82,-0.0122,-0.000488,-0.893406,-0.16716,-0.2324,0.33166
-3.00558,0,0,13.0056,13.0056,6.99442,6.99442,1.66976,-0.954024,66.2313,0.0315152,0.00671844,-0.0852128,0,0,0,3.5175,0.385,-1.8725,-0.025376,-0.010248,-1.09666,-0.16716,-0.2324,0.33166
-2.99329,0,0,12.9933,12.9933,7.00671,7.00671,1.66294,-0.921816,66.2612,0.0309532,0.00659961,-0.0852001,0,0,0,3.5175,0.385,-1.8725,-0.025376,-0.010248,-1.09666,-0.16716,-0.2324,0.33166
-2.99198,0,0,12.992,12.992,7.00802,7.00802,1.66221,-0.921397,66.2599,0.137367,-0.163536,-0.108191,1,0,0,3.08,0.21,-2.0125,0.081496,-0.180194,-1.11947,-0.16716,-0.2324,0.33166
-2.99067,0,0,12.9907,12.9907,7.00933,7.00933,1.66149,-0.920978,66.2585,0.13736,-0.163548,-0.108191,1,0,0,3.08,0.21,-2.0125,0.081496,-0.180194,-1.11947,-0.16716,-0.2324,0.33166
-3.10328,0,0,13.1033,13.1033,6.89672,6.89672,1.72405,-0.75404,66.2306,0.133353,-0.0156593,0.0868161,0,0,0,2.6775,-0.0525,-1.47,0.080398,-0.03355,-0.92598,-0.16716,-0.2324,0.33166
-3.21182,0,0,13.2118,13.2118,6.78818,6.78818,1.78434,-0.590523,66.203,0.1305,-0.0146065,0.0868173,0,0,0,2.6775,-0.0525,-1.47,0.080398,-0.03355,-0.92598,-0.16716,-0.2324,0.33166
-3.0959,0,0,13.0959,13.0959,6.9041,6.9041,1.71995,-0.574359,66.2635,0.0236746,0.0422804,-0.000315909,0,0,0,2.765,0.21,-1.05,-0.026596,0.0244,-1.01248,-0.16492,-0.23562,0.33502
-3.01222,0,0,13.0122,13.0122,6.98778,6.98778,1.67346,-0.568102,66.319,0.0121457,0.0304781,-0.059429,0,0,0,3.4825,0.2975,-0.9975,-0.038064,0.01342,-1.07116,-0.16492,-0.23562,0.33502
-2.93078,0,0,12.9308,12.9308,7.06922,7.06922,1.62821,-0.561754,66.3739,0.0120349,0.0296888,-0.0594052,0,0,0,3.4825,0.2975,-0.9975,-0.038064,0.01342,-1.07116,-0.16492,-0.23562,0.33502
-2.93083,0,0,12.9308,12.9308,7.06917,7.06917,1.62824,-0.560909,66.3743,-0.108372,0.0547253,-0.146084,1,0,0,3.5175,0.49,-0.98,-0.158966,0.03843,-1.15717,-0.16492,-0.23562,0.33502
-2.93088,0,0,12.9309,12.9309,7.06912,7.06912,1.62827,-0.560063,66.3747,-0.108387,0.0547258,-0.146084,1,0,0,3.5175,0.49,-0.98,-0.158966,0.03843,-1.15717,-0.16492,-0.23562,0.33502
-2.93064,0,0,12.9306,12.9306,7.06936,7.06936,1.62814,-0.559327,66.3758,0.170774,0.0416559,-0.18973,1,0,0,3.43,0.4375,-0.5775,0.12139,0.025376,-1.20048,-0.16492,-0.23562,0.33502
-2.9304,0,0,12.9304,12.9304,7.0696,7.0696,1.628,-0.55859,66.3768,0.170762,0.0416535,-0.18973,1,0,0,3.43,0.4375,-0.5775,0.12139,0.025376,-1.20048,-0.16492,-0.23562,0.33502
-2.92977,0,0,12.9298,12.9298,7.07023,7.07023,1.62765,-0.551282,66.378,0.0405228,0.00525365,-0.186163,1,0,0,3.3075,4.2875,-0.63,-0.009272,-0.01098,-1.19694,-0.16492,-0.23562,0.33502
-2.92913,0,0,12.9291,12.9291,7.07087,7.07087,1.62729,-0.543974,66.3792,0.0403952,0.00524752,-0.186162,1,0,0,3.3075,4.2875,-0.63,-0.009272,-0.01098,-1.19694,-0.17038,-0.23464,0.33824
-2.67069,0,0,12.6707,12.6707,7.32931,7.32931,1.48372,-0.723555,66.5052,-0.159352,0.0732089,-0.0853105,0,0,0,3.01,-0.21,-0.735,-0.213012,0.059414,-1.0969,-0.17038,-0.23464,0.33824
-2.42049,0,0,12.4205,12.4205,7.57951,7.57951,1.34472,-0.898914,66.6299,-0.156291,0.0707828,-0.085294,0,0,0,3.01,-0.21,-0.735,-0.213012,0.059414,-1.0969,-0.17038,-0.23464,0.33824
-2.57329,0,0,12.5733,12.5733,7.42671,7.42671,1.42961,-1.01736,66.6471,-0.127862,-0.07319,-0.0363079,0,0,0,3.92,-0.0175,-0.9975,-0.186538,-0.085888,-1.04822,-0.17038,-0.23464,0.33824
-2.72269,0,0,12.7227,12.7227,7.27731,7.27731,1.5126,-1.13391,66.6639,-0.125828,-0.0717432,-0.0363833,0,0,0,3.92,-0.0175,-0.9975,-0.186538,-0.085888,-1.04822,-0.17038,-0.23464,0.33824
-2.89156,0,0,12.8916,12.8916,7.10844,7.10844,1.60642,-1.13417,66.6519,-0.0166081,-0.0674198,-0.0814271,0,0,0,3.5175,-0.035,-1.33,-0.07686,-0.083204,-1.09288,-0.17038,-0.23464,0.33824
-3.05577,0,0,13.0558,13.0558,6.94423,6.94423,1.69765,-1.13482,66.6401,-0.0165967,-0.0658286,-0.0814732,0,0,0,3.5175,-0.035,-1.33,-0.07686,-0.083204,-1.09288,-0.17038,-0.23464,0.33824
-3.05502,0,0,13.055,13.055,6.94498,6.94498,1.69723,-1.13559,66.6392,-0.0594679,0.0698469,-0.138644,1,0,0,3.255,-0.4725,-1.6975,-0.119926,0.052338,-1.14961,-0.17038,-0.23464,0.33824
-2.96044,0,0,12.9604,12.9604,7.03956,7.03956,1.64469,-0.964707,66.6485,0.175541,0.0591618,-0.0577858,0,0,0,3.9025,-0.2625,-1.89,0.119072,0.042578,-1.06945,-0.17542,-0.2338,0.33866
-2.86452,0,0,12.8645,12.8645,7.13548,7.13548,1.5914,-0.796185,66.6574,0.1726,0.0582335,-0.0577143,0,0,0,3.045,0.14,-1.9425,0.119072,0.042578,-1.06945,-0.17542,-0.2338,0.33866
-2.82655,0,0,12.8266,12.8266,7.17345,7.17345,1.57031,-0.877713,66.6999,-0.0740512,0.00193094,-0.0253895,0,0,0,3.2375,-0.28,-2.03,-0.130052,-0.013298,-1.03737,-0.17542,-0.2338,0.33866
-2.79021,0,0,12.7902,12.7902,7.20979,7.20979,1.55011,-0.957562,66.742,-0.0726578,0.00157808,-0.0254022,0,0,0,3.2375,-0.28,-2.03,-0.130052,-0.013298,-1.03737,-0.17542,-0.2338,0.33866
-3.2103,0,0,13.2103,13.2103,6.7897,6.7897,1.7835,-0.880464,66.6437,0.0358199,-0.130399,0.0659746,0,0,0,3.675,0.28,-1.995,-0.019764,-0.149206,-0.946598,-0.17542,-0.2338,0.33866
-3.61832,0,0,13.6183,13.6183,6.38168,6.38168,2.01018,-0.805661,66.547,0.0345144,-0.126445,0.0658628,0,0,0,3.675,0.28,-1.995,-0.019764,-0.149206,-0.946598,-0.17542,-0.2338,0.33866
-3.99379,0,0,13.9938,13.9938,6.00621,6.00621,2.21877,-0.720736,66.4547,0.0471247,-0.120975,0.023331,0,0,0,3.5175,0.21,-1.75,-0.005612,-0.147376,-0.988688,-0.17542,-0.2338,0.33866
-3.87161,0,0,13.8716,13.8716,6.12839,6.12839,2.15089,-0.683572,66.4902,0.0422241,0.0489415,0.0478509,0,0,0,4.0425,0.1575,-1.6975,-0.009882,0.023546,-0.96441,-0.17542,-0.2338,0.33866
-3.75027,0,0,13.7503,13.7503,6.24973,6.24973,2.08349,-0.647552,66.5342,0.0415955,0.0477662,0.0479016,0,0,0,3.605,-0.14,-1.505,-0.009882,0.023546,-0.96441,-0.16814,-0.23212,0.33362
-3.80104,0,0,13.801,13.801,6.19896,6.19896,2.11169,-0.567553,66.5288,0.0663187,-0.00535501,0.0470378,0,0,0,3.7975,0.4025,-1.4525,0.016348,-0.030012,-0.965264,-0.16814,-0.23212,0.33362
-3.84911,0,0,13.8491,13.8491,6.15089,6.15089,2.1384,-0.489791,66.5238,0.0649616,-0.0048888,0.047033,0,0,0,3.5525,0.07,-1.2075,0.016348,-0.030012,-0.965264,-0.16814,-0.23212,0.33362
-3.81976,0,0,13.8198,13.8198,6.18024,6.18024,2.12209,-0.543573,66.5627,-0.0446517,0.00484094,0.0556415,0,0,0,3.15,0.315,-0.8925,-0.094672,-0.020008,-0.956724,-0.16814,-0.23212,0.33362
-3.79221,0,0,13.7922,13.7922,6.20779,6.20779,2.10678,-0.596372,66.6015,-0.0437303,0.00457357,0.0556422,0,0,0,3.3425,0.245,-0.63,-0.094672,-0.020008,-0.956724,-0.16814,-0.23212,0.33362
-3.55226,0,0,13.5523,13.5523,6.44774,6.44774,1.97348,-0.746015,66.7105,-0.109515,0.0639215,0.0817595,0,0,0,3.3425,0.35,-0.455,-0.163358,0.041602,-0.93086,-0.16814,-0.23212,0.33362
-3.32108,0,0,13.3211,13.3211,6.67892,6.67892,1.84504,-0.892553,66.8188,-0.106958,0.0616802,0.0817977,0,0,0,3.7275,0.0875,-0.1575,-0.163358,0.041602,-0.93086,-0.16814,-0.23212,0.33362
-2.94065,0,0,12.9407,12.9407,7.05935,7.05935,1.6337,-1.08677,66.974,-0.138799,0.106476,0.077302,0,0,0,3.9375,0.175,-0.07,-0.198738,0.090036,-0.935374,-0.16814,-0.23212,0.33362
-2.57064,0,0,12.5706,12.5706,7.42936,7.42936,1.42813,-1.27577,67.1275,-0.135502,0.102889,0.0773299,0,0,0,3.5875,0.385,-0.1575,-0.198738,0.090036,-0.935374,-0.16814,-0.23212,0.33362
-2.03251,0,0,12.0325,12.0325,7.96749,7.96749,1.12917,-1.45849,67.3191,-0.122716,0.165697,0.0451577,0,0,0,3.64,-0.175,-0.14,-0.1891,0.15799,-0.967338,-0.17136,-0.23044,0.34048
-2.03384,0,0,12.0338,12.0338,7.96616,7.96616,1.12991,-1.45796,67.3207,0.0049563,-0.0470353,0.202532,1,0,0,3.9375,0.315,-0.2975,-0.060878,-0.054534,-0.811178,-0.17136,-0.23044,0.34048
-2.03434,0,0,12.0343,12.0343,7.96566,7.96566,1.13019,-1.45851,67.3221,0.00496583,-0.0470304,0.202531,1,0,0,3.675,-0.315,-0.35,-0.060878,-0.054534,-0.811178,-0.17136,-0.23044,0.34048
-2.03418,0,0,12.0342,12.0342,7.96582,7.96582,1.1301,-1.45896,67.3231,0.115404,-0.161098,0.255276,1,0,0,3.465,-0.2625,-0.595,0.05002,-0.168482,-0.75884,-0.17136,-0.23044,0.34048
-2.03377,0,0,12.0338,12.0338,7.96623,7.96623,1.12987,-1.4588,67.3236,0.115401,-0.161102,0.255276,1,0,0,3.3775,0.0875,-0.9625,0.05002,-0.168482,-0.75884,-0.17136,-0.23044,0.34048
-2.03344,0,0,12.0334,12.0334,7.96656,7.96656,1.12969,-1.45848,67.3236,-0.0820185,-0.0571757,0.178311,1,0,0,3.395,0.175,-1.155,-0.14823,-0.06466,-0.835212,-0.17136,-0.23044,0.34048
-2.03391,0,0,12.0339,12.0339,7.96609,7.96609,1.12995,-1.45881,67.3232,-0.0820127,-0.0571712,0.17831,1,0,0,3.64,-0.21,-1.435,-0.14823,-0.06466,-0.835212,-0.17136,-0.23044,0.34048
-1.98137,0,0,11.9814,11.9814,8.01863,8.01863,1.10076,-1.69146,67.4106,-0.20928,-0.00870961,0.0365721,0,0,0,3.99,-0.21,-1.6625,-0.280112,-0.015738,-0.975756,-0.16618,-0.23016,0.33768
-1.98188,0,0,11.9819,11.9819,8.01812,8.01812,1.10104,-1.69228,67.4096,0.0780483,-0.0124906,-0.180924,1,0,0,3.64,-0.5075,-1.8025,0.008418,-0.01952,-1.19157,-0.16618,-0.23016,0.33768
-1.98286,0,0,11.9829,11.9829,8.01714,8.01714,1.10159,-1.69292,67.4081,0.0780594,-0.0124811,-0.180925,1,0,0,3.78,-0.4025,-2.0475,0.008418,-0.01952,-1.19157,-0.16618,-0.23016,0.33768
-1.98345,0,0,11.9835,11.9835,8.01655,8.01655,1.10192,-1.69308,67.4065,0.0576526,-0.023711,-0.103222,1,0,0,3.6575,-0.1225,-2.1525,-0.012078,-0.030744,-1.11447,-0.16618,-0.23016,0.33768
-1.98544,0,0,11.9854,11.9854,8.01456,8.01456,1.10302,-1.69391,67.4041,0.057667,-0.0236918,-0.103222,1,0,0,4.0775,-0.525,-2.59,-0.012078,-0.030744,-1.11447,-0.16618,-0.23016,0.33768
-1.98663,0,0,11.9866,11.9866,8.01337,8.01337,1.10368,-1.69474,67.4017,0.16386,-0.0295423,-0.107772,1,0,0,3.8325,-0.525,-2.555,0.09455,-0.0366,-1.11898,-0.16618,-0.23016,0.33768
-1.98837,0,0,11.9884,11.9884,8.01163,8.01163,1.10465,-1.69519,67.3998,0.163868,-0.0295255,-0.107773,1,0,0,4.0075,-0.2975,-2.345,0.09455,-0.0366,-1.11898,-0.16618,-0.23016,0.33768
-2.03154,0,0,12.0315,12.0315,7.96846,7.96846,1.12863,-1.7436,67.4277,-0.048009,-0.0209252,0.00653599,0,0,0,3.64,-0.1225,-2.3625,-0.119072,-0.028426,-1.00552,-0.16618,-0.23016,0.33768
-2.07319,0,0,12.0732,12.0732,7.92681,7.92681,1.15177,-1.79092,67.4491,-0.0471836,-0.0205221,0.00650249,0,0,0,3.605,0.105,-2.3975,-0.119072,-0.028426,-1.00552,-0.17304,-0.23464,0.33908
-1.94721,0,0,11.9472,11.9472,8.05279,8.05279,1.08178,-1.83116,67.5108,-0.0322677,0.0413963,-0.0739042,0,0,0,3.6225,0.175,-2.2925,-0.104798,0.034648,-1.08531,-0.17304,-0.23464,0.33908
-1.82349,0,0,11.8235,11.8235,8.17651,8.17651,1.01305,-1.87048,67.5726,-0.0315818,0.0401971,-0.0739045,0,0,0,3.185,0.0875,-1.8725,-0.104798,0.034648,-1.08531,-0.17304,-0.23464,0.33908
-1.69493,0,0,11.6949,11.6949,8.30507,8.30507,0.941628,-1.81379,67.6186,0.0640104,0.0542177,-0.0287293,0,0,0,3.6925,-0.035,-1.785,-0.007808,0.049898,-1.04054,-0.17304,-0.23464,0.33908
-1.56946,0,0,11.5695,11.5695,8.43054,8.43054,0.871924,-1.75706,67.6645,0.0630208,0.0530024,-0.0286792,0,0,0,3.6925,0.455,-1.5225,-0.007808,0.049898,-1.04054,-0.17304,-0.23464,0.33908
-1.54574,0,0,11.5457,11.5457,8.45426,8.45426,0.858745,-1.84057,67.7114,-0.0838565,-0.00279581,-0.058598,0,0,0,3.8675,0.6125,-1.365,-0.15677,-0.005612,-1.07018,-0.17304,-0.23464,0.33908
-1.52237,0,0,11.5224,11.5224,8.47763,8.47763,0.845759,-1.92322,67.7581,-0.0824147,-0.00302303,-0.058642,0,0,0,3.605,0.14,-1.155,-0.15677,-0.005612,-1.07018,-0.17304,-0.23464,0.33908
-1.52267,0,0,11.5227,11.5227,8.47733,8.47733,0.84593,-1.92303,67.7586,0.0645797,-0.0620073,-0.125526,1,0,0,3.605,0.105,-0.8925,-0.00915,-0.064538,-1.13655,-0.17304,-0.23464,0.33908
-1.52114,0,0,11.5211,11.5211,8.47886,8.47886,0.845079,-1.92243,67.7598,0.0645692,-0.0620221,-0.125525,1,0,0,3.045,0.35,-0.49,-0.00915,-0.064538,-1.13655,-0.17304,-0.23464,0.33908
-1.5187,0,0,11.5187,11.5187,8.4813,8.4813,0.843724,-1.92222,67.7612,-0.140381,-0.10076,-0.139172,1,0,0,2.765,0.1225,-0.42,-0.214964,-0.103212,-1.15009,-0.17248,-0.23478,0.33684
-1.37592,0,0,11.3759,11.3759,8.62408,8.62408,0.764398,-1.67489,67.7783,0.23191,0.0783616,0.0750361,0,0,0,3.325,0.2625,-0.2625,0.163236,0.077104,-0.937692,-0.17248,-0.23478,0.33684
-1.23538,0,0,11.2354,11.2354,8.76462,8.76462,0.686324,-1.43179,67.7949,0.227669,0.0770011,0.0751683,0,0,0,3.3075,0.2625,-0.245,0.163236,0.077104,-0.937692,-0.17248,-0.23478,0.33684
-1.33939,0,0,11.3394,11.3394,8.66061,8.66061,0.744107,-1.18295,67.7496,0.220654,-0.00552424,0.0403375,0,0,0,3.4825,0.28,-0.28,0.160552,-0.006344,-0.97234,-0.17248,-0.23478,0.33684
-1.43822,0,0,11.4382,11.4382,8.56178,8.56178,0.799009,-0.938771,67.7048,0.216393,-0.0045652,0.0404034,0,0,0,3.15,0.3325,-0.21,0.160552,-0.006344,-0.97234,-0.17248,-0.23478,0.33684
-1.47676,0,0,11.4768,11.4768,8.52324,8.52324,0.820425,-0.953033,67.7219,-0.0134518,-0.0131068,0.0962127,0,0,0,3.2025,0.14,-0.28,-0.070516,-0.01525,-0.916952,-0.17248,-0.23478,0.33684
-1.51346,0,0,11.5135,11.5135,8.48654,8.48654,0.840812,-0.967496,67.7384,-0.0131994,-0.0127512,0.0962033,0,0,0,2.9225,-0.0875,-0.455,-0.070516,-0.01525,-0.916952,-0.17248,-0.23478,0.33684
-1.53016,0,0,11.5302,11.5302,8.46984,8.46984,0.850092,-1.03663,67.7731,-0.0603443,-0.0130781,0.0756474,0,0,0,2.94,0.1925,-0.4375,-0.119072,-0.015738,-0.937326,-0.16618,-0.22666,0.33446
-1.52437,0,0,11.5244,11.5244,8.47563,8.47563,0.846872,-1.15529,67.8215,-0.107961,-0.0127684,0.0248309,0,0,0,2.8525,-0.42,-0.8575,-0.16897,-0.015372,-0.987712,-0.16618,-0.22666,0.33446
-1.51951,0,0,11.5195,11.5195,8.48049,8.48049,0.844172,-1.27169,67.8692,-0.10593,-0.0128162,0.0247886,0,0,0,2.8525,-0.42,-0.8575,-0.16897,-0.015372,-0.987712,-0.16618,-0.22666,0.33446
-1.65299,0,0,11.653,11.653,8.34701,8.34701,0.918328,-1.33412,67.8716,-0.065844,-0.0542671,0.0342109,0,0,0,2.7825,-0.3325,-1.2075,-0.129808,-0.058072,-0.978318,-0.16618,-0.22666,0.33446
-1.64929,0,0,11.6493,11.6493,8.35071,8.35071,0.916273,-1.33424,67.8714,0.20823,-0.0342742,-0.205169,1,0,0,2.345,-0.0875,-1.295,0.145424,-0.038064,-1.21585,-0.16618,-0.22666,0.33446
-1.64735,0,0,11.6474,11.6474,8.35265,8.35265,0.915195,-1.33403,67.8709,0.208226,-0.034293,-0.205169,1,0,0,2.8875,0.105,-1.5225,0.145424,-0.038064,-1.21585,-0.16618,-0.22666,0.33446
-1.64532,0,0,11.6453,11.6453,8.35468,8.35468,0.914067,-1.33337,67.8697,0.276976,0.0418944,-0.132506,1,0,0,2.8525,0.3675,-1.855,0.214476,0.038064,-1.14375,-0.16618,-0.22666,0.33446
-1.64545,0,0,11.6454,11.6454,8.35455,8.35455,0.914137,-1.33314,67.8681,0.276972,0.0418956,-0.132506,1,0,0,3.5175,0.105,-2.135,0.214476,0.038064,-1.14375,-0.16618,-0.22666,0.33446
-1.64494,0,0,11.6449,11.6449,8.35506,8.35506,0.913855,-1.33295,67.8669,0.354112,0.0475085,-0.0546791,1,0,0,3.325,0.0875,-1.9075,0.291946,0.043676,-1.06652,-0.16856,-0.22708,0.33348
-1.15125,0,0,11.1512,11.1512,8.84875,8.84875,0.639582,-1.60542,68.0605,-0.198025,0.132485,0.114441,0,0,0,3.29,0.14,-1.9425,-0.267302,0.133346,-0.898652,-0.16856,-0.22708,0.33348
-0.671855,0,0,10.6719,10.6719,9.32815,9.32815,0.373253,-1.87107,68.2521,-0.19339,0.127838,0.114341,0,0,0,3.15,0.2975,-2.065,-0.267302,0.133346,-0.898652,-0.16856,-0.22708,0.33348
-0.985286,0,0,10.9853,10.9853,9.01471,9.01471,0.547381,-1.87446,68.1984,-0.025681,-0.108005,0.045218,0,0,0,3.29,0.42,-1.96,-0.098942,-0.105286,-0.967216,-0.16856,-0.22708,0.33348
-1.29018,0,0,11.2902,11.2902,8.70982,8.70982,0.716767,-1.8789,68.145,-0.0256036,-0.10505,0.0451829,0,0,0,3.3075,0.14,-2.2225,-0.098942,-0.105286,-0.967216,-0.16856,-0.22708,0.33348
-2.08488,0,0,12.0849,12.0849,7.91512,7.91512,1.15827,-1.67339,67.9281,0.131658,-0.257089,0.0492253,0,0,0,3.2025,0.0875,-2.03,0.062586,-0.264862,-0.96319,-0.16856,-0.22708,0.33348
-2.85828,0,0,12.8583,12.8583,7.14172,7.14172,1.58794,-1.47185,67.7159,0.128142,-0.249593,0.0491422,0,0,0,3.5875,0.5075,-1.6625,0.062586,-0.264862,-0.96319,-0.16856,-0.22708,0.33348
-2.85691,0,0,12.8569,12.8569,7.14309,7.14309,1.58717,-1.47107,67.7154,0.0345845,0.000753715,0.119347,1,0,0,3.0625,0.4375,-1.5225,-0.031354,-0.014762,-0.893528,-0.16856,-0.22708,0.33348
-2.8581,0,0,12.8581,12.8581,7.1419,7.1419,1.58783,-1.47074,67.7151,0.0345788,0.0007653,0.119346,1,0,0,3.8675,0.175,-1.365,-0.031354,-0.014762,-0.893528,-0.16884,-0.23016,0.32914
-2.71051,0,0,12.7105,12.7105,7.28949,7.28949,1.50584,-1.49567,67.7734,-0.00981454,0.0487963,0.0574077,0,0,0,3.9375,0.1925,-1.26,-0.076372,0.034648,-0.955016,-0.16884,-0.23016,0.32914
-2.56689,0,0,12.5669,12.5669,7.43311,7.43311,1.42605,-1.5195,67.8314,-0.0093987,0.0474044,0.0574323,0,0,0,3.885,0.35,-1.05,-0.076372,0.034648,-0.955016,-0.16884,-0.23016,0.32914
-2.73852,0,0,12.7385,12.7385,7.26148,7.26148,1.5214,-1.49277,67.8028,0.0121238,-0.0535188,0.0486725,0,0,0,4.0775,0.21,-1.0675,-0.05429,-0.067832,-0.963678,-0.16884,-0.23016,0.32914
-2.90521,0,0,12.9052,12.9052,7.09479,7.09479,1.614,-1.46712,67.7748,0.0116763,-0.0519034,0.0486398,0,0,0,4.06,0.0875,-0.9275,-0.05429,-0.067832,-0.963678,-0.16884,-0.23016,0.32914
-2.92749,0,0,12.9275,12.9275,7.07251,7.07251,1.62638,-1.52115,67.7957,-0.0489743,-0.0128518,0.0438141,0,0,0,3.85,-0.0875,-0.8575,-0.116144,-0.029036,-0.968436,-0.16884,-0.23016,0.32914
-2.95089,0,0,12.9509,12.9509,7.04911,7.04911,1.63938,-1.57414,67.8164,-0.0480498,-0.0126259,0.0437827,0,0,0,4.27,-0.0525,-0.8925,-0.116144,-0.029036,-0.968436,-0.16884,-0.23016,0.32914
-3.18445,0,0,13.1845,13.1845,6.81555,6.81555,1.76914,-1.61737,67.7828,-0.0636961,-0.0956081,-0.0488858,0,0,0,4.13,-0.07,-0.91,-0.132614,-0.114192,-1.0603,-0.16884,-0.23016,0.32914
-3.4103,0,0,13.4103,13.4103,6.5897,6.5897,1.89461,-1.66021,67.746,-0.0629488,-0.093421,-0.0489772,0,0,0,3.885,0.0875,-0.84,-0.132614,-0.114192,-1.0603,-0.17178,-0.23058,0.33502
-3.41853,0,0,13.4185,13.4185,6.58147,6.58147,1.89918,-1.74032,67.7694,-0.0791666,-0.014693,-0.0327921,0,0,0,4.0425,-0.28,-0.7875,-0.150304,-0.035624,-1.0442,-0.17178,-0.23058,0.33502
-3.42682,0,0,13.4268,13.4268,6.57318,6.57318,1.90379,-1.81836,67.7923,-0.0778052,-0.0146141,-0.032837,0,0,0,3.955,0.0525,-0.805,-0.150304,-0.035624,-1.0442,-0.17178,-0.23058,0.33502
-3.52486,0,0,13.5249,13.5249,6.47514,6.47514,1.95826,-2.00098,67.8106,-0.194769,-0.065572,-0.0485897,0,0,0,4.0425,0.035,-1.1025,-0.270962,-0.087474,-1.05969,-0.17178,-0.23058,0.33502
-3.62157,0,0,13.6216,13.6216,6.37843,6.37843,2.01198,-2.18041,67.8285,-0.191639,-0.0646394,-0.0487363,0,0,0,4.0425,0.035,-1.1025,-0.270962,-0.087474,-1.05969,-0.17178,-0.23058,0.33502
-3.75781,0,0,13.7578,13.7578,6.24219,6.24219,2.08767,-2.21346,67.8106,-0.0405422,-0.0513526,0.0174636,0,0,0,4.1475,-0.0175,-1.295,-0.119804,-0.075518,-0.993934,-0.17178,-0.23058,0.33502
-3.89055,0,0,13.8905,13.8905,6.10945,6.10945,2.16141,-2.24619,67.793,-0.0399715,-0.0500682,0.0173937,0,0,0,4.1475,-0.0175,-1.295,-0.119804,-0.075518,-0.993934,-0.17178,-0.23058,0.33502
-3.86186,0,0,13.8619,13.8619,6.13814,6.13814,2.14548,-2.25717,67.8124,-0.0109878,0.00986228,0.0753054,0,0,0,3.3425,4.27,-1.4,-0.09089,-0.015372,-0.936472,-0.17178,-0.23058,0.33502
-3.834,0,0,13.834,13.834,6.166,6.166,2.13,-2.26789,67.8372,-0.010801,0.00959226,0.0753081,0,0,0,3.3425,4.27,-1.4,-0.09089,-0.015372,-0.936472,-0.16898,-0.23366,0.32732
-3.38533,0,0,13.3853,13.3853,6.61467,6.61467,1.88074,-2.50055,68.0034,-0.197841,0.136529,-0.0374524,0,0,0,3.535,0,-1.47,-0.282796,0.115778,-1.04835,-0.16898,-0.23366,0.32732
-2.95016,0,0,12.9502,12.9502,7.04984,7.04984,1.63898,-2.72753,68.168,-0.193883,0.13231,-0.0375035,0,0,0,3.535,0,-1.47,-0.282796,0.115778,-1.04835,-0.16898,-0.23366,0.32732
-2.94387,0,0,12.9439,12.9439,7.05613,7.05613,1.63548,-2.90541,68.2188,-0.178755,-0.0228563,-0.033474,0,0,0,3.7975,-0.14,-1.4525,-0.270718,-0.039162,-1.0442,-0.16898,-0.23366,0.32732
-2.94361,0,0,12.9436,12.9436,7.05639,7.05639,1.63534,-2.90527,68.2186,0.259927,-0.0102798,-0.0868335,1,0,0,3.4125,0.07,-1.3125,0.169824,-0.026596,-1.09715,-0.16898,-0.23366,0.32732
-2.94491,0,0,12.9449,12.9449,7.05509,7.05509,1.63606,-2.9045,68.2185,0.259914,-0.0102672,-0.0868332,1,0,0,3.9025,0.4375,-1.2775,0.169824,-0.026596,-1.09715,-0.16898,-0.23366,0.32732
-2.94378,0,0,12.9438,12.9438,7.05622,7.05622,1.63543,-2.90364,68.2186,0.182998,0.127237,-0.173634,1,0,0,3.15,0.49,-1.1375,0.092598,0.110776,-1.18328,-0.16898,-0.23366,0.32732
-2.94241,0,0,12.9424,12.9424,7.05759,7.05759,1.63467,-2.90354,68.2189,0.182996,0.127223,-0.173633,1,0,0,3.08,0.0525,-1.05,0.092598,0.110776,-1.18328,-0.16898,-0.23366,0.32732
-2.94193,0,0,12.9419,12.9419,7.05807,7.05807,1.63441,-2.90326,68.2192,0.163675,0.0412415,-0.120027,1,0,0,3.36,0.1575,-1.015,0.0732,0.024888,-1.13009,-0.16926,-0.23338,0.33068
-2.94186,0,0,12.9419,12.9419,7.05814,7.05814,1.63437,-2.90337,68.2194,0.163677,0.0412408,-0.120027,1,0,0,3.4825,-0.07,-1.085,0.0732,0.024888,-1.13009,-0.16926,-0.23338,0.33068
-2.94092,0,0,12.9409,12.9409,7.05908,7.05908,1.63384,-2.90249,68.2199,0.0946581,0.0121655,-0.131461,1,0,0,3.22,0.5075,-0.91,0.003904,-0.004148,-1.14143,-0.16926,-0.23338,0.33068
-2.78115,0,0,12.7812,12.7812,7.21885,7.21885,1.54509,-3.05379,68.3058,-0.130005,0.037239,0.0141391,0,0,0,3.3775,-0.0175,-0.7875,-0.224358,0.022448,-0.996862,-0.16926,-0.23338,0.33068
-2.62577,0,0,12.6258,12.6258,7.37423,7.37423,1.45876,-3.20174,68.3906,-0.127426,0.0357313,0.0140377,0,0,0,3.0625,0.0175,-0.7875,-0.224358,0.022448,-0.996862,-0.16926,-0.23338,0.33068
-2.62669,0,0,12.6267,12.6267,7.37331,7.37331,1.45927,-3.20167,68.3909,0.0737528,-0.042543,0.184075,1,0,0,3.7975,0.035,-0.9975,-0.022326,-0.055754,-0.828136,-0.16926,-0.23338,0.33068
-2.62812,0,0,12.6281,12.6281,7.37188,7.37188,1.46007,-3.20118,68.3912,0.0737443,-0.0425291,0.184075,1,0,0,3.955,0.28,-1.015,-0.022326,-0.055754,-0.828136,-0.16926,-0.23338,0.33068
-2.97979,0,0,12.9798,12.9798,7.02021,7.02021,1.65544,-3.16239,68.3157,0.0100173,-0.117408,0.0268923,0,0,0,3.2025,-0.0175,-0.77,-0.085644,-0.133956,-0.984052,-0.16926,-0.23338,0.33068
-3.32022,0,0,13.3202,13.3202,6.67978,6.67978,1.84457,-3.12538,68.2326,0.00937225,-0.114112,0.0268271,0,0,0,3.2375,-0.07,-0.945,-0.085644,-0.133956,-0.984052,-0.1729,-0.22778,0.33278
-3.34415,0,0,13.3442,13.3442,6.65585,6.65585,1.85786,-3.11277,68.233,0.00963847,-0.00811871,-0.00452033,0,0,0,2.5725,-0.035,-0.98,-0.085156,-0.028304,-1.01516,-0.1729,-0.22778,0.33278
-3.36746,0,0,13.3675,13.3675,6.63254,6.63254,1.87081,-3.10163,68.2327,0.0094443,-0.00789286,-0.00451713,0,0,0,2.59,-0.735,-1.3125,-0.085156,-0.028304,-1.01516,-0.1729,-0.22778,0.33278
-3.48964,0,0,13.4896,13.4896,6.51036,6.51036,1.93869,-3.16472,68.2199,-0.0616186,-0.047625,0.0664476,0,0,0,2.9575,-0.175,-1.1725,-0.157624,-0.069174,-0.944646,-0.1729,-0.22778,0.33278
-3.6104,0,0,13.6104,13.6104,6.3896,6.3896,2.00578,-3.22627,68.2071,-0.0605461,-0.0464587,0.0663475,0,0,0,3.4125,0.1925,-1.3125,-0.157624,-0.069174,-0.944646,-0.1729,-0.22778,0.33278
-3.88988,0,0,13.8899,13.8899,6.11012,6.11012,2.16105,-3.11187,68.1234,0.0881026,-0.0918686,-0.0575726,0,0,0,3.535,0.0875,-1.61,-0.006344,-0.117242,-1.06762,-0.1729,-0.22778,0.33278
-4.16183,0,0,14.1618,14.1618,5.83817,5.83817,2.31213,-3.00005,68.0411,0.0861537,-0.0892335,-0.0575714,0,0,0,3.815,0.1225,-1.5225,-0.006344,-0.117242,-1.06762,-0.1729,-0.22778,0.33278
-4.12672,0,0,14.1267,14.1267,5.87328,5.87328,2.29262,-3.14627,68.079,-0.153297,-0.0117839,-0.0776121,0,0,0,3.4825,0.2275,-1.4175,-0.249368,-0.039528,-1.08739,-0.1729,-0.22778,0.33278
-4.0934,0,0,14.0934,14.0934,5.9066,5.9066,2.27411,-3.29028,68.1164,-0.150788,-0.0121118,-0.0777402,0,0,0,3.3425,-0.175,-1.61,-0.249368,-0.039528,-1.08739,-0.17346,-0.22946,0.3367
-4.09333,0,0,14.0933,14.0933,5.90667,5.90667,2.27407,-3.29052,68.1155,0.0186888,-0.0862434,-0.102453,1,0,0,3.4475,-0.175,-1.7325,-0.079178,-0.113582,-1.11191,-0.17346,-0.22946,0.3367
-4.09329,0,0,14.0933,14.0933,5.90671,5.90671,2.27405,-3.29095,68.1148,0.0186963,-0.0862438,-0.102454,1,0,0,3.465,-0.28,-1.575,-0.079178,-0.113582,-1.11191,-0.17346,-0.22946,0.3367
-4.11846,0,0,14.1185,14.1185,5.88154,5.88154,2.28804,-3.28121,68.1125,0.00734991,-0.00759457,-0.00360289,0,0,0,3.6575,-0.1925,-1.5225,-0.090402,-0.035258,-1.01382,-0.17346,-0.22946,0.3367
-4.14424,0,0,14.1442,14.1442,5.85576,5.85576,2.30236,-3.27084,68.11,0.0071692,-0.00734481,-0.00360255,0,0,0,4.0775,0.315,-1.5925,-0.090402,-0.035258,-1.01382,-0.17346,-0.22946,0.3367
-3.76343,0,0,13.7634,13.7634,6.23657,6.23657,2.0908,-3.47651,68.2482,-0.157748,0.107671,0.0499332,0,0,0,4.1125,0.175,-1.5225,-0.259616,0.083326,-0.960628,-0.17346,-0.22946,0.3367
-3.39186,0,0,13.3919,13.3919,6.60814,6.60814,1.88437,-3.67794,68.3852,-0.154239,0.10407,0.0498387,0,0,0,3.395,-0.2275,-1.365,-0.259616,0.083326,-0.960628,-0.17346,-0.22946,0.3367
-3.61941,0,0,13.6194,13.6194,6.38059,6.38059,2.01078,-3.55858,68.3162,0.0947925,-0.0618937,0.0286252,0,0,0,3.885,-0.105,-1.33,-0.007442,-0.084668,-0.981734,-0.17346,-0.22946,0.3367
-3.83952,0,0,13.8395,13.8395,6.16048,6.16048,2.13306,-3.44144,68.2484,0.0927519,-0.0597603,0.0286729,0,0,0,3.7625,0.14,-1.225,-0.007442,-0.084668,-0.981734,-0.17346,-0.22946,0.3367
-3.52136,0,0,13.5214,13.5214,6.47864,6.47864,1.95631,-3.56913,68.3652,-0.0904108,0.0942126,0.0459823,0,0,0,3.3075,0.315,-0.98,-0.193614,0.072224,-0.964532,-0.16898,-0.23044,0.33124
-3.70033,0,0,13.7003,13.7003,6.29967,6.29967,2.05574,-3.08633,68.2529,0.472281,0.00167924,0.02846,0,0,0,3.7975,0.105,-0.875,0.379908,-0.02196,-0.982344,-0.16898,-0.23044,0.33124
-3.87085,0,0,13.8709,13.8709,6.12915,6.12915,2.15047,-2.61193,68.1415,0.464012,0.0033446,0.0288107,0,0,0,3.2375,-0.0875,-0.8225,0.379908,-0.02196,-0.982344,-0.16898,-0.23044,0.33124
-3.97522,0,0,13.9752,13.9752,6.02478,6.02478,2.20846,-2.27124,68.0699,0.297102,0.0105931,0.0817703,0,0,0,3.71,4.235,-0.735,0.218258,-0.015738,-0.930006,-0.16898,-0.23044,0.33124
-4.07504,0,0,14.075,14.075,5.92496,5.92496,2.26391,-1.93667,67.9988,0.291267,0.0115679,0.0819467,0,0,0,3.71,4.235,-0.735,0.218258,-0.015738,-0.930006,-0.16898,-0.23044,0.33124
-3.45407,0,0,13.4541,13.4541,6.54593,6.54593,1.91893,-2.12506,68.1948,-0.130526,0.200465,0.019838,0,0,0,3.0625,0.0525,-0.63,-0.20862,0.178974,-0.991738,-0.16898,-0.23044,0.33124
-2.85033,0,0,12.8503,12.8503,7.14967,7.14967,1.58351,-2.30816,68.3893,-0.127332,0.194614,0.0198932,0,0,0,3.0625,0.0525,-0.63,-0.20862,0.178974,-0.991738,-0.16898,-0.23044,0.33124
-2.60108,0,0,12.6011,12.6011,7.39892,7.39892,1.44504,-2.37062,68.4845,-0.0464269,0.0861928,-0.0750037,0,0,0,3.605,0.07,-0.875,-0.128466,0.073078,-1.08592,-0.16618,-0.23674,0.33726
-2.71359,0,0,12.7136,12.7136,7.28641,7.28641,1.50755,-2.52274,68.5042,-0.13744,-0.0527999,0.100794,0,0,0,3.0975,0.0175,-0.7875,-0.222528,-0.066856,-0.91134,-0.16618,-0.23674,0.33726
-2.8258,0,0,12.8258,12.8258,7.1742,7.1742,1.56989,-2.67234,68.5235,-0.134832,-0.0517166,0.100647,0,0,0,3.64,0,-0.8225,-0.222528,-0.066856,-0.91134,-0.16618,-0.23674,0.33726
-3.06686,0,0,13.0669,13.0669,6.93314,6.93314,1.70381,-2.57506,68.4668,0.0746146,-0.0757598,-0.00839762,0,0,0,3.01,-0.1925,-0.805,-0.010492,-0.093208,-1.01955,-0.16618,-0.23674,0.33726
-3.30295,0,0,13.3029,13.3029,6.69705,6.69705,1.83497,-2.4805,68.4103,0.0729658,-0.0734717,-0.00839548,0,0,0,3.675,-0.4725,-1.19,-0.010492,-0.093208,-1.01955,-0.16618,-0.23674,0.33726
-3.5586,0,0,13.5586,13.5586,6.4414,6.4414,1.977,-2.37578,68.3454,0.0787933,-0.0749018,0.0354921,0,0,0,3.36,-0.07,-1.4175,-0.002806,-0.097112,-0.976,-0.16618,-0.23674,0.33726
-3.807,0,0,13.807,13.807,6.193,6.193,2.115,-2.27389,68.2815,0.0770164,-0.0724943,0.0354783,0,0,0,3.465,-0.315,-1.3825,-0.002806,-0.097112,-0.976,-0.16618,-0.23674,0.33726
-4.09391,0,0,14.0939,14.0939,5.90609,5.90609,2.2744,-1.96163,68.1699,0.253434,-0.0516338,0.12594,0,0,0,3.3075,-0.2975,-1.505,0.179828,-0.079056,-0.88633,-0.16618,-0.23674,0.33726
-4.37177,0,0,14.3718,14.3718,5.62823,5.62823,2.42876,-1.65435,68.0572,0.248074,-0.0489362,0.125999,0,0,0,2.87,0.0525,-1.4875,0.179828,-0.079056,-0.88633,-0.16842,-0.23688,0.33628
-4.17541,0,0,14.1754,14.1754,5.82459,5.82459,2.31967,-1.46944,68.081,0.188478,0.0957179,0.0372738,0,0,0,3.22,-0.3325,-1.575,0.12322,0.067344,-0.974536,-0.16842,-0.23688,0.33628
-3.98327,0,0,13.9833,13.9833,6.01673,6.01673,2.21293,-1.28735,68.1043,0.185301,0.0938599,0.0374238,0,0,0,3.325,-0.245,-1.505,0.12322,0.067344,-0.974536,-0.16842,-0.23688,0.33628
-3.75263,0,0,13.7526,13.7526,6.24737,6.24737,2.08479,-1.29241,68.1707,0.0126369,0.0822218,0.024842,0,0,0,3.6575,0.5425,-1.3475,-0.050264,0.05795,-0.987102,-0.16842,-0.23688,0.33628
-3.52729,0,0,13.5273,13.5273,6.47271,6.47271,1.95961,-1.29765,68.2359,0.0127284,0.0800387,0.024917,0,0,0,3.395,0.0525,-1.6275,-0.050264,0.05795,-0.987102,-0.16842,-0.23688,0.33628
-3.54251,0,0,13.5425,13.5425,6.45749,6.45749,1.96806,-1.12486,68.2114,0.166308,0.0172931,-0.00772864,0,0,0,3.2025,-0.035,-1.5575,0.106994,-0.00488,-1.01955,-0.16842,-0.23688,0.33628
-3.55679,0,0,13.5568,13.5568,6.44321,6.44321,1.97599,-0.954977,68.1872,0.163344,0.0174333,-0.00767963,0,0,0,3.36,0.1225,-1.4875,0.106994,-0.00488,-1.01955,-0.16842,-0.23688,0.33628
-3.09352,0,0,13.0935,13.0935,6.90648,6.90648,1.71862,-0.971552,68.3122,0.019794,0.156077,0.0874995,0,0,0,3.3075,0.07,-1.4525,-0.037454,0.138104,-0.925248,-0.16842,-0.23688,0.33628
-2.64128,0,0,12.6413,12.6413,7.35872,7.35872,1.46738,-0.986099,68.4363,0.0200479,0.151694,0.087617,0,0,0,2.9925,0.42,-1.3475,-0.037454,0.138104,-0.925248,-0.16842,-0.23688,0.33628
-2.30223,0,0,12.3022,12.3022,7.69777,7.69777,1.27902,-0.977422,68.5369,0.031802,0.114212,0.101592,0,0,0,3.2725,0.665,-1.4,-0.025498,0.103944,-0.911462,-0.16254,-0.2352,0.33068
-2.30195,0,0,12.302,12.302,7.69805,7.69805,1.27886,-0.976593,68.5368,-0.0548317,-0.0582333,-0.12451,1,0,0,3.4125,0.4725,-1.26,-0.112484,-0.06832,-1.13582,-0.16254,-0.2352,0.33068
-2.30381,0,0,12.3038,12.3038,7.69619,7.69619,1.27989,-0.976452,68.5367,-0.0548342,-0.0582153,-0.124511,1,0,0,4.0775,0.07,-1.225,-0.112484,-0.06832,-1.13582,-0.16254,-0.2352,0.33068
-2.44983,0,0,12.4498,12.4498,7.55017,7.55017,1.36102,-0.893463,68.5071,0.0727354,-0.0471514,-0.07866,0,0,0,4.1825,0.035,-1.05,0.01708,-0.058682,-1.09031,-0.16254,-0.2352,0.33068
-2.59113,0,0,12.5911,12.5911,7.40887,7.40887,1.43951,-0.812438,68.4781,0.0713214,-0.0457815,-0.0786724,0,0,0,4.0775,-0.0525,-0.9625,0.01708,-0.058682,-1.09031,-0.16254,-0.2352,0.33068
-2.72681,0,0,12.7268,12.7268,7.27319,7.27319,1.51489,-0.610173,68.4275,0.172634,-0.0195514,0.0772362,0,0,0,4.13,0.175,-1.085,0.122366,-0.033794,-0.935618,-0.16254,-0.2352,0.33068
-2.85694,0,0,12.8569,12.8569,7.14306,7.14306,1.58719,-0.411757,68.3776,0.169171,-0.0182893,0.0772329,0,0,0,3.85,0.1925,-1.085,0.122366,-0.033794,-0.935618,-0.16254,-0.2352,0.33068
-2.85683,0,0,12.8568,12.8568,7.14317,7.14317,1.58713,-0.411887,68.3776,0.170752,0.00931024,0.207681,1,0,0,3.465,-0.0875,-1.1725,0.123952,-0.006222,-0.806176,-0.16254,-0.2352,0.33068
-2.8566,0,0,12.8566,12.8566,7.1434,7.1434,1.587,-0.411549,68.378,0.170746,0.00930804,0.207681,1,0,0,3.43,0.1925,-0.98,0.123952,-0.006222,-0.806176,-0.16758,-0.22512,0.34272
-2.85817,0,0,12.8582,12.8582,7.14183,7.14183,1.58787,-0.411331,68.3784,0.122391,0.0343592,0.293991,1,0,0,3.99,0.1225,-0.9625,0.075396,0.018788,-0.720532,-0.16758,-0.22512,0.34272
-2.85845,0,0,12.8584,12.8584,7.14155,7.14155,1.58803,-0.411622,68.3789,0.122396,0.0343619,0.293991,1,0,0,3.5875,-0.175,-0.9275,0.075396,0.018788,-0.720532,-0.16758,-0.22512,0.34272
-2.53173,0,0,12.5317,12.5317,7.46827,7.46827,1.40652,-0.435057,68.4686,0.00289904,0.111554,0.0782959,0,0,0,3.9025,-0.1575,-0.945,-0.045018,0.099064,-0.934642,-0.16758,-0.22512,0.34272
-2.21363,0,0,12.2136,12.2136,7.78637,7.78637,1.2298,-0.457606,68.5569,0.00329259,0.108471,0.0783638,0,0,0,3.92,-0.3325,-1.26,-0.045018,0.099064,-0.934642,-0.16758,-0.22512,0.34272
-2.21532,0,0,12.2153,12.2153,7.78468,7.78468,1.23074,-0.458087,68.5566,-0.166293,0.00199282,0.129633,1,0,0,4.025,-0.2975,-1.365,-0.21533,-0.00732,-0.883768,-0.16758,-0.22512,0.34272
-2.21741,0,0,12.2174,12.2174,7.78259,7.78259,1.23189,-0.457646,68.5564,-0.166301,0.00201302,0.129632,1,0,0,4.1475,0.245,-1.295,-0.21533,-0.00732,-0.883768,-0.16758,-0.22512,0.34272
-2.21786,0,0,12.2179,12.2179,7.78214,7.78214,1.23215,-0.457619,68.5561,-0.147957,-0.0254611,0.1241,1,0,0,3.64,0,-1.3825,-0.196908,-0.03477,-0.889258,-0.16758,-0.22512,0.34272
-2.21782,0,0,12.2178,12.2178,7.78218,7.78218,1.23212,-0.457621,68.5558,-0.147957,-0.0254615,0.1241,1,0,0,3.4825,-0.0175,-1.4,-0.196908,-0.03477,-0.889258,-0.1659,-0.22946,0.33516
-2.21793,0,0,12.2179,12.2179,7.78207,7.78207,1.23219,-0.457627,68.5556,0.0857817,-0.0782192,0.124346,1,0,0,3.535,-0.0175,-1.295,0.03782,-0.087474,-0.889014,-0.1659,-0.22946,0.33516
-2.21744,0,0,12.2174,12.2174,7.78256,7.78256,1.23191,-0.457242,68.5553,0.085775,-0.078224,0.124346,1,0,0,3.3425,0.21,-1.3825,0.03782,-0.087474,-0.889014,-0.1659,-0.22946,0.33516
-2.72487,0,0,12.7249,12.7249,7.27513,7.27513,1.51381,-0.510599,68.4485,-0.0909058,-0.195432,0.0227875,0,0,0,2.975,0.1225,-1.33,-0.140544,-0.209474,-0.989664,-0.1659,-0.22946,0.33516
-3.22087,0,0,13.2209,13.2209,6.77913,6.77913,1.78937,-0.564181,68.3428,-0.0899707,-0.190625,0.0226401,0,0,0,3.535,-0.035,-1.4875,-0.140544,-0.209474,-0.989664,-0.1659,-0.22946,0.33516
-3.22128,0,0,13.2213,13.2213,6.77872,6.77872,1.7896,-0.564439,68.3421,-0.112927,0.0129638,-0.111374,1,0,0,3.6225,-0.175,-1.575,-0.163602,-0.0061,-1.12264,-0.1659,-0.22946,0.33516
-3.22152,0,0,13.2215,13.2215,6.77848,6.77848,1.78973,-0.564963,68.3413,-0.112918,0.0129662,-0.111374,1,0,0,3.57,-0.3325,-1.645,-0.163602,-0.0061,-1.12264,-0.1659,-0.22946,0.33516
-3.22187,0,0,13.2219,13.2219,6.77813,6.77813,1.78993,-0.564896,68.3408,0.047928,-0.0322173,-0.0983416,1,0,0,3.605,0.0175,-1.505,-0.002074,-0.05124,-1.10971,-0.1659,-0.22946,0.33516
-3.22069,0,0,13.2207,13.2207,6.77931,6.77931,1.78927,-0.564276,68.3408,0.0479172,-0.0322287,-0.0983412,1,0,0,3.1325,0.35,-1.2425,-0.002074,-0.05124,-1.10971,-0.16352,-0.23548,0.33614
-3.21884,0,0,13.2188,13.2188,6.78116,6.78116,1.78824,-0.56375,68.3408,-0.0575415,-0.0793876,-0.140758,1,0,0,2.9225,0.2975,-1.1725,-0.10797,-0.098332,-1.1518,-0.16352,-0.23548,0.33614
-3.21715,0,0,13.2172,13.2172,6.78285,6.78285,1.78731,-0.563622,68.3412,-0.0575438,-0.079404,-0.140757,1,0,0,2.975,0.07,-0.98,-0.10797,-0.098332,-1.1518,-0.16352,-0.23548,0.33614
-3.21529,0,0,13.2153,13.2153,6.78471,6.78471,1.78627,-0.563492,68.3415,0.1474,-0.14537,-0.0846921,1,0,0,2.9225,0.07,-1.015,0.097844,-0.164212,-1.09617,-0.16352,-0.23548,0.33614
-3.215,0,0,13.215,13.215,6.785,6.785,1.78611,-0.563822,68.3422,0.147406,-0.145373,-0.0846921,1,0,0,3.4125,-0.1925,-0.805,0.097844,-0.164212,-1.09617,-0.16352,-0.23548,0.33614
-3.34513,0,0,13.3451,13.3451,6.65487,6.65487,1.8584,-0.42324,68.299,0.129281,-0.0322434,-0.0296301,0,0,0,3.045,0.1575,-0.6125,0.082106,-0.05246,-1.04151,-0.16352,-0.23548,0.33614
-3.47136,0,0,13.4714,13.4714,6.52864,6.52864,1.92853,-0.285213,68.2564,0.126872,-0.0310196,-0.0296557,0,0,0,3.15,0.2975,-0.5775,0.082106,-0.05246,-1.04151,-0.16352,-0.23548,0.33614
-3.4709,0,0,13.4709,13.4709,6.5291,6.5291,1.92828,-0.284723,68.2575,0.0686717,0.0410307,-0.124818,1,0,0,3.36,0.2975,-0.5425,0.023668,0.01952,-1.13594,-0.16352,-0.23548,0.33614
-3.47056,0,0,13.4706,13.4706,6.52944,6.52944,1.92809,-0.284114,68.2587,0.0686611,0.0410274,-0.124817,1,0,0,3.395,0.3675,-0.5425,0.023668,0.01952,-1.13594,-0.16632,-0.2331,0.33516
-3.27424,0,0,13.2742,13.2742,6.72576,6.72576,1.81902,-0.276722,68.3124,0.0217601,0.073931,-0.00426509,0,0,0,3.605,0.35,-0.595,-0.023302,0.05429,-1.01638,-0.16632,-0.2331,0.33516
-3.08142,0,0,13.0814,13.0814,6.91858,6.91858,1.7119,-0.268789,68.3654,0.0216216,0.0720623,-0.00420683,0,0,0,3.115,0.49,-0.735,-0.023302,0.05429,-1.01638,-0.16632,-0.2331,0.33516
-3.08693,0,0,13.0869,13.0869,6.91307,6.91307,1.71496,-0.0807462,68.339,0.17943,0.0236317,0.0169487,0,0,0,3.6575,0.525,-0.77,0.13847,0.005856,-0.995398,-0.16632,-0.2331,0.33516
-3.09065,0,0,13.0907,13.0907,6.90935,6.90935,1.71703,0.103451,68.312,0.176215,0.0236677,0.016947,0,0,0,3.4825,0.245,-1.225,0.13847,0.005856,-0.995398,-0.16632,-0.2331,0.33516
-3.16478,0,0,13.1648,13.1648,6.83522,6.83522,1.75821,0.167637,68.2884,0.0562816,-0.0184804,0.0051195,0,0,0,3.6575,-0.2275,-1.295,0.019154,-0.036966,-1.00711,-0.16632,-0.2331,0.33516
-3.2377,0,0,13.2377,13.2377,6.7623,6.7623,1.79872,0.230785,68.2647,0.0551795,-0.0177738,0.00509373,0,0,0,4.0075,-0.07,-1.5575,0.019154,-0.036966,-1.00711,-0.16632,-0.2331,0.33516
-3.16365,0,0,13.1636,13.1636,6.83635,6.83635,1.75758,0.160271,68.2998,-0.0661689,0.0176581,-0.0700013,0,0,0,3.8675,-0.105,-1.54,-0.103944,-0.000854,-1.08165,-0.16632,-0.2331,0.33516
-3.09178,0,0,13.0918,13.0918,6.90822,6.90822,1.71766,0.0912704,68.334,-0.0649646,0.0169617,-0.0699776,0,0,0,3.7975,-0.0875,-1.8025,-0.103944,-0.000854,-1.08165,-0.16632,-0.2331,0.33516
-3.09313,0,0,13.0931,13.0931,6.90687,6.90687,1.71841,0.0915071,68.3327,0.068544,-0.0168543,-0.147436,1,0,0,3.92,0.105,-1.925,0.030134,-0.034648,-1.15851,-0.16786,-0.23016,0.3332
-3.09319,0,0,13.0932,13.0932,6.90681,6.90681,1.71844,0.0909937,68.3316,0.068553,-0.0168538,-0.147436,1,0,0,3.5175,-0.3325,-1.855,0.030134,-0.034648,-1.15851,-0.16786,-0.23016,0.3332
-3.39897,0,0,13.399,13.399,6.60103,6.60103,1.88832,0.143096,68.2486,0.0296186,-0.113668,-0.0458523,0,0,0,3.85,-0.77,-2.065,-0.008052,-0.134322,-1.05762,-0.16786,-0.23016,0.3332
-3.69601,0,0,13.696,13.696,6.30399,6.30399,2.05334,0.195017,68.1668,0.0287124,-0.110789,-0.045954,0,0,0,3.745,0,-1.995,-0.008052,-0.134322,-1.05762,-0.16786,-0.23016,0.3332
-3.94505,0,0,13.945,13.945,6.05495,6.05495,2.19169,0.167285,68.1095,-0.0472181,-0.099339,-0.0134605,0,0,0,3.7275,0.1925,-1.9425,-0.08479,-0.125294,-1.02529,-0.16786,-0.23016,0.3332
-4.18788,0,0,14.1879,14.1879,5.81212,5.81212,2.3266,0.138393,68.0527,-0.0467138,-0.0969862,-0.013552,0,0,0,3.7975,-0.5075,-2.0475,-0.08479,-0.125294,-1.02529,-0.16786,-0.23016,0.3332
-4.57192,0,0,14.5719,14.5719,5.42808,5.42808,2.53995,0.218765,67.9425,0.0477357,-0.13137,0.0122277,0,0,0,4.1825,-0.105,-1.9075,0.011468,-0.163358,-0.999546,-0.16786,-0.23016,0.3332
-4.94394,0,0,14.9439,14.9439,5.05606,5.05606,2.74663,0.296583,67.8343,0.0463775,-0.127767,0.0120552,0,0,0,3.745,-0.35,-1.61,0.011468,-0.163358,-0.999546,-0.16786,-0.23016,0.3332
-4.94483,0,0,14.9448,14.9448,5.05517,5.05517,2.74713,0.296716,67.8338,0.0109013,0.0258776,0.107832,1,0,0,3.78,0.0525,-1.4875,-0.024156,-0.009882,-0.904508,-0.17094,-0.23044,0.3395
-4.86699,0,0,14.867,14.867,5.13301,5.13301,2.70388,0.205944,67.8593,-0.0819088,0.0164529,-0.00327095,0,0,0,3.9725,0.3325,-1.155,-0.11895,-0.018544,-1.0148,-0.17094,-0.23044,0.3395
-4.79003,0,0,14.79,14.79,5.20997,5.20997,2.66113,0.116904,67.8847,-0.0803548,0.0157078,-0.00323166,0,0,0,3.4125,0.2625,-1.0325,-0.11895,-0.018544,-1.0148,-0.17094,-0.23044,0.3395
-4.57208,0,0,14.5721,14.5721,5.42792,5.42792,2.54004,0.121404,67.9289,0.0195494,0.0806442,0.0491172,0,0,0,3.5875,0.2975,-1.0325,-0.018544,0.048434,-0.962946,-0.17094,-0.23044,0.3395
-4.35705,0,0,14.3571,14.3571,5.64295,5.64295,2.42058,0.126651,67.9732,0.0194579,0.0785612,0.0492072,0,0,0,2.765,0.525,-0.7175,-0.018544,0.048434,-0.962946,-0.17094,-0.23044,0.3395
-4.68912,0,0,14.6891,14.6891,5.31088,5.31088,2.60506,0.254496,67.8643,0.0971641,-0.10703,0.0108216,0,0,0,3.08,0.1225,-0.7175,0.061732,-0.140178,-1.00089,-0.17094,-0.23044,0.3395
-5.0141,0,0,15.0141,15.0141,4.9859,4.9859,2.78561,0.379755,67.7573,0.094978,-0.103883,0.0106614,0,0,0,3.815,0.2975,-0.4025,0.061732,-0.140178,-1.00089,-0.17094,-0.23044,0.3395
-5.0153,0,0,15.0153,15.0153,4.9847,4.9847,2.78628,0.379767,67.7587,0.295308,0.0508628,-0.136877,1,0,0,3.8675,0.035,-0.385,0.26291,0.014396,-1.14729,-0.17094,-0.23044,0.3395
-5.01639,0,0,15.0164,15.0164,4.98361,4.98361,2.78689,0.379731,67.7605,0.295308,0.0508734,-0.136878,1,0,0,3.8325,0.0175,-0.1575,0.26291,0.014396,-1.14729,-0.16576,-0.23002,0.3395
-4.89577,0,0,14.8958,14.8958,5.10423,5.10423,2.71987,0.435838,67.7777,0.0686087,0.0543457,-0.0694529,0,0,0,3.78,-0.0875,-0.2625,0.036234,0.019032,-1.08043,-0.16576,-0.23002,0.3395
-4.77484,0,0,14.7748,14.7748,5.22516,5.22516,2.65269,0.492095,67.7951,0.0676268,0.053174,-0.0694059,0,0,0,2.835,0.4725,-0.0525,0.036234,0.019032,-1.08043,-0.16576,-0.23002,0.3395
-4.77414,0,0,14.7741,14.7741,5.22586,5.22586,2.6523,0.492062,67.7969,0.143434,-0.017422,-0.118093,1,0,0,3.2725,0.0175,-0.1575,0.112362,-0.051484,-1.12874,-0.16576,-0.23002,0.3395
-4.77316,0,0,14.7732,14.7732,5.22684,5.22684,2.65175,0.492325,67.7988,0.14343,-0.0174315,-0.118093,1,0,0,3.185,0.1925,-0.1225,0.112362,-0.051484,-1.12874,-0.16576,-0.23002,0.3395
-4.7729,0,0,14.7729,14.7729,5.2271,5.2271,2.65161,0.492728,67.8002,-0.164057,0.0483923,-0.219648,1,0,0,3.4125,0.2625,-0.385,-0.19642,0.014274,-1.22952,-0.16576,-0.23002,0.3395
-4.77146,0,0,14.7715,14.7715,5.22854,5.22854,2.65081,0.493262,67.8014,-0.164067,0.0483784,-0.219648,1,0,0,3.045,0.3325,-0.525,-0.19642,0.014274,-1.22952,-0.16576,-0.23002,0.3395
-4.77064,0,0,14.7706,14.7706,5.22936,5.22936,2.65035,0.493928,67.8023,-0.0634882,0.0542325,-0.218295,1,0,0,3.2375,0.4025,-0.6825,-0.095404,0.02013,-1.22817,-0.16576,-0.23002,0.3395
-4.76935,0,0,14.7694,14.7694,5.23065,5.23065,2.64964,0.493996,67.8025,-0.0634894,0.05422,-0.218294,1,0,0,3.0975,0.035,-1.05,-0.095404,0.02013,-1.22817,-0.1603,-0.2338,0.33894
-4.8499,0,0,14.8499,14.8499,5.1501,5.1501,2.69439,0.534889,67.7819,0.0346863,-0.0278021,-0.0409225,0,0,0,3.4475,0.1575,-1.2425,0.003904,-0.062586,-1.05213,-0.1603,-0.2338,0.33894
-4.92865,0,0,14.9286,14.9286,5.07135,5.07135,2.73814,0.574601,67.7609,0.0339932,-0.0270397,-0.0409654,0,0,0,3.6225,-0.0175,-1.5575,0.003904,-0.062586,-1.05213,-0.1603,-0.2338,0.33894
-4.87018,0,0,14.8702,14.8702,5.12982,5.12982,2.70565,0.534137,67.7864,-0.0323607,0.0189246,0.0952953,0,0,0,3.1325,0.0875,-1.75,-0.06344,-0.016104,-0.916952,-0.1603,-0.2338,0.33894
-4.81382,0,0,14.8138,14.8138,5.18618,5.18618,2.67435,0.494422,67.8111,-0.0316676,0.0183791,0.0953272,0,0,0,3.2375,0,-2.0475,-0.06344,-0.016104,-0.916952,-0.1603,-0.2338,0.33894
-4.68329,0,0,14.6833,14.6833,5.31671,5.31671,2.60183,0.646946,67.8184,0.16187,0.0708493,-0.0148029,0,0,0,3.115,0.105,-2.0825,0.13359,0.037576,-1.02626,-0.1603,-0.2338,0.33894
-4.55434,0,0,14.5543,14.5543,5.44566,5.44566,2.53019,0.796031,67.8251,0.159268,0.069599,-0.0147797,0,0,0,2.8875,-0.455,-2.345,0.13359,0.037576,-1.02626,-0.1603,-0.2338,0.33894
-4.52523,0,0,14.5252,14.5252,5.47477,5.47477,2.51402,0.952467,67.8068,0.161519,0.0323107,-0.0326364,0,0,0,3.43,-0.2275,-2.415,0.138592,0.00061,-1.04395,-0.1603,-0.2338,0.33894
-4.49858,0,0,14.4986,14.4986,5.50142,5.50142,2.49921,1.10657,67.7808,0.15883,0.0320505,-0.0326734,0,0,0,3.6225,-0.2625,-2.765,0.138592,0.00061,-1.04395,-0.16604,-0.23352,0.33586
-4.50054,0,0,14.5005,14.5005,5.49946,5.49946,2.5003,1.13589,67.7705,0.0296649,0.00202583,-0.0345284,0,0,0,3.5525,0.0175,-2.6425,0.009394,-0.029402,-1.04578,-0.16604,-0.23352,0.33586
-4.50504,0,0,14.505,14.505,5.49496,5.49496,2.5028,1.16428,67.7601,0.0291694,0.00206904,-0.0345403,0,0,0,4.4275,-0.21,-2.7825,0.009394,-0.029402,-1.04578,-0.16604,-0.23352,0.33586
-4.41254,0,0,14.4125,14.4125,5.58746,5.58746,2.45141,1.18976,67.7731,0.0301826,0.039032,0.0251194,0,0,0,3.7975,0.1225,-2.52,0.010858,0.008418,-0.986614,-0.16604,-0.23352,0.33586
-4.32269,0,0,14.3227,14.3227,5.67731,5.67731,2.40149,1.2139,67.7863,0.0297614,0.0381614,0.0251474,0,0,0,3.9375,-0.49,-2.3275,0.010858,0.008418,-0.986614,-0.16604,-0.23352,0.33586
-4.32326,0,0,14.3233,14.3233,5.67674,5.67674,2.40181,1.21389,67.7849,0.0190708,0.197298,0.21289,1,0,0,3.6925,-0.0525,-2.0475,0.000122,0.167384,-0.80032,-0.16604,-0.23352,0.33586
-4.32479,0,0,14.3248,14.3248,5.67521,5.67521,2.40266,1.2142,67.7839,0.0190655,0.197313,0.212889,1,0,0,3.99,0.14,-1.785,0.000122,0.167384,-0.80032,-0.16604,-0.23352,0.33586
-4.32573,0,0,14.3257,14.3257,5.67427,5.67427,2.40318,1.21471,67.7834,-0.0381633,0.141144,0.134447,1,0,0,3.7975,0.28,-1.4875,-0.05734,0.111264,-0.878156,-0.16604,-0.23352,0.33586
-4.32714,0,0,14.3271,14.3271,5.67286,5.67286,2.40397,1.21462,67.7834,-0.0381616,0.141157,0.134447,1,0,0,3.9375,-0.07,-1.2075,-0.05734,0.111264,-0.878156,-0.16604,-0.23352,0.33586
-4.03,0,0,14.03,14.03,5.97,5.97,2.23889,1.08772,67.8676,-0.0960827,0.0927277,0.0465766,0,0,0,4.235,0.035,-1.015,-0.11773,0.065758,-0.965508,-0.1722,-0.23352,0.33236
-3.73995,0,0,13.7399,13.7399,6.26005,6.26005,2.07775,0.964479,67.9522,-0.0939321,0.0899192,0.046721,0,0,0,3.78,0.42,-0.42,-0.11773,0.065758,-0.965508,-0.1722,-0.23352,0.33236
-3.74197,0,0,13.742,13.742,6.25803,6.25803,2.07887,0.965089,67.954,-0.195626,-0.061132,0.122579,1,0,0,4.1125,0.385,-0.1225,-0.219844,-0.085156,-0.890234,-0.1722,-0.23352,0.33236
-3.744,0,0,13.744,13.744,6.256,6.256,2.08,0.965699,67.9559,-0.195637,-0.0611124,0.122578,1,0,0,4.1125,0.385,-0.1225,-0.219844,-0.085156,-0.890234,-0.1722,-0.23352,0.33236
-4.02242,0,0,14.0224,14.0224,5.97758,5.97758,2.23468,0.987817,67.8828,-0.00128129,-0.0950533,0.0541109,0,0,0,3.815,0.175,0.1925,-0.024278,-0.121756,-0.958066,-0.1722,-0.23352,0.33236
-4.29344,0,0,14.2934,14.2934,5.70656,5.70656,2.38525,1.00901,67.8106,-0.00165113,-0.0924282,0.0539985,0,0,0,3.815,0.175,0.1925,-0.024278,-0.121756,-0.958066,-0.1722,-0.23352,0.33236
-4.29168,0,0,14.2917,14.2917,5.70832,5.70832,2.38426,1.00952,67.8133,-0.0705424,0.0821959,0.190718,1,0,0,2.9225,0.35,0.3325,-0.093452,0.052704,-0.822402,-0.1722,-0.23352,0.33236
-4.28991,0,0,14.2899,14.2899,5.71009,5.71009,2.38328,1.01003,67.8159,-0.0705512,0.0821788,0.190718,1,0,0,2.9225,0.35,0.3325,-0.093452,0.052704,-0.822402,-0.1722,-0.23352,0.33236
-4.15177,0,0,14.1518,14.1518,5.84823,5.84823,2.30654,1.05818,67.8371,0.0517949,0.0570254,0.0745717,0,0,0,2.625,-0.105,0.3675,0.030256,0.028914,-0.937692,-0.16912,-0.23282,0.3325
-4.15124,0,0,14.1512,14.1512,5.84876,5.84876,2.30624,1.05816,67.8396,-0.0790448,-0.0671827,-0.252717,1,0,0,3.3075,0.035,0.2275,-0.101138,-0.09516,-1.26246,-0.16912,-0.23282,0.3325
-4.15092,0,0,14.1509,14.1509,5.84908,5.84908,2.30607,1.05786,67.8418,-0.0790395,-0.0671858,-0.252717,1,0,0,3.3775,-0.14,0.0875,-0.101138,-0.09516,-1.26246,-0.16912,-0.23282,0.3325
-4.14941,0,0,14.1494,14.1494,5.85059,5.85059,2.30523,1.05849,67.8437,-0.197864,-0.0959001,-0.36128,1,0,0,3.01,0.4025,-0.105,-0.220454,-0.12383,-1.37018,-0.16912,-0.23282,0.3325
-4.14889,0,0,14.1489,14.1489,5.85111,5.85111,2.30494,1.05817,67.8447,-0.197858,-0.0959052,-0.36128,1,0,0,3.325,-0.175,-0.6125,-0.220454,-0.12383,-1.37018,-0.16912,-0.23282,0.3325
-4.14717,0,0,14.1472,14.1472,5.85283,5.85283,2.30398,1.05828,67.8453,0.0734176,-0.0749161,-0.12657,1,0,0,2.9575,0.07,-0.805,0.051972,-0.102846,-1.13728,-0.16912,-0.23282,0.3325
-4.14565,0,0,14.1456,14.1456,5.85435,5.85435,2.30314,1.05765,67.8451,0.0734286,-0.0749308,-0.12657,1,0,0,3.0275,-0.385,-1.33,0.051972,-0.102846,-1.13728,-0.16912,-0.23282,0.3325
-3.87387,0,0,13.8739,13.8739,6.12613,6.12613,2.15215,0.989231,67.9161,-0.0466201,0.0952465,-0.0534144,0,0,0,2.59,-0.28,-1.4175,-0.069784,0.069784,-1.06482,-0.16912,-0.23282,0.3325
-3.60942,0,0,13.6094,13.6094,6.39058,6.39058,2.00523,0.922812,67.9923,-0.0454611,0.0926851,-0.053302,0,0,0,2.6425,-0.1925,-1.925,-0.069784,0.069784,-1.06482,-0.16492,-0.23534,0.3304
-3.6073,0,0,13.6073,13.6073,6.3927,6.3927,2.00405,0.923215,67.9908,0.0722515,0.0725136,-0.136538,1,0,0,2.8525,0.1925,-2.1,0.048434,0.049654,-1.14741,-0.16492,-0.23534,0.3304
-3.60532,0,0,13.6053,13.6053,6.39468,6.39468,2.00295,0.922365,67.9883,0.0722664,0.0724945,-0.136537,1,0,0,2.905,-0.56,-2.625,0.048434,0.049654,-1.14741,-0.16492,-0.23534,0.3304
-3.6475,0,0,13.6475,13.6475,6.3525,6.3525,2.02639,0.971557,67.9717,0.0475967,-0.012464,-0.0514849,0,0,0,2.7825,-0.0525,-2.555,0.024522,-0.035624,-1.06299,-0.16492,-0.23534,0.3304
-3.69069,0,0,13.6907,13.6907,6.30931,6.30931,2.05038,1.01983,67.9553,0.0467543,-0.012046,-0.0515144,0,0,0,3.535,-0.0175,-2.555,0.024522,-0.035624,-1.06299,-0.16492,-0.23534,0.3304
-3.59588,0,0,13.5959,13.5959,6.40412,6.40412,1.99771,0.923066,67.9972,-0.0854343,0.0225753,0.0279714,0,0,0,3.325,0.2275,-2.625,-0.109922,-0.000122,-0.984174,-0.16492,-0.23534,0.3304
-3.50551,0,0,13.5055,13.5055,6.49449,6.49449,1.9475,0.828424,68.0381,-0.0837827,0.0217005,0.0280268,0,0,0,3.745,0.2975,-3.01,-0.109922,-0.000122,-0.984174,-0.16492,-0.23534,0.3304
-3.50533,0,0,13.5053,13.5053,6.49467,6.49467,1.94741,0.829457,68.0355,0.115922,0.136254,0.170647,1,0,0,3.465,0.5425,-2.7125,0.090646,0.114314,-0.842654,-0.16492,-0.23534,0.3304
-3.50494,0,0,13.5049,13.5049,6.49506,6.49506,1.94719,0.829378,68.0331,0.115923,0.13625,0.170647,1,0,0,3.395,-0.105,-2.5725,0.090646,0.114314,-0.842654,-0.16646,-0.22918,0.3402
-3.50601,0,0,13.506,13.506,6.49399,6.49399,1.94778,0.829678,68.0311,0.262308,0.225535,0.195605,1,0,0,3.85,0.1225,-2.415,0.237656,0.203496,-0.817888,-0.16646,-0.22918,0.3402
-3.50749,0,0,13.5075,13.5075,6.49251,6.49251,1.9486,0.829868,68.0296,0.262305,0.225549,0.195605,1,0,0,3.9725,0.07,-2.065,0.237656,0.203496,-0.817888,-0.16646,-0.22918,0.3402
-3.32556,0,0,13.3256,13.3256,6.67444,6.67444,1.84754,0.934956,68.0538,0.104119,0.0801644,0.100227,0,0,0,4.13,-0.035,-1.855,0.080642,0.060024,-0.91256,-0.16646,-0.22918,0.3402
-3.14853,0,0,13.1485,13.1485,6.85147,6.85147,1.74918,1.03863,68.078,0.10231,0.078448,0.100249,0,0,0,4.445,0.0525,-1.6625,0.080642,0.060024,-0.91256,-0.16646,-0.22918,0.3402
-2.98172,0,0,12.9817,12.9817,7.01828,7.01828,1.65651,0.96207,68.1341,-0.0624252,0.0547273,-0.0126688,0,0,0,4.5675,0.105,-1.12,-0.086132,0.037942,-1.02468,-0.16646,-0.22918,0.3402
-2.81743,0,0,12.8174,12.8174,7.18257,7.18257,1.56524,0.887091,68.1898,-0.0611168,0.0531357,-0.0126029,0,0,0,3.8675,0,-1.12,-0.086132,0.037942,-1.02468,-0.16646,-0.22918,0.3402
-2.79549,0,0,12.7955,12.7955,7.20451,7.20451,1.55305,0.603003,68.2508,-0.283702,-0.0303657,0.0105816,0,0,0,4.025,0.2625,-0.6825,-0.314638,-0.045262,-1.00174,-0.16646,-0.22918,0.3402
-2.77485,0,0,12.7748,12.7748,7.22515,7.22515,1.54158,0.323574,68.3086,-0.278825,-0.0305647,0.0106264,0,0,0,3.955,0.1225,-0.595,-0.314638,-0.045262,-1.00174,-0.16968,-0.23142,0.34734
-3.25749,0,0,13.2575,13.2575,6.74251,6.74251,1.80972,0.351785,68.1884,-0.00986194,-0.18282,0.00188029,0,0,0,3.78,0.0175,-0.1925,-0.044042,-0.202032,-1.01028,-0.16968,-0.23142,0.34734
-3.72747,0,0,13.7275,13.7275,6.27253,6.27253,2.07082,0.378683,68.0698,-0.0103314,-0.178266,0.00172301,0,0,0,3.78,0.0175,-0.1925,-0.044042,-0.202032,-1.01028,-0.16968,-0.23142,0.34734
-3.61231,0,0,13.6123,13.6123,6.38769,6.38769,2.00684,0.34822,68.1054,-0.0272937,0.0391033,0.0337327,0,0,0,4.095,4.41,0.0875,-0.06161,0.016226,-0.978562,-0.16968,-0.23142,0.34734
-3.50029,0,0,13.5003,13.5003,6.49971,6.49971,1.9446,0.318561,68.1406,-0.026776,0.0380179,0.0337732,0,0,0,4.095,4.41,0.0875,-0.06161,0.016226,-0.978562,-0.16968,-0.23142,0.34734
-3.37921,0,0,13.3792,13.3792,6.62079,6.62079,1.87734,0.263824,68.1817,-0.0479311,0.0397758,-0.0966312,0,0,0,4.1125,0.1575,0.2275,-0.083814,0.019154,-1.108,-0.16968,-0.23142,0.34734
-3.26159,0,0,13.2616,13.2616,6.73841,6.73841,1.81199,0.210347,68.2225,-0.0469977,0.038636,-0.0965906,0,0,0,4.1125,0.1575,0.2275,-0.083814,0.019154,-1.108,-0.16968,-0.23142,0.34734
-3.35507,0,0,13.3551,13.3551,6.64493,6.64493,1.86393,0.174651,68.2083,-0.0457673,-0.0464351,-0.0848145,0,0,0,3.815,0.2275,0.0875,-0.083204,-0.066734,-1.09629,-0.16968,-0.23142,0.34734
-3.44687,0,0,13.4469,13.4469,6.55313,6.55313,1.91493,0.139526,68.1969,-0.0451543,-0.0455455,-0.0848422,0,0,0,3.815,0.2275,0.0875,-0.083204,-0.066734,-1.09629,-0.16856,-0.23324,0.33754
-3.44615,0,0,13.4461,13.4461,6.55385,6.55385,1.91453,0.139828,68.1983,-0.0766243,0.0180755,-0.133161,1,0,0,3.2725,0.1925,-0.385,-0.114802,-0.003172,-1.14424,-0.16856,-0.23324,0.33754
-3.44542,0,0,13.4454,13.4454,6.55458,6.55458,1.91412,0.14013,68.1997,-0.0766296,0.0180685,-0.133161,1,0,0,3.2725,0.1925,-0.385,-0.114802,-0.003172,-1.14424,-0.16856,-0.23324,0.33754
-3.44515,0,0,13.4451,13.4451,6.55485,6.55485,1.91397,0.13968,68.2003,0.215187,-0.117983,-0.260535,1,0,0,3.4125,-0.2625,-0.8225,0.178242,-0.13908,-1.27063,-0.16856,-0.23324,0.33754
-3.56153,0,0,13.5615,13.5615,6.43847,6.43847,1.97863,0.0502621,68.1896,-0.0958352,-0.0564027,0.00844052,0,0,0,3.2725,-0.3675,-1.0325,-0.135664,-0.07869,-1.00369,-0.16856,-0.23324,0.33754
-3.67614,0,0,13.6761,13.6761,6.32386,6.32386,2.0423,-0.0371551,68.1782,-0.0943095,-0.0552921,0.00840171,0,0,0,3.4825,-0.0175,-1.4525,-0.135664,-0.07869,-1.00369,-0.16856,-0.23324,0.33754
-3.32595,0,0,13.3259,13.3259,6.67405,6.67405,1.84775,-0.126572,68.2799,-0.0635923,0.12426,-0.0471809,0,0,0,3.2025,0.07,-1.54,-0.106384,0.104066,-1.05896,-0.16856,-0.23324,0.33754
-2.98311,0,0,12.9831,12.9831,7.01689,7.01689,1.65728,-0.214294,68.3799,-0.0620612,0.120937,-0.0470838,0,0,0,2.5375,-0.385,-1.995,-0.106384,0.104066,-1.05896,-0.16856,-0.23324,0.33754
-3.01868,0,0,13.0187,13.0187,6.98132,6.98132,1.67704,-0.349988,68.3965,-0.138902,-0.0344299,-0.0131717,0,0,0,2.6075,-0.245,-2.065,-0.185928,-0.051484,-1.02529,-0.16856,-0.23184,0.3332
-2.94177,0,0,12.9418,12.9418,7.05823,7.05823,1.63432,-0.391958,68.424,-0.0338129,0.0222241,0.0327049,0,0,0,2.5375,-0.1225,-2.2925,-0.08113,0.005856,-0.979782,-0.16856,-0.23184,0.3332
-2.86899,0,0,12.869,12.869,7.13101,7.13101,1.59388,-0.432162,68.4511,-0.0331112,0.0215186,0.0327197,0,0,0,3.115,0.3675,-2.3625,-0.08113,0.005856,-0.979782,-0.16856,-0.23184,0.3332
-2.82711,0,0,12.8271,12.8271,7.17289,7.17289,1.57061,-0.544768,68.4837,-0.108654,-0.00013788,-0.00183437,0,0,0,3.2725,0.315,-2.3975,-0.158966,-0.015372,-1.01406,-0.16856,-0.23184,0.3332
-2.78628,0,0,12.7863,12.7863,7.21372,7.21372,1.54793,-0.655183,68.5161,-0.106727,-0.000534106,-0.00184377,0,0,0,3.0275,0.35,-2.275,-0.158966,-0.015372,-1.01406,-0.16856,-0.23184,0.3332
-2.94306,0,0,12.9431,12.9431,7.05694,7.05694,1.63503,-0.468351,68.4488,0.179634,-0.0371173,-0.0403369,0,0,0,3.01,0.1225,-2.17,0.131882,-0.053436,-1.05225,-0.16856,-0.23184,0.3332
-3.09532,0,0,13.0953,13.0953,6.90468,6.90468,1.71962,-0.284336,68.383,0.176423,-0.0356409,-0.040359,0,0,0,3.185,0.56,-1.75,0.131882,-0.053436,-1.05225,-0.16856,-0.23184,0.3332
-3.40143,0,0,13.4014,13.4014,6.59857,6.59857,1.88968,-0.161523,68.2889,0.0993226,-0.104607,-0.031346,0,0,0,3.15,0.5075,-1.9075,0.056608,-0.125294,-1.04322,-0.16856,-0.23184,0.3332
-3.69754,0,0,13.6975,13.6975,6.30246,6.30246,2.05419,-0.0419626,68.2005,0.0972359,-0.101737,-0.0314411,0,0,0,3.08,0.3325,-1.7675,0.056608,-0.125294,-1.04322,-0.16562,-0.23338,0.33838
-3.95283,0,0,13.9528,13.9528,6.04717,6.04717,2.19602,0.0983535,68.1172,0.108515,-0.0694646,0.080595,0,0,0,3.2025,0.315,-1.68,0.070394,-0.095526,-0.931958,-0.16562,-0.23338,0.33838
-4.20093,0,0,14.2009,14.2009,5.79907,5.79907,2.33385,0.235733,68.0356,0.106117,-0.0670611,0.0804929,0,0,0,3.255,0.315,-1.3125,0.070394,-0.095526,-0.931958,-0.16562,-0.23338,0.33838
-4.6555,0,0,14.6555,14.6555,5.3445,5.3445,2.58639,0.270257,67.9212,-0.00297218,-0.180022,-0.0362541,0,0,0,3.395,0.42,-1.33,-0.038552,-0.212768,-1.04761,-0.16562,-0.23338,0.33838
-5.10014,0,0,15.1001,15.1001,4.89986,4.89986,2.83341,0.303494,67.8092,-0.00355227,-0.175715,-0.0364609,0,0,0,4.0425,0.5075,-0.805,-0.038552,-0.212768,-1.04761,-0.16562,-0.23338,0.33838
-5.23539,0,0,15.2354,15.2354,4.76461,4.76461,2.90855,0.40763,67.7573,0.0890246,-0.0345709,0.0222316,0,0,0,3.8325,0.2975,-0.7875,0.056242,-0.073078,-0.989298,-0.16562,-0.23338,0.33838
-5.36783,0,0,15.3678,15.3678,4.63217,4.63217,2.98213,0.508708,67.7062,0.0872605,-0.0332892,0.0221515,0,0,0,4.235,-0.245,-0.5775,0.056242,-0.073078,-0.989298,-0.16562,-0.23338,0.33838
-5.21356,0,0,15.2136,15.2136,4.78644,4.78644,2.89642,0.644487,67.7168,0.159119,0.0828239,-0.0762774,0,0,0,4.1125,-0.2275,-0.4375,0.130784,0.044408,-1.08702,-0.16562,-0.23338,0.33838
-5.06272,0,0,15.0627,15.0627,4.93728,4.93728,2.81262,0.77866,67.7242,0.156777,0.0813618,-0.0762336,0,0,0,4.0425,0,-0.3675,0.130784,0.044408,-1.08702,-0.16786,-0.23254,0.33054
-5.06449,0,0,15.0645,15.0645,4.93551,4.93551,2.81361,0.778165,67.7255,0.00565749,-0.032321,-0.115209,1,0,0,4.0425,-0.2625,-0.4025,-0.020984,-0.069174,-1.12569,-0.16786,-0.23254,0.33054
-5.06807,0,0,15.0681,15.0681,4.93193,4.93193,2.81559,0.777642,67.7269,0.00566661,-0.0322864,-0.115211,1,0,0,4.6025,-0.28,-0.42,-0.020984,-0.069174,-1.12569,-0.16786,-0.23254,0.33054
-4.9461,0,0,14.9461,14.9461,5.0539,5.0539,2.74783,0.700971,67.7646,-0.0664942,0.0362677,-0.0400144,0,0,0,4.515,-0.315,-0.56,-0.094794,0.000488,-1.05115,-0.16786,-0.23254,0.33054
-4.82684,0,0,14.8268,14.8268,5.17316,5.17316,2.68158,0.626534,67.8022,-0.0651951,0.0351134,-0.0399446,0,0,0,4.2175,0.0175,-0.5075,-0.094794,0.000488,-1.05115,-0.16786,-0.23254,0.33054
-4.82911,0,0,14.8291,14.8291,5.17089,5.17089,2.68284,0.626695,67.803,0.204014,0.0544314,-0.081994,1,0,0,4.2,0.105,-0.7175,0.175558,0.019764,-1.09288,-0.16786,-0.23254,0.33054
-4.83138,0,0,14.8314,14.8314,5.16862,5.16862,2.6841,0.626855,67.8038,0.204012,0.0544533,-0.0819951,1,0,0,4.2,0.105,-0.7175,0.175558,0.019764,-1.09288,-0.16786,-0.23254,0.33054
-4.28331,0,0,14.2833,14.2833,5.71669,5.71669,2.37962,0.581919,67.9378,-0.000879439,0.199605,0.0378768,0,0,0,3.8325,-0.1925,-0.9625,-0.030988,0.170068,-0.97417,-0.16786,-0.23254,0.33054
-3.74815,0,0,13.7482,13.7482,6.25185,6.25185,2.08231,0.538899,68.0781,-0.00012863,0.194421,0.0380861,0,0,0,3.8325,-0.1925,-0.9625,-0.030988,0.170068,-0.97417,-0.1645,-0.23786,0.3353
-3.74848,0,0,13.7485,13.7485,6.25152,6.25152,2.08249,0.538908,68.0776,-0.115905,0.119682,0.13251,1,0,0,3.605,-0.0175,-1.505,-0.147254,0.095404,-0.880474,-0.1645,-0.23786,0.3353
