pid_x,pid_y,pid_z,front_left_speed,front_right_speed,back_left_speed,back_right_speed,orientation_x,orientation_y,orientation_z,acceleration_x,acceleration_y,acceleration_z,accel_rejected,mag_rejected,gyro_x,gyro_y,gyro_z,accel_x,accel_y,accel_z,mag_x,mag_y,mag_z
-0.300236,0,0,15.3002,15.3002,14.6998,14.6998,0.500382,-0.0784155,-0.32094,0.0427176,-0.428914,0.0987505,0,0,3.5175,-0.07,-1.015,0.00122,-0.425048,-0.914634,-0.07728,0.29274,0.32788
-0.591412,0,0,15.5914,15.5914,14.4086,14.4086,0.98565,-0.147438,-0.642868,0.0467165,-0.420812,0.0840074,0,0,3.3775,-0.2275,-0.8925,0.004026,-0.425414,-0.929152,-0.07728,0.29274,0.32788
-0.877784,0,0,15.8778,15.8778,14.1222,14.1222,1.4629,-0.220987,-0.955384,0.0408325,-0.41224,0.0843171,0,0,3.5,-0.1575,-1.015,-0.003172,-0.42517,-0.928664,-0.07728,0.29274,0.32788
-1.15917,0,0,16.1592,16.1592,13.8408,13.8408,1.93182,-0.289314,-1.26589,0.042025,-0.404059,0.0840694,0,0,3.465,0.0875,-0.9975,-0.003172,-0.42517,-0.928664,-0.07728,0.29274,0.32788
-1.43678,0,0,16.4368,16.4368,13.5632,13.5632,2.39444,-0.346968,-1.57912,0.0476477,-0.394892,0.0916277,0,0,3.2375,0.1575,-1.015,0.001464,-0.424072,-0.920856,-0.07728,0.29274,0.32788
-1.71009,0,0,16.7101,16.7101,13.2899,13.2899,2.8499,-0.404307,-1.88722,0.0460972,-0.38915,0.087692,0,0,3.5,0.0175,-1.05,-0.001098,-0.426268,-0.924394,-0.07728,0.29274,0.32788
-1.97854,0,0,16.9785,16.9785,13.0215,13.0215,3.29722,-0.456507,-2.19044,0.0470082,-0.381355,0.0872666,0,0,3.5,-0.035,-0.91,-0.001098,-0.426268,-0.924394,-0.07728,0.29232,0.33096
-2.23973,0,0,17.2397,17.2397,12.7603,12.7603,3.73245,-0.507162,-2.48926,0.0452196,-0.371331,0.0827362,0,0,3.5,0.0525,-1.085,-0.003782,-0.423828,-0.92842,-0.07728,0.29232,0.33096
-2.49834,0,0,17.4983,17.4983,12.5017,12.5017,4.16337,-0.549674,-2.78945,0.0497276,-0.365172,0.0873754,0,0,3.5175,-0.0875,-1.1375,0,-0.42517,-0.923296,-0.07728,0.29232,0.33096
-2.75235,0,0,17.7523,17.7523,12.2477,12.2477,4.5866,-0.588474,-3.08724,0.0504048,-0.357808,0.0868052,0,0,3.5175,-0.0875,-1.1375,0,-0.42517,-0.923296,-0.07728,0.29232,0.33096
-3.00038,0,0,18.0004,18.0004,11.9996,11.9996,4.99987,-0.622823,-3.38266,0.0508828,-0.347812,0.0877946,0,0,3.4125,0.14,-1.1375,-0.000122,-0.422364,-0.92171,-0.07728,0.29232,0.33096
-3.2431,0,0,18.2431,18.2431,11.7569,11.7569,5.40426,-0.65633,-3.67382,0.0497667,-0.342128,0.0813696,0,0,3.4125,0,-1.2075,-0.00183,-0.423706,-0.927444,-0.07728,0.29232,0.33096
-3.48133,0,0,18.4813,18.4813,11.5187,11.5187,5.80116,-0.686873,-3.96231,0.0502998,-0.335235,0.0806871,0,0,3.36,-0.1925,-1.1025,-0.00183,-0.423706,-0.927444,-0.07728,0.29232,0.33096
-3.71645,0,0,18.7164,18.7164,11.2836,11.2836,6.19287,-0.710998,-4.24408,0.0518142,-0.329291,0.0827956,0,0,3.5175,-0.0175,-1.12,-0.000732,-0.42456,-0.924638,-0.07812,0.29036,0.33292
-3.94847,0,0,18.9485,18.9485,11.0515,11.0515,6.57941,-0.727273,-4.52701,0.0559857,-0.323565,0.0841319,0,0,3.71,-0.1225,-1.1025,0.003172,-0.425536,-0.922564,-0.07812,0.29036,0.33292
-4.17144,0,0,19.1714,19.1714,10.8286,10.8286,6.95086,-0.745069,-4.80378,0.0521658,-0.313342,0.0748808,0,0,3.5,-0.0875,-1.1025,-0.000976,-0.421754,-0.930982,-0.07812,0.29036,0.33292
-4.39245,0,0,19.3924,19.3924,10.6076,10.6076,7.31902,-0.759812,-5.07805,0.0530305,-0.308799,0.0771531,0,0,3.78,0.0525,-1.0675,-0.000366,-0.423584,-0.927932,-0.07812,0.29036,0.33292
-4.60899,0,0,19.609,19.609,10.391,10.391,7.67973,-0.772233,-5.34984,0.0532473,-0.302558,0.0763287,0,0,3.465,-0.0875,-1.155,-0.000366,-0.423584,-0.927932,-0.07812,0.29036,0.33292
-4.82192,0,0,19.8219,19.8219,10.1781,10.1781,8.03441,-0.784513,-5.6174,0.0520038,-0.297038,0.0759714,0,0,3.43,-0.105,-1.2075,-0.00183,-0.424194,-0.927444,-0.07812,0.29036,0.33292
-5.03098,0,0,20.031,20.031,9.96902,9.96902,8.38264,-0.79432,-5.88248,0.0521749,-0.291023,0.0751014,0,0,3.57,-0.07,-1.3125,-0.00183,-0.424194,-0.927444,-0.07812,0.29036,0.33292
-5.23573,0,0,20.2357,20.2357,9.76427,9.76427,8.72367,-0.800392,-6.14746,0.0534958,-0.283184,0.0769197,0,0,3.675,-0.105,-1.05,-0.00061,-0.422242,-0.92476,-0.07812,0.2919,0.3353
-5.43575,0,0,20.4358,20.4358,9.56425,9.56425,9.05682,-0.807852,-6.40669,0.0505888,-0.276219,0.0761423,0,0,3.4825,0.2275,-1.015,-0.00366,-0.421022,-0.924638,-0.07812,0.2919,0.3353
-5.63161,0,0,20.6316,20.6316,9.36839,9.36839,9.38301,-0.812616,-6.6642,0.0514009,-0.271821,0.0711718,0,0,3.5875,-0.0525,-1.1375,-0.002928,-0.422242,-0.928664,-0.07812,0.2919,0.3353
-5.82375,0,0,20.8237,20.8237,9.17625,9.17625,9.70299,-0.815544,-6.91912,0.051452,-0.266314,0.0702453,0,0,3.605,-0.1575,-1.155,-0.002928,-0.422242,-0.928664,-0.07812,0.2919,0.3353
-6.0175,0,0,21.0175,21.0175,8.9825,8.9825,10.0257,-0.809981,-7.17563,0.0568217,-0.264308,0.080962,0,0,3.64,0.0175,-1.1025,0.002562,-0.42578,-0.917074,-0.07812,0.2919,0.3353
-6.2038,0,0,21.2038,21.2038,8.7962,8.7962,10.3359,-0.804068,-7.42856,0.0551392,-0.25617,0.0734902,0,0,3.465,-0.105,-1.12,0.000976,-0.422974,-0.92354,-0.07812,0.2919,0.3353
-6.38661,0,0,21.3866,21.3866,8.61339,8.61339,10.6403,-0.79653,-7.67878,0.0550077,-0.250946,0.072525,0,0,3.5525,-0.105,-1.1375,0.000976,-0.422974,-0.92354,-0.07812,0.2919,0.3353
-6.5656,0,0,21.5656,21.5656,8.4344,8.4344,10.9384,-0.795355,-7.9209,0.0493988,-0.246081,0.0689697,0,0,3.675,0.0175,-1.26,-0.004636,-0.423218,-0.926102,-0.07812,0.2919,0.3353
-6.74122,0,0,21.7412,21.7412,8.25878,8.25878,11.2308,-0.792476,-8.15942,0.0493486,-0.241072,0.0679892,0,0,3.815,-0.0525,-1.2425,-0.004636,-0.423218,-0.926102,-0.07434,0.28994,0.33446
-6.91301,0,0,21.913,21.913,8.08699,8.08699,11.5168,-0.778357,-8.40167,0.0556624,-0.236422,0.0665163,0,0,3.675,-0.0175,-1.155,0.001952,-0.423462,-0.92659,-0.07434,0.28994,0.33446
-7.0865,0,0,22.0865,22.0865,7.9135,7.9135,11.8057,-0.7682,-8.63757,0.0530554,-0.235393,0.0741061,0,0,3.745,0,-1.085,-0.000488,-0.427366,-0.91805,-0.07434,0.28994,0.33446
-7.25101,0,0,22.251,22.251,7.74899,7.74899,12.0796,-0.75673,-8.87046,0.0515189,-0.226442,0.0634067,0,0,3.57,0.14,-0.9275,-0.00183,-0.423096,-0.927688,-0.07434,0.28994,0.33446
-7.41235,0,0,22.4124,22.4124,7.58765,7.58765,12.3481,-0.744439,-9.10091,0.0513044,-0.22186,0.0624178,0,0,3.605,-0.105,-0.9625,-0.00183,-0.423096,-0.927688,-0.07434,0.28994,0.33446
-7.53717,0,0,22.5372,22.5372,7.46283,7.46283,12.5559,-0.758144,-9.31132,0.0243308,-0.176431,0.0311419,0,0,3.465,-0.14,-0.9975,-0.029158,-0.38125,-0.957944,-0.07434,0.28994,0.33446
-7.65977,0,0,22.6598,22.6598,7.34023,7.34023,12.7599,-0.770344,-9.51966,0.0245437,-0.172958,0.030359,0,0,3.71,-0.14,-1.015,-0.029158,-0.38125,-0.957944,-0.07434,0.28994,0.33446
-7.85906,0,0,22.8591,22.8591,7.14094,7.14094,13.0917,-0.770533,-9.73679,0.0521243,-0.248528,0.129267,0,0,3.5875,-0.0525,-0.9275,-0.001464,-0.46238,-0.858514,-0.07644,0.29862,0.35224
-7.9792,0,0,22.9792,22.9792,7.0208,7.0208,13.2916,-0.717302,-9.98756,0.0667455,-0.163182,0.0532377,0,0,3.4475,-0.14,-0.945,0.014152,-0.380518,-0.933178,-0.07644,0.29862,0.35224
-8.10888,0,0,23.1089,23.1089,6.89112,6.89112,13.5074,-0.644839,-10.2478,0.0822458,-0.178567,0.0553304,0,0,3.3425,-0.1925,-0.98,0.030988,-0.39955,-0.93025,-0.07644,0.29862,0.35224
-8.23603,0,0,23.236,23.236,6.76397,6.76397,13.719,-0.573147,-10.5048,0.0809947,-0.174975,0.0544742,0,0,3.3425,-0.1925,-0.98,0.030988,-0.39955,-0.93025,-0.07644,0.29862,0.35224
-8.17051,0,0,23.1705,23.1705,6.82949,6.82949,13.6094,-1.40286,-10.1341,-0.398001,0.185459,0.374472,0,0,4.025,-0.2275,-1.365,-0.464576,-0.037576,-0.612928,-0.07644,0.29862,0.35224
-8.17134,0,0,23.1713,23.1713,6.82866,6.82866,13.6105,-1.40237,-10.1343,0.679447,-0.445552,-0.590186,1,0,4.095,0.28,-1.19,0.617442,-0.66795,-1.57014,-0.07644,0.29862,0.35224
-8.17134,0,0,23.1713,23.1713,6.82866,6.82866,13.6101,-1.40221,-10.1348,0.679444,-0.445558,-0.590184,1,0,3.3075,0.035,-1.365,0.617442,-0.66795,-1.57014,-0.07644,0.29862,0.35224
-8.17148,0,0,23.1715,23.1715,6.82852,6.82852,13.61,-1.40946,-10.1374,-0.016178,-0.342486,-0.164416,1,0,3.4125,-4.4625,-1.505,-0.081252,-0.564982,-1.14765,-0.07504,0.301,0.3486
-8.17125,0,0,23.1712,23.1712,6.82875,6.82875,13.6093,-1.40898,-10.138,-0.158568,-0.0951912,-0.146954,1,0,3.0975,0.2275,-1.4,-0.224236,-0.317932,-1.13033,-0.07504,0.301,0.3486
-8.17157,0,0,23.1716,23.1716,6.82843,6.82843,13.6095,-1.4078,-10.1376,-0.143524,-0.0734493,-0.241256,1,0,3.6225,0.7525,-0.9625,-0.209108,-0.296216,-1.2239,-0.07504,0.301,0.3486
-8.17219,0,0,23.1722,23.1722,6.82781,6.82781,13.6102,-1.40604,-10.1375,-0.143555,-0.0734373,-0.241258,1,0,3.9025,1.0325,-1.225,-0.209108,-0.296216,-1.2239,-0.07504,0.301,0.3486
-8.34405,0,0,23.3441,23.3441,6.65595,6.65595,13.8963,-2.17441,-9.82227,-0.406652,-0.132684,0.26554,0,0,5.285,-0.98,-1.5925,-0.48678,-0.360144,-0.719434,-0.07504,0.301,0.3486
-8.51288,0,0,23.5129,23.5129,6.48712,6.48712,14.1773,-1.30643,-10.5396,1.01222,-0.517156,-0.150768,0,0,4.55,0.035,-1.015,0.953308,-0.74908,-1.13179,-0.07504,0.301,0.3486
-8.51382,0,0,23.5138,23.5138,6.48618,6.48618,14.1785,-1.30831,-10.5383,1.01226,-0.517136,-0.150774,1,0,4.2,-0.8575,-0.035,0.953308,-0.74908,-1.13179,-0.07504,0.301,0.3486
-8.51381,0,0,23.5138,23.5138,6.48619,6.48619,14.1781,-1.30953,-10.5367,-0.101747,-0.607272,-0.523799,1,0,3.325,-0.4375,0.0525,-0.165432,-0.839116,-1.50194,-0.07322,0.31178,0.3633
-8.5136,0,0,23.5136,23.5136,6.4864,6.4864,14.1774,-1.30803,-10.5344,-0.196532,-0.0591787,-0.126303,1,0,3.15,1.2075,0.07,-0.260592,-0.29158,-1.10752,-0.07322,0.31178,0.3633
-8.51263,0,0,23.5126,23.5126,6.48737,6.48737,14.1755,-1.30744,-10.5318,1.09023,-0.98591,0.813893,1,0,2.4325,0.735,0.3675,1.03163,-1.21732,-0.174582,-0.07322,0.31178,0.3633
-8.51265,0,0,23.5126,23.5126,6.48735,6.48735,14.1751,-1.31165,-10.5307,1.09031,-0.985916,0.813893,1,0,3.3425,-2.205,0.21,1.03163,-1.21732,-0.174582,-0.07322,0.31178,0.3633
-8.51413,0,0,23.5141,23.5141,6.48587,6.48587,14.1773,-1.31314,-10.5301,0.7294,0.233067,-0.515313,1,0,4.7075,-0.735,-0.4725,0.66917,0.000366,-1.49352,-0.07322,0.31178,0.3633
-8.51597,0,0,23.516,23.516,6.48403,6.48403,14.18,-1.31516,-10.5294,0.525825,-0.450308,0.167776,1,0,5.04,-1.0325,-0.3675,0.464698,-0.682346,-0.815692,-0.07322,0.31178,0.3633
-8.51824,0,0,23.5182,23.5182,6.48176,6.48176,14.1834,-1.31695,-10.5299,0.525856,-0.450251,0.167761,1,0,5.425,-1.05,-1.015,0.464698,-0.682346,-0.815692,-0.07322,0.31178,0.3633
-8.52026,0,0,23.5203,23.5203,6.47974,6.47974,14.1864,-1.31502,-10.531,0.44795,-0.262857,-0.169745,1,0,5.18,0.945,-1.9775,0.386496,-0.495198,-1.15058,-0.07322,0.31178,0.3633
-8.41799,0,0,23.418,23.418,6.58201,6.58201,14.0156,-1.38063,-10.6904,-0.0668548,0.15253,0.0174681,0,0,4.6375,0.0175,-2.0125,-0.131638,-0.077348,-0.965508,-0.07126,0.30772,0.36358
-8.41723,0,0,23.4172,23.4172,6.58277,6.58277,14.014,-1.37901,-10.6926,-0.0425858,-0.102132,0.318454,1,0,2.5725,0.63,-2.5025,-0.107238,-0.331718,-0.666852,-0.07126,0.30772,0.36358
-8.41458,0,0,23.4146,23.4146,6.58542,6.58542,14.0092,-1.37505,-10.694,-0.042655,-0.102212,0.318475,1,0,0.8225,2.0825,-2.3625,-0.107238,-0.331718,-0.666852,-0.07126,0.30772,0.36358
-8.41103,0,0,23.411,23.411,6.58897,6.58897,14.003,-1.37372,-10.6973,-0.488166,-0.709043,0.0551466,1,0,-0.0525,0.2975,-3.1325,-0.554612,-0.937814,-0.928176,-0.07126,0.30772,0.36358
-8.40869,0,0,23.4087,23.4087,6.59131,6.59131,13.9987,-1.3734,-10.7006,-0.0918855,0.466354,0.371265,1,0,1.085,-0.245,-2.8875,-0.156648,0.236436,-0.614514,-0.07126,0.30772,0.36358
-8.40779,0,0,23.4078,23.4078,6.59221,6.59221,13.9969,-1.37435,-10.7036,-0.0918689,0.466323,0.371273,1,0,2.4325,-0.945,-2.6075,-0.156648,0.236436,-0.614514,-0.07126,0.30772,0.36358
-8.40999,0,0,23.41,23.41,6.59001,6.59001,14.0002,-1.3761,-10.7072,-0.0670552,-0.221072,-0.222583,1,0,5.32,-1.4875,-2.835,-0.13176,-0.450302,-1.20377,-0.07126,0.30772,0.36358
-8.41201,0,0,23.412,23.412,6.58799,6.58799,14.0032,-1.37667,-10.7091,-0.0670453,-0.221021,-0.222596,1,0,5.18,-0.56,-1.995,-0.13176,-0.450302,-1.20377,-0.07588,0.31724,0.35812
-8.41547,0,0,23.4155,23.4155,6.58453,6.58453,14.0086,-1.3758,-10.7107,0.0602565,-0.6132,-0.199627,1,0,6.5275,0.28,-2.1,-0.003904,-0.842166,-1.18096,-0.07588,0.31724,0.35812
-8.41953,0,0,23.4195,23.4195,6.58047,6.58047,14.015,-1.37488,-10.7116,0.0602405,-0.613092,-0.199654,1,0,7.0875,0.42,-1.6625,-0.003904,-0.842166,-1.18096,-0.07588,0.31724,0.35812
-8.42096,0,0,23.421,23.421,6.57904,6.57904,14.0171,-1.37347,-10.7118,-0.013283,0.12984,-0.178761,1,0,4.655,0.805,-1.3125,-0.077714,-0.10004,-1.16022,-0.07588,0.31724,0.35812
-8.42066,0,0,23.4207,23.4207,6.57934,6.57934,14.0162,-1.37117,-10.7109,-0.0133231,0.129826,-0.178756,1,0,3.045,1.4525,-0.875,-0.077714,-0.10004,-1.16022,-0.07588,0.31724,0.35812
-8.43932,0,0,23.4393,23.4393,6.56068,6.56068,14.047,-1.08342,-11.1126,0.185023,-0.0232634,0.0703116,0,0,2.0475,1.505,-0.8225,0.126514,-0.253516,-0.913048,-0.07588,0.31724,0.35812
-8.45609,0,0,23.4561,23.4561,6.54391,6.54391,14.0746,-0.804734,-11.5098,0.18016,-0.0227768,0.0702723,0,0,0.6475,0.6825,-0.4025,0.126514,-0.253516,-0.913048,-0.07588,0.31724,0.35812
-8.45407,0,0,23.4541,23.4541,6.54593,6.54593,14.0708,-0.805833,-11.5083,0.247239,-0.160599,0.244383,1,0,1.435,-0.385,-0.0175,0.193858,-0.391132,-0.740296,-0.07588,0.31724,0.35812
-8.45281,0,0,23.4528,23.4528,6.54719,6.54719,14.0684,-0.808548,-11.5065,0.247286,-0.16064,0.244393,1,0,2.1525,-1.26,0.385,0.193858,-0.391132,-0.740296,-0.07378,0.31598,0.36442
-8.4526,0,0,23.4526,23.4526,6.5474,6.5474,14.0677,-0.812342,-11.5051,0.0544332,-0.220983,-0.111295,1,0,3.1325,-1.9425,0.2625,0.000122,-0.4514,-1.09324,-0.07378,0.31598,0.36442
-8.45406,0,0,23.4541,23.4541,6.54594,6.54594,14.0698,-0.815767,-11.5033,0.054493,-0.220948,-0.111305,1,0,4.69,-1.6625,0.49,0.000122,-0.4514,-1.09324,-0.07378,0.31598,0.36442
-8.45623,0,0,23.4562,23.4562,6.54377,6.54377,14.073,-0.819119,-11.5015,0.149067,-0.128077,-0.0757875,1,0,5.355,-1.6275,0.455,0.095038,-0.35868,-1.05798,-0.07378,0.31598,0.36442
-8.45867,0,0,23.4587,23.4587,6.54133,6.54133,14.0767,-0.819804,-11.5001,0.149079,-0.128014,-0.0758034,1,0,5.6,-0.1575,-0.105,0.095038,-0.35868,-1.05798,-0.07378,0.31598,0.36442
-8.46088,0,0,23.4609,23.4609,6.53912,6.53912,14.0801,-0.819758,-11.4987,0.0861489,-0.241413,-0.0702849,1,0,5.39,0.245,-0.2625,0.031842,-0.472018,-1.05249,-0.07378,0.31598,0.36442
-8.46342,0,0,23.4634,23.4634,6.53658,6.53658,14.0839,-0.818551,-11.4979,0.0861278,-0.241348,-0.070301,1,0,5.6875,0.8225,-0.7525,0.031842,-0.472018,-1.05249,-0.07378,0.31598,0.36442
-8.4643,0,0,23.4643,23.4643,6.5357,6.5357,14.0851,-0.815395,-11.4967,-0.0936046,0.179154,0.246287,1,0,4.1475,1.995,-0.77,-0.148596,-0.051972,-0.738344,-0.07378,0.31598,0.36442
-8.46389,0,0,23.4639,23.4639,6.53611,6.53611,14.084,-0.811688,-11.496,-0.0936693,0.179137,0.246293,1,0,2.94,2.2225,-1.19,-0.148596,-0.051972,-0.738344,-0.07378,0.31598,0.36442
-8.46301,0,0,23.463,23.463,6.53699,6.53699,14.0822,-0.809595,-11.4966,0.224222,0.301477,0.198228,1,0,2.485,1.1375,-1.6275,0.170678,0.070272,-0.786046,-0.07,0.31976,0.37296
-8.46068,0,0,23.4607,23.4607,6.53932,6.53932,14.078,-0.810682,-11.4978,0.224241,0.301405,0.198246,1,0,1.12,-0.77,-1.575,0.170678,0.070272,-0.786046,-0.07,0.31976,0.37296
-8.73138,0,0,23.7314,23.7314,6.26862,6.26862,14.5288,-0.882287,-11.6654,0.0346368,-0.381969,0.129523,0,0,2.5725,-0.8575,-1.54,-0.020984,-0.620004,-0.852292,-0.07,0.31976,0.37296
-8.997,0,0,23.997,23.997,6.003,6.003,14.9711,-0.949174,-11.832,0.0358041,-0.374509,0.12754,0,0,2.5725,-0.8575,-1.54,-0.020984,-0.620004,-0.852292,-0.07,0.31976,0.37296
-9.28544,0,0,24.2854,24.2854,5.71456,5.71456,15.4515,-1.39504,-11.747,-0.225993,-0.392476,0.150269,0,0,3.9025,-0.9275,-1.715,-0.291702,-0.64599,-0.827404,-0.07,0.31976,0.37296
-9.56802,0,0,24.568,24.568,5.43198,5.43198,15.922,-1.8269,-11.668,-0.218458,-0.384629,0.147845,0,0,3.9025,-0.9275,-1.715,-0.291702,-0.64599,-0.827404,-0.07,0.31976,0.37296
-9.58426,0,0,24.5843,24.5843,5.41574,5.41574,15.9487,-1.64797,-11.9749,0.111656,-0.0109367,0.0659245,0,0,4.3225,3.92,-2.0475,0.042944,-0.273158,-0.908656,-0.07,0.31976,0.37296
-9.60021,0,0,24.6002,24.6002,5.39979,5.39979,15.9749,-1.4737,-12.2789,0.108615,-0.0104744,0.0658784,0,0,4.3225,3.92,-2.0475,0.042944,-0.273158,-0.908656,-0.07,0.31976,0.37296
-9.60178,0,0,24.6018,24.6018,5.39822,5.39822,15.9771,-1.47134,-12.2795,0.0559707,-0.0729659,0.175416,1,0,4.7425,1.26,-1.7325,-0.009882,-0.335622,-0.799954,-0.07364,0.31472,0.36792
-9.79744,0,0,24.7974,24.7974,5.20256,5.20256,16.3028,-1.58804,-12.3884,-0.0298273,-0.299808,0.0333769,0,0,4.0425,1.8725,-1.82,-0.098088,-0.567666,-0.939278,-0.07364,0.31472,0.36792
-9.98858,0,0,24.9886,24.9886,5.01142,5.01142,16.6209,-1.70258,-12.4971,-0.0278291,-0.294501,0.031749,0,0,3.465,0.245,-1.47,-0.098088,-0.567666,-0.939278,-0.07364,0.31472,0.36792
-9.98835,0,0,24.9883,24.9883,5.01165,5.01165,16.6201,-1.70269,-12.4978,0.0281778,-0.249572,-0.0259099,1,0,3.045,-0.1575,-1.4,-0.041846,-0.52277,-0.996496,-0.07364,0.31472,0.36792
-9.9883,0,0,24.9883,24.9883,5.0117,5.0117,16.6196,-1.70423,-12.4987,0.0282046,-0.24958,-0.0259082,1,0,3.22,-0.98,-1.2425,-0.041846,-0.52277,-0.996496,-0.07364,0.31472,0.36792
-10.0846,0,0,25.0846,25.0846,5,5,16.7797,-1.64475,-12.7173,0.0625193,-0.0969252,0.127988,0,0,2.66,-1.155,-1.0675,-0.006344,-0.372954,-0.84302,-0.07364,0.31472,0.36792
-10.1792,0,0,25.1792,25.1792,5,5,16.9369,-1.58648,-12.9325,0.0615027,-0.094292,0.12722,0,0,2.8175,-1.2775,-0.5775,-0.006344,-0.372954,-0.84302,-0.07364,0.31472,0.36792
-10.1791,0,0,25.1791,25.1791,5,5,16.9364,-1.58943,-12.9323,-0.00744981,-0.0129642,0.212793,1,0,3.2375,-1.5925,-0.42,-0.07564,-0.291702,-0.758108,-0.07364,0.31472,0.36792
-10.1794,0,0,25.1794,25.1794,5,5,16.9364,-1.59127,-12.932,-0.00741763,-0.0129644,0.212792,1,0,3.5175,-0.9625,-0.56,-0.07564,-0.291702,-0.758108,-0.06916,0.31318,0.37548
-10.1803,0,0,25.1803,25.1803,5,5,16.9375,-1.59216,-12.9315,-0.0495576,-0.00830551,0.204426,1,0,4.13,-0.385,-0.5775,-0.117974,-0.287066,-0.766404,-0.06916,0.31318,0.37548
-10.1819,0,0,25.1819,25.1819,5,5,16.9398,-1.59149,-12.931,-0.0495694,-0.0082674,0.204414,1,0,4.795,0.49,-0.8575,-0.117974,-0.287066,-0.766404,-0.06916,0.31318,0.37548
-10.1832,0,0,25.1832,25.1832,5,5,16.9416,-1.5901,-12.9296,0.131177,-0.152958,-0.181898,1,0,4.515,1.0325,-0.5075,0.063562,-0.431636,-1.14973,-0.06916,0.31318,0.37548
-10.1853,0,0,25.1853,25.1853,5,5,16.9445,-1.58928,-12.9287,0.131163,-0.152908,-0.181913,1,0,5.1975,0.6475,-0.63,0.063562,-0.431636,-1.14973,-0.06916,0.31318,0.37548
-10.1784,0,0,25.1784,25.1784,5,5,16.9327,-1.38138,-13.2307,0.137133,-0.0101896,-0.0313969,0,0,4.34,0.91,-0.7525,0.0732,-0.288896,-1.00052,-0.06916,0.31318,0.37548
-10.1708,0,0,25.1708,25.1708,5,5,16.9196,-1.18054,-13.5306,0.133628,-0.0103853,-0.0312554,0,0,3.43,0.0175,-0.875,0.0732,-0.288896,-1.00052,-0.06916,0.31318,0.37548
-10.2315,0,0,25.2315,25.2315,5,5,17.0203,-1.32768,-13.6147,-0.0895245,-0.109232,-0.0616983,0,0,2.905,-0.42,-1.085,-0.153476,-0.389302,-1.03017,-0.06916,0.31318,0.37548
-10.2902,0,0,25.2902,25.2902,5,5,17.1177,-1.47303,-13.712,-0.0869884,-0.107625,-0.0622565,0,0,2.135,-1.1725,-1.19,-0.153476,-0.389302,-1.03017,-0.07126,0.31752,0.36218
-10.362,0,0,25.362,25.362,5,5,17.2369,-1.19115,-14.06,0.19893,-0.0955898,0.0879733,0,0,2.485,-0.7,-1.2775,0.138592,-0.379298,-0.880596,-0.07126,0.31752,0.36218
-10.4325,0,0,25.4325,25.4325,5,5,17.3539,-0.916815,-14.4034,0.194143,-0.0936142,0.0874504,0,0,2.45,-1.05,-1.3125,0.138592,-0.379298,-0.880596,-0.07126,0.31752,0.36218
-10.6094,0,0,25.6094,25.6094,5,5,17.6484,-1.02967,-14.5057,-0.0251134,-0.247733,0.0654638,0,0,3.0975,-0.245,-1.5225,-0.08357,-0.538142,-0.900848,-0.07126,0.31752,0.36218
-10.7843,0,0,25.7843,25.7843,5,5,17.9394,-1.13554,-14.6074,-0.0232659,-0.242908,0.0638786,0,0,4.5675,0.9975,-1.8375,-0.08357,-0.538142,-0.900848,-0.07126,0.31752,0.36218
-10.8654,0,0,25.8654,25.8654,5,5,18.0741,-1.03228,-14.838,0.0882783,-0.117924,0.03048,0,0,4.9525,1.4875,-1.785,0.030256,-0.415532,-0.9333,-0.07126,0.31752,0.36218
-10.9448,0,0,25.9448,25.9448,5,5,18.206,-0.931366,-15.0652,0.0865173,-0.115728,0.029792,0,0,4.8125,1.4175,-1.505,0.030256,-0.415532,-0.9333,-0.07126,0.31752,0.36218
-10.9464,0,0,25.9464,25.9464,5,5,18.2082,-0.928625,-15.0653,-0.0935723,-0.151108,-0.108044,1,0,4.7425,1.54,-1.5575,-0.150548,-0.450912,-1.07006,-0.07126,0.31752,0.36218
-10.9466,0,0,25.9466,25.9466,5,5,18.2082,-0.92644,-15.0652,-0.0936105,-0.151108,-0.108044,1,0,3.4825,1.26,-1.365,-0.150548,-0.450912,-1.07006,-0.07252,0.31892,0.3703
-10.9465,0,0,25.9465,25.9465,5,5,18.2075,-0.926147,-15.0655,0.103677,-0.479395,-0.0137386,1,0,3.15,0.1225,-1.2775,0.04758,-0.778848,-0.976488,-0.07252,0.31892,0.3703
-10.9461,0,0,25.9461,25.9461,5,5,18.2064,-0.927509,-15.0662,0.103701,-0.479414,-0.0137329,1,0,2.8875,-0.8575,-1.155,0.04758,-0.778848,-0.976488,-0.07252,0.31892,0.3703
-10.9888,0,0,25.9888,25.9888,5,5,18.2772,-1.23048,-15.0552,-0.175775,-0.0204195,0.0655797,0,0,2.73,-1.225,-1.05,-0.238388,-0.32147,-0.89731,-0.07252,0.31892,0.3703
-11.031,0,0,26.031,26.031,5,5,18.3471,-1.52579,-15.0448,-0.170622,-0.0193009,0.0650789,0,0,3.395,-1.645,-0.9975,-0.238388,-0.32147,-0.89731,-0.07252,0.31892,0.3703
-11.2682,0,0,26.2682,26.2682,5,5,18.7418,-1.35079,-15.2816,0.183007,-0.320018,0.170295,0,0,3.535,-1.365,-0.875,0.119804,-0.628422,-0.790804,-0.07252,0.31892,0.3703
-11.5016,0,0,26.5016,26.5016,5,5,19.1304,-1.17656,-15.513,0.179966,-0.313582,0.168158,0,0,4.13,-0.3675,-0.8225,0.119804,-0.628422,-0.790804,-0.07252,0.31892,0.3703
-11.5738,0,0,26.5738,26.5738,5,5,19.2503,-1.66283,-15.3777,-0.322275,-0.0791472,-0.00510152,0,0,4.55,0.14,-0.7,-0.393084,-0.396134,-0.961848,-0.07252,0.31892,0.3703
-11.6433,0,0,26.6433,26.6433,5,5,19.3656,-2.13084,-15.2399,-0.314111,-0.0773373,-0.00602211,0,0,4.69,1.19,-0.385,-0.393084,-0.396134,-0.961848,-0.06608,0.31794,0.3787
-11.6449,0,0,26.6449,26.6449,5,5,19.3677,-2.12967,-15.2388,0.182745,-0.304458,-0.000869843,1,0,4.725,0.8925,-0.6125,0.105896,-0.623054,-0.956724,-0.06608,0.31794,0.3787
-11.6463,0,0,26.6463,26.6463,5,5,19.3696,-2.12847,-15.2376,0.182724,-0.304427,-0.000879774,1,0,4.5675,0.91,-0.63,0.105896,-0.623054,-0.956724,-0.06608,0.31794,0.3787
-11.5537,0,0,26.5537,26.5537,5,5,19.2148,-1.82332,-15.566,0.179224,0.104529,-0.0512066,0,0,4.1125,0.14,-0.6825,0.107726,-0.212036,-1.00772,-0.06608,0.31794,0.3787
-11.4628,0,0,26.4628,26.4628,5,5,19.0629,-1.52822,-15.8932,0.174075,0.102076,-0.0501957,0,0,3.99,-0.665,-0.735,0.107726,-0.212036,-1.00772,-0.06608,0.31794,0.3787
-11.5871,0,0,26.5871,26.5871,5,5,19.2696,-1.54521,-16.0202,0.0228792,-0.19593,0.0102102,0,0,3.7625,-1.05,-0.42,-0.044408,-0.513132,-0.946598,-0.06608,0.31794,0.3787
-11.7091,0,0,26.7091,26.7091,5,5,19.4723,-1.5606,-16.1461,0.0231476,-0.192595,0.00903016,0,0,3.9025,-1.085,-0.56,-0.044408,-0.513132,-0.946598,-0.06608,0.31794,0.3787
-11.7097,0,0,26.7097,26.7097,5,5,19.4729,-1.56303,-16.1462,-0.0774001,-0.212859,-0.094743,1,0,3.85,-1.3475,-0.63,-0.145424,-0.533384,-1.04957,-0.06608,0.31794,0.3787
-11.7106,0,0,26.7106,26.7106,5,5,19.4739,-1.56353,-16.1459,-0.0773914,-0.212842,-0.0947491,1,0,4.0775,-0.1925,-0.77,-0.145424,-0.533384,-1.04957,-0.06608,0.31794,0.3787
-11.7118,0,0,26.7118,26.7118,5,5,19.4753,-1.56338,-16.1462,0.188174,-0.0941117,-0.0624218,1,0,4.305,0.0525,-1.2075,0.121268,-0.4148,-1.01748,-0.06146,0.32802,0.38206
-11.7866,0,0,26.7866,26.7866,5,5,19.5996,-1.73024,-16.2022,-0.0957429,-0.102233,0.00058452,0,0,4.655,1.5225,-0.9975,-0.166774,-0.424926,-0.954162,-0.06146,0.32802,0.38206
-11.86,0,0,26.86,26.86,5,5,19.7215,-1.89181,-16.2585,-0.0929244,-0.100261,-0.000214694,0,0,4.9,1.505,-1.3125,-0.166774,-0.424926,-0.954162,-0.06146,0.32802,0.38206
-11.7504,0,0,26.7504,26.7504,5,5,19.5382,-1.59529,-16.5934,0.15678,0.144332,0.0201874,0,0,4.3925,1.015,-1.4875,0.089182,-0.177632,-0.93513,-0.06146,0.32802,0.38206
-11.6441,0,0,26.6441,26.6441,5,5,19.3605,-1.30937,-16.9277,0.151791,0.141451,0.021339,0,0,5.39,-0.2275,-1.5575,0.089182,-0.177632,-0.93513,-0.06146,0.32802,0.38206
-11.6406,0,0,26.6406,26.6406,5,5,19.3544,-0.631717,-17.4692,0.472107,-0.0287072,0.064104,0,0,5.3725,-0.595,-1.8375,0.42273,-0.347578,-0.892918,-0.06146,0.32802,0.38206
-11.6375,0,0,26.6375,26.6375,5,5,19.3487,0.0282242,-18.0043,0.460589,-0.0287809,0.0641941,0,0,5.6,-0.9275,-1.855,0.42273,-0.347578,-0.892918,-0.06146,0.32802,0.38206
-11.6856,0,0,26.6856,26.6856,5,5,19.4283,-0.26306,-18.0007,-0.172127,-0.0210011,0.0608953,0,0,5.4775,-1.0325,-1.7325,-0.21777,-0.341112,-0.895724,-0.06146,0.32802,0.38206
-11.732,0,0,26.732,26.732,5,5,19.5052,-0.545157,-18.001,-0.167203,-0.019747,0.0604152,0,0,5.4775,-1.0325,-1.7325,-0.21777,-0.341112,-0.895724,-0.05768,0.33068,0.38836
-11.7331,0,0,26.7331,26.7331,5,5,19.5065,-0.545825,-18.0026,-0.0853101,-0.302814,-0.0738526,1,0,4.27,-0.6475,-1.75,-0.135542,-0.623908,-1.02895,-0.05768,0.33068,0.38836
-11.7342,0,0,26.7342,26.7342,5,5,19.5079,-0.546492,-18.0041,-0.0852985,-0.302792,-0.0738607,1,0,4.27,-0.6475,-1.75,-0.135542,-0.623908,-1.02895,-0.05768,0.33068,0.38836
-11.7352,0,0,26.7352,26.7352,5,5,19.5091,-0.545231,-18.0048,0.0607053,-0.344052,0.018713,1,0,4.1475,0.595,-1.6275,0.011102,-0.665144,-0.937082,-0.05768,0.33068,0.38836
-11.7362,0,0,26.7362,26.7362,5,5,19.5102,-0.543969,-18.0054,0.0606833,-0.344033,0.0187065,1,0,4.1475,0.595,-1.6275,0.011102,-0.665144,-0.937082,-0.05768,0.33068,0.38836
-11.7386,0,0,26.7386,26.7386,5,5,19.5136,-0.550604,-18.0078,0.280931,-0.30514,-0.0431576,1,0,5.425,-4.095,-1.015,0.232166,-0.626348,-0.998448,-0.05768,0.33068,0.38836
-11.7409,0,0,26.7409,26.7409,5,5,19.5171,-0.557238,-18.0101,0.281047,-0.305084,-0.0431787,1,0,5.425,-4.095,-1.015,0.232166,-0.626348,-0.998448,-0.05768,0.33068,0.38836
-11.8501,0,0,26.8501,26.8501,5,5,19.6985,-0.975444,-17.9126,-0.228212,-0.0691165,0.134926,0,0,5.985,-1.0675,-0.595,-0.286578,-0.393572,-0.820572,-0.05768,0.33068,0.38836
-11.853,0,0,26.853,26.853,5,5,19.7029,-0.977322,-17.9122,0.43732,-0.29791,0.115228,1,0,5.9675,-0.945,-0.4725,0.381738,-0.6222,-0.840092,-0.06132,0.33418,0.39074
-11.8558,0,0,26.8558,26.8558,5,5,19.7071,-0.979541,-17.9115,0.437358,-0.297841,0.115202,1,0,5.88,-1.05,-0.175,0.381738,-0.6222,-0.840092,-0.06132,0.33418,0.39074
-11.8281,0,0,26.8281,26.8281,5,5,19.6605,-1.50809,-17.7579,-0.34174,0.115579,0.0812311,0,0,5.565,-0.21,-0.0175,-0.40992,-0.208376,-0.873886,-0.06132,0.33418,0.39074
-11.8001,0,0,26.8001,26.8001,5,5,19.6133,-2.02443,-17.6042,-0.332732,0.114711,0.0812459,0,0,5.565,-0.21,-0.0175,-0.40992,-0.208376,-0.873886,-0.06132,0.33418,0.39074
-11.8022,0,0,26.8022,26.8022,5,5,19.6163,-2.02353,-17.602,0.329957,-0.213028,-0.196266,1,0,5.25,0.9625,0.035,0.25559,-0.535824,-1.14924,-0.06132,0.33418,0.39074
-11.8043,0,0,26.8043,26.8043,5,5,19.6194,-2.02264,-17.5997,0.329941,-0.212978,-0.196283,1,0,5.25,0.9625,0.035,0.25559,-0.535824,-1.14924,-0.06132,0.33418,0.39074
-11.8064,0,0,26.8064,26.8064,5,5,19.6223,-2.0226,-17.5989,-0.122594,-0.217204,0.386599,1,0,5.1625,0.1925,-0.6125,-0.19886,-0.540094,-0.570838,-0.06132,0.33418,0.39074
-11.8089,0,0,26.8089,26.8089,5,5,19.626,-2.02262,-17.5986,0.0307215,0.0606958,0.442764,1,0,5.6175,0.0875,-0.8225,-0.044896,-0.262544,-0.515084,-0.06132,0.33418,0.39074
-11.8125,0,0,26.8125,26.8125,5,5,19.6315,-2.02326,-17.5988,0.0307326,0.0607857,0.442732,1,0,6.58,-0.3675,-1.015,-0.044896,-0.262544,-0.515084,-0.05726,0.3311,0.38808
-11.8162,0,0,26.8162,26.8162,5,5,19.6372,-2.02335,-17.5993,-0.0726501,0.0246084,-0.167496,1,0,6.72,-0.1225,-1.2775,-0.148718,-0.298778,-1.12057,-0.05726,0.3311,0.38808
-11.821,0,0,26.821,26.821,5,5,19.6447,-2.02389,-17.6012,-0.0726407,0.0247312,-0.16754,1,0,7.665,-0.665,-2.0125,-0.148718,-0.298778,-1.12057,-0.05726,0.3311,0.38808
-11.8913,0,0,26.8913,26.8913,5,5,19.7613,-1.70903,-17.9218,0.241496,-0.131326,0.011079,0,0,7.3675,-0.8225,-2.275,0.172264,-0.456646,-0.942816,-0.05726,0.3311,0.38808
-11.9603,0,0,26.9603,26.9603,5,5,19.8758,-1.40091,-18.2381,0.23612,-0.129396,0.0105389,0,0,7.2625,-0.35,-2.695,0.172264,-0.456646,-0.942816,-0.05726,0.3311,0.38808
-11.9644,0,0,26.9644,26.9644,5,5,19.8822,-1.40011,-18.2408,0.0429439,0.0582951,0.0916473,1,0,7.0525,-0.07,-2.66,-0.021716,-0.269254,-0.862296,-0.05726,0.3311,0.38808
-11.9679,0,0,26.9679,26.9679,5,5,19.8875,-1.39793,-18.2436,0.0429058,0.0583823,0.0916168,1,0,6.44,0.665,-3.01,-0.021716,-0.269254,-0.862296,-0.05726,0.3311,0.38808
-11.9635,0,0,26.9635,26.9635,5,5,19.8797,-1.15332,-18.5347,0.169599,-0.0285464,-0.0524658,0,0,6.825,0.455,-2.8175,0.1098,-0.355996,-1.0054,-0.05726,0.3311,0.38808
-11.9594,0,0,26.9594,26.9594,5,5,19.8724,-0.913663,-18.8114,0.165417,-0.0286408,-0.0523515,0,0,7.3675,0.0175,-2.31,0.1098,-0.355996,-1.0054,-0.06748,0.32886,0.38472
-11.946,0,0,26.946,26.946,5,5,19.8496,-0.299066,-19.2908,0.440911,-0.0315411,0.00690573,0,0,7.7,-0.1925,-2.0125,0.397232,-0.358558,-0.946842,-0.06748,0.32886,0.38472
-11.9331,0,0,26.9331,26.9331,5,5,19.8275,0.298479,-19.7635,0.430482,-0.031903,0.00703634,0,0,7.7175,-0.595,-1.19,0.397232,-0.358558,-0.946842,-0.06748,0.32886,0.38472
-11.9379,0,0,26.9379,26.9379,5,5,19.8351,0.297406,-19.7633,0.250459,-0.0811179,-0.0692364,1,0,7.7525,-0.525,-0.7,0.216428,-0.407846,-1.02248,-0.06748,0.32886,0.38472
-11.9427,0,0,26.9427,26.9427,5,5,19.8425,0.295761,-19.7617,0.250488,-0.0809955,-0.0692804,1,0,7.6825,-0.5775,0.14,0.216428,-0.407846,-1.02248,-0.06748,0.32886,0.38472
-11.9477,0,0,26.9477,26.9477,5,5,19.8505,0.293948,-19.7595,0.119436,-0.0674315,-0.106704,1,0,7.945,-0.5425,0.525,0.08479,-0.394426,-1.05957,-0.06748,0.32886,0.38472
-11.9531,0,0,26.9531,26.9531,5,5,19.8588,0.292151,-19.7562,0.119468,-0.0672941,-0.106753,1,0,8.19,-0.2975,1.1725,0.08479,-0.394426,-1.05957,-0.06748,0.32886,0.38472
-11.9588,0,0,26.9588,26.9588,5,5,19.868,0.29064,-19.7522,0.00213894,-0.0909586,-0.309918,1,0,8.6275,-0.0175,1.4525,-0.033062,-0.418216,-1.26111,-0.06748,0.32886,0.38472
-11.9646,0,0,26.9646,26.9646,5,5,19.8771,0.289128,-19.7482,0.00216532,-0.0908084,-0.309972,1,0,8.6275,-0.0175,1.4525,-0.033062,-0.418216,-1.26111,-0.06664,0.32578,0.38318
-11.9707,0,0,26.9707,26.9707,5,5,19.8868,0.288634,-19.7449,0.0876999,-0.146217,-0.0590917,1,0,8.925,0.42,0.91,0.052826,-0.473726,-1.01211,-0.06664,0.32578,0.38318
-11.9768,0,0,26.9768,26.9768,5,5,19.8965,0.288139,-19.7415,0.0877085,-0.146058,-0.0591491,1,0,8.925,0.42,0.91,0.052826,-0.473726,-1.01211,-0.06664,0.32578,0.38318
-11.983,0,0,26.983,26.983,5,5,19.9062,0.287284,-19.7399,0.148952,-0.0297557,0.330663,1,0,8.9775,-0.1225,0.035,0.114314,-0.357704,-0.62525,-0.06664,0.32578,0.38318
-11.9892,0,0,26.9892,26.9892,5,5,19.916,0.286428,-19.7383,0.148967,-0.0295955,0.330605,1,0,8.9775,-0.1225,0.035,0.114314,-0.357704,-0.62525,-0.06664,0.32578,0.38318
-11.9965,0,0,26.9965,26.9965,5,5,19.9277,0.286265,-19.7385,0.319293,0.00613562,-0.0770392,1,0,10.08,-0.105,-1.1025,0.285358,-0.322202,-1.02968,-0.06664,0.32578,0.38318
-12.0038,0,0,27.0038,27.0038,5,5,19.9394,0.286101,-19.7387,0.319296,0.00632788,-0.0771089,1,0,10.08,-0.105,-1.1025,0.285358,-0.322202,-1.02968,-0.06664,0.32578,0.38318
-12.284,0,0,27.284,27.284,5,5,20.4059,-0.163149,-19.5688,-0.201326,-0.243104,0.266437,0,0,10.3775,-0.4025,-1.9775,-0.245342,-0.579012,-0.686006,-0.06664,0.32578,0.38318
-12.5578,0,0,27.5578,27.5578,5,5,20.8616,-0.598792,-19.4,-0.193723,-0.235678,0.263587,0,0,10.3775,-0.4025,-1.9775,-0.245342,-0.579012,-0.686006,-0.07126,0.32326,0.38192
-12.5619,0,0,27.5619,27.5619,5,5,20.868,-0.337404,-19.6663,0.169938,-0.0136564,0.0195294,0,0,10.1325,0.525,-2.5725,0.12444,-0.357338,-0.928176,-0.07126,0.32326,0.38192
-12.6309,0,0,27.6309,27.6309,5,5,20.9824,-0.148722,-19.8808,0.150366,-0.127563,-0.0163339,0,0,10.675,0.5425,-2.66,0.108092,-0.472994,-0.963068,-0.07126,0.32326,0.38192
-12.6993,0,0,27.6993,27.6993,5,5,21.0959,0.0348989,-20.0922,0.147161,-0.125713,-0.0170419,0,0,11.2175,0.2625,-2.485,0.108092,-0.472994,-0.963068,-0.07126,0.32326,0.38192
-12.8131,0,0,27.8131,27.8131,5,5,21.2851,-0.254074,-20.038,-0.147379,-0.0660936,0.138269,0,0,11.62,0.3325,-2.2225,-0.19276,-0.416508,-0.807762,-0.07126,0.32326,0.38192
-12.9243,0,0,27.9243,27.9243,5,5,21.4698,-0.53531,-19.984,-0.14247,-0.0631032,0.137062,0,0,11.83,0.175,-1.295,-0.19276,-0.416508,-0.807762,-0.07126,0.32326,0.38192
-12.9332,0,0,27.9332,27.9332,5,5,21.4841,-0.535066,-19.9836,0.212021,0.0533938,-0.178515,1,0,11.5325,0.245,-0.8575,0.163236,-0.300364,-1.12081,-0.07126,0.32326,0.38192
-12.9415,0,0,27.9415,27.9415,5,5,21.4976,-0.535974,-19.9825,0.212036,0.0536118,-0.178601,1,0,11.0425,-0.245,-0.2625,0.163236,-0.300364,-1.12081,-0.07126,0.32326,0.38192
-13.0073,0,0,28.0073,28.0073,5,5,21.6066,-0.741028,-19.9776,-0.107658,-0.0230385,0.0993873,0,0,10.955,-0.77,-0.105,-0.161406,-0.378688,-0.84424,-0.07084,0.32158,0.37282
-13.0716,0,0,28.0716,28.0716,5,5,21.7133,-0.940301,-19.973,-0.104181,-0.0213263,0.0986524,0,0,11.2525,-0.8575,0.0175,-0.161406,-0.378688,-0.84424,-0.07084,0.32158,0.37282
-13.0809,0,0,28.0809,28.0809,5,5,21.7281,-0.942695,-19.9716,-0.0226221,-0.355103,0.0964659,1,0,11.83,-0.9625,0.28,-0.079544,-0.712358,-0.846314,-0.07084,0.32158,0.37282
-13.091,0,0,28.091,28.091,5,5,21.7445,-1.04359,-20.0263,-0.0688483,-0.00544352,-0.0423544,0,0,12.81,-0.28,0.3675,-0.127734,-0.363316,-0.98393,-0.07084,0.32158,0.37282
-13.102,0,0,28.102,28.102,5,5,21.7623,-1.14169,-20.0814,-0.0671365,-0.00516811,-0.0424995,0,0,13.8775,-0.4375,-0.07,-0.127734,-0.363316,-0.98393,-0.07084,0.32158,0.37282
-13.1136,0,0,28.1136,28.1136,5,5,21.7811,-1.14234,-20.0796,0.0954228,-0.424613,-0.00831875,1,0,14.07,0.0525,0.07,0.035502,-0.78263,-0.949892,-0.07084,0.32158,0.37282
-13.124,0,0,28.124,28.124,5,5,21.7978,-1.14385,-20.0785,0.0954491,-0.424342,-0.00842775,1,0,12.915,-0.5425,-0.07,0.035502,-0.78263,-0.949892,-0.07084,0.32158,0.37282
-13.1345,0,0,28.1345,28.1345,5,5,21.8148,-1.14479,-20.0778,-0.117742,0.00789588,0.120558,1,0,13.055,-0.35,-0.4725,-0.178608,-0.351116,-0.821792,-0.07084,0.32158,0.37282
-13.1448,0,0,28.1448,28.1448,5,5,21.8314,-1.14542,-20.0779,-0.117731,0.00816352,0.12045,1,0,12.775,-0.3325,-0.9275,-0.178608,-0.351116,-0.821792,-0.07084,0.32326,0.37044
-13.1551,0,0,28.1551,28.1551,5,5,21.8481,-1.14632,-20.0782,-0.0234422,-0.3588,0.0758338,1,0,12.8975,-0.525,-0.98,-0.083936,-0.71797,-0.865956,-0.07084,0.32326,0.37044
-13.1667,0,0,28.1667,28.1667,5,5,21.8669,-1.14744,-20.0782,-0.0234228,-0.358496,0.0757115,1,0,14.035,-0.595,-0.8225,-0.083936,-0.71797,-0.865956,-0.07084,0.32326,0.37044
-13.2665,0,0,28.2665,28.2665,5,5,22.0326,-0.954755,-20.2704,0.157752,-0.152694,0.0305491,0,0,14.5075,-0.63,-0.8225,0.101382,-0.515084,-0.909754,-0.07084,0.32326,0.37044
-13.3648,0,0,28.3648,28.3648,5,5,22.196,-0.765711,-20.4588,0.154453,-0.150035,0.0295219,0,0,14.77,-0.07,-0.56,0.101382,-0.515084,-0.909754,-0.07084,0.32326,0.37044
-13.3761,0,0,28.3761,28.3761,5,5,22.2142,-0.766581,-20.4585,0.0108716,-0.0729233,0.308126,1,0,13.7025,-0.385,-0.6825,-0.042822,-0.438346,-0.63318,-0.07084,0.32326,0.37044
-13.386,0,0,28.386,28.386,5,5,22.2302,-0.767952,-20.4587,0.0108956,-0.0726645,0.30802,1,0,12.495,-0.7525,-0.805,-0.042822,-0.438346,-0.63318,-0.07084,0.32326,0.37044
-13.3116,0,0,28.3116,28.3116,5,5,22.1055,-0.523478,-20.7117,0.144758,0.079463,-0.0709026,0,0,11.7425,-0.3675,-0.8225,0.095892,-0.284382,-1.01004,-0.07084,0.32326,0.37044
-13.2394,0,0,28.2394,28.2394,5,5,21.9847,-0.286651,-20.9622,0.140625,0.0775185,-0.0700836,0,0,12.0225,-0.0525,-0.945,0.095892,-0.284382,-1.01004,-0.06678,0.3199,0.36918
-13.2503,0,0,28.2503,28.2503,5,5,22.0023,-0.287248,-20.9621,-0.114971,-0.0432235,-0.42343,1,0,13.405,-0.2625,-0.805,-0.160796,-0.405284,-1.36054,-0.06678,0.3199,0.36918
-13.263,0,0,28.263,28.263,5,5,22.0229,-0.287425,-20.9613,-0.114967,-0.042891,-0.423565,1,0,15.0325,0.0875,-0.595,-0.160796,-0.405284,-1.36054,-0.06678,0.3199,0.36918
-13.2772,0,0,28.2772,28.2772,5,5,22.0461,-0.2881,-20.9611,0.171508,0.0446828,-0.152123,1,0,16.52,-0.2975,-0.77,0.12688,-0.318176,-1.09105,-0.06678,0.3199,0.36918
-13.2916,0,0,28.2916,28.2916,5,5,22.0695,-0.288912,-20.9612,0.171522,0.0450627,-0.152277,1,0,16.6775,-0.42,-0.8575,0.12688,-0.318176,-1.09105,-0.06678,0.3199,0.36918
-13.5422,0,0,28.5422,28.5422,5,5,22.4866,-0.747116,-20.7694,-0.237056,-0.247439,0.180792,0,0,15.7325,-0.5425,-1.05,-0.291458,-0.617076,-0.757742,-0.06678,0.3199,0.36918
-13.786,0,0,28.786,28.786,5,5,22.8924,-1.19152,-20.584,-0.229301,-0.240958,0.177939,0,0,14.945,-0.455,-1.19,-0.291458,-0.617076,-0.757742,-0.06678,0.3199,0.36918
-13.7977,0,0,28.7977,28.7977,5,5,22.9114,-1.19147,-20.5845,0.220195,0.19876,0.287603,1,0,14.1575,-0.0525,-1.2775,0.159942,-0.17812,-0.648796,-0.06678,0.3199,0.36918
-13.8113,0,0,28.8113,28.8113,5,5,22.9334,-1.193,-20.5856,0.220222,0.199113,0.287453,1,0,15.8375,-1.0675,-1.3125,0.159942,-0.17812,-0.648796,-0.07728,0.32032,0.37282
-13.8256,0,0,28.8256,28.8256,5,5,22.9566,-1.19364,-20.5861,0.343298,0.0106782,-0.311341,1,0,16.52,-0.42,-1.1025,0.283528,-0.366732,-1.24281,-0.07728,0.32032,0.37282
-13.8398,0,0,28.8398,28.8398,5,5,22.9798,-1.19429,-20.5865,0.34331,0.0110511,-0.311499,1,0,16.52,-0.42,-1.1025,0.283528,-0.366732,-1.24281,-0.07728,0.32032,0.37282
-13.8568,0,0,28.8568,28.8568,5,5,23.0075,-1.19529,-20.586,-0.0646219,-0.34951,-0.303574,1,0,19.075,-0.4025,-0.5425,-0.126148,-0.727364,-1.23476,-0.07728,0.32032,0.37282
-14.0419,0,0,29.0419,29.0419,5,5,23.3153,-1.39526,-20.5327,-0.0868875,-0.208799,0.0987415,0,0,17.675,-0.7175,-0.5775,-0.152012,-0.5917,-0.833382,-0.07728,0.32032,0.37282
-14.222,0,0,29.222,29.222,5,5,23.6149,-1.58861,-20.4816,-0.0835141,-0.204039,0.0965795,0,0,16.94,-0.9275,-0.6125,-0.152012,-0.5917,-0.833382,-0.07728,0.32032,0.37282
-14.2359,0,0,29.2359,29.2359,5,5,23.6376,-1.59081,-20.4824,-0.160862,-0.0488204,-0.113207,1,0,16.1875,-1.365,-0.98,-0.229726,-0.437004,-1.04139,-0.07728,0.32032,0.37282
-14.2513,0,0,29.2513,29.2513,5,5,23.6626,-1.59308,-20.4824,-0.160822,-0.0484211,-0.113383,1,0,17.535,-1.19,-0.49,-0.229726,-0.437004,-1.04139,-0.07728,0.32032,0.37282
-14.2487,0,0,29.2487,29.2487,5,5,23.6577,-1.24389,-20.733,0.211999,0.0223943,0.0761303,0,0,17.885,-0.91,-0.42,0.150792,-0.366244,-0.853512,-0.07182,0.3143,0.38038
-14.2684,0,0,29.2684,29.2684,5,5,23.6899,-1.24511,-20.7319,0.165855,-0.151121,-0.188189,1,0,21.595,-0.3675,-0.14,0.104432,-0.540094,-1.11557,-0.07182,0.3143,0.38038
-14.2885,0,0,29.2885,29.2885,5,5,23.7228,-1.24722,-20.7302,0.165892,-0.150596,-0.188421,1,0,21.9625,-0.7,0.385,0.104432,-0.540094,-1.11557,-0.07182,0.3143,0.38038
-14.3435,0,0,29.3435,29.3435,5,5,23.8139,-1.09165,-20.8716,0.115555,-0.0802386,-0.00704746,0,0,22.085,-0.805,0.42,0.056608,-0.471286,-0.935008,-0.07182,0.3143,0.38038
-14.3964,0,0,29.3964,29.3964,5,5,23.9015,-0.93763,-21.0103,0.112868,-0.0788214,-0.0076222,0,0,20.8775,0.5775,0.245,0.056608,-0.471286,-0.935008,-0.07182,0.3143,0.38038
-14.4145,0,0,29.4145,29.4145,5,5,23.931,-0.938385,-21.0088,0.235946,-0.0988689,-0.0634035,1,0,20.0375,-0.0175,-0.035,0.180194,-0.491782,-0.990152,-0.07182,0.3143,0.38038
-14.4328,0,0,29.4328,29.4328,5,5,23.961,-0.939293,-21.0067,0.235962,-0.0983909,-0.0636161,1,0,20.335,0.0175,0.2625,0.180194,-0.491782,-0.990152,-0.07182,0.3143,0.38038
-14.4519,0,0,29.4519,29.4519,5,5,23.9922,-0.940874,-21.0054,0.283004,0.319048,0.0709133,1,0,21.0525,-0.5075,0.0525,0.227408,-0.075274,-0.85644,-0.07182,0.3143,0.38038
-14.474,0,0,29.474,29.474,5,5,24.0284,-0.941765,-21.0039,0.28302,0.319625,0.0706563,1,0,23.8,-0.0875,0,0.227408,-0.075274,-0.85644,-0.07308,0.31052,0.3787
-14.497,0,0,29.497,29.497,5,5,24.0661,-0.943899,-21.0032,0.0724007,0.321324,0.081822,1,0,24.64,-0.9625,-0.175,0.01586,-0.074176,-0.845094,-0.07308,0.31052,0.3787
-14.5203,0,0,29.5203,29.5203,5,5,24.1044,-0.945642,-21.0032,0.0724311,0.321934,0.081549,1,0,24.9725,-0.8925,-0.5775,0.01586,-0.074176,-0.845094,-0.07308,0.31052,0.3787
-14.4805,0,0,29.4805,29.4805,5,5,24.0375,-0.723516,-21.1942,0.127111,0.0721184,-0.000790556,0,0,24.5175,-0.49,-1.225,0.074664,-0.32269,-0.927322,-0.07308,0.31052,0.3787
-14.439,0,0,29.439,29.439,5,5,23.9677,-0.507892,-21.3839,0.123348,0.0710221,-0.000258124,0,0,21.8925,-0.665,-1.295,0.074664,-0.32269,-0.927322,-0.07308,0.31052,0.3787
-14.5261,0,0,29.5261,29.5261,5,5,24.1123,-0.722385,-21.3264,-0.121955,-0.0656687,0.0381431,0,0,21.07,-0.7525,-0.7,-0.175436,-0.461526,-0.88816,-0.07308,0.31052,0.3787
-14.6111,0,0,29.6111,29.6111,5,5,24.2533,-0.930546,-21.27,-0.118322,-0.0634452,0.0370872,0,0,21.07,-0.7525,-0.7,-0.175436,-0.461526,-0.88816,-0.07308,0.31052,0.3787
-14.6594,0,0,29.6594,29.6594,5,5,24.3332,-1.03741,-21.2712,-0.0625174,-0.0217635,0.00968155,0,0,25.235,-0.63,-0.28,-0.121268,-0.421144,-0.914756,-0.07308,0.31052,0.3787
-14.7067,0,0,29.7067,29.7067,5,5,24.4113,-1.14139,-21.2774,-0.0607029,-0.0205364,0.00908776,0,0,25.235,-0.63,-0.28,-0.121268,-0.421144,-0.914756,-0.07476,0.31234,0.37142
-14.7338,0,0,29.7338,29.7338,5,5,24.456,-1.14243,-21.2761,-0.0637218,0.166904,0.0758952,1,0,28.5425,-0.21,-0.07,-0.124318,-0.234606,-0.848144,-0.07476,0.31234,0.37142
-14.7609,0,0,29.7609,29.7609,5,5,24.5006,-1.14348,-21.2747,-0.0637036,0.167613,0.0755723,1,0,28.5425,-0.21,-0.07,-0.124318,-0.234606,-0.848144,-0.07476,0.31234,0.37142
-14.787,0,0,29.787,29.787,5,5,24.5435,-1.14567,-21.2728,0.293745,0.124816,-0.142727,1,0,27.58,-0.6825,0.5075,0.234606,-0.278038,-1.06445,-0.07476,0.31234,0.37142
-14.812,0,0,29.812,29.812,5,5,24.5845,-1.14918,-21.2715,-0.0151314,0.356287,0.0512328,1,0,26.5475,-1.5225,0.525,-0.07564,-0.047458,-0.87169,-0.07476,0.31234,0.37142
-14.8375,0,0,29.8375,29.8375,5,5,24.6264,-1.15099,-21.27,-0.0150998,0.356951,0.0509283,1,0,26.985,-0.56,0.245,-0.07564,-0.047458,-0.87169,-0.07476,0.31234,0.37142
-14.8637,0,0,29.8637,29.8637,5,5,24.6694,-1.15317,-21.2688,-0.442327,0.0840678,0.308561,1,0,27.615,-0.84,0.14,-0.504714,-0.320738,-0.615734,-0.07476,0.31234,0.37142
-14.8927,0,0,29.8927,29.8927,5,5,24.717,-1.15545,-21.269,-0.442287,0.0848235,0.308212,1,0,30.24,-1.26,-0.6125,-0.504714,-0.320738,-0.615734,-0.07476,0.31234,0.37142
-15.0027,0,0,30.0027,30.0027,5,5,24.8999,-0.966914,-21.4017,0.140227,-0.105338,0.0964415,0,0,30.5375,-0.91,-0.595,0.08357,-0.51362,-0.824598,-0.07476,0.31234,0.37142
-15.1113,0,0,30.1113,30.1113,5,5,25.0802,-0.781884,-21.5227,0.136998,-0.102464,0.0951566,0,0,31.0625,-1.2075,-1.05,0.08357,-0.51362,-0.824598,-0.06916,0.30394,0.3773
-15.1347,0,0,30.1347,30.1347,5,5,25.1186,-0.853691,-21.5381,-0.0507807,-0.0107576,-0.0637479,0,0,29.7325,-0.7525,-0.7175,-0.106262,-0.422608,-0.981978,-0.06916,0.30394,0.3773
-15.1563,0,0,30.1563,30.1563,5,5,25.1539,-0.92612,-21.5541,-0.0495167,-0.0102094,-0.0640268,0,0,28.4725,-2.38,-0.4725,-0.106262,-0.422608,-0.981978,-0.06916,0.30394,0.3773
-15.2778,0,0,30.2778,30.2778,5,5,25.3558,-0.77079,-21.6527,0.12089,-0.111546,0.113765,0,0,29.435,-1.4525,-0.21,0.067588,-0.52704,-0.804102,-0.06916,0.30394,0.3773
-15.3995,0,0,30.3995,30.3995,5,5,25.5579,-0.619029,-21.7486,0.118241,-0.108347,0.112278,0,0,31.57,-1.3825,0.315,0.067588,-0.52704,-0.804102,-0.06916,0.30394,0.3773
-15.4313,0,0,30.4313,30.4313,5,5,25.6104,-0.621683,-21.7468,0.366969,0.203902,-0.146433,1,0,32.9175,-0.9275,0.5775,0.317322,-0.21594,-1.06042,-0.06916,0.30394,0.3773
-15.4656,0,0,30.4656,30.4656,5,5,25.6668,-0.625057,-21.7458,0.367028,0.204789,-0.14686,1,0,35.1575,-1.505,0.35,0.317322,-0.21594,-1.06042,-0.06916,0.30394,0.3773
-15.4997,0,0,30.4997,30.4997,5,5,25.7231,-0.627557,-21.7433,0.547842,0.211048,-0.0671233,1,0,35.07,-0.665,0.91,0.498858,-0.210572,-0.98088,-0.06916,0.30394,0.3773
-15.5337,0,0,30.5337,30.5337,5,5,25.7791,-0.631697,-21.7414,0.547914,0.211928,-0.0675488,1,0,34.93,-1.6625,1.05,0.498858,-0.210572,-0.98088,-0.07,0.30212,0.37646
-15.1243,0,0,30.1243,30.1243,5,5,25.0961,-0.138411,-22.1339,0.225629,0.643653,-0.0692615,0,0,34.965,-1.435,0.9625,0.183854,0.231434,-0.987712,-0.07,0.30212,0.37646
-14.7191,0,0,29.7191,29.7191,5,5,24.4202,0.344206,-22.5346,0.217206,0.632934,-0.0643347,0,0,33.67,-1.1725,0.735,0.183854,0.231434,-0.987712,-0.07,0.30212,0.37646
-14.752,0,0,29.752,29.752,5,5,24.4745,0.340679,-22.5335,-0.239762,0.0323232,0.223096,1,0,33.9675,-1.5925,0.4025,-0.27511,-0.369416,-0.70211,-0.07,0.30212,0.37646
-14.7851,0,0,29.7851,29.7851,5,5,24.529,0.33886,-22.5348,-0.23973,0.0331889,0.222701,1,0,34.0725,-1.2775,-1.3125,-0.27511,-0.369416,-0.70211,-0.07,0.30212,0.37646
-14.8833,0,0,29.8833,29.8833,5,5,24.692,0.797441,-22.7931,0.335884,-0.133525,0.0805451,0,0,36.3825,-1.54,-1.4525,0.310978,-0.538508,-0.841922,-0.07,0.30212,0.37646
-14.9817,0,0,29.9817,29.9817,5,5,24.8554,1.2456,-23.0458,0.328063,-0.130994,0.0792236,0,0,37.6775,-0.98,-1.4525,0.310978,-0.538508,-0.841922,-0.07,0.30212,0.37646
-15.0198,0,0,30.0198,30.0198,5,5,24.9183,1.24207,-23.0479,-0.137651,0.0825015,0.158311,1,0,38.7625,-2.38,-1.295,-0.15677,-0.326228,-0.762988,-0.07,0.30212,0.37646
-15.0582,0,0,30.0582,30.0582,5,5,24.9817,1.23952,-23.0483,-0.137607,0.0835054,0.157845,1,0,39.0775,-1.435,-0.63,-0.15677,-0.326228,-0.762988,-0.07406,0.30086,0.37338
-15.1247,0,0,30.1247,30.1247,5,5,25.0919,1.26979,-23.1019,0.0319449,-0.0471422,0.0072694,0,0,38.64,-1.3125,4.445,0.01403,-0.458476,-0.911584,-0.07406,0.30086,0.37338
-15.1881,0,0,30.1881,30.1881,5,5,25.1969,1.30224,-23.1615,0.0313786,-0.0454902,0.00647995,0,0,36.9425,-1.6625,0.28,0.01403,-0.458476,-0.911584,-0.07406,0.30086,0.37338
-15.225,0,0,30.225,30.225,5,5,25.2578,1.29819,-23.1608,0.699013,0.0363211,-0.00675881,1,0,37.695,-1.96,0.315,0.68442,-0.377712,-0.924272,-0.07406,0.30086,0.37338
-15.2653,0,0,30.2653,30.2653,5,5,25.3244,1.29446,-23.1588,0.699078,0.037371,-0.00725331,1,0,40.775,-1.435,0.9975,0.68442,-0.377712,-0.924272,-0.07406,0.30086,0.37338
-15.4501,0,0,30.4501,30.4501,5,5,25.6316,0.789156,-22.9198,-0.317322,-0.158984,0.038166,0,0,42.2625,-0.665,1.1375,-0.345138,-0.578768,-0.877058,-0.07406,0.30086,0.37338
-15.6345,0,0,30.6345,30.6345,5,5,25.9384,0.297062,-22.6862,-0.308734,-0.154128,0.0359102,0,0,46.69,-1.0325,1.05,-0.345138,-0.578768,-0.877058,-0.07406,0.30086,0.37338
-15.6801,0,0,30.6801,30.6801,5,5,26.0137,0.294528,-22.6831,-0.0964538,-0.209002,-0.0809746,1,0,45.7275,-0.525,1.225,-0.132004,-0.634766,-0.99247,-0.07406,0.30086,0.37338
-15.7221,0,0,30.7221,30.7221,5,5,26.083,0.289859,-22.6826,-0.0963723,-0.207917,-0.0815047,1,0,42.315,-2.31,0.42,-0.132004,-0.634766,-0.99247,-0.07014,0.29848,0.38654
-15.7628,0,0,30.7628,30.7628,5,5,26.1502,0.285032,-22.6838,0.286756,0.160617,-0.295705,1,0,41.2125,-2.8175,-0.4025,0.252662,-0.267668,-1.20451,-0.07014,0.29848,0.38654
-15.8049,0,0,30.8049,30.8049,5,5,26.2197,0.282028,-22.6844,0.286809,0.161705,-0.29624,1,0,42.455,-1.715,-0.5775,0.252662,-0.267668,-1.20451,-0.07014,0.29848,0.38654
-15.6981,0,0,30.6981,30.6981,5,5,26.041,-0.026167,-22.6158,-0.250853,0.25478,-0.120761,0,0,45.4475,-1.365,-0.6475,-0.292678,-0.171898,-1.03175,-0.07014,0.29848,0.38654
-15.5964,0,0,30.5964,30.5964,5,5,25.8709,-0.331802,-22.5474,-0.245519,0.252104,-0.119477,0,0,48.86,-3.8325,-0.385,-0.292678,-0.171898,-1.03175,-0.07014,0.29848,0.38654
-15.8219,0,0,30.8219,30.8219,5,5,26.2462,-0.457016,-22.4593,-0.0347427,-0.201583,0.140005,0,0,50.5225,-2.87,4.3225,-0.083204,-0.630984,-0.771406,-0.07014,0.29848,0.38654
-16.04,0,0,31.04,31.04,5,5,26.6089,-0.572524,-22.3778,-0.0327268,-0.195921,0.137171,0,0,47.915,-1.5225,0.7875,-0.083204,-0.630984,-0.771406,-0.07014,0.29848,0.38654
-16.0867,0,0,31.0867,31.0867,5,5,26.6862,-0.577255,-22.3764,-0.0876773,0.190837,0.0639031,1,0,46.83,-2.065,0.98,-0.13847,-0.24583,-0.843508,-0.07014,0.29848,0.38654
-16.1344,0,0,31.1344,31.1344,5,5,26.7649,-0.581496,-22.3741,-0.0876033,0.192064,0.0632844,1,0,47.67,-1.61,1.2425,-0.13847,-0.24583,-0.843508,-0.07014,0.29316,0.39032
-15.944,0,0,30.944,30.944,5,5,26.4469,-0.417961,-22.5334,0.0618857,0.320232,-0.170146,0,0,48.8425,-2.31,1.9775,0.014518,-0.11285,-1.07763,-0.07014,0.29316,0.39032
-15.7611,0,0,30.7611,30.7611,5,5,26.1415,-0.259747,-22.6927,0.0591244,0.31546,-0.16777,0,0,52.5,-2.3625,2.3975,0.014518,-0.11285,-1.07763,-0.07014,0.29316,0.39032
-15.8173,0,0,30.8173,30.8173,5,5,26.2344,-0.265057,-22.6892,0.4487,-0.212504,-0.000169789,1,0,55.6325,-1.855,2.1875,0.40565,-0.64172,-0.910608,-0.07014,0.29316,0.39032
-15.8724,0,0,30.8724,30.8724,5,5,26.3257,-0.268932,-22.6864,0.448768,-0.211076,-0.000875362,1,0,54.6875,-1.2775,1.4525,0.40565,-0.64172,-0.910608,-0.07014,0.29316,0.39032
-15.9774,0,0,30.9774,30.9774,5,5,26.5,0.0366057,-22.8293,0.200221,-0.0566651,0.129336,0,0,52.5525,-2.2225,0.9275,0.161406,-0.490196,-0.780068,-0.07014,0.29316,0.39032
-16.08,0,0,31.08,31.08,5,5,26.6703,0.334697,-22.9713,0.195018,-0.0540141,0.12799,0,0,51.695,-2.695,0,0.161406,-0.490196,-0.780068,-0.07014,0.29316,0.39032
-16.1152,0,0,31.1152,31.1152,5,5,26.7284,0.493066,-23.071,0.0987102,0.022112,0.0322323,0,0,51.7125,-2.8,-0.105,0.067466,-0.415044,-0.874618,-0.07014,0.29316,0.39032
-16.1549,0,0,31.1549,31.1549,5,5,26.7938,0.647974,-23.1702,0.0960067,0.0231193,0.0316942,0,0,56.2275,-2.6775,-0.5425,0.067466,-0.415044,-0.874618,-0.07014,0.29316,0.39032
-16.2145,0,0,31.2145,31.2145,5,5,26.8926,0.643512,-23.1718,0.317917,-0.26405,-0.0185086,1,0,58.8875,-2.73,-0.6825,0.290238,-0.703452,-0.923662,-0.07126,0.28896,0.39228
-16.2763,0,0,31.2763,31.2763,5,5,26.9948,0.640661,-23.1705,-0.011745,0.234353,0.302317,1,0,60.83,-1.12,0.4025,-0.04087,-0.207156,-0.60451,-0.07126,0.28896,0.39228
-16.3332,0,0,31.3332,31.3332,5,5,27.0889,0.637853,-23.1684,-0.011696,0.235816,0.30157,1,0,56.2625,-0.8925,0.7875,-0.04087,-0.207156,-0.60451,-0.07126,0.28896,0.39228
-16.3908,0,0,31.3908,31.3908,5,5,27.1843,0.633134,-23.1667,0.0929856,-0.555182,-0.0280757,1,0,56.9975,-1.995,1.085,0.064172,-0.998814,-0.93086,-0.07126,0.28896,0.39228
-16.4509,0,0,31.4509,31.4509,5,5,27.2837,0.627259,-23.1628,0.0930881,-0.55364,-0.0288684,1,0,59.2025,-1.9775,2.59,0.064172,-0.998814,-0.93086,-0.07126,0.28896,0.39228
-16.5051,0,0,31.5051,31.5051,5,5,27.3734,0.615256,-23.1671,-0.00401245,-0.0310107,-0.0963462,0,0,61.8275,-2.94,2.9925,-0.03355,-0.478118,-0.997106,-0.07126,0.28896,0.39228
-16.5647,0,0,31.5647,31.5647,5,5,27.472,0.606715,-23.1711,-0.00386338,-0.0294824,-0.0971374,0,0,67.83,-1.4175,2.38,-0.03355,-0.478118,-0.997106,-0.07126,0.28896,0.39228
-16.6336,0,0,31.6336,31.6336,5,5,27.5862,0.603684,-23.1659,0.197491,0.175747,0.119193,1,0,67.4625,-0.14,2.485,0.168604,-0.274866,-0.781532,-0.07126,0.28896,0.39228
-16.6962,0,0,31.6962,31.6962,5,5,27.6899,0.597998,-23.1634,0.197591,0.177351,0.118354,1,0,61.6525,-2.2575,1.785,0.168604,-0.274866,-0.781532,-0.07,0.29148,0.39592
-16.7007,0,0,31.7007,31.7007,5,5,27.6967,0.446549,-23.1233,-0.100929,0.123731,0.0189778,0,0,61.5825,-2.8,1.12,-0.133834,-0.328546,-0.880108,-0.07,0.29148,0.39592
-16.7058,0,0,31.7058,31.7058,5,5,27.7045,0.299863,-23.0835,-0.0983692,0.12386,0.018929,0,0,62.5275,-2.415,0.735,-0.133834,-0.328546,-0.880108,-0.07,0.29148,0.39592
-16.7707,0,0,31.7707,31.7707,5,5,27.8119,0.295291,-23.0821,-0.545478,0.204291,-0.0539914,1,0,63.7175,-1.96,0.945,-0.582916,-0.249856,-0.9516,-0.07,0.29148,0.39592
-16.8434,0,0,31.8434,31.8434,5,5,27.9324,0.289064,-23.0831,-0.54537,0.20615,-0.0549741,1,0,71.0675,-3.4825,0.14,-0.582916,-0.249856,-0.9516,-0.07,0.29148,0.39592
-17.0093,0,0,32.0093,32.0093,5,5,28.2082,0.57875,-23.189,0.231821,-0.194714,0.0431755,0,0,72.1875,-2.0125,0.4725,0.202642,-0.65453,-0.851926,-0.07,0.29148,0.39592
-17.1664,0,0,32.1664,32.1664,5,5,28.4694,0.861967,-23.292,0.226878,-0.190733,0.0409577,0,0,66.325,-1.89,0.6125,0.202642,-0.65453,-0.851926,-0.07,0.29148,0.39592
-17.3933,0,0,32.3933,32.3933,5,5,28.8467,1.33365,-23.4529,0.370869,-0.263069,0.20106,0,0,65.03,-1.925,0.8575,0.355508,-0.732488,-0.689788,-0.07,0.29148,0.39592
-17.6199,0,0,32.6199,32.6199,5,5,29.2236,1.79843,-23.5852,0.36276,-0.257428,0.197675,0,0,69.7375,-4.3575,2.8525,0.355508,-0.732488,-0.689788,-0.07462,0.2793,0.40516
-17.6196,0,0,32.6196,32.6196,5,5,29.2224,0.64596,-23.0977,-0.804775,0.415071,0.169904,0,0,69.0375,-2.5725,3.57,-0.837164,-0.060878,-0.717726,-0.07462,0.2793,0.40516
-17.6255,0,0,32.6255,32.6255,5,5,29.2315,-0.496381,-22.6083,-0.784837,0.415223,0.169849,0,0,77.1925,-5.5475,2.66,-0.837164,-0.060878,-0.717726,-0.07462,0.2793,0.40516
-17.6677,0,0,32.6677,32.6677,5,5,29.3011,-0.561272,-22.5567,-0.0455577,0.04892,-0.0502169,0,0,76.755,-1.995,2.345,-0.095892,-0.427854,-0.935496,-0.07462,0.2793,0.40516
-17.7043,0,0,32.7043,32.7043,5,5,29.3615,-0.624052,-22.5068,-0.044462,0.0498324,-0.0507425,0,0,72.4325,-2.275,1.6275,-0.095892,-0.427854,-0.935496,-0.07462,0.2793,0.40516
-17.7772,0,0,32.7772,32.7772,5,5,29.4821,-0.628339,-22.5053,0.344488,0.316071,0.096867,1,0,71.1725,-1.7325,0.9625,0.29463,-0.163724,-0.787998,-0.07462,0.2793,0.40516
-17.8541,0,0,32.8541,32.8541,5,5,29.6097,-0.636686,-22.5071,0.344634,0.318006,0.095768,1,0,75.005,-4.7425,0.4725,0.29463,-0.163724,-0.787998,-0.07462,0.2793,0.40516
-17.9321,0,0,32.9321,32.9321,5,5,29.7388,-0.640382,-22.5068,-0.583331,0.138606,-0.0698535,1,0,75.915,-1.75,0.2275,-0.637328,-0.344894,-0.951234,-0.07462,0.2793,0.40516
-18.0157,0,0,33.0157,33.0157,5,5,29.8774,-0.65044,-22.5112,-0.583155,0.140704,-0.0710579,1,0,81.2,-6.3875,-0.3675,-0.637328,-0.344894,-0.951234,-0.06566,0.2674,0.40362
-18.1013,0,0,33.1013,33.1013,5,5,30.0194,-0.657468,-22.5138,0.488471,-0.0800304,0.0517588,1,0,83.1075,-4.305,-0.2975,0.438712,-0.567544,-0.828136,-0.06566,0.2674,0.40362
-18.1819,0,0,33.1819,33.1819,5,5,30.1529,-0.661293,-22.513,0.488538,-0.0780147,0.0505901,1,0,78.365,-1.6625,0.525,0.438712,-0.567544,-0.828136,-0.06566,0.2674,0.40362
-18.2599,0,0,33.2599,33.2599,5,5,30.2822,-0.664131,-22.5117,0.604728,0.946501,-0.347423,1,0,75.985,-1.0325,0.455,0.555344,0.453962,-1.22195,-0.06566,0.2674,0.40362
-18.343,0,0,33.343,33.343,5,5,30.4199,-0.676559,-22.5107,0.604945,0.948575,-0.34864,1,0,80.745,-5.9675,3.1325,0.555344,0.453962,-1.22195,-0.06566,0.2674,0.40362
-18.4303,0,0,33.4303,33.4303,5,5,30.5647,-0.685298,-22.506,-1.0708,0.27478,-1.0243,1,0,84.7175,-2.9925,3.92,-1.12765,-0.221308,-1.89112,-0.06566,0.2674,0.40362
-18.5223,0,0,33.5223,33.5223,5,5,30.7173,-0.698365,-22.5034,-1.07057,0.277069,-1.02566,1,0,89.075,-5.775,4.1825,-1.12765,-0.221308,-1.89112,-0.06566,0.2674,0.40362
-18.6156,0,0,33.6156,33.6156,5,5,30.872,-0.706469,-22.4995,0.552864,-0.805342,-0.779667,1,0,90.265,-2.8875,3.3425,0.502518,-1.30491,-1.64566,-0.06566,0.2674,0.40362
-18.7016,0,0,33.7016,33.7016,5,5,31.0145,-0.711639,-22.4957,0.552954,-0.803209,-0.780947,1,0,83.44,-1.435,2.415,0.502518,-1.30491,-1.64566,-0.07028,0.27468,0.41958
-18.7857,0,0,33.7857,33.7857,5,5,31.1539,-0.718856,-22.4939,1.00646,0.611024,-0.325696,1,0,81.6375,-3.0625,2.03,0.957822,0.105774,-1.19267,-0.07028,0.27468,0.41958
-18.8749,0,0,33.8749,33.8749,5,5,31.3019,-0.729871,-22.4933,1.00666,0.613231,-0.327037,1,0,86.485,-5.32,2.59,0.957822,0.105774,-1.19267,-0.07028,0.27468,0.41958
-18.9685,0,0,33.9685,33.9685,5,5,31.457,-0.738261,-22.4923,-0.0337219,0.245131,-0.614796,1,0,90.475,-3.85,2.0475,-0.087108,-0.264252,-1.47681,-0.07028,0.27468,0.41958
-19.0668,0,0,34.0668,34.0668,5,5,31.6201,-0.750423,-22.4948,-0.0335096,0.247556,-0.616287,1,0,94.9725,-6.8075,1.4525,-0.087108,-0.264252,-1.47681,-0.07028,0.27468,0.41958
-19.1658,0,0,34.1658,34.1658,5,5,31.7842,-0.760584,-22.4965,0.34874,-0.554213,-0.349275,1,0,95.4975,-5.565,1.2425,0.296582,-1.06762,-1.21036,-0.07028,0.27468,0.41958
-19.2582,0,0,34.2582,34.2582,5,5,31.9374,-0.767543,-22.4954,0.348862,-0.551943,-0.350687,1,0,89.4075,-3.0975,1.6625,0.296582,-1.06762,-1.21036,-0.07028,0.27468,0.41958
-19.3454,0,0,34.3454,34.3454,5,5,32.082,-0.773839,-22.4948,0.732502,0.990824,-0.658291,1,0,84.5775,-2.9225,1.2075,0.681736,0.471408,-1.51426,-0.07028,0.27468,0.41958
-19.4388,0,0,34.4388,34.4388,5,5,32.2368,-0.787423,-22.4943,0.732739,0.993109,-0.659731,1,0,90.2825,-6.5625,3.43,0.681736,0.471408,-1.51426,-0.07028,0.27468,0.41958
-19.5385,0,0,34.5385,34.5385,5,5,32.4022,-0.800003,-22.4904,-0.323117,0.232255,-0.666195,1,0,96.2675,-4.9875,4.8125,-0.37881,-0.291092,-1.51914,-0.07084,0.26614,0.43176
-19.6478,0,0,34.6478,34.6478,5,5,32.5836,-0.81476,-22.4887,-0.322859,0.234924,-0.667899,1,0,105.263,-6.7375,4.4275,-0.37881,-0.291092,-1.51914,-0.07084,0.26614,0.43176
-19.7579,0,0,34.7579,34.7579,5,5,32.7663,-0.82513,-22.4884,0.309655,-0.647081,-0.789866,1,0,105.893,-4.9875,2.3975,0.2562,-1.17486,-1.63846,-0.07084,0.26614,0.43176
-19.868,0,0,34.868,34.868,5,5,32.9489,-0.835501,-22.4881,0.309836,-0.644406,-0.791597,1,0,105.893,-4.9875,2.3975,0.2562,-1.17486,-1.63846,-0.07084,0.26614,0.43176
-19.9649,0,0,34.9649,34.9649,5,5,33.1095,-0.842752,-22.4869,0.676728,0.897474,-0.52387,1,0,93.6075,-3.15,1.8725,0.624518,0.363072,-1.37128,-0.07084,0.26614,0.43176
-20.0618,0,0,35.0618,35.0618,5,5,33.2702,-0.850007,-22.4857,0.676854,0.89982,-0.525406,1,0,93.6075,-3.15,1.8725,0.624518,0.363072,-1.37128,-0.07084,0.26614,0.43176
-20.1707,0,0,35.1707,35.1707,5,5,33.451,-0.853595,-22.4836,-0.731831,-0.296708,-0.878652,1,0,104.878,-1.05,1.155,-0.790194,-0.834846,-1.72008,-0.07084,0.26614,0.43176
-20.2797,0,0,35.2797,35.2797,5,5,33.6318,-0.85719,-22.4815,-0.731768,-0.294079,-0.880395,1,0,104.878,-1.05,1.155,-0.790194,-0.834846,-1.72008,-0.07084,0.26614,0.43176
-20.3996,0,0,35.3996,35.3996,5,5,33.8308,-0.866304,-22.4843,0.0237887,-0.526531,-0.000416461,1,0,115.063,-5.32,0.5775,-0.031598,-1.06994,-0.844972,-0.07084,0.2576,0.43722
-20.5131,0,0,35.5131,35.5131,5,5,34.019,-0.8743,-22.4851,0.00740614,0.331325,0.55114,1,0,109.008,-4.1475,1.155,-0.04819,-0.215696,-0.29585,-0.07084,0.2576,0.43722
-20.6143,0,0,35.6143,35.6143,5,5,34.1869,-0.881718,-22.4846,0.00753558,0.33375,0.549495,1,0,97.6675,-3.395,1.6625,-0.04819,-0.215696,-0.29585,-0.07084,0.2576,0.43722
-20.7192,0,0,35.7192,35.7192,5,5,34.3609,-0.89592,-22.4836,1.48954,0.339555,0.061398,1,0,101.063,-6.5275,4.1125,1.43984,-0.212402,-0.778482,-0.07084,0.2576,0.43722
-20.8383,0,0,35.8383,35.8383,5,5,34.5584,-0.907399,-22.4792,1.48974,0.342395,0.0594449,1,0,114.293,-4.06,4.8825,1.43984,-0.212402,-0.778482,-0.07084,0.2576,0.43722
-21.0679,0,0,36.0679,36.0679,5,5,34.9402,-1.53234,-22.1043,-0.34156,0.0111551,0.137464,0,0,119.123,-5.25,3.5875,-0.410164,-0.548634,-0.697108,-0.07084,0.2576,0.43722
-21.2953,0,0,36.2953,36.2953,5,5,35.3184,-2.13455,-21.7344,-0.331054,0.0163567,0.133393,0,0,122.745,-1.575,1.68,-0.410164,-0.548634,-0.697108,-0.07084,0.2576,0.43722
-21.4155,0,0,36.4155,36.4155,5,5,35.5179,-2.14119,-21.7338,0.235185,0.495973,-0.694964,1,0,115.378,-2.9575,1.4875,0.158356,-0.072346,-1.51707,-0.07084,0.2576,0.43722
-21.5262,0,0,36.5262,36.5262,5,5,35.7014,-2.1533,-21.7311,0.235396,0.49857,-0.696834,1,0,106.453,-4.8125,4.375,0.158356,-0.072346,-1.51707,-0.07056,0.24486,0.44114
-21.6428,0,0,36.6428,36.6428,5,5,35.8949,-2.16831,-21.7297,0.153412,0.140417,0.212847,1,0,112.035,-6.6325,4.76,0.075762,-0.432856,-0.61244,-0.07056,0.24486,0.44114
-21.7707,0,0,36.7707,36.7707,5,5,36.1071,-2.17639,-21.7278,0.153553,0.143408,0.210667,1,0,122.5,-3.15,2.6425,0.075762,-0.432856,-0.61244,-0.07056,0.24486,0.44114
-21.4075,0,0,36.4075,36.4075,5,5,35.501,-1.19209,-22.193,0.592681,0.788995,-0.0562981,0,0,125.563,-0.28,1.5575,0.533994,0.220332,-0.88389,-0.07056,0.24486,0.44114
-21.0503,0,0,36.0503,36.0503,5,5,34.9047,-0.229585,-22.6781,0.575884,0.780612,-0.0501289,0,0,128.713,-5.95,1.96,0.533994,0.220332,-0.88389,-0.07056,0.24486,0.44114
-21.1781,0,0,36.1781,36.1781,5,5,35.1168,-0.237948,-22.6757,0.624017,0.898076,0.623103,1,0,122.448,-3.1675,2.94,0.582184,0.334646,-0.213744,-0.07056,0.24486,0.44114
-21.2937,0,0,36.2937,36.2937,5,5,35.3086,-0.25252,-22.6741,0.624271,0.900811,0.621172,1,0,111.038,-6.4225,4.62,0.582184,0.334646,-0.213744,-0.07056,0.24486,0.44114
-21.4167,0,0,36.4167,36.4167,5,5,35.5128,-0.269696,-22.6702,-0.530515,-0.220951,-0.0744467,1,0,117.985,-6.8425,6.65,-0.577792,-0.788852,-0.901946,-0.07056,0.24486,0.44114
-21.5533,0,0,36.5533,36.5533,5,5,35.7395,-0.284917,-22.6638,-0.530249,-0.217735,-0.076753,1,0,130.655,-5.0575,7.1575,-0.577792,-0.788852,-0.901946,-0.07126,0.23128,0.44996
-21.6947,0,0,36.6947,36.6947,5,5,35.9743,-0.298797,-22.6589,1.24259,0.215349,-0.0744822,1,0,135.153,-4.8825,6.0375,1.20231,-0.359534,-0.89731,-0.07126,0.23128,0.44996
-21.8378,0,0,36.8378,36.8378,5,5,36.2119,-0.309943,-22.6589,1.24279,0.2187,-0.0769261,1,0,136.728,-5.2675,2.7825,1.20231,-0.359534,-0.89731,-0.07126,0.23128,0.44996
-21.9746,0,0,36.9746,36.9746,5,5,36.439,-0.324433,-22.6606,0.178702,1.11513,-1.25774,1,0,130.795,-7.4025,3.185,0.133468,0.532774,-2.06668,-0.07126,0.23128,0.44996
-22.1064,0,0,37.1064,37.1064,5,5,36.6578,-0.340109,-22.6567,0.178975,1.11819,-1.26001,1,0,126.21,-5.9675,6.2825,0.133468,0.532774,-2.06668,-0.07126,0.23128,0.44996
-22.2468,0,0,37.2468,37.2468,5,5,36.8908,-0.354981,-22.6533,-0.641644,-0.262368,-0.0791913,1,0,134.173,-5.775,5.74,-0.690886,-0.849608,-0.892552,-0.07126,0.23128,0.44996
-22.3967,0,0,37.3967,37.3967,5,5,37.1398,-0.365126,-22.6533,-0.641467,-0.258899,-0.0818079,1,0,143.08,-4.7075,2.555,-0.690886,-0.849608,-0.892552,-0.07126,0.23128,0.44996
-22.5458,0,0,37.5458,37.5458,5,5,37.3872,-0.369557,-22.6506,-0.497064,0.56755,0.327332,1,0,142.24,-1.1025,1.7675,-0.54595,-0.02745,-0.483974,-0.07126,0.23128,0.44996
-22.697,0,0,37.697,37.697,5,5,37.6384,-0.385757,-22.6571,-0.496782,0.571026,0.324661,1,0,144.305,-9.8,1.75,-0.54595,-0.02745,-0.483974,-0.06426,0.23016,0.45878
-22.841,0,0,37.841,37.841,5,5,37.8773,-0.397193,-22.6576,-0.170636,0.818575,0.234567,1,0,137.463,-5.46,2.8175,-0.218624,0.21655,-0.570838,-0.06426,0.23016,0.45878
-22.9788,0,0,37.9788,37.9788,5,5,38.106,-0.417036,-22.657,-0.17029,0.82172,0.232108,1,0,131.758,-8.925,6.37,-0.218624,0.21655,-0.570838,-0.06426,0.23016,0.45878
-23.4535,0,0,38.4535,38.4535,5,5,38.8963,0.122931,-22.6282,0.37827,-0.2969,0.61341,0,0,137.375,-6.79,7.5425,0.341722,-0.911706,-0.183976,-0.06426,0.23016,0.45878
-23.935,0,0,38.935,38.935,5,5,39.6978,0.655352,-22.5938,0.368978,-0.286115,0.604502,0,0,148.278,-6.2125,5.74,0.341722,-0.911706,-0.183976,-0.06426,0.23016,0.45878
-24.0926,0,0,39.0926,39.0926,5,5,39.9594,0.644355,-22.5925,-0.225381,0.0315031,0.226464,1,0,150.185,-4.4275,3.675,-0.255346,-0.597922,-0.556198,-0.06426,0.23016,0.45878
-24.2474,0,0,39.2474,39.2474,5,5,40.2164,0.631953,-22.5968,-0.225165,0.0349359,0.223577,1,0,147.613,-7.14,1.7325,-0.255346,-0.597922,-0.556198,-0.06426,0.23016,0.45878
-24.3988,0,0,39.3988,39.3988,5,5,40.4678,0.614179,-22.5986,0.875441,2.03725,0.673804,1,0,144.498,-8.6275,4.8475,0.849608,1.39897,-0.106628,-0.06426,0.23016,0.45878
-24.5563,0,0,39.5563,39.5563,5,5,40.7292,0.595571,-22.594,0.875766,2.04072,0.670838,1,0,150.045,-6.4925,8.085,0.849608,1.39897,-0.106628,-0.0637,0.21896,0.46102
-24.7247,0,0,39.7247,39.7247,5,5,41.0089,0.582017,-22.5934,-0.306053,-0.575573,-0.763966,1,0,160.283,-5.7225,4.445,-0.337452,-1.21829,-1.5272,-0.0637,0.21896,0.46102
-24.8919,0,0,39.8919,39.8919,5,5,41.2865,0.584469,-22.5876,-0.306096,-0.571925,-0.767155,1,0,159.145,3.325,0.56,-0.337452,-1.21829,-1.5272,-0.0637,0.21896,0.46102
-25.0623,0,0,40.0623,40.0623,5,5,41.5695,0.57884,-22.586,-0.431614,0.402565,0.829261,1,0,162.155,-1.82,1.855,-0.4636,-0.248514,0.060146,-0.0637,0.21896,0.46102
-25.2252,0,0,40.2252,40.2252,5,5,41.8399,0.563636,-22.5876,-0.431349,0.40609,0.826123,1,0,155.12,-7.245,4.1825,-0.4636,-0.248514,0.060146,-0.0637,0.21896,0.46102
-24.7794,0,0,39.7794,39.7794,5,5,41.0959,1.19464,-22.9737,0.348633,1.08675,-0.18391,0,0,148.925,-9.24,4.9,0.330742,0.441274,-0.950502,-0.0637,0.21896,0.46102
-24.3434,0,0,39.3434,39.3434,5,5,40.3683,1.81861,-23.3676,0.337746,1.07695,-0.175845,0,0,156.485,-7.28,8.3825,0.330742,0.441274,-0.950502,-0.0637,0.21896,0.46102
-24.5163,0,0,39.5163,39.5163,5,5,40.6554,1.80403,-23.3608,-1.40143,0.610206,-0.12229,1,0,164.36,-3.9025,7.49,-1.41605,-0.028792,-0.894138,-0.0637,0.21896,0.46102
-24.6922,0,0,39.6922,39.6922,5,5,40.9475,1.79021,-23.3558,-1.40119,0.614068,-0.125614,1,0,167.195,-4.1825,6.4575,-1.41605,-0.028792,-0.894138,-0.0637,0.21896,0.46102
-24.8709,0,0,39.8709,39.8709,5,5,41.2443,1.77673,-23.3556,0.988911,0.802263,-1.06907,1,0,169.855,-5.8625,4.2175,0.98393,0.155306,-1.82695,-0.06594,0.20636,0.47362
-25.0445,0,0,40.0445,40.0445,5,5,41.5327,1.74888,-23.3659,-0.081742,2.47723,0.247093,1,0,165.393,-16.205,5.215,-0.091744,1.82475,-0.517646,-0.06594,0.20636,0.47362
-25.2155,0,0,40.2155,40.2155,5,5,41.8167,1.72751,-23.3602,-0.0813693,2.48094,0.243807,1,0,162.628,-7.0875,9.765,-0.091744,1.82475,-0.517646,-0.06594,0.20636,0.47362
-25.4028,0,0,40.4028,40.4028,5,5,42.1277,1.71114,-23.3562,-0.256023,-1.02091,-0.0199744,1,0,177.835,-5.53,7.105,-0.267424,-1.6775,-0.775798,-0.06594,0.20636,0.47362
-25.5826,0,0,40.5826,40.5826,5,5,42.4263,1.70878,-23.353,-0.255982,-1.01706,-0.0234772,1,0,170.835,0.2275,1.2425,-0.267424,-1.6775,-0.775798,-0.06594,0.20636,0.47362
-25.7673,0,0,40.7673,40.7673,5,5,42.7331,1.698,-23.3571,0.00297061,0.167485,0.714284,1,0,175.613,-6.23,1.4875,-0.007564,-0.498126,-0.040138,-0.06594,0.20636,0.47362
-25.9604,0,0,40.9604,40.9604,5,5,43.0539,1.67209,-23.3659,0.00342266,0.171594,0.710485,1,0,183.488,-14.6125,5.495,-0.007564,-0.498126,-0.040138,-0.06594,0.20636,0.47362
-26.1462,0,0,41.1462,41.1462,5,5,43.3623,1.64933,-23.3674,-0.578947,1.15559,0.462757,1,0,176.47,-10.29,7.4375,-0.592798,0.480924,-0.282308,-0.06594,0.20636,0.47362
-26.3351,0,0,41.3351,41.3351,5,5,43.6762,1.62524,-23.3662,-0.578527,1.15957,0.458995,1,0,179.445,-9.7125,9.17,-0.592798,0.480924,-0.282308,-0.06398,0.19194,0.48888
-26.5295,0,0,41.5295,41.5295,5,5,43.9991,1.60989,-23.363,-0.532459,1.41778,-1.72601,1,0,184.485,-5.1625,6.5275,-0.546804,0.734806,-2.44659,-0.06398,0.19194,0.48888
-26.7177,0,0,41.7177,41.7177,5,5,44.3116,1.59529,-23.366,-0.532204,1.4217,-1.7298,1,0,178.763,-7.35,3.64,-0.546804,0.734806,-2.44659,-0.06398,0.19194,0.48888
-26.9124,0,0,41.9124,41.9124,5,5,44.6349,1.57907,-23.3725,0.981305,0.414278,0.197897,1,0,184.905,-9.4325,2.8875,0.972828,-0.275598,-0.529846,-0.06398,0.19194,0.48888
-27.1142,0,0,42.1142,42.1142,5,5,44.9703,1.54872,-23.3855,0.981834,0.41844,0.193784,1,0,191.713,-17.9375,6.09,0.972828,-0.275598,-0.529846,-0.06398,0.19194,0.48888
-27.3164,0,0,42.3164,42.3164,5,5,45.306,1.52319,-23.3854,-0.277527,-0.213089,-1.05472,1,0,191.748,-10.5,9.555,-0.292312,-0.910608,-1.76461,-0.06398,0.19194,0.48888
-27.5364,0,0,42.5364,42.5364,5,5,45.6717,1.51041,-23.3798,-0.277304,-0.208613,-1.05927,1,0,208.425,-2.905,6.5625,-0.292312,-0.910608,-1.76461,-0.06398,0.19194,0.48888
-27.7516,0,0,42.7516,42.7516,5,5,46.0292,1.51089,-23.3719,-0.589774,3.89748,-2.44716,1,0,203.823,3.57,2.0125,-0.606096,3.18688,-3.13735,-0.06398,0.19194,0.48888
-27.9588,0,0,42.9588,42.9588,5,5,46.3732,1.49934,-23.3742,-0.589572,3.90164,-2.45149,1,0,196.455,-5.6525,2.8875,-0.606096,3.18688,-3.13735,-0.06006,0.17164,0.50596
-28.1733,0,0,43.1733,43.1733,5,5,46.7297,1.48202,-23.3741,-0.239513,0.641351,-0.725005,1,0,203.333,-6.9125,6.3525,-0.254858,-0.074298,-1.41971,-0.06006,0.17164,0.50596
-28.3788,0,0,43.3788,43.3788,5,5,47.0709,1.45025,-23.3772,-0.238958,0.64543,-0.729343,1,0,194.898,-14.0175,11.27,-0.254858,-0.074298,-1.41971,-0.06006,0.17164,0.50596
-28.5927,0,0,43.5927,43.5927,5,5,47.4263,1.41988,-23.3738,-0.503875,-1.47023,0.849075,1,0,202.685,-10.5875,13.335,-0.521428,-2.19197,0.151036,-0.06006,0.17164,0.50596
-28.8041,0,0,43.8041,43.8041,5,5,47.7774,1.41535,-23.3604,-0.503796,-1.46609,0.844552,1,0,200.183,4.025,6.195,-0.521428,-2.19197,0.151036,-0.06006,0.17164,0.50596
-29.0152,0,0,44.0152,44.0152,5,5,48.128,1.40242,-23.3612,-0.415007,1.97673,0.350802,1,0,200.06,-5.39,4.27,-0.43249,1.24318,-0.334402,-0.06006,0.17164,0.50596
-29.2262,0,0,44.2262,44.2262,5,5,48.4785,1.38949,-23.3621,-0.414781,1.9808,0.346238,1,0,200.06,-5.39,4.27,-0.43249,1.24318,-0.334402,-0.06006,0.17164,0.50596
-29.4481,0,0,44.4481,44.4481,5,5,48.8471,1.34958,-23.3779,1.69867,1.92595,-3.30966,1,0,210.368,-22.3825,10.36,1.68921,1.18413,-3.95731,-0.06006,0.17164,0.50596
-29.67,0,0,44.67,44.67,5,5,49.2157,1.30976,-23.394,1.69937,1.93018,-3.3145,1,0,210.368,-22.3825,10.36,1.68921,1.18413,-3.95731,-0.06076,0.15498,0.51576
-29.9058,0,0,44.9058,44.9058,5,5,49.6074,1.29751,-23.3928,0.663065,-0.911777,-0.534907,1,0,223.108,-4.13,4.8475,0.648308,-1.65932,-1.19401,-0.06076,0.15498,0.51576
-30.1416,0,0,45.1416,45.1416,5,5,49.9991,1.28524,-23.3917,0.663279,-0.907362,-0.540125,1,0,223.108,-4.13,4.8475,0.648308,-1.65932,-1.19401,-0.06076,0.15498,0.51576
-30.3676,0,0,45.3676,45.3676,5,5,50.3747,1.26496,-23.3964,1.15808,1.14784,0.627775,1,0,214.113,-9.66,6.335,1.14485,0.389546,-0.030134,-0.06076,0.15498,0.51576
-30.5937,0,0,45.5937,45.5937,5,5,50.7502,1.24472,-23.4011,1.15843,1.15201,0.622719,1,0,214.113,-9.66,6.335,1.14485,0.389546,-0.030134,-0.06076,0.15498,0.51576
-30.8362,0,0,45.8362,45.8362,5,5,51.153,1.21249,-23.4013,-1.29611,1.82936,0.471205,1,0,229.355,-11.935,13.5275,-1.32065,1.06177,-0.17507,-0.06076,0.15498,0.51576
-31.0786,0,0,46.0786,46.0786,5,5,51.5558,1.18026,-23.4016,-1.29555,1.83376,0.465723,1,0,229.355,-11.935,13.5275,-1.32065,1.06177,-0.17507,-0.06076,0.15498,0.51576
-31.3132,0,0,46.3132,46.3132,5,5,51.9455,1.16387,-23.4061,-3.66047,1.17299,-2.24239,1,0,222.023,-7.9975,4.8475,-3.69587,0.397476,-2.857,-0.06076,0.15498,0.51576
-31.5478,0,0,46.5478,46.5478,5,5,52.3352,1.14752,-23.4108,-3.66018,1.17717,-2.24775,1,0,222.023,-7.9975,4.8475,-3.69587,0.397476,-2.857,-0.05586,0.13202,0.52444
-31.7953,0,0,46.7953,46.7953,5,5,52.7464,1.11145,-23.4343,-1.74955,-2.12687,0.308066,1,0,234.308,-23.765,7.3325,-1.77778,-2.9075,-0.315248,-0.05586,0.13202,0.52444
-32.0425,0,0,47.0425,47.0425,5,5,53.157,1.07491,-23.4475,-3.28097,-1.39931,2.79796,1,0,233.853,-19.04,11.3575,-3.31633,-2.18502,2.16111,-0.05586,0.13202,0.52444
-32.3106,0,0,47.3106,47.3106,5,5,53.6026,1.05288,-23.4416,-3.28059,-1.39466,2.79173,1,0,253.278,-4.9,11.34,-3.31633,-2.18502,2.16111,-0.05586,0.13202,0.52444
-32.5675,0,0,47.5675,47.5675,5,5,54.0293,1.05286,-23.4274,-3.35919,2.87928,0.198265,1,0,242.62,6.72,3.8675,-3.39526,2.0801,-0.406382,-0.05586,0.13202,0.52444
-32.8236,0,0,47.8236,47.8236,5,5,54.4548,1.03837,-23.4335,-3.35893,2.88363,0.192242,1,0,242.13,-7.8225,3.7625,-3.39526,2.0801,-0.406382,-0.05586,0.13202,0.52444
-33.0932,0,0,48.0932,48.0932,5,5,54.9027,1.02194,-23.4309,-1.23386,-1.13568,-0.220845,1,0,254.59,-4.305,7.665,-1.26148,-1.93956,-0.809958,-0.05586,0.13202,0.52444
-33.3566,0,0,48.3566,48.3566,5,5,55.3403,0.98683,-23.4371,-1.23325,-1.13131,-0.227104,1,0,248.92,-14.735,13.7025,-1.26148,-1.93956,-0.809958,-0.05586,0.13202,0.52444
-33.6274,0,0,48.6274,48.6274,5,5,55.7903,0.949793,-23.441,0.788796,-1.27793,0.236089,1,0,255.833,-14.0875,15.54,0.768478,-2.09047,-0.343918,-0.06398,0.10962,0.52976
-33.8769,0,0,48.8769,48.8769,5,5,56.2047,0.948432,-23.4269,-3.95678,1.3577,1.22782,1,0,235.708,6.405,4.2175,-3.99721,0.538386,0.646112,-0.06398,0.10962,0.52976
-34.144,0,0,49.144,49.144,5,5,56.6485,0.927321,-23.4414,-3.95641,1.36199,1.22137,1,0,252.455,-13.8775,4.5675,-3.99721,0.538386,0.646112,-0.06398,0.10962,0.52976
-34.4197,0,0,49.4197,49.4197,5,5,57.1065,0.903586,-23.4499,-0.189572,-0.62369,-1.17126,1,0,260.383,-11.7775,7.84,-0.214842,-1.4496,-1.72142,-0.06398,0.10962,0.52976
-34.6981,0,0,49.6981,49.6981,5,5,57.5691,0.862095,-23.4665,-0.188848,-0.619324,-1.17805,1,0,262.99,-21.2625,14.14,-0.214842,-1.4496,-1.72142,-0.06398,0.10962,0.52976
-34.9901,0,0,49.9901,49.9901,5,5,58.0544,0.820897,-23.475,3.03234,-1.72274,-1.86696,1,0,275.643,-17.045,16.6775,3.01926,-2.55639,-2.39791,-0.06398,0.10962,0.52976
-35.2623,0,0,50.2623,50.2623,5,5,58.5066,0.820609,-23.4684,3.03234,-1.71859,-1.87367,1,0,256.988,3.22,1.1375,3.01926,-2.55639,-2.39791,-0.06398,0.10962,0.52976
-35.5367,0,0,50.5367,50.5367,5,5,58.9625,0.807227,-23.4842,1.70789,1.96425,0.394815,1,0,259.245,-11.935,0.875,1.68897,1.1185,-0.140178,-0.06398,0.10962,0.52976
-35.8386,0,0,50.8386,50.8386,5,5,59.4641,0.778223,-23.4953,1.7084,1.96873,0.387297,1,0,284.848,-14.28,10.185,1.68897,1.1185,-0.140178,-0.0623,0.07462,0.53704
-36.1439,0,0,51.1439,51.1439,5,5,59.9715,0.745179,-23.5114,-3.95323,3.14843,-3.31679,1,0,288.085,-17.885,10.885,-3.99721,2.2925,-3.80811,-0.0623,0.07462,0.53704
-36.4528,0,0,51.4528,51.4528,5,5,60.4848,0.715937,-23.507,-3.95272,3.15288,-3.32456,1,0,291.27,-6.23,15.0675,-3.99721,2.2925,-3.80811,-0.0623,0.07462,0.53704
-36.7487,0,0,51.7487,51.7487,5,5,60.9764,0.709938,-23.4859,-0.0653143,3.94712,-0.175345,1,0,278.968,9.065,8.0325,-0.093452,3.08172,-0.675758,-0.0623,0.07462,0.53704
-37.0392,0,0,52.0392,52.0392,5,5,61.4591,0.690287,-23.5013,-0.0649714,3.95118,-0.182726,1,0,274.225,-13.405,4.7075,-0.093452,3.08172,-0.675758,-0.0623,0.07462,0.53704
-37.3462,0,0,52.3462,52.3462,5,5,61.9692,0.660404,-23.523,1.81348,-3.05138,1.60227,1,0,289.643,-19.495,8.3125,1.79242,-3.91779,1.10325,-0.0623,0.07462,0.53704
-37.66,0,0,52.66,52.66,5,5,62.4905,0.614177,-23.5513,1.81428,-3.04713,1.59423,1,0,295.978,-27.2475,15.155,1.79242,-3.91779,1.10325,-0.0623,0.07462,0.53704
-37.9765,0,0,52.9765,52.9765,5,5,63.0164,0.571257,-23.5679,-2.42045,-1.83692,1.60746,1,0,298.463,-20.1425,16.8,-2.46098,-2.71304,1.12447,-0.0623,0.07462,0.53704
-38.2929,0,0,53.2929,53.2929,5,5,63.5423,0.5695,-23.559,-2.42041,-1.83279,1.59927,1,0,298.27,4.2175,2.2225,-2.46098,-2.71304,1.12447,-0.06496,0.04522,0.53732
-38.5903,0,0,53.5903,53.5903,5,5,64.0363,0.556379,-23.5706,-0.963572,1.33202,1.71608,1,0,280.543,-9.4675,2.8525,-0.998204,0.44469,1.24806,-0.06496,0.04522,0.53732
-38.8877,0,0,53.8877,53.8877,5,5,64.5303,0.543358,-23.5823,-0.963345,1.33577,1.70831,1,0,280.543,-9.4675,2.8525,-0.998204,0.44469,1.24806,-0.06496,0.04522,0.53732
-39.2265,0,0,54.2265,54.2265,5,5,65.0935,0.495924,-23.5967,-0.281833,3.5546,-3.58663,1,0,319.323,-19.4075,20.4575,-0.314638,2.65704,-3.99721,-0.06496,0.04522,0.53732
-39.5654,0,0,54.5654,54.5654,5,5,65.6566,0.448634,-23.6115,-0.281007,3.5587,-3.59556,1,0,319.323,-19.4075,20.4575,-0.314638,2.65704,-3.99721,-0.06496,0.04522,0.53732
-39.8992,0,0,54.8992,54.8992,5,5,66.2112,0.445679,-23.5939,3.96023,4.19686,-2.50302,1,0,314.37,8.75,4.7425,3.9445,3.29058,-2.90433,-0.06496,0.04522,0.53732
-40.2329,0,0,55.2329,55.2329,5,5,66.7658,0.442554,-23.5763,3.96029,4.20072,-2.5119,1,0,314.37,8.75,4.7425,3.9445,3.29058,-2.90433,-0.06496,0.04522,0.53732
-40.5654,0,0,55.5654,55.5654,5,5,67.3182,0.410517,-23.5892,3.28223,-3.08184,2.85097,1,0,313.268,-14.2625,13.2475,3.26301,-3.98818,2.42597,-0.06496,0.04522,0.53732
-40.9083,0,0,55.9083,55.9083,5,5,67.888,0.369999,-23.6133,-3.75571,4.91563,2.00536,1,1,323.05,-22.085,15.47,-3.80542,3.99721,1.596,-0.05418,0.0112,0.54586
-41.2717,0,0,56.2717,56.2717,5,5,68.492,0.335624,-23.615,4.00686,0.999041,3.45374,1,1,342.143,-8.4,17.22,3.9894,0.080764,3.04292,-0.05418,0.0112,0.54586
-41.6276,0,0,56.6276,56.6276,5,5,69.0834,0.328686,-23.6164,4.00698,1.00278,3.44412,1,1,335.09,-2.17,2.4675,3.9894,0.080764,3.04292,-0.05418,0.0112,0.54586
-41.9636,0,0,56.9636,56.9636,5,5,69.6418,0.312978,-23.6274,1.14687,-0.524647,1.64106,1,1,316.575,-9.2575,5.285,1.11691,-1.44851,1.26282,-0.05418,0.0112,0.54586
-42.3109,0,0,57.3109,57.3109,5,5,70.2188,0.281198,-23.6477,0.905793,-3.07254,4.19065,1,1,327.093,-17.5525,12.32,0.874252,-3.99721,3.80213,-0.05418,0.0112,0.54586
-42.6566,0,0,57.6566,57.6566,5,5,70.7931,0.245118,-23.6674,-2.29254,2.90134,-0.534243,1,1,325.553,-17.92,14.98,-2.33825,1.96713,-0.876936,-0.05418,0.0112,0.54586
-42.99,0,0,57.99,57.99,5,5,71.3471,0.246109,-23.6354,4.0162,-2.24841,2.4975,1,1,314.02,17.9375,4.48,3.99721,-3.18042,2.14049,-0.05418,0.0112,0.54586
-43.3251,0,0,58.3251,58.3251,5,5,71.9038,0.259883,-23.6081,1.33792,1.43946,4.35943,1,1,315.56,17.78,-3.6225,1.30784,0.500566,3.99721,-0.05418,0.0112,0.54586
-43.6577,0,0,58.6577,58.6577,5,5,72.4563,0.232564,-23.6454,-0.081037,-0.969962,-3.70632,1,1,313.338,-25.6725,7.49,-0.117608,-1.9093,-3.99721,-0.0546,-0.04298,0.54992
-43.9906,0,0,58.9906,58.9906,5,5,73.0093,0.197985,-23.6861,2.5654,-2.347,-2.51138,1,1,313.635,-28.7875,11.1825,2.53943,-3.28778,-2.80234,-0.0546,-0.04298,0.54992
-44.3194,0,0,59.3194,59.3194,5,5,73.5554,0.149145,-23.7153,2.56626,-2.34426,-2.52051,1,1,309.733,-24.5875,21.3675,2.53943,-3.28778,-2.80234,-0.0546,-0.04298,0.54992
-44.6648,0,0,59.6648,59.6648,5,5,74.1293,0.109588,-23.7181,3.07245,-2.46592,-0.784627,1,1,325.308,-8.015,20.685,3.04707,-3.4121,-1.07031,-0.0546,-0.04298,0.54992
-44.9839,0,0,59.9839,59.9839,5,5,74.6593,0.116193,-23.7203,3.07233,-2.46343,-0.793535,1,1,300.615,-0.14,-5.075,3.04707,-3.4121,-1.07031,-0.0546,-0.04298,0.54992
-45.306,0,0,60.306,60.306,5,5,75.1942,0.116133,-23.7122,-0.0893312,-0.417212,-0.928449,1,1,303.415,4.5675,0.2275,-0.127978,-1.37043,-1.19523,-0.0546,-0.04298,0.54992
-45.6288,0,0,60.6288,60.6288,5,5,75.7302,0.0878364,-23.7344,-0.0888374,-0.414862,-0.937505,1,1,304.063,-16.7125,11.7075,-0.127978,-1.37043,-1.19523,-0.0546,-0.04298,0.54992
-45.9602,0,0,60.9602,60.9602,5,5,76.2807,0.053449,-23.7711,-2.56412,4.90022,0.66011,1,1,312.165,-25.7075,13.265,-2.61434,3.93682,0.399306,-0.0546,-0.04298,0.54992
-46.2783,0,0,61.2783,61.2783,5,5,76.809,0.0543024,-23.7406,-2.56413,4.90236,0.651142,1,1,299.688,17.5,2.625,-2.61434,3.93682,0.399306,-0.05404,-0.06468,0.54446
-46.5664,0,0,61.5664,61.5664,5,5,77.2871,0.0592871,-23.7526,-0.815674,-2.72747,4.26888,1,1,271.565,-6.1425,-5.425,-0.858392,-3.68696,3.99721,-0.05404,-0.06468,0.54446
-46.8505,0,0,61.8505,61.8505,5,5,77.7588,0.0642676,-23.7538,-0.815761,-2.72569,4.26085,1,1,267.943,-0.07,-4.025,-0.858392,-3.68696,3.99721,-0.05404,-0.06468,0.54446
-47.1367,0,0,62.1367,62.1367,5,5,78.2338,0.0668637,-23.7521,0.169686,-1.55167,-0.563647,1,1,269.815,1.365,-2.2925,0.131272,-2.51588,-0.78202,-0.05404,-0.06468,0.54446
-47.4183,0,0,62.4183,62.4183,5,5,78.7011,0.0619608,-23.746,0.169771,-1.55004,-0.571638,1,1,265.51,2.94,2.485,0.131272,-2.51588,-0.78202,-0.05404,-0.06468,0.54446
-47.6857,0,0,62.6857,62.6857,5,5,79.1448,0.0690272,-23.7138,0.868555,2.22712,-1.43668,1,1,252.228,19.3025,-1.47,0.833138,1.25587,-1.63285,-0.05404,-0.06468,0.54446
-47.9156,0,0,62.9156,62.9156,5,5,79.5261,0.0945016,-23.7254,0.868111,2.22835,-1.44322,1,1,217.298,-3.885,-16.8875,0.833138,1.25587,-1.63285,-0.05404,-0.06468,0.54446
-48.1448,0,0,63.1448,63.1448,5,5,79.906,0.119266,-23.7341,2.99708,4.97372,-2.0517,1,1,216.528,-2.3975,-16.1525,2.97155,3.99721,-2.23016,-0.05404,-0.06468,0.54446
-48.3814,0,0,63.3814,63.3814,5,5,80.2984,0.130378,-23.7535,2.99689,4.9749,-2.05845,1,1,223.528,-10.0625,-9.3625,2.97155,3.99721,-2.23016,-0.05404,-0.06468,0.54446
-48.6158,0,0,63.6158,63.6158,5,5,80.687,0.150546,-23.7552,-2.47287,2.52115,1.3639,1,1,221.375,1.0325,-12.7925,-2.52101,1.54489,1.17242,-0.05586,-0.0931,0.54208
-48.8218,0,0,63.8218,63.8218,5,5,81.0283,0.189256,-23.7123,0.7457,2.79444,0.304223,1,1,194.81,28.42,-19.355,0.71187,1.81695,0.126758,-0.05586,-0.0931,0.54208
-48.9751,0,0,63.9751,63.9751,5,5,81.2818,0.218921,-23.7322,0.745182,2.79511,0.299852,1,1,145.635,-8.8025,-19.915,0.71187,1.81695,0.126758,-0.05586,-0.0931,0.54208
-49.1271,0,0,64.1271,64.1271,5,5,81.533,0.247479,-23.7658,1.20827,2.96125,0.20982,1,1,144.463,-16.975,-20.44,1.17742,1.98226,0.041724,-0.05586,-0.0931,0.54208
-49.2873,0,0,64.2873,64.2873,5,5,81.7981,0.261013,-23.7914,1.20804,2.96192,0.205244,1,1,152.163,-13.6675,-11.0075,1.17742,1.98226,0.041724,-0.05586,-0.0931,0.54208
-49.4379,0,0,64.4379,64.4379,5,5,82.0471,0.273268,-23.7835,1.28521,0.467968,-0.983791,1,1,143.08,5.6525,-7.455,1.25514,-0.509716,-1.13387,-0.05586,-0.0931,0.54208
-49.5483,0,0,64.5483,64.5483,5,5,82.229,0.299785,-23.786,1.28475,0.4684,-0.986937,1,1,105.525,0.7,-16.555,1.25514,-0.509716,-1.13387,-0.05586,-0.0931,0.54208
-49.6371,0,0,64.6371,64.6371,5,5,82.3749,0.313291,-23.7945,0.647076,0.557037,-1.25687,1,1,85.3125,-3.85,-9.5025,0.615002,-0.42151,-1.39922,-0.05586,-0.0931,0.54208
-49.7295,0,0,64.7295,64.7295,5,5,82.5269,0.31473,-23.8193,0.64705,0.557386,-1.2595,1,1,88.8125,-14.28,-3.7625,0.615002,-0.42151,-1.39922,-0.05362,-0.11634,0.53662
-49.8214,0,0,64.8214,64.8214,5,5,82.678,0.310313,-23.8457,-1.4994,2.10336,0.23687,1,1,88.305,-15.645,-0.455,-1.54062,1.12252,0.088206,-0.05362,-0.11634,0.53662
-49.8999,0,0,64.8999,64.8999,5,5,82.8067,0.30587,-23.8384,-1.49933,2.10365,0.234641,1,1,75.67,3.9375,2.0825,-1.54062,1.12252,0.088206,-0.05362,-0.11634,0.53662
-49.9494,0,0,64.9494,64.9494,5,5,82.8871,0.298311,-23.8329,-1.40322,4.59545,-0.217234,1,1,48.5625,2.6425,3.745,-1.44424,3.61157,-0.358802,-0.05362,-0.11634,0.53662
-49.991,0,0,64.991,64.991,5,5,82.9544,0.276589,-23.8305,-1.40284,4.5956,-0.2184,1,1,41.2475,-0.14,11.725,-1.44424,3.61157,-0.358802,-0.05362,-0.11634,0.53662
-50.0385,0,0,65.0385,65.0385,5,5,83.0315,0.25421,-23.8398,-0.650697,4.25576,-0.0814177,1,1,46.7425,-7,11.27,-0.6893,3.27192,-0.221552,-0.05362,-0.11634,0.53662
-50.056,0,0,65.056,65.056,5,5,83.0585,0.228755,-23.8331,-0.650253,4.25582,-0.0818854,1,1,18.6375,2.135,14.1925,-0.6893,3.27192,-0.221552,-0.05362,-0.11634,0.53662
-50.0637,0,0,65.0637,65.0637,5,5,83.0692,0.199232,-23.8231,0.12607,0.223832,0.0288285,1,1,9.5025,3.78,16.7825,0.089792,-0.755912,-0.111508,-0.05362,-0.11634,0.53662
-50.0586,0,0,65.0586,65.0586,5,5,83.0587,0.170372,-23.8282,0.126574,0.223811,0.029011,1,1,-2.38,-4.9875,15.33,0.089792,-0.755912,-0.111508,-0.04746,-0.12208,0.53844
-50.0444,0,0,65.0444,65.0444,5,5,83.0329,0.139137,-23.8223,0.313843,4.75857,0.449205,1,1,-10.9725,1.2425,17.4825,0.277306,3.77419,0.305,-0.04746,-0.12208,0.53844
-50.0411,0,0,65.0411,65.0411,5,5,83.0255,0.108317,-23.8214,0.314381,4.75855,0.449334,1,1,-0.665,-1.645,16.8875,0.277306,3.77419,0.305,-0.04746,-0.12208,0.53844
-50.0287,0,0,65.0287,65.0287,5,5,83.0026,0.0797285,-23.8175,1.0342,4.98175,-0.840123,1,1,-9.2925,0.21,15.8025,0.999668,3.99721,-0.974902,-0.04746,-0.12208,0.53844
-49.9896,0,0,64.9896,64.9896,5,5,82.9355,0.0501838,-23.8193,1.03471,4.98161,-0.83896,1,1,-34.125,-3.0975,15.96,0.999668,3.99721,-0.974902,-0.04746,-0.12208,0.53844
-49.951,0,0,64.951,64.951,5,5,82.869,0.0260965,-23.8162,0.0131948,2.55896,-0.479168,1,1,-33.7575,0.07,13.1425,-0.026596,1.57722,-0.619028,-0.04746,-0.12208,0.53844
-49.8992,0,0,64.8992,64.8992,5,5,82.7806,0.00679627,-23.8044,0.0135317,2.55877,-0.477637,1,1,-46.06,5.4775,11.0075,-0.026596,1.57722,-0.619028,-0.04746,-0.12208,0.53844
-49.8474,0,0,64.8474,64.8474,5,5,82.6922,-0.00550351,-23.7999,0.888079,1.81934,-0.0454186,1,1,-46.0425,1.715,6.4225,0.851438,0.83875,-0.191662,-0.04746,-0.12208,0.53844
-49.7874,0,0,64.7874,64.7874,5,5,82.5901,-0.011264,-23.7963,0.888179,1.81911,-0.043651,1,1,-53.7425,1.6625,2.5725,0.851438,0.83875,-0.191662,-0.05124,-0.12614,0.53438
-49.7244,0,0,64.7244,64.7244,5,5,82.4831,-0.015322,-23.7983,-0.887506,1.7296,0.108936,1,1,-56.5075,-1.4175,1.1725,-0.931836,0.749568,-0.04209,-0.05124,-0.12614,0.53438
-49.6691,0,0,64.6691,64.6691,5,5,82.3888,-0.00961619,-23.7868,-0.887606,1.72938,0.110568,1,1,-49.35,7.1225,-3.4475,-0.931836,0.749568,-0.04209,-0.05124,-0.12614,0.53438
-49.6054,0,0,64.6054,64.6054,5,5,82.2807,-0.000910377,-23.7762,1.94383,3.32032,-0.11932,1,1,-57.1025,6.895,-5.2325,1.91174,2.33911,-0.27206,-0.05124,-0.12614,0.53438
-49.5348,0,0,64.5348,64.5348,5,5,82.1609,0.0170914,-23.7718,1.94352,3.32003,-0.11725,1,1,-63.6125,3.955,-11.095,1.91174,2.33911,-0.27206,-0.05124,-0.12614,0.53438
-49.453,0,0,64.453,64.453,5,5,82.0225,0.0416554,-23.7677,-1.36497,4.00984,0.226448,1,1,-74.095,4.41,-14.8925,-1.41032,3.02853,0.066612,-0.05124,-0.12614,0.53438
-49.3723,0,0,64.3723,64.3723,5,5,81.886,0.0617033,-23.7526,-1.36532,4.00951,0.228807,1,1,-73.0275,10.4475,-11.375,-1.41032,3.02853,0.066612,-0.05124,-0.12614,0.53438
-49.2914,0,0,64.2914,64.2914,5,5,81.749,0.0874516,-23.7411,0.235415,2.9927,-2.81377,1,1,-73.29,8.8375,-14.945,0.19764,2.01312,-2.95484,-0.05124,-0.12614,0.53438
-49.1984,0,0,64.1984,64.1984,5,5,81.5921,0.115072,-23.7349,0.234933,2.99231,-2.81106,1,1,-84.5075,5.9675,-16.45,0.19764,2.01312,-2.95484,-0.04746,-0.11732,0.53312
-49.0984,0,0,64.0984,64.0984,5,5,81.4234,0.143937,-23.7246,0.35883,1.40764,1.24645,1,1,-91.07,8.4875,-16.8,0.322568,0.430538,1.06848,-0.04746,-0.11732,0.53312
-48.9913,0,0,63.9913,63.9913,5,5,81.2428,0.173007,-23.7275,0.358323,1.40717,1.24956,1,1,-97.72,0.8575,-18.06,0.322568,0.430538,1.06848,-0.04746,-0.11732,0.53312
-48.8776,0,0,63.8776,63.8776,5,5,81.0513,0.191728,-23.7298,1.68316,-2.40493,0.442635,1,1,-103.845,0.42,-12.0225,1.65334,-3.37708,0.264496,-0.04746,-0.11732,0.53312
-48.7841,0,0,63.7841,63.7841,5,5,80.8935,0.224654,-23.7068,1.68259,-2.40536,0.445355,1,1,-85.015,16.3275,-17.9025,1.65334,-3.37708,0.264496,-0.04746,-0.11732,0.53312
-48.6821,0,0,63.6821,63.6821,5,5,80.7215,0.249721,-23.6815,-1.29073,3.54332,1.31511,1,1,-93.0125,17.01,-13.1075,-1.33212,2.5659,1.1246,-0.04746,-0.11732,0.53312
-48.5779,0,0,63.5779,63.5779,5,5,80.5457,0.266901,-23.6614,-1.29103,3.54282,1.31813,1,1,-95.095,13.265,-9.0125,-1.33212,2.5659,1.1246,-0.04746,-0.11732,0.53312
-48.4737,0,0,63.4737,63.4737,5,5,80.3701,0.291298,-23.6569,-2.8715,2.64223,-0.880484,1,1,-94.9375,5.005,-14.63,-2.91885,1.66676,-1.06006,-0.04746,-0.11732,0.53312
-48.3457,0,0,63.3457,63.3457,5,5,80.1547,0.303727,-23.6629,-2.87171,2.6416,-0.876778,1,1,-117.25,-2.205,-8.7675,-2.91885,1.66676,-1.06006,-0.04746,-0.11732,0.53312
-48.2198,0,0,63.2198,63.2198,5,5,79.9429,0.313211,-23.6519,-0.150963,0.726499,-0.535644,1,1,-115.255,7.315,-5.3725,-0.186416,-0.245708,-0.725168,-0.05544,-0.10346,0.5446
-48.0821,0,0,63.0821,63.0821,5,5,79.7114,0.328053,-23.6301,-2.86278,2.91955,0.130409,1,1,-126.333,14.175,-7.2975,-2.90946,1.94578,-0.068198,-0.05544,-0.10346,0.5446
-47.9301,0,0,62.9301,62.9301,5,5,79.4561,0.342719,-23.6213,-2.86304,2.91874,0.134791,1,1,-139.65,6.615,-8.5225,-2.90946,1.94578,-0.068198,-0.05544,-0.10346,0.5446
-47.7902,0,0,62.7902,62.7902,5,5,79.2209,0.350749,-23.6274,-1.33173,3.62778,-2.52387,1,1,-128.345,-2.5725,-6.2825,-1.37152,2.65484,-2.71035,-0.05544,-0.10346,0.5446
-47.6672,0,0,62.6672,62.6672,5,5,79.0139,0.351933,-23.629,-1.33175,3.6271,-2.52032,1,1,-112.525,-0.805,-1.89,-1.37152,2.65484,-2.71035,-0.05544,-0.10346,0.5446
-47.534,0,0,62.534,62.534,5,5,78.7901,0.364103,-23.6272,-1.68852,2.70881,0.238541,1,1,-122.01,2.4675,-7.7875,-1.72959,1.73826,0.023424,-0.05544,-0.10346,0.5446
-47.3854,0,0,62.3854,62.3854,5,5,78.5404,0.370134,-23.6194,-1.68863,2.70795,0.242813,1,1,-136.465,5.18,-3.5875,-1.72959,1.73826,0.023424,-0.05544,-0.10346,0.5446
-47.2291,0,0,62.2291,62.2291,5,5,78.2779,0.37901,-23.6275,-2.51853,3.80714,-1.75159,1,1,-143.675,-3.5875,-7.0525,-2.56285,2.83723,-1.96005,-0.05544,-0.10346,0.5446
-47.081,0,0,62.081,62.081,5,5,78.0292,0.381776,-23.6307,-2.51858,3.80625,-1.74735,1,1,-135.888,-1.4875,-2.9925,-2.56285,2.83723,-1.96005,-0.04774,-0.08834,0.54348
-46.9372,0,0,61.9372,61.9372,5,5,77.7875,0.386227,-23.6303,-1.67858,2.55528,-0.5864,1,1,-132.003,0.805,-3.5175,-1.71922,1.58844,-0.812154,-0.04774,-0.08834,0.54348
-46.7927,0,0,61.7927,61.7927,5,5,77.5448,0.392311,-23.6233,-1.67869,2.55437,-0.582263,1,1,-132.58,4.795,-3.6225,-1.71922,1.58844,-0.812154,-0.04774,-0.08834,0.54348
-46.6464,0,0,61.6464,61.6464,5,5,77.299,0.404321,-23.6132,-0.261282,0.194439,-1.36851,1,1,-134.365,7.35,-6.58,-0.295606,-0.768112,-1.59649,-0.04774,-0.08834,0.54348
-46.5,0,0,61.5,61.5,5,5,77.0531,0.416374,-23.6031,-0.261493,0.193485,-1.36433,1,1,-134.365,7.35,-6.58,-0.295606,-0.768112,-1.59649,-0.04774,-0.08834,0.54348
-46.3308,0,0,61.3308,61.3308,5,5,76.7692,0.420651,-23.6128,-0.8775,-0.224579,-2.3335,1,1,-155.628,-4.9525,-4.7425,-0.914146,-1.18462,-2.56298,-0.04774,-0.08834,0.54348
-46.1616,0,0,61.1616,61.1616,5,5,76.4853,0.424879,-23.6225,-0.877574,-0.225725,-2.32868,1,1,-155.628,-4.9525,-4.7425,-0.914146,-1.18462,-2.56298,-0.04774,-0.08834,0.54348
-46.0007,0,0,61.0007,61.0007,5,5,76.2152,0.436278,-23.6176,-0.424874,-1.04118,1.09116,1,1,-147.91,4.4275,-6.8075,-0.45933,-1.99812,0.82594,-0.04774,-0.08834,0.54348
-45.8399,0,0,60.8399,60.8399,5,5,75.9452,0.4477,-23.6127,-0.425073,-1.04232,1.09574,1,1,-147.91,4.4275,-6.8075,-0.45933,-1.99812,0.82594,-0.04956,-0.07448,0.55202
-45.6673,0,0,60.6673,60.6673,5,5,75.6557,0.445354,-23.614,-1.14107,-0.720162,0.379543,1,1,-158.76,-1.085,0.105,-1.1784,-1.67506,0.11041,-0.04956,-0.07448,0.55202
-45.4948,0,0,60.4948,60.4948,5,5,75.3663,0.443001,-23.6154,-1.14103,-0.721426,0.384434,1,1,-158.76,-1.085,0.105,-1.1784,-1.67506,0.11041,-0.04956,-0.07448,0.55202
-45.3387,0,0,60.3387,60.3387,5,5,75.1042,0.443269,-23.6098,-0.383326,2.92875,1.8844,1,1,-143.448,3.22,-0.35,-0.417484,1.9725,1.59442,-0.04956,-0.07448,0.55202
-45.1825,0,0,60.1825,60.1825,5,5,74.8421,0.443562,-23.6042,-0.383331,2.92757,1.88882,1,1,-143.448,3.22,-0.35,-0.417484,1.9725,1.59442,-0.04956,-0.07448,0.55202
-45.02,0,0,60.02,60.02,5,5,74.5694,0.44622,-23.5957,2.01791,2.63211,-3.74169,1,1,-149.45,5.2675,-1.2075,1.99397,1.6786,-3.99721,-0.04956,-0.07448,0.55202
-44.8512,0,0,59.8512,59.8512,5,5,74.2862,0.44561,-23.595,-1.46848,-1.00933,0.993763,1,1,-155.243,0.315,-0.5775,-1.50719,-1.95773,0.696986,-0.04956,-0.07448,0.55202
-44.6915,0,0,59.6915,59.6915,5,5,74.0181,0.436916,-23.6006,-1.46833,-1.0106,0.998264,1,1,-146.773,-4.5325,2.9575,-1.50719,-1.95773,0.696986,-0.04956,-0.07448,0.55202
-44.5467,0,0,59.5467,59.5467,5,5,73.7749,0.432207,-23.5925,1.80434,1.67379,-0.520743,1,1,-132.878,3.815,2.9225,1.77925,0.725046,-0.81435,-0.04802,-0.06272,0.54824
-44.4001,0,0,59.4001,59.4001,5,5,73.5287,0.435971,-23.5769,0.294205,2.70137,0.0632044,1,1,-134.575,9.3975,-0.5775,0.262788,1.75277,-0.238998,-0.04802,-0.06272,0.54824
-44.2385,0,0,59.2385,59.2385,5,5,73.2576,0.433415,-23.5647,0.29425,2.70002,0.0677398,1,1,-148.575,6.4925,2.45,0.262788,1.75277,-0.238998,-0.04802,-0.06272,0.54824
-44.0882,0,0,59.0882,59.0882,5,5,73.0054,0.42823,-23.5732,-0.74825,1.5372,-2.73054,1,1,-137.848,-5.6525,0.42,-0.784216,0.592432,-3.01987,-0.04802,-0.06272,0.54824
-43.9381,0,0,58.9381,58.9381,5,5,72.7533,0.425772,-23.5679,-0.748207,1.5359,-2.72633,1,1,-137.865,2.59,1.26,-0.784216,0.592432,-3.01987,-0.04802,-0.06272,0.54824
-43.8003,0,0,58.8003,58.8003,5,5,72.5219,0.42636,-23.5534,0.423512,-0.0244971,0.929586,1,1,-126.28,8.2425,1.1725,0.392474,-0.965142,0.604022,-0.04802,-0.06272,0.54824
-43.6546,0,0,58.6546,58.6546,5,5,72.2773,0.426011,-23.5424,0.423518,-0.0257878,0.933655,1,1,-133.665,6.09,1.1025,0.392474,-0.965142,0.604022,-0.04802,-0.06272,0.54824
-43.5048,0,0,58.5048,58.5048,5,5,72.0258,0.422207,-23.5385,1.29585,-2.36476,-0.651891,1,1,-137.498,1.5225,1.785,1.26843,-3.30034,-0.973438,-0.04802,-0.06272,0.54824
-43.3776,0,0,58.3776,58.3776,5,5,71.812,0.421649,-23.5508,1.29586,-2.36592,-0.648344,1,1,-116.305,-6.965,-2.9575,1.26843,-3.30034,-0.973438,-0.04858,-0.05096,0.54768
-43.2462,0,0,58.2462,58.2462,5,5,71.5912,0.421799,-23.5492,0.929458,2.11871,-0.0242874,1,1,-120.278,0.98,-0.805,0.900482,1.18084,-0.357826,-0.04858,-0.05096,0.54768
-43.1341,0,0,58.1341,58.1341,5,5,71.4025,0.423983,-23.5475,0.92942,2.11766,-0.0211645,1,1,-102.288,1.365,-1.925,0.900482,1.18084,-0.357826,-0.04858,-0.05096,0.54768
-43.0167,0,0,58.0167,58.0167,5,5,71.2052,0.418259,-23.537,-0.629141,2.00042,-0.381092,1,1,-107.17,4.76,4.095,-0.664778,1.06482,-0.718214,-0.04858,-0.05096,0.54768
-42.8986,0,0,57.8986,57.8986,5,5,71.0064,0.413115,-23.5372,-0.629052,1.9993,-0.37781,1,1,-107.905,-1.0325,1.785,-0.664778,1.06482,-0.718214,-0.04858,-0.05096,0.54768
-42.7945,0,0,57.7945,57.7945,5,5,70.8313,0.411383,-23.5467,0.886999,3.36966,-2.33509,1,1,-94.6575,-5.5825,-1.89,0.85766,2.43475,-2.66326,-0.04858,-0.05096,0.54768
-42.6901,0,0,57.6901,57.6901,5,5,70.6554,0.411216,-23.5403,0.887002,3.36865,-2.33219,1,1,-95.095,3.535,0.2975,0.85766,2.43475,-2.66326,-0.04858,-0.05096,0.54768
-42.5949,0,0,57.5949,57.5949,5,5,70.495,0.412179,-23.5355,0.85552,0.263252,-1.30047,1,1,-86.45,2.8525,-0.63,0.826062,-0.666486,-1.64212,-0.04858,-0.05096,0.54768
-42.4997,0,0,57.4997,57.4997,5,5,70.3346,0.413155,-23.5307,0.855503,0.262313,-1.29783,1,1,-86.45,2.8525,-0.63,0.826062,-0.666486,-1.64212,-0.0476,-0.03038,0.54684
-42.4013,0,0,57.4013,57.4013,5,5,70.1689,0.409764,-23.529,0.277047,-1.54528,-0.86221,1,1,-89.425,0.2975,1.1725,0.245098,-2.47123,-1.21256,-0.0476,-0.03038,0.54684
-42.3029,0,0,57.3029,57.3029,5,5,70.0031,0.406378,-23.5273,0.277106,-1.54627,-0.85949,1,1,-89.425,0.2975,1.1725,0.245098,-2.47123,-1.21256,-0.0476,-0.03038,0.54684
-42.1254,0,0,57.1254,57.1254,5,5,69.7055,1.28599,-23.5353,0.841607,0.661979,0.0707416,0,1,-68.775,-2.5025,-1.8375,0.827404,-0.263276,-0.294264,-0.0476,-0.03038,0.54684
-41.9489,0,0,56.9489,56.9489,5,5,69.4095,2.15973,-23.5458,0.826365,0.659746,0.0754186,0,1,-68.775,-2.5025,-1.8375,0.827404,-0.263276,-0.294264,-0.0476,-0.03038,0.54684
-41.8831,0,0,56.8831,56.8831,5,5,69.2982,2.15181,-23.5411,1.00569,0.604598,-2.33575,1,1,-59.01,0.98,4.27,1.00735,-0.317688,-2.68864,-0.0476,-0.03038,0.54684
-41.8173,0,0,56.8173,56.8173,5,5,69.1869,2.1439,-23.5364,1.00583,0.603914,-2.33393,1,1,-59.01,0.98,4.27,1.00735,-0.317688,-2.68864,-0.0476,-0.03038,0.54684
-41.7723,0,0,56.7723,56.7723,5,5,69.11,2.14564,-23.5297,-0.888282,0.741195,-1.08635,1,1,-39.7075,4.025,-0.595,-0.894748,-0.180072,-1.45192,-0.0476,-0.03038,0.54684
-41.7239,0,0,56.7239,56.7239,5,5,69.0278,2.14521,-23.5218,0.549995,1.48932,0.750118,1,1,-42.7875,4.27,0.8575,0.54961,0.567788,0.36905,-0.05152,-0.02408,0.54418
-41.6904,0,0,56.6904,56.6904,5,5,68.9701,2.13936,-23.5195,0.550097,1.48896,0.751058,1,1,-28.8575,0.07,2.6425,0.54961,0.567788,0.36905,-0.05152,-0.02408,0.54418
-41.6568,0,0,56.6568,56.6568,5,5,68.9124,2.13479,-23.5141,-0.9051,1.84595,1.37916,1,1,-28.98,1.995,2.59,-0.911828,0.92476,0.991372,-0.05152,-0.02408,0.54418
-41.6231,0,0,56.6231,56.6231,5,5,68.8546,2.13022,-23.5087,-0.905021,1.84559,1.3801,1,1,-28.98,1.995,2.59,-0.911828,0.92476,0.991372,-0.05152,-0.02408,0.54418
-41.603,0,0,56.603,56.603,5,5,68.8194,2.12702,-23.5084,1.63287,3.08862,0.501593,1,1,-16.2575,-0.5075,0.77,1.63675,2.16672,0.119072,-0.05152,-0.02408,0.54418
-41.5914,0,0,56.5914,56.5914,5,5,68.7982,2.1229,-23.5085,-1.51317,0.830851,-0.802546,1,1,-8.3475,-0.8575,1.2075,-1.52268,-0.088572,-1.17535,-0.05152,-0.02408,0.54418
-41.5759,0,0,56.5759,56.5759,5,5,68.7708,2.12093,-23.5049,-1.51314,0.830679,-0.802099,1,1,-11.9525,1.575,0.805,-1.52268,-0.088572,-1.17535,-0.05152,-0.02408,0.54418
-41.5696,0,0,56.5696,56.5696,5,5,68.7585,2.11912,-23.4991,0.44743,-0.489465,-0.48457,1,1,-3.465,2.7825,1.1725,0.446154,-1.40727,-0.860466,-0.05152,-0.02408,0.54418
-41.5699,0,0,56.5699,56.5699,5,5,68.7573,2.12004,-23.4894,0.447414,-0.489473,-0.484551,1,1,2.6425,5.5125,0.525,0.446154,-1.40727,-0.860466,-0.04606,-0.02058,0.54446
-41.57,0,0,56.57,56.57,5,5,68.7557,2.11919,-23.4908,-0.215883,1.39591,-1.01701,1,1,2.625,-0.91,-0.8575,-0.219966,0.476166,-1.38885,-0.04606,-0.02058,0.54446
-41.5817,0,0,56.5817,56.5817,5,5,68.7735,2.11488,-23.4957,-0.215808,1.39602,-1.0173,1,1,13.5975,-3.605,0.2625,-0.219966,0.476166,-1.38885,-0.04606,-0.02058,0.54446
-41.5974,0,0,56.5974,56.5974,5,5,68.7979,2.11007,-23.4978,0.0843457,2.08412,-1.03602,1,1,17.2025,-2.1175,1.155,0.081374,1.16339,-1.40703,-0.04606,-0.02058,0.54446
-41.6183,0,0,56.6183,56.6183,5,5,68.8311,2.10803,-23.4923,0.0843814,2.08433,-1.03656,1,1,22.015,2.59,1.2425,0.081374,1.16339,-1.40703,-0.04606,-0.02058,0.54446
-41.6476,0,0,56.6476,56.6476,5,5,68.8782,2.1077,-23.4924,-0.433992,1.06426,-0.298648,1,1,29.9425,-0.07,-0.8575,-0.4392,0.144082,-0.67405,-0.04606,-0.02058,0.54446
-41.677,0,0,56.677,56.677,5,5,68.9254,2.10737,-23.4924,-0.433987,1.06456,-0.299416,1,1,29.9425,-0.07,-0.8575,-0.4392,0.144082,-0.67405,-0.04606,-0.02058,0.54446
-41.7108,0,0,56.7108,56.7108,5,5,68.9801,2.10515,-23.4935,1.00311,0.592025,-0.724724,1,1,34.2125,-1.05,-0.0525,1.00394,-0.328302,-1.09519,-0.04606,-0.02058,0.54446
-41.7447,0,0,56.7447,56.7447,5,5,69.0348,2.10293,-23.4946,1.00315,0.592368,-0.725615,1,1,34.2125,-1.05,-0.0525,1.00394,-0.328302,-1.09519,-0.0476,-0.02128,0.55244
-41.7869,0,0,56.7869,56.7869,5,5,69.1034,2.10115,-23.4935,-0.095905,0.947941,-0.157357,1,1,41.9475,0.2625,0.175,-0.099796,0.026474,-0.530212,-0.0476,-0.02128,0.55244
-41.8291,0,0,56.8291,56.8291,5,5,69.172,2.09937,-23.4924,-0.0958739,0.948369,-0.158475,1,1,41.9475,0.2625,0.175,-0.099796,0.026474,-0.530212,-0.0476,-0.02128,0.55244
-41.8746,0,0,56.8746,56.8746,5,5,69.2461,2.09286,-23.4939,-0.519867,1.0287,-1.03643,1,1,45.0975,-2.135,2.2225,-0.525698,0.106262,-1.40019,-0.0476,-0.02128,0.55244
-41.9201,0,0,56.9201,56.9201,5,5,69.3203,2.08634,-23.4953,-0.519753,1.02916,-1.03764,1,1,45.0975,-2.135,2.2225,-0.525698,0.106262,-1.40019,-0.0476,-0.02128,0.55244
-41.9785,0,0,56.9785,56.9785,5,5,69.4158,2.08003,-23.5006,0.123745,0.368804,-0.232159,1,1,57.155,-4.1475,1.3475,0.120414,-0.554002,-0.599386,-0.0476,-0.02128,0.55244
-42.0368,0,0,57.0368,57.0368,5,5,69.5112,2.07372,-23.5058,0.123855,0.369392,-0.233717,1,1,57.155,-4.1475,1.3475,0.120414,-0.554002,-0.599386,-0.0476,-0.02128,0.55244
-42.1034,0,0,57.1034,57.1034,5,5,69.6206,2.06729,-23.5088,0.744516,1.1932,-0.422385,1,1,64.8725,-2.905,1.89,0.74359,0.268278,-0.784826,-0.0476,-0.02128,0.55244
-42.1701,0,0,57.1701,57.1701,5,5,69.7299,2.06086,-23.5117,0.744628,1.19386,-0.424172,1,1,64.8725,-2.905,1.89,0.74359,0.268278,-0.784826,-0.04886,-0.02898,0.54754
-42.2412,0,0,57.2412,57.2412,5,5,69.8467,2.05605,-23.5133,0.0510289,2.19198,-0.463459,1,1,69.02,-1.8375,1.2775,0.04697,1.26465,-0.821914,-0.04886,-0.02898,0.54754
-42.3123,0,0,57.3123,57.3123,5,5,69.9635,2.05125,-23.515,0.0511127,2.19268,-0.465371,1,1,69.02,-1.8375,1.2775,0.04697,1.26465,-0.821914,-0.04886,-0.02898,0.54754
-42.3935,0,0,57.3935,57.3935,5,5,70.0971,2.04833,-23.5104,0.826364,1.10325,-0.340923,1,1,78.3125,1.96,1.4875,0.825452,0.175558,-0.696254,-0.04886,-0.02898,0.54754
-42.4747,0,0,57.4747,57.4747,5,5,70.2307,2.0454,-23.5058,0.826415,1.10405,-0.343114,1,1,78.3125,1.96,1.4875,0.825452,0.175558,-0.696254,-0.04886,-0.02898,0.54754
-42.5558,0,0,57.5558,57.5558,5,5,70.364,2.04125,-23.504,0.0329428,1.02924,-0.0214569,1,1,78.2425,0.21,1.61,0.028548,0.10004,-0.374906,-0.04886,-0.02898,0.54754
-42.6369,0,0,57.6369,57.6369,5,5,70.4974,2.0371,-23.5022,0.0330153,1.03002,-0.0236478,1,1,78.2425,0.21,1.61,0.028548,0.10004,-0.374906,-0.04886,-0.02898,0.54754
-42.7213,0,0,57.7213,57.7213,5,5,70.6363,2.03483,-23.5063,0.133766,0.918224,-0.843294,1,1,81.48,-2.6775,-0.5775,0.129686,-0.012444,-1.18596,-0.04886,-0.02898,0.54754
-42.8057,0,0,57.8057,57.8057,5,5,70.7753,2.03258,-23.5104,0.133806,0.919026,-0.845581,1,1,81.48,-2.6775,-0.5775,0.129686,-0.012444,-1.18596,-0.04746,-0.03192,0.54614
-42.8957,0,0,57.8957,57.8957,5,5,70.9234,2.0284,-23.5141,0.0358396,0.770881,-0.923142,1,1,86.6425,-2.8525,0.56,0.031232,-0.161284,-1.2605,-0.04746,-0.03192,0.54614
-42.9856,0,0,57.9856,57.9856,5,5,71.0716,2.02423,-23.5179,0.0359124,0.771725,-0.925585,1,1,86.6425,-2.8525,0.56,0.031232,-0.161284,-1.2605,-0.04746,-0.03192,0.54614
-43.0868,0,0,58.0868,58.0868,5,5,71.2383,2.02711,-23.5109,-0.073718,-0.0266565,-0.875102,1,1,96.88,4.41,-1.3125,-0.078812,-0.959774,-1.20768,-0.04746,-0.03192,0.54614
-43.1879,0,0,58.1879,58.1879,5,5,71.4051,2.02997,-23.504,-0.0737679,-0.0257266,-0.877858,1,1,96.88,4.41,-1.3125,-0.078812,-0.959774,-1.20768,-0.04746,-0.03192,0.54614
-43.2825,0,0,58.2825,58.2825,5,5,71.5609,2.02607,-23.5113,0.476387,1.40671,-0.763265,1,1,91.0175,-4.7775,-0.2275,0.473604,0.47031,-1.09141,-0.04746,-0.03192,0.54614
-43.3771,0,0,58.3771,58.3771,5,5,71.7168,2.02218,-23.5187,0.476455,1.40757,-0.765844,1,1,91.0175,-4.7775,-0.2275,0.473604,0.47031,-1.09141,-0.04746,-0.03192,0.54614
-42.9575,0,0,57.9575,57.9575,5,5,71.0158,1.70777,-23.552,-0.327155,0.920696,-0.584654,0,1,92.1725,-3.675,1.015,-0.338916,-0.012322,-0.923174,-0.04746,-0.03192,0.54614
-42.5405,0,0,57.5405,57.5405,5,5,70.319,1.3947,-23.5804,-0.321693,0.916811,-0.573134,0,1,92.1725,-3.675,1.015,-0.338916,-0.012322,-0.923174,-0.04312,-0.04494,0.54418
-42.6467,0,0,57.6467,57.6467,5,5,70.4941,1.39453,-23.5755,0.797072,1.5507,-0.600848,1,1,101.64,2.6775,0.0175,0.784582,0.619882,-0.947818,-0.04312,-0.04494,0.54418
-42.7528,0,0,57.7528,57.7528,5,5,70.6693,1.39435,-23.5707,0.797075,1.55171,-0.60373,1,1,101.64,2.6775,0.0175,0.784582,0.619882,-0.947818,-0.04312,-0.04494,0.54418
-42.8569,0,0,57.8569,57.8569,5,5,70.841,1.3824,-23.5822,-0.283939,1.67923,-1.18921,1,1,99.96,-8.645,3.3425,-0.301218,0.746274,-1.52598,-0.04312,-0.04494,0.54418
-42.961,0,0,57.961,57.961,5,5,71.0128,1.37049,-23.5937,-0.283731,1.68021,-1.19204,1,1,99.96,-8.645,3.3425,-0.301218,0.746274,-1.52598,-0.04312,-0.04494,0.54418
-42.7274,0,0,57.7274,57.7274,5,5,70.6216,2.05072,-23.6021,0.619675,1.46782,-0.0802819,0,1,106.295,4.2,0.7,0.61793,0.536678,-0.429074,-0.04312,-0.04494,0.54418
-42.4921,0,0,57.4921,57.4921,5,5,70.2277,2.73496,-23.6174,0.607743,1.46505,-0.0739772,0,1,106.295,4.2,0.7,0.61793,0.536678,-0.429074,-0.04312,-0.04494,0.54418
-42.5902,0,0,57.5902,57.5902,5,5,70.3895,2.72474,-23.6202,0.305422,1.59546,-0.653012,1,1,94.29,-3.57,4.025,0.31415,0.665998,-1.00101,-0.04312,-0.04494,0.54418
-42.6883,0,0,57.6883,57.6883,5,5,70.5512,2.71453,-23.6231,0.3056,1.59641,-0.655668,1,1,94.29,-3.57,4.025,0.31415,0.665998,-1.00101,-0.04312,-0.04494,0.54418
-42.795,0,0,57.795,57.795,5,5,70.7273,2.70449,-23.627,-0.503806,1.57802,-0.999497,1,1,102.323,-4.0775,3.745,-0.498858,0.6466,-1.33932,-0.04788,-0.05292,0.553
-42.3561,0,0,57.3561,57.3561,5,5,69.9941,2.43072,-23.6617,-0.325915,1.23356,-0.587925,0,1,108.343,2.8875,3.1325,-0.325008,0.306586,-0.942938,-0.04788,-0.05292,0.553
-41.9165,0,0,56.9165,56.9165,5,5,69.2596,2.15662,-23.6997,-0.321135,1.22928,-0.575851,0,1,107.468,-1.3825,1.5925,-0.325008,0.306586,-0.942938,-0.04788,-0.05292,0.553
-42.0233,0,0,57.0233,57.0233,5,5,69.4358,2.15199,-23.6993,-0.499638,1.61971,-1.27793,1,1,102.288,-0.735,1.575,-0.504348,0.695522,-1.63675,-0.04788,-0.05292,0.553
-42.133,0,0,57.133,57.133,5,5,69.617,2.14773,-23.6997,-0.499564,1.62081,-1.28089,1,1,105.105,-1.05,1.225,-0.504348,0.695522,-1.63675,-0.04788,-0.05292,0.553
-42.2462,0,0,57.2462,57.2462,5,5,69.8039,2.14601,-23.6985,0.513049,1.74774,-0.568636,1,1,108.255,0.3325,0.1575,0.512522,0.821182,-0.926956,-0.04788,-0.05292,0.553
-42.3534,0,0,57.3534,57.3534,5,5,69.9808,2.14833,-23.6961,0.513009,1.7488,-0.571534,1,1,102.655,1.8025,-1.82,0.512522,0.821182,-0.926956,-0.04788,-0.05292,0.553
-42.4611,0,0,57.4611,57.4611,5,5,70.1585,2.14822,-23.7019,0.0842879,1.01086,-0.170807,1,1,103.233,-3.185,-2.1175,0.081984,0.08296,-0.52643,-0.04788,-0.05292,0.553
-42.5667,0,0,57.5667,57.5667,5,5,70.3328,2.14355,-23.7124,0.0843693,1.01189,-0.173667,1,1,101.448,-6.6675,-0.525,0.081984,0.08296,-0.52643,-0.04998,-0.07182,0.55678
-42.6704,0,0,57.6704,57.6704,5,5,70.5038,2.14042,-23.72,-0.735605,1.55636,-0.446226,1,1,99.575,-4.8125,-0.805,-0.741516,0.62586,-0.794098,-0.04998,-0.07182,0.55678
-42.78,0,0,57.78,57.78,5,5,70.6848,2.14357,-23.7148,-0.735659,1.55741,-0.449204,1,1,104.86,3.5175,-1.75,-0.741516,0.62586,-0.794098,-0.04998,-0.07182,0.55678
-42.8885,0,0,57.8885,57.8885,5,5,70.8638,2.14892,-23.7153,1.89939,2.8719,-0.535881,1,1,103.88,0.77,-4.0775,1.90479,1.93797,-0.87718,-0.04998,-0.07182,0.55678
-42.9816,0,0,57.9816,57.9816,5,5,71.0171,2.14938,-23.7287,1.89939,2.87278,-0.538409,1,1,89.7575,-7.2625,-3.815,1.90479,1.93797,-0.87718,-0.04998,-0.07182,0.55678
-43.0765,0,0,58.0765,58.0765,5,5,71.1736,2.14626,-23.7443,0.585329,2.04112,0.303298,1,1,91.5425,-9.2225,-2.2575,0.585112,1.1063,-0.039406,-0.04998,-0.07182,0.55678
-43.1761,0,0,58.1761,58.1761,5,5,71.3378,2.15082,-23.7516,0.585249,2.04204,0.300585,1,1,95.7075,-3.1675,-4.9175,0.585112,1.1063,-0.039406,-0.04998,-0.07182,0.55678
-43.2706,0,0,58.2706,58.2706,5,5,71.4935,2.16122,-23.7518,1.66143,3.1225,0.0904712,1,1,90.8425,1.8375,-6.825,1.66603,2.18478,-0.245342,-0.04998,-0.07182,0.55678
-43.3576,0,0,58.3576,58.3576,5,5,71.6367,2.16957,-23.766,1.66129,3.12329,0.0881008,1,1,84.07,-6.3,-8.26,1.66603,2.18478,-0.245342,-0.05082,-0.07448,0.54236
-43.4447,0,0,58.4447,58.4447,5,5,71.78,2.17365,-23.7843,0.166212,1.81536,-0.536025,1,1,84.28,-9.38,-6.6325,0.1647,0.877424,-0.862296,-0.05082,-0.07448,0.54236
-43.5221,0,0,58.5221,58.5221,5,5,71.9074,2.17391,-23.7977,0.166207,1.81605,-0.538135,1,1,75.1975,-7.3675,-3.605,0.1647,0.877424,-0.862296,-0.05082,-0.07448,0.54236
-43.2297,0,0,58.2297,58.2297,5,5,71.4181,2.51804,-23.8285,0.277197,1.76807,-0.072008,0,1,77.3675,-2.94,-2.975,0.282186,0.832406,-0.407724,-0.05082,-0.07448,0.54236
-42.9298,0,0,57.9298,57.9298,5,5,70.9166,2.87043,-23.8606,0.271053,1.76497,-0.0638259,0,1,73.605,-0.455,-5.075,0.282186,0.832406,-0.407724,-0.05082,-0.07448,0.54236
-43.0048,0,0,58.0048,58.0048,5,5,71.0398,2.87548,-23.8739,-0.0141618,0.990284,-0.920718,1,1,72.94,-6.37,-6.335,-0.004148,0.057828,-1.25599,-0.05082,-0.07448,0.54236
-43.0739,0,0,58.0739,58.0739,5,5,71.1531,2.87736,-23.8845,-0.0141946,0.990923,-0.922588,1,1,67.3575,-5.5125,-4.0775,-0.004148,0.057828,-1.25599,-0.05082,-0.07448,0.54236
-43.1416,0,0,58.1416,58.1416,5,5,71.2643,2.87861,-23.89,-0.831572,0.726165,-0.509841,1,1,66.01,-2.7825,-2.7475,-0.824964,-0.207278,-0.844606,-0.05082,-0.07448,0.54236
-43.214,0,0,58.214,58.214,5,5,71.3832,2.88439,-23.8827,-0.831673,0.726823,-0.511804,1,1,69.9125,5.18,-2.8525,-0.824964,-0.207278,-0.844606,-0.04858,-0.08582,0.55524
-43.2751,0,0,58.2751,58.2751,5,5,71.4831,2.88782,-23.8806,0.468407,2.31417,-0.407476,1,1,59.5,1.82,-2.5375,0.48068,1.37787,-0.739442,-0.04858,-0.08582,0.55524
-43.3251,0,0,58.3251,58.3251,5,5,71.5648,2.88659,-23.8919,0.468429,2.31462,-0.408826,1,1,49.63,-6.51,-2.45,0.48068,1.37787,-0.739442,-0.04858,-0.08582,0.55524
-43.3731,0,0,58.3731,58.3731,5,5,71.6429,2.88475,-23.9016,-0.674841,1.97114,-1.00236,1,1,47.5475,-5.6875,-1.785,-0.667462,1.03432,-1.32712,-0.04858,-0.08582,0.55524
-43.4194,0,0,58.4194,58.4194,5,5,71.7184,2.88512,-23.8933,-0.674848,1.97156,-1.00361,1,1,45.605,4.7425,0.2975,-0.667462,1.03432,-1.32712,-0.04858,-0.08582,0.55524
-43.0175,0,0,58.0175,58.0175,5,5,71.0466,2.93181,-23.9157,-0.0365252,1.72365,-0.187582,0,1,45.85,8.9775,0.6475,-0.02562,0.790438,-0.528382,-0.04858,-0.08582,0.55524
-42.6053,0,0,57.6053,57.6053,5,5,70.358,2.97405,-23.9538,-0.0372615,1.71964,-0.176266,0,1,40.6175,0.0525,0.4025,-0.02562,0.790438,-0.528382,-0.04858,-0.08582,0.55524
-42.6412,0,0,57.6412,57.6412,5,5,70.416,2.96273,-23.9581,-0.700376,1.80548,-0.779171,1,1,36.1725,-4.5675,4.3575,-0.69174,0.875838,-1.12569,-0.04858,-0.08582,0.55524
-42.6755,0,0,57.6755,57.6755,5,5,70.4714,2.9579,-23.9617,-0.700292,1.80581,-0.78008,1,1,34.685,-2.9575,0.91,-0.69174,0.875838,-1.12569,-0.04648,-0.08848,0.54978
-42.7083,0,0,57.7083,57.7083,5,5,70.5243,2.9581,-23.9588,-0.223707,1.56308,0.141903,1,1,33.075,1.6625,-0.5775,-0.213134,0.633058,-0.209962,-0.04648,-0.08848,0.54978
-42.7277,0,0,57.7277,57.7277,5,5,70.5549,2.96191,-23.9501,-0.223773,1.56326,0.141398,1,1,20.4225,5.6175,-1.4175,-0.213134,0.633058,-0.209962,-0.04648,-0.08848,0.54978
-42.7401,0,0,57.7401,57.7401,5,5,70.5738,2.9614,-23.947,0.592741,1.92535,-0.500334,1,1,14.0175,1.5925,-0.1575,0.606828,0.994666,-0.846436,-0.04648,-0.08848,0.54978
-42.7445,0,0,57.7445,57.7445,5,5,70.5794,2.95919,-23.9466,0.592779,1.92539,-0.500426,1,1,6.65,-0.14,0.28,0.606828,0.994666,-0.846436,-0.04648,-0.08848,0.54978
-42.7444,0,0,57.7444,57.7444,5,5,70.5775,2.95651,-23.9452,-0.0821485,1.2477,-0.342159,1,1,2.38,0.2275,0.7,-0.071004,0.317688,-0.689422,-0.04648,-0.08848,0.54978
-42.7443,0,0,57.7443,57.7443,5,5,70.5756,2.95384,-23.9439,-0.0821019,1.24769,-0.342126,1,1,2.38,0.2275,0.7,-0.071004,0.317688,-0.689422,-0.04648,-0.08848,0.54978
-42.7391,0,0,57.7391,57.7391,5,5,70.565,2.95152,-23.9463,-0.715245,1.73259,-0.0944566,1,1,-2.3275,-1.7325,-0.21,-0.706868,0.80215,-0.443836,-0.04648,-0.08848,0.54978
-42.7338,0,0,57.7338,57.7338,5,5,70.5545,2.9492,-23.9487,-0.715204,1.73254,-0.0942828,1,1,-2.3275,-1.7325,-0.21,-0.706868,0.80215,-0.443836,-0.04648,-0.08848,0.54978
-42.7218,0,0,57.7218,57.7218,5,5,70.5327,2.95145,-23.9473,0.221168,2.09427,-0.237407,1,1,-8.7325,1.225,-1.995,0.233508,1.16364,-0.58621,-0.04172,-0.08988,0.54068
-42.706,0,0,57.706,57.706,5,5,70.5046,2.95546,-23.9446,0.474396,2.0196,0.0099344,1,1,-12.32,2.2925,-2.7125,0.487878,1.08922,-0.341234,-0.04172,-0.08988,0.54068
-42.6902,0,0,57.6902,57.6902,5,5,70.4765,2.95947,-23.9419,0.474326,2.01944,0.0103948,1,1,-12.32,2.2925,-2.7125,0.487878,1.08922,-0.341234,-0.04172,-0.08988,0.54068
-42.6612,0,0,57.6612,57.6612,5,5,70.4264,2.96114,-23.9401,0.284536,1.13788,-0.192754,1,1,-24.64,1.3475,-1.5925,0.297314,0.208864,-0.543632,-0.04172,-0.08988,0.54068
-42.6322,0,0,57.6322,57.6322,5,5,70.3763,2.96281,-23.9383,0.284507,1.13758,-0.191932,1,1,-24.64,1.3475,-1.5925,0.297314,0.208864,-0.543632,-0.04172,-0.08988,0.54068
-42.5963,0,0,57.5963,57.5963,5,5,70.3147,2.96926,-23.9338,-0.144693,1.18094,-0.855828,1,1,-31.15,3.7625,-3.6925,-0.13359,0.25254,-1.20341,-0.04172,-0.08988,0.54068
-42.5604,0,0,57.5604,57.5604,5,5,70.2531,2.97571,-23.9293,-0.144805,1.18057,-0.85482,1,1,-31.15,3.7625,-3.6925,-0.13359,0.25254,-1.20341,-0.04172,-0.08988,0.54068
-42.5195,0,0,57.5195,57.5195,5,5,70.1832,2.97354,-23.9329,-0.951432,1.52138,-0.676135,1,1,-35.5775,-2.38,-0.5425,-0.94367,0.593408,-1.02724,-0.04718,-0.09002,0.53662
-42.4786,0,0,57.4786,57.4786,5,5,70.1133,2.97582,-23.928,0.180289,2.34874,-0.589048,1,1,-35.84,3.1675,-1.3125,0.192882,1.42032,-0.941962,-0.04718,-0.09002,0.53662
-42.4377,0,0,57.4377,57.4377,5,5,70.0433,2.97811,-23.9231,0.180249,2.34832,-0.587903,1,1,-35.84,3.1675,-1.3125,0.192882,1.42032,-0.941962,-0.04718,-0.09002,0.53662
-42.3988,0,0,57.3988,57.3988,5,5,69.9769,2.9829,-23.9215,0.846393,2.25205,-0.883122,1,1,-33.7925,1.89,-3.325,0.86193,1.32455,-1.23598,-0.04718,-0.09002,0.53662
-42.3487,0,0,57.3487,57.3487,5,5,69.8915,2.98401,-23.9227,-1.14016,1.10245,-0.418946,1,1,-44.31,-0.4375,-1.89,-1.13301,0.176656,-0.776774,-0.04718,-0.09002,0.53662
-42.3007,0,0,57.3007,57.3007,5,5,69.8098,2.98595,-23.9155,-1.14019,1.10196,-0.41761,1,1,-42.5075,4.41,-0.63,-1.13301,0.176656,-0.776774,-0.04718,-0.09002,0.53662
-42.2518,0,0,57.2518,57.2518,5,5,69.7266,2.98962,-23.9062,0.403703,1.54282,-0.766654,1,1,-43.4,5.845,-1.1725,0.417484,0.617564,-1.12447,-0.04718,-0.09002,0.53662
-42.2004,0,0,57.2004,57.2004,5,5,69.6392,2.99462,-23.8967,0.403616,1.54229,-0.765226,1,1,-45.815,6.265,-1.8375,0.417484,0.617564,-1.12447,-0.04718,-0.09002,0.53662
-42.1503,0,0,57.1503,57.1503,5,5,69.554,2.99573,-23.8936,0.447088,1.07341,-0.737892,1,1,-44.345,1.925,-1.015,0.46116,0.149694,-1.09873,-0.04662,-0.08036,0.54138
-42.0997,0,0,57.0997,57.0997,5,5,69.4679,2.99131,-23.893,-0.140096,1.48544,-1.10828,1,1,-44.765,-0.525,1.5225,-0.128588,0.56181,-1.46766,-0.04662,-0.08036,0.54138
-42.0596,0,0,57.0596,57.0596,5,5,69.3994,2.99303,-23.8824,-0.140126,1.48501,-1.10716,1,1,-35.2275,6.195,0.21,-0.128588,0.56181,-1.46766,-0.04662,-0.08036,0.54138
-41.477,0,0,56.477,56.477,5,5,68.4266,3.26639,-23.9213,0.238762,1.36204,-0.552804,0,1,-32.3575,7.0525,-1.715,0.256688,0.4453,-0.933178,-0.04662,-0.08036,0.54138
-40.8813,0,0,55.8813,55.8813,5,5,67.4321,3.5373,-23.9742,0.234042,1.35527,-0.536851,0,1,-43.61,1.575,-2.695,0.256688,0.4453,-0.933178,-0.04662,-0.08036,0.54138
-40.832,0,0,55.832,55.832,5,5,67.3483,3.53705,-23.9773,-1.62529,0.477107,-0.0439557,1,1,-43.3475,-1.715,-1.5925,-1.61052,-0.431392,-0.445422,-0.04662,-0.08036,0.54138
-40.7901,0,0,55.7901,55.7901,5,5,67.2766,3.53973,-23.9731,-1.62534,0.476623,-0.0428052,1,1,-36.8025,2.87,-1.54,-1.61052,-0.431392,-0.445422,-0.04662,-0.08036,0.54138
-40.7439,0,0,55.7439,55.7439,5,5,67.1981,3.54445,-23.9638,0.7444,1.34197,-0.253632,1,1,-40.845,6.1425,-1.4525,0.769332,0.433588,-0.655872,-0.04662,-0.08036,0.54138
-40.7012,0,0,55.7012,55.7012,5,5,67.1252,3.54968,-23.9596,0.744309,1.34147,-0.252463,1,1,-37.52,3.4825,-2.8875,0.769332,0.433588,-0.655872,-0.0483,-0.07238,0.53914
-40.6538,0,0,55.6538,55.6538,5,5,67.0445,3.55157,-23.96,0.218121,1.96523,-0.296661,1,1,-41.685,0.21,-2.1525,0.24095,1.05725,-0.701012,-0.0483,-0.07238,0.53914
-40.6026,0,0,55.6026,55.6026,5,5,66.9575,3.54961,-23.9672,0.218156,1.96464,-0.295264,1,1,-45.0625,-4.305,-1.61,0.24095,1.05725,-0.701012,-0.0483,-0.07238,0.53914
-40.1639,0,0,55.1639,55.1639,5,5,66.2247,2.98281,-24.0044,-0.575353,0.78999,-0.337666,0,1,-39.5675,-0.035,-1.12,-0.565836,-0.11163,-0.754936,-0.0483,-0.07238,0.53914
-39.7336,0,0,54.7336,54.7336,5,5,65.5059,2.42662,-24.0271,-0.565656,0.785285,-0.326044,0,1,-35.14,5.81,-3.0625,-0.565836,-0.11163,-0.754936,-0.0483,-0.07238,0.53914
-39.1589,0,0,54.1589,54.1589,5,5,64.5464,2.69206,-24.062,0.239175,1.11999,-0.524773,0,1,-34.8425,4.655,-4.025,0.24705,0.22997,-0.967094,-0.0483,-0.07238,0.53914
-38.5781,0,0,53.5781,53.5781,5,5,63.5769,2.95009,-24.1145,0.234677,1.1124,-0.509672,0,1,-41.825,-3.9375,-4.41,0.24705,0.22997,-0.967094,-0.0483,-0.07238,0.53914
-38.5311,0,0,53.5311,53.5311,5,5,63.497,2.95124,-24.1234,0.10005,1.22767,-0.276913,1,1,-41.0375,-4.375,-3.955,0.111874,0.345748,-0.737368,-0.0483,-0.07238,0.53914
-38.4903,0,0,53.4903,53.4903,5,5,63.4273,2.95648,-24.1181,0.0999591,1.22713,-0.275829,1,1,-35.6825,4.2175,-2.3625,0.111874,0.345748,-0.737368,-0.04928,-0.06944,0.55062
-38.4517,0,0,53.4517,53.4517,5,5,63.3614,2.96337,-24.1128,0.260808,0.84435,-0.339476,1,1,-33.6,4.5675,-3.255,0.273524,-0.036112,-0.80154,-0.04928,-0.06944,0.55062
-38.4097,0,0,53.4097,53.4097,5,5,63.2899,2.9677,-24.1135,0.260732,0.843787,-0.338363,1,1,-36.575,0.805,-3.465,0.273524,-0.036112,-0.80154,-0.04928,-0.06944,0.55062
-38.364,0,0,53.364,53.364,5,5,63.2121,2.96893,-24.1172,-0.777263,1.46101,-0.636532,1,1,-40.005,-1.5925,-2.6425,-0.768844,0.581086,-1.09861,-0.04928,-0.06944,0.55062
-38.325,0,0,53.325,53.325,5,5,63.1455,2.96946,-24.116,-0.777272,1.46049,-0.635497,1,1,-33.845,0.805,-0.98,-0.768844,0.581086,-1.09861,-0.04928,-0.06944,0.55062
-37.8208,0,0,52.8208,52.8208,5,5,62.3035,3.50858,-24.1545,0.486139,1.27902,-0.229634,0,1,-31.0975,3.9725,-1.1725,0.50935,0.406992,-0.708576,-0.04928,-0.06944,0.55062
-37.3194,0,0,52.3194,52.3194,5,5,61.4664,4.04786,-24.2038,0.476747,1.2716,-0.217068,0,1,-27.79,2.45,-2.52,0.50935,0.406992,-0.708576,-0.04928,-0.06944,0.55062
-36.7208,0,0,51.7208,51.7208,5,5,60.4672,3.98779,-24.2712,-0.144335,1.42944,-0.395097,0,1,-27.755,0.175,-3.0275,-0.115412,0.573034,-0.90036,-0.04928,-0.06944,0.55062
-36.1217,0,0,51.1217,51.1217,5,5,59.4672,3.92649,-24.3378,-0.143268,1.42079,-0.379987,0,1,-27.755,0.175,-3.0275,-0.115412,0.573034,-0.90036,-0.04172,-0.06622,0.546
-36.0859,0,0,51.0859,51.0859,5,5,59.4061,3.92927,-24.3335,0.0123068,1.5646,-0.911932,1,1,-30.905,3.01,-1.155,0.04087,0.717238,-1.42911,-0.04172,-0.06622,0.546
-36.0502,0,0,51.0502,51.0502,5,5,59.3451,3.93206,-24.3293,0.0122584,1.56405,-0.911018,1,1,-30.905,3.01,-1.155,0.04087,0.717238,-1.42911,-0.04172,-0.06622,0.546
-36.02,0,0,51.02,51.02,5,5,59.2933,3.93543,-24.3252,0.106837,0.913876,-0.7316,1,1,-25.6725,3.0625,-1.5225,0.135908,0.068198,-1.25184,-0.04172,-0.06622,0.546
-35.9898,0,0,50.9898,50.9898,5,5,59.2415,3.93881,-24.3212,0.106778,0.913412,-0.730828,1,1,-25.6725,3.0625,-1.5225,0.135908,0.068198,-1.25184,-0.04172,-0.06622,0.546
-35.9556,0,0,50.9556,50.9556,5,5,59.1829,3.93282,-24.3266,-0.574774,1.09694,0.00417765,1,1,-29.12,-4.48,0.3675,-0.548634,0.252052,-0.52338,-0.04172,-0.06622,0.546
-35.9213,0,0,50.9213,50.9213,5,5,59.1244,3.92683,-24.332,-0.574669,1.09642,0.0050569,1,1,-29.12,-4.48,0.3675,-0.548634,0.252052,-0.52338,-0.04172,-0.06622,0.546
-35.9033,0,0,50.9033,50.9033,5,5,59.0928,3.93073,-24.3256,0.265701,1.81412,-0.0630798,1,1,-14.4025,4.375,-1.085,0.295362,0.96929,-0.591456,-0.04172,-0.06622,0.546
-35.8853,0,0,50.8853,50.8853,5,5,59.0613,3.93463,-24.3193,0.265633,1.81384,-0.0626115,1,1,-14.4025,4.375,-1.085,0.295362,0.96929,-0.591456,-0.04172,-0.06622,0.546
-35.8655,0,0,50.8655,50.8655,5,5,59.0269,3.93144,-24.3258,0.617268,1.43176,-0.394302,1,1,-15.5575,-4.2,-1.3825,0.64843,0.587918,-0.9211,-0.0448,-0.06272,0.53886
-35.8438,0,0,50.8438,50.8438,5,5,58.9892,3.92988,-24.3287,0.0148475,1.49591,-0.828853,1,1,-17.5,-1.9075,-1.12,0.043432,0.652334,-1.35286,-0.0448,-0.06272,0.53886
-35.822,0,0,50.822,50.822,5,5,58.9515,3.92831,-24.3316,0.0148748,1.49557,-0.82829,1,1,-17.5,-1.9075,-1.12,0.043432,0.652334,-1.35286,-0.0448,-0.06272,0.53886
-35.8081,0,0,50.8081,50.8081,5,5,58.9268,3.92457,-24.3363,0.318168,1.20188,-0.613374,1,1,-10.185,-3.4475,-0.56,0.347944,0.359168,-1.13997,-0.0448,-0.06272,0.53886
-35.7941,0,0,50.7941,50.7941,5,5,58.902,3.92082,-24.341,0.318233,1.20166,-0.613002,1,1,-10.185,-3.4475,-0.56,0.347944,0.359168,-1.13997,-0.0448,-0.06272,0.53886
-35.7796,0,0,50.7796,50.7796,5,5,58.8764,3.91735,-24.3439,-0.250988,0.686796,-0.0380803,1,1,-10.7275,-2.4675,-0.1575,-0.223748,-0.15494,-0.569862,-0.0448,-0.06272,0.53886
-35.7652,0,0,50.7652,50.7652,5,5,58.8509,3.91387,-24.3467,-0.250927,0.686569,-0.0376968,1,1,-10.7275,-2.4675,-0.1575,-0.223748,-0.15494,-0.569862,-0.0448,-0.06272,0.53886
-35.2887,0,0,50.2887,50.2887,5,5,58.0552,4.3096,-24.4017,0.325679,1.61854,0.00298644,0,1,0.105,0.945,-0.6825,0.362218,0.783728,-0.540948,-0.0448,-0.06272,0.53886
-34.809,0,0,49.809,49.809,5,5,57.2543,4.70675,-24.4626,0.318769,1.61063,0.0144681,0,1,0.105,0.945,-0.6825,0.362218,0.783728,-0.540948,-0.04354,-0.0609,0.55076
-34.8071,0,0,49.8071,49.8071,5,5,57.2497,4.70634,-24.4659,0.491407,1.27474,-0.637952,1,1,1.085,-1.7325,-1.8725,0.53558,0.448228,-1.1884,-0.04354,-0.0609,0.55076
-34.806,0,0,49.806,49.806,5,5,57.2465,4.70852,-24.4657,-0.109256,1.10043,-0.623399,1,1,1.715,0.7875,-2.0475,-0.067588,0.274134,-1.17401,-0.04354,-0.0609,0.55076
-34.8087,0,0,49.8087,49.8087,5,5,57.2495,4.71068,-24.463,-0.109293,1.10045,-0.623445,1,1,5.075,2.0825,-1.2075,-0.067588,0.274134,-1.17401,-0.04354,-0.0609,0.55076
-34.4625,0,0,49.4625,49.4625,5,5,56.6711,4.76941,-24.5107,0.0309731,0.545817,-0.30117,0,1,7.105,0.42,-0.9975,0.074298,-0.274378,-0.86254,-0.04354,-0.0609,0.55076
-34.1187,0,0,49.1187,49.1187,5,5,56.0968,4.82367,-24.5609,0.0300294,0.54022,-0.292895,0,1,5.32,-1.8725,-0.245,0.074298,-0.274378,-0.86254,-0.04354,-0.0609,0.55076
-33.6291,0,0,48.6291,48.6291,5,5,55.2794,4.83816,-24.6303,-0.0279283,0.890265,-0.368828,0,1,5.4775,-0.8575,0,0.016348,0.083326,-0.949526,-0.04354,-0.0609,0.55076
-33.15,0,0,48.15,48.15,5,5,54.4796,4.85391,-24.698,-0.0282022,0.882244,-0.357464,0,1,11.4625,0.5775,-0.665,0.016348,0.083326,-0.949526,-0.04354,-0.0609,0.55076
-32.6343,0,0,47.6343,47.6343,5,5,53.6186,4.51677,-24.7669,-0.421661,1.33975,-0.104448,0,1,13.685,1.995,-0.77,-0.384666,0.548756,-0.710772,-0.04228,-0.05866,0.54866
-32.6486,0,0,47.6486,47.6486,5,5,53.6412,4.51729,-24.7664,0.618855,1.3831,-0.829792,1,1,16.1525,0.4375,-1.1025,0.660264,0.591822,-1.43021,-0.04228,-0.05866,0.54866
-32.6627,0,0,47.6627,47.6627,5,5,53.6633,4.51707,-24.7675,0.618859,1.38333,-0.830102,1,1,15.96,-0.5775,-1.3125,0.660264,0.591822,-1.43021,-0.04228,-0.05866,0.54866
-32.6772,0,0,47.6772,47.6772,5,5,53.6861,4.51871,-24.7653,-0.19233,0.942926,-0.290925,1,1,16.2225,1.61,-1.05,-0.15433,0.151646,-0.89487,-0.04228,-0.05866,0.54866
-32.6925,0,0,47.6925,47.6925,5,5,53.7103,4.51992,-24.7626,-0.192351,0.943174,-0.291266,1,1,16.9575,1.715,-0.665,-0.15433,0.151646,-0.89487,-0.04228,-0.05866,0.54866
-32.7087,0,0,47.7087,47.7087,5,5,53.7359,4.5191,-24.7614,-0.202541,1.00719,-0.126873,1,1,17.78,0.3325,-0.21,-0.164578,0.21533,-0.73139,-0.04228,-0.05866,0.54866
-32.7247,0,0,47.7247,47.7247,5,5,53.7614,4.51617,-24.7611,-0.20249,1.00745,-0.127228,1,1,17.78,-0.875,0.4375,-0.164578,0.21533,-0.73139,-0.04228,-0.05866,0.54866
-32.7415,0,0,47.7415,47.7415,5,5,53.7879,4.51411,-24.7595,0.225053,0.977808,-0.526075,1,1,18.34,0.07,0.49,0.26474,0.18544,-1.12679,-0.04228,-0.05866,0.54866
-32.7617,0,0,47.7617,47.7617,5,5,53.8202,4.51248,-24.7585,0.225082,0.978141,-0.526526,1,1,21.5425,-0.0875,0.07,0.26474,0.18544,-1.12679,-0.0448,-0.05642,0.5481
-32.2265,0,0,47.2265,47.2265,5,5,52.927,4.63561,-24.8318,0.0657371,1.31472,-0.285842,0,1,23.625,0,-0.1575,0.106872,0.531066,-0.900238,-0.0448,-0.05642,0.5481
-31.6923,0,0,46.6923,46.6923,5,5,52.0352,4.75735,-24.9068,0.0636196,1.30513,-0.273645,0,1,23.625,0,-0.1575,0.106872,0.531066,-0.900238,-0.0448,-0.05642,0.5481
-31.717,0,0,46.717,46.717,5,5,52.0752,4.75624,-24.9072,0.545816,1.28346,-0.573449,1,1,25.935,-0.56,-0.665,0.59109,0.508984,-1.19719,-0.0448,-0.05642,0.5481
-31.7418,0,0,46.7418,46.7418,5,5,52.1152,4.75514,-24.9076,0.545835,1.28389,-0.573996,1,1,25.935,-0.56,-0.665,0.59109,0.508984,-1.19719,-0.0448,-0.05642,0.5481
-31.7647,0,0,46.7647,46.7647,5,5,52.1521,4.75725,-24.9046,-0.0701344,0.713212,-0.0729982,1,1,24.0625,2.1875,-0.91,-0.02745,-0.061488,-0.699548,-0.0448,-0.05642,0.5481
-31.7876,0,0,46.7876,46.7876,5,5,52.189,4.75935,-24.9015,-0.070171,0.713604,-0.0735071,1,1,24.0625,2.1875,-0.91,-0.02745,-0.061488,-0.699548,-0.0448,-0.05642,0.5481
-31.8083,0,0,46.8083,46.8083,5,5,52.2221,4.75605,-24.9024,-0.419263,0.968106,0.248903,1,1,22.12,-1.5575,0.1925,-0.378078,0.192394,-0.379176,-0.0448,-0.05642,0.5481
