pid_x,pid_y,pid_z,front_left_speed,front_right_speed,back_left_speed,back_right_speed,orientation_x,orientation_y,orientation_z,acceleration_x,acceleration_y,acceleration_z,accel_rejected,mag_rejected,gyro_x,gyro_y,gyro_z,accel_x,accel_y,accel_z,mag_x,mag_y,mag_z
3.20278,0,0,11.7972,11.7972,18.2028,18.2028,-0.428942,-0.0674031,0.293455,0.0650003,0.364078,0.0819169,0,0,3.6925,0.175,-0.6475,0.02379,0.383324,-0.931348,-0.06482,-0.09016,0.48538
3.47525,0,0,11.5248,11.5248,18.4752,18.4752,-0.848416,-0.133435,0.591939,0.0651809,0.357612,0.0742104,0,0,3.605,-0.245,-0.63,0.022814,0.384178,-0.938912,-0.06482,-0.09016,0.48538
3.75843,0,0,11.2416,11.2416,18.7584,18.7584,-1.26087,-0.196166,0.893444,0.0662757,0.350415,0.0740748,0,0,3.4825,-0.0875,-0.6825,0.022814,0.384178,-0.938912,-0.06482,-0.09016,0.48538
4.03753,0,0,10.9625,10.9625,19.0375,19.0375,-1.66651,-0.249191,1.19145,0.0725465,0.342117,0.0793001,0,0,3.6925,0.07,-0.735,0.028182,0.382958,-0.933544,-0.06482,-0.09016,0.48538
4.30993,0,0,10.6901,10.6901,19.3099,19.3099,-2.06516,-0.29945,1.4924,0.0734237,0.335163,0.0790694,0,0,3.6925,0.07,-0.735,0.028182,0.382958,-0.933544,-0.06482,-0.09016,0.48538
4.58658,0,0,10.4134,10.4134,19.5866,19.5866,-2.45815,-0.350596,1.80021,0.0723726,0.329653,0.0789166,0,0,3.71,0.07,-0.665,0.02623,0.3843,-0.933422,-0.0637,-0.09198,0.48636
4.83189,0,0,10.1681,10.1681,19.8319,19.8319,-2.84188,-0.401544,2.11461,0.0702246,0.321131,0.076511,0,0,3.57,0.1575,-0.6125,0.02318,0.38247,-0.935496,-0.0637,-0.09198,0.48636
5.08933,0,0,9.91067,9.91067,20.0893,20.0893,-3.21897,-0.449593,2.4316,0.0709417,0.313582,0.0789846,0,0,3.605,0.245,-0.665,0.023058,0.381494,-0.93269,-0.0637,-0.09198,0.48636
5.36259,0,0,9.63741,9.63741,20.3626,20.3626,-3.59225,-0.495267,2.75055,0.0723463,0.308301,0.0822795,0,0,3.57,0.0875,-0.5075,0.023668,0.382714,-0.92903,-0.0637,-0.09198,0.48636
5.61296,0,0,9.38704,9.38704,20.613,20.613,-3.95906,-0.538216,3.07214,0.0730959,0.301913,0.0818512,0,0,3.535,0.1575,-0.56,0.023668,0.382714,-0.92903,-0.0637,-0.09198,0.48636
5.82403,0,0,9.17597,9.17597,20.824,20.824,-4.31482,-0.577031,3.39634,0.0743807,0.294378,0.0741428,0,0,3.605,0.0525,-0.5775,0.024278,0.381372,-0.936228,-0.0637,-0.09198,0.48636
6.06236,0,0,8.93764,8.93764,21.0624,21.0624,-4.66438,-0.6134,3.72319,0.0750155,0.288296,0.0736587,0,0,3.605,0.0525,-0.5775,0.024278,0.381372,-0.936228,-0.0637,-0.09198,0.48636
6.30556,0,0,8.69444,8.69444,21.3056,21.3056,-5.00905,-0.646423,4.0506,0.0772926,0.284379,0.0715468,0,0,3.64,-0.105,-0.665,0.025986,0.383446,-0.937814,-0.0637,-0.09198,0.48636
6.54024,0,0,8.45976,8.45976,21.5402,21.5402,-5.3482,-0.677205,4.3797,0.0780728,0.279584,0.0707605,0,0,3.85,-0.0175,-0.6475,0.02623,0.384544,-0.938058,-0.06062,-0.09072,0.4837
6.77254,0,0,8.22746,8.22746,21.7725,21.7725,-5.68212,-0.700782,4.70624,0.0822503,0.269876,0.0806461,0,0,3.5175,0.0175,-0.665,0.030012,0.38064,-0.927688,-0.06062,-0.09072,0.4837
6.99862,0,0,8.00138,8.00138,21.9986,21.9986,-6.01053,-0.731514,5.04427,0.0752545,0.26906,0.0691132,0,0,3.64,0.035,-0.665,0.022448,0.38552,-0.938546,-0.06062,-0.09072,0.4837
7.21544,0,0,7.78456,7.78456,22.2154,22.2154,-6.33278,-0.760137,5.38473,0.075754,0.26347,0.0685022,0,0,3.8325,-0.035,-0.7,0.022448,0.38552,-0.938546,-0.06062,-0.09072,0.4837
7.40303,0,0,7.59697,7.59697,22.403,22.403,-6.64561,-0.782983,5.7256,0.0778535,0.253771,0.0697241,0,0,3.7625,0.105,-0.595,0.024156,0.38125,-0.936716,-0.06062,-0.09072,0.4837
7.61212,0,0,7.38788,7.38788,22.6121,22.6121,-6.95292,-0.803782,6.06886,0.0782165,0.248447,0.0690841,0,0,3.7625,0.105,-0.595,0.024156,0.38125,-0.936716,-0.06062,-0.09072,0.4837
7.82896,0,0,7.17104,7.17104,22.829,22.829,-7.25632,-0.822975,6.41402,0.07843,0.243193,0.0713753,0,0,3.5175,0.105,-0.735,0.024034,0.38125,-0.933788,-0.06062,-0.09072,0.4837
8.04275,0,0,6.95725,6.95725,23.0428,23.0428,-7.55583,-0.839373,6.76256,0.0811459,0.242407,0.0643041,0,0,3.7275,0.1575,-0.7,0.026474,0.385642,-0.940132,-0.06258,-0.09282,0.48286
8.22432,0,0,6.77568,6.77568,23.2243,23.2243,-7.84756,-0.860611,7.12068,0.0744703,0.234065,0.0648459,0,0,3.4475,-0.14,-0.7175,0.019398,0.382348,-0.938912,-0.06258,-0.09282,0.48286
8.41964,0,0,6.58036,6.58036,23.4196,23.4196,-8.13417,-0.869197,7.4703,0.084339,0.227402,0.0693122,0,0,3.5175,-0.035,-0.595,0.029158,0.38064,-0.933788,-0.06258,-0.09282,0.48286
8.6093,0,0,6.3907,6.3907,23.6093,23.6093,-8.41546,-0.875764,7.82199,0.0844536,0.222545,0.068604,0,0,3.6225,0.14,-0.6125,0.029158,0.38064,-0.933788,-0.06258,-0.09282,0.48286
8.80532,0,0,6.19468,6.19468,23.8053,23.8053,-8.69284,-0.881987,8.17632,0.0840763,0.219957,0.0650545,0,0,3.5875,0.0525,-0.77,0.02867,0.382836,-0.936594,-0.06258,-0.09282,0.48286
8.9892,0,0,6.0108,6.0108,23.9892,23.9892,-8.96511,-0.88639,8.53285,0.0841531,0.215262,0.064324,0,0,3.6575,0.14,-0.7,0.02867,0.382836,-0.936594,-0.06258,-0.09282,0.48286
9.16541,0,0,5.83459,5.83459,24.1654,24.1654,-9.2318,-0.892384,8.89488,0.0809776,0.210056,0.0633406,0,0,3.5875,0.0875,-0.6825,0.025376,0.382226,-0.936838,-0.06258,-0.09282,0.48286
9.3476,0,0,5.6524,5.6524,24.3476,24.3476,-9.49429,-0.898293,9.26482,0.0810807,0.205536,0.0625937,0,0,3.3425,-0.0525,-0.6125,0.025376,0.382226,-0.936838,-0.06146,-0.09618,0.4809
9.55399,0,0,5.44601,5.44601,24.554,24.554,-9.75627,-0.905456,9.63865,0.0797479,0.204204,0.0637945,0,0,3.3775,-0.035,-0.6125,0.023912,0.385398,-0.934886,-0.06146,-0.09618,0.4809
9.72871,0,0,5.27129,5.27129,24.7287,24.7287,-10.0136,-0.91097,10.0146,0.0798441,0.199781,0.0630222,0,0,3.3775,-0.035,-0.6125,0.023912,0.385398,-0.934886,-0.06146,-0.09618,0.4809
9.87488,0,0,5.12512,5.12512,24.8749,24.8749,-10.2629,-0.913569,10.3925,0.0798895,0.193911,0.0595509,0,0,3.57,0.21,-0.5075,0.023912,0.383812,-0.93757,-0.06146,-0.09618,0.4809
10.041,0,0,5,5,25.041,25.041,-10.5077,-0.914646,10.7725,0.0799083,0.189709,0.0587805,0,0,3.57,0.21,-0.5075,0.023912,0.383812,-0.93757,-0.06146,-0.09618,0.4809
10.173,0,0,5,5,25.173,25.173,-10.7439,-0.992857,11.237,0.00315782,0.151344,0.137792,0,0,3.675,0.1225,-0.5425,-0.054534,0.34953,-0.858392,-0.06146,-0.09618,0.4809
10.3307,0,0,5,5,25.3307,25.3307,-10.9759,-1.06823,11.7041,0.00447303,0.147372,0.137005,0,0,3.675,0.1225,-0.5425,-0.054534,0.34953,-0.858392,-0.06146,-0.09618,0.4809
9.84146,0,0,5.15854,5.15854,24.8415,24.8415,-11.1175,-1.04846,12.094,0.0663288,0.106476,0.039163,0,0,3.8325,0.1575,-0.98,0.00793,0.3111,-0.955016,-0.06146,-0.09618,0.4809
10.7398,0,0,5,5,25.7398,25.7398,-11.3643,-0.987651,12.4048,0.136094,0.175647,0.0934231,0,0,3.9025,0.2625,-1.19,0.079056,0.384422,-0.90036,-0.06062,-0.08708,0.49014
10.9087,0,0,5,5,25.9087,25.9087,-11.6071,-0.92658,12.7174,0.135028,0.17149,0.0925966,0,0,3.5,0.1925,-0.9975,0.079056,0.384422,-0.90036,-0.06062,-0.08708,0.49014
10.4954,0,0,5,5,25.4954,25.4954,-11.7686,-0.90954,13.0947,0.0523634,0.0207115,0.332641,0,0,3.7275,-0.14,-0.6825,-0.00366,0.236558,-0.661606,-0.06062,-0.08708,0.49014
9.41662,0,0,5.58338,5.58338,24.4166,24.4166,-11.7683,-0.909851,13.0947,0.0523688,0.0207168,0.332642,1,0,3.7275,-0.14,-0.6825,-0.00366,0.236558,-0.661606,-0.06062,-0.08708,0.49014
11.7979,0,0,5,5,26.7979,26.7979,-12.087,-0.64468,13.1583,0.363482,0.215185,0.155737,0,0,2.9575,1.2425,-0.385,0.313418,0.436272,-0.836066,-0.06062,-0.08708,0.49014
11.9339,0,0,5,5,26.9339,26.9339,-12.3896,-0.997683,13.8839,-0.547574,0.685725,-0.746312,0,0,4.1125,0.7875,-0.0175,-0.607682,0.911462,-1.72996,-0.06062,-0.08708,0.49014
9.91475,0,0,5.08525,5.08525,24.9147,24.9147,-12.3894,-0.995753,13.8846,-0.547608,0.685729,-0.746311,1,0,3.675,1.05,0.0175,-0.607682,0.911462,-1.72996,-0.06062,-0.08708,0.49014
9.98507,0,0,5.01493,5.01493,24.9851,24.9851,-12.3986,-0.833658,14.1338,0.176412,0.0115446,-0.0452489,0,0,3.22,-0.315,0.21,0.122244,0.238144,-1.03432,-0.06062,-0.08708,0.49014
10.009,0,0,5,5,25.009,25.009,-12.41,-0.677333,14.3809,0.173684,0.0113425,-0.0452565,0,0,2.0825,-1.26,-0.28,0.122244,0.238144,-1.03432,-0.056,-0.08736,0.49882
4.82934,0,0,10.1707,10.1707,19.8293,19.8293,-11.7265,-0.260561,14.3435,0.189736,-0.552832,0.166062,0,0,2.1,0.0525,-0.35,0.145668,-0.337086,-0.82716,-0.056,-0.08736,0.49882
4.34597,0,0,10.654,10.654,19.346,19.346,-11.0514,0.144494,14.3144,0.182666,-0.541283,0.168396,0,0,4.1125,-0.665,0.315,0.145668,-0.337086,-0.82716,-0.056,-0.08736,0.49882
9.81403,0,0,5.18597,5.18597,24.814,24.814,-11.181,0.475351,14.3239,0.52835,0.191829,-0.281201,0,0,4.1475,0.595,-0.525,0.498614,0.397476,-1.27283,-0.056,-0.08736,0.49882
8.93033,0,0,6.06967,6.06967,23.9303,23.9303,-11.1783,0.475467,14.3248,0.528348,0.191875,-0.281192,1,0,5.0575,0,-0.105,0.498614,0.397476,-1.27283,-0.056,-0.08736,0.49882
12.9303,0,0,5,5,27.9303,27.9303,-11.7116,0.445243,14.6555,0.12943,0.41919,0.166342,0,0,5.0925,0.4725,0.035,0.097478,0.633668,-0.826916,-0.056,-0.08736,0.49882
13.2874,0,0,5,5,28.2874,28.2874,-12.2355,0.417782,14.9904,0.12991,0.410244,0.164448,0,0,5.3725,0.8925,-0.3325,0.097478,0.633668,-0.826916,-0.056,-0.08736,0.49882
12.0119,0,0,5,5,27.0119,27.0119,-12.5325,0.0307159,15.7408,-0.319028,0.239083,0.11197,0,0,4.41,1.1375,-0.315,-0.360144,0.467748,-0.877912,-0.056,-0.08736,0.49882
12.2281,0,0,5,5,27.2281,27.2281,-12.8265,-0.348398,16.4904,-0.312411,0.23408,0.110826,0,0,2.8,-0.1225,0.2625,-0.360144,0.467748,-0.877912,-0.05684,-0.08246,0.5047
14.882,0,0,5,5,29.882,29.882,-13.4445,-0.22315,16.6495,0.380544,0.554538,0.148958,0,0,0.77,-2.135,-0.9275,0.33794,0.798368,-0.837652,-0.05684,-0.08246,0.5047
10.7857,0,0,5,5,25.7857,25.7857,-13.4476,-0.225897,16.651,0.380592,0.554485,0.148945,1,0,1.8025,-1.7325,-0.1575,0.33794,0.798368,-0.837652,-0.05684,-0.08246,0.5047
10.7574,0,0,5,5,25.7574,25.7574,-13.4466,-0.228097,16.652,0.577802,0.415766,-0.298214,1,0,4.13,-1.365,-0.315,0.535946,0.659776,-1.28137,-0.05684,-0.08246,0.5047
10.7568,0,0,5,5,25.7568,25.7568,-13.4456,-0.230297,16.6531,0.57784,0.415784,-0.29821,1,0,4.13,-1.365,-0.315,0.535946,0.659776,-1.28137,-0.05684,-0.08246,0.5047
10.7545,0,0,5,5,25.7545,25.7545,-13.4443,-0.2291,16.652,-0.204549,0.724663,-0.699509,1,0,4.2525,0.8575,-1.05,-0.249734,0.968314,-1.67957,-0.05684,-0.08246,0.5047
10.7537,0,0,5,5,25.7537,25.7537,-13.4431,-0.227904,16.6509,-0.204569,0.724685,-0.699504,1,0,4.2525,0.8575,-1.05,-0.249734,0.968314,-1.67957,-0.05684,-0.08246,0.5047
10.7867,0,0,5,5,25.7867,25.7867,-13.4464,-0.22723,16.6508,0.401754,0.751375,-0.449686,1,0,1.715,0.4375,-0.6125,0.359168,0.995032,-1.43167,-0.05684,-0.08246,0.5047
10.7896,0,0,5,5,25.7896,25.7896,-13.4496,-0.226556,16.6506,0.401742,0.751319,-0.449699,1,0,1.715,0.4375,-0.6125,0.359168,0.995032,-1.43167,-0.04634,-0.07896,0.50414
10.7702,0,0,5,5,25.7702,25.7702,-13.4499,-0.224352,16.648,-0.0104973,0.533318,-0.274253,1,0,3.3775,1.645,-1.8025,-0.054778,0.777262,-1.25758,-0.04634,-0.07896,0.50414
10.7706,0,0,5,5,25.7706,25.7706,-13.4503,-0.222147,16.6453,-0.0105357,0.533313,-0.274254,1,0,3.3775,1.645,-1.8025,-0.054778,0.777262,-1.25758,-0.04634,-0.07896,0.50414
10.7662,0,0,5,5,25.7662,25.7662,-13.4499,-0.223498,16.6439,0.0720981,0.0235615,-0.197041,1,0,3.745,-0.5425,-1.61,0.028182,0.268034,-1.18096,-0.04634,-0.07896,0.50414
10.7661,0,0,5,5,25.7661,25.7661,-13.4496,-0.224849,16.6424,0.0721217,0.0235674,-0.197039,1,0,3.745,-0.5425,-1.61,0.028182,0.268034,-1.18096,-0.04634,-0.07896,0.50414
13.7454,0,0,5,5,28.7454,28.7454,-13.8482,0.214512,16.4397,0.620979,0.247503,0.281925,0,0,4.375,-1.4,-0.77,0.587064,0.498492,-0.704062,-0.04634,-0.07896,0.50414
14.8715,0,0,5,5,29.8715,29.8715,-14.355,-0.406833,17.3802,-0.524234,0.362278,0.358931,0,0,3.6925,-0.245,-1.54,-0.573888,0.621712,-0.625494,-0.04634,-0.07896,0.50414
15.2019,0,0,5,5,30.2019,30.2019,-14.8516,-1.01612,18.3324,-0.513601,0.353924,0.356618,0,0,5.495,1.1025,-0.8925,-0.573888,0.621712,-0.625494,-0.04634,-0.07896,0.50414
11.8541,0,0,5,5,26.8541,26.8541,-14.8467,-1.01574,18.3323,-0.054999,0.0569946,0.321969,1,0,6.3175,0.2625,-0.595,-0.113338,0.325008,-0.659898,-0.04634,-0.07896,0.50414
11.8873,0,0,5,5,26.8873,26.8873,-14.8467,-1.01658,18.3325,-0.0549844,0.0569945,0.321969,1,0,3.5525,-0.4725,-0.63,-0.113338,0.325008,-0.659898,-0.05656,-0.07546,0.51436
11.9158,0,0,5,5,26.9158,26.9158,-14.8505,-1.01631,18.3312,0.243015,0.652665,0.158922,1,0,1.4175,0.3675,-1.26,0.185928,0.920124,-0.82167,-0.05656,-0.07546,0.51436
11.9086,0,0,5,5,26.9086,26.9086,-14.8529,-1.016,18.3308,0.24301,0.652624,0.158912,1,0,2.205,0.28,-0.84,0.185928,0.920124,-0.82167,-0.05656,-0.07546,0.51436
11.8901,0,0,5,5,26.8901,26.8901,-14.8525,-1.01692,18.3311,-0.0592304,0.185252,-0.14354,1,0,3.7625,-0.5425,-0.56,-0.117608,0.45323,-1.12179,-0.05656,-0.07546,0.51436
11.8929,0,0,5,5,26.8929,26.8929,-14.8525,-1.01835,18.3317,-0.0592055,0.185252,-0.143541,1,0,3.5525,-0.875,-0.455,-0.117608,0.45323,-1.12179,-0.05656,-0.07546,0.51436
11.8933,0,0,5,5,26.8933,26.8933,-14.8526,-1.01957,18.3317,-0.0244392,-0.312782,-0.161615,1,0,3.535,-0.665,-0.7875,-0.082716,-0.044286,-1.13972,-0.05656,-0.07546,0.51436
11.8842,0,0,5,5,26.8842,26.8842,-14.8513,-1.02119,18.3334,-0.0244109,-0.312761,-0.16161,1,0,4.2525,-1.1375,0.0875,-0.082716,-0.044286,-1.13972,-0.05656,-0.07546,0.51436
11.8784,0,0,5,5,26.8784,26.8784,-14.8495,-1.01991,18.3341,0.011405,-0.173627,0.268473,1,0,4.62,0.6475,0,-0.046726,0.094672,-0.712968,-0.05656,-0.07546,0.51436
11.8605,0,0,5,5,26.8605,26.8605,-14.8453,-1.01945,18.3357,0.011397,-0.173557,0.268491,1,1,5.88,0.0525,0.35,-0.046726,0.094672,-0.712968,-0.05754,-0.0777,0.51744
11.8794,0,0,5,5,26.8794,26.8794,-14.8442,-1.01832,18.3362,0.128854,0.10601,0.650867,1,1,4.2175,0.595,-0.14,0.071248,0.37393,-0.333548,-0.05754,-0.0777,0.51744
11.8662,0,0,5,5,26.8662,26.8662,-14.8413,-1.01727,18.3362,0.128836,0.106058,0.65088,1,1,5.145,0.63,-0.4725,0.071248,0.37393,-0.333548,-0.05754,-0.0777,0.51744
14.7554,0,0,5,5,29.7554,29.7554,-15.2257,-0.813974,18.3426,0.180199,0.309379,0.166499,0,1,5.3025,0.3325,-0.42,0.126392,0.583526,-0.81252,-0.05754,-0.0777,0.51744
15.059,0,0,5,5,30.059,30.059,-15.6095,-0.615121,18.3478,0.176729,0.30291,0.16476,0,1,1.6975,-0.175,-0.35,0.126392,0.583526,-0.81252,-0.05754,-0.0777,0.51744
15.8674,0,0,5,5,30.8674,30.8674,-16.0604,-0.848885,18.3545,-0.186078,0.299506,0.277273,0,1,1.96,-1.085,-0.3325,-0.242048,0.587674,-0.698694,-0.05754,-0.0777,0.51744
16.1603,0,0,5,5,31.1603,31.1603,-16.5023,-1.07752,18.3632,-0.182088,0.292124,0.275047,0,1,2.6775,-0.5775,-0.035,-0.242048,0.587674,-0.698694,-0.05754,-0.0777,0.51744
13.1827,0,0,5,5,28.1827,28.1827,-16.4979,-1.07848,18.3645,0.327804,0.041837,0.285273,1,1,6.0025,-0.735,0,0.269986,0.337574,-0.688568,-0.05754,-0.0777,0.51744
13.1795,0,0,5,5,28.1795,28.1795,-16.4936,-1.07944,18.3659,0.327821,0.0419097,0.285295,1,1,6.0025,-0.735,0,0.269986,0.337574,-0.688568,-0.06062,-0.06986,0.52192
13.1901,0,0,5,5,28.1901,28.1901,-16.4911,-1.0785,18.3663,0.120185,0.247735,0.418214,1,1,4.9525,0.49,-0.2275,0.061488,0.543144,-0.556686,-0.06062,-0.06986,0.52192
13.1883,0,0,5,5,28.1883,28.1883,-16.4886,-1.07756,18.3667,0.120169,0.247776,0.418227,1,1,4.9525,0.49,-0.2275,0.061488,0.543144,-0.556686,-0.06062,-0.06986,0.52192
13.1993,0,0,5,5,28.1993,28.1993,-16.4878,-1.07534,18.368,-0.160259,0.10539,0.297988,1,1,4.0075,1.0675,0.4725,-0.220088,0.400892,-0.676002,-0.06062,-0.06986,0.52192
13.1989,0,0,5,5,28.1989,28.1989,-16.487,-1.07312,18.3693,-0.160298,0.105403,0.297993,1,1,4.0075,1.0675,0.4725,-0.220088,0.400892,-0.676002,-0.06062,-0.06986,0.52192
13.1523,0,0,5,5,28.1523,28.1523,-16.48,-1.0718,18.3699,0.339229,0.272466,-0.0804078,1,1,7.4725,0.665,-0.035,0.281576,0.567666,-1.05152,-0.06062,-0.06986,0.52192
13.147,0,0,5,5,28.147,28.147,-16.4731,-1.07048,18.3705,0.339206,0.272583,-0.0803729,1,1,7.4725,0.665,-0.035,0.281576,0.567666,-1.05152,-0.06062,-0.06986,0.52192
13.1813,0,0,5,5,28.1813,28.1813,-16.4714,-1.07169,18.3715,0.558751,0.0905201,-0.124749,1,1,4.4975,-0.805,-0.28,0.50203,0.385764,-1.09556,-0.06062,-0.06986,0.52192
13.1802,0,0,5,5,28.1802,28.1802,-16.4697,-1.0729,18.3724,0.558772,0.0905481,-0.124742,1,0,4.4975,-0.805,-0.28,0.50203,0.385764,-1.09556,-0.05614,-0.0693,0.51142
14.9457,0,0,5,5,29.9457,29.9457,-16.7047,-1.20909,18.9223,-0.069605,0.136338,0.152521,0,0,1.155,-0.9625,-1.05,-0.131394,0.435418,-0.81923,-0.05614,-0.0693,0.51142
15.1023,0,0,5,5,30.1023,30.1023,-16.9354,-1.34186,19.4754,-0.0672881,0.1325,0.151307,0,0,1.155,-0.9625,-1.05,-0.131394,0.435418,-0.81923,-0.05614,-0.0693,0.51142
13.5504,0,0,5,5,28.5504,28.5504,-16.9335,-1.33965,19.4731,0.90383,-0.337168,0.195456,1,0,4.585,1.6625,-1.505,0.843874,-0.033794,-0.775432,-0.05614,-0.0693,0.51142
13.5016,0,0,5,5,28.5016,28.5016,-16.9252,-1.33976,19.4708,0.756713,0.0733156,-0.0128999,1,0,8.155,0.35,-1.8725,0.696132,0.376126,-0.982222,-0.05614,-0.0693,0.51142
13.53,0,0,5,5,28.53,28.53,-16.9216,-1.33918,19.4675,0.756703,0.0733757,-0.0128813,1,0,5.53,0.9275,-2.3975,0.696132,0.376126,-0.982222,-0.05614,-0.0693,0.51142
13.5365,0,0,5,5,28.5365,28.5365,-16.9192,-1.33843,19.4639,0.259691,0.0676756,-0.189915,1,0,4.8475,1.0675,-2.485,0.19703,0.370392,-1.1579,-0.05614,-0.0693,0.51142
13.5479,0,0,5,5,28.5479,28.5479,-16.9186,-1.34006,19.4602,0.25972,0.0676866,-0.189912,1,0,3.8675,-0.2625,-2.9225,0.19703,0.370392,-1.1579,-0.05614,-0.0693,0.51142
13.5603,0,0,5,5,28.5603,28.5603,-16.9196,-1.34186,19.4558,0.608658,-0.484588,-0.100535,1,0,2.905,-0.2275,-3.3775,0.547414,-0.181292,-1.06921,-0.05124,-0.05768,0.52108
13.5754,0,0,5,5,28.5754,28.5754,-16.9225,-1.34547,19.4532,-0.237791,0.583362,-0.120346,1,0,1.8725,-1.54,-2.695,-0.302682,0.885598,-1.08885,-0.05124,-0.05768,0.52108
13.5798,0,0,5,5,28.5798,28.5798,-16.9257,-1.34854,19.4501,-0.237738,0.583309,-0.120363,1,0,1.7325,-1.1725,-2.8175,-0.302682,0.885598,-1.08885,-0.05124,-0.05768,0.52108
13.5708,0,0,5,5,28.5708,28.5708,-16.9273,-1.35151,19.4472,0.490257,0.0911124,0.0314692,1,0,2.625,-1.1375,-2.7475,0.428342,0.393938,-0.93818,-0.05124,-0.05768,0.52108
13.5767,0,0,5,5,28.5767,28.5767,-16.9295,-1.35256,19.4454,0.490275,0.0910762,0.0314578,1,0,2.31,-0.245,-1.8025,0.428342,0.393938,-0.93818,-0.05124,-0.05768,0.52108
13.5741,0,0,5,5,28.5741,28.5741,-16.931,-1.35173,19.4441,0.0180456,0.186431,0.307715,1,0,2.66,0.7175,-1.2075,-0.045872,0.48922,-0.664046,-0.05124,-0.05768,0.52108
13.5617,0,0,5,5,28.5617,28.5617,-16.9307,-1.35102,19.4431,0.0180332,0.186436,0.307717,1,0,3.71,0.595,-1.0325,-0.045872,0.48922,-0.664046,-0.05124,-0.05768,0.52108
13.9901,0,0,5,5,28.9901,28.9901,-16.9878,-1.66754,20.1796,-0.311624,0.0210212,0.160979,0,0,5.5125,0.8575,-0.6475,-0.38247,0.324886,-0.809226,-0.05124,-0.05768,0.52108
13.9823,0,0,5,5,28.9823,28.9823,-17.0377,-1.9814,20.9236,-0.306148,0.0202401,0.160558,0,0,9.3975,1.295,0.63,-0.38247,0.324886,-0.809226,-0.05628,-0.06244,0.51772
13.588,0,0,5,5,28.588,28.588,-17.0294,-1.97887,20.9254,0.29504,-0.17014,-0.162015,1,0,8.2425,1.1375,0.84,0.221308,0.134566,-1.12935,-0.05628,-0.06244,0.51772
13.6385,0,0,5,5,28.6385,28.6385,-17.0287,-1.97871,20.9272,0.295037,-0.170128,-0.162012,1,0,3.9725,-0.175,0.385,0.221308,0.134566,-1.12935,-0.05628,-0.06244,0.51772
13.6732,0,0,5,5,28.6732,28.6732,-17.0327,-1.97938,20.93,0.0692072,0.237098,-0.082608,1,0,1.365,-0.84,0.875,-0.00549,0.541436,-1.05054,-0.05628,-0.06244,0.51772
13.6709,0,0,5,5,28.6709,28.6709,-17.0359,-1.98068,20.9322,0.0692297,0.237044,-0.0826252,1,0,1.785,-1.0675,0.385,-0.00549,0.541436,-1.05054,-0.05628,-0.06244,0.51772
13.6696,0,0,5,5,28.6696,28.6696,-17.0386,-1.98272,20.9346,-0.364803,0.0717625,0.323705,1,0,2.1,-1.5225,0.3675,-0.441396,0.37637,-0.647332,-0.05628,-0.06244,0.51772
13.6677,0,0,5,5,28.6677,28.6677,-17.0407,-1.98074,20.9367,-0.364837,0.0717271,0.323695,1,0,2.415,0.77,0.9275,-0.441396,0.37637,-0.647332,-0.05628,-0.06244,0.51772
13.6548,0,0,5,5,28.6548,28.6548,-17.0408,-1.97687,20.9398,0.15068,-0.180467,0.200257,1,0,3.5525,1.68,1.75,0.076372,0.12444,-0.76982,-0.05628,-0.06244,0.51772
13.6551,0,0,5,5,28.6551,28.6551,-17.0409,-1.97299,20.9428,0.150613,-0.18047,0.200258,1,1,3.5525,1.68,1.75,0.076372,0.12444,-0.76982,-0.0588,-0.05698,0.5243
12.3387,0,0,5,5,27.3387,27.3387,-16.8647,-1.84748,20.9403,0.10809,-0.15801,0.0267605,0,1,7.3325,-0.1225,1.2425,0.035868,0.14396,-0.942938,-0.0588,-0.05698,0.5243
12.2229,0,0,5,5,27.2229,27.2229,-16.6918,-1.72432,20.9382,0.105941,-0.155141,0.0276953,0,1,7.3325,-0.1225,1.2425,0.035868,0.14396,-0.942938,-0.0588,-0.05698,0.5243
13.3612,0,0,5,5,28.3612,28.3612,-16.6898,-1.72202,20.9394,0.0837909,0.116012,-0.216838,1,1,4.6725,1.12,0.455,0.013664,0.4148,-1.1856,-0.0588,-0.05698,0.5243
13.3599,0,0,5,5,28.3599,28.3599,-16.6879,-1.71971,20.9406,0.0837507,0.116045,-0.216827,1,1,4.6725,1.12,0.455,0.013664,0.4148,-1.1856,-0.0588,-0.05698,0.5243
13.3722,0,0,5,5,28.3722,28.3722,-16.6878,-1.7235,20.9415,-0.389613,0.156227,-0.0691674,1,1,3.64,-2.24,-0.7525,-0.46177,0.454938,-1.03907,-0.0588,-0.05698,0.5243
14.3692,0,0,5,5,29.3692,29.3692,-16.8211,-0.97273,20.9442,0.660773,0.0236008,0.315163,0,1,2.1175,-1.26,-1.2425,0.606218,0.324764,-0.657336,-0.0588,-0.05698,0.5243
14.4369,0,0,5,5,29.4369,29.4369,-16.9492,-0.231969,20.9452,0.647845,0.0214218,0.314643,0,1,3.99,-1.0325,-1.1025,0.606218,0.324764,-0.657336,-0.0588,-0.05698,0.5243
13.5793,0,0,5,5,28.5793,28.5793,-16.9487,-0.230715,20.944,1.77788,0.241747,-0.157599,1,1,3.8325,0.945,-1.085,1.74106,0.544852,-1.12594,-0.05516,-0.04928,0.52808
13.5647,0,0,5,5,28.5647,28.5647,-16.9463,-0.230912,20.943,-0.522688,0.57788,-0.286314,1,1,4.9175,0.0875,-1.19,-0.569252,0.880596,-1.25367,-0.05516,-0.04928,0.52808
13.5296,0,0,5,5,28.5296,28.5296,-16.9394,-0.22886,20.9394,-0.522724,0.577996,-0.286278,1,1,7.42,1.8025,-2.2925,-0.569252,0.880596,-1.25367,-0.05516,-0.04928,0.52808
13.5192,0,0,5,5,28.5192,28.5192,-16.9318,-0.228346,20.936,0.38027,-0.188589,-0.380541,1,1,7.805,0.8925,-2.3975,0.337574,0.11468,-1.34725,-0.05516,-0.04928,0.52808
15.7149,0,0,5,5,30.7149,30.7149,-17.219,-0.0253728,20.9335,0.175791,0.215741,0.161795,0,1,6.545,0.805,-2.2925,0.135786,0.52338,-0.80764,-0.05516,-0.04928,0.52808
15.9532,0,0,5,5,30.9532,30.9532,-17.5074,0.169417,20.9307,0.172391,0.210938,0.160289,0,1,2.9925,-1.82,-2.66,0.135786,0.52338,-0.80764,-0.05516,-0.04928,0.52808
14.0468,0,0,5,5,29.0468,29.0468,-17.5095,0.164908,20.9292,0.234306,0.323382,-0.0495946,1,1,2.38,-2.2225,-2.24,0.197884,0.635742,-1.01589,-0.05516,-0.04928,0.52808
14.0371,0,0,5,5,29.0371,29.0371,-17.51,0.161313,20.9279,0.0843337,-0.0669439,0.205767,1,1,3.255,-1.75,-1.96,0.047214,0.24583,-0.7625,-0.05516,-0.04928,0.52808
14.0399,0,0,5,5,29.0399,29.0399,-17.5109,0.160947,20.9261,0.0843401,-0.0669575,0.205763,1,1,3.0975,0.14,-1.6625,0.047214,0.24583,-0.7625,-0.06146,-0.04676,0.53368
14.0417,0,0,5,5,29.0417,29.0417,-17.5118,0.162411,20.924,-0.102652,-0.111672,0.252109,1,1,3.0275,1.225,-1.54,-0.140544,0.201178,-0.716506,-0.06146,-0.04676,0.53368
14.0147,0,0,5,5,29.0147,29.0147,-17.509,0.163261,20.9244,-0.102667,-0.111625,0.252124,1,1,5.1275,0.4375,-0.245,-0.140544,0.201178,-0.716506,-0.06146,-0.04676,0.53368
14.0195,0,0,5,5,29.0195,29.0195,-17.5071,0.166208,20.9242,-0.11839,-0.213935,0.120702,1,1,4.62,1.715,-0.21,-0.156282,0.098942,-0.846924,-0.06146,-0.04676,0.53368
14.0182,0,0,5,5,29.0182,29.0182,-17.5052,0.169155,20.9239,-0.118441,-0.213904,0.120712,1,1,4.62,1.715,-0.21,-0.156282,0.098942,-0.846924,-0.06146,-0.04676,0.53368
15.5507,0,0,5,5,30.5507,30.5507,-17.7087,0.141647,20.9232,-0.0291552,0.200873,0.0211567,0,1,4.9,1.68,-0.1925,-0.0671,0.51667,-0.944646,-0.06146,-0.04676,0.53368
14.633,0,0,5,5,29.633,29.633,-17.7674,-0.0177166,20.9244,-0.150532,0.0617696,-0.0119801,0,1,3.3425,-0.245,0.0875,-0.191784,0.378688,-0.97722,-0.06146,-0.04676,0.53368
14.6983,0,0,5,5,29.6983,29.6983,-17.8286,-0.175755,20.9258,-0.147774,0.0607545,-0.0123109,0,1,1.365,-1.19,-0.245,-0.191784,0.378688,-0.97722,-0.0623,-0.05208,0.53984
14.3283,0,0,5,5,29.3283,29.3283,-17.8336,-0.177846,20.9276,0.031697,0.069464,0.185978,1,1,0.735,-1.47,0.0525,-0.01159,0.387472,-0.780434,-0.0623,-0.05208,0.53984
14.2956,0,0,5,5,29.2956,29.2956,-17.8337,-0.178881,20.9306,0.0317151,0.0694628,0.185978,1,1,3.5175,-1.085,0.875,-0.01159,0.387472,-0.780434,-0.0623,-0.05208,0.53984
14.3031,0,0,5,5,29.3031,29.3031,-17.8348,-0.178859,20.9329,0.0136133,0.141623,0.192611,1,1,2.975,-0.3675,0.665,-0.029768,0.459574,-0.773846,-0.0623,-0.05208,0.53984
14.2751,0,0,5,5,29.2751,29.2751,-17.8319,-0.177215,20.9345,0.0135846,0.14167,0.192627,1,1,5.1625,0.665,0.56,-0.029768,0.459574,-0.773846,-0.0623,-0.05208,0.53984
14.2815,0,0,5,5,29.2815,29.2815,-17.8302,-0.371489,20.9359,-0.16659,-0.0229231,0.0752046,0,1,5.285,0.8225,0.5425,-0.21411,0.295118,-0.890356,-0.0623,-0.05208,0.53984
14.2807,0,0,5,5,29.2807,29.2807,-17.8285,-0.562126,20.9374,-0.163262,-0.0228868,0.0751878,0,1,5.285,0.8225,0.5425,-0.21411,0.295118,-0.890356,-0.0623,-0.05208,0.53984
13.8772,0,0,5,5,28.8772,28.8772,-17.7729,-0.567164,20.9373,-0.00742985,-0.0266038,-0.0938166,0,1,3.955,0.875,-0.0525,-0.057706,0.290482,-1.05835,-0.0623,-0.05208,0.53984
13.8409,0,0,5,5,28.8409,28.8409,-17.7184,-0.572107,20.9373,-0.00734359,-0.0256972,-0.0935273,0,1,3.955,0.875,-0.0525,-0.057706,0.290482,-1.05835,-0.0623,-0.05208,0.53984
14.2292,0,0,5,5,29.2292,29.2292,-17.7217,-0.573632,20.938,0.115141,0.182596,-0.138667,1,1,1.715,-0.945,-0.49,0.06527,0.498614,-1.10312,-0.06958,-0.04452,0.54908
14.2345,0,0,5,5,29.2345,29.2345,-17.7253,-0.57825,20.939,0.115221,0.182537,-0.138687,1,1,1.54,-2.73,-0.8575,0.06527,0.498614,-1.10312,-0.06958,-0.04452,0.54908
14.2333,0,0,5,5,29.2333,29.2333,-17.7283,-0.581937,20.9387,0.198746,-0.0554161,0.247232,1,1,1.855,-1.9775,-1.4175,0.149084,0.260958,-0.720166,-0.06958,-0.04452,0.54908
14.236,0,0,5,5,29.236,29.236,-17.7313,-0.585625,20.9384,0.198811,-0.0554662,0.247215,1,1,1.855,-1.9775,-1.4175,0.149084,0.260958,-0.720166,-0.06958,-0.04452,0.54908
14.2344,0,0,5,5,29.2344,29.2344,-17.7338,-0.586325,20.9373,0.0346956,0.0440263,0.168269,1,1,2.17,-0.1575,-1.365,-0.015738,0.360388,-0.79849,-0.06958,-0.04452,0.54908
14.2066,0,0,5,5,29.2066,29.2066,-17.7322,-0.584613,20.9359,0.0346658,0.0440524,0.168277,1,1,4.4275,1.2425,-1.1025,-0.015738,0.360388,-0.79849,-0.06958,-0.04452,0.54908
13.5755,0,0,5,5,28.5755,28.5755,-17.6462,-0.240941,20.9337,0.293385,-0.100595,0.0811122,0,1,5.145,1.575,-1.0675,0.2501,0.214476,-0.885476,-0.06958,-0.04452,0.54908
13.5163,0,0,5,5,28.5163,28.5163,-17.5615,0.0969661,20.9322,0.287487,-0.099188,0.0815664,0,1,5.32,1.8025,-0.945,0.2501,0.214476,-0.885476,-0.06958,-0.04452,0.54908
14.0674,0,0,5,5,29.0674,29.0674,-17.5596,0.0983309,20.9302,-0.0505096,0.0940476,-0.0996499,1,1,4.6025,1.1375,-1.4525,-0.089304,0.40748,-1.0653,-0.0672,-0.0245,0.5649
14.1165,0,0,5,5,29.1165,29.1165,-17.5645,0.097868,20.9285,-0.0505015,0.0939665,-0.0996755,1,1,0.8225,0.07,-1.6275,-0.089304,0.40748,-1.0653,-0.0672,-0.0245,0.5649
16.1889,0,0,5,5,31.1889,31.1889,-17.8464,0.0446072,20.9273,-0.0523661,0.282118,0.0258352,0,1,0.0875,-0.3675,-1.2775,-0.09211,0.600118,-0.939278,-0.0672,-0.0245,0.5649
16.3761,0,0,5,5,31.3761,31.3761,-18.1231,-0.00768379,20.9263,-0.0514534,0.277524,0.0243443,0,1,0.0875,-0.3675,-1.2775,-0.09211,0.600118,-0.939278,-0.0672,-0.0245,0.5649
14.534,0,0,5,5,29.534,29.534,-18.1234,-0.0101639,20.9262,0.371117,-0.23578,0.245896,1,1,3.3775,-1.33,-1.12,0.332206,0.087352,-0.719434,-0.0672,-0.0245,0.5649
14.5163,0,0,5,5,29.5163,29.5163,-18.1213,-0.0111219,20.9259,0.371134,-0.235745,0.245907,1,1,4.7425,-0.455,-0.9275,0.332206,0.087352,-0.719434,-0.0672,-0.0245,0.5649
13.6879,0,0,5,5,28.6879,28.6879,-18.0084,-0.175572,20.9251,-0.136722,-0.121025,0.0711892,0,1,4.13,0.245,-0.9275,-0.180682,0.20008,-0.893406,-0.0672,-0.0245,0.5649
13.6215,0,0,5,5,28.6215,28.6215,-17.8987,-0.335338,20.9234,-0.133933,-0.1192,0.0717676,0,1,3.535,1.2425,-0.945,-0.180682,0.20008,-0.893406,-0.0672,-0.0245,0.5649
13.6793,0,0,5,5,28.6793,28.6793,-17.8085,-0.517983,20.922,-0.159781,-0.0971758,0.0445645,0,1,3.08,1.61,-0.5775,-0.20984,0.220576,-0.920856,-0.06356,-0.01596,0.56616
13.4058,0,0,5,5,28.4058,28.4058,-17.6912,-0.432008,20.9205,0.0792603,-0.0973068,-0.0627485,0,1,3.36,1.4,-0.455,0.03172,0.218502,-1.02797,-0.06356,-0.01596,0.56616
14.1922,0,0,5,5,29.1922,29.1922,-17.6918,-0.431112,20.9203,0.273014,0.327929,-0.0422192,1,1,3.22,0.5775,-0.595,0.22631,0.643306,-1.0076,-0.06356,-0.01596,0.56616
14.1983,0,0,5,5,29.1983,29.1983,-17.6931,-0.432611,20.9212,0.0126967,0.280277,0.0153135,1,1,2.8175,-0.9625,-0.385,-0.035136,0.595726,-0.950502,-0.06356,-0.01596,0.56616
14.2381,0,0,5,5,29.2381,29.2381,-17.6996,-0.318395,20.922,0.105584,-0.00158053,0.0181195,0,1,2.4325,-1.435,-0.595,0.060146,0.314272,-0.947696,-0.06356,-0.01596,0.56616
16.7338,0,0,5,5,31.7338,31.7338,-18.0396,-0.175675,20.924,0.12739,0.251189,0.180937,0,1,0.63,-0.91,-0.56,0.084546,0.572424,-0.784338,-0.06356,-0.01596,0.56616
15.7166,0,0,5,5,30.7166,30.7166,-18.2068,0.0902783,20.9254,0.237309,0.114928,0.113517,0,1,1.0325,-0.8225,-0.07,0.199592,0.439078,-0.85034,-0.06356,-0.01596,0.56616
14.6158,0,0,5,5,29.6158,29.6158,-18.2087,0.0897874,20.9269,-0.0747791,-0.143523,0.105269,1,1,2.485,-0.525,0.1575,-0.113826,0.180926,-0.858514,-0.06356,-0.01596,0.56616
14.6877,0,0,5,5,29.6877,29.6877,-18.22,0.171679,20.9275,0.0738265,0.00809419,0.00942748,0,1,3.745,0.525,-0.07,0.036844,0.332572,-0.953552,-0.06048,-0.02156,0.56168
14.7558,0,0,5,5,29.7558,29.7558,-18.2392,0.340388,20.9274,0.168071,0.0466168,-0.0750323,0,1,4.34,1.5225,-0.175,0.134444,0.371368,-1.03724,-0.06048,-0.02156,0.56168
14.6218,0,0,5,5,29.6218,29.6218,-18.2383,0.343578,20.9273,0.176883,-0.0333616,-0.205968,1,1,4.0425,1.82,-0.07,0.14335,0.291458,-1.16717,-0.06048,-0.02156,0.56168
14.6214,0,0,5,5,29.6214,29.6214,-18.2375,0.346767,20.9272,0.176828,-0.033347,-0.205964,1,1,4.0425,1.82,-0.07,0.14335,0.291458,-1.16717,-0.06048,-0.02156,0.56168
14.6657,0,0,5,5,29.6657,29.6657,-18.2426,0.346194,20.928,0.146588,-0.0633529,0.120437,1,1,0.6825,-0.4375,-0.2625,0.112972,0.261568,-0.843264,-0.06048,-0.02156,0.56168
14.6838,0,0,5,5,29.6838,29.6838,-18.2495,0.344856,20.9283,0.146611,-0.0634683,0.120399,1,1,-0.35,-0.77,-0.6825,0.112972,0.261568,-0.843264,-0.06048,-0.02156,0.56168
16.72,0,0,5,5,31.72,31.72,-18.5284,0.500482,20.9264,0.149848,0.243587,0.0941318,0,1,0.9975,-1.085,-0.91,0.11895,0.572912,-0.867786,-0.06048,-0.02156,0.56168
16.906,0,0,5,5,31.906,31.906,-18.8023,0.653296,20.9238,0.147181,0.239067,0.0925766,0,1,0.9975,-1.085,-0.91,0.11895,0.572912,-0.867786,-0.06048,-0.02156,0.56168
15.0845,0,0,5,5,30.0845,30.0845,-18.8028,0.650709,20.9223,-0.0436281,0.0247253,0.172491,1,1,3.255,-1.12,-1.925,-0.072712,0.358802,-0.788486,-0.05628,-0.01498,0.55566
15.0996,0,0,5,5,30.0996,30.0996,-18.8053,0.649928,20.9196,-0.0436145,0.0246845,0.172477,1,1,2.1875,0.105,-2.24,-0.072712,0.358802,-0.788486,-0.05628,-0.01498,0.55566
15.0998,0,0,5,5,30.0998,30.0998,-18.8075,0.650078,20.9164,-0.134245,0.0317317,0.197546,1,1,2.345,0.7175,-2.345,-0.163724,0.365878,-0.763598,-0.05628,-0.01498,0.55566
15.0905,0,0,5,5,30.0905,30.0905,-18.8082,0.651536,20.9124,-0.134271,0.0317207,0.197542,1,1,3.2025,1.5925,-2.5375,-0.163724,0.365878,-0.763598,-0.05628,-0.01498,0.55566
15.088,0,0,5,5,30.088,30.088,-18.8084,0.652437,20.9084,0.105891,-0.0137143,-0.251468,1,1,3.4475,1.2775,-2.625,0.07747,0.320494,-1.20914,-0.05628,-0.01498,0.55566
15.1099,0,0,5,5,30.1099,30.1099,-18.8115,0.652312,20.9052,0.105893,-0.0137654,-0.251485,1,1,1.8375,0.5775,-2.4325,0.07747,0.320494,-1.20914,-0.05628,-0.01498,0.55566
15.1193,0,0,5,5,30.1193,30.1193,-18.8155,0.652222,20.9027,0.420421,0.258755,0.0831584,1,1,1.33,0.455,-2.0125,0.393328,0.592798,-0.877058,-0.05628,-0.01498,0.55566
15.119,0,0,5,5,30.119,30.119,-18.819,0.651588,20.9008,0.420432,0.258698,0.0831389,1,1,1.61,0.035,-1.7675,0.393328,0.592798,-0.877058,-0.05628,-0.01498,0.55566
14.138,0,0,5,5,29.138,29.138,-18.6907,0.430767,20.9014,-0.218616,-0.106184,-0.0924147,0,1,2.415,-0.665,-1.2425,-0.252296,0.226188,-1.05201,-0.05628,-0.01498,0.55566
14.0604,0,0,5,5,29.0604,29.0604,-18.5657,0.214174,20.902,-0.214836,-0.104124,-0.0916977,0,1,1.8725,-0.6825,-0.875,-0.252296,0.226188,-1.05201,-0.05936,-0.01904,0.56084
14.9184,0,0,5,5,29.9184,29.9184,-18.5689,0.214483,20.9027,0.453816,0.191735,0.00861,1,1,1.715,0.0875,-0.21,0.419192,0.521794,-0.952454,-0.05936,-0.01904,0.56084
14.9153,0,0,5,5,29.9153,29.9153,-18.5714,0.215786,20.9035,0.453793,0.191694,0.00859623,1,1,2.17,0.595,0.105,0.419192,0.521794,-0.952454,-0.05936,-0.01904,0.56084
15.2471,0,0,5,5,30.2471,30.2471,-18.618,-0.124449,20.9052,-0.320572,0.0273942,0.0513733,0,1,2.7825,0.7875,0.6825,-0.364414,0.358436,-0.909754,-0.05936,-0.01904,0.56084
15.2891,0,0,5,5,30.2891,30.2891,-18.6652,-0.458824,20.9079,-0.314736,0.0266232,0.0510819,0,1,1.995,0.525,1.085,-0.364414,0.358436,-0.909754,-0.05936,-0.01904,0.56084
15.0069,0,0,5,5,30.0069,30.0069,-18.6695,-0.457458,20.9114,0.156605,0.14416,-0.0909475,1,1,1.155,0.1225,1.61,0.108946,0.475922,-1.05066,-0.05936,-0.01904,0.56084
15.0293,0,0,5,5,30.0293,30.0293,-18.6763,-0.456875,20.9155,-0.032437,0.0661306,0.17028,1,1,-0.245,-0.4025,1.7325,-0.080886,0.398086,-0.791414,-0.05936,-0.01904,0.56084
15.7884,0,0,5,5,30.7884,30.7884,-18.784,-0.100305,20.9198,0.310125,0.0451668,0.139583,0,1,-0.175,-0.7,1.505,0.269376,0.378932,-0.821304,-0.05936,-0.01904,0.56084
15.1084,0,0,5,5,30.1084,30.1084,-18.7891,-0.100889,20.9233,-0.131708,0.0510673,0.260781,1,1,0.7175,-0.9625,1.2425,-0.174338,0.38491,-0.701012,-0.05026,-0.02394,0.56518
17.1638,0,0,5,5,32.1638,32.1638,-19.0688,-0.0246689,20.9264,0.067899,0.194344,0.169078,0,1,1.12,-1.575,0.56,0.02745,0.532652,-0.790438,-0.05026,-0.02394,0.56518
15.3252,0,0,5,5,30.3252,30.3252,-19.0723,-0.0262987,20.928,0.0839635,-0.141196,0.0902478,1,1,1.5925,-1.1725,-0.0525,0.043554,0.197518,-0.86864,-0.05026,-0.02394,0.56518
15.3345,0,0,5,5,30.3345,30.3345,-19.0767,-0.0266266,20.9278,-0.373303,0.255156,0.0396912,1,1,1.12,-0.1225,-0.7525,-0.415654,0.59353,-0.918782,-0.05026,-0.02394,0.56518
15.3341,0,0,5,5,30.3341,30.3341,-19.0805,-0.0269344,20.927,0.22259,0.128448,-0.288603,1,1,1.435,0.0175,-1.12,0.182756,0.467016,-1.24452,-0.05026,-0.02394,0.56518
16.8368,0,0,5,5,31.8368,31.8368,-19.285,0.0200756,20.9243,0.0417275,0.146081,0.118413,0,1,1.12,0.4375,-2.135,0.001952,0.488,-0.839482,-0.05026,-0.02394,0.56518
14.646,0,0,5,5,29.646,29.646,-19.1743,0.200274,20.9218,0.171488,-0.103184,-0.0401743,0,1,0.455,0.4375,-2.1175,0.13542,0.237168,-0.997472,-0.05026,-0.02394,0.56518
16.8401,0,0,5,5,31.8401,31.8401,-19.3692,0.364188,20.9177,0.143965,0.129681,0.131186,0,1,0.2975,0.2625,-2.5025,0.110654,0.472994,-0.826306,-0.05026,-0.02394,0.56518
15.9089,0,0,5,5,30.9089,30.9089,-19.4184,0.429242,20.9141,0.0570612,0.0189583,0.0552802,0,1,-1.0675,0.8925,-2.38,0.024522,0.363194,-0.901336,-0.05768,-0.0252,0.55818
15.8932,0,0,5,5,30.8932,30.8932,-19.4603,0.413668,20.9108,-0.015194,0.0445261,-0.02623,0,1,-0.5075,0.875,-2.1875,-0.048312,0.389424,-0.981978,-0.05768,-0.0252,0.55818
15.6561,0,0,5,5,30.6561,30.6561,-19.4659,0.412861,20.9084,0.157087,0.202833,-0.0472865,1,1,0.4375,0.0525,-2.0825,0.124684,0.547658,-1.00284,-0.05768,-0.0252,0.55818
15.5349,0,0,5,5,30.5349,30.5349,-19.4546,0.64128,20.9036,0.192583,-0.0413448,0.0744636,0,1,0.84,4.4625,-2.1,0.164334,0.303536,-0.88206,-0.05768,-0.0252,0.55818
15.9844,0,0,5,5,30.9844,30.9844,-19.5046,0.909482,20.9016,0.227628,-0.0029447,0.120095,0,1,0.0525,0.105,-1.4175,0.204228,0.342698,-0.836432,-0.05768,-0.0252,0.55818
15.6962,0,0,5,5,30.6962,30.6962,-19.5107,0.910155,20.901,-0.110478,0.0905047,-0.0970673,1,1,0.1575,0.525,-0.8225,-0.135298,0.43615,-1.05188,-0.05768,-0.0252,0.55818
14.0018,0,0,5,5,29.0018,29.0018,-19.2892,1.17007,20.9046,0.235716,-0.22213,-0.00438713,0,1,-0.945,1.19,-0.525,0.216916,0.12017,-0.961116,-0.05768,-0.0252,0.55818
13.8473,0,0,5,5,28.8473,28.8473,-19.0706,1.42569,20.9104,0.231255,-0.218495,-0.00322977,0,1,-0.4725,1.1375,0.1925,0.216916,0.12017,-0.961116,-0.05768,-0.0252,0.55818
15.3674,0,0,5,5,30.3674,30.3674,-19.079,1.42726,20.9116,-0.146228,0.111964,0.321306,1,1,-1.19,0.665,0.3675,-0.162138,0.450424,-0.639036,-0.05922,-0.0308,0.5523
15.3691,0,0,5,5,30.3691,30.3691,-19.0867,1.42802,20.913,-0.146241,0.111837,0.321261,1,1,-0.7875,0.175,0.3325,-0.162138,0.450424,-0.639036,-0.05922,-0.0308,0.5523
15.373,0,0,5,5,30.373,30.373,-19.0941,1.42848,20.9143,0.0955072,0.0419808,0.304867,1,1,-0.595,0.035,0.1925,0.080642,0.380762,-0.655262,-0.05922,-0.0308,0.5523
15.3845,0,0,5,5,30.3845,30.3845,-19.1022,1.42792,20.9155,0.0955169,0.0418474,0.304821,1,1,-0.9975,-0.5075,-0.0525,0.080642,0.380762,-0.655262,-0.05922,-0.0308,0.5523
15.3894,0,0,5,5,30.3894,30.3894,-19.11,1.4262,20.9156,0.022534,0.225519,-0.0448886,1,1,-0.84,-0.945,-0.875,0.00732,0.564372,-1.00223,-0.05922,-0.0308,0.5523
15.4035,0,0,5,5,30.4035,30.4035,-19.1189,1.42479,20.9151,0.0225586,0.225373,-0.0449386,1,1,-1.4,-0.6475,-1.1725,0.00732,0.564372,-1.00223,-0.05922,-0.0308,0.5523
16.8661,0,0,5,5,31.8661,31.8661,-19.3226,1.38258,20.9091,-0.0375692,0.136888,0.125175,0,1,-1.6625,-0.525,-1.575,-0.053802,0.479338,-0.832284,-0.05922,-0.0308,0.5523
17.0002,0,0,5,5,32.0002,32.0002,-19.5225,1.34177,20.9028,-0.0368572,0.133594,0.124032,0,1,-1.5575,-0.07,-1.715,-0.053802,0.479338,-0.832284,-0.05922,-0.0308,0.5523
15.7374,0,0,5,5,30.7374,30.7374,-19.5317,1.34218,20.9006,0.16954,-0.2261,0.166395,1,1,-1.61,0.6825,-1.7325,0.153476,0.12017,-0.790194,-0.06692,-0.02954,0.54586
15.7632,0,0,5,5,30.7632,30.7632,-19.5434,1.34291,20.8988,-0.171119,0.0376241,-0.1033,1,1,-2.975,0.7875,-1.4525,-0.188612,0.383812,-1.05774,-0.06692,-0.02954,0.54586
15.7835,0,0,5,5,30.7835,30.7835,-19.5565,1.3429,20.8975,-0.171119,0.0374085,-0.103376,1,1,-3.78,0.28,-1.33,-0.188612,0.383812,-1.05774,-0.06692,-0.02954,0.54586
15.7983,0,0,5,5,30.7983,30.7983,-19.5702,1.34306,20.8963,-0.0457481,0.301711,0.00793549,1,1,-4.0775,0.3675,-1.2775,-0.062708,0.648064,-0.947208,-0.06692,-0.02954,0.54586
15.7951,0,0,5,5,30.7951,30.7951,-19.5819,1.34384,20.896,-0.0457618,0.301518,0.00786672,1,1,-3.01,0.5075,-0.5775,-0.062708,0.648064,-0.947208,-0.06692,-0.02954,0.54586
15.8854,0,0,5,5,30.8854,30.8854,-19.6044,1.05852,20.8962,-0.281203,0.0186341,-0.0157728,0,1,-1.995,0.175,-0.315,-0.304146,0.365878,-0.970632,-0.06692,-0.02954,0.54586
15.9065,0,0,5,5,30.9065,30.9065,-19.6273,0.778326,20.8967,-0.276314,0.0182316,-0.015833,0,1,-2.4325,0.1225,-0.1225,-0.304146,0.365878,-0.970632,-0.06692,-0.02954,0.54586
15.3544,0,0,5,5,30.3544,30.3544,-19.5737,0.771585,20.899,-0.00649773,-0.0804218,0.0640296,0,1,-1.9775,-0.525,0.07,-0.033306,0.266448,-0.891698,-0.06692,-0.02954,0.54586
15.3172,0,0,5,5,30.3172,30.3172,-19.5209,0.765539,20.9006,-0.00639221,-0.0795536,0.0643394,0,1,-1.82,-0.07,-0.21,-0.033306,0.266448,-0.891698,-0.05894,-0.035,0.54278
15.7482,0,0,5,5,30.7482,30.7482,-19.5314,0.76588,20.9013,0.0124321,-0.0374706,0.13817,1,1,-2.345,0.07,-0.1225,-0.014396,0.30866,-0.818376,-0.05894,-0.035,0.54278
15.7669,0,0,5,5,30.7669,30.7669,-19.5433,0.765919,20.9016,0.0124314,-0.0376656,0.138101,1,1,-3.0975,0,-0.455,-0.014396,0.30866,-0.818376,-0.05894,-0.035,0.54278
15.7938,0,0,5,5,30.7938,30.7938,-19.5574,0.765536,20.9011,-0.141241,0.212706,-0.023536,1,1,-4.375,-0.0875,-0.945,-0.168726,0.559004,-0.978684,-0.05894,-0.035,0.54278
15.8162,0,0,5,5,30.8162,30.8162,-19.573,0.76499,20.8996,-0.141232,0.212449,-0.023627,1,1,-5.18,0.0175,-1.5225,-0.168726,0.559004,-0.978684,-0.05894,-0.035,0.54278
16.0765,0,0,5,5,31.0765,31.0765,-19.6218,0.949859,20.8974,0.186955,0.0488691,-0.0352691,0,1,-4.48,-0.1225,-1.715,0.16409,0.396378,-0.989908,-0.05894,-0.035,0.54278
16.0989,0,0,5,5,31.0989,31.0989,-19.6682,1.13169,20.8941,0.183782,0.0481245,-0.0355961,0,1,-3.6925,0.2625,-2.205,0.16409,0.396378,-0.989908,-0.05894,-0.035,0.54278
15.1708,0,0,5,5,30.1708,30.1708,-19.5854,0.832196,20.8933,-0.282599,-0.0952641,0.000260096,0,1,-3.045,-0.0875,-2.1525,-0.309514,0.251808,-0.954894,-0.05894,-0.035,0.54278
15.1162,0,0,5,5,30.1162,30.1162,-19.5041,0.539434,20.8923,-0.27749,-0.0939472,0.00079248,0,1,-3.08,0.6475,-1.715,-0.309514,0.251808,-0.954894,-0.05894,-0.035,0.54278
14.831,0,0,5,5,29.831,29.831,-19.3932,0.664915,20.8916,0.115635,-0.118495,-0.0114948,0,1,-4.2,0.49,-1.645,0.087474,0.225456,-0.967704,-0.05964,-0.03696,0.54572
16.5333,0,0,5,5,31.5333,31.5333,-19.5222,0.817462,20.8891,0.147717,0.107649,0.0211649,0,1,-5.88,0.56,-1.085,0.122366,0.453474,-0.93452,-0.05964,-0.03696,0.54572
16.6283,0,0,5,5,31.6283,31.6283,-19.6501,0.968414,20.8874,0.145083,0.105561,0.0203783,0,1,-6.5625,0.9975,-0.245,0.122366,0.453474,-0.93452,-0.05964,-0.03696,0.54572
15.8932,0,0,5,5,30.8932,30.8932,-19.6657,0.969643,20.8881,-0.202509,0.382531,-0.0981134,1,1,-5.2325,0.5775,0,-0.226676,0.730414,-1.05201,-0.05964,-0.03696,0.54572
15.9081,0,0,5,5,30.9081,30.9081,-19.6817,0.971069,20.8902,-0.202534,0.382269,-0.0982075,1,1,-5.4075,0.385,0.875,-0.226676,0.730414,-1.05201,-0.05964,-0.03696,0.54572
16.8896,0,0,5,5,31.8896,31.8896,-19.8273,0.885346,20.8908,-0.080767,0.10887,0.0607893,0,1,-3.7625,-0.0525,1.0325,-0.105896,0.459696,-0.893406,-0.05964,-0.03696,0.54572
16.9862,0,0,5,5,31.9862,31.9862,-19.9703,0.799478,20.8912,-0.0792685,0.106517,0.0599611,0,1,-3.7275,-0.91,0.455,-0.105896,0.459696,-0.893406,-0.05964,-0.03696,0.54572
17.1624,0,0,5,5,32.1624,32.1624,-20.1214,0.963406,20.8907,0.167402,0.149118,-0.000368719,0,1,-3.5875,-0.63,0.1925,0.144692,0.504714,-0.952332,-0.05964,-0.03696,0.54572
17.261,0,0,5,5,32.261,32.261,-20.2696,1.12458,20.8893,0.16459,0.14671,-0.00130927,0,1,-3.4125,-0.4025,-0.0525,0.144692,0.504714,-0.952332,-0.05782,-0.03766,0.53942
16.4306,0,0,5,5,31.4306,31.4306,-20.2906,1.5157,20.8895,0.384944,-0.00770385,0.0360383,0,1,-5.0925,-0.0875,-0.4375,0.372832,0.35075,-0.915,-0.05782,-0.03766,0.53942
16.4488,0,0,5,5,31.4488,31.4488,-20.3118,1.89894,20.8886,0.378258,-0.00798106,0.0357233,0,1,-5.355,-0.525,-1.2425,0.372832,0.35075,-0.915,-0.05782,-0.03766,0.53942
16.4243,0,0,5,5,31.4243,31.4243,-20.3273,1.89813,20.887,0.145262,-0.100686,0.123292,1,1,-5.145,-0.0875,-1.6625,0.138836,0.258396,-0.828014,-0.05782,-0.03766,0.53942
16.446,0,0,5,5,31.446,31.446,-20.3441,1.89733,20.8847,0.145276,-0.10096,0.12319,1,1,-5.81,0.0525,-2.0125,0.138836,0.258396,-0.828014,-0.05782,-0.03766,0.53942
16.4761,0,0,5,5,31.4761,31.4761,-20.3631,1.89687,20.8825,0.190599,-0.176378,0.185165,1,1,-7.035,0.2275,-1.9075,0.184342,0.183366,-0.766404,-0.05782,-0.03766,0.53942
16.5033,0,0,5,5,31.5033,31.5033,-20.3836,1.89619,20.8809,0.19061,-0.176714,0.18504,1,1,-7.9275,-0.0175,-1.61,0.184342,0.183366,-0.766404,-0.05782,-0.03766,0.53942
17.3992,0,0,5,5,32.3992,32.3992,-20.5219,1.95482,20.8758,0.0506079,0.0739622,0.0976095,0,1,-8.4175,-0.1575,-1.4,0.044774,0.436028,-0.852292,-0.05782,-0.03766,0.53942
17.4798,0,0,5,5,32.4798,32.4798,-20.6561,2.01286,20.8717,0.0495956,0.0717829,0.0967534,0,1,-7.5775,-0.0875,-0.77,0.044774,0.436028,-0.852292,-0.06188,-0.04032,0.53634
17.0233,0,0,5,5,32.0233,32.0233,-20.7148,2.02377,20.8703,0.0108944,0.0473797,-0.00701399,0,1,-4.8825,0.245,-0.385,0.0061,0.412604,-0.954894,-0.06188,-0.04032,0.53634
17.053,0,0,5,5,32.053,32.053,-20.7711,2.03431,20.8698,0.0107104,0.0464635,-0.00736796,0,1,-4.1825,0,0,0.0061,0.412604,-0.954894,-0.06188,-0.04032,0.53634
15.7043,0,0,5,5,30.7043,30.7043,-20.6407,2.27806,20.8761,0.225984,-0.146023,0.00127809,0,1,-4.7775,0.0875,-0.035,0.226554,0.218136,-0.946964,-0.06188,-0.04032,0.53634
15.6279,0,0,5,5,30.6279,30.6279,-20.514,2.51636,20.8829,0.221828,-0.143893,0.00189175,0,1,-5.5825,-0.5075,-0.2975,0.226554,0.218136,-0.946964,-0.06188,-0.04032,0.53634
16.6834,0,0,5,5,31.6834,31.6834,-20.5422,2.64878,20.8828,0.123667,-8.51757e-05,0.0233837,0,1,-7.1925,-0.385,-0.5425,0.130296,0.362218,-0.92537,-0.06188,-0.04032,0.53634
16.7008,0,0,5,5,31.7008,31.7008,-20.5696,2.77948,20.8815,0.121389,-0.0004955,0.0231145,0,1,-7.035,0.245,-1.0675,0.130296,0.362218,-0.92537,-0.06188,-0.04032,0.53634
16.5689,0,0,5,5,31.5689,31.5689,-20.5765,2.88931,20.8806,0.0880095,-0.0472259,0.0979826,0,1,-6.4925,0.4025,-1.3825,0.098698,0.315614,-0.85095,-0.06188,-0.04032,0.53634
16.5593,0,0,5,5,31.5593,31.5593,-20.5812,2.99615,20.8792,0.0861472,-0.0472699,0.0978638,0,1,-5.39,-0.035,-1.8375,0.098698,0.315614,-0.85095,-0.06384,-0.0406,0.53928
16.6437,0,0,5,5,31.6437,31.6437,-20.5967,2.99546,20.8769,0.0690298,-0.0972288,0.143383,1,1,-5.075,0.14,-2.0475,0.081496,0.26596,-0.805688,-0.06384,-0.0406,0.53928
16.6633,0,0,5,5,31.6633,31.6633,-20.6132,2.99497,20.8742,0.0690383,-0.0974971,0.143283,1,1,-5.5825,0.315,-2.17,0.081496,0.26596,-0.805688,-0.06384,-0.0406,0.53928
16.6966,0,0,5,5,31.6966,31.6966,-20.6323,2.99461,20.8714,0.0277394,0.0601012,-0.123263,1,1,-7.07,0.4025,-2.1875,0.040016,0.423706,-1.07006,-0.06384,-0.0406,0.53928
16.7235,0,0,5,5,31.7235,31.7235,-20.6529,2.99468,20.8695,0.0277383,0.0597651,-0.12339,1,1,-7.945,0.455,-1.6275,0.040016,0.423706,-1.07006,-0.06384,-0.0406,0.53928
16.7383,0,0,5,5,31.7383,31.7383,-20.6732,2.99482,20.8685,0.0449868,-0.100797,0.0936116,1,1,-7.8225,0.315,-1.12,0.05734,0.263642,-0.85461,-0.06384,-0.0406,0.53928
16.7407,0,0,5,5,31.7407,31.7407,-20.6916,2.99543,20.8688,0.0449761,-0.101097,0.0934976,1,1,-6.79,0.315,-0.35,0.05734,0.263642,-0.85461,-0.06384,-0.0406,0.53928
16.7348,0,0,5,5,31.7348,31.7348,-20.7073,2.99619,20.8695,0.0767921,-0.0722858,0.290856,1,1,-5.2325,0.2975,-0.0525,0.089304,0.292678,-0.658678,-0.06384,-0.0406,0.53928
16.7451,0,0,5,5,31.7451,31.7451,-20.7226,2.99753,20.8707,0.0767689,-0.0725347,0.290761,1,1,-5.0575,0.5075,0.3325,0.089304,0.292678,-0.658678,-0.05432,-0.03528,0.54012
17.8428,0,0,5,5,32.8428,32.8428,-20.8832,2.78318,20.8649,-0.194052,0.0850112,0.130109,0,1,-6.0375,0.315,0.35,-0.186416,0.452742,-0.817278,-0.05432,-0.03528,0.54012
17.9569,0,0,5,5,32.9569,32.9569,-21.0418,2.57146,20.8602,-0.190361,0.0823666,0.129281,0,1,-6.5625,-0.42,0.3675,-0.186416,0.452742,-0.817278,-0.05432,-0.03528,0.54012
16.8915,0,0,5,5,31.8915,31.8915,-21.0408,2.73919,20.8627,0.156836,-0.0266264,0.0225649,0,1,-5.74,-0.7525,0.1575,0.165188,0.343796,-0.923052,-0.05432,-0.03528,0.54012
16.8851,0,0,5,5,31.8851,31.8851,-21.0389,2.90392,20.8636,0.153964,-0.0265454,0.0224444,0,1,-5.25,-0.4025,-0.7,0.165188,0.343796,-0.923052,-0.05432,-0.03528,0.54012
17.0113,0,0,5,5,32.0113,32.0113,-21.0541,2.9034,20.8629,-0.0911846,0.191448,-0.0603947,1,1,-4.9525,-0.105,-1.1025,-0.081008,0.56181,-1.00516,-0.05432,-0.03528,0.54012
17.03,0,0,5,5,32.03,32.03,-21.0701,2.9023,20.862,-0.0911653,0.191186,-0.0604942,1,1,-5.4075,-0.385,-1.33,-0.081008,0.56181,-1.00516,-0.05432,-0.03528,0.54012
17.0488,0,0,5,5,32.0488,32.0488,-21.0869,2.90146,20.8603,0.0809946,-0.00595515,-0.15908,1,1,-5.81,-0.07,-1.715,0.091866,0.365146,-1.10288,-0.05432,-0.03528,0.54012
17.0896,0,0,5,5,32.0896,32.0896,-21.1073,2.90129,20.8578,0.0809975,-0.00628719,-0.159208,1,1,-7.8225,0.455,-1.9775,0.091866,0.365146,-1.10288,-0.05432,-0.03528,0.54012
17.1135,0,0,5,5,32.1135,32.1135,-21.1287,2.90184,20.8554,0.0862118,-0.012741,-0.112254,1,1,-8.365,0.84,-1.8025,0.097112,0.359046,-1.05615,-0.06076,-0.03668,0.54166
17.132,0,0,5,5,32.132,32.132,-21.1503,2.90227,20.8543,-0.131255,-0.117754,0.0897377,1,1,-8.4875,0.5075,-1.1375,-0.121268,0.254492,-0.855586,-0.06076,-0.03668,0.54166
17.1158,0,0,5,5,32.1158,32.1158,-21.1673,2.9019,20.855,-0.131249,-0.11803,0.089631,1,1,-6.0025,-0.315,-0.315,-0.121268,0.254492,-0.855586,-0.06076,-0.03668,0.54166
17.1159,0,0,5,5,32.1159,32.1159,-21.1824,2.90122,20.8564,-0.175822,-0.0780971,0.199452,1,1,-4.9875,-0.6475,0.035,-0.166042,0.29463,-0.746518,-0.06076,-0.03668,0.54166
17.117,0,0,5,5,32.117,32.117,-21.1961,2.9018,20.8582,-0.175832,-0.0783187,0.199366,1,1,-4.1475,-0.035,0.49,-0.166042,0.29463,-0.746518,-0.06076,-0.03668,0.54166
17.5407,0,0,5,5,32.5407,32.5407,-21.265,2.99831,20.8573,0.081979,0.0190278,0.0849998,0,1,-4.3925,-0.14,0.5075,0.09455,0.392962,-0.85949,-0.06076,-0.03668,0.54166
17.6016,0,0,5,5,32.6016,32.6016,-21.3346,3.09303,20.8556,0.0803282,0.0179293,0.0844772,0,1,-5.4775,-0.0175,0.1225,0.09455,0.392962,-0.85949,-0.06076,-0.03668,0.54166
19.0275,0,0,5,5,34.0275,34.0275,-21.5876,3.19714,20.8432,0.111558,0.249322,0.0360504,0,1,-6.475,0.2275,-0.1925,0.127734,0.628178,-0.90585,-0.06076,-0.03668,0.54166
19.2039,0,0,5,5,34.2039,34.2039,-21.8372,3.29953,20.8289,0.109774,0.245319,0.0343476,0,1,-6.93,0.7175,-1.12,0.127734,0.628178,-0.90585,-0.0602,-0.03626,0.53676
17.6726,0,0,5,5,32.6726,32.6726,-21.8549,3.30057,20.8265,0.0134176,0.104099,-0.15892,1,1,-6.2825,1.12,-1.68,0.030988,0.48739,-1.09751,-0.0602,-0.03626,0.53676
17.6769,0,0,5,5,32.6769,32.6769,-21.8712,3.30052,20.8239,0.0134184,0.103835,-0.159026,1,1,-5.5125,0.56,-1.995,0.030988,0.48739,-1.09751,-0.0602,-0.03626,0.53676
17.6815,0,0,5,5,32.6815,32.6815,-21.8863,3.30061,20.8211,-0.313744,-0.20478,-0.253426,1,1,-4.8475,0.7,-2.135,-0.297558,0.17934,-1.19109,-0.0602,-0.03626,0.53676
17.7094,0,0,5,5,32.7094,32.7094,-21.9036,3.30107,20.8181,-0.313752,-0.205058,-0.253538,1,1,-6.0025,0.9275,-2.1,-0.297558,0.17934,-1.19109,-0.0602,-0.03626,0.53676
17.7371,0,0,5,5,32.7371,32.7371,-21.9226,3.30142,20.8155,-0.433908,-0.22112,-0.142148,1,1,-7.035,0.7875,-1.9425,-0.418216,0.163602,-1.08043,-0.0602,-0.03626,0.53676
17.7747,0,0,5,5,32.7747,32.7747,-21.9446,3.30196,20.8138,-0.433917,-0.221475,-0.142292,1,1,-8.715,0.7,-1.4175,-0.418216,0.163602,-1.08043,-0.0602,-0.03626,0.53676
16.4256,0,0,5,5,31.4256,31.4256,-21.7835,3.37225,20.823,0.0628282,-0.174145,-0.025495,0,1,-8.6625,0.665,-1.225,0.081862,0.208254,-0.965508,-0.0602,-0.03626,0.53676
16.3047,0,0,5,5,31.3047,31.3047,-21.6234,3.44224,20.834,0.0616088,-0.171527,-0.0245311,0,1,-7.6825,0.84,-0.105,0.081862,0.208254,-0.965508,-0.06034,-0.03584,0.54586
17.513,0,0,5,5,32.513,32.513,-21.6423,3.85086,20.8347,0.36185,-0.0530797,0.135251,0,1,-6.545,0.98,0.245,0.390522,0.326716,-0.80642,-0.06034,-0.03584,0.54586
17.5261,0,0,5,5,32.5261,32.5261,-21.6608,4.25267,20.8353,0.354855,-0.0531971,0.134671,0,1,-6.545,0.98,0.245,0.390522,0.326716,-0.80642,-0.06034,-0.03584,0.54586
17.5138,0,0,5,5,32.5138,32.5138,-21.6757,4.25349,20.8359,0.328235,0.0122668,-0.0614052,1,1,-4.8125,0.35,-0.1225,0.363804,0.392352,-1.00089,-0.06034,-0.03584,0.54586
17.5261,0,0,5,5,32.5261,32.5261,-21.6906,4.2543,20.8365,0.328221,0.0120266,-0.0615019,1,1,-4.8125,0.35,-0.1225,0.363804,0.392352,-1.00089,-0.06034,-0.03584,0.54586
18.0208,0,0,5,5,33.0208,33.0208,-21.7701,4.24123,20.8314,-0.00685193,0.0868198,-0.0525315,0,1,-7.5425,-0.1925,-1.085,0.027084,0.468358,-0.991494,-0.06034,-0.03584,0.54586
18.074,0,0,5,5,33.074,33.074,-21.8481,4.2284,20.8265,-0.00662847,0.0855521,-0.053021,0,1,-7.5425,-0.1925,-1.085,0.027084,0.468358,-0.991494,-0.06034,-0.03584,0.54586
17.7068,0,0,5,5,32.7068,32.7068,-21.8686,4.22691,20.8241,-0.415402,-0.0549808,-0.093479,1,1,-7.8225,-0.245,-2.2575,-0.383446,0.328302,-1.03151,-0.06034,-0.03584,0.54586
17.7235,0,0,5,5,32.7235,32.7235,-21.8891,4.22542,20.8216,-0.415376,-0.0553122,-0.09361,1,1,-7.8225,-0.245,-2.2575,-0.383446,0.328302,-1.03151,-0.06174,-0.0413,0.53494
15.8348,0,0,5,5,30.8348,30.8348,-21.6544,4.30723,20.8378,0.0835996,-0.235402,-0.0960048,0,1,-7.63,-0.175,-2.4325,0.119072,0.14457,-1.03529,-0.06174,-0.0413,0.53494
15.6776,0,0,5,5,30.6776,30.6776,-21.4237,4.38755,20.854,0.0822017,-0.231629,-0.0946299,0,1,-7.63,-0.175,-2.4325,0.119072,0.14457,-1.03529,-0.06174,-0.0413,0.53494
17.2495,0,0,5,5,32.2495,32.2495,-21.4282,4.62266,20.8541,0.240173,-0.0129778,-0.0246322,0,1,-10.3075,1.26,-1.0325,0.28182,0.36295,-0.965508,-0.06174,-0.0413,0.53494
18.6929,0,0,5,5,33.6929,33.6929,-21.6256,4.36781,20.8399,-0.23356,0.0989882,0.160453,0,1,-9.415,1.2775,-0.4725,-0.198372,0.478118,-0.780922,-0.06174,-0.0413,0.53494
18.8159,0,0,5,5,33.8159,33.8159,-21.8182,4.11736,20.828,-0.229201,0.0957542,0.159513,0,1,-8.8025,1.0325,0.21,-0.198372,0.478118,-0.780922,-0.06174,-0.0413,0.53494
18.1041,0,0,5,5,33.1041,33.1041,-21.8948,4.42478,20.8248,0.298527,0.0375103,0.0600412,0,1,-6.65,0.945,0.49,0.336964,0.421022,-0.878766,-0.06174,-0.0413,0.53494
18.1502,0,0,5,5,33.1502,33.1502,-21.9693,4.72647,20.8209,0.293279,0.0364645,0.0591673,0,1,-6.1775,0.8225,0.14,0.336964,0.421022,-0.878766,-0.06174,-0.0413,0.53494
18.0062,0,0,5,5,33.0062,33.0062,-22.0165,4.84218,20.8187,0.109645,0.0206226,0.0191143,0,1,-7.385,0.805,-0.1925,0.154574,0.405894,-0.91805,-0.05628,-0.03402,0.53256
18.0674,0,0,5,5,33.0674,33.0674,-22.0668,4.95337,20.8156,0.107712,0.0198742,0.0186325,0,1,-9.5375,-0.315,-1.2425,0.154574,0.405894,-0.91805,-0.05628,-0.03402,0.53256
19.8257,0,0,5,5,34.8257,34.8257,-22.3471,4.99986,20.7914,0.040086,0.20102,0.142009,0,1,-9.695,-0.1575,-1.855,0.087474,0.591334,-0.793732,-0.05628,-0.03402,0.53256
18.1336,0,0,5,5,33.1336,33.1336,-22.3708,4.99871,20.7888,0.256958,-0.0729244,-0.228466,1,1,-9.5725,0,-2.31,0.305244,0.318054,-1.1612,-0.05628,-0.03402,0.53256
18.147,0,0,5,5,33.147,33.147,-22.3936,4.99807,20.7855,0.256969,-0.0732923,-0.228617,1,1,-9.1,0.42,-2.52,0.305244,0.318054,-1.1612,-0.05628,-0.03402,0.53256
18.1693,0,0,5,5,33.1693,33.1693,-22.417,4.99736,20.7825,-0.194216,-0.214725,-0.203812,1,1,-9.3975,0.315,-2.38,-0.147864,0.177144,-1.13643,-0.05628,-0.03402,0.53256
18.203,0,0,5,5,33.203,33.203,-22.4423,4.9972,20.7802,-0.194214,-0.215132,-0.20398,1,1,-10.535,0.4375,-1.8375,-0.147864,0.177144,-1.13643,-0.05628,-0.03402,0.53256
15.6535,0,0,5,5,30.6535,30.6535,-22.1234,4.83917,20.8084,-0.151132,-0.332095,0.0120262,0,1,-11.305,0.385,-1.3825,-0.10736,0.055266,-0.924394,-0.05628,-0.03402,0.53256
15.437,0,0,5,5,30.437,30.437,-21.8097,4.68579,20.8352,-0.148465,-0.327117,0.0142738,0,1,-11.0775,1.54,-0.91,-0.10736,0.055266,-0.924394,-0.06006,-0.04144,0.5299
17.7074,0,0,5,5,32.7074,32.7074,-21.8335,5.01356,20.8349,0.34174,-0.00270978,-0.00194407,0,1,-11.305,1.085,-0.5075,0.390644,0.379542,-0.939888,-0.06006,-0.04144,0.5299
17.7054,0,0,5,5,32.7054,32.7054,-21.8546,5.33525,20.8351,0.336148,-0.00286032,-0.00254995,0,1,-9.94,0.7175,-0.315,0.390644,0.379542,-0.939888,-0.06006,-0.04144,0.5299
17.7441,0,0,5,5,32.7441,32.7441,-21.8785,5.33667,20.8352,0.453479,0.114485,-0.0559435,1,1,-9.8525,0.7875,-0.2625,0.508496,0.49715,-0.992714,-0.06006,-0.04144,0.5299
17.7685,0,0,5,5,32.7685,32.7685,-21.903,5.33792,20.8352,0.453457,0.11409,-0.0561046,1,1,-10.22,0.7175,-0.35,0.508496,0.49715,-0.992714,-0.06006,-0.04144,0.5299
16.4668,0,0,5,5,31.4668,31.4668,-21.7506,5.04086,20.8509,-0.310749,-0.149861,-0.127101,0,1,-9.94,0.5775,-0.595,-0.26413,0.23119,-1.06457,-0.06006,-0.04144,0.5299
16.3729,0,0,5,5,31.3729,31.3729,-21.6019,4.74894,20.8637,-0.305672,-0.147618,-0.125741,0,1,-10.4125,1.015,-1.4875,-0.26413,0.23119,-1.06457,-0.06006,-0.04144,0.5299
16.5987,0,0,5,5,31.5987,31.5987,-21.4993,4.72528,20.8724,-0.0207411,-0.104814,-0.0892762,0,1,-10.9725,0.665,-1.5925,0.021594,0.272304,-1.02907,-0.06006,-0.04144,0.5299
16.5359,0,0,5,5,31.5359,31.5359,-21.3992,4.7008,20.8798,-0.0203152,-0.103207,-0.0886071,0,1,-11.305,0.21,-2.415,0.021594,0.272304,-1.02907,-0.06468,-0.03304,0.54054
17.0023,0,0,5,5,32.0023,32.0023,-21.3723,5.26178,20.881,0.554884,-0.115285,0.141546,0,1,-11.97,0.2625,-2.625,0.609024,0.259494,-0.800076,-0.06468,-0.03304,0.54054
16.9957,0,0,5,5,31.9957,31.9957,-21.3473,5.81521,20.8835,0.54527,-0.114541,0.140836,0,1,-12.8975,0.595,-2.0475,0.609024,0.259494,-0.800076,-0.06468,-0.03304,0.54054
19.3335,0,0,5,5,34.3335,34.3335,-21.6381,5.66975,20.8561,-0.145037,0.233369,0.1016,0,1,-13.37,0.5075,-1.2775,-0.086742,0.61183,-0.837408,-0.06468,-0.03304,0.54054
19.5225,0,0,5,5,34.5225,34.5225,-21.923,5.52725,20.8301,-0.142561,0.228684,0.0999893,0,1,-12.9675,0.77,-1.015,-0.086742,0.61183,-0.837408,-0.06468,-0.03304,0.54054
17.8476,0,0,5,5,32.8476,32.8476,-21.953,5.52858,20.8305,0.0984431,0.217577,-0.0825401,1,1,-13.2825,0.6825,-0.14,0.155306,0.601216,-1.01833,-0.06468,-0.03304,0.54054
17.8719,0,0,5,5,32.8719,32.8719,-21.983,5.52992,20.8308,0.09842,0.217094,-0.0827371,1,1,-13.2825,0.6825,-0.14,0.155306,0.601216,-1.01833,-0.06468,-0.03304,0.54054
17.8851,0,0,5,5,32.8851,32.8851,-22.0115,5.53186,20.832,0.426033,-0.00734427,-0.152023,1,1,-12.495,0.8225,0.4725,0.48434,0.377468,-1.0869,-0.06468,-0.03304,0.54054
17.9083,0,0,5,5,32.9083,32.9083,-22.04,5.53381,20.8332,0.425999,-0.00780213,-0.152211,1,1,-12.495,0.8225,0.4725,0.48434,0.377468,-1.0869,-0.0616,-0.03248,0.53228
18.1433,0,0,5,5,33.1433,33.1433,-22.0969,5.66519,20.8303,0.123769,0.0148145,0.0338457,0,1,-12.53,0.3325,-0.5775,0.183122,0.400892,-0.901702,-0.0616,-0.03248,0.53228
18.1818,0,0,5,5,33.1818,33.1818,-22.1528,5.79425,20.8274,0.121528,0.0139999,0.0332718,0,1,-12.53,0.3325,-0.5775,0.183122,0.400892,-0.901702,-0.0616,-0.03248,0.53228
18.0372,0,0,5,5,33.0372,33.0372,-22.1833,5.79355,20.8254,0.0447609,0.264846,-0.232373,1,1,-13.44,0.0875,-1.82,0.106018,0.651968,-1.1651,-0.0616,-0.03248,0.53228
18.062,0,0,5,5,33.062,33.062,-22.2138,5.79286,20.8234,0.0447729,0.264355,-0.232572,1,1,-13.44,0.0875,-1.82,0.106018,0.651968,-1.1651,-0.0616,-0.03248,0.53228
18.1109,0,0,5,5,33.1109,33.1109,-22.2475,5.7925,20.8209,-0.275457,-0.225672,-0.264022,1,1,-15.225,0.4025,-2.065,-0.215574,0.162992,-1.19609,-0.0616,-0.03248,0.53228
18.5155,0,0,5,5,33.5155,33.5155,-22.3318,5.82772,20.8125,0.0286175,0.0298302,0.0520809,0,1,-14.6475,1.155,-2.1525,0.090402,0.419558,-0.881816,-0.0616,-0.03248,0.53228
18.5719,0,0,5,5,33.5719,33.5719,-22.4146,5.86294,20.8058,0.028006,0.0285255,0.0514761,0,1,-14.7175,1.155,-1.155,0.090402,0.419558,-0.881816,-0.0616,-0.03248,0.53228
18.2684,0,0,5,5,33.2684,33.2684,-22.4478,5.86496,20.8041,0.173875,-0.191712,-0.225258,1,1,-14.9625,1.505,-1.0675,0.236924,0.20008,-1.15619,-0.06496,-0.02562,0.53998
18.321,0,0,5,5,33.321,33.321,-22.4844,5.86737,20.803,0.173833,-0.192298,-0.225505,1,1,-16.9225,1.575,-0.6475,0.236924,0.20008,-1.15619,-0.06496,-0.02562,0.53998
16.9756,0,0,5,5,31.9756,31.9756,-22.3369,5.36431,20.8211,-0.529456,-0.191112,-0.0373442,0,1,-17.1325,0.8575,-0.3325,-0.478118,0.199226,-0.971242,-0.06496,-0.02562,0.53998
18.3669,0,0,5,5,33.3669,33.3669,-22.3914,5.61671,20.8191,0.234434,-0.0103478,0.067395,0,1,-17.185,0.875,-0.4025,0.29341,0.380518,-0.866566,-0.06496,-0.02562,0.53998
18.394,0,0,5,5,33.394,33.394,-22.4438,5.86407,20.8163,0.230138,-0.0110229,0.0666494,0,1,-16.38,0.7,-0.98,0.29341,0.380518,-0.866566,-0.06496,-0.02562,0.53998
17.7875,0,0,5,5,32.7875,32.7875,-22.4092,5.63322,20.8218,-0.228592,-0.0555647,-0.0420498,0,1,-14.9625,0.49,-1.3125,-0.171288,0.335622,-0.975024,-0.06496,-0.02562,0.53998
17.7626,0,0,5,5,32.7626,32.7626,-22.375,5.40656,20.8254,-0.224654,-0.0551596,-0.0414713,0,1,-14.7,0.91,-2.0475,-0.171288,0.335622,-0.975024,-0.06496,-0.02562,0.53998
16.5892,0,0,5,5,31.5892,31.5892,-22.1872,5.36959,20.8431,-0.038017,-0.206043,-0.066858,0,1,-15.5575,0.91,-2.2575,0.015494,0.181902,-1.0015,-0.06496,-0.02562,0.53998
16.4935,0,0,5,5,31.4935,31.4935,-22.0067,5.33247,20.86,-0.0373719,-0.203159,-0.065622,0,1,-17.745,0.56,-2.555,0.015494,0.181902,-1.0015,-0.06412,-0.02492,0.5348
18.4269,0,0,5,5,33.4269,33.4269,-22.1044,5.42192,20.8511,0.0846246,0.0427504,0.0422912,0,1,-18.1125,0.49,-2.5725,0.139568,0.429074,-0.89365,-0.06412,-0.02492,0.5348
18.493,0,0,5,5,33.493,33.493,-22.2004,5.5102,20.8425,0.0830908,0.0412601,0.041526,0,1,-18.1475,0.6475,-2.2925,0.139568,0.429074,-0.89365,-0.06412,-0.02492,0.5348
18.948,0,0,5,5,33.948,33.948,-22.3471,5.26933,20.8297,-0.24438,0.116058,0.00318031,0,1,-18.3575,1.05,-1.995,-0.193492,0.5063,-0.931104,-0.06412,-0.02492,0.5348
19.056,0,0,5,5,34.056,34.056,-22.4925,5.03357,20.8182,-0.240282,0.113582,0.00255813,0,1,-19.145,1.4175,-1.3825,-0.193492,0.5063,-0.931104,-0.06412,-0.02492,0.5348
18.4066,0,0,5,5,33.4066,33.4066,-22.5352,5.03548,20.8166,-0.0102209,0.154297,-0.0638756,1,1,-20.3525,1.4175,-1.0325,0.037576,0.547658,-0.99674,-0.06412,-0.02492,0.5348
18.4559,0,0,5,5,33.4559,33.4559,-22.58,5.0368,20.8157,-0.0102439,0.153579,-0.064176,1,1,-21.49,0.945,-0.7875,0.037576,0.547658,-0.99674,-0.06412,-0.02492,0.5348
18.4892,0,0,5,5,33.4892,33.4892,-22.6244,5.03817,20.8153,0.320781,-0.222183,-0.121154,1,1,-21.2975,0.875,-0.56,0.370026,0.172996,-1.05298,-0.06412,-0.02492,0.5348
18.5127,0,0,5,5,33.5127,33.5127,-22.6671,5.0396,20.8143,0.320756,-0.222868,-0.121442,1,1,-20.3525,1.015,-0.7875,0.370026,0.172996,-1.05298,-0.05936,-0.02464,0.5313
18.2704,0,0,5,5,33.2704,33.2704,-22.6727,4.71961,20.8163,-0.336748,-0.0106413,-0.0722305,0,1,-19.1625,1.05,-0.875,-0.29585,0.385276,-1.00455,-0.05936,-0.02464,0.5313
18.2651,0,0,5,5,33.2651,33.2651,-22.677,4.4047,20.8163,-0.331269,-0.0108784,-0.0718558,0,1,-18.3575,1.2775,-1.925,-0.29585,0.385276,-1.00455,-0.05936,-0.02464,0.5313
18.5381,0,0,5,5,33.5381,33.5381,-22.7173,4.40541,20.8129,0.0114294,-0.0739325,-0.278681,1,1,-18.9175,1.19,-2.2925,0.048312,0.322934,-1.20951,-0.05936,-0.02464,0.5313
18.6012,0,0,5,5,33.6012,33.6012,-22.7618,4.4059,20.8091,0.0114209,-0.0746452,-0.27898,1,1,-21.1925,1.1375,-2.5025,0.048312,0.322934,-1.20951,-0.05936,-0.02464,0.5313
16.4396,0,0,5,5,31.4396,31.4396,-22.5119,4.3777,20.8282,-0.0285433,-0.275575,-0.135144,0,1,-22.26,1.2075,-2.38,0.007686,0.118218,-1.06848,-0.05936,-0.02464,0.5313
16.2792,0,0,5,5,31.2792,31.2792,-22.2673,4.35037,20.8477,-0.0280676,-0.271652,-0.133488,0,1,-22.8375,1.26,-1.8025,0.007686,0.118218,-1.06848,-0.05936,-0.02464,0.5313
18.2738,0,0,5,5,33.2738,33.2738,-22.3159,4.35252,20.846,0.39673,-0.0256169,-0.118936,1,1,-23.66,1.575,-1.05,0.43432,0.36478,-1.05371,-0.05936,-0.02464,0.5313
18.3207,0,0,5,5,33.3207,33.3207,-22.3656,4.35566,20.8448,0.396676,-0.0264152,-0.119268,1,1,-24.255,1.995,-0.56,0.43432,0.36478,-1.05371,-0.06006,-0.02478,0.53158
18.3586,0,0,5,5,33.3586,33.3586,-22.415,4.35949,20.8447,-0.182027,-0.0187812,-0.16128,1,1,-24.1325,2.135,0.175,-0.146766,0.373198,-1.09507,-0.06006,-0.02478,0.53158
18.3984,0,0,5,5,33.3984,33.3984,-22.4644,4.36332,20.8446,-0.182094,-0.0195738,-0.161613,1,1,-24.1325,2.135,0.175,-0.146766,0.373198,-1.09507,-0.06006,-0.02478,0.53158
18.4429,0,0,5,5,33.4429,33.4429,-22.5144,4.36477,20.845,-0.23205,-0.232633,0.20407,1,1,-24.5,0.7175,-0.0525,-0.196908,0.161162,-0.731878,-0.06006,-0.02478,0.53158
18.4832,0,0,5,5,33.4832,33.4832,-22.5644,4.36622,20.8454,-0.232075,-0.233436,0.203735,1,1,-24.5,0.7175,-0.0525,-0.196908,0.161162,-0.731878,-0.06006,-0.02478,0.53158
18.5216,0,0,5,5,33.5216,33.5216,-22.6141,4.36657,20.844,0.360162,-0.0150179,-0.0380687,1,1,-24.2725,0.5425,-1.295,0.397842,0.380152,-0.971486,-0.06006,-0.02478,0.53158
18.5617,0,0,5,5,33.5617,33.5617,-22.6639,4.36692,20.8426,0.360156,-0.0158166,-0.0384023,1,1,-24.2725,0.5425,-1.295,0.397842,0.380152,-0.971486,-0.06006,-0.02478,0.53158
18.6077,0,0,5,5,33.6077,33.6077,-22.7144,4.36772,20.8387,-0.359904,0.0727695,-0.204846,1,1,-24.605,1.33,-2.5025,-0.325252,0.469456,-1.13631,-0.06006,-0.02478,0.53158
18.6484,0,0,5,5,33.6484,33.6484,-22.7649,4.36851,20.8348,-0.359918,0.0719591,-0.205187,1,1,-24.605,1.33,-2.5025,-0.325252,0.469456,-1.13631,-0.06006,-0.02478,0.53158
18.7039,0,0,5,5,33.7039,33.7039,-22.8174,4.36977,20.8313,-0.0123691,-0.159458,-0.168903,1,0,-25.725,1.505,-2.205,0.02379,0.23912,-1.09995,-0.06608,-0.02128,0.52822
18.7546,0,0,5,5,33.7546,33.7546,-22.871,4.37193,20.8275,-0.306888,0.35225,-0.165334,1,0,-26.3375,2.065,-2.17,-0.271938,0.751154,-1.09605,-0.06608,-0.02128,0.52822
18.7978,0,0,5,5,33.7978,33.7978,-22.9246,4.37409,20.8237,-0.306926,0.351391,-0.165699,1,0,-26.3375,2.065,-2.17,-0.271938,0.751154,-1.09605,-0.06608,-0.02128,0.52822
18.8824,0,0,5,5,33.8824,33.8824,-22.9838,4.37739,20.8201,0.0551658,-0.0188659,-0.409543,1,0,-29.4525,2.625,-1.7675,0.091744,0.382226,-1.33761,-0.06608,-0.02128,0.52822
18.93,0,0,5,5,33.93,33.93,-23.0429,4.38069,20.8165,0.0551084,-0.0198115,-0.409949,1,0,-29.4525,2.625,-1.7675,0.091744,0.382226,-1.33761,-0.06608,-0.02128,0.52822
19.0038,0,0,5,5,34.0038,34.0038,-23.1056,4.38202,20.8145,0.185804,-0.14233,0.0992433,1,0,-31.4825,1.2075,-1.3825,0.223016,0.260836,-0.831918,-0.06608,-0.02128,0.52822
19.0543,0,0,5,5,34.0543,34.0543,-23.1682,4.38334,20.8125,0.185781,-0.143332,0.0988133,1,0,-31.4825,1.2075,-1.3825,0.223016,0.260836,-0.831918,-0.06608,-0.02128,0.52822
19.0643,0,0,5,5,34.0643,34.0643,-23.2254,4.38271,20.8096,-0.171741,-0.129836,0.0773977,1,0,-28.4025,0.3675,-2.3275,-0.13603,0.275232,-0.85278,-0.06608,-0.02128,0.52822
19.1104,0,0,5,5,34.1104,34.1104,-23.2827,4.38208,20.8066,-0.17173,-0.130752,0.0770053,1,0,-28.4025,0.3675,-2.3275,-0.13603,0.275232,-0.85278,-0.05908,-0.01666,0.52738
19.126,0,0,5,5,34.126,34.126,-23.3358,4.38213,20.8009,0.036982,-0.0825057,-0.217453,1,0,-25.9875,1.3825,-3.6575,0.073566,0.324276,-1.1446,-0.05908,-0.01666,0.52738
19.3805,0,0,5,5,34.3805,34.3805,-23.4173,4.33828,21.1255,-0.0593219,0.0321901,-0.00612234,0,0,-29.085,2.415,-3.5875,-0.023912,0.440176,-0.934398,-0.05908,-0.01666,0.52738
19.4491,0,0,5,5,34.4491,34.4491,-23.4991,4.29361,21.4529,-0.0585446,0.0308594,-0.00663584,0,0,-30.2225,1.295,-3.325,-0.023912,0.440176,-0.934398,-0.05908,-0.01666,0.52738
19.3699,0,0,5,5,34.3699,34.3699,-23.5616,4.29375,21.4479,0.0582008,0.193024,-0.327843,1,0,-31.255,1.26,-3.22,0.09333,0.603168,-1.2527,-0.05908,-0.01666,0.52738
19.43,0,0,5,5,34.43,34.43,-23.6254,4.29439,21.4429,0.0581896,0.192007,-0.328288,1,0,-31.99,1.54,-3.115,0.09333,0.603168,-1.2527,-0.05908,-0.01666,0.52738
19.4854,0,0,5,5,34.4854,34.4854,-23.6897,4.29587,21.439,-0.190153,-0.156101,0.343298,1,0,-32.34,1.75,-2.3625,-0.156038,0.256444,-0.585844,-0.05908,-0.01666,0.52738
19.5704,0,0,5,5,34.5704,34.5704,-23.7584,4.29961,21.4361,-0.190218,-0.157195,0.342812,1,0,-34.8775,2.7125,-1.26,-0.156038,0.256444,-0.585844,-0.05908,-0.01666,0.52738
19.6332,0,0,5,5,34.6332,34.6332,-23.8282,4.30185,21.4341,0.45058,0.0156038,-0.104475,1,0,-35.4725,1.6975,-1.1375,0.487512,0.430172,-1.02919,-0.05852,-0.0224,0.52892
17.5356,0,0,5,5,32.5356,32.5356,-23.6095,4.17598,21.8487,-0.251239,-0.229382,-0.100337,0,0,-36.505,0.7525,-0.735,-0.219478,0.182024,-1.02675,-0.05852,-0.0224,0.52892
17.3671,0,0,5,5,32.3671,32.3671,-23.3916,4.05106,22.2623,-0.249064,-0.225966,-0.0986806,0,0,-34.965,1.2425,-0.665,-0.219478,0.182024,-1.02675,-0.05852,-0.0224,0.52892
16.166,0,0,5,5,31.166,31.166,-23.0362,4.29136,22.1829,0.2412,-0.44182,-0.0574246,0,0,-33.3025,1.435,-1.155,0.277062,-0.039406,-0.987956,-0.05852,-0.0224,0.52892
15.9142,0,0,5,5,30.9142,30.9142,-22.6851,4.52755,22.1028,0.23709,-0.436066,-0.0553429,0,0,-32.7075,1.75,-2.31,0.277062,-0.039406,-0.987956,-0.05852,-0.0224,0.52892
16.8641,0,0,5,5,31.8641,31.8641,-22.4987,4.36619,22.5466,-0.296705,-0.186339,-0.120165,0,0,-33.18,2.415,-2.5025,-0.261812,0.207156,-1.05371,-0.05852,-0.0224,0.52892
16.7469,0,0,5,5,31.7469,31.7469,-22.3166,4.20561,22.9905,-0.29391,-0.183488,-0.118763,0,0,-33.9325,2.2225,-1.9775,-0.261812,0.207156,-1.05371,-0.05852,-0.0224,0.52892
18.4721,0,0,5,5,33.4721,33.4721,-22.385,4.20746,22.9876,0.365725,-0.0131229,-0.22397,1,1,-34.685,1.6625,-1.7325,0.400648,0.378444,-1.15766,-0.06244,-0.01596,0.53438
18.5554,0,0,5,5,33.5554,33.5554,-22.4572,4.21006,22.9844,-0.675939,0.345624,-0.236993,1,1,-36.785,2.17,-1.785,-0.64538,0.737978,-1.1701,-0.06244,-0.01596,0.53438
18.6292,0,0,5,5,33.6292,33.6292,-22.5315,4.21376,22.9818,-0.676003,0.344431,-0.237493,1,1,-37.9925,2.6075,-1.1725,-0.64538,0.737978,-1.1701,-0.06244,-0.01596,0.53438
18.6936,0,0,5,5,33.6936,33.6936,-22.6064,4.21721,22.9805,0.315746,-0.0941069,-0.358364,1,1,-38.395,2.1875,-0.525,0.350628,0.301096,-1.28954,-0.06244,-0.01596,0.53438
18.7756,0,0,5,5,33.7756,33.7756,-22.6843,4.2189,22.98,0.315717,-0.0953563,-0.358887,1,1,-40.0575,1.05,-0.49,0.350628,0.301096,-1.28954,-0.06244,-0.01596,0.53438
18.8532,0,0,5,5,33.8532,33.8532,-22.7641,4.22135,22.9789,0.210954,-0.304252,0.327978,1,1,-41.16,1.61,-0.665,0.245464,0.093696,-0.607438,-0.06244,-0.01596,0.53438
18.9156,0,0,5,5,33.9156,33.9156,-22.8437,4.22208,22.9781,0.210941,-0.305529,0.32744,1,1,-41.0375,0.595,-0.84,0.245464,0.093696,-0.607438,-0.06244,-0.01596,0.53438
18.231,0,0,5,5,33.231,33.231,-22.823,4.31532,22.9847,0.104233,-0.0742087,-0.101622,0,1,-40.9675,0.3325,-1.015,0.139934,0.324398,-1.03322,-0.06244,-0.01596,0.53438
18.2436,0,0,5,5,33.2436,33.2436,-22.8062,4.39244,23.1295,0.102891,-0.0738993,-0.101603,0,0,-39.4625,0.805,-2.45,0.139934,0.324398,-1.03322,-0.0623,-0.0035,0.53396
18.9334,0,0,5,5,33.9334,33.9334,-22.8835,4.3939,23.1242,0.318381,-0.0951673,0.284054,1,0,-39.5675,2.03,-3.1325,0.356362,0.30439,-0.650016,-0.0623,-0.0035,0.53396
18.9956,0,0,5,5,33.9956,33.9956,-22.9608,4.39536,23.1188,0.318356,-0.0964058,0.283529,1,0,-39.5675,2.03,-3.1325,0.356362,0.30439,-0.650016,-0.0623,-0.0035,0.53396
19.0514,0,0,5,5,34.0514,34.0514,-23.0373,4.39721,23.1136,0.250534,0.0367096,-0.341449,1,0,-39.095,2.2225,-2.9925,0.288286,0.43859,-1.26965,-0.0623,-0.0035,0.53396
19.113,0,0,5,5,34.113,34.113,-23.1138,4.39905,23.1084,0.250502,0.0354863,-0.341973,1,0,-39.095,2.2225,-2.9925,0.288286,0.43859,-1.26965,-0.0623,-0.0035,0.53396
19.2269,0,0,5,5,34.2269,34.2269,-23.1973,4.40106,23.1016,-0.365587,-0.184944,-0.245909,1,0,-42.9625,2.6775,-3.78,-0.330376,0.219722,-1.17376,-0.0623,-0.0035,0.53396
19.294,0,0,5,5,34.294,34.294,-23.2807,4.40307,23.0948,-0.365622,-0.186278,-0.246485,1,0,-42.9625,2.6775,-3.78,-0.330376,0.219722,-1.17376,-0.0623,-0.0035,0.53396
19.4131,0,0,5,5,34.4131,34.4131,-23.3712,4.40618,23.0889,-0.185755,-0.146687,0.170298,1,0,-46.9,3.0625,-3.0275,-0.149694,0.260714,-0.759572,-0.0623,-0.0035,0.53396
19.4858,0,0,5,5,34.4858,34.4858,-23.4616,4.40928,23.083,-0.185809,-0.148129,0.169669,1,0,-46.9,3.0625,-3.0275,-0.149694,0.260714,-0.759572,-0.06118,-0.01036,0.50512
18.4234,0,0,5,5,33.4234,33.4234,-23.4001,4.57357,23.1234,0.210656,-0.160491,-0.0730572,0,0,-46.9875,1.5575,-3.1325,0.25132,0.247294,-1.00064,-0.06118,-0.01036,0.50512
18.3807,0,0,5,5,33.3807,33.3807,-23.3393,4.73556,23.1643,0.207838,-0.15943,-0.0728487,0,0,-46.9875,1.5575,-3.1325,0.25132,0.247294,-1.00064,-0.06118,-0.01036,0.50512
19.4417,0,0,5,5,34.4417,34.4417,-23.4271,4.73411,23.1596,0.0561272,-0.237773,0.0820768,1,0,-45.465,0.3325,-3.43,0.098942,0.170434,-0.846314,-0.06118,-0.01036,0.50512
19.5123,0,0,5,5,34.5123,34.5123,-23.5149,4.73266,23.155,0.0561525,-0.239174,0.0814704,1,0,-45.465,0.3325,-3.43,0.098942,0.170434,-0.846314,-0.06118,-0.01036,0.50512
19.6055,0,0,5,5,34.6055,34.6055,-23.6058,4.73502,23.1481,0.140787,-0.125822,0.23698,1,0,-47.0575,2.8875,-3.6925,0.183976,0.285114,-0.691374,-0.06118,-0.01036,0.50512
19.6504,0,0,5,5,34.6504,34.6504,-23.6929,4.73721,23.1419,0.0173193,-0.231016,-0.30989,1,0,-44.975,2.6775,-3.43,0.060024,0.181414,-1.23342,-0.06118,-0.01036,0.50512
19.736,0,0,5,5,34.736,34.736,-23.782,4.73836,23.1361,0.0172993,-0.232435,-0.310516,1,0,-46.165,2.0125,-3.43,0.060024,0.181414,-1.23342,-0.06118,-0.01036,0.50512
19.8116,0,0,5,5,34.8116,34.8116,-23.8717,4.73922,23.1304,-0.144534,-0.29065,0.118312,1,0,-46.4625,1.82,-3.4125,-0.10248,0.124684,-0.807274,-0.06118,-0.01036,0.50512
19.9538,0,0,5,5,34.9538,34.9538,-23.9708,4.74355,23.1251,-0.14461,-0.292223,0.117607,1,0,-51.7475,3.605,-2.3975,-0.10248,0.124684,-0.807274,-0.06174,-0.0063,0.52248
20.0525,0,0,5,5,35.0525,35.0525,-24.0724,4.74855,23.1202,-0.372361,-0.11956,-0.331512,1,0,-53.2,3.8675,-2.0125,-0.331108,0.298778,-1.25221,-0.06174,-0.0063,0.52248
20.1524,0,0,5,5,35.1524,35.1524,-24.1765,4.75153,23.1176,-0.372413,-0.12121,-0.332256,1,0,-54.67,2.24,-1.2775,-0.331108,0.298778,-1.25221,-0.06174,-0.0063,0.52248
16.0309,0,0,5,5,31.0309,31.0309,-23.7173,5.02573,22.9167,0.27301,-0.624848,-0.0265658,0,0,-54.5475,2.695,-1.2075,0.321836,-0.211792,-0.951722,-0.06174,-0.0063,0.52248
15.6952,0,0,5,5,30.6952,30.6952,-23.2624,5.294,22.7194,0.268347,-0.617428,-0.0238,0,0,-53.7075,1.54,-1.19,0.321836,-0.211792,-0.951722,-0.06174,-0.0063,0.52248
19.4875,0,0,5,5,34.4875,34.4875,-23.3641,5.29541,22.7171,-0.0370924,-0.151548,0.417867,1,0,-53.3225,1.33,-1.54,0.015128,0.255224,-0.512766,-0.06174,-0.0063,0.52248
19.562,0,0,5,5,34.562,34.562,-23.4648,5.2981,22.7123,-0.0371391,-0.153152,0.417168,1,0,-52.6575,2.5725,-2.5025,0.015128,0.255224,-0.512766,-0.06174,-0.0063,0.52248
20.1891,0,0,5,5,35.1891,35.1891,-23.6386,5.048,23.2737,-0.329581,0.0449408,0.146081,0,0,-52.71,3.0275,-2.625,-0.282918,0.456036,-0.780922,-0.06174,-0.0063,0.52248
20.2669,0,0,5,5,35.2669,35.2669,-23.8042,4.80208,23.809,-0.325305,0.0421563,0.14526,0,0,-50.4525,2.8175,-1.6975,-0.282918,0.456036,-0.780922,-0.06944,0.01904,0.5278
19.8772,0,0,5,5,34.8772,34.8772,-23.8998,4.80491,23.8063,0.1239,-0.0816118,0.155649,1,0,-49.9275,2.1875,-1.3825,0.168238,0.333914,-0.769942,-0.06944,0.01904,0.5278
19.9852,0,0,5,5,34.9852,34.9852,-23.9996,4.80839,23.803,0.123839,-0.0831958,0.154939,1,0,-52.2375,2.6775,-1.54,0.168238,0.333914,-0.769942,-0.06944,0.01904,0.5278
20.1024,0,0,5,5,35.1024,35.1024,-24.1044,4.81244,23.799,0.474619,-0.174132,-0.3767,1,0,-54.985,3.1325,-1.7325,0.520574,0.244732,-1.29674,-0.06944,0.01904,0.5278
20.2328,0,0,5,5,35.2328,35.2328,-24.2153,4.81679,23.7949,0.474544,-0.175889,-0.377495,1,0,-58.45,3.3425,-1.7675,0.520574,0.244732,-1.29674,-0.06944,0.01904,0.5278
20.341,0,0,5,5,35.341,35.341,-24.3288,4.8205,23.7916,-0.524376,-0.244246,-0.507777,1,0,-59.92,2.8175,-1.4875,-0.48251,0.178242,-1.4252,-0.06944,0.01904,0.5278
20.4322,0,0,5,5,35.4322,35.4322,-24.4423,4.82421,23.7882,-0.524441,-0.246041,-0.508597,1,0,-59.92,2.8175,-1.4875,-0.48251,0.178242,-1.4252,-0.06944,0.01904,0.5278
20.5234,0,0,5,5,35.5234,35.5234,-24.5558,4.8267,23.7845,0.234316,-0.295587,0.191265,1,0,-59.9025,2.2575,-1.9775,0.279502,0.13054,-0.729926,-0.06944,0.01904,0.5278
20.6302,0,0,5,5,35.6302,35.6302,-24.6714,4.82849,23.781,-0.172085,-0.209361,0.152188,1,0,-61.0925,1.82,-1.995,-0.128588,0.218502,-0.767868,-0.0637,0.02548,0.5271
20.7301,0,0,5,5,35.7301,35.7301,-24.7879,4.82829,23.7749,-0.172082,-0.211202,0.151341,1,0,-61.495,1.435,-3.92,-0.128588,0.218502,-0.767868,-0.0637,0.02548,0.5271
20.8313,0,0,5,5,35.8313,35.8313,-24.9055,4.82971,23.7674,0.128206,-0.111935,0.297526,1,0,-62.0025,2.6075,-4.1825,0.172996,0.319518,-0.621956,-0.0637,0.02548,0.5271
20.877,0,0,5,5,35.877,35.877,-25.0165,4.83126,23.7603,-0.25523,-0.299073,-0.489669,1,0,-58.3625,2.6075,-3.9725,-0.212036,0.134322,-1.40227,-0.0637,0.02548,0.5271
20.9469,0,0,5,5,35.9469,35.9469,-25.125,4.83408,23.7518,-0.255279,-0.30078,-0.490472,1,0,-56.84,3.64,-4.41,-0.212036,0.134322,-1.40227,-0.0637,0.02548,0.5271
21.06,0,0,5,5,36.06,36.06,-25.2369,4.8364,23.7427,0.852266,-0.340765,-0.243685,1,0,-58.765,3.5175,-4.8125,0.900238,0.096136,-1.15656,-0.0637,0.02548,0.5271
21.2236,0,0,5,5,36.2236,36.2236,-25.3587,4.83853,23.7327,0.852229,-0.342679,-0.244593,1,0,-64.26,3.64,-5.3025,0.900238,0.096136,-1.15656,-0.0637,0.02548,0.5271
21.355,0,0,5,5,36.355,36.355,-25.485,4.84101,23.7229,-0.299377,0.0535944,-0.412749,1,0,-66.78,3.815,-5.18,-0.2562,0.493978,-1.32248,-0.0637,0.02548,0.5271
21.4763,0,0,5,5,36.4763,36.4763,-25.6139,4.84325,23.7154,-0.299416,0.0515726,-0.413719,1,0,-68.39,3.0975,-3.955,-0.2562,0.493978,-1.32248,-0.06608,0.02828,0.5243
21.5804,0,0,5,5,36.5804,36.5804,-25.7429,4.84633,23.7078,-0.646676,-0.361893,-0.0701941,1,0,-68.425,3.5875,-3.8325,-0.604876,0.08296,-0.980636,-0.06608,0.02828,0.5243
21.664,0,0,5,5,36.664,36.664,-25.8693,4.84856,23.7005,-0.646714,-0.363869,-0.0711536,1,0,-66.9375,3.045,-3.8325,-0.604876,0.08296,-0.980636,-0.06608,0.02828,0.5243
21.7663,0,0,5,5,36.7663,36.7663,-25.9957,4.84923,23.6937,0.194198,-0.0166865,0.234148,1,0,-67.025,2.1175,-3.99,0.239608,0.431758,-0.676734,-0.06608,0.02828,0.5243
21.9003,0,0,5,5,36.9003,36.9003,-26.1265,4.84941,23.6869,0.194195,-0.0187298,0.233149,1,0,-69.4575,1.8725,-4.1125,0.239608,0.431758,-0.676734,-0.06608,0.02828,0.5243
22.0037,0,0,5,5,37.0037,37.0037,-26.2571,4.85067,23.6798,-0.343766,-0.137154,0.15186,1,0,-69.3175,2.5375,-4.025,-0.300608,0.315492,-0.7564,-0.06608,0.02828,0.5243
22.1002,0,0,5,5,37.1002,37.1002,-26.3866,4.85263,23.6721,-0.3438,-0.13917,0.150859,1,0,-68.67,3.045,-4.095,-0.300608,0.315492,-0.7564,-0.06608,0.02828,0.5243
22.1612,0,0,5,5,37.1612,37.1612,-26.5103,4.85516,23.6649,0.795449,-0.208509,0.155061,1,0,-65.4675,3.22,-3.675,0.843508,0.248148,-0.751276,-0.06608,0.02828,0.5243
22.2606,0,0,5,5,37.2606,37.2606,-26.634,4.85768,23.6578,0.795405,-0.210432,0.154095,1,0,-65.4675,3.22,-3.675,0.843508,0.248148,-0.751276,-0.06524,0.04312,0.51492
22.4144,0,0,5,5,37.4144,37.4144,-26.765,4.86263,23.6497,0.298807,0.0239739,-0.398236,1,0,-69.51,4.725,-3.4825,0.344894,0.48434,-1.29832,-0.06524,0.04312,0.51492
22.5196,0,0,5,5,37.5196,37.5196,-26.896,4.86756,23.6417,0.298721,0.0219442,-0.399271,1,0,-69.51,4.725,-3.4825,0.344894,0.48434,-1.29832,-0.06524,0.04312,0.51492
22.739,0,0,5,5,37.739,37.739,-27.0423,4.87238,23.6355,0.0584603,-0.121743,-0.523257,1,0,-78.1725,4.2,-2.555,0.1037,0.343064,-1.4202,-0.06524,0.04312,0.51492
22.8493,0,0,5,5,37.8493,37.8493,-27.1877,4.8765,23.6303,-0.47299,-0.207158,-0.556749,1,0,-77.6825,3.5525,-2.1875,-0.429928,0.259982,-1.45229,-0.06524,0.04312,0.51492
22.9392,0,0,5,5,37.9392,37.9392,-27.3294,4.88047,23.6258,-0.473059,-0.209347,-0.557884,1,0,-75.705,3.29,-1.855,-0.429928,0.259982,-1.45229,-0.06524,0.04312,0.51492
23.062,0,0,5,5,38.062,38.062,-27.4724,4.88388,23.6204,0.371329,-0.801668,-0.180351,1,0,-76.335,3.255,-2.485,0.418094,-0.329522,-1.07653,-0.06524,0.04312,0.51492
23.2054,0,0,5,5,38.2054,38.2054,-27.6192,4.88711,23.6154,-0.145041,-0.149818,0.104811,1,0,-78.505,3.08,-2.345,-0.100406,0.32391,-0.79239,-0.06524,0.04312,0.51492
23.3457,0,0,5,5,38.3457,38.3457,-27.7689,4.88818,23.6125,-0.420589,-0.453899,0.107534,1,0,-80.29,1.365,-1.8025,-0.377102,0.022448,-0.788486,-0.06692,0.05656,0.52626
23.4565,0,0,5,5,38.4565,38.4565,-27.9175,4.88948,23.6097,0.0609572,-0.197151,0.526072,1,0,-79.59,1.4525,-1.6625,0.106506,0.28121,-0.371978,-0.06692,0.05656,0.52626
23.4948,0,0,5,5,38.4948,38.4948,-28.0552,4.8911,23.6064,0.00820429,-0.505558,-0.39225,1,0,-73.4825,1.7675,-1.855,0.053558,-0.024766,-1.2821,-0.06692,0.05656,0.52626
23.5835,0,0,5,5,38.5835,38.5835,-28.1899,4.89497,23.6001,0.00813692,-0.507622,-0.393359,1,0,-71.6975,3.78,-2.8,0.053558,-0.024766,-1.2821,-0.06692,0.05656,0.52626
23.7397,0,0,5,5,38.7397,38.7397,-28.3311,4.90183,23.5913,0.165342,0.229575,0.0611163,1,0,-75.18,6.0025,-3.22,0.211548,0.713822,-0.829966,-0.06692,0.05656,0.52626
23.9847,0,0,5,5,38.9847,38.9847,-28.4899,4.906,23.5841,0.165269,0.227149,0.0597968,1,0,-85.1375,4.1825,-3.1325,0.211548,0.713822,-0.829966,-0.06692,0.05656,0.52626
24.1296,0,0,5,5,39.1296,39.1296,-28.6511,4.90877,23.5769,-0.524332,0.178038,-0.351088,1,0,-86.45,3.4475,-3.4825,-0.480924,0.667218,-1.23635,-0.06692,0.05656,0.52626
24.2883,0,0,5,5,39.2883,39.2883,-28.8161,4.90985,23.5695,-0.524351,0.175522,-0.35247,1,0,-88.6375,2.66,-4.0775,-0.480924,0.667218,-1.23635,-0.06692,0.05656,0.52626
22.6733,0,0,5,5,37.6733,37.6733,-28.7472,5.18704,23.2856,0.449033,-0.348734,-0.0350585,0,0,-87.325,3.99,-4.1825,0.50142,0.142252,-0.921588,-0.06216,0.06958,0.52486
22.6412,0,0,5,5,37.6412,37.6412,-28.6812,5.46174,23.0011,0.444259,-0.347515,-0.0348982,0,0,-89.075,4.8125,-4.235,0.50142,0.142252,-0.921588,-0.06216,0.06958,0.52486
24.3351,0,0,5,5,39.3351,39.3351,-28.8492,5.46508,22.9915,0.147533,-0.35581,0.439749,1,0,-90.09,4.445,-4.5675,0.203496,0.136518,-0.449204,-0.06216,0.06958,0.52486
24.5035,0,0,5,5,39.5035,39.5035,-29.0216,5.46493,22.9844,0.147536,-0.358432,0.4383,1,0,-92.75,1.9425,-4.235,0.203496,0.136518,-0.449204,-0.06216,0.06958,0.52486
24.6761,0,0,5,5,39.6761,39.6761,-29.1987,5.98749,22.3056,0.758524,-0.42235,0.481869,0,0,-92.2075,1.12,-4.235,0.826184,0.074908,-0.403698,-0.06216,0.06958,0.52486
24.7015,0,0,5,5,39.7015,39.7015,-29.36,6.50584,21.621,0.749531,-0.424311,0.479641,0,0,-85.6625,4.0425,-5.6175,0.826184,0.074908,-0.403698,-0.06216,0.06958,0.52486
24.7771,0,0,5,5,39.7771,39.7771,-29.5142,6.50768,21.6088,0.360502,-0.613247,-0.45965,1,0,-82.11,4.445,-6.2125,0.43554,-0.111508,-1.33444,-0.06216,0.06958,0.52486
24.9659,0,0,5,5,39.9659,39.9659,-29.6771,6.51062,21.5959,0.360451,-0.6157,-0.46105,1,0,-86.94,5.25,-6.2825,0.43554,-0.111508,-1.33444,-0.06216,0.06958,0.52486
22.2893,0,0,5,5,37.2893,37.2893,-29.464,6.27891,21.9783,-0.431505,-0.314962,-0.159823,0,0,-91.6825,5.2325,-6.0375,-0.363804,0.185928,-1.03773,-0.06664,0.08022,0.52374
22.184,0,0,5,5,37.184,37.184,-29.2596,6.04671,22.3611,-0.427475,-0.312084,-0.157705,0,0,-94.955,3.6925,-5.6875,-0.363804,0.185928,-1.03773,-0.06664,0.08022,0.52374
24.8856,0,0,5,5,39.8856,39.8856,-29.4388,6.04672,22.3502,0.321848,-0.17838,-0.419266,1,0,-96.285,3.15,-6.125,0.388692,0.322202,-1.29576,-0.06664,0.08022,0.52374
25.0517,0,0,5,5,40.0517,40.0517,-29.621,6.04804,22.3387,0.321825,-0.18113,-0.420826,1,0,-97.93,3.99,-6.0025,0.388692,0.322202,-1.29576,-0.06664,0.08022,0.52374
21.5972,0,0,5,5,36.5972,36.5972,-29.321,6.01406,22.4155,-0.0773944,-0.468999,-0.152027,0,0,-98.91,4.55,-5.6875,-0.01281,0.030134,-1.03163,-0.06664,0.08022,0.52374
21.4443,0,0,5,5,36.4443,36.4443,-29.0326,5.983,22.4914,-0.0768552,-0.464655,-0.149537,0,0,-102.76,6.09,-4.9875,-0.01281,0.030134,-1.03163,-0.06664,0.08022,0.52374
24.8039,0,0,5,5,39.8039,39.8039,-29.2249,5.98981,22.4883,0.472992,-0.516661,0.211156,1,0,-104.125,4.375,-0.21,0.539484,-0.01891,-0.672098,-0.06664,0.08022,0.52374
24.8959,0,0,5,5,39.8959,39.8959,-29.409,5.98806,22.4831,0.473023,-0.519448,0.209595,1,0,-99.3125,0.6475,-3.78,0.539484,-0.01891,-0.672098,-0.06664,0.08022,0.52374
25.0403,0,0,5,5,40.0403,40.0403,-29.5926,5.98469,22.4685,-0.812237,-0.675494,-0.120364,1,0,-98.525,2.485,-8.925,-0.751276,-0.17202,-0.99796,-0.0672,0.1029,0.53914
25.1769,0,0,5,5,40.1769,40.1769,-29.7747,5.99051,22.4561,0.895386,-0.594334,-0.0387033,1,0,-97.8425,6.58,-5.1975,0.963678,-0.088206,-0.915366,-0.0672,0.1029,0.53914
25.3811,0,0,5,5,40.3811,40.3811,-29.9646,5.99713,22.4434,-1.2645,-0.158141,-0.507683,1,0,-102.183,7.07,-5.0575,-1.20524,0.350384,-1.37909,-0.0672,0.1029,0.53914
26.2489,0,0,5,5,41.2489,41.2489,-30.2504,6.07095,22.4931,0.121098,0.076272,-0.000297273,0,0,-109.235,6.8775,-4.34,0.187514,0.588772,-0.873032,-0.0672,0.1029,0.53914
25.8403,0,0,5,5,40.8403,40.8403,-30.4507,6.07041,22.4869,-0.570875,0.0663099,-0.740728,1,0,-108.395,1.5925,-3.885,-0.507398,0.581818,-1.60601,-0.0672,0.1029,0.53914
25.9534,0,0,5,5,40.9534,40.9534,-30.6446,6.07281,22.4793,-0.904395,-0.570669,-1.18543,1,0,-104.738,3.4825,-3.675,-0.842288,-0.051606,-2.04557,-0.0672,0.1029,0.53914
26.11,0,0,5,5,41.11,41.11,-30.8387,6.07591,22.4684,1.03118,-0.782642,-0.485363,1,0,-104.615,4.83,-5.11,1.10154,-0.26047,-1.3492,-0.0672,0.1029,0.53914
21.3239,0,0,5,5,36.3239,36.3239,-30.371,5.86928,22.6941,-0.390987,-0.68718,-0.166281,0,0,-111.353,6.09,-3.99,-0.330254,-0.171898,-1.037,-0.0672,0.1029,0.53914
26.0385,0,0,5,5,41.0385,41.0385,-30.5847,5.87986,22.6851,0.217716,-0.358306,0.0748903,1,0,-115.745,8.0325,-1.9775,0.28121,0.15982,-0.795806,-0.0672,0.1029,0.53914
26.2099,0,0,5,5,41.2099,41.2099,-30.7984,5.8904,22.6761,0.217533,-0.361487,0.0729803,1,0,-115.745,8.0325,-1.9775,0.28121,0.15982,-0.795806,-0.07336,0.11088,0.52388
26.4295,0,0,5,5,41.4295,41.4295,-31.0186,5.88776,22.6736,-0.133515,-0.0988989,0.059095,1,0,-119.735,-0.5425,-2.66,-0.07137,0.425414,-0.80764,-0.07336,0.11088,0.52388
26.5127,0,0,5,5,41.5127,41.5127,-31.2262,5.88805,22.6667,0.0635298,0.0274695,0.531566,1,0,-112.473,2.2575,-3.955,0.126514,0.554734,-0.336964,-0.07336,0.11088,0.52388
26.5622,0,0,5,5,41.5622,41.5622,-31.4182,5.89068,22.656,-0.688391,-0.423458,0.675155,1,0,-103.46,4.585,-5.11,-0.628544,0.107116,-0.19276,-0.07336,0.11088,0.52388
26.7163,0,0,5,5,41.7163,41.7163,-31.6102,5.89327,22.6453,-0.688436,-0.426297,0.673409,1,0,-103.46,4.585,-5.11,-0.628544,0.107116,-0.19276,-0.07336,0.11088,0.52388
27.0561,0,0,5,5,42.0561,42.0561,-31.827,5.90128,22.6331,0.815296,-0.764852,0.0984774,1,0,-117.32,7.7525,-4.165,0.881694,-0.227896,-0.76128,-0.07336,0.11088,0.52388
27.2301,0,0,5,5,42.2301,42.2301,-32.0439,5.90924,22.6209,0.815158,-0.768039,0.0964739,1,0,-117.32,7.7525,-4.165,0.881694,-0.227896,-0.76128,-0.07336,0.11088,0.52388
27.508,0,0,5,5,42.508,42.508,-32.2746,5.91278,22.6066,0.786912,-0.536578,-0.768762,1,0,-125.003,6.23,-6.545,0.85339,0.00671,-1.61772,-0.07336,0.11088,0.52388
27.6931,0,0,5,5,42.6931,42.6931,-32.5054,5.91627,22.5922,0.786852,-0.539958,-0.770914,1,0,-125.003,6.23,-6.545,0.85339,0.00671,-1.61772,-0.06874,0.10626,0.51142
27.934,0,0,5,5,42.934,42.934,-32.7437,5.92942,22.5732,-0.103259,-0.719535,0.20022,1,0,-128.923,12.4775,-5.74,-0.04026,-0.169214,-0.651846,-0.06874,0.10626,0.51142
28.1428,0,0,5,5,43.1428,43.1428,-32.9843,5.93817,22.5582,0.993847,-0.238192,0.344125,1,0,-130.48,9.1,-5.18,1.06164,0.315126,-0.506788,-0.06874,0.10626,0.51142
28.3115,0,0,5,5,43.3115,43.3115,-33.2216,5.93597,22.553,-0.392631,0.255166,-0.367535,1,0,-129.22,0.6125,-3.85,-0.330742,0.811422,-1.21073,-0.06874,0.10626,0.51142
29.6356,0,0,5,5,44.6356,44.6356,-33.6108,5.93425,22.7414,-0.000323305,0.167578,0.0425918,0,0,-128.03,1.0325,-5.075,0.063196,0.72956,-0.800076,-0.06874,0.10626,0.51142
28.7812,0,0,5,5,43.7812,43.7812,-33.8438,5.93348,22.7234,0.949708,-1.92196,-0.333416,1,0,-126.035,5.4775,-9.5375,1.01724,-1.35444,-1.17096,-0.06874,0.10626,0.51142
28.9691,0,0,5,5,43.9691,43.9691,-34.077,5.93337,22.7065,-0.0910578,-0.16046,0.146158,1,0,-126.175,5.4775,-8.785,-0.027938,0.408578,-0.692838,-0.06874,0.10626,0.51142
29.1957,0,0,5,5,44.1957,44.1957,-34.3154,5.94267,22.6845,-0.733636,-0.352193,0.31902,1,0,-128.853,11.7425,-8.12,-0.673074,0.220454,-0.518988,-0.06874,0.10626,0.51142
34.827,0,0,5,5,49.827,49.827,-35.2824,6.31671,22.3705,0.585647,0.217458,0.840377,0,0,-132.388,11.48,-7.28,0.658312,0.802882,0.008418,-0.06762,0.1421,0.53704
30.2445,0,0,5,5,45.2445,45.2445,-35.532,6.30917,22.3618,0.610561,1.07308,0.645957,1,0,-135.853,-0.63,-7.28,0.6832,1.66115,-0.182024,-0.06762,0.1421,0.53704
30.4367,0,0,5,5,45.4367,45.4367,-35.7806,6.30117,22.3474,0.62795,-1.43904,-0.388942,1,0,-134.89,1.1375,-10.15,0.700524,-0.84485,-1.20646,-0.06762,0.1421,0.53704
30.7236,0,0,5,5,45.7236,45.7236,-36.0408,6.30407,22.3301,0.6279,-1.44269,-0.391595,1,0,-141.295,7.2975,-7.7175,0.700524,-0.84485,-1.20646,-0.06762,0.1421,0.53704
30.9905,0,0,5,5,45.9905,45.9905,-36.3089,6.3107,22.3108,0.987018,-1.0527,-0.0696426,1,0,-145.53,9.8175,-7.385,1.06128,-0.451522,-0.884256,-0.06762,0.1421,0.53704
31.1725,0,0,5,5,46.1725,46.1725,-36.5725,6.31857,22.2955,0.986882,-1.05637,-0.0723712,1,0,-143.308,9.0125,-4.9875,1.06128,-0.451522,-0.884256,-0.06762,0.1421,0.53704
31.3833,0,0,5,5,46.3833,46.3833,-36.836,6.31417,22.2933,-0.763651,-0.919227,0.682881,1,0,-144.06,-1.26,-3.185,-0.696742,-0.310856,-0.132126,-0.06762,0.1421,0.53704
31.5948,0,0,5,5,46.5948,46.5948,-37.0996,6.31196,22.2836,-0.763612,-0.922882,0.680135,1,0,-143.605,2.3975,-5.88,-0.696742,-0.310856,-0.132126,-0.06762,0.1421,0.53704
31.8605,0,0,5,5,46.8605,46.8605,-37.3704,6.31624,22.2619,0.117814,-0.211077,-0.297819,1,0,-146.948,9.6425,-9.0825,0.18849,0.403942,-1.09971,-0.06846,0.1624,0.52654
32.1258,0,0,5,5,47.1258,47.1258,-37.6476,6.32608,22.2414,0.117643,-0.214881,-0.300763,1,0,-150.623,11.9,-6.58,0.18849,0.403942,-1.09971,-0.06846,0.1624,0.52654
32.3486,0,0,5,5,47.3486,47.3486,-37.925,6.33814,22.2219,0.469013,-0.721342,-0.731589,1,0,-150.728,12.5475,-5.1975,0.541558,-0.09821,-1.52427,-0.06846,0.1624,0.52654
32.5341,0,0,5,5,47.5341,47.5341,-38.1973,6.34047,22.2132,0.468973,-0.725059,-0.734506,1,0,-148.61,4.2525,-3.78,0.541558,-0.09821,-1.52427,-0.06846,0.1624,0.52654
32.7629,0,0,5,5,47.7629,47.7629,-38.4711,6.33189,22.204,-0.300126,-2.11909,-1.49652,1,0,-149.363,-0.595,-7.8925,-0.230946,-1.48706,-2.2775,-0.06846,0.1624,0.52654
32.9825,0,0,5,5,47.9825,47.9825,-38.7449,6.32326,22.1948,-0.299976,-2.12281,-1.49947,1,0,-149.363,-0.595,-7.8925,-0.230946,-1.48706,-2.2775,-0.06846,0.1624,0.52654
33.4837,0,0,5,5,48.4837,48.4837,-39.0563,6.07817,22.736,-0.624221,0.0778177,0.142913,0,0,-160.02,9.3275,-4.4275,-0.560834,0.715774,-0.64477,-0.06846,0.1624,0.52654
33.712,0,0,5,5,48.712,48.712,-39.3649,5.8433,23.276,-0.620144,0.073398,0.139856,0,0,-162.313,14.84,-3.325,-0.560834,0.715774,-0.64477,-0.06846,0.1624,0.52654
33.8712,0,0,5,5,48.8712,48.8712,-39.6617,5.8533,23.2635,-0.255739,-0.673463,-1.36624,1,0,-162.12,9.17,-2.4675,-0.194712,-0.026352,-2.13598,-0.07126,0.17976,0.52234
34.0994,0,0,5,5,49.0994,49.0994,-39.9572,5.84432,23.2599,0.562502,-2.83185,-0.109408,1,0,-161.893,-2.66,-5.5825,0.626836,-2.17855,-0.885598,-0.07126,0.17976,0.52234
34.3409,0,0,5,5,49.3409,49.3409,-40.2532,5.84719,23.2448,0.562452,-2.83578,-0.112724,1,0,-161.578,6.9825,-6.23,0.626836,-2.17855,-0.885598,-0.07126,0.17976,0.52234
34.6568,0,0,5,5,49.6568,49.6568,-40.5598,5.8583,23.2229,0.454258,-0.335856,0.668468,1,0,-167.073,13.2825,-6.1075,0.518378,0.322812,-0.106994,-0.07126,0.17976,0.52234
34.8448,0,0,5,5,49.8448,49.8448,-40.8586,5.86563,23.2044,0.454131,-0.33978,0.665074,1,0,-162.925,10.3075,-5.95,0.518378,0.322812,-0.106994,-0.07126,0.17976,0.52234
35.1879,0,0,5,5,50.1879,50.1879,-41.1713,5.87036,23.1867,0.290165,-0.010831,-0.919366,1,0,-170.73,8.8725,-6.5275,0.3538,0.655506,-1.67567,-0.07126,0.17976,0.52234
35.5088,0,0,5,5,50.5088,50.5088,-41.4934,5.86066,23.1807,0.290333,-0.0150411,-0.923046,1,0,-176.663,-1.9075,-6.9825,0.3538,0.655506,-1.67567,-0.07126,0.17976,0.52234
35.7228,0,0,5,5,50.7228,50.7228,-41.8095,5.85204,23.1665,-0.467224,0.235726,-1.04508,1,0,-172.883,1.7325,-10.08,-0.407114,0.91012,-1.79316,-0.07126,0.17976,0.52234
36.1701,0,0,5,5,51.1701,51.1701,-42.1516,5.86136,23.1386,-0.467385,0.231322,-1.04907,1,0,-186.638,14.98,-9.03,-0.407114,0.91012,-1.79316,-0.06846,0.20258,0.51688
36.4011,0,0,5,5,51.4011,51.4011,-42.4879,5.87563,23.1127,-1.27709,-3.08164,-1.71239,1,0,-183.505,16.3625,-6.1075,-1.22,-2.3951,-2.44744,-0.06846,0.20258,0.51688
36.5628,0,0,5,5,51.5628,51.5628,-42.8097,5.88005,23.0998,-1.27717,-3.08574,-1.71618,1,0,-176.138,7.035,-4.375,-1.22,-2.3951,-2.44744,-0.06846,0.20258,0.51688
36.9008,0,0,5,5,51.9008,51.9008,-43.1422,5.87594,23.0876,1.42584,-2.0365,-1.34512,1,0,-182.175,3.1325,-7.4375,1.49438,-1.34273,-2.07534,-0.06846,0.20258,0.51688
37.1315,0,0,5,5,52.1315,52.1315,-43.47,5.86289,23.0708,1.42606,-2.04066,-1.349,1,0,-179.218,1.155,-12.8975,1.49438,-1.34273,-2.07534,-0.06846,0.20258,0.51688
37.5157,0,0,5,5,52.5157,52.5157,-43.8139,5.8583,23.0471,0.0177601,0.344789,0.209433,1,0,-187.933,7.63,-12.425,0.080032,1.04456,-0.524844,-0.06846,0.20258,0.51688
37.689,0,0,5,5,52.689,52.689,-44.1442,5.86894,23.0207,0.0175754,0.340676,0.205438,1,0,-180.075,15.19,-7.315,0.080032,1.04456,-0.524844,-0.06846,0.20258,0.51688
37.9446,0,0,5,5,52.9446,52.9446,-44.4731,5.87629,22.9967,1.39376,1.98812,-1.04071,1,0,-179.515,12.88,-7.5775,1.46217,2.69437,-1.75741,-0.06846,0.20258,0.51688
38.4562,0,0,5,5,53.4562,53.4562,-44.8353,5.86731,22.9837,1.39392,1.98363,-1.04512,1,0,-198.748,1.645,-9.695,1.46217,2.69437,-1.75741,-0.06846,0.20258,0.51688
38.6777,0,0,5,5,53.6777,53.6777,-45.1882,5.84662,22.9775,-0.688233,-4.54632,0.689313,1,0,-193.97,-6.0025,-11.6725,-0.629154,-3.82446,-0.032086,-0.07182,0.21826,0.49546
39.1385,0,0,5,5,54.1385,54.1385,-45.565,5.85619,22.9383,-0.688399,-4.55091,0.684645,1,0,-205.433,20.2125,-12.6,-0.629154,-3.82446,-0.032086,-0.07182,0.21826,0.49546
39.607,0,0,5,5,54.607,54.607,-45.964,5.86036,22.9285,2.48631,-0.421621,1.81584,1,0,-219.608,5.8275,-2.835,2.55907,0.305366,1.09532,-0.07182,0.21826,0.49546
39.927,0,0,5,5,54.927,54.927,-46.3631,5.86446,22.9187,2.48624,-0.426414,1.81084,1,0,-219.608,5.8275,-2.835,2.55907,0.305366,1.09532,-0.07182,0.21826,0.49546
40.025,0,0,5,5,55.025,55.025,-46.7324,5.85851,22.9068,-0.809561,-0.202088,-0.554418,1,0,-202.825,2.66,-7.875,-0.750788,0.533872,-1.24708,-0.07182,0.21826,0.49546
40.3211,0,0,5,5,55.3211,55.3211,-47.1017,5.85248,22.895,-0.809456,-0.206476,-0.559094,1,0,-202.825,2.66,-7.875,-0.750788,0.533872,-1.24708,-0.07182,0.21826,0.49546
40.6537,0,0,5,5,55.6537,55.6537,-47.4759,5.8656,22.8558,-2.34818,2.62394,-0.740438,1,0,-203.998,22.0325,-10.4125,-2.2958,3.36574,-1.42228,-0.07182,0.21826,0.49546
40.954,0,0,5,5,55.954,55.954,-47.8501,5.87848,22.8165,-2.3484,2.61958,-0.745256,1,0,-203.998,22.0325,-10.4125,-2.2958,3.36574,-1.42228,-0.07182,0.21826,0.49546
41.052,0,0,5,5,56.052,56.052,-48.1973,5.87899,22.787,-2.04871,-1.00135,0.964534,1,0,-189.385,13.02,-11.8475,-1.99482,-0.247416,0.27877,-0.0777,0.24668,0.49378
41.7794,0,0,5,5,56.7794,56.7794,-48.6046,5.88921,22.7531,-0.610979,0.137559,-0.785406,1,0,-222.845,18.7775,-9.205,-0.55083,0.894992,-1.45241,-0.0777,0.24668,0.49378
42.0509,0,0,5,5,57.0509,57.0509,-49.0045,5.87235,22.7397,-0.610686,0.132964,-0.79061,1,0,-219.888,-0.6125,-13.125,-0.55083,0.894992,-1.45241,-0.0777,0.24668,0.49378
42.361,0,0,5,5,57.361,57.361,-49.403,5.86105,22.7068,1.12554,3.23387,3.09192,1,0,-217.98,10.2025,-18.06,1.19255,3.99721,2.40535,-0.0777,0.24668,0.49378
42.7588,0,0,5,5,57.7588,57.7588,-49.812,5.87375,22.6985,1.12532,3.22928,3.0865,1,0,-225.26,8.54,1.9075,1.19255,3.99721,2.40535,-0.0777,0.24668,0.49378
42.7871,0,0,5,5,57.7871,57.7871,-50.1808,5.87649,22.6928,1.68945,0.0564697,-1.03657,1,0,-202.913,3.6225,-1.5225,1.75912,0.831796,-1.68104,-0.0777,0.24668,0.49378
43.4762,0,0,5,5,58.4762,58.4762,-50.6023,5.87934,22.6699,1.6894,0.051808,-1.04221,1,0,-231.455,11.3575,-7.7875,1.75912,0.831796,-1.68104,-0.0777,0.24668,0.49378
43.7994,0,0,5,5,58.7994,58.7994,-51.0219,5.85618,22.6752,-2.54021,-1.5533,-0.164078,1,0,-231.963,-10.9375,-9.135,-2.4888,-0.767014,-0.804102,-0.0777,0.24668,0.49378
44.246,0,0,5,5,59.246,59.246,-51.4561,5.85672,22.6378,-2.54022,-1.55802,-0.169958,1,0,-237.79,17.2375,-13.965,-2.4888,-0.767014,-0.804102,-0.08022,0.25816,0.48398
44.6396,0,0,5,5,59.6396,59.6396,-51.8965,5.87979,22.6008,-2.21953,-2.14222,-1.74112,1,0,-241.22,25.3225,-3.36,-2.16635,-1.3459,-2.35716,-0.08022,0.25816,0.48398
44.6183,0,0,5,5,59.6183,59.6183,-52.2868,5.87692,22.5765,-2.21948,-2.14638,-1.74646,1,0,-213.833,10.2025,-10.6225,-2.16635,-1.3459,-2.35716,-0.08022,0.25816,0.48398
45.265,0,0,5,5,60.265,60.265,-52.7217,5.88314,22.5314,-3.87677,-2.33428,-2.44847,1,0,-237.703,23.0825,-13.65,-3.83056,-1.52903,-3.0478,-0.08022,0.25816,0.48398
45.8668,0,0,5,5,60.8668,60.8668,-53.1905,5.86235,22.5236,-3.87641,-2.33922,-2.45494,1,0,-258.843,-3.6925,-13.0025,-3.83056,-1.52903,-3.0478,-0.08022,0.25816,0.48398
46.0923,0,0,5,5,61.0923,61.0923,-53.6392,5.85456,22.4917,1.62617,0.236056,1.3346,1,0,-246.173,12.2325,-15.295,1.69519,1.04822,0.718702,-0.08022,0.25816,0.48398
46.6395,0,0,5,5,61.6395,61.6395,-54.113,5.87297,22.4679,1.62585,0.231233,1.32794,1,0,-260.715,17.5875,-0.07,1.69519,1.04822,0.718702,-0.08022,0.25816,0.48398
46.656,0,0,5,5,61.656,61.656,-54.5381,5.87316,22.4708,2.6343,-3.78481,1.32895,1,0,-234.955,-1.2425,0.4375,2.70791,-2.95935,0.725656,-0.08022,0.25816,0.48398
47.2569,0,0,5,5,62.2569,62.2569,-54.998,5.87288,22.4375,2.63431,-3.78942,1.32243,1,0,-252.403,15.75,-11.865,2.70791,-2.95935,0.725656,-0.0693,0.287,0.462
47.8342,0,0,5,5,62.8342,62.8342,-55.4859,5.85594,22.433,-1.20835,-3.49738,0.468984,1,0,-269.71,-3.465,-10.22,-1.15131,-2.66277,-0.114314,-0.0693,0.287,0.462
48.2315,0,0,5,5,63.2315,63.2315,-55.9746,5.85001,22.383,-1.20825,-3.50217,0.461978,1,0,-267.575,22.1725,-19.8275,-1.15131,-2.66277,-0.114314,-0.0693,0.287,0.462
48.6058,0,0,5,5,63.6058,63.6058,-56.4609,5.86491,22.3349,-2.66634,-4.76988,0.720391,1,0,-266.368,28.1575,-8.89,-2.61531,-3.9245,0.149084,-0.0693,0.287,0.462
48.5034,0,0,5,5,63.5034,63.5034,-56.8814,5.85297,22.3142,-2.66613,-4.77391,0.714304,1,0,-230.965,6.2825,-13.0375,-2.61531,-3.9245,0.149084,-0.0693,0.287,0.462
49.1742,0,0,5,5,64.1742,64.1742,-57.3464,5.85501,22.2548,2.62854,1.92708,1.79672,1,0,-253.803,29.7675,-18.34,2.70181,2.77391,1.22988,-0.0693,0.287,0.462
49.8993,0,0,5,5,64.8993,64.8993,-57.8587,5.82622,22.2538,2.62904,1.92227,1.78924,1,0,-283.588,-8.5225,-15.1025,2.70181,2.77391,1.22988,-0.0693,0.287,0.462
50.1822,0,0,5,5,65.1822,65.1822,-58.3538,5.80767,22.2237,3.70609,-3.9925,2.15412,1,0,-272.335,9.205,-19.04,3.7831,-3.13015,1.59918,-0.0693,0.287,0.462
50.7503,0,0,5,5,65.7503,65.7503,-58.8719,5.82462,22.1916,3.7058,-3.99716,2.14643,1,0,-285.075,21.14,-1.855,3.7831,-3.13015,1.59918,-0.07154,0.30968,0.4417
51.0232,0,0,5,5,66.0232,66.0232,-59.3709,5.82629,22.1966,3.7574,-2.47709,-1.9536,1,0,-276.483,-1.96,1.715,3.83495,-1.60723,-2.46184,-0.07154,0.30968,0.4417
51.3457,0,0,5,5,66.3457,66.3457,-59.8595,5.82239,22.1535,3.75747,-2.48139,-1.96091,1,0,-267.925,20.545,-15.225,3.83495,-1.60723,-2.46184,-0.07154,0.30968,0.4417
52.0221,0,0,5,5,67.0221,67.0221,-60.3862,5.80777,22.1436,-0.69011,3.12429,-1.23913,1,0,-291.183,0.77,-10.8675,-0.631716,3.99721,-1.73777,-0.07154,0.30968,0.4417
52.5285,0,0,5,5,67.5285,67.5285,-60.9242,5.79622,22.1003,-0.689909,3.11969,-1.24726,1,0,-295.61,18.725,-18.8125,-0.631716,3.99721,-1.73777,-0.07154,0.30968,0.4417
52.7969,0,0,5,5,67.7969,67.7969,-61.4403,5.8023,22.0597,-1.26003,3.11538,-0.689802,1,0,-283.535,22.47,-8.855,-1.20414,3.99721,-1.17681,-0.07154,0.30968,0.4417
52.8677,0,0,5,5,67.8677,67.8677,-61.9105,5.79797,22.0378,-1.25995,3.1115,-0.696986,1,0,-258.825,10.08,-8.8725,-1.20414,3.99721,-1.17681,-0.07154,0.30968,0.4417
53.4185,0,0,5,5,68.4185,68.4185,-62.404,5.78961,21.9795,2.35889,-2.8766,2.50256,1,0,-269.815,27.7725,-20.72,2.42987,-1.98067,2.00556,-0.07154,0.30968,0.4417
54.4533,0,0,5,5,69.4533,69.4533,-62.9831,5.76269,21.9588,2.35936,-2.88126,2.49364,1,0,-319.935,3.5,-20.0725,2.42987,-1.98067,2.00556,-0.077,0.33964,0.42686
54.8512,0,0,5,5,69.8512,69.8512,-63.5533,5.75308,21.9162,0.70343,-4.90436,2.38522,1,0,-313.723,19.6875,-16.7475,0.76677,-3.99721,1.90674,-0.077,0.33964,0.42686
55.1665,0,0,5,5,70.1665,70.1665,-64.1045,5.75756,21.8836,0.703352,-4.90857,2.37663,1,0,-303.643,18.2175,-6.5975,0.76677,-3.99721,1.90674,-0.077,0.33964,0.42686
55.6802,0,0,5,5,70.6802,70.6802,-64.6653,5.74205,21.8697,3.70711,-4.36385,-2.75393,1,0,-310.083,3.43,-12.2675,3.78298,-3.44882,-3.17554,-0.077,0.33964,0.42686
56.1297,0,0,5,5,71.1297,71.1297,-65.2261,5.7264,21.8559,3.70738,-4.368,-2.76274,1,0,-310.083,3.43,-12.2675,3.78298,-3.44882,-3.17554,-0.077,0.33964,0.42686
56.7102,0,0,5,5,71.7102,71.7102,-65.8044,5.7042,21.8451,1.08951,0.107416,0.0253333,1,0,-320.075,0.3675,-14.9975,1.15363,1.02614,-0.399916,-0.077,0.33964,0.42686
56.6853,0,0,5,5,71.6853,71.6853,-66.3173,5.68305,21.8245,-0.0533028,-0.387914,4.41766,1,0,-282.853,5.985,-16.7475,0.005612,0.53497,3.96659,-0.077,0.33964,0.42686
57.467,0,0,5,5,72.467,72.467,-66.8798,5.69688,21.8069,-0.0535431,-0.391772,4.40868,1,0,-310.835,12.6525,2.7475,0.005612,0.53497,3.96659,-0.077,0.33964,0.42686
57.8057,0,0,5,5,72.8057,72.8057,-67.4272,5.69639,21.7765,-0.671532,-0.43772,-2.8613,1,0,-301.683,16.275,-7.735,-0.615002,0.492758,-3.23861,-0.0658,0.35168,0.39116
58.4435,0,0,5,5,73.4435,73.4435,-68.0013,5.67273,21.7491,-1.31269,-0.0219118,-0.282316,1,0,-316.785,9.5375,-19.4075,-1.25928,0.91195,-0.67039,-0.0658,0.35168,0.39116
57.9022,0,0,5,5,72.9022,72.9022,-68.4412,5.65993,21.7512,-1.31246,-0.0247672,-0.289404,1,0,-243.215,-3.9025,-7.0875,-1.25928,0.91195,-0.67039,-0.0658,0.35168,0.39116
58.4083,0,0,5,5,73.4083,73.4083,-68.9017,5.6448,21.7182,-2.66871,3.00947,-0.0109883,1,0,-252.77,14.77,-15.82,-2.62154,3.94597,-0.38674,-0.0658,0.35168,0.39116
59.4489,0,0,5,5,74.4489,74.4489,-69.452,5.65769,21.6887,-2.66894,3.00609,-0.0199303,1,0,-303.363,18.795,0.3325,-2.62154,3.94597,-0.38674,-0.0658,0.35168,0.39116
59.5513,0,0,5,5,74.5513,74.5513,-69.9569,5.64596,21.6437,3.92211,-0.120115,1.01163,1,0,-277.06,22.225,-16.0825,3.99721,0.826062,0.645014,-0.0658,0.35168,0.39116
59.9925,0,0,5,5,74.9925,74.9925,-70.4667,5.64503,21.6021,-3.67644,2.12255,-0.870193,1,0,-279.965,22.6625,-9.2925,-3.63353,3.0694,-1.21402,-0.0658,0.35168,0.39116
59.4326,0,0,5,5,74.4326,74.4326,-70.8468,5.63366,21.5858,-3.67624,2.12035,-0.876415,1,0,-208.618,6.8075,-10.01,-3.63353,3.0694,-1.21402,-0.0658,0.35168,0.39116
59.8909,0,0,5,5,74.8909,74.8909,-71.2473,5.62117,21.555,1.26225,-0.74153,2.28515,1,0,-219.328,14.6125,-13.3,1.32565,0.212768,1.92967,-0.07994,0.3731,0.36274
60.436,0,0,5,5,75.436,75.436,-71.6778,5.60908,21.5151,0.506209,-2.27442,-3.15835,1,0,-235.62,19.8275,-14.665,0.566202,-1.31614,-3.4648,-0.07994,0.3731,0.36274
61.3896,0,0,5,5,76.3896,76.3896,-72.1898,5.60974,21.4662,0.506197,-2.27718,-3.1668,1,0,-280.788,27.265,-9.0475,0.566202,-1.31614,-3.4648,-0.07994,0.3731,0.36274
61.3839,0,0,5,5,76.3839,76.3839,-72.646,5.61239,21.4292,-0.137359,-4.96342,2.28406,1,0,-250.18,21.0875,-5.635,-0.080032,-3.99721,1.95151,-0.07994,0.3731,0.36274
61.2879,0,0,5,5,76.2879,76.2879,-73.0403,5.60017,21.4201,-0.137146,-4.96546,2.27753,1,0,-217.018,2.9925,-8.9775,-0.080032,-3.99721,1.95151,-0.07994,0.3731,0.36274
62.1318,0,0,5,5,77.1318,77.1318,-73.5052,5.60935,21.3919,-2.196,-2.65579,-1.77583,1,0,-255.57,17.325,-0.1925,-2.14744,-1.68763,-2.0629,-0.07994,0.3731,0.36274
62.505,0,0,5,5,77.505,77.505,-73.9702,5.6183,21.3636,-2.19616,-2.65804,-1.78359,1,0,-255.57,17.325,-0.1925,-2.14744,-1.68763,-2.0629,-0.07994,0.3731,0.36274
62.4183,0,0,5,5,77.4183,77.4183,-74.3736,5.62082,21.3257,1.74589,3.03079,-0.801581,1,0,-220.518,21.7,-5.1975,1.81133,3.99721,-1.08177,-0.07994,0.3731,0.36274
62.7422,0,0,5,5,77.7422,77.7422,-74.7769,5.62308,21.2878,1.74585,3.02894,-0.808336,1,0,-220.518,21.7,-5.1975,1.81133,3.99721,-1.08177,-0.0798,0.3976,0.3339
62.1682,0,0,5,5,77.1682,77.1682,-75.0601,5.61974,21.2486,0.928672,3.02765,0.0859167,1,0,-153.038,21.5425,-8.4,0.99064,3.99721,-0.18971,-0.0798,0.3976,0.3339
62.9068,0,0,5,5,77.9068,77.9068,-75.4116,5.62248,21.2103,-3.39311,-4.97662,0.347424,1,0,-191.45,22.0325,-4.725,-3.34939,-3.99721,0.07564,-0.0798,0.3976,0.3339
63.5089,0,0,5,5,78.5089,78.5089,-75.806,5.61911,21.1596,-3.39305,-4.97833,0.34079,1,0,-214.778,28.175,-9.835,-3.34939,-3.99721,0.07564,-0.0798,0.3976,0.3339
63.913,0,0,5,5,78.913,78.913,-76.2121,5.62073,21.1153,-2.01397,1.18126,0.502261,1,0,-221.69,25.34,-5.915,-1.96444,2.15769,0.242658,-0.0798,0.3976,0.3339
63.367,0,0,5,5,78.367,78.367,-76.5014,5.62232,21.102,-2.014,1.18008,0.497377,1,0,-157.92,7.77,-1.5225,-1.96444,2.15769,0.242658,-0.0798,0.3976,0.3339
63.4751,0,0,5,5,78.4751,78.4751,-76.7741,5.61966,21.0971,0.331085,0.041857,-0.389385,1,0,-149.03,2.485,-2.7825,0.390522,1.02175,-0.632692,-0.0798,0.3976,0.3339
63.7468,0,0,5,5,78.7468,78.7468,-77.0537,5.62513,21.0702,0.33099,0.0407663,-0.394118,1,0,-151.76,16.0125,-1.0325,0.390522,1.02175,-0.632692,-0.0798,0.3976,0.3339
64.1029,0,0,5,5,79.1029,79.1029,-77.351,5.62867,21.041,-0.796701,0.0346214,1.72822,1,0,-161.49,17.08,-2.345,-0.741882,1.01675,1.47827,-0.08022,0.40012,0.31752
64.389,0,0,5,5,79.389,79.389,-77.6545,5.63366,21.0348,0.625324,-4.91423,-0.425082,1,0,-166.285,4.2,1.4525,0.68625,-3.92584,-0.65331,-0.08022,0.40012,0.31752
64.0679,0,0,5,5,79.0679,79.0679,-77.8824,5.63264,21.0418,0.243998,0.736709,0.366651,1,0,-124.583,-4.06,-0.3325,0.303292,1.72008,0.136152,-0.08022,0.40012,0.31752
64.26,0,0,5,5,79.26,79.26,-78.1114,5.63601,21.0325,0.243939,0.735888,0.362758,1,0,-124.338,5.74,0.1925,0.303292,1.72008,0.136152,-0.08022,0.40012,0.31752
64.3515,0,0,5,5,79.3515,79.3515,-78.328,5.63633,21.0208,-1.38142,-1.79351,-1.45257,1,0,-117.233,6.72,-1.8025,-1.32895,-0.805932,-1.66152,-0.08022,0.40012,0.31752
64.7246,0,0,5,5,79.7246,79.7246,-78.5712,5.64543,20.9998,-1.38158,-1.79434,-1.45671,1,0,-131.635,13.0725,2.1525,-1.32895,-0.805932,-1.66152,-0.08022,0.40012,0.31752
64.582,0,0,5,5,79.582,79.582,-78.769,5.65536,20.9995,-0.857179,-4.43929,-1.28292,1,0,-107.363,1.365,5.04,-0.80215,-3.44748,-1.48572,-0.08022,0.40012,0.31752
64.4833,0,0,5,5,79.4833,79.4833,-78.9323,5.66149,21.0117,-0.857285,-4.43983,-1.2857,1,0,-88.6725,-6.2475,4.27,-0.80215,-3.44748,-1.48572,-0.08932,0.40782,0.30072
64.7894,0,0,5,5,79.7894,79.7894,-79.119,5.67313,20.999,-0.898671,-2.33594,-0.34538,1,0,-100.38,8.61,4.655,-0.843508,-1.34517,-0.549488,-0.08932,0.40782,0.30072
64.6929,0,0,5,5,79.6929,79.6929,-79.2725,5.68574,20.9796,0.354721,-0.70688,-0.217187,1,0,-81.4625,12.495,4.515,0.41541,0.282674,-0.41968,-0.08932,0.40782,0.30072
64.6149,0,0,5,5,79.6149,79.6149,-79.399,5.70001,20.9688,0.354473,-0.707262,-0.21935,1,0,-66.7625,7.805,6.405,0.41541,0.282674,-0.41968,-0.08932,0.40782,0.30072
64.558,0,0,5,5,79.558,79.558,-79.5042,5.71285,20.9722,0.0682727,-1.03048,-0.590733,1,0,-55.5975,-0.5425,7.1225,0.128222,-0.039894,-0.786412,-0.08932,0.40782,0.30072
64.8025,0,0,5,5,79.8025,79.8025,-79.6307,5.71809,20.9778,0.0681817,-1.03087,-0.592895,1,0,-67.6725,-2.66,2.9925,0.128222,-0.039894,-0.786412,-0.08932,0.40782,0.30072
64.7045,0,0,5,5,79.7045,79.7045,-79.7303,5.72351,20.9852,0.0433044,-2.79175,-0.00420033,1,0,-52.7275,-3.6225,3.2725,0.103334,-1.79865,-0.200568,-0.08932,0.40782,0.30072
64.6337,0,0,5,5,79.6337,79.6337,-79.8097,5.72918,20.9767,0.0432061,-2.79198,-0.00555769,1,0,-40.4425,5.495,1.7675,0.103334,-1.79865,-0.200568,-0.08932,0.40782,0.30072
64.5618,0,0,5,5,79.5618,79.5618,-79.8707,5.74435,20.9806,-0.265631,-2.74097,0.478549,1,0,-30.8875,-0.63,8.505,-0.206546,-1.74753,0.280844,-0.08946,0.41286,0.29246
64.4535,0,0,5,5,79.4535,79.4535,-79.9105,5.7494,20.9931,-0.14399,-0.578708,-0.08659,1,0,-19.4775,-6.615,3.57,-0.084302,0.412604,-0.279258,-0.08946,0.41286,0.29246
64.4865,0,0,5,5,79.4865,79.4865,-79.9503,5.75447,21.0055,-0.144078,-0.57882,-0.0872725,1,0,-19.4775,-6.615,3.57,-0.084302,0.412604,-0.279258,-0.08946,0.41286,0.29246
64.3557,0,0,5,5,79.3557,79.3557,-79.9682,5.76554,21.0091,-0.373392,-2.09665,0.442941,1,0,-6.6675,-0.8575,6.1075,-0.314394,-1.10361,0.247172,-0.08946,0.41286,0.29246
64.3709,0,0,5,5,79.3709,79.3709,-79.9861,5.77724,21.0077,-0.372502,-2.11304,-0.646568,1,0,-6.37,1.9775,5.985,-0.313296,-1.11996,-0.833626,-0.08946,0.41286,0.29246
64.3598,0,0,5,5,79.3598,79.3598,-80.0003,5.78661,21.0126,-0.372665,-2.11307,-0.646815,1,0,-4.725,-1.8025,5.2675,-0.313296,-1.11996,-0.833626,-0.08946,0.41286,0.29246
64.3427,0,0,5,5,79.3427,79.3427,-80.0106,5.79201,21.0246,-0.689593,-2.09453,-0.0966754,1,0,-2.905,-6.335,3.71,-0.631472,-1.10142,-0.287554,-0.08946,0.41286,0.29246
64.278,0,0,5,5,79.278,79.278,-80.011,5.79863,21.0318,-0.689708,-2.09452,-0.0966838,1,0,2.94,-3.4125,3.92,-0.631472,-1.10142,-0.287554,-0.08946,0.41286,0.29246
64.1828,0,0,5,5,79.1828,79.1828,-79.9984,5.8066,21.035,-0.147656,-2.50726,-0.474538,1,0,10.43,-0.98,4.2875,-0.086986,-1.51378,-0.662704,-0.07742,0.40432,0.2884
64.0124,0,0,5,5,79.0124,79.0124,-79.9642,5.8153,21.0356,-0.317158,-2.55391,-0.244165,1,0,22.6975,0.5425,4.4625,-0.257054,-1.5605,-0.434686,-0.07742,0.40432,0.2884
64.022,0,0,5,5,79.022,79.022,-79.9348,5.82443,21.0377,-0.317317,-2.55381,-0.243664,1,0,19.9325,-0.245,4.8475,-0.257054,-1.5605,-0.434686,-0.07742,0.40432,0.2884
63.9917,0,0,5,5,78.9917,78.9917,-79.9043,5.83388,21.0411,-0.469216,-2.31091,-0.402487,1,0,20.4575,-0.91,5.1625,-0.409432,-1.31797,-0.592798,-0.07742,0.40432,0.2884
63.9723,0,0,5,5,78.9723,78.9723,-79.8743,5.84573,21.0505,-0.469422,-2.3108,-0.401978,1,0,19.8275,-4.1475,7.1575,-0.409432,-1.31797,-0.592798,-0.07742,0.40432,0.2884
63.9076,0,0,5,5,78.9076,78.9076,-79.8387,5.85868,21.0643,-0.743962,-3.08006,-0.366949,1,0,22.715,-6.5625,8.2425,-0.684908,-2.08657,-0.558638,-0.07742,0.40432,0.2884
63.0081,0,0,5,5,78.0081,78.0081,-79.6863,5.7985,21.248,-0.246648,-1.93439,0.216114,0,0,20.7375,-6.58,7.0525,-0.186538,-0.94245,0.017324,-0.07742,0.40432,0.2884
62.7616,0,0,5,5,77.7616,77.7616,-79.5171,5.73675,21.4296,-0.245575,-1.93397,0.219025,0,0,28.91,-6.86,7.0175,-0.186538,-0.94245,0.017324,-0.07742,0.40432,0.2884
63.4936,0,0,5,5,78.4936,78.4936,-79.4638,5.74556,21.4454,-0.0387169,-2.49691,0.0896054,1,0,32.515,-8.085,6.125,0.02135,-1.50499,-0.111996,-0.08036,0.41104,0.29176
63.444,0,0,5,5,78.444,78.444,-79.4095,5.75379,21.4618,-0.0388597,-2.49673,0.0905304,1,0,33.0925,-8.5225,5.8625,0.02135,-1.50499,-0.111996,-0.08036,0.41104,0.29176
60.5346,0,0,5,5,75.5346,75.5346,-78.9712,5.50795,21.7403,-0.68551,-1.74134,0.0348921,0,0,33.4775,-7.84,5.3725,-0.632326,-0.751398,-0.174704,-0.08036,0.41104,0.29176
60.0975,0,0,5,5,75.0975,75.0975,-78.5211,5.2556,22.0232,-0.681125,-1.74021,0.0426428,0,0,36.365,-11.865,5.215,-0.632326,-0.751398,-0.174704,-0.08036,0.41104,0.29176
62.6162,0,0,5,5,77.6162,77.6162,-78.4564,5.26246,22.0456,-0.111112,-2.01134,-0.218753,1,0,38.6575,-11.9875,5.915,-0.05978,-1.02248,-0.435174,-0.08036,0.41104,0.29176
62.6199,0,0,5,5,77.6199,77.6199,-78.399,5.26944,22.0624,-0.111233,-2.01113,-0.217778,1,0,34.8775,-8.7325,5.3375,-0.05978,-1.02248,-0.435174,-0.08036,0.41104,0.29176
62.5893,0,0,5,5,77.5893,77.5893,-78.3435,5.27712,22.0782,-0.869802,-2.30183,-0.176508,1,0,33.8625,-8.085,5.635,-0.821426,-1.31309,-0.395158,-0.08036,0.41104,0.29176
62.5546,0,0,5,5,77.5546,77.5546,-78.2891,5.28944,22.094,-0.870016,-2.30162,-0.175587,1,0,33.215,-7.56,8.295,-0.821426,-1.31309,-0.395158,-0.08036,0.41104,0.29176
62.5344,0,0,5,5,77.5344,77.5344,-78.2377,5.30069,22.1095,-0.490083,-2.14522,-0.374999,1,0,31.57,-7.4725,7.6475,-0.439688,-1.15705,-0.593896,-0.0714,0.4025,0.28994
57.9618,0,0,5,5,72.9618,72.9618,-77.5793,4.95656,22.2228,-0.253642,-1.78955,-0.41939,0,0,29.155,-8.2775,5.18,-0.208254,-0.803614,-0.649162,-0.0714,0.4025,0.28994
57.2832,0,0,5,5,72.2832,72.2832,-76.9003,4.60982,22.3309,-0.247612,-1.78743,-0.407762,0,0,37.0825,-9.4325,6.23,-0.208254,-0.803614,-0.649162,-0.0714,0.4025,0.28994
61.3052,0,0,5,5,76.3052,76.3052,-76.8326,4.6157,22.35,0.262769,-2.0788,-0.0285503,1,0,40.6525,-10.01,5.25,0.30439,-1.09495,-0.274012,-0.0714,0.4025,0.28994
61.2279,0,0,5,5,76.2279,76.2279,-76.7617,4.61944,22.3744,0.262704,-2.07851,-0.0273498,1,0,42.2275,-13.3525,4.76,0.30439,-1.09495,-0.274012,-0.0714,0.4025,0.28994
61.1569,0,0,5,5,76.1569,76.1569,-76.6887,4.62398,22.3984,-0.425956,-2.27264,0.400516,1,0,43.4,-13.02,5.18,-0.387106,-1.28917,0.149328,-0.0714,0.4025,0.28994
61.0993,0,0,5,5,76.0993,76.0993,-76.6156,4.62888,22.4175,-0.426041,-2.27234,0.401751,1,0,43.645,-10.1675,4.7425,-0.387106,-1.28917,0.149328,-0.0714,0.4025,0.28994
61.0371,0,0,5,5,76.0371,76.0371,-76.5419,4.6331,22.4379,-0.652928,-1.22309,-0.244573,1,0,43.96,-10.955,4.5325,-0.61488,-0.241316,-0.493246,-0.0714,0.4025,0.28994
60.9181,0,0,5,5,75.9181,75.9181,-76.46,4.63974,22.4619,-0.653044,-1.22275,-0.243189,1,0,48.3875,-12.705,6.4225,-0.61488,-0.241316,-0.493246,-0.07616,0.40628,0.29386
56.1818,0,0,5,5,71.1818,71.1818,-75.7524,4.29615,22.4928,-0.0383007,-1.68787,-0.448006,0,0,48.7375,-13.7025,4.655,-0.003538,-0.708454,-0.708454,-0.07616,0.40628,0.29386
55.6283,0,0,5,5,70.6283,70.6283,-75.0463,3.94581,22.5099,-0.0322019,-1.68519,-0.436001,0,0,44.695,-11.69,1.7325,-0.003538,-0.708454,-0.708454,-0.07616,0.40628,0.29386
59.7437,0,0,5,5,74.7437,74.7437,-74.9669,3.94491,22.5266,0.707297,-2.53166,0.0287277,1,0,47.425,-9.5375,1.4,0.739076,-1.5544,-0.248636,-0.07616,0.40628,0.29386
59.6782,0,0,5,5,74.6782,74.6782,-74.8871,3.94359,22.5398,0.70732,-2.5313,0.0300701,1,0,47.7925,-7.6125,0.6475,0.739076,-1.5544,-0.248636,-0.07616,0.40628,0.29386
59.6276,0,0,5,5,74.6276,74.6276,-74.8089,3.94016,22.5552,0.67713,-2.0389,0.102818,1,0,46.795,-9.1875,-0.1925,0.708698,-1.06286,-0.177754,-0.07616,0.40628,0.29386
59.5225,0,0,5,5,74.5225,74.5225,-74.7249,3.93386,22.5718,0.67724,-2.03852,0.104232,1,0,50.0325,-10.2725,-1.6275,0.708698,-1.06286,-0.177754,-0.07616,0.40628,0.29386
59.4545,0,0,5,5,74.4545,74.4545,-74.6406,3.92542,22.5875,-0.243839,-1.45035,-0.102133,1,0,50.2075,-10.1325,-2.94,-0.216428,-0.475678,-0.383934,-0.07616,0.40628,0.29386
59.3109,0,0,5,5,74.3109,74.3109,-74.5459,3.91763,22.6008,-0.243704,-1.44992,-0.100541,1,0,56.105,-8.715,-2.9225,-0.216428,-0.475678,-0.383934,-0.07658,0.4025,0.3066
59.1816,0,0,5,5,74.1816,74.1816,-74.444,3.91166,22.6136,-0.0681745,-1.71935,-0.0909596,1,0,60.235,-8.085,-1.9775,-0.04026,-0.745298,-0.376126,-0.07658,0.4025,0.3066
59.0871,0,0,5,5,74.0871,74.0871,-74.3401,3.90868,22.6228,-0.0681225,-1.71887,-0.089217,1,0,61.425,-5.635,-0.84,-0.04026,-0.745298,-0.376126,-0.07658,0.4025,0.3066
54.9571,0,0,5,5,69.9571,69.9571,-73.6941,3.6431,22.5025,0.283952,-1.63974,-0.446548,0,0,61.005,-5.7575,-0.945,0.30866,-0.669048,-0.741516,-0.07658,0.4025,0.3066
54.4084,0,0,5,5,69.4084,69.4084,-73.0437,3.37446,22.3724,0.288632,-1.63677,-0.43561,0,0,59.9375,-5.32,-2.2925,0.30866,-0.669048,-0.741516,-0.07658,0.4025,0.3066
57.97,0,0,5,5,72.97,72.97,-72.9398,3.36929,22.3772,0.052675,-1.76607,-0.0394585,1,0,61.635,-3.535,-2.6775,0.071614,-0.798734,-0.35014,-0.07658,0.4025,0.3066
57.8741,0,0,5,5,72.8741,72.8741,-72.8341,3.36683,22.3832,0.0527178,-1.76553,-0.0376971,1,0,62.6325,-3.7625,-0.945,0.071614,-0.798734,-0.35014,-0.07658,0.4025,0.3066
54.8757,0,0,5,5,69.8757,69.8757,-72.3379,3.19545,22.2692,0.329168,-1.79253,-0.138084,0,0,63.875,-3.78,-1.4875,0.346236,-0.828136,-0.457988,-0.07658,0.4025,0.3066
54.3837,0,0,5,5,69.3837,69.3837,-71.8289,3.02225,22.148,0.332187,-1.78996,-0.129593,0,0,66.9375,-4.1825,-2.5025,0.346236,-0.828136,-0.457988,-0.07364,0.39774,0.30716
56.9319,0,0,5,5,71.9319,71.9319,-71.7156,3.0161,22.1521,0.525092,-1.11484,0.00322524,1,0,66.9725,-3.36,-3.2725,0.53985,-0.15433,-0.328058,-0.07364,0.39774,0.30716
56.7476,0,0,5,5,71.7476,71.7476,-71.5896,3.01302,22.1517,0.525146,-1.11415,0.00531086,1,0,74.2175,-0.2975,-2.3975,0.53985,-0.15433,-0.328058,-0.07364,0.39774,0.30716
56.5879,0,0,5,5,71.5879,71.5879,-71.4555,3.0109,22.1516,-0.596616,-0.917769,-0.289639,1,0,78.715,-0.2975,-1.8025,-0.586698,0.041114,-0.622932,-0.07364,0.39774,0.30716
56.5299,0,0,5,5,71.5299,71.5299,-71.3279,3.01028,22.1456,-0.596606,-0.91706,-0.287531,1,0,75.2675,3.2375,-2.065,-0.586698,0.041114,-0.622932,-0.07364,0.39774,0.30716
52.7207,0,0,5,5,67.7207,67.7207,-70.7037,2.80134,21.8404,0.487044,-0.948868,-0.570537,0,0,75.4425,1.6625,-2.3625,0.497882,0.005978,-0.914024,-0.07364,0.39774,0.30716
52.2269,0,0,5,5,67.2269,67.2269,-70.0801,2.59459,21.5212,0.490649,-0.945379,-0.560238,0,0,74.025,3.6575,-3.4475,0.497882,0.005978,-0.914024,-0.07364,0.39774,0.30716
55.3804,0,0,5,5,70.3804,70.3804,-69.9455,2.59275,21.5098,0.536967,-2.35099,-0.0309522,1,0,79.31,5.9675,-3.9025,0.544364,-1.39897,-0.39101,-0.07364,0.39774,0.30716
55.2717,0,0,5,5,70.2717,70.2717,-69.8106,2.59186,21.4959,0.536982,-2.35018,-0.0287439,1,0,79.52,7.4375,-3.8675,0.544364,-1.39897,-0.39101,-0.07476,0.3976,0.31654
55.1811,0,0,5,5,70.1811,70.1811,-69.6779,2.59047,21.4789,1.38024,-3.27767,-0.948564,1,0,78.3825,9.1175,-4.8125,1.39117,-2.3263,-1.30589,-0.07476,0.3976,0.31654
54.964,0,0,5,5,69.964,69.964,-69.5302,2.58434,21.4678,1.38035,-3.27677,-0.946148,1,0,86.6425,4.865,-6.2125,1.39117,-2.3263,-1.30589,-0.07476,0.3976,0.31654
54.9391,0,0,5,5,69.9391,69.9391,-69.3949,2.5775,21.4526,1.29579,-1.37175,-0.392513,1,0,79.8175,6.965,-7.455,1.30613,-0.424072,-0.758718,-0.07476,0.3976,0.31654
54.6598,0,0,5,5,69.6598,69.6598,-69.2365,2.56778,21.4382,1.29596,-1.37078,-0.389926,1,0,92.715,5.88,-8.8725,1.30613,-0.424072,-0.758718,-0.07476,0.3976,0.31654
54.5192,0,0,5,5,69.5192,69.5192,-69.0761,2.56021,21.4296,0.995171,-1.46859,0.594556,1,0,93.695,3.185,-6.5275,1.00394,-0.52277,0.215574,-0.07476,0.3976,0.31654
54.3898,0,0,5,5,69.3898,69.3898,-68.9154,2.55426,21.4153,0.995274,-1.46759,0.597173,1,0,93.9925,6.5625,-6.825,1.00394,-0.52277,0.215574,-0.07476,0.3976,0.31654
54.3815,0,0,5,5,69.3815,69.3815,-68.7707,2.5463,21.4028,1.39073,-0.767391,-0.488689,1,0,84.9975,5.18,-7.5775,1.40093,0.175802,-0.864248,-0.07476,0.3976,0.31654
54.2589,0,0,5,5,69.2589,69.2589,-68.6249,2.53652,21.3845,1.3909,-0.766475,-0.486318,1,0,85.7325,7.9275,-9.8,1.40093,0.175802,-0.864248,-0.07532,0.38388,0.3241
54.0496,0,0,5,5,69.0496,69.0496,-68.4666,2.52677,21.3669,0.993081,-1.11878,-0.681078,1,0,92.75,7.5425,-9.66,1.00125,-0.177144,-1.06006,-0.07532,0.38388,0.3241
53.9689,0,0,5,5,68.9689,68.9689,-68.3143,2.52093,21.3499,0.993183,-1.11781,-0.678608,1,0,89.355,8.015,-7.42,1.00125,-0.177144,-1.06006,-0.07532,0.38388,0.3241
53.8295,0,0,5,5,68.8295,68.8295,-68.1595,2.51505,21.3284,0.233635,-2.25296,-0.0582834,1,0,90.86,10.4125,-8.435,0.238388,-1.31211,-0.447008,-0.07532,0.38388,0.3241
53.7475,0,0,5,5,68.7475,68.7475,-68.0102,2.50615,21.3006,0.233791,-2.25199,-0.0558653,1,0,87.955,13.195,-11.48,0.238388,-1.31211,-0.447008,-0.07532,0.38388,0.3241
53.6261,0,0,5,5,68.6261,68.6261,-67.8605,2.49523,21.2745,0.473065,-2.94275,-0.00758303,1,0,88.13,11.795,-12.2325,0.478484,-2.00312,-0.401502,-0.07532,0.38388,0.3241
53.2512,0,0,5,5,68.2512,68.2512,-67.6764,2.48964,21.2527,0.473162,-2.94154,-0.00461116,1,0,107.258,10.605,-8.435,0.478484,-2.00312,-0.401502,-0.07532,0.38388,0.3241
53.1078,0,0,5,5,68.1078,68.1078,-67.4928,2.48532,21.2308,1.64582,-2.27632,0.0194975,1,0,107.048,10.9025,-7.805,1.65603,-1.3398,-0.380518,-0.07532,0.38388,0.3241
52.9794,0,0,5,5,67.9794,67.9794,-67.3115,2.47639,21.2122,1.64597,-2.27511,0.0224187,1,0,105.648,8.05,-9.5725,1.65603,-1.3398,-0.380518,-0.07532,0.38388,0.3241
53.0655,0,0,5,5,68.0655,68.0655,-67.161,2.46786,21.1867,0.835691,-2.95947,-0.416913,1,0,88.5325,11.865,-10.955,0.842166,-2.02447,-0.818864,-0.07448,0.38108,0.33712
52.9019,0,0,5,5,67.9019,67.9019,-67.0046,2.46414,21.1583,0.658022,-1.92302,-1.01156,1,0,91.9275,14.525,-9.065,0.66368,-0.990152,-1.41142,-0.07448,0.38108,0.33712
52.6945,0,0,5,5,67.6945,67.6945,-66.8371,2.46191,21.1372,0.658061,-1.92188,-1.00887,1,0,98,10.85,-6.615,0.66368,-0.990152,-1.41142,-0.07448,0.38108,0.33712
52.5104,0,0,5,5,67.5104,67.5104,-66.6627,2.45972,21.125,0.160008,-4.84061,-1.52345,1,0,101.623,6.1075,-4.6025,0.16348,-3.90705,-1.92479,-0.07448,0.38108,0.33712
52.3998,0,0,5,5,67.3998,67.3998,-66.492,2.44826,21.1223,0.160208,-4.83943,-1.52071,1,0,99.295,-1.225,-7.35,0.16348,-3.90705,-1.92479,-0.07448,0.38108,0.33712
52.4976,0,0,5,5,67.4976,67.4976,-66.3526,2.44167,21.1152,-0.318817,-1.87445,-2.1572,1,0,81.8825,2.31,-5.7925,-0.317688,-0.94611,-2.55858,-0.07448,0.38108,0.33712
52.1461,0,0,5,5,67.1461,67.1461,-66.1809,2.43451,21.119,-0.318692,-1.87325,-2.15446,1,0,99.715,-3.675,-3.5525,-0.317688,-0.94611,-2.55858,-0.07448,0.38108,0.33712
51.8816,0,0,5,5,66.8816,66.8816,-65.9921,2.43207,21.1234,0.350008,-0.501288,-0.187466,1,0,109.323,-2.8875,-0.875,0.3538,0.423096,-0.609756,-0.07448,0.38108,0.33712
51.5999,0,0,5,5,66.5999,66.5999,-65.7856,2.43657,21.1357,0.349929,-0.499815,-0.184181,1,0,119.018,-5.4775,4.725,0.3538,0.423096,-0.609756,-0.0847,0.378,0.35126
51.5034,0,0,5,5,66.5034,66.5034,-65.5882,2.43938,21.1469,-1.10685,0.948806,-1.71483,1,0,113.96,-5.25,3.57,-1.1091,1.8688,-2.13171,-0.0847,0.378,0.35126
51.5597,0,0,5,5,66.5597,66.5597,-65.4194,2.44641,21.1434,-1.10698,0.950032,-1.71215,1,0,98.2975,3.57,2.2925,-1.1091,1.8688,-2.13171,-0.0847,0.378,0.35126
51.2786,0,0,5,5,66.2786,66.2786,-65.2308,2.45413,21.1469,-1.86992,-1.14941,-1.14766,1,0,109.165,0.0875,4.3225,-1.87514,-0.229848,-1.57453,-0.0847,0.378,0.35126
51.0369,0,0,5,5,66.0369,66.0369,-65.03,2.46929,21.1614,-1.87018,-1.14793,-1.14449,1,0,115.798,-3.9725,10.99,-1.87514,-0.229848,-1.57453,-0.0847,0.378,0.35126
50.7942,0,0,5,5,65.7942,65.7942,-64.8181,2.48549,21.1795,-0.351167,-1.50455,-1.21209,1,0,121.94,-5.53,12.425,-0.349408,-0.587674,-1.64493,-0.0847,0.378,0.35126
50.5449,0,0,5,5,65.5449,65.5449,-64.5953,2.49618,21.1999,-0.351354,-1.50289,-1.20858,1,0,127.943,-8.1025,10.115,-0.349408,-0.587674,-1.64493,-0.0847,0.378,0.35126
50.5062,0,0,5,5,65.5062,65.5062,-64.3911,2.50702,21.2129,-0.207218,-1.12092,-1.20426,1,0,117.723,-4.095,8.365,-0.204472,-0.207644,-1.64383,-0.0847,0.378,0.35126
50.2301,0,0,5,5,65.2301,65.2301,-64.1717,2.52561,21.2279,-0.207542,-1.11925,-1.20082,1,0,126.21,-3.1325,12.95,-0.204472,-0.207644,-1.64383,-0.07476,0.37548,0.364
49.8896,0,0,5,5,64.8896,64.8896,-63.93,2.54303,21.2516,-1.42052,-0.00750286,-0.218491,1,0,138.443,-8.015,14.595,-1.42228,0.901092,-0.67283,-0.07476,0.37548,0.364
49.6045,0,0,5,5,64.6045,64.6045,-63.6759,2.55535,21.2844,-1.42073,-0.00553862,-0.21452,1,0,145.18,-14,14.28,-1.42228,0.901092,-0.67283,-0.07476,0.37548,0.364
49.34,0,0,5,5,64.34,64.34,-63.4136,2.55798,21.3197,-1.4277,-0.610102,-2.00941,1,0,149.783,-17.745,9.9225,-1.42923,0.295118,-2.45793,-0.07476,0.37548,0.364
49.4653,0,0,5,5,64.4653,64.4653,-63.1959,2.56625,21.3338,-1.42785,-0.608392,-2.00602,1,0,125.213,-5.18,7.4025,-1.42923,0.295118,-2.45793,-0.07476,0.37548,0.364
45.4459,0,0,5,5,60.4459,60.4459,-62.4632,2.20952,21.7471,-0.936411,-1.15126,0.23944,0,0,131.548,-4.1475,13.1775,-0.941962,-0.252784,-0.241194,-0.07476,0.37548,0.364
44.7069,0,0,5,5,59.7069,59.7069,-61.7098,1.84108,22.1689,-0.929984,-1.14531,0.251158,0,0,141.19,-8.9775,12.88,-0.941962,-0.252784,-0.241194,-0.07476,0.37548,0.364
47.8724,0,0,5,5,62.8724,62.8724,-61.461,1.85174,22.1918,2.05947,0.0598327,-0.725173,1,0,142.625,-8.82,11.235,2.06034,0.949038,-1.21378,-0.07476,0.37548,0.364
47.5511,0,0,5,5,62.5511,62.5511,-61.1957,1.85203,22.2365,2.05947,0.0620532,-0.721113,1,0,151.48,-22.8375,12.04,2.06034,0.949038,-1.21378,-0.0679,0.36568,0.38192
47.4384,0,0,5,5,62.4384,62.4384,-60.9436,1.85826,22.2281,1.74106,0.751757,0.0306298,1,0,145.04,6.09,0.21,1.7407,1.6359,-0.471652,-0.0679,0.36568,0.38192
