pid_x,pid_y,pid_z,front_left_speed,front_right_speed,back_left_speed,back_right_speed,orientation_x,orientation_y,orientation_z,acceleration_x,acceleration_y,acceleration_z,accel_rejected,mag_rejected,gyro_x,gyro_y,gyro_z,accel_x,accel_y,accel_z,mag_x,mag_y,mag_z
-0.447424,0,0,15.4474,15.4474,14.5526,14.5526,0.497138,-0.0566316,-0.258781,0.0382069,-0.429581,0.090145,0,0,3.605,0.035,-0.4375,-0.002928,-0.425658,-0.923174,-0.0595,0.2583,0.33124
-0.889118,0,0,15.8891,15.8891,14.1109,14.1109,0.987909,-0.106467,-0.518799,0.0416279,-0.420894,0.0961802,0,0,3.535,0,-0.455,-0.000366,-0.425536,-0.917074,-0.0595,0.2583,0.33124
-1.32209,0,0,16.3221,16.3221,13.6779,13.6779,1.46899,-0.158233,-0.772094,0.0381579,-0.41421,0.0893589,0,0,3.71,0.035,-0.3325,-0.004758,-0.427244,-0.923662,-0.0595,0.2583,0.33124
-1.74746,0,0,16.7475,16.7475,13.2525,13.2525,1.94162,-0.206354,-1.02387,0.0389978,-0.405964,0.0891107,0,0,3.71,0.035,-0.3325,-0.004758,-0.427244,-0.923662,-0.0595,0.2583,0.33124
-2.16914,0,0,17.1691,17.1691,12.8309,12.8309,2.41015,-0.24627,-1.27837,0.0439464,-0.400236,0.0934696,0,0,3.815,-0.035,-0.4375,-0.000488,-0.429684,-0.919026,-0.0595,0.2583,0.33124
-2.57927,0,0,17.5793,17.5793,12.4207,12.4207,2.86586,-0.283028,-1.53084,0.0439805,-0.388871,0.0908875,0,0,3.71,-0.1575,-0.4375,-0.001098,-0.426268,-0.921222,-0.0595,0.2583,0.33124
-2.98169,0,0,17.9817,17.9817,12.0183,12.0183,3.31299,-0.318465,-1.78522,0.044599,-0.381079,0.0904636,0,0,3.5,-0.0875,-0.385,-0.001098,-0.426268,-0.921222,-0.0546,0.26054,0.33614
-3.37385,0,0,18.3738,18.3738,11.6262,11.6262,3.74872,-0.349098,-2.03922,0.0461055,-0.371413,0.0870414,0,0,3.535,-0.21,-0.4725,-0.000122,-0.424194,-0.92415,-0.0546,0.26054,0.33614
-3.75953,0,0,18.7595,18.7595,11.2405,11.2405,4.17725,-0.380588,-2.28826,0.043861,-0.364196,0.0884882,0,0,3.325,-0.1925,-0.5075,-0.002928,-0.424438,-0.922198,-0.0546,0.26054,0.33614
-4.13558,0,0,19.1356,19.1356,10.8644,10.8644,4.59509,-0.40964,-2.53454,0.0436391,-0.357414,0.0804271,0,0,3.395,-0.07,-0.4375,-0.00366,-0.424926,-0.92964,-0.0546,0.26054,0.33614
-4.5048,0,0,19.5048,19.5048,10.4952,10.4952,5.00533,-0.435895,-2.77895,0.0440973,-0.350279,0.0798246,0,0,3.395,-0.07,-0.4375,-0.00366,-0.424926,-0.92964,-0.0546,0.26054,0.33614
-4.87339,0,0,19.8734,19.8734,10.1266,10.1266,5.41487,-0.457643,-3.02306,0.0464207,-0.345115,0.0896232,0,0,3.605,0.0175,-0.49,-0.001708,-0.426878,-0.91927,-0.0546,0.26054,0.33614
-5.23221,0,0,20.2322,20.2322,9.76779,9.76779,5.81357,-0.474153,-3.26723,0.0484096,-0.33587,0.0877107,0,0,3.395,-0.105,-0.455,0,-0.42456,-0.92049,-0.0546,0.26054,0.33614
-5.5845,0,0,20.5845,20.5845,9.4155,9.4155,6.205,-0.486666,-3.50487,0.048628,-0.329076,0.0869937,0,0,3.5525,-0.175,-0.4025,0,-0.42456,-0.92049,-0.05712,0.25788,0.33208
-5.93073,0,0,20.9307,20.9307,9.06927,9.06927,6.5897,-0.503023,-3.73556,0.0444185,-0.322282,0.0875956,0,0,3.5525,-0.0875,-0.4025,-0.004514,-0.424438,-0.919148,-0.05712,0.25788,0.33208
-6.27062,0,0,21.2706,21.2706,8.72938,8.72938,6.96736,-0.51693,-3.96424,0.0446612,-0.315738,0.0868155,0,0,3.64,0.0175,-0.42,-0.004514,-0.424438,-0.919148,-0.05712,0.25788,0.33208
-6.60766,0,0,21.6077,21.6077,8.39234,8.39234,7.34184,-0.522905,-4.19544,0.0495034,-0.312062,0.0888283,0,0,3.6925,-0.0175,-0.42,0.000244,-0.427244,-0.916342,-0.05712,0.25788,0.33208
-6.93817,0,0,21.9382,21.9382,8.06183,8.06183,7.70908,-0.526585,-4.42481,0.0495676,-0.305708,0.0879884,0,0,3.57,0.1575,-0.63,0.000244,-0.427244,-0.916342,-0.05712,0.25788,0.33208
-7.26115,0,0,22.2612,22.2612,7.73885,7.73885,8.06795,-0.532793,-4.64882,0.0468818,-0.301336,0.0801197,0,0,3.605,-0.07,-0.525,-0.002562,-0.429074,-0.923296,-0.05712,0.25788,0.33208
-7.57808,0,0,22.5781,22.5781,7.42192,7.42192,8.42009,-0.537132,-4.87078,0.0469575,-0.295254,0.0792378,0,0,3.605,-0.07,-0.525,-0.002562,-0.429074,-0.923296,-0.05712,0.25788,0.33208
-7.88494,0,0,22.8849,22.8849,7.11506,7.11506,8.76105,-0.540738,-5.08968,0.0456841,-0.283386,0.0812991,0,0,3.64,-0.245,-0.35,-0.003904,-0.423096,-0.920368,-0.05712,0.25788,0.33208
-8.18785,0,0,23.1879,23.1879,6.81215,6.81215,9.09761,-0.541254,-5.30633,0.046665,-0.280148,0.0803873,0,0,3.5,-0.1225,-0.5425,-0.002928,-0.425658,-0.920368,-0.05796,0.25914,0.33908
-8.48283,0,0,23.4828,23.4828,6.51717,6.51717,9.42537,-0.540203,-5.52053,0.0462822,-0.273892,0.0760243,0,0,3.43,0,-0.49,-0.003294,-0.425048,-0.923784,-0.05796,0.25914,0.33908
-8.7722,0,0,23.7722,23.7722,6.2278,6.2278,9.74689,-0.537647,-5.73268,0.0462376,-0.268359,0.0750903,0,0,3.43,0,-0.49,-0.003294,-0.425048,-0.923784,-0.05796,0.25914,0.33908
-9.05606,0,0,24.0561,24.0561,5.94394,5.94394,10.0623,-0.531739,-5.9441,0.0477138,-0.265501,0.0677511,0,0,3.8325,-0.035,-0.49,-0.001708,-0.42761,-0.930128,-0.05796,0.25914,0.33908
-9.33449,0,0,24.3345,24.3345,5.66551,5.66551,10.3717,-0.524518,-6.15343,0.0475878,-0.260187,0.0667945,0,0,3.8325,-0.035,-0.49,-0.001708,-0.42761,-0.930128,-0.05796,0.25914,0.33908
-9.60681,0,0,24.6068,24.6068,5.39319,5.39319,10.6742,-0.514798,-6.36144,0.0479041,-0.25243,0.0703807,0,0,3.6575,0.07,-0.5775,-0.00122,-0.425048,-0.925614,-0.05796,0.25914,0.33908
-9.8739,0,0,24.8739,24.8739,5.1261,5.1261,10.971,-0.503933,-6.56735,0.0477145,-0.247342,0.0694098,0,0,3.6575,0.07,-0.5775,-0.00122,-0.425048,-0.925614,-0.05796,0.25914,0.33908
-10.1378,0,0,25.1378,25.1378,5,5,11.2642,-0.491615,-6.77556,0.0488358,-0.244397,0.0690397,0,0,3.605,-0.0525,-0.6125,0.000122,-0.427122,-0.925004,-0.0581,0.26012,0.33544
-10.399,0,0,25.399,25.399,5,5,11.5544,-0.48533,-6.97629,0.0438667,-0.240287,0.0709894,0,0,3.7275,0.1225,-0.595,-0.004758,-0.427976,-0.922076,-0.0581,0.26012,0.33544
-10.6551,0,0,25.6551,25.6551,5,5,11.839,-0.477859,-7.17498,0.0437363,-0.235422,0.0699835,0,0,3.7275,0.1225,-0.595,-0.004758,-0.427976,-0.922076,-0.0581,0.26012,0.33544
-10.9041,0,0,25.9041,25.9041,5,5,12.1157,-0.466002,-7.37401,0.0458376,-0.23131,0.0630817,0,0,3.7275,-0.0175,-0.56,-0.00244,-0.428586,-0.927932,-0.0581,0.26012,0.33544
-11.1482,0,0,26.1482,26.1482,5,5,12.3869,-0.453176,-7.57097,0.0456138,-0.226683,0.0620788,0,0,3.7275,-0.0175,-0.56,-0.00244,-0.428586,-0.927932,-0.0581,0.26012,0.33544
-11.3873,0,0,26.3873,26.3873,5,5,12.6525,-0.439825,-7.76577,0.0452593,-0.220814,0.0646413,0,0,3.3425,-0.21,-0.525,-0.002562,-0.427244,-0.924394,-0.0581,0.26012,0.33544
-11.6216,0,0,26.6216,26.6216,5,5,12.9129,-0.425603,-7.95852,0.0450111,-0.216382,0.0636376,0,0,3.3425,-0.21,-0.525,-0.002562,-0.427244,-0.924394,-0.0581,0.26012,0.33544
-11.85,0,0,26.85,26.85,5,5,13.1667,-0.416493,-8.14511,0.0406001,-0.209746,0.0632542,0,0,3.5175,-0.28,-0.4375,-0.006832,-0.424926,-0.923784,-0.0581,0.26012,0.33544
-12.0739,0,0,27.0739,27.0739,5,5,13.4155,-0.406811,-8.3313,0.0404311,-0.20552,0.062257,0,0,3.5175,-0.28,-0.4375,-0.006832,-0.424926,-0.923784,-0.05754,0.26012,0.33264
-12.2971,0,0,27.2971,27.2971,5,5,13.6634,-0.395208,-8.51566,0.041079,-0.202167,0.0677616,0,0,3.57,-0.07,-0.35,-0.005978,-0.42578,-0.917318,-0.05754,0.26012,0.33264
-12.5159,0,0,27.5159,27.5159,5,5,13.9065,-0.382777,-8.69808,0.040862,-0.198046,0.0667521,0,0,3.57,-0.07,-0.35,-0.005978,-0.42578,-0.917318,-0.05754,0.26012,0.33264
-12.7273,0,0,27.7273,27.7273,5,5,14.1415,-0.366637,-8.88114,0.0424026,-0.192724,0.0615799,0,0,3.71,-0.2975,-0.525,-0.004148,-0.424438,-0.921466,-0.05754,0.26012,0.33264
-12.9346,0,0,27.9346,27.9346,5,5,14.3718,-0.349857,-9.06223,0.0421098,-0.188828,0.0605917,0,0,3.71,-0.2975,-0.525,-0.004148,-0.424438,-0.921466,-0.05754,0.26012,0.33264
-13.136,0,0,28.136,28.136,5,5,14.5955,-0.323436,-9.24648,0.0471155,-0.185047,0.0562982,0,0,3.7275,0.175,-0.4025,0.001342,-0.424438,-0.92476,-0.05754,0.26012,0.33264
-13.3337,0,0,28.3337,28.3337,5,5,14.8152,-0.306647,-9.42195,0.0398978,-0.180972,0.0559413,0,0,3.71,0.3675,-0.5425,-0.005612,-0.424072,-0.92415,-0.05754,0.26012,0.33264
-13.5268,0,0,28.5268,28.5268,5,5,15.0298,-0.284056,-9.59924,0.0431481,-0.177352,0.05461,0,0,3.57,0.2275,-0.5775,-0.001952,-0.424072,-0.924516,-0.05754,0.26012,0.33264
-13.716,0,0,28.716,28.716,5,5,15.24,-0.261142,-9.77417,0.0427482,-0.17381,0.0536538,0,0,3.535,0.21,-0.525,-0.001952,-0.424072,-0.924516,-0.05628,0.26054,0.33712
-13.901,0,0,28.901,28.901,5,5,15.4456,-0.241262,-9.94497,0.0403359,-0.170716,0.0507389,0,0,3.4825,0.0875,-0.385,-0.004026,-0.424438,-0.926468,-0.05628,0.26054,0.33712
-14.0824,0,0,29.0824,29.0824,5,5,15.6471,-0.221403,-10.114,0.0399893,-0.167327,0.0497974,0,0,3.535,-0.1575,-0.385,-0.004026,-0.424438,-0.926468,-0.05628,0.26054,0.33712
-14.2631,0,0,29.2631,29.2631,5,5,15.8479,-0.196672,-10.284,0.0428378,-0.16603,0.0513068,0,0,3.6575,-0.0875,-0.49,-0.000732,-0.426512,-0.924028,-0.05628,0.26054,0.33712
-14.4401,0,0,29.4401,29.4401,5,5,16.0446,-0.171381,-10.4517,0.0423964,-0.162729,0.0503653,0,0,3.57,0.1575,-0.35,-0.000732,-0.426512,-0.924028,-0.05628,0.26054,0.33712
-14.6105,0,0,29.6105,29.6105,5,5,16.2339,-0.147039,-10.617,0.0409997,-0.157723,0.0460054,0,0,3.6225,0.0525,-0.21,-0.001708,-0.424682,-0.927444,-0.05628,0.26054,0.33712
-14.7772,0,0,29.7772,29.7772,5,5,16.4191,-0.122442,-10.7805,0.0405704,-0.15462,0.0450975,0,0,3.4475,0.07,-0.315,-0.001708,-0.424682,-0.927444,-0.05628,0.26054,0.33712
-14.9465,0,0,29.9465,29.9465,5,5,16.6072,-0.103802,-10.9381,0.0368434,-0.152694,0.0547388,0,0,3.3425,-0.0175,-0.315,-0.005124,-0.425902,-0.916952,-0.05628,0.26054,0.33712
-15.1124,0,0,30.1124,30.1124,5,5,16.7915,-0.0850335,-11.095,0.0365159,-0.149612,0.0538147,0,0,3.36,-0.105,-0.4375,-0.005124,-0.425902,-0.916952,-0.0574,0.26166,0.33866
-15.2704,0,0,30.2704,30.2704,5,5,16.9671,-0.0637868,-11.252,0.0371169,-0.14558,0.0449337,0,0,3.4125,-0.14,-0.6125,-0.004148,-0.424804,-0.924882,-0.0574,0.26166,0.33866
-15.4256,0,0,30.4256,30.4256,5,5,17.1396,-0.0420726,-11.4071,0.0367379,-0.142702,0.0440512,0,0,3.64,0.035,-0.5775,-0.004148,-0.424804,-0.924882,-0.0574,0.26166,0.33866
-15.5748,0,0,30.5748,30.5748,5,5,17.3053,-0.0190063,-11.5613,0.0368213,-0.13823,0.0406132,0,0,3.5,0.035,-0.4375,-0.00366,-0.423096,-0.927444,-0.0574,0.26166,0.33866
-15.7206,0,0,30.7206,30.7206,5,5,17.4673,0.00419814,-11.7135,0.0364163,-0.135532,0.0397683,0,0,3.29,0.0875,-0.35,-0.00366,-0.423096,-0.927444,-0.0574,0.26166,0.33866
-15.868,0,0,30.868,30.868,5,5,17.6311,0.0303802,-11.8656,0.0383891,-0.135004,0.0445617,0,0,3.4475,0.0525,-0.385,-0.00122,-0.425292,-0.921832,-0.0574,0.26166,0.33866
-16.0125,0,0,31.0125,31.0125,5,5,17.7917,0.0565673,-12.016,0.037932,-0.132334,0.0437087,0,0,3.4475,0.0525,-0.385,-0.00122,-0.425292,-0.921832,-0.0574,0.26166,0.33866
-16.1532,0,0,31.1532,31.1532,5,5,17.948,0.0839275,-12.1658,0.0384264,-0.130838,0.0380764,0,0,3.5875,-0.1225,-0.4375,-0.000244,-0.42639,-0.92659,-0.0574,0.26166,0.33866
-16.291,0,0,31.291,31.291,5,5,18.1011,0.111181,-12.3143,0.0379507,-0.128297,0.0372486,0,0,3.5875,-0.1225,-0.4375,-0.000244,-0.42639,-0.92659,-0.0574,0.26096,0.3346
-16.4315,0,0,31.4315,31.4315,5,5,18.2572,0.130312,-12.455,0.0325144,-0.126685,0.0446355,0,0,3.8325,0.21,-0.2625,-0.005368,-0.427366,-0.918416,-0.0574,0.26096,0.3346
-16.5692,0,0,31.5692,31.5692,5,5,18.4102,0.149606,-12.5941,0.0321777,-0.124151,0.0437948,0,0,3.8325,0.21,-0.2625,-0.005368,-0.427366,-0.918416,-0.0574,0.26096,0.3346
-16.7017,0,0,31.7017,31.7017,5,5,18.5574,0.175605,-12.736,0.0356114,-0.118539,0.0464216,0,0,3.465,0.1575,-0.3675,-0.001464,-0.424194,-0.915,-0.0574,0.26096,0.3346
-16.8272,0,0,31.8272,31.8272,5,5,18.6968,0.204661,-12.8781,0.0368051,-0.116844,0.0354378,0,0,3.36,0.2975,-0.28,0.000244,-0.424804,-0.925126,-0.0574,0.26096,0.3346
-16.9505,0,0,31.9505,31.9505,5,5,18.8338,0.233654,-13.0189,0.0362991,-0.114581,0.0346669,0,0,3.535,0.3325,-0.42,0.000244,-0.424804,-0.925126,-0.0574,0.26096,0.3346
-17.0719,0,0,32.0719,32.0719,5,5,18.9688,0.257,-13.155,0.0323686,-0.111865,0.0361154,0,0,3.395,0.28,-0.5775,-0.003294,-0.424316,-0.92293,-0.0574,0.26096,0.3346
-17.1909,0,0,32.1909,32.1909,5,5,19.101,0.28029,-13.2895,0.0319621,-0.109683,0.0353607,0,0,3.395,0.28,-0.5775,-0.003294,-0.424316,-0.92293,-0.0574,0.26096,0.3346
-17.3064,0,0,32.3064,32.3064,5,5,19.2294,0.307269,-13.4081,0.0330705,-0.109889,0.0285986,0,0,3.3775,0.175,-0.4725,-0.001708,-0.426634,-0.928908,-0.05992,0.25382,0.33432
-17.4218,0,0,32.4218,32.4218,5,5,19.3576,0.337337,-13.5272,0.034611,-0.10558,0.0362171,0,0,3.8325,0.14,-0.49,0.000366,-0.424438,-0.920612,-0.05992,0.25382,0.33432
-17.5357,0,0,32.5357,32.5357,5,5,19.4841,0.361136,-13.6413,0.030794,-0.107039,0.0292099,0,0,3.815,0.0875,-0.42,-0.00305,-0.427976,-0.926834,-0.05992,0.25382,0.33432
-17.6469,0,0,32.6469,32.6469,5,5,19.6076,0.384632,-13.7538,0.030384,-0.105009,0.0284862,0,0,3.535,0.0525,-0.245,-0.00305,-0.427976,-0.926834,-0.05992,0.25382,0.33432
-17.7565,0,0,32.7565,32.7565,5,5,19.7294,0.41087,-13.8668,0.0317483,-0.100933,0.0339154,0,0,3.57,-0.035,-0.245,-0.00122,-0.425902,-0.920734,-0.05992,0.25382,0.33432
-17.8637,0,0,32.8637,32.8637,5,5,19.8486,0.430315,-13.9748,0.0273999,-0.101174,0.0281678,0,0,3.36,-0.0875,-0.3325,-0.005246,-0.428098,-0.925736,-0.05992,0.25382,0.33432
-17.9691,0,0,32.9691,32.9691,5,5,19.9657,0.449912,-14.0816,0.0270579,-0.0992541,0.0274697,0,0,3.5,0.035,-0.35,-0.005246,-0.428098,-0.925736,-0.05992,0.25382,0.33432
-18.0724,0,0,33.0724,33.0724,5,5,20.0804,0.476111,-14.1911,0.0307312,-0.0934653,0.0360015,0,0,3.535,-0.105,-0.2975,-0.001098,-0.424194,-0.916586,-0.05992,0.25382,0.33432
-18.1742,0,0,33.1742,33.1742,5,5,20.1935,0.501187,-14.3127,0.0302935,-0.0916137,0.0353186,0,0,3.6925,0.175,-0.3325,-0.001098,-0.424194,-0.916586,-0.06104,0.2604,0.33054
-18.2733,0,0,33.2733,33.2733,5,5,20.3037,0.523271,-14.4317,0.0283288,-0.0907878,0.0309614,0,0,3.6925,-0.0175,-0.455,-0.002684,-0.42517,-0.920246,-0.06104,0.2604,0.33054
-18.3706,0,0,33.3706,33.3706,5,5,20.4118,0.544238,-14.5488,0.0274769,-0.0902415,0.0283347,0,0,3.57,-0.035,-0.4725,-0.003172,-0.42639,-0.922198,-0.06104,0.2604,0.33054
-18.4659,0,0,33.4659,33.4659,5,5,20.5177,0.565286,-14.6644,0.0271096,-0.0885106,0.027685,0,0,3.57,0.1225,-0.385,-0.003172,-0.42639,-0.922198,-0.06104,0.2604,0.33054
-18.5555,0,0,33.5555,33.5555,5,5,20.6172,0.5933,-14.7831,0.0306297,-0.0843221,0.0243655,0,0,3.6925,0.175,-0.385,0.000854,-0.423828,-0.924882,-0.06104,0.2604,0.33054
-18.6477,0,0,33.6477,33.6477,5,5,20.7196,0.618701,-14.8984,0.029093,-0.0850936,0.028894,0,0,3.5175,0.315,-0.4725,-0.000244,-0.426268,-0.919758,-0.06104,0.2604,0.33054
-18.7379,0,0,33.7379,33.7379,5,5,20.8199,0.643311,-15.0125,0.0286635,-0.0834596,0.0282692,0,0,3.43,0.0175,-0.4025,-0.000244,-0.426268,-0.919758,-0.06104,0.2604,0.33054
-18.8229,0,0,33.8229,33.8229,5,5,20.9144,0.664163,-15.1158,0.025384,-0.0814317,0.0211617,0,0,3.325,0.0175,-0.4375,-0.003172,-0.42578,-0.926224,-0.06258,0.25746,0.33222
-18.907,0,0,33.907,33.907,5,5,21.0078,0.683216,-15.2169,0.0238366,-0.0777117,0.0259843,0,0,3.5,0.035,-0.49,-0.004392,-0.423584,-0.920856,-0.06258,0.25746,0.33222
-18.9897,0,0,33.9897,33.9897,5,5,21.0997,0.701904,-15.3172,0.0235104,-0.0762175,0.0254049,0,0,3.64,-0.1575,-0.63,-0.004392,-0.423584,-0.920856,-0.06258,0.25746,0.33222
-19.0685,0,0,34.0685,34.0685,5,5,21.1872,0.720895,-15.4166,0.0233005,-0.0746719,0.0210385,0,0,3.4125,-0.0875,-0.525,-0.00427,-0.423462,-0.924638,-0.06258,0.25746,0.33222
-19.1457,0,0,34.1457,34.1457,5,5,21.273,0.73972,-15.5149,0.022972,-0.0732775,0.0204924,0,0,3.4125,-0.0875,-0.525,-0.00427,-0.423462,-0.924638,-0.06258,0.25746,0.33222
-19.2271,0,0,34.2271,34.2271,5,5,21.3635,0.759792,-15.6119,0.0240795,-0.0746175,0.0271681,0,0,3.4475,-0.0175,-0.525,-0.002806,-0.426268,-0.91744,-0.06258,0.25746,0.33222
-19.3022,0,0,34.3022,34.3022,5,5,21.4469,0.782923,-15.7102,0.0250122,-0.069112,0.0251565,0,0,3.465,0.0525,-0.5075,-0.001464,-0.42212,-0.918904,-0.06258,0.25746,0.33222
-19.3759,0,0,34.3759,34.3759,5,5,21.5288,0.805594,-15.8073,0.0246165,-0.0677834,0.0246275,0,0,3.57,-0.0175,-0.4375,-0.001464,-0.42212,-0.918904,-0.06258,0.25746,0.33222
-19.4482,0,0,34.4482,34.4482,5,5,21.6091,0.828922,-15.9098,0.0251813,-0.068192,0.0201726,0,0,3.675,0.0525,-0.4375,-0.000488,-0.423828,-0.922808,-0.05712,0.25816,0.33236
-19.5222,0,0,34.5222,34.5222,5,5,21.6914,0.847529,-16.008,0.0224269,-0.0693023,0.0206222,0,0,3.7625,0.105,-0.35,-0.002928,-0.426268,-0.921832,-0.05712,0.25816,0.33236
-19.5945,0,0,34.5945,34.5945,5,5,21.7717,0.86574,-16.1052,0.0221091,-0.0680019,0.0200988,0,0,3.605,-0.035,-0.35,-0.002928,-0.426268,-0.921832,-0.05712,0.25816,0.33236
-19.6631,0,0,34.6631,34.6631,5,5,21.8479,0.887853,-16.2037,0.0239099,-0.0642053,0.0204601,0,0,3.6225,0.035,-0.2975,-0.000732,-0.423706,-0.920978,-0.05712,0.25816,0.33236
-19.73,0,0,34.73,34.73,5,5,21.9222,0.909639,-16.3012,0.0235297,-0.0630035,0.0199709,0,0,3.4475,0.0175,-0.2975,-0.000732,-0.423706,-0.920978,-0.05712,0.25816,0.33236
-19.7946,0,0,34.7946,34.7946,5,5,21.994,0.934417,-16.3995,0.0251626,-0.0625772,0.0161765,0,0,3.5,0.0525,-0.3325,0.001342,-0.424438,-0.924272,-0.05712,0.25816,0.33236
-19.858,0,0,34.858,34.858,5,5,22.0645,0.958746,-16.4969,0.024738,-0.061439,0.0157084,0,0,3.5875,-0.0175,-0.42,0.001342,-0.424438,-0.924272,-0.05712,0.25816,0.33236
-19.918,0,0,34.918,34.918,5,5,22.1311,0.978594,-16.5915,0.021719,-0.0590211,0.012438,0,0,3.5175,-0.21,-0.3675,-0.001342,-0.423096,-0.927078,-0.05712,0.25816,0.33236
-19.9767,0,0,34.9767,34.9767,5,5,22.1963,0.998514,-16.6791,0.0213713,-0.0579688,0.0120029,0,0,3.57,-0.245,-0.4375,-0.001342,-0.423096,-0.927078,-0.0595,0.2569,0.33642
-20.0418,0,0,35.0418,35.0418,5,5,22.2687,1.00704,-16.7583,0.0149054,-0.0622964,0.0149651,0,0,3.605,-0.105,-0.4725,-0.007686,-0.428586,-0.923662,-0.0595,0.2569,0.33642
-20.1057,0,0,35.1057,35.1057,5,5,22.3397,1.01597,-16.8364,0.0147494,-0.0611514,0.0144925,0,0,3.64,0.14,-0.42,-0.007686,-0.428586,-0.923662,-0.0595,0.2569,0.33642
-20.1623,0,0,35.1623,35.1623,5,5,22.4025,1.0395,-16.9226,0.0229643,-0.0558657,0.012347,0,0,3.5875,0.105,-0.385,0.000976,-0.424316,-0.92537,-0.0595,0.2569,0.33642
-20.2177,0,0,35.2177,35.2177,5,5,22.4642,1.06263,-17.0078,0.0225608,-0.0548746,0.0119298,0,0,3.5875,0.105,-0.385,0.000976,-0.424316,-0.92537,-0.0595,0.2569,0.33642
-20.2778,0,0,35.2778,35.2778,5,5,22.5309,1.07833,-17.0872,0.0182777,-0.0557545,0.0187334,0,0,3.64,0.14,-0.42,-0.00305,-0.426268,-0.918172,-0.0595,0.2569,0.33642
-20.3367,0,0,35.3367,35.3367,5,5,22.5963,1.09387,-17.1658,0.0180066,-0.0547023,0.0182906,0,0,3.64,0.14,-0.42,-0.00305,-0.426268,-0.918172,-0.0595,0.2569,0.33642
-20.3933,0,0,35.3933,35.3933,5,5,22.6592,1.10549,-17.2417,0.0153741,-0.0541792,0.0141763,0,0,3.5,0.105,-0.5425,-0.00549,-0.426756,-0.921832,-0.0595,0.2569,0.33642
-20.4488,0,0,35.4488,35.4488,5,5,22.7209,1.11684,-17.3207,0.015176,-0.0531874,0.0137574,0,0,3.5,0.105,-0.5425,-0.00549,-0.426756,-0.921832,-0.05726,0.2569,0.33124
-20.5034,0,0,35.5034,35.5034,5,5,22.7815,1.1333,-17.4013,0.0180473,-0.0490389,0.0210889,0,0,3.5525,0.105,-0.28,-0.002318,-0.423584,-0.914146,-0.05726,0.2569,0.33124
-20.5569,0,0,35.5569,35.5569,5,5,22.841,1.14956,-17.481,0.0177636,-0.0480854,0.0206818,0,0,3.5525,0.105,-0.28,-0.002318,-0.423584,-0.914146,-0.05726,0.2569,0.33124
-20.6028,0,0,35.6028,35.6028,5,5,22.892,1.16999,-17.5635,0.0199584,-0.0471454,0.00668173,0,0,3.6225,-0.07,-0.2625,0.000244,-0.423462,-0.927688,-0.05726,0.2569,0.33124
-20.6523,0,0,35.6523,35.6523,5,5,22.947,1.18702,-17.6427,0.0183249,-0.049927,0.00839222,0,0,3.5875,-0.0525,-0.245,-0.001098,-0.427122,-0.925614,-0.05726,0.2569,0.33124
-20.7006,0,0,35.7006,35.7006,5,5,23.0007,1.20411,-17.7208,0.0180266,-0.0490672,0.00802094,0,0,3.43,0.14,-0.2625,-0.001098,-0.427122,-0.925614,-0.05726,0.2569,0.33124
-20.745,0,0,35.745,35.745,5,5,23.05,1.2232,-17.8001,0.0187869,-0.0465691,0.00472749,0,0,3.465,0.0875,-0.4025,0,-0.425414,-0.928542,-0.05726,0.2569,0.33124
-20.7886,0,0,35.7886,35.7886,5,5,23.0984,1.24177,-17.8787,0.0184629,-0.0457941,0.00438975,0,0,3.5525,-0.07,-0.49,0,-0.425414,-0.928542,-0.05726,0.2569,0.33124
-20.8341,0,0,35.8341,35.8341,5,5,23.149,1.25624,-17.9549,0.0161451,-0.0453505,0.00883289,0,0,3.57,-0.175,-0.4375,-0.002074,-0.42578,-0.923784,-0.06048,0.25746,0.32438
-20.8794,0,0,35.8794,35.8794,5,5,23.1993,1.26888,-18.0287,0.0147097,-0.0434461,0.0113107,0,0,3.71,0.0175,-0.2275,-0.003294,-0.424682,-0.920978,-0.06048,0.25746,0.32438
-20.9235,0,0,35.9235,35.9235,5,5,23.2483,1.28147,-18.102,0.01449,-0.0426633,0.0109695,0,0,3.5,0,-0.42,-0.003294,-0.424682,-0.920978,-0.06048,0.25746,0.32438
-20.9682,0,0,35.9682,35.9682,5,5,23.298,1.29809,-18.1763,0.0171158,-0.0435792,0.0119734,0,0,3.36,0.035,-0.3675,-0.000366,-0.42639,-0.919636,-0.06048,0.25746,0.32438
-21.0123,0,0,36.0123,36.0123,5,5,23.347,1.31422,-18.2498,0.0168343,-0.0427957,0.0116286,0,0,3.5525,-0.105,-0.3675,-0.000366,-0.42639,-0.919636,-0.06048,0.25746,0.32438
-21.0569,0,0,36.0569,36.0569,5,5,23.3966,1.32234,-18.3182,0.011833,-0.0413926,0.0139874,0,0,3.5175,-0.14,-0.3675,-0.005246,-0.42578,-0.916952,-0.06048,0.25746,0.32438
-21.1009,0,0,36.1009,36.1009,5,5,23.4454,1.33086,-18.3857,0.0116844,-0.040612,0.0136455,0,0,3.675,0.105,-0.4025,-0.005246,-0.42578,-0.916952,-0.06048,0.25746,0.32438
-21.1419,0,0,36.1419,36.1419,5,5,23.491,1.34815,-18.4573,0.0169711,-0.0419615,0.00656019,0,0,3.605,0.175,-0.42,0.000366,-0.427854,-0.923662,-0.06048,0.25746,0.32438
-21.1819,0,0,36.1819,36.1819,5,5,23.5355,1.36508,-18.528,0.0166758,-0.0412527,0.00624419,0,0,3.4825,0.1925,-0.2975,0.000366,-0.427854,-0.923662,-0.06034,0.25914,0.33306
-21.2199,0,0,36.2199,36.2199,5,5,23.5777,1.38038,-18.5977,0.0153154,-0.0383821,0.00729652,0,0,3.5,0.0875,-0.4375,-0.000732,-0.425658,-0.92232,-0.06034,0.25914,0.33306
-21.2575,0,0,36.2575,36.2575,5,5,23.6195,1.39547,-18.667,0.0150522,-0.0377163,0.00699872,0,0,3.745,0.0175,-0.6475,-0.000732,-0.425658,-0.92232,-0.06034,0.25914,0.33306
-21.2941,0,0,36.2941,36.2941,5,5,23.6601,1.40967,-18.7351,0.0144399,-0.0356032,0.00929053,0,0,3.675,-0.07,-0.4375,-0.001098,-0.424194,-0.919758,-0.06034,0.25914,0.33306
-21.33,0,0,36.33,36.33,5,5,23.7,1.4241,-18.8024,0.014188,-0.034969,0.00900559,0,0,3.6575,0.1925,-0.5075,-0.001098,-0.424194,-0.919758,-0.06034,0.25914,0.33306
-21.366,0,0,36.366,36.366,5,5,23.7401,1.42913,-18.8638,0.00814758,-0.0350625,0.00687811,0,0,3.7275,0.3675,-0.5775,-0.007076,-0.424926,-0.921588,-0.06034,0.25914,0.33306
-21.4012,0,0,36.4012,36.4012,5,5,23.7792,1.43402,-18.9246,0.0080623,-0.0344388,0.00660124,0,0,3.64,0.2625,-0.5775,-0.007076,-0.424926,-0.921588,-0.06034,0.25914,0.33306
-21.4337,0,0,36.4337,36.4337,5,5,23.8152,1.44359,-18.9877,0.010811,-0.0325219,0.00548308,0,0,3.675,0.0875,-0.525,-0.004148,-0.423584,-0.922442,-0.06034,0.25914,0.33306
-21.4654,0,0,36.4654,36.4654,5,5,23.8504,1.45305,-19.0487,0.0106459,-0.0319615,0.00523099,0,0,3.6225,0.1225,-0.4025,-0.004148,-0.423584,-0.922442,-0.0595,0.25858,0.33572
-21.496,0,0,36.496,36.496,5,5,23.8844,1.46621,-19.1114,0.0129675,-0.032276,0.0027724,0,0,3.71,0,-0.525,-0.001586,-0.424438,-0.924638,-0.0595,0.25858,0.33572
-21.526,0,0,36.526,36.526,5,5,23.9178,1.47914,-19.1734,0.0127419,-0.0317461,0.00253124,0,0,3.71,0,-0.525,-0.001586,-0.424438,-0.924638,-0.0595,0.25858,0.33572
-21.5598,0,0,36.5598,36.5598,5,5,23.9553,1.48569,-19.2306,0.00934744,-0.0340804,0.00496798,0,0,3.605,-0.07,-0.4375,-0.00488,-0.427366,-0.921954,-0.0595,0.25858,0.33572
-21.5928,0,0,36.5928,36.5928,5,5,23.992,1.49222,-19.2873,0.00923356,-0.0334958,0.00470476,0,0,3.605,-0.07,-0.4375,-0.00488,-0.427366,-0.921954,-0.0595,0.25858,0.33572
-21.6264,0,0,36.6264,36.6264,5,5,24.0294,1.49876,-19.3433,0.00948384,-0.0336351,0.00578958,0,0,3.57,-0.245,-0.42,-0.004514,-0.428098,-0.920612,-0.0595,0.25858,0.33572
-21.6593,0,0,36.6593,36.6593,5,5,24.0659,1.50528,-19.3986,0.00937013,-0.0330536,0.00552685,0,0,3.57,-0.245,-0.42,-0.004514,-0.428098,-0.920612,-0.0595,0.25858,0.33572
-21.688,0,0,36.688,36.688,5,5,24.0978,1.51266,-19.4544,0.00924143,-0.030593,0.002223,0,0,3.36,-0.105,-0.5075,-0.004514,-0.426146,-0.923662,-0.0595,0.25858,0.33572
-21.7169,0,0,36.7169,36.7169,5,5,24.1299,1.51909,-19.5163,0.00876464,-0.0308162,0.00125398,0,0,3.5175,-0.0525,-0.455,-0.00488,-0.426878,-0.924394,-0.05684,0.26012,0.33026
-21.7449,0,0,36.7449,36.7449,5,5,24.161,1.52567,-19.5774,0.00864995,-0.0303214,0.00102884,0,0,3.36,0.07,-0.4375,-0.00488,-0.426878,-0.924394,-0.05684,0.26012,0.33026
-21.7687,0,0,36.7687,36.7687,5,5,24.1875,1.53836,-19.6418,0.0119516,-0.027949,-0.00223919,0,0,3.4125,0.07,-0.49,-0.001342,-0.424926,-0.927444,-0.05684,0.26012,0.33026
-21.7931,0,0,36.7931,36.7931,5,5,24.2146,1.55004,-19.7048,0.0112619,-0.0278867,-0.00170019,0,0,3.5875,0.1575,-0.455,-0.00183,-0.425292,-0.926712,-0.05684,0.26012,0.33026
-21.8169,0,0,36.8169,36.8169,5,5,24.241,1.56111,-19.767,0.0110687,-0.0274687,-0.00189403,0,0,3.5,-0.035,-0.3325,-0.00183,-0.425292,-0.926712,-0.05684,0.26012,0.33026
-21.8391,0,0,36.8391,36.8391,5,5,24.2657,1.57169,-19.8287,0.0105197,-0.027078,-0.00478046,0,0,3.535,0.0175,-0.4025,-0.002196,-0.425292,-0.929396,-0.05684,0.26012,0.33026
-21.8609,0,0,36.8609,36.8609,5,5,24.2899,1.58247,-19.8896,0.0103315,-0.026694,-0.00495935,0,0,3.57,0.245,-0.4725,-0.002196,-0.425292,-0.929396,-0.05684,0.26012,0.33026
-21.8816,0,0,36.8816,36.8816,5,5,24.3129,1.59456,-19.9507,0.0110926,-0.0253541,-0.0040231,0,0,3.465,0.1575,-0.385,-0.00122,-0.424316,-0.928298,-0.05684,0.26012,0.33026
-21.9018,0,0,36.9018,36.9018,5,5,24.3353,1.606,-20.0097,0.010893,-0.0250003,-0.00418913,0,0,3.395,-0.105,-0.35,-0.00122,-0.424316,-0.928298,-0.05712,0.2597,0.3318
-21.9251,0,0,36.9251,36.9251,5,5,24.3612,1.61114,-20.0641,0.00715881,-0.0248335,0.00127773,0,0,3.535,-0.105,-0.2975,-0.00488,-0.42456,-0.922686,-0.05712,0.2597,0.3318
-21.9481,0,0,36.9481,36.9481,5,5,24.3867,1.61623,-20.1179,0.00706992,-0.0244292,0.00109181,0,0,3.5875,-0.0875,-0.245,-0.00488,-0.42456,-0.922686,-0.05712,0.2597,0.3318
-21.9722,0,0,36.9722,36.9722,5,5,24.4136,1.61575,-20.1679,0.00367676,-0.0259563,-0.000822879,0,0,3.6225,-0.035,-0.3325,-0.008296,-0.426512,-0.924394,-0.05712,0.2597,0.3318
-21.9958,0,0,36.9958,36.9958,5,5,24.4398,1.6153,-20.2176,0.00368452,-0.0255408,-0.00101135,0,0,3.535,-0.14,-0.4375,-0.008296,-0.426512,-0.924394,-0.05712,0.2597,0.3318
-22.0191,0,0,37.0191,37.0191,5,5,24.4657,1.61722,-20.2678,0.00523031,-0.0246412,0.000890804,0,0,3.57,-0.2275,-0.315,-0.00671,-0.426024,-0.92232,-0.05712,0.2597,0.3318
-22.0423,0,0,37.0423,37.0423,5,5,24.4914,1.61937,-20.3173,0.00519287,-0.0242331,0.000703816,0,0,3.7625,-0.0875,-0.245,-0.00671,-0.426024,-0.92232,-0.05712,0.2597,0.3318
-22.0639,0,0,37.0639,37.0639,5,5,24.5154,1.6309,-20.3713,0.0108231,-0.0233654,0.00163128,0,0,3.6925,-0.035,-0.3325,-0.000854,-0.425536,-0.921222,-0.05712,0.2597,0.3318
-22.0849,0,0,37.0849,37.0849,5,5,24.5388,1.64212,-20.4227,0.0106272,-0.0229973,0.00145717,0,0,3.57,-0.0875,-0.28,-0.000854,-0.425536,-0.921222,-0.05838,0.26012,0.336
-22.1089,0,0,37.1089,37.1089,5,5,24.5655,1.65322,-20.4729,0.0109195,-0.0250181,0.00347144,0,0,3.7275,-0.105,-0.3325,-0.000366,-0.427976,-0.919026,-0.05838,0.26012,0.336
-22.1324,0,0,37.1324,37.1324,5,5,24.5915,1.6646,-20.5224,0.0107211,-0.0246075,0.00327732,0,0,3.6225,0.1925,-0.35,-0.000366,-0.427976,-0.919026,-0.05838,0.26012,0.336
-22.153,0,0,37.153,37.153,5,5,24.6144,1.67233,-20.5701,0.00803502,-0.021681,0.00236964,0,0,3.5875,0.175,-0.28,-0.002928,-0.425414,-0.919758,-0.05838,0.26012,0.336
-22.1735,0,0,37.1735,37.1735,5,5,24.6372,1.67995,-20.6177,0.00790203,-0.0213211,0.00220036,0,0,3.78,0.07,-0.525,-0.002928,-0.425414,-0.919758,-0.05838,0.26012,0.336
-22.1919,0,0,37.1919,37.1919,5,5,24.6577,1.69005,-20.6664,0.00918373,-0.0200216,0.0010631,0,0,3.7275,0.0875,-0.525,-0.001464,-0.424438,-0.920734,-0.05838,0.26012,0.336
-22.2098,0,0,37.2098,37.2098,5,5,24.6775,1.69968,-20.7144,0.00901561,-0.0197096,0.000914337,0,0,3.57,-0.0175,-0.385,-0.001464,-0.424438,-0.920734,-0.05838,0.26012,0.336
-22.2248,0,0,37.2248,37.2248,5,5,24.6942,1.70596,-20.7609,0.00647638,-0.0183472,-0.00351344,0,0,3.605,0.035,-0.49,-0.003904,-0.42334,-0.925004,-0.05838,0.26012,0.336
-22.2393,0,0,37.2393,37.2393,5,5,24.7103,1.71237,-20.8026,0.00636451,-0.0180939,-0.00363365,0,0,3.4475,0.1925,-0.4025,-0.003904,-0.42334,-0.925004,-0.05768,0.2569,0.3325
-22.2578,0,0,37.2578,37.2578,5,5,24.7309,1.72253,-20.8449,0.00922448,-0.0200897,0.00248145,0,0,3.4125,0.1575,-0.4025,-0.000854,-0.425658,-0.918782,-0.05768,0.2569,0.3325
-22.276,0,0,37.276,37.276,5,5,24.7511,1.73249,-20.8868,0.00905076,-0.0197713,0.00232895,0,0,3.4125,0.1575,-0.4025,-0.000854,-0.425658,-0.918782,-0.05768,0.2569,0.3325
-22.2947,0,0,37.2947,37.2947,5,5,24.7719,1.74381,-20.9225,0.00545164,-0.0184678,0.00413894,0,0,3.535,4.4625,-0.525,-0.00427,-0.424682,-0.91683,-0.05768,0.2569,0.3325
-22.3131,0,0,37.3131,37.3131,5,5,24.7923,1.7549,-20.9579,0.00525813,-0.0181474,0.00398451,0,0,3.535,4.4625,-0.525,-0.00427,-0.424682,-0.91683,-0.05768,0.2569,0.3325
-22.3309,0,0,37.3309,37.3309,5,5,24.8121,1.76146,-20.997,0.00684447,-0.0200336,-0.000466762,0,0,3.57,0.1925,-0.455,-0.002562,-0.426878,-0.9211,-0.05768,0.2569,0.3325
-22.3471,0,0,37.3471,37.3471,5,5,24.8301,1.76459,-21.0344,0.00460326,-0.0188941,-0.00146089,0,0,3.29,0.07,-0.49,-0.004758,-0.426024,-0.921954,-0.05768,0.2569,0.3325
-22.3632,0,0,37.3632,37.3632,5,5,24.848,1.76755,-21.0714,0.00455156,-0.0186122,-0.00159316,0,0,3.395,0,-0.4375,-0.004758,-0.426024,-0.921954,-0.05768,0.2569,0.3325
-22.379,0,0,37.379,37.379,5,5,24.8656,1.77292,-21.1158,0.00628007,-0.020533,-0.0055363,0,0,3.4125,-0.0175,-0.49,-0.002928,-0.42822,-0.925736,-0.05922,0.26152,0.3339
-22.3953,0,0,37.3953,37.3953,5,5,24.8837,1.78161,-21.1612,0.00807238,-0.0185386,-0.00112433,0,0,3.8325,0.0875,-0.5075,-0.000976,-0.426512,-0.921222,-0.05922,0.26152,0.3339
-22.411,0,0,37.411,37.411,5,5,24.9011,1.79,-21.206,0.00792603,-0.0182653,-0.0012562,0,0,3.6225,0.07,-0.3675,-0.000976,-0.426512,-0.921222,-0.05922,0.26152,0.3339
-22.4245,0,0,37.4245,37.4245,5,5,24.9161,1.80032,-21.2516,0.00896073,-0.0177861,-0.00444522,0,0,3.5875,0.0875,-0.3325,0.000244,-0.426268,-0.924272,-0.05922,0.26152,0.3339
-22.4376,0,0,37.4376,37.4376,5,5,24.9306,1.81032,-21.2968,0.00878639,-0.0175585,-0.00455706,0,0,3.4825,0.0175,-0.3325,0.000244,-0.426268,-0.924272,-0.05922,0.26152,0.3339
-22.4548,0,0,37.4548,37.4548,5,5,24.9498,1.81504,-21.3382,0.0057884,-0.0183549,0.00132375,0,0,3.6225,0,-0.4375,-0.002684,-0.427366,-0.918294,-0.05922,0.26152,0.3339
-22.4716,0,0,37.4716,37.4716,5,5,24.9685,1.82017,-21.3791,0.00569881,-0.0180612,0.00118394,0,0,3.5175,0.2275,-0.595,-0.002684,-0.427366,-0.918294,-0.05922,0.26152,0.3339
-22.4867,0,0,37.4867,37.4867,5,5,24.9853,1.82406,-21.4192,0.00490207,-0.0187736,-0.00447439,0,0,3.57,0.2275,-0.455,-0.003416,-0.428342,-0.923784,-0.05922,0.26152,0.3339
-22.5016,0,0,37.5016,37.5016,5,5,25.0018,1.8277,-21.457,0.00483858,-0.0185124,-0.00459838,0,0,3.64,0.105,-0.385,-0.003416,-0.428342,-0.923784,-0.05824,0.25956,0.33166
-22.511,0,0,37.511,37.511,5,5,25.0123,1.83194,-21.4961,0.00452171,-0.0143183,-0.00824298,0,0,3.675,0.0175,-0.4025,-0.00366,-0.424316,-0.927322,-0.05824,0.25956,0.33166
-22.5227,0,0,37.5227,37.5227,5,5,25.0252,1.84251,-21.5374,0.00858922,-0.0131395,0.0012463,0,0,3.5875,0.0175,-0.4375,0.00061,-0.42334,-0.917806,-0.05824,0.25956,0.33166
-22.5337,0,0,37.5337,37.5337,5,5,25.0374,1.85258,-21.5783,0.00841358,-0.0129486,0.00115093,0,0,3.325,-0.1225,-0.3675,0.00061,-0.42334,-0.917806,-0.05824,0.25956,0.33166
-22.5436,0,0,37.5436,37.5436,5,5,25.0485,1.85582,-21.6156,0.00398367,-0.0135071,-0.0047111,0,0,3.4825,-0.0875,-0.4375,-0.003782,-0.424072,-0.92354,-0.05824,0.25956,0.33166
-22.5533,0,0,37.5533,37.5533,5,5,25.0592,1.85907,-21.6524,0.00392696,-0.0133386,-0.00479192,0,0,3.395,0,-0.3325,-0.003782,-0.424072,-0.92354,-0.05824,0.25956,0.33166
-22.5663,0,0,37.5663,37.5663,5,5,25.0737,1.86682,-21.6902,0.00707182,-0.015066,-0.000107755,0,0,3.5175,0.07,-0.385,-0.000488,-0.426024,-0.918782,-0.05824,0.25956,0.33166
-22.579,0,0,37.579,37.579,5,5,25.0877,1.87454,-21.7274,0.0069371,-0.0148456,-0.000215771,0,0,3.4475,0.175,-0.3325,-0.000488,-0.426024,-0.918782,-0.05824,0.25956,0.33166
-22.5877,0,0,37.5877,37.5877,5,5,25.0975,1.8755,-21.7552,0.00230403,-0.0144477,-0.0100012,0,0,3.4825,0.0875,-0.4375,-0.005124,-0.42578,-0.92842,-0.05782,0.2548,0.3276
-22.5979,0,0,37.5979,37.5979,5,5,25.1088,1.87678,-21.7827,0.00252456,-0.0121936,-0.00246261,0,0,3.605,-0.0175,-0.455,-0.00488,-0.423706,-0.920856,-0.05782,0.2548,0.3276
-22.6079,0,0,37.6079,37.6079,5,5,25.1199,1.87835,-21.8096,0.00249716,-0.0120182,-0.00254583,0,0,3.64,0.1925,-0.385,-0.00488,-0.423706,-0.920856,-0.05782,0.2548,0.3276
-22.6201,0,0,37.6201,37.6201,5,5,25.1334,1.88311,-21.8373,0.00472238,-0.0131491,0.000671107,0,0,3.675,0.1925,-0.4725,-0.002562,-0.425048,-0.917562,-0.05782,0.2548,0.3276
-22.6317,0,0,37.6317,37.6317,5,5,25.1463,1.88726,-21.8646,0.00464995,-0.0129464,0.000573338,0,0,3.465,-0.035,-0.2275,-0.002562,-0.425048,-0.917562,-0.05782,0.2548,0.3276
-22.645,0,0,37.645,37.645,5,5,25.1611,1.88682,-21.8891,0.00198504,-0.0158888,-0.0034701,0,0,3.5875,-0.0175,-0.4025,-0.005246,-0.42822,-0.921466,-0.05782,0.2548,0.3276
-22.6576,0,0,37.6576,37.6576,5,5,25.1752,1.88635,-21.9135,0.00199327,-0.0156661,-0.0035744,0,0,3.395,-0.1225,-0.49,-0.005246,-0.42822,-0.921466,-0.05782,0.2548,0.3276
-22.6643,0,0,37.6643,37.6643,5,5,25.1825,1.89541,-21.9436,0.00718045,-0.0117659,-0.00683058,0,0,3.465,0,-0.4725,0.000122,-0.424438,-0.924638,-0.05782,0.2548,0.3276
-22.6708,0,0,37.6708,37.6708,5,5,25.1898,1.9042,-21.9817,0.00702721,-0.011653,-0.00688928,0,0,3.465,0,-0.4725,0.000122,-0.424438,-0.924638,-0.05768,0.25816,0.32158
-22.6798,0,0,37.6798,37.6798,5,5,25.1997,1.90679,-22.0158,0.0032159,-0.0112529,-0.00253811,0,0,3.5,0.0525,-0.385,-0.00366,-0.424194,-0.920246,-0.05768,0.25816,0.32158
-22.6885,0,0,37.6885,37.6885,5,5,25.2095,1.90936,-22.0494,0.00317117,-0.0111001,-0.00261168,0,0,3.5,0.0525,-0.385,-0.00366,-0.424194,-0.920246,-0.05768,0.25816,0.32158
-22.6963,0,0,37.6963,37.6963,5,5,25.2181,1.91012,-22.0823,0.00194295,-0.00913272,-0.00132354,0,0,3.535,-0.105,-0.385,-0.00488,-0.422364,-0.918904,-0.05768,0.25816,0.32158
-22.7038,0,0,37.7038,37.7038,5,5,25.2265,1.91091,-22.1148,0.00192932,-0.00899994,-0.00138659,0,0,3.535,-0.105,-0.385,-0.00488,-0.422364,-0.918904,-0.05768,0.25816,0.32158
-22.7156,0,0,37.7156,37.7156,5,5,25.2395,1.91002,-22.1449,0.00145877,-0.0142895,-0.00320443,0,0,3.4475,0.035,-0.4725,-0.005368,-0.427854,-0.920612,-0.05768,0.25816,0.32158
-22.7271,0,0,37.7271,37.7271,5,5,25.2523,1.90922,-22.1748,0.00147279,-0.0140877,-0.00329909,0,0,3.4475,0.035,-0.4725,-0.005368,-0.427854,-0.920612,-0.05768,0.25816,0.32158
-22.7304,0,0,37.7304,37.7304,5,5,25.256,1.9174,-22.2101,0.00582503,-0.00914577,-0.00923271,0,0,3.4825,0.3675,-0.4725,-0.000854,-0.422974,-0.926468,-0.05768,0.25816,0.32158
-22.7337,0,0,37.7337,37.7337,5,5,25.2597,1.92542,-22.2383,0.00568513,-0.00908996,-0.00926423,0,0,3.4825,0.3675,-0.4725,-0.000854,-0.422974,-0.926468,-0.06174,0.25774,0.32718
-22.7419,0,0,37.7419,37.7419,5,5,25.2688,1.92811,-22.2631,0.00308712,-0.0111458,-0.00416938,0,0,3.57,0.07,-0.525,-0.003416,-0.42517,-0.921344,-0.06174,0.25774,0.32718
-22.7499,0,0,37.7499,37.7499,5,5,25.2777,1.93075,-22.2875,0.00304095,-0.011006,-0.00423707,0,0,3.57,0.07,-0.525,-0.003416,-0.42517,-0.921344,-0.06174,0.25774,0.32718
-22.7574,0,0,37.7574,37.7574,5,5,25.286,1.93307,-22.3113,0.00275753,-0.00892069,-0.000735087,0,0,3.4825,0.07,-0.2625,-0.00366,-0.423218,-0.917806,-0.06174,0.25774,0.32718
-22.7648,0,0,37.7648,37.7648,5,5,25.2942,1.93536,-22.3349,0.00271761,-0.00879193,-0.000797418,0,0,3.4825,0.07,-0.2625,-0.00366,-0.423218,-0.917806,-0.06174,0.25774,0.32718
-22.7707,0,0,37.7707,37.7707,5,5,25.3008,1.94038,-22.3602,0.00420943,-0.00771255,-0.00134087,0,0,3.5525,0.0175,-0.4375,-0.002074,-0.422242,-0.918294,-0.06174,0.25774,0.32718
-22.7765,0,0,37.7765,37.7765,5,5,25.3073,1.94528,-22.3852,0.00412387,-0.00761199,-0.00139162,0,0,3.5525,0.0175,-0.4375,-0.002074,-0.422242,-0.918294,-0.06174,0.25774,0.32718
-22.7842,0,0,37.7842,37.7842,5,5,25.3157,1.94703,-22.4081,0.00287853,-0.0121198,-0.00698834,0,0,3.43,-0.1925,-0.4025,-0.003294,-0.426878,-0.923784,-0.06174,0.25774,0.32718
-22.7916,0,0,37.7916,37.7916,5,5,25.324,1.94877,-22.4303,0.00284817,-0.0119895,-0.00705114,0,0,3.43,-0.1925,-0.4025,-0.003294,-0.426878,-0.923784,-0.0595,0.25536,0.32256
-22.7968,0,0,37.7968,37.7968,5,5,25.3298,1.95463,-22.4547,0.00456828,-0.00689241,-0.000704221,0,0,3.4825,0.035,-0.5425,-0.001464,-0.421876,-0.91744,-0.0595,0.25536,0.32256
-22.802,0,0,37.802,37.802,5,5,25.3355,1.96035,-22.4787,0.00446851,-0.00680399,-0.000749851,0,0,3.4825,0.035,-0.5425,-0.001464,-0.421876,-0.91744,-0.0595,0.25536,0.32256
-22.807,0,0,37.807,37.807,5,5,25.3412,1.9617,-22.5008,0.00201518,-0.00793689,-0.0043581,0,0,3.4825,-0.1925,-0.5425,-0.003904,-0.423096,-0.920978,-0.0595,0.25536,0.32256
-22.812,0,0,37.812,37.812,5,5,25.3467,1.96304,-22.5227,0.00199182,-0.00785023,-0.00440002,0,0,3.4825,-0.1925,-0.5425,-0.003904,-0.423096,-0.920978,-0.0595,0.25536,0.32256
-22.8206,0,0,37.8206,37.8206,5,5,25.3562,1.96403,-22.5426,0.00209607,-0.0101422,-0.00201305,0,0,3.7275,0.0525,-0.245,-0.003782,-0.425536,-0.918538,-0.0595,0.25536,0.32256
-22.8291,0,0,37.8291,37.8291,5,5,25.3656,1.96503,-22.5622,0.00207863,-0.00999463,-0.00208366,0,0,3.7275,0.0525,-0.245,-0.003782,-0.425536,-0.918538,-0.0595,0.25536,0.32256
-22.8376,0,0,37.8376,37.8376,5,5,25.3751,1.96875,-22.5832,0.00395744,-0.0116781,-0.00424663,0,0,3.64,-0.0175,-0.4375,-0.00183,-0.427366,-0.920612,-0.0595,0.25536,0.32256
-22.846,0,0,37.846,37.846,5,5,25.3844,1.97241,-22.604,0.0038936,-0.0115325,-0.00431815,0,0,3.64,-0.0175,-0.4375,-0.00183,-0.427366,-0.920612,-0.0595,0.25536,0.32256
-22.8505,0,0,37.8505,37.8505,5,5,25.3894,1.97621,-22.6252,0.00321987,-0.00742385,-0.00423496,0,0,3.57,0.14,-0.4025,-0.00244,-0.42334,-0.92049,-0.06034,0.2583,0.336
-22.8571,0,0,37.8571,37.8571,5,5,25.3968,1.97687,-22.6445,0.00175063,-0.0093847,-0.00429013,0,0,3.535,-0.07,-0.385,-0.003904,-0.425414,-0.92049,-0.06034,0.2583,0.336
-22.8637,0,0,37.8637,37.8637,5,5,25.4041,1.97732,-22.6634,0.00174272,-0.00926914,-0.00434531,0,0,3.6225,-0.1575,-0.28,-0.003904,-0.425414,-0.92049,-0.06034,0.2583,0.336
-22.8671,0,0,37.8671,37.8671,5,5,25.4079,1.97964,-22.6837,0.00243112,-0.00688928,-0.00597342,0,0,3.5875,-0.105,-0.3325,-0.003172,-0.423096,-0.922076,-0.06034,0.2583,0.336
-22.8703,0,0,37.8703,37.8703,5,5,25.4114,1.982,-22.7039,0.00239006,-0.00683438,-0.00600107,0,0,3.465,-0.07,-0.3675,-0.003172,-0.423096,-0.922076,-0.06034,0.2583,0.336
-22.8755,0,0,37.8755,37.8755,5,5,25.4173,1.98537,-22.7239,0.00342451,-0.00857557,-0.00383336,0,0,3.255,-0.1575,-0.4375,-0.002074,-0.424926,-0.91988,-0.06034,0.2583,0.336
-22.8808,0,0,37.8808,37.8808,5,5,25.4232,1.98872,-22.7437,0.00336608,-0.00848355,-0.00387934,0,0,3.36,-0.1225,-0.42,-0.002074,-0.424926,-0.91988,-0.06034,0.2583,0.336
-22.8865,0,0,37.8865,37.8865,5,5,25.4294,1.98673,-22.7604,-6.82842e-07,-0.00936102,-0.00663019,0,0,3.4125,-0.0525,-0.3325,-0.00549,-0.425902,-0.922564,-0.06034,0.2583,0.336
-22.8922,0,0,37.8922,37.8922,5,5,25.4358,1.98524,-22.7824,2.53311e-05,-0.00926102,-0.00667674,0,0,3.5,0.245,-0.315,-0.00549,-0.425902,-0.922564,-0.05656,0.2576,0.32634
-22.8965,0,0,37.8965,37.8965,5,5,25.4405,1.98536,-22.8057,0.000994999,-0.00784228,-0.00671266,0,0,3.605,0.035,-0.42,-0.004514,-0.42456,-0.922564,-0.05656,0.2576,0.32634
-22.9007,0,0,37.9007,37.9007,5,5,25.4453,1.98567,-22.8285,0.000989634,-0.0077679,-0.00674826,0,0,3.6225,0.175,-0.35,-0.004514,-0.42456,-0.922564,-0.05656,0.2576,0.32634
-22.9061,0,0,37.9061,37.9061,5,5,25.4512,1.98886,-22.8524,0.00324229,-0.00792006,-0.00359756,0,0,3.5875,-0.0525,-0.21,-0.002196,-0.424804,-0.919392,-0.05656,0.2576,0.32634
-22.911,0,0,37.911,37.911,5,5,25.4567,1.99222,-22.8762,0.00318367,-0.00783373,-0.00364091,0,0,3.4475,0.035,-0.35,-0.002196,-0.424804,-0.919392,-0.05656,0.2576,0.32634
-22.9083,0,0,37.9083,37.9083,5,5,25.4537,2.04427,-22.9252,0.0339835,-0.00777305,-0.00795029,0,0,3.64,0.1575,-0.3325,0.029646,-0.424682,-0.923662,-0.05656,0.2576,0.32634
-22.9059,0,0,37.9059,37.9059,5,5,25.451,2.095,-22.9736,0.0330987,-0.0078296,-0.00795879,0,0,3.675,0.2625,-0.2625,0.029646,-0.424682,-0.923662,-0.05656,0.2576,0.32634
-22.9096,0,0,37.9096,37.9096,5,5,25.4551,2.09648,-22.9968,0.00172954,-0.00629921,-0.0044252,0,0,3.605,0.0875,-0.28,-0.00183,-0.423218,-0.920124,-0.05656,0.2576,0.32634
-22.9132,0,0,37.9132,37.9132,5,5,25.4591,2.09769,-23.0135,0.00170844,-0.00623644,-0.00445594,0,0,3.5875,-0.175,-0.455,-0.00183,-0.423218,-0.920124,-0.06286,0.25802,0.3304
-22.9178,0,0,37.9178,37.9178,5,5,25.4642,2.09839,-23.0297,0.00157467,-0.00847648,-0.00732252,0,0,3.675,-0.175,-0.595,-0.001952,-0.425536,-0.92293,-0.06286,0.25802,0.3304
-22.9221,0,0,37.9221,37.9221,5,5,25.4691,2.09916,-23.0451,0.00156124,-0.00840079,-0.00735911,0,0,3.5525,0.0175,-0.28,-0.001952,-0.425536,-0.92293,-0.06286,0.25802,0.3304
-22.9252,0,0,37.9252,37.9252,5,5,25.4725,2.09992,-23.0609,0.00130504,-0.00578276,-0.0054179,0,0,3.7275,-0.105,-0.35,-0.002196,-0.422974,-0.920978,-0.06286,0.25802,0.3304
-22.9283,0,0,37.9283,37.9283,5,5,25.4759,2.10086,-23.0764,0.00128862,-0.00572892,-0.00544422,0,0,3.78,0.035,-0.315,-0.002196,-0.422974,-0.920978,-0.06286,0.25802,0.3304
-22.9345,0,0,37.9345,37.9345,5,5,25.4827,2.10012,-23.0903,0.00069421,-0.00842981,-0.00414273,0,0,3.675,-0.0175,-0.385,-0.002806,-0.42578,-0.919636,-0.06286,0.25802,0.3304
-22.9408,0,0,37.9408,37.9408,5,5,25.4898,2.09949,-23.1039,0.000705179,-0.00831904,-0.00419509,0,0,3.85,0.0525,-0.3325,-0.002806,-0.42578,-0.919636,-0.06286,0.25802,0.3304
-22.9429,0,0,37.9429,37.9429,5,5,25.4921,2.10189,-23.1196,0.00236419,-0.00779419,-0.0112222,0,0,3.6925,0.0525,-0.245,-0.001098,-0.425292,-0.92659,-0.06286,0.25802,0.3304
-22.9451,0,0,37.9451,37.9451,5,5,25.4945,2.104,-23.1271,0.00232732,-0.00775713,-0.0112414,0,0,3.745,-0.1225,-0.28,-0.001098,-0.425292,-0.92659,-0.06272,0.25354,0.3318
-22.9509,0,0,37.9509,37.9509,5,5,25.501,2.10176,-23.1314,-0.000306308,-0.0075318,-0.00280553,0,0,3.535,-0.0525,-0.315,-0.003782,-0.42517,-0.918172,-0.06272,0.25354,0.3318
-22.9601,0,0,37.9601,37.9601,5,5,25.5112,2.10007,-23.135,0.000573575,-0.00932476,0.00142201,0,0,3.4825,-0.175,-0.28,-0.002928,-0.427122,-0.913902,-0.06272,0.25354,0.3318
-22.9641,0,0,37.9641,37.9641,5,5,25.5157,2.10096,-23.141,0.00165135,-0.00717905,-0.00537398,0,0,3.535,-0.1225,-0.245,-0.00183,-0.425048,-0.920612,-0.06272,0.25354,0.3318
-22.9674,0,0,37.9674,37.9674,5,5,25.5194,2.09602,-23.1442,-0.00251445,-0.00675299,-0.00834973,0,0,3.675,0.105,-0.4025,-0.0061,-0.424682,-0.92354,-0.06272,0.25354,0.3318
-22.9716,0,0,37.9716,37.9716,5,5,25.524,2.09119,-23.1472,-0.00243017,-0.00631186,-0.00567714,0,0,3.745,0.0875,-0.455,-0.0061,-0.424316,-0.920856,-0.06272,0.25354,0.3318
-22.9755,0,0,37.9755,37.9755,5,5,25.5284,2.08801,-23.1512,-0.00103841,-0.00868516,-0.010503,0,0,3.6925,-0.07,-0.4725,-0.004758,-0.426756,-0.925614,-0.06272,0.25354,0.3318
-22.9828,0,0,37.9828,37.9828,5,5,25.5364,2.0949,-23.1591,0.00576608,-0.00965917,-0.00159235,0,0,3.605,-0.0875,-0.5075,0.002196,-0.427854,-0.916708,-0.06272,0.25354,0.3318
-22.9865,0,0,37.9865,37.9865,5,5,25.5405,2.09641,-23.1767,0.00209531,-0.00886243,-0.00973858,0,0,3.6225,-0.1225,-0.4375,-0.001464,-0.427122,-0.92476,-0.05908,0.25732,0.32816
-22.9911,0,0,37.9911,37.9911,5,5,25.5457,2.09904,-23.1942,0.00265681,-0.00756051,-0.00461516,0,0,3.64,-0.0175,-0.4725,-0.000854,-0.425902,-0.919636,-0.05908,0.25732,0.32816
-22.9956,0,0,37.9956,37.9956,5,5,25.5507,2.10186,-23.2115,0.00260752,-0.00748231,-0.00465454,0,0,3.605,0.14,-0.4725,-0.000854,-0.425902,-0.919636,-0.05908,0.25732,0.32816
-23.0004,0,0,38.0004,38.0004,5,5,25.556,2.10094,-23.2268,0.000193938,-0.006422,-0.00284948,0,0,3.57,0.07,-0.455,-0.003294,-0.424926,-0.917806,-0.05908,0.25732,0.32816
-23.0046,0,0,38.0046,38.0046,5,5,25.5607,2.10007,-23.2417,0.000209182,-0.00634815,-0.00288418,0,0,3.29,0.14,-0.315,-0.003294,-0.424926,-0.917806,-0.05908,0.25732,0.32816
-23.0069,0,0,38.0069,38.0069,5,5,25.5632,2.09662,-23.2559,-0.00167447,-0.00545211,-0.00609808,0,0,3.29,0.0525,-0.49,-0.005246,-0.424072,-0.920978,-0.05908,0.25732,0.32816
-23.0096,0,0,38.0096,38.0096,5,5,25.5662,2.09306,-23.2699,-0.00161247,-0.00540448,-0.00611835,0,0,3.5525,-0.0175,-0.35,-0.005246,-0.424072,-0.920978,-0.05908,0.25732,0.32816
-23.0162,0,0,38.0162,38.0162,5,5,25.5735,2.09684,-23.2861,0.00378846,-0.00883197,-0.00224131,0,0,3.5875,-0.07,-0.315,0.000244,-0.42761,-0.917074,-0.05908,0.25732,0.32816
-23.0222,0,0,38.0222,38.0222,5,5,25.5803,2.10067,-23.3023,0.00372171,-0.00872679,-0.00229436,0,0,3.3425,-0.0175,-0.3675,0.000244,-0.42761,-0.917074,-0.05908,0.25732,0.32816
-23.0241,0,0,38.0241,38.0241,5,5,25.5823,2.10056,-23.3176,0.000564977,-0.00503044,-0.00562947,0,0,3.4125,-0.07,-0.42,-0.002928,-0.42395,-0.920368,-0.06048,0.259,0.3332
-23.026,0,0,38.026,38.026,5,5,25.5844,2.10071,-23.3326,0.000562459,-0.0049981,-0.00564506,0,0,3.43,0.07,-0.455,-0.002928,-0.42395,-0.920368,-0.06048,0.259,0.3332
-23.0319,0,0,38.0319,38.0319,5,5,25.591,2.09942,-23.3458,0.000220455,-0.00733609,-0.00163691,0,0,3.465,0,-0.4375,-0.003294,-0.42639,-0.916342,-0.06048,0.259,0.3332
-23.0377,0,0,38.0377,38.0377,5,5,25.5974,2.09847,-23.359,0.000236964,-0.00723533,-0.0016845,0,0,3.4125,0.1225,-0.56,-0.003294,-0.42639,-0.916342,-0.06048,0.259,0.3332
-23.0422,0,0,38.0422,38.0422,5,5,25.6025,2.09996,-23.3735,0.00191179,-0.00862166,-0.00664144,0,0,3.4475,0.0875,-0.49,-0.001586,-0.427854,-0.921222,-0.06048,0.259,0.3332
-23.0467,0,0,38.0467,38.0467,5,5,25.6074,2.10143,-23.3878,0.00188616,-0.00854396,-0.00667972,0,0,3.4475,0.0875,-0.49,-0.001586,-0.427854,-0.921222,-0.06048,0.259,0.3332
-23.0467,0,0,38.0467,38.0467,5,5,25.6074,2.097,-23.4004,-0.00241007,-0.0063451,-0.0150374,0,0,3.675,0,-0.4375,-0.005978,-0.425658,-0.929518,-0.06048,0.259,0.3332
-23.0497,0,0,38.0497,38.0497,5,5,25.6107,2.10208,-23.4165,0.00394005,-0.00580526,-0.00363135,0,0,3.5525,0.0525,-0.42,0.000488,-0.42517,-0.918172,-0.06048,0.259,0.3332
-23.0525,0,0,38.0525,38.0525,5,5,25.6139,2.1069,-23.4397,0.00385613,-0.00575638,-0.0036582,0,0,3.4825,0,-0.3675,0.000488,-0.42517,-0.918172,-0.06006,0.26166,0.32648
-23.0518,0,0,38.0518,38.0518,5,5,25.6132,2.10899,-23.4623,0.00187582,-0.00491446,-0.0106615,0,0,3.43,-0.105,-0.3325,-0.001464,-0.424316,-0.925126,-0.06006,0.26166,0.32648
-23.0513,0,0,38.0513,38.0513,5,5,25.6126,2.11091,-23.4846,0.00184239,-0.00492446,-0.0106581,0,0,3.5175,-0.1225,-0.21,-0.001464,-0.424316,-0.925126,-0.06006,0.26166,0.32648
-23.0547,0,0,38.0547,38.0547,5,5,25.6164,2.10744,-23.5028,-0.00137728,-0.00535194,-0.00367684,0,0,3.4125,-0.0175,-0.1575,-0.004758,-0.424804,-0.918172,-0.06006,0.26166,0.32648
-23.0581,0,0,38.0581,38.0581,5,5,25.6201,2.1044,-23.5211,-0.00132425,-0.00529263,-0.00370312,0,0,3.4125,0.07,-0.4025,-0.004758,-0.424804,-0.918172,-0.06006,0.26166,0.32648
-23.0627,0,0,38.0627,38.0627,5,5,25.6252,2.09539,-23.5358,-0.00529763,-0.00582066,-0.00435108,0,0,3.5525,0.245,-0.4725,-0.008906,-0.425414,-0.918782,-0.06006,0.26166,0.32648
-23.0672,0,0,38.0672,38.0672,5,5,25.6303,2.08628,-23.5506,-0.00513877,-0.00573829,-0.00438417,0,0,3.6225,0.0175,-0.455,-0.008906,-0.425414,-0.918782,-0.06006,0.26166,0.32648
-23.0676,0,0,38.0676,38.0676,5,5,25.6307,2.08579,-23.5702,0.000215219,-0.00463199,-0.00893635,0,0,3.605,-0.105,-0.35,-0.003538,-0.424316,-0.923296,-0.06006,0.26166,0.32648
-23.0677,0,0,38.0677,38.0677,5,5,25.6307,2.0855,-23.5837,0.000220247,-0.00463139,-0.00893643,0,0,3.3775,0.0175,-0.35,-0.003538,-0.424316,-0.923296,-0.05894,0.25788,0.3276
-23.0665,0,0,38.0665,38.0665,5,5,25.6294,2.09182,-23.6001,0.00424055,-0.00502024,-0.0107743,0,0,3.395,0.28,-0.2975,0.00061,-0.424682,-0.925126,-0.05894,0.25788,0.3276
-23.0656,0,0,38.0656,38.0656,5,5,25.6285,2.0978,-23.6164,0.00413623,-0.00503701,-0.0107705,0,0,3.57,0.1575,-0.3325,0.00061,-0.424682,-0.925126,-0.05894,0.25788,0.3276
-23.0669,0,0,38.0669,38.0669,5,5,25.6299,2.09856,-23.6296,0.000842899,-0.00550252,-0.00820017,0,0,3.5525,0.1925,-0.42,-0.002684,-0.42517,-0.922564,-0.05894,0.25788,0.3276
-23.0682,0,0,38.0682,38.0682,5,5,25.6314,2.0993,-23.6427,0.000829934,-0.00547995,-0.00821153,0,0,3.5525,0.1925,-0.42,-0.002684,-0.42517,-0.922564,-0.05894,0.25788,0.3276
-23.0737,0,0,38.0737,38.0737,5,5,25.6374,2.09217,-23.651,-0.00366214,-0.00672602,-0.00382704,0,0,3.64,-0.0175,-0.385,-0.00732,-0.426512,-0.918172,-0.05894,0.25788,0.3276
-23.0777,0,0,38.0777,38.0777,5,5,25.6419,2.09223,-23.6629,0.00107471,-0.0081211,-0.00754935,0,0,3.57,-0.0175,-0.3325,-0.002562,-0.427976,-0.921832,-0.05894,0.25788,0.3276
-23.0818,0,0,38.0818,38.0818,5,5,25.6465,2.09269,-23.6745,0.00106676,-0.0080501,-0.00758375,0,0,3.64,0.2275,-0.3325,-0.002562,-0.427976,-0.921832,-0.05894,0.25788,0.3276
-23.0799,0,0,38.0799,38.0799,5,5,25.6444,2.0958,-23.6931,0.00186292,-0.00393148,-0.0116271,0,0,3.535,0.315,-0.455,-0.001708,-0.423828,-0.925858,-0.05838,0.25928,0.3234
-23.0822,0,0,38.0822,38.0822,5,5,25.6469,2.09601,-23.7089,0.000644443,-0.00755491,-0.010663,0,0,3.6225,0.3325,-0.2975,-0.002928,-0.427488,-0.924882,-0.05838,0.25928,0.3234
-23.0846,0,0,38.0846,38.0846,5,5,25.6496,2.096,-23.7249,0.000644547,-0.00751299,-0.0106831,0,0,3.71,0.14,-0.4025,-0.002928,-0.427488,-0.924882,-0.05838,0.25928,0.3234
-23.0863,0,0,38.0863,38.0863,5,5,25.6515,2.09639,-23.7411,0.000759219,-0.00553002,-0.0081154,0,0,3.71,0.0875,-0.35,-0.002806,-0.425536,-0.92232,-0.05838,0.25928,0.3234
-23.0879,0,0,38.0879,38.0879,5,5,25.6532,2.09679,-23.7573,0.000752263,-0.00550271,-0.0081288,0,0,3.675,0.0525,-0.4375,-0.002806,-0.425536,-0.92232,-0.05838,0.25928,0.3234
-23.0933,0,0,38.0933,38.0933,5,5,25.6592,2.09588,-23.7717,0.000282228,-0.00699607,-0.00300961,0,0,3.71,0.07,-0.4725,-0.003294,-0.427122,-0.917196,-0.05838,0.25928,0.3234
-23.0986,0,0,38.0986,38.0986,5,5,25.6651,2.09506,-23.7859,0.000296573,-0.00690224,-0.00305411,0,0,3.7625,0.105,-0.455,-0.003294,-0.427122,-0.917196,-0.05838,0.25928,0.3234
-23.1001,0,0,38.1001,38.1001,5,5,25.6668,2.09098,-23.7997,-0.00206198,-0.00467645,-0.00798238,0,0,3.7275,-0.1575,-0.455,-0.005734,-0.424926,-0.922076,-0.05838,0.25928,0.3234
-23.1012,0,0,38.1012,38.1012,5,5,25.668,2.087,-23.8149,-0.00199267,-0.00465693,-0.00798895,0,0,3.465,-0.1225,-0.385,-0.005734,-0.424926,-0.922076,-0.0609,0.26138,0.32214
-23.0993,0,0,38.0993,38.0993,5,5,25.6659,2.08913,-23.8334,0.00185781,-0.00591129,-0.0149826,0,0,3.325,-0.105,-0.4375,-0.00183,-0.426146,-0.92903,-0.0609,0.26138,0.32214
-23.0979,0,0,38.0979,38.0979,5,5,25.6643,2.09147,-23.8516,0.00181693,-0.00593715,-0.0149718,0,0,3.5525,0.105,-0.385,-0.00183,-0.426146,-0.92903,-0.0609,0.26138,0.32214
-23.0986,0,0,38.0986,38.0986,5,5,25.6651,2.09338,-23.8686,0.00154059,-0.00470334,-0.00735642,0,0,3.5175,0.175,-0.3675,-0.002074,-0.424926,-0.921466,-0.0609,0.26138,0.32214
-23.0994,0,0,38.0994,38.0994,5,5,25.666,2.09533,-23.8856,0.00150668,-0.00469052,-0.00736395,0,0,3.535,0.1925,-0.4375,-0.002074,-0.424926,-0.921466,-0.0609,0.26138,0.32214
-23.0993,0,0,38.0993,38.0993,5,5,25.6659,2.09967,-23.9038,0.00301032,-0.00493722,-0.00908713,0,0,3.535,0.21,-0.455,-0.000488,-0.42517,-0.923174,-0.0609,0.26138,0.32214
-23.099,0,0,38.099,38.099,5,5,25.6655,2.10337,-23.9218,0.00294578,-0.00494413,-0.00908644,0,0,3.36,-0.07,-0.3325,-0.000488,-0.42517,-0.923174,-0.0609,0.26138,0.32214
-23.1001,0,0,38.1001,38.1001,5,5,25.6668,2.10455,-23.9381,0.00122434,-0.00370384,-0.00430143,0,0,3.4475,-0.035,-0.385,-0.002196,-0.42395,-0.918416,-0.0609,0.26138,0.32214
-23.1014,0,0,38.1014,38.1014,5,5,25.6683,2.10633,-23.9468,0.00119325,-0.0036809,-0.00431372,0,0,3.605,0.315,-0.49,-0.002196,-0.42395,-0.918416,-0.0602,0.25746,0.32592
-23.1035,0,0,38.1035,38.1035,5,5,25.6706,2.10457,-23.9537,-0.000719732,-0.006086,-0.00851071,0,0,3.605,0.1575,-0.5075,-0.004148,-0.42639,-0.922564,-0.0602,0.25746,0.32592
-23.1056,0,0,38.1056,38.1056,5,5,25.6729,2.10286,-23.9605,-0.000689922,-0.00604941,-0.00852708,0,0,3.605,0.1575,-0.5075,-0.004148,-0.42639,-0.922564,-0.0602,0.25746,0.32592
-23.1076,0,0,38.1076,38.1076,5,5,25.6752,2.10579,-23.9692,0.00253907,-0.00650337,-0.00817692,0,0,3.6225,0.14,-0.2625,-0.000854,-0.426878,-0.922198,-0.0602,0.25746,0.32592
-23.1096,0,0,38.1096,38.1096,5,5,25.6774,2.10865,-23.9778,0.00248916,-0.00646934,-0.00819532,0,0,3.6225,0.14,-0.2625,-0.000854,-0.426878,-0.922198,-0.0602,0.25746,0.32592
-23.1121,0,0,38.1121,38.1121,5,5,25.6801,2.11028,-23.986,0.00148885,-0.00435079,-0.00305303,0,0,3.605,0.07,-0.49,-0.00183,-0.424804,-0.917074,-0.0602,0.25746,0.32592
-23.1145,0,0,38.1145,38.1145,5,5,25.6828,2.11188,-23.9941,0.00146099,-0.00430915,-0.0030742,0,0,3.605,0.07,-0.49,-0.00183,-0.424804,-0.917074,-0.0602,0.25746,0.32592
-23.1136,0,0,38.1136,38.1136,5,5,25.6818,2.11619,-24.0044,0.00296517,-0.00383707,-0.00970859,0,0,3.8325,0.07,-0.4375,-0.000244,-0.424316,-0.923662,-0.0602,0.25746,0.32592
-23.1128,0,0,38.1128,38.1128,5,5,25.6809,2.12037,-24.0116,0.00289214,-0.00385289,-0.00970398,0,0,3.8325,0.07,-0.4375,-0.000244,-0.424316,-0.923662,-0.06076,0.25704,0.3311
-23.115,0,0,38.115,38.115,5,5,25.6833,2.12749,-24.0194,0.00531916,-0.00650295,-0.00665304,0,0,3.6925,0.0175,-0.49,0.002318,-0.427,-0.920612,-0.06076,0.25704,0.3311
-23.1172,0,0,38.1172,38.1172,5,5,25.6858,2.13443,-24.0271,0.00519811,-0.00646652,-0.00667556,0,0,3.6925,0.0175,-0.49,0.002318,-0.427,-0.920612,-0.06076,0.25704,0.3311
-23.1182,0,0,38.1182,38.1182,5,5,25.6869,2.13529,-24.0323,0.00105257,-0.00535067,-0.00938909,0,0,3.78,0,-0.42,-0.00183,-0.425902,-0.923296,-0.06076,0.25704,0.3311
-23.1191,0,0,38.1191,38.1191,5,5,25.6879,2.13614,-24.0374,0.00103787,-0.00533423,-0.0093976,0,0,3.78,0,-0.42,-0.00183,-0.425902,-0.923296,-0.06076,0.25704,0.3311
-23.1184,0,0,38.1184,38.1184,5,5,25.6871,2.13541,-24.0423,-4.28668e-05,-0.00412608,-0.0106203,0,0,3.605,-0.1575,-0.42,-0.002928,-0.424682,-0.924516,-0.06076,0.25704,0.3311
-23.1202,0,0,38.1202,38.1202,5,5,25.6891,2.12912,-24.0434,-0.00357764,-0.00494659,-0.00780444,0,0,3.5525,0.0175,-0.315,-0.006588,-0.425536,-0.92171,-0.06076,0.25704,0.3311
-23.1222,0,0,38.1222,38.1222,5,5,25.6914,2.12318,-24.0445,-0.00347415,-0.00490993,-0.00781781,0,0,3.675,0.105,-0.385,-0.006588,-0.425536,-0.92171,-0.06076,0.25704,0.3311
-23.1227,0,0,38.1227,38.1227,5,5,25.6919,2.1235,-24.0573,0.000407915,-0.00526884,-0.0101577,0,0,3.6225,0.21,-0.49,-0.002684,-0.425902,-0.924028,-0.06132,0.26054,0.32214
-23.1231,0,0,38.1231,38.1231,5,5,25.6923,2.12401,-24.0699,0.000399039,-0.005262,-0.0101613,0,0,3.605,0.3325,-0.5075,-0.002684,-0.425902,-0.924028,-0.06132,0.26054,0.32214
-23.1246,0,0,38.1246,38.1246,5,5,25.694,2.12666,-24.0832,0.00217509,-0.00523533,-0.00661054,0,0,3.605,0.14,-0.3675,-0.000854,-0.425902,-0.92049,-0.06132,0.26054,0.32214
-23.1262,0,0,38.1262,38.1262,5,5,25.6958,2.12925,-24.0964,0.00212995,-0.00520902,-0.00662506,0,0,3.605,0.14,-0.3675,-0.000854,-0.425902,-0.92049,-0.06132,0.26054,0.32214
-23.1228,0,0,38.1228,38.1228,5,5,25.692,2.13261,-24.111,0.00194982,-0.000750781,-0.00819672,0,0,3.5,0.105,-0.2975,-0.000976,-0.421388,-0.922076,-0.06132,0.26054,0.32214
-23.1276,0,0,38.1276,38.1276,5,5,25.6973,2.13248,-24.1219,0.000737171,-0.00652877,-0.00270441,0,0,3.6225,0.105,-0.385,-0.002196,-0.427244,-0.916586,-0.06132,0.26054,0.32214
-23.132,0,0,38.132,38.132,5,5,25.7022,2.13257,-24.1325,0.000735659,-0.00645224,-0.0027413,0,0,3.4125,0.2275,-0.385,-0.002196,-0.427244,-0.916586,-0.06132,0.26054,0.32214
-23.1318,0,0,38.1318,38.1318,5,5,25.702,2.13477,-24.1454,0.00179063,-0.00572272,-0.0120854,0,0,3.6925,0.1575,-0.315,-0.001098,-0.426512,-0.925858,-0.06132,0.26054,0.32214
-23.1319,0,0,38.1319,38.1319,5,5,25.7021,2.13665,-24.1536,0.00175782,-0.00572235,-0.012087,0,0,3.815,-0.035,-0.3675,-0.001098,-0.426512,-0.925858,-0.0588,0.25606,0.3206
-23.1309,0,0,38.1309,38.1309,5,5,25.701,2.13474,-24.1603,-0.00100294,-0.00280777,-0.00802035,0,0,3.4125,-0.14,-0.5075,-0.003904,-0.423584,-0.921832,-0.0588,0.25606,0.3206
-23.1303,0,0,38.1303,38.1303,5,5,25.7004,2.13353,-24.1666,-0.000981853,-0.00281764,-0.00801473,0,0,3.64,0.2975,-0.49,-0.003904,-0.423584,-0.921832,-0.0588,0.25606,0.3206
-23.1306,0,0,38.1306,38.1306,5,5,25.7007,2.13909,-24.176,0.00365903,-0.00415687,-0.00703716,0,0,3.7625,0.28,-0.56,0.000854,-0.424926,-0.920856,-0.0588,0.25606,0.3206
-23.131,0,0,38.131,38.131,5,5,25.7011,2.14379,-24.1852,0.00357711,-0.00415271,-0.00704256,0,0,3.745,-0.0875,-0.35,0.000854,-0.424926,-0.920856,-0.0588,0.25606,0.3206
-23.1354,0,0,38.1354,38.1354,5,5,25.7059,2.14453,-24.1914,0.00137741,-0.00566392,-0.00130131,0,0,3.57,-0.0875,-0.42,-0.001342,-0.426512,-0.915122,-0.0588,0.25606,0.3206
-23.1396,0,0,38.1396,38.1396,5,5,25.7107,2.1457,-24.1974,0.00135698,-0.00559002,-0.00133774,0,0,3.535,0.1575,-0.49,-0.001342,-0.426512,-0.915122,-0.0588,0.25606,0.3206
-23.1412,0,0,38.1412,38.1412,5,5,25.7125,2.14603,-24.204,0.000743922,-0.00617203,-0.00909752,0,0,3.6225,0.035,-0.5425,-0.001952,-0.427122,-0.922808,-0.0588,0.25606,0.3206
-23.1427,0,0,38.1427,38.1427,5,5,25.7142,2.14591,-24.2026,0.000745988,-0.00614576,-0.00911008,0,0,3.5525,-0.1575,-0.3325,-0.001952,-0.427122,-0.922808,-0.05922,0.25354,0.3297
-23.1411,0,0,38.1411,38.1411,5,5,25.7123,2.143,-24.2006,-0.00151145,-0.00385403,-0.0120449,0,0,3.3775,-0.1225,-0.245,-0.00427,-0.424804,-0.925736,-0.05922,0.25354,0.3297
-23.1393,0,0,38.1393,38.1393,5,5,25.7103,2.14032,-24.1985,-0.0014647,-0.00388424,-0.0120284,0,0,3.3075,0,-0.21,-0.00427,-0.424804,-0.925736,-0.05922,0.25354,0.3297
-23.1376,0,0,38.1376,38.1376,5,5,25.7084,2.14121,-24.1979,0.000827881,-0.00391455,-0.0110309,0,0,3.3425,0.0875,-0.21,-0.001952,-0.424804,-0.92476,-0.05922,0.25354,0.3297
-23.1363,0,0,38.1363,38.1363,5,5,25.707,2.14218,-24.1975,0.000810946,-0.00393745,-0.0110206,0,0,3.5875,0.105,-0.315,-0.001952,-0.424804,-0.92476,-0.05922,0.25354,0.3297
-23.1357,0,0,38.1357,38.1357,5,5,25.7063,2.13316,-24.1922,-0.00571333,-0.00541028,-0.0154367,0,0,3.57,0.0875,-0.385,-0.008662,-0.426268,-0.929152,-0.05922,0.25354,0.3297
-23.1351,0,0,38.1351,38.1351,5,5,25.7057,2.12413,-24.187,-0.00555581,-0.00541842,-0.0154263,0,0,3.5525,-0.035,-0.315,-0.008662,-0.426268,-0.929152,-0.05922,0.25354,0.3297
-23.1396,0,0,38.1396,38.1396,5,5,25.7107,2.12642,-24.1856,0.00230077,-0.00680598,-0.0034165,0,0,3.6925,0.105,-0.3675,-0.000732,-0.427732,-0.917196,-0.05922,0.25354,0.3297
-23.1439,0,0,38.1439,38.1439,5,5,25.7155,2.12863,-24.199,0.00226225,-0.00673102,-0.00345419,0,0,3.6225,0.07,-0.4725,-0.000732,-0.427732,-0.917196,-0.05614,0.26012,0.32872
-23.146,0,0,38.146,38.146,5,5,25.7178,2.1328,-24.2137,0.00328281,-0.00535287,-0.00507226,0,0,3.57,0.0875,-0.4375,0.000366,-0.42639,-0.918782,-0.05614,0.26012,0.32872
-23.148,0,0,38.148,38.148,5,5,25.72,2.13651,-24.2283,0.00321807,-0.00531896,-0.00509127,0,0,3.5525,-0.105,-0.35,0.000366,-0.42639,-0.918782,-0.05614,0.26012,0.32872
-23.1487,0,0,38.1487,38.1487,5,5,25.7208,2.14001,-24.243,0.00315706,-0.0051852,-0.00731248,0,0,3.43,-0.2275,-0.2625,0.000366,-0.426268,-0.920978,-0.05614,0.26012,0.32872
-23.1495,0,0,38.1495,38.1495,5,5,25.7217,2.144,-24.2575,0.00308756,-0.00517174,-0.00732185,0,0,3.5,0.105,-0.35,0.000366,-0.426268,-0.920978,-0.05614,0.26012,0.32872
-23.1471,0,0,38.1471,38.1471,5,5,25.719,2.14238,-24.2704,-0.00113626,-0.00301632,-0.0130786,0,0,3.6925,0.0525,-0.455,-0.003904,-0.424072,-0.926712,-0.05614,0.26012,0.32872
-23.1447,0,0,38.1447,38.1447,5,5,25.7163,2.14094,-24.283,-0.00111123,-0.00305793,-0.0130575,0,0,3.71,0.1575,-0.4375,-0.003904,-0.424072,-0.926712,-0.05614,0.26012,0.32872
-23.1449,0,0,38.1449,38.1449,5,5,25.7166,2.13667,-24.2933,-0.00273754,-0.0041507,-0.0103526,0,0,3.8325,0.1925,-0.4025,-0.005612,-0.42517,-0.924028,-0.05614,0.26012,0.32872
-23.145,0,0,38.145,38.145,5,5,25.7166,2.13233,-24.3038,-0.00266171,-0.00414921,-0.0103502,0,0,3.675,0.035,-0.4725,-0.005612,-0.42517,-0.924028,-0.05614,0.26012,0.32872
-23.1441,0,0,38.1441,38.1441,5,5,25.7157,2.12899,-24.3068,-0.00199602,-0.00404129,-0.0113246,0,0,3.535,-0.035,-0.525,-0.005002,-0.425048,-0.925004,-0.05726,0.25718,0.3353
-23.1436,0,0,38.1436,38.1436,5,5,25.7151,2.12577,-24.3098,-0.00193988,-0.00404964,-0.0113182,0,0,3.745,-0.0525,-0.6125,-0.005002,-0.425048,-0.925004,-0.05726,0.25718,0.3353
-23.146,0,0,38.146,38.146,5,5,25.7178,2.11967,-24.3108,-0.00329136,-0.00669263,-0.0107202,0,0,3.745,-0.175,-0.595,-0.006466,-0.427732,-0.924394,-0.05726,0.25718,0.3353
-23.1482,0,0,38.1482,38.1482,5,5,25.7202,2.11377,-24.3116,-0.00318847,-0.00665294,-0.0107351,0,0,3.64,-0.1225,-0.525,-0.006466,-0.427732,-0.924394,-0.05726,0.25718,0.3353
-23.1483,0,0,38.1483,38.1483,5,5,25.7204,2.11164,-24.3145,-0.000964509,-0.00384059,-0.00864511,0,0,3.6925,-0.1225,-0.35,-0.00427,-0.424926,-0.92232,-0.05726,0.25718,0.3353
-23.1485,0,0,38.1485,38.1485,5,5,25.7205,2.10931,-24.3177,-0.000924001,-0.00383746,-0.00864496,0,0,3.6925,-0.3325,-0.455,-0.00427,-0.424926,-0.92232,-0.05726,0.25718,0.3353
-23.1484,0,0,38.1484,38.1484,5,5,25.7204,2.10472,-24.3197,-0.00266616,-0.00249448,-0.0071661,0,0,3.6925,-0.2625,-0.49,-0.0061,-0.423584,-0.920856,-0.05726,0.25718,0.3353
-23.1478,0,0,38.1478,38.1478,5,5,25.7198,2.10056,-24.3215,-0.00259353,-0.00250349,-0.0071588,0,0,3.395,-0.0525,-0.4725,-0.0061,-0.423584,-0.920856,-0.05726,0.25718,0.3353
-23.1452,0,0,38.1452,38.1452,5,5,25.7169,2.10259,-24.3339,0.00138,-0.00315951,-0.0114416,0,0,3.43,0.0875,-0.315,-0.002074,-0.424194,-0.925126,-0.05894,0.26096,0.32676
-23.1449,0,0,38.1449,38.1449,5,5,25.7166,2.09888,-24.343,-0.00207843,-0.00450669,-0.0109453,0,0,3.5175,0,-0.28,-0.005612,-0.425536,-0.924638,-0.05894,0.26096,0.32676
-23.145,0,0,38.145,38.145,5,5,25.7167,2.09547,-24.352,-0.00201895,-0.00450382,-0.0109443,0,0,3.7625,0.105,-0.3325,-0.005612,-0.425536,-0.924638,-0.05894,0.26096,0.32676
-23.1461,0,0,38.1461,38.1461,5,5,25.7179,2.09489,-24.3621,5.65749e-05,-0.00448566,-0.00800187,0,0,3.815,0,-0.3325,-0.003538,-0.425536,-0.92171,-0.05894,0.26096,0.32676
-23.1469,0,0,38.1469,38.1469,5,5,25.7188,2.09442,-24.3723,6.46752e-05,-0.0044705,-0.00800884,0,0,3.7275,0,-0.4725,-0.003538,-0.425536,-0.92171,-0.05894,0.26096,0.32676
-23.1483,0,0,38.1483,38.1483,5,5,25.7203,2.09852,-24.3846,0.00339475,-0.00518099,-0.00617825,0,0,3.5525,-0.14,-0.4725,-0.000122,-0.426268,-0.91988,-0.05894,0.26096,0.32676
-23.1496,0,0,38.1496,38.1496,5,5,25.7218,2.10242,-24.3969,0.00332667,-0.005159,-0.00619161,0,0,3.5525,-0.245,-0.56,-0.000122,-0.426268,-0.91988,-0.05894,0.26096,0.32676
-23.1494,0,0,38.1494,38.1494,5,5,25.7216,2.09775,-24.4053,-0.00278763,-0.00479424,-0.0115972,0,0,3.5175,-0.0525,-0.56,-0.006344,-0.425902,-0.925248,-0.05894,0.26096,0.32676
-23.1491,0,0,38.1491,38.1491,5,5,25.7212,2.09336,-24.4105,-0.002711,-0.00479851,-0.0115921,0,0,3.43,0.0875,-0.4725,-0.006344,-0.425902,-0.925248,-0.05768,0.2597,0.3325
-23.1498,0,0,38.1498,38.1498,5,5,25.722,2.09329,-24.4174,0.000327357,-0.00515282,-0.00852413,0,0,3.4125,0.07,-0.49,-0.003294,-0.426268,-0.922198,-0.05768,0.2597,0.3325
-23.1506,0,0,38.1506,38.1506,5,5,25.7229,2.0928,-24.4244,0.000335982,-0.00513948,-0.00853021,0,0,3.465,-0.1925,-0.455,-0.003294,-0.426268,-0.922198,-0.05768,0.2597,0.3325
-23.1503,0,0,38.1503,38.1503,5,5,25.7225,2.09556,-24.433,0.00247449,-0.00563393,-0.0113571,0,0,3.5525,-0.1575,-0.4025,-0.001098,-0.426756,-0.925004,-0.05768,0.2597,0.3325
-23.1505,0,0,38.1505,38.1505,5,5,25.7228,2.09839,-24.4417,0.00242521,-0.00563085,-0.0113606,0,0,3.8675,-0.105,-0.4725,-0.001098,-0.426756,-0.925004,-0.05768,0.2597,0.3325
-23.1548,0,0,38.1548,38.1548,5,5,25.7276,2.09843,-24.4478,0.00096671,-0.00787582,-0.00721673,0,0,3.85,-0.035,-0.5075,-0.002562,-0.429074,-0.920856,-0.05768,0.2597,0.3325
-23.1591,0,0,38.1591,38.1591,5,5,25.7323,2.09825,-24.4538,0.000969694,-0.00780082,-0.00725275,0,0,3.885,-0.1575,-0.455,-0.002562,-0.429074,-0.920856,-0.05768,0.2597,0.3325
-23.1593,0,0,38.1593,38.1593,5,5,25.7326,2.10476,-24.464,0.00486525,-0.00462382,-0.00799589,0,0,3.8325,-0.14,-0.455,0.001464,-0.425902,-0.921588,-0.05768,0.2597,0.3325
-23.1591,0,0,38.1591,38.1591,5,5,25.7323,2.11123,-24.4703,0.00475244,-0.00462961,-0.0079977,0,0,3.5525,-0.07,-0.49,0.001464,-0.425902,-0.921588,-0.05656,0.25662,0.33124
-23.1574,0,0,38.1574,38.1574,5,5,25.7304,2.1133,-24.4748,0.00131464,-0.00319444,-0.0106894,0,0,3.7275,0.1575,-0.455,-0.001952,-0.424438,-0.924272,-0.05656,0.25662,0.33124
-23.1558,0,0,38.1558,38.1558,5,5,25.7287,2.11504,-24.479,0.00128436,-0.00322242,-0.0106772,0,0,3.78,0.0525,-0.2975,-0.001952,-0.424438,-0.924272,-0.05656,0.25662,0.33124
-23.1581,0,0,38.1581,38.1581,5,5,25.7312,2.1114,-24.4794,-0.00181078,-0.00537918,-0.00737498,0,0,3.71,0.0525,-0.21,-0.005124,-0.426634,-0.920978,-0.05656,0.25662,0.33124
-23.1607,0,0,38.1607,38.1607,5,5,25.7341,2.10777,-24.4799,-0.00174744,-0.00533384,-0.00739425,0,0,3.885,-0.035,-0.2625,-0.005124,-0.426634,-0.920978,-0.05656,0.25662,0.33124
-23.1601,0,0,38.1601,38.1601,5,5,25.7335,2.10795,-24.4833,0.000557581,-0.00412154,-0.0108326,0,0,3.885,-0.1225,-0.315,-0.002806,-0.425414,-0.924394,-0.05656,0.25662,0.33124
-23.1589,0,0,38.1589,38.1589,5,5,25.7321,2.1083,-24.4868,0.000551498,-0.00414419,-0.0108219,0,0,3.395,-0.07,-0.4375,-0.002806,-0.425414,-0.924394,-0.05656,0.25662,0.33124
-23.1591,0,0,38.1591,38.1591,5,5,25.7323,2.10834,-24.4898,0.000550839,-0.00426275,-0.00811882,0,0,3.535,-0.1575,-0.42,-0.002806,-0.425536,-0.92171,-0.05656,0.25662,0.33124
-23.1594,0,0,38.1594,38.1594,5,5,25.7326,2.10875,-24.5017,0.000543676,-0.00425731,-0.00812174,0,0,3.605,0.07,-0.455,-0.002806,-0.425536,-0.92171,-0.05614,0.26054,0.32522
-23.1633,0,0,38.1633,38.1633,5,5,25.737,2.11031,-24.513,0.00185282,-0.00602103,-0.00323778,0,0,3.6925,0.0175,-0.3675,-0.001464,-0.427366,-0.91683,-0.05614,0.26054,0.32522
-23.1671,0,0,38.1671,38.1671,5,5,25.7413,2.11166,-24.5243,0.00182929,-0.00595454,-0.0032708,0,0,3.675,-0.0875,-0.3325,-0.001464,-0.427366,-0.91683,-0.05614,0.26054,0.32522
-23.1719,0,0,38.1719,38.1719,5,5,25.7465,2.11717,-24.5372,0.00477036,-0.00660615,-0.000854894,0,0,3.5875,-0.1225,-0.4025,0.001586,-0.428098,-0.91439,-0.05614,0.26054,0.32522
-23.1768,0,0,38.1768,38.1768,5,5,25.752,2.12278,-24.5499,0.00467242,-0.00652233,-0.00089935,0,0,3.7275,0.035,-0.385,0.001586,-0.428098,-0.91439,-0.05614,0.26054,0.32522
-23.1766,0,0,38.1766,38.1766,5,5,25.7518,2.1239,-24.5617,0.00112985,-0.0049384,-0.0106113,0,0,3.64,0.0175,-0.385,-0.001952,-0.426512,-0.924028,-0.05614,0.26054,0.32522
-23.1764,0,0,38.1764,38.1764,5,5,25.7515,2.12499,-24.5734,0.00111087,-0.00494243,-0.0106101,0,0,3.6225,0.035,-0.35,-0.001952,-0.426512,-0.924028,-0.05614,0.26054,0.32522
-23.1812,0,0,38.1812,38.1812,5,5,25.7569,2.12364,-24.5824,4.10181e-05,-0.00705536,-0.00401112,0,0,3.675,0.035,-0.3675,-0.00305,-0.428708,-0.91744,-0.05614,0.26054,0.32522
-23.1861,0,0,38.1861,38.1861,5,5,25.7623,2.12233,-24.5915,6.38248e-05,-0.00697087,-0.00405094,0,0,3.71,-0.0175,-0.455,-0.00305,-0.428708,-0.91744,-0.05614,0.26054,0.32522
-23.1859,0,0,38.1859,38.1859,5,5,25.7621,2.12191,-24.5943,7.1082e-05,-0.00404245,-0.00896732,0,0,3.605,-0.0875,-0.5075,-0.00305,-0.42578,-0.92232,-0.05726,0.25844,0.33572
-23.1897,0,0,38.1897,38.1897,5,5,25.7664,2.12168,-24.5959,0.000682567,-0.00654023,-0.00445034,0,0,3.535,0,-0.4025,-0.00244,-0.428342,-0.917806,-0.05726,0.25844,0.33572
-23.1936,0,0,38.1936,38.1936,5,5,25.7707,2.12134,-24.5974,0.000688581,-0.00647223,-0.00448292,0,0,3.6225,-0.0875,-0.4025,-0.00244,-0.428342,-0.917806,-0.05726,0.25844,0.33572
-23.1909,0,0,38.1909,38.1909,5,5,25.7676,2.12397,-24.6024,0.00197901,-0.00310156,-0.0125758,0,0,3.71,-0.1575,-0.4025,-0.001098,-0.424926,-0.925858,-0.05726,0.25844,0.33572
-23.188,0,0,38.188,38.188,5,5,25.7644,2.12662,-24.6073,0.00193287,-0.00315283,-0.012553,0,0,3.5875,-0.1225,-0.455,-0.001098,-0.424926,-0.925858,-0.05726,0.25844,0.33572
-23.1847,0,0,38.1847,38.1847,5,5,25.7607,2.13065,-24.6129,0.00295586,-0.00357772,-0.0135112,0,0,3.4825,-0.1225,-0.35,0,-0.425292,-0.926834,-0.05726,0.25844,0.33572
-23.1813,0,0,38.1813,38.1813,5,5,25.757,2.13481,-24.6184,0.00288335,-0.00363787,-0.0134852,0,0,3.3775,0,-0.42,0,-0.425292,-0.926834,-0.05726,0.25844,0.33572
-23.1797,0,0,38.1797,38.1797,5,5,25.7552,2.13381,-24.6142,-0.000500892,-0.00452003,-0.0134713,0,0,3.57,0.035,-0.49,-0.003416,-0.426146,-0.926834,-0.06104,0.25606,0.33362
-23.178,0,0,38.178,38.178,5,5,25.7534,2.13032,-24.6086,-0.0021407,-0.00515912,-0.0155452,0,0,3.4825,0.07,-0.4025,-0.005124,-0.426756,-0.928908,-0.06104,0.25606,0.33362
-23.1768,0,0,38.1768,38.1768,5,5,25.752,2.12709,-24.603,-0.00208445,-0.00518039,-0.0155326,0,0,3.7275,0.1925,-0.4025,-0.005124,-0.426756,-0.928908,-0.06104,0.25606,0.33362
-23.1779,0,0,38.1779,38.1779,5,5,25.7532,2.12709,-24.5985,0.00046684,-0.00467253,-0.00718145,0,0,3.605,0,-0.385,-0.002562,-0.426268,-0.920612,-0.06104,0.25606,0.33362
-23.1791,0,0,38.1791,38.1791,5,5,25.7546,2.12705,-24.5943,0.000467378,-0.00465078,-0.00719192,0,0,3.71,-0.0875,-0.525,-0.002562,-0.426268,-0.920612,-0.06104,0.25606,0.33362
-23.1773,0,0,38.1773,38.1773,5,5,25.7526,2.12481,-24.5902,-0.00143731,-0.00187257,-0.00926562,0,0,3.6925,-0.1575,-0.5775,-0.004514,-0.423462,-0.922686,-0.06104,0.25606,0.33362
-23.1751,0,0,38.1751,38.1751,5,5,25.7501,2.12241,-24.5857,-0.00139544,-0.00191093,-0.00924539,0,0,3.395,-0.1925,-0.3675,-0.004514,-0.423462,-0.922686,-0.06104,0.25606,0.33362
-23.1707,0,0,38.1707,38.1707,5,5,25.7452,2.12426,-24.5839,0.00160945,-0.00345404,-0.0158485,0,0,3.29,-0.28,-0.28,-0.001464,-0.424926,-0.929274,-0.06104,0.25606,0.33362
-23.1665,0,0,38.1665,38.1665,5,5,25.7406,2.12652,-24.5978,0.00157012,-0.00352664,-0.0158151,0,0,3.43,-0.0875,-0.455,-0.001464,-0.424926,-0.929274,-0.0581,0.26264,0.32816
-23.1649,0,0,38.1649,38.1649,5,5,25.7388,2.12944,-24.6112,0.00188355,-0.00135783,-0.00522945,0,0,3.43,0.0175,-0.525,-0.001098,-0.42273,-0.918782,-0.0581,0.26264,0.32816
-23.1634,0,0,38.1634,38.1634,5,5,25.7371,2.13226,-24.6244,0.00183443,-0.00138505,-0.00521836,0,0,3.4825,0.0175,-0.49,-0.001098,-0.42273,-0.918782,-0.0581,0.26264,0.32816
-23.1614,0,0,38.1614,38.1614,5,5,25.7349,2.13281,-24.6364,0.000245572,-0.00227417,-0.0096284,0,0,3.675,0.105,-0.4375,-0.002684,-0.423584,-0.923174,-0.0581,0.26264,0.32816
-23.1597,0,0,38.1597,38.1597,5,5,25.733,2.13314,-24.6486,0.000239741,-0.00230483,-0.00961386,0,0,3.78,-0.0525,-0.5075,-0.002684,-0.423584,-0.923174,-0.0581,0.26264,0.32816
-23.1579,0,0,38.1579,38.1579,5,5,25.7309,2.13567,-24.6617,0.00177495,-0.000749883,-0.00517378,0,0,3.6225,-0.175,-0.4375,-0.001098,-0.421998,-0.918782,-0.0581,0.26264,0.32816
-23.1562,0,0,38.1562,38.1562,5,5,25.7291,2.13857,-24.6746,0.00172443,-0.000779931,-0.0051614,0,0,3.6925,0.07,-0.525,-0.001098,-0.421998,-0.918782,-0.0581,0.26264,0.32816
-23.1542,0,0,38.1542,38.1542,5,5,25.7269,2.13514,-24.6846,-0.0023464,-0.00313422,-0.0132572,0,0,3.7975,0.0175,-0.49,-0.005246,-0.424316,-0.926834,-0.0581,0.26264,0.32816
-23.1521,0,0,38.1521,38.1521,5,5,25.7245,2.13178,-24.6898,-0.00228777,-0.00317,-0.0132375,0,0,3.71,0,-0.525,-0.005246,-0.424316,-0.926834,-0.06062,0.26194,0.33194
-23.1549,0,0,38.1549,38.1549,5,5,25.7277,2.12651,-24.6926,-0.00268182,-0.00629391,-0.00821761,0,0,3.6575,-0.14,-0.385,-0.005734,-0.427488,-0.921832,-0.06062,0.26194,0.33194
-23.1577,0,0,38.1577,38.1577,5,5,25.7308,2.12139,-24.6954,-0.00259252,-0.00624384,-0.00823806,0,0,3.6575,-0.14,-0.385,-0.005734,-0.427488,-0.921832,-0.06062,0.26194,0.33194
-23.1576,0,0,38.1576,38.1576,5,5,25.7307,2.1228,-24.7018,0.00127058,-0.00282605,-0.0061481,0,0,3.7275,-0.07,-0.315,-0.00183,-0.424072,-0.919758,-0.06062,0.26194,0.33194
-23.1576,0,0,38.1576,38.1576,5,5,25.7306,2.12416,-24.7082,0.00124678,-0.00282769,-0.00614829,0,0,3.7275,-0.07,-0.315,-0.00183,-0.424072,-0.919758,-0.06062,0.26194,0.33194
-23.1568,0,0,38.1568,38.1568,5,5,25.7298,2.12496,-24.7143,0.000989772,-0.00332903,-0.00798691,0,0,3.5,-0.14,-0.2625,-0.002074,-0.42456,-0.921588,-0.06062,0.26194,0.33194
-23.1561,0,0,38.1561,38.1561,5,5,25.729,2.12575,-24.7204,0.000976156,-0.00334157,-0.00798143,0,0,3.5,-0.14,-0.2625,-0.002074,-0.42456,-0.921588,-0.06062,0.26194,0.33194
-23.1548,0,0,38.1548,38.1548,5,5,25.7276,2.12969,-24.7286,0.00345858,-0.00568569,-0.0132596,0,0,3.535,-0.3675,-0.42,0.000488,-0.426878,-0.926834,-0.06062,0.26194,0.33194
-23.154,0,0,38.154,38.154,5,5,25.7267,2.12568,-24.7329,-0.00218136,-0.00435599,-0.0121436,0,0,3.5525,-0.28,-0.4725,-0.005246,-0.425536,-0.925736,-0.06062,0.26194,0.33194
-23.1527,0,0,38.1527,38.1527,5,5,25.7252,2.12188,-24.7368,-0.00211509,-0.0043784,-0.0121301,0,0,3.2375,-0.175,-0.4025,-0.005246,-0.425536,-0.925736,-0.06104,0.26194,0.33096
-23.1508,0,0,38.1508,38.1508,5,5,25.7231,2.11855,-24.7408,-0.00193551,-0.00404424,-0.0133417,0,0,3.4125,-0.07,-0.2625,-0.005124,-0.42517,-0.926956,-0.06104,0.26194,0.33096
-23.1493,0,0,38.1493,38.1493,5,5,25.7214,2.11553,-24.7447,-0.00188274,-0.0040692,-0.0133275,0,0,3.6575,0.07,-0.28,-0.005124,-0.42517,-0.926956,-0.06104,0.26194,0.33096
-23.1531,0,0,38.1531,38.1531,5,5,25.7257,2.11268,-24.7475,-0.00086114,-0.00729925,-0.00696456,0,0,3.5875,-0.14,-0.3675,-0.004148,-0.428464,-0.920612,-0.06104,0.26194,0.33096
-23.157,0,0,38.157,38.157,5,5,25.73,2.10986,-24.7503,-0.000812041,-0.00723095,-0.00699547,0,0,3.675,-0.1925,-0.4025,-0.004148,-0.428464,-0.920612,-0.06104,0.26194,0.33096
-23.1579,0,0,38.1579,38.1579,5,5,25.731,2.10529,-24.7531,-0.00267608,-0.00232789,-0.00454191,0,0,3.7275,-0.175,-0.4025,-0.0061,-0.423584,-0.918172,-0.06104,0.26194,0.33096
-23.1586,0,0,38.1586,38.1586,5,5,25.7318,2.101,-24.756,-0.00260125,-0.00231506,-0.00454504,0,0,3.57,-0.1225,-0.5075,-0.0061,-0.423584,-0.918172,-0.06104,0.26194,0.33096
-23.1578,0,0,38.1578,38.1578,5,5,25.7309,2.10451,-24.7627,0.00280433,-0.00501621,-0.0111798,0,0,3.605,-0.0875,-0.4725,-0.00061,-0.426268,-0.92476,-0.06104,0.26194,0.33096
-23.1569,0,0,38.1569,38.1569,5,5,25.7299,2.10796,-24.771,0.00274421,-0.00503294,-0.0111742,0,0,3.5,-0.035,-0.4025,-0.00061,-0.426268,-0.92476,-0.06034,0.26208,0.32816
-23.1558,0,0,38.1558,38.1558,5,5,25.7287,2.10588,-24.7768,-0.0011071,-0.00260896,-0.00833599,0,0,3.5,-0.1225,-0.2975,-0.004514,-0.423828,-0.921954,-0.06034,0.26208,0.32816
-23.1547,0,0,38.1547,38.1547,5,5,25.7274,2.10391,-24.7829,-0.00107278,-0.00262802,-0.00832541,0,0,3.4825,-0.1925,-0.525,-0.004514,-0.423828,-0.921954,-0.06034,0.26208,0.32816
-23.1563,0,0,38.1563,38.1563,5,5,25.7292,2.1073,-24.7906,0.00299862,-0.0052877,-0.00575896,0,0,3.5175,-0.14,-0.4725,-0.000366,-0.426512,-0.919392,-0.06034,0.26208,0.32816
-23.158,0,0,38.158,38.158,5,5,25.7311,2.11071,-24.7981,0.00293928,-0.00525947,-0.005775,0,0,3.57,-0.0875,-0.49,-0.000366,-0.426512,-0.919392,-0.06034,0.26208,0.32816
-23.1589,0,0,38.1589,38.1589,5,5,25.7321,2.10558,-24.8018,-0.00316711,-0.00243276,-0.00430454,0,0,3.535,-0.07,-0.455,-0.006588,-0.423706,-0.917928,-0.06034,0.26208,0.32816
-23.1597,0,0,38.1597,38.1597,5,5,25.733,2.1009,-24.8053,-0.00308548,-0.00241711,-0.00430875,0,0,3.4825,0.1225,-0.4725,-0.006588,-0.423706,-0.917928,-0.06034,0.26208,0.32816
-23.159,0,0,38.159,38.159,5,5,25.7323,2.10477,-24.8128,0.00267837,-0.00426229,-0.00971483,0,0,3.6575,0.245,-0.3675,-0.000732,-0.425536,-0.923296,-0.06034,0.26208,0.32816
-23.1584,0,0,38.1584,38.1584,5,5,25.7315,2.10852,-24.8224,0.00261297,-0.00427496,-0.0097114,0,0,3.6575,0.245,-0.3675,-0.000732,-0.425536,-0.923296,-0.05572,0.26096,0.32998
-23.1606,0,0,38.1606,38.1606,5,5,25.734,2.11104,-24.8306,0.002326,-0.00631245,-0.00776466,0,0,3.78,0.14,-0.28,-0.000976,-0.42761,-0.921344,-0.05572,0.26096,0.32998
-23.1628,0,0,38.1628,38.1628,5,5,25.7365,2.11351,-24.8388,0.00228295,-0.00627438,-0.00778477,0,0,3.78,0.14,-0.28,-0.000976,-0.42761,-0.921344,-0.05572,0.26096,0.32998
-23.1619,0,0,38.1619,38.1619,5,5,25.7354,2.11387,-24.8469,0.000818825,-0.00616938,-0.014416,0,0,3.43,-0.07,-0.315,-0.00244,-0.427488,-0.927932,-0.05572,0.26096,0.32998
-23.1609,0,0,38.1609,38.1609,5,5,25.7343,2.11422,-24.855,0.000812759,-0.00618617,-0.0144081,0,0,3.43,-0.07,-0.315,-0.00244,-0.427488,-0.927932,-0.05572,0.26096,0.32998
-23.159,0,0,38.159,38.159,5,5,25.7322,2.11574,-24.8636,0.00127209,-0.00487627,-0.0137784,0,0,3.465,0.07,-0.3325,-0.001952,-0.426146,-0.927322,-0.05572,0.26096,0.32998
-23.1572,0,0,38.1572,38.1572,5,5,25.7302,2.11722,-24.8722,0.00124629,-0.00490902,-0.0137636,0,0,3.465,0.07,-0.3325,-0.001952,-0.426146,-0.927322,-0.05572,0.26096,0.32998
-23.1568,0,0,38.1568,38.1568,5,5,25.7297,2.11847,-24.8802,0.000981522,-0.00406142,-0.0100726,0,0,3.8325,0.1575,-0.35,-0.002196,-0.425292,-0.923662,-0.05572,0.26096,0.32998
-23.1564,0,0,38.1564,38.1564,5,5,25.7293,2.11969,-24.883,0.000960337,-0.00406848,-0.01007,0,0,3.8325,0.1575,-0.35,-0.002196,-0.425292,-0.923662,-0.05712,0.25872,0.3304
-23.1576,0,0,38.1576,38.1576,5,5,25.7307,2.11896,-24.8848,0.000244169,-0.00624517,-0.0104487,0,0,3.64,-0.1225,-0.385,-0.002928,-0.427488,-0.924028,-0.05712,0.25872,0.3304
-23.1588,0,0,38.1588,38.1588,5,5,25.732,2.11825,-24.8865,0.0002565,-0.00622405,-0.0104584,0,0,3.64,-0.1225,-0.385,-0.002928,-0.427488,-0.924028,-0.05712,0.25872,0.3304
-23.1565,0,0,38.1565,38.1565,5,5,25.7295,2.12111,-24.8908,0.0021504,-0.0034559,-0.0109326,0,0,3.3775,-0.07,-0.4375,-0.000976,-0.424682,-0.924516,-0.05712,0.25872,0.3304
-23.156,0,0,38.156,38.156,5,5,25.7289,2.1184,-24.892,-0.00144697,-0.00370799,-0.00932857,0,0,3.4825,-0.14,-0.42,-0.004636,-0.424926,-0.92293,-0.05712,0.25872,0.3304
-23.1556,0,0,38.1556,38.1556,5,5,25.7285,2.11605,-24.8931,-0.00140588,-0.00371386,-0.00932406,0,0,3.5525,0.0525,-0.4025,-0.004636,-0.424926,-0.92293,-0.05712,0.25872,0.3304
-23.1571,0,0,38.1571,38.1571,5,5,25.7301,2.11916,-24.896,0.00254876,-0.00515487,-0.00564965,0,0,3.4125,0.14,-0.4025,-0.00061,-0.42639,-0.91927,-0.05712,0.25872,0.3304
-23.1586,0,0,38.1586,38.1586,5,5,25.7318,2.12225,-24.8989,0.00249497,-0.00512923,-0.00566421,0,0,3.465,0.14,-0.455,-0.00061,-0.42639,-0.91927,-0.05712,0.25872,0.3304
-23.1572,0,0,38.1572,38.1572,5,5,25.7302,2.12663,-24.9063,0.00302592,-0.00271291,-0.00725306,0,0,3.465,0.0875,-0.42,0,-0.42395,-0.920856,-0.05698,0.25998,0.32816
-23.1568,0,0,38.1568,38.1568,5,5,25.7297,2.12503,-24.9108,-0.000712184,-0.0030862,-0.00737153,0,0,3.4475,-0.1225,-0.35,-0.003782,-0.424316,-0.920978,-0.05698,0.25998,0.32816
-23.1563,0,0,38.1563,38.1563,5,5,25.7292,2.12345,-24.9153,-0.000684644,-0.00309366,-0.0073668,0,0,3.43,-0.175,-0.4375,-0.003782,-0.424316,-0.920978,-0.05698,0.25998,0.32816
-23.1562,0,0,38.1562,38.1562,5,5,25.7291,2.12524,-24.9213,0.00171394,-0.00370706,-0.00662906,0,0,3.395,-0.175,-0.4375,-0.001342,-0.424926,-0.920246,-0.05698,0.25998,0.32816
-23.1565,0,0,38.1565,38.1565,5,5,25.7295,2.1271,-24.9271,0.00168147,-0.00370176,-0.00663295,0,0,3.675,-0.07,-0.385,-0.001342,-0.424926,-0.920246,-0.05698,0.25998,0.32816
-23.1574,0,0,38.1574,38.1574,5,5,25.7305,2.12727,-24.9318,0.000828151,-0.006495,-0.0110668,0,0,3.535,-0.0525,-0.3325,-0.002196,-0.427732,-0.924638,-0.05698,0.25998,0.32816
-23.1581,0,0,38.1581,38.1581,5,5,25.7312,2.12749,-24.9361,0.000824252,-0.00648294,-0.0110727,0,0,3.4125,0.035,-0.2275,-0.002196,-0.427732,-0.924638,-0.05698,0.25998,0.32816
-23.1613,0,0,38.1613,38.1613,5,5,25.7348,2.12243,-24.9373,-0.00285364,-0.00520382,-0.00494957,0,0,3.6225,0.105,-0.2975,-0.005978,-0.426512,-0.918538,-0.05698,0.25998,0.32816
-23.1643,0,0,38.1643,38.1643,5,5,25.7381,2.11773,-24.9378,-0.00277163,-0.00515053,-0.00497189,0,0,3.5175,0.1575,-0.4725,-0.005978,-0.426512,-0.918538,-0.05754,0.25984,0.32872
-23.1655,0,0,38.1655,38.1655,5,5,25.7395,2.11984,-24.9419,0.00192953,-0.00647321,-0.00965543,0,0,3.5175,0.1225,-0.4725,-0.00122,-0.427854,-0.923174,-0.05754,0.25984,0.32872
-23.167,0,0,38.167,38.167,5,5,25.7411,2.12195,-24.9457,0.00189283,-0.00644819,-0.009669,0,0,3.675,0.2275,-0.315,-0.00122,-0.427854,-0.923174,-0.05754,0.25984,0.32872
-23.1687,0,0,38.1687,38.1687,5,5,25.7431,2.12169,-24.9483,7.50333e-05,-0.00544079,-0.00857693,0,0,3.885,0.28,-0.385,-0.00305,-0.426878,-0.922076,-0.05754,0.25984,0.32872
-23.17,0,0,38.17,38.17,5,5,25.7444,2.12136,-24.9511,8.07151e-05,-0.00541893,-0.00858724,0,0,3.605,0.1925,-0.455,-0.00305,-0.426878,-0.922076,-0.05754,0.25984,0.32872
-23.1684,0,0,38.1684,38.1684,5,5,25.7426,2.12257,-24.9555,0.000910029,-0.00276084,-0.00931196,0,0,3.5875,0.0525,-0.315,-0.002196,-0.424194,-0.922808,-0.05754,0.25984,0.32872
-23.1666,0,0,38.1666,38.1666,5,5,25.7406,2.12361,-24.9598,0.000891931,-0.00279231,-0.00929753,0,0,3.465,-0.0175,-0.28,-0.002196,-0.424194,-0.922808,-0.05754,0.25984,0.32872
-23.1675,0,0,38.1675,38.1675,5,5,25.7416,2.12071,-24.9617,-0.00136568,-0.00570692,-0.010164,0,0,3.465,-0.0875,-0.42,-0.004514,-0.427122,-0.923662,-0.05754,0.25984,0.32872
-23.1685,0,0,38.1685,38.1685,5,5,25.7428,2.11794,-24.9667,-0.00131748,-0.0056886,-0.0101709,0,0,3.5525,-0.0875,-0.5075,-0.004514,-0.427122,-0.923662,-0.05894,0.26334,0.3332
-23.17,0,0,38.17,38.17,5,5,25.7445,2.11515,-24.9714,-0.00139031,-0.00370677,-0.00489548,0,0,3.5875,-0.105,-0.42,-0.004636,-0.42517,-0.918416,-0.05894,0.26334,0.3332
-23.1713,0,0,38.1713,38.1713,5,5,25.7459,2.11256,-24.976,-0.0013451,-0.00368313,-0.00490503,0,0,3.465,-0.035,-0.4375,-0.004636,-0.42517,-0.918416,-0.05894,0.26334,0.3332
-23.1714,0,0,38.1714,38.1714,5,5,25.746,2.1167,-24.9842,0.00319922,-0.00246187,-0.0034326,0,0,3.5525,-0.14,-0.4025,0,-0.42395,-0.916952,-0.05894,0.26334,0.3332
-23.1716,0,0,38.1716,38.1716,5,5,25.7462,2.121,-24.9922,0.00312424,-0.00245971,-0.00343673,0,0,3.6225,0.0175,-0.4375,0,-0.42395,-0.916952,-0.05894,0.26334,0.3332
-23.1691,0,0,38.1691,38.1691,5,5,25.7434,2.12192,-24.9995,0.000799935,-0.00311486,-0.0122682,0,0,3.5875,-0.105,-0.385,-0.002318,-0.42456,-0.925736,-0.05894,0.26334,0.3332
-23.1667,0,0,38.1667,38.1667,5,5,25.7408,2.12276,-25.0065,0.000785334,-0.00315635,-0.0122488,0,0,3.6575,-0.07,-0.245,-0.002318,-0.42456,-0.925736,-0.05894,0.26334,0.3332
-23.1685,0,0,38.1685,38.1685,5,5,25.7428,2.12374,-25.0127,0.00137564,-0.0048348,-0.00648604,0,0,3.885,-0.1575,-0.3675,-0.001708,-0.426268,-0.920002,-0.05894,0.26334,0.3332
-23.1703,0,0,38.1703,38.1703,5,5,25.7448,2.1247,-25.02,0.00135887,-0.00480399,-0.00650158,0,0,3.885,-0.1575,-0.3675,-0.001708,-0.426268,-0.920002,-0.05558,0.26292,0.33768
-23.1716,0,0,38.1716,38.1716,5,5,25.7462,2.12058,-25.0242,-0.00257833,-0.0034372,-0.00601812,0,0,3.71,0.14,-0.28,-0.005734,-0.424926,-0.919514,-0.05558,0.26292,0.33768
-23.1728,0,0,38.1728,38.1728,5,5,25.7476,2.11657,-25.0285,-0.00250842,-0.0034145,-0.00602619,0,0,3.71,0.14,-0.28,-0.005734,-0.424926,-0.919514,-0.05558,0.26292,0.33768
-23.1739,0,0,38.1739,38.1739,5,5,25.7488,2.11411,-25.0336,-0.00125067,-0.00547054,-0.00935374,0,0,3.535,0.0525,-0.455,-0.004514,-0.427,-0.922808,-0.05558,0.26292,0.33768
-23.1747,0,0,38.1747,38.1747,5,5,25.7497,2.11411,-25.0398,0.000328606,-0.00509078,-0.00849956,0,0,3.5,0.14,-0.42,-0.002928,-0.426634,-0.921954,-0.05558,0.26292,0.33768
-23.1756,0,0,38.1756,38.1756,5,5,25.7506,2.11402,-25.0457,0.000330345,-0.00507508,-0.00850706,0,0,3.5875,0.1225,-0.315,-0.002928,-0.426634,-0.921954,-0.05558,0.26292,0.33768
-23.1772,0,0,38.1772,38.1772,5,5,25.7525,2.11038,-25.0498,-0.00203592,-0.00528958,-0.00864177,0,0,3.675,0.105,-0.2975,-0.005368,-0.426878,-0.922076,-0.05558,0.26292,0.33768
-23.1792,0,0,38.1792,38.1792,5,5,25.7547,2.10696,-25.054,-0.00197624,-0.00525343,-0.00865676,0,0,3.9375,0.105,-0.455,-0.005368,-0.426878,-0.922076,-0.05558,0.26292,0.33768
-23.178,0,0,38.178,38.178,5,5,25.7533,2.11543,-25.0648,0.00601553,-0.00381186,-0.00914305,0,0,3.8325,0.035,-0.4375,0.002806,-0.425414,-0.922564,-0.05558,0.26292,0.33768
-23.1765,0,0,38.1765,38.1765,5,5,25.7517,2.12371,-25.0816,0.00587103,-0.00384074,-0.00913506,0,0,3.6225,0.07,-0.4025,0.002806,-0.425414,-0.922564,-0.05544,0.26572,0.33264
-23.1741,0,0,38.1741,38.1741,5,5,25.7489,2.12203,-25.094,-0.00126725,-0.00156234,-0.00935948,0,0,3.5,-0.0175,-0.455,-0.004392,-0.423096,-0.922808,-0.05544,0.26572,0.33264
-23.1718,0,0,38.1718,38.1718,5,5,25.7465,2.12015,-25.1063,-0.00123447,-0.00160064,-0.00933966,0,0,3.605,-0.14,-0.4025,-0.004392,-0.423096,-0.922808,-0.05544,0.26572,0.33264
-23.1708,0,0,38.1708,38.1708,5,5,25.7454,2.11513,-25.1167,-0.00321221,-0.00271577,-0.00945131,0,0,3.535,-0.1575,-0.4375,-0.006466,-0.424194,-0.92293,-0.05544,0.26572,0.33264
-23.1701,0,0,38.1701,38.1701,5,5,25.7446,2.11011,-25.1274,-0.00312464,-0.00272653,-0.00944253,0,0,3.7275,-0.315,-0.595,-0.006466,-0.424194,-0.92293,-0.05544,0.26572,0.33264
-23.1719,0,0,38.1719,38.1719,5,5,25.7466,2.10756,-25.138,-0.000893364,-0.00721312,-0.0120381,0,0,3.745,-0.175,-0.455,-0.00427,-0.428708,-0.925492,-0.05544,0.26572,0.33264
-23.1735,0,0,38.1735,38.1735,5,5,25.7483,2.10573,-25.1484,-0.000861539,-0.00718584,-0.01205,0,0,3.605,0.1925,-0.5775,-0.00427,-0.428708,-0.925492,-0.05544,0.26572,0.33264
-23.1746,0,0,38.1746,38.1746,5,5,25.7495,2.10504,-25.1593,-0.000120533,-0.00423529,-0.00664915,0,0,3.64,0.07,-0.385,-0.003538,-0.42578,-0.920124,-0.05544,0.26572,0.33264
-23.1757,0,0,38.1757,38.1757,5,5,25.7507,2.10437,-25.1692,-0.000108817,-0.00421619,-0.00665788,0,0,3.64,0.07,-0.385,-0.003538,-0.42578,-0.920124,-0.0567,0.266,0.33278
-23.1758,0,0,38.1758,38.1758,5,5,25.7509,2.10577,-25.18,0.00120303,-0.00348052,-0.00579965,0,0,3.43,0.14,-0.28,-0.002196,-0.425048,-0.91927,-0.0567,0.266,0.33278
-23.176,0,0,38.176,38.176,5,5,25.7512,2.10714,-25.1907,0.00117913,-0.00347759,-0.00580204,0,0,3.43,0.14,-0.28,-0.002196,-0.425048,-0.91927,-0.0567,0.266,0.33278
-23.1733,0,0,38.1733,38.1733,5,5,25.7482,2.11131,-25.2035,0.00280729,-0.00377017,-0.0134045,0,0,3.6575,0.175,-0.35,-0.000488,-0.425292,-0.926834,-0.0567,0.266,0.33278
-23.1707,0,0,38.1707,38.1707,5,5,25.7452,2.11536,-25.2162,0.00273669,-0.00381733,-0.0133847,0,0,3.6575,0.175,-0.35,-0.000488,-0.425292,-0.926834,-0.0567,0.266,0.33278
-23.1706,0,0,38.1706,38.1706,5,5,25.7451,2.11704,-25.2276,0.00173545,-0.00528499,-0.01068,0,0,3.605,-0.14,-0.4375,-0.001464,-0.426756,-0.92415,-0.0567,0.266,0.33278
-23.1744,0,0,38.1744,38.1744,5,5,25.7494,2.11912,-25.2377,0.0025495,-0.00863841,-0.00665605,0,0,3.2375,-0.035,-0.49,-0.00061,-0.430172,-0.920124,-0.0567,0.266,0.33278
-23.1787,0,0,38.1787,38.1787,5,5,25.7541,2.12097,-25.2475,0.00251724,-0.00856393,-0.0066933,0,0,3.57,-0.0875,-0.3325,-0.00061,-0.430172,-0.920124,-0.0567,0.266,0.33278
-23.1801,0,0,38.1801,38.1801,5,5,25.7557,2.11792,-25.255,-0.00156007,-0.00414164,-0.00584288,0,0,3.5,-0.0175,-0.245,-0.004758,-0.42578,-0.91927,-0.05404,0.26502,0.33698
-23.179,0,0,38.179,38.179,5,5,25.7544,2.11949,-25.2652,0.00132824,-0.00538385,-0.0132108,0,0,3.4825,0.1575,-0.315,-0.00183,-0.427,-0.92659,-0.05404,0.26502,0.33698
-23.178,0,0,38.178,38.178,5,5,25.7534,2.12125,-25.2755,0.00129754,-0.00540062,-0.013204,0,0,3.6225,0.21,-0.525,-0.00183,-0.427,-0.92659,-0.05404,0.26502,0.33698
-23.1773,0,0,38.1773,38.1773,5,5,25.7526,2.11873,-25.2839,-0.00169563,-0.00382497,-0.0108604,0,0,3.64,0.0875,-0.525,-0.00488,-0.425414,-0.924272,-0.05404,0.26502,0.33698
-23.1761,0,0,38.1761,38.1761,5,5,25.7512,2.1161,-25.292,-0.00164971,-0.00384509,-0.0108488,0,0,3.3425,0.035,-0.4025,-0.00488,-0.425414,-0.924272,-0.05404,0.26502,0.33698
-23.1728,0,0,38.1728,38.1728,5,5,25.7475,2.11513,-25.3014,-0.000782419,-0.00390292,-0.0162299,0,0,3.4825,0.1225,-0.4025,-0.004026,-0.425414,-0.92964,-0.05404,0.26502,0.33698
-23.1699,0,0,38.1699,38.1699,5,5,25.7443,2.11403,-25.3108,-0.000763339,-0.00395385,-0.0162046,0,0,3.6925,0.0175,-0.4375,-0.004026,-0.425414,-0.92964,-0.05404,0.26502,0.33698
-23.1678,0,0,38.1678,38.1678,5,5,25.742,2.11525,-25.3209,0.000673181,-0.0011806,-0.00770481,0,0,3.7625,0.035,-0.455,-0.002562,-0.422608,-0.921222,-0.05404,0.26502,0.33698
-23.1657,0,0,38.1657,38.1657,5,5,25.7397,2.11645,-25.3233,0.000652285,-0.00121792,-0.00768768,0,0,3.675,0.035,-0.49,-0.002562,-0.422608,-0.921222,-0.05642,0.26026,0.32998
-23.1636,0,0,38.1636,38.1636,5,5,25.7373,2.11585,-25.3249,-0.000430612,-0.00320882,-0.0119727,0,0,3.5525,0.035,-0.5075,-0.00366,-0.42456,-0.925492,-0.05642,0.26026,0.32998
-23.1616,0,0,38.1616,38.1616,5,5,25.7352,2.11496,-25.3265,-0.000415098,-0.00324255,-0.0119558,0,0,3.64,-0.14,-0.4725,-0.00366,-0.42456,-0.925492,-0.05642,0.26026,0.32998
-23.1611,0,0,38.1611,38.1611,5,5,25.7345,2.11739,-25.329,0.00197235,-0.00386411,-0.00887853,0,0,3.64,-0.035,-0.4375,-0.00122,-0.42517,-0.922442,-0.05642,0.26026,0.32998
-23.1603,0,0,38.1603,38.1603,5,5,25.7337,2.11983,-25.3316,0.00192979,-0.00387815,-0.00887351,0,0,3.5175,0,-0.4725,-0.00122,-0.42517,-0.922442,-0.05642,0.26026,0.32998
-23.16,0,0,38.16,38.16,5,5,25.7333,2.11456,-25.3303,-0.00344524,-0.00376018,-0.0102202,0,0,3.535,0.0175,-0.4375,-0.00671,-0.425048,-0.923784,-0.05642,0.26026,0.32998
-23.1599,0,0,38.1599,38.1599,5,5,25.7332,2.10979,-25.3291,-0.00336199,-0.00375981,-0.0102169,0,0,3.71,0.1925,-0.56,-0.00671,-0.425048,-0.923784,-0.05642,0.26026,0.32998
-23.16,0,0,38.16,38.16,5,5,25.7334,2.1148,-25.3322,0.00359683,-0.00485827,-0.00825367,0,0,3.57,0.2625,-0.455,0.000366,-0.426146,-0.921832,-0.05642,0.26026,0.32998
-23.16,0,0,38.16,38.16,5,5,25.7334,2.11938,-25.3367,0.00351698,-0.00485973,-0.00825624,0,0,3.4825,0.0875,-0.4025,0.000366,-0.426146,-0.921832,-0.0581,0.26264,0.33236
-23.1583,0,0,38.1583,38.1583,5,5,25.7315,2.12084,-25.3404,0.00106169,-0.00293584,-0.00947225,0,0,3.5,0.035,-0.455,-0.002074,-0.424194,-0.923052,-0.0581,0.26264,0.33236
-23.1571,0,0,38.1571,38.1571,5,5,25.7302,2.12236,-25.3439,0.00103521,-0.00295689,-0.0094632,0,0,3.7975,0.14,-0.3675,-0.002074,-0.424194,-0.923052,-0.0581,0.26264,0.33236
-23.158,0,0,38.158,38.158,5,5,25.7311,2.11732,-25.3436,-0.0033718,-0.00538367,-0.0124179,0,0,3.92,0.28,-0.3675,-0.006588,-0.426634,-0.92598,-0.0581,0.26264,0.33236
-23.1584,0,0,38.1584,38.1584,5,5,25.7315,2.11178,-25.3436,-0.00327531,-0.0053749,-0.0124182,0,0,3.6925,-0.1225,-0.3675,-0.006588,-0.426634,-0.92598,-0.0581,0.26264,0.33236
-23.1596,0,0,38.1596,38.1596,5,5,25.7329,2.11349,-25.3468,0.00204023,-0.00571953,-0.00824966,0,0,3.6225,-0.245,-0.4025,-0.00122,-0.427,-0.921832,-0.0581,0.26264,0.33236
-23.1607,0,0,38.1607,38.1607,5,5,25.7341,2.11568,-25.35,0.00200218,-0.00570164,-0.00825985,0,0,3.5,0.035,-0.5075,-0.00122,-0.427,-0.921832,-0.0581,0.26264,0.33236
-23.16,0,0,38.16,38.16,5,5,25.7333,2.11618,-25.3529,0.000778592,-0.00632476,-0.0144016,0,0,3.5,0,-0.49,-0.00244,-0.42761,-0.927932,-0.0581,0.26264,0.33236
-23.1596,0,0,38.1596,38.1596,5,5,25.7329,2.11672,-25.3541,0.000769172,-0.00633105,-0.014399,0,0,3.71,0.0525,-0.455,-0.00244,-0.42761,-0.927932,-0.05978,0.26236,0.33082
-23.1612,0,0,38.1612,38.1612,5,5,25.7346,2.11586,-25.3539,-0.00030926,-0.00447256,-0.00654246,0,0,3.71,0.1575,-0.42,-0.003538,-0.42578,-0.920124,-0.05978,0.26236,0.33082
-23.1627,0,0,38.1627,38.1627,5,5,25.7364,2.11471,-25.3536,-0.000289237,-0.00444442,-0.00655521,0,0,3.78,0.0175,-0.28,-0.003538,-0.42578,-0.920124,-0.05978,0.26236,0.33082
-23.1636,0,0,38.1636,38.1636,5,5,25.7374,2.11482,-25.3541,0.000559333,-0.00491732,-0.00852998,0,0,3.71,0.0175,-0.315,-0.002684,-0.426268,-0.922076,-0.05978,0.26236,0.33082
-23.1642,0,0,38.1642,38.1642,5,5,25.738,2.11487,-25.3546,0.000558422,-0.0049074,-0.0085348,0,0,3.5175,-0.0175,-0.315,-0.002684,-0.426268,-0.922076,-0.05978,0.26236,0.33082
-23.1627,0,0,38.1627,38.1627,5,5,25.7363,2.11625,-25.3564,0.0012633,-0.00444585,-0.0120883,0,0,3.4825,-0.035,-0.385,-0.001952,-0.42578,-0.925614,-0.05978,0.26236,0.33082
-23.1615,0,0,38.1615,38.1615,5,5,25.735,2.11711,-25.3584,0.00124821,-0.00446683,-0.0120788,0,0,3.675,-0.35,-0.4025,-0.001952,-0.42578,-0.925614,-0.05978,0.26236,0.33082
-23.1622,0,0,38.1622,38.1622,5,5,25.7358,2.11452,-25.3581,-0.00113636,-0.00372037,-0.00655087,0,0,3.5525,-0.2625,-0.3675,-0.004392,-0.425048,-0.920124,-0.05978,0.26236,0.33082
-23.1629,0,0,38.1629,38.1629,5,5,25.7365,2.11244,-25.3552,-0.00109993,-0.00370915,-0.00655479,0,0,3.4825,-0.0175,-0.4375,-0.004392,-0.425048,-0.920124,-0.0595,0.26138,0.33432
-23.163,0,0,38.163,38.163,5,5,25.7367,2.11434,-25.3545,0.00153948,-0.00382951,-0.0068029,0,0,3.5175,0.0525,-0.525,-0.001708,-0.42517,-0.920368,-0.0595,0.26138,0.33432
-23.1633,0,0,38.1633,38.1633,5,5,25.737,2.11649,-25.3536,0.00150212,-0.00382425,-0.00680697,0,0,3.64,0.2275,-0.5425,-0.001708,-0.42517,-0.920368,-0.0595,0.26138,0.33432
-23.168,0,0,38.168,38.168,5,5,25.7422,2.11541,-25.35,-5.84182e-05,-0.00655183,-0.00291106,0,0,3.605,0.175,-0.455,-0.003294,-0.427976,-0.916464,-0.0595,0.26138,0.33432
-23.1724,0,0,38.1724,38.1724,5,5,25.7471,2.11397,-25.3467,-3.338e-05,-0.00647364,-0.00294774,0,0,3.5525,-0.1225,-0.525,-0.003294,-0.427976,-0.916464,-0.0595,0.26138,0.33432
-23.1732,0,0,38.1732,38.1732,5,5,25.748,2.11522,-25.3458,0.00140267,-0.00450685,-0.00762683,0,0,3.7275,-0.1575,-0.5075,-0.00183,-0.426024,-0.9211,-0.0595,0.26138,0.33432
-23.1737,0,0,38.1737,38.1737,5,5,25.7485,2.11631,-25.345,0.00138371,-0.00449862,-0.00763158,0,0,3.57,-0.2275,-0.4725,-0.00183,-0.426024,-0.9211,-0.0595,0.26138,0.33432
-23.1704,0,0,38.1704,38.1704,5,5,25.7449,2.11509,-25.3439,-0.000903291,-0.00333343,-0.0149806,0,0,3.5,0,-0.5075,-0.004148,-0.424804,-0.92842,-0.0595,0.26138,0.33432
-23.1673,0,0,38.1673,38.1673,5,5,25.7415,2.1138,-25.3426,-0.000880755,-0.00338745,-0.0149536,0,0,3.535,-0.0175,-0.42,-0.004148,-0.424804,-0.92842,-0.0595,0.26138,0.33432
-23.1677,0,0,38.1677,38.1677,5,5,25.7418,2.11507,-25.3556,0.00128388,-0.00435877,-0.00794919,0,0,3.6225,-0.0525,-0.49,-0.001952,-0.42578,-0.921466,-0.05698,0.26754,0.32928
-23.168,0,0,38.168,38.168,5,5,25.7422,2.11633,-25.3686,0.00126187,-0.00435319,-0.00795278,0,0,3.6225,-0.07,-0.56,-0.001952,-0.42578,-0.921466,-0.05698,0.26754,0.32928
-23.1683,0,0,38.1683,38.1683,5,5,25.7426,2.1168,-25.3811,0.000767733,-0.00556933,-0.0107834,0,0,3.605,-0.035,-0.56,-0.00244,-0.427,-0.924272,-0.05698,0.26754,0.32928
-23.1687,0,0,38.1687,38.1687,5,5,25.743,2.11681,-25.3931,0.000767595,-0.00556301,-0.0107865,0,0,3.64,-0.21,-0.315,-0.00244,-0.427,-0.924272,-0.05698,0.26754,0.32928
-23.1692,0,0,38.1692,38.1692,5,5,25.7436,2.11905,-25.406,0.00230778,-0.00530967,-0.00919412,0,0,3.675,-0.1575,-0.2625,-0.000854,-0.426756,-0.922686,-0.05698,0.26754,0.32928
-23.17,0,0,38.17,38.17,5,5,25.7444,2.12162,-25.4186,0.00226303,-0.00529722,-0.00920196,0,0,3.7975,0.07,-0.2975,-0.000854,-0.426756,-0.922686,-0.05698,0.26754,0.32928
-23.1722,0,0,38.1722,38.1722,5,5,25.7469,2.12463,-25.431,0.00269634,-0.00599259,-0.00750088,0,0,3.92,0.0875,-0.3675,-0.000366,-0.427488,-0.920978,-0.05698,0.26754,0.32928
-23.1738,0,0,38.1738,38.1738,5,5,25.7487,2.12792,-25.4433,0.00263902,-0.00596514,-0.00751648,0,0,3.5875,0.2625,-0.455,-0.000366,-0.427488,-0.920978,-0.05698,0.26754,0.32928
-23.1724,0,0,38.1724,38.1724,5,5,25.7471,2.13162,-25.4573,0.00257447,-0.00403654,-0.0107035,0,0,3.5875,0.21,-0.42,-0.000366,-0.425536,-0.92415,-0.05712,0.2674,0.32606
-23.171,0,0,38.171,38.171,5,5,25.7455,2.1353,-25.4711,0.00251025,-0.00406278,-0.0106935,0,0,3.535,0.245,-0.455,-0.000366,-0.425536,-0.92415,-0.05712,0.2674,0.32606
-23.168,0,0,38.168,38.168,5,5,25.7423,2.12996,-25.4812,-0.00395686,-0.00374587,-0.0165674,0,0,3.5,0.175,-0.42,-0.006954,-0.42517,-0.930006,-0.05712,0.2674,0.32606
-23.1658,0,0,38.1658,38.1658,5,5,25.7398,2.12494,-25.4912,-0.00386931,-0.00378355,-0.0165456,0,0,3.9025,0.2625,-0.5075,-0.006954,-0.42517,-0.930006,-0.05712,0.2674,0.32606
-23.1619,0,0,38.1619,38.1619,5,5,25.7354,2.1272,-25.5049,0.00107226,-0.00214314,-0.0149154,0,0,3.9375,0.2275,-0.455,-0.001952,-0.423462,-0.92842,-0.05712,0.2674,0.32606
-23.1577,0,0,38.1577,38.1577,5,5,25.7308,2.12934,-25.5185,0.00103492,-0.00221549,-0.0148821,0,0,3.78,0.1925,-0.4725,-0.001952,-0.423462,-0.92842,-0.05712,0.2674,0.32606
-23.1569,0,0,38.1569,38.1569,5,5,25.7299,2.1284,-25.5296,-0.000649455,-0.00442752,-0.0122929,0,0,3.745,0.2275,-0.385,-0.00366,-0.425658,-0.925858,-0.05712,0.2674,0.32606
-23.1561,0,0,38.1561,38.1561,5,5,25.729,2.12739,-25.5404,-0.000631755,-0.00444247,-0.012285,0,0,3.6925,0.1925,-0.3325,-0.00366,-0.425658,-0.925858,-0.05712,0.2674,0.32606
-23.1583,0,0,38.1583,38.1583,5,5,25.7314,2.12432,-25.5383,-0.00142871,-0.00708985,-0.0107034,0,0,3.6575,0.0525,-0.3325,-0.004514,-0.428342,-0.924272,-0.05698,0.26026,0.3255
-23.1603,0,0,38.1603,38.1603,5,5,25.7337,2.12104,-25.5366,-0.00137153,-0.00705299,-0.0107188,0,0,3.605,-0.21,-0.4725,-0.004514,-0.428342,-0.924272,-0.05698,0.26026,0.3255
-23.1614,0,0,38.1614,38.1614,5,5,25.7349,2.12476,-25.5382,0.0031801,-0.00483728,-0.00654965,0,0,3.675,-0.0525,-0.35,0.000122,-0.426146,-0.920124,-0.05698,0.26026,0.3255
-23.1624,0,0,38.1624,38.1624,5,5,25.736,2.12839,-25.5397,0.00311681,-0.00481995,-0.00656061,0,0,3.675,-0.0525,-0.35,0.000122,-0.426146,-0.920124,-0.05698,0.26026,0.3255
-23.16,0,0,38.16,38.16,5,5,25.7333,2.12871,-25.5405,-4.74851e-05,-0.0025424,-0.011704,0,0,3.675,0.175,-0.525,-0.00305,-0.423828,-0.925248,-0.05698,0.26026,0.3255
-23.1576,0,0,38.1576,38.1576,5,5,25.7307,2.12902,-25.5414,-5.28341e-05,-0.00258443,-0.011684,0,0,3.675,0.175,-0.525,-0.00305,-0.423828,-0.925248,-0.05698,0.26026,0.3255
-23.1588,0,0,38.1588,38.1588,5,5,25.732,2.12767,-25.5404,-0.000636671,-0.00451769,-0.00689803,0,0,3.535,0.105,-0.4725,-0.00366,-0.42578,-0.92049,-0.05698,0.26026,0.3255
-23.1599,0,0,38.1599,38.1599,5,5,25.7332,2.12635,-25.5394,-0.00061375,-0.00449739,-0.00690687,0,0,3.535,0.105,-0.4725,-0.00366,-0.42578,-0.92049,-0.05698,0.26026,0.3255
-23.1596,0,0,38.1596,38.1596,5,5,25.7329,2.12274,-25.5402,-0.00213008,-0.0056012,-0.0136642,0,0,3.57,0.0175,-0.3675,-0.005246,-0.426878,-0.9272,-0.05852,0.2618,0.32102
-23.16,0,0,38.16,38.16,5,5,25.7334,2.12076,-25.5415,-0.000880628,-0.00473763,-0.00911786,0,0,3.5175,-0.035,-0.315,-0.004026,-0.426024,-0.922686,-0.05852,0.2618,0.32102
-23.1605,0,0,38.1605,38.1605,5,5,25.7338,2.11866,-25.5429,-0.000844115,-0.00472972,-0.00912017,0,0,3.5,-0.14,-0.315,-0.004026,-0.426024,-0.922686,-0.05852,0.2618,0.32102
-23.159,0,0,38.159,38.159,5,5,25.7322,2.11681,-25.5449,-0.00105472,-0.0031671,-0.0100904,0,0,3.4125,-0.1225,-0.455,-0.00427,-0.424438,-0.923662,-0.05852,0.2618,0.32102
-23.1577,0,0,38.1577,38.1577,5,5,25.7307,2.11522,-25.547,-0.001027,-0.00318991,-0.0100782,0,0,3.4825,-0.0175,-0.5425,-0.00427,-0.424438,-0.923662,-0.05852,0.2618,0.32102
-23.1578,0,0,38.1578,38.1578,5,5,25.7309,2.11999,-25.5517,0.00374916,-0.0042872,-0.00614819,0,0,3.4125,-0.07,-0.56,0.00061,-0.425536,-0.919758,-0.05852,0.2618,0.32102
-23.1581,0,0,38.1581,38.1581,5,5,25.7312,2.12475,-25.5561,0.00366628,-0.00428451,-0.0061529,0,0,3.43,0.035,-0.4725,0.00061,-0.425536,-0.919758,-0.05852,0.2618,0.32102
-23.1594,0,0,38.1594,38.1594,5,5,25.7327,2.12313,-25.5574,-0.000557598,-0.00487077,-0.00739298,0,0,3.605,-0.07,-0.42,-0.00366,-0.426146,-0.920978,-0.05852,0.2618,0.32102
-23.161,0,0,38.161,38.161,5,5,25.7344,2.12203,-25.5484,-0.000538282,-0.00484374,-0.00740521,0,0,3.7275,0.175,-0.5075,-0.00366,-0.426146,-0.920978,-0.05642,0.2562,0.33138
-23.1609,0,0,38.1609,38.1609,5,5,25.7343,2.12057,-25.5398,-0.00112038,-0.00203594,-0.0058053,0,0,3.7625,0.175,-0.455,-0.00427,-0.42334,-0.919392,-0.05642,0.2562,0.33138
-23.1608,0,0,38.1608,38.1608,5,5,25.7342,2.11909,-25.5313,-0.00109449,-0.00203715,-0.00580365,0,0,3.7625,0.1225,-0.4725,-0.00427,-0.42334,-0.919392,-0.05642,0.2562,0.33138
-23.1589,0,0,38.1589,38.1589,5,5,25.7321,2.12406,-25.5266,0.00367827,-0.00390441,-0.0118147,0,0,3.7275,-0.0175,-0.4375,0.00061,-0.42517,-0.92537,-0.05642,0.2562,0.33138
-23.1569,0,0,38.1569,38.1569,5,5,25.7298,2.12887,-25.5219,0.00359433,-0.0039407,-0.0118006,0,0,3.6575,0,-0.3675,0.00061,-0.42517,-0.92537,-0.05642,0.2562,0.33138
-23.1595,0,0,38.1595,38.1595,5,5,25.7328,2.12486,-25.5121,-0.00192403,-0.00645727,-0.00837836,0,0,3.6575,-0.1925,-0.455,-0.005002,-0.427732,-0.921954,-0.05642,0.2562,0.33138
-23.162,0,0,38.162,38.162,5,5,25.7355,2.12118,-25.5024,-0.00185993,-0.00641382,-0.00839666,0,0,3.535,-0.07,-0.5075,-0.005002,-0.427732,-0.921954,-0.05642,0.2562,0.33138
-23.1608,0,0,38.1608,38.1608,5,5,25.7342,2.11909,-25.4945,-0.00121593,-0.00338091,-0.0104755,0,0,3.535,-0.105,-0.455,-0.004392,-0.424682,-0.924028,-0.05642,0.2562,0.33138
-23.1597,0,0,38.1597,38.1597,5,5,25.733,2.11724,-25.4947,-0.00118365,-0.00339999,-0.010465,0,0,3.57,0.035,-0.42,-0.004392,-0.424682,-0.924028,-0.05726,0.2604,0.3241
-23.1585,0,0,38.1585,38.1585,5,5,25.7317,2.11383,-25.4943,-0.00209609,-0.00341933,-0.0106991,0,0,3.4825,-0.105,-0.3675,-0.005368,-0.424682,-0.924272,-0.05726,0.2604,0.3241
-23.1576,0,0,38.1576,38.1576,5,5,25.7307,2.11065,-25.4939,-0.0020406,-0.00343317,-0.0106902,0,0,3.675,-0.035,-0.42,-0.005368,-0.424682,-0.924272,-0.05726,0.2604,0.3241
-23.1584,0,0,38.1584,38.1584,5,5,25.7315,2.11014,-25.4944,0.000154922,-0.00476342,-0.00872899,0,0,3.71,-0.0875,-0.4375,-0.003172,-0.426024,-0.92232,-0.05726,0.2604,0.3241
-23.1591,0,0,38.1591,38.1591,5,5,25.7324,2.10965,-25.4949,0.000163427,-0.00475056,-0.00873484,0,0,3.71,-0.0875,-0.4375,-0.003172,-0.426024,-0.92232,-0.05726,0.2604,0.3241
-23.1603,0,0,38.1603,38.1603,5,5,25.7336,2.11305,-25.4905,-0.00208261,-0.00412069,-0.00739411,0,0,3.64,4.375,-0.4375,-0.005368,-0.425414,-0.920978,-0.05726,0.2604,0.3241
-23.1614,0,0,38.1614,38.1614,5,5,25.7349,2.11638,-25.4862,-0.00214053,-0.00410161,-0.00740568,0,0,3.64,4.375,-0.4375,-0.005368,-0.425414,-0.920978,-0.05726,0.2604,0.3241
-23.1611,0,0,38.1611,38.1611,5,5,25.7345,2.11721,-25.4877,0.000882122,-0.00496306,-0.0103539,0,0,3.43,0,-0.595,-0.002318,-0.426268,-0.923906,-0.05726,0.2604,0.3241
-23.1615,0,0,38.1615,38.1615,5,5,25.735,2.12035,-25.4964,0.00228504,-0.0048345,-0.00814616,0,0,3.5875,0.2275,-0.6475,-0.000854,-0.426146,-0.92171,-0.05572,0.26362,0.32438
-23.1619,0,0,38.1619,38.1619,5,5,25.7354,2.12284,-25.5051,0.00224172,-0.00482833,-0.00815091,0,0,3.57,-0.0875,-0.5075,-0.000854,-0.426146,-0.92171,-0.05572,0.26362,0.32438
-23.1634,0,0,38.1634,38.1634,5,5,25.7371,2.11696,-25.5093,-0.00372996,-0.00480071,-0.00852885,0,0,3.6225,0,-0.5075,-0.006954,-0.426146,-0.922076,-0.05572,0.26362,0.32438
-23.1636,0,0,38.1636,38.1636,5,5,25.7373,2.11958,-25.518,0.00217703,-0.00504229,-0.00951561,0,0,3.675,0,-0.6125,-0.000976,-0.42639,-0.923052,-0.05572,0.26362,0.32438
-23.1635,0,0,38.1635,38.1635,5,5,25.7372,2.12211,-25.5263,0.00213299,-0.00504476,-0.00951623,0,0,3.4825,0.035,-0.49,-0.000976,-0.42639,-0.923052,-0.05572,0.26362,0.32438
-23.1624,0,0,38.1624,38.1624,5,5,25.736,2.12357,-25.5344,0.00101402,-0.00164454,-0.00557361,0,0,3.57,0.0175,-0.4725,-0.002074,-0.422974,-0.919148,-0.05572,0.26362,0.32438
-23.1611,0,0,38.1611,38.1611,5,5,25.7345,2.12503,-25.5423,0.000988631,-0.00166776,-0.00556347,0,0,3.4125,0.07,-0.4025,-0.002074,-0.422974,-0.919148,-0.05572,0.26362,0.32438
-23.161,0,0,38.161,38.161,5,5,25.7345,2.12983,-25.5514,0.00382066,-0.00545588,-0.00925432,0,0,3.43,0.07,-0.385,0.000854,-0.426756,-0.922808,-0.05572,0.26362,0.32438
-23.1609,0,0,38.1609,38.1609,5,5,25.7344,2.13444,-25.5473,0.00374023,-0.00545866,-0.0092563,0,0,3.4125,-0.07,-0.5425,0.000854,-0.426756,-0.922808,-0.06076,0.25872,0.32648
-23.157,0,0,38.157,38.157,5,5,25.73,2.13908,-25.5444,0.00329471,-0.00369625,-0.0153736,0,0,3.4825,-0.035,-0.5075,0.000488,-0.424926,-0.928908,-0.06076,0.25872,0.32648
-23.1535,0,0,38.1535,38.1535,5,5,25.7261,2.1437,-25.5414,0.00321426,-0.00375871,-0.0153468,0,0,3.675,0.0525,-0.455,0.000488,-0.424926,-0.928908,-0.06076,0.25872,0.32648
-23.1518,0,0,38.1518,38.1518,5,5,25.7242,2.14727,-25.5374,0.00254455,-0.0041563,-0.0118918,0,0,3.605,0.14,-0.4725,-0.000122,-0.425292,-0.925492,-0.06076,0.25872,0.32648
-23.1505,0,0,38.1505,38.1505,5,5,25.7228,2.15082,-25.5333,0.00248252,-0.00417985,-0.0118831,0,0,3.85,0.1925,-0.4725,-0.000122,-0.425292,-0.925492,-0.06076,0.25872,0.32648
-23.1521,0,0,38.1521,38.1521,5,5,25.7246,2.15252,-25.5278,0.00148107,-0.00378611,-0.00402878,0,0,3.7275,0.0875,-0.4725,-0.001098,-0.424926,-0.917684,-0.06076,0.25872,0.32648
-23.1535,0,0,38.1535,38.1535,5,5,25.7262,2.15416,-25.522,0.00145252,-0.00376142,-0.00404187,0,0,3.64,0.1575,-0.2975,-0.001098,-0.424926,-0.917684,-0.06076,0.25872,0.32648
-23.1543,0,0,38.1543,38.1543,5,5,25.727,2.15223,-25.5149,-0.000822054,-0.00618975,-0.0121619,0,0,3.71,0.07,-0.28,-0.003416,-0.427366,-0.925736,-0.06076,0.25872,0.32648
-23.1552,0,0,38.1552,38.1552,5,5,25.7281,2.15061,-25.5096,-0.000793785,-0.00617312,-0.0121687,0,0,3.815,0.1925,-0.3675,-0.003416,-0.427366,-0.925736,-0.05838,0.25858,0.32774
-23.1543,0,0,38.1543,38.1543,5,5,25.727,2.1529,-25.5068,0.00159598,-0.00264865,-0.00810481,0,0,3.815,0.14,-0.3675,-0.000976,-0.423828,-0.92171,-0.05838,0.25858,0.32774
-23.1534,0,0,38.1534,38.1534,5,5,25.726,2.15513,-25.504,0.00155708,-0.00266539,-0.00809837,0,0,3.815,0.14,-0.3675,-0.000976,-0.423828,-0.92171,-0.05838,0.25858,0.32774
-23.1563,0,0,38.1563,38.1563,5,5,25.7292,2.15356,-25.4983,-0.00060227,-0.00725531,-0.00935124,0,0,3.7625,0.2275,-0.49,-0.003172,-0.428464,-0.92293,-0.05838,0.25858,0.32774
-23.1591,0,0,38.1591,38.1591,5,5,25.7323,2.15204,-25.4928,-0.000575762,-0.00720545,-0.00937416,0,0,3.7625,0.2275,-0.49,-0.003172,-0.428464,-0.92293,-0.05838,0.25858,0.32774
-23.1579,0,0,38.1579,38.1579,5,5,25.731,2.14808,-25.4938,0.00228745,-0.00246169,-0.00690307,0,0,3.6225,-4.445,-0.3675,-0.000366,-0.423706,-0.92049,-0.05838,0.25858,0.32774
-23.1568,0,0,38.1568,38.1568,5,5,25.7298,2.14421,-25.4948,0.0023549,-0.00248075,-0.00689108,0,0,3.6225,-4.445,-0.3675,-0.000366,-0.423706,-0.92049,-0.05838,0.25858,0.32774
-23.1571,0,0,38.1571,38.1571,5,5,25.7301,2.14615,-25.4916,0.00159218,-0.00357497,-0.00615716,0,0,3.605,0.0875,-0.4025,-0.001098,-0.424804,-0.919758,-0.05838,0.25858,0.32774
-23.1574,0,0,38.1574,38.1574,5,5,25.7305,2.14804,-25.4945,0.00155919,-0.00357002,-0.00616092,0,0,3.605,0.0875,-0.4025,-0.001098,-0.424804,-0.919758,-0.06048,0.26348,0.32662
-23.1543,0,0,38.1543,38.1543,5,5,25.727,2.1491,-25.4979,0.000690272,-0.00203638,-0.0111766,0,0,3.5,0.0175,-0.315,-0.001952,-0.423218,-0.92476,-0.06048,0.26348,0.32662
-23.1513,0,0,38.1513,38.1513,5,5,25.7237,2.15013,-25.5013,0.000672432,-0.00208932,-0.0111518,0,0,3.5,0.0175,-0.315,-0.001952,-0.423218,-0.92476,-0.06048,0.26348,0.32662
-23.149,0,0,38.149,38.149,5,5,25.7211,2.15359,-25.5059,0.00255584,-0.00286435,-0.0102733,0,0,3.5,-0.0525,-0.42,0,-0.42395,-0.923906,-0.06048,0.26348,0.32662
-23.1466,0,0,38.1466,38.1466,5,5,25.7185,2.15695,-25.5104,0.00249715,-0.00290562,-0.0102559,0,0,3.5,-0.0525,-0.42,0,-0.42395,-0.923906,-0.06048,0.26348,0.32662
-23.1452,0,0,38.1452,38.1452,5,5,25.7169,2.16341,-25.516,0.00469266,-0.003665,-0.00877239,0,0,3.535,0.0875,-0.4025,0.002318,-0.424682,-0.922442,-0.06048,0.26348,0.32662
-23.1486,0,0,38.1486,38.1486,5,5,25.7207,2.15381,-25.513,-0.00619511,-0.00421418,-0.00412295,0,0,3.6575,-0.0175,-0.455,-0.008784,-0.425292,-0.917806,-0.06048,0.26348,0.32662
-23.1517,0,0,38.1517,38.1517,5,5,25.7241,2.14433,-25.51,-0.00602973,-0.00415738,-0.00414342,0,0,3.5525,-0.0875,-0.42,-0.008784,-0.425292,-0.917806,-0.06048,0.26348,0.32662
-23.1514,0,0,38.1514,38.1514,5,5,25.7238,2.14727,-25.5133,0.00218002,-0.00342992,-0.00660197,0,0,3.5175,0.1575,-0.4025,-0.000488,-0.42456,-0.920246,-0.06048,0.26348,0.32662
-23.1511,0,0,38.1511,38.1511,5,5,25.7234,2.15016,-25.513,0.00212966,-0.0034369,-0.0066007,0,0,3.4475,0.1575,-0.4375,-0.000488,-0.42456,-0.920246,-0.05824,0.26068,0.33054
-23.1503,0,0,38.1503,38.1503,5,5,25.7225,2.14984,-25.5115,-5.14234e-05,-0.00442761,-0.0113889,0,0,3.5875,0.105,-0.4025,-0.002684,-0.425536,-0.925004,-0.05824,0.26068,0.33054
-23.1496,0,0,38.1496,38.1496,5,5,25.7218,2.14963,-25.5102,-4.79203e-05,-0.0044392,-0.0113831,0,0,3.6575,0.14,-0.49,-0.002684,-0.425536,-0.925004,-0.05824,0.26068,0.33054
-23.1508,0,0,38.1508,38.1508,5,5,25.7232,2.14616,-25.5067,-0.00193112,-0.00673734,-0.012129,0,0,3.5525,0.0875,-0.42,-0.004636,-0.427854,-0.925736,-0.05824,0.26068,0.33054
-23.1523,0,0,38.1523,38.1523,5,5,25.7247,2.14286,-25.5032,-0.00187353,-0.00671177,-0.012139,0,0,3.6925,0.14,-0.42,-0.004636,-0.427854,-0.925736,-0.05824,0.26068,0.33054
-23.149,0,0,38.149,38.149,5,5,25.7211,2.14775,-25.505,0.003022,-0.000663867,-0.00879474,0,0,3.7975,0.1575,-0.4725,0.000366,-0.421754,-0.922442,-0.05824,0.26068,0.33054
-23.1454,0,0,38.1454,38.1454,5,5,25.7171,2.15236,-25.5065,0.0029417,-0.000728577,-0.00876692,0,0,3.5175,0.14,-0.2975,0.000366,-0.421754,-0.922442,-0.05824,0.26068,0.33054
-23.146,0,0,38.146,38.146,5,5,25.7178,2.1526,-25.5048,0.000507745,-0.00474761,-0.00803478,0,0,3.5175,0.1575,-0.2975,-0.002074,-0.42578,-0.92171,-0.05824,0.26068,0.33054
-23.1463,0,0,38.1463,38.1463,5,5,25.7181,2.1526,-25.5029,0.000507771,-0.00474255,-0.00803721,0,0,3.3075,0,-0.2975,-0.002074,-0.42578,-0.92171,-0.05628,0.25998,0.3339
-23.1476,0,0,38.1476,38.1476,5,5,25.7195,2.14977,-25.4996,-0.00138658,-0.00520737,-0.00743182,0,0,3.3075,-0.035,-0.35,-0.004026,-0.426268,-0.9211,-0.05628,0.25998,0.3339
-23.1491,0,0,38.1491,38.1491,5,5,25.7212,2.14717,-25.4963,-0.00134124,-0.00517997,-0.00744313,0,0,3.465,0.035,-0.42,-0.004026,-0.426268,-0.9211,-0.05628,0.25998,0.3339
-23.1471,0,0,38.1471,38.1471,5,5,25.719,2.14747,-25.4954,0.000354268,-0.00387273,-0.0125898,0,0,3.4475,0.0175,-0.42,-0.002318,-0.424926,-0.926224,-0.05628,0.25998,0.3339
-23.145,0,0,38.145,38.145,5,5,25.7167,2.14759,-25.4944,0.000352249,-0.00390806,-0.0125728,0,0,3.4475,-0.035,-0.2975,-0.002318,-0.424926,-0.926224,-0.05628,0.25998,0.3339
-23.1441,0,0,38.1441,38.1441,5,5,25.7157,2.15073,-25.4946,0.00272713,-0.00477978,-0.0104769,0,0,3.43,-0.07,-0.315,0.000122,-0.42578,-0.92415,-0.05628,0.25998,0.3339
-23.1438,0,0,38.1438,38.1438,5,5,25.7153,2.15413,-25.4949,0.0026679,-0.00478649,-0.0104761,0,0,3.78,0.07,-0.4725,0.000122,-0.42578,-0.92415,-0.05628,0.25998,0.3339
-23.1453,0,0,38.1453,38.1453,5,5,25.717,2.15234,-25.4922,-0.000945431,-0.00414857,-0.00618477,0,0,3.745,0.105,-0.385,-0.003538,-0.42517,-0.91988,-0.05628,0.25998,0.3339
-23.1462,0,0,38.1462,38.1462,5,5,25.718,2.15051,-25.4861,-0.000913558,-0.00413207,-0.00619139,0,0,3.3775,0.0875,-0.315,-0.003538,-0.42517,-0.91988,-0.0609,0.2604,0.3325
-23.147,0,0,38.147,38.147,5,5,25.7189,2.14693,-25.4793,-0.00218747,-0.00411817,-0.00742497,0,0,3.43,0.0875,-0.315,-0.00488,-0.42517,-0.9211,-0.0609,0.2604,0.3325
-23.1479,0,0,38.1479,38.1479,5,5,25.7199,2.14382,-25.4725,-0.00213317,-0.0041009,-0.00743103,0,0,3.57,0.2975,-0.385,-0.00488,-0.42517,-0.9211,-0.0609,0.2604,0.3325
-23.148,0,0,38.148,38.148,5,5,25.72,2.13998,-25.4657,-0.00279521,-0.00336623,-0.00865866,0,0,3.64,0.2975,-0.385,-0.005612,-0.424438,-0.92232,-0.0609,0.2604,0.3325
-23.1481,0,0,38.1481,38.1481,5,5,25.7201,2.13624,-25.4591,-0.00272994,-0.00336226,-0.00865787,0,0,3.7275,0.245,-0.49,-0.005612,-0.424438,-0.92232,-0.0609,0.2604,0.3325
-23.15,0,0,38.15,38.15,5,5,25.7223,2.1336,-25.4527,-0.00159061,-0.00613707,-0.00990188,0,0,3.78,0.245,-0.525,-0.004514,-0.427244,-0.92354,-0.0609,0.2604,0.3325
-23.1519,0,0,38.1519,38.1519,5,5,25.7243,2.131,-25.4463,-0.00154521,-0.00610375,-0.00991606,0,0,3.78,0.2275,-0.5075,-0.004514,-0.427244,-0.92354,-0.0609,0.2604,0.3325
-23.1546,0,0,38.1546,38.1546,5,5,25.7274,2.13169,-25.4412,0.000872502,-0.00630045,-0.0072346,0,0,3.8325,0.2275,-0.5425,-0.002074,-0.427488,-0.920856,-0.0609,0.2604,0.3325
-23.1571,0,0,38.1571,38.1571,5,5,25.7301,2.13217,-25.4379,0.000864105,-0.00625754,-0.00725562,0,0,3.6925,0.14,-0.455,-0.002074,-0.427488,-0.920856,-0.05698,0.25872,0.33012
-23.1582,0,0,38.1582,38.1582,5,5,25.7313,2.1336,-25.4352,0.00108214,-0.00391872,-0.00554425,0,0,3.675,0.28,-0.4375,-0.00183,-0.42517,-0.919148,-0.05698,0.25872,0.33012
-23.159,0,0,38.159,38.159,5,5,25.7322,2.13475,-25.4325,0.00106216,-0.00390536,-0.00555151,0,0,3.5,0.1575,-0.35,-0.00183,-0.42517,-0.919148,-0.05698,0.25872,0.33012
-23.1578,0,0,38.1578,38.1578,5,5,25.7309,2.13232,-25.4287,-0.00181111,-0.00307054,-0.0102121,0,0,3.5525,0.1925,-0.4025,-0.004758,-0.424316,-0.923784,-0.05698,0.25872,0.33012
-23.1565,0,0,38.1565,38.1565,5,5,25.7294,2.12995,-25.4251,-0.0017699,-0.0030924,-0.0101999,0,0,3.4825,0.175,-0.455,-0.004758,-0.424316,-0.923784,-0.05698,0.25872,0.33012
-23.1589,0,0,38.1589,38.1589,5,5,25.7321,2.13001,-25.4216,0.000658796,-0.00524809,-0.00431893,0,0,3.4475,0.0525,-0.35,-0.002318,-0.426512,-0.917928,-0.05698,0.25872,0.33012
-23.1613,0,0,38.1613,38.1613,5,5,25.7348,2.13017,-25.418,0.000655982,-0.00520724,-0.00433874,0,0,3.4125,0.1225,-0.3325,-0.002318,-0.426512,-0.917928,-0.05698,0.25872,0.33012
-23.163,0,0,38.163,38.163,5,5,25.7366,2.12763,-25.4134,-0.00112198,-0.00725313,-0.0108678,0,0,3.36,0.0875,-0.3325,-0.004148,-0.428586,-0.924394,-0.05698,0.25872,0.33012
-23.1645,0,0,38.1645,38.1645,5,5,25.7384,2.125,-25.4089,-0.00107605,-0.00722501,-0.0108794,0,0,3.3075,0,-0.2975,-0.004148,-0.428586,-0.924394,-0.05698,0.25872,0.33012
-23.1637,0,0,38.1637,38.1637,5,5,25.7374,2.12206,-25.4105,-0.00187527,-0.0046746,-0.0124688,0,0,3.465,0.0525,-0.4375,-0.005002,-0.426024,-0.92598,-0.0567,0.2625,0.33278
-23.1632,0,0,38.1632,38.1632,5,5,25.7369,2.11925,-25.4122,-0.00182618,-0.00468149,-0.0124634,0,0,3.7275,0.0525,-0.5075,-0.005002,-0.426024,-0.92598,-0.0567,0.2625,0.33278
-23.1616,0,0,38.1616,38.1616,5,5,25.7351,2.123,-25.4174,0.00296786,-0.00446754,-0.0128204,0,0,3.745,-0.0875,-0.4725,-0.000122,-0.42578,-0.926346,-0.0567,0.2625,0.33278
-23.1599,0,0,38.1599,38.1599,5,5,25.7333,2.12665,-25.4226,0.00290419,-0.00449707,-0.0128088,0,0,3.745,-0.0875,-0.4725,-0.000122,-0.42578,-0.926346,-0.0567,0.2625,0.33278
-23.1605,0,0,38.1605,38.1605,5,5,25.7339,2.1263,-25.425,-5.44722e-06,-0.00326542,-0.00580545,0,0,3.6575,0.0525,-0.4025,-0.00305,-0.42456,-0.919392,-0.0567,0.2625,0.33278
-23.1611,0,0,38.1611,38.1611,5,5,25.7345,2.12597,-25.4273,3.82206e-07,-0.00325525,-0.00581011,0,0,3.6575,0.0525,-0.4025,-0.00305,-0.42456,-0.919392,-0.0567,0.2625,0.33278
-23.1594,0,0,38.1594,38.1594,5,5,25.7327,2.1302,-25.4326,0.00320664,-0.00255236,-0.00850363,0,0,3.7275,-0.07,-0.3325,0.000244,-0.423828,-0.922076,-0.0567,0.2625,0.33278
-23.1578,0,0,38.1578,38.1578,5,5,25.7309,2.13433,-25.4378,0.00313469,-0.00258143,-0.00849259,0,0,3.7275,-0.07,-0.3325,0.000244,-0.423828,-0.922076,-0.0567,0.2625,0.33278
-23.1598,0,0,38.1598,38.1598,5,5,25.7331,2.13709,-25.4305,0.00260053,-0.00792172,-0.0110926,0,0,3.675,0.175,-0.4025,-0.000244,-0.429196,-0.924638,-0.05698,0.25648,0.3353
-23.1586,0,0,38.1586,38.1586,5,5,25.7318,2.13977,-25.4243,0.00206781,-0.00501168,-0.0123139,0,0,3.535,0.14,-0.4725,-0.000732,-0.426268,-0.925858,-0.05698,0.25648,0.3353
-23.1574,0,0,38.1574,38.1574,5,5,25.7305,2.14223,-25.4182,0.00202503,-0.00503352,-0.0123051,0,0,3.4825,0.07,-0.4025,-0.000732,-0.426268,-0.925858,-0.05698,0.25648,0.3353
-23.158,0,0,38.158,38.158,5,5,25.7311,2.14373,-25.4111,0.0015129,-0.0049017,-0.00813062,0,0,3.5525,0.035,-0.3675,-0.00122,-0.426146,-0.92171,-0.05698,0.25648,0.3353
-23.1584,0,0,38.1584,38.1584,5,5,25.7315,2.14499,-25.4044,0.00149087,-0.00489611,-0.00813422,0,0,3.4125,-0.14,-0.455,-0.00122,-0.426146,-0.92171,-0.05698,0.25648,0.3353
-23.1616,0,0,38.1616,38.1616,5,5,25.7351,2.14382,-25.3956,5.3524e-05,-0.0060604,-0.00410353,0,0,3.395,-0.07,-0.3325,-0.002684,-0.427366,-0.917684,-0.05698,0.25648,0.3353
-23.1648,0,0,38.1648,38.1648,5,5,25.7387,2.14295,-25.3867,6.86022e-05,-0.0060041,-0.00413005,0,0,3.4125,0.0875,-0.3675,-0.002684,-0.427366,-0.917684,-0.05698,0.25648,0.3353
-23.1652,0,0,38.1652,38.1652,5,5,25.7391,2.14551,-25.3804,0.00208921,-0.00538757,-0.00929858,0,0,3.535,0.1925,-0.4375,-0.00061,-0.426756,-0.922808,-0.05698,0.25648,0.3353
-23.1657,0,0,38.1657,38.1657,5,5,25.7396,2.14796,-25.3804,0.00204653,-0.00538013,-0.00930395,0,0,3.5875,0.175,-0.4025,-0.00061,-0.426756,-0.922808,-0.06034,0.2618,0.33124
-23.1681,0,0,38.1681,38.1681,5,5,25.7423,2.14855,-25.3791,0.000942899,-0.00558193,-0.00563639,0,0,3.64,0.14,-0.3675,-0.001708,-0.427,-0.919148,-0.06034,0.2618,0.33124
-23.1702,0,0,38.1702,38.1702,5,5,25.7447,2.14911,-25.3777,0.000933153,-0.00554506,-0.00565457,0,0,3.465,0.1575,-0.2975,-0.001708,-0.427,-0.919148,-0.06034,0.2618,0.33124
-23.1688,0,0,38.1688,38.1688,5,5,25.7431,2.14797,-25.3765,-0.000869271,-0.00410342,-0.0125273,0,0,3.57,0.2625,-0.35,-0.003538,-0.425536,-0.92598,-0.06034,0.2618,0.33124
-23.1678,0,0,38.1678,38.1678,5,5,25.742,2.1467,-25.3755,-0.000847178,-0.00412065,-0.0125181,0,0,3.7975,0.1225,-0.4375,-0.003538,-0.425536,-0.92598,-0.06034,0.2618,0.33124
-23.1664,0,0,38.1664,38.1664,5,5,25.7405,2.14986,-25.3767,0.00213497,-0.00158135,-0.00636076,0,0,3.7275,0.0875,-0.42,-0.000488,-0.422974,-0.91988,-0.06034,0.2618,0.33124
-23.1648,0,0,38.1648,38.1648,5,5,25.7386,2.15286,-25.378,0.00208261,-0.00161101,-0.00634864,0,0,3.5525,0.0175,-0.4725,-0.000488,-0.422974,-0.91988,-0.06034,0.2618,0.33124
-23.1658,0,0,38.1658,38.1658,5,5,25.7398,2.15519,-25.378,0.00179889,-0.00281522,-0.00279306,0,0,3.6225,0.14,-0.4375,-0.000732,-0.424194,-0.916342,-0.06034,0.2618,0.33124
-23.1667,0,0,38.1667,38.1667,5,5,25.7407,2.15753,-25.3705,0.00175822,-0.00280035,-0.00280193,0,0,3.5525,0.175,-0.42,-0.000732,-0.424194,-0.916342,-0.0581,0.25494,0.32732
-23.1685,0,0,38.1685,38.1685,5,5,25.7428,2.15714,-25.3614,-5.72887e-05,-0.00411188,-0.00367765,0,0,3.43,0.2275,-0.4375,-0.002562,-0.425536,-0.917196,-0.0581,0.25494,0.32732
-23.1702,0,0,38.1702,38.1702,5,5,25.7447,2.15667,-25.3524,-4.915e-05,-0.00408114,-0.00369213,0,0,3.4125,0.1575,-0.455,-0.002562,-0.425536,-0.917196,-0.0581,0.25494,0.32732
-23.1689,0,0,38.1689,38.1689,5,5,25.7432,2.15996,-25.3461,0.00232312,-0.00410577,-0.0101989,0,0,3.395,0.245,-0.455,-0.000122,-0.425536,-0.923662,-0.0581,0.25494,0.32732
-23.1676,0,0,38.1676,38.1676,5,5,25.7418,2.16289,-25.3397,0.00227204,-0.00412913,-0.0101898,0,0,3.4125,0.1225,-0.3325,-0.000122,-0.425536,-0.923662,-0.0581,0.25494,0.32732
-23.1701,0,0,38.1701,38.1701,5,5,25.7445,2.16294,-25.3311,0.000691857,-0.00591753,-0.00516993,0,0,3.36,0.0525,-0.4025,-0.001708,-0.427366,-0.91866,-0.0581,0.25494,0.32732
-23.173,0,0,38.173,38.173,5,5,25.7478,2.16301,-25.3225,0.000690595,-0.00586597,-0.00519484,0,0,3.675,0.07,-0.385,-0.001708,-0.427366,-0.91866,-0.0581,0.25494,0.32732
-23.1699,0,0,38.1699,38.1699,5,5,25.7444,2.16426,-25.3166,0.000668843,-0.00042502,-0.00824306,0,0,3.57,-0.0175,-0.455,-0.001708,-0.421876,-0.92171,-0.0581,0.25494,0.32732
-23.1668,0,0,38.1668,38.1668,5,5,25.7409,2.1652,-25.3103,0.000652481,-0.00047911,-0.00821767,0,0,3.5525,-0.1575,-0.385,-0.001708,-0.421876,-0.92171,-0.0602,0.25774,0.33726
-23.1678,0,0,38.1678,38.1678,5,5,25.742,2.15885,-25.2996,-0.00421776,-0.00253632,-0.0050255,0,0,3.5875,-0.105,-0.525,-0.00671,-0.42395,-0.918538,-0.0602,0.25774,0.33726
-23.1689,0,0,38.1689,38.1689,5,5,25.7432,2.15272,-25.2887,-0.00411085,-0.002516,-0.00503084,0,0,3.6575,0,-0.385,-0.00671,-0.42395,-0.918538,-0.0602,0.25774,0.33726
-23.1699,0,0,38.1699,38.1699,5,5,25.7443,2.15198,-25.2806,-0.00021028,-0.00323168,-0.00565327,0,0,3.85,-0.0525,-0.4725,-0.002806,-0.424682,-0.919148,-0.0602,0.25774,0.33726
-23.1706,0,0,38.1706,38.1706,5,5,25.7452,2.15139,-25.2724,-0.000200015,-0.00321782,-0.00565952,0,0,3.745,0.07,-0.4025,-0.002806,-0.424682,-0.919148,-0.0602,0.25774,0.33726
-23.1707,0,0,38.1707,38.1707,5,5,25.7452,2.14599,-25.2623,-0.00362888,-0.00406986,-0.0109438,0,0,3.7625,0.035,-0.42,-0.006344,-0.425536,-0.924394,-0.0602,0.25774,0.33726
-23.1707,0,0,38.1707,38.1707,5,5,25.7452,2.14073,-25.2525,-0.00353717,-0.00406941,-0.0109402,0,0,3.6925,0.0175,-0.4725,-0.006344,-0.425536,-0.924394,-0.0602,0.25774,0.33726
-23.1695,0,0,38.1695,38.1695,5,5,25.7439,2.14051,-25.2452,-1.03129e-05,-0.00384495,-0.0112993,0,0,3.6575,0.0525,-0.42,-0.002806,-0.425292,-0.92476,-0.0602,0.25774,0.33726
-23.1685,0,0,38.1685,38.1685,5,5,25.7428,2.14036,-25.2376,-7.69331e-06,-0.00386248,-0.0112907,0,0,3.7275,0.07,-0.4725,-0.002806,-0.425292,-0.92476,-0.05992,0.25732,0.33726
-23.1681,0,0,38.1681,38.1681,5,5,25.7423,2.13895,-25.2293,-0.000833392,-0.00325887,-0.00882737,0,0,3.6925,0.0175,-0.42,-0.00366,-0.424682,-0.92232,-0.05992,0.25732,0.33726
-23.1677,0,0,38.1677,38.1677,5,5,25.7419,2.13765,-25.2209,-0.000810715,-0.00326475,-0.00882359,0,0,3.7275,0.1225,-0.315,-0.00366,-0.424682,-0.92232,-0.05992,0.25732,0.33726
-23.1645,0,0,38.1645,38.1645,5,5,25.7383,2.1383,-25.2142,0.000271188,-0.00197772,-0.0128542,0,0,3.7625,0.1575,-0.2275,-0.002562,-0.42334,-0.926346,-0.05992,0.25732,0.33726
-23.1612,0,0,38.1612,38.1612,5,5,25.7346,2.13873,-25.2079,0.000263804,-0.00203613,-0.0128263,0,0,3.6575,-0.0525,-0.385,-0.002562,-0.42334,-0.926346,-0.05992,0.25732,0.33726
-23.1627,0,0,38.1627,38.1627,5,5,25.7363,2.13584,-25.1987,-0.00138658,-0.00603891,-0.0096408,0,0,3.57,-0.07,-0.4025,-0.00427,-0.427366,-0.923174,-0.05992,0.25732,0.33726
-23.1641,0,0,38.1641,38.1641,5,5,25.7379,2.13263,-25.1896,-0.00133074,-0.00601351,-0.00965073,0,0,3.5175,-0.2625,-0.28,-0.00427,-0.427366,-0.923174,-0.05992,0.25732,0.33726
-23.166,0,0,38.166,38.166,5,5,25.74,2.1286,-25.1798,-0.00211083,-0.0067118,-0.0105251,0,0,3.5875,-0.0525,-0.3325,-0.005124,-0.428098,-0.924028,-0.05992,0.25732,0.33726
