pid_x,pid_y,pid_z,front_left_speed,front_right_speed,back_left_speed,back_right_speed,orientation_x,orientation_y,orientation_z,acceleration_x,acceleration_y,acceleration_z,accel_rejected,mag_rejected,gyro_x,gyro_y,gyro_z,accel_x,accel_y,accel_z,mag_x,mag_y,mag_z
-0.0572056,0,0,15.0572,15.0572,14.9428,14.9428,0.0204306,0.0610244,0.00484288,0.0461153,-0.017541,0.00374972,0,0,3.325,-0.035,-1.1375,0.007076,-0.005734,-1.00894,-0.0805,0.1197,0.45024
-0.104276,0,0,15.1043,15.1043,14.8957,14.8957,0.0372415,0.121468,0.00906866,0.0459107,-0.0145608,0.000674176,0,0,3.29,0.0175,-1.0325,0.00793,-0.00305,-1.01199,-0.0805,0.1197,0.45024
-0.151178,0,0,15.1512,15.1512,14.8488,14.8488,0.0539921,0.180324,0.0132414,0.0448835,-0.0142685,0.000671238,0,0,3.4475,-0.105,-1.0675,0.00793,-0.00305,-1.01199,-0.0805,0.1197,0.45024
-0.189504,0,0,15.1895,15.1895,14.8105,14.8105,0.0676798,0.234069,0.0206856,0.0410298,-0.0117092,0.000175798,0,0,3.4125,-0.0525,-1.1025,0.005002,-0.000732,-1.01248,-0.0805,0.1197,0.45024
-0.230573,0,0,15.2306,15.2306,14.7694,14.7694,0.0823477,0.294588,0.0211477,0.0460479,-0.0125523,0.00275251,0,0,3.395,0,-1.0675,0.011102,-0.00183,-1.00992,-0.0805,0.1197,0.45024
-0.269938,0,0,15.2699,15.2699,14.7301,14.7301,0.0964065,0.354299,0.0216848,0.0450057,-0.012307,0.00274622,0,0,3.22,0.3325,-1.0325,0.011102,-0.00183,-1.00992,-0.0805,0.1197,0.45024
-0.313971,0,0,15.314,15.314,14.686,14.686,0.112133,0.410146,0.0235796,0.0425732,-0.0136201,-0.00168692,0,0,3.3425,0.2625,-1.0675,0.009638,-0.003416,-1.01431,-0.07714,0.11942,0.45612
-0.351548,0,0,15.3515,15.3515,14.6485,14.6485,0.125553,0.46591,0.0243732,0.0428148,-0.011554,-0.001326,0,0,3.395,0.105,-0.8925,0.010858,-0.001586,-1.01394,-0.07714,0.11942,0.45612
-0.386078,0,0,15.3861,15.3861,14.6139,14.6139,0.137885,0.518717,0.0263995,0.0405568,-0.0108503,0.00210814,0,0,3.22,-0.0175,-0.945,0.009516,-0.001098,-1.01053,-0.07714,0.11942,0.45612
-0.421301,0,0,15.4213,15.4213,14.5787,14.5787,0.150465,0.570275,0.0281912,0.039657,-0.0106308,0.00209904,0,0,3.5,-0.0525,-1.085,0.009516,-0.001098,-1.01053,-0.07714,0.11942,0.45612
-0.456389,0,0,15.4564,15.4564,14.5436,14.5436,0.162996,0.623228,0.0276441,0.0409196,-0.0109006,-0.000124261,0,0,3.325,-0.0875,-1.085,0.011712,-0.001586,-1.01272,-0.07714,0.11942,0.45612
-0.490772,0,0,15.4908,15.4908,14.5092,14.5092,0.175276,0.674996,0.0271086,0.0400162,-0.0106864,-0.000135129,0,0,3.325,-0.0875,-1.085,0.011712,-0.001586,-1.01272,-0.07714,0.11942,0.45612
-0.528135,0,0,15.5281,15.5281,14.4719,14.4719,0.188619,0.721001,0.0307539,0.0353257,-0.0116748,0.000960886,0,0,3.2725,0.0175,-1.19,0.007808,-0.002806,-1.01162,-0.07714,0.11942,0.45612
-0.553468,0,0,15.5535,15.5535,14.4465,14.4465,0.197667,0.767112,0.033271,0.0358573,-0.00797524,-0.00802534,0,0,3.3425,0.1225,-1.225,0.00915,0.000732,-1.02053,-0.07714,0.11942,0.45612
-0.578206,0,0,15.5782,15.5782,14.4218,14.4218,0.206502,0.812204,0.0330879,0.0350704,-0.0078211,-0.00803673,0,0,3.325,0.1925,-1.0675,0.00915,0.000732,-1.02053,-0.0756,0.12096,0.45416
-0.608849,0,0,15.6088,15.6088,14.3912,14.3912,0.217446,0.854051,0.0347307,0.0325178,-0.00946205,-0.00558908,0,0,3.43,0.0875,-1.1375,0.00732,-0.001098,-1.01809,-0.0756,0.12096,0.45416
-0.650213,0,0,15.6502,15.6502,14.3498,14.3498,0.232219,0.897342,0.034229,0.0332202,-0.0125017,0.00361949,0,0,3.5175,0.0175,-1.1725,0.008784,-0.004392,-1.00894,-0.0756,0.12096,0.45416
-0.69075,0,0,15.6907,15.6907,14.3093,14.3093,0.246696,0.939666,0.0337363,0.0324816,-0.0122491,0.0036066,0,0,3.5175,0.0175,-1.1725,0.008784,-0.004392,-1.00894,-0.0756,0.12096,0.45416
-0.71672,0,0,15.7167,15.7167,14.2833,14.2833,0.255971,0.980494,0.0336343,0.0321336,-0.00805713,-0.0100533,0,0,3.4475,0.0175,-1.1025,0.00915,-0.000366,-1.02248,-0.0756,0.12096,0.45416
-0.752224,0,0,15.7522,15.7522,14.2478,14.2478,0.268651,1.02343,0.031199,0.0333281,-0.0110112,-0.00490361,0,0,3.4125,0.1225,-1.0675,0.011102,-0.003538,-1.01736,-0.0756,0.12096,0.45416
-0.787451,0,0,15.7875,15.7875,14.2125,14.2125,0.281233,1.06498,0.0288045,0.032603,-0.0107917,-0.00491788,0,0,3.5,-0.1225,-1.05,0.011102,-0.003538,-1.01736,-0.0756,0.12096,0.45416
-0.823931,0,0,15.8239,15.8239,14.1761,14.1761,0.294261,1.10866,0.0274946,0.0336631,-0.0109308,0.00268932,0,0,3.5875,-0.14,-1.12,0.012932,-0.003904,-1.00979,-0.0791,0.11956,0.44534
-0.846962,0,0,15.847,15.847,14.153,14.153,0.302486,1.1472,0.0298012,0.0301965,-0.00700145,-0.00593106,0,0,3.5175,-0.105,-1.085,0.010126,-0.000122,-1.01833,-0.0791,0.11956,0.44534
-0.887074,0,0,15.8871,15.8871,14.1129,14.1129,0.316812,1.18851,0.029117,0.0316622,-0.0122473,0.00450351,0,0,3.4475,-0.0875,-1.12,0.012322,-0.005612,-1.00796,-0.0791,0.11956,0.44534
-0.926385,0,0,15.9264,15.9264,14.0736,14.0736,0.330852,1.2289,0.0284406,0.0309574,-0.0120024,0.00448726,0,0,3.4475,-0.0875,-1.12,0.012322,-0.005612,-1.00796,-0.0791,0.11956,0.44534
-0.947483,0,0,15.9475,15.9475,14.0525,14.0525,0.338387,1.26446,0.0312858,0.0277858,-0.00661951,-0.00499405,0,0,3.3775,-0.035,-0.98,0.00976,-0.000366,-1.01736,-0.0791,0.11956,0.44534
-0.988285,0,0,15.9883,15.9883,14.0117,14.0117,0.352959,1.30473,0.0298442,0.0308492,-0.0124717,-9.33952e-05,0,0,3.5,0.1225,-0.945,0.013542,-0.006466,-1.01248,-0.0791,0.11956,0.44534
-1.02747,0,0,16.0275,16.0275,13.9725,13.9725,0.366954,1.34414,0.0282322,0.0301615,-0.0122276,-0.00011083,0,0,3.3425,0.1575,-1.05,0.013542,-0.006466,-1.01248,-0.0791,0.11956,0.44534
-1.04896,0,0,16.049,16.049,13.951,13.951,0.374628,1.37665,0.0356551,0.0253423,-0.00684234,-0.00295298,0,0,3.3075,-0.0875,-1.1725,0.009272,-0.00122,-1.01528,-0.08092,0.11718,0.44856
-1.08393,0,0,16.0839,16.0839,13.9161,13.9161,0.387118,1.40725,0.0441222,0.0238365,-0.0106547,-1.66398e-05,0,0,3.5175,-0.245,-1.155,0.008296,-0.005246,-1.01236,-0.08092,0.11718,0.44856
-1.10293,0,0,16.1029,16.1029,13.8971,13.8971,0.393904,1.44111,0.0490477,0.0261613,-0.00589557,0.00636119,0,0,3.3425,-0.2275,-1.015,0.011224,-0.00061,-1.00601,-0.08092,0.11718,0.44856
-1.12233,0,0,16.1223,16.1223,13.8777,13.8777,0.400833,1.47439,0.0538724,0.0255807,-0.00577478,0.00634557,0,0,3.5,-0.1225,-1.0675,0.011224,-0.00061,-1.00601,-0.08092,0.11718,0.44856
-1.07369,0,0,16.0737,16.0737,13.9263,13.9263,0.383462,1.5327,0.0347372,0.0463094,0.0152942,-0.00511326,0,0,3.4825,-0.07,-0.9625,0.033062,0.02074,-1.01736,-0.08092,0.11718,0.44856
-1.18113,0,0,16.1811,16.1811,13.8189,13.8189,0.421832,1.54871,0.0552254,0.0121355,-0.0339863,-0.0117647,0,0,3.3075,-0.035,-0.875,-0.000976,-0.029158,-1.02395,-0.08092,0.11718,0.44856
-1.28622,0,0,16.2862,16.2862,13.7138,13.7138,0.459363,1.5647,0.075254,0.0118565,-0.0333316,-0.0117773,0,0,3.2725,0.175,-1.1025,-0.000976,-0.029158,-1.02395,-0.08092,0.11718,0.44856
-1.22042,0,0,16.2204,16.2204,13.7796,13.7796,0.435866,1.51764,0.147723,-0.0374961,0.0217042,-0.142815,0,0,3.115,0.0875,-1.085,-0.051362,0.02623,-1.154,-0.08092,0.11718,0.44856
-1.219,0,0,16.219,16.219,13.781,13.781,0.435358,1.51773,0.147681,-0.0374976,0.0216953,-0.142815,1,0,3.115,0.0875,-1.085,-0.051362,0.02623,-1.154,-0.07924,0.1176,0.4473
0.546771,0,0,14.4532,14.4532,15.5468,15.5468,-0.195275,1.23973,0.391373,-0.225809,0.599709,0.111336,0,0,2.6075,-0.14,-1.5575,-0.245342,0.614636,-0.901946,-0.07924,0.1176,0.4473
0.793842,0,0,14.2062,14.2062,15.7938,15.7938,-0.283515,1.66168,0.0409765,0.508985,0.115159,-0.381142,0,0,3.5175,0.385,-1.3825,0.499956,0.132126,-1.39043,-0.07924,0.1176,0.4473
0.797866,0,0,14.2021,14.2021,15.7979,15.7979,-0.284952,1.66156,0.0400951,0.508987,0.115134,-0.381142,1,0,2.6075,-0.035,-1.575,0.499956,0.132126,-1.39043,-0.07924,0.1176,0.4473
0.794999,0,0,14.205,14.205,15.795,15.795,-0.283928,1.66182,0.0379816,-0.175346,-0.0729229,-0.139918,1,0,4.0075,0.1925,-2.2925,-0.18727,-0.055754,-1.15107,-0.07924,0.1176,0.4473
0.0204658,0,0,14.9795,14.9795,15.0205,15.0205,-0.00730922,1.57417,0.157114,-0.0745636,-0.238464,0.0387821,0,0,3.9025,-0.4375,-1.5575,-0.087596,-0.225944,-0.973804,-0.07924,0.1176,0.4473
-0.739725,0,0,15.7397,15.7397,14.2603,14.2603,0.264187,1.48911,0.274143,-0.0730795,-0.233727,0.0388112,0,0,4.0425,0.07,-1.995,-0.087596,-0.225944,-0.973804,-0.07924,0.1176,0.4473
-1.33174,0,0,16.3317,16.3317,13.6683,13.6683,0.475622,1.22975,0.520649,-0.180078,-0.156883,0.177704,0,0,3.22,1.3475,-1.8725,-0.199592,-0.152866,-0.836066,-0.07966,0.13034,0.46368
-0.340262,0,0,15.3403,15.3403,14.6597,14.6597,0.121522,1.44604,0.330566,0.180727,0.323124,0.0208883,0,0,2.24,0.7525,-1.7325,0.16653,0.332816,-0.991616,-0.07966,0.13034,0.46368
0.634105,0,0,14.3659,14.3659,15.6341,15.6341,-0.226466,1.65578,0.139354,0.177067,0.317053,0.0207837,0,0,2.03,-0.5425,-1.26,0.16653,0.332816,-0.991616,-0.07966,0.13034,0.46368
1.10288,0,0,13.8971,13.8971,16.1029,16.1029,-0.393885,1.87291,-0.0577116,0.199399,0.164162,-0.0881582,0,0,2.94,-1.1025,-0.595,0.19276,0.183,-1.09959,-0.07966,0.13034,0.46368
1.09779,0,0,13.9022,13.9022,16.0978,16.0978,-0.392069,1.87318,-0.0573054,0.199394,0.164193,-0.0881582,1,0,4.41,0.1925,-0.8225,0.19276,0.183,-1.09959,-0.07966,0.13034,0.46368
1.08907,0,0,13.9109,13.9109,16.0891,16.0891,-0.388952,1.87316,-0.056267,-0.712234,-0.0806164,-1.05466,1,0,5.1275,0.0175,-0.455,-0.722728,-0.06161,-2.05863,-0.07966,0.13034,0.46368
1.07667,0,0,13.9233,13.9233,16.0767,16.0767,-0.384525,1.87273,-0.0533655,-0.712227,-0.0805392,-1.05466,1,0,5.8275,-0.2275,0.63,-0.722728,-0.06161,-2.05863,-0.07966,0.13034,0.46368
1.0684,0,0,13.9316,13.9316,16.0684,16.0684,-0.38157,1.87326,-0.0505905,-0.348265,0.619543,-0.670072,1,0,5.005,0.3325,0.56,-0.357216,0.637694,-1.67701,-0.07966,0.13034,0.46368
1.06888,0,0,13.9311,13.9311,16.0689,16.0689,-0.381743,1.87507,-0.048034,-0.348296,0.61954,-0.670073,1,0,3.255,1.085,0.4375,-0.357216,0.637694,-1.67701,-0.08022,0.13076,0.4718
1.06993,0,0,13.9301,13.9301,16.0699,16.0699,-0.382117,1.87599,-0.0439713,1.17184,-0.492309,0.794366,1,0,3.115,0.56,1.3125,1.16937,-0.472994,-0.22387,-0.08022,0.13076,0.4718
1.09189,0,0,13.9081,13.9081,16.0919,16.0919,-0.389961,1.87441,-0.0392617,1.17187,-0.492445,0.794366,1,0,-1.085,-0.91,1.68,1.16937,-0.472994,-0.22387,-0.08022,0.13076,0.4718
1.11523,0,0,13.8848,13.8848,16.1152,16.1152,-0.398297,1.87378,-0.0362387,-0.29725,0.572599,-0.230534,1,0,-1.33,-0.35,0.7,-0.305976,0.59109,-1.24086,-0.08022,0.13076,0.4718
1.12639,0,0,13.8736,13.8736,16.1264,16.1264,-0.402282,1.87307,-0.0347454,-0.297237,0.572529,-0.230534,1,0,1.1375,-0.385,-0.1925,-0.305976,0.59109,-1.24086,-0.08022,0.13076,0.4718
1.13577,0,0,13.8642,13.8642,16.1358,16.1358,-0.405633,1.87159,-0.0320165,-0.315192,0.159927,-0.420366,1,0,1.47,-0.84,0.525,-0.324032,0.178974,-1.42923,-0.08022,0.13076,0.4718
1.1222,0,0,13.8778,13.8778,16.1222,16.1222,-0.400785,1.86813,-0.031494,-0.315131,0.160011,-0.420363,1,0,6.1075,-1.995,-0.77,-0.324032,0.178974,-1.42923,-0.08022,0.13076,0.4718
1.10871,0,0,13.8913,13.8913,16.1087,16.1087,-0.395969,1.87073,-0.0319441,0.0150217,-0.102233,-0.119632,1,0,6.1075,1.5575,-1.3125,0.007564,-0.083082,-1.13082,-0.08022,0.13076,0.4718
1.0709,0,0,13.9291,13.9291,16.0709,16.0709,-0.382466,1.87234,-0.0321171,0.0149936,-0.101998,-0.119631,1,0,10.9725,0.98,-1.155,0.007564,-0.083082,-1.13082,-0.07784,0.1351,0.47936
1.03862,0,0,13.9614,13.9614,16.0386,16.0386,-0.370937,1.87457,-0.0334641,-0.210644,0.55439,-0.0159857,1,0,9.8875,1.3475,-1.8375,-0.21899,0.572424,-1.02797,-0.07784,0.1351,0.47936
1.00634,0,0,13.9937,13.9937,16.0063,16.0063,-0.359407,1.8768,-0.0348106,-0.210683,0.554592,-0.0159857,1,0,9.8875,1.3475,-1.8375,-0.21899,0.572424,-1.02797,-0.07784,0.1351,0.47936
1.94634,0,0,13.0537,13.0537,16.9463,16.9463,-0.695121,1.53055,0.265414,-0.284702,0.293733,0.0790563,0,0,2.6075,0.525,-2.1875,-0.299388,0.317688,-0.933788,-0.07784,0.1351,0.47936
2.86956,0,0,12.1304,12.1304,17.8696,17.8696,-1.02484,1.19082,0.569159,-0.278774,0.287978,0.0791107,0,0,2.6075,0.525,-2.1875,-0.299388,0.317688,-0.933788,-0.07784,0.1351,0.47936
2.89917,0,0,12.1008,12.1008,17.8992,17.8992,-1.03542,1.12479,0.62499,-0.0476493,0.000673476,-0.00152353,0,0,-1.925,-4.1825,-3.3425,-0.068442,0.030866,-1.01382,-0.07784,0.1351,0.47936
2.9282,0,0,12.0718,12.0718,17.9282,17.9282,-1.04578,1.06017,0.680729,-0.0465216,0.000492202,-0.00150532,0,0,-1.925,-4.1825,-3.3425,-0.068442,0.030866,-1.01382,-0.07784,0.1351,0.47936
2.8026,0,0,12.1974,12.1974,17.8026,17.8026,-1.00093,0.842122,0.884289,-0.18449,-0.0469664,-0.0340095,0,0,0.1225,-0.7,-3.57,-0.210816,-0.017324,-1.04615,-0.07784,0.1351,0.47936
2.67961,0,0,12.3204,12.3204,17.6796,17.6796,-0.957002,0.627429,1.08903,-0.180744,-0.0462007,-0.0339484,0,0,0.1225,-0.7,-3.57,-0.210816,-0.017324,-1.04615,-0.08176,0.13426,0.47306
2.60478,0,0,12.3952,12.3952,17.6048,17.6048,-0.930277,0.623693,1.10803,-0.0041597,-0.0170346,-0.0997174,0,0,7.5425,1.12,-3.29,-0.03355,0.011346,-1.11142,-0.08176,0.13426,0.47306
2.53141,0,0,12.4686,12.4686,17.5314,17.5314,-0.904074,0.620029,1.12699,-0.00409575,-0.0165773,-0.0997094,0,0,7.5425,1.12,-3.29,-0.03355,0.011346,-1.11142,-0.08176,0.13426,0.47306
2.50947,0,0,12.4905,12.4905,17.5095,17.5095,-0.89624,0.620829,1.12465,0.105956,-0.195112,0.131313,1,0,7.805,0.525,-2.415,0.076982,-0.16714,-0.882182,-0.08176,0.13426,0.47306
3.59295,0,0,11.407,11.407,18.593,18.593,-1.2832,0.661104,1.10058,0.036371,0.338669,0.0754808,0,0,3.7275,0.665,-2.0825,0.007808,0.372832,-0.937448,-0.08176,0.13426,0.47306
4.66993,0,0,10.3301,10.3301,19.6699,19.6699,-1.66783,0.697646,1.07835,0.0357333,0.331959,0.0753004,0,0,1.015,-1.12,-0.8925,0.007808,0.372832,-0.937448,-0.08176,0.13426,0.47306
4.92455,0,0,10.0754,10.0754,19.9246,19.9246,-1.75877,0.754345,1.04054,0.054789,0.0853866,-0.0898794,0,0,0.1925,-0.8225,-0.9275,0.027938,0.1281,-1.10129,-0.08176,0.13426,0.47306
5.15362,0,0,9.84638,9.84638,20.1536,20.1536,-1.84058,0.809258,1.00393,0.0538306,0.08396,-0.0899373,0,0,4.305,-1.2075,-0.21,0.027938,0.1281,-1.10129,-0.08176,0.13426,0.47306
5.15776,0,0,9.84224,9.84224,20.1578,20.1578,-1.84206,0.807023,1.006,0.0322452,0.202031,-0.198378,1,0,2.555,-1.3125,0.105,0.006222,0.246074,-1.2089,-0.08176,0.13426,0.47306
5.13627,0,0,9.86373,9.86373,20.1363,20.1363,-1.83438,0.80704,1.00839,0.0322449,0.202165,-0.198374,1,0,7.6825,0,0.3325,0.006222,0.246074,-1.2089,-0.08316,0.14182,0.48132
5.12571,0,0,9.87429,9.87429,20.1257,20.1257,-1.83061,0.807175,1.01074,0.0820517,0.0339398,-0.271526,1,0,5.495,0.07,0.315,0.056242,0.077958,-1.28149,-0.08316,0.14182,0.48132
5.12556,0,0,9.87444,9.87444,20.1256,20.1256,-1.83056,0.807245,1.01292,0.0820504,0.0339407,-0.271526,1,0,3.4125,0.035,0.21,0.056242,0.077958,-1.28149,-0.08316,0.14182,0.48132
5.00428,0,0,9.99572,9.99572,20.0043,20.0043,-1.78724,0.87657,0.954378,0.0535064,-0.0380907,0.0272448,0,0,3.465,1.0325,0.035,0.028792,0.005246,-0.985028,-0.08316,0.14182,0.48132
4.89286,0,0,10.1071,10.1071,19.8929,19.8929,-1.74745,0.942857,0.896523,0.0523496,-0.0373961,0.0272479,0,0,1.96,0.105,0.2975,0.028792,0.005246,-0.985028,-0.08316,0.14182,0.48132
5.91994,0,0,9.08006,9.08006,20.9199,20.9199,-2.11427,1.03498,0.812424,0.0709085,0.308054,0.104585,0,0,2.24,0.595,-0.105,0.049044,0.356728,-0.908046,-0.08316,0.14182,0.48132
6.91756,0,0,8.08244,8.08244,21.9176,21.9176,-2.47056,1.12423,0.727538,0.0693511,0.301843,0.104307,0,0,4.3575,-0.035,-0.0875,0.049044,0.356728,-0.908046,-0.08316,0.14182,0.48132
6.90521,0,0,8.09479,8.09479,21.9052,21.9052,-2.46615,1.12317,0.730093,-0.0748339,-0.0553006,-0.144168,1,0,5.845,-0.6475,0.4025,-0.09577,-0.000122,-1.15461,-0.08316,0.14182,0.48132
6.90012,0,0,8.09988,8.09988,21.9001,21.9001,-2.46433,1.12198,0.730823,-0.0748131,-0.0552689,-0.144167,1,0,4.41,-0.6825,-0.665,-0.09577,-0.000122,-1.15461,-0.07854,0.14546,0.4851
6.88951,0,0,8.11049,8.11049,21.8895,21.8895,-2.46054,1.12103,0.731753,0.0335687,-0.243278,-0.227154,1,0,5.5125,-0.5425,-0.5425,0.013054,-0.188002,-1.23696,-0.07854,0.14546,0.4851
6.89276,0,0,8.10724,8.10724,21.8928,21.8928,-2.4617,1.12092,0.731926,0.0335706,-0.243298,-0.227154,1,0,2.7475,-0.035,-0.9625,0.013054,-0.188002,-1.23696,-0.07854,0.14546,0.4851
6.89872,0,0,8.10128,8.10128,21.8987,21.8987,-2.46383,1.12122,0.731841,0.0968595,0.0280302,-0.279778,1,0,2.205,0.21,-1.1025,0.076616,0.083082,-1.28917,-0.07854,0.14546,0.4851
6.90469,0,0,8.09531,8.09531,21.9047,21.9047,-2.46596,1.12151,0.731756,0.0968543,0.0279931,-0.27978,1,0,2.205,0.21,-1.1025,0.076616,0.083082,-1.28917,-0.07854,0.14546,0.4851
6.91835,0,0,8.08165,8.08165,21.9184,21.9184,-2.47084,1.12398,0.730016,0.0237984,0.154798,0.160863,1,0,0.6825,1.5225,-2.0125,0.003294,0.20984,-0.851926,-0.07854,0.14546,0.4851
6.93202,0,0,8.06798,8.06798,21.932,21.932,-2.47572,1.12644,0.728277,0.0237554,0.154713,0.160859,1,0,0.6825,1.5225,-2.0125,0.003294,0.20984,-0.851926,-0.07854,0.14546,0.4851
6.92948,0,0,8.07052,8.07052,21.9295,21.9295,-2.47482,1.12689,0.725393,-0.0718616,-0.131537,0.182621,1,0,3.9375,0.3675,-2.73,-0.09272,-0.076128,-0.830332,-0.07854,0.14546,0.4851
6.73777,0,0,8.26223,8.26223,21.7378,21.7378,-2.40635,1.40983,0.439438,0.229102,-0.057795,0.0764581,0,0,6.2125,-0.385,-2.835,0.214476,-0.00366,-0.935618,-0.07252,0.14672,0.49042
6.54212,0,0,8.45788,8.45788,21.5421,21.5421,-2.33647,1.68647,0.155473,0.224276,-0.0565716,0.0763782,0,0,7.735,-0.84,-2.24,0.214476,-0.00366,-0.935618,-0.07252,0.14672,0.49042
6.24648,0,0,8.75352,8.75352,21.2465,21.2465,-2.23089,1.70486,0.112925,0.0213168,-0.0921015,-0.0788418,0,0,7.1575,-0.1225,-2.3275,0.01098,-0.040992,-1.0897,-0.07252,0.14672,0.49042
5.95654,0,0,9.04346,9.04346,20.9565,20.9565,-2.12734,1.72293,0.0704742,0.0210017,-0.0902959,-0.0787825,0,0,7.1575,-0.1225,-2.3275,0.01098,-0.040992,-1.0897,-0.07252,0.14672,0.49042
5.95359,0,0,9.04641,9.04641,20.9536,20.9536,-2.12628,1.72378,0.0693496,-0.121394,-0.238051,-0.110626,1,0,4.0075,0.56,-1.6975,-0.132004,-0.188612,-1.1213,-0.07252,0.14672,0.49042
5.95065,0,0,9.04935,9.04935,20.9506,20.9506,-2.12523,1.72464,0.068225,-0.121409,-0.238033,-0.110626,1,0,4.0075,0.56,-1.6975,-0.132004,-0.188612,-1.1213,-0.07252,0.14672,0.49042
5.9665,0,0,9.0335,9.0335,20.9665,20.9665,-2.13089,1.72406,0.0680842,-0.175096,-0.0833967,0.189119,1,0,0.2275,-0.2975,-1.155,-0.185928,-0.034038,-0.823866,-0.07252,0.14672,0.49042
5.90715,0,0,9.09285,9.09285,20.9072,20.9072,-2.1097,1.27517,0.470633,-0.370024,-0.0292989,0.0950364,0,0,-0.42,0.0875,-1.26,-0.389546,0.019642,-0.91744,-0.07252,0.14672,0.49042
5.8337,0,0,9.1663,9.1663,20.8337,20.8337,-2.08346,0.834026,0.876909,-0.362326,-0.0288467,0.0951948,0,0,2.695,-0.1925,-0.5425,-0.389546,0.019642,-0.91744,-0.07406,0.14462,0.4949
6.40186,0,0,8.59814,8.59814,21.4019,21.4019,-2.28638,1.08591,0.634916,0.234754,0.19917,-0.033618,0,0,3.5,-1.2425,0.035,0.214476,0.250954,-1.04505,-0.07406,0.14462,0.4949
6.94295,0,0,8.05705,8.05705,21.943,21.943,-2.47963,1.33381,0.391567,0.230429,0.195805,-0.0338494,0,0,6.8425,-0.7,0.07,0.214476,0.250954,-1.04505,-0.07406,0.14462,0.4949
6.9208,0,0,8.0792,8.0792,21.9208,21.9208,-2.47172,1.33264,0.393767,0.170921,0.0504896,-0.187897,1,0,7.805,-0.7,0.1925,0.154696,0.105652,-1.19792,-0.07406,0.14462,0.4949
6.88982,0,0,8.11018,8.11018,21.8898,21.8898,-2.46065,1.33388,0.396043,0.1709,0.0506825,-0.18789,1,0,9.5725,0.7,0.2975,0.154696,0.105652,-1.19792,-0.07406,0.14462,0.4949
6.86672,0,0,8.13328,8.13328,21.8667,21.8667,-2.4524,1.33379,0.398167,0.0987386,-0.103053,-0.17313,1,0,7.9975,-0.07,0.175,0.082228,-0.048068,-1.18328,-0.07406,0.14462,0.4949
6.86519,0,0,8.13481,8.13481,21.8652,21.8652,-2.45185,1.33497,0.399125,0.098718,-0.103044,-0.17313,1,0,3.6925,0.7,-0.4725,0.082228,-0.048068,-1.18328,-0.07406,0.14462,0.4949
6.8745,0,0,8.1255,8.1255,21.8745,21.8745,-2.45518,1.33566,0.400014,-0.116324,-0.140595,0.112354,1,0,1.5225,0.42,-0.525,-0.133712,-0.085522,-0.899994,-0.07406,0.14462,0.4949
6.88427,0,0,8.11573,8.11573,21.8843,21.8843,-2.45867,1.33593,0.401973,-0.116328,-0.140656,0.112351,1,0,1.4175,0.14,0.0875,-0.133712,-0.085522,-0.899994,-0.0742,0.14812,0.4879
7.60189,0,0,7.39811,7.39811,22.6019,22.6019,-2.71496,1.56665,0.164566,0.194294,0.223949,0.0545076,0,0,0.42,-0.49,-0.245,0.182268,0.283162,-0.95709,-0.0742,0.14812,0.4879
8.3034,0,0,6.6966,6.6966,23.3034,23.3034,-2.9655,1.79345,-0.0754935,0.190337,0.219589,0.0541751,0,0,1.0675,-0.105,-0.805,0.182268,0.283162,-0.95709,-0.0742,0.14812,0.4879
8.16945,0,0,6.83055,6.83055,23.1694,23.1694,-2.91766,2.09508,-0.39021,0.231848,-0.0475143,0.132112,0,0,2.6425,-0.4025,-0.9625,0.229238,0.015494,-0.87962,-0.0742,0.14812,0.4879
8.02317,0,0,6.97683,6.97683,23.0232,23.0232,-2.86542,2.38982,-0.704522,0.226708,-0.0465942,0.131957,0,0,5.635,-0.9975,-1.26,0.229238,0.015494,-0.87962,-0.0742,0.14812,0.4879
8.0082,0,0,6.9918,6.9918,23.0082,23.0082,-2.86007,2.38735,-0.704892,0.0814539,-0.37319,-0.0554102,1,0,6.405,-1.4,-1.3475,0.083326,-0.310856,-1.06555,-0.0742,0.14812,0.4879
8.00423,0,0,6.99577,6.99577,23.0042,23.0042,-2.85865,2.38854,-0.706706,0.0814331,-0.373165,-0.0554099,1,0,4.235,0.7875,-2.0825,0.083326,-0.310856,-1.06555,-0.0742,0.14812,0.4879
8.00316,0,0,6.99684,6.99684,23.0032,23.0032,-2.85827,2.38932,-0.707869,-0.162524,-0.19864,-0.153646,1,0,3.64,0.525,-1.715,-0.16165,-0.136518,-1.16303,-0.0742,0.14812,0.4879
8.00936,0,0,6.99064,6.99064,23.0094,23.0094,-2.86049,2.38973,-0.709855,-0.162531,-0.198678,-0.153648,1,0,2.205,0.3325,-2.205,-0.16165,-0.136518,-1.16303,-0.07462,0.147,0.48874
7.90615,0,0,7.09385,7.09385,22.9061,22.9061,-2.82362,2.55173,-0.901179,0.157675,-0.0371893,-0.0802149,0,0,0.98,0.0875,-2.2925,0.162748,0.024156,-1.09007,-0.07462,0.147,0.48874
7.80104,0,0,7.19896,7.19896,22.801,22.801,-2.78608,2.71053,-1.09163,0.154906,-0.0365293,-0.0803099,0,0,1.75,0.0875,-2.0475,0.162748,0.024156,-1.09007,-0.07462,0.147,0.48874
7.83469,0,0,7.16531,7.16531,22.8347,22.8347,-2.7981,2.60786,-1.03725,-0.0904058,0.0125965,-0.0450738,0,0,2.8875,-0.07,-1.9775,-0.0854,0.073444,-1.05518,-0.07462,0.147,0.48874
7.86771,0,0,7.13229,7.13229,22.8677,22.8677,-2.8099,2.50722,-0.982894,-0.0886512,0.0123873,-0.0450056,0,0,2.8875,-0.07,-1.9775,-0.0854,0.073444,-1.05518,-0.07462,0.147,0.48874
8.15356,0,0,6.84644,6.84644,23.1536,23.1536,-2.91199,2.62708,-1.14001,0.109225,0.10282,-0.0430979,0,0,5.2325,-0.315,-2.0125,0.115412,0.165554,-1.0531,-0.07462,0.147,0.48874
8.43411,0,0,6.56589,6.56589,23.4341,23.4341,-3.01218,2.74449,-1.29738,0.107178,0.10108,-0.043284,0,0,5.2325,-0.315,-2.0125,0.115412,0.165554,-1.0531,-0.07462,0.147,0.48874
8.15821,0,0,6.84179,6.84179,23.1582,23.1582,-2.91365,2.73439,-1.32678,-0.00259095,-0.0921189,-0.0658094,0,0,2.8525,-0.035,-1.225,0.005002,-0.029158,-1.07555,-0.07462,0.147,0.48874
7.88759,0,0,7.11241,7.11241,22.8876,22.8876,-2.817,2.72432,-1.35908,-0.0024153,-0.0904365,-0.0657168,0,0,2.8525,-0.035,-1.225,0.005002,-0.029158,-1.07555,-0.07504,0.14896,0.4956
7.90487,0,0,7.09513,7.09513,22.9049,22.9049,-2.82317,2.72382,-1.35937,0.0164236,0.0617481,0.151651,1,0,-0.0525,-0.245,-1.2425,0.023912,0.122976,-0.859856,-0.07504,0.14896,0.4956
7.92215,0,0,7.07785,7.07785,22.9221,22.9221,-2.82934,2.72333,-1.35966,0.0164322,0.0616407,0.151646,1,0,-0.0525,-0.245,-1.2425,0.023912,0.122976,-0.859856,-0.07504,0.14896,0.4956
8.10306,0,0,6.89694,6.89694,23.1031,23.1031,-2.89395,2.40147,-1.09569,-0.258223,0.0436495,0.128358,0,0,1.995,0.1925,-0.7175,-0.257542,0.10614,-0.883158,-0.07504,0.14896,0.4956
8.28072,0,0,6.71928,6.71928,23.2807,23.2807,-2.9574,2.08572,-0.831262,-0.252717,0.0425334,0.128517,0,0,1.995,0.1925,-0.7175,-0.257542,0.10614,-0.883158,-0.07504,0.14896,0.4956
8.10805,0,0,6.89195,6.89195,23.1081,23.1081,-2.89573,2.22792,-0.997463,0.117643,-0.0518908,0.0474554,0,0,6.195,0.315,-0.735,0.116876,0.010736,-0.963556,-0.07504,0.14896,0.4956
7.93863,0,0,7.06137,7.06137,22.9386,22.9386,-2.83523,2.36736,-1.16323,0.115211,-0.0508321,0.0474107,0,0,6.195,0.315,-0.735,0.116876,0.010736,-0.963556,-0.07504,0.14896,0.4956
7.92658,0,0,7.07342,7.07342,22.9266,22.9266,-2.83092,2.36593,-1.16236,0.151682,0.037052,-0.185449,1,0,5.7925,-0.8225,-0.595,0.153476,0.098454,-1.19462,-0.07504,0.14896,0.4956
7.91452,0,0,7.08548,7.08548,22.9145,22.9145,-2.82662,2.36451,-1.16149,0.151706,0.0371269,-0.185444,1,0,5.7925,-0.8225,-0.595,0.153476,0.098454,-1.19462,-0.08036,0.15428,0.50764
8.49459,0,0,6.50541,6.50541,23.4946,23.4946,-3.03378,2.4687,-1.30763,0.091455,0.200226,-0.0456672,0,0,0.7175,0.0875,-0.49,0.094794,0.264984,-1.05567,-0.08036,0.15428,0.50764
8.51288,0,0,6.48712,6.48712,23.5129,23.5129,-3.04031,2.46856,-1.30688,0.00702487,-0.259328,0.207724,1,0,-0.28,-0.07,-0.63,0.010004,-0.19398,-0.804224,-0.08036,0.15428,0.50764
8.52769,0,0,6.47231,6.47231,23.5277,23.5277,-3.0456,2.4693,-1.30633,0.00701184,-0.259421,0.207718,1,0,0.42,0.455,-0.7175,0.010004,-0.19398,-0.804224,-0.08036,0.15428,0.50764
7.92143,0,0,7.07857,7.07857,22.9214,22.9214,-2.82908,2.66411,-1.53006,0.160089,-0.19006,0.0952618,0,0,2.59,0.315,-1.0325,0.16714,-0.128466,-0.915854,-0.08036,0.15428,0.50764
7.31459,0,0,7.68541,7.68541,22.3146,22.3146,-2.61236,2.85445,-1.75187,0.156771,-0.186279,0.0952814,0,0,4.9,-0.175,-0.945,0.16714,-0.128466,-0.915854,-0.08036,0.15428,0.50764
7.51385,0,0,7.48615,7.48615,22.5138,22.5138,-2.68352,3.13628,-2.0718,0.265934,0.0764099,-0.0469153,0,0,5.95,-0.1225,-0.7175,0.281698,0.135176,-1.05664,-0.08036,0.15428,0.50764
7.70501,0,0,7.29499,7.29499,22.705,22.705,-2.75179,3.41284,-2.39267,0.261115,0.0752346,-0.0472471,0,0,6.9125,0.0525,-1.1025,0.281698,0.135176,-1.05664,-0.08036,0.15428,0.50764
7.68842,0,0,7.31158,7.31158,22.6884,22.6884,-2.74587,3.41275,-2.39268,0.0777942,0.190137,-0.12974,1,0,6.72,-0.0175,-1.0675,0.0976,0.249856,-1.1385,-0.08414,0.16772,0.51842
7.68483,0,0,7.31517,7.31517,22.6848,22.6848,-2.74458,3.41357,-2.39355,0.0311293,-0.200768,-0.251828,1,0,4.1475,0.5425,-1.54,0.050752,-0.140666,-1.25965,-0.08414,0.16772,0.51842
7.69316,0,0,7.30684,7.30684,22.6932,22.6932,-2.74756,3.4148,-2.3941,0.0311079,-0.20082,-0.251832,1,0,1.75,0.77,-1.3475,0.050752,-0.140666,-1.25965,-0.08414,0.16772,0.51842
7.66825,0,0,7.33175,7.33175,22.6682,22.6682,-2.73866,3.49578,-2.55111,0.0752543,-0.011487,-0.0422823,0,0,0.6475,0.875,-1.4525,0.096502,0.048312,-1.05164,-0.08414,0.16772,0.51842
7.65122,0,0,7.34878,7.34878,22.6512,22.6512,-2.73258,3.574,-2.70821,0.0738917,-0.0113772,-0.0423614,0,0,-0.8225,0.2275,-1.6975,0.096502,0.048312,-1.05164,-0.08414,0.16772,0.51842
7.6673,0,0,7.3327,7.3327,22.6673,22.6673,-2.73832,3.57375,-2.70908,-0.293598,0.306785,-0.203305,1,0,0.21,-0.0875,-1.575,-0.272548,0.366244,-1.21134,-0.08414,0.16772,0.51842
7.67546,0,0,7.32454,7.32454,22.6755,22.6755,-2.74123,3.57339,-2.70962,-0.293592,0.306735,-0.203307,1,0,1.785,-0.1575,-1.3825,-0.272548,0.366244,-1.21134,-0.08414,0.16772,0.51842
8.48296,0,0,6.51704,6.51704,23.483,23.483,-3.02963,3.74356,-2.96156,0.142008,0.288415,-0.0270726,0,0,3.7975,0.0175,-1.3475,0.167872,0.352946,-1.03602,-0.08414,0.16772,0.51842
9.27382,0,0,5.72618,5.72618,24.2738,24.2738,-3.31208,3.90923,-3.21757,0.139123,0.283515,-0.0275374,0,0,4.27,-0.0875,-1.5575,0.167872,0.352946,-1.03602,-0.07952,0.16884,0.52962
9.26637,0,0,5.73363,5.73363,24.2664,24.2664,-3.30942,3.90873,-3.21783,0.487674,0.171937,-0.0939263,1,0,4.9,-0.245,-1.225,0.51789,0.241438,-1.1019,-0.07952,0.16884,0.52962
9.25892,0,0,5.74108,5.74108,24.2589,24.2589,-3.30676,3.90824,-3.21808,0.487682,0.171984,-0.093923,1,0,4.9,-0.245,-1.225,0.51789,0.241438,-1.1019,-0.07952,0.16884,0.52962
9.2982,0,0,5.7018,5.7018,24.2982,24.2982,-3.32079,3.79955,-3.20056,-0.101332,0.00942587,0.0462285,0,0,3.29,4.41,-1.085,-0.075518,0.0793,-0.962946,-0.07952,0.16884,0.52962
9.33674,0,0,5.66326,5.66326,24.3367,24.3367,-3.33455,3.69297,-3.18301,-0.0994754,0.00917952,0.0463359,0,0,3.29,4.41,-1.085,-0.075518,0.0793,-0.962946,-0.07952,0.16884,0.52962
9.34759,0,0,5.65241,5.65241,24.3476,24.3476,-3.33842,3.69327,-3.1825,-0.309529,0.0171725,-0.146698,1,0,1.2075,0.1925,-0.7525,-0.286456,0.087352,-1.15449,-0.07952,0.16884,0.52962
9.35844,0,0,5.64156,5.64156,24.3584,24.3584,-3.3423,3.69357,-3.18198,-0.309535,0.0171051,-0.146702,1,0,1.2075,0.1925,-0.7525,-0.286456,0.087352,-1.15449,-0.07952,0.16884,0.52962
9.36845,0,0,5.63155,5.63155,24.3684,24.3684,-3.34587,3.6932,-3.18113,-0.0965637,-0.0675908,-0.163672,1,0,1.365,-0.21,-0.5775,-0.07259,0.002806,-1.17132,-0.07952,0.16884,0.52962
9.34808,0,0,5.65192,5.65192,24.3481,24.3481,-3.3386,3.93833,-3.52409,0.223534,-0.00894908,0.0113758,0,0,3.1325,0.2275,-0.84,0.25315,0.061244,-0.99735,-0.07336,0.18256,0.53998
9.32648,0,0,5.67352,5.67352,24.3265,24.3265,-3.33089,4.17685,-3.86547,0.219382,-0.00879788,0.0110896,0,0,3.4125,-0.945,-0.2625,0.25315,0.061244,-0.99735,-0.07336,0.18256,0.53998
9.32791,0,0,5.67209,5.67209,24.3279,24.3279,-3.3314,4.17571,-3.86509,0.16777,-0.0942955,0.135391,1,0,3.0975,-0.6475,-0.875,0.2013,-0.024156,-0.874008,-0.07336,0.18256,0.53998
9.32934,0,0,5.67066,5.67066,24.3293,24.3293,-3.33191,4.17456,-3.8647,0.16779,-0.0943045,0.135392,1,0,3.0975,-0.6475,-0.875,0.2013,-0.024156,-0.874008,-0.07336,0.18256,0.53998
9.03086,0,0,5.96914,5.96914,24.0309,24.0309,-3.22531,3.85277,-3.66577,-0.261405,-0.0978477,0.0896623,0,0,1.33,-0.0525,-1.33,-0.235338,-0.029524,-0.91988,-0.07336,0.18256,0.53998
8.73825,0,0,6.26175,6.26175,23.7382,23.7382,-3.1208,3.53721,-3.46807,-0.255909,-0.0960499,0.0901175,0,0,1.33,-0.0525,-1.33,-0.235338,-0.029524,-0.91988,-0.07336,0.18256,0.53998
8.75544,0,0,6.24456,6.24456,23.7554,23.7554,-3.12694,3.53756,-3.46885,-0.133336,-0.227809,-0.137589,1,0,-0.0175,0.2625,-1.505,-0.11224,-0.16104,-1.14582,-0.07336,0.18256,0.53998
8.25765,0,0,6.74235,6.74235,23.2577,23.2577,-2.94916,3.77602,-3.79528,0.239846,-0.176707,-0.00564361,0,0,0.4025,0.2625,-1.61,0.266692,-0.113094,-1.0148,-0.07336,0.18256,0.53998
7.75883,0,0,7.24117,7.24117,22.7588,22.7588,-2.77101,4.01486,-4.10062,0.235687,-0.173595,-0.00577165,0,0,2.5025,0.1575,-1.505,0.266692,-0.113094,-1.0148,-0.0763,0.1687,0.51996
7.39476,0,0,7.60524,7.60524,22.3948,22.3948,-2.64099,4.02836,-4.20063,0.0171418,-0.114666,0.0495226,0,0,3.605,0.1925,-1.61,0.047458,-0.056486,-0.960018,-0.0763,0.1687,0.51996
7.04145,0,0,7.95855,7.95855,22.0415,22.0415,-2.5148,4.04148,-4.30082,0.0169135,-0.112471,0.0496053,0,0,2.835,0,-1.855,0.047458,-0.056486,-0.960018,-0.0763,0.1687,0.51996
5.7734,0,0,9.2266,9.2266,20.7734,20.7734,-2.06193,4.21037,-4.51756,0.160364,-0.395857,0.159624,0,0,2.4325,-0.1225,-1.8725,0.194468,-0.347456,-0.85095,-0.0763,0.1687,0.51996
4.53478,0,0,10.4652,10.4652,19.5348,19.5348,-1.61956,4.37662,-4.73127,0.15747,-0.388155,0.159654,0,0,0.665,-0.315,-1.7675,0.194468,-0.347456,-0.85095,-0.0763,0.1687,0.51996
4.55177,0,0,10.4482,10.4482,19.5518,19.5518,-1.62563,4.37711,-4.73298,-0.109564,-0.0634035,0.269935,1,0,0.07,0.35,-2.0475,-0.073688,-0.022936,-0.741516,-0.0763,0.1687,0.51996
4.5667,0,0,10.4333,10.4333,19.5667,19.5667,-1.63096,4.37729,-4.73405,-0.109567,-0.0634963,0.269933,1,0,0.455,0.1575,-1.68,-0.073688,-0.022936,-0.741516,-0.0763,0.1687,0.51996
4.57771,0,0,10.4223,10.4223,19.5777,19.5777,-1.6349,4.37769,-4.73477,-0.284149,0.0596612,-0.142931,1,0,1.225,0.28,-1.47,-0.249002,0.100162,-1.15119,-0.0763,0.1687,0.51996
4.57957,0,0,10.4204,10.4204,19.5796,19.5796,-1.63556,4.3781,-4.73479,-0.284156,0.0596497,-0.142932,1,0,3.0275,0.28,-1.0675,-0.249002,0.100162,-1.15119,-0.07728,0.1645,0.511
4.9966,0,0,10.0034,10.0034,19.9966,19.9966,-1.7845,4.54912,-4.99421,0.153011,0.148661,-0.0569315,0,0,3.43,0.245,-0.6825,0.193004,0.191662,-1.06555,-0.07728,0.1645,0.511
5.40217,0,0,9.59783,9.59783,20.4022,20.4022,-1.92935,4.71587,-5.25352,0.15011,0.14615,-0.0572481,0,0,4.2175,-0.1575,-0.3675,0.193004,0.191662,-1.06555,-0.07728,0.1645,0.511
5.40192,0,0,9.59808,9.59808,20.4019,20.4019,-1.92926,4.7154,-5.25234,-0.21774,-0.117398,-0.112943,1,0,3.395,-0.2625,-0.385,-0.176412,-0.071614,-1.12081,-0.07728,0.1645,0.511
5.41297,0,0,9.58703,9.58703,20.413,20.413,-1.9332,4.7144,-5.25094,-0.217723,-0.117466,-0.112944,1,0,1.12,-0.5775,-0.2625,-0.176412,-0.071614,-1.12081,-0.07728,0.1645,0.511
5.12112,0,0,9.87888,9.87888,20.1211,20.1211,-1.82897,4.62089,-5.25143,-0.072379,-0.0917216,0.0954002,0,0,0.9275,-0.315,-0.245,-0.032086,-0.047702,-0.914268,-0.07728,0.1645,0.511
4.83505,0,0,10.1649,10.1649,19.8351,19.8351,-1.7268,4.52914,-5.25176,-0.0707826,-0.0899489,0.095583,0,0,0.875,-0.5075,0.035,-0.032086,-0.047702,-0.914268,-0.07728,0.1645,0.511
5.78677,0,0,9.21323,9.21323,20.7868,20.7868,-2.06671,4.57129,-5.40687,0.00429101,0.299955,0.0708622,0,0,1.47,-0.0875,0.035,0.044042,0.3477,-0.938546,-0.07728,0.1645,0.511
6.71361,0,0,8.28639,8.28639,21.7136,21.7136,-2.39772,4.61267,-5.56269,0.0035711,0.294203,0.0705801,0,0,3.08,0.245,-0.0875,0.044042,0.3477,-0.938546,-0.07728,0.1645,0.511
6.27744,0,0,8.72256,8.72256,21.2774,21.2774,-2.24194,4.34386,-5.39409,-0.231929,-0.145813,-0.0429174,0,0,4.095,0.385,-0.28,-0.197152,-0.09455,-1.05164,-0.07644,0.16758,0.51058
5.8509,0,0,9.1491,9.1491,20.8509,20.8509,-2.08961,4.07959,-5.22786,-0.227329,-0.143176,-0.0424787,0,0,3.92,-0.1225,-0.77,-0.197152,-0.09455,-1.05164,-0.07644,0.16758,0.51058
5.46544,0,0,9.53456,9.53456,20.4654,20.4654,-1.95194,3.94588,-5.18326,-0.1023,-0.118193,0.0837912,0,0,2.975,-0.2975,-1.12,-0.073932,-0.07198,-0.92659,-0.07644,0.16758,0.51058
5.09509,0,0,9.90491,9.90491,20.0951,20.0951,-1.81968,3.81547,-5.14029,-0.10003,-0.115896,0.0840209,0,0,1.47,-0.035,-1.68,-0.073932,-0.07198,-0.92659,-0.07644,0.16758,0.51058
4.45554,0,0,10.5445,10.5445,19.4555,19.4555,-1.59126,3.97454,-5.35586,0.164591,-0.225493,-0.00862939,0,0,0.525,-0.5425,-2.1525,0.19459,-0.18544,-1.01846,-0.07644,0.16758,0.51058
3.82443,0,0,11.1756,11.1756,18.8244,18.8244,-1.36587,4.13099,-5.57033,0.161867,-0.221565,-0.00872106,0,0,1.12,-0.455,-2.4675,0.19459,-0.18544,-1.01846,-0.07644,0.16758,0.51058
3.83537,0,0,11.1646,11.1646,18.8354,18.8354,-1.36978,4.13056,-5.57336,0.0160916,-0.187438,0.121972,1,0,1.33,-0.175,-2.835,0.04819,-0.15128,-0.88877,-0.07644,0.16758,0.51058
3.83932,0,0,11.1607,11.1607,18.8393,18.8393,-1.37118,4.13047,-5.57593,0.0160932,-0.187462,0.121972,1,0,2.7125,0.0175,-2.555,0.04819,-0.15128,-0.88877,-0.07644,0.16758,0.51058
3.84057,0,0,11.1594,11.1594,18.8406,18.8406,-1.37163,4.13052,-5.57859,-0.122037,0.0348008,-0.224989,1,0,3.255,0.105,-2.6075,-0.090524,0.07076,-1.23305,-0.07868,0.1512,0.49672
3.84259,0,0,11.1574,11.1574,18.8426,18.8426,-1.37236,4.13089,-5.58201,0.120807,-0.257217,-0.0784354,1,0,3.1325,0.2975,-3.045,0.153354,-0.220942,-1.08763,-0.07868,0.1512,0.49672
3.85007,0,0,11.1499,11.1499,18.8501,18.8501,-1.37503,4.13157,-5.58475,0.120795,-0.257263,-0.0784374,1,0,2.0125,0.4725,-2.6425,0.153354,-0.220942,-1.08763,-0.07868,0.1512,0.49672
3.85981,0,0,11.1402,11.1402,18.8598,18.8598,-1.3785,4.1319,-5.58699,-0.0998292,-0.102223,0.104385,1,0,1.54,0.2625,-2.3625,-0.068198,-0.066002,-0.906216,-0.07868,0.1512,0.49672
3.87023,0,0,11.1298,11.1298,18.8702,18.8702,-1.38222,4.13202,-5.5883,-0.0998312,-0.102288,0.104383,1,0,1.365,0.1225,-1.82,-0.068198,-0.066002,-0.906216,-0.07868,0.1512,0.49672
3.88021,0,0,11.1198,11.1198,18.8802,18.8802,-1.38579,4.13216,-5.58874,-0.0171019,-0.0244327,0.103275,1,0,1.4175,0.1225,-1.3125,0.014884,0.011834,-0.907314,-0.07868,0.1512,0.49672
3.88069,0,0,11.1193,11.1193,18.8807,18.8807,-1.38596,4.13269,-5.58798,-0.0171111,-0.0244357,0.103274,1,0,3.2725,0.3325,-0.6125,0.014884,0.011834,-0.907314,-0.07868,0.1512,0.49672
3.88279,0,0,11.1172,11.1172,18.8828,18.8828,-1.38671,4.13305,-5.58656,0.121255,-0.0359286,-0.187622,1,0,2.9225,0.2275,-0.2275,0.153842,0.000366,-1.19597,-0.07868,0.1512,0.49672
3.88394,0,0,11.1161,11.1161,18.8839,18.8839,-1.38712,4.13323,-5.58393,0.121252,-0.0359357,-0.187623,1,0,3.0625,0.105,0.4725,0.153842,0.000366,-1.19597,-0.07728,0.15022,0.49322
3.88709,0,0,11.1129,11.1129,18.8871,18.8871,-1.38824,4.13352,-5.58082,-0.0932971,-0.347134,-0.115576,1,0,2.6425,0.1575,0.7525,-0.06161,-0.31049,-1.12447,-0.07728,0.15022,0.49322
3.89531,0,0,11.1047,11.1047,18.8953,18.8953,-1.39118,4.13326,-5.57688,-0.0932925,-0.347185,-0.115577,1,0,1.5925,-0.175,1.225,-0.06161,-0.31049,-1.12447,-0.07728,0.15022,0.49322
3.6097,0,0,11.3903,11.3903,18.6097,18.6097,-1.28918,4.50365,-5.96227,0.33846,-0.106275,0.0408604,0,0,1.19,-0.175,1.4525,0.378444,-0.071614,-0.968802,-0.07728,0.15022,0.49322
3.32961,0,0,11.6704,11.6704,18.3296,18.3296,-1.18914,4.86734,-6.34546,0.332134,-0.104524,0.0403796,0,0,1.05,0,1.4525,0.378444,-0.071614,-0.968802,-0.07728,0.15022,0.49322
3.33805,0,0,11.6619,11.6619,18.3381,18.3381,-1.19216,4.86673,-6.34158,-0.102531,0.181933,-0.0928967,1,0,1.5225,-0.3675,1.19,-0.058072,0.214598,-1.10105,-0.07728,0.15022,0.49322
3.3376,0,0,11.6624,11.6624,18.3376,18.3376,-1.192,4.86566,-6.33883,-0.102513,0.181935,-0.0928951,1,0,3.36,-0.63,0.525,-0.058072,0.214598,-1.10105,-0.07728,0.15022,0.49322
2.86859,0,0,12.1314,12.1314,17.8686,17.8686,-1.0245,4.48992,-6.04465,-0.331538,-0.161147,-0.0343953,0,0,3.78,-0.595,0.28,-0.29463,-0.131028,-1.04359,-0.07728,0.15022,0.49322
2.40837,0,0,12.5916,12.5916,17.4084,17.4084,-0.860131,4.12219,-5.75363,-0.325138,-0.158294,-0.0338664,0,0,3.99,-0.35,-0.4725,-0.29463,-0.131028,-1.04359,-0.07686,0.14966,0.4914
2.40708,0,0,12.5929,12.5929,17.4071,17.4071,-0.85967,4.12112,-5.75363,-0.0130221,-0.0388465,0.099903,1,0,3.6575,-0.595,-1.0675,0.018788,-0.011712,-0.910852,-0.07686,0.14966,0.4914
2.41649,0,0,12.5835,12.5835,17.4165,17.4165,-0.863033,4.12051,-5.75471,-0.0130115,-0.0389051,0.0999029,1,0,1.5575,-0.315,-1.6975,0.018788,-0.011712,-0.910852,-0.07686,0.14966,0.4914
2.81432,0,0,12.1857,12.1857,17.8143,17.8143,-1.00512,4.23296,-5.93587,0.0957046,0.132777,-0.0263025,0,0,1.295,-0.245,-2.0125,0.12993,0.16226,-1.0359,-0.07686,0.14966,0.4914
3.20671,0,0,11.7933,11.7933,18.2067,18.2067,-1.14525,4.34355,-6.11919,0.0937798,0.130341,-0.0264926,0,0,1.0325,0.105,-3.1675,0.12993,0.16226,-1.0359,-0.07686,0.14966,0.4914
3.64667,0,0,11.3533,11.3533,18.6467,18.6467,-1.30238,4.39858,-6.25659,0.0399758,0.144462,-0.00781307,0,0,1.5225,0.1575,-3.43,0.07686,0.179096,-1.01724,-0.07686,0.14966,0.4914
4.07029,0,0,10.9297,10.9297,19.0703,19.0703,-1.45368,4.45255,-6.39407,0.0390367,0.141832,-0.00794905,0,0,3.185,0.2975,-3.4475,0.07686,0.179096,-1.01724,-0.07686,0.14966,0.4914
4.06585,0,0,10.9341,10.9341,19.0659,19.0659,-1.45209,4.45322,-6.39846,-0.0314366,-0.0404753,-0.107783,1,0,4.48,0.49,-3.605,0.0061,-0.00305,-1.1163,-0.07686,0.14966,0.4914
4.06043,0,0,10.9396,10.9396,19.0604,19.0604,-1.45015,4.45393,-6.40199,-0.0314491,-0.0404416,-0.107784,1,0,4.6375,0.5075,-3.0975,0.0061,-0.00305,-1.1163,-0.0798,0.14476,0.4942
4.05504,0,0,10.945,10.945,19.055,19.055,-1.44823,4.45478,-6.40524,-0.0953653,-0.158993,0.185325,1,0,4.62,0.5775,-2.94,-0.058072,-0.121512,-0.825452,-0.0798,0.14476,0.4942
4.06271,0,0,10.9373,10.9373,19.0627,19.0627,-1.45097,4.45565,-6.40747,-0.0953804,-0.159041,0.185323,1,0,1.96,0.5775,-2.345,-0.058072,-0.121512,-0.825452,-0.0798,0.14476,0.4942
4.2319,0,0,10.7681,10.7681,19.2319,19.2319,-1.51139,4.53793,-6.55038,0.0546806,0.0452061,0.0919883,0,0,1.6275,0.56,-2.0825,0.094062,0.08357,-0.917928,-0.0798,0.14476,0.4942
4.39926,0,0,10.6007,10.6007,19.3993,19.3993,-1.57116,4.61747,-6.69141,0.0532969,0.0441696,0.0918496,0,0,1.295,-0.07,-1.085,0.094062,0.08357,-0.917928,-0.0798,0.14476,0.4942
4.59405,0,0,10.406,10.406,19.594,19.594,-1.64073,4.54527,-6.69472,-0.0666899,0.0631079,-0.0055819,0,0,2.0825,0.07,-0.6475,-0.027694,0.1037,-1.01467,-0.0798,0.14476,0.4942
4.77594,0,0,10.2241,10.2241,19.7759,19.7759,-1.70569,4.4738,-6.69671,-0.0654463,0.0619752,-0.00551687,0,0,3.885,-0.315,0,-0.027694,0.1037,-1.01467,-0.0798,0.14476,0.4942
4.55154,0,0,10.4485,10.4485,19.5515,19.5515,-1.62555,4.35535,-6.63404,-0.0987374,-0.0709748,0.00292029,0,0,4.4625,0.0175,0.14,-0.063196,-0.0305,-1.0065,-0.0798,0.14476,0.4942
4.32441,0,0,10.6756,10.6756,19.3244,19.3244,-1.54443,4.2403,-6.56,-0.0967351,-0.0695677,0.00310975,0,0,5.95,-0.0175,0.175,-0.063196,-0.0305,-1.0065,-0.07826,0.13678,0.48762
4.95486,0,0,10.0451,10.0451,19.9549,19.9549,-1.76959,4.36893,-6.75176,0.111804,0.226463,-0.0206552,0,0,5.915,-0.2975,0.35,0.148474,0.269132,-1.0298,-0.07826,0.13678,0.48762
5.58797,0,0,9.41203,9.41203,20.588,20.588,-1.9957,4.49515,-6.94407,0.109608,0.222537,-0.0209546,0,0,3.15,-0.14,0.4025,0.148474,0.269132,-1.0298,-0.07826,0.13678,0.48762
5.48159,0,0,9.51841,9.51841,20.4816,20.4816,-1.95771,4.66051,-7.13745,0.15496,-0.0382683,-0.0166129,0,0,2.835,-0.4025,0.4725,0.196908,0.00793,-1.02529,-0.07826,0.13678,0.48762
5.38645,0,0,9.61355,9.61355,20.3864,20.3864,-1.92373,4.82289,-7.33138,0.152136,-0.0376697,-0.016827,0,0,1.015,-0.245,-0.175,0.196908,0.00793,-1.02529,-0.07826,0.13678,0.48762
5.39526,0,0,9.60474,9.60474,20.3953,20.3953,-1.92688,4.82209,-7.3301,-0.131884,-0.226532,0.138333,1,0,1.575,-0.455,-0.3325,-0.088328,-0.180682,-0.871324,-0.07826,0.13678,0.48762
5.3959,0,0,9.6041,9.6041,20.3959,20.3959,-1.92711,4.82125,-7.32942,-0.131869,-0.226536,0.138334,1,0,3.2375,-0.4725,-0.6825,-0.088328,-0.180682,-0.871324,-0.07826,0.13678,0.48762
5.3926,0,0,9.6074,9.6074,20.3926,20.3926,-1.92593,4.82074,-7.32942,-0.0995449,-0.103046,0.152106,1,0,4.06,-0.2625,-1.0675,-0.055876,-0.05734,-0.85766,-0.07826,0.13678,0.48762
5.38108,0,0,9.61892,9.61892,20.3811,20.3811,-1.92182,4.82087,-7.33016,-0.099547,-0.102974,0.152108,1,0,5.74,0.1225,-1.4875,-0.055876,-0.05734,-0.85766,-0.07826,0.13678,0.48762
5.3289,0,0,9.6711,9.6711,20.3289,20.3289,-1.90318,5.07855,-7.62575,0.247673,-0.0167823,-0.0282653,0,0,5.495,-0.14,-1.5225,0.297314,0.028426,-1.03627,-0.08092,0.1421,0.49378
5.03916,0,0,9.96084,9.96084,20.0392,20.0392,-1.7997,4.7048,-7.32812,-0.339285,-0.096094,-0.0307249,0,0,4.69,0.2625,-1.8375,-0.298656,-0.052582,-1.03932,-0.08092,0.1421,0.49378
4.76506,0,0,10.2349,10.2349,19.7651,19.7651,-1.70181,4.33838,-7.03208,-0.33291,-0.0944069,-0.030169,0,0,2.7475,0.4025,-1.855,-0.298656,-0.052582,-1.03932,-0.08092,0.1421,0.49378
4.77082,0,0,10.2292,10.2292,19.7708,19.7708,-1.70386,4.33865,-7.03319,0.127638,-0.035944,-0.102587,1,0,2.2925,0.21,-1.6975,0.163846,0.005856,-1.11118,-0.08092,0.1421,0.49378
4.77969,0,0,10.2203,10.2203,19.7797,19.7797,-1.70703,4.33908,-7.03372,0.127631,-0.0359991,-0.102589,1,0,1.645,0.2975,-1.365,0.163846,0.005856,-1.11118,-0.08092,0.1421,0.49378
5.05846,0,0,9.94154,9.94154,20.0585,20.0585,-1.80659,4.31172,-7.07364,-0.0286098,0.0931878,-0.0186325,0,0,2.0825,0.42,-1.19,0.006466,0.13664,-1.02785,-0.08092,0.1421,0.49378
5.33209,0,0,9.66791,9.66791,20.3321,20.3321,-1.90432,4.28479,-7.11338,-0.0281411,0.0914867,-0.0186524,0,0,2.0825,0.42,-1.19,0.006466,0.13664,-1.02785,-0.08092,0.1421,0.49378
5.8026,0,0,9.1974,9.1974,20.8026,20.8026,-2.07236,4.55034,-7.4319,0.214947,0.151838,0.0760515,0,0,5.4775,0.77,-0.8925,0.255224,0.199836,-0.933422,-0.08092,0.1421,0.49378
6.2654,0,0,8.7346,8.7346,21.2654,21.2654,-2.23764,4.81095,-7.75445,0.210414,0.148979,0.0755725,0,0,5.4775,0.77,-0.8925,0.255224,0.199836,-0.933422,-0.07854,0.14378,0.48174
6.94188,0,0,8.05812,8.05812,21.9419,21.9419,-2.47924,4.66658,-7.71728,-0.149345,0.238321,-0.00603026,0,0,5.1975,0.8225,-0.8225,-0.10858,0.293288,-1.01443,-0.07854,0.14378,0.48174
7.60606,0,0,7.39394,7.39394,22.6061,22.6061,-2.71645,4.52457,-7.67901,-0.146875,0.23419,-0.00601892,0,0,5.1975,0.8225,-0.8225,-0.10858,0.293288,-1.01443,-0.07854,0.14378,0.48174
7.7159,0,0,7.2841,7.2841,22.7159,22.7159,-2.75568,4.37043,-7.60611,-0.138361,0.0446898,-0.0958414,0,0,2.8875,-4.48,-0.7875,-0.102724,0.104676,-1.10373,-0.07854,0.14378,0.48174
7.82375,0,0,7.17625,7.17625,22.8238,22.8238,-2.7942,4.21919,-7.53307,-0.135729,0.0440106,-0.0956764,0,0,2.8875,-4.48,-0.7875,-0.102724,0.104676,-1.10373,-0.07854,0.14378,0.48174
7.88221,0,0,7.11779,7.11779,22.8822,22.8822,-2.81507,4.29058,-7.65892,0.0733202,0.019349,-0.0627134,0,0,1.225,-0.6125,-1.4525,0.108458,0.080398,-1.07092,-0.07854,0.14378,0.48174
7.93959,0,0,7.06041,7.06041,22.9396,22.9396,-2.83557,4.36056,-7.78462,0.0721023,0.0189973,-0.062823,0,0,1.225,-0.6125,-1.4525,0.108458,0.080398,-1.07092,-0.07854,0.14378,0.48174
7.93686,0,0,7.06314,7.06314,22.9369,22.9369,-2.83459,4.36,-7.78562,0.207204,-0.101769,-0.0666328,1,0,3.99,-0.2625,-1.6625,0.244122,-0.04026,-1.0747,-0.07854,0.14378,0.48174
7.93412,0,0,7.06588,7.06588,22.9341,22.9341,-2.83361,4.35944,-7.78663,0.207214,-0.101752,-0.0666312,1,0,3.99,-0.2625,-1.6625,0.244122,-0.04026,-1.0747,-0.0805,0.1463,0.48594
7.8592,0,0,7.1408,7.1408,22.8592,22.8592,-2.80686,4.20211,-7.69821,-0.143693,-0.0189837,-0.0800509,0,0,5.11,-0.35,-2.275,-0.11102,0.041968,-1.08824,-0.0805,0.1463,0.48594
7.78575,0,0,7.21425,7.21425,22.7857,22.7857,-2.78062,4.04781,-7.61,-0.141007,-0.018537,-0.0798351,0,0,5.11,-0.35,-2.275,-0.11102,0.041968,-1.08824,-0.0805,0.1463,0.48594
7.99694,0,0,7.00306,7.00306,22.9969,22.9969,-2.85605,3.90551,-7.54357,-0.133305,0.0761345,-0.0300565,0,0,3.92,-0.21,-1.8375,-0.105774,0.13786,-1.03895,-0.0805,0.1463,0.48594
7.95879,0,0,7.04121,7.04121,22.9588,22.9588,-2.84242,3.99174,-7.67521,0.0835032,-0.0138751,-0.0327301,0,0,2.5375,-0.0175,-1.54,0.11346,0.047702,-1.04151,-0.0805,0.1463,0.48594
7.92258,0,0,7.07742,7.07742,22.9226,22.9226,-2.82949,4.07697,-7.80591,0.0820193,-0.0136451,-0.0328235,0,0,2.2575,0.35,-1.12,0.11346,0.047702,-1.04151,-0.0805,0.1463,0.48594
8.06819,0,0,6.93181,6.93181,23.0682,23.0682,-2.8815,3.89518,-7.69656,-0.163132,0.0450375,0.0325144,0,0,2.3975,0,-0.6475,-0.135908,0.107238,-0.976854,-0.0805,0.1463,0.48594
8.20549,0,0,6.79451,6.79451,23.2055,23.2055,-2.93053,3.71637,-7.58648,-0.160018,0.0441741,0.0326779,0,0,3.5175,-0.2625,-0.3675,-0.135908,0.107238,-0.976854,-0.0805,0.1463,0.48594
8.20443,0,0,6.79557,6.79557,23.2044,23.2044,-2.93015,3.7167,-7.58534,-0.0365946,-0.0250651,0.118373,1,0,3.57,0.1925,-0.385,-0.011956,0.038064,-0.89182,-0.08316,0.14364,0.47838
8.10949,0,0,6.89051,6.89051,23.1095,23.1095,-2.89625,3.68164,-7.5897,-0.0317319,-0.0307058,0.0547551,0,0,4.4275,-0.0525,0.035,-0.007686,0.031842,-0.955016,-0.08316,0.14364,0.47838
8.0204,0,0,6.9796,6.9796,23.0204,23.0204,-2.86443,3.64738,-7.59346,-0.0311352,-0.0301542,0.0548212,0,0,3.5875,-0.0175,0.42,-0.007686,0.031842,-0.955016,-0.08316,0.14364,0.47838
7.88779,0,0,7.11221,7.11221,22.8878,22.8878,-2.81707,3.73357,-7.70683,0.0815601,-0.0443471,-0.0116269,0,0,3.885,-0.385,0.49,0.106994,0.016836,-1.0209,-0.08316,0.14364,0.47838
7.76258,0,0,7.23742,7.23742,22.7626,22.7626,-2.77235,3.81922,-7.821,0.0800685,-0.0435645,-0.0116872,0,0,2.9225,0.28,-0.1225,0.106994,0.016836,-1.0209,-0.08316,0.14364,0.47838
7.33902,0,0,7.66098,7.66098,22.339,22.339,-2.62108,3.68928,-7.71988,-0.110588,-0.144503,-0.0277671,0,0,2.9925,-0.07,-0.2625,-0.086742,-0.08662,-1.03712,-0.08316,0.14364,0.47838
6.92213,0,0,8.07787,8.07787,21.9221,21.9221,-2.47219,3.56127,-7.62073,-0.108358,-0.141919,-0.0275107,0,0,3.29,-0.455,-0.91,-0.086742,-0.08662,-1.03712,-0.08316,0.14364,0.47838
7.05533,0,0,7.94467,7.94467,22.0553,22.0553,-2.51976,3.65924,-7.75892,0.0838265,0.0406924,0.0227545,0,0,2.4675,-0.63,-1.0325,0.10797,0.096624,-0.987102,-0.08316,0.14364,0.47838
7.18656,0,0,7.81344,7.81344,22.1866,22.1866,-2.56663,3.75665,-7.90936,0.0821301,0.0398819,0.0226084,0,0,2.5025,-0.315,-1.82,0.10797,0.096624,-0.987102,-0.08652,0.15176,0.48272
7.32131,0,0,7.67869,7.67869,22.3213,22.3213,-2.61475,3.77637,-7.99047,0.014362,0.0438085,0.00902362,0,0,3.2025,0.07,-2.1525,0.04026,0.101382,-1.00052,-0.08652,0.15176,0.48272
7.44736,0,0,7.55264,7.55264,22.4474,22.4474,-2.65977,3.79588,-8.07186,0.0140223,0.0430264,0.00896509,0,0,4.4625,0.21,-2.38,0.04026,0.101382,-1.00052,-0.08652,0.15176,0.48272
6.9897,0,0,8.0103,8.0103,21.9897,21.9897,-2.49632,3.56417,-7.8909,-0.189561,-0.142949,0.0730398,0,0,5.04,0.2625,-2.975,-0.168238,-0.08723,-0.937326,-0.08652,0.15176,0.48272
6.5431,0,0,8.4569,8.4569,21.5431,21.5431,-2.33682,3.33704,-7.71164,-0.185604,-0.140183,0.0733953,0,0,4.5675,0.2625,-3.08,-0.168238,-0.08723,-0.937326,-0.08652,0.15176,0.48272
6.54165,0,0,8.45835,8.45835,21.5417,21.5417,-2.3363,3.33738,-7.71501,0.0455773,-0.275979,-0.270246,1,0,3.7975,0.315,-3.01,0.063928,-0.222894,-1.27832,-0.08652,0.15176,0.48272
6.54218,0,0,8.45782,8.45782,21.5422,21.5422,-2.33649,3.33782,-7.71813,0.0455696,-0.275982,-0.270246,1,0,3.395,0.3675,-2.87,0.063928,-0.222894,-1.27832,-0.08652,0.15176,0.48272
7.37189,0,0,7.62811,7.62811,22.3719,22.3719,-2.63282,3.48165,-7.93964,0.124945,0.299701,-0.0139028,0,0,2.6425,-0.1225,-2.4675,0.146156,0.357338,-1.02358,-0.08652,0.15176,0.48272
8.19663,0,0,6.80337,6.80337,23.1966,23.1966,-2.92737,3.62233,-8.1661,0.122494,0.294584,-0.0143036,0,0,0.735,-0.35,-1.2775,0.146156,0.357338,-1.02358,-0.0812,0.15442,0.49476
8.20667,0,0,6.79333,6.79333,23.2067,23.2067,-2.93095,3.62202,-8.16642,0.134163,0.229306,-0.0842642,1,0,1.4,-0.14,-1.26,0.157868,0.29219,-1.093,-0.0812,0.15442,0.49476
8.21015,0,0,6.78985,6.78985,23.2101,23.2101,-2.93219,3.62106,-8.1647,0.134179,0.229284,-0.0842642,1,0,2.6425,-0.5775,-0.0875,0.157868,0.29219,-1.093,-0.0812,0.15442,0.49476
8.29101,0,0,6.70899,6.70899,23.291,23.291,-2.96107,3.18061,-7.80723,-0.417346,0.0290808,0.0238682,0,0,3.465,-0.0175,0.14,-0.403698,0.09272,-0.986126,-0.0812,0.15442,0.49476
8.36437,0,0,6.63563,6.63563,23.3644,23.3644,-2.98728,2.74802,-7.44831,-0.409806,0.0286044,0.0242345,0,0,4.7425,0.0525,0.77,-0.403698,0.09272,-0.986126,-0.0812,0.15442,0.49476
8.42649,0,0,6.57351,6.57351,23.4265,23.4265,-3.00946,2.8928,-7.62675,0.111881,0.015035,0.10708,0,0,5.0225,0.1925,1.12,0.122732,0.079544,-0.903776,-0.0812,0.15442,0.49476
8.49384,0,0,6.50616,6.50616,23.4938,23.4938,-3.03351,3.03515,-7.8049,0.1094,0.0146232,0.10693,0,0,3.745,0.385,1.2075,0.122732,0.079544,-0.903776,-0.0812,0.15442,0.49476
8.49582,0,0,6.50418,6.50418,23.4958,23.4958,-3.03422,3.03628,-7.80157,-0.173438,-0.150138,-0.169952,1,0,2.905,0.595,0.91,-0.161284,-0.085034,-1.17852,-0.0812,0.15442,0.49476
8.50428,0,0,6.49572,6.49572,23.5043,23.5043,-3.03724,3.0363,-7.79843,-0.173439,-0.150191,-0.169955,1,0,1.61,-0.0525,0.77,-0.161284,-0.085034,-1.17852,-0.07784,0.1477,0.48874
8.10717,0,0,6.89283,6.89283,23.1072,23.1072,-2.89542,3.29339,-8.05679,0.212779,-0.135375,0.125863,0,0,0.595,-0.6825,-0.2275,0.231068,-0.072712,-0.884866,-0.07784,0.1477,0.48874
7.71674,0,0,7.28326,7.28326,22.7167,22.7167,-2.75598,3.54584,-8.31351,0.208381,-0.132935,0.12572,0,0,0.595,-0.6825,-0.2275,0.231068,-0.072712,-0.884866,-0.07784,0.1477,0.48874
7.62769,0,0,7.37231,7.37231,22.6277,22.6277,-2.72418,3.546,-8.35674,0.000273208,-0.0339479,0.0348876,0,0,1.365,-0.4375,-1.295,0.022082,0.02562,-0.975024,-0.07784,0.1477,0.48874
7.54027,0,0,7.45973,7.45973,22.5403,22.5403,-2.69295,3.54619,-8.39994,0.00026992,-0.0334047,0.0349131,0,0,1.365,-0.4375,-1.295,0.022082,0.02562,-0.975024,-0.07784,0.1477,0.48874
7.5379,0,0,7.4621,7.4621,22.5379,22.5379,-2.69211,3.54594,-8.40277,0.303138,-0.213038,-0.0317241,1,0,3.9725,-0.035,-2.7125,0.326228,-0.153842,-1.04115,-0.07784,0.1477,0.48874
7.53552,0,0,7.46448,7.46448,22.5355,22.5355,-2.69126,3.54568,-8.40559,0.303143,-0.213024,-0.0317231,1,0,3.9725,-0.035,-2.7125,0.326228,-0.153842,-1.04115,-0.07784,0.1477,0.48874
7.18863,0,0,7.81137,7.81137,22.1886,22.1886,-2.56737,3.6408,-8.5264,0.0901006,-0.117925,0.0190497,0,0,3.4125,0,-3.71,0.113948,-0.061,-0.990762,-0.07784,0.1477,0.48874
6.94594,0,0,8.05406,8.05406,21.9459,21.9459,-2.48069,3.76884,-8.68405,0.113869,-0.0840465,0.0371683,0,0,2.8,0.175,-3.85,0.140056,-0.02867,-0.972706,-0.08358,0.14966,0.48888
6.71493,0,0,8.28507,8.28507,21.7149,21.7149,-2.39819,3.89496,-8.84069,0.111672,-0.0826048,0.0370825,0,0,1.3125,0.4375,-3.6225,0.140056,-0.02867,-0.972706,-0.08358,0.14966,0.48888
6.60826,0,0,8.39174,8.39174,21.6083,21.6083,-2.36009,3.69607,-8.70509,-0.184448,-0.0385965,-0.0665519,0,0,1.015,0.49,-3.185,-0.160796,0.01464,-1.0758,-0.08358,0.14966,0.48888
6.50371,0,0,8.49629,8.49629,21.5037,21.5037,-2.32275,3.50101,-8.56991,-0.18105,-0.0379553,-0.0663118,0,0,1.015,0.49,-3.185,-0.160796,0.01464,-1.0758,-0.08358,0.14966,0.48888
6.50955,0,0,8.49045,8.49045,21.5095,21.5095,-2.32484,3.5017,-8.57124,0.253978,-0.0235807,-0.103813,1,0,2.275,0.4725,-1.82,0.276086,0.029036,-1.11301,-0.08358,0.14966,0.48888
6.51563,0,0,8.48437,8.48437,21.5156,21.5156,-2.32701,3.50234,-8.57245,0.00625768,-0.365451,-0.090783,1,0,2.2225,0.4375,-1.75,0.027328,-0.312442,-1.10007,-0.08358,0.14966,0.48888
6.51941,0,0,8.48059,8.48059,21.5194,21.5194,-2.32836,3.50368,-8.57249,0.00623427,-0.365475,-0.0907854,1,0,2.6425,0.8225,-1.05,0.027328,-0.312442,-1.10007,-0.08358,0.14966,0.48888
6.53336,0,0,8.46664,8.46664,21.5334,21.5334,-2.33334,3.50432,-8.57162,0.00245718,-0.36666,-0.130379,1,0,0.5775,0.385,-0.5425,0.023546,-0.31354,-1.13936,-0.08358,0.14966,0.48888
6.54572,0,0,8.45428,8.45428,21.5457,21.5457,-2.33776,3.50419,-8.56967,0.00245945,-0.366737,-0.130382,1,0,0.8575,-0.0875,0.07,0.023546,-0.31354,-1.13936,-0.0749,0.15316,0.49798
6.55931,0,0,8.44069,8.44069,21.5593,21.5593,-2.34261,3.50366,-8.56726,0.177773,-0.229796,-0.17145,1,0,0.595,-0.3325,0.3325,0.199592,-0.176656,-1.18011,-0.0749,0.15316,0.49798
6.57319,0,0,8.42681,8.42681,21.5732,21.5732,-2.34757,3.50449,-8.56505,0.177758,-0.229882,-0.171454,1,0,0.5425,0.4725,0.245,0.199592,-0.176656,-1.18011,-0.0749,0.15316,0.49798
5.9847,0,0,9.0153,9.0153,20.9847,20.9847,-2.13739,3.47666,-8.55768,-0.014312,-0.203631,0.00183022,0,0,1.6625,0.0875,0.2275,0.006222,-0.154086,-1.00833,-0.0749,0.15316,0.49798
5.40679,0,0,9.59321,9.59321,20.4068,20.4068,-1.93099,3.44991,-8.55041,-0.013846,-0.200038,0.00198604,0,0,1.6625,0.28,0.385,0.006222,-0.154086,-1.00833,-0.0749,0.15316,0.49798
5.19108,0,0,9.80892,9.80892,20.1911,20.1911,-1.85396,3.24817,-8.40015,-0.175187,-0.0758442,0.0248585,0,0,0.42,-0.35,0.4025,-0.159332,-0.031354,-0.985882,-0.0749,0.15316,0.49798
4.9831,0,0,10.0169,10.0169,19.9831,19.9831,-1.77968,3.05041,-8.25141,-0.171741,-0.0745564,0.025089,0,0,-0.2625,-0.2975,-0.07,-0.159332,-0.031354,-0.985882,-0.0749,0.15316,0.49798
5.00263,0,0,9.99737,9.99737,20.0026,20.0026,-1.78665,3.05079,-8.24984,0.120304,0.291947,-0.05643,1,0,-0.56,0.2275,-0.14,0.133956,0.33489,-1.06677,-0.0749,0.15316,0.49798
5.01302,0,0,9.98698,9.98698,20.013,20.013,-1.79036,3.05061,-8.24787,0.120307,0.291882,-0.0564318,1,0,1.26,-0.105,0.0875,0.133956,0.33489,-1.06677,-0.07994,0.15372,0.48468
5.02449,0,0,9.97551,9.97551,20.0245,20.0245,-1.79446,3.05077,-8.24668,-0.120116,0.294009,-0.0767207,1,0,1.0675,0.105,-0.3675,-0.107482,0.337086,-1.0869,-0.07994,0.15372,0.48468
5.04128,0,0,9.95872,9.95872,20.0413,20.0413,-1.80046,3.05118,-8.24605,-0.120123,0.293904,-0.0767243,1,0,0.0175,0.2625,-0.6825,-0.107482,0.337086,-1.0869,-0.07994,0.15372,0.48468
5.24766,0,0,9.75234,9.75234,20.2477,20.2477,-1.87416,3.11816,-8.36005,0.0500048,0.0577727,0.0569396,0,0,-0.4375,0.6475,-0.805,0.064538,0.10248,-0.954162,-0.07994,0.15372,0.48468
5.45089,0,0,9.54911,9.54911,20.4509,20.4509,-1.94675,3.18244,-8.47377,0.0488846,0.0565106,0.0568358,0,0,-0.56,-0.14,-0.7,0.064538,0.10248,-0.954162,-0.07994,0.15372,0.48468
5.0785,0,0,9.9215,9.9215,20.0785,20.0785,-1.81375,2.95054,-8.28486,-0.200007,-0.130843,0.0234403,0,0,-0.5425,-0.14,-0.875,-0.189466,-0.086986,-0.98759,-0.07994,0.15372,0.48468
4.71223,0,0,10.2878,10.2878,19.7122,19.7122,-1.68294,2.72425,-8.09863,-0.196062,-0.128569,0.0237053,0,0,-0.315,0.525,-1.645,-0.189466,-0.086986,-0.98759,-0.07994,0.15372,0.48468
4.73159,0,0,10.2684,10.2684,19.7316,19.7316,-1.68985,2.72577,-8.10007,-0.294614,0.0813682,-0.0773631,1,0,-0.4375,0.945,-1.8725,-0.288408,0.122854,-1.08787,-0.07994,0.15372,0.48468
4.75033,0,0,10.2497,10.2497,19.7503,19.7503,-1.69655,2.72542,-8.10152,-0.294608,0.0812515,-0.0773663,1,0,-0.315,-0.14,-1.9075,-0.288408,0.122854,-1.08787,-0.07994,0.15372,0.48468
4.77233,0,0,10.2277,10.2277,19.7723,19.7723,-1.7044,2.72562,-8.10385,-0.210786,0.0287222,-0.0922473,1,0,-0.945,0.1925,-2.415,-0.204228,0.070516,-1.10264,-0.07784,0.14448,0.48412
4.47516,0,0,10.5248,10.5248,19.4752,19.4752,-1.59827,2.45033,-7.86011,-0.258954,-0.117086,-0.0511582,0,0,-2.7475,-0.1575,-2.835,-0.25742,-0.076982,-1.06213,-0.07784,0.14448,0.48412
4.18106,0,0,10.8189,10.8189,19.1811,19.1811,-1.49323,2.18142,-7.61805,-0.254264,-0.11526,-0.0509192,0,0,-2.2225,0.5075,-3.01,-0.25742,-0.076982,-1.06213,-0.07784,0.14448,0.48412
4.20818,0,0,10.7918,10.7918,19.2082,19.2082,-1.50292,2.18142,-7.62145,0.234594,-0.36188,-0.023752,1,0,-1.96,0.0875,-3.045,0.233508,-0.323178,-1.03517,-0.07784,0.14448,0.48412
4.23102,0,0,10.769,10.769,19.231,19.231,-1.51108,2.1817,-7.62562,0.234589,-0.362022,-0.023756,1,0,-1.085,0.2625,-3.4825,0.233508,-0.323178,-1.03517,-0.07784,0.14448,0.48412
4.25463,0,0,10.7454,10.7454,19.2546,19.2546,-1.51951,2.18165,-7.62965,0.2861,-0.175682,-0.105152,1,0,-1.2425,0.07,-3.4125,0.285236,-0.136884,-1.11593,-0.07784,0.14448,0.48412
4.27766,0,0,10.7223,10.7223,19.2777,19.2777,-1.52773,2.18222,-7.6331,0.28609,-0.175825,-0.105156,1,0,-1.1375,0.42,-3.0625,0.285236,-0.136884,-1.11593,-0.07784,0.14448,0.48412
4.30311,0,0,10.6969,10.6969,19.3031,19.3031,-1.53683,2.18254,-7.63642,-0.277488,-0.11602,-0.243846,1,0,-1.6275,0.28,-2.9925,-0.280722,-0.076982,-1.25355,-0.0805,0.15372,0.4865
4.33202,0,0,10.668,10.668,19.332,19.332,-1.54715,2.18276,-7.63845,0.0264657,-0.0598991,0.218927,1,0,-2.345,0.1925,-2.24,0.024522,-0.02074,-0.794342,-0.0805,0.15372,0.4865
4.35879,0,0,10.6412,10.6412,19.3588,19.3588,-1.55671,2.18345,-7.63932,0.0264536,-0.0600658,0.218922,1,0,-1.9425,0.455,-1.5575,0.024522,-0.02074,-0.794342,-0.0805,0.15372,0.4865
4.58425,0,0,10.4157,10.4157,19.5843,19.5843,-1.63723,1.89174,-7.40825,-0.278247,0.0745744,-0.0262185,0,0,-2.1,0.28,-0.945,-0.286578,0.115168,-1.03773,-0.0805,0.15372,0.4865
4.8036,0,0,10.1964,10.1964,19.8036,19.8036,-1.71557,1.6055,-7.17548,-0.273253,0.0732039,-0.0261061,0,0,-1.6275,0.315,-0.245,-0.286578,0.115168,-1.03773,-0.0805,0.15372,0.4865
4.83221,0,0,10.1678,10.1678,19.8322,19.8322,-1.72579,1.60625,-7.17338,0.255925,-0.194798,-0.161232,1,0,-2.3625,0.4375,0.175,0.244854,-0.152378,-1.17181,-0.0805,0.15372,0.4865
4.8644,0,0,10.1356,10.1356,19.8644,19.8644,-1.73728,1.60689,-7.17011,0.255914,-0.194999,-0.161239,1,0,-3.0975,0.35,0.8575,0.244854,-0.152378,-1.17181,-0.0805,0.15372,0.4865
4.90223,0,0,10.0978,10.0978,19.9022,19.9022,-1.75079,1.60793,-7.16634,-0.0542571,0.00737399,-0.123009,1,0,-4.235,0.5775,1.155,-0.066612,0.05002,-1.13387,-0.0805,0.15372,0.4865
4.94262,0,0,10.0574,10.0574,19.9426,19.9426,-1.76522,1.60852,-7.16178,-0.0542673,0.00712245,-0.123017,1,0,-4.76,0.2975,1.61,-0.066612,0.05002,-1.13387,-0.07266,0.14434,0.4788
5.51552,0,0,9.48448,9.48448,20.5155,20.5155,-1.96983,1.70192,-7.2785,0.0793167,0.177709,0.0443981,0,0,-4.6375,0.0875,1.7675,0.069174,0.223992,-0.967582,-0.07266,0.14434,0.4788
6.07991,0,0,8.92009,8.92009,21.0799,21.0799,-2.17139,1.79358,-7.39655,0.0777178,0.174197,0.0442223,0,0,-4.935,0.14,1.2425,0.069174,0.223992,-0.967582,-0.07266,0.14434,0.4788
6.2233,0,0,8.7767,8.7767,21.2233,21.2233,-2.22261,1.94436,-7.54511,0.115299,0.027488,0.100659,0,0,-4.515,4.3925,1.0675,0.109556,0.078324,-0.911462,-0.07266,0.14434,0.4788
6.36413,0,0,8.63587,8.63587,21.3641,21.3641,-2.2729,2.09227,-7.69363,0.112719,0.0266149,0.100533,0,0,-4.515,4.3925,1.0675,0.109556,0.078324,-0.911462,-0.07266,0.14434,0.4788
6.19042,0,0,8.80958,8.80958,21.1904,21.1904,-2.21086,1.71969,-7.35455,-0.342913,-0.0745322,0.0185392,0,0,-4.305,-4.375,0.105,-0.354532,-0.02379,-0.99308,-0.07266,0.14434,0.4788
6.02019,0,0,8.97981,8.97981,21.0202,21.0202,-2.15007,1.35382,-7.01652,-0.33653,-0.0734788,0.0187507,0,0,-4.305,-4.375,0.105,-0.354532,-0.02379,-0.99308,-0.07266,0.14434,0.4788
6.05178,0,0,8.94822,8.94822,21.0518,21.0518,-2.16135,1.36109,-7.018,0.182695,-0.142189,-0.219903,1,0,-2.905,4.3225,-1.7675,0.167018,-0.092232,-1.22988,-0.07266,0.14434,0.4788
6.08336,0,0,8.91664,8.91664,21.0834,21.0834,-2.17263,1.36836,-7.01949,0.182568,-0.142385,-0.219913,1,0,-2.905,4.3225,-1.7675,0.167018,-0.092232,-1.22988,-0.08316,0.14882,0.47698
5.67464,0,0,9.32536,9.32536,20.6746,20.6746,-2.02666,1.53576,-7.16483,0.136763,-0.142768,0.104813,0,0,-2.03,0.3675,-3.29,0.123952,-0.09516,-0.90768,-0.08316,0.14882,0.47698
5.273,0,0,9.727,9.727,20.273,20.273,-1.88321,1.70001,-7.30911,0.133897,-0.140264,0.104818,0,0,-2.03,0.3675,-3.29,0.123952,-0.09516,-0.90768,-0.08316,0.14882,0.47698
5.36197,0,0,9.63803,9.63803,20.362,20.362,-1.91499,1.44396,-7.0945,-0.248203,0.0191635,-0.0626571,0,0,-6.0725,0.105,-4.41,-0.264252,0.06466,-1.07397,-0.08316,0.14882,0.47698
5.44962,0,0,9.55038,9.55038,20.4496,20.4496,-1.94629,1.19273,-6.87994,-0.243819,0.0186142,-0.0625746,0,0,-6.0725,0.105,-4.41,-0.264252,0.06466,-1.07397,-0.08316,0.14882,0.47698
5.49665,0,0,9.50335,9.50335,20.4966,20.4966,-1.96309,1.19376,-6.88572,0.298232,-0.18099,0.224008,1,0,-5.95,0.7525,-4.41,0.280112,-0.134444,-0.789584,-0.08316,0.14882,0.47698
5.54368,0,0,9.45632,9.45632,20.5437,20.5437,-1.97989,1.19479,-6.8915,0.298214,-0.181282,0.223997,1,0,-5.95,0.7525,-4.41,0.280112,-0.134444,-0.789584,-0.08316,0.14882,0.47698
4.68676,0,0,10.3132,10.3132,19.6868,19.6868,-1.67384,1.08578,-6.76071,-0.0930117,-0.301492,0.0716265,0,0,-4.34,0.56,-4.34,-0.11468,-0.25986,-0.940986,-0.08316,0.14882,0.47698
4.7289,0,0,10.2711,10.2711,19.7289,19.7289,-1.68889,1.08621,-6.76542,-0.0392011,-0.0879108,0.228747,1,0,-4.9875,0.3675,-3.7975,-0.060634,-0.046238,-0.78507,-0.08316,0.14882,0.47698
4.77756,0,0,10.2224,10.2224,19.7776,19.7776,-1.70627,1.08696,-6.76956,-0.0392141,-0.0882139,0.228738,1,0,-6.3,0.5425,-3.465,-0.060634,-0.046238,-0.78507,-0.07882,0.14714,0.48188
4.3572,0,0,10.6428,10.6428,19.3572,19.3572,-1.55614,1.06811,-6.73513,-0.0162889,-0.169008,-0.0349062,0,0,-6.6675,0.5775,-2.9925,-0.037942,-0.129564,-1.04676,-0.07882,0.14714,0.48188
3.94298,0,0,11.057,11.057,18.943,18.943,-1.40821,1.05025,-6.69898,-0.0159772,-0.166427,-0.0348337,0,0,-6.4225,0.8925,-1.8375,-0.037942,-0.129564,-1.04676,-0.07882,0.14714,0.48188
3.22445,0,0,11.7755,11.7755,18.2245,18.2245,-1.15159,1.07184,-6.68531,0.0182695,-0.249637,0.099888,0,0,-6.7725,0.07,-1.4175,-0.003172,-0.21716,-0.91317,-0.07882,0.14714,0.48188
2.51608,0,0,12.4839,12.4839,17.5161,17.5161,-0.898599,1.09444,-6.67072,0.0178751,-0.245223,0.0999595,0,0,-6.335,0.875,-0.84,-0.003172,-0.21716,-0.91317,-0.07882,0.14714,0.48188
2.56325,0,0,12.4367,12.4367,17.5633,17.5633,-0.915447,1.09511,-6.66993,-0.0487107,0.0324433,0.157126,1,0,-6.055,0.42,-0.595,-0.070028,0.060512,-0.85644,-0.07882,0.14714,0.48188
2.60656,0,0,12.3934,12.3934,17.6066,17.6066,-0.930915,1.0956,-6.66722,-0.0487193,0.0321734,0.157121,1,0,-5.3025,0.2975,0.525,-0.070028,0.060512,-0.85644,-0.07882,0.14714,0.48188
2.64512,0,0,12.3549,12.3549,17.6451,17.6451,-0.944687,1.09551,-6.6639,0.156472,0.255059,0.177281,1,0,-4.3575,-0.0525,0.875,0.13603,0.283406,-0.836432,-0.07882,0.14714,0.48188
2.68953,0,0,12.3105,12.3105,17.6895,17.6895,-0.960545,1.09679,-6.66034,0.156449,0.254782,0.177276,1,0,-5.53,0.7525,1.0325,0.13603,0.283406,-0.836432,-0.07742,0.15344,0.4795
2.83373,0,0,12.1663,12.1663,17.8337,17.8337,-1.01205,1.388,-6.93534,0.276377,0.0341793,-0.0200592,0,0,-5.075,0.4375,1.4525,0.261568,0.063928,-1.03212,-0.07742,0.15344,0.4795
2.98451,0,0,12.0155,12.0155,17.9845,17.9845,-1.0659,1.67215,-7.21004,0.271419,0.0332424,-0.0202087,0,0,-6.8775,-0.455,1.4525,0.261568,0.063928,-1.03212,-0.07742,0.15344,0.4795
3.37261,0,0,11.6274,11.6274,18.3726,18.3726,-1.2045,1.4604,-7.04711,-0.186289,0.109716,0.0659084,0,0,-7.8225,-0.0875,1.1375,-0.201788,0.14274,-0.94672,-0.07742,0.15344,0.4795
3.75958,0,0,11.2404,11.2404,18.7596,18.7596,-1.34271,1.25324,-6.88397,-0.182675,0.107304,0.0659404,0,0,-8.9075,0.2975,0.875,-0.201788,0.14274,-0.94672,-0.07742,0.15344,0.4795
3.81748,0,0,11.1825,11.1825,18.8175,18.8175,-1.36339,1.25283,-6.88013,-0.00226115,0.279752,-0.176522,1,0,-8.2425,-0.2625,1.1725,-0.020618,0.31537,-1.1873,-0.07742,0.15344,0.4795
3.87295,0,0,11.1271,11.1271,18.8729,18.8729,-1.3832,1.25387,-6.87786,-0.00227931,0.279407,-0.176531,1,0,-7.735,0.6125,0.28,-0.020618,0.31537,-1.1873,-0.07742,0.15344,0.4795
3.92393,0,0,11.0761,11.0761,18.9239,18.9239,-1.4014,1.25515,-6.87658,0.378799,0.0338587,-0.065025,1,0,-6.825,0.77,-0.2975,0.362096,0.070394,-1.07665,-0.07742,0.15344,0.4795
3.97558,0,0,11.0244,11.0244,18.9756,18.9756,-1.41985,1.25765,-6.87612,0.378755,0.033537,-0.0650339,1,0,-6.9475,1.4875,-0.7525,0.362096,0.070394,-1.07665,-0.07924,0.14434,0.476
4.02472,0,0,10.9753,10.9753,19.0247,19.0247,-1.4374,1.25896,-6.87622,0.451138,-0.318494,-0.112869,1,0,-6.44,0.805,-1.1025,0.434808,-0.280966,-1.12411,-0.07924,0.14434,0.476
4.08731,0,0,10.9127,10.9127,19.0873,19.0873,-1.45975,1.2594,-6.87754,0.45113,-0.318884,-0.112879,1,0,-9.1175,0.315,-1.82,0.434808,-0.280966,-1.12411,-0.07924,0.14434,0.476
5.2105,0,0,9.7895,9.7895,20.2105,20.2105,-1.86089,1.40609,-7.06529,0.126998,0.362061,0.0963629,0,0,-9.345,0.28,-2.52,0.111874,0.40626,-0.91622,-0.07924,0.14434,0.476
6.32114,0,0,8.67886,8.67886,21.3211,21.3211,-2.25755,1.55232,-7.25585,0.124447,0.355147,0.0960483,0,0,-10.465,1.61,-3.0975,0.111874,0.40626,-0.91622,-0.07924,0.14434,0.476
6.73228,0,0,8.26772,8.26772,21.7323,21.7323,-2.40438,1.44865,-7.18566,-0.0959418,0.118469,0.0391893,0,0,-8.0675,0.735,-3.22,-0.111264,0.172386,-0.972584,-0.07924,0.14434,0.476
7.14084,0,0,7.85916,7.85916,22.1408,22.1408,-2.5503,1.34743,-7.1166,-0.0941757,0.115923,0.0391223,0,0,-8.9775,1.085,-4.095,-0.111264,0.172386,-0.972584,-0.07924,0.14434,0.476
7.19444,0,0,7.80556,7.80556,22.1944,22.1944,-2.56944,1.34842,-7.12191,-0.126994,0.100446,0.209022,1,0,-7.2625,0.7525,-4.13,-0.144204,0.157258,-0.80398,-0.07924,0.14434,0.476
7.24657,0,0,7.75343,7.75343,22.2466,22.2466,-2.58806,1.34852,-7.12755,-0.126996,0.100121,0.209007,1,0,-6.965,0.245,-4.34,-0.144204,0.157258,-0.80398,-0.08036,0.14966,0.47964
7.298,0,0,7.702,7.702,22.298,22.298,-2.60643,1.34949,-7.13322,0.052786,0.0748874,0.219443,1,0,-6.825,0.7525,-4.34,0.036356,0.13237,-0.79361,-0.08036,0.14966,0.47964
7.35139,0,0,7.64861,7.64861,22.3514,22.3514,-2.6255,1.34954,-7.13933,0.0527851,0.0745551,0.219428,1,0,-7.21,0.2275,-4.62,0.036356,0.13237,-0.79361,-0.08036,0.14966,0.47964
8.06386,0,0,6.93614,6.93614,23.0639,23.0639,-2.87995,1.28175,-7.12265,-0.0687326,0.237311,-0.00268049,0,0,-8.295,0.07,-4.3225,-0.086864,0.299388,-1.01382,-0.08036,0.14966,0.47964
8.76402,0,0,6.23598,6.23598,23.764,23.764,-3.13001,1.2151,-7.10553,-0.0675695,0.232952,-0.00288392,0,0,-8.295,0.07,-4.3225,-0.086864,0.299388,-1.01382,-0.08036,0.14966,0.47964
9.28036,0,0,5.71964,5.71964,24.2804,24.2804,-3.31441,1.35971,-7.27528,0.142386,0.170755,-0.0370552,0,0,-8.7675,0.3325,-2.625,0.126514,0.240462,-1.04749,-0.08036,0.14966,0.47964
9.78784,0,0,5.21216,5.21216,24.7878,24.7878,-3.49566,1.50159,-7.44564,0.13991,0.167602,-0.0373047,0,0,-8.7675,0.3325,-2.625,0.126514,0.240462,-1.04749,-0.08036,0.14966,0.47964
9.85926,0,0,5.14074,5.14074,24.8593,24.8593,-3.52116,1.50289,-7.44681,0.264653,-0.318662,-0.09352,1,0,-10.885,0.84,-1.6975,0.251808,-0.244854,-1.10325,-0.08036,0.14966,0.47964
9.93068,0,0,5.06932,5.06932,24.9307,24.9307,-3.54667,1.5042,-7.44799,0.26463,-0.319106,-0.093548,1,0,-10.885,0.84,-1.6975,0.251808,-0.244854,-1.10325,-0.07812,0.1428,0.4774
9.99227,0,0,5.00773,5.00773,24.9923,24.9923,-3.56867,1.50527,-7.44608,0.193057,0.0156265,0.160808,1,0,-8.96,0.595,0.0875,0.17995,0.089914,-0.850828,-0.07812,0.1428,0.4774
10.0539,0,0,5,5,25.0539,25.0539,-3.59066,1.50635,-7.44418,0.193038,0.0152436,0.160784,1,0,-8.96,0.595,0.0875,0.17995,0.089914,-0.850828,-0.07812,0.1428,0.4774
10.1135,0,0,5,5,25.1135,25.1135,-3.61198,1.50723,-7.44025,-0.1899,0.0147503,0.345674,1,0,-8.61,0.4025,1.26,-0.204594,0.089792,-0.66734,-0.07812,0.1428,0.4774
10.8266,0,0,5,5,25.8266,25.8266,-3.86663,1.57235,-7.53696,0.063719,0.246512,-0.0296387,0,0,-8.9425,0.4725,1.575,0.05124,0.32574,-1.03944,-0.07812,0.1428,0.4774
11.5338,0,0,5,5,26.5338,26.5338,-4.11922,1.63527,-7.63303,0.0626212,0.242118,-0.0299762,0,0,-10.255,-0.14,2.17,0.05124,0.32574,-1.03944,-0.07812,0.1428,0.4774
11.4256,0,0,5,5,26.4256,26.4256,-4.08059,1.51407,-7.51029,-0.122717,-0.0621644,-0.0774511,0,0,-10.9375,0.665,1.82,-0.137006,0.021106,-1.08665,-0.07812,0.1428,0.4774
11.3169,0,0,5,5,26.3169,26.3169,-4.04176,1.39406,-7.38849,-0.120623,-0.0614924,-0.0773501,0,0,-10.4125,0.07,1.435,-0.137006,0.021106,-1.08665,-0.07812,0.1428,0.4774
11.3855,0,0,5,5,26.3855,26.3855,-4.06626,1.39535,-7.38426,-0.106188,-0.157666,-0.173527,1,0,-10.395,0.6125,1.4525,-0.122488,-0.074542,-1.18206,-0.07938,0.14728,0.47488
11.0644,0,0,5,5,26.0644,26.0644,-3.95157,1.65266,-7.61929,0.253293,-0.143693,0.00304814,0,0,-10.4825,0.4025,0.2625,0.243024,-0.062586,-1.00687,-0.07938,0.14728,0.47488
10.7515,0,0,5,5,25.7515,25.7515,-3.83981,1.90493,-7.85482,0.248892,-0.141739,0.00304425,0,0,-11.025,0.245,-0.91,0.243024,-0.062586,-1.00687,-0.07938,0.14728,0.47488
10.4895,0,0,5,5,25.4895,25.4895,-3.74626,1.69564,-7.6564,-0.209467,-0.122043,-0.0631255,0,0,-11.4625,0.945,-1.435,-0.220942,-0.04453,-1.07275,-0.07938,0.14728,0.47488
10.2259,0,0,5,5,25.2259,25.2259,-3.65209,1.48988,-7.46062,-0.205877,-0.12041,-0.0629199,0,0,-10.1325,0.805,-2.415,-0.220942,-0.04453,-1.07275,-0.07938,0.14728,0.47488
10.2986,0,0,5,5,25.2986,25.2986,-3.67807,1.49214,-7.46423,0.106909,-0.446941,-0.0909821,1,0,-11.1125,1.4875,-3.08,0.093208,-0.37027,-1.10056,-0.07938,0.14728,0.47488
10.3645,0,0,5,5,25.3645,25.3645,-3.70162,1.49345,-7.46935,0.106886,-0.447351,-0.0910092,1,0,-9.73,0.9975,-3.99,0.093208,-0.37027,-1.10056,-0.07938,0.14728,0.47488
10.4313,0,0,5,5,25.4313,25.4313,-3.72548,1.49373,-7.4744,0.191436,-0.222198,-0.230952,1,0,-9.905,0.385,-3.99,0.17812,-0.144936,-1.2394,-0.07938,0.14728,0.47488
10.5015,0,0,5,5,25.5015,25.5015,-3.75054,1.49357,-7.47996,0.191438,-0.222635,-0.23098,1,0,-10.57,0.1575,-4.305,0.17812,-0.144936,-1.2394,-0.08134,0.154,0.48468
10.575,0,0,5,5,25.575,25.575,-3.7768,1.49362,-7.48602,-0.0272367,0.0211617,-0.111627,1,0,-11.235,0.2975,-4.585,-0.04148,0.099064,-1.12094,-0.08134,0.154,0.48468
10.6526,0,0,5,5,25.6526,25.6526,-3.80452,1.49386,-7.49152,-0.0272407,0.0206793,-0.111659,1,0,-12.0575,0.385,-4.2525,-0.04148,0.099064,-1.12094,-0.08134,0.154,0.48468
10.7348,0,0,5,5,25.7348,25.7348,-3.83386,1.49452,-7.49723,0.0658057,-0.129192,0.451288,1,0,-12.9675,0.6475,-4.3575,0.051972,-0.050142,-0.562298,-0.08134,0.154,0.48468
10.816,0,0,5,5,25.816,25.816,-3.86286,1.49424,-7.50191,0.0658106,-0.129697,0.451254,1,0,-12.7925,0.0525,-3.7975,0.051972,-0.050142,-0.562298,-0.08134,0.154,0.48468
10.9038,0,0,5,5,25.9038,25.9038,-3.89422,1.49509,-7.50619,-0.442014,-0.230631,-0.0357827,1,0,-14.1225,0.7,-3.5175,-0.457988,-0.150426,-1.04554,-0.08134,0.154,0.48468
10.9772,0,0,5,5,25.9772,25.9772,-3.92043,1.49568,-7.50895,-0.442025,-0.231088,-0.0358141,1,0,-11.2525,0.49,-2.6425,-0.457988,-0.150426,-1.04554,-0.08134,0.154,0.48468
11.0546,0,0,5,5,26.0546,26.0546,-3.94808,1.49708,-7.51077,0.214946,-0.307776,-0.424365,1,0,-12.075,0.9275,-2.065,0.201788,-0.226554,-1.43106,-0.08134,0.154,0.48468
11.1288,0,0,5,5,26.1288,26.1288,-3.97459,1.49851,-7.51209,0.21492,-0.308237,-0.424398,1,0,-11.445,0.9275,-1.7675,0.201788,-0.226554,-1.43106,-0.08134,0.154,0.48468
11.2072,0,0,5,5,26.2072,26.2072,-4.00258,1.49906,-7.51283,0.155626,-0.419005,-0.469923,1,0,-12.285,0.385,-1.47,0.142252,-0.33672,-1.4762,-0.08414,0.15834,0.4928
11.2936,0,0,5,5,26.2936,26.2936,-4.03344,1.49981,-7.51331,-0.107768,-0.384003,0.212157,1,0,-13.895,0.49,-1.3125,-0.122244,-0.301218,-0.799344,-0.08414,0.15834,0.4928
11.372,0,0,5,5,26.372,26.372,-4.06144,1.50071,-7.51318,-0.107784,-0.38449,0.212122,1,0,-12.3025,0.56,-0.945,-0.122244,-0.301218,-0.799344,-0.08414,0.15834,0.4928
11.4522,0,0,5,5,26.4522,26.4522,-4.09008,1.50017,-7.51237,0.110049,-0.439457,-0.145816,1,0,-12.67,-0.315,-0.6125,0.096502,-0.35563,-1.15449,-0.08414,0.15834,0.4928
11.5317,0,0,5,5,26.5317,26.5317,-4.11847,1.50108,-7.51143,0.110034,-0.439951,-0.145852,1,0,-12.53,0.525,-0.4725,0.096502,-0.35563,-1.15449,-0.08414,0.15834,0.4928
11.1224,0,0,5,5,26.1224,26.1224,-3.97229,1.48319,-7.49817,-0.0113829,-0.181552,-0.0728783,0,0,-13.4575,0.35,-0.5425,-0.025742,-0.10004,-1.08226,-0.08414,0.15834,0.4928
10.7312,0,0,5,5,25.7312,25.7312,-3.83257,1.46676,-7.48491,-0.0110964,-0.179121,-0.072705,0,0,-15.645,0.9625,-0.4025,-0.025742,-0.10004,-1.08226,-0.08414,0.15834,0.4928
10.8331,0,0,5,5,25.8331,25.8331,-3.86895,1.4684,-7.4758,0.239379,-0.201248,-0.192869,1,0,-17.1325,0.63,4.305,0.225822,-0.121512,-1.20146,-0.08246,0.1673,0.49266
11.966,0,0,5,5,26.966,26.966,-4.27355,1.59453,-7.67223,0.0934603,0.324187,0.155991,0,0,-18.3575,0.42,0.105,0.081496,0.410408,-0.854732,-0.08246,0.1673,0.49266
13.0815,0,0,5,5,28.0815,28.0815,-4.67198,1.71945,-7.86977,0.0912811,0.317262,0.155386,0,0,-18.5675,1.1025,0.5075,0.081496,0.410408,-0.854732,-0.08246,0.1673,0.49266
12.9043,0,0,5,5,27.9043,27.9043,-4.60869,1.90592,-8.07868,0.183637,-0.0996687,0.0112769,0,0,-16.205,0.5425,0.7,0.17751,-0.007198,-0.997716,-0.08246,0.1673,0.49266
12.7309,0,0,5,5,27.7309,27.7309,-4.54675,2.09043,-8.28765,0.180419,-0.0985829,0.0112512,0,0,-16.3625,1.4,0.21,0.17751,-0.007198,-0.997716,-0.08246,0.1673,0.49266
12.3454,0,0,5,5,27.3454,27.3454,-4.40908,2.24701,-8.46323,0.172829,-0.179594,-0.0673515,0,0,-15.645,1.5575,-0.5425,0.17263,-0.090524,-1.0758,-0.08246,0.1673,0.49266
11.9616,0,0,5,5,26.9616,26.9616,-4.272,2.4006,-8.63794,0.17015,-0.177202,-0.0672789,0,0,-14.6825,1.4175,-0.7,0.17263,-0.090524,-1.0758,-0.08246,0.1673,0.49266
12.0463,0,0,5,5,27.0463,27.0463,-4.30226,2.40261,-8.6387,0.0033154,0.00680575,-0.322438,1,0,-13.545,1.2425,-1.4175,0.005124,0.093818,-1.32895,-0.08246,0.1673,0.49266
12.131,0,0,5,5,27.131,27.131,-4.33251,2.40462,-8.63947,0.00328036,0.00627978,-0.322479,1,0,-13.545,1.2425,-1.4175,0.005124,0.093818,-1.32895,-0.0805,0.16842,0.48874
12.1909,0,0,5,5,27.1909,27.1909,-4.35389,2.39438,-8.68864,-0.0136706,-0.0175409,0.0888857,0,0,-14.9975,1.26,-2.8875,-0.012078,0.070394,-0.920734,-0.0805,0.16842,0.48874
12.2497,0,0,5,5,27.2497,27.2497,-4.3749,2.38431,-8.73774,-0.0134951,-0.0179067,0.0888652,0,0,-14.9975,1.26,-2.8875,-0.012078,0.070394,-0.920734,-0.0805,0.16842,0.48874
12.363,0,0,5,5,27.363,27.363,-4.41534,2.38374,-8.744,0.165706,0.00923501,0.367044,1,0,-19.1275,-0.0175,-4.725,0.167872,0.09821,-0.644648,-0.0805,0.16842,0.48874
12.4762,0,0,5,5,27.4762,27.4762,-4.45578,2.38317,-8.75026,0.165716,0.00853189,0.36699,1,0,-19.1275,-0.0175,-4.725,0.167872,0.09821,-0.644648,-0.0805,0.16842,0.48874
12.6859,0,0,5,5,27.6859,27.6859,-4.53069,2.6165,-9.04175,0.245959,0.0343558,-0.0553718,0,0,-21.49,0.945,-5.1625,0.25254,0.125294,-1.06347,-0.0805,0.16842,0.48874
12.8036,0,0,5,5,27.8036,27.8036,-4.57272,2.61759,-9.04803,-0.0105165,-0.143458,-0.105471,1,0,-20.0025,0.9625,-4.655,-0.005002,-0.051606,-1.11313,-0.0805,0.16842,0.48874
12.9209,0,0,5,5,27.9209,27.9209,-4.6146,2.61887,-9.05447,-0.0105388,-0.144186,-0.10553,1,0,-19.915,1.085,-4.7425,-0.005002,-0.051606,-1.11313,-0.0805,0.16842,0.48874
12.6762,0,0,5,5,27.6762,27.6762,-4.5272,2.96187,-9.42861,0.370535,-0.143011,-0.0145945,0,0,-20.79,1.4875,-4.3575,0.38369,-0.051972,-1.02273,-0.0812,0.16926,0.4907
11.8572,0,0,5,5,26.8572,26.8572,-4.23471,2.89587,-9.38483,-0.0423376,-0.348478,-0.0234905,0,0,-22.26,0.5425,-2.73,-0.032086,-0.2623,-1.032,-0.0812,0.16926,0.4907
11.0494,0,0,5,5,26.0494,26.0494,-3.94622,2.83172,-9.34084,-0.0412193,-0.343466,-0.023076,0,0,-21.7525,0.6475,-2.0475,-0.032086,-0.2623,-1.032,-0.0812,0.16926,0.4907
11.1716,0,0,5,5,26.1716,26.1716,-3.98985,2.83317,-9.34246,0.301345,-0.331646,-0.312305,1,0,-21.0175,0.945,-1.9425,0.311954,-0.249734,-1.31894,-0.0812,0.16926,0.4907
11.2831,0,0,5,5,26.2831,26.2831,-4.02968,2.83482,-9.34231,0.301316,-0.332338,-0.312355,1,0,-18.935,0.9975,-0.91,0.311954,-0.249734,-1.31894,-0.0812,0.16926,0.4907
11.0124,0,0,5,5,26.0124,26.0124,-3.933,2.44291,-9.00942,-0.364153,-0.137718,0.068725,0,0,-19.915,0.7175,-0.525,-0.363194,-0.056974,-0.94123,-0.0812,0.16926,0.4907
10.7606,0,0,5,5,25.7606,25.7606,-3.84308,2.05785,-8.67853,-0.357437,-0.136172,0.0690947,0,0,-22.6625,0.6825,-0.6825,-0.363194,-0.056974,-0.94123,-0.0812,0.16926,0.4907
10.9015,0,0,5,5,25.9015,25.9015,-3.89341,2.05884,-8.67795,-0.0646741,0.0916959,0.132722,1,0,-24.8325,0.595,-0.6825,-0.069174,0.171532,-0.878034,-0.0812,0.16926,0.4907
11.0507,0,0,5,5,26.0507,26.0507,-3.94668,2.05876,-8.67663,-0.0646726,0.0907688,0.132659,1,0,-26.495,-0.07,-0.2975,-0.069174,0.171532,-0.878034,-0.07952,0.17584,0.49546
11.199,0,0,5,5,26.199,26.199,-3.99965,2.05851,-8.67539,0.0238948,0.00264875,-0.099532,1,0,-26.32,-0.1575,-0.35,0.019764,0.084424,-1.10837,-0.07952,0.17584,0.49546
11.3507,0,0,5,5,26.3507,26.3507,-4.05381,2.05948,-8.6761,0.0238779,0.0017065,-0.0995989,1,0,-26.95,0.63,-1.435,0.019764,0.084424,-1.10837,-0.07952,0.17584,0.49546
11.5017,0,0,5,5,26.5017,26.5017,-4.10775,2.06158,-8.6769,0.0531193,-0.239333,-0.449456,1,0,-26.8275,1.295,-1.435,0.049166,-0.155428,-1.45546,-0.07952,0.17584,0.49546
11.6509,0,0,5,5,26.6509,26.6509,-4.16104,2.06353,-8.67774,0.0530854,-0.24026,-0.449524,1,0,-26.46,1.2075,-1.47,0.049166,-0.155428,-1.45546,-0.07952,0.17584,0.49546
11.8016,0,0,5,5,26.8016,26.8016,-4.21485,2.06542,-8.67849,0.227749,-0.231304,-0.244761,1,0,-26.7575,1.1725,-1.4175,0.224602,-0.145546,-1.25221,-0.07952,0.17584,0.49546
11.9609,0,0,5,5,26.9609,26.9609,-4.27174,2.06784,-8.68052,0.227706,-0.232293,-0.244836,1,0,-28.455,1.54,-2.135,0.224602,-0.145546,-1.25221,-0.07952,0.17584,0.49546
11.5689,0,0,5,5,26.5689,26.5689,-4.13174,2.22195,-8.86343,0.168163,-0.204937,-0.0334094,0,0,-28.595,2.1525,-1.75,0.167506,-0.120658,-1.04249,-0.07952,0.17584,0.49546
11.1695,0,0,5,5,26.1695,26.1695,-3.9891,2.37082,-9.04783,0.165567,-0.202448,-0.0333371,0,0,-25.9525,1.155,-0.7175,0.167506,-0.120658,-1.04249,-0.07826,0.17864,0.48874
11.2211,0,0,5,5,26.2211,26.2211,-4.00754,2.33937,-9.08292,-0.0303267,-0.034602,0.0152276,0,0,-26.04,1.505,-0.56,-0.029768,0.047336,-0.9943,-0.07826,0.17864,0.48874
11.2907,0,0,5,5,26.2907,26.2907,-4.03238,2.30883,-9.11868,-0.029794,-0.0350356,0.0152188,0,0,-29.785,1.7325,-0.9625,-0.029768,0.047336,-0.9943,-0.07826,0.17864,0.48874
11.3418,0,0,5,5,26.3418,26.3418,-4.05066,2.2648,-9.14123,-0.0414178,-0.044271,0.0801438,0,0,-30.3975,1.4875,-1.4,-0.042212,0.03843,-0.929884,-0.07826,0.17864,0.48874
11.4045,0,0,5,5,26.4045,26.4045,-4.07304,2.21975,-9.16481,-0.0406321,-0.0446626,0.0801468,0,0,-32.8475,0.455,-2.0825,-0.042212,0.03843,-0.929884,-0.07826,0.17864,0.48874
11.4307,0,0,5,5,26.4307,26.4307,-4.08239,1.96823,-8.98873,-0.229772,-0.0570493,0.066402,0,0,-32.9875,0.735,-3.255,-0.236558,0.02623,-0.94367,-0.07826,0.17864,0.48874
11.4516,0,0,5,5,26.4516,26.4516,-4.08986,1.72265,-8.81322,-0.225488,-0.0571891,0.0665304,0,0,-31.9725,1.505,-3.2725,-0.236558,0.02623,-0.94367,-0.07826,0.17864,0.48874
11.0114,0,0,5,5,26.0114,26.0114,-3.93265,1.99917,-9.11037,0.288311,-0.228839,0.0223045,0,0,-30.9925,1.365,-3.2725,0.28426,-0.147986,-0.98759,-0.07826,0.17864,0.48874
10.578,0,0,5,5,25.578,25.578,-3.77787,2.27095,-9.40499,0.283571,-0.226134,0.0223097,0,0,-30.9925,1.365,-3.2725,0.28426,-0.147986,-0.98759,-0.07826,0.17864,0.48874
10.7672,0,0,5,5,25.7672,25.7672,-3.84542,2.27386,-9.41196,0.164585,-0.209967,0.151571,1,0,-34.3175,2.0125,-5.005,0.164822,-0.130662,-0.859246,-0.07952,0.18228,0.48468
10.9574,0,0,5,5,25.9574,25.9574,-3.91337,2.27567,-9.41893,-0.0264216,-0.0634985,-0.403992,1,0,-34.545,1.365,-5.04,-0.026962,0.016836,-1.41044,-0.07952,0.18228,0.48468
11.158,0,0,5,5,26.158,26.158,-3.98499,2.27676,-9.42605,-0.0264407,-0.0647444,-0.404078,1,0,-36.5925,0.9625,-5.1625,-0.026962,0.016836,-1.41044,-0.07952,0.18228,0.48468
11.3597,0,0,5,5,26.3597,26.3597,-4.05703,2.27863,-9.43227,-0.071423,-0.125718,-0.190729,1,0,-36.855,1.3825,-4.6025,-0.072102,-0.042822,-1.19865,-0.07952,0.18228,0.48468
11.5614,0,0,5,5,26.5614,26.5614,-4.12908,2.28049,-9.4385,-0.0714555,-0.126971,-0.19082,1,0,-36.855,1.3825,-4.6025,-0.072102,-0.042822,-1.19865,-0.07952,0.18228,0.48468
11.5513,0,0,5,5,26.5513,26.5513,-4.12546,2.32603,-9.5486,0.0573756,-0.0732918,-0.0886773,0,0,-35.385,0.1225,-1.4175,0.058072,0.010736,-1.09727,-0.07952,0.18228,0.48468
11.5413,0,0,5,5,26.5413,26.5413,-4.12188,2.37071,-9.65839,0.0565965,-0.0732273,-0.0887046,0,0,-35.385,0.1225,-1.4175,0.058072,0.010736,-1.09727,-0.07952,0.18228,0.48468
10.4875,0,0,5,5,25.4875,25.4875,-3.74554,2.32676,-9.62099,-0.0143137,-0.46396,0.0393975,0,0,-38.0975,2.345,-0.77,-0.013908,-0.38613,-0.970632,-0.07742,0.1799,0.47992
10.7069,0,0,5,5,25.7069,25.7069,-3.8239,2.32927,-9.62108,-0.00816168,0.237638,-0.0799545,1,0,-40.53,1.505,-1.015,-0.007686,0.316102,-1.08897,-0.07742,0.1799,0.47992
10.9263,0,0,5,5,25.9263,25.9263,-3.90226,2.33178,-9.62117,-0.00820543,0.236275,-0.0800484,1,0,-40.53,1.505,-1.015,-0.007686,0.316102,-1.08897,-0.07742,0.1799,0.47992
12.3749,0,0,5,5,27.3749,27.3749,-4.41961,2.40931,-9.81603,0.0395227,0.438926,0.0858364,0,0,-44.38,1.365,-1.05,0.041602,0.527528,-0.923662,-0.07742,0.1799,0.47992
11.7477,0,0,5,5,26.7477,26.7477,-4.1956,2.48624,-9.91896,0.100625,-0.31375,-0.0109337,0,0,-41.195,1.2075,-0.84,0.10431,-0.228262,-1.01992,-0.07742,0.1799,0.47992
11.1223,0,0,5,5,26.1223,26.1223,-3.97226,2.56435,-10.0228,0.0992629,-0.309861,-0.0107163,0,0,-39.4625,2.6075,-1.785,0.10431,-0.228262,-1.01992,-0.07742,0.1799,0.47992
11.3445,0,0,5,5,26.3445,26.3445,-4.05162,2.57018,-10.0264,-0.0726194,-0.36803,-0.168069,1,0,-41.0025,3.5875,-2.9225,-0.068198,-0.284992,-1.17596,-0.07742,0.1799,0.47992
11.5809,0,0,5,5,26.5809,26.5809,-4.13603,2.57358,-10.0299,-0.0726787,-0.369498,-0.168177,1,0,-43.8375,2.17,-2.975,-0.068198,-0.284992,-1.17596,-0.07742,0.1799,0.47992
11.7826,0,0,5,5,26.7826,26.7826,-4.20809,2.40089,-9.93604,-0.176818,-0.0126846,-0.0727294,0,0,-46.0775,1.1025,-3.3425,-0.175802,0.072712,-1.08129,-0.08036,0.17528,0.4697
10.9866,0,0,5,5,25.9866,25.9866,-3.92379,2.32298,-9.87607,-0.0525158,-0.359957,0.0929208,0,0,-47.775,1.75,-4.655,-0.052338,-0.279136,-0.917318,-0.08036,0.17528,0.4697
10.2005,0,0,5,5,25.2005,25.2005,-3.64303,2.24929,-9.81497,-0.0512306,-0.355075,0.093295,0,0,-47.145,3.045,-3.22,-0.052338,-0.279136,-0.917318,-0.08036,0.17528,0.4697
10.2378,0,0,5,5,25.2378,25.2378,-3.65636,2.13397,-9.75969,-0.111906,-0.0736874,-0.0685661,0,0,-45.1325,1.2425,-2.17,-0.11529,0.002196,-1.07799,-0.08036,0.17528,0.4697
10.2929,0,0,5,5,25.2929,25.2929,-3.67603,2.02345,-9.7057,-0.109978,-0.0740341,-0.0685182,0,0,-48.755,2.7825,-2.6775,-0.11529,0.002196,-1.07799,-0.08036,0.17528,0.4697
9.16023,0,0,5.83977,5.83977,24.1602,24.1602,-3.27151,1.77037,-9.45111,-0.212228,-0.488948,0.14574,0,0,-49.315,2.4325,-2.9575,-0.222406,-0.419314,-0.865956,-0.08036,0.17528,0.4697
8.04907,0,0,6.95093,6.95093,23.0491,23.0491,-2.87467,1.522,-9.19904,-0.207895,-0.482041,0.146235,0,0,-50.0675,2.2925,-1.68,-0.222406,-0.419314,-0.865956,-0.08036,0.17528,0.4697
7.16102,0,0,7.83898,7.83898,22.161,22.161,-2.55751,1.11366,-8.81037,-0.354814,-0.406664,0.167685,0,0,-52.325,1.19,-2.52,-0.377102,-0.34953,-0.845094,-0.08036,0.17528,0.4697
6.27986,0,0,8.72014,8.72014,21.2799,21.2799,-2.24281,0.706521,-8.44457,-0.347709,-0.401182,0.168028,0,0,-51.3625,1.5575,-3.885,-0.377102,-0.34953,-0.845094,-0.07896,0.1862,0.4662
5.96881,0,0,9.03119,9.03119,20.9688,20.9688,-2.13172,0.830538,-8.58893,0.137892,-0.229732,-0.067988,0,0,-52.4825,2.1175,-3.465,0.112728,-0.180194,-1.07933,-0.07896,0.1862,0.4662
5.64207,0,0,9.35793,9.35793,20.6421,20.6421,-2.01502,0.952512,-8.72973,0.135763,-0.227696,-0.0679474,0,0,-48.335,2.2225,-2.1,0.112728,-0.180194,-1.07933,-0.07896,0.1862,0.4662
5.48192,0,0,9.51808,9.51808,20.4819,20.4819,-1.95783,1.18815,-8.98362,0.243175,-0.168197,-0.0413098,0,0,-50.5575,3.36,-4.7775,0.224724,-0.121756,-1.05286,-0.07896,0.1862,0.4662
5.32638,0,0,9.67362,9.67362,20.3264,20.3264,-1.90228,1.42045,-9.2372,0.239122,-0.167225,-0.0413693,0,0,-50.96,4.095,-5.6525,0.224724,-0.121756,-1.05286,-0.07896,0.1862,0.4662
5.60651,0,0,9.39349,9.39349,20.6065,20.6065,-2.00232,1.42469,-9.24339,0.405362,0.252124,0.00897824,1,0,-52.605,2.6425,-4.585,0.391742,0.2989,-1.00284,-0.07896,0.1862,0.4662
5.88664,0,0,9.11336,9.11336,20.8866,20.8866,-2.10237,1.42892,-9.24959,0.405288,0.250379,0.00891389,1,0,-52.605,2.6425,-4.585,0.391742,0.2989,-1.00284,-0.07896,0.1862,0.4662
6.19682,0,0,8.80318,8.80318,21.1968,21.1968,-2.21315,1.43252,-9.25556,-0.253106,-0.145533,0.458216,1,0,-58.625,2.275,-4.4625,-0.269376,-0.094672,-0.55693,-0.07896,0.1862,0.4662
6.507,0,0,8.493,8.493,21.507,21.507,-2.32393,1.43611,-9.26154,-0.253169,-0.147464,0.458138,1,0,-58.625,2.275,-4.4625,-0.269376,-0.094672,-0.55693,-0.08008,0.19754,0.47264
6.79688,0,0,8.20312,8.20312,21.7969,21.7969,-2.42746,1.43854,-9.26225,0.673604,0.124295,0.115528,1,0,-54.635,1.47,-1.4175,0.661362,0.178608,-0.896822,-0.08008,0.19754,0.47264
7.08677,0,0,7.91323,7.91323,22.0868,22.0868,-2.53099,1.44096,-9.26297,0.673561,0.12249,0.115449,1,0,-54.635,1.47,-1.4175,0.661362,0.178608,-0.896822,-0.08008,0.19754,0.47264
5.91999,0,0,9.08001,9.08001,20.92,20.92,-2.11428,1.27331,-9.12108,-0.123254,-0.547441,0.100567,0,0,-59.22,2.555,-1.645,-0.141764,-0.497882,-0.91195,-0.08008,0.19754,0.47264
4.77129,0,0,10.2287,10.2287,19.7713,19.7713,-1.70403,1.10939,-8.9825,-0.120393,-0.540288,0.100865,0,0,-59.22,2.555,-1.645,-0.141764,-0.497882,-0.91195,-0.08008,0.19754,0.47264
4.69342,0,0,10.3066,10.3066,19.6934,19.6934,-1.67622,0.906612,-8.85255,-0.18027,-0.147533,0.0194265,0,0,-64.225,2.1875,-1.925,-0.205448,-0.106018,-0.992836,-0.08008,0.19754,0.47264
4.61736,0,0,10.3826,10.3826,19.6174,19.6174,-1.64906,0.707946,-8.7236,-0.176803,-0.147061,0.0194891,0,0,-64.225,2.1875,-1.925,-0.205448,-0.106018,-0.992836,-0.08008,0.19754,0.47264
4.96619,0,0,10.0338,10.0338,19.9662,19.9662,-1.77364,0.709783,-8.72613,0.349562,0.464575,-0.471264,1,0,-66.43,1.155,-2.5025,0.323178,0.507154,-1.47974,-0.08008,0.19754,0.47264
5.31502,0,0,9.68498,9.68498,20.315,20.315,-1.89822,0.711615,-8.72866,0.34953,0.462402,-0.471334,1,0,-66.43,1.155,-2.5025,0.323178,0.507154,-1.47974,-0.07756,0.19082,0.46102
4.29401,0,0,10.706,10.706,19.294,19.294,-1.53357,0.839925,-8.84337,0.137242,-0.485535,0.111725,0,0,-59.29,8.75,-5.1275,0.11224,-0.446154,-0.901336,-0.07756,0.19082,0.46102
3.2881,0,0,11.7119,11.7119,18.2881,18.2881,-1.17432,0.966382,-8.95599,0.135035,-0.479267,0.111839,0,0,-59.29,8.75,-5.1275,0.11224,-0.446154,-0.901336,-0.07756,0.19082,0.46102
3.60827,0,0,11.3917,11.3917,18.6083,18.6083,-1.28867,0.971927,-8.96353,-0.127835,-0.0798309,-0.162135,1,0,-60.6375,3.3775,-5.39,-0.151646,-0.04514,-1.17315,-0.07756,0.19082,0.46102
3.92844,0,0,11.0716,11.0716,18.9284,18.9284,-1.40302,0.977456,-8.97109,-0.127932,-0.0818257,-0.162184,1,0,-60.6375,3.3775,-5.39,-0.151646,-0.04514,-1.17315,-0.07756,0.19082,0.46102
4.31119,0,0,10.6888,10.6888,19.3112,19.3112,-1.53971,0.981737,-8.97661,-0.397462,-0.0155751,0.371596,1,0,-73.185,2.625,-4.2175,-0.422242,0.023424,-0.643428,-0.07756,0.19082,0.46102
4.69393,0,0,10.3061,10.3061,19.6939,19.6939,-1.6764,0.986005,-8.98214,-0.397536,-0.0179596,0.371528,1,0,-73.185,2.625,-4.2175,-0.422242,0.023424,-0.643428,-0.07756,0.19082,0.46102
5.05458,0,0,9.94542,9.94542,20.0546,20.0546,-1.80521,0.990428,-8.98805,-0.473785,0.291217,-0.230252,1,0,-68.7575,2.73,-4.4275,-0.498736,0.334524,-1.2405,-0.07756,0.19082,0.46102
5.41524,0,0,9.58476,9.58476,20.4152,20.4152,-1.93401,0.994837,-8.99397,-0.473862,0.28897,-0.230326,1,0,-68.7575,2.73,-4.4275,-0.498736,0.334524,-1.2405,-0.07756,0.19082,0.46102
5.76717,0,0,9.23283,9.23283,20.7672,20.7672,-2.0597,1.00218,-8.99673,0.328788,-0.421923,-0.310813,1,0,-67.0425,4.3925,-2.52,0.30744,-0.373442,-1.32028,-0.084,0.20482,0.45262
6.14576,0,0,8.85424,8.85424,21.1458,21.1458,-2.19492,1.00546,-8.99941,-0.450479,-0.255135,-0.0383249,1,0,-72.38,2.0125,-2.555,-0.475068,-0.204472,-1.04981,-0.084,0.20482,0.45262
6.55853,0,0,8.44147,8.44147,21.5585,21.5585,-2.34233,1.01132,-9.00386,-0.450581,-0.257706,-0.0384286,1,0,-79.205,3.57,-3.5175,-0.475068,-0.204472,-1.04981,-0.084,0.20482,0.45262
6.98056,0,0,8.01944,8.01944,21.9806,21.9806,-2.49306,1.01346,-9.00495,0.122551,-0.773144,-0.183988,1,0,-81.095,1.3125,-1.645,0.100528,-0.71675,-1.19414,-0.084,0.20482,0.45262
7.37538,0,0,7.62462,7.62462,22.3754,22.3754,-2.63406,1.01473,-9.00868,0.122529,-0.775602,-0.184099,1,0,-75.6175,0.875,-3.2025,0.100528,-0.71675,-1.19414,-0.084,0.20482,0.45262
7.76766,0,0,7.23234,7.23234,22.7677,22.7677,-2.77416,1.0235,-9.01427,-0.657319,-0.270607,-0.32573,1,0,-75.0925,5.32,-4.0775,-0.682468,-0.20984,-1.33456,-0.084,0.20482,0.45262
8.11738,0,0,6.88262,6.88262,23.1174,23.1174,-2.89907,1.03507,-9.02339,-0.657521,-0.272784,-0.325842,1,0,-66.535,7.07,-6.0375,-0.682468,-0.20984,-1.33456,-0.084,0.20482,0.45262
8.48525,0,0,6.51475,6.51475,23.4852,23.4852,-3.03045,1.04673,-9.02986,0.308816,0.155668,-0.596082,1,0,-70.1925,7.0525,-4.48,0.288164,0.220454,-1.60259,-0.084,0.20482,0.45262
8.8858,0,0,6.1142,6.1142,23.8858,23.8858,-3.1735,1.04907,-9.03637,0.308775,0.153175,-0.596218,1,0,-76.7375,1.61,-4.7775,0.288164,0.220454,-1.60259,-0.08722,0.21112,0.44744
10.736,0,0,5,5,25.736,25.736,-3.83427,1.03919,-9.14811,-0.0709386,0.519282,0.127739,0,0,-82.6,3.78,-5.075,-0.09333,0.597678,-0.883524,-0.08722,0.21112,0.44744
12.5856,0,0,5,5,27.5856,27.5856,-4.49485,1.02475,-9.25553,-0.0706868,0.507784,0.126906,0,0,-88.0075,1.155,-2.1,-0.09333,0.597678,-0.883524,-0.08722,0.21112,0.44744
13.0201,0,0,5,5,28.0201,28.0201,-4.65004,1.02422,-9.25845,0.60126,-0.0563318,0.0336186,1,0,-83.58,-0.14,-2.7825,0.581452,0.036844,-0.975878,-0.08722,0.21112,0.44744
13.4532,0,0,5,5,28.4532,28.4532,-4.8047,1.03111,-9.26319,0.60114,-0.0590214,0.033394,1,0,-83.265,4.2875,-3.4825,0.581452,0.036844,-0.975878,-0.08722,0.21112,0.44744
12.8112,0,0,5,5,27.8112,27.8112,-4.57542,1.10104,-9.38685,0.10693,-0.409199,-0.00908754,0,0,-83.0375,4.025,-3.0625,0.086376,-0.316956,-1.01833,-0.08722,0.21112,0.44744
12.1596,0,0,5,5,27.1596,27.1596,-4.3427,1.17344,-9.50613,0.105667,-0.405149,-0.00879682,0,0,-79.135,5.81,-1.1025,0.086376,-0.316956,-1.01833,-0.08722,0.21112,0.44744
12.5966,0,0,5,5,27.5966,27.5966,-4.49877,1.17851,-9.50873,0.0222394,0.254796,-0.226381,1,0,-84.07,3.115,-2.345,0.002684,0.345016,-1.23403,-0.08722,0.21112,0.44744
13.074,0,0,5,5,28.074,28.074,-4.66927,1.185,-9.51191,0.0221262,0.25183,-0.226622,1,0,-92.155,3.9725,-2.6075,0.002684,0.345016,-1.23403,-0.0805,0.21098,0.44576
13.5489,0,0,5,5,28.5489,28.5489,-4.8389,1.1859,-9.51076,0.665985,-1.0293,0.0883727,1,0,-91.7175,0.5075,-0.35,0.649284,-0.931836,-0.921222,-0.0805,0.21098,0.44576
14.0009,0,0,5,5,29.0009,29.0009,-5.00034,1.18627,-9.51484,0.665978,-1.0321,0.088131,1,0,-87.0625,0.455,-3.4125,0.649284,-0.931836,-0.921222,-0.0805,0.21098,0.44576
14.45,0,0,5,5,29.45,29.45,-5.16071,1.19426,-9.52456,-0.362416,-0.403741,-0.218507,1,0,-86.3975,5.1975,-6.3,-0.383324,-0.30134,-1.22525,-0.0805,0.21098,0.44576
14.8731,0,0,5,5,29.8731,29.8731,-5.31181,1.20646,-9.53741,-0.362629,-0.406366,-0.218752,1,0,-81.165,7.84,-7.875,-0.383324,-0.30134,-1.22525,-0.0805,0.21098,0.44576
15.312,0,0,5,5,30.312,30.312,-5.46855,1.21811,-9.54838,0.561917,-0.058707,-0.141679,1,0,-84.35,7.4375,-6.79,0.54534,0.048678,-1.14851,-0.0805,0.21098,0.44576
15.8047,0,0,5,5,30.8047,30.8047,-5.64452,1.21822,-9.55898,0.561915,-0.061763,-0.141976,1,0,-95.13,0.7,-7.21,0.54534,0.048678,-1.14851,-0.0805,0.21098,0.44576
16.3194,0,0,5,5,31.3194,31.3194,-5.82835,1.22077,-9.57067,-0.0708272,0.0209006,0.521255,1,0,-99.5225,2.205,-7.7,-0.090036,0.134444,-0.490074,-0.0805,0.21098,0.44576
16.8325,0,0,5,5,31.8325,31.8325,-6.0116,1.22338,-9.57885,-0.0708726,0.0177201,0.520924,1,0,-99.2425,2.0475,-5.6525,-0.090036,0.134444,-0.490074,-0.08176,0.22106,0.43162
17.3076,0,0,5,5,32.3076,32.3076,-6.18128,1.22345,-9.58575,0.216318,-1.19587,-0.0249126,1,0,-91.6475,0.5075,-5.0575,0.198372,-1.07494,-1.03139,-0.08176,0.22106,0.43162
17.7792,0,0,5,5,32.7792,32.7792,-6.34973,1.232,-9.5966,0.216169,-1.19879,-0.0252366,1,0,-90.9125,5.705,-6.8075,0.198372,-1.07494,-1.03139,-0.08176,0.22106,0.43162
18.2856,0,0,5,5,33.2856,33.2856,-6.53056,1.24193,-9.60824,0.43795,-0.339464,-0.318949,1,0,-97.8425,6.58,-7.1575,0.421266,-0.213378,-1.32248,-0.08176,0.22106,0.43162
18.7485,0,0,5,5,33.7485,33.7485,-6.6959,1.24876,-9.6136,0.437831,-0.342329,-0.319284,1,0,-89.2325,4.375,-3.71,0.421266,-0.213378,-1.32248,-0.08176,0.22106,0.43162
19.0901,0,0,5,5,34.0901,34.0901,-6.81791,1.597,-10.0675,0.382796,-0.0660987,-0.00481342,0,0,-97.0025,2.45,-3.7625,0.3721,0.06466,-1.01004,-0.08176,0.22106,0.43162
19.4695,0,0,5,5,34.4695,34.4695,-6.9534,1.93951,-10.5209,0.376821,-0.0684231,-0.00527992,0,0,-105.77,3.2375,-4.2175,0.3721,0.06466,-1.01004,-0.08176,0.22106,0.43162
20.0142,0,0,5,5,35.0142,35.0142,-7.14792,1.94206,-10.5224,0.0935935,-0.0841252,0.167414,1,0,-105.63,1.6275,-1.7675,0.087718,0.052338,-0.838262,-0.08176,0.22106,0.43162
20.5182,0,0,5,5,35.5182,35.5182,-7.32794,1.94414,-10.5243,0.0935573,-0.0872401,0.167017,1,0,-97.4925,1.3825,-2.0125,0.087718,0.052338,-0.838262,-0.077,0.24416,0.44016
21.5494,0,0,5,5,36.5494,36.5494,-7.6962,1.52167,-10.2658,-0.435553,0.134861,0.227626,0,0,-96.81,4.4275,-4.6025,-0.451034,0.2806,-0.777506,-0.077,0.24416,0.44016
22.566,0,0,5,5,37.566,37.566,-8.05929,1.11212,-10.011,-0.428407,0.128562,0.226921,0,0,-97.0025,8.47,-7.525,-0.451034,0.2806,-0.777506,-0.077,0.24416,0.44016
23.0704,0,0,5,5,38.0704,38.0704,-8.23942,1.12424,-10.0199,0.542902,0.164654,-0.444459,1,0,-97.4925,7.805,-5.215,0.5246,0.319762,-1.44326,-0.077,0.24416,0.44016
23.6285,0,0,5,5,38.6285,38.6285,-8.43875,1.12901,-10.0271,0.542819,0.161213,-0.444965,1,0,-108.273,3.4125,-4.8125,0.5246,0.319762,-1.44326,-0.077,0.24416,0.44016
24.2093,0,0,5,5,39.2093,39.2093,-8.64617,1.13384,-10.0351,-0.277537,-0.310112,0.310506,1,0,-112.805,3.535,-5.2675,-0.299144,-0.147498,-0.693082,-0.077,0.24416,0.44016
24.797,0,0,5,5,39.797,39.797,-8.85609,1.13734,-10.0395,-0.277598,-0.313732,0.309947,1,0,-114.24,2.45,-3.29,-0.299144,-0.147498,-0.693082,-0.077,0.24416,0.44016
25.3423,0,0,5,5,40.3423,40.3423,-9.05081,1.13902,-10.0414,0.721228,-1.5524,0.251018,1,0,-105.753,1.1725,-1.96,0.70394,-1.38153,-0.751032,-0.077,0.24416,0.44016
25.8821,0,0,5,5,40.8821,40.8821,-9.2436,1.14799,-10.0478,0.721072,-1.55572,0.25048,1,0,-104.615,5.8275,-3.955,0.70394,-1.38153,-0.751032,-0.077,0.24416,0.44016
26.4696,0,0,5,5,41.4696,41.4696,-9.45343,1.16424,-10.0602,-0.886832,-0.925373,-0.372486,1,0,-114.1,10.605,-6.6325,-0.910486,-0.748226,-1.3686,-0.07798,0.25844,0.46144
27.0109,0,0,5,5,42.0109,42.0109,-9.64675,1.17265,-10.0667,0.228381,-0.207419,-0.203257,1,0,-104.913,5.53,-4.025,0.209596,-0.027694,-1.20011,-0.07798,0.25844,0.46144
27.5946,0,0,5,5,42.5946,42.5946,-9.85523,1.1788,-10.0724,0.228274,-0.211003,-0.203875,1,0,-113.418,4.1475,-3.6925,0.209596,-0.027694,-1.20011,-0.07798,0.25844,0.46144
28.2032,0,0,5,5,43.2032,43.2032,-10.0726,1.18072,-10.076,-0.318081,-0.396707,-0.309776,1,0,-118.405,1.505,-2.94,-0.339038,-0.209474,-1.30455,-0.07798,0.25844,0.46144
28.8075,0,0,5,5,43.8075,43.8075,-10.2884,1.18595,-10.079,-0.318172,-0.400414,-0.310443,1,0,-117.565,3.36,-2.24,-0.339038,-0.209474,-1.30455,-0.07798,0.25844,0.46144
29.3814,0,0,5,5,44.3814,44.3814,-10.4934,1.19143,-10.0827,0.0757106,-1.21314,0.340291,1,0,-111.475,3.5875,-2.6075,0.056608,-1.01785,-0.65819,-0.07798,0.25844,0.46144
29.9524,0,0,5,5,44.9524,44.9524,-10.6973,1.20297,-10.0996,0.0755092,-1.21664,0.339632,1,0,-110.74,8.505,-9.5375,0.056608,-1.01785,-0.65819,-0.07798,0.25844,0.46144
32.4022,0,0,5,5,47.4022,47.4022,-11.5722,1.06768,-10.1003,-0.301287,0.591235,0.382344,0,0,-122.255,9.52,-10.8325,-0.324154,0.803126,-0.612928,-0.07798,0.25844,0.46144
34.8337,0,0,5,5,49.8337,49.8337,-12.4406,0.95169,-10.1265,-0.299263,0.576405,0.379226,0,0,-122.045,3.5,-7.0175,-0.324154,0.803126,-0.612928,-0.08288,0.29162,0.45556
34.2387,0,0,5,5,49.2387,49.2387,-12.2281,1.27478,-10.6719,0.428994,-0.453996,0.192415,0,0,-124.863,2.345,-8.47,0.412848,-0.229848,-0.798978,-0.08288,0.29162,0.45556
33.6623,0,0,5,5,48.6623,48.6623,-12.0222,1.59339,-11.2065,0.423435,-0.450455,0.193033,0,0,-127.75,1.33,-5.8975,0.412848,-0.229848,-0.798978,-0.08288,0.29162,0.45556
34.2981,0,0,5,5,49.2981,49.2981,-12.2493,1.59824,-11.2166,1.50166,-0.0895356,0.05634,1,0,-123.76,4.06,-6.2475,1.49572,0.134566,-0.933788,-0.08288,0.29162,0.45556
34.9029,0,0,5,5,49.9029,49.9029,-12.4653,1.6002,-11.2261,1.50162,-0.0932164,0.0555326,1,0,-117.548,2.345,-6.23,1.49572,0.134566,-0.933788,-0.08288,0.29162,0.45556
35.5188,0,0,5,5,50.5188,50.5188,-12.6853,1.60527,-11.2384,-0.243607,-1.04552,0.105718,1,0,-119.735,4.4975,-7.4025,-0.25681,-0.813008,-0.883158,-0.08288,0.29162,0.45556
36.188,0,0,5,5,51.188,51.188,-12.9243,1.61966,-11.2569,-0.243858,-1.04958,0.104787,1,0,-130.288,10.6575,-9.7125,-0.25681,-0.813008,-0.883158,-0.08288,0.29162,0.45556
36.8556,0,0,5,5,51.8556,51.8556,-13.1627,1.62546,-11.2671,0.0635212,-1.15085,0.0588466,1,0,-130.113,4.7075,-6.1425,0.051972,-0.91012,-0.92781,-0.08288,0.29162,0.45556
37.5479,0,0,5,5,52.5479,52.5479,-13.41,1.63535,-11.2756,0.0633487,-1.15505,0.0578504,1,0,-135.1,6.8075,-4.5325,0.051972,-0.91012,-0.92781,-0.08932,0.3199,0.47656
39.2466,0,0,5,5,54.2466,54.2466,-14.0166,1.79415,-11.6833,0.0900994,0.36726,0.0646049,0,0,-138.198,-0.42,-2.5375,0.081618,0.620858,-0.918538,-0.08932,0.3199,0.47656
40.9078,0,0,5,5,55.9078,55.9078,-14.6099,1.95745,-12.0991,0.0872507,0.357255,0.0619559,0,0,-135.905,5.5825,-3.6575,0.081618,0.620858,-0.918538,-0.08932,0.3199,0.47656
41.5961,0,0,5,5,56.5961,56.5961,-14.8557,1.96403,-12.1067,-0.245127,-1.41858,0.115328,1,0,-134.26,4.9,-4.3925,-0.252052,-1.149,-0.864492,-0.08932,0.3199,0.47656
42.3319,0,0,5,5,57.3319,57.3319,-15.1185,1.97918,-12.1234,-0.245392,-1.42301,0.114134,1,0,-143.605,11.13,-8.155,-0.252052,-1.149,-0.864492,-0.08932,0.3199,0.47656
43.085,0,0,5,5,58.085,58.085,-15.3875,1.99092,-12.139,0.241683,-0.289556,0.512106,1,0,-147.105,9.065,-8.015,0.23729,-0.0122,-0.468358,-0.08932,0.3199,0.47656
43.8093,0,0,5,5,58.8093,58.8093,-15.6462,1.99448,-12.1439,0.241621,-0.293903,0.510897,1,0,-141.523,2.8175,-3.2725,0.23729,-0.0122,-0.468358,-0.08932,0.3199,0.47656
44.523,0,0,5,5,59.523,59.523,-15.9011,1.99978,-12.1515,-0.522009,-0.0661401,-0.131614,1,0,-139.37,4.235,-4.4975,-0.52948,0.2196,-1.10471,-0.08932,0.3199,0.47656
45.2682,0,0,5,5,60.2682,60.2682,-16.1672,2.00856,-12.1574,-0.522162,-0.0705999,-0.132901,1,0,-145.688,5.9325,-2.9575,-0.52948,0.2196,-1.10471,-0.08596,0.3395,0.48118
45.9988,0,0,5,5,60.9988,60.9988,-16.4281,2.02379,-12.1727,-0.580255,-1.82956,-0.56131,1,0,-142.59,11.1125,-7.1225,-0.587552,-1.53317,-1.52854,-0.08596,0.3395,0.48118
46.7269,0,0,5,5,61.7269,61.7269,-16.6882,2.0328,-12.1849,-0.580413,-1.83391,-0.562608,1,0,-142.153,7.14,-6.405,-0.587552,-1.53317,-1.52854,-0.08596,0.3395,0.48118
47.5046,0,0,5,5,62.5046,62.5046,-16.9659,2.04406,-12.1979,-1.15779,0.233705,-0.0980427,1,0,-152.058,8.54,-6.3875,-1.16717,0.536922,-1.06616,-0.08596,0.3395,0.48118
48.3074,0,0,5,5,63.3074,63.3074,-17.2526,2.05394,-12.2081,-1.15796,0.228927,-0.0995197,1,0,-157.133,7.3325,-5.075,-1.16717,0.536922,-1.06616,-0.08596,0.3395,0.48118
49.0891,0,0,5,5,64.0891,64.0891,-17.5318,2.06267,-12.2171,1.48894,-1.21437,-0.64097,1,0,-152.95,6.475,-4.4975,1.49108,-0.900238,-1.60198,-0.08596,0.3395,0.48118
49.8708,0,0,5,5,64.8708,64.8708,-17.811,2.07135,-12.226,1.48879,-1.21901,-0.642454,1,0,-152.95,6.475,-4.4975,1.49108,-0.900238,-1.60198,-0.08596,0.3395,0.48118
49.0969,0,0,5,5,64.0969,64.0969,-17.5346,2.39617,-12.8245,0.503098,-0.593335,0.269233,0,0,-155.96,13.1425,-7.42,0.50691,-0.279868,-0.698572,-0.08596,0.3395,0.48118
48.3205,0,0,5,5,63.3205,63.3205,-17.2573,2.71297,-13.4243,0.497575,-0.588647,0.270443,0,0,-155.96,13.1425,-7.42,0.50691,-0.279868,-0.698572,-0.0847,0.34454,0.45024
49.1762,0,0,5,5,64.1762,64.1762,-17.5629,2.71798,-13.4387,0.65226,0.522752,0.274992,1,0,-167.563,5.355,-8.19,0.662338,0.835456,-0.692472,-0.0847,0.34454,0.45024
50.032,0,0,5,5,65.032,65.032,-17.8686,2.72291,-13.4531,0.652174,0.517678,0.273367,1,0,-167.563,5.355,-8.19,0.662338,0.835456,-0.692472,-0.0847,0.34454,0.45024
50.8722,0,0,5,5,65.8722,65.8722,-18.1687,2.73092,-13.4686,0.248945,-2.75113,-0.128824,1,0,-164.43,7.315,-8.2425,0.257542,-2.42499,-1.08995,-0.0847,0.34454,0.45024
51.7125,0,0,5,5,66.7125,66.7125,-18.4687,2.73885,-13.4842,0.248807,-2.7561,-0.130474,1,0,-164.43,7.315,-8.2425,0.257542,-2.42499,-1.08995,-0.0847,0.34454,0.45024
52.5522,0,0,5,5,67.5522,67.5522,-18.7687,2.7525,-13.505,1.6821,-0.631523,0.876023,1,0,-164.185,11.4975,-9.9925,1.69714,-0.29768,-0.089548,-0.0847,0.34454,0.45024
53.392,0,0,5,5,68.392,68.392,-19.0686,2.76605,-13.5259,1.68186,-0.636466,0.874317,1,0,-164.185,11.4975,-9.9925,1.69714,-0.29768,-0.089548,-0.0847,0.34454,0.45024
54.2681,0,0,5,5,69.2681,69.2681,-19.3815,2.77219,-13.5427,2.27813,-0.475644,-1.52301,1,0,-171.57,6.685,-9.17,2.29604,-0.131882,-2.4666,-0.0847,0.34454,0.45024
55.2167,0,0,5,5,70.2167,70.2167,-19.7202,2.77165,-13.552,-1.47577,0.348397,0.794681,1,0,-186.288,1.5575,-6.265,-1.47376,0.696864,-0.164822,-0.0966,0.35798,0.4473
56.079,0,0,5,5,71.079,71.079,-20.0282,2.7823,-13.5686,-1.47595,0.343351,0.792848,1,0,-168.805,9.205,-8.05,-1.47376,0.696864,-0.164822,-0.0966,0.35798,0.4473
56.5428,0,0,5,5,71.5428,71.5428,-20.1939,2.33212,-13.4137,-0.534123,-0.180841,0.0353127,0,0,-163.59,6.16,-8.9775,-0.535824,0.176046,-0.915854,-0.0966,0.35798,0.4473
56.9996,0,0,5,5,71.9996,71.9996,-20.357,1.88871,-13.2598,-0.526389,-0.183608,0.034594,0,0,-163.59,6.16,-8.9775,-0.535824,0.176046,-0.915854,-0.0966,0.35798,0.4473
57.9306,0,0,5,5,72.9306,72.9306,-20.6895,1.9008,-13.2834,-0.48894,-1.55002,0.885817,1,0,-182.578,11.515,-11.48,-0.498004,-1.18352,-0.069174,-0.0966,0.35798,0.4473
58.8932,0,0,5,5,73.8932,73.8932,-21.0333,1.90007,-13.2941,-0.292363,1.45383,0.838437,1,0,-189.14,1.855,-7.0175,-0.300608,1.8228,-0.11407,-0.0966,0.35798,0.4473
59.8455,0,0,5,5,74.8455,74.8455,-21.3734,1.89642,-13.2974,-0.292299,1.44829,0.836293,1,0,-187.215,-1.26,-3.6225,-0.300608,1.8228,-0.11407,-0.0966,0.35798,0.4473
60.6863,0,0,5,5,75.6863,75.6863,-21.6737,1.89015,-13.3074,1.37812,1.19343,0.0653314,1,0,-164.78,-1.2425,-7.805,1.37677,1.57307,-0.87718,-0.0966,0.35798,0.4473
61.5501,0,0,5,5,76.5501,76.5501,-21.9822,1.8945,-13.3191,1.37804,1.18843,0.0633281,1,0,-169.348,4.9525,-6.4575,1.37677,1.57307,-0.87718,-0.08638,0.37674,0.43078
62.4242,0,0,5,5,77.4242,77.4242,-22.2944,1.90323,-13.336,-2.22307,-1.22055,0.599786,1,0,-171.308,8.505,-8.2775,-2.23943,-0.82838,-0.34282,-0.08638,0.37674,0.43078
63.272,0,0,5,5,78.272,78.272,-22.5971,1.91803,-13.3601,-2.22333,-1.22543,0.597761,1,0,-165.9,13.44,-10.7625,-2.23943,-0.82838,-0.34282,-0.08638,0.37674,0.43078
64.0081,0,0,5,5,79.0081,79.0081,-22.86,1.92786,-13.3773,-0.0898452,-1.57455,0.913929,1,0,-143.675,9.24,-8.1025,-0.096746,-1.17291,-0.027328,-0.08638,0.37674,0.43078
64.7581,0,0,5,5,79.7581,79.7581,-23.1279,1.93527,-13.3892,-0.0899743,-1.57884,0.9121,1,0,-146.545,6.755,-5.775,-0.096746,-1.17291,-0.027328,-0.08638,0.37674,0.43078
65.5309,0,0,5,5,80.5309,80.5309,-23.4039,1.94634,-13.4065,0.884998,-1.33547,-1.01961,1,0,-151.008,9.9925,-7.77,0.882548,-0.92537,-1.94224,-0.08638,0.37674,0.43078
66.3171,0,0,5,5,81.3171,81.3171,-23.6847,1.96682,-13.4307,0.884641,-1.33996,-1.02158,1,0,-153.563,16.695,-9.2225,0.882548,-0.92537,-1.94224,-0.08638,0.37674,0.43078
67.1308,0,0,5,5,82.1308,82.1308,-23.9753,1.97865,-13.4499,-1.09469,-2.65342,-0.970516,1,0,-159.163,10.92,-8.5225,-1.10495,-2.23284,-1.88954,-0.08638,0.37674,0.43078
67.8631,0,0,5,5,82.8631,82.8631,-24.2368,1.97916,-13.4582,-1.0947,-2.65759,-0.972379,1,0,-143.062,2.275,-5.32,-1.10495,-2.23284,-1.88954,-0.0798,0.37772,0.40502
68.6852,0,0,5,5,83.6852,83.6852,-24.5304,1.99105,-13.4708,-0.750979,1.95427,2.10216,1,0,-160.965,9.4325,-4.9,-0.759572,2.37888,1.16339,-0.0798,0.37772,0.40502
69.4096,0,0,5,5,84.4096,84.4096,-24.7891,1.99619,-13.4791,-0.751069,1.95017,2.10028,1,0,-141.488,4.795,-4.2,-0.759572,2.37888,1.16339,-0.0798,0.37772,0.40502
70.039,0,0,5,5,85.039,85.039,-25.0139,2.00919,-13.4971,1.35272,3.00545,-0.314737,1,0,-122.273,11.3925,-7.42,1.35335,3.43662,-1.23135,-0.0798,0.37772,0.40502
70.7969,0,0,5,5,85.7969,85.7969,-25.2846,2.01766,-13.5063,1.35257,3.00118,-0.316748,1,0,-148.19,6.8075,-3.7975,1.35335,3.43662,-1.23135,-0.0798,0.37772,0.40502
71.4816,0,0,5,5,86.4816,86.4816,-25.5291,2.01966,-13.5164,-1.9486,0.0358768,-0.0900179,1,0,-133.49,3.64,-5.8975,-1.96176,0.47824,-1.00455,-0.0798,0.37772,0.40502
72.0988,0,0,5,5,87.0988,87.0988,-25.7496,2.02536,-13.5286,-1.9487,0.032412,-0.0916847,1,0,-119.945,6.125,-6.02,-1.96176,0.47824,-1.00455,-0.0798,0.37772,0.40502
72.6234,0,0,5,5,87.6234,87.6234,-25.9369,2.03234,-13.5439,-1.02383,0.182253,1.4719,1,0,-101.343,7.6125,-7.2975,-1.03285,0.630862,0.54839,-0.0798,0.37772,0.40502
73.1251,0,0,5,5,88.1251,88.1251,-26.1161,2.05037,-13.5547,-1.02414,0.17945,1.47052,1,0,-96.8275,12.3025,-2.1,-1.03285,0.630862,0.54839,-0.0798,0.37772,0.40502
73.6137,0,0,5,5,88.6137,88.6137,-26.2906,2.0678,-13.5777,0.76844,-0.353306,-0.368056,1,0,-93.975,15.155,-8.6275,0.767624,0.101382,-1.27466,-0.09828,0.3955,0.39228
74.2763,0,0,5,5,89.2763,89.2763,-26.5272,2.09047,-13.5957,-1.06372,-1.09403,-0.514492,1,0,-128.905,16.625,-4.6025,-1.07189,-0.634888,-1.41813,-0.09828,0.3955,0.39228
74.8614,0,0,5,5,89.8614,89.8614,-26.7362,2.09227,-13.5999,-1.06375,-1.09729,-0.516127,1,0,-113.68,2.0825,-2.7825,-1.07189,-0.634888,-1.41813,-0.09828,0.3955,0.39228
76.4933,0,0,5,5,91.4933,91.4933,-27.319,2.05867,-13.0786,-0.315417,-0.562523,1.84849,0,0,-116.2,4.795,0.56,-0.320982,-0.091622,0.932812,-0.09828,0.3955,0.39228
78.0871,0,0,5,5,93.0871,93.0871,-27.8883,2.03321,-12.5615,-0.314974,-0.571329,1.8439,0,0,-103.898,7.3325,-0.63,-0.320982,-0.091622,0.932812,-0.09828,0.3955,0.39228
78.5614,0,0,5,5,93.5614,93.5614,-28.0577,2.04563,-12.5693,0.520996,-2.68514,0.462045,1,0,-91.42,8.5925,-1.6625,0.518744,-2.20064,-0.437004,-0.09828,0.3955,0.39228
79.0963,0,0,5,5,94.0963,94.0963,-28.2487,2.06076,-12.576,0.520732,-2.68807,0.460465,1,0,-103.565,9.7125,-0.3675,0.518744,-2.20064,-0.437004,-0.09828,0.3955,0.39228
79.6486,0,0,5,5,94.6486,94.6486,-28.4459,2.07178,-12.5823,-0.408947,-1.33574,-0.297431,1,0,-107.065,7.4725,-1.2425,-0.414678,-0.84668,-1.18743,-0.0938,0.4039,0.37548
80.0861,0,0,5,5,95.0861,95.0861,-28.6022,2.07339,-12.5838,-0.260155,-1.21967,0.810139,1,0,-84.1575,1.2775,-1.365,-0.265228,-0.72834,-0.087108,-0.0938,0.4039,0.37548
80.4689,0,0,5,5,95.4689,95.4689,-28.7389,2.08189,-12.5862,-0.260304,-1.22176,0.808991,1,0,-73.2025,5.0575,0.1225,-0.265228,-0.72834,-0.087108,-0.0938,0.4039,0.37548
80.8072,0,0,5,5,95.8072,95.8072,-28.8597,2.089,-12.5861,-1.52266,-3.02912,0.183639,1,0,-64.3475,3.675,0.9625,-1.53281,-2.53199,-0.706624,-0.0938,0.4039,0.37548
81.1214,0,0,5,5,96.1214,96.1214,-28.9719,2.09691,-12.5872,-1.5228,-3.03083,0.182688,1,0,-59.4825,4.41,0.595,-1.53281,-2.53199,-0.706624,-0.0938,0.4039,0.37548
81.5046,0,0,5,5,96.5046,96.5046,-29.1088,2.10489,-12.587,0.31696,-0.637035,-0.938659,1,0,-73.3425,4.06,1.3125,0.314882,-0.138592,-1.81817,-0.0938,0.4039,0.37548
81.8503,0,0,5,5,96.8503,96.8503,-29.2323,2.10996,-12.586,0.316871,-0.638914,-0.939711,1,0,-65.8525,2.3275,0.91,0.314882,-0.138592,-1.81817,-0.0938,0.4039,0.37548
82.1995,0,0,5,5,97.1995,97.1995,-29.357,2.11456,-12.5832,0.65853,-1.46394,0.632717,1,0,-66.57,1.5925,1.6625,0.658068,-0.960872,-0.25681,-0.0938,0.4039,0.37548
82.5541,0,0,5,5,97.5541,97.5541,-29.4836,2.11716,-12.5777,0.658485,-1.46587,0.63163,1,0,-67.7075,-0.21,2.4675,0.658068,-0.960872,-0.25681,-0.09114,0.4039,0.36638
82.8943,0,0,5,5,97.8943,97.8943,-29.6051,2.12344,-12.578,-0.275364,-1.9694,0.0826004,1,0,-64.715,3.3075,0.6125,-0.279624,-1.46205,-0.800564,-0.09114,0.4039,0.36638
83.2345,0,0,5,5,98.2345,98.2345,-29.7266,2.12971,-12.5783,-0.275473,-1.97124,0.081548,1,0,-64.715,3.3075,0.6125,-0.279624,-1.46205,-0.800564,-0.09114,0.4039,0.36638
83.5443,0,0,5,5,98.5443,98.5443,-29.8373,2.12917,-12.5734,0.535089,-1.19216,-0.198012,1,0,-58.7475,-1.6625,1.26,0.53436,-0.682102,-1.07702,-0.09114,0.4039,0.36638
83.8542,0,0,5,5,98.8542,98.8542,-29.9479,2.12864,-12.5685,0.535098,-1.19384,-0.198973,1,0,-58.7475,-1.6625,1.26,0.53436,-0.682102,-1.07702,-0.09114,0.4039,0.36638
84.0325,0,0,5,5,99.0325,99.0325,-30.0116,2.12589,-12.5658,0.139953,-0.964346,0.535828,1,0,-32.3575,-2.135,-0.525,0.137494,-0.451888,-0.347334,-0.09114,0.4039,0.36638
84.1833,0,0,5,5,99.1833,99.1833,-30.0655,2.12554,-12.5645,-0.199107,-1.79355,0.0551212,1,0,-26.8275,-0.525,-0.5075,-0.203008,-1.27941,-0.823866,-0.09114,0.4039,0.36638
84.3121,0,0,5,5,99.3121,99.3121,-30.1115,2.12584,-12.5658,-0.199112,-1.79424,0.0547188,1,0,-22.365,0.56,-1.61,-0.203008,-1.27941,-0.823866,-0.09114,0.4039,0.36638
84.4487,0,0,5,5,99.4487,99.4487,-30.1602,2.12724,-12.5668,0.460044,-1.33932,0.0579794,1,0,-23.9225,1.05,-1.1725,0.458964,-0.824232,-0.820206,-0.09044,0.41314,0.29218
84.5877,0,0,5,5,99.5877,99.5877,-30.2099,2.12553,-12.5639,0.460074,-1.34007,0.057545,1,0,-24.5,-1.6975,-0.0875,0.458964,-0.824232,-0.820206,-0.09044,0.41314,0.29218
84.7109,0,0,5,5,99.7109,99.7109,-30.2539,2.12141,-12.5586,-0.5641,-1.39764,-0.238161,1,0,-21.385,-3.6225,0.42,-0.569618,-0.881084,-1.11325,-0.09044,0.41314,0.29218
84.8342,0,0,5,5,99.8342,99.8342,-30.2979,2.1173,-12.5532,-0.564028,-1.39831,-0.238546,1,0,-21.385,-3.6225,0.42,-0.569618,-0.881084,-1.11325,-0.09044,0.41314,0.29218
84.9285,0,0,5,5,99.9285,99.9285,-30.3316,2.11931,-12.5529,0.0932961,-1.93971,0.589337,1,0,-15.505,0.9625,-0.315,0.090524,-1.42142,-0.291458,-0.09044,0.41314,0.29218
84.9879,0,0,5,5,99.9879,99.9879,-30.3528,2.1221,-12.5522,-0.766264,-0.520676,0.632918,1,0,-8.505,1.2425,0.105,-0.772626,-0.003538,-0.248026,-0.09044,0.41314,0.29218
84.9874,0,0,5,5,99.9874,99.9874,-30.3527,2.12122,-12.5475,-0.766249,-0.520674,0.63292,1,0,3.395,-1.82,1.085,-0.772626,-0.003538,-0.248026,-0.09044,0.41314,0.29218
84.9818,0,0,5,5,99.9818,99.9818,-30.3506,2.12004,-12.5459,-0.385127,-0.890932,0.407943,1,0,4.4975,-1.0325,-0.6125,-0.389912,-0.373442,-0.471286,-0.09044,0.41314,0.29218
84.9725,0,0,5,5,99.9725,99.9725,-30.3473,2.12079,-12.5441,-0.38514,-0.890882,0.407972,1,0,5.215,-0.105,0.0525,-0.389912,-0.373442,-0.471286,-0.09268,0.34076,0.26558
84.9236,0,0,5,5,99.9236,99.9236,-30.3299,2.12216,-12.5415,0.629849,-2.07024,0.364109,1,0,13.1425,-0.0525,0.665,0.629398,-1.55184,-0.514962,-0.09268,0.34076,0.26558
84.8726,0,0,5,5,99.8726,99.8726,-30.3116,2.12252,-12.5372,0.629842,-2.06997,0.36427,1,0,13.5275,-1.0325,1.1725,0.629398,-1.55184,-0.514962,-0.09268,0.34076,0.26558
84.83,0,0,5,5,99.83,99.83,-30.2964,2.12077,-12.5326,0.723781,-1.43138,0.231497,1,0,11.83,-2.2225,0.77,0.723704,-0.914146,-0.646844,-0.09268,0.34076,0.26558
84.7889,0,0,5,5,99.7889,99.7889,-30.2817,2.11698,-12.5243,0.723847,-1.43116,0.231628,1,0,11.4625,-4.34,2.0125,0.723704,-0.914146,-0.646844,-0.09268,0.34076,0.26558
84.744,0,0,5,5,99.744,99.744,-30.2657,2.11393,-12.5161,0.0898668,-1.87387,0.308368,1,0,12.215,-3.92,2.1525,0.086986,-1.35664,-0.570838,-0.09268,0.34076,0.26558
84.6894,0,0,5,5,99.6894,99.6894,-30.2462,2.1157,-12.5123,0.0898359,-1.87358,0.308538,1,0,14.245,-0.1925,1.3825,0.086986,-1.35664,-0.570838,-0.09268,0.34076,0.26558
81.7729,0,0,5,5,96.7729,96.7729,-29.2046,1.84662,-12.3525,0.124779,-1.4672,0.503217,0,0,14.9625,0.1225,1.6625,0.117364,-0.966362,-0.38674,-0.09268,0.34076,0.26558
78.8251,0,0,5,5,93.8251,93.8251,-28.1518,1.57656,-12.2039,0.129491,-1.45115,0.512154,0,0,21.105,-2.9225,1.5925,0.117364,-0.966362,-0.38674,-0.09268,0.34076,0.26558
78.7358,0,0,5,5,93.7358,93.7358,-28.1199,1.57211,-12.1975,1.10194,-1.13985,0.336356,1,0,21.175,-4.0425,1.0325,1.09385,-0.655872,-0.561444,-0.09002,0.33404,0.26236
78.6354,0,0,5,5,93.6354,93.6354,-28.0841,1.56494,-12.192,-0.694951,-1.64161,0.237927,1,0,23.4325,-5.1975,-0.1925,-0.710772,-1.15766,-0.65941,-0.09002,0.33404,0.26236
78.5017,0,0,5,5,93.5017,93.5017,-28.0363,1.56072,-12.1914,-0.694878,-1.64088,0.23832,1,0,30.1525,-2.2925,-1.9425,-0.710772,-1.15766,-0.65941,-0.09002,0.33404,0.26236
78.37,0,0,5,5,93.37,93.37,-27.9893,1.55902,-12.1924,-0.303664,-1.37538,0.237231,1,0,29.785,-0.5775,-2.03,-0.317932,-0.893162,-0.660874,-0.09002,0.33404,0.26236
78.2259,0,0,5,5,93.2259,93.2259,-27.9378,1.55405,-12.192,-0.303577,-1.37459,0.237654,1,0,32.2525,-2.66,-2.1875,-0.317932,-0.893162,-0.660874,-0.09002,0.33404,0.26236
78.0867,0,0,5,5,93.0867,93.0867,-27.8881,1.54694,-12.1908,-0.142121,-1.76903,0.344045,1,0,31.255,-3.9725,-2.38,-0.155916,-1.28795,-0.55571,-0.09002,0.33404,0.26236
77.9731,0,0,5,5,92.9731,92.9731,-27.8475,1.54216,-12.1889,-0.142037,-1.7684,0.344378,1,0,26.11,-2.9575,-1.4,-0.155916,-1.28795,-0.55571,-0.09002,0.33404,0.26236
77.8686,0,0,5,5,92.8686,92.8686,-27.8102,1.53702,-12.1862,0.134068,-1.62762,0.190629,1,0,24.29,-3.3425,-1.1025,0.121268,-1.1479,-0.708576,-0.09254,0.33432,0.26096
77.7303,0,0,5,5,92.7303,92.7303,-27.7608,1.53345,-12.1852,-0.1889,-1.1524,0.552624,1,0,31.0625,-2.1175,-1.47,-0.20313,-0.673928,-0.349774,-0.09254,0.33432,0.26096
77.5952,0,0,5,5,92.5952,92.5952,-27.7126,1.53053,-12.1843,-0.188849,-1.15166,0.553017,1,0,30.45,-1.715,-1.4,-0.20313,-0.673928,-0.349774,-0.09254,0.33432,0.26096
74.6334,0,0,5,5,89.6334,89.6334,-26.6548,1.08115,-11.8352,-0.141768,-1.45261,0.538124,0,0,32.4625,-1.0325,-1.295,-0.163724,-0.990884,-0.373076,-0.09254,0.33432,0.26096
71.6573,0,0,5,5,86.6573,86.6573,-25.5919,0.633728,-11.5003,-0.13396,-1.436,0.546396,0,0,35.735,-2.275,0.735,-0.163724,-0.990884,-0.373076,-0.09254,0.33432,0.26096
71.4968,0,0,5,5,86.4968,86.4968,-25.5346,0.631211,-11.4962,0.837969,-1.55246,0.43888,1,0,35.5075,-2.3275,0.455,0.812276,-1.10813,-0.480192,-0.09254,0.33432,0.26096
71.3233,0,0,5,5,86.3233,86.3233,-25.4726,0.627769,-11.497,0.838029,-1.55149,0.439346,1,0,38.15,-1.5925,-2.3275,0.812276,-1.10813,-0.480192,-0.09254,0.33432,0.26096
71.1541,0,0,5,5,86.1541,86.1541,-25.4122,0.624805,-11.5005,0.611146,-0.912058,0.478283,1,0,37.31,-0.6475,-3.6575,0.58438,-0.47031,-0.442006,-0.09254,0.33432,0.26096
70.9505,0,0,5,5,85.9505,85.9505,-25.3395,0.624282,-11.5028,0.611155,-0.910911,0.478826,1,0,44.17,0.3325,-2.3975,0.58438,-0.47031,-0.442006,-0.09142,0.32928,0.26852
70.7451,0,0,5,5,85.7451,85.7451,-25.2661,0.622658,-11.5034,-0.316481,-1.25782,0.102168,1,0,44.5375,-0.665,-1.8025,-0.347212,-0.81801,-0.816302,-0.09142,0.32928,0.26852
70.5596,0,0,5,5,85.5596,85.5596,-25.1999,0.620693,-11.5062,-0.316447,-1.25677,0.102661,1,0,40.5475,-0.315,-3.01,-0.347212,-0.81801,-0.816302,-0.09142,0.32928,0.26852
67.6089,0,0,5,5,82.6089,82.6089,-24.1461,0.219432,-11.3461,-0.0831161,-1.21211,0.303414,0,0,39.3225,-0.77,-2.7125,-0.119926,-0.790072,-0.624762,-0.09142,0.32928,0.26852
64.6704,0,0,5,5,79.6704,79.6704,-23.0966,-0.175476,-11.1982,-0.0762237,-1.19533,0.310756,0,0,40.1625,-1.61,-1.6275,-0.119926,-0.790072,-0.624762,-0.09142,0.32928,0.26852
62.3623,0,0,5,5,77.3623,77.3623,-22.2723,-0.00674865,-11.6827,0.542231,-0.903121,0.219917,0,0,38.29,0.21,-2.275,0.504104,-0.511424,-0.72041,-0.09142,0.32928,0.26852
60.0546,0,0,5,5,75.0546,75.0546,-21.4481,0.170366,-12.1647,0.53914,-0.889769,0.225269,0,0,40.8275,1.47,-2.065,0.504104,-0.511424,-0.72041,-0.09142,0.32928,0.26852
57.233,0,0,5,5,72.233,72.233,-20.4404,-0.350371,-11.8849,-0.238999,-1.07717,0.358179,0,0,44.415,0.4025,-1.89,-0.286456,-0.715042,-0.59475,-0.09142,0.32928,0.26852
54.4241,0,0,5,5,69.4241,69.4241,-19.4372,-0.860116,-11.624,-0.230103,-1.06068,0.364061,0,0,46.13,1.5575,-1.9425,-0.286456,-0.715042,-0.59475,-0.08596,0.33012,0.2723
54.1935,0,0,5,5,69.1935,69.1935,-19.3548,-0.860696,-11.6244,0.100713,-1.20319,0.215033,1,0,49.5775,-0.1925,-1.435,0.04575,-0.858758,-0.743102,-0.08596,0.33012,0.2723
53.9628,0,0,5,5,68.9628,68.9628,-19.2724,-0.861274,-11.6249,0.100723,-1.20183,0.215508,1,0,49.5775,-0.1925,-1.435,0.04575,-0.858758,-0.743102,-0.08596,0.33012,0.2723
53.7091,0,0,5,5,68.7091,68.7091,-19.1818,-0.85949,-11.6349,0.0520974,-0.795366,-0.0922024,1,0,54.11,2.94,-6.195,-0.00305,-0.454206,-1.04896,-0.08596,0.33012,0.2723
53.4499,0,0,5,5,68.4499,68.4499,-19.0892,-0.856581,-11.6467,0.693491,-1.58974,0.533521,1,0,55.2125,3.92,-7.035,0.64111,-1.24928,-0.428586,-0.08596,0.33012,0.2723
53.179,0,0,5,5,68.179,68.179,-18.9925,-0.858634,-11.653,0.693527,-1.58814,0.534071,1,0,57.575,0.105,-4.935,0.64111,-1.24928,-0.428586,-0.08596,0.33012,0.2723
52.9378,0,0,5,5,67.9378,67.9378,-18.9063,-0.865908,-11.6589,-0.193313,-1.16502,0.173335,1,0,51.66,-2.8875,-5.6525,-0.249612,-0.828014,-0.787022,-0.08596,0.33012,0.2723
52.693,0,0,5,5,67.693,67.693,-18.8189,-0.867657,-11.6695,-0.193283,-1.16357,0.173828,1,0,52.3075,1.085,-7.28,-0.249612,-0.828014,-0.787022,-0.08596,0.33012,0.2723
52.4436,0,0,5,5,67.4436,67.4436,-18.7299,-0.866955,-11.6778,0.342335,-1.26652,-0.0477167,1,0,53.27,1.995,-5.53,0.288286,-0.932324,-1.00735,-0.08596,0.33012,0.2723
52.1572,0,0,5,5,67.1572,67.1572,-18.6276,-0.867182,-11.6859,0.342339,-1.26483,-0.047145,1,0,60.69,1.4175,-5.5475,0.288286,-0.932324,-1.00735,-0.08456,0.3255,0.27762
51.8784,0,0,5,5,66.8784,66.8784,-18.528,-0.866215,-11.6945,0.321913,-1.4432,0.747533,1,0,59.15,2.1875,-5.67,0.26779,-1.11215,-0.219356,-0.08456,0.3255,0.27762
51.592,0,0,5,5,66.592,66.592,-18.4257,-0.860614,-11.7039,0.321815,-1.4415,0.7481,1,0,60.655,4.8825,-5.1975,0.26779,-1.11215,-0.219356,-0.08456,0.3255,0.27762
51.3094,0,0,5,5,66.3094,66.3094,-18.3248,-0.857661,-11.7107,0.150712,-0.123306,-0.200137,1,0,59.9375,2.94,-4.305,0.096014,0.203008,-1.16083,-0.08456,0.3255,0.27762
50.9701,0,0,5,5,65.9701,65.9701,-18.2036,-0.857556,-11.7138,0.15071,-0.121299,-0.199475,1,0,71.295,0.6475,-2.7125,0.096014,0.203008,-1.16083,-0.08456,0.3255,0.27762
50.6222,0,0,5,5,65.6222,65.6222,-18.0794,-0.85822,-11.7187,0.221183,0.660419,-0.360477,1,0,73.0275,0.56,-3.9025,0.166774,0.981856,-1.32126,-0.08456,0.3255,0.27762
50.2695,0,0,5,5,65.2695,65.2695,-17.9534,-0.861458,-11.7198,0.22124,0.66251,-0.359798,1,0,74.0075,-1.5575,-2.2925,0.166774,0.981856,-1.32126,-0.08456,0.3255,0.27762
49.8696,0,0,5,5,64.8696,64.8696,-17.8106,-0.871882,-11.7192,-0.321498,-0.53831,-0.384117,1,0,83.475,-5.8975,-2.555,-0.378444,-0.220088,-1.34615,-0.08456,0.3255,0.27762
49.4945,0,0,5,5,64.4945,64.4945,-17.6766,-0.872261,-11.7254,-0.321491,-0.536083,-0.383404,1,0,78.4525,0.945,-4.62,-0.378444,-0.220088,-1.34615,-0.08834,0.31822,0.2884
49.1042,0,0,5,5,64.1042,64.1042,-17.5372,-0.870109,-11.7312,-0.250581,0.207544,0.268713,1,0,81.4975,2.2575,-3.885,-0.307196,0.520452,-0.699792,-0.08834,0.31822,0.2884
48.7313,0,0,5,5,63.7313,63.7313,-17.404,-0.874558,-11.7292,-0.250503,0.209762,0.26941,1,0,78.085,-2.8,-0.735,-0.307196,0.520452,-0.699792,-0.08834,0.31822,0.2884
48.3391,0,0,5,5,63.3391,63.3391,-17.2639,-0.882548,-11.7281,-0.38084,-1.2086,0.0355506,1,0,81.9525,-4.62,-1.855,-0.438224,-0.898774,-0.932568,-0.08834,0.31822,0.2884
47.9419,0,0,5,5,62.9419,62.9419,-17.1221,-0.884878,-11.724,-0.380799,-1.20624,0.0362816,1,0,82.95,-1.995,0.875,-0.438224,-0.898774,-0.932568,-0.08834,0.31822,0.2884
47.523,0,0,5,5,62.523,62.523,-16.9725,-0.882396,-11.7186,-0.267739,-1.19532,-0.866255,1,0,87.325,0.5075,2.345,-0.324642,-0.890356,-1.8289,-0.08834,0.31822,0.2884
47.0552,0,0,5,5,62.0552,62.0552,-16.8054,-0.888201,-11.7114,-0.267638,-1.19253,-0.865409,1,0,97.1425,-4.445,1.9775,-0.324642,-0.890356,-1.8289,-0.08834,0.31822,0.2884
46.571,0,0,5,5,61.571,61.571,-16.6325,-0.896138,-11.6992,-0.824268,-1.32837,0.525881,1,0,100.45,-6.475,4.4275,-0.883768,-1.02895,-0.449204,-0.08834,0.31822,0.2884
46.1176,0,0,5,5,61.1176,61.1176,-16.4706,-0.901501,-11.6825,-0.824175,-1.32566,0.526685,1,0,94.325,-5.7575,7.3675,-0.883768,-1.02895,-0.449204,-0.08204,0.31248,0.29666
45.6427,0,0,5,5,60.6427,60.6427,-16.301,-0.90736,-11.6664,-0.412236,-1.6511,0.122157,1,0,98.63,-5.9325,7.035,-0.470188,-1.35688,-0.851438,-0.08204,0.31248,0.29666
45.0629,0,0,5,5,60.0629,60.0629,-16.0939,-0.918368,-11.6462,-0.412044,-1.64763,0.123162,1,0,119.683,-9.45,8.435,-0.470188,-1.35688,-0.851438,-0.08204,0.31248,0.29666
44.5309,0,0,5,5,59.5309,59.5309,-15.9039,-0.917084,-11.622,-0.163992,0.932433,-0.567017,1,0,110.128,-3.15,12.7225,-0.221064,1.21732,-1.5372,-0.08204,0.31248,0.29666
43.9533,0,0,5,5,58.9533,58.9533,-15.6976,-0.925408,-11.5995,-0.163847,0.935898,-0.566039,1,0,119.263,-8.2425,10.2375,-0.221064,1.21732,-1.5372,-0.08204,0.31248,0.29666
43.3556,0,0,5,5,58.3556,58.3556,-15.4841,-0.935723,-11.5841,0.0456526,-2.24216,0.605921,1,0,123.218,-8.2075,5.9675,-0.010858,-1.96103,-0.375272,-0.08204,0.31248,0.29666
42.8221,0,0,5,5,57.8221,57.8221,-15.2936,-0.945543,-11.5686,0.045824,-2.23895,0.6068,1,0,110.373,-7.9275,6.16,-0.010858,-1.96103,-0.375272,-0.08204,0.31248,0.29666
42.3268,0,0,5,5,57.3268,57.3268,-15.1167,-0.953637,-11.5524,0.577951,-0.329452,0.393186,1,0,102.725,-7.035,6.8425,0.52338,-0.056486,-0.58804,-0.08204,0.31248,0.29666
41.8315,0,0,5,5,56.8315,56.8315,-14.9398,-0.96178,-11.5362,0.578093,-0.32647,0.393984,1,0,102.725,-7.035,6.8425,0.52338,-0.056486,-0.58804,-0.08834,0.30184,0.31318
41.2323,0,0,5,5,56.2323,56.2323,-14.7258,-0.97757,-11.5197,-0.146293,-1.9524,-0.573038,1,0,123.515,-11.375,5.8625,-0.20435,-1.68433,-1.54855,-0.08834,0.30184,0.31318
