pid_x,pid_y,pid_z,front_left_speed,front_right_speed,back_left_speed,back_right_speed,orientation_x,orientation_y,orientation_z,acceleration_x,acceleration_y,acceleration_z,accel_rejected,mag_rejected,gyro_x,gyro_y,gyro_z,accel_x,accel_y,accel_z,mag_x,mag_y,mag_z
-0.300308,0,0,5.30031,5.30031,5,5,0.484368,-0.0538723,-0.244622,0.0345142,-0.419423,0.0825242,0,0,3.675,0.0875,-0.1225,-0.006588,-0.415288,-0.930738,-0.05362,0.25564,0.35042
-0.598401,0,0,5.5984,5.5984,5,5,0.965163,-0.100015,-0.492169,0.03945,-0.413719,0.0890562,0,0,3.5525,-0.035,-0.1925,-0.00244,-0.417972,-0.92415,-0.05362,0.25564,0.35042
-0.889097,0,0,5.8891,5.8891,5,5,1.43403,-0.149841,-0.73208,0.0344884,-0.40395,0.0848256,0,0,3.465,-0.1575,-0.21,-0.008296,-0.416386,-0.928176,-0.05362,0.25564,0.35042
-1.17536,0,0,6.17536,6.17536,5,5,1.89575,-0.195639,-0.970937,0.0356521,-0.396262,0.0868022,0,0,3.465,0.035,-0.245,-0.00793,-0.416752,-0.92598,-0.05362,0.25564,0.35042
-1.45631,0,0,6.45631,6.45631,5,5,2.34889,-0.234764,-1.19938,0.036335,-0.388359,0.0865067,0,0,3.3775,-0.105,-0.21,-0.00793,-0.416752,-0.92598,-0.0511,0.25116,0.35406
-1.73145,0,0,6.73145,6.73145,5,5,2.79266,-0.265112,-1.43108,0.0412381,-0.379644,0.0854193,0,0,3.5175,-0.14,-0.14,-0.003538,-0.415776,-0.926712,-0.0511,0.25116,0.35406
-2.00151,0,0,7.00151,7.00151,5,5,3.22824,-0.295073,-1.65949,0.0399388,-0.369977,0.0891978,0,0,3.5175,-0.28,-0.21,-0.005368,-0.413702,-0.922564,-0.0511,0.25116,0.35406
-2.26684,0,0,7.26684,7.26684,5,5,3.65619,-0.32213,-1.88634,0.040411,-0.362521,0.0887468,0,0,3.6925,-0.1575,-0.245,-0.005368,-0.413702,-0.922564,-0.0511,0.25116,0.35406
-2.52745,0,0,7.52745,7.52745,5,5,4.07653,-0.349198,-2.10906,0.0389396,-0.357644,0.0837002,0,0,3.6925,-0.0175,-0.1925,-0.00732,-0.416142,-0.927078,-0.0511,0.25116,0.35406
-2.78319,0,0,7.78319,7.78319,5,5,4.48902,-0.372974,-2.33018,0.0393546,-0.350466,0.08316,0,0,3.6225,0.42,-0.245,-0.00732,-0.416142,-0.927078,-0.0511,0.25116,0.35406
-3.03315,0,0,8.03315,8.03315,5,5,4.89218,-0.39863,-2.5467,0.0370082,-0.341499,0.0830734,0,0,3.6225,-0.14,-0.1575,-0.010126,-0.41419,-0.92659,-0.0511,0.25116,0.35406
-3.27686,0,0,8.27686,8.27686,5,5,5.28525,-0.416295,-2.766,0.0413255,-0.334666,0.077053,0,0,3.605,-0.14,-0.1925,-0.0061,-0.41419,-0.931958,-0.0511,0.25116,0.35406
-3.51593,0,0,8.51593,8.51593,5,5,5.67085,-0.430672,-2.98134,0.0415765,-0.327967,0.0764087,0,0,3.57,0,-0.1925,-0.0061,-0.41419,-0.931958,-0.0532,0.25032,0.3535
-3.75186,0,0,8.75186,8.75186,5,5,6.05139,-0.441019,-3.19666,0.0435793,-0.323925,0.0748685,0,0,3.6575,0,-0.2625,-0.00427,-0.416752,-0.932812,-0.0532,0.25032,0.3535
-3.98318,0,0,8.98318,8.98318,5,5,6.42448,-0.449561,-3.40991,0.0437284,-0.317453,0.0741598,0,0,3.4825,-0.0525,-0.1225,-0.00427,-0.416752,-0.932812,-0.0532,0.25032,0.3535
-4.21102,0,0,9.21102,9.21102,5,5,6.79197,-0.456262,-3.6212,0.0437239,-0.309982,0.0784617,0,0,3.64,0.035,-0.1225,-0.004392,-0.415654,-0.92781,-0.0532,0.25032,0.3535
-4.43439,0,0,9.43439,9.43439,5,5,7.15224,-0.461313,-3.83045,0.043812,-0.303741,0.0776978,0,0,3.4825,-0.0175,-0.0175,-0.004392,-0.415654,-0.92781,-0.0532,0.25032,0.3535
-4.65364,0,0,9.65364,9.65364,5,5,7.50586,-0.471597,-4.03238,0.0387676,-0.297498,0.077032,0,0,3.57,0.105,-0.105,-0.009638,-0.415532,-0.927688,-0.0532,0.25032,0.3535
-4.86875,0,0,9.86875,9.86875,5,5,7.85282,-0.480105,-4.23257,0.0389161,-0.291497,0.0762216,0,0,3.57,0.105,-0.105,-0.009638,-0.415532,-0.927688,-0.0532,0.25032,0.3535
-5.0787,0,0,10.0787,10.0787,5,5,8.19145,-0.479808,-4.43625,0.0437704,-0.283935,0.0756427,0,0,3.64,0.14,-0.0875,-0.004758,-0.413824,-0.927444,-0.0532,0.25032,0.3535
-5.28432,0,0,10.2843,10.2843,5,5,8.52309,-0.482088,-4.64821,0.0432027,-0.279308,0.070375,0,0,3.7625,0.21,-0.0875,-0.005368,-0.414922,-0.931836,-0.05292,0.25438,0.34594
-5.48621,0,0,10.4862,10.4862,5,5,8.84873,-0.487802,-4.85473,0.0400223,-0.272957,0.0724667,0,0,3.5525,-0.035,-0.035,-0.008662,-0.41419,-0.928908,-0.05292,0.25438,0.34594
-5.68444,0,0,10.6844,10.6844,5,5,9.16845,-0.491787,-5.05941,0.0400919,-0.267446,0.0715924,0,0,3.7275,0.035,-0.07,-0.008662,-0.41419,-0.928908,-0.05292,0.25438,0.34594
-5.8788,0,0,10.8788,10.8788,5,5,9.48194,-0.494056,-5.26254,0.0404959,-0.263269,0.0680006,0,0,3.745,-0.0875,-0.105,-0.008296,-0.41541,-0.931592,-0.05292,0.25438,0.34594
-6.06945,0,0,11.0694,11.0694,5,5,9.78943,-0.494692,-5.46376,0.040507,-0.257978,0.0671022,0,0,3.7625,0.0175,-0.1225,-0.008296,-0.41541,-0.931592,-0.05292,0.25438,0.34594
-6.25869,0,0,11.2587,11.2587,5,5,10.0947,-0.490738,-5.66564,0.0432322,-0.254562,0.0708551,0,0,3.675,-0.07,-0.1575,-0.00549,-0.41724,-0.926956,-0.05292,0.25438,0.34594
-6.4443,0,0,11.4443,11.4443,5,5,10.394,-0.485635,-5.86586,0.0431431,-0.249421,0.0699267,0,0,3.6925,-0.1575,-0.315,-0.00549,-0.41724,-0.926956,-0.05292,0.25438,0.34594
-6.621,0,0,11.621,11.621,5,5,10.679,-0.476154,-6.06637,0.0441925,-0.237936,0.0652071,0,0,3.6575,-0.0875,-0.1575,-0.00427,-0.410652,-0.930738,-0.05026,0.2534,0.34398
-6.79695,0,0,11.7969,11.7969,5,5,10.9628,-0.465213,-6.26524,0.0449735,-0.237711,0.0639099,0,0,3.605,-0.07,-0.175,-0.003294,-0.415288,-0.931104,-0.05026,0.2534,0.34398
-6.9693,0,0,11.9693,11.9693,5,5,11.2408,-0.456924,-6.45948,0.0422776,-0.232828,0.0621162,0,0,3.6925,-0.0875,-0.14,-0.005856,-0.415166,-0.931958,-0.05026,0.2534,0.34398
-7.13819,0,0,12.1382,12.1382,5,5,11.5132,-0.447603,-6.65182,0.0421149,-0.228167,0.0611797,0,0,3.5875,-0.07,-0.1575,-0.005856,-0.415166,-0.931958,-0.05026,0.2534,0.34398
-7.30269,0,0,12.3027,12.3027,5,5,11.7785,-0.434875,-6.844,0.0433506,-0.221677,0.0611072,0,0,3.5525,-0.07,-0.175,-0.004392,-0.413214,-0.931104,-0.05026,0.2534,0.34398
-7.46398,0,0,12.464,12.464,5,5,12.0387,-0.421379,-7.03445,0.0431151,-0.217234,0.060172,0,0,3.5525,-0.1225,-0.28,-0.004392,-0.413214,-0.931104,-0.05026,0.2534,0.34398
-7.62536,0,0,12.6254,12.6254,5,5,12.299,-0.410187,-7.22043,0.0412189,-0.21548,0.0646256,0,0,3.5175,0,-0.21,-0.0061,-0.415898,-0.925736,-0.05026,0.2534,0.34398
-7.78372,0,0,12.7837,12.7837,5,5,12.5544,-0.397947,-7.40453,0.0410053,-0.211127,0.0636678,0,0,3.64,0.1225,-0.245,-0.0061,-0.415898,-0.925736,-0.05026,0.2534,0.34398
-7.93748,0,0,12.9375,12.9375,5,5,12.8024,-0.383826,-7.57259,0.039301,-0.205072,0.0623506,0,0,3.64,0.14,-0.1575,-0.007564,-0.414068,-0.926102,-0.0525,0.2499,0.35602
-8.0873,0,0,13.0873,13.0873,5,5,13.044,-0.361535,-7.74452,0.0441359,-0.200594,0.0598115,0,0,3.6225,0,-0.21,-0.002318,-0.413702,-0.927688,-0.0525,0.2499,0.35602
-8.2342,0,0,13.2342,13.2342,5,5,13.281,-0.338856,-7.91466,0.0437401,-0.196567,0.0588723,0,0,3.6225,0,-0.21,-0.002318,-0.413702,-0.927688,-0.0525,0.2499,0.35602
-8.37945,0,0,13.3795,13.3795,5,5,13.5152,-0.322791,-8.07835,0.0390862,-0.193688,0.0600165,0,0,3.465,-0.1575,-0.245,-0.00671,-0.4148,-0.925614,-0.0525,0.2499,0.35602
-8.52186,0,0,13.5219,13.5219,5,5,13.7449,-0.306207,-8.24036,0.0387967,-0.189792,0.0590734,0,0,3.465,-0.1575,-0.245,-0.00671,-0.4148,-0.925614,-0.0525,0.2499,0.35602
-8.66512,0,0,13.6651,13.6651,5,5,13.976,-0.266834,-8.4155,0.0541457,-0.193692,0.0558975,0,0,3.535,0.0175,-0.2275,0.009394,-0.422608,-0.92781,-0.0525,0.2499,0.35602
-8.80559,0,0,13.8056,13.8056,5,5,14.2026,-0.227576,-8.5887,0.0534605,-0.189856,0.0549378,0,0,3.535,0.0175,-0.2275,0.009394,-0.422608,-0.92781,-0.0525,0.2499,0.35602
-8.91533,0,0,13.9153,13.9153,5,5,14.3796,-0.236952,-8.72864,0.0153562,-0.154377,0.0220851,0,0,3.675,-0.175,-0.2625,-0.029036,-0.390156,-0.959652,-0.0525,0.2499,0.35602
-9.00743,0,0,14.0074,14.0074,5,5,14.5281,-0.140401,-8.94475,0.0813385,-0.121577,0.0475084,0,0,3.5875,0,-0.2625,0.038918,-0.3599,-0.933788,-0.04942,0.25228,0.35994
-9.09804,0,0,14.098,14.098,5,5,14.6743,-0.0461127,-9.15885,0.0796929,-0.119108,0.0468679,0,0,3.885,-0.21,-0.42,0.038918,-0.3599,-0.933788,-0.04942,0.25228,0.35994
-9.217,0,0,14.217,14.217,5,5,14.8661,0.0302455,-9.3592,0.0951252,-0.272681,-0.197424,0,0,3.885,-0.5775,-0.98,0.055754,-0.516548,-1.17535,-0.04942,0.25228,0.35994
-9.21734,0,0,14.2173,14.2173,5,5,14.8667,0.0296885,-9.36075,0.095135,-0.272671,-0.197426,1,0,3.885,-0.5775,-0.98,0.055754,-0.516548,-1.17535,-0.04942,0.25228,0.35994
-9.28604,0,0,14.286,14.286,5,5,14.9775,-0.464405,-9.16358,-0.336506,-0.0860335,0.00490934,0,0,3.22,0.665,-0.4375,-0.386374,-0.331962,-0.974048,-0.04942,0.25228,0.35994
-9.40437,0,0,14.4044,14.4044,5,5,15.1683,-0.116681,-9.53311,0.205447,-0.0824426,0.250707,0,0,3.0275,0.5775,-0.3675,0.163968,-0.331596,-0.729316,-0.04942,0.25228,0.35994
-9.40357,0,0,14.4036,14.4036,5,5,15.1671,-0.115816,-9.53224,0.205432,-0.0824645,0.250713,1,0,2.8525,0.595,0.175,0.163968,-0.331596,-0.729316,-0.04942,0.25228,0.35994
-9.47526,0,0,14.4753,14.4753,5,5,15.2827,0.0199218,-9.76491,0.0995574,-0.0869894,0.067361,0,0,2.9575,0.4725,0.315,0.060024,-0.338062,-0.91073,-0.04942,0.25228,0.35994
-9.54597,0,0,14.546,14.546,5,5,15.3967,0.149574,-10.0038,0.0972946,-0.0850707,0.0668312,0,0,3.2025,-0.315,0.7175,0.060024,-0.338062,-0.91073,-0.04774,0.259,0.37156
-9.77654,0,0,14.7765,14.7765,5,5,15.7686,0.48019,-10.356,0.37981,-0.526666,-0.144447,0,0,4.725,-0.35,0.9275,0.34953,-0.785436,-1.11862,-0.04774,0.259,0.37156
-9.77803,0,0,14.778,14.778,5,5,15.771,0.478564,-10.3548,0.379838,-0.526626,-0.144458,1,0,4.9175,-0.7525,0.7525,0.34953,-0.785436,-1.11862,-0.04774,0.259,0.37156
-10.2069,0,0,15.2069,15.2069,5,5,16.4627,-0.416431,-9.83899,-0.464296,-0.395831,0.516244,0,0,3.955,-0.5775,0.49,-0.513864,-0.666364,-0.459696,-0.04774,0.259,0.37156
-10.6269,0,0,15.6269,15.6269,5,5,17.1401,-1.2909,-9.34202,-0.449035,-0.384579,0.512609,0,0,3.36,0.105,1.2425,-0.513864,-0.666364,-0.459696,-0.04774,0.259,0.37156
-10.4709,0,0,15.4709,15.4709,5,5,16.8886,-1.32065,-9.45022,-0.0231946,0.239441,0.288271,0,0,3.15,-0.49,1.4525,-0.086742,-0.038796,-0.683566,-0.04774,0.259,0.37156
-10.4703,0,0,15.4703,15.4703,5,5,16.8876,-1.32098,-9.44823,-0.0231887,0.239425,0.288276,1,0,3.0625,0.1225,0.98,-0.086742,-0.038796,-0.683566,-0.04774,0.259,0.37156
-10.4699,0,0,15.4699,15.4699,5,5,16.887,-1.3205,-9.44669,0.220382,-0.0298754,0.422047,1,0,3.2375,0.5075,0.595,0.157868,-0.307806,-0.55083,-0.04774,0.259,0.37156
-10.4703,0,0,15.4703,15.4703,5,5,16.8876,-1.31853,-9.44488,0.220347,-0.0298656,0.422045,1,0,3.92,1.3825,0.49,0.157868,-0.307806,-0.55083,-0.0497,0.26334,0.37828
-10.4705,0,0,15.4705,15.4705,5,5,16.888,-1.317,-9.44318,0.467422,-0.185082,-0.0332344,1,0,3.815,1.12,0.5075,0.406016,-0.462868,-1.0026,-0.0497,0.26334,0.37828
-10.4711,0,0,15.4711,15.4711,5,5,16.8889,-1.31853,-9.44156,0.467449,-0.185066,-0.0332398,1,0,4.13,-0.6125,0.98,0.406016,-0.462868,-1.0026,-0.0497,0.26334,0.37828
-10.6234,0,0,15.6234,15.6234,5,5,17.1345,-1.26178,-9.60892,0.0659206,-0.182549,0.108394,0,0,4.55,-1.4875,0.3675,0.003782,-0.464454,-0.860832,-0.0497,0.26334,0.37828
-10.7724,0,0,15.7724,15.7724,5,5,17.3748,-1.20341,-9.77498,0.0649021,-0.178539,0.107171,0,0,4.235,-0.42,-0.4725,0.003782,-0.464454,-0.860832,-0.0497,0.26334,0.37828
-10.7727,0,0,15.7727,15.7727,5,5,17.3753,-1.20319,-9.77552,0.0356202,-0.00840753,0.364745,1,0,3.8675,0,-0.525,-0.02562,-0.294508,-0.605242,-0.0497,0.26334,0.37828
-10.7722,0,0,15.7722,15.7722,5,5,17.3745,-1.20296,-9.77659,0.0356162,-0.00842138,0.36475,1,0,3.0975,-0.0875,-0.8225,-0.02562,-0.294508,-0.605242,-0.0497,0.26334,0.37828
-10.8866,0,0,15.8866,15.8866,5,5,17.5591,-0.856281,-10.1268,0.230868,-0.124268,0.15217,0,0,2.0825,-0.525,-0.875,0.176534,-0.413336,-0.815326,-0.0497,0.26334,0.37828
-10.9989,0,0,15.9989,15.9989,5,5,17.7401,-0.520589,-10.4883,0.22501,-0.121235,0.151279,0,0,1.6975,0.2625,-1.925,0.176534,-0.413336,-0.815326,-0.04704,0.27314,0.38598
-10.9972,0,0,15.9972,15.9972,5,5,17.7375,-0.518921,-10.4906,-0.333246,0.131889,0.40469,1,0,2.065,0.49,-1.7675,-0.384056,-0.16043,-0.563884,-0.04704,0.27314,0.38598
-10.9966,0,0,15.9966,15.9966,5,5,17.7365,-0.516532,-10.4927,-0.333288,0.131874,0.404695,1,0,3.045,0.9275,-1.785,-0.384056,-0.16043,-0.563884,-0.04704,0.27314,0.38598
-10.997,0,0,15.997,15.997,5,5,17.7371,-0.515175,-10.4958,-0.431472,0.265245,-0.311359,1,0,3.8675,0.175,-2.1525,-0.482632,-0.027206,-1.27441,-0.04704,0.27314,0.38598
-10.9996,0,0,15.9996,15.9996,5,5,17.7413,-0.514069,-10.4969,-0.431491,0.265316,-0.311382,1,0,5.95,0.4025,-0.9625,-0.482632,-0.027206,-1.27441,-0.04704,0.27314,0.38598
-11.0022,0,0,16.0022,16.0022,5,5,17.7455,-0.513971,-10.4968,0.505526,-0.0709511,-0.301077,1,0,5.95,0.035,-0.175,0.458354,-0.363194,-1.26416,-0.04704,0.27314,0.38598
-11.0034,0,0,16.0034,16.0034,5,5,17.7474,-0.514443,-10.4987,0.505535,-0.0709194,-0.301087,1,0,4.6375,-0.63,-1.155,0.458354,-0.363194,-1.26416,-0.04704,0.27314,0.38598
-11.146,0,0,16.146,16.146,5,5,17.9775,-0.796079,-10.4628,-0.141686,-0.137949,0.137169,0,0,4.3575,-1.12,-1.2775,-0.196542,-0.433954,-0.828014,-0.04704,0.27314,0.38598
-11.2838,0,0,16.2838,16.2838,5,5,18.1996,-1.06789,-10.4215,-0.136942,-0.134288,0.135892,0,0,2.695,0.07,-0.84,-0.196542,-0.433954,-0.828014,-0.0518,0.27076,0.38444
-11.2813,0,0,16.2813,16.2813,5,5,18.1957,-1.06686,-10.4212,-0.127363,0.226043,0.17956,1,0,1.4,0.595,-0.2275,-0.186904,-0.073932,-0.784704,-0.0518,0.27076,0.38444
-11.2786,0,0,16.2786,16.2786,5,5,18.1913,-1.06798,-10.4209,-0.127343,0.22597,0.179584,1,0,1.1025,-0.595,0.1925,-0.186904,-0.073932,-0.784704,-0.0518,0.27076,0.38444
-11.3991,0,0,16.3991,16.3991,5,5,18.3856,-1.05095,-10.5626,0.0374586,-0.194589,-0.00159408,0,0,2.0825,-0.8225,-0.2275,-0.021106,-0.497272,-0.963434,-0.0518,0.27076,0.38444
-11.5189,0,0,16.5189,16.5189,5,5,18.5788,-1.03103,-10.7018,0.0371111,-0.191389,-0.00265696,0,0,3.64,0.7525,-0.1925,-0.021106,-0.497272,-0.963434,-0.0518,0.27076,0.38444
-11.5196,0,0,16.5196,16.5196,5,5,18.58,-1.02886,-10.7003,0.232787,-0.391168,-0.0731125,1,0,4.27,1.47,0.2625,0.175436,-0.696864,-1.03334,-0.0518,0.27076,0.38444
-11.5217,0,0,16.5217,16.5217,5,5,18.5834,-1.02903,-10.6979,0.23279,-0.391113,-0.0731312,1,0,5.4775,0.315,1.155,0.175436,-0.696864,-1.03334,-0.0518,0.27076,0.38444
-11.5243,0,0,16.5243,16.5243,5,5,18.5875,-1.03064,-10.6965,-0.0977449,0.0696179,-0.183931,1,0,5.9325,-0.6475,0.9275,-0.156526,-0.23668,-1.14326,-0.0518,0.27076,0.38444
-11.527,0,0,16.527,16.527,5,5,18.592,-1.03316,-10.6961,-0.0977008,0.0696911,-0.183957,1,0,6.0725,-1.365,0.4725,-0.156526,-0.23668,-1.14326,-0.05362,0.27832,0.3738
-11.6921,0,0,16.6921,16.6921,5,5,18.8582,-1.06309,-10.8183,0.0170178,-0.185432,0.131258,0,0,4.4275,-0.49,0.7175,-0.041846,-0.49593,-0.82899,-0.05362,0.27832,0.3738
-11.8529,0,0,16.8529,16.8529,5,5,19.1176,-1.09064,-10.9385,0.0174987,-0.181155,0.129777,0,0,3.57,-0.14,1.155,-0.041846,-0.49593,-0.82899,-0.05362,0.27832,0.3738
-11.8514,0,0,16.8514,16.8514,5,5,19.1152,-1.09209,-10.9372,0.00112339,0.0960336,0.0908153,1,0,2.2575,-0.595,0.77,-0.058316,-0.21899,-0.867664,-0.05362,0.27832,0.3738
-11.8492,0,0,16.8492,16.8492,5,5,19.1117,-1.09263,-10.9368,0.00113285,0.0959756,0.0908352,1,0,1.61,-0.245,0.1575,-0.058316,-0.21899,-0.867664,-0.05362,0.27832,0.3738
-11.9015,0,0,16.9015,16.9015,5,5,19.196,-1.19183,-11.017,-0.0527767,-0.0691044,0.0198703,0,0,1.4875,0.385,-0.21,-0.114192,-0.385276,-0.93757,-0.05362,0.27832,0.3738
-11.9544,0,0,16.9544,16.9544,5,5,19.2813,-1.28676,-11.0957,-0.0511201,-0.0677111,0.0193461,0,0,3.045,1.2075,0.0525,-0.114192,-0.385276,-0.93757,-0.05362,0.27832,0.3738
-12.0351,0,0,17.0351,17.0351,5,5,19.4114,-0.904345,-11.4611,0.266938,-0.123414,0.0562133,0,0,4.2175,1.015,-0.07,0.211914,-0.443104,-0.90036,-0.05362,0.27832,0.3738
-12.1155,0,0,17.1155,17.1155,5,5,19.5412,-0.534311,-11.8224,0.26048,-0.121252,0.0555348,0,0,5.3375,-0.63,-0.28,0.211914,-0.443104,-0.90036,-0.05362,0.27832,0.3738
-12.2608,0,0,17.2608,17.2608,5,5,19.7755,-0.536913,-11.9405,0.0288524,-0.196172,0.0616584,0,0,5.1975,-0.175,0.0875,-0.02074,-0.521794,-0.892918,-0.04424,0.26894,0.37562
-12.426,0,0,17.426,17.426,5,5,20.0419,-0.463218,-12.1015,0.079805,-0.193629,0.129674,0,0,4.62,-0.525,-0.1575,0.03172,-0.523624,-0.823866,-0.04424,0.26894,0.37562
-12.5876,0,0,17.5876,17.5876,5,5,20.3026,-0.390483,-12.2611,0.0785356,-0.189355,0.128115,0,0,4.2525,-0.7525,-0.5775,0.03172,-0.523624,-0.823866,-0.04424,0.26894,0.37562
-12.5877,0,0,17.5877,17.5877,5,5,20.3028,-0.390695,-12.2618,0.120087,-0.0546472,0.207538,1,0,3.6575,-0.28,-0.5075,0.073444,-0.389058,-0.745054,-0.04424,0.26894,0.37562
-12.5875,0,0,17.5875,17.5875,5,5,20.3025,-0.389661,-12.2626,0.120069,-0.0546519,0.20754,1,0,3.4125,0.3675,-0.8575,0.073444,-0.389058,-0.745054,-0.04424,0.26894,0.37562
-12.5863,0,0,17.5863,17.5863,5,5,20.3006,-0.388132,-12.2636,0.16074,-0.0714145,-0.242317,1,0,2.5025,0.6125,-1.0325,0.114314,-0.405772,-1.19145,-0.04424,0.26894,0.37562
-12.5853,0,0,17.5853,17.5853,5,5,20.2989,-0.386254,-12.2648,0.160708,-0.0714421,-0.242306,1,0,2.625,0.7525,-1.2425,0.114314,-0.405772,-1.19145,-0.04424,0.26894,0.37562
-12.5836,0,0,17.5836,17.5836,5,5,20.2962,-0.436079,-12.3633,-0.0368089,-0.0278885,-0.0898397,0,0,3.22,0.455,-0.9275,-0.084912,-0.362218,-1.04017,-0.04424,0.26894,0.37562
-12.5815,0,0,17.5815,17.5815,5,5,20.2928,-0.484928,-12.4742,-0.0359564,-0.0279463,-0.0898256,0,0,2.835,0.2975,-0.455,-0.084912,-0.362218,-1.04017,-0.04284,0.2765,0.37702
-12.5819,0,0,17.5819,17.5819,5,5,20.2933,-0.485159,-12.4754,-0.0172436,-0.224195,-0.0808536,1,0,3.8675,-0.4025,-0.805,-0.066124,-0.558272,-1.03127,-0.04284,0.2765,0.37702
-12.5823,0,0,17.5823,17.5823,5,5,20.2941,-0.486213,-12.476,-0.0172252,-0.224183,-0.0808583,1,0,3.99,-0.735,-0.315,-0.066124,-0.558272,-1.03127,-0.04284,0.2765,0.37702
-12.7226,0,0,17.7226,17.7226,5,5,20.5203,-0.405432,-12.6522,0.078675,-0.145493,0.144124,0,0,4.13,-1.0325,-0.35,0.031598,-0.483364,-0.806664,-0.04284,0.2765,0.37702
-12.8612,0,0,17.8612,17.8612,5,5,20.7438,-0.325996,-12.8255,0.0772886,-0.141839,0.142757,0,0,5.0575,-1.05,-0.105,0.031598,-0.483364,-0.806664,-0.04284,0.2765,0.37702
-12.8437,0,0,17.8437,17.8437,5,5,20.7156,-0.302592,-12.9795,0.0122498,0.0062076,-0.0573497,0,0,4.8125,-0.8575,0.14,-0.033306,-0.335012,-1.0054,-0.04284,0.2765,0.37702
-12.8269,0,0,17.8269,17.8269,5,5,20.6885,-0.27874,-13.1323,0.0118335,0.00576534,-0.0571803,0,0,5.075,-0.245,-0.2275,-0.033306,-0.335012,-1.0054,-0.04284,0.2765,0.37702
-12.8274,0,0,17.8274,17.8274,5,5,20.6894,-0.279049,-13.1328,-0.38955,-0.230902,-0.226486,1,0,4.0775,-0.2975,-0.385,-0.436394,-0.571448,-1.1734,-0.04284,0.2765,0.37702
-12.8277,0,0,17.8277,17.8277,5,5,20.6898,-0.279259,-13.1327,-0.389546,-0.230895,-0.226489,1,0,3.815,-0.1225,-0.0875,-0.436394,-0.571448,-1.1734,-0.03892,0.2723,0.38472
-12.8475,0,0,17.8475,17.8475,5,5,20.7218,-0.0228484,-13.413,0.165177,-0.0242189,0.0548773,0,0,3.5,0.0875,0.07,0.125172,-0.365512,-0.894016,-0.03892,0.2723,0.38472
-12.8659,0,0,17.8659,17.8659,5,5,20.7515,0.226733,-13.6898,0.160821,-0.0237369,0.0546866,0,0,2.485,0.1575,0.2275,0.125172,-0.365512,-0.894016,-0.03892,0.2723,0.38472
-12.8651,0,0,17.8651,17.8651,5,5,20.7501,0.226171,-13.6892,0.286447,-0.464026,0.208504,1,0,2.8,-0.21,0.2625,0.25132,-0.805322,-0.741394,-0.03892,0.2723,0.38472
-12.8637,0,0,17.8637,17.8637,5,5,20.7479,0.224947,-13.6884,0.286469,-0.464063,0.208518,1,0,2.3275,-0.525,0.525,0.25132,-0.805322,-0.741394,-0.03892,0.2723,0.38472
-12.864,0,0,17.864,17.864,5,5,20.7484,0.224121,-13.6876,0.434574,-0.325806,0.14913,1,0,3.885,-0.315,0.42,0.400038,-0.667218,-0.80032,-0.03892,0.2723,0.38472
-12.8657,0,0,17.8657,17.8657,5,5,20.7511,0.22305,-13.6873,0.434593,-0.325763,0.149114,1,0,5.075,-0.5425,0.2275,0.400038,-0.667218,-0.80032,-0.03892,0.2723,0.38472
-12.8669,0,0,17.8669,17.8669,5,5,20.753,0.222909,-13.687,-0.326513,0.0446792,-0.0915084,1,0,4.655,-0.0525,-0.0175,-0.364292,-0.297192,-1.03907,-0.03892,0.2723,0.38472
-12.8692,0,0,17.8692,17.8692,5,5,20.7567,0.223335,-13.6867,-0.32652,0.0447401,-0.0915316,1,0,5.67,0.2625,-0.1225,-0.364292,-0.297192,-1.03907,-0.04354,0.27342,0.39116
-12.8709,0,0,17.8709,17.8709,5,5,20.7596,0.223776,-13.6866,-0.160943,-0.32135,-0.267611,1,0,5.1625,0.245,-0.1925,-0.198006,-0.662948,-1.21378,-0.04354,0.27342,0.39116
-12.8673,0,0,17.8673,17.8673,5,5,20.7536,0.224545,-13.6864,-0.160956,-0.321447,-0.267575,1,0,0.245,0.4375,-0.2275,-0.198006,-0.662948,-1.21378,-0.04354,0.27342,0.39116
-12.6928,0,0,17.6928,17.6928,5,5,20.4722,0.534913,-14.0186,0.174394,0.215209,-0.106907,0,0,3.3775,0.4725,0,0.144204,-0.122244,-1.05603,-0.04354,0.27342,0.39116
-12.5208,0,0,17.5208,17.5208,5,5,20.1949,0.835171,-14.351,0.169154,0.210649,-0.105283,0,0,2.7475,-0.2275,0.1225,0.144204,-0.122244,-1.05603,-0.04354,0.27342,0.39116
-12.5204,0,0,17.5204,17.5204,5,5,20.1942,0.834595,-14.351,0.0368664,0.0896096,0.147257,1,0,3.185,-0.3325,-0.035,0.011346,-0.243146,-0.805444,-0.04354,0.27342,0.39116
-12.5201,0,0,17.5201,17.5201,5,5,20.1938,0.834348,-14.3515,0.0368707,0.0896031,0.14726,1,0,3.36,-0.2625,-0.4025,0.011346,-0.243146,-0.805444,-0.04354,0.27342,0.39116
-12.5207,0,0,17.5207,17.5207,5,5,20.1946,0.833723,-14.352,0.222633,-0.372999,0.00451137,1,0,4.06,-0.4725,-0.3325,0.197884,-0.705282,-0.947086,-0.04354,0.27342,0.39116
-12.5265,0,0,17.5265,17.5265,5,5,20.204,0.833503,-14.3521,0.222637,-0.372845,0.0044549,1,0,8.8375,-0.175,-0.21,0.197884,-0.705282,-0.947086,-0.0434,0.27132,0.39564
-12.6427,0,0,17.6427,17.6427,5,5,20.3915,0.745781,-14.4064,-0.0327743,-0.164473,0.0226423,0,0,5.005,-0.14,-0.1225,-0.060146,-0.5002,-0.927932,-0.0434,0.27132,0.39564
-12.7571,0,0,17.7571,17.7571,5,5,20.576,0.660906,-14.4609,-0.031293,-0.161451,0.0215325,0,0,5.5125,-0.4025,-0.2275,-0.060146,-0.5002,-0.927932,-0.0434,0.27132,0.39564
-12.7595,0,0,17.7595,17.7595,5,5,20.5798,0.660995,-14.4612,-0.210243,-0.534608,0.0618363,1,0,5.705,-0.035,-0.35,-0.239852,-0.873032,-0.887916,-0.0434,0.27132,0.39564
-12.7613,0,0,17.7613,17.7613,5,5,20.5827,0.661451,-14.4617,-0.210251,-0.534561,0.0618185,1,0,5.1975,0.1225,-0.5425,-0.239852,-0.873032,-0.887916,-0.0434,0.27132,0.39564
-12.7621,0,0,17.7621,17.7621,5,5,20.5841,0.661602,-14.4618,0.183117,-0.11088,0.404836,1,0,4.3575,0.0175,-0.315,0.155184,-0.449814,-0.547536,-0.0434,0.27132,0.39564
-12.7623,0,0,17.7623,17.7623,5,5,20.5843,0.66134,-14.4619,0.183122,-0.110877,0.404835,1,0,3.71,-0.175,-0.14,0.155184,-0.449814,-0.547536,-0.0434,0.27132,0.39564
-12.8351,0,0,17.8351,17.8351,5,5,20.7018,0.783649,-14.6454,0.104937,-0.137179,-0.0259869,0,0,3.815,-0.28,-0.315,0.078812,-0.477996,-0.974292,-0.0434,0.27132,0.39564
-12.9065,0,0,17.9065,17.9065,5,5,20.8169,0.903217,-14.8262,0.10285,-0.135311,-0.0267276,0,0,3.6925,-0.1575,-0.1225,0.078812,-0.477996,-0.974292,-0.0434,0.27132,0.39564
-12.9072,0,0,17.9072,17.9072,5,5,20.8181,0.902544,-14.827,0.231637,-0.16216,-0.34345,1,0,4.2525,-0.56,-0.4725,0.208132,-0.504836,-1.28856,-0.04536,0.27384,0.3808
-12.855,0,0,17.855,17.855,5,5,20.7339,0.779241,-14.8922,-0.0864474,0.0986841,0.0415604,0,0,4.865,-0.8225,-0.315,-0.11346,-0.242902,-0.90707,-0.04536,0.27384,0.3808
-12.8034,0,0,17.8034,17.8034,5,5,20.6507,0.659948,-14.957,-0.0843655,0.0973347,0.042098,0,0,4.5675,-0.28,-0.735,-0.11346,-0.242902,-0.90707,-0.04536,0.27384,0.3808
-12.8128,0,0,17.8128,17.8128,5,5,20.6658,-0.182812,-14.5553,-0.55888,0.09345,0.126282,0,0,4.06,-0.3675,-0.9975,-0.604754,-0.24705,-0.8235,-0.04536,0.27384,0.3808
-12.8202,0,0,17.8202,17.8202,5,5,20.6778,-1.00675,-14.1532,-0.5445,0.0935935,0.126069,0,0,4.0425,0.56,-0.385,-0.604754,-0.24705,-0.8235,-0.04536,0.27384,0.3808
-12.8209,0,0,17.8209,17.8209,5,5,20.6789,-1.00669,-14.1542,0.0394804,0.144661,-0.291717,1,0,4.2,-0.1925,-0.7175,-0.0183,-0.196054,-1.23806,-0.04536,0.27384,0.3808
-12.822,0,0,17.822,17.822,5,5,20.6806,-1.00648,-14.1538,0.0394768,0.144688,-0.291728,1,0,4.515,0.1575,-0.035,-0.0183,-0.196054,-1.23806,-0.04536,0.27384,0.3808
-12.7432,0,0,17.7432,17.7432,5,5,20.5535,-1.41263,-14.0174,-0.256907,0.164787,0.0719801,0,0,4.9,-0.49,-0.21,-0.323056,-0.17385,-0.87779,-0.04536,0.27384,0.3808
-12.6652,0,0,17.6652,17.6652,5,5,20.4277,-1.80828,-13.8853,-0.250005,0.162663,0.0725666,0,0,4.8475,-0.28,-0.1575,-0.323056,-0.17385,-0.87779,-0.04564,0.27706,0.38178
-12.6661,0,0,17.6661,17.6661,5,5,20.4291,-1.80882,-13.8859,-0.722939,0.194683,-0.162643,1,0,4.3575,-0.4375,-0.385,-0.798002,-0.141886,-1.11118,-0.04564,0.27706,0.38178
-12.6662,0,0,17.6662,17.6662,5,5,20.4293,-1.80828,-13.8856,-0.722949,0.194686,-0.162643,1,0,3.675,0.3325,-0.1225,-0.798002,-0.141886,-1.11118,-0.04564,0.27706,0.38178
-12.6661,0,0,17.6661,17.6661,5,5,20.4293,-1.80804,-13.8851,-0.0921989,-0.330337,-0.102398,1,0,3.57,0.1925,0.0175,-0.164578,-0.666364,-1.0514,-0.04564,0.27706,0.38178
-12.6669,0,0,17.6669,17.6669,5,5,20.4305,-1.80798,-13.8843,-0.0922001,-0.330317,-0.102406,1,0,4.27,0.175,0.245,-0.164578,-0.666364,-1.0514,-0.04564,0.27706,0.38178
-12.8236,0,0,17.8236,17.8236,5,5,20.6832,-1.02252,-14.423,0.537969,-0.175242,0.296929,0,0,4.13,0.1575,0.4375,0.482022,-0.515694,-0.65392,-0.04564,0.27706,0.38178
-12.9785,0,0,17.9785,17.9785,5,5,20.933,-0.254856,-14.9493,0.524572,-0.171115,0.29552,0,0,4.7775,0.035,0.6125,0.482022,-0.515694,-0.65392,-0.04564,0.27706,0.38178
-12.9143,0,0,17.9143,17.9143,5,5,20.8296,0.117757,-15.2907,0.228933,0.0712104,0.00502876,0,0,4.2525,0.3675,0.6825,0.191662,-0.271938,-0.942816,-0.04564,0.27706,0.38178
-12.8521,0,0,17.8521,17.8521,5,5,20.7292,0.47907,-15.6289,0.222627,0.0695603,0.00561978,0,0,4.5325,0.6125,0.6125,0.191662,-0.271938,-0.942816,-0.04228,0.27482,0.38276
-12.8388,0,0,17.8388,17.8388,5,5,20.7077,0.391936,-15.6957,-0.0614652,0.0206076,-0.0198102,0,0,4.235,0.56,0.6825,-0.09516,-0.320494,-0.968192,-0.04228,0.27482,0.38276
-12.8262,0,0,17.8262,17.8262,5,5,20.6874,0.305955,-15.7625,-0.0599646,0.0202801,-0.0196767,0,0,4.76,-0.1225,0.63,-0.09516,-0.320494,-0.968192,-0.04228,0.27482,0.38276
-12.8284,0,0,17.8284,17.8284,5,5,20.691,0.304648,-15.7617,-0.503972,0.146251,-0.051911,1,0,5.565,-0.5775,0.525,-0.54107,-0.194712,-1.00016,-0.04228,0.27482,0.38276
-12.8307,0,0,17.8307,17.8307,5,5,20.6946,0.303618,-15.7612,-0.503954,0.14631,-0.0519333,1,0,5.6175,-0.49,0.2975,-0.54107,-0.194712,-1.00016,-0.04228,0.27482,0.38276
-12.9328,0,0,17.9328,17.9328,5,5,20.8593,0.170931,-15.7779,-0.0699995,-0.159246,-0.0188874,0,0,5.6525,-0.2275,0.1925,-0.107604,-0.50264,-0.966362,-0.04228,0.27482,0.38276
-13.0315,0,0,18.0315,18.0315,5,5,21.0186,0.0430211,-15.7953,-0.0677671,-0.156649,-0.0198767,0,0,4.585,0,-0.07,-0.107604,-0.50264,-0.966362,-0.04228,0.27482,0.38276
-13.2789,0,0,18.2789,18.2789,5,5,21.4177,0.406415,-16.0632,0.264957,-0.243714,0.314581,0,0,3.36,0.035,-0.1575,0.232898,-0.596092,-0.63196,-0.04228,0.27482,0.38276
-13.5226,0,0,18.5226,18.5226,5,5,21.8106,0.765181,-16.3215,0.258696,-0.237362,0.311996,0,0,3.92,0.2625,-0.4725,0.232898,-0.596092,-0.63196,-0.04662,0.27482,0.3815
-13.669,0,0,18.669,18.669,5,5,22.0468,0.876089,-16.4642,0.105875,-0.193735,0.0995736,0,0,3.5175,-0.1925,-1.015,0.081374,-0.55632,-0.84119,-0.04662,0.27482,0.3815
-13.8143,0,0,18.8143,18.8143,5,5,22.2811,0.986226,-16.6036,0.103953,-0.18996,0.098002,0,0,4.9,0.63,-0.7875,0.081374,-0.55632,-0.84119,-0.04662,0.27482,0.3815
-13.8168,0,0,18.8168,18.8168,5,5,22.2851,0.986283,-16.6056,-0.275569,0.0698677,-0.199437,1,0,5.8275,-0.42,-1.225,-0.299754,-0.296826,-1.13631,-0.04662,0.27482,0.3815
-13.8192,0,0,18.8192,18.8192,5,5,22.2891,0.98634,-16.6075,-0.27557,0.069932,-0.199463,1,0,5.8275,-0.42,-1.225,-0.299754,-0.296826,-1.13631,-0.04662,0.27482,0.3815
-13.8212,0,0,18.8212,18.8212,5,5,22.2922,0.986339,-16.6096,-0.0261601,-0.0338257,-0.309768,1,0,5.3375,-0.5075,-1.3475,-0.049288,-0.400526,-1.24574,-0.04662,0.27482,0.3815
-13.8231,0,0,18.8231,18.8231,5,5,22.2953,0.986337,-16.6118,-0.02616,-0.0337756,-0.309789,1,0,5.3375,-0.5075,-1.3475,-0.049288,-0.400526,-1.24574,-0.04662,0.27482,0.3815
-13.8238,0,0,18.8238,18.8238,5,5,22.2964,0.986635,-16.6133,0.278035,0.224051,0.252078,1,0,4.2,-0.21,-1.085,0.2562,-0.142984,-0.688202,-0.04662,0.27482,0.3815
-13.8244,0,0,18.8244,18.8244,5,5,22.2975,0.986933,-16.6149,0.27803,0.224069,0.252071,1,0,4.2,-0.21,-1.085,0.2562,-0.142984,-0.688202,-0.04662,0.26922,0.37898
-13.8609,0,0,18.8609,18.8609,5,5,22.3564,1.00083,-16.715,0.0193871,-0.0822529,-0.0572927,0,0,5.1975,-0.105,-0.7525,-0.003294,-0.449936,-0.994788,-0.04662,0.26922,0.37898
-13.8967,0,0,18.8967,18.8967,5,5,22.4141,1.01461,-16.814,0.0191467,-0.0813227,-0.0576804,0,0,5.1975,-0.105,-0.7525,-0.003294,-0.449936,-0.994788,-0.04662,0.26922,0.37898
-13.899,0,0,18.899,18.899,5,5,22.4178,1.01445,-16.8136,-0.078525,-0.112527,-0.0676639,1,0,5.6525,-0.0175,0.0875,-0.101382,-0.481168,-1.00467,-0.04662,0.26922,0.37898
-13.9013,0,0,18.9013,18.9013,5,5,22.4215,1.01429,-16.8132,-0.0785222,-0.112467,-0.0676885,1,0,5.6525,-0.0175,0.0875,-0.101382,-0.481168,-1.00467,-0.04662,0.26922,0.37898
-13.9029,0,0,18.9029,18.9029,5,5,22.424,1.01426,-16.8112,-0.00878897,-0.171659,-0.148236,1,0,4.9525,0.4025,0.8925,-0.031354,-0.540338,-1.08458,-0.04662,0.26922,0.37898
-13.9044,0,0,18.9044,18.9044,5,5,22.4265,1.01424,-16.8092,-0.00878853,-0.171619,-0.148253,1,0,4.9525,0.4025,0.8925,-0.031354,-0.540338,-1.08458,-0.04662,0.26922,0.37898
-14.022,0,0,19.022,19.022,5,5,22.6162,0.7981,-16.7534,-0.123101,-0.176476,-0.00561603,0,0,4.4275,-0.0175,1.75,-0.149938,-0.548268,-0.94184,-0.04662,0.26922,0.37898
-14.1372,0,0,19.1372,19.1372,5,5,22.802,0.586903,-16.7088,-0.119415,-0.173468,-0.00682672,0,0,4.4275,-0.0175,1.75,-0.149938,-0.548268,-0.94184,-0.04746,0.27314,0.371
-14.3427,0,0,19.3427,19.3427,5,5,23.1334,0.451111,-16.6835,-0.0433032,-0.267789,0.109704,0,0,5.3725,-0.1575,1.925,-0.075884,-0.64782,-0.823988,-0.04746,0.27314,0.371
-14.544,0,0,19.544,19.544,5,5,23.458,0.32047,-16.6597,-0.0410232,-0.262579,0.107478,0,0,5.3725,-0.1575,1.925,-0.075884,-0.64782,-0.823988,-0.04746,0.27314,0.371
-14.6259,0,0,19.6259,19.6259,5,5,23.5902,0.466121,-16.8133,0.109385,-0.0991425,0.0790008,0,0,5.74,0.0175,1.4875,0.077714,-0.486658,-0.851316,-0.04746,0.27314,0.371
-14.7064,0,0,19.7064,19.7064,5,5,23.72,0.608331,-16.9646,0.106903,-0.0970759,0.0780702,0,0,5.74,0.0175,1.4875,0.077714,-0.486658,-0.851316,-0.04746,0.27314,0.371
-14.7091,0,0,19.7091,19.7091,5,5,23.7243,0.608856,-16.9624,0.107745,0.234566,-0.271379,1,0,5.95,0.7525,0.8225,0.078568,-0.155428,-1.19804,-0.04746,0.27314,0.371
-14.8267,0,0,19.8267,19.8267,5,5,23.9141,0.589811,-17.0173,0.0123463,-0.119746,0.112976,0,0,5.32,0.105,0.4725,-0.017568,-0.5124,-0.815326,-0.04746,0.27314,0.371
-14.9428,0,0,19.9428,19.9428,5,5,24.1013,0.57187,-17.0729,0.0126594,-0.116759,0.111649,0,0,6.055,-0.315,-0.0875,-0.017568,-0.5124,-0.815326,-0.04746,0.27314,0.371
-14.7518,0,0,19.7518,19.7518,5,5,23.7932,0.91723,-17.3756,0.19129,0.235639,-0.101523,0,0,5.7925,-0.84,-0.8225,0.167872,-0.155428,-1.02895,-0.05054,0.2646,0.37156
-14.5638,0,0,19.5638,19.5638,5,5,23.49,1.25398,-17.6788,0.185414,0.230747,-0.0995034,0,0,5.25,-0.1925,-1.295,0.167872,-0.155428,-1.02895,-0.05054,0.2646,0.37156
-14.5041,0,0,19.5041,19.5041,5,5,23.3937,1.91743,-18.1318,0.379515,0.0900975,0.144801,0,0,5.6,-0.0175,-1.75,0.374418,-0.294264,-0.7869,-0.05054,0.2646,0.37156
-14.4455,0,0,19.4455,19.4455,5,5,23.2992,2.56338,-18.5807,0.368249,0.08841,0.145049,0,0,5.6,-0.0175,-1.75,0.374418,-0.294264,-0.7869,-0.05054,0.2646,0.37156
-14.4492,0,0,19.4492,19.4492,5,5,23.3051,2.5637,-18.5846,-0.160098,-0.0640324,0.325497,1,0,6.965,-0.7525,-2.3275,-0.15616,-0.446642,-0.607804,-0.05054,0.2646,0.37156
-14.6877,0,0,19.6877,19.6877,5,5,23.6899,2.64587,-18.6496,0.108411,-0.300083,0.180388,0,0,7.07,-0.8225,-2.3975,0.114924,-0.688568,-0.74908,-0.05054,0.2646,0.37156
-14.9223,0,0,19.9223,19.9223,5,5,24.0682,2.72902,-18.713,0.106961,-0.294079,0.177656,0,0,7.385,0.035,-2.45,0.114924,-0.688568,-0.74908,-0.05054,0.2646,0.37156
-14.9255,0,0,19.9255,19.9255,5,5,24.0735,2.7301,-18.7163,-0.394307,-0.0657416,-0.330651,1,0,6.5975,-0.245,-2.205,-0.388448,-0.46055,-1.25343,-0.05054,0.2646,0.37156
-14.9288,0,0,19.9288,19.9288,5,5,24.0787,2.73068,-18.7181,-0.394318,-0.0656584,-0.330689,1,0,6.5625,-0.1575,-1.3125,-0.388448,-0.46055,-1.25343,-0.04984,0.26544,0.3731
-14.7251,0,0,19.7251,19.7251,5,5,23.7502,2.69619,-18.8462,-0.0725081,0.285851,-0.0850268,0,0,6.1775,-0.56,-1.155,-0.06588,-0.104188,-1.01199,-0.04984,0.26544,0.3731
-14.5254,0,0,19.5254,19.5254,5,5,23.4281,2.66032,-18.9724,-0.0718828,0.280715,-0.0827525,0,0,6.2475,-0.84,-0.385,-0.06588,-0.104188,-1.01199,-0.04984,0.26544,0.3731
-14.3609,0,0,19.3609,19.3609,5,5,23.1627,2.42161,-18.977,-0.186534,0.264692,-0.000836483,0,0,7.07,-1.0325,0.105,-0.185196,-0.116022,-0.93269,-0.04984,0.26544,0.3731
-14.1993,0,0,19.1993,19.1993,5,5,22.9021,2.18787,-18.9786,-0.182457,0.260574,0.00109262,0,0,7.1225,-0.5775,0.8925,-0.185196,-0.116022,-0.93269,-0.04984,0.26544,0.3731
-14.2037,0,0,19.2037,19.2037,5,5,22.9091,2.18654,-18.9762,0.508819,0.0787184,-0.182024,1,0,7.455,-0.1925,1.4175,0.508984,-0.297802,-1.11435,-0.04984,0.26544,0.3731
-14.2084,0,0,19.2084,19.2084,5,5,22.9168,2.18492,-18.9737,0.508848,0.0788419,-0.182076,1,0,7.8225,-0.3325,1.5225,0.508984,-0.297802,-1.11435,-0.04984,0.26544,0.3731
-14.2128,0,0,19.2128,19.2128,5,5,22.9238,2.18408,-18.9703,0.216325,-0.049522,0.324056,1,0,7.455,0.2975,1.855,0.215208,-0.426146,-0.612074,-0.04984,0.26544,0.3731
-14.2173,0,0,19.2173,19.2173,5,5,22.9312,2.18339,-18.9664,0.216337,-0.0494038,0.324007,1,0,7.6125,0.49,2.065,0.215208,-0.426146,-0.612074,-0.04984,0.26544,0.3731
-14.2218,0,0,19.2218,19.2218,5,5,22.9384,2.18273,-18.962,-0.35755,-0.246644,-0.312547,1,0,7.5425,0.6125,2.31,-0.36112,-0.623298,-1.24367,-0.05138,0.26152,0.37814
-14.2259,0,0,19.2259,19.2259,5,5,22.945,2.18141,-18.9584,-0.182223,-0.259239,-0.314804,1,0,7.1925,0.0875,2.065,-0.185074,-0.635986,-1.24586,-0.05138,0.26152,0.37814
-14.2302,0,0,19.2302,19.2302,5,5,22.952,2.17974,-18.956,-0.182194,-0.259127,-0.31485,1,0,7.4375,-0.385,1.47,-0.185074,-0.635986,-1.24586,-0.05138,0.26152,0.37814
-14.3347,0,0,19.3347,19.3347,5,5,23.1205,2.06762,-18.9374,-0.0508564,-0.134267,0.0291833,0,0,8.0325,-0.525,1.435,-0.055144,-0.513986,-0.90341,-0.05138,0.26152,0.37814
-14.4374,0,0,19.4374,19.4374,5,5,23.2862,1.96009,-18.9198,-0.0489807,-0.131584,0.0281049,0,0,8.5925,-0.1225,1.085,-0.055144,-0.513986,-0.90341,-0.05138,0.26152,0.37814
-14.4435,0,0,19.4435,19.4435,5,5,23.296,1.95925,-18.9185,0.0256261,-0.276759,0.0386118,1,0,9.0125,-0.1575,0.7525,0.019764,-0.659166,-0.892918,-0.05138,0.26152,0.37814
-14.4492,0,0,19.4492,19.4492,5,5,23.3051,1.95942,-18.9185,0.0256232,-0.276612,0.0385482,1,0,8.7325,0.0525,-0.245,0.019764,-0.659166,-0.892918,-0.05138,0.26152,0.37814
-14.4541,0,0,19.4541,19.4541,5,5,23.3131,1.95914,-18.9192,0.00145245,-0.0534814,-0.15933,1,0,8.0325,-0.3325,-0.4725,-0.004514,-0.436394,-1.08922,-0.04606,0.26894,0.37576
-14.4578,0,0,19.4578,19.4578,5,5,23.3191,1.95936,-18.9205,-0.164501,-0.169405,-0.0867096,1,0,6.9825,-0.21,-0.9275,-0.171166,-0.552294,-1.01711,-0.04606,0.26894,0.37576
-14.4615,0,0,19.4615,19.4615,5,5,23.325,1.95987,-18.9223,-0.16451,-0.16931,-0.086751,1,0,6.9475,-0.175,-1.2775,-0.171166,-0.552294,-1.01711,-0.04606,0.26894,0.37576
-14.4661,0,0,19.4661,19.4661,5,5,23.3324,1.96008,-18.9245,0.153901,-0.073322,-0.177538,1,0,7.77,-0.42,-1.4,0.148596,-0.456524,-1.10715,-0.04606,0.26894,0.37576
-14.4707,0,0,19.4707,19.4707,5,5,23.3399,1.96029,-18.9266,0.153897,-0.0732035,-0.177589,1,0,7.77,-0.42,-1.4,0.148596,-0.456524,-1.10715,-0.04606,0.26894,0.37576
-14.4585,0,0,19.4585,19.4585,5,5,23.3201,2.06708,-19.078,0.0705173,-0.00136882,-0.0454665,0,0,9.03,-0.21,-0.98,0.066734,-0.384422,-0.976122,-0.04606,0.26894,0.37576
-14.4466,0,0,19.4466,19.4466,5,5,23.301,2.17094,-19.228,0.0687059,-0.00170209,-0.0453959,0,0,9.03,-0.21,-0.98,0.066734,-0.384422,-0.976122,-0.04606,0.26894,0.37576
-14.4532,0,0,19.4532,19.4532,5,5,23.3116,2.17064,-19.2292,0.0389471,-0.503473,-0.283497,1,0,9.555,-0.4725,-0.77,0.036844,-0.885842,-1.21231,-0.04606,0.26894,0.37576
-14.4598,0,0,19.4598,19.4598,5,5,23.3222,2.17034,-19.2304,0.0389524,-0.503303,-0.28357,1,0,9.555,-0.4725,-0.77,0.036844,-0.885842,-1.21231,-0.05124,0.26572,0.37366
-14.4649,0,0,19.4649,19.4649,5,5,23.3305,2.1708,-19.2309,-0.314579,-0.275891,-0.0982221,1,0,8.2775,0.105,-0.56,-0.318176,-0.6588,-1.02834,-0.05124,0.26572,0.37366
-14.4699,0,0,19.4699,19.4699,5,5,23.3385,2.17099,-19.2311,0.192134,0.0360261,-0.108605,1,0,8.05,0.035,-0.315,0.190686,-0.347334,-1.03859,-0.05124,0.26572,0.37366
-14.4747,0,0,19.4747,19.4747,5,5,23.3462,2.17055,-19.2312,0.192142,0.0361499,-0.108658,1,0,7.91,-0.28,-0.1225,0.190686,-0.347334,-1.03859,-0.05124,0.26572,0.37366
-14.2691,0,0,19.2691,19.2691,5,5,23.0147,2.65525,-19.6299,0.273225,0.262492,-0.0363834,0,0,8.33,-0.4375,0.1925,0.2806,-0.115778,-0.968802,-0.05124,0.26572,0.37366
-14.067,0,0,19.067,19.067,5,5,22.6888,3.12641,-20.0288,0.265012,0.257095,-0.0345591,0,0,8.1725,-0.49,0.3675,0.2806,-0.115778,-0.968802,-0.05124,0.26572,0.37366
-14.0736,0,0,19.0736,19.0736,5,5,22.6994,3.12571,-20.0277,0.136979,-0.213288,-0.0239334,1,0,9.5025,-0.175,0.525,0.152012,-0.585844,-0.958188,-0.05124,0.26572,0.37366
-14.0804,0,0,19.0804,19.0804,5,5,22.7103,3.12464,-20.0267,0.136997,-0.213112,-0.024006,1,0,9.6775,-0.3675,0.6125,0.152012,-0.585844,-0.958188,-0.05124,0.26572,0.37366
-14.0828,0,0,19.0828,19.0828,5,5,22.7143,2.94779,-20.018,-0.122694,-0.00463712,-0.075643,0,0,9.4675,-0.2275,0.8225,-0.111874,-0.377712,-1.00955,-0.05124,0.266,0.37506
-14.0886,0,0,19.0886,19.0886,5,5,22.7236,2.94674,-20.0167,0.164759,-0.194517,-0.120458,1,0,8.75,-0.315,0.7175,0.176778,-0.567544,-1.05396,-0.05124,0.266,0.37506
-14.0934,0,0,19.0934,19.0934,5,5,22.7313,2.94567,-20.0159,0.164778,-0.194391,-0.120509,1,0,7.91,-0.42,0.5075,0.176778,-0.567544,-1.05396,-0.05124,0.266,0.37506
-13.947,0,0,18.947,18.947,5,5,22.4951,3.04175,-20.2001,0.0243667,0.204548,-0.0266727,0,0,8.4525,-0.14,0.49,0.037454,-0.165188,-0.962336,-0.05124,0.266,0.37506
-13.8031,0,0,18.8031,18.8031,5,5,22.2631,3.13435,-20.3836,0.0227528,0.200777,-0.025214,0,0,8.2425,-0.21,0.42,0.037454,-0.165188,-0.962336,-0.05124,0.266,0.37506
-13.8085,0,0,18.8085,18.8085,5,5,22.2717,3.13381,-20.3828,-0.0648289,-0.34035,-0.0406389,1,0,8.3825,-0.14,0.385,-0.050508,-0.705892,-0.977586,-0.05124,0.266,0.37506
-13.8134,0,0,18.8134,18.8134,5,5,22.2797,3.13327,-20.3818,-0.0648196,-0.340221,-0.0406913,1,0,8.0325,-0.0875,0.49,-0.050508,-0.705892,-0.977586,-0.05124,0.266,0.37506
-13.8183,0,0,18.8183,18.8183,5,5,22.2876,3.13325,-20.3806,0.176816,-0.0170684,-0.177462,1,0,7.9625,0.2275,0.4725,0.19215,-0.383202,-1.11325,-0.05124,0.266,0.37506
-13.8237,0,0,18.8237,18.8237,5,5,22.2963,3.13321,-20.3796,0.176817,-0.0169282,-0.17752,1,0,8.4175,0.175,0.3675,0.19215,-0.383202,-1.11325,-0.05334,0.26404,0.3801
-13.7793,0,0,18.7793,18.7793,5,5,22.2248,3.52697,-20.6882,0.230456,0.0662784,0.085816,0,0,8.54,0.0175,0.105,0.252906,-0.298778,-0.852048,-0.05334,0.26404,0.3801
-13.7371,0,0,18.7371,18.7371,5,5,22.1566,3.91022,-20.9944,0.223781,0.0650154,0.0858627,0,0,9.415,-0.0175,-0.1925,0.252906,-0.298778,-0.852048,-0.05334,0.26404,0.3801
-13.8294,0,0,18.8294,18.8294,5,5,22.3054,3.75832,-20.9668,-0.0821477,-0.123769,-0.00888645,0,0,9.7475,0,-0.35,-0.056974,-0.48983,-0.945256,-0.05334,0.26404,0.3801
-13.9184,0,0,18.9184,18.9184,5,5,22.449,3.61167,-20.9403,-0.0795934,-0.121394,-0.00968617,0,0,8.7675,0.28,-0.595,-0.056974,-0.48983,-0.945256,-0.05334,0.26404,0.3801
-13.9236,0,0,18.9236,18.9236,5,5,22.4575,3.61223,-20.9408,-0.0883502,-0.154721,-0.0413409,1,0,8.3475,0.1575,-0.595,-0.065758,-0.523258,-0.97661,-0.05334,0.26404,0.3801
-13.9278,0,0,18.9278,18.9278,5,5,22.4641,3.6128,-20.9413,-0.08836,-0.154614,-0.0413858,1,0,7.3325,0.175,-0.56,-0.065758,-0.523258,-0.97661,-0.05334,0.26404,0.3801
-13.9316,0,0,18.9316,18.9316,5,5,22.4703,3.61319,-20.9425,0.129578,-0.141813,-0.169171,1,0,7.0875,-0.0875,-0.9275,0.15311,-0.51057,-1.10337,-0.05334,0.26404,0.3801
-13.9364,0,0,18.9364,18.9364,5,5,22.4781,3.61341,-20.9433,0.129575,-0.141688,-0.169223,1,0,7.9625,-0.0875,-0.665,0.15311,-0.51057,-1.10337,-0.05236,0.25774,0.37436
-13.935,0,0,18.935,18.935,5,5,22.4758,3.65953,-21.0437,0.0276952,0.0118904,0.0167665,0,0,8.225,-0.21,-0.315,0.051606,-0.357094,-0.918782,-0.05236,0.25774,0.37436
-13.9349,0,0,18.9349,18.9349,5,5,22.4756,3.70423,-21.1434,0.0269166,0.0118688,0.0167212,0,0,9.3625,-0.3675,-0.4025,0.051606,-0.357094,-0.918782,-0.05236,0.25774,0.37436
-13.9408,0,0,18.9408,18.9408,5,5,22.4851,3.70411,-21.1438,-0.185924,-0.0927628,0.205261,1,0,8.925,-0.1925,-0.385,-0.162138,-0.46177,-0.731634,-0.05236,0.25774,0.37436
-13.9455,0,0,18.9455,18.9455,5,5,22.4928,3.70399,-21.1442,-0.185922,-0.0926393,0.20521,1,0,7.8925,-0.175,-0.3675,-0.162138,-0.46177,-0.731634,-0.05236,0.25774,0.37436
-13.7373,0,0,18.7373,18.7373,5,5,22.157,3.8834,-21.389,0.0767641,0.272894,-0.131361,0,0,7.1925,0.1925,0.035,0.104798,-0.091134,-1.06762,-0.05236,0.25774,0.37436
-13.533,0,0,18.533,18.533,5,5,21.8275,4.05709,-21.6337,0.0737399,0.267495,-0.129407,0,0,7.1925,0.1925,0.035,0.104798,-0.091134,-1.06762,-0.05236,0.25774,0.37436
-13.539,0,0,18.539,18.539,5,5,21.837,3.84994,-21.5963,-0.133188,0.0485246,0.0749805,0,0,7.1225,-0.315,0.0875,-0.106628,-0.310124,-0.86498,-0.05236,0.25774,0.37436
-13.5444,0,0,18.5444,18.5444,5,5,21.8458,3.64784,-21.5598,-0.129668,0.0487529,0.0751374,0,0,7.1225,-0.315,0.0875,-0.106628,-0.310124,-0.86498,-0.05418,0.25984,0.37884
-13.528,0,0,18.528,18.528,5,5,21.8193,4.01753,-21.8441,0.220333,0.0397364,0.122736,0,0,8.2425,-4.41,0.0875,0.25132,-0.318542,-0.817522,-0.05418,0.25984,0.37884
-13.5122,0,0,18.5122,18.5122,5,5,21.7938,4.37747,-22.1252,0.214068,0.0391545,0.122474,0,0,8.2425,-4.41,0.0875,0.25132,-0.318542,-0.817522,-0.05418,0.25984,0.37884
-13.5873,0,0,18.5873,18.5873,5,5,21.915,4.38973,-22.1794,0.0192343,-0.0652674,0.0952398,0,0,6.9475,0.28,-0.1925,0.055876,-0.424804,-0.843752,-0.05418,0.25984,0.37884
-13.5903,0,0,18.5903,18.5903,5,5,21.9199,4.38918,-22.1798,-0.0767298,-0.117092,-0.0911812,1,0,6.335,-0.42,-0.2975,-0.040504,-0.476654,-1.0287,-0.05418,0.25984,0.37884
-13.5935,0,0,18.5935,18.5935,5,5,21.925,4.38927,-22.1803,-0.0767314,-0.117009,-0.0912146,1,0,6.475,-0.0875,-0.4725,-0.040504,-0.476654,-1.0287,-0.05418,0.25984,0.37884
-13.5345,0,0,18.5345,18.5345,5,5,21.8298,4.49201,-22.337,0.0410227,0.103183,0.0697218,0,0,6.72,-0.0525,-0.6125,0.079544,-0.255102,-0.869494,-0.05418,0.25984,0.37884
-13.4767,0,0,18.4767,18.4767,5,5,21.7367,4.5916,-22.4921,0.0392901,0.101628,0.0701949,0,0,6.7375,0,-0.385,0.079544,-0.255102,-0.869494,-0.05418,0.25984,0.37884
-13.4808,0,0,18.4808,18.4808,5,5,21.7433,4.59222,-22.4923,-0.102738,-0.0950116,-0.17218,1,0,7.28,0.28,-0.4025,-0.063074,-0.451644,-1.10996,-0.05418,0.25984,0.37884
-13.4846,0,0,18.4846,18.4846,5,5,21.7493,4.59233,-22.4924,-0.10274,-0.0949146,-0.172219,1,0,6.9475,0.0175,-0.245,-0.063074,-0.451644,-1.10996,-0.0504,0.26124,0.37702
-13.3932,0,0,18.3932,18.3932,5,5,21.602,4.85178,-22.7529,0.15297,0.107373,-0.0160889,0,0,6.51,0.14,0.1925,0.19825,-0.24705,-0.955626,-0.0504,0.26124,0.37702
-13.3035,0,0,18.3035,18.3035,5,5,21.4572,5.10348,-23.0114,0.148594,0.104892,-0.0155199,0,0,6.1425,-0.0175,0.42,0.19825,-0.24705,-0.955626,-0.0504,0.26124,0.37702
-13.3065,0,0,18.3065,18.3065,5,5,21.462,5.10336,-23.0102,-0.32775,-0.19363,-0.272144,1,0,6.195,0.175,0.525,-0.280112,-0.54534,-1.21024,-0.0504,0.26124,0.37702
-13.3096,0,0,18.3096,18.3096,5,5,21.4671,5.10337,-23.0084,-0.32775,-0.193548,-0.272176,1,0,6.3525,0.35,0.7525,-0.280112,-0.54534,-1.21024,-0.0504,0.26124,0.37702
-13.2748,0,0,18.2748,18.2748,5,5,21.4109,5.18538,-23.1547,0.0357675,0.0680688,0.0587929,0,0,6.825,0.5075,0.805,0.086376,-0.28304,-0.88206,-0.0504,0.26124,0.37702
-13.2397,0,0,18.2397,18.2397,5,5,21.3543,5.26469,-23.2997,0.0343891,0.0671066,0.0590343,0,0,5.8625,0.315,0.84,0.086376,-0.28304,-0.88206,-0.0504,0.26124,0.37702
-13.2423,0,0,18.2423,18.2423,5,5,21.3585,5.26451,-23.2984,-0.137996,-0.263056,-0.14398,1,0,5.88,0.1575,0.5775,-0.086742,-0.612928,-1.08348,-0.0504,0.26124,0.37702
-13.2449,0,0,18.2449,18.2449,5,5,21.3628,5.2645,-23.2973,-0.137996,-0.262987,-0.144007,1,0,5.8975,0.1925,0.385,-0.086742,-0.612928,-1.08348,-0.0476,0.26208,0.36806
-13.2177,0,0,18.2177,18.2177,5,5,21.3189,5.21114,-23.3742,-0.0449822,0.0426269,-0.021931,0,0,5.7225,0.4375,0.42,0.005734,-0.306952,-0.962702,-0.0476,0.26208,0.36806
-13.1907,0,0,18.1907,18.1907,5,5,21.2754,5.15854,-23.4512,-0.0440679,0.0419526,-0.0215791,0,0,5.5825,0.0525,0.0525,0.005734,-0.306952,-0.962702,-0.0476,0.26208,0.36806
-13.2288,0,0,18.2288,18.2288,5,5,21.3368,4.5969,-23.2169,-0.362555,0.0498452,0.10311,0,0,5.2325,0.07,-0.35,-0.32391,-0.300364,-0.83936,-0.0476,0.26208,0.36806
-13.2645,0,0,18.2645,18.2645,5,5,21.3943,4.04839,-22.9852,-0.353009,0.0510401,0.103418,0,0,4.9175,0.035,-0.9275,-0.32391,-0.300364,-0.83936,-0.0476,0.26208,0.36806
-13.266,0,0,18.266,18.266,5,5,21.3968,4.04932,-22.9862,-0.0420221,0.00894708,-0.207167,1,0,5.04,0.2625,-0.9275,-0.01159,-0.342454,-1.14753,-0.0476,0.26208,0.36806
-13.2675,0,0,18.2675,18.2675,5,5,21.3992,4.05021,-22.9878,-0.0420377,0.00898453,-0.207183,1,0,4.9525,0.105,-1.2775,-0.01159,-0.342454,-1.14753,-0.0476,0.26208,0.36806
-13.2919,0,0,18.2919,18.2919,5,5,21.4386,4.40437,-23.2499,0.265231,-0.0694371,0.0274654,0,0,5.5475,-0.2625,-1.3825,0.30317,-0.421266,-0.914024,-0.0476,0.26208,0.36806
-13.3161,0,0,18.3161,18.3161,5,5,21.4776,4.75034,-23.4984,0.259212,-0.0689808,0.0267683,0,0,5.635,-0.5775,-1.435,0.30317,-0.421266,-0.914024,-0.04928,0.25718,0.37338
-13.4,0,0,18.4,18.4,5,5,21.6129,4.40495,-23.35,-0.231534,-0.105452,-0.0381961,0,0,5.6175,-0.525,-1.19,-0.195688,-0.460062,-0.978074,-0.04928,0.25718,0.37338
-13.4807,0,0,18.4807,18.4807,5,5,21.743,4.06826,-23.2031,-0.225674,-0.103187,-0.0386295,0,0,5.0225,-0.525,-0.7175,-0.195688,-0.460062,-0.978074,-0.04928,0.25718,0.37338
-13.4813,0,0,18.4813,18.4813,5,5,21.7441,4.06869,-23.2036,0.0183836,-0.120878,-0.158389,1,0,4.1825,0.105,-0.525,0.04941,-0.477752,-1.0969,-0.04928,0.25718,0.37338
-13.4819,0,0,18.4819,18.4819,5,5,21.745,4.06818,-23.2032,0.0183924,-0.120863,-0.158394,1,0,4.095,-0.21,0.1575,0.04941,-0.477752,-1.0969,-0.04928,0.25718,0.37338
-13.5955,0,0,18.5955,18.5955,5,5,21.9283,4.01227,-23.1882,-0.0116131,-0.137293,0.0712571,0,0,4.0775,-0.175,0.4375,0.0183,-0.49715,-0.867908,-0.04928,0.25718,0.37338
-13.7076,0,0,18.7076,18.7076,5,5,22.1091,3.95739,-23.1735,-0.0106575,-0.13435,0.0701388,0,0,4.83,-0.735,0.945,0.0183,-0.49715,-0.867908,-0.04928,0.25718,0.37338
-13.7096,0,0,18.7096,18.7096,5,5,22.1123,3.95564,-23.1717,-0.203546,-0.105231,-0.280407,1,0,5.32,-0.595,1.1375,-0.175436,-0.468114,-1.21573,-0.04928,0.25718,0.37338
-13.7104,0,0,18.7104,18.7104,5,5,22.1135,3.95414,-23.1699,-0.20352,-0.105211,-0.280413,1,0,4.2,-0.4375,1.1375,-0.175436,-0.468114,-1.21573,-0.04844,0.26054,0.37744
-13.7114,0,0,18.7114,18.7114,5,5,22.1152,3.95314,-23.1682,-0.124051,0.00741743,0.136741,1,0,4.445,-0.1925,0.9625,-0.095648,-0.35563,-0.801784,-0.04844,0.26054,0.37744
-13.7118,0,0,18.7118,18.7118,5,5,22.1159,3.95208,-23.167,-0.124033,0.0074286,0.136738,1,0,3.9025,-0.3325,0.7,-0.095648,-0.35563,-0.801784,-0.04844,0.26054,0.37744
-13.769,0,0,18.769,18.769,5,5,22.208,4.16685,-23.3209,0.177157,-0.119541,0.00531617,0,0,3.92,0.175,0.7175,0.210572,-0.483852,-0.931348,-0.04844,0.26054,0.37744
-13.825,0,0,18.825,18.825,5,5,22.2983,4.37631,-23.4736,0.173512,-0.118189,0.00446872,0,0,3.605,-0.105,0.21,0.210572,-0.483852,-0.931348,-0.04844,0.26054,0.37744
-13.8516,0,0,18.8516,18.8516,5,5,22.3413,4.3607,-23.5215,-0.00832374,-0.00940823,0.0664162,0,0,3.57,-0.07,-0.35,0.027694,-0.375882,-0.869616,-0.04844,0.26054,0.37744
-13.8772,0,0,18.8772,18.8772,5,5,22.3826,4.34553,-23.5699,-0.00805978,-0.00873529,0.0661611,0,0,3.2375,-0.385,-0.875,0.027694,-0.375882,-0.869616,-0.04844,0.26054,0.37744
-13.9308,0,0,18.9308,18.9308,5,5,22.4691,3.88257,-23.3647,-0.326554,-0.0411956,-0.0322363,0,0,3.6575,-0.0875,-0.945,-0.300242,-0.40992,-0.967216,-0.04844,0.26054,0.37744
-13.9825,0,0,18.9825,18.9825,5,5,22.5524,3.43077,-23.1623,-0.318685,-0.0396626,-0.0323272,0,0,3.8675,-0.28,-1.3125,-0.300242,-0.40992,-0.967216,-0.04844,0.26054,0.37744
-13.9879,0,0,18.9879,18.9879,5,5,22.5611,3.31905,-23.1524,-0.0757104,0.0110826,0.0121048,0,0,4.0075,0.105,-1.2425,-0.058194,-0.359412,-0.923174,-0.04928,0.25704,0.371
-13.9927,0,0,18.9927,18.9927,5,5,22.5688,3.2098,-23.1427,-0.0738068,0.0112474,0.0121539,0,0,3.6925,-0.1225,-1.1725,-0.058194,-0.359412,-0.923174,-0.04928,0.25704,0.371
-14.0882,0,0,19.0882,19.0882,5,5,22.723,3.23284,-23.1636,0.0447261,-0.16532,-0.00254867,0,0,3.29,-0.245,-0.84,0.061244,-0.538264,-0.936716,-0.04928,0.25704,0.371
-14.182,0,0,19.182,19.182,5,5,22.8742,3.25594,-23.1844,0.0443237,-0.1629,-0.0035907,0,0,3.29,-0.245,-0.84,0.061244,-0.538264,-0.936716,-0.04928,0.25704,0.371
-14.1683,0,0,19.1683,19.1683,5,5,22.852,3.21279,-23.2119,-0.0327968,0.0253253,-0.000942765,0,0,3.0975,0.1925,0.28,-0.016958,-0.349896,-0.934276,-0.04928,0.25704,0.371
-14.1547,0,0,19.1547,19.1547,5,5,22.8302,3.17067,-23.2391,-0.0320627,0.0249907,-0.000757415,0,0,3.0975,0.1925,0.28,-0.016958,-0.349896,-0.934276,-0.04928,0.25704,0.371
-14.3459,0,0,19.3459,19.3459,5,5,23.1386,3.29086,-23.264,0.130699,-0.267976,0.13732,0,0,3.465,0.035,0.84,0.148596,-0.647454,-0.795074,-0.04928,0.25704,0.371
-14.5338,0,0,19.5338,19.5338,5,5,23.4416,3.40925,-23.2881,0.128636,-0.263175,0.135122,0,0,3.465,0.035,0.84,0.148596,-0.647454,-0.795074,-0.04928,0.25704,0.371
-14.6239,0,0,19.6239,19.6239,5,5,23.587,3.44078,-23.3124,0.0398883,-0.103321,0.0887125,0,0,3.0275,0.0525,1.2075,0.060024,-0.490074,-0.840092,-0.0483,0.25998,0.37464
-14.6236,0,0,19.6236,19.6236,5,5,23.5864,3.4397,-23.3101,-0.010388,-0.0437325,-0.289595,1,0,3.15,-0.0525,1.33,0.009516,-0.430538,-1.21549,-0.0483,0.25998,0.37464
-14.6222,0,0,19.6222,19.6222,5,5,23.5843,3.43892,-23.3088,-0.0103743,-0.043766,-0.289579,1,0,2.345,-0.1575,0.665,0.009516,-0.430538,-1.21549,-0.0483,0.25998,0.37464
-14.6217,0,0,19.6217,19.6217,5,5,23.5834,3.43814,-23.3085,-0.149219,-0.141481,-0.153222,1,0,3.08,-0.3675,0.175,-0.12993,-0.528138,-1.08019,-0.0483,0.25998,0.37464
-14.6207,0,0,19.6207,19.6207,5,5,23.5818,3.43762,-23.3084,-0.14921,-0.141506,-0.153211,1,0,2.6775,-0.28,0,-0.12993,-0.528138,-1.08019,-0.0483,0.25998,0.37464
-14.6197,0,0,19.6197,19.6197,5,5,23.5801,3.43734,-23.3085,-0.0973306,0.0268794,0.347571,1,0,2.625,-0.21,-0.1925,-0.077836,-0.3599,-0.583282,-0.0483,0.25998,0.37464
-14.6183,0,0,19.6183,19.6183,5,5,23.5779,3.43695,-23.3104,-0.0973239,0.0268446,0.347586,1,0,2.415,-0.6825,-1.12,-0.077836,-0.3599,-0.583282,-0.0483,0.25998,0.37464
-14.8257,0,0,19.8257,19.8257,5,5,23.9124,3.51624,-23.3119,0.0915414,-0.2231,0.221477,0,0,1.96,-0.875,-1.4,0.113216,-0.61488,-0.706014,-0.0483,0.25998,0.37464
-15.0308,0,0,20.0308,20.0308,5,5,24.2432,3.59282,-23.3204,0.0902075,-0.217873,0.21905,0,0,2.66,-0.6475,-1.26,0.113216,-0.61488,-0.706014,-0.04536,0.26292,0.37226
-14.9669,0,0,19.9669,19.9669,5,5,24.1402,3.54784,-23.3775,-0.0478673,0.119534,0.0561856,0,0,2.7125,-0.4375,-1.4875,-0.02623,-0.276208,-0.868396,-0.04536,0.26292,0.37226
-14.9042,0,0,19.9042,19.9042,5,5,24.039,3.50374,-23.4338,-0.0470989,0.117945,0.0569481,0,0,2.66,-0.315,-1.435,-0.02623,-0.276208,-0.868396,-0.04536,0.26292,0.37226
-14.9029,0,0,19.9029,19.9029,5,5,24.037,3.5047,-23.4353,-0.155845,-0.0678434,-0.0867649,1,0,2.4675,0.1225,-1.225,-0.13542,-0.46177,-1.01101,-0.04536,0.26292,0.37226
-14.9013,0,0,19.9013,19.9013,5,5,24.0343,3.5048,-23.436,-0.155847,-0.0678859,-0.086746,1,0,2.1,-0.1225,-0.5425,-0.13542,-0.46177,-1.01101,-0.04536,0.26292,0.37226
-14.8996,0,0,19.8996,19.8996,5,5,24.0316,3.50528,-23.436,-0.16606,0.0268423,-0.217791,1,0,2.1,0.2275,-0.2975,-0.145668,-0.367098,-1.14107,-0.04536,0.26292,0.37226
-14.8985,0,0,19.8985,19.8985,5,5,24.0298,3.50508,-23.4348,-0.166057,0.0268135,-0.217778,1,0,2.52,0.14,0.4725,-0.145668,-0.367098,-1.14107,-0.04536,0.26292,0.37226
-14.8776,0,0,19.8776,19.8776,5,5,23.9962,3.51428,-23.4974,0.00131171,0.0256637,-0.00951952,0,0,2.5725,0.49,0.805,0.02257,-0.367708,-0.934642,-0.04536,0.26292,0.37226
-14.8574,0,0,19.8574,19.8574,5,5,23.9635,3.52166,-23.5513,0.00118306,0.0251404,-0.00929538,0,0,2.6775,-0.21,1.0675,0.02257,-0.367708,-0.934642,-0.04928,0.26194,0.38206
-14.962,0,0,19.962,19.962,5,5,24.1322,3.5201,-23.5473,0.0238066,-0.134604,0.0704088,0,0,3.2025,0.105,1.155,0.045262,-0.529968,-0.854366,-0.04928,0.26194,0.38206
-15.064,0,0,20.064,20.064,5,5,24.2968,3.51936,-23.5437,0.0238195,-0.131989,0.0692336,0,0,2.7825,0.105,1.05,0.045262,-0.529968,-0.854366,-0.04928,0.26194,0.38206
-15.0634,0,0,20.0634,20.0634,5,5,24.2958,3.51934,-23.5413,-0.0227092,0.0327439,-0.184402,1,0,2.9225,0.5425,1.1025,-0.001464,-0.36539,-1.10605,-0.04928,0.26194,0.38206
-15.0627,0,0,20.0627,20.0627,5,5,24.2947,3.51934,-23.5398,-0.0227091,0.0327267,-0.184394,1,0,2.9225,0.315,0.5775,-0.001464,-0.36539,-1.10605,-0.04928,0.26194,0.38206
-14.9696,0,0,19.9696,19.9696,5,5,24.1446,2.84811,-23.2686,-0.461846,0.256176,0.0806282,0,0,3.01,0.28,-0.14,-0.454206,-0.140056,-0.844728,-0.04928,0.26194,0.38206
-14.8765,0,0,19.8765,19.8765,5,5,23.9943,2.18879,-22.9962,-0.450349,0.253991,0.0821581,0,0,2.765,-0.5075,-0.525,-0.454206,-0.140056,-0.844728,-0.04928,0.26194,0.38206
-14.9629,0,0,19.9629,19.9629,5,5,24.1338,2.22102,-23.009,0.0357602,-0.0835543,0.113605,0,0,3.01,0,-0.7525,0.034526,-0.47946,-0.81252,-0.04928,0.26194,0.38206
-15.0467,0,0,20.0467,20.0467,5,5,24.2688,2.25241,-23.0239,0.0352127,-0.0814154,0.11262,0,0,2.0125,-0.5775,-1.3475,0.034526,-0.47946,-0.81252,-0.04522,0.25746,0.36708
-15.1435,0,0,20.1435,20.1435,5,5,24.4249,2.38118,-23.0835,0.101728,-0.109748,0.123218,0,0,2.5375,-0.5775,-1.5575,0.103578,-0.510204,-0.800808,-0.04522,0.25746,0.36708
-15.2376,0,0,20.2376,20.2376,5,5,24.5767,2.50735,-23.1418,0.099528,-0.107378,0.122035,0,0,1.54,-0.455,-1.4875,0.103578,-0.510204,-0.800808,-0.04522,0.25746,0.36708
-15.2363,0,0,20.2363,20.2363,5,5,24.5747,2.50811,-23.1436,-0.29009,-0.14637,-0.116717,1,0,2.4675,-0.07,-1.3475,-0.287676,-0.549122,-1.03773,-0.04522,0.25746,0.36708
-15.236,0,0,20.236,20.236,5,5,24.5742,2.5082,-23.1453,-0.290091,-0.146377,-0.116713,1,0,3.36,-0.385,-1.085,-0.287676,-0.549122,-1.03773,-0.04522,0.25746,0.36708
-15.2356,0,0,20.2356,20.2356,5,5,24.5735,2.50876,-23.1465,0.0499373,-0.133932,-0.157404,1,0,3.2025,-0.0175,-0.945,0.053802,-0.536678,-1.07811,-0.04522,0.25746,0.36708
-15.2352,0,0,20.2352,20.2352,5,5,24.5728,2.50945,-23.146,0.0499252,-0.133942,-0.1574,1,0,3.2025,0.455,-0.105,0.053802,-0.536678,-1.07811,-0.04522,0.25746,0.36708
-15.2625,0,0,20.2625,20.2625,5,5,24.617,2.49689,-23.1572,-0.00160865,-0.0446969,-0.00119826,0,0,2.905,0.2975,0.2625,0.00183,-0.448228,-0.922808,-0.04522,0.25746,0.36708
-15.289,0,0,20.289,20.289,5,5,24.6597,2.48413,-23.1777,-0.00138616,-0.0440152,-0.00150027,0,0,2.555,0.21,0.5425,0.00183,-0.448228,-0.922808,-0.04494,0.26334,0.36736
-15.2881,0,0,20.2881,20.2881,5,5,24.6582,2.48363,-23.176,0.350324,0.135365,0.22031,1,0,2.6775,0.14,0.875,0.35502,-0.26901,-0.70272,-0.04494,0.26334,0.36736
-15.2875,0,0,20.2875,20.2875,5,5,24.6573,2.4825,-23.1742,0.350343,0.135351,0.220317,1,0,3.045,-0.1925,1.0325,0.35502,-0.26901,-0.70272,-0.04494,0.26334,0.36736
-15.2875,0,0,20.2875,20.2875,5,5,24.6573,2.48163,-23.1725,-0.14263,0.0200635,-0.136232,1,0,3.5175,-0.0875,0.91,-0.140056,-0.384178,-1.05652,-0.04494,0.26334,0.36736
-15.2875,0,0,20.2875,20.2875,5,5,24.6573,2.48151,-23.171,-0.142628,0.0200639,-0.136232,1,0,3.5525,0.28,0.6475,-0.140056,-0.384178,-1.05652,-0.04494,0.26334,0.36736
-15.2882,0,0,20.2882,20.2882,5,5,24.6584,2.48129,-23.1703,-0.0145786,0.00579225,-0.347712,1,0,4.165,0.035,0.2625,-0.011468,-0.398452,-1.26636,-0.04494,0.26334,0.36736
-15.2877,0,0,20.2877,20.2877,5,5,24.6576,2.48084,-23.1709,-0.0145708,0.00577939,-0.347705,1,0,3.1325,-0.42,-0.4025,-0.011468,-0.398452,-1.26636,-0.04494,0.26334,0.36736
-15.3974,0,0,20.3974,20.3974,5,5,24.8344,2.34764,-23.0986,-0.063515,-0.0760122,0.147067,0,0,3.3075,-0.2275,-0.4725,-0.062952,-0.482998,-0.774212,-0.04494,0.26334,0.36736
-15.505,0,0,20.505,20.505,5,5,25.008,2.2186,-23.0285,-0.0612647,-0.0732291,0.145873,0,0,3.7275,-0.385,-0.84,-0.062952,-0.482998,-0.774212,-0.04494,0.26334,0.36736
-15.7335,0,0,20.7335,20.7335,5,5,25.3767,2.08842,-22.9007,-0.0395565,-0.304423,0.144197,0,0,3.185,-0.455,-0.8925,-0.043432,-0.7198,-0.773236,-0.04606,0.2611,0.37562
-15.7335,0,0,20.7335,20.7335,5,5,25.3767,2.08864,-22.9034,0.0511894,-0.076168,-0.341327,1,0,3.64,-0.5775,-1.645,0.047702,-0.491782,-1.25501,-0.04606,0.2611,0.37562
-15.7332,0,0,20.7332,20.7332,5,5,25.3762,2.08986,-22.9047,0.0511683,-0.0761762,-0.341324,1,0,3.325,0.28,-1.19,0.047702,-0.491782,-1.25501,-0.04606,0.2611,0.37562
-15.8254,0,0,20.8254,20.8254,5,5,25.5248,2.04654,-22.872,-0.0105199,-0.0964166,0.0888896,0,0,3.7975,-0.0525,-0.805,-0.015006,-0.514352,-0.827038,-0.04606,0.2611,0.37562
-15.9165,0,0,20.9165,20.9165,5,5,25.6718,2.00532,-22.8392,-0.00980079,-0.094094,0.0878051,0,0,4.55,0.315,-0.5425,-0.015006,-0.514352,-0.827038,-0.04606,0.2611,0.37562
-15.9172,0,0,20.9172,20.9172,5,5,25.6729,2.00571,-22.8394,-0.00834984,0.0212104,0.169066,1,0,4.1825,0.14,-0.3675,-0.013542,-0.399184,-0.746396,-0.04606,0.2611,0.37562
-15.9183,0,0,20.9183,20.9183,5,5,25.6747,2.00672,-22.8376,-0.00836746,0.0212394,0.169051,1,0,4.585,0.9625,0.5075,-0.013542,-0.399184,-0.746396,-0.04606,0.2611,0.37562
-15.9447,0,0,20.9447,20.9447,5,5,25.7172,2.27664,-22.9827,0.185311,-0.0481471,0.0645564,0,0,3.465,0.49,0.7,0.185684,-0.46909,-0.849608,-0.04606,0.2611,0.37562
-15.9706,0,0,20.9706,20.9706,5,5,25.759,2.54171,-23.122,0.180689,-0.0475752,0.0640648,0,0,3.4825,0.77,0.98,0.185684,-0.46909,-0.849608,-0.05348,0.26264,0.36834
-15.971,0,0,20.971,20.971,5,5,25.7597,2.54192,-23.1197,0.0638158,0.0298638,-0.153682,1,0,3.9025,0.665,0.9625,0.06832,-0.391742,-1.06567,-0.05348,0.26264,0.36834
-15.9718,0,0,20.9718,20.9718,5,5,25.761,2.5411,-23.1178,0.0638302,0.0298838,-0.153691,1,0,4.235,0.035,1.05,0.06832,-0.391742,-1.06567,-0.05348,0.26264,0.36834
-16.0068,0,0,21.0068,21.0068,5,5,25.8174,2.46867,-23.0909,-0.0407209,-0.028316,0.0321976,0,0,4.725,0.105,1.085,-0.037942,-0.45079,-0.88084,-0.05348,0.26264,0.36834
-16.0407,0,0,21.0407,21.0407,5,5,25.8721,2.39937,-23.0652,-0.0395126,-0.0274351,0.031828,0,0,4.5675,0.4375,0.4025,-0.037942,-0.45079,-0.88084,-0.05348,0.26264,0.36834
-16.0424,0,0,21.0424,21.0424,5,5,25.8748,2.39852,-23.0657,-0.0013512,-0.235619,-0.310849,1,0,5.0925,-0.595,-0.21,0.000366,-0.6588,-1.22085,-0.05348,0.26264,0.36834
-16.0438,0,0,21.0438,21.0438,5,5,25.8771,2.3981,-23.0668,-0.00134393,-0.235582,-0.310867,1,0,4.9175,-0.525,-0.6475,0.000366,-0.6588,-1.22085,-0.05348,0.26264,0.36834
-16.045,0,0,21.045,21.045,5,5,25.879,2.39821,-23.0679,0.130466,-0.0797184,0.220502,1,0,4.6725,-0.2625,-0.805,0.132736,-0.503128,-0.69357,-0.05348,0.26264,0.36834
-16.0458,0,0,21.0458,21.0458,5,5,25.8803,2.39892,-23.0697,0.130454,-0.0796985,0.220492,1,0,4.34,-0.1225,-1.33,0.132736,-0.503128,-0.69357,-0.04802,0.26152,0.36974
-16.1319,0,0,21.1319,21.1319,5,5,26.0192,2.42768,-23.0768,0.0458842,-0.164362,-0.0146811,0,0,4.2875,-0.4725,-1.4175,0.048312,-0.58987,-0.925858,-0.04802,0.26152,0.36974
-16.2164,0,0,21.2164,21.2164,5,5,26.1555,2.45613,-23.0838,0.0453881,-0.162236,-0.0157455,0,0,4.305,-0.525,-1.365,0.048312,-0.58987,-0.925858,-0.04802,0.26152,0.36974
-16.2413,0,0,21.2413,21.2413,5,5,26.1957,2.05774,-22.9008,-0.283208,-0.0102935,-0.0522017,0,0,3.605,-0.315,-1.1375,-0.288652,-0.438834,-0.96197,-0.04802,0.26152,0.36974
-16.2648,0,0,21.2648,21.2648,5,5,26.2335,1.6694,-22.7187,-0.276433,-0.00960404,-0.0522955,0,0,3.605,-0.0175,-0.8925,-0.288652,-0.438834,-0.96197,-0.04802,0.26152,0.36974
-16.1799,0,0,21.1799,21.1799,5,5,26.0967,1.28651,-22.5746,-0.261735,0.195334,0.0288287,0,0,4.7075,0.0875,-0.84,-0.2806,-0.232044,-0.88267,-0.04802,0.26152,0.36974
-16.0957,0,0,21.0957,21.0957,5,5,25.9609,0.911897,-22.4285,-0.255198,0.193259,0.0299814,0,0,4.585,0.3675,-0.035,-0.2806,-0.232044,-0.88267,-0.04802,0.26152,0.36974
-16.097,0,0,21.097,21.097,5,5,25.9629,0.91194,-22.4277,0.14376,0.0240233,-0.145113,1,0,4.7075,0.1925,0.21,0.120048,-0.401136,-1.0564,-0.04802,0.26152,0.36974
-16.098,0,0,21.098,21.098,5,5,25.9645,0.912484,-22.4261,0.143751,0.0240479,-0.145125,1,0,4.445,0.665,0.5075,0.120048,-0.401136,-1.0564,-0.0462,0.25802,0.3752
-16.0981,0,0,21.0981,21.0981,5,5,25.9646,0.912519,-22.4247,0.00683591,0.0951278,0.309538,1,0,3.64,0.3675,0.5775,-0.017446,-0.330132,-0.605242,-0.0462,0.25802,0.3752
-16.1036,0,0,21.1036,21.1036,5,5,25.9735,0.912006,-22.4232,0.00684486,0.0952671,0.30947,1,0,8.54,0.0875,0.735,-0.017446,-0.330132,-0.605242,-0.0462,0.25802,0.3752
-16.1048,0,0,21.1048,21.1048,5,5,25.9755,0.910879,-22.4216,0.0628694,0.219746,0.140769,1,0,4.69,-0.2275,0.91,0.038796,-0.205814,-0.772626,-0.0462,0.25802,0.3752
-16.1067,0,0,21.1067,21.1067,5,5,25.9786,0.910563,-22.4205,0.062875,0.219794,0.140746,1,0,5.285,0.0875,0.4725,0.038796,-0.205814,-0.772626,-0.0462,0.25802,0.3752
-16.1083,0,0,21.1083,21.1083,5,5,25.9812,0.910307,-22.4202,0.0451425,-0.320576,-0.537581,1,0,5.04,-0.0875,0.035,0.020984,-0.745664,-1.4457,-0.0462,0.25802,0.3752
-16.1096,0,0,21.1096,21.1096,5,5,25.9833,0.910577,-22.4209,0.0451378,-0.320543,-0.537597,1,0,4.76,-0.0525,-0.595,0.020984,-0.745664,-1.4457,-0.0462,0.25802,0.3752
-16.1107,0,0,21.1107,21.1107,5,5,25.9851,0.911258,-22.422,0.0185205,-0.104472,0.219137,1,0,4.6025,0.0525,-0.9275,-0.005734,-0.529846,-0.69479,-0.0462,0.25802,0.3752
-16.1113,0,0,21.1113,21.1113,5,5,25.9859,0.91202,-22.423,0.0185072,-0.104459,0.219131,1,0,4.06,0.105,-0.9275,-0.005734,-0.529846,-0.69479,-0.04788,0.26082,0.37478
-16.2334,0,0,21.2334,21.2334,5,5,26.1829,0.950809,-22.4064,0.0526967,-0.180515,0.0697023,0,0,3.7625,0.245,-0.9625,0.02928,-0.608902,-0.841556,-0.04788,0.26082,0.37478
-16.3589,0,0,21.3589,21.3589,5,5,26.3853,0.988348,-22.3905,0.0520417,-0.177353,0.068128,0,0,8.855,-0.4025,-0.9975,0.02928,-0.608902,-0.841556,-0.04788,0.26082,0.37478
-16.36,0,0,21.36,21.36,5,5,26.3872,0.988261,-22.3917,-0.0303241,0.1192,-0.229913,1,0,4.62,-0.385,-0.7875,-0.053436,-0.312686,-1.13728,-0.04788,0.26082,0.37478
-16.3658,0,0,21.3658,21.3658,5,5,26.3964,0.987855,-22.3922,-0.030317,0.119345,-0.229985,1,0,8.785,-0.3675,-0.3325,-0.053436,-0.312686,-1.13728,-0.04788,0.26082,0.37478
-16.3416,0,0,21.3416,21.3416,5,5,26.3575,0.963017,-22.3949,-0.0213796,0.0736743,0.0650311,0,0,4.69,-0.2275,-0.315,-0.044896,-0.357704,-0.84485,-0.04788,0.26082,0.37478
-16.3173,0,0,21.3173,21.3173,5,5,26.3182,0.939315,-22.3969,-0.020966,0.0730638,0.0653409,0,0,4.165,0.2975,-0.0875,-0.044896,-0.357704,-0.84485,-0.04788,0.26082,0.37478
-16.2095,0,0,21.2095,21.2095,5,5,26.1444,0.89507,-22.4176,-0.0562751,0.128236,-0.154491,0,0,4.0775,0.3675,-0.035,-0.08113,-0.299876,-1.06433,-0.04788,0.26082,0.37478
-16.1037,0,0,21.1037,21.1037,5,5,25.9737,0.851158,-22.437,-0.0555088,0.125565,-0.153172,0,0,4.095,0.5075,0.5425,-0.08113,-0.299876,-1.06433,-0.04788,0.26082,0.37478
-16.1047,0,0,21.1047,21.1047,5,5,25.9754,0.851371,-22.4351,0.209083,0.0767406,0.214062,1,0,4.4975,0.5775,0.77,0.184586,-0.348676,-0.699914,-0.05194,0.2632,0.37422
-16.1067,0,0,21.1067,21.1067,5,5,25.9785,0.850563,-22.4336,0.209097,0.0767903,0.214038,1,0,5.3375,-0.07,0.805,0.184586,-0.348676,-0.699914,-0.05194,0.2632,0.37422
-16.0943,0,0,21.0943,21.0943,5,5,25.9585,0.968536,-22.5036,0.0861604,-0.0312537,-0.0812837,0,0,5.495,-0.4375,0.595,0.063196,-0.45628,-0.99308,-0.05194,0.2632,0.37422
-16.082,0,0,21.082,21.082,5,5,25.9387,1.08245,-22.5734,0.0841725,-0.0315805,-0.0811642,0,0,5.18,-1.05,0.5425,0.063196,-0.45628,-0.99308,-0.05194,0.2632,0.37422
-16.0839,0,0,21.0839,21.0839,5,5,25.9417,1.08126,-22.5731,-0.392274,-0.0227393,0.284339,1,0,5.285,-0.595,0.245,-0.415288,-0.447496,-0.630374,-0.05194,0.2632,0.37422
-16.0844,0,0,21.0844,21.0844,5,5,25.9425,1.08131,-22.5734,-0.392274,-0.0227269,0.284333,1,0,4.025,-0.07,-0.3325,-0.415288,-0.447496,-0.630374,-0.05194,0.2632,0.37422
-16.0848,0,0,21.0848,21.0848,5,5,25.9433,1.07499,-22.5777,-0.422657,-0.000975678,-0.377134,1,0,4.0425,-4.4625,-0.84,-0.44591,-0.42578,-1.28673,-0.05194,0.2632,0.37422
-16.0853,0,0,21.0853,21.0853,5,5,25.944,1.06868,-22.5821,-0.422547,-0.000963031,-0.377138,1,0,4.0425,-4.4625,-0.84,-0.44591,-0.42578,-1.28673,-0.05194,0.2632,0.37422
-16.0865,0,0,21.0865,21.0865,5,5,25.9459,1.06836,-22.5836,0.0145641,0.00431816,-0.182156,1,0,4.655,-0.595,-0.9275,-0.006954,-0.420534,-1.09324,-0.04928,0.26418,0.37268
-16.079,0,0,21.079,21.079,5,5,25.9338,1.03523,-22.584,-0.0244621,0.0109723,-0.0190245,0,0,5.215,-0.42,-0.77,-0.046726,-0.413702,-0.93147,-0.04928,0.26418,0.37268
-16.0707,0,0,21.0707,21.0707,5,5,25.9204,1.00336,-22.5839,-0.023906,0.010766,-0.0189132,0,0,4.3925,-0.0875,-0.7,-0.046726,-0.413702,-0.93147,-0.04928,0.26418,0.37268
-16.0864,0,0,21.0864,21.0864,5,5,25.9458,0.656232,-22.4176,-0.23798,0.0196292,-0.0064872,0,0,4.1475,-0.5775,-0.7175,-0.26779,-0.405284,-0.919026,-0.04928,0.26418,0.37268
-16.101,0,0,21.101,21.101,5,5,25.9693,0.317584,-22.2525,-0.23207,0.0200207,-0.00662191,0,0,4.1475,-0.5775,-0.7175,-0.26779,-0.405284,-0.919026,-0.04928,0.26418,0.37268
-16.1018,0,0,21.1018,21.1018,5,5,25.9706,0.318757,-22.2523,0.237573,0.149984,0.301846,1,0,4.305,0.63,-0.4025,0.203862,-0.275476,-0.612928,-0.04928,0.26418,0.37268
-16.1026,0,0,21.1026,21.1026,5,5,25.9719,0.31993,-22.2522,0.237553,0.150004,0.301836,1,0,4.305,0.63,-0.4025,0.203862,-0.275476,-0.612928,-0.04928,0.26418,0.37268
-16.081,0,0,21.081,21.081,5,5,25.937,0.613207,-22.4011,0.189064,0.0159538,0.0403075,0,0,4.1125,0.4375,0.3675,0.160308,-0.408822,-0.872666,-0.05194,0.25844,0.36498
-16.0822,0,0,21.0822,21.0822,5,5,25.939,0.613476,-22.399,0.0799652,0.0332042,-0.264128,1,0,4.655,0.6475,0.84,0.050752,-0.39162,-1.17474,-0.05194,0.25844,0.36498
-16.0834,0,0,21.0834,21.0834,5,5,25.9409,0.613745,-22.3969,0.0799605,0.0332347,-0.264143,1,0,4.655,0.6475,0.84,0.050752,-0.39162,-1.17474,-0.05194,0.25844,0.36498
-16.0602,0,0,21.0602,21.0602,5,5,25.9035,0.721046,-22.458,0.0683691,0.0236003,-0.0070374,0,0,5.425,-0.42,0.5075,0.040992,-0.400648,-0.91988,-0.05194,0.25844,0.36498
-16.0376,0,0,21.0376,21.0376,5,5,25.8671,0.825443,-22.5185,0.0665471,0.0230182,-0.00678226,0,0,5.425,-0.42,0.5075,0.040992,-0.400648,-0.91988,-0.05194,0.25844,0.36498
-16.0389,0,0,21.0389,21.0389,5,5,25.8693,0.82545,-22.5175,0.20334,-0.102128,-0.0449127,1,0,4.7775,0.245,0.3675,0.178364,-0.525698,-0.9577,-0.05194,0.25844,0.36498
-16.0403,0,0,21.0403,21.0403,5,5,25.8714,0.825456,-22.5164,0.20334,-0.102094,-0.0449291,1,0,4.7775,0.245,0.3675,0.178364,-0.525698,-0.9577,-0.05194,0.25844,0.36498
-16.0407,0,0,21.0407,21.0407,5,5,25.8721,0.825698,-22.5171,-0.0157031,0.142902,0.385632,1,0,3.9375,-0.07,-0.595,-0.041602,-0.280966,-0.530456,-0.05194,0.25844,0.36498
-16.0411,0,0,21.0411,21.0411,5,5,25.8727,0.825941,-22.5178,-0.0157073,0.142912,0.385627,1,0,3.9375,-0.07,-0.595,-0.041602,-0.280966,-0.530456,-0.04844,0.25816,0.37478
-16.0424,0,0,21.0424,21.0424,5,5,25.8748,0.825156,-22.5182,-0.0216465,-0.0768829,0.331391,1,0,4.76,-0.5425,-0.1925,-0.04758,-0.500566,-0.584258,-0.04844,0.25816,0.37478
-16.0437,0,0,21.0437,21.0437,5,5,25.8769,0.824372,-22.5186,-0.0216328,-0.0768498,0.331375,1,0,4.76,-0.5425,-0.1925,-0.04758,-0.500566,-0.584258,-0.04844,0.25816,0.37478
-16.045,0,0,21.045,21.045,5,5,25.879,0.823365,-22.5185,-0.0264746,0.0381052,-0.172484,1,0,4.7775,-0.5425,0.105,-0.05246,-0.385764,-1.08421,-0.04844,0.25816,0.37478
-16.0453,0,0,21.0453,21.0453,5,5,25.8796,0.822835,-22.5176,0.0499491,0.0665696,-0.35728,1,0,3.885,-0.0875,0.4025,0.024278,-0.357338,-1.26758,-0.04844,0.25816,0.37478
-16.0452,0,0,21.0452,21.0452,5,5,25.8794,0.823823,-22.5173,0.0499319,0.0665664,-0.357279,1,0,3.465,0.5775,-0.2625,0.024278,-0.357338,-1.26758,-0.04844,0.25816,0.37478
-16.1479,0,0,21.1479,21.1479,5,5,26.045,0.47997,-22.3073,-0.23053,-0.126209,0.0135599,0,0,3.99,0.91,-0.2275,-0.263398,-0.552538,-0.898408,-0.04844,0.25816,0.37478
-16.2487,0,0,21.2487,21.2487,5,5,26.2076,0.143109,-22.1008,-0.224651,-0.123646,0.0123385,0,0,4.9525,-0.2625,0,-0.263398,-0.552538,-0.898408,-0.04844,0.25816,0.37478
-16.2515,0,0,21.2515,21.2515,5,5,26.212,0.142158,-22.1003,0.0749491,-0.178289,-0.216134,1,0,6.055,-0.4025,0.315,0.037454,-0.607194,-1.12508,-0.0518,0.25732,0.37366
-16.2536,0,0,21.2536,21.2536,5,5,26.2155,0.141755,-22.0996,-0.0205316,0.0888554,-0.14485,1,0,5.495,-0.0525,0.2975,-0.058438,-0.34038,-1.05432,-0.0518,0.25732,0.37366
-16.2553,0,0,21.2553,21.2553,5,5,26.2182,0.14024,-22.0995,-0.0205051,0.0888978,-0.144871,1,0,5.0925,-0.805,0.245,-0.058438,-0.34038,-1.05432,-0.0518,0.25732,0.37366
-16.1315,0,0,21.1315,21.1315,5,5,26.0185,-0.287342,-21.9187,-0.289908,0.266879,0.036282,0,0,4.6025,-0.6125,0.1575,-0.336476,-0.159454,-0.876082,-0.0518,0.25732,0.37366
-16.0084,0,0,21.0084,21.0084,5,5,25.82,-0.705099,-21.7363,-0.282617,0.263735,0.0377399,0,0,4.06,-0.0875,-0.035,-0.336476,-0.159454,-0.876082,-0.0518,0.25732,0.37366
-16.0097,0,0,21.0097,21.0097,5,5,25.8222,-0.704307,-21.7356,0.450292,-0.0945507,-0.106741,1,0,4.795,0.56,-0.035,0.39955,-0.517402,-1.01943,-0.0518,0.25732,0.37366
-16.0116,0,0,21.0116,21.0116,5,5,25.8252,-0.704734,-21.7363,0.450299,-0.0945028,-0.106764,1,0,5.285,-0.42,-0.42,0.39955,-0.517402,-1.01943,-0.0518,0.25732,0.37366
-16.015,0,0,21.015,21.015,5,5,25.8306,-0.705045,-21.7374,0.0495235,-0.144002,-0.162255,1,0,6.58,-0.4725,-0.6825,-0.002928,-0.566934,-1.07445,-0.0518,0.25732,0.37366
-16.0173,0,0,21.0173,21.0173,5,5,25.8344,-0.7054,-21.7376,0.0495297,-0.143942,-0.162284,1,0,5.705,-0.28,-0.2275,-0.002928,-0.566934,-1.07445,-0.04564,0.26208,0.36904
-15.9526,0,0,20.9526,20.9526,5,5,25.73,-0.800032,-21.7076,-0.0817241,0.08706,-0.0886028,0,0,4.6375,-0.2975,-0.1575,-0.136396,-0.334524,-1.00211,-0.04564,0.26208,0.36904
-15.8881,0,0,20.8881,20.8881,5,5,25.626,-0.893499,-21.679,-0.080093,0.0854127,-0.0878375,0,0,3.85,-1.085,-0.6125,-0.136396,-0.334524,-1.00211,-0.04564,0.26208,0.36904
-15.8784,0,0,20.8784,20.8784,5,5,25.6103,-0.863289,-21.6949,0.0189981,0.0275258,0.0351135,0,0,2.9925,-0.3675,-0.525,-0.036356,-0.392108,-0.88023,-0.04564,0.26208,0.36904
-15.8696,0,0,20.8696,20.8696,5,5,25.5962,-0.832909,-21.7097,0.0184679,0.027307,0.035227,0,0,3.6575,0.42,-0.2275,-0.036356,-0.392108,-0.88023,-0.04564,0.26208,0.36904
-15.8706,0,0,20.8706,20.8706,5,5,25.5978,-0.831947,-21.7094,-0.0159293,-0.13815,-0.0598238,1,0,4.4625,0.5425,-0.2975,-0.070882,-0.557418,-0.974536,-0.04564,0.26208,0.36904
-15.873,0,0,20.873,20.873,5,5,25.6016,-0.831186,-21.7092,-0.0159426,-0.138089,-0.0598527,1,0,5.74,0.4375,-0.245,-0.070882,-0.557418,-0.974536,-0.04564,0.26208,0.36904
-15.877,0,0,20.877,20.877,5,5,25.608,-0.831495,-21.709,0.0191722,0.0412939,0.190053,1,0,7.175,-0.14,0,-0.035624,-0.378322,-0.72651,-0.04564,0.26208,0.36904
-15.8799,0,0,20.8799,20.8799,5,5,25.6128,-0.832452,-21.7083,0.0191889,0.0413691,0.190017,1,0,6.265,-0.3675,0.4025,-0.035624,-0.378322,-0.72651,-0.04564,0.26208,0.36904
-15.8799,0,0,20.8799,20.8799,5,5,25.6127,-0.67393,-21.7866,0.114461,-0.0546087,-0.0757641,0,0,5.7925,0.1225,-4.235,0.06283,-0.474214,-0.990274,-0.05376,0.26418,0.37394
-15.8814,0,0,20.8814,20.8814,5,5,25.6152,-0.673914,-21.7861,0.0197022,0.0774493,0.115279,1,0,4.97,0.105,0.07,-0.03233,-0.342332,-0.800686,-0.05376,0.26418,0.37394
-15.8812,0,0,20.8812,20.8812,5,5,25.6148,-0.674457,-21.7855,0.0197117,0.077444,0.115282,1,0,3.395,-0.1575,0.28,-0.03233,-0.342332,-0.800686,-0.05376,0.26418,0.37394
-15.8824,0,0,20.8824,20.8824,5,5,25.6168,-0.675662,-21.7853,-0.016713,0.0576906,0.210429,1,0,4.69,-0.6125,0.2275,-0.06893,-0.362096,-0.706258,-0.05376,0.26418,0.37394
-15.8844,0,0,20.8844,20.8844,5,5,25.62,-0.675804,-21.7855,-0.0167105,0.05774,0.210405,1,0,5.3375,-0.1575,-0.2625,-0.06893,-0.362096,-0.706258,-0.05376,0.26418,0.37394
-15.8878,0,0,20.8878,20.8878,5,5,25.6254,-0.676479,-21.7856,-0.0309126,0.0555053,0.44372,1,0,6.6325,-0.42,-0.0875,-0.083204,-0.364414,-0.474702,-0.05376,0.26418,0.37394
-15.8919,0,0,20.8919,20.8919,5,5,25.6321,-0.676935,-21.7854,-0.0309046,0.0556101,0.443669,1,0,7.315,-0.21,0.0525,-0.083204,-0.364414,-0.474702,-0.05376,0.26418,0.37394
-15.9617,0,0,20.9617,20.9617,5,5,25.7446,-0.383373,-21.9053,0.197467,-0.0654591,0.156883,0,0,5.46,-0.21,-0.175,0.15128,-0.487146,-0.758474,-0.04522,0.25802,0.3759
-15.7774,0,0,20.7774,20.7774,5,5,25.4474,-0.381003,-21.9618,-0.0299951,0.284885,-0.0159548,0,0,5.705,-0.4025,-0.3325,-0.077104,-0.132492,-0.932202,-0.04522,0.25802,0.3759
-15.5927,0,0,20.5927,20.5927,5,5,25.1495,-0.378917,-22.0181,-0.0300315,0.280186,-0.0137332,0,0,2.3975,-0.1225,-0.4375,-0.077104,-0.132492,-0.932202,-0.04522,0.25802,0.3759
-15.5931,0,0,20.5931,20.5931,5,5,25.1501,-0.378656,-22.0182,0.0541535,-0.301983,-0.165948,1,0,3.9025,0.0875,-0.2975,0.007442,-0.714066,-1.08324,-0.04522,0.25802,0.3759
-15.5934,0,0,20.5934,20.5934,5,5,25.1507,-0.378396,-22.0183,0.054149,-0.301974,-0.165952,1,0,3.9025,0.0875,-0.2975,0.007442,-0.714066,-1.08324,-0.04522,0.25802,0.3759
-15.5956,0,0,20.5956,20.5956,5,5,25.1542,-0.377652,-22.0183,-0.10088,-0.101387,0.186639,1,0,5.53,0.3675,-0.3675,-0.14823,-0.513742,-0.733342,-0.04522,0.25802,0.3759
-15.5978,0,0,20.5978,20.5978,5,5,25.1577,-0.376907,-22.0183,-0.100893,-0.101332,0.186613,1,0,5.53,0.3675,-0.3675,-0.14823,-0.513742,-0.733342,-0.04522,0.25802,0.3759
-15.6014,0,0,20.6014,20.6014,5,5,25.1635,-0.377494,-22.0186,0.158125,0.0153911,-0.310142,1,0,6.8425,-0.42,-0.21,0.111874,-0.397232,-1.22622,-0.04522,0.25802,0.3759
-15.605,0,0,20.605,20.605,5,5,25.1693,-0.378082,-22.0189,0.158135,0.0154831,-0.310186,1,0,6.8425,-0.42,-0.21,0.111874,-0.397232,-1.22622,-0.0511,0.25438,0.36876
-15.6074,0,0,20.6074,20.6074,5,5,25.1732,-0.377614,-22.0188,0.11913,0.0642731,-0.160709,1,0,5.7575,0.2625,-0.21,0.072712,-0.348554,-1.07787,-0.0511,0.25438,0.36876
-15.6098,0,0,20.6098,20.6098,5,5,25.1771,-0.377147,-22.0186,0.119122,0.0643345,-0.160738,1,0,5.7575,0.2625,-0.21,0.072712,-0.348554,-1.07787,-0.0511,0.25438,0.36876
-15.6119,0,0,20.6119,20.6119,5,5,25.1805,-0.378142,-22.0186,-0.368261,0.0380086,-0.105805,1,0,5.4775,-0.56,0.0525,-0.416752,-0.374906,-1.02334,-0.0511,0.25438,0.36876
-15.614,0,0,20.614,20.614,5,5,25.1839,-0.379136,-22.0186,-0.368244,0.0380621,-0.10583,1,0,5.4775,-0.56,0.0525,-0.416752,-0.374906,-1.02334,-0.0511,0.25438,0.36876
-15.6147,0,0,20.6147,20.6147,5,5,25.185,-0.362347,-22.0145,0.0112274,-0.00148807,-0.00993745,0,0,7.0875,-0.105,0.035,-0.03538,-0.414434,-0.928176,-0.0511,0.25438,0.36876
-15.5609,0,0,20.5609,20.5609,5,5,25.0983,-0.750661,-21.8223,-0.265665,0.157711,0.0276534,0,0,7.98,-0.1925,0.175,-0.32025,-0.254004,-0.891454,-0.0511,0.25438,0.36876
-15.5049,0,0,20.5049,20.5049,5,5,25.0079,-1.13114,-21.6301,-0.259025,0.156235,0.028223,0,0,5.7925,-0.6125,0.3325,-0.32025,-0.254004,-0.891454,-0.0511,0.25438,0.36876
-15.5078,0,0,20.5078,20.5078,5,5,25.0126,-1.13208,-21.6299,-0.115655,-0.248907,-0.0635317,1,0,6.23,-0.455,0.1925,-0.17629,-0.6588,-0.982466,-0.0511,0.2576,0.3696
-15.5075,0,0,20.5075,20.5075,5,5,25.0121,-1.13225,-21.6297,0.141897,0.602308,0.200319,1,0,3.29,-0.0875,-0.07,0.08235,0.19154,-0.720654,-0.0511,0.2576,0.3696
-15.5125,0,0,20.5125,20.5125,5,5,25.0201,-1.13276,-21.6297,0.141906,0.602435,0.20026,1,0,8.085,-0.2975,-0.0525,0.08235,0.19154,-0.720654,-0.0511,0.2576,0.3696
-15.516,0,0,20.516,20.516,5,5,25.0259,-1.13268,-21.6292,0.0831056,0.41555,-0.212275,1,0,6.8075,0.14,0.0525,0.023302,0.004758,-1.12996,-0.0511,0.2576,0.3696
-15.5208,0,0,20.5208,20.5208,5,5,25.0335,-1.13246,-21.6291,0.0831019,0.415672,-0.212331,1,0,7.8925,0.1225,-0.1575,0.023302,0.004758,-1.12996,-0.0511,0.2576,0.3696
-15.3039,0,0,20.3039,20.3039,5,5,24.6837,-0.96821,-21.7717,0.0748902,0.31746,-0.0774248,0,0,9.6775,-0.5775,-0.42,0.017934,-0.08784,-0.998692,-0.0511,0.2576,0.3696
-15.0883,0,0,20.0883,20.0883,5,5,24.336,-0.808478,-21.9141,0.0721027,0.311957,-0.074868,0,0,7.35,-0.315,0.105,0.017934,-0.08784,-0.998692,-0.0511,0.2576,0.3696
-15.0934,0,0,20.0934,20.0934,5,5,24.3443,-0.808285,-21.9135,0.141832,-0.473064,0.0230624,1,0,8.225,0.2275,0.105,0.087962,-0.872178,-0.901458,-0.0511,0.2576,0.3696
-15.0949,0,0,20.0949,20.0949,5,5,24.3466,-0.80762,-21.9135,0.141821,-0.473027,0.0230458,1,0,4.8825,0.3325,-0.3325,0.087962,-0.872178,-0.901458,-0.0483,0.26222,0.36946
-15.4163,0,0,20.4163,20.4163,5,5,24.865,-0.912135,-21.758,-0.00663338,-0.305439,0.370026,0,0,3.9725,0.1925,-0.2275,-0.062952,-0.712968,-0.553392,-0.0483,0.26222,0.36946
-15.7361,0,0,20.7361,20.7361,5,5,25.3808,-1.01365,-21.6067,-0.00486182,-0.297302,0.366178,0,0,7.7,-0.5775,-0.0875,-0.062952,-0.712968,-0.553392,-0.0483,0.26222,0.36946
-15.7395,0,0,20.7395,20.7395,5,5,25.3862,-1.0137,-21.6062,-0.0583147,-0.0644418,-0.460323,1,0,6.65,0.07,0.0875,-0.116632,-0.480436,-1.37348,-0.0483,0.26222,0.36946
-15.746,0,0,20.746,20.746,5,5,25.3968,-1.01394,-21.6058,-0.0583105,-0.0642753,-0.460402,1,0,9.5025,-0.0525,0.0875,-0.116632,-0.480436,-1.37348,-0.0483,0.26222,0.36946
-15.7524,0,0,20.7524,20.7524,5,5,25.4072,-1.0145,-21.6064,-0.330064,0.221909,-0.471914,1,0,9.38,-0.4725,-0.35,-0.389546,-0.194712,-1.38482,-0.0483,0.26222,0.36946
-15.7568,0,0,20.7568,20.7568,5,5,25.4142,-1.01512,-21.6063,-0.330053,0.22202,-0.471967,1,0,7.5425,-0.315,0.0525,-0.389546,-0.194712,-1.38482,-0.0483,0.26222,0.36946
-15.7044,0,0,20.7044,20.7044,5,5,25.3296,-0.951162,-21.6513,0.0347454,0.0558231,-0.0765293,0,0,7.49,-0.1575,0.105,-0.022082,-0.359412,-0.99308,-0.0483,0.26222,0.36946
-15.6491,0,0,20.6491,20.6491,5,5,25.2404,-0.888882,-21.6889,0.0336585,0.0544233,-0.0758488,0,0,3.8675,-0.0525,-0.3675,-0.022082,-0.359412,-0.99308,-0.05068,0.25774,0.3654
-15.8537,0,0,20.8537,20.8537,5,5,25.5704,-0.733626,-21.6947,0.144052,-0.261307,0.212119,0,0,4.4625,-0.2625,-0.735,0.0915,-0.680028,-0.704916,-0.05068,0.25774,0.3654
-16.057,0,0,21.057,21.057,5,5,25.8983,-0.580956,-21.6988,0.141388,-0.256139,0.209662,0,0,6.2125,0.0175,-0.4025,0.0915,-0.680028,-0.704916,-0.05068,0.25774,0.3654
-16.0601,0,0,21.0601,21.0601,5,5,25.9034,-0.580296,-21.6991,-0.217492,-0.0704268,-0.154796,1,0,6.4225,0.2275,-0.5425,-0.268888,-0.494588,-1.06652,-0.05068,0.25774,0.3654
-16.0669,0,0,21.0669,21.0669,5,5,25.9144,-0.58019,-21.7001,-0.217494,-0.0702539,-0.15488,1,0,9.7475,-0.21,-0.7,-0.268888,-0.494588,-1.06652,-0.05068,0.25774,0.3654
-15.7854,0,0,20.7854,20.7854,5,5,25.4603,-1.22873,-21.4552,-0.494705,0.60998,0.0708079,0,0,8.96,-0.6475,-0.98,-0.558638,0.19215,-0.845826,-0.05068,0.25774,0.3654
-15.5072,0,0,20.5072,20.5072,5,5,25.0116,-1.86872,-21.2012,-0.483539,0.60277,0.0738724,0,0,9.66,-0.3325,-0.1225,-0.558638,0.19215,-0.845826,-0.05068,0.25774,0.3654
-15.3625,0,0,20.3625,20.3625,5,5,24.7782,-1.29273,-21.5275,0.374548,0.181763,0.00624927,0,0,9.1,0.14,0.035,0.313174,-0.224846,-0.914878,-0.05068,0.25774,0.3654
-15.2161,0,0,20.2161,20.2161,5,5,24.5421,-0.731168,-21.8538,0.364749,0.178091,0.00812578,0,0,5.04,-0.035,0.035,0.313174,-0.224846,-0.914878,-0.05068,0.25774,0.3654
-15.34,0,0,20.34,20.34,5,5,24.742,-0.68179,-21.8331,0.0605374,-0.196594,0.0540161,0,0,6.8775,-0.7525,0.1575,0.00854,-0.602314,-0.867908,-0.04942,0.25648,0.36694
-15.3442,0,0,20.3442,20.3442,5,5,24.7487,-0.683418,-21.8328,-0.0798717,-0.00328397,-0.325329,1,0,7.315,-0.8225,0.3675,-0.132492,-0.40931,-1.24428,-0.04942,0.25648,0.36694
-15.3505,0,0,20.3505,20.3505,5,5,24.7589,-0.683831,-21.8322,-0.0798645,-0.00312159,-0.325404,1,0,9.3275,-0.0875,0.2625,-0.132492,-0.40931,-1.24428,-0.04942,0.25648,0.36694
-15.5006,0,0,20.5006,20.5006,5,5,25.001,-1.0336,-21.5969,-0.233879,-0.185327,0.0552285,0,0,10.2375,-0.0875,0.1225,-0.293288,-0.595116,-0.864736,-0.04942,0.25648,0.36694
-15.6457,0,0,20.6457,20.6457,5,5,25.2351,-1.37427,-21.3657,-0.227934,-0.181682,0.0533817,0,0,9.03,-0.1225,-0.0175,-0.293288,-0.595116,-0.864736,-0.04942,0.25648,0.36694
-15.6523,0,0,20.6523,20.6523,5,5,25.2457,-1.22788,-21.4243,0.101896,-0.0174732,0.00651177,0,0,8.9425,0.2275,0.105,0.040504,-0.43127,-0.911218,-0.04942,0.25648,0.36694
-15.6555,0,0,20.6555,20.6555,5,5,25.2508,-1.08531,-21.482,0.0994084,-0.0173704,0.00651885,0,0,5.7575,0.245,0.3325,0.040504,-0.43127,-0.911218,-0.04942,0.25648,0.36694
-15.6583,0,0,20.6583,20.6583,5,5,25.2553,-1.08269,-21.4885,0.0652254,-0.168859,-0.181994,1,0,6.0025,-0.28,-4.2875,0.006222,-0.582672,-1.09824,-0.04942,0.25648,0.36694
-15.6631,0,0,20.6631,20.6631,5,5,25.263,-1.08298,-21.4887,0.0652304,-0.168737,-0.182051,1,0,7.91,-0.2275,-0.21,0.006222,-0.582672,-1.09824,-0.05362,0.25172,0.3717
-15.6674,0,0,20.6674,20.6674,5,5,25.2699,-1.08569,-21.4812,0.00975876,0.239153,0.146538,1,0,7.5425,0.4025,4.4275,-0.049532,-0.175314,-0.772138,-0.05362,0.25172,0.3717
-15.6757,0,0,20.6757,20.6757,5,5,25.2833,-1.08628,-21.4811,0.00976907,0.239364,0.146438,1,0,11.0775,-0.315,0.0175,-0.049532,-0.175314,-0.772138,-0.05362,0.25172,0.3717
-15.4514,0,0,20.4514,20.4514,5,5,24.9217,-0.945346,-21.6051,0.058941,0.338575,-0.0560464,0,0,10.3775,-0.7875,-0.3675,0.002318,-0.070516,-0.975756,-0.05362,0.25172,0.3717
-15.2314,0,0,20.2314,20.2314,5,5,24.5667,-0.807324,-21.7295,0.0565324,0.332965,-0.0534203,0,0,10.5875,-0.14,-0.3675,0.002318,-0.070516,-0.975756,-0.05362,0.25172,0.3717
-15.2381,0,0,20.2381,20.2381,5,5,24.5776,-0.809543,-21.7221,0.17016,-0.00161246,-0.276282,1,0,9.73,0.595,4.2875,0.116388,-0.404918,-1.19682,-0.05362,0.25172,0.3717
-15.241,0,0,20.241,20.241,5,5,24.5823,-0.809215,-21.7213,0.170155,-0.00153801,-0.276316,1,0,6.2125,0.3325,0.14,0.116388,-0.404918,-1.19682,-0.05362,0.25172,0.3717
-15.3054,0,0,20.3054,20.3054,5,5,24.6861,-1.00575,-21.5788,-0.120411,-0.0404599,0.0710693,0,0,7.6825,-0.175,0.8225,-0.178852,-0.445422,-0.851316,-0.05362,0.25172,0.3717
-15.368,0,0,20.368,20.368,5,5,24.7871,-1.19663,-21.4456,-0.11708,-0.0388864,0.0702738,0,0,7.6825,-0.175,0.8225,-0.178852,-0.445422,-0.851316,-0.0483,0.25396,0.36974
-15.3749,0,0,20.3749,20.3749,5,5,24.7982,-1.19776,-21.4443,-0.118397,-0.152044,-0.03247,1,0,9.835,-0.2975,0.805,-0.180194,-0.558638,-0.953186,-0.0483,0.25396,0.36974
-15.3818,0,0,20.3818,20.3818,5,5,24.8093,-1.19888,-21.4429,-0.118377,-0.151868,-0.0325519,1,0,9.835,-0.2975,0.805,-0.180194,-0.558638,-0.953186,-0.0483,0.25396,0.36974
-15.3898,0,0,20.3898,20.3898,5,5,24.8222,-1.20027,-21.4427,-0.10997,-0.0901121,-0.17539,1,0,10.7975,-0.7175,0.2625,-0.171776,-0.49715,-1.09483,-0.0483,0.25396,0.36974
-15.3978,0,0,20.3978,20.3978,5,5,24.8351,-1.20166,-21.4425,-0.109946,-0.0899084,-0.175485,1,0,10.7975,-0.7175,0.2625,-0.171776,-0.49715,-1.09483,-0.0483,0.25396,0.36974
-15.3309,0,0,20.3309,20.3309,5,5,24.7273,-0.947393,-21.5755,0.167221,0.064618,-0.0643355,0,0,8.295,4.3225,-0.245,0.11102,-0.341112,-0.985394,-0.0483,0.25396,0.36974
-15.2656,0,0,20.2656,20.2656,5,5,24.6219,-0.699661,-21.7079,0.162897,0.0629738,-0.0635117,0,0,8.295,4.3225,-0.245,0.11102,-0.341112,-0.985394,-0.0483,0.25396,0.36974
-15.2708,0,0,20.2708,20.2708,5,5,24.6304,-0.699495,-21.7092,-0.142035,0.426557,0.0267942,1,0,8.295,-0.2625,-0.9275,-0.1952,0.02196,-0.895724,-0.0483,0.25396,0.36974
-15.2761,0,0,20.2761,20.2761,5,5,24.6388,-0.699328,-21.7106,-0.142038,0.426691,0.0267329,1,0,8.295,-0.2625,-0.9275,-0.1952,0.02196,-0.895724,-0.04662,0.25312,0.36974
-15.2571,0,0,20.2571,20.2571,5,5,24.6082,-0.439207,-21.8469,0.164304,0.0497071,0.0837986,0,0,11.3225,-0.6825,-0.595,0.116998,-0.354166,-0.83936,-0.04662,0.25312,0.36974
-15.2388,0,0,20.2388,20.2388,5,5,24.5788,-0.185625,-21.982,0.159879,0.04925,0.0840343,0,0,11.3225,-0.6825,-0.595,0.116998,-0.354166,-0.83936,-0.04662,0.25312,0.36974
-15.3774,0,0,20.3774,20.3774,5,5,24.8022,-0.039768,-22.0094,0.120887,-0.152255,0.163433,0,0,11.2525,-0.56,-0.735,0.080398,-0.559004,-0.758962,-0.04662,0.25312,0.36974
-15.3848,0,0,20.3848,20.3848,5,5,24.8142,-0.0399254,-22.0105,0.0251593,-0.268452,-0.00497166,1,0,10.3075,-0.385,-0.735,-0.015738,-0.67527,-0.92598,-0.04662,0.25312,0.36974
-15.389,0,0,20.389,20.389,5,5,24.821,-0.0399248,-22.0103,0.0251593,-0.268345,-0.00502118,1,0,7.3675,0.0175,-0.0875,-0.015738,-0.67527,-0.92598,-0.04662,0.25312,0.36974
-15.3949,0,0,20.3949,20.3949,5,5,24.8305,-0.0406794,-22.0103,-0.153897,-0.0571585,0.226913,1,0,8.925,-0.4375,-0.0175,-0.195566,-0.464454,-0.695766,-0.04662,0.25312,0.36974
-15.4021,0,0,20.4021,20.4021,5,5,24.842,-0.0425362,-22.0096,-0.153865,-0.0569763,0.226828,1,0,10.0275,-0.84,0.6475,-0.195566,-0.464454,-0.695766,-0.04662,0.25312,0.36974
-15.4106,0,0,20.4106,20.4106,5,5,24.8558,-0.0445097,-22.0083,-0.111432,-0.557234,-0.0324477,1,0,11.27,-0.7525,0.9975,-0.152988,-0.96441,-0.952942,-0.04354,0.25732,0.3696
-15.4205,0,0,20.4205,20.4205,5,5,24.8718,-0.0462037,-22.007,-0.00109348,0.469374,0.228331,1,0,12.6,-0.6125,0.91,-0.042212,0.060878,-0.694058,-0.04354,0.25732,0.3696
-15.4293,0,0,20.4293,20.4293,5,5,24.8859,-0.0471453,-22.0061,-0.00107705,0.469596,0.228228,1,0,11.4625,-0.2975,0.5425,-0.042212,0.060878,-0.694058,-0.04354,0.25732,0.3696
-15.4374,0,0,20.4374,20.4374,5,5,24.8991,-0.0482244,-22.0053,0.350278,0.373691,-0.165182,1,0,10.9725,-0.4025,0.5075,0.310612,-0.035136,-1.08434,-0.04354,0.25732,0.3696
-15.4428,0,0,20.4428,20.4428,5,5,24.9077,-0.049387,-22.0051,0.350299,0.373827,-0.165245,1,0,8.4,-0.595,0.21,0.310612,-0.035136,-1.08434,-0.04354,0.25732,0.3696
-15.3468,0,0,20.3468,20.3468,5,5,24.753,0.514824,-22.3379,0.404717,0.0948649,-0.0184531,0,0,9.2925,-0.245,-0.07,0.37515,-0.311344,-0.939766,-0.04354,0.25732,0.3696
-15.2538,0,0,20.2538,20.2538,5,5,24.6029,1.06438,-22.6696,0.395127,0.0924296,-0.0174796,0,0,10.08,-0.84,-0.1925,0.37515,-0.311344,-0.939766,-0.04354,0.25732,0.3696
-15.344,0,0,20.344,20.344,5,5,24.7485,1.34707,-22.8003,0.221693,-0.134293,0.0977978,0,0,11.025,-0.7875,0.1575,0.205936,-0.540094,-0.824232,-0.04354,0.25732,0.3696
-15.4343,0,0,20.4343,20.4343,5,5,24.894,1.62811,-22.9126,0.21679,-0.132042,0.0966164,0,0,12.88,-0.3675,-0.4375,0.205936,-0.540094,-0.824232,-0.04802,0.24878,0.36974
-15.4127,0,0,20.4127,20.4127,5,5,24.8592,1.31737,-22.7674,-0.244294,0.063357,-0.0929572,0,0,13.23,-0.2625,-0.5425,-0.262544,-0.344406,-1.01272,-0.04802,0.24878,0.36974
-15.3898,0,0,20.3898,20.3898,5,5,24.8222,1.01398,-22.6217,-0.238999,0.0628168,-0.0925884,0,0,12.2325,0.1575,-0.105,-0.262544,-0.344406,-1.01272,-0.04802,0.24878,0.36974
-15.3992,0,0,20.3992,20.3992,5,5,24.8374,1.0134,-22.6202,0.206013,-0.350464,0.101313,1,0,12.0575,0.0175,0.7175,0.184342,-0.757498,-0.820206,-0.04802,0.24878,0.36974
-15.4086,0,0,20.4086,20.4086,5,5,24.8525,1.01282,-22.6188,0.206023,-0.350224,0.101203,1,0,12.0575,0.0175,0.7175,0.184342,-0.757498,-0.820206,-0.04802,0.24878,0.36974
-15.4159,0,0,20.4159,20.4159,5,5,24.8643,1.0124,-22.617,0.251344,-0.36457,0.0707477,1,0,10.185,0.1925,0.875,0.229848,-0.772016,-0.85034,-0.04802,0.24878,0.36974
-15.4232,0,0,20.4232,20.4232,5,5,24.8761,1.01198,-22.6152,0.251352,-0.364383,0.0706611,1,0,10.185,0.1925,0.875,0.229848,-0.772016,-0.85034,-0.04802,0.24878,0.36974
-15.4314,0,0,20.4314,20.4314,5,5,24.8893,1.01024,-22.6135,0.132326,-0.299325,-0.297051,1,0,10.9375,-0.525,1.155,0.110288,-0.707234,-1.21512,-0.04802,0.24878,0.36974
-15.4395,0,0,20.4395,20.4395,5,5,24.9025,1.00851,-22.6118,0.132356,-0.299117,-0.297147,1,0,10.9375,-0.525,1.155,0.110288,-0.707234,-1.21512,-0.05348,0.25648,0.37142
-15.4485,0,0,20.4485,20.4485,5,5,24.9169,1.00681,-22.6112,0.0490468,-0.279348,0.00200392,1,0,11.655,-0.7875,0.5425,0.026596,-0.687714,-0.918172,-0.05348,0.25648,0.37142
-15.4574,0,0,20.4574,20.4574,5,5,24.9313,1.00511,-22.6106,0.0490765,-0.27912,0.00189837,1,0,11.655,-0.7875,0.5425,0.026596,-0.687714,-0.918172,-0.05348,0.25648,0.37142
-15.4674,0,0,20.4674,20.4674,5,5,24.9475,1.00421,-22.6101,-0.251585,0.0459934,-0.169979,1,0,12.635,-0.385,0.2975,-0.275354,-0.363194,-1.08861,-0.05348,0.25648,0.37142
-15.4775,0,0,20.4775,20.4775,5,5,24.9636,1.00331,-22.6096,-0.251569,0.0462492,-0.170098,1,0,12.635,-0.385,0.2975,-0.275354,-0.363194,-1.08861,-0.05348,0.25648,0.37142
-15.487,0,0,20.487,20.487,5,5,24.9791,1.00194,-22.6103,-0.247172,-0.0365523,-0.0937377,1,0,12.25,-0.9275,-0.2275,-0.270962,-0.446154,-1.01272,-0.05348,0.25648,0.37142
-15.4966,0,0,20.4966,20.4966,5,5,24.9945,1.00058,-22.611,-0.247148,-0.0363076,-0.0938512,1,0,12.25,-0.9275,-0.2275,-0.270962,-0.446154,-1.01272,-0.05348,0.25648,0.37142
-15.6514,0,0,20.6514,20.6514,5,5,25.2442,1.08497,-22.6027,0.0962771,-0.239379,0.0795994,0,0,12.2325,-0.4375,-0.7175,0.075396,-0.652944,-0.83875,-0.05348,0.25648,0.37142
-15.5488,0,0,20.5488,20.5488,5,5,25.0787,1.31604,-22.7648,0.144241,0.134855,-0.0674021,0,0,13.545,0.175,-0.665,0.127612,-0.276452,-0.98576,-0.04662,0.25396,0.37884
-15.56,0,0,20.56,20.56,5,5,25.0967,1.31709,-22.7652,-0.0841704,-0.268612,-0.0939698,1,0,13.685,0.42,-0.6825,-0.101748,-0.679784,-1.01199,-0.04662,0.25396,0.37884
-15.572,0,0,20.572,20.572,5,5,25.1161,1.31708,-22.7649,-0.0841703,-0.268306,-0.094113,1,0,14.42,0.0525,0,-0.101748,-0.679784,-1.01199,-0.04662,0.25396,0.37884
-15.5825,0,0,20.5825,20.5825,5,5,25.133,1.31703,-22.7641,0.044727,0.043995,-0.162229,1,0,13.055,0.1225,0.21,0.027694,-0.368074,-1.07946,-0.04662,0.25396,0.37884
-15.5975,0,0,20.5975,20.5975,5,5,25.1573,1.31461,-22.7633,0.0447692,0.0443791,-0.162408,1,0,17.185,-1.1025,0.8575,0.027694,-0.368074,-1.07946,-0.04662,0.25396,0.37884
-15.6081,0,0,20.6081,20.6081,5,5,25.1744,1.31265,-22.7619,0.146608,0.105713,-0.379907,1,0,13.1425,-0.7175,1.0325,0.12993,-0.307074,-1.29515,-0.04662,0.25396,0.37884
-15.6179,0,0,20.6179,20.6179,5,5,25.1902,1.31134,-22.7607,0.146631,0.105963,-0.380024,1,0,12.425,-0.42,0.7875,0.12993,-0.307074,-1.29515,-0.04662,0.25396,0.37884
-15.6287,0,0,20.6287,20.6287,5,5,25.2076,1.31018,-22.7599,-0.108833,-0.239381,-0.37585,1,0,13.335,-0.4375,0.5425,-0.126636,-0.652334,-1.29088,-0.04662,0.25396,0.37884
-15.6381,0,0,20.6381,20.6381,5,5,25.2227,1.30821,-22.7598,-0.108799,-0.239142,-0.375961,1,0,12.04,-1.0675,0.315,-0.126636,-0.652334,-1.29088,-0.049,0.25466,0.37492
-15.6481,0,0,20.6481,20.6481,5,5,25.2389,1.30617,-22.761,-0.741582,-0.183563,0.0794434,1,0,12.6525,-1.3825,-0.2625,-0.762134,-0.597068,-0.838872,-0.049,0.25466,0.37492
-15.658,0,0,20.658,20.658,5,5,25.2549,1.30622,-22.7609,-0.741583,-0.183311,0.0793245,1,0,12.53,0,-0.1925,-0.762134,-0.597068,-0.838872,-0.049,0.25466,0.37492
-15.6671,0,0,20.6671,20.6671,5,5,25.2695,1.3062,-22.7611,-0.162825,-0.0933175,-0.289753,1,0,11.7775,-0.07,-0.245,-0.180926,-0.507398,-1.20499,-0.049,0.25466,0.37492
-15.6778,0,0,20.6778,20.6778,5,5,25.2867,1.30493,-22.7621,-0.162802,-0.093045,-0.289881,1,0,13.265,-0.9625,-0.42,-0.180926,-0.507398,-1.20499,-0.049,0.25466,0.37492
-15.6883,0,0,20.6883,20.6883,5,5,25.3036,1.30397,-22.7637,-0.222071,0.392798,-0.202098,1,0,13.0725,-0.9275,-0.77,-0.240462,-0.022326,-1.11776,-0.049,0.25466,0.37492
-15.7008,0,0,20.7008,20.7008,5,5,25.3238,1.30323,-22.7648,-0.222058,0.393116,-0.202249,1,0,14.91,-0.7,-0.595,-0.240462,-0.022326,-1.11776,-0.049,0.25466,0.37492
-15.7134,0,0,20.7134,20.7134,5,5,25.3441,1.30299,-22.7655,0.163178,0.168601,0.0777992,1,0,14.98,-0.3325,-0.49,0.1464,-0.246928,-0.839726,-0.049,0.25466,0.37492
-15.7258,0,0,20.7258,20.7258,5,5,25.3642,1.30312,-22.7656,0.163175,0.168917,0.0776496,1,0,14.805,0.0175,-0.2625,0.1464,-0.246928,-0.839726,-0.04816,0.25018,0.37338
-15.7386,0,0,20.7386,20.7386,5,5,25.3848,1.30283,-22.7658,0.164638,0.196233,0.236099,1,0,15.1725,-0.245,-0.245,0.147864,-0.219966,-0.682346,-0.04816,0.25018,0.37338
-15.749,0,0,20.749,20.749,5,5,25.4016,1.30265,-22.7649,0.164641,0.196498,0.235973,1,0,12.985,0.105,0.3325,0.147864,-0.219966,-0.682346,-0.04816,0.25018,0.37338
-15.7598,0,0,20.7598,20.7598,5,5,25.419,1.3015,-22.7637,0.297567,-0.200994,-0.0142341,1,0,13.3175,-0.3325,0.735,0.281332,-0.61732,-0.930494,-0.04816,0.25018,0.37338
-15.771,0,0,20.771,20.771,5,5,25.4372,1.30014,-22.7613,0.29759,-0.200709,-0.0143693,1,0,13.7025,-0.1225,1.47,0.281332,-0.61732,-0.930494,-0.04816,0.25018,0.37338
-15.7831,0,0,20.7831,20.7831,5,5,25.4566,1.29852,-22.759,0.0330228,-0.349885,-0.0132851,1,0,14.455,-0.315,1.4175,0.015616,-0.766648,-0.929274,-0.04816,0.25018,0.37338
-15.797,0,0,20.797,20.797,5,5,25.479,1.29704,-22.7569,0.0330486,-0.349533,-0.0134523,1,0,16.0825,-0.2975,1.26,0.015616,-0.766648,-0.929274,-0.04816,0.25018,0.37338
-15.8098,0,0,20.8098,20.8098,5,5,25.4997,1.29549,-22.7549,-0.0613187,0.219416,0.249134,1,0,15.155,-0.3325,1.2775,-0.079178,-0.198616,-0.66856,-0.04816,0.25018,0.37338
-15.8228,0,0,20.8228,20.8228,5,5,25.5206,1.29331,-22.7548,-0.0612807,0.219746,0.248977,1,0,15.33,-1.155,0.42,-0.079178,-0.198616,-0.66856,-0.0497,0.25354,0.38066
-15.835,0,0,20.835,20.835,5,5,25.5403,1.29155,-22.7552,0.242586,0.299561,0.22006,1,0,14.6125,-1.0675,0.035,0.225944,-0.119194,-0.697108,-0.0497,0.25354,0.38066
-15.8457,0,0,20.8457,20.8457,5,5,25.5575,1.29096,-22.7554,0.242596,0.299832,0.21993,1,0,13.23,-0.3675,-0.105,0.225944,-0.119194,-0.697108,-0.0497,0.25354,0.38066
-15.8919,0,0,20.8919,20.8919,5,5,25.6321,1.78162,-22.987,0.326729,-0.0359199,0.180679,0,0,13.7025,-0.6475,-0.4725,0.31903,-0.45567,-0.735294,-0.0497,0.25354,0.38066
-15.9383,0,0,20.9383,20.9383,5,5,25.7069,2.26028,-23.2157,0.31838,-0.0348705,0.179847,0,0,13.965,-1.0675,-0.91,0.31903,-0.45567,-0.735294,-0.0497,0.25354,0.38066
-15.9664,0,0,20.9664,20.9664,5,5,25.7523,2.19793,-23.184,-0.0402516,-0.00519465,0.0254873,0,0,14.7,-0.7175,-0.7,-0.042212,-0.426756,-0.88816,-0.0497,0.25354,0.38066
-15.9959,0,0,20.9959,20.9959,5,5,25.7999,2.13801,-23.152,-0.0392066,-0.00443089,0.0251624,0,0,16.4675,-0.1575,-0.56,-0.042212,-0.426756,-0.88816,-0.0497,0.25354,0.38066
-15.8558,0,0,20.8558,20.8558,5,5,25.5738,2.21088,-23.2527,0.0190505,0.211213,-0.108539,0,0,16.1525,0.28,-0.42,0.017568,-0.207766,-1.02248,-0.0497,0.25354,0.38066
-15.7189,0,0,20.7189,20.7189,5,5,25.3531,2.28003,-23.3532,0.0178446,0.207716,-0.106926,0,0,16.8,-0.4375,-0.1225,0.017568,-0.207766,-1.02248,-0.0497,0.25354,0.38066
-15.7331,0,0,20.7331,20.7331,5,5,25.3759,2.2792,-23.353,0.0348671,0.176813,-0.368854,1,0,16.3975,-0.4025,0.1575,0.034648,-0.238998,-1.28222,-0.05012,0.25186,0.3808
-15.8463,0,0,20.8463,20.8463,5,5,25.5586,2.54315,-23.445,0.194513,-0.118384,0.170206,0,0,14.9975,-0.2625,0.595,0.199592,-0.536678,-0.745786,-0.05012,0.25186,0.3808
-15.9594,0,0,20.9594,20.9594,5,5,25.741,2.80131,-23.5341,0.190012,-0.115609,0.16864,0,0,16.1,-0.035,0.945,0.199592,-0.536678,-0.745786,-0.05012,0.25186,0.3808
-15.9725,0,0,20.9725,20.9725,5,5,25.7621,2.7999,-23.532,0.280179,0.149739,0.407001,1,0,15.3825,-0.245,1.26,0.290116,-0.271938,-0.509106,-0.05012,0.25186,0.3808
-15.9856,0,0,20.9856,20.9856,5,5,25.7833,2.79849,-23.53,0.280204,0.150072,0.406842,1,0,15.3825,-0.245,1.26,0.290116,-0.271938,-0.509106,-0.05012,0.25186,0.3808
-15.7281,0,0,20.7281,20.7281,5,5,25.3679,3.46775,-23.982,0.412501,0.374453,0.0164477,0,0,16.8525,-0.42,1.1375,0.434686,-0.040992,-0.899018,-0.05012,0.25186,0.3808
-15.4741,0,0,20.4741,20.4741,5,5,24.9583,4.12152,-24.4367,0.401116,0.367675,0.0187975,0,0,16.8525,-0.42,1.1375,0.434686,-0.040992,-0.899018,-0.05012,0.25186,0.3808
-15.4898,0,0,20.4898,20.4898,5,5,24.9836,4.12061,-24.4364,-0.324017,0.254741,-0.255071,1,0,17.7625,-0.455,0.1575,-0.293532,-0.154208,-1.17059,-0.05012,0.25186,0.3808
-15.5055,0,0,20.5055,20.5055,5,5,25.0089,4.1197,-24.4362,-0.324001,0.255141,-0.255256,1,0,17.7625,-0.455,0.1575,-0.293532,-0.154208,-1.17059,-0.04788,0.24668,0.38682
-15.5194,0,0,20.5194,20.5194,5,5,25.0313,4.11889,-24.4374,0.00268835,-0.0801092,-0.285665,1,0,16.1875,-0.7525,-0.6125,0.034526,-0.489464,-1.2006,-0.04788,0.24668,0.38682
-15.5333,0,0,20.5333,20.5333,5,5,25.0537,4.11808,-24.4386,0.00270245,-0.0797554,-0.28583,1,0,16.1875,-0.7525,-0.6125,0.034526,-0.489464,-1.2006,-0.04788,0.24668,0.38682
-15.6724,0,0,20.6724,20.6724,5,5,25.278,3.83751,-24.2527,-0.179257,-0.162298,0.0370322,0,0,16.2575,-1.1375,-0.5075,-0.15311,-0.575596,-0.878888,-0.04788,0.24668,0.38682
-15.8081,0,0,20.8081,20.8081,5,5,25.4969,3.56425,-24.0701,-0.174498,-0.158721,0.0356758,0,0,16.2575,-1.1375,-0.5075,-0.15311,-0.575596,-0.878888,-0.04788,0.24668,0.38682
-15.8229,0,0,20.8229,20.8229,5,5,25.5208,3.56359,-24.0708,-0.336549,-0.12122,-0.0123292,1,0,16.9575,-0.56,-0.4025,-0.315858,-0.538508,-0.926346,-0.04788,0.24668,0.38682
-15.8376,0,0,20.8376,20.8376,5,5,25.5446,3.56293,-24.0715,-0.336537,-0.120845,-0.0125074,1,0,16.9575,-0.56,-0.4025,-0.315858,-0.538508,-0.926346,-0.04788,0.24668,0.38682
-15.8533,0,0,20.8533,20.8533,5,5,25.5698,3.56226,-24.0704,-0.0927037,0.0355066,-0.292896,1,0,17.6575,-0.105,0.56,-0.071004,-0.382714,-1.20438,-0.04788,0.24668,0.38682
-15.8687,0,0,20.8687,20.8687,5,5,25.5947,3.56132,-24.0687,-0.12476,-0.231437,-0.095135,1,0,17.4825,-0.0875,0.9625,-0.103212,-0.649772,-1.00796,-0.04928,0.2443,0.38038
-15.8845,0,0,20.8845,20.8845,5,5,25.6201,3.55962,-24.0667,-0.12473,-0.231037,-0.0953247,1,0,17.7625,-0.4375,1.26,-0.103212,-0.649772,-1.00796,-0.04928,0.2443,0.38038
-15.9001,0,0,20.9001,20.9001,5,5,25.6453,3.55743,-24.0646,0.127148,0.154304,0.526975,1,0,17.6575,-0.63,1.5225,0.149694,-0.265228,-0.390278,-0.04928,0.2443,0.38038
-15.9158,0,0,20.9158,20.9158,5,5,25.6706,3.55524,-24.0624,0.127186,0.154702,0.526787,1,0,17.6575,-0.63,1.5225,0.149694,-0.265228,-0.390278,-0.04928,0.2443,0.38038
-15.932,0,0,20.932,20.932,5,5,25.6968,3.5525,-24.0607,-0.00275573,0.220819,-0.202493,1,0,18.2175,-1.05,1.3825,0.019154,-0.199592,-1.11374,-0.04928,0.2443,0.38038
-15.9483,0,0,20.9483,20.9483,5,5,25.723,3.54977,-24.059,-0.00270805,0.221231,-0.202688,1,0,18.2175,-1.05,1.3825,0.019154,-0.199592,-1.11374,-0.04928,0.2443,0.38038
-15.966,0,0,20.966,20.966,5,5,25.7516,3.54907,-24.0589,-0.326212,0.322191,-0.333475,1,0,19.6,-0.3675,0.0525,-0.305732,-0.099186,-1.2433,-0.04928,0.2443,0.38038
-16.0376,0,0,21.0376,21.0376,5,5,25.8671,3.82373,-24.1681,0.21654,-0.111392,0.0636017,0,0,18.165,-0.14,-0.07,0.244122,-0.533994,-0.848144,-0.04928,0.2443,0.38038
-16.1097,0,0,21.1097,21.1097,5,5,25.9834,4.09081,-24.2765,0.21189,-0.109712,0.0624271,0,0,19.075,-0.5775,-0.4375,0.244122,-0.533994,-0.848144,-0.04578,0.24346,0.3892
-15.8931,0,0,20.8931,20.8931,5,5,25.634,4.08527,-24.3874,-0.0600204,0.352804,-0.0938905,0,0,17.675,-0.8925,-0.63,-0.029036,-0.06649,-1.00589,-0.04578,0.24346,0.3892
-15.6824,0,0,20.6824,20.6824,5,5,25.2942,4.07822,-24.4977,-0.0598978,0.347468,-0.0913396,0,0,19.845,-1.155,-0.455,-0.029036,-0.06649,-1.00589,-0.04578,0.24346,0.3892
-15.5481,0,0,20.5481,20.5481,5,5,25.0776,4.09231,-24.5834,-0.0246691,0.22131,-0.0785622,0,0,19.5475,-1.015,-0.2275,0.006588,-0.1891,-0.994788,-0.04578,0.24346,0.3892
-15.416,0,0,20.416,20.416,5,5,24.8645,4.10573,-24.6682,-0.0249029,0.217941,-0.0770117,0,0,19.39,-0.7175,-0.1225,0.006588,-0.1891,-0.994788,-0.04578,0.24346,0.3892
-15.4347,0,0,20.4347,20.4347,5,5,24.8946,4.10462,-24.6682,0.485964,-0.069558,-0.0746488,1,0,20.44,-0.6125,0.105,0.519598,-0.476776,-0.992226,-0.04578,0.24346,0.3892
-15.4522,0,0,20.4522,20.4522,5,5,24.9228,4.10346,-24.6672,0.485984,-0.069112,-0.0748543,1,0,19.355,-0.4025,0.6125,0.519598,-0.476776,-0.992226,-0.04578,0.24346,0.3892
-15.4708,0,0,20.4708,20.4708,5,5,24.9529,4.10222,-24.6656,-0.122881,-0.212503,-0.0124926,1,0,20.3525,-0.2975,0.9625,-0.091866,-0.620492,-0.930128,-0.04578,0.24346,0.3892
-15.4896,0,0,20.4896,20.4896,5,5,24.9833,4.09965,-24.6639,-0.122836,-0.212021,-0.0127132,1,0,20.5625,-0.98,1.33,-0.091866,-0.620492,-0.930128,-0.05012,0.24486,0.385
-15.5079,0,0,20.5079,20.5079,5,5,25.0128,4.09727,-24.662,0.00112088,-0.0300742,0.61202,1,0,20.0375,-0.8225,1.4,0.032574,-0.4392,-0.310002,-0.05012,0.24486,0.385
-15.5262,0,0,20.5262,20.5262,5,5,25.0423,4.09489,-24.6602,0.00116227,-0.0296077,0.611805,1,0,20.0375,-0.8225,1.4,0.032574,-0.4392,-0.310002,-0.05012,0.24486,0.385
-15.5444,0,0,20.5444,20.5444,5,5,25.0716,4.09294,-24.6584,0.124383,0.0816248,-0.181427,1,0,19.95,-0.63,1.225,0.156282,-0.328546,-1.0969,-0.05012,0.24486,0.385
-15.5626,0,0,20.5626,20.5626,5,5,25.1009,4.09099,-24.6566,0.124417,0.0820882,-0.181641,1,0,19.95,-0.63,1.225,0.156282,-0.328546,-1.0969,-0.05012,0.24486,0.385
-15.5822,0,0,20.5822,20.5822,5,5,25.1325,4.08998,-24.6569,-0.40986,0.354197,-0.219742,1,0,21.315,-0.63,-0.0875,-0.380274,-0.057218,-1.13448,-0.05012,0.24486,0.385
-15.6011,0,0,20.6011,20.6011,5,5,25.1631,4.08907,-24.6576,0.0694172,-0.107082,-0.0666501,1,0,20.755,-0.6825,-0.315,0.101016,-0.5185,-0.982344,-0.05012,0.24486,0.385
-15.6218,0,0,20.6218,20.6218,5,5,25.1964,4.08806,-24.6582,0.0694347,-0.106557,-0.0668952,1,0,22.2425,-0.7175,-0.2625,0.101016,-0.5185,-0.982344,-0.05012,0.24486,0.385
-15.5081,0,0,20.5081,20.5081,5,5,25.013,4.07932,-24.7192,-0.0335545,0.176456,-0.153316,0,0,20.8075,-0.98,-0.455,-0.002562,-0.232898,-1.06945,-0.0511,0.2443,0.3934
-15.3978,0,0,20.3978,20.3978,5,5,24.8351,4.0699,-24.7799,-0.0333906,0.173652,-0.152001,0,0,22.05,-1.155,-0.455,-0.002562,-0.232898,-1.06945,-0.0511,0.2443,0.3934
-15.3243,0,0,20.3243,20.3243,5,5,24.7166,3.88652,-24.7352,-0.154478,0.160269,-0.0562636,0,0,20.8775,-0.8225,-0.2275,-0.127368,-0.244488,-0.975512,-0.0511,0.2443,0.3934
-15.2518,0,0,20.2518,20.2518,5,5,24.5996,3.70687,-24.6901,-0.151349,0.158504,-0.0552252,0,0,20.8775,-0.8225,-0.2275,-0.127368,-0.244488,-0.975512,-0.0511,0.2443,0.3934
-15.2724,0,0,20.2724,20.2724,5,5,24.633,3.70598,-24.6892,-0.210011,-0.157032,-0.158497,1,0,22.225,-0.28,0.5075,-0.186294,-0.560224,-1.07775,-0.0511,0.2443,0.3934
-15.2931,0,0,20.2931,20.2931,5,5,24.6663,3.7051,-24.6883,-0.209996,-0.156504,-0.158738,1,0,22.225,-0.28,0.5075,-0.186294,-0.560224,-1.07775,-0.0511,0.2443,0.3934
-15.3871,0,0,20.3871,20.3871,5,5,24.8179,3.84988,-24.7226,0.133353,-0.142451,0.0246741,0,0,23.5025,-0.56,1.96,0.16104,-0.548512,-0.894504,-0.0511,0.2443,0.3934
-15.4084,0,0,20.4084,20.4084,5,5,24.8523,3.84664,-24.7199,-0.0290172,0.157549,-0.237454,1,0,22.75,-1.085,2.0475,-0.002074,-0.249368,-1.15436,-0.0511,0.2443,0.3934
-15.4294,0,0,20.4294,20.4294,5,5,24.8861,3.84328,-24.7176,-0.0289586,0.158085,-0.237698,1,0,22.435,-1.26,1.8375,-0.002074,-0.249368,-1.15436,-0.05026,0.2394,0.38514
-15.4503,0,0,20.4503,20.4503,5,5,24.9198,3.84058,-24.7152,-0.186114,0.145917,0.134223,1,0,22.4,-0.875,1.7325,-0.159942,-0.262056,-0.78507,-0.05026,0.2394,0.38514
-15.4703,0,0,20.4703,20.4703,5,5,24.9521,3.83823,-24.7136,-0.186073,0.146428,0.133988,1,0,21.595,-0.875,1.26,-0.159942,-0.262056,-0.78507,-0.05026,0.2394,0.38514
-15.5101,0,0,20.5101,20.5101,5,5,25.0163,3.8446,-24.7007,0.0118375,-0.0358737,-0.00812762,0,0,23.345,-0.7875,1.1025,0.038918,-0.445178,-0.925614,-0.05026,0.2394,0.38514
-15.55,0,0,20.55,20.55,5,5,25.0806,3.85176,-24.689,0.0117128,-0.0348633,-0.00860903,0,0,24.045,-0.63,0.4375,0.038918,-0.445178,-0.925614,-0.05026,0.2394,0.38514
-15.5573,0,0,20.5573,20.5573,5,5,25.0925,3.98113,-24.7544,0.0993596,-0.0111706,-0.0431392,0,0,25.025,-0.7,0.035,0.129198,-0.421632,-0.959652,-0.05026,0.2394,0.38514
-15.5646,0,0,20.5646,20.5646,5,5,25.1043,4.10767,-24.8193,0.0971566,-0.0110508,-0.0433673,0,0,24.8675,-0.595,-0.0875,0.129198,-0.421632,-0.959652,-0.05026,0.2394,0.38514
-15.6514,0,0,20.6514,20.6514,5,5,25.2442,4.25486,-24.8566,0.11877,-0.0945374,0.0791135,0,0,23.8875,-0.875,-0.3675,0.153476,-0.507154,-0.83692,-0.05026,0.2394,0.38514
-15.7372,0,0,20.7372,20.7372,5,5,25.3826,4.39953,-24.8923,0.116252,-0.0924401,0.0779107,0,0,24.2375,-0.5775,-0.385,0.153476,-0.507154,-0.83692,-0.05096,0.23982,0.38808
-15.8025,0,0,20.8025,20.8025,5,5,25.4879,4.60765,-24.9684,0.149684,-0.0556147,0.10158,0,0,22.645,-0.4375,-0.3675,0.190686,-0.471896,-0.812398,-0.05096,0.23982,0.38808
-15.868,0,0,20.868,20.868,5,5,25.5936,4.81064,-25.0424,0.146153,-0.0540809,0.100524,0,0,23.555,-0.455,0.1575,0.190686,-0.471896,-0.812398,-0.05096,0.23982,0.38808
-15.8909,0,0,20.8909,20.8909,5,5,25.6305,4.80997,-25.0418,-0.0353346,-0.111024,-0.0824536,1,0,24.22,-0.21,0.3325,0.008418,-0.529358,-0.99369,-0.05096,0.23982,0.38808
-15.9153,0,0,20.9153,20.9153,5,5,25.6698,4.80818,-25.0396,-0.0353035,-0.110406,-0.0827472,1,0,25.515,-0.42,1.4175,0.008418,-0.529358,-0.99369,-0.05096,0.23982,0.38808
-15.9404,0,0,20.9404,20.9404,5,5,25.7103,4.8049,-25.0381,-0.0965966,0.215821,0.0732191,1,0,26.2325,-1.4,1.4,-0.053192,-0.204106,-0.838628,-0.05096,0.23982,0.38808
-15.9653,0,0,20.9653,20.9653,5,5,25.7505,4.80171,-25.0362,-0.0965411,0.216453,0.0729196,1,0,26.04,-1.225,1.6275,-0.053192,-0.204106,-0.838628,-0.05096,0.23982,0.38808
-15.8917,0,0,20.8917,20.8917,5,5,25.6317,5.05136,-25.2033,0.157518,0.121002,-0.0172579,0,0,26.0225,-1.12,1.5925,0.206302,-0.297436,-0.928664,-0.05096,0.23982,0.38808
-15.8175,0,0,20.8175,20.8175,5,5,25.5121,5.29475,-25.376,0.153287,0.118962,-0.0167063,0,0,23.94,-0.7175,1.1725,0.206302,-0.297436,-0.928664,-0.04648,0.2422,0.39648
-15.8403,0,0,20.8403,20.8403,5,5,25.5488,5.29246,-25.3749,-0.133744,0.00400718,-0.218245,1,0,24.0975,-0.9625,0.9625,-0.081984,-0.412848,-1.12838,-0.04648,0.2422,0.39648
-15.864,0,0,20.864,20.864,5,5,25.5871,5.29073,-25.374,-0.133714,0.00460802,-0.218529,1,0,24.9725,-0.7,0.7525,-0.081984,-0.412848,-1.12838,-0.04648,0.2422,0.39648
-15.7871,0,0,20.7871,20.7871,5,5,25.463,5.07563,-25.3274,-0.183307,0.175739,-0.0733207,0,0,26.1275,-0.77,0.35,-0.135542,-0.240096,-0.985516,-0.04648,0.2422,0.39648
-15.7136,0,0,20.7136,20.7136,5,5,25.3446,4.86463,-25.2815,-0.179638,0.174016,-0.072149,0,0,28.4375,-1.19,-0.245,-0.135542,-0.240096,-0.985516,-0.04648,0.2422,0.39648
-15.6831,0,0,20.6831,20.6831,5,5,25.2953,4.76192,-25.2655,-0.0872236,0.109556,-0.00218104,0,0,28.2975,-1.3825,-0.245,-0.04453,-0.30378,-0.916586,-0.04648,0.2422,0.39648
-15.6531,0,0,20.6531,20.6531,5,5,25.2469,4.66136,-25.2497,-0.0854744,0.108857,-0.00169136,0,0,28.4375,-1.47,-0.3675,-0.04453,-0.30378,-0.916586,-0.04648,0.2422,0.39648
-15.4685,0,0,20.4685,20.4685,5,5,24.9492,4.74533,-25.4017,0.00563697,0.313441,-0.0366112,0,0,27.2825,-1.2075,-0.385,0.048434,-0.094672,-0.953308,-0.04648,0.2422,0.39648
-15.2858,0,0,20.2858,20.2858,5,5,24.6545,4.82369,-25.5385,0.00427415,0.30874,-0.0345643,0,0,25.1125,-0.84,-0.5775,0.048434,-0.094672,-0.953308,-0.05208,0.23422,0.39158
-15.3099,0,0,20.3099,20.3099,5,5,24.6934,4.82291,-25.5394,0.164649,-0.0923197,-0.0577141,1,0,25.4275,-0.665,-0.4725,0.209474,-0.49593,-0.976,-0.05208,0.23422,0.39158
-15.3349,0,0,20.3349,20.3349,5,5,24.7337,4.82215,-25.5391,0.164662,-0.0916824,-0.0580062,1,0,26.1625,-0.3675,0.14,0.209474,-0.49593,-0.976,-0.05208,0.23422,0.39158
-15.5466,0,0,20.5466,20.5466,5,5,25.0752,4.47202,-25.2603,-0.216786,-0.196489,0.137889,0,0,27.65,-0.4725,0.4725,-0.179706,-0.606218,-0.77958,-0.05208,0.23422,0.39158
-15.7552,0,0,20.7552,20.7552,5,5,25.4117,4.12895,-24.9861,-0.210816,-0.191,0.135797,0,0,29.3475,-1.1725,1.3475,-0.179706,-0.606218,-0.77958,-0.05208,0.23422,0.39158
-15.7839,0,0,20.7839,20.7839,5,5,25.458,4.12614,-24.983,0.150532,-0.0527561,-0.119541,1,0,29.4,-0.7525,2.1175,0.183122,-0.468846,-1.03261,-0.05208,0.23422,0.39158
-15.8123,0,0,20.8123,20.8123,5,5,25.5037,4.1233,-24.9804,0.150581,-0.0520362,-0.11988,1,0,29.1025,-0.875,1.89,0.183122,-0.468846,-1.03261,-0.05208,0.23422,0.39158
-15.7777,0,0,20.7777,20.7777,5,5,25.448,3.87599,-24.8701,-0.194384,0.116241,-0.0687823,0,0,27.37,-1.05,1.7325,-0.167628,-0.299998,-0.982588,-0.05208,0.23422,0.39158
-15.7425,0,0,20.7425,20.7425,5,5,25.3911,3.63414,-24.76,-0.190172,0.115465,-0.0681075,0,0,26.705,-1.2425,1.5925,-0.167628,-0.299998,-0.982588,-0.05012,0.23296,0.3906
-15.7447,0,0,20.7447,20.7447,5,5,25.3947,3.28572,-24.5775,-0.261124,0.0820948,-0.0357134,0,0,27.685,-1.26,1.4,-0.244976,-0.333548,-0.950746,-0.05012,0.23296,0.3906
-15.7479,0,0,20.7479,20.7479,5,5,25.3998,2.94572,-24.396,-0.255199,0.0823128,-0.0354599,0,0,29.2425,-0.8925,1.0325,-0.244976,-0.333548,-0.950746,-0.05012,0.23296,0.3906
-15.7788,0,0,20.7788,20.7788,5,5,25.4497,2.94315,-24.3953,0.0506254,-0.172024,-0.236729,1,0,31.5175,-1.2075,0.84,0.062098,-0.588406,-1.15009,-0.05012,0.23296,0.3906
-15.8091,0,0,20.8091,20.8091,5,5,25.4986,2.94032,-24.3953,0.0506746,-0.171252,-0.237094,1,0,31.0275,-1.5225,0.525,0.062098,-0.588406,-1.15009,-0.05012,0.23296,0.3906
-15.84,0,0,20.84,20.84,5,5,25.5483,2.93824,-24.395,-0.0506081,-0.249241,-0.0374282,1,0,31.4475,-1.05,0.5075,-0.03965,-0.667096,-0.9516,-0.05012,0.23296,0.3906
-15.8693,0,0,20.8693,20.8693,5,5,25.5956,2.93698,-24.3946,-0.0505862,-0.248497,-0.037783,1,0,30.0825,-0.6125,0.2975,-0.03965,-0.667096,-0.9516,-0.05012,0.23296,0.3906
-15.7063,0,0,20.7063,20.7063,5,5,25.3328,3.12217,-24.548,0.0854088,0.279033,-0.00744358,0,0,27.755,-0.21,0.1925,0.100162,-0.135908,-0.923296,-0.05012,0.23296,0.3906
-15.5481,0,0,20.5481,20.5481,5,5,25.0776,3.30101,-24.7022,0.0822923,0.274935,-0.00570788,0,0,29.4175,-1.1375,0.2625,0.100162,-0.135908,-0.923296,-0.05012,0.23296,0.3906
-15.3768,0,0,20.3768,20.3768,5,5,24.8012,3.15392,-24.7026,-0.146818,0.333036,-0.0668647,0,0,29.4525,-1.085,0.665,-0.132492,-0.073566,-0.986126,-0.04844,0.23198,0.39816
-15.6006,0,0,20.6006,20.6006,5,5,25.1622,3.602,-24.8099,0.380155,-0.296761,0.277022,0,0,31.955,-1.19,1.4525,0.404552,-0.70821,-0.641842,-0.04844,0.23198,0.39816
-15.823,0,0,20.823,20.823,5,5,25.5209,4.04013,-24.9124,0.372526,-0.291333,0.273888,0,0,32.8825,-1.75,1.68,0.404552,-0.70821,-0.641842,-0.04844,0.23198,0.39816
-15.8554,0,0,20.8554,20.8554,5,5,25.5732,4.03691,-24.9098,-0.181515,-0.23763,-0.107887,1,0,32.7775,-1.0675,2.0125,-0.15189,-0.655384,-1.02029,-0.04844,0.23198,0.39816
-15.8873,0,0,20.8873,20.8873,5,5,25.6247,4.03397,-24.9074,-0.181463,-0.236819,-0.108271,1,0,32.3575,-0.98,1.8025,-0.15189,-0.655384,-1.02029,-0.04844,0.23198,0.39816
-15.7484,0,0,20.7484,20.7484,5,5,25.4007,4.2186,-25.0611,0.0845349,0.248923,0.0166393,0,0,29.7325,-0.63,1.5225,0.118462,-0.16653,-0.897798,-0.04844,0.23198,0.39816
-15.6131,0,0,20.6131,20.6131,5,5,25.1824,4.39844,-25.2155,0.0814048,0.245388,0.0180489,0,0,30.695,-0.8225,1.015,0.118462,-0.16653,-0.897798,-0.04844,0.23198,0.39816
-15.36,0,0,20.36,20.36,5,5,24.7742,4.33054,-25.3134,-0.112763,0.455151,-0.00296745,0,0,31.2025,-0.8925,0.6475,-0.077714,0.04941,-0.92171,-0.04844,0.23198,0.39816
-15.1138,0,0,20.1138,20.1138,5,5,24.3771,4.26195,-25.4086,-0.111569,0.448902,-1.13953e-05,0,0,33.565,-0.84,0.35,-0.077714,0.04941,-0.92171,-0.04816,0.22988,0.39746
-15.1495,0,0,20.1495,20.1495,5,5,24.4347,4.25986,-25.4087,0.00229974,0.0428908,-0.154601,1,0,35.8925,-1.155,0.2975,0.0366,-0.357094,-1.0747,-0.04816,0.22988,0.39746
-15.1842,0,0,20.1842,20.1842,5,5,24.4906,4.2569,-25.4109,0.00235121,0.0437772,-0.155,1,0,34.9825,-2.135,-0.63,0.0366,-0.357094,-1.0747,-0.04816,0.22988,0.39746
-15.2198,0,0,20.2198,20.2198,5,5,24.5481,4.25418,-25.4133,-0.0944255,-0.222035,-0.139429,1,0,35.9275,-2.065,-0.805,-0.060634,-0.623542,-1.05884,-0.04816,0.22988,0.39746
-15.2521,0,0,20.2521,20.2521,5,5,24.6001,4.25303,-25.4148,-0.0944054,-0.221212,-0.139804,1,0,32.795,-1.015,-0.7175,-0.060634,-0.623542,-1.05884,-0.04816,0.22988,0.39746
-15.301,0,0,20.301,20.301,5,5,24.6791,4.4199,-25.4703,0.124159,-0.035765,0.0476571,0,0,30.765,-0.5775,-0.7,0.161772,-0.439444,-0.872056,-0.04816,0.22988,0.39746
-15.3512,0,0,20.3512,20.3512,5,5,24.76,4.58163,-25.5248,0.121345,-0.0345788,0.0468672,0,0,32.34,-1.295,-0.245,0.161772,-0.439444,-0.872056,-0.04816,0.22988,0.39746
-15.3828,0,0,20.3828,20.3828,5,5,24.811,4.58015,-25.5245,-0.0201602,0.35166,0.0360462,1,0,32.1825,-0.735,0.35,0.019642,-0.054412,-0.882426,-0.04816,0.22988,0.39746
-15.4191,0,0,20.4191,20.4191,5,5,24.8696,4.5763,-25.5232,-0.0200933,0.352587,0.0356231,1,0,36.3475,-1.7675,1.4175,0.019642,-0.054412,-0.882426,-0.04886,0.23114,0.39228
-15.4568,0,0,20.4568,20.4568,5,5,24.9303,4.57259,-25.5208,-0.000469525,0.381393,-0.314114,1,0,37.5375,-1.4,2.0125,0.039284,-0.026596,-1.22903,-0.04886,0.23114,0.39228
-15.4944,0,0,20.4944,20.4944,5,5,24.991,4.5679,-25.5181,-0.000387849,0.382353,-0.314553,1,0,37.4675,-1.855,2.3975,0.039284,-0.026596,-1.22903,-0.04886,0.23114,0.39228
-15.7618,0,0,20.7618,20.7618,5,5,25.4223,4.29286,-25.2473,-0.154019,-0.267009,0.183601,0,0,38.4825,-1.96,2.1875,-0.119804,-0.682224,-0.731878,-0.04886,0.23114,0.39228
-16.0186,0,0,21.0186,21.0186,5,5,25.8365,4.02721,-24.9822,-0.149395,-0.260362,0.180785,0,0,34.055,-0.84,1.7325,-0.119804,-0.682224,-0.731878,-0.04886,0.23114,0.39228
-16.2329,0,0,21.2329,21.2329,5,5,26.1822,3.91101,-24.8093,-0.0494543,-0.180394,0.200034,0,0,33.4775,-0.5775,1.6625,-0.021472,-0.607804,-0.710284,-0.04886,0.23114,0.39228
-16.4453,0,0,21.4453,21.4453,5,5,26.5247,3.79819,-24.6405,-0.0474897,-0.174991,0.197505,0,0,35.5425,-1.015,1.2075,-0.021472,-0.607804,-0.710284,-0.04886,0.23114,0.39228
-16.481,0,0,21.481,21.481,5,5,26.5823,3.7959,-24.6391,0.295504,-0.0391421,-0.191704,1,0,35.8225,-0.8575,1.155,0.322934,-0.472994,-1.09605,-0.04886,0.23114,0.39228
-16.5226,0,0,21.5226,21.5226,5,5,26.6494,3.79268,-24.6383,0.29556,-0.0380949,-0.192225,1,0,41.195,-1.505,1.0675,0.322934,-0.472994,-1.09605,-0.05292,0.22386,0.39802
-16.3244,0,0,21.3244,21.3244,5,5,26.3297,3.94803,-24.7953,0.0784329,0.344837,-0.186831,0,0,40.88,-2.2575,0.7175,0.107604,-0.0854,-1.093,-0.05292,0.22386,0.39802
-16.1298,0,0,21.1298,21.1298,5,5,26.0158,4.10042,-24.9524,0.0757797,0.33985,-0.184589,0,0,41.1775,-1.5225,0.595,0.107604,-0.0854,-1.093,-0.05292,0.22386,0.39802
-15.9263,0,0,20.9263,20.9263,5,5,25.6875,3.87837,-24.9375,-0.218116,0.422633,-0.124437,0,0,40.145,-1.5575,0.315,-0.191418,0.002318,-1.03602,-0.05292,0.22386,0.39802
-15.72,0,0,20.72,20.72,5,5,25.3548,3.66134,-24.9196,-0.214336,0.417512,-0.121716,0,0,34.93,-0.455,0.4725,-0.191418,0.002318,-1.03602,-0.05292,0.22386,0.39802
-15.7566,0,0,20.7566,20.7566,5,5,25.4139,3.65896,-24.9191,-0.205426,-0.239821,-0.134941,1,0,36.6625,-1.1725,0.6475,-0.182512,-0.655262,-1.04871,-0.05292,0.22386,0.39802
-15.7939,0,0,20.7939,20.7939,5,5,25.474,3.65682,-24.9169,-0.205389,-0.238874,-0.135388,1,0,37.205,-0.6125,1.505,-0.182512,-0.655262,-1.04871,-0.05292,0.22386,0.39802
-15.8335,0,0,20.8335,20.8335,5,5,25.5379,3.65359,-24.9144,0.196178,-0.305038,-0.122094,1,0,39.3225,-1.1025,1.9425,0.220698,-0.722362,-1.03505,-0.05292,0.22386,0.39802
-15.8769,0,0,20.8769,20.8769,5,5,25.6079,3.64896,-24.9108,0.196258,-0.303936,-0.122616,1,0,42.6825,-1.5575,2.8875,0.220698,-0.722362,-1.03505,-0.05544,0.22596,0.40474
-15.9195,0,0,20.9195,20.9195,5,5,25.6766,3.64296,-24.9075,-0.0649528,0.044229,0.311741,1,0,41.9475,-2.3625,3.0625,-0.041724,-0.375638,-0.603534,-0.05544,0.22596,0.40474
-15.963,0,0,20.963,20.963,5,5,25.7468,3.63721,-24.9045,-0.0648526,0.0453338,0.311217,1,0,42.84,-2.2925,2.87,-0.041724,-0.375638,-0.603534,-0.05544,0.22596,0.40474
-16.0031,0,0,21.0031,21.0031,5,5,25.8114,3.63329,-24.9014,0.279749,0.436545,0.121144,1,0,39.725,-1.3125,2.4325,0.304268,0.014152,-0.791658,-0.05544,0.22596,0.40474
-16.0425,0,0,21.0425,21.0425,5,5,25.8749,3.6305,-24.8998,0.279798,0.437541,0.120665,1,0,39.1125,-1.085,1.365,0.304268,0.014152,-0.791658,-0.05544,0.22596,0.40474
-16.0831,0,0,21.0831,21.0831,5,5,25.9405,3.6276,-24.898,-0.0899543,0.655956,-0.230727,1,0,40.3025,-1.12,1.4525,-0.0671,0.231312,-1.13985,-0.05544,0.22596,0.40474
-16.1266,0,0,21.1266,21.1266,5,5,26.0107,3.62426,-24.8975,-0.089896,0.657057,-0.231259,1,0,42.8925,-1.645,0.9625,-0.0671,0.231312,-1.13985,-0.05544,0.22596,0.40474
-16.1738,0,0,21.1738,21.1738,5,5,26.0868,3.62053,-24.8972,0.0711375,-0.161465,-0.250033,1,0,46.235,-1.925,0.91,0.09455,-0.587552,-1.1579,-0.05544,0.22596,0.40474
-16.2202,0,0,21.2202,21.2202,5,5,26.1616,3.61564,-24.899,0.0712225,-0.160293,-0.250602,1,0,45.5875,-3.045,0.1575,0.09455,-0.587552,-1.1579,-0.05544,0.22596,0.40474
-16.2675,0,0,21.2675,21.2675,5,5,26.2379,3.61151,-24.9004,-0.36654,-0.349739,-0.135859,1,0,46.375,-2.5725,0.1225,-0.345138,-0.777994,-1.04347,-0.0497,0.22036,0.40978
-16.3117,0,0,21.3117,21.3117,5,5,26.3093,3.60919,-24.9016,-0.3665,-0.348623,-0.136407,1,0,43.645,-1.5575,-0.21,-0.345138,-0.777994,-1.04347,-0.0497,0.22036,0.40978
-16.3668,0,0,21.3668,21.3668,5,5,26.398,3.42286,-24.7547,-0.127328,0.032787,0.0532867,0,0,40.81,-0.9275,-0.315,-0.108214,-0.398452,-0.854732,-0.0497,0.22036,0.40978
-16.4203,0,0,21.4203,21.4203,5,5,26.4844,3.24099,-24.6091,-0.124159,0.0342177,0.0527813,0,0,40.81,-0.9275,-0.315,-0.108214,-0.398452,-0.854732,-0.0497,0.22036,0.40978
-16.358,0,0,21.358,21.358,5,5,26.3839,2.76252,-24.3808,-0.398639,0.231544,-0.1242,0,0,42.7,-1.1375,0.7,-0.39223,-0.199958,-1.03151,-0.0497,0.22036,0.40978
-16.2958,0,0,21.2958,21.2958,5,5,26.2836,2.29297,-24.151,-0.390452,0.230137,-0.1231,0,0,42.7,-1.1375,0.7,-0.39223,-0.199958,-1.03151,-0.0497,0.22036,0.40978
-16.1147,0,0,21.1147,21.1147,5,5,25.9915,2.62213,-24.3685,0.210387,0.324134,-0.0990694,0,0,47.8625,-1.8375,2.625,0.216916,-0.101382,-1.00967,-0.0497,0.22036,0.40978
-16.1635,0,0,21.1635,21.1635,5,5,26.0702,2.61583,-24.3664,-0.112534,-0.387852,-0.0255287,1,0,47.6175,-2.8,2.5375,-0.107482,-0.813862,-0.936106,-0.0497,0.22036,0.40978
-16.2103,0,0,21.2103,21.2103,5,5,26.1456,2.61118,-24.3644,-0.112453,-0.386668,-0.0261046,1,0,45.85,-1.96,2.0475,-0.107482,-0.813862,-0.936106,-0.0511,0.22176,0.41202
-16.254,0,0,21.254,21.254,5,5,26.2162,2.6079,-24.3625,0.184151,0.230321,0.14954,1,0,43.0675,-1.26,1.6625,0.19032,-0.198616,-0.76128,-0.0511,0.22176,0.41202
-16.2977,0,0,21.2977,21.2977,5,5,26.2867,2.60461,-24.3606,0.184208,0.231425,0.148999,1,0,43.0675,-1.26,1.6625,0.19032,-0.198616,-0.76128,-0.0511,0.22176,0.41202
-16.344,0,0,21.344,21.344,5,5,26.3613,2.60111,-24.3587,-0.172291,0.515805,0.242972,1,0,45.36,-1.3825,1.6975,-0.16775,0.084302,-0.667462,-0.0511,0.22176,0.41202
-16.3903,0,0,21.3903,21.3903,5,5,26.4359,2.59761,-24.3569,-0.17223,0.516971,0.242396,1,0,45.36,-1.3825,1.6975,-0.16775,0.084302,-0.667462,-0.0511,0.22176,0.41202
-16.4437,0,0,21.4437,21.4437,5,5,26.5221,2.59264,-24.3566,0.231797,0.289453,-0.346579,1,0,51.905,-2.555,1.26,0.2379,-0.144326,-1.25123,-0.0511,0.22176,0.41202
-16.4972,0,0,21.4972,21.4972,5,5,26.6083,2.58768,-24.3563,0.231883,0.290799,-0.347248,1,0,51.905,-2.555,1.26,0.2379,-0.144326,-1.25123,-0.0511,0.22176,0.41202
-16.5512,0,0,21.5512,21.5512,5,5,26.6955,2.5835,-24.3568,-0.195066,-0.184258,-0.155881,1,0,52.465,-2.3625,0.6125,-0.19093,-0.620248,-1.06067,-0.0511,0.22176,0.41202
-16.6053,0,0,21.6053,21.6053,5,5,26.7827,2.57933,-24.3574,-0.194994,-0.182899,-0.156562,1,0,52.465,-2.3625,0.6125,-0.19093,-0.620248,-1.06067,-0.05376,0.2121,0.4151
-16.499,0,0,21.499,21.499,5,5,26.6112,2.62454,-24.3813,0.00564148,0.247354,-0.00906547,0,0,46.6725,-0.6825,0.91,0.011346,-0.187758,-0.91561,-0.05376,0.2121,0.4151
-16.3945,0,0,21.3945,21.3945,5,5,26.4428,2.66841,-24.4053,0.00487662,0.24471,-0.00778541,0,0,46.6725,-0.6825,0.91,0.011346,-0.187758,-0.91561,-0.05376,0.2121,0.4151
-16.3196,0,0,21.3196,21.3196,5,5,26.3219,2.6526,-24.3878,-0.027163,0.179567,-0.135934,0,0,50.2425,-1.3825,2.275,-0.021106,-0.250954,-1.04371,-0.05376,0.2121,0.4151
-16.2459,0,0,21.2459,21.2459,5,5,26.2031,2.6369,-24.3703,-0.0268892,0.177715,-0.135006,0,0,50.2425,-1.3825,2.275,-0.021106,-0.250954,-1.04371,-0.05376,0.2121,0.4151
-16.302,0,0,21.302,21.302,5,5,26.2935,2.63016,-24.3664,0.243291,-0.0424067,-0.163484,1,0,54.1625,-2.5375,3.64,0.2501,-0.472262,-1.07128,-0.05376,0.2121,0.4151
-16.4502,0,0,21.4502,21.4502,5,5,26.5326,2.14368,-24.0137,-0.347515,-0.0713687,0.0404252,0,0,54.355,-2.4675,3.3425,-0.351726,-0.50508,-0.86742,-0.05376,0.2121,0.4151
-16.5907,0,0,21.5907,21.5907,5,5,26.7592,1.66977,-23.6658,-0.339248,-0.0677115,0.038898,0,0,50.9775,-1.6275,2.4325,-0.351726,-0.50508,-0.86742,-0.05376,0.2121,0.4151
-16.6414,0,0,21.6414,21.6414,5,5,26.841,1.66678,-23.6625,0.381336,0.276495,0.136861,1,0,49.385,-0.735,2.2925,0.371856,-0.162504,-0.769576,-0.05362,0.2065,0.4165
-16.6943,0,0,21.6943,21.6943,5,5,26.9263,1.66315,-23.6598,-0.429396,0.0708179,-0.384251,1,0,51.345,-1.19,2.2225,-0.442372,-0.369294,-1.286,-0.05362,0.2065,0.4165
-16.7528,0,0,21.7528,21.7528,5,5,27.0206,1.66033,-23.6578,-0.429347,0.0722843,-0.384996,1,0,56.4025,-0.98,1.575,-0.442372,-0.369294,-1.286,-0.05362,0.2065,0.4165
-16.812,0,0,21.812,21.812,5,5,27.1162,1.65616,-23.6568,0.180705,0.0410409,-0.295263,1,0,57.1725,-1.925,1.47,0.17019,-0.40199,-1.19621,-0.05362,0.2065,0.4165
-16.8724,0,0,21.8724,21.8724,5,5,27.2136,1.65037,-23.6575,0.180806,0.0425543,-0.296037,1,0,58.205,-3.2375,0.98,0.17019,-0.40199,-1.19621,-0.05362,0.2065,0.4165
-16.9328,0,0,21.9328,21.9328,5,5,27.3109,1.64524,-23.658,-0.285852,-0.152193,0.352602,1,0,58.135,-2.835,0.9275,-0.298534,-0.598044,-0.551806,-0.05362,0.2065,0.4165
-16.9909,0,0,21.9909,21.9909,5,5,27.4047,1.64341,-23.6585,-0.28582,-0.150739,0.351851,1,0,56.175,-1.12,0.035,-0.298534,-0.598044,-0.551806,-0.05362,0.2065,0.4165
-16.8457,0,0,21.8457,21.8457,5,5,27.1704,2.17669,-23.928,0.334538,0.281479,0.0293565,0,0,53.165,-0.8925,0.35,0.333792,-0.162504,-0.873398,-0.05362,0.2065,0.4165
-16.7056,0,0,21.7056,21.7056,5,5,26.9445,2.69296,-24.1951,0.325535,0.277797,0.0308074,0,0,54.775,-1.8725,0.7875,0.333792,-0.162504,-0.873398,-0.05012,0.20048,0.41468
-16.8478,0,0,21.8478,21.8478,5,5,27.1739,2.60552,-24.0215,-0.0489384,-0.0998899,0.0720831,0,0,56.0175,-1.7325,1.47,-0.043798,-0.543388,-0.830698,-0.05012,0.20048,0.41468
