pid_x,pid_y,pid_z,front_left_speed,front_right_speed,back_left_speed,back_right_speed,orientation_x,orientation_y,orientation_z,acceleration_x,acceleration_y,acceleration_z,accel_rejected,mag_rejected,gyro_x,gyro_y,gyro_z,accel_x,accel_y,accel_z,mag_x,mag_y,mag_z
-0.00631602,0,0,15.0063,15.0063,14.9937,14.9937,0.0210534,0.0650698,0.0588078,0.05139,-0.0178965,0.000552974,0,0,3.6225,0.1575,-0.385,0.012444,-0.0061,-1.01211,-0.04144,0.08274,0.44226
-0.0114149,0,0,15.0114,15.0114,14.9886,14.9886,0.0380497,0.126301,0.119783,0.048742,-0.0145467,-0.00203088,0,0,3.57,0.1575,-0.21,0.010858,-0.00305,-1.01467,-0.04144,0.08274,0.44226
-0.0163927,0,0,15.0164,15.0164,14.9836,14.9836,0.0546422,0.186376,0.180531,0.0476935,-0.0142571,-0.00203398,0,0,3.535,0.2625,-0.2975,0.010858,-0.00305,-1.01467,-0.04144,0.08274,0.44226
-0.022124,0,0,15.0221,15.0221,14.9779,14.9779,0.0737467,0.239525,0.247083,0.042028,-0.0166105,-0.00670984,0,0,3.465,0.2625,-0.14,0.0061,-0.005734,-1.01931,-0.04144,0.08274,0.44226
-0.0277412,0,0,15.0277,15.0277,14.9723,14.9723,0.0924706,0.291514,0.313555,0.0411206,-0.0162837,-0.00671452,0,0,3.465,0.2625,-0.14,0.0061,-0.005734,-1.01931,-0.04144,0.08274,0.44226
-0.0330634,0,0,15.0331,15.0331,14.9669,14.9669,0.110211,0.34444,0.377553,0.0418977,-0.0151192,-0.00524481,0,0,3.6575,0.315,-0.35,0.007808,-0.00488,-1.01785,-0.04144,0.08274,0.44226
-0.0375687,0,0,15.0376,15.0376,14.9624,14.9624,0.125229,0.397812,0.439644,0.042667,-0.0130252,-0.00721856,0,0,3.5175,0.2625,-0.35,0.009516,-0.00305,-1.0198,-0.04144,0.08274,0.44226
-0.0419838,0,0,15.042,15.042,14.958,14.958,0.139946,0.44941,0.503244,0.0417664,-0.0127684,-0.00722581,0,0,3.5175,-0.1575,-0.28,0.009516,-0.00305,-1.0198,-0.04228,0.08246,0.4368
-0.046947,0,0,15.0469,15.0469,14.9531,14.9531,0.15649,0.508837,0.558962,0.0470465,-0.0141894,0.00419898,0,0,3.5,0.14,-0.245,0.01586,-0.004758,-1.00845,-0.04228,0.08246,0.4368
-0.0521662,0,0,15.0522,15.0522,14.9478,14.9478,0.173887,0.559113,0.621748,0.0399733,-0.0151071,-0.00134276,0,0,3.4475,0.0175,-0.3675,0.009638,-0.005978,-1.01394,-0.04228,0.08246,0.4368
-0.0565267,0,0,15.0565,15.0565,14.9435,14.9435,0.188422,0.604474,0.68803,0.036266,-0.012533,-0.00799082,0,0,3.5875,0.1925,-0.4025,0.00671,-0.00366,-1.02053,-0.04228,0.08246,0.4368
-0.0614412,0,0,15.0614,15.0614,14.9386,14.9386,0.204804,0.652641,0.750835,0.0382195,-0.0140791,-0.00296013,0,0,3.57,0.1925,-0.3675,0.009516,-0.00549,-1.01553,-0.04228,0.08246,0.4368
-0.064854,0,0,15.0649,15.0649,14.9351,14.9351,0.21618,0.699188,0.813616,0.0370427,-0.009484,0.00157865,0,0,3.71,0.2275,-0.42,0.00915,-0.001098,-1.01101,-0.04228,0.08246,0.4368
-0.0681498,0,0,15.0681,15.0681,14.9319,14.9319,0.227166,0.744449,0.86957,0.0362529,-0.00929232,0.00156795,0,0,3.6225,0.175,-0.4025,0.00915,-0.001098,-1.01101,-0.04074,0.08554,0.44282
-0.0728494,0,0,15.0728,15.0728,14.9272,14.9272,0.242831,0.785945,0.927952,0.0337064,-0.0134155,-0.00704923,0,0,3.6575,-0.14,-0.4025,0.00732,-0.00549,-1.01955,-0.04074,0.08554,0.44282
-0.0782414,0,0,15.0782,15.0782,14.9218,14.9218,0.260805,0.834632,0.978808,0.0386881,-0.0153002,0.00744529,0,0,3.5525,-0.105,-0.4025,0.013176,-0.007686,-1.00516,-0.04074,0.08554,0.44282
-0.0827778,0,0,15.0828,15.0828,14.9172,14.9172,0.275926,0.882856,1.02939,0.0384539,-0.0130824,0.00128402,0,0,3.4825,0.175,-0.3325,0.013786,-0.005734,-1.01126,-0.04074,0.08554,0.44282
-0.0867128,0,0,15.0867,15.0867,14.9133,14.9133,0.289043,0.920714,1.08822,0.0307471,-0.0115101,-0.00598147,0,0,3.465,-0.0525,-0.35,0.00671,-0.004392,-1.01846,-0.04074,0.08554,0.44282
-0.0907093,0,0,15.0907,15.0907,14.9093,14.9093,0.302364,0.958258,1.14694,0.0300919,-0.0112777,-0.00599341,0,0,3.7275,0.245,-0.3675,0.00671,-0.004392,-1.01846,-0.04074,0.08554,0.44282
-0.0953488,0,0,15.0953,15.0953,14.9047,14.9047,0.317829,1.00359,1.19745,0.0359826,-0.0130841,0.00161439,0,0,3.675,0.2625,-0.455,0.01342,-0.006466,-1.01089,-0.04074,0.08554,0.44282
-0.0998596,0,0,15.0999,15.0999,14.9001,14.9001,0.332865,1.04742,1.24823,0.0352176,-0.0128218,0.00159921,0,0,3.605,-0.035,-0.245,0.01342,-0.006466,-1.01089,-0.04074,0.08554,0.44282
-0.104396,0,0,15.1044,15.1044,14.8956,14.8956,0.347987,1.09007,1.29248,0.0344735,-0.0131686,0.00256734,0,0,3.43,-0.175,-0.385,0.01342,-0.007076,-1.00992,-0.04032,0.08876,0.44464
-0.108076,0,0,15.1081,15.1081,14.8919,14.8919,0.360254,1.1289,1.33914,0.0316091,-0.0107563,-0.00125851,0,0,3.4475,-0.0875,-0.5075,0.011224,-0.00488,-1.0137,-0.04032,0.08876,0.44464
-0.111758,0,0,15.1118,15.1118,14.8882,14.8882,0.372526,1.16711,1.3858,0.0309424,-0.0105423,-0.00127323,0,0,3.5875,0.035,-0.4725,0.011224,-0.00488,-1.0137,-0.04032,0.08876,0.44464
-0.115585,0,0,15.1156,15.1156,14.8844,14.8844,0.385284,1.20891,1.42859,0.0332501,-0.0108083,0.00891489,0,0,3.57,0.105,-0.315,0.014274,-0.005368,-1.00357,-0.04032,0.08876,0.44464
-0.1195,0,0,15.1195,15.1195,14.8805,14.8805,0.398332,1.24559,1.47562,0.029573,-0.0116798,-0.00523945,0,0,3.3425,0.2275,-0.2975,0.011224,-0.006466,-1.0176,-0.04032,0.08876,0.44464
-0.123326,0,0,15.1233,15.1233,14.8767,14.8767,0.411086,1.28108,1.52247,0.0289536,-0.0114574,-0.00525468,0,0,3.325,0,-0.35,0.011224,-0.006466,-1.0176,-0.04032,0.08876,0.44464
-0.125783,0,0,15.1258,15.1258,14.8742,14.8742,0.419278,1.3103,1.57842,0.0238274,-0.00728436,-0.00600494,0,0,3.465,0.1575,-0.35,0.006588,-0.00244,-1.01833,-0.04004,0.08694,0.43918
-0.129618,0,0,15.1296,15.1296,14.8704,14.8704,0.432062,1.34369,1.62992,0.0268892,-0.0109695,-0.00368407,0,0,3.64,0.1925,-0.42,0.010248,-0.006344,-1.01602,-0.04004,0.08694,0.43918
-0.133509,0,0,15.1335,15.1335,14.8665,14.8665,0.445031,1.37892,1.67879,0.0282183,-0.0109875,0.00404534,0,0,3.64,0.0525,-0.3675,0.0122,-0.006588,-1.00833,-0.04004,0.08694,0.43918
-0.136791,0,0,15.1368,15.1368,14.8632,14.8632,0.45597,1.41448,1.72664,0.0285697,-0.0094534,0.00107795,0,0,3.535,0.1925,-0.385,0.013176,-0.005246,-1.01126,-0.04004,0.08694,0.43918
-0.139904,0,0,15.1399,15.1399,14.8601,14.8601,0.466347,1.4476,1.77557,0.0265341,-0.0089061,0.00511936,0,0,3.535,0.0875,-0.525,0.011712,-0.00488,-1.00723,-0.04004,0.08694,0.43918
-0.142889,0,0,15.1429,15.1429,14.8571,14.8571,0.476298,1.48012,1.82446,0.0259667,-0.0087326,0.00510343,0,0,3.4125,0.1575,-0.5075,0.011712,-0.00488,-1.00723,-0.04004,0.08694,0.43918
-0.134044,0,0,15.134,15.134,14.866,14.866,0.446814,1.44755,1.93165,-0.0250964,0.0254371,0.00905645,0,0,3.6225,0.0875,-0.5075,-0.040138,0.029768,-1.00333,-0.04004,0.08694,0.43918
-0.204467,0,0,15.2045,15.2045,14.7955,14.7955,0.681558,1.73833,1.74557,0.257023,-0.230965,-0.0639105,0,0,3.4825,-0.105,-0.49,0.24827,-0.230458,-1.07555,-0.04186,0.08736,0.44212
-0.152194,0,0,15.1522,15.1522,14.8478,14.8478,0.507314,1.60864,1.92859,-0.0938738,0.143001,0.0645454,0,0,3.1675,0.0525,-0.245,-0.106384,0.146156,-0.948184,-0.04186,0.08736,0.44212
-0.101232,0,0,15.1012,15.1012,14.8988,14.8988,0.33744,1.4822,2.11202,-0.0916677,0.140038,0.0646268,0,0,3.71,0.28,-0.4725,-0.106384,0.146156,-0.948184,-0.04186,0.08736,0.44212
-0.0647062,0,0,15.0647,15.0647,14.9353,14.9353,0.215687,1.17593,2.4688,-0.254217,0.108481,-0.00126234,0,0,3.85,-0.35,-0.5425,-0.274988,0.116754,-1.0137,-0.04186,0.08736,0.44212
-0.0885608,0,0,15.0886,15.0886,14.9114,14.9114,0.295203,0.995455,2.72325,-0.137722,-0.0612304,0.131084,0,0,3.2025,-0.4025,-0.9275,-0.161162,-0.054168,-0.882426,-0.04186,0.08736,0.44212
-0.0886751,0,0,15.0887,15.0887,14.9113,14.9113,0.295584,0.994697,2.72258,-0.137708,-0.0612238,0.131084,1,0,3.78,-0.315,-0.7875,-0.161162,-0.054168,-0.882426,-0.04186,0.08736,0.44212
-0.0888162,0,0,15.0888,15.0888,14.9112,14.9112,0.296054,0.995195,2.72165,0.128094,0.277075,-0.145919,1,0,3.8325,0.42,-0.945,0.105774,0.283772,-1.15729,-0.04186,0.08736,0.44212
-0.0889572,0,0,15.089,15.089,14.911,14.911,0.296524,0.995694,2.72071,0.128085,0.277084,-0.145919,1,0,3.8325,0.42,-0.945,0.105774,0.283772,-1.15729,-0.0357,0.0938,0.45808
-0.0853538,0,0,15.0854,15.0854,14.9146,14.9146,0.284513,0.733088,3.04128,-0.217211,0.00990538,0.0364834,0,0,3.885,0.42,-0.875,-0.245586,0.01708,-0.976366,-0.0357,0.0938,0.45808
0.0435728,0,0,14.9564,14.9564,15.0436,15.0436,-0.145243,0.813638,3.02218,0.106236,0.423254,-0.0414758,0,0,2.9925,0.245,-0.84,0.080642,0.437492,-1.05371,-0.0357,0.0938,0.45808
0.043435,0,0,14.9566,14.9566,15.0434,15.0434,-0.144783,0.813834,3.02247,0.106233,0.423262,-0.0414758,1,0,3.815,0.245,-0.2275,0.080642,0.437492,-1.05371,-0.0357,0.0938,0.45808
0.0436041,0,0,14.9564,14.9564,15.0436,15.0436,-0.145347,0.814449,3.02325,0.472258,-0.187503,-0.475238,1,0,3.2375,0.49,0.0525,0.448228,-0.17263,-1.48413,-0.0357,0.0938,0.45808
0.0622831,0,0,14.9377,14.9377,15.0623,15.0623,-0.20761,0.255671,3.62663,-0.445533,0.0473585,0.166149,0,0,3.4475,0.14,-0.4025,-0.483242,0.063074,-0.847778,-0.0357,0.0938,0.45808
0.0809609,0,0,14.919,14.919,15.081,15.081,-0.26987,-0.293382,4.23113,-0.43595,0.0462719,0.166141,0,0,2.9225,-0.14,0.07,-0.483242,0.063074,-0.847778,-0.0357,0.0938,0.45808
0.0169739,0,0,14.983,14.983,15.017,15.017,-0.0565795,0.388521,3.65629,0.575787,-0.193404,0.182371,0,0,2.94,-0.35,0.8575,0.54473,-0.180072,-0.831674,-0.0357,0.0938,0.45808
0.102299,0,0,14.8977,14.8977,15.1023,15.1023,-0.340996,0.510332,3.61315,0.116389,0.243242,0.0576674,0,0,3.0975,0.525,1.2075,0.085522,0.26108,-0.955382,-0.04116,0.09786,0.46284
0.175189,0,0,14.8248,14.8248,15.1752,15.1752,-0.583964,0.77863,3.42359,0.355771,0.313988,-0.364748,0,0,4.4275,-0.1925,0.735,0.33062,0.335988,-1.37445,-0.04116,0.09786,0.46284
0.174495,0,0,14.8255,14.8255,15.1745,15.1745,-0.581649,0.779197,3.42493,-0.592192,0.47719,-0.081597,1,0,4.8475,0.455,0.385,-0.621346,0.49898,-1.09349,-0.04116,0.09786,0.46284
0.174042,0,0,14.826,14.826,15.174,15.174,-0.580139,0.77953,3.42675,1.22851,-0.70094,0.150161,1,0,4.3925,0.315,0.665,1.20707,-0.677954,-0.863516,-0.04116,0.09786,0.46284
0.17434,0,0,14.8257,14.8257,15.1743,15.1743,-0.581133,0.778005,3.42805,1.22854,-0.700957,0.150161,1,0,2.9925,-0.77,0.35,1.20707,-0.677954,-0.863516,-0.04116,0.09786,0.46284
0.259255,0,0,14.7407,14.7407,15.2593,15.2593,-0.864185,0.2667,3.96958,-0.405635,0.23118,0.155836,0,0,1.3475,-1.2075,-4.375,-0.442982,0.258152,-0.857904,-0.04116,0.09786,0.46284
0.342661,0,0,14.6573,14.6573,15.3427,15.3427,-1.1422,-0.233004,4.52297,-0.396914,0.226329,0.155754,0,0,1.4525,-0.5425,0.5775,-0.442982,0.258152,-0.857904,-0.04032,0.09842,0.4641
0.341822,0,0,14.6582,14.6582,15.3418,15.3418,-1.13941,-0.234214,4.5229,0.112497,0.125745,-0.110675,1,0,5.1275,-0.5775,-0.455,0.068564,0.157624,-1.12228,-0.04032,0.09842,0.4641
0.341008,0,0,14.659,14.659,15.341,15.341,-1.13669,-0.232565,4.52091,-0.385137,0.342201,-0.0844858,1,0,5.075,1.12,-1.54,-0.431148,0.373808,-1.09629,-0.04032,0.09842,0.4641
0.340009,0,0,14.66,14.66,15.34,15.34,-1.13336,-0.229648,4.51956,-0.385188,0.342259,-0.0844844,1,0,5.425,1.855,-1.155,-0.431148,0.373808,-1.09629,-0.04032,0.09842,0.4641
0.358959,0,0,14.641,14.641,15.359,15.359,-1.19653,-0.0990759,4.47985,0.12338,0.065639,-0.0620007,0,0,6.4225,1.4525,-1.4875,0.081862,0.098576,-1.07397,-0.04032,0.09842,0.4641
0.358287,0,0,14.6417,14.6417,15.3583,15.3583,-1.19429,-0.0956841,4.47698,-0.532823,0.540873,-0.15667,1,0,4.8125,2.1525,-2.03,-0.57706,0.573278,-1.16791,-0.04032,0.09842,0.4641
0.358411,0,0,14.6416,14.6416,15.3584,15.3584,-1.1947,-0.0966272,4.474,-0.532807,0.540866,-0.15667,1,0,3.325,-0.385,-2.1525,-0.57706,0.573278,-1.16791,-0.04032,0.09842,0.4641
0.412468,0,0,14.5875,14.5875,15.4125,15.4125,-1.37489,0.153946,4.30635,0.220283,0.147038,0.0882933,0,0,2.485,-1.61,-1.855,0.18361,0.183,-0.92476,-0.04032,0.09842,0.4641
0.465463,0,0,14.5345,14.5345,15.4655,15.4655,-1.55154,0.401699,4.12955,0.215959,0.143957,0.0881936,0,0,2.485,-1.61,-1.855,0.18361,0.183,-0.92476,-0.0413,0.10332,0.46172
0.47052,0,0,14.5295,14.5295,15.4705,15.4705,-1.5684,-0.20052,4.77008,-0.475717,0.00236169,0.219882,0,0,2.3275,-1.33,-2.2925,-0.52155,0.041846,-0.794098,-0.0413,0.10332,0.46172
0.475188,0,0,14.5248,14.5248,15.4752,15.4752,-1.58396,-0.791155,5.41118,-0.465409,0.00209269,0.219785,0,0,2.905,-0.6475,-1.54,-0.52155,0.041846,-0.794098,-0.0413,0.10332,0.46172
0.341782,0,0,14.6582,14.6582,15.3418,15.3418,-1.13927,-0.540483,5.23764,0.18551,-0.393168,0.085146,0,0,3.675,0.8225,-0.8225,0.136518,-0.360754,-0.927932,-0.0413,0.10332,0.46172
0.210795,0,0,14.7892,14.7892,15.2108,15.2108,-0.702651,-0.295217,5.06771,0.181229,-0.385549,0.0852997,0,0,3.675,0.8225,-0.8225,0.136518,-0.360754,-0.927932,-0.0413,0.10332,0.46172
0.247887,0,0,14.7521,14.7521,15.2479,15.2479,-0.826289,-0.226481,5.08363,0.0717857,0.122416,-0.0799664,0,0,5.0925,0.6475,-0.35,0.027816,0.14884,-1.0919,-0.0413,0.10332,0.46172
0.283718,0,0,14.7163,14.7163,15.2837,15.2837,-0.945727,-0.157735,5.09955,0.0705859,0.120332,-0.0799946,0,0,6.09,1.365,-0.2625,0.027816,0.14884,-1.0919,-0.0413,0.10332,0.46172
0.282439,0,0,14.7176,14.7176,15.2824,15.2824,-0.941464,-0.154397,5.09991,-0.0408747,0.153991,-0.10655,1,0,5.95,2.0825,-0.1575,-0.084058,0.18239,-1.11825,-0.0413,0.10332,0.46172
0.281826,0,0,14.7182,14.7182,15.2818,15.2818,-0.939421,-0.153881,5.10128,-0.0408837,0.154027,-0.10655,1,0,4.7075,0.42,0.4025,-0.084058,0.18239,-1.11825,-0.04214,0.1078,0.46928
0.281448,0,0,14.7186,14.7186,15.2814,15.2814,-0.938159,-0.154581,5.10321,0.118396,0.0208084,0.20365,1,0,4.27,-0.2975,0.7175,0.075884,0.049288,-0.810446,-0.04214,0.1078,0.46928
0.282053,0,0,14.7179,14.7179,15.2821,15.2821,-0.940176,-0.157939,5.10518,0.118455,0.0207732,0.203649,1,0,2.4325,-1.855,0.7175,0.075884,0.049288,-0.810446,-0.04214,0.1078,0.46928
0.282657,0,0,14.7173,14.7173,15.2827,15.2827,-0.942192,-0.162583,5.10708,0.129713,0.152146,0.187296,1,0,2.4325,-2.6075,0.665,0.087108,0.18056,-0.826672,-0.04214,0.1078,0.46928
0.28315,0,0,14.7169,14.7169,15.2831,15.2831,-0.943833,-0.164838,5.10888,0.129752,0.152118,0.187296,1,0,2.6425,-1.2075,0.63,0.087108,0.18056,-0.826672,-0.04214,0.1078,0.46928
0.244853,0,0,14.7551,14.7551,15.2449,15.2449,-0.816176,-0.188265,5.19707,-0.0274062,-0.115432,-0.0172578,0,0,3.2375,-0.2625,0.735,-0.071126,-0.088938,-1.02968,-0.04214,0.1078,0.46928
0.20599,0,0,14.794,14.794,15.206,15.206,-0.686635,-0.209283,5.28476,-0.0270393,-0.113172,-0.0172294,0,0,5.6875,0.98,0.6475,-0.071126,-0.088938,-1.02968,-0.04214,0.1078,0.46928
0.204666,0,0,14.7953,14.7953,15.2047,15.2047,-0.682221,-0.207366,5.28635,-0.0309603,0.229104,-0.133784,1,0,6.0375,1.2425,0.5425,-0.07503,0.252906,-1.14534,-0.04214,0.1078,0.46928
0.202836,0,0,14.7972,14.7972,15.2028,15.2028,-0.676119,-0.204684,5.28701,-0.0310071,0.229211,-0.133782,1,0,6.9825,1.6975,0,-0.07503,0.252906,-1.14534,-0.04214,0.1078,0.46928
0.270127,0,0,14.7299,14.7299,15.2701,15.2701,-0.900425,-0.224074,5.37931,-0.00782942,0.213939,-0.0278556,0,0,6.4575,1.855,-0.0875,-0.052094,0.24156,-1.04017,-0.04284,0.1113,0.4648
0.341514,0,0,14.6585,14.6585,15.3415,15.3415,-1.13838,-0.203978,5.43203,0.0292374,0.208077,0.0364968,0,0,3.885,0.4025,-0.2975,-0.014518,0.239852,-0.976244,-0.04284,0.1113,0.4648
0.323978,0,0,14.676,14.676,15.324,15.324,-1.07993,-0.0531419,5.34625,0.136063,-0.0524991,-0.0520004,0,0,4.1825,-0.56,-0.2625,0.095404,-0.021472,-1.06408,-0.04284,0.1113,0.4648
0.306786,0,0,14.6932,14.6932,15.3068,15.3068,-1.02262,0.0946367,5.26076,0.133484,-0.051499,-0.051983,0,0,4.1825,-0.56,-0.2625,0.095404,-0.021472,-1.06408,-0.04284,0.1113,0.4648
0.246089,0,0,14.7539,14.7539,15.2461,15.2461,-0.820296,0.0340352,5.36517,-0.0550972,-0.168874,0.0806134,0,0,3.3425,-1.855,-0.2975,-0.095038,-0.142252,-0.932568,-0.04284,0.1113,0.4648
0.186551,0,0,14.8134,14.8134,15.1866,15.1866,-0.621836,-0.0256048,5.46893,-0.0540563,-0.16541,0.0806571,0,0,3.3425,-1.855,-0.2975,-0.095038,-0.142252,-0.932568,-0.04284,0.1113,0.4648
0.18544,0,0,14.8146,14.8146,15.1854,15.1854,-0.618134,-0.0259825,5.46848,0.0923405,-0.0128094,-0.186509,1,0,5.635,-0.0875,-0.665,0.051972,0.010126,-1.19767,-0.04284,0.1113,0.4648
0.18433,0,0,14.8157,14.8157,15.1843,15.1843,-0.614433,-0.0263601,5.46803,0.0923471,-0.0127448,-0.186509,1,0,5.635,-0.0875,-0.665,0.051972,0.010126,-1.19767,-0.04284,0.1113,0.4648
0.183406,0,0,14.8166,14.8166,15.1834,15.1834,-0.611355,-0.024802,5.46702,0.153063,0.0145432,-0.111509,1,0,5.285,1.05,-0.98,0.112972,0.037332,-1.12325,-0.04074,0.10108,0.46914
0.176994,0,0,14.823,14.823,15.177,15.177,-0.58998,0.110253,5.41364,0.109158,-0.0172031,0.0375063,0,0,4.34,1.785,-1.1725,0.071248,0.005246,-0.97539,-0.04074,0.10108,0.46914
0.170898,0,0,14.8291,14.8291,15.1709,15.1709,-0.569659,0.241359,5.36054,0.106869,-0.0168483,0.0375029,0,0,3.99,1.0675,-1.085,0.071248,0.005246,-0.97539,-0.04074,0.10108,0.46914
0.15301,0,0,14.847,14.847,15.153,15.153,-0.510035,0.442168,5.23596,0.17662,-0.053789,-0.0273021,0,0,4.0425,0.6825,-1.0325,0.144814,-0.032696,-1.03968,-0.04074,0.10108,0.46914
0.135055,0,0,14.8649,14.8649,15.1351,15.1351,-0.450185,0.636531,5.11168,0.173228,-0.0527442,-0.0273253,0,0,4.83,-0.7175,-1.12,0.144814,-0.032696,-1.03968,-0.04074,0.10108,0.46914
0.109428,0,0,14.8906,14.8906,15.1094,15.1094,-0.36476,0.71743,5.09297,0.0599282,-0.0676183,0.0910681,0,0,4.9525,-0.91,-0.91,0.032452,-0.049044,-0.922198,-0.04074,0.10108,0.46914
0.0838017,0,0,14.9162,14.9162,15.0838,15.0838,-0.279339,0.7961,5.07519,0.0585552,-0.0661275,0.0910583,0,0,5.88,-1.2075,-0.455,0.032452,-0.049044,-0.922198,-0.04074,0.10108,0.46914
0.0826436,0,0,14.9174,14.9174,15.0826,15.0826,-0.275479,0.793518,5.07537,0.101242,-0.0334523,-0.103937,1,0,5.7225,-1.3825,-0.2975,0.075274,-0.01647,-1.11569,-0.04074,0.10108,0.46914
0.0818518,0,0,14.9181,14.9181,15.0819,15.0819,-0.272839,0.792488,5.07531,0.10126,-0.0334062,-0.103937,1,0,5.04,-0.4725,-0.4375,0.075274,-0.01647,-1.11569,-0.04452,0.10304,0.47236
0.0923065,0,0,14.9077,14.9077,15.0923,15.0923,-0.307688,0.703692,5.21754,-0.0789332,0.0354756,-0.0634694,0,0,5.0225,0.5075,-0.5075,-0.107238,0.052948,-1.07555,-0.04452,0.10304,0.47236
0.102913,0,0,14.8971,14.8971,15.1029,15.1029,-0.343043,0.618099,5.36008,-0.0774394,0.0348585,-0.0634556,0,0,4.3575,1.3125,-0.2975,-0.107238,0.052948,-1.07555,-0.04452,0.10304,0.47236
0.0908518,0,0,14.9091,14.9091,15.0909,15.0909,-0.302839,0.668453,5.37284,0.0369717,-0.0331971,0.0517412,0,0,4.13,1.2075,-0.2275,0.00854,-0.015738,-0.961238,-0.04452,0.10304,0.47236
0.0790179,0,0,14.921,14.921,15.079,15.079,-0.263393,0.716277,5.38541,0.0361371,-0.0325087,0.0517345,0,0,4.1475,0.35,-0.35,0.00854,-0.015738,-0.961238,-0.04452,0.10304,0.47236
0.0770067,0,0,14.923,14.923,15.077,15.077,-0.256689,0.845309,5.32027,0.101917,-0.00503515,0.0722367,0,0,3.885,0.1925,-0.245,0.07686,0.01159,-0.940864,-0.04452,0.10304,0.47236
0.0748765,0,0,14.9251,14.9251,15.0749,15.0749,-0.249588,0.970725,5.25579,0.0997286,-0.00491109,0.0722026,0,0,4.1825,-0.4025,0.0875,0.07686,0.01159,-0.940864,-0.04452,0.10304,0.47236
0.0745004,0,0,14.9255,14.9255,15.0745,15.0745,-0.248335,0.969879,5.25687,0.0110588,-0.00317943,0.102448,1,0,4.2525,-0.3675,0.2275,-0.0122,0.013298,-0.910852,-0.04452,0.10304,0.47236
0.0736565,0,0,14.9263,14.9263,15.0737,15.0737,-0.245522,0.968465,5.25786,0.0110835,-0.00313035,0.102449,1,0,5.1275,-0.7,0.175,-0.0122,0.013298,-0.910852,-0.04438,0.09604,0.46788
0.0415456,0,0,14.9585,14.9585,15.0415,15.0415,-0.138485,0.954198,5.3342,-0.0164878,-0.0996967,-0.078029,0,0,5.495,-0.8575,0.2975,-0.040138,-0.085034,-1.08995,-0.04438,0.09604,0.46788
0.0101405,0,0,14.9899,14.9899,15.0101,15.0101,-0.0338016,0.941778,5.40994,-0.016271,-0.0978698,-0.0780227,0,0,5.3375,0.14,0.105,-0.040138,-0.085034,-1.08995,-0.04438,0.09604,0.46788
0.0258901,0,0,14.9741,14.9741,15.0259,15.0259,-0.0863005,1.01625,5.40665,0.0645538,0.0484989,0.0193293,0,0,4.8825,0.735,-0.0175,0.042334,0.062098,-0.993324,-0.04438,0.09604,0.46788
0.0419362,0,0,14.9581,14.9581,15.0419,15.0419,-0.139787,1.08967,5.40319,0.0632726,0.0475656,0.0193039,0,0,3.7625,0.9625,-0.0875,0.042334,0.062098,-0.993324,-0.04438,0.09604,0.46788
0.05779,0,0,14.9422,14.9422,15.0578,15.0578,-0.192633,1.06032,5.49569,-0.022956,0.0431017,0.0741459,0,0,3.395,0.7175,-0.0525,-0.044774,0.05856,-0.938912,-0.04438,0.09604,0.46788
0.0733313,0,0,14.9267,14.9267,15.0733,15.0733,-0.244438,1.03141,5.58755,-0.0224515,0.0421977,0.0741517,0,0,3.4125,0.595,-0.4375,-0.044774,0.05856,-0.938912,-0.04438,0.09604,0.46788
0.0735231,0,0,14.9265,14.9265,15.0735,15.0735,-0.245077,1.03294,5.58745,-0.00340513,0.0751607,0.134642,1,0,3.2025,1.0325,-0.455,-0.02562,0.0915,-0.878888,-0.04438,0.09604,0.46788
0.0732012,0,0,14.9268,14.9268,15.0732,15.0732,-0.244004,1.03445,5.58708,-0.00343144,0.0751795,0.134641,1,0,4.165,1.015,-0.6125,-0.02562,0.0915,-0.878888,-0.04074,0.1015,0.46396
0.0942177,0,0,14.9058,14.9058,15.0942,15.0942,-0.314059,0.966312,5.70875,-0.0558175,0.0643089,0.0088799,0,0,5.0225,0.42,-0.42,-0.079422,0.081862,-1.00369,-0.04074,0.1015,0.46396
0.114782,0,0,14.8852,14.8852,15.1148,15.1148,-0.382608,0.898459,5.83055,-0.0546335,0.0631125,0.00889189,0,0,5.11,-0.245,-0.42,-0.079422,0.081862,-1.00369,-0.04074,0.1015,0.46396
0.113982,0,0,14.886,14.886,15.114,15.114,-0.37994,0.897368,5.83031,0.0921403,-0.137129,-0.149219,1,0,5.0575,-0.5075,-0.5425,0.067954,-0.118218,-1.16059,-0.04074,0.1015,0.46396
0.113623,0,0,14.8864,14.8864,15.1136,15.1136,-0.378742,0.897172,5.82992,0.0921437,-0.137108,-0.149219,1,0,4.235,0.0175,-0.63,0.067954,-0.118218,-1.16059,-0.04074,0.1015,0.46396
0.116626,0,0,14.8834,14.8834,15.1166,15.1166,-0.388754,0.918337,5.86646,0.0187615,0.00902528,0.00200056,0,0,3.57,0.1575,-0.6125,-0.005368,0.027938,-1.01053,-0.04074,0.1015,0.46396
0.119855,0,0,14.8801,14.8801,15.1199,15.1199,-0.399515,0.939865,5.90267,0.0183858,0.00883754,0.00199317,0,0,3.045,0.6125,-0.7875,-0.005368,0.027938,-1.01053,-0.04074,0.1015,0.46396
0.120293,0,0,14.8797,14.8797,15.1203,15.1203,-0.400977,0.940562,5.90185,0.0215323,0.04545,0.140802,1,0,2.7475,0.5425,-0.875,-0.002196,0.064538,-0.872788,-0.04074,0.1015,0.46396
0.120554,0,0,14.8794,14.8794,15.1206,15.1206,-0.401846,0.940363,5.90106,0.0215357,0.0454349,0.140802,1,0,3.08,0.0175,-0.8575,-0.002196,0.064538,-0.872788,-0.04074,0.1015,0.46396
0.149442,0,0,14.8506,14.8506,15.1494,15.1494,-0.49814,0.943442,5.95951,0.00653925,0.0797819,0.0689856,0,0,3.325,-0.245,-0.77,-0.017202,0.100528,-0.944036,-0.0455,0.0994,0.45766
0.177229,0,0,14.8228,14.8228,15.1772,15.1772,-0.590765,0.947246,6.01864,0.00647286,0.0781656,0.0689691,0,0,4.34,0.1575,-0.4025,-0.017202,0.100528,-0.944036,-0.0455,0.0994,0.45766
0.163607,0,0,14.8364,14.8364,15.1636,15.1636,-0.545356,1.0609,5.96882,0.104837,-0.0406038,-0.0653175,0,0,4.725,-0.1575,-0.175,0.08357,-0.01891,-1.07726,-0.0455,0.0994,0.45766
0.150625,0,0,14.8494,14.8494,15.1506,15.1506,-0.502085,1.17142,5.91886,0.102908,-0.0398484,-0.0653482,0,0,4.025,-0.63,-0.35,0.08357,-0.01891,-1.07726,-0.0455,0.0994,0.45766
0.129312,0,0,14.8707,14.8707,15.1293,15.1293,-0.431041,1.31377,5.83545,0.127516,-0.0651098,-0.0349007,0,0,4.1125,-0.7,-0.385,0.110776,-0.045384,-1.047,-0.0455,0.0994,0.45766
0.108888,0,0,14.8911,14.8911,15.1089,15.1089,-0.362962,1.45405,5.75259,0.125068,-0.0639216,-0.0349516,0,0,3.22,-0.21,-0.2625,0.110776,-0.045384,-1.047,-0.0455,0.0994,0.45766
0.123714,0,0,14.8763,14.8763,15.1237,15.1237,-0.41238,1.44641,5.8107,-0.00308765,0.0453745,-0.0365524,0,0,2.9925,-0.2625,-0.42,-0.018056,0.06466,-1.04859,-0.0455,0.0994,0.45766
0.138255,0,0,14.8617,14.8617,15.1383,15.1383,-0.460852,1.43897,5.86883,-0.0029578,0.0445288,-0.0365556,0,0,2.9925,-0.2625,-0.42,-0.018056,0.06466,-1.04859,-0.0455,0.0994,0.45766
0.13584,0,0,14.8642,14.8642,15.1358,15.1358,-0.452799,1.62009,5.74413,0.141973,-0.00845517,0.0976209,0,0,2.6075,0.0175,-0.4025,0.130662,0.01159,-0.915366,-0.042,0.09954,0.46536
0.150226,0,0,14.8498,14.8498,15.1502,15.1502,-0.500755,1.68005,5.73465,0.0529715,0.0416353,0.0150854,0,0,2.8525,0.28,-0.2975,0.042334,0.062464,-0.997228,-0.042,0.09954,0.46536
0.16434,0,0,14.8357,14.8357,15.1643,15.1643,-0.5478,1.73886,5.72515,0.0519455,0.0408149,0.0150472,0,0,2.8525,0.28,-0.2975,0.042334,0.062464,-0.997228,-0.042,0.09954,0.46536
0.149548,0,0,14.8505,14.8505,15.1495,15.1495,-0.498492,1.73173,5.77706,-0.00928033,-0.0443022,-0.0145717,0,0,3.9725,1.0675,-0.0525,-0.019276,-0.023424,-1.02663,-0.042,0.09954,0.46536
0.135038,0,0,14.865,14.865,15.135,15.135,-0.450127,1.72469,5.82886,-0.00915749,-0.0434585,-0.014561,0,0,3.9725,1.0675,-0.0525,-0.019276,-0.023424,-1.02663,-0.042,0.09954,0.46536
0.122312,0,0,14.8777,14.8777,15.1223,15.1223,-0.407708,1.77814,5.81435,0.0591569,-0.0407643,-0.0921645,0,0,3.71,-4.06,-0.1575,0.050264,-0.021472,-1.10361,-0.042,0.09954,0.46536
0.10983,0,0,14.8902,14.8902,15.1098,15.1098,-0.366101,1.8305,5.79989,0.0582434,-0.0400383,-0.0921884,0,0,3.71,-4.06,-0.1575,0.050264,-0.021472,-1.10361,-0.042,0.09954,0.46536
0.122563,0,0,14.8774,14.8774,15.1226,15.1226,-0.408543,1.91103,5.76605,0.0727533,0.0379934,-0.00408521,0,0,2.9575,0.1225,-0.3675,0.066246,0.057218,-1.01614,-0.042,0.09954,0.46536
0.135047,0,0,14.865,14.865,15.135,15.135,-0.450157,1.9902,5.73857,0.0713723,0.0372679,-0.00413768,0,0,2.9575,0.1225,-0.3675,0.066246,0.057218,-1.01614,-0.04564,0.09618,0.45766
0.149499,0,0,14.8505,14.8505,15.1495,15.1495,-0.49833,1.95603,5.817,-0.0280144,0.0392364,0.043457,0,0,2.38,0.0525,-0.7175,-0.03416,0.060024,-0.968924,-0.04564,0.09618,0.45766
0.163675,0,0,14.8363,14.8363,15.1637,15.1637,-0.545583,1.92257,5.89546,-0.0274307,0.038412,0.0434692,0,0,2.38,0.0525,-0.7175,-0.03416,0.060024,-0.968924,-0.04564,0.09618,0.45766
0.166837,0,0,14.8332,14.8332,15.1668,15.1668,-0.556123,2.0711,5.80092,0.127667,0.00843012,0.0202628,0,0,2.7825,0.49,-0.6125,0.124196,0.030256,-0.99186,-0.04564,0.09618,0.45766
0.169945,0,0,14.8301,14.8301,15.1699,15.1699,-0.566485,2.21671,5.70642,0.125127,0.00825034,0.020166,0,0,2.7825,0.49,-0.6125,0.124196,0.030256,-0.99186,-0.04564,0.09618,0.45766
0.15439,0,0,14.8456,14.8456,15.1544,15.1544,-0.514632,2.26578,5.69958,0.0375308,-0.0451915,0.0435012,0,0,3.5875,0.0875,-0.7,0.037088,-0.024034,-0.96868,-0.04564,0.09618,0.45766
0.13913,0,0,14.8609,14.8609,15.1391,15.1391,-0.463768,2.31383,5.69277,0.0366928,-0.0443042,0.0434753,0,0,3.5875,0.0875,-0.7,0.037088,-0.024034,-0.96868,-0.04564,0.09618,0.45766
0.12353,0,0,14.8765,14.8765,15.1235,15.1235,-0.411766,2.22711,5.81272,-0.0776922,-0.0482829,-0.0159649,0,0,3.5,-0.1575,-0.6475,-0.0793,-0.028914,-1.02773,-0.04564,0.09618,0.45766
0.122081,0,0,14.8779,14.8779,15.1221,15.1221,-0.406938,2.20944,5.87382,-0.0153048,-0.00521012,-0.0031657,0,0,3.0975,-0.07,-0.665,-0.016958,0.01403,-1.01504,-0.04326,0.09352,0.46088
0.122579,0,0,14.8774,14.8774,15.1226,15.1226,-0.408598,2.20859,5.87319,-0.0576884,0.0654723,-0.100909,1,0,2.6425,-0.3675,-0.77,-0.059536,0.084668,-1.11203,-0.04326,0.09352,0.46088
0.0940401,0,0,14.906,14.906,15.094,15.094,-0.313467,2.12624,5.9936,-0.0755684,-0.0888248,-0.00162514,0,0,2.45,-0.385,-0.6125,-0.078934,-0.071126,-1.01358,-0.04326,0.09352,0.46088
0.0661266,0,0,14.9339,14.9339,15.0661,15.0661,-0.220422,2.04534,6.11356,-0.0741574,-0.0872021,-0.00156619,0,0,2.2925,-0.4375,-0.56,-0.078934,-0.071126,-1.01358,-0.04326,0.09352,0.46088
0.0524406,0,0,14.9476,14.9476,15.0524,15.0524,-0.174802,1.99553,6.20594,-0.0449825,-0.0456162,-0.0521876,0,0,2.3975,-0.5775,-0.6125,-0.050508,-0.030378,-1.06384,-0.04326,0.09352,0.46088
0.0386935,0,0,14.9613,14.9613,15.0387,15.0387,-0.128978,1.94828,6.29835,-0.0441584,-0.044817,-0.0521571,0,0,2.9925,0.3675,-0.4375,-0.050508,-0.030378,-1.06384,-0.04326,0.09352,0.46088
0.0232234,0,0,14.9768,14.9768,15.0232,15.0232,-0.0774115,1.92039,6.37333,-0.0273926,-0.0478256,-0.0166069,0,0,3.465,0.6825,-0.455,-0.03416,-0.034282,-1.02858,-0.04326,0.09352,0.46088
0.00794311,0,0,14.9921,14.9921,15.0079,15.0079,-0.026477,1.89275,6.44831,-0.0269106,-0.0469371,-0.0165901,0,0,3.6575,0.5425,-0.3325,-0.03416,-0.034282,-1.02858,-0.04326,0.09352,0.46088
-0.0352823,0,0,15.0353,15.0353,14.9647,14.9647,0.117608,1.88408,6.51652,-0.0175265,-0.119654,0.0901322,0,0,3.535,0.315,-0.315,-0.024888,-0.109434,-0.922686,-0.0427,0.08624,0.45332
-0.0196694,0,0,15.0197,15.0197,14.9803,14.9803,0.0655647,1.80957,6.65002,-0.0591111,0.0422334,0.086733,0,0,3.185,-0.1225,-0.385,-0.067954,0.053192,-0.926102,-0.0427,0.08624,0.45332
-0.00440661,0,0,15.0044,15.0044,14.9956,14.9956,0.0146887,1.73597,6.78318,-0.0578271,0.0413459,0.0867734,0,0,3.29,-0.49,-0.595,-0.067954,0.053192,-0.926102,-0.0427,0.08624,0.45332
0.0117986,0,0,14.9882,14.9882,15.0118,15.0118,-0.0393287,1.71414,6.86934,-0.0150478,0.0489524,-0.00899223,0,0,3.3425,-0.385,-0.5075,-0.025376,0.061732,-1.02114,-0.0427,0.08624,0.45332
0.0277767,0,0,14.9722,14.9722,15.0278,15.0278,-0.092589,1.69334,6.95578,-0.014685,0.0480232,-0.00898251,0,0,3.185,-0.07,-0.35,-0.025376,0.061732,-1.02114,-0.0427,0.08624,0.45332
0.0202521,0,0,14.9797,14.9797,15.0203,15.0203,-0.0675069,1.76222,6.95565,0.065266,-0.0246931,-0.066681,0,0,3.115,-0.07,-0.315,0.05612,-0.011346,-1.07836,-0.0427,0.08624,0.45332
0.0130499,0,0,14.987,14.987,15.013,15.013,-0.0434996,1.8305,6.95563,0.0640748,-0.0242742,-0.0667179,0,0,2.7825,0.4025,-0.2625,0.05612,-0.011346,-1.07836,-0.0427,0.08624,0.45332
-0.0260122,0,0,15.026,15.026,14.974,14.974,0.0867072,1.91462,6.93636,0.0678313,-0.121658,-0.0148825,0,0,3.1325,0.4725,-0.1575,0.061366,-0.110898,-1.02687,-0.0427,0.08624,0.45332
-0.0641829,0,0,15.0642,15.0642,14.9358,14.9358,0.213943,1.99668,6.91524,0.0663998,-0.119439,-0.0149372,0,0,2.8875,0.6125,-0.1225,0.061366,-0.110898,-1.02687,-0.042,0.0868,0.46452
-0.102047,0,0,15.102,15.102,14.898,14.898,0.340155,2.11273,6.8608,0.0945041,-0.115895,0.00489719,0,0,3.2025,0.7875,-0.07,0.091622,-0.109556,-1.00711,-0.042,0.0868,0.46452
-0.139381,0,0,15.1394,15.1394,14.8606,14.8606,0.464604,2.22558,6.80679,0.0925359,-0.113725,0.0048074,0,0,3.5525,0.35,-0.035,0.091622,-0.109556,-1.00711,-0.042,0.0868,0.46452
-0.132455,0,0,15.1325,15.1325,14.8675,14.8675,0.441518,2.26977,6.81934,0.0430496,0.0216773,-0.0457515,0,0,3.4125,0.2975,-0.175,0.0427,0.026108,-1.05725,-0.042,0.0868,0.46452
-0.125845,0,0,15.1258,15.1258,14.8742,14.8742,0.419482,2.31247,6.83168,0.0423049,0.0212928,-0.0457784,0,0,3.7625,-0.07,-0.28,0.0427,0.026108,-1.05725,-0.042,0.0868,0.46452
-0.103952,0,0,15.104,15.104,14.896,14.896,0.346506,2.27846,6.91696,-0.0257413,0.0677719,-0.0190663,0,0,3.745,-0.035,-0.2275,-0.02623,0.07381,-1.03078,-0.042,0.0868,0.46452
-0.0822795,0,0,15.0823,15.0823,14.9177,14.9177,0.274265,2.24491,7.00247,-0.0251563,0.0665122,-0.0190364,0,0,3.3775,-0.1925,-0.14,-0.02623,0.07381,-1.03078,-0.042,0.0868,0.46452
-0.0708352,0,0,15.0708,15.0708,14.9292,14.9292,0.236117,2.15827,7.13766,-0.0758841,0.0365367,-0.0712284,0,0,3.6575,-0.2975,-0.14,-0.07869,0.04453,-1.08263,-0.042,0.0868,0.46452
-0.0593907,0,0,15.0594,15.0594,14.9406,14.9406,0.197969,2.0742,7.27077,-0.0744178,0.0358716,-0.0711717,0,0,3.255,0.245,-0.14,-0.07869,0.04453,-1.08263,-0.04284,0.08848,0.45724
-0.129799,0,0,15.1298,15.1298,14.8702,14.8702,0.432664,2.17246,7.22221,0.0657637,-0.198427,0.0961981,0,0,3.395,-0.07,-0.21,0.063806,-0.193614,-0.916464,-0.04284,0.08848,0.45724
-0.198958,0,0,15.199,15.199,14.801,14.801,0.663193,2.26892,7.1743,0.0640813,-0.194407,0.0960944,0,0,3.5,0.1925,-0.175,0.063806,-0.193614,-0.916464,-0.04284,0.08848,0.45724
-0.240791,0,0,15.2408,15.2408,14.7592,14.7592,0.802638,2.30832,7.18204,0.0253693,-0.123707,0.033455,0,0,3.5175,0.42,-0.245,0.02562,-0.125416,-0.978562,-0.04284,0.08848,0.45724
-0.282061,0,0,15.2821,15.2821,14.7179,14.7179,0.940202,2.34628,7.18978,0.0247073,-0.121309,0.0333917,0,0,3.9375,0.14,-0.245,0.02562,-0.125416,-0.978562,-0.04284,0.08848,0.45724
-0.29286,0,0,15.2929,15.2929,14.7071,14.7071,0.976198,2.37082,7.2123,0.0165042,-0.0293306,0.0573385,0,0,3.92,-0.0875,-0.385,0.017812,-0.03416,-0.954772,-0.04284,0.08848,0.45724
-0.303692,0,0,15.3037,15.3037,14.6963,14.6963,1.01231,2.39499,7.23438,0.0160827,-0.0287014,0.05731,0,0,4.375,0,-0.6125,0.017812,-0.03416,-0.954772,-0.04284,0.08848,0.45724
-0.281608,0,0,15.2816,15.2816,14.7184,14.7184,0.938694,2.36082,7.31376,-0.0252339,0.0710144,-0.0558789,0,0,4.235,-0.035,-0.7,-0.024278,0.066734,-1.06713,-0.04284,0.08848,0.45724
-0.259798,0,0,15.2598,15.2598,14.7402,14.7402,0.865993,2.32741,7.38401,-0.0246512,0.0697471,-0.0558351,0,0,3.92,-0.385,-0.8575,-0.024278,0.066734,-1.06713,-0.04228,0.09394,0.45598
-0.261076,0,0,15.2611,15.2611,14.7389,14.7389,0.870253,2.37132,7.38036,0.0416431,-0.00382153,-0.0423433,0,0,3.9025,-0.0175,-0.7,0.043066,-0.006832,-1.05371,-0.04228,0.09394,0.45598
-0.262162,0,0,15.2622,15.2622,14.7378,14.7378,0.873874,2.41447,7.37696,0.0408907,-0.00375887,-0.0423757,0,0,3.5875,0.0525,-0.56,0.043066,-0.006832,-1.05371,-0.04228,0.09394,0.45598
-0.293832,0,0,15.2938,15.2938,14.7062,14.7062,0.979439,2.34752,7.47011,-0.0631485,-0.103283,-0.0517011,0,0,3.7975,0,-0.5775,-0.062586,-0.108092,-1.06299,-0.04228,0.09394,0.45598
-0.32496,0,0,15.325,15.325,14.675,14.675,1.0832,2.28233,7.56253,-0.0620116,-0.101473,-0.0516877,0,0,3.9025,0.2975,-0.7175,-0.062586,-0.108092,-1.06299,-0.04228,0.09394,0.45598
-0.344231,0,0,15.3442,15.3442,14.6558,14.6558,1.14744,2.46955,7.42334,0.151211,-0.0537029,0.0559809,0,0,4.1125,0.4725,-0.875,0.154818,-0.061488,-0.955992,-0.04228,0.09394,0.45598
-0.36327,0,0,15.3633,15.3633,14.6367,14.6367,1.2109,2.65269,7.28455,0.148018,-0.0525995,0.0558153,0,0,4.375,0.28,-0.91,0.154818,-0.061488,-0.955992,-0.04228,0.09394,0.45598
-0.351677,0,0,15.3517,15.3517,14.6483,14.6483,1.17226,2.5074,7.45096,-0.124128,0.0358818,0.00369037,0,0,4.6025,-0.0175,-0.98,-0.121024,0.027572,-1.00784,-0.04228,0.09394,0.45598
-0.340407,0,0,15.3404,15.3404,14.6596,14.6596,1.13469,2.36674,7.62131,-0.121675,0.0352289,0.00380793,0,0,4.7075,0.3675,-0.7525,-0.121024,0.027572,-1.00784,-0.03654,0.09212,0.4515
-0.330617,0,0,15.3306,15.3306,14.6694,14.6694,1.10206,2.4395,7.59443,0.058434,0.0311172,0.0606909,0,0,4.375,0.28,-0.7875,0.061122,0.024034,-0.951356,-0.03654,0.09212,0.4515
-0.320829,0,0,15.3208,15.3208,14.6792,14.6792,1.06943,2.50987,7.5675,0.057207,0.0305474,0.0606487,0,0,4.0425,-0.2975,-0.805,0.061122,0.024034,-0.951356,-0.03654,0.09212,0.4515
-0.322984,0,0,15.323,15.323,14.677,14.677,1.07661,2.50753,7.60606,0.000271069,-0.00804149,-0.058243,0,0,3.605,0.0175,-0.8225,0.003904,-0.01464,-1.06933,-0.03654,0.09212,0.4515
-0.325305,0,0,15.3253,15.3253,14.6747,14.6747,1.08435,2.50566,7.64525,0.000303664,-0.00790661,-0.0582442,0,0,3.9725,0.28,-0.42,0.003904,-0.01464,-1.06933,-0.03654,0.09212,0.4515
-0.320298,0,0,15.3203,15.3203,14.6797,14.6797,1.06766,2.48656,7.7014,-0.0160068,0.0157396,-0.00289735,0,0,3.9025,0.14,-0.455,-0.01281,0.009272,-1.01443,-0.03654,0.09212,0.4515
-0.315428,0,0,15.3154,15.3154,14.6846,14.6846,1.05143,2.46844,7.75785,-0.0156908,0.0154568,-0.00287845,0,0,3.9725,0.49,-0.2625,-0.01281,0.009272,-1.01443,-0.03654,0.09212,0.4515
-0.333702,0,0,15.3337,15.3337,14.6663,14.6663,1.11234,2.49007,7.77376,0.01649,-0.0554142,-0.0102917,0,0,4.375,0.7175,-0.3325,0.019886,-0.062586,-1.02175,-0.03654,0.09212,0.4515
-0.351619,0,0,15.3516,15.3516,14.6484,14.6484,1.17206,2.51025,7.78945,0.0161383,-0.0543733,-0.0103279,0,0,4.3575,0.14,-0.42,0.019886,-0.062586,-1.02175,-0.03654,0.09212,0.4515
-0.334543,0,0,15.3345,15.3345,14.6655,14.6655,1.11514,2.51297,7.82168,0.0041851,0.0543042,-0.000720159,0,0,4.655,0.2275,-0.2625,0.00793,0.04697,-1.01223,-0.04088,0.0952,0.4585
-0.365674,0,0,15.3657,15.3657,14.6343,14.6343,1.21891,2.53547,7.82587,0.0132688,-0.0883631,0.0556591,0,0,4.2875,-0.07,-0.35,0.017446,-0.097356,-0.956236,-0.04088,0.0952,0.4585
-0.396174,0,0,15.3962,15.3962,14.6038,14.6038,1.32058,2.55718,7.83002,0.0128901,-0.0865913,0.0556029,0,0,4.2,-0.21,-0.35,0.017446,-0.097356,-0.956236,-0.04088,0.0952,0.4585
-0.399588,0,0,15.3996,15.3996,14.6004,14.6004,1.33196,2.68292,7.7427,0.11639,-0.0111652,-0.0379428,0,0,3.4125,-0.0525,-0.21,0.123586,-0.022204,-1.04896,-0.04088,0.0952,0.4585
-0.402943,0,0,15.4029,15.4029,14.5971,14.5971,1.34314,2.80624,7.65577,0.114241,-0.0109727,-0.0380504,0,0,3.43,0,-0.07,0.123586,-0.022204,-1.04896,-0.04088,0.0952,0.4585
-0.400308,0,0,15.4003,15.4003,14.5997,14.5997,1.33436,2.8604,7.63214,0.0469652,0.00902406,0.00543025,0,0,3.78,0.14,-0.0525,0.056974,-0.002074,-1.00577,-0.04088,0.0952,0.4585
-0.397551,0,0,15.3976,15.3976,14.6024,14.6024,1.32517,2.91335,7.60853,0.0460424,0.00886283,0.00538745,0,0,3.465,0.0525,-0.0525,0.056974,-0.002074,-1.00577,-0.04088,0.0952,0.4585
-0.384101,0,0,15.3841,15.3841,14.6159,14.6159,1.28034,2.84922,7.69373,-0.0541588,0.0431332,-0.0605619,0,0,4.235,-0.28,-0.0875,-0.044774,0.03294,-1.07128,-0.04088,0.0952,0.4585
-0.370795,0,0,15.3708,15.3708,14.6292,14.6292,1.23598,2.78647,7.78891,-0.053065,0.0423614,-0.0604911,0,0,4.06,0.035,-0.0525,-0.044774,0.03294,-1.07128,-0.0413,0.08946,0.45332
-0.412475,0,0,15.4125,15.4125,14.5875,14.5875,1.37492,2.77989,7.82418,-0.0117667,-0.124607,0.0251544,0,0,4.235,0.0875,-0.315,-0.003416,-0.136274,-0.986248,-0.0413,0.08946,0.45332
-0.451121,0,0,15.4511,15.4511,14.5489,14.5489,1.50374,2.77373,7.85922,-0.0116592,-0.122362,0.0251032,0,0,0.0175,0.3325,-0.315,-0.003416,-0.136274,-0.986248,-0.0413,0.08946,0.45332
-0.468351,0,0,15.4684,15.4684,14.5316,14.5316,1.56117,2.82694,7.843,0.042932,-0.0516278,0.0117526,0,0,3.745,0.35,-0.42,0.052338,-0.066612,-0.999424,-0.0413,0.08946,0.45332
-0.48505,0,0,15.485,15.485,14.515,14.515,1.61683,2.87845,7.82689,0.0420342,-0.0506591,0.011681,0,0,3.36,0,-0.385,0.052338,-0.066612,-0.999424,-0.0413,0.08946,0.45332
-0.451853,0,0,15.4519,15.4519,14.5481,14.5481,1.50618,2.88812,7.85578,0.0128305,0.102391,-0.00708603,0,0,3.0975,0.035,-0.49,0.02318,0.088206,-1.01809,-0.0413,0.08946,0.45332
-0.419501,0,0,15.4195,15.4195,14.5805,14.5805,1.39834,2.89808,7.88496,0.0126569,0.100512,-0.00704716,0,0,3.5175,0.28,-0.385,0.02318,0.088206,-1.01809,-0.0413,0.08946,0.45332
-0.399597,0,0,15.3996,15.3996,14.6004,14.6004,1.33199,2.90965,7.91112,0.0135487,0.0617405,-0.0248574,0,0,3.15,0.385,-0.2975,0.024278,0.05063,-1.03578,-0.0413,0.08946,0.45332
-0.380071,0,0,15.3801,15.3801,14.6199,14.6199,1.2669,2.92055,7.93329,0.0133586,0.0606061,-0.0248413,0,0,3.1325,-0.0525,-0.175,0.024278,0.05063,-1.03578,-0.04424,0.09198,0.4529
-0.346131,0,0,15.3461,15.3461,14.6539,14.6539,1.15377,2.90002,7.98716,-0.0145897,0.104555,0.00116066,0,0,3.4825,0.2625,-0.2625,-0.004148,0.096502,-1.01004,-0.04424,0.09198,0.4529
-0.312859,0,0,15.3129,15.3129,14.6871,14.6871,1.04286,2.88029,8.04102,-0.0142457,0.102622,0.00121508,0,0,3.5525,0.455,-0.3675,-0.004148,0.096502,-1.01004,-0.04424,0.09198,0.4529
-0.270519,0,0,15.2705,15.2705,14.7295,14.7295,0.901731,2.82269,8.13173,-0.0461644,0.133137,-0.0145535,0,0,3.9375,0.2625,-0.455,-0.03721,0.129442,-1.02578,-0.04424,0.09198,0.4529
-0.228719,0,0,15.2287,15.2287,14.7713,14.7713,0.762397,2.76648,8.22249,-0.0451844,0.130709,-0.0144704,0,0,3.4825,0.3675,-0.63,-0.03721,0.129442,-1.02578,-0.04424,0.09198,0.4529
-0.229861,0,0,15.2299,15.2299,14.7701,14.7701,0.766203,2.94294,8.09034,0.155836,-0.00234457,0.00848963,0,0,3.5,0.3325,-0.665,0.16775,-0.003538,-1.00284,-0.04424,0.09198,0.4529
-0.230829,0,0,15.2308,15.2308,14.7692,14.7692,0.769429,3.11569,7.95846,0.152825,-0.00229049,0.00832956,0,0,3.2375,0.175,-0.595,0.16775,-0.003538,-1.00284,-0.04424,0.09198,0.4529
-0.239891,0,0,15.2399,15.2399,14.7601,14.7601,0.799637,3.15373,7.94804,0.0312835,-0.0282661,0.0111139,0,0,3.01,0.35,-0.5075,0.04636,-0.030012,-1.00003,-0.04424,0.09198,0.4529
-0.248814,0,0,15.2488,15.2488,14.7512,14.7512,0.829379,3.19094,7.93445,0.0306351,-0.0277484,0.0110706,0,0,3.08,0.4025,-0.49,0.04636,-0.030012,-1.00003,-0.0434,0.0938,0.45556
-0.242696,0,0,15.2427,15.2427,14.7573,14.7573,0.808985,3.07795,8.06231,-0.0993293,0.0167183,-0.00541459,0,0,2.835,0.2975,-0.42,-0.086132,0.014762,-1.0165,-0.0434,0.0938,0.45556
-0.236907,0,0,15.2369,15.2369,14.7631,14.7631,0.789691,2.96681,8.18996,-0.0973922,0.0163835,-0.00530763,0,0,3.2375,0.07,-0.4725,-0.086132,0.014762,-1.0165,-0.0434,0.0938,0.45556
-0.239237,0,0,15.2392,15.2392,14.7608,14.7608,0.797457,2.9554,8.22513,-0.00935916,-0.00802847,-0.0126761,0,0,3.29,-0.1225,-0.42,0.002074,-0.00976,-1.02382,-0.0434,0.0938,0.45556
-0.241642,0,0,15.2416,15.2416,14.7584,14.7584,0.805472,2.94391,8.25999,-0.00915897,-0.00788864,-0.0126678,0,0,3.5175,-0.2975,-0.56,0.002074,-0.00976,-1.02382,-0.0434,0.0938,0.45556
-0.244404,0,0,15.2444,15.2444,14.7556,14.7556,0.81468,3.03832,8.19699,0.0770297,-0.00675238,0.0503166,0,0,3.5875,-0.1225,-0.42,0.09028,-0.008784,-0.961238,-0.0434,0.0938,0.45556
-0.246902,0,0,15.2469,15.2469,14.7531,14.7531,0.823005,3.13159,8.134,0.0754043,-0.00660855,0.0502269,0,0,3.2025,0.2975,-0.4725,0.09028,-0.008784,-0.961238,-0.0434,0.0938,0.45556
-0.217192,0,0,15.2172,15.2172,14.7828,14.7828,0.723974,3.02599,8.26033,-0.0934427,0.0951084,-0.0623946,0,0,2.9225,0.315,-0.5075,-0.08113,0.09455,-1.07311,-0.0434,0.0938,0.45556
-0.187949,0,0,15.1879,15.1879,14.8121,14.8121,0.626496,2.9228,8.3902,-0.0916443,0.0934106,-0.0622811,0,0,2.7125,0.245,-0.3675,-0.08113,0.09455,-1.07311,-0.03892,0.0924,0.44982
-0.170891,0,0,15.1709,15.1709,14.8291,14.8291,0.569638,2.87327,8.46973,-0.0419436,0.0537058,-0.067145,0,0,2.66,0.21,-0.2975,-0.032086,0.055876,-1.07799,-0.03892,0.0924,0.44982
-0.154346,0,0,15.1543,15.1543,14.8457,14.8457,0.514488,2.82435,8.54915,-0.0410908,0.0527449,-0.0670935,0,0,3.0275,-0.0175,-0.4025,-0.032086,0.055876,-1.07799,-0.03892,0.0924,0.44982
-0.187065,0,0,15.1871,15.1871,14.8129,14.8129,0.62355,2.72111,8.66953,-0.0994265,-0.112056,-0.0748939,0,0,3.22,-0.175,-0.3675,-0.092476,-0.110654,-1.0858,-0.03892,0.0924,0.44982
-0.219287,0,0,15.2193,15.2193,14.7807,14.7807,0.730955,2.6199,8.78891,-0.097662,-0.110183,-0.0748337,0,0,3.43,-0.105,-0.56,-0.092476,-0.110654,-1.0858,-0.03892,0.0924,0.44982
-0.253505,0,0,15.2535,15.2535,14.7465,14.7465,0.845015,2.57448,8.85635,-0.0440238,-0.104774,0.0188616,0,0,3.605,-0.35,-0.6125,-0.039406,-0.107238,-0.992836,-0.03892,0.0924,0.44982
-0.287058,0,0,15.2871,15.2871,14.7129,14.7129,0.95686,2.53074,8.9238,-0.0432611,-0.102824,0.0188649,0,0,3.535,0.175,-0.385,-0.039406,-0.107238,-0.992836,-0.03892,0.0924,0.44982
-0.290655,0,0,15.2907,15.2907,14.7093,14.7093,0.968851,2.55757,8.93316,0.021266,-0.0101651,0.0287994,0,0,3.5525,0.2275,-0.385,0.025864,-0.014884,-0.982954,-0.03892,0.0924,0.44982
-0.294076,0,0,15.2941,15.2941,14.7059,14.7059,0.980254,2.58332,8.94279,0.020817,-0.00996665,0.0287759,0,0,3.3425,-0.0875,-0.21,0.025864,-0.014884,-0.982954,-0.03892,0.0924,0.44982
-0.297491,0,0,15.2975,15.2975,14.7025,14.7025,0.991637,2.55413,9.01099,-0.0265394,-0.0112333,-0.00304833,0,0,3.36,0.1925,-0.2625,-0.022204,-0.016348,-1.01455,-0.03542,0.0882,0.4473
-0.300815,0,0,15.3008,15.3008,14.6992,14.6992,1.00272,2.5263,9.07902,-0.0260542,-0.0110398,-0.00303018,0,0,3.3075,0.665,-0.2975,-0.022204,-0.016348,-1.01455,-0.03542,0.0882,0.4473
-0.317002,0,0,15.317,15.317,14.683,14.683,1.05667,2.46618,9.17473,-0.0564706,-0.0494231,0.0215883,0,0,3.4825,0.63,-0.175,-0.053802,-0.055632,-0.990152,-0.03542,0.0882,0.4473
-0.332891,0,0,15.3329,15.3329,14.6671,14.6671,1.10964,2.40716,9.27012,-0.0554416,-0.0484989,0.0216146,0,0,3.4825,0.63,-0.175,-0.053802,-0.055632,-0.990152,-0.03542,0.0882,0.4473
-0.389055,0,0,15.3891,15.3891,14.6109,14.6109,1.29685,2.45682,9.24686,0.0475629,-0.187513,-0.0454976,0,0,3.255,-4.305,-0.21,0.050508,-0.197762,-1.05664,-0.03542,0.0882,0.4473
-0.444194,0,0,15.4442,15.4442,14.5558,14.5558,1.48065,2.50531,9.22376,0.0467172,-0.18431,-0.0456119,0,0,3.255,-4.305,-0.21,0.050508,-0.197762,-1.05664,-0.03542,0.0882,0.4473
-0.462696,0,0,15.4627,15.4627,14.5373,14.5373,1.54232,2.4934,9.27133,-0.0145468,-0.0537809,0.0514981,0,0,3.3075,-0.035,-0.2275,-0.011224,-0.068442,-0.960262,-0.03542,0.0882,0.4473
-0.480857,0,0,15.4809,15.4809,14.5191,14.5191,1.60286,2.48165,9.31872,-0.014342,-0.0527255,0.051478,0,0,3.3075,-0.035,-0.2275,-0.011224,-0.068442,-0.960262,-0.03542,0.0882,0.4473
-0.493699,0,0,15.4937,15.4937,14.5063,14.5063,1.64566,2.47968,9.35111,-0.00300936,-0.04111,-0.0087864,0,0,3.29,0.14,-0.1575,0.000122,-0.057584,-1.02004,-0.03836,0.09254,0.4466
-0.419914,0,0,15.4199,15.4199,14.5801,14.5801,1.39971,2.39941,9.47792,-0.0625956,0.223161,0.0508942,0,0,3.675,0.595,-0.1925,-0.061122,0.210694,-0.960994,-0.03836,0.09254,0.4466
-0.347134,0,0,15.3471,15.3471,14.6529,14.6529,1.15711,2.32075,9.60577,-0.0612237,0.218933,0.0510452,0,0,3.0625,0.5775,-0.1225,-0.061122,0.210694,-0.960994,-0.03836,0.09254,0.4466
-0.35108,0,0,15.3511,15.3511,14.6489,14.6489,1.17027,2.42015,9.55081,0.0829471,-0.0104376,0.0386739,0,0,3.4475,0.4025,-0.07,0.0854,-0.018666,-0.973194,-0.03836,0.09254,0.4466
-0.354832,0,0,15.3548,15.3548,14.6452,14.6452,1.18277,2.51744,9.49569,0.0812507,-0.0102211,0.0385963,0,0,3.2375,0.2975,-0.21,0.0854,-0.018666,-0.973194,-0.03836,0.09254,0.4466
-0.361566,0,0,15.3616,15.3616,14.6384,14.6384,1.20522,2.49505,9.54822,-0.0202854,-0.0215536,-0.00418085,0,0,3.4475,-0.0875,-0.2975,-0.016958,-0.030378,-1.01565,-0.03836,0.09254,0.4466
-0.368365,0,0,15.3684,15.3684,14.6316,14.6316,1.22788,2.4728,9.60074,-0.0198975,-0.0211582,-0.00417242,0,0,3.7975,-0.245,-0.2275,-0.016958,-0.030378,-1.01565,-0.03836,0.09254,0.4466
-0.377487,0,0,15.3775,15.3775,14.6225,14.6225,1.25829,2.39845,9.70102,-0.0656159,-0.026489,0.0476325,0,0,3.7275,-0.105,-0.2975,-0.064172,-0.036234,-0.964288,-0.03836,0.09254,0.4466
-0.386711,0,0,15.3867,15.3867,14.6133,14.6133,1.28904,2.32483,9.79773,-0.0643322,-0.0259517,0.0476735,0,0,4.2525,-0.455,-0.6125,-0.064172,-0.036234,-0.964288,-0.03906,0.0938,0.45388
-0.365996,0,0,15.366,15.366,14.634,14.634,1.21999,2.40495,9.76241,0.0698488,0.0643161,0.0428472,0,0,3.815,-0.28,-0.63,0.07198,0.055144,-0.969046,-0.03906,0.0938,0.45388
-0.345538,0,0,15.3455,15.3455,14.6545,14.6545,1.15179,2.48379,9.72733,0.0684741,0.063126,0.0428132,0,0,3.5875,-0.14,-0.4725,0.07198,0.055144,-0.969046,-0.03906,0.0938,0.45388
-0.330202,0,0,15.3302,15.3302,14.6698,14.6698,1.10067,2.49019,9.75651,0.0110212,0.0498999,-0.0565165,0,0,3.7275,-0.245,-0.49,0.014396,0.042822,-1.06762,-0.03906,0.0938,0.45388
-0.314969,0,0,15.315,15.315,14.685,14.685,1.0499,2.49766,9.78557,0.0108909,0.0490146,-0.0565056,0,0,3.395,0.4375,-0.5775,0.014396,0.042822,-1.06762,-0.03906,0.0938,0.45388
-0.326987,0,0,15.327,15.327,14.673,14.673,1.08996,2.4516,9.85609,-0.043096,-0.0404159,-0.0500906,0,0,3.8325,0.5075,-0.77,-0.040626,-0.047214,-1.06128,-0.03906,0.0938,0.45388
-0.338866,0,0,15.3389,15.3389,14.6611,14.6611,1.12955,2.40569,9.92622,-0.0422955,-0.0397249,-0.05007,0,0,3.99,0.0875,-0.8575,-0.040626,-0.047214,-1.06128,-0.03906,0.0938,0.45388
-0.341029,0,0,15.341,15.341,14.659,14.659,1.13676,2.52189,9.84967,0.09891,-0.00406205,0.0381173,0,0,4.025,-0.0175,-0.805,0.103212,-0.011712,-0.973682,-0.03906,0.0938,0.45388
-0.343124,0,0,15.3431,15.3431,14.6569,14.6569,1.14375,2.63603,9.77317,0.0969199,-0.00394208,0.0380253,0,0,3.955,-0.105,-0.7875,0.103212,-0.011712,-0.973682,-0.04116,0.0938,0.4529
-0.336307,0,0,15.3363,15.3363,14.6637,14.6637,1.12102,2.58855,9.84645,-0.0411104,0.0213091,0.0466773,0,0,3.92,-0.175,-0.735,-0.036234,0.013908,-0.965142,-0.04116,0.0938,0.4529
-0.329591,0,0,15.3296,15.3296,14.6704,14.6704,1.09864,2.54248,9.91977,-0.0403072,0.0209196,0.0467208,0,0,3.8675,0.105,-0.6825,-0.036234,0.013908,-0.965142,-0.04116,0.0938,0.4529
-0.30347,0,0,15.3035,15.3035,14.6965,14.6965,1.01157,2.53139,9.96729,-0.00877051,0.0782669,0.0567162,0,0,3.6575,0,-0.6125,-0.004758,0.072712,-0.95526,-0.04116,0.0938,0.4529
-0.277904,0,0,15.2779,15.2779,14.7221,14.7221,0.926345,2.52039,10.0149,-0.00857866,0.0767813,0.0567498,0,0,3.7975,-0.105,-0.63,-0.004758,0.072712,-0.95526,-0.04116,0.0938,0.4529
-0.256185,0,0,15.2562,15.2562,14.7438,14.7438,0.853951,2.42185,10.1431,-0.0842468,0.0653838,0.0289342,0,0,3.4825,0.07,-0.525,-0.082472,0.062586,-0.982954,-0.04116,0.0938,0.4529
-0.234982,0,0,15.235,15.235,14.765,14.765,0.783273,2.32528,10.2715,-0.0825628,0.0641524,0.0290216,0,0,3.6925,0.0875,-0.5075,-0.082472,0.062586,-0.982954,-0.04116,0.0938,0.4529
-0.237229,0,0,15.2372,15.2372,14.7628,14.7628,0.790764,2.37444,10.2599,0.0489993,-0.0071616,-0.0613825,0,0,3.9375,0.21,-0.4025,0.050508,-0.008784,-1.07262,-0.04116,0.0938,0.4529
-0.239253,0,0,15.2393,15.2393,14.7607,14.7607,0.797509,2.42236,10.2459,0.0481637,-0.00704448,-0.0614191,0,0,3.605,0.07,-0.3325,0.050508,-0.008784,-1.07262,-0.04088,0.0952,0.45724
-0.254851,0,0,15.2549,15.2549,14.7451,14.7451,0.849505,2.50371,10.1952,0.0723787,-0.0480283,-0.00284675,0,0,3.955,-0.1225,-0.3675,0.07625,-0.05063,-1.01443,-0.04088,0.0952,0.45724
-0.26993,0,0,15.2699,15.2699,14.7301,14.7301,0.899766,2.58365,10.145,0.0709847,-0.047153,-0.00292204,0,0,3.5175,0,-0.175,0.07625,-0.05063,-1.01443,-0.04088,0.0952,0.45724
-0.304581,0,0,15.3046,15.3046,14.6954,14.6954,1.01527,2.58352,10.1615,-0.00409105,-0.10779,0.00712619,0,0,4.06,0.0875,-0.105,0.000854,-0.113216,-1.00443,-0.04088,0.0952,0.45724
-0.338523,0,0,15.3385,15.3385,14.6615,14.6615,1.12841,2.58323,10.1779,-0.00408602,-0.105818,0.00708951,0,0,3.92,0.0525,-0.105,0.000854,-0.113216,-1.00443,-0.04088,0.0952,0.45724
-0.324863,0,0,15.3249,15.3249,14.6751,14.6751,1.08288,2.54363,10.2462,-0.0336455,0.0440932,-0.0565516,0,0,3.7275,0.3675,0.0175,-0.029524,0.037332,-1.06762,-0.04088,0.0952,0.45724
-0.311439,0,0,15.3114,15.3114,14.6886,14.6886,1.03813,2.50521,10.3147,-0.0329757,0.0433136,-0.0565076,0,0,3.6925,0.595,0.07,-0.029524,0.037332,-1.06762,-0.04088,0.0952,0.45724
-0.320102,0,0,15.3201,15.3201,14.6799,14.6799,1.06701,2.50573,10.3408,-0.00212729,-0.0268943,0.0166371,0,0,3.29,0.7175,0.07,0.001464,-0.033306,-0.995032,-0.04088,0.0952,0.45724
-0.32894,0,0,15.3289,15.3289,14.6711,14.6711,1.09647,2.50571,10.3667,-0.0021269,-0.0263807,0.0166274,0,0,3.92,0.42,-0.035,0.001464,-0.033306,-0.995032,-0.04088,0.0952,0.45724
-0.335572,0,0,15.3356,15.3356,14.6644,14.6644,1.11857,2.44766,10.4401,-0.0529891,-0.0203767,0.0177703,0,0,3.7625,0.4725,-0.035,-0.05063,-0.027694,-0.993934,-0.03808,0.09968,0.45318
-0.342245,0,0,15.3422,15.3422,14.6578,14.6578,1.14082,2.39033,10.5134,-0.0519894,-0.019988,0.0178049,0,0,4.06,0.245,0.0525,-0.05063,-0.027694,-0.993934,-0.03808,0.09968,0.45318
-0.307719,0,0,15.3077,15.3077,14.6923,14.6923,1.02573,2.31614,10.6176,-0.0640591,0.110758,-0.018005,0,0,4.06,0.2275,-0.21,-0.06405,0.10492,-1.02956,-0.03808,0.09968,0.45318
-0.273823,0,0,15.2738,15.2738,14.7262,14.7262,0.912743,2.24342,10.7221,-0.0627908,0.108789,-0.0179212,0,0,4.06,0.2275,-0.21,-0.06405,0.10492,-1.02956,-0.03808,0.09968,0.45318
-0.321387,0,0,15.3214,15.3214,14.6786,14.6786,1.07129,2.3302,10.6495,0.0744324,-0.150654,0.00311765,0,0,3.99,0,-0.245,0.075274,-0.157014,-1.00857,-0.03808,0.09968,0.45318
-0.25653,0,0,15.2565,15.2565,14.7435,14.7435,0.8551,2.25095,10.7708,-0.0675386,0.216232,-0.0453284,0,0,3.78,0.2625,-0.28,-0.068686,0.213256,-1.05676,-0.03808,0.09968,0.45318
-0.263258,0,0,15.2633,15.2633,14.7367,14.7367,0.877526,2.33054,10.7199,0.0660439,-0.0181052,0.0524772,0,0,3.92,-0.1225,-0.2625,0.066856,-0.021228,-0.959652,-0.03808,0.09968,0.45318
-0.263528,0,0,15.2635,15.2635,14.7365,14.7365,0.878427,2.33716,10.7377,0.00688644,-0.000381213,-0.0157641,0,0,3.9375,0.0175,-0.4025,0.007564,-0.003538,-1.02736,-0.03808,0.09968,0.45318
-0.244354,0,0,15.2444,15.2444,14.7556,14.7556,0.814515,2.34307,10.776,0.00775532,0.0599341,0.00810012,0,0,3.5,0.0525,-0.7175,0.00854,0.057828,-1.00369,-0.03794,0.09086,0.45556
-0.251615,0,0,15.2516,15.2516,14.7484,14.7484,0.838718,2.30743,10.8445,-0.0328069,-0.0237889,-0.0476994,0,0,4.235,0.0875,-0.6475,-0.032818,-0.02623,-1.05908,-0.03794,0.09086,0.45556
-0.258214,0,0,15.2582,15.2582,14.7418,14.7418,0.860712,2.27272,10.913,-0.0322016,-0.023405,-0.0476808,0,0,3.2375,0.245,-0.5075,-0.032818,-0.02623,-1.05908,-0.03794,0.09086,0.45556
-0.306286,0,0,15.3063,15.3063,14.6937,14.6937,1.02095,2.25922,10.9471,-0.0196961,-0.148722,0.0262976,0,0,3.7275,-0.0175,-0.5425,-0.020496,-0.154208,-0.985638,-0.03794,0.09086,0.45556
-0.353179,0,0,15.3532,15.3532,14.6468,14.6468,1.17726,2.24568,10.9813,-0.01946,-0.145996,0.0262546,0,0,3.15,-0.0875,-0.3675,-0.020496,-0.154208,-0.985638,-0.03794,0.09086,0.45556
-0.35301,0,0,15.353,15.353,14.647,14.647,1.1767,2.24523,10.9808,-0.0543185,0.0275364,0.111581,1,0,3.255,-0.14,-0.6825,-0.05551,0.019154,-0.90097,-0.03794,0.09086,0.45556
-0.353141,0,0,15.3531,15.3531,14.6469,14.6469,1.17714,2.24493,10.9803,-0.0543132,0.027544,0.111581,1,0,3.815,-0.0525,-0.6825,-0.05551,0.019154,-0.90097,-0.03794,0.09086,0.45556
-0.317449,0,0,15.3174,15.3174,14.6826,14.6826,1.05816,2.24922,11.0266,0.00635489,0.107661,0.0550626,0,0,3.4825,0.14,-0.63,0.00549,0.10126,-0.95709,-0.03794,0.09086,0.45556
-0.282632,0,0,15.2826,15.2826,14.7174,14.7174,0.942106,2.25367,11.0716,0.00627719,0.105637,0.0550949,0,0,3.9025,0.21,-0.7525,0.00549,0.10126,-0.95709,-0.04144,0.09156,0.45024
-0.241628,0,0,15.2416,15.2416,14.7584,14.7584,0.805426,2.24261,11.1332,-0.00434223,0.129145,0.00632827,0,0,3.535,0.14,-0.735,-0.005368,0.127124,-1.00552,-0.04144,0.09156,0.45024
-0.201225,0,0,15.2012,15.2012,14.7988,14.7988,0.67075,2.23221,11.1957,-0.00416076,0.126796,0.00636561,0,0,3.255,0.35,-0.3675,-0.005368,0.127124,-1.00552,-0.04144,0.09156,0.45024
-0.172733,0,0,15.1727,15.1727,14.8273,14.8273,0.575777,2.16119,11.3109,-0.0606278,0.088258,0.00876716,0,0,3.3775,0.455,-0.385,-0.063318,0.09028,-1.00321,-0.04144,0.09156,0.45024
-0.14465,0,0,15.1447,15.1447,14.8553,14.8553,0.482167,2.09128,11.4264,-0.0594086,0.0866259,0.0088275,0,0,3.1675,0.28,-0.3675,-0.063318,0.09028,-1.00321,-0.04144,0.09156,0.45024
-0.138017,0,0,15.138,15.138,14.862,14.862,0.460058,2.1305,11.434,0.0368531,0.0207801,-0.0025058,0,0,3.22,0.14,-0.5075,0.034038,0.024888,-1.01443,-0.04144,0.09156,0.45024
-0.131609,0,0,15.1316,15.1316,14.8684,14.8684,0.438697,2.16877,11.4419,0.0361856,0.0204074,-0.00252793,0,0,3.4125,0.0175,-0.35,0.034038,0.024888,-1.01443,-0.04144,0.09156,0.45024
-0.141305,0,0,15.1413,15.1413,14.8587,14.8587,0.471016,2.34006,11.3193,0.16744,-0.0315444,-0.0492475,0,0,3.5525,-0.105,-0.21,0.168848,-0.027572,-1.06067,-0.04144,0.09156,0.45024
-0.150526,0,0,15.1505,15.1505,14.8495,14.8495,0.501754,2.50774,11.2006,0.164516,-0.0310095,-0.0493758,0,0,3.0625,-0.07,-0.2275,0.168848,-0.027572,-1.06067,-0.0392,0.08974,0.4459
-0.163136,0,0,15.1631,15.1631,14.8369,14.8369,0.543788,2.47808,11.262,-0.0275217,-0.0449316,-0.0836626,0,0,3.2025,0.0525,-0.2275,-0.024522,-0.042212,-1.09471,-0.0392,0.08974,0.4459
-0.175387,0,0,15.1754,15.1754,14.8246,14.8246,0.584624,2.44895,11.3233,-0.0270137,-0.0442194,-0.0836478,0,0,2.9575,0.0525,-0.1925,-0.024522,-0.042212,-1.09471,-0.0392,0.08974,0.4459
-0.175124,0,0,15.1751,15.1751,14.8249,14.8249,0.583748,2.44875,11.3235,-0.0482703,0.0842427,0.114054,1,0,3.0625,0.0175,-0.245,-0.045872,0.086132,-0.89853,-0.0392,0.08974,0.4459
-0.174779,0,0,15.1748,15.1748,14.8252,14.8252,0.582596,2.44912,11.3239,-0.0482767,0.0842226,0.114054,1,0,2.905,0.35,-0.175,-0.045872,0.086132,-0.89853,-0.0392,0.08974,0.4459
-0.16593,0,0,15.1659,15.1659,14.8341,14.8341,0.553101,2.29983,11.5046,-0.136423,0.0254549,-0.00890475,0,0,2.905,0.2275,-0.175,-0.137006,0.027938,-1.02065,-0.0392,0.08974,0.4459
-0.157347,0,0,15.1573,15.1573,14.8427,14.8427,0.52449,2.15362,11.685,-0.133873,0.0249569,-0.00880091,0,0,3.0975,0.3675,-0.245,-0.137006,0.027938,-1.02065,-0.0392,0.08974,0.4459
-0.14287,0,0,15.1429,15.1429,14.8571,14.8571,0.476233,2.28342,11.6135,0.129188,0.0475629,-0.0424462,0,0,2.66,0.175,-0.175,0.129442,0.051362,-1.05396,-0.0392,0.08974,0.4459
-0.129082,0,0,15.1291,15.1291,14.8709,14.8709,0.430275,2.41171,11.5384,0.126951,0.0467607,-0.0425316,0,0,3.36,0.1225,-0.0525,0.129442,0.051362,-1.05396,-0.0441,0.09142,0.45108
-0.113544,0,0,15.1135,15.1135,14.8865,14.8865,0.37848,2.49198,11.5066,0.0848533,0.053429,-0.0805762,0,0,3.3075,0.3675,-0.105,0.088572,0.058926,-1.09166,-0.0441,0.09142,0.45108
-0.0981109,0,0,15.0981,15.0981,14.9019,14.9019,0.327036,2.57061,11.4746,0.0834822,0.0525317,-0.0806313,0,0,2.9925,0.28,-0.175,0.088572,0.058926,-1.09166,-0.0441,0.09142,0.45108
-0.0371611,0,0,15.0372,15.0372,14.9628,14.9628,0.12387,2.49567,11.5998,-0.061237,0.195297,9.46568e-05,0,0,3.3075,0,-0.2275,-0.058072,0.205082,-1.01162,-0.0441,0.09142,0.45108
0.023002,0,0,14.977,14.977,15.023,15.023,-0.0766733,2.42187,11.7255,-0.05995,0.1918,0.000151362,0,0,2.7475,-0.21,-0.315,-0.058072,0.205082,-1.01162,-0.0441,0.09142,0.45108
0.0238641,0,0,14.9761,14.9761,15.0239,15.0239,-0.0795469,2.46529,11.7225,0.0342946,0.00257603,0.0727815,0,0,3.4125,-0.07,-0.2975,0.037332,0.016104,-0.939522,-0.0441,0.09142,0.45108
0.0247994,0,0,14.9752,14.9752,15.0248,15.0248,-0.0826646,2.50838,11.7192,0.0335433,0.00252172,0.0727488,0,0,3.255,0.21,-0.4025,0.037332,0.016104,-0.939522,-0.0441,0.09142,0.45108
0.00837397,0,0,14.9916,14.9916,15.0084,15.0084,-0.0279132,2.61031,11.653,0.0982187,-0.0541674,-0.0406882,0,0,3.36,-0.14,-0.42,0.104066,-0.04148,-1.05201,-0.0441,0.09142,0.45108
-0.00792174,0,0,15.0079,15.0079,14.9921,14.9921,0.0264058,2.70955,11.5817,0.0964886,-0.0532204,-0.0407686,0,0,3.815,0.07,-0.4725,0.104066,-0.04148,-1.05201,-0.0392,0.09478,0.45794
-0.0480448,0,0,15.048,15.048,14.952,14.952,0.160149,2.67229,11.6267,-0.0388045,-0.128561,0.0011836,0,0,3.6225,0.0175,-0.525,-0.032452,-0.119072,-1.0104,-0.0392,0.09478,0.45794
-0.0874716,0,0,15.0875,15.0875,14.9125,14.9125,0.291572,2.6359,11.6713,-0.03817,-0.12627,0.00120398,0,0,3.675,0.175,-0.595,-0.032452,-0.119072,-1.0104,-0.0392,0.09478,0.45794
-0.0819707,0,0,15.082,15.082,14.918,14.918,0.273236,2.61739,11.7176,-0.0163442,0.0176422,-0.0120581,0,0,3.675,0.2975,-0.6475,-0.010858,0.02501,-1.02358,-0.0392,0.09478,0.45794
-0.0766868,0,0,15.0767,15.0767,14.9233,14.9233,0.255623,2.59878,11.7643,-0.0160197,0.0173352,-0.0120419,0,0,3.885,0.035,-0.4725,-0.010858,0.02501,-1.02358,-0.0392,0.09478,0.45794
-0.0652536,0,0,15.0653,15.0653,14.9347,14.9347,0.217512,2.69516,11.7064,0.0844693,0.0357222,0.0471444,0,0,3.4475,0.0875,-0.3675,0.091744,0.044042,-0.964776,-0.0392,0.09478,0.45794
-0.0541753,0,0,15.0542,15.0542,14.9458,14.9458,0.180584,2.78965,11.6483,0.0828221,0.0350782,0.0470677,0,0,3.745,0.0175,-0.525,0.091744,0.044042,-0.964776,-0.0392,0.09478,0.45794
-0.0581275,0,0,15.0581,15.0581,14.9419,14.9419,0.193758,2.68464,11.7692,-0.0979403,-0.0131762,-0.0123526,0,0,3.92,0.1225,-0.6125,-0.091622,-0.004392,-1.02382,-0.0392,0.09478,0.45794
-0.0619178,0,0,15.0619,15.0619,14.9381,14.9381,0.206393,2.58205,11.8898,-0.0961516,-0.0129556,-0.0122711,0,0,3.745,0.385,-0.6125,-0.091622,-0.004392,-1.02382,-0.0392,0.09478,0.45794
-0.0918141,0,0,15.0918,15.0918,14.9082,14.9082,0.306047,2.64401,11.8394,0.0558401,-0.096585,-0.0134347,0,0,3.7975,0.245,-0.595,0.062098,-0.08967,-1.02492,-0.0413,0.0994,0.45668
-0.121235,0,0,15.1212,15.1212,14.8788,14.8788,0.404118,2.70478,11.7891,0.0547807,-0.0948755,-0.0134948,0,0,3.92,0.2625,-0.6475,0.062098,-0.08967,-1.02492,-0.0413,0.0994,0.45668
-0.123903,0,0,15.1239,15.1239,14.8761,14.8761,0.41301,2.81869,11.7007,0.10394,-0.00678992,0.00497352,0,0,3.955,0.56,-0.4025,0.11346,-0.00183,-1.0065,-0.0413,0.0994,0.45668
-0.126717,0,0,15.1267,15.1267,14.8733,14.8733,0.42239,2.93007,11.6127,0.101999,-0.00662714,0.00487485,0,0,4.3225,0.3325,-0.1925,0.11346,-0.00183,-1.0065,-0.0413,0.0994,0.45668
-0.107577,0,0,15.1076,15.1076,14.8924,14.8924,0.358589,2.79196,11.7634,-0.123501,0.0590649,0.0311908,0,0,4.095,0.21,-0.1925,-0.115412,0.064904,-0.980514,-0.0413,0.0994,0.45668
-0.0886509,0,0,15.0887,15.0887,14.9113,14.9113,0.295503,2.65646,11.914,-0.121139,0.0579657,0.0313094,0,0,3.85,0.21,-0.315,-0.115412,0.064904,-0.980514,-0.0413,0.0994,0.45668
-0.0655826,0,0,15.0656,15.0656,14.9344,14.9344,0.218609,2.36987,12.2094,-0.254514,0.068228,0.0650997,0,0,3.885,0.35,-0.2275,-0.25437,0.076494,-0.947208,-0.0413,0.0994,0.45668
-0.0428483,0,0,15.0428,15.0428,14.9572,14.9572,0.142828,2.08825,12.5053,-0.249602,0.066907,0.0652951,0,0,3.745,0.1925,-0.0525,-0.25437,0.076494,-0.947208,-0.0413,0.0994,0.45668
-0.0959519,0,0,15.096,15.096,14.904,14.904,0.31984,2.24811,12.3751,0.151549,-0.180732,-0.044493,0,0,3.6575,0.315,-0.0175,0.15128,-0.173972,-1.05603,-0.0406,0.09142,0.4571
-0.0894363,0,0,15.0894,15.0894,14.9106,14.9106,0.298121,2.26774,12.3985,0.0197597,0.0218634,-0.0108166,0,0,3.955,0.1225,0.105,0.019276,0.028792,-1.0226,-0.0406,0.09142,0.4571
-0.0834456,0,0,15.0834,15.0834,14.9166,14.9166,0.278152,2.31331,12.3967,0.0425333,0.0204158,0.0114071,0,0,4.13,-0.1225,-0.105,0.042944,0.027694,-1.00052,-0.0406,0.09142,0.4571
-0.0999232,0,0,15.0999,15.0999,14.9001,14.9001,0.333077,2.47141,12.2801,0.140488,-0.0488499,0.0299749,0,0,4.4275,0.1925,-0.14,0.144082,-0.042456,-0.981978,-0.0406,0.09142,0.4571
-0.0861448,0,0,15.0861,15.0861,14.9139,14.9139,0.287149,2.39445,12.3923,-0.0705271,0.0462191,-0.048036,0,0,4.235,0.175,-0.035,-0.069174,0.053314,-1.05945,-0.0406,0.09142,0.4571
-0.0789234,0,0,15.0789,15.0789,14.9211,14.9211,0.263078,2.49771,12.3356,0.0937432,0.024671,0.023691,0,0,4.095,0.28,-0.0875,0.0976,0.032208,-0.9882,-0.0406,0.09142,0.4571
-0.0928175,0,0,15.0928,15.0928,14.9072,14.9072,0.309392,2.49416,12.3677,-0.00459831,-0.045477,-0.0293011,0,0,3.78,0.49,-0.28,-0.00122,-0.038674,-1.04078,-0.0406,0.09142,0.4571
-0.109243,0,0,15.1092,15.1092,14.8908,14.8908,0.364144,2.39596,12.4855,-0.0982522,-0.0595435,-0.0959946,0,0,3.465,0.2625,-0.3325,-0.09699,-0.05368,-1.10703,-0.0406,0.09142,0.4571
-0.101449,0,0,15.1014,15.1014,14.8986,14.8986,0.338164,2.43303,12.4952,0.0385016,0.0258584,-0.0440119,0,0,3.43,0.49,-0.3675,0.040992,0.032086,-1.05542,-0.03752,0.08806,0.46158
-0.123953,0,0,15.124,15.124,14.876,14.876,0.413178,2.3388,12.6135,-0.0920315,-0.0734655,-0.0144444,0,0,3.9375,0.2275,-0.315,-0.091744,-0.068442,-1.02614,-0.03752,0.08806,0.46158
-0.146133,0,0,15.1461,15.1461,14.8539,14.8539,0.48711,2.24583,12.7308,-0.0904102,-0.0721757,-0.0143896,0,0,4.095,-0.0175,-0.6125,-0.091744,-0.068442,-1.02614,-0.03752,0.08806,0.46158
-0.150623,0,0,15.1506,15.1506,14.8494,14.8494,0.502078,2.37962,12.6458,0.114025,-0.011707,0.066414,0,0,3.6575,0.0175,-0.735,0.1159,-0.008296,-0.945866,-0.03752,0.08806,0.46158
-0.155134,0,0,15.1551,15.1551,14.8449,14.8449,0.517113,2.511,12.5613,0.111734,-0.0114457,0.0663139,0,0,3.85,0.07,-0.4375,0.1159,-0.008296,-0.945866,-0.03752,0.08806,0.46158
-0.148241,0,0,15.1482,15.1482,14.8518,14.8518,0.494136,2.59358,12.5245,0.0842966,0.0238141,-0.04772,0,0,3.675,-0.0525,-0.595,0.089792,0.027328,-1.05896,-0.03752,0.08806,0.46158
-0.141411,0,0,15.1414,15.1414,14.8586,14.8586,0.47137,2.67499,12.4877,0.0828772,0.0234167,-0.047782,0,0,3.57,0.1575,-0.56,0.089792,0.027328,-1.05896,-0.03752,0.08806,0.46158
-0.130966,0,0,15.131,15.131,14.869,14.869,0.436552,2.58623,12.6097,-0.0784876,0.0301378,0.0790538,0,0,3.3425,0.35,-0.6125,-0.07381,0.034648,-0.933178,-0.03752,0.08806,0.46158
-0.120886,0,0,15.1209,15.1209,14.8791,14.8791,0.402954,2.4984,12.7303,-0.0769562,0.0295525,0.0791261,0,0,3.71,0.0525,-0.8575,-0.07381,0.034648,-0.933178,-0.0392,0.08876,0.45626
-0.0993838,0,0,15.0994,15.0994,14.9006,14.9006,0.331279,2.60353,12.6783,0.0977294,0.0687262,0.0277829,0,0,3.5525,0.14,-0.8225,0.103456,0.07503,-0.984052,-0.0392,0.08876,0.45626
-0.0784029,0,0,15.0784,15.0784,14.9216,14.9216,0.261343,2.70698,12.6265,0.0959258,0.0675065,0.0277056,0,0,3.815,0.2625,-0.595,0.103456,0.07503,-0.984052,-0.0392,0.08876,0.45626
-0.0509536,0,0,15.051,15.051,14.949,14.949,0.169845,2.75323,12.6289,0.0525997,0.0941225,-0.0542106,0,0,3.85,-0.07,-0.5075,0.060756,0.103212,-1.0653,-0.0392,0.08876,0.45626
-0.0236411,0,0,15.0236,15.0236,14.9764,14.9764,0.0788037,2.79837,12.631,0.0518126,0.0925353,-0.0542453,0,0,3.2025,-0.245,-0.6825,0.060756,0.103212,-1.0653,-0.0392,0.08876,0.45626
-0.0544188,0,0,15.0544,15.0544,14.9456,14.9456,0.181396,2.69672,12.7447,-0.0990013,-0.100468,-0.00326362,0,0,3.57,-0.21,-0.63,-0.092476,-0.091378,-1.0148,-0.0392,0.08876,0.45626
-0.084559,0,0,15.0846,15.0846,14.9154,14.9154,0.281863,2.59722,12.8581,-0.0972665,-0.0987162,-0.0031905,0,0,3.395,0,-0.455,-0.092476,-0.091378,-1.0148,-0.0392,0.08876,0.45626
-0.0916237,0,0,15.0916,15.0916,14.9084,14.9084,0.305412,2.60626,12.8825,0.00705358,-0.0222207,0.00675906,0,0,3.64,0.14,-0.35,0.012444,-0.015372,-1.00491,-0.0392,0.08876,0.45626
-0.0985232,0,0,15.0985,15.0985,14.9015,14.9015,0.328411,2.61522,12.9047,0.00689736,-0.0218197,0.00674972,0,0,3.57,0.21,-0.2975,0.012444,-0.015372,-1.00491,-0.0413,0.08988,0.45864
-0.116907,0,0,15.1169,15.1169,14.8831,14.8831,0.389689,2.67061,12.8788,0.0510028,-0.0606871,-0.0236698,0,0,3.3075,0.3675,-0.21,0.057706,-0.055266,-1.03505,-0.0413,0.08988,0.45864
-0.135047,0,0,15.135,15.135,14.865,14.865,0.450156,2.72471,12.8532,0.0500597,-0.0596333,-0.023722,0,0,3.465,0.245,-0.0175,0.057706,-0.055266,-1.03505,-0.0413,0.08988,0.45864
-0.159655,0,0,15.1597,15.1597,14.8403,14.8403,0.532183,2.72362,12.8751,-0.00531887,-0.0779879,0.0154872,0,0,3.4825,0.42,0.0525,0.002074,-0.07503,-0.99613,-0.0413,0.08988,0.45864
-0.18378,0,0,15.1838,15.1838,14.8162,14.8162,0.612601,2.72231,12.8965,-0.00529601,-0.0765859,0.0154743,0,0,3.4125,0.315,-0.105,0.002074,-0.07503,-0.99613,-0.0413,0.08988,0.45864
-0.221525,0,0,15.2215,15.2215,14.7785,14.7785,0.738415,2.73029,12.9025,0.00100361,-0.118603,0.0300727,0,0,3.2725,0.14,-0.105,0.00854,-0.119194,-0.981612,-0.0413,0.08988,0.45864
-0.25856,0,0,15.2586,15.2586,14.7414,14.7414,0.861865,2.73776,12.9086,0.000873336,-0.116451,0.0300364,0,0,3.2025,0,0,0.00854,-0.119194,-0.981612,-0.0413,0.08988,0.45864
-0.235006,0,0,15.235,15.235,14.765,14.765,0.783355,2.78945,12.9007,0.0492955,0.0746518,0.0177177,0,0,2.9925,0,-0.0525,0.058072,0.073078,-0.993812,-0.0413,0.08988,0.45864
-0.212243,0,0,15.2122,15.2122,14.7878,14.7878,0.707476,2.84106,12.8927,0.0483959,0.0733286,0.0176907,0,0,3.6925,0.49,-0.105,0.058072,0.073078,-0.993812,-0.0413,0.08988,0.45864
-0.182421,0,0,15.1824,15.1824,14.8176,14.8176,0.608068,2.79352,12.9701,-0.0418897,0.0911366,0.0548818,0,0,3.605,0.2625,-0.035,-0.033428,0.092598,-0.956968,-0.04032,0.0959,0.45556
-0.153232,0,0,15.1532,15.1532,14.8468,14.8468,0.510774,2.7472,13.0475,-0.0410823,0.0894409,0.0549374,0,0,3.7975,0.4375,-0.14,-0.033428,0.092598,-0.956968,-0.04032,0.0959,0.45556
-0.151818,0,0,15.1518,15.1518,14.8482,14.8482,0.506058,2.7879,13.0327,0.0381459,0.00594582,-0.00915229,0,0,4.095,0.5425,-0.14,0.046848,0.009272,-1.02053,-0.04032,0.0959,0.45556
-0.150414,0,0,15.1504,15.1504,14.8496,14.8496,0.501379,2.827,13.0177,0.0374642,0.00586395,-0.009185,0,0,4.0775,0.0525,-0.245,0.046848,0.009272,-1.02053,-0.04032,0.0959,0.45556
-0.143749,0,0,15.1437,15.1437,14.8563,14.8563,0.479165,2.904,12.9695,0.0781561,0.0239173,-0.0455187,0,0,4.0075,0.175,-0.4025,0.08906,0.027694,-1.05652,-0.04032,0.0959,0.45556
-0.136884,0,0,15.1369,15.1369,14.8631,14.8631,0.45628,2.97913,12.9209,0.0768466,0.0235179,-0.0455827,0,0,3.43,-0.0875,-0.595,0.08906,0.027694,-1.05652,-0.04032,0.0959,0.45556
-0.150143,0,0,15.1501,15.1501,14.8499,14.8499,0.500477,2.92964,12.9771,-0.0469353,-0.0433696,-0.00534046,0,0,3.71,0.0175,-0.5075,-0.036112,-0.039894,-1.01663,-0.04032,0.0959,0.45556
-0.162966,0,0,15.163,15.163,14.837,14.837,0.543221,2.88118,13.0328,-0.0460906,-0.0426242,-0.00530438,0,0,3.3425,0.0875,-0.665,-0.036112,-0.039894,-1.01663,-0.04032,0.0959,0.45556
-0.162822,0,0,15.1628,15.1628,14.8372,14.8372,0.54274,2.88144,13.0322,-0.06857,0.00450833,-0.143499,1,0,3.3075,0.28,-0.77,-0.058682,0.007198,-1.15375,-0.03976,0.09884,0.45878
-0.161976,0,0,15.162,15.162,14.838,14.838,0.539918,2.84826,13.0767,-0.030574,0.00189476,-0.0384712,0,0,3.4825,0.455,-0.84,-0.021106,0.004636,-1.04957,-0.03976,0.09884,0.45878
-0.184708,0,0,15.1847,15.1847,14.8153,14.8153,0.615694,2.92041,13.012,0.0669363,-0.0742134,-0.00842551,0,0,3.5175,0.0525,-0.875,0.07808,-0.072712,-1.01968,-0.03976,0.09884,0.45878
-0.178666,0,0,15.1787,15.1787,14.8213,14.8213,0.595553,2.99002,12.9628,0.0713113,0.0211822,-0.050164,0,0,3.7275,0.1925,-0.91,0.083692,0.022936,-1.06103,-0.03976,0.09884,0.45878
-0.152698,0,0,15.1527,15.1527,14.8473,14.8473,0.508992,2.83986,13.1252,-0.138914,0.0828143,-0.00292689,0,0,3.5875,0.1575,-0.8575,-0.130052,0.08601,-1.01431,-0.03976,0.09884,0.45878
-0.141161,0,0,15.1412,15.1412,14.8588,14.8588,0.470536,2.92998,13.0615,0.0921599,0.0395211,-0.0493519,0,0,3.2725,0.2275,-0.7875,0.103578,0.043432,-1.0603,-0.03976,0.09884,0.45878
-0.129746,0,0,15.1297,15.1297,14.8703,14.8703,0.432487,3.01837,12.9973,0.0906194,0.0388573,-0.0494267,0,0,3.15,0.175,-1.12,0.103578,0.043432,-1.0603,-0.03976,0.09884,0.45878
-0.176439,0,0,15.1764,15.1764,14.8236,14.8236,0.588129,3.0249,12.9783,0.00376486,-0.156886,-0.0165067,0,0,3.0625,0.07,-1.05,0.01647,-0.154818,-1.02761,-0.03976,0.09884,0.45878
-0.222532,0,0,15.2225,15.2225,14.7775,14.7775,0.741774,3.03282,12.9656,0.00362679,-0.154209,-0.0165451,0,0,3.3425,0.4025,-0.8925,0.01647,-0.154818,-1.02761,-0.04214,0.09492,0.45416
-0.215772,0,0,15.2158,15.2158,14.7842,14.7842,0.719241,3.05844,12.9612,0.018609,0.0215052,0.0729427,0,0,3.57,0.175,-0.7525,0.031964,0.021106,-0.93879,-0.04214,0.09492,0.45416
-0.209177,0,0,15.2092,15.2092,14.7908,14.7908,0.697255,3.08394,12.9573,0.0181645,0.0211218,0.0729236,0,0,3.64,0.385,-0.4375,0.031964,0.021106,-0.93879,-0.04214,0.09492,0.45416
-0.190281,0,0,15.1903,15.1903,14.8097,14.8097,0.634271,3.04725,13.0158,-0.0314912,0.0633795,-0.0622728,0,0,3.3425,0.3675,-0.49,-0.018544,0.064416,-1.07299,-0.04214,0.09492,0.45416
-0.171776,0,0,15.1718,15.1718,14.8282,14.8282,0.572586,3.01079,13.0746,-0.0308557,0.0623048,-0.0622278,0,0,3.43,0.0875,-0.315,-0.018544,0.064416,-1.07299,-0.04214,0.09492,0.45416
-0.207053,0,0,15.2071,15.2071,14.7929,14.7929,0.690176,3.02972,13.058,0.0116988,-0.111264,0.0358451,0,0,3.0975,0.3325,-0.175,0.024522,-0.11102,-0.975634,-0.04214,0.09492,0.45416
-0.241753,0,0,15.2418,15.2418,14.7582,14.7582,0.805842,3.04804,13.0416,0.0113796,-0.109249,0.0358018,0,0,3.185,0.2275,-0.1225,0.024522,-0.11102,-0.975634,-0.04214,0.09492,0.45416
-0.273206,0,0,15.2732,15.2732,14.7268,14.7268,0.910688,3.056,13.036,0.00516658,-0.104979,-0.0180844,0,0,3.395,0.42,0,0.018422,-0.10858,-1.02907,-0.04214,0.09492,0.45416
-0.304094,0,0,15.3041,15.3041,14.6959,14.6959,1.01365,3.06348,13.029,0.00503623,-0.103185,-0.0181215,0,0,3.4125,0.385,-0.0525,0.018422,-0.10858,-1.02907,-0.04102,0.09562,0.46116
-0.316294,0,0,15.3163,15.3163,14.6837,14.6837,1.05431,2.96946,13.1231,-0.0883269,-0.0408009,-0.0047695,0,0,3.7625,0.21,0.0175,-0.076982,-0.04697,-1.01589,-0.04102,0.09562,0.46116
-0.328231,0,0,15.3282,15.3282,14.6718,14.6718,1.0941,2.87717,13.2174,-0.0867183,-0.0401059,-0.00470037,0,0,3.6575,0.21,0.28,-0.076982,-0.04697,-1.01589,-0.04102,0.09562,0.46116
-0.348868,0,0,15.3489,15.3489,14.6511,14.6511,1.16289,2.74319,13.3465,-0.128604,-0.0715126,-0.0229287,0,0,3.4475,0.3675,0.245,-0.12139,-0.079544,-1.03407,-0.04102,0.09562,0.46116
-0.369127,0,0,15.3691,15.3691,14.6309,14.6309,1.23042,2.61134,13.475,-0.126305,-0.0703333,-0.0228458,0,0,3.4125,0.175,0.2975,-0.12139,-0.079544,-1.03407,-0.04102,0.09562,0.46116
-0.343067,0,0,15.3431,15.3431,14.6569,14.6569,1.14356,2.73832,13.3933,0.128667,0.0894799,-0.0404995,0,0,3.0975,0.1575,0.3325,0.136884,0.081618,-1.05152,-0.04102,0.09562,0.46116
-0.317487,0,0,15.3175,15.3175,14.6825,14.6825,1.05829,2.86318,13.3113,0.12649,0.0879917,-0.0405774,0,0,3.1675,0.2625,0.2975,0.136884,0.081618,-1.05152,-0.04102,0.09562,0.46116
-0.323566,0,0,15.3236,15.3236,14.6764,14.6764,1.07855,2.93842,13.2574,0.0763412,-0.0219368,-0.0609369,0,0,3.1325,0.4725,0.2625,0.08784,-0.028548,-1.07165,-0.04102,0.09562,0.46116
-0.329658,0,0,15.3297,15.3297,14.6703,14.6703,1.09886,3.01169,13.2076,0.0750641,-0.0215842,-0.06101,0,0,3.3775,0.105,-0.14,0.08784,-0.028548,-1.07165,-0.04074,0.09268,0.45766
-0.33691,0,0,15.3369,15.3369,14.6631,14.6631,1.12303,2.87197,13.3508,-0.123316,-0.0217712,0.0945139,0,0,3.3075,0.42,-0.0875,-0.113826,-0.029158,-0.91744,-0.04074,0.09268,0.45766
-0.343974,0,0,15.344,15.344,14.656,14.656,1.14658,2.7344,13.493,-0.120918,-0.0213584,0.0946231,0,0,3.2025,0.1575,-0.4025,-0.113826,-0.029158,-0.91744,-0.04074,0.09268,0.45766
-0.304482,0,0,15.3045,15.3045,14.6955,14.6955,1.01494,2.59912,13.6578,-0.127064,0.134992,-0.0698518,0,0,3.71,0.0175,-0.56,-0.122366,0.12932,-1.0808,-0.04074,0.09268,0.45766
-0.265589,0,0,15.2656,15.2656,14.7344,14.7344,0.885295,2.46674,13.8234,-0.124756,0.132733,-0.0697122,0,0,3.5175,0.2275,-0.4725,-0.122366,0.12932,-1.0808,-0.04074,0.09268,0.45766
-0.241279,0,0,15.2413,15.2413,14.7587,14.7587,0.804265,2.54268,13.7939,0.0755867,0.0817361,-0.00938158,0,0,3.92,0.105,-0.56,0.080154,0.079788,-1.0209,-0.04074,0.09268,0.45766
-0.217273,0,0,15.2173,15.2173,14.7827,14.7827,0.724243,2.61739,13.7638,0.074284,0.0803402,-0.00942166,0,0,3.71,0.175,-0.8575,0.080154,0.079788,-1.0209,-0.04074,0.09268,0.45766
-0.271317,0,0,15.2713,15.2713,14.7287,14.7287,0.904389,2.64814,13.7328,0.0273404,-0.191671,-0.0693669,0,0,3.78,0.105,-0.9275,0.03355,-0.195078,-1.08031,-0.04074,0.09268,0.45766
-0.324258,0,0,15.3243,15.3243,14.6757,14.6757,1.08086,2.67844,13.7016,0.0268122,-0.188595,-0.0694447,0,0,3.5,0.2625,-1.1025,0.03355,-0.195078,-1.08031,-0.04074,0.09268,0.45766
-0.338025,0,0,15.338,15.338,14.662,14.662,1.12675,2.58966,13.7908,-0.0845001,-0.0474705,-0.0146769,0,0,3.4125,0.14,-1.19,-0.079788,-0.0549,-1.02602,-0.0399,0.09716,0.45122
-0.351724,0,0,15.3517,15.3517,14.6483,14.6483,1.17241,2.50196,13.8798,-0.0829711,-0.0466731,-0.0146249,0,0,3.7275,-0.175,-1.1375,-0.079788,-0.0549,-1.02602,-0.0399,0.09716,0.45122
-0.371066,0,0,15.3711,15.3711,14.6289,14.6289,1.23689,2.36693,14.0092,-0.122651,-0.0606907,0.0573765,0,0,3.4475,-0.175,-1.3475,-0.122,-0.070028,-0.95465,-0.0399,0.09716,0.45122
-0.390281,0,0,15.3903,15.3903,14.6097,14.6097,1.30094,2.23479,14.1379,-0.120346,-0.059572,0.0574443,0,0,3.8325,0.07,-1.33,-0.122,-0.070028,-0.95465,-0.0399,0.09716,0.45122
-0.388204,0,0,15.3882,15.3882,14.6118,14.6118,1.29401,2.41317,13.9986,0.160334,0.00955033,0.0420752,0,0,3.3425,-0.0525,-1.2775,0.162992,-0.000854,-0.969778,-0.0399,0.09716,0.45122
-0.386282,0,0,15.3863,15.3863,14.6137,14.6137,1.28761,2.58853,13.8593,0.157276,0.00943564,0.0419442,0,0,3.605,0.0875,-1.26,0.162992,-0.000854,-0.969778,-0.0399,0.09716,0.45122
-0.342467,0,0,15.3425,15.3425,14.6575,14.6575,1.14156,2.58539,13.9021,0.00061429,0.141229,0.0202388,0,0,3.57,0.07,-0.98,0.005612,0.133346,-0.991372,-0.0399,0.09716,0.45122
-0.299416,0,0,15.2994,15.2994,14.7006,14.7006,0.998055,2.58236,13.9452,0.000667088,0.138728,0.0202879,0,0,3.57,0.07,-0.98,0.005612,0.133346,-0.991372,-0.0399,0.09716,0.45122
-0.274302,0,0,15.2743,15.2743,14.7257,14.7257,0.914341,2.43911,14.1109,-0.131563,0.0810917,-0.00207785,0,0,4.0425,-0.1225,-0.525,-0.129686,0.077226,-1.0137,-0.03864,0.09506,0.4578
-0.28646,0,0,15.2865,15.2865,14.7135,14.7135,0.954866,2.5296,14.0456,0.0794594,-0.0365437,0.0368169,0,0,3.675,-0.035,-0.4375,0.083814,-0.040992,-0.975024,-0.03864,0.09506,0.4578
-0.298564,0,0,15.2986,15.2986,14.7014,14.7014,0.995213,2.61835,13.9804,0.0779119,-0.0358415,0.0367353,0,0,3.99,-0.0525,-0.4725,0.083814,-0.040992,-0.975024,-0.03864,0.09506,0.4578
-0.286302,0,0,15.2863,15.2863,14.7137,14.7137,0.954341,2.37072,14.2343,-0.22768,0.0363588,0.0350913,0,0,3.71,0.175,-0.2625,-0.227408,0.031842,-0.976854,-0.03864,0.09506,0.4578
-0.274404,0,0,15.2744,15.2744,14.7256,14.7256,0.91468,2.12792,14.4884,-0.223446,0.0356699,0.0352689,0,0,3.9725,0.3675,-0.0175,-0.227408,0.031842,-0.976854,-0.03864,0.09506,0.4578
-0.269192,0,0,15.2692,15.2692,14.7308,14.7308,0.897305,2.14002,14.5103,0.00971715,0.0169257,0.0444869,0,0,3.465,0.21,-0.0525,0.006954,0.01342,-0.967704,-0.03864,0.09506,0.4578
-0.264104,0,0,15.2641,15.2641,14.7359,14.7359,0.880348,2.15193,14.5326,0.00950938,0.0166298,0.0444838,0,0,3.5175,0.2275,0.245,0.006954,0.01342,-0.967704,-0.03864,0.09506,0.4578
-0.224699,0,0,15.2247,15.2247,14.7753,14.7753,0.748995,2.26582,14.4812,0.11358,0.132801,0.000915954,0,0,3.9725,0.4025,0.385,0.11346,0.13176,-1.01089,-0.03864,0.09506,0.4578
-0.186021,0,0,15.186,15.186,14.814,14.814,0.620069,2.37798,14.4318,0.111624,0.130552,0.000863508,0,0,4.0075,0.315,0.3675,0.11346,0.13176,-1.01089,-0.04494,0.09268,0.45962
-0.163975,0,0,15.164,15.164,14.836,14.836,0.546582,2.27336,14.5686,-0.0948994,0.0713832,-0.00175422,0,0,4.0425,0.0175,0.28,-0.09577,0.073932,-1.01358,-0.04494,0.09268,0.45962
-0.142118,0,0,15.1421,15.1421,14.8579,14.8579,0.473728,2.17137,14.7058,-0.0931207,0.0701133,-0.00167388,0,0,3.6575,0.4025,0.4375,-0.09577,0.073932,-1.01358,-0.04494,0.09268,0.45962
-0.150168,0,0,15.1502,15.1502,14.8498,14.8498,0.500561,2.30341,14.6151,0.134913,-0.0263882,-0.0696354,0,0,3.92,0.49,0.385,0.135542,-0.022936,-1.08092,-0.04494,0.09268,0.45962
-0.157879,0,0,15.1579,15.1579,14.8421,14.8421,0.526263,2.43313,14.5246,0.132651,-0.0259408,-0.069733,0,0,3.57,0.56,0.385,0.135542,-0.022936,-1.08092,-0.04494,0.09268,0.45962
-0.159686,0,0,15.1597,15.1597,14.8403,14.8403,0.532286,2.50077,14.4918,0.0630755,-0.00519688,-0.00363845,0,0,3.4475,0.56,0.3325,0.066856,-0.002318,-1.01528,-0.04494,0.09268,0.45962
-0.161639,0,0,15.1616,15.1616,14.8384,14.8384,0.538796,2.56684,14.4587,0.0619236,-0.00508384,-0.00369049,0,0,3.7975,0.3675,0.1575,0.066856,-0.002318,-1.01528,-0.04494,0.09268,0.45962
-0.159653,0,0,15.1597,15.1597,14.8403,14.8403,0.532175,2.35901,14.6755,-0.181312,0.00432806,0.101956,0,0,3.85,0.525,0.035,-0.181048,0.007198,-0.910608,-0.04494,0.09268,0.45962
-0.157745,0,0,15.1577,15.1577,14.8423,14.8423,0.525818,2.15353,14.8893,-0.177728,0.0042185,0.102098,0,0,4.0775,0.2625,-0.1225,-0.181048,0.007198,-0.910608,-0.04858,0.09352,0.4613
-0.157932,0,0,15.1579,15.1579,14.8421,14.8421,0.526441,2.1539,14.8896,0.077507,0.000565553,-0.0989227,1,0,3.9025,0.35,-0.2275,0.075274,0.003538,-1.11008,-0.04858,0.09352,0.4613
-0.157939,0,0,15.1579,15.1579,14.8421,14.8421,0.526463,2.15371,14.8898,0.0775104,0.000565945,-0.0989225,1,0,3.57,0.0175,-0.3325,0.075274,0.003538,-1.11008,-0.04858,0.09352,0.4613
-0.192039,0,0,15.192,15.192,14.808,14.808,0.640129,2.20099,14.8572,0.0447351,-0.118968,-0.0663927,0,0,3.955,0.1225,-0.4025,0.043188,-0.117852,-1.07775,-0.04858,0.09352,0.4613
-0.225457,0,0,15.2255,15.2255,14.7745,14.7745,0.751522,2.24687,14.8244,0.0439349,-0.117026,-0.0664474,0,0,3.815,-0.1225,-0.5775,0.043188,-0.117852,-1.07775,-0.04858,0.09352,0.4613
-0.272705,0,0,15.2727,15.2727,14.7273,14.7273,0.909017,2.23557,14.8337,-0.0161249,-0.160565,-0.0262753,0,0,3.885,-0.2275,-0.595,-0.017324,-0.16409,-1.03785,-0.04858,0.09352,0.4613
-0.318942,0,0,15.3189,15.3189,14.6811,14.6811,1.06314,2.22511,14.8423,-0.0159426,-0.157878,-0.0263145,0,0,3.5525,0.2275,-0.945,-0.017324,-0.16409,-1.03785,-0.04858,0.09352,0.4613
-0.355513,0,0,15.3555,15.3555,14.6445,14.6445,1.18504,2.17097,14.8948,-0.0560604,-0.123022,-0.00664818,0,0,3.3075,0.2625,-1.015,-0.05856,-0.131394,-1.01833,-0.04858,0.09352,0.4613
-0.391612,0,0,15.3916,15.3916,14.6084,14.6084,1.30537,2.1186,14.9508,-0.0551471,-0.120923,-0.00665959,0,0,3.5175,0.35,-1.1375,-0.05856,-0.131394,-1.01833,-0.04214,0.09156,0.46536
-0.353857,0,0,15.3539,15.3539,14.6461,14.6461,1.17952,1.9703,15.1354,-0.130554,0.116864,0.0360205,0,0,2.8875,0.21,-1.2425,-0.136884,0.108336,-0.976122,-0.04214,0.09156,0.46536
-0.317261,0,0,15.3173,15.3173,14.6827,14.6827,1.05754,1.82429,15.3203,-0.128007,0.114738,0.0361464,0,0,3.815,-0.0875,-1.295,-0.136884,0.108336,-0.976122,-0.04214,0.09156,0.46536
-0.260853,0,0,15.2609,15.2609,14.7391,14.7391,0.86951,1.84437,15.37,0.0242284,0.173987,0.0797141,0,0,3.8325,-0.2275,-1.2075,0.016348,0.1708,-0.932934,-0.04214,0.09156,0.46536
-0.205429,0,0,15.2054,15.2054,14.7946,14.7946,0.684764,1.8646,15.4201,0.0238756,0.170765,0.0797464,0,0,3.85,0,-1.12,0.016348,0.1708,-0.932934,-0.04214,0.09156,0.46536
-0.202508,0,0,15.2025,15.2025,14.7975,14.7975,0.675026,1.93711,15.3921,0.0737562,0.0115852,-0.0406601,0,0,4.13,-0.1225,-0.98,0.06771,0.011956,-1.05237,-0.04214,0.09156,0.46536
-0.203349,0,0,15.2033,15.2033,14.7967,14.7967,0.67783,2.07736,15.2988,0.129137,-0.00021319,0.0306866,0,0,3.7275,-0.1925,-0.91,0.125782,0.000122,-0.98149,-0.04214,0.09156,0.46536
-0.204121,0,0,15.2041,15.2041,14.7959,14.7959,0.680402,2.21547,15.2061,0.126728,-0.000169395,0.0305958,0,0,3.64,0.0525,-0.595,0.125782,0.000122,-0.98149,-0.04214,0.09156,0.46536
-0.245432,0,0,15.2454,15.2454,14.7546,14.7546,0.818107,2.3339,15.105,0.103889,-0.133452,0.0302365,0,0,2.7475,-0.0175,-0.5425,0.10492,-0.13542,-0.981734,-0.0392,0.09156,0.46396
-0.286379,0,0,15.2864,15.2864,14.7136,14.7136,0.954597,2.45045,15.0043,0.101857,-0.131073,0.0301148,0,0,3.43,0.21,-0.665,0.10492,-0.13542,-0.981734,-0.0392,0.09156,0.46396
-0.270624,0,0,15.2706,15.2706,14.7294,14.7294,0.902079,2.48701,15.0079,0.0391398,0.0526661,-0.0376425,0,0,3.045,0.42,-0.5425,0.042578,0.049044,-1.04896,-0.0392,0.09156,0.46396
-0.255489,0,0,15.2555,15.2555,14.7445,14.7445,0.851631,2.52242,15.0115,0.0385223,0.0517861,-0.037656,0,0,3.6925,0.1225,-0.49,0.042578,0.049044,-1.04896,-0.0392,0.09156,0.46396
-0.256639,0,0,15.2566,15.2566,14.7434,14.7434,0.855464,2.46558,15.0976,-0.054152,-0.00505744,-0.0140078,0,0,3.255,0.315,4.235,-0.051484,-0.007808,-1.02553,-0.0392,0.09156,0.46396
-0.257702,0,0,15.2577,15.2577,14.7423,14.7423,0.859007,2.41012,15.1767,-0.0531849,-0.00499507,-0.0139675,0,0,3.29,0.455,0.2625,-0.051484,-0.007808,-1.02553,-0.0392,0.09156,0.46396
-0.21514,0,0,15.2151,15.2151,14.7849,14.7849,0.717134,2.35727,15.28,-0.0452172,0.144213,-0.03578,0,0,3.5,0.42,0.35,-0.044408,0.143716,-1.04725,-0.0392,0.09156,0.46396
-0.173318,0,0,15.1733,15.1733,14.8267,14.8267,0.577726,2.30546,15.3836,-0.0443137,0.141783,-0.0357157,0,0,3.5,0.42,0.35,-0.044408,0.143716,-1.04725,-0.0392,0.09156,0.46396
-0.187916,0,0,15.1879,15.1879,14.8121,14.8121,0.626387,2.3872,15.3301,0.0701583,-0.0448341,0.0414286,0,0,3.3775,0.315,0.28,0.07198,-0.043554,-0.970632,-0.04676,0.09282,0.46214
-0.211185,0,0,15.2112,15.2112,14.7888,14.7888,0.70395,2.22027,15.4938,-0.15095,-0.0729127,0.0900947,0,0,2.835,0.4025,0.2975,-0.152988,-0.072956,-0.922442,-0.04676,0.09282,0.46214
-0.234111,0,0,15.2341,15.2341,14.7659,14.7659,0.78037,2.05612,15.6564,-0.148087,-0.0715786,0.0901843,0,0,2.94,0.28,0.1925,-0.152988,-0.072956,-0.922442,-0.04676,0.09282,0.46214
-0.204489,0,0,15.2045,15.2045,14.7955,14.7955,0.681629,1.94974,15.8023,-0.0921707,0.0886401,0.0677716,0,0,2.7825,0.49,0.2975,-0.098698,0.088816,-0.944768,-0.04676,0.09282,0.46214
-0.17573,0,0,15.1757,15.1757,14.8243,14.8243,0.585766,1.84466,15.9489,-0.0903376,0.0869687,0.0678508,0,0,3.4125,0.07,0.595,-0.098698,0.088816,-0.944768,-0.04676,0.09282,0.46214
-0.175711,0,0,15.1757,15.1757,14.8243,14.8243,0.585703,1.84458,15.9503,0.17839,0.0525279,-0.113006,1,0,3.5,0.0875,0.385,0.171166,0.054412,-1.12423,-0.04676,0.09282,0.46214
-0.175942,0,0,15.1759,15.1759,14.8241,14.8241,0.586472,1.84473,15.9513,0.178388,0.0525413,-0.113007,1,0,3.9725,0.2275,0.21,0.171166,0.054412,-1.12423,-0.04676,0.09282,0.46214
-0.19923,0,0,15.1992,15.1992,14.8008,14.8008,0.664099,1.83445,15.9816,-0.0138664,-0.0738492,0.0179245,0,0,4.27,0.1925,0.21,-0.022082,-0.0732,-0.9943,-0.04676,0.09282,0.46214
-0.221681,0,0,15.2217,15.2217,14.7783,14.7783,0.738936,1.82352,16.0037,-0.0136758,-0.0725437,0.0179146,0,0,3.57,0.07,-0.105,-0.022082,-0.0732,-0.9943,-0.04648,0.098,0.4578
-0.240037,0,0,15.24,15.24,14.76,14.76,0.800122,1.83457,16.0083,0.0096996,-0.063294,-0.0417359,0,0,3.5875,0,-0.2625,0.001586,-0.065026,-1.05347,-0.04648,0.098,0.4578
-0.257728,0,0,15.2577,15.2577,14.7423,14.7423,0.859094,1.84528,16.0124,0.00951275,-0.0622655,-0.0417568,0,0,2.9575,-0.0525,-0.5075,0.001586,-0.065026,-1.05347,-0.04648,0.098,0.4578
-0.255293,0,0,15.2553,15.2553,14.7447,14.7447,0.850976,1.92898,15.9643,0.0714683,0.00891421,0.0688509,0,0,2.9925,0.0875,-0.49,0.06527,0.006222,-0.94367,-0.04648,0.098,0.4578
-0.253212,0,0,15.2532,15.2532,14.7468,14.7468,0.844039,2.01157,15.9156,0.0700276,0.00879249,0.0688031,0,0,3.605,0.3325,-0.875,0.06527,0.006222,-0.94367,-0.04648,0.098,0.4578
-0.265834,0,0,15.2658,15.2658,14.7342,14.7342,0.886112,2.00656,15.9342,-0.00593504,-0.0439652,-0.0296866,0,0,3.255,0.3675,-1.015,-0.011102,-0.047214,-1.04139,-0.04648,0.098,0.4578
-0.278618,0,0,15.2786,15.2786,14.7214,14.7214,0.928725,2.0012,15.9525,-0.00584145,-0.043222,-0.0296951,0,0,3.9725,0.1225,-1.0675,-0.011102,-0.047214,-1.04139,-0.04648,0.098,0.4578
-0.257775,0,0,15.2578,15.2578,14.7422,14.7422,0.859251,2.16454,15.8415,0.162847,0.074272,-0.0195751,0,0,3.7625,0.1225,-1.0675,0.161162,0.07137,-1.03127,-0.04648,0.098,0.4578
-0.237201,0,0,15.2372,15.2372,14.7628,14.7628,0.790671,2.32298,15.7424,0.160084,0.0730746,-0.0196661,0,0,3.885,-0.07,-1.085,0.161162,0.07137,-1.03127,-0.04312,0.0903,0.45822
-0.166801,0,0,15.1668,15.1668,14.8332,14.8332,0.556002,2.18362,15.9402,-0.127472,0.243625,-0.032432,0,0,3.99,-0.07,-1.1725,-0.130052,0.24583,-1.04408,-0.04312,0.0903,0.45822
-0.0973664,0,0,15.0974,15.0974,14.9026,14.9026,0.324555,2.04699,16.1396,-0.125089,0.239589,-0.032313,0,0,3.5525,0.035,-0.8925,-0.130052,0.24583,-1.04408,-0.04312,0.0903,0.45822
-0.0869784,0,0,15.087,15.087,14.913,14.913,0.289928,2.06639,16.1645,0.0192624,0.0345445,0.0269393,0,0,4.095,-0.1925,-0.8925,0.01525,0.041602,-0.985272,-0.04312,0.0903,0.45822
-0.0764441,0,0,15.0764,15.0764,14.9236,14.9236,0.254814,2.08568,16.1894,0.018926,0.033932,0.02693,0,0,3.4825,-0.07,-0.84,0.01525,0.041602,-0.985272,-0.04312,0.0903,0.45822
-0.0766189,0,0,15.0766,15.0766,14.9234,14.9234,0.255396,2.08552,16.1886,0.0495432,-0.0412879,-0.111879,1,0,3.9025,0.035,-0.8575,0.045994,-0.03355,-1.12301,-0.04312,0.0903,0.45822
-0.0767086,0,0,15.0767,15.0767,14.9233,14.9233,0.255695,2.08595,16.1886,0.0495356,-0.0412827,-0.111879,1,0,3.7275,0.385,-0.4025,0.045994,-0.03355,-1.12301,-0.04312,0.0903,0.45822
-0.0924545,0,0,15.0925,15.0925,14.9075,14.9075,0.308182,2.11349,16.1904,0.021235,-0.048672,0.0394484,0,0,3.9025,0.2275,-0.455,0.018056,-0.041846,-0.972828,-0.04312,0.0903,0.45822
-0.107924,0,0,15.1079,15.1079,14.8921,14.8921,0.359745,2.14049,16.1921,0.0207642,-0.0477728,0.0394257,0,0,3.9025,0.2275,-0.455,0.018056,-0.041846,-0.972828,-0.04312,0.0903,0.45822
-0.107991,0,0,15.108,15.108,14.892,14.892,0.359968,2.14065,16.1926,-0.000134201,0.0267284,0.121801,1,0,3.675,0.2275,-0.1225,-0.002928,0.032574,-0.891088,-0.04466,0.0917,0.46102
-0.0852645,0,0,15.0853,15.0853,14.9147,14.9147,0.284215,2.18077,16.2037,0.0422934,0.0762118,-0.0015353,0,0,3.7275,-0.035,-0.0525,0.040382,0.083326,-1.01345,-0.04466,0.0917,0.46102
-0.0628798,0,0,15.0629,15.0629,14.9371,14.9371,0.209599,2.22067,16.2153,0.0415975,0.0749104,-0.00155643,0,0,3.6225,0.2275,0.21,0.040382,0.083326,-1.01345,-0.04466,0.0917,0.46102
-0.00513604,0,0,15.0051,15.0051,14.9949,14.9949,0.0171201,2.27651,16.2343,0.0623697,0.194047,0.0108298,0,0,3.885,0.105,0.28,0.06222,0.205692,-1.00113,-0.04466,0.0917,0.46102
0.0519766,0,0,14.948,14.948,15.052,15.052,-0.173255,2.33212,16.2531,0.0613999,0.190727,0.0107862,0,0,3.2375,0.49,0.175,0.06222,0.205692,-1.00113,-0.04466,0.0917,0.46102
0.0373041,0,0,14.9627,14.9627,15.0373,15.0373,-0.124347,2.16834,16.4265,-0.169847,-0.0549945,-0.0698765,0,0,3.2725,0.4375,0.455,-0.172874,-0.040626,-1.08129,-0.04466,0.0917,0.46102
0.0228979,0,0,14.9771,14.9771,15.0229,15.0229,-0.0763264,2.00749,16.5992,-0.167041,-0.0541572,-0.0697727,0,0,3.2375,0.4725,0.5075,-0.172874,-0.040626,-1.08129,-0.04466,0.0917,0.46102
0.0188252,0,0,14.9812,14.9812,15.0188,15.0188,-0.0627507,2.13046,16.522,0.127725,-0.0133742,-0.060137,0,0,3.1675,0.2625,0.315,0.125294,-0.000122,-1.07165,-0.04466,0.0917,0.46102
0.0146896,0,0,14.9853,14.9853,15.0147,15.0147,-0.0489655,2.25092,16.4396,0.125624,-0.0131337,-0.0602171,0,0,3.465,0.1925,0.2975,0.125294,-0.000122,-1.07165,-0.04382,0.09534,0.46018
-0.0229482,0,0,15.0229,15.0229,14.9771,14.9771,0.0764939,2.38067,16.3243,0.129314,-0.131485,-0.0461701,0,0,3.3425,0.1925,0.385,0.131272,-0.120536,-1.05762,-0.04382,0.09534,0.46018
-0.0600613,0,0,15.0601,15.0601,14.9399,14.9399,0.200204,2.50744,16.2088,0.127104,-0.129328,-0.0462697,0,0,3.605,-0.14,-0.0525,0.131272,-0.120536,-1.05762,-0.04382,0.09534,0.46018
-0.0873521,0,0,15.0874,15.0874,14.9126,14.9126,0.291174,2.41019,16.3011,-0.0983789,-0.0957442,-0.0315728,0,0,3.3075,0.0875,-0.21,-0.096868,-0.088572,-1.0431,-0.04382,0.09534,0.46018
-0.11425,0,0,15.1142,15.1142,14.8858,14.8858,0.380832,2.3146,16.3929,-0.0967119,-0.0941803,-0.0315132,0,0,3.4475,0.07,-0.21,-0.096868,-0.088572,-1.0431,-0.04382,0.09534,0.46018
-0.0872369,0,0,15.0872,15.0872,14.9128,14.9128,0.29079,2.31024,16.4391,-0.00151254,0.0876838,0.0218588,0,0,3.535,0.07,-0.35,-0.001342,0.094672,-0.990152,-0.04382,0.09534,0.46018
-0.0605949,0,0,15.0606,15.0606,14.9394,14.9394,0.201983,2.30622,16.4851,-0.00144239,0.0861351,0.0218682,0,0,3.36,0.1925,-0.5425,-0.001342,0.094672,-0.990152,-0.04382,0.09534,0.46018
-0.0766306,0,0,15.0766,15.0766,14.9234,14.9234,0.255435,2.3922,16.4203,0.0898733,-0.0556991,-0.0694248,0,0,3.85,-0.1225,-0.7525,0.091866,-0.047946,-1.08068,-0.04382,0.09534,0.46018
-0.0921642,0,0,15.0922,15.0922,14.9078,14.9078,0.307214,2.47755,16.3542,0.088385,-0.0547966,-0.0694925,0,0,3.43,0.35,-0.9625,0.091866,-0.047946,-1.08068,-0.04522,0.0959,0.45906
-0.102124,0,0,15.1021,15.1021,14.8979,14.8979,0.340415,2.43498,16.4062,-0.0421987,-0.0329674,0.0156164,0,0,3.6225,0.385,-0.945,-0.040016,-0.026718,-0.996252,-0.04522,0.0959,0.45906
-0.111877,0,0,15.1119,15.1119,14.8881,14.8881,0.372925,2.39301,16.4574,-0.0414669,-0.0324003,0.0156438,0,0,3.57,0.2975,-1.3475,-0.040016,-0.026718,-0.996252,-0.04522,0.0959,0.45906
-0.176098,0,0,15.1761,15.1761,14.8239,14.8239,0.586993,2.39376,16.4331,-0.00734254,-0.218575,-0.00110905,0,0,3.535,0.14,-1.225,-0.005734,-0.216428,-1.01284,-0.04522,0.0959,0.45906
-0.239226,0,0,15.2392,15.2392,14.7608,14.7608,0.79742,2.39431,16.4088,-0.00735203,-0.214905,-0.00115378,0,0,3.535,0.14,-1.225,-0.005734,-0.216428,-1.01284,-0.04522,0.0959,0.45906
-0.242324,0,0,15.2423,15.2423,14.7577,14.7577,0.807745,2.27246,16.5342,-0.112985,-0.0116274,0.0419622,0,0,3.4825,0.175,-1.19,-0.113948,-0.013542,-0.970144,-0.04522,0.0959,0.45906
-0.245377,0,0,15.2454,15.2454,14.7546,14.7546,0.817922,2.15281,16.6593,-0.110898,-0.0114488,0.0420403,0,0,3.4825,0.175,-1.19,-0.113948,-0.013542,-0.970144,-0.04522,0.0959,0.45906
-0.291094,0,0,15.2911,15.2911,14.7089,14.7089,0.970314,2.24356,16.5679,0.078373,-0.14875,0.0271843,0,0,3.395,0,-1.2775,0.077714,-0.153354,-0.984784,-0.04522,0.0959,0.45906
-0.336022,0,0,15.336,15.336,14.664,14.664,1.12007,2.33262,16.472,0.0768198,-0.146139,0.0270746,0,0,3.395,0,-1.2775,0.077714,-0.153354,-0.984784,-0.04984,0.09856,0.4592
-0.312054,0,0,15.3121,15.3121,14.6879,14.6879,1.04018,2.29102,16.545,-0.04309,0.0817,-0.0413522,0,0,3.885,4.165,-0.7525,-0.043432,0.07564,-1.05274,-0.04984,0.09856,0.4592
-0.288504,0,0,15.2885,15.2885,14.7115,14.7115,0.961681,2.25024,16.6181,-0.0423787,0.0803317,-0.0413,0,0,3.885,4.165,-0.7525,-0.043432,0.07564,-1.05274,-0.04984,0.09856,0.4592
-0.303752,0,0,15.3038,15.3038,14.6962,14.6962,1.01251,2.31155,16.5693,0.0571422,-0.0489699,-0.00914538,0,0,4.2875,0.105,-0.3325,0.057584,-0.054412,-1.02077,-0.04984,0.09856,0.4592
-0.31873,0,0,15.3187,15.3187,14.6813,14.6813,1.06243,2.37171,16.5207,0.0560931,-0.0481002,-0.00920404,0,0,4.2875,0.105,-0.3325,0.057584,-0.054412,-1.02077,-0.04984,0.09856,0.4592
-0.303483,0,0,15.3035,15.3035,14.6965,14.6965,1.01161,2.35814,16.551,-0.00161904,0.053234,-0.0615543,0,0,3.885,-4.235,0.1225,-0.00061,0.047702,-1.07275,-0.04984,0.09856,0.4592
-0.2885,0,0,15.2885,15.2885,14.7115,14.7115,0.961666,2.34485,16.5814,-0.00138719,0.0523633,-0.0615298,0,0,3.885,-4.235,0.1225,-0.00061,0.047702,-1.07275,-0.04984,0.09856,0.4592
-0.329255,0,0,15.3293,15.3293,14.6707,14.6707,1.09752,2.37023,16.5467,0.0155426,-0.127359,0.061235,0,0,3.4125,0.315,0.5425,0.016836,-0.1342,-0.950868,-0.04984,0.09856,0.4592
-0.305767,0,0,15.3058,15.3058,14.6942,14.6942,1.01922,2.26234,16.6803,-0.0990806,0.0759614,0.0103127,0,0,3.745,0.0525,0.5425,-0.100162,0.070272,-1.0015,-0.04228,0.0959,0.45374
-0.282653,0,0,15.2827,15.2827,14.7173,14.7173,0.942177,2.15668,16.8139,-0.0972379,0.0746191,0.0104068,0,0,3.675,0.1925,0.525,-0.100162,0.070272,-1.0015,-0.04228,0.0959,0.45374
-0.254445,0,0,15.2544,15.2544,14.7456,14.7456,0.848149,2.06842,16.9382,-0.0808773,0.0932532,-0.00647774,0,0,3.7625,0.1575,0.77,-0.085278,0.090524,-1.01833,-0.04228,0.0959,0.45374
-0.226725,0,0,15.2267,15.2267,14.7733,14.7733,0.755752,1.98181,17.0626,-0.0793666,0.0916425,-0.00640177,0,0,3.7625,0.1575,0.77,-0.085278,0.090524,-1.01833,-0.04228,0.0959,0.45374
-0.19794,0,0,15.1979,15.1979,14.8021,14.8021,0.659801,2.15559,16.9549,0.165919,0.0982723,0.0386315,0,0,4.06,0.385,0.28,0.16409,0.09882,-0.97356,-0.04228,0.0959,0.45374
-0.169623,0,0,15.1696,15.1696,14.8304,14.8304,0.565409,2.32638,16.8469,0.162941,0.096625,0.0385326,0,0,4.06,0.385,0.28,0.16409,0.09882,-0.97356,-0.04228,0.0959,0.45374
-0.179347,0,0,15.1793,15.1793,14.8207,14.8207,0.597825,2.42946,16.7706,0.0908028,-0.029456,0.0546814,0,0,3.15,0.105,0.3325,0.093452,-0.027694,-0.957456,-0.04228,0.0959,0.45374
-0.188896,0,0,15.1889,15.1889,14.8111,14.8111,0.629654,2.53068,16.6943,0.0890379,-0.0289018,0.054599,0,0,3.15,0.105,0.3325,0.093452,-0.027694,-0.957456,-0.04228,0.0959,0.45374
-0.209486,0,0,15.2095,15.2095,14.7905,14.7905,0.698287,2.55272,16.6892,0.0201357,-0.0722817,-0.0386269,0,0,3.115,0.5075,-0.105,0.024644,-0.072224,-1.04993,-0.04032,0.0903,0.45724
-0.191693,0,0,15.1917,15.1917,14.8083,14.8083,0.638977,2.5816,16.7022,0.0248559,0.0565048,0.072631,0,0,3.7275,0.105,-0.1225,0.02989,0.057462,-0.939522,-0.04032,0.0903,0.45724
-0.174104,0,0,15.1741,15.1741,14.8259,14.8259,0.580345,2.61022,16.7147,0.0243569,0.0554823,0.0726193,0,0,3.5525,0.2275,-0.455,0.02989,0.057462,-0.939522,-0.04032,0.0903,0.45724
-0.146695,0,0,15.1467,15.1467,14.8533,14.8533,0.488985,2.5331,16.8288,-0.0699076,0.0874749,0.0351952,0,0,3.6925,0.1575,-0.7,-0.066124,0.091012,-0.976732,-0.04032,0.0903,0.45724
-0.119601,0,0,15.1196,15.1196,14.8804,14.8804,0.398669,2.45702,16.9428,-0.068581,0.0859006,0.0352652,0,0,3.395,-0.07,-0.875,-0.066124,0.091012,-0.976732,-0.04032,0.0903,0.45724
-0.119192,0,0,15.1192,15.1192,14.8808,14.8808,0.397307,2.52087,16.9136,0.0593235,0.00234178,0.0283319,0,0,3.5525,-0.07,-0.8575,0.06344,0.007564,-0.983564,-0.04032,0.0903,0.45724
-0.118521,0,0,15.1185,15.1185,14.8815,14.8815,0.395071,2.58418,16.8842,0.0582196,0.00230245,0.0282829,0,0,3.0625,0.28,-0.945,0.06344,0.007564,-0.983564,-0.04032,0.0903,0.45724
-0.13475,0,0,15.1348,15.1348,14.8652,14.8652,0.449168,2.55326,16.9277,-0.0312623,-0.0591609,-0.069075,0,0,3.395,0.1225,-1.0325,-0.026962,-0.054778,-1.08019,-0.04032,0.0903,0.45724
-0.150701,0,0,15.1507,15.1507,14.8493,14.8493,0.502336,2.52318,16.9686,-0.0307378,-0.0582337,-0.0690595,0,0,3.43,0.4025,-1.1725,-0.026962,-0.054778,-1.08019,-0.04186,0.0917,0.45262
-0.179073,0,0,15.1791,15.1791,14.8209,14.8209,0.596912,2.67004,16.8409,0.153425,-0.102383,-0.0705438,0,0,3.2725,0.1925,-1.1725,0.160552,-0.100528,-1.08153,-0.04186,0.0917,0.45262
-0.207124,0,0,15.2071,15.2071,14.7929,14.7929,0.690412,2.81385,16.7134,0.150918,-0.100755,-0.0706822,0,0,3.605,-0.0175,-1.26,0.160552,-0.100528,-1.08153,-0.04186,0.0917,0.45262
-0.214456,0,0,15.2145,15.2145,14.7855,14.7855,0.714854,2.79798,16.7417,-0.0170629,-0.0238774,0.0271931,0,0,3.5,0.1575,-1.3475,-0.008418,-0.024156,-0.984418,-0.04186,0.0917,0.45262
-0.221679,0,0,15.2217,15.2217,14.7783,14.7783,0.738929,2.78231,16.7702,-0.0167898,-0.0234575,0.0272011,0,0,3.5175,0.1225,-1.1025,-0.008418,-0.024156,-0.984418,-0.04186,0.0917,0.45262
-0.214486,0,0,15.2145,15.2145,14.7855,14.7855,0.714952,2.78625,16.7905,0.00853206,0.0244867,-0.0673443,0,0,3.4125,-0.0525,-1.19,0.01708,0.024156,-1.07824,-0.04186,0.0917,0.45262
-0.207612,0,0,15.2076,15.2076,14.7924,14.7924,0.692041,2.7901,16.8113,0.00846503,0.0240872,-0.0673427,0,0,3.7625,-0.07,-0.8575,0.01708,0.024156,-1.07824,-0.04186,0.0917,0.45262
-0.208589,0,0,15.2086,15.2086,14.7914,14.7914,0.695296,2.67129,16.9374,-0.113379,-0.00443247,0.00750809,0,0,3.99,-0.1575,-0.7,-0.10736,-0.004392,-1.00406,-0.04186,0.0917,0.45262
-0.20927,0,0,15.2093,15.2093,14.7907,14.7907,0.697568,2.55499,17.0568,-0.111352,-0.00439173,0.00760014,0,0,3.4475,0.0875,-0.455,-0.10736,-0.004392,-1.00406,-0.04172,0.09632,0.45458
-0.203178,0,0,15.2032,15.2032,14.7968,14.7968,0.677258,2.60159,17.0362,0.0384784,0.020534,0.0802304,0,0,3.6225,0,-0.42,0.04392,0.020862,-0.931958,-0.04172,0.09632,0.45458
-0.196882,0,0,15.1969,15.1969,14.8031,14.8031,0.656274,2.64756,17.0161,0.0376768,0.0201677,0.0801979,0,0,3.045,0.1225,-0.1575,0.04392,0.020862,-0.931958,-0.04172,0.09632,0.45458
-0.202584,0,0,15.2026,15.2026,14.7974,14.7974,0.675279,2.5597,17.1072,-0.0881084,-0.0238322,-0.077971,0,0,3.1675,0.035,-0.0875,-0.083936,-0.023424,-1.08897,-0.04172,0.09632,0.45458
-0.208273,0,0,15.2083,15.2083,14.7917,14.7917,0.694243,2.47422,17.1986,-0.0866179,-0.0235007,-0.0779095,0,0,3.3075,0.5075,0.14,-0.083936,-0.023424,-1.08897,-0.04172,0.09632,0.45458
-0.227375,0,0,15.2274,15.2274,14.7726,14.7726,0.757918,2.61712,17.0765,0.131751,-0.0611062,0.0273326,0,0,3.3075,0.665,0.245,0.13786,-0.062098,-0.984418,-0.04172,0.09632,0.45458
-0.246218,0,0,15.2462,15.2462,14.7538,14.7538,0.820726,2.75714,16.955,0.12931,-0.0600128,0.0272029,0,0,3.4475,0.49,0.4025,0.13786,-0.062098,-0.984418,-0.04172,0.09632,0.45458
-0.228296,0,0,15.2283,15.2283,14.7717,14.7717,0.760987,2.79861,16.9457,0.0379591,0.0586296,0.0387394,0,0,3.255,0.315,0.595,0.046848,0.057462,-0.97295,-0.04172,0.09632,0.45458
-0.210918,0,0,15.2109,15.2109,14.7891,14.7891,0.703059,2.83895,16.9362,0.0372559,0.0576194,0.0387177,0,0,3.71,0.07,0.4725,0.046848,0.057462,-0.97295,-0.04172,0.09632,0.45458
-0.179525,0,0,15.1795,15.1795,14.8205,14.8205,0.598417,2.84854,16.9677,0.0116982,0.10428,0.0167223,0,0,3.57,0.0875,0.6125,0.02135,0.105896,-0.994788,-0.04102,0.09352,0.45948
-0.17945,0,0,15.1794,15.1794,14.8206,14.8206,0.598167,2.84875,16.9692,-0.0914468,-0.0933258,0.112991,1,0,3.3775,0.2625,0.4725,-0.082228,-0.0915,-0.899262,-0.04102,0.09352,0.45948
-0.179466,0,0,15.1795,15.1795,14.8205,14.8205,0.598219,2.84944,16.9705,-0.0914588,-0.0933249,0.11299,1,0,3.5525,0.5425,0.3675,-0.082228,-0.0915,-0.899262,-0.04102,0.09352,0.45948
-0.166705,0,0,15.1667,15.1667,14.8333,14.8333,0.555684,2.81428,17.0306,-0.0336261,0.0422274,0.00950537,0,0,3.745,0.665,0.455,-0.024766,0.044652,-1.00199,-0.04102,0.09352,0.45948
-0.154333,0,0,15.1543,15.1543,14.8457,14.8457,0.514443,2.77951,17.0899,-0.03302,0.0415088,0.00954169,0,0,4.0775,0.5075,0.0175,-0.024766,0.044652,-1.00199,-0.04102,0.09352,0.45948
-0.16422,0,0,15.1642,15.1642,14.8358,14.8358,0.5474,2.84494,17.0432,0.0701955,-0.0348571,-0.0710509,0,0,3.78,0.35,-0.105,0.080032,-0.032208,-1.0819,-0.04102,0.09352,0.45948
-0.174066,0,0,15.1741,15.1741,14.8259,14.8259,0.580218,2.90881,16.9961,0.0690823,-0.0342856,-0.0711125,0,0,4.0425,0.1225,-0.4025,0.080032,-0.032208,-1.0819,-0.04102,0.09352,0.45948
-0.149284,0,0,15.1493,15.1493,14.8507,14.8507,0.497615,2.85805,17.0759,-0.0470237,0.0862796,-0.0460958,0,0,3.8325,0.4375,-0.4375,-0.037454,0.08967,-1.05713,-0.04102,0.09352,0.45948
-0.124715,0,0,15.1247,15.1247,14.8753,14.8753,0.415717,2.80687,17.1563,-0.0461314,0.0848524,-0.0460403,0,0,3.465,-0.28,-0.6825,-0.037454,0.08967,-1.05713,-0.04158,0.09282,0.45738
-0.131581,0,0,15.1316,15.1316,14.8684,14.8684,0.438603,2.83643,17.1431,0.0295248,-0.0231974,-0.0147168,0,0,3.5,-0.14,-0.8225,0.03904,-0.018666,-1.02602,-0.04158,0.09282,0.45738
-0.138393,0,0,15.1384,15.1384,14.8616,14.8616,0.461311,2.86569,17.1293,0.0290146,-0.0228018,-0.0147453,0,0,3.64,0,-1.1375,0.03904,-0.018666,-1.02602,-0.04158,0.09282,0.45738
-0.125076,0,0,15.1251,15.1251,14.8749,14.8749,0.416921,2.82283,17.1941,-0.039485,0.0464033,-0.0389231,0,0,4.1475,0.0175,-1.33,-0.0305,0.05124,-1.05005,-0.04158,0.09282,0.45738
-0.1119,0,0,15.1119,15.1119,14.8881,14.8881,0.373,2.78105,17.259,-0.0387567,0.045638,-0.0388822,0,0,3.9725,0.1925,-1.225,-0.0305,0.05124,-1.05005,-0.04158,0.09282,0.45738
-0.100946,0,0,15.1009,15.1009,14.8991,14.8991,0.336488,2.67707,17.3792,-0.0985373,0.0360867,0.0173956,0,0,4.445,-0.035,-1.3125,-0.092354,0.042334,-0.9943,-0.04158,0.09282,0.45738
-0.0899549,0,0,15.09,15.09,14.91,14.91,0.29985,2.57517,17.4994,-0.0967606,0.0354484,0.0174806,0,0,4.0075,0.0875,-1.2425,-0.092354,0.042334,-0.9943,-0.04158,0.09282,0.45738
-0.0996943,0,0,15.0997,15.0997,14.9003,14.9003,0.332314,2.68811,17.4127,0.104637,-0.0296903,0.0321408,0,0,3.885,0.2275,-1.0675,0.111874,-0.023302,-0.97966,-0.04158,0.09282,0.45738
-0.10893,0,0,15.1089,15.1089,14.8911,14.8911,0.363101,2.79907,17.3356,0.102703,-0.0291541,0.0320449,0,0,3.29,0.3325,-1.0325,0.111874,-0.023302,-0.97966,-0.03934,0.0868,0.45556
-0.134068,0,0,15.1341,15.1341,14.8659,14.8659,0.446894,2.97585,17.1858,0.163523,-0.0817968,0.0423297,0,0,2.765,0.315,-1.0325,0.176046,-0.077348,-0.96929,-0.03934,0.0868,0.45556
-0.159018,0,0,15.159,15.159,14.841,14.841,0.530059,3.14812,17.0369,0.160521,-0.0803488,0.0421568,0,0,3.22,-0.4725,-0.7875,0.176046,-0.077348,-0.96929,-0.03934,0.0868,0.45556
-0.153525,0,0,15.1535,15.1535,14.8465,14.8465,0.511751,3.07427,17.1291,-0.0692581,0.0161793,0.065344,0,0,3.255,-0.3325,-0.7175,-0.055998,0.019398,-0.946354,-0.03934,0.0868,0.45556
-0.148488,0,0,15.1485,15.1485,14.8515,14.8515,0.494959,3.00215,17.2219,-0.0680012,0.0158872,0.0654132,0,0,3.9025,-0.0875,-0.385,-0.055998,0.019398,-0.946354,-0.03934,0.0868,0.45556
-0.117676,0,0,15.1177,15.1177,14.8823,14.8823,0.392252,2.84203,17.4133,-0.15511,0.104472,-0.019019,0,0,4.13,0,-0.1925,-0.146278,0.109678,-1.03029,-0.03934,0.0868,0.45556
-0.0874386,0,0,15.0874,15.0874,14.9126,14.9126,0.291462,2.68485,17.6056,-0.152369,0.102716,-0.0188763,0,0,4.2,0.0525,0.14,-0.146278,0.109678,-1.03029,-0.03934,0.0868,0.45556
-0.111671,0,0,15.1117,15.1117,14.8883,14.8883,0.372238,2.87801,17.445,0.170817,-0.0733273,0.0847205,0,0,3.7975,-0.07,0.28,0.181658,-0.067588,-0.927322,-0.03934,0.0868,0.45556
-0.135353,0,0,15.1354,15.1354,14.8646,14.8646,0.451178,3.06904,17.2769,0.167487,-0.0719527,0.0845377,0,0,3.395,0.14,0.4375,0.181658,-0.067588,-0.927322,-0.04424,0.0917,0.45402
-0.135348,0,0,15.1353,15.1353,14.8647,14.8647,0.451161,3.0688,17.2785,0.0134474,0.260842,-0.0738198,1,0,3.5,0,0.5775,0.026962,0.264862,-1.08446,-0.04424,0.0917,0.45402
-0.135098,0,0,15.1351,15.1351,14.8649,14.8649,0.450326,3.06901,17.2801,0.0134437,0.260828,-0.0738198,1,0,3.045,0.2625,0.5075,0.026962,0.264862,-1.08446,-0.04424,0.0917,0.45402
-0.136507,0,0,15.1365,15.1365,14.8635,14.8635,0.455024,3.06998,17.2963,0.00370807,-0.00557084,-0.0601741,0,0,3.465,0.3325,0.6475,0.017202,-0.001342,-1.07092,-0.04424,0.0917,0.45402
-0.137931,0,0,15.1379,15.1379,14.8621,14.8621,0.459769,3.07107,17.3126,0.00368905,-0.00548815,-0.0601758,0,0,3.535,0.42,0.6825,0.017202,-0.001342,-1.07092,-0.04424,0.0917,0.45402
-0.163855,0,0,15.1639,15.1639,14.8361,14.8361,0.546184,3.1444,17.2463,0.0760315,-0.0915477,-0.0565699,0,0,3.955,0.105,0.63,0.091134,-0.088816,-1.06726,-0.04424,0.0917,0.45402
-0.189273,0,0,15.1893,15.1893,14.8107,14.8107,0.63091,3.21657,17.1799,0.0747737,-0.090072,-0.056655,0,0,3.85,0.2275,0.4725,0.091134,-0.088816,-1.06726,-0.04424,0.0917,0.45402
-0.186921,0,0,15.1869,15.1869,14.8131,14.8131,0.623072,3.25749,17.1594,0.0417454,0.00846938,-0.0217764,0,0,3.4475,0.2975,0.4375,0.058682,0.00976,-1.03261,-0.04424,0.0917,0.45402
-0.184573,0,0,15.1846,15.1846,14.8154,14.8154,0.615243,3.29726,17.1336,0.0410524,0.00833254,-0.0218147,0,0,3.465,0.245,0.07,0.058682,0.00976,-1.03261,-0.03724,0.09576,0.46298
-0.150402,0,0,15.1504,15.1504,14.8496,14.8496,0.50134,3.29711,17.1654,-0.000493066,0.110766,0.0468101,0,0,3.3775,0.07,-0.21,0.016958,0.11407,-0.964532,-0.03724,0.09576,0.46298
-0.116861,0,0,15.1169,15.1169,14.8831,14.8831,0.389536,3.29706,17.1966,-0.000492084,0.108818,0.0468253,0,0,3.5,0.105,-0.665,0.016958,0.11407,-0.964532,-0.03724,0.09576,0.46298
-0.106765,0,0,15.1068,15.1068,14.8932,14.8932,0.355883,3.25173,17.2527,-0.0439231,0.0325136,0.0273255,0,0,3.465,0.035,-0.665,-0.02745,0.03843,-0.98393,-0.03724,0.09576,0.46298
-0.0968663,0,0,15.0969,15.0969,14.9031,14.9031,0.322888,3.20758,17.3084,-0.0431537,0.0319389,0.0273723,0,0,3.5175,0.245,-0.875,-0.02745,0.03843,-0.98393,-0.03724,0.09576,0.46298
-0.0969728,0,0,15.097,15.097,14.903,14.903,0.323243,3.2079,17.3072,0.189729,0.0247396,-0.0745523,1,0,3.7975,0.315,-1.12,0.206424,0.031232,-1.08507,-0.03724,0.09576,0.46298
-0.0969742,0,0,15.097,15.097,14.903,14.903,0.323247,3.20798,17.3058,0.189727,0.0247397,-0.0745524,1,0,3.605,0.175,-1.19,0.206424,0.031232,-1.08507,-0.03724,0.09576,0.46298
-0.139157,0,0,15.1392,15.1392,14.8608,14.8608,0.463857,3.22508,17.2678,0.0181345,-0.152337,-0.057865,0,0,3.92,-0.0525,-1.2425,0.034404,-0.148108,-1.06848,-0.03724,0.09576,0.46298
-0.180275,0,0,15.1803,15.1803,14.8197,14.8197,0.600917,3.24232,17.2295,0.0178341,-0.149948,-0.0579042,0,0,3.2725,0.245,-1.4525,0.034404,-0.148108,-1.06848,-0.03724,0.09576,0.46298
-0.233795,0,0,15.2338,15.2338,14.7662,14.7662,0.779315,3.21382,17.2262,-0.0324501,-0.188973,-0.018816,0,0,3.2725,0.0175,-1.5575,-0.016592,-0.190198,-1.02968,-0.03864,0.09338,0.45962
-0.186345,0,0,15.1863,15.1863,14.8137,14.8137,0.621149,3.23995,17.2444,0.0289306,0.160117,0.0159865,0,0,3.4125,-0.105,-1.5575,0.045506,0.161284,-0.995154,-0.03864,0.09338,0.45962
-0.139589,0,0,15.1396,15.1396,14.8604,14.8604,0.465298,3.26581,17.2631,0.02848,0.157402,0.0159866,0,0,3.22,-0.0175,-1.365,0.045506,0.161284,-0.995154,-0.03864,0.09338,0.45962
-0.141046,0,0,15.141,15.141,14.859,14.859,0.470152,3.312,17.2299,0.04687,-0.00396572,-0.0140598,0,0,3.885,0.0525,-1.4175,0.064782,0,-1.02492,-0.03864,0.09338,0.45962
-0.142266,0,0,15.1423,15.1423,14.8577,14.8577,0.47422,3.35703,17.1971,0.0460853,-0.00389523,-0.0141061,0,0,3.4825,-0.14,-1.155,0.064782,0,-1.02492,-0.03864,0.09338,0.45962
-0.11636,0,0,15.1164,15.1164,14.8836,14.8836,0.387868,3.18908,17.3769,-0.156785,0.0814335,0.0629154,0,0,4.0425,-0.0175,-0.945,-0.141886,0.086742,-0.948672,-0.03864,0.09338,0.45962
-0.0909139,0,0,15.0909,15.0909,14.9091,14.9091,0.303046,3.02374,17.5571,-0.153903,0.0799563,0.0630807,0,0,4.06,-0.21,-0.8225,-0.141886,0.086742,-0.948672,-0.03864,0.09338,0.45962
-0.0716632,0,0,15.0717,15.0717,14.9283,14.9283,0.238877,2.73134,17.8517,-0.295683,0.0623518,-0.00501718,0,0,3.5175,0.0875,-0.5775,-0.289384,0.070272,-1.0165,-0.03864,0.09338,0.45962
-0.0523801,0,0,15.0524,15.0524,14.9476,14.9476,0.1746,2.44144,18.1502,-0.290628,0.061232,-0.00478482,0,0,3.29,0.0875,-0.28,-0.289384,0.070272,-1.0165,-0.0441,0.0896,0.4592
-0.0663338,0,0,15.0663,15.0663,14.9337,14.9337,0.221113,2.7607,17.8806,0.316093,-0.0438419,0.0418029,0,0,3.4475,0.105,-0.2275,0.325496,-0.035502,-0.970022,-0.0441,0.0896,0.4592
-0.0800936,0,0,15.0801,15.0801,14.9199,14.9199,0.266979,3.07451,17.6119,0.310623,-0.0430436,0.0415207,0,0,3.5525,0.0525,0.2275,0.325496,-0.035502,-0.970022,-0.0441,0.0896,0.4592
-0.0801592,0,0,15.0802,15.0802,14.9198,14.9198,0.267197,3.07458,17.6133,0.196061,-0.0298501,-0.0958128,1,0,3.64,0.175,0.42,0.21045,-0.022326,-1.1063,-0.0441,0.0896,0.4592
-0.0803532,0,0,15.0804,15.0804,14.9196,14.9196,0.267844,3.07459,17.6152,0.196061,-0.0298388,-0.0958129,1,0,3.8675,0.14,0.665,0.21045,-0.022326,-1.1063,-0.0441,0.0896,0.4592
-0.0792655,0,0,15.0793,15.0793,14.9207,14.9207,0.264218,2.92418,17.7732,-0.147309,0.00124096,0.00809328,0,0,3.57,0.56,0.8575,-0.137006,0.008784,-1.00333,-0.0441,0.0896,0.4592
-0.0782625,0,0,15.0783,15.0783,14.9217,14.9217,0.260875,2.77588,17.9312,-0.144724,0.00118327,0.00822224,0,0,3.675,0.245,1.015,-0.137006,0.008784,-1.00333,-0.0441,0.0896,0.4592
-0.0829446,0,0,15.0829,15.0829,14.9171,14.9171,0.276482,2.69434,18.0273,-0.0814658,-0.0175961,-0.0257679,0,0,3.57,0.315,0.9625,-0.074908,-0.010248,-1.03712,-0.0441,0.0896,0.4592
-0.0875278,0,0,15.0875,15.0875,14.9125,14.9125,0.291759,2.61441,18.1201,-0.0800722,-0.0173294,-0.0257046,0,0,3.535,0.4375,0.8925,-0.074908,-0.010248,-1.03712,-0.0441,0.09142,0.46256
-0.0956437,0,0,15.0956,15.0956,14.9044,14.9044,0.318812,2.61678,18.1372,-0.000418921,-0.0266279,0.0285113,0,0,3.395,0.3325,0.805,0.005124,-0.020008,-0.98332,-0.0441,0.09142,0.46256
-0.103412,0,0,15.1034,15.1034,14.8966,14.8966,0.344707,2.6192,18.154,-0.000461233,-0.0261765,0.0285068,0,0,3.01,0.4025,0.6825,0.005124,-0.020008,-0.98332,-0.0441,0.09142,0.46256
-0.119132,0,0,15.1191,15.1191,14.8809,14.8809,0.397107,2.74411,18.0545,0.123463,-0.0528642,-0.0132807,0,0,3.4125,0.4375,0.4725,0.13176,-0.04758,-1.02468,-0.0441,0.09142,0.46256
-0.134193,0,0,15.1342,15.1342,14.8658,14.8658,0.447309,2.8662,17.9547,0.121335,-0.0519899,-0.0133914,0,0,2.7125,0.0875,0.14,0.13176,-0.04758,-1.02468,-0.0441,0.09142,0.46256
-0.187077,0,0,15.1871,15.1871,14.8129,14.8129,0.62359,2.86236,17.9378,-0.00712992,-0.197545,-0.0752599,0,0,3.115,0.0875,0.1225,0.002684,-0.196054,-1.08604,-0.0441,0.09142,0.46256
-0.239173,0,0,15.2392,15.2392,14.7608,14.7608,0.797244,2.85856,17.92,-0.00706374,-0.194519,-0.0752941,0,0,3.325,0.1575,-0.35,0.002684,-0.196054,-1.08604,-0.0441,0.09142,0.46256
-0.264133,0,0,15.2641,15.2641,14.7359,14.7359,0.880443,2.93827,17.8471,0.0735496,-0.0836439,0.0106783,0,0,3.1675,0.35,-0.6125,0.085034,-0.086742,-1.00064,-0.0441,0.09142,0.46256
-0.288749,0,0,15.2887,15.2887,14.7113,14.7113,0.962496,3.01486,17.7698,0.0722148,-0.082215,0.0105859,0,0,3.5875,0.1575,-0.8925,0.085034,-0.086742,-1.00064,-0.03696,0.09562,0.46508
-0.288596,0,0,15.2886,15.2886,14.7114,14.7114,0.961987,3.0154,17.7686,-0.00190094,0.10866,-0.097978,1,0,3.3075,0.4375,-1.0675,0.010614,0.103944,-1.10837,-0.03696,0.09562,0.46508
-0.288712,0,0,15.2887,15.2887,14.7113,14.7113,0.962373,3.01517,17.7673,-0.0018969,0.108667,-0.0979779,1,0,3.815,-0.0175,-1.155,0.010614,0.103944,-1.10837,-0.03696,0.09562,0.46508
-0.278177,0,0,15.2782,15.2782,14.7218,14.7218,0.927257,2.84585,17.9354,-0.167325,0.0336822,-0.0132282,0,0,3.885,0.1225,-1.2775,-0.158478,0.029646,-1.02443,-0.03696,0.09562,0.46508
-0.267826,0,0,15.2678,15.2678,14.7322,14.7322,0.892752,2.67927,18.1031,-0.164421,0.033083,-0.0130785,0,0,3.885,-0.0175,-1.4525,-0.158478,0.029646,-1.02443,-0.03696,0.09562,0.46508
-0.265866,0,0,15.2659,15.2659,14.7341,14.7341,0.886219,2.77361,18.0322,0.0923345,0.00976379,0.0132789,0,0,4.41,-0.2975,-1.575,0.101016,0.006466,-0.998204,-0.03696,0.09562,0.46508
-0.263631,0,0,15.2636,15.2636,14.7364,14.7364,0.878769,2.86627,17.9613,0.0907192,0.00963272,0.0132013,0,0,3.85,-0.315,-1.5225,0.101016,0.006466,-0.998204,-0.03696,0.09562,0.46508
-0.263879,0,0,15.2639,15.2639,14.7361,14.7361,0.879597,2.8653,17.9594,0.000836757,-0.0636289,-0.137287,1,0,4.0775,-0.455,-1.505,0.010736,-0.066734,-1.14753,-0.03696,0.09562,0.46508
-0.263692,0,0,15.2637,15.2637,14.7363,14.7363,0.878974,2.86463,17.9578,0.000848563,-0.0636397,-0.137286,1,0,3.255,-0.28,-1.3125,0.010736,-0.066734,-1.14753,-0.03402,0.0952,0.45962
-0.311953,0,0,15.312,15.312,14.688,14.688,1.03984,2.87399,17.9242,0.00347943,-0.160369,0.0346635,0,0,3.4825,-0.2975,-1.225,0.013542,-0.166164,-0.976854,-0.03402,0.0952,0.45962
-0.359235,0,0,15.3592,15.3592,14.6408,14.6408,1.19745,2.88318,17.8905,0.00331924,-0.157623,0.0346019,0,0,3.1675,-0.245,-1.26,0.013542,-0.166164,-0.976854,-0.03402,0.0952,0.45962
-0.406531,0,0,15.4065,15.4065,14.5935,14.5935,1.3551,2.91292,17.8376,0.0192014,-0.148403,0.0849233,0,0,3.01,-0.21,-1.2425,0.030012,-0.159698,-0.926834,-0.03402,0.0952,0.45962
-0.45317,0,0,15.4532,15.4532,14.5468,14.5468,1.51057,2.94273,17.7859,0.0186819,-0.145695,0.084829,0,0,3.2375,0.21,-0.6475,0.030012,-0.159698,-0.926834,-0.03402,0.0952,0.45962
-0.443092,0,0,15.4431,15.4431,14.5569,14.5569,1.47697,2.90864,17.8326,-0.0319908,0.0323919,-0.00241884,0,0,2.905,-0.07,-0.56,-0.021472,0.018788,-1.01345,-0.03402,0.0952,0.45962
-0.433391,0,0,15.4334,15.4334,14.5666,14.5666,1.44464,2.87509,17.8798,-0.0314061,0.0318291,-0.00237494,0,0,3.2725,-0.105,-0.315,-0.021472,0.018788,-1.01345,-0.03402,0.0952,0.45962
-0.509922,0,0,15.5099,15.5099,14.4901,14.4901,1.69974,3.05664,17.6703,0.171955,-0.263063,0.0441826,0,0,3.115,-0.0875,-0.14,0.185928,-0.280234,-0.966972,-0.03402,0.0952,0.45962
-0.585553,0,0,15.5856,15.5856,14.4144,14.4144,1.95184,3.23493,17.4629,0.168848,-0.258678,0.0438719,0,0,3.745,-0.07,0.0875,0.185928,-0.280234,-0.966972,-0.03402,0.0952,0.45962
-0.575246,0,0,15.5752,15.5752,14.4248,14.4248,1.91749,3.10546,17.5924,-0.12933,0.0321227,-0.0845871,0,0,3.5875,-0.07,0.2275,-0.115778,0.010858,-1.09458,-0.03878,0.09156,0.45458
-0.565238,0,0,15.5652,15.5652,14.4348,14.4348,1.88413,2.97841,17.722,-0.127115,0.0315455,-0.0844502,0,0,3.7975,-0.0175,0.3325,-0.115778,0.010858,-1.09458,-0.03878,0.09156,0.45458
-0.572431,0,0,15.5724,15.5724,14.4276,14.4276,1.9081,2.90854,17.7912,-0.0689208,-0.0288538,-0.0584593,0,0,3.8325,0.0525,0.5425,-0.05856,-0.049898,-1.06884,-0.03878,0.09156,0.45458
-0.579508,0,0,15.5795,15.5795,14.4205,14.4205,1.93169,2.83992,17.8603,-0.0677246,-0.0284408,-0.0584131,0,0,3.8325,0.0525,0.5425,-0.05856,-0.049898,-1.06884,-0.03878,0.09156,0.45458
-0.579698,0,0,15.5797,15.5797,14.4203,14.4203,1.93233,2.8405,17.8619,0.162845,-0.150801,-0.0801758,1,0,3.8675,0.5075,0.56,0.172996,-0.172142,-1.09044,-0.03878,0.09156,0.45458
-0.579887,0,0,15.5799,15.5799,14.4201,14.4201,1.93296,2.84109,17.8636,0.162835,-0.15079,-0.0801767,1,0,3.8675,0.5075,0.56,0.172996,-0.172142,-1.09044,-0.03878,0.09156,0.45458
-0.616871,0,0,15.6169,15.6169,14.3831,14.3831,2.05624,2.90969,17.7908,0.0631141,-0.12715,-0.00322283,0,0,3.43,0.315,0.455,0.074054,-0.15067,-1.01394,-0.03878,0.09156,0.45458
-0.653228,0,0,15.6532,15.6532,14.3468,14.3468,2.17743,2.97697,17.7184,0.0619413,-0.125041,-0.00336112,0,0,3.43,0.315,0.455,0.074054,-0.15067,-1.01394,-0.03878,0.09156,0.45458
-0.651669,0,0,15.6517,15.6517,14.3483,14.3483,2.17223,2.90781,17.7902,-0.0662354,0.00212659,-0.0155906,0,0,3.01,0.0175,0.0875,-0.055876,-0.023546,-1.02614,-0.03906,0.0917,0.45388
-0.61898,0,0,15.619,15.619,14.381,14.381,2.06327,2.92969,17.8066,0.0272916,0.115393,-0.0416049,0,0,3.57,0.42,-0.07,0.03843,0.0915,-1.05201,-0.03906,0.0917,0.45388
-0.586762,0,0,15.5868,15.5868,14.4132,14.4132,1.95587,2.95084,17.8224,0.0269231,0.113522,-0.0415582,0,0,3.4475,0.175,-0.4025,0.03843,0.0915,-1.05201,-0.03906,0.0917,0.45388
-0.586801,0,0,15.5868,15.5868,14.4132,14.4132,1.956,2.95101,17.8221,-0.0152355,0.126958,-0.118278,1,0,3.64,0.2275,-0.56,-0.003904,0.10492,-1.12813,-0.03906,0.0917,0.45388
-0.586645,0,0,15.5866,15.5866,14.4134,14.4134,1.95548,2.95102,17.8214,-0.0152357,0.126949,-0.118278,1,0,3.29,0.1225,-0.84,-0.003904,0.10492,-1.12813,-0.03906,0.0917,0.45388
-0.645145,0,0,15.6451,15.6451,14.3549,14.3549,2.15048,2.76534,17.9505,-0.17807,-0.188155,0.0963068,0,0,3.255,-0.1925,-0.8225,-0.170678,-0.213256,-0.915244,-0.03906,0.0917,0.45388
-0.702974,0,0,15.703,15.703,14.297,14.297,2.34325,2.58331,18.0778,-0.174896,-0.184791,0.0963232,0,0,3.78,0.1225,-1.0325,-0.170678,-0.213256,-0.915244,-0.03906,0.0917,0.45388
-0.703085,0,0,15.7031,15.7031,14.2969,14.2969,2.34362,2.58305,18.0767,-0.0676198,-0.00989878,0.16665,1,0,3.7975,-0.0525,-1.0675,-0.062952,-0.038552,-0.84546,-0.03906,0.0917,0.45388
-0.703459,0,0,15.7035,15.7035,14.2965,14.2965,2.34486,2.5823,18.0755,-0.0676068,-0.00987704,0.166649,1,0,4.2875,-0.3325,-1.05,-0.062952,-0.038552,-0.84546,-0.03878,0.09044,0.45626
-0.686934,0,0,15.6869,15.6869,14.3131,14.3131,2.28978,2.66865,18.027,0.0928281,0.0603604,-0.0478029,0,0,3.9725,-0.3325,-0.9975,0.099674,0.032574,-1.05823,-0.03878,0.09044,0.45626
-0.670847,0,0,15.6708,15.6708,14.3292,14.3292,2.23616,2.75299,17.9782,0.0913576,0.0594236,-0.0478356,0,0,4.305,-0.63,-1.155,0.099674,0.032574,-1.05823,-0.03878,0.09044,0.45626
-0.643678,0,0,15.6437,15.6437,14.3563,14.3563,2.14559,2.65353,18.0979,-0.0954542,0.094487,-0.0746191,0,0,3.815,-0.21,-1.1375,-0.08967,0.069174,-1.08495,-0.03878,0.09044,0.45626
-0.61714,0,0,15.6171,15.6171,14.3829,14.3829,2.05713,2.55509,18.2181,-0.0937379,0.0929486,-0.0744846,0,0,4.1125,-0.665,-0.84,-0.08967,0.069174,-1.08495,-0.03878,0.09044,0.45626
-0.576723,0,0,15.5767,15.5767,14.4233,14.4233,1.92241,2.47677,18.3335,-0.0709907,0.142751,-0.0551631,0,0,4.025,-0.5425,-0.7875,-0.068198,0.121268,-1.06591,-0.03878,0.09044,0.45626
-0.536705,0,0,15.5367,15.5367,14.4633,14.4633,1.78902,2.4003,18.4497,-0.0696572,0.140428,-0.055031,0,0,3.4825,-0.2975,-0.525,-0.068198,0.121268,-1.06591,-0.03878,0.09044,0.45626
-0.488395,0,0,15.4884,15.4884,14.5116,14.5116,1.62798,2.46451,18.4508,0.0679597,0.165587,0.0236922,0,0,3.9725,-0.14,-0.4725,0.071126,0.149206,-0.987834,-0.03878,0.09044,0.45626
-0.44041,0,0,15.4404,15.4404,14.5596,14.5596,1.46803,2.52802,18.452,0.0668524,0.162798,0.0237193,0,0,3.08,0.0525,-0.21,0.071126,0.149206,-0.987834,-0.03696,0.09114,0.45318
-0.456709,0,0,15.4567,15.4567,14.5433,14.5433,1.52236,2.70897,18.2998,0.172427,-0.0513244,0.0314191,0,0,3.395,0,-0.0875,0.180316,-0.065636,-0.980026,-0.03696,0.09114,0.45318
-0.472644,0,0,15.4726,15.4726,14.5274,14.5274,1.57548,2.88629,18.1482,0.169336,-0.0504029,0.031243,0,0,3.255,-0.2625,0.0175,0.180316,-0.065636,-0.980026,-0.03696,0.09114,0.45318
-0.47666,0,0,15.4767,15.4767,14.5233,14.5233,1.58887,2.78156,18.2537,-0.10619,-0.019269,-0.0627287,0,0,3.22,0.175,0.14,-0.09821,-0.03477,-1.07336,-0.03696,0.09114,0.45318
-0.480682,0,0,15.4807,15.4807,14.5193,14.5193,1.60227,2.6783,18.359,-0.10439,-0.019033,-0.0626494,0,0,3.3425,-0.0525,0.1575,-0.09821,-0.03477,-1.07336,-0.03696,0.09114,0.45318
-0.492774,0,0,15.4928,15.4928,14.5072,14.5072,1.64258,2.48647,18.5371,-0.179768,-0.0414082,0.0726019,0,0,3.045,-0.1575,0.14,-0.177266,-0.057828,-0.939278,-0.03696,0.09114,0.45318
-0.504922,0,0,15.5049,15.5049,14.4951,14.4951,1.68307,2.29851,18.7148,-0.17649,-0.0406984,0.0727183,0,0,3.5,0.1575,0.315,-0.177266,-0.057828,-0.939278,-0.03696,0.09114,0.45318
-0.522006,0,0,15.522,15.522,14.478,14.478,1.74002,2.42257,18.616,0.112912,-0.052776,0.0455508,0,0,3.395,0.105,0.315,0.115534,-0.070882,-0.966118,-0.03696,0.09114,0.45318
-0.539012,0,0,15.539,15.539,14.461,14.461,1.79671,2.54526,18.5219,0.110773,-0.0517909,0.0454276,0,0,3.6925,0.2275,0.2275,0.115534,-0.070882,-0.966118,-0.03934,0.08736,0.455
-0.538974,0,0,15.539,15.539,14.461,14.461,1.79658,2.54557,18.5228,0.0172232,0.113689,-0.128299,1,0,3.465,0.3325,0.1575,0.021594,0.094428,-1.1385,-0.03934,0.08736,0.455
-0.538731,0,0,15.5387,15.5387,14.4613,14.4613,1.79577,2.54593,18.5232,0.0172168,0.113675,-0.128299,1,0,3.0975,0.35,-0.1925,0.021594,0.094428,-1.1385,-0.03934,0.08736,0.455
-0.498899,0,0,15.4989,15.4989,14.5011,14.5011,1.663,2.33464,18.7621,-0.203361,0.132249,0.00163882,0,0,3.4475,0.49,-0.4375,-0.203618,0.11529,-1.00979,-0.03934,0.08736,0.455
-0.45959,0,0,15.4596,15.4596,14.5404,14.5404,1.53197,2.12724,19.0013,-0.199744,0.129968,0.00184337,0,0,3.185,0.5775,-0.5425,-0.203618,0.11529,-1.00979,-0.03934,0.08736,0.455
-0.465642,0,0,15.4656,15.4656,14.5344,14.5344,1.55214,2.02561,19.1168,-0.0998113,-0.0212375,0.021447,0,0,3.9025,0.63,-0.6125,-0.105042,-0.036112,-0.990396,-0.03934,0.08736,0.455
-0.471373,0,0,15.4714,15.4714,14.5286,14.5286,1.57124,1.92556,19.2318,-0.098066,-0.0209027,0.0214981,0,0,3.4825,0.5075,-0.7,-0.105042,-0.036112,-0.990396,-0.03934,0.08736,0.455
-0.496824,0,0,15.4968,15.4968,14.5032,14.5032,1.65608,1.96492,19.21,0.0376759,-0.0929444,-0.0634014,0,0,3.85,0.4725,-0.84,0.031964,-0.109556,-1.07458,-0.03934,0.08736,0.455
-0.521607,0,0,15.5216,15.5216,14.4784,14.4784,1.73869,2.00214,19.1802,0.0370266,-0.0915047,-0.0634665,0,0,3.57,0.14,-0.7875,0.031964,-0.109556,-1.07458,-0.03766,0.09366,0.44996
-0.562942,0,0,15.5629,15.5629,14.4371,14.4371,1.87647,2.04447,19.131,0.0364097,-0.144915,-0.0126677,0,0,3.325,0.14,-0.91,0.032086,-0.16531,-1.02407,-0.03766,0.09366,0.44996
-0.603712,0,0,15.6037,15.6037,14.3963,14.3963,2.01237,2.08568,19.0813,0.035691,-0.142547,-0.0127741,0,0,3.5875,-0.0175,-1.2775,0.032086,-0.16531,-1.02407,-0.03766,0.09366,0.44996
-0.606105,0,0,15.6061,15.6061,14.3939,14.3939,2.02035,2.00594,19.1669,-0.0745636,-0.00745646,0.0703839,0,0,3.29,-0.035,-1.5225,-0.080032,-0.0305,-0.941596,-0.03766,0.09366,0.44996
-0.608818,0,0,15.6088,15.6088,14.3912,14.3912,2.02939,1.92729,19.2527,-0.0731916,-0.00729717,0.0704254,0,0,3.9375,-0.2275,-1.2425,-0.080032,-0.0305,-0.941596,-0.03766,0.09366,0.44996
-0.609753,0,0,15.6098,15.6098,14.3902,14.3902,2.03251,1.92931,19.271,0.00330916,-0.0043118,-0.031625,0,0,3.605,-0.105,-1.12,-0.003172,-0.027572,-1.04286,-0.03766,0.09366,0.44996
-0.610964,0,0,15.611,15.611,14.389,14.389,2.03655,1.93075,19.2894,0.00328401,-0.00424149,-0.0316283,0,0,4.1475,-0.42,-1.085,-0.003172,-0.027572,-1.04286,-0.03766,0.09366,0.44996
-0.595554,0,0,15.5956,15.5956,14.4044,14.4044,1.98518,2.01313,19.2515,0.0887093,0.0565354,-0.0460313,0,0,3.9725,-0.1225,-0.84,0.084058,0.034038,-1.05713,-0.03766,0.09366,0.44996
-0.580284,0,0,15.5803,15.5803,14.4197,14.4197,1.93428,2.09363,19.214,0.0873052,0.0556464,-0.0460513,0,0,3.7625,-0.385,-0.595,0.084058,0.034038,-1.05713,-0.03766,0.09366,0.44996
