pid_x,pid_y,pid_z,front_left_speed,front_right_speed,back_left_speed,back_right_speed,orientation_x,orientation_y,orientation_z,acceleration_x,acceleration_y,acceleration_z,accel_rejected,mag_rejected,ahrs_initialized,gyro_x,gyro_y,gyro_z,accel_x,accel_y,accel_z,mag_x,mag_y,mag_z
-0.815345,0,0,15.8153,15.8153,14.1847,14.1847,0.0119086,0.00461327,0.206843,0.00166416,-0.0101179,-0.000675824,0,0,0,3.4825,0.0525,-0.8925,-0.038552,0.00183,-1.01333,-0.23072,0.05698,0.37394
-0.573348,0,0,15.5733,15.5733,14.4267,14.4267,0.0199696,0.00401962,0.414983,-0.00111965,-0.0068019,0.00375028,0,0,0,3.4825,0.0175,-0.9275,-0.041358,0.005002,-1.00894,-0.23072,0.05698,0.37394
-0.581138,0,0,15.5811,15.5811,14.4189,14.4189,0.0279323,0.00332326,0.621768,-0.00110749,-0.00666292,0.00375023,0,0,0,3.5175,-0.035,-0.805,-0.041358,0.005002,-1.00894,-0.23072,0.05698,0.37394
-0.780211,0,0,15.7802,15.7802,14.2198,14.2198,0.0385933,-0.0047419,0.832401,-0.0063121,-0.00891939,-0.00559397,0,0,0,3.6225,0.175,-0.8575,-0.046726,0.002562,-1.01821,-0.23072,0.05698,0.37394
-0.771605,0,0,15.7716,15.7716,14.2284,14.2284,0.0488481,-0.0129233,1.04162,-0.00616931,-0.0087404,-0.00559413,0,0,0,3.5175,0,-0.7525,-0.046726,0.002562,-1.01821,-0.23072,0.05698,0.37394
-0.643497,0,0,15.6435,15.6435,14.3565,14.3565,0.0569621,-0.0164316,1.24568,-0.00282796,-0.00701114,-0.00842209,0,0,0,3.4475,-0.14,-0.8225,-0.043432,0.004148,-1.02102,-0.23072,0.05698,0.37394
-0.592652,0,0,15.5927,15.5927,14.4073,14.4073,0.0641201,-0.0181886,1.44319,-0.00170393,-0.00615345,-0.000922373,0,0,0,3.43,-0.035,-0.7875,-0.042334,0.00488,-1.01358,-0.22386,0.05894,0.37408
-0.686028,0,0,15.686,15.686,14.314,14.314,0.0724535,-0.0149599,1.63584,0.00127687,-0.00710715,0.00780681,0,0,0,3.395,0,-0.8575,-0.039284,0.003782,-1.00491,-0.22386,0.05894,0.37408
-0.697329,0,0,15.6973,15.6973,14.3027,14.3027,0.0807327,-0.0119887,1.82734,0.000982037,-0.00684052,0.00510177,0,0,0,3.5525,0.1575,-0.84,-0.039528,0.003904,-1.0076,-0.22386,0.05894,0.37408
-0.692529,0,0,15.6925,15.6925,14.3075,14.3075,0.0887239,-0.00900784,2.01746,0.000930011,-0.00670105,0.00510157,0,0,0,3.4825,0.2275,-0.8225,-0.039528,0.003904,-1.0076,-0.22386,0.05894,0.37408
-0.549992,0,0,15.55,15.55,14.45,14.45,0.094423,-0.0127592,2.21049,-0.00313503,-0.00525819,0.00313422,0,0,0,3.2025,0.2275,-0.84,-0.043676,0.005246,-1.00955,-0.22386,0.05894,0.37408
-0.686921,0,0,15.6869,15.6869,14.3131,14.3131,0.101972,-0.0198664,2.40454,-0.0054407,-0.00646983,-0.00412,0,0,0,3.5,0.21,-0.84,-0.046116,0.003904,-1.01675,-0.22386,0.05894,0.37408
-0.683578,0,0,15.6836,15.6836,14.3164,14.3164,0.109273,-0.0265987,2.59729,-0.0053232,-0.00634239,-0.00412028,0,0,0,3.4475,0.3325,-0.7525,-0.046116,0.003904,-1.01675,-0.22386,0.05894,0.37408
-0.524639,0,0,15.5246,15.5246,14.4754,14.4754,0.114061,-0.0248224,2.78034,0.000598599,-0.00406055,-0.00399748,0,0,0,3.465,0.175,-0.7875,-0.040138,0.0061,-1.01663,-0.22484,0.05992,0.3752
-0.548495,0,0,15.5485,15.5485,14.4515,14.4515,0.119071,-0.0332374,2.96879,-0.00593624,-0.00470586,-0.000186333,0,0,0,3.2375,0.14,-0.8925,-0.046848,0.005368,-1.01284,-0.22484,0.05992,0.3752
-0.724556,0,0,15.7246,15.7246,14.2754,14.2754,0.126521,-0.0375014,3.15307,-0.00343211,-0.00640774,-0.00227678,0,0,0,3.465,0.0525,-0.945,-0.044408,0.003538,-1.01492,-0.22484,0.05992,0.3752
-0.738379,0,0,15.7384,15.7384,14.2616,14.2616,0.133976,-0.0416769,3.33621,-0.00335923,-0.00627762,-0.00227713,0,0,0,3.5525,0.0525,-0.805,-0.044408,0.003538,-1.01492,-0.22484,0.05992,0.3752
-0.761589,0,0,15.7616,15.7616,14.2384,14.2384,0.141574,-0.0440894,3.5169,-0.00246673,-0.00651139,-0.00449055,0,0,0,3.4825,0.2275,-0.875,-0.043554,0.003172,-1.01711,-0.22484,0.05992,0.3752
-0.659564,0,0,15.6596,15.6596,14.3404,14.3404,0.147482,-0.0394032,3.69156,0.00194645,-0.00506489,-0.000310503,0,0,0,3.395,0.5075,-0.91,-0.03904,0.004514,-1.01297,-0.22484,0.05992,0.3752
-0.649338,0,0,15.6493,15.6493,14.3507,14.3507,0.153085,-0.0350737,3.86509,0.00187089,-0.0049671,-0.00031071,0,0,0,3.29,0.385,-0.805,-0.03904,0.004514,-1.01297,-0.22484,0.05992,0.3752
-0.729364,0,0,15.7294,15.7294,14.2706,14.2706,0.159709,-0.0318869,4.03786,0.00108635,-0.00570638,-0.00178638,0,0,0,3.395,0.35,-0.875,-0.039772,0.00366,-1.01443,-0.22484,0.05992,0.3752
-1.39021,0,0,16.3902,16.3902,13.6098,13.6098,0.175811,-0.0236756,4.20762,0.00325127,-0.0140964,0.00657337,0,0,0,3.08,0.2625,-0.805,-0.037454,-0.005002,-1.00613,-0.2219,0.05866,0.37996
-0.935149,0,0,15.9351,15.9351,14.0649,14.0649,0.184842,-0.0311655,4.38612,-0.00597241,-0.00844302,-0.00387781,0,0,0,3.0975,0.1925,-0.91,-0.046848,0.000488,-1.0165,-0.2219,0.05866,0.37996
-0.93906,0,0,15.9391,15.9391,14.0609,14.0609,0.193693,-0.0384866,4.5633,-0.00584463,-0.00828855,-0.0038784,0,0,0,3.0975,0.1925,-0.91,-0.046848,0.000488,-1.0165,-0.2219,0.05866,0.37996
-0.749976,0,0,15.75,15.75,14.25,14.25,0.199549,-0.0372285,4.73296,0.000329183,-0.00501105,0.0113669,0,0,0,3.36,0,-0.8925,-0.040626,0.00366,-1.00138,-0.2219,0.05866,0.37996
-0.704494,0,0,15.7045,15.7045,14.2955,14.2955,0.204586,-0.0338504,4.90026,0.00148508,-0.0043125,-0.00252658,0,0,0,3.4125,0.28,-0.8225,-0.039406,0.00427,-1.01516,-0.2219,0.05866,0.37996
-0.708792,0,0,15.7088,15.7088,14.2912,14.2912,0.209553,-0.0310291,5.06641,0.00143584,-0.00422581,-0.00252686,0,0,0,3.43,0.0175,-0.77,-0.039406,0.00427,-1.01516,-0.2219,0.05866,0.37996
-0.808437,0,0,15.8084,15.8084,14.1916,14.1916,0.215844,-0.0393139,5.23878,-0.00595168,-0.00582578,-0.000929027,0,0,0,3.2725,0.035,-0.875,-0.04697,0.002562,-1.01358,-0.2219,0.05866,0.37996
-0.590705,0,0,15.5907,15.5907,14.4093,14.4093,0.218789,-0.0396399,5.41792,-0.000600616,-0.00235483,-0.000191535,0,0,0,3.5525,0.2275,-0.91,-0.041602,0.005978,-1.01284,-0.22344,0.0511,0.38024
-0.378385,0,0,15.3784,15.3784,14.6216,14.6216,0.218556,-0.0405326,5.59595,-0.000463549,0.00032788,-0.000806273,0,0,0,3.535,0.1225,-0.8575,-0.04148,0.008662,-1.01345,-0.22344,0.0511,0.38024
-0.898022,0,0,15.898,15.898,14.102,14.102,0.225917,-0.0308142,5.76564,0.0055626,-0.00638273,-0.00486397,0,0,0,3.2725,0.0175,-0.805,-0.035258,0.00183,-1.01748,-0.22344,0.0511,0.38024
-0.91194,0,0,15.9119,15.9119,14.0881,14.0881,0.233288,-0.0213247,5.93412,0.00539698,-0.00625409,-0.00486441,0,0,0,3.36,0.0525,-0.77,-0.035258,0.00183,-1.01748,-0.22344,0.0511,0.38024
-0.657939,0,0,15.6579,15.6579,14.3421,14.3421,0.236755,-0.0214165,6.10724,-0.00018976,-0.00289616,-0.000438509,0,0,0,3.4825,-0.07,-0.875,-0.04087,0.005124,-1.01309,-0.22344,0.0511,0.38024
-0.657383,0,0,15.6574,15.6574,14.3426,14.3426,0.240122,-0.0211908,6.27918,-0.000193699,-0.0028374,-0.000438752,0,0,0,3.465,0.1225,-0.805,-0.04087,0.005124,-1.01309,-0.22344,0.0511,0.38024
-0.39837,0,0,15.3984,15.3984,14.6016,14.6016,0.239617,-0.0260649,6.45306,-0.00314577,0.000329082,-0.0043731,0,0,0,3.465,0.21,-0.945,-0.04392,0.008296,-1.01699,-0.22344,0.0511,0.38024
-0.599845,0,0,15.5998,15.5998,14.4002,14.4002,0.242067,-0.0259137,6.60777,-0.000232755,-0.00207069,0.00238889,0,0,0,3.4475,0.2275,-1.05,-0.040992,0.005856,-1.01028,-0.22638,0.0588,0.38234
-0.765177,0,0,15.7652,15.7652,14.2348,14.2348,0.246867,-0.0249054,6.76086,0.00023559,-0.00406307,-0.00240645,0,0,0,3.465,0.07,-0.875,-0.040504,0.003782,-1.01504,-0.22638,0.0588,0.38234
-0.767304,0,0,15.7673,15.7673,14.2327,14.2327,0.251572,-0.0239407,6.91281,0.000218752,-0.00398096,-0.0024068,0,0,0,3.465,0.07,-0.875,-0.040504,0.003782,-1.01504,-0.22638,0.0588,0.38234
-0.916662,0,0,15.9167,15.9167,14.0833,14.0833,0.258333,-0.0260586,7.06574,-0.002174,-0.00569485,0.00152701,0,0,0,3.535,0.2275,-0.9275,-0.042944,0.001952,-1.01114,-0.22638,0.0588,0.38234
0.612867,0,0,14.3871,14.3871,15.6129,15.6129,0.242577,0.0115452,7.19037,0.0268122,0.0151581,-0.0268728,0,0,0,3.6225,0.2975,-0.91,-0.013176,0.023058,-1.03932,-0.22638,0.0588,0.38234
0.658811,0,0,14.3412,14.3412,15.6588,15.6588,0.226563,0.0483206,7.31423,0.0261704,0.0148786,-0.026872,0,0,0,3.3075,0.3675,-0.8225,-0.013176,0.023058,-1.03932,-0.22638,0.0588,0.38234
-0.993586,0,0,15.9936,15.9936,14.0064,14.0064,0.235104,0.0809764,7.43915,0.0198906,-0.00646665,0.00779823,0,0,0,3.325,0.3325,-0.9625,-0.01891,0.001586,-1.00491,-0.22638,0.0588,0.38234
-0.513697,0,0,15.5137,15.5137,14.4863,14.4863,0.236411,0.08445,7.58044,0.00185006,-0.000581758,0.0677969,0,0,0,3.5,0.21,-0.875,-0.036966,0.007442,-0.945378,-0.2233,0.06062,0.37688
1.75505,0,0,13.2449,13.2449,16.7551,16.7551,0.204547,0.170973,7.66365,0.063877,0.0313478,-0.0608084,0,0,0,3.255,0.14,-0.84,0.02684,0.039894,-1.07299,-0.2233,0.06062,0.37688
-1.6644,0,0,16.6644,16.6644,13.3356,13.3356,0.223463,0.0787272,7.86669,-0.0653531,-0.0204702,-0.0485113,0,0,0,3.3425,0.21,-0.8225,-0.104554,-0.0122,-1.06079,-0.2233,0.06062,0.37688
-1.68192,0,0,16.6819,16.6819,13.3181,13.3181,0.242137,-0.0114741,8.06806,-0.0637788,-0.0201442,-0.0485117,0,0,0,3.4125,0,-0.8225,-0.104554,-0.0122,-1.06079,-0.2233,0.06062,0.37688
1.93432,0,0,13.0657,13.0657,16.9343,16.9343,0.207502,-0.00405034,8.20385,0.00776817,0.0266365,0.121283,0,0,0,3.325,0.0875,-0.8225,-0.032574,0.035136,-0.892308,-0.2233,0.06062,0.37688
2.06403,0,0,12.936,12.936,17.064,17.064,0.171883,0.0563431,8.30284,0.0464399,0.0343194,-0.0758023,0,0,0,3.1325,0.49,-0.84,0.00732,0.043432,-1.08787,-0.2233,0.06062,0.37688
2.08565,0,0,12.9144,12.9144,17.0856,17.0856,0.136885,0.115114,8.40099,0.0454142,0.0337086,-0.0758022,0,0,0,3.0975,0.4025,-0.91,0.00732,0.043432,-1.08787,-0.2233,0.06062,0.37688
-3.53804,0,0,18.538,18.538,11.462,11.462,0.184943,0.0818107,8.56385,-0.0273819,-0.0425146,0.00767847,0,0,0,3.185,0.3325,-0.91,-0.066368,-0.03355,-1.00504,-0.22302,0.05768,0.37926
2.75637,0,0,12.2436,12.2436,17.7564,17.7564,0.139804,0.158949,8.65171,0.0506019,0.038034,0.0921435,0,0,0,3.535,0.0875,-0.7875,0.013298,0.047702,-0.921222,-0.22302,0.05768,0.37926
2.1853,0,0,12.8147,12.8147,17.1853,17.1853,0.104192,0.198478,8.76335,0.0318106,0.0336265,-0.0477727,0,0,0,3.5525,0.0525,-0.7875,-0.00488,0.04392,-1.06006,-0.22302,0.05768,0.37926
2.20611,0,0,12.7939,12.7939,17.2061,17.2061,0.0692128,0.237028,8.87432,0.0311378,0.033016,-0.0477744,0,0,0,3.5175,0.0175,-0.7175,-0.00488,0.04392,-1.06006,-0.22302,0.05768,0.37926
-2.15466,0,0,17.1547,17.1547,12.8453,12.8453,0.0988446,0.119301,9.08898,-0.0760231,-0.0277745,0.0644832,0,0,0,3.4475,0.2275,-0.84,-0.114558,-0.017324,-0.948672,-0.22302,0.05768,0.37926
-2.19096,0,0,17.191,17.191,12.809,12.809,0.128227,0.0044736,9.30186,-0.074019,-0.0272616,0.0644844,0,0,0,3.6225,0.1575,-0.8225,-0.114558,-0.017324,-0.948672,-0.22302,0.05768,0.37926
3.09032,0,0,11.9097,11.9097,18.0903,18.0903,0.0797004,0.0572922,9.40316,0.0449655,0.0483427,-0.105306,0,0,0,3.535,0.07,-0.77,0.005856,0.059048,-1.11715,-0.22302,0.05768,0.37926
-0.156462,0,0,15.1565,15.1565,14.8435,14.8435,0.0798708,0.0571041,9.40335,0.0449688,0.0483457,-0.105306,1,0,0,3.535,0.07,-0.77,0.005856,0.059048,-1.11715,-0.22302,0.05768,0.37926
-0.124712,0,0,15.1247,15.1247,14.8753,14.8753,0.0795727,0.0569163,9.40337,-0.0607205,-0.0847776,0.145386,1,0,0,3.2725,0.07,-0.875,-0.100284,-0.073932,-0.868396,-0.22456,0.05992,0.3836
2.32487,0,0,12.6751,12.6751,17.3249,17.3249,0.0435047,0.121638,9.48954,0.0455433,0.032323,0.0293211,0,0,0,3.29,0,-0.8575,0.007564,0.043676,-0.983564,-0.22456,0.05992,0.3836
2.33702,0,0,12.663,12.663,17.337,17.337,0.00820742,0.184788,9.57486,0.0444411,0.031707,0.0293184,0,0,0,3.3425,0,-0.9975,0.007564,0.043676,-0.983564,-0.22456,0.05992,0.3836
-3.09846,0,0,18.0985,18.0985,11.9015,11.9015,0.0532268,0.271366,9.64,0.0562935,-0.0379744,-0.0672026,0,0,0,3.4825,0.0525,-0.8925,0.020984,-0.026718,-1.07933,-0.22456,0.05992,0.3836
-3.12953,0,0,18.1295,18.1295,11.8705,11.8705,0.097516,0.355186,9.7047,0.0548306,-0.0372014,-0.0672116,0,0,0,3.6225,-0.14,-0.8925,0.020984,-0.026718,-1.07933,-0.22456,0.05992,0.3836
-0.173633,0,0,15.1736,15.1736,14.8264,14.8264,0.097468,0.35464,9.70475,-0.0291065,0.0288683,0.156801,1,0,0,3.4125,-0.14,-0.8575,-0.063318,0.039284,-0.85705,-0.22456,0.05992,0.3836
-0.14789,0,0,15.1479,15.1479,14.8521,14.8521,0.097045,0.354452,9.70473,-0.0291032,0.0288609,0.156801,1,0,0,3.2025,0.07,-0.8925,-0.063318,0.039284,-0.85705,-0.22456,0.05992,0.3836
-0.151393,0,0,15.1514,15.1514,14.8486,14.8486,0.096684,0.354593,9.70466,-0.0277694,0.00174247,-0.160406,1,0,0,3.2375,0.2625,-0.9275,-0.061976,0.0122,-1.17181,-0.22456,0.05992,0.3836
-0.174215,0,0,15.1742,15.1742,14.8258,14.8258,0.0966657,0.354794,9.70447,-0.0277729,0.00174215,-0.160406,1,0,0,3.43,0.2975,-0.9975,-0.061976,0.0122,-1.17181,-0.21952,0.05992,0.37954
-0.163523,0,0,15.1635,15.1635,14.8365,14.8365,0.0964915,0.354875,9.7043,-0.0508566,0.0244547,0.213111,1,0,0,3.3425,0.2275,-0.98,-0.085156,0.034892,-0.801174,-0.21952,0.05992,0.37954
-0.180372,0,0,15.1804,15.1804,14.8196,14.8196,0.0965677,0.354628,9.70426,-0.0508522,0.024456,0.213111,1,0,0,3.4825,0.035,-0.91,-0.085156,0.034892,-0.801174,-0.21952,0.05992,0.37954
-0.199732,0,0,15.1997,15.1997,14.8003,14.8003,0.0969245,0.354351,9.70415,-0.0510904,-0.0121758,-0.158193,1,0,0,3.64,0.0175,-0.945,-0.0854,-0.001708,-1.16961,-0.21952,0.05992,0.37954
-0.213174,0,0,15.2132,15.2132,14.7868,14.7868,0.0974681,0.354372,9.70396,-0.0510908,-0.0121663,-0.158193,1,0,0,3.745,0.1925,-0.9975,-0.0854,-0.001708,-1.16961,-0.21952,0.05992,0.37954
-0.209804,0,0,15.2098,15.2098,14.7902,14.7902,0.0979479,0.354574,9.70355,0.0836334,-0.0152111,0.156801,1,0,0,3.71,0.2975,-1.12,0.049898,-0.004758,-0.85705,-0.21952,0.05992,0.37954
-0.168067,0,0,15.1681,15.1681,14.8319,14.8319,0.0978052,0.354625,9.70345,0.0836325,-0.0152136,0.156801,1,0,0,3.36,0.21,-0.945,0.049898,-0.004758,-0.85705,-0.21952,0.05992,0.37954
-0.174325,0,0,15.1743,15.1743,14.8257,14.8257,0.0977575,0.354825,9.70356,-0.150838,-0.00483364,-0.150939,1,0,0,3.4125,0.2975,-0.8225,-0.185562,0.005612,-1.16242,-0.21952,0.05992,0.37954
-0.191237,0,0,15.1912,15.1912,14.8088,14.8088,0.0979579,0.354966,9.70339,-0.150841,-0.00483014,-0.15094,1,0,0,3.5525,0.2625,-0.98,-0.185562,0.005612,-1.16242,-0.21812,0.063,0.38276
-0.202297,0,0,15.2023,15.2023,14.7977,14.7977,0.0983143,0.354988,9.70323,0.100756,-0.00812134,0.152743,1,0,0,3.64,0.1925,-0.98,0.0671,0.002318,-0.861076,-0.21812,0.063,0.38276
-0.194456,0,0,15.1945,15.1945,14.8055,14.8055,0.0985466,0.355218,9.70319,0.100752,-0.00811729,0.152743,1,0,0,3.57,0.315,-0.91,0.0671,0.002318,-0.861076,-0.21812,0.063,0.38276
0.0617635,0,0,14.9382,14.9382,15.0618,15.0618,0.0950304,0.136875,9.96967,-0.154202,-0.0057361,-0.0476464,0,0,0,3.57,0.42,-0.84,-0.19276,0.004758,-1.05994,-0.21812,0.063,0.38276
0.0623715,0,0,14.9376,14.9376,15.0624,15.0624,0.0915975,-0.0762668,10.2343,-0.150482,-0.00579601,-0.0476443,0,0,0,3.57,0.14,-0.7525,-0.19276,0.004758,-1.05994,-0.21812,0.063,0.38276
-7.18215,0,0,22.1822,22.1822,7.81785,7.81785,0.194065,0.189072,10.1661,0.151031,-0.0712995,0.104434,0,0,0,3.395,0.21,-0.875,0.11468,-0.062464,-0.909022,-0.21812,0.063,0.38276
-7.17106,0,0,22.1711,22.1711,7.82894,7.82894,0.293677,0.447248,10.0993,0.146525,-0.0695611,0.104402,0,0,0,3.15,0.1925,-0.77,0.11468,-0.062464,-0.909022,-0.21812,0.063,0.38276
6.95515,0,0,8.04485,8.04485,21.9551,21.9551,0.184346,0.335258,10.2925,-0.064728,0.0916922,-0.0159437,0,0,0,3.0975,0.28,-0.77,-0.09943,0.100528,-1.02846,-0.21812,0.063,0.38276
6.99456,0,0,8.00544,8.00544,21.9946,21.9946,0.0773146,0.225718,10.4912,-0.0628162,0.0898242,-0.0159301,0,0,0,3.185,-0.035,-0.84,-0.09943,0.100528,-1.02846,-0.21854,0.05866,0.39046
-0.135493,0,0,15.1355,15.1355,14.8645,14.8645,0.0772356,0.225381,10.4913,-0.132543,-0.111076,0.165665,1,0,0,3.395,-0.0175,-0.805,-0.169458,-0.100162,-0.848266,-0.21854,0.05866,0.39046
-0.137475,0,0,15.1375,15.1375,14.8625,14.8625,0.0771875,0.225372,10.4913,-0.132543,-0.111077,0.165665,1,0,0,3.4125,0.175,-0.8575,-0.169458,-0.100162,-0.848266,-0.21854,0.05866,0.39046
-0.133109,0,0,15.1331,15.1331,14.8669,14.8669,0.0770766,0.225423,10.4913,0.300553,0.00396494,-0.204902,1,0,0,3.3775,0.21,-0.8925,0.265472,0.014762,-1.21597,-0.21854,0.05866,0.39046
-0.135034,0,0,15.135,15.135,14.865,14.865,0.0769967,0.225355,10.4912,0.300554,0.00396354,-0.204902,1,0,0,3.395,0.14,-0.945,0.265472,0.014762,-1.21597,-0.21854,0.05866,0.39046
-0.136999,0,0,15.137,15.137,14.863,14.863,0.0769473,0.225287,10.491,-0.330806,0.0031078,0.227631,1,0,0,3.4125,0.14,-1.0325,-0.368562,0.013908,-0.786778,-0.21854,0.05866,0.39046
-0.109171,0,0,15.1092,15.1092,14.8908,14.8908,0.0764927,0.225189,10.4908,-0.330804,0.00309986,0.227631,1,0,0,3.185,0.1225,-0.9625,-0.368562,0.013908,-0.786778,-0.21854,0.05866,0.39046
-0.112663,0,0,15.1127,15.1127,14.8873,14.8873,0.0761008,0.225121,10.4908,0.345265,-0.0886242,-0.203795,1,0,0,3.22,0.14,-0.91,0.310368,-0.077714,-1.21488,-0.21854,0.05866,0.39046
-0.13763,0,0,15.1376,15.1376,14.8624,14.8624,0.0760837,0.224993,10.4908,0.345267,-0.0886245,-0.203795,1,0,0,3.43,0.105,-0.875,0.310368,-0.077714,-1.21488,-0.21854,0.05866,0.39046
17.3958,0,0,1,1,32.3958,32.3958,-0.18002,-0.297927,10.9765,-0.30989,0.19085,0.119426,0,0,0,3.5175,0.1225,-1.015,-0.356728,0.205936,-0.894138,-0.21924,0.05726,0.39088
0.331872,0,0,14.6681,14.6681,15.3319,15.3319,-0.18016,-0.298086,10.9762,-0.375368,-0.233787,0.354135,1,0,0,3.36,0.0875,-1.085,-0.422486,-0.218258,-0.66124,-0.21924,0.05726,0.39088
0.323645,0,0,14.6764,14.6764,15.3236,15.3236,-0.180176,-0.298035,10.9759,-0.375369,-0.233787,0.354135,1,0,0,3.43,0.21,-1.015,-0.422486,-0.218258,-0.66124,-0.21924,0.05726,0.39088
0.325816,0,0,14.6742,14.6742,15.3258,15.3258,-0.180223,-0.297866,10.9757,0.423153,0.145049,-0.399539,1,0,0,3.4125,0.28,-1.05,0.37942,0.160186,-1.4091,-0.21924,0.05726,0.39088
0.311064,0,0,14.6889,14.6889,15.3111,15.3111,-0.180053,-0.297725,10.9757,0.423151,0.145052,-0.399539,1,0,0,3.535,0.2625,-0.8925,0.37942,0.160186,-1.4091,-0.21924,0.05726,0.39088
0.325788,0,0,14.6742,14.6742,15.3258,15.3258,-0.180102,-0.297853,10.9758,-0.377438,-0.0845468,0.45483,1,0,0,3.4125,0.105,-0.8225,-0.42456,-0.069174,-0.561322,-0.21924,0.05726,0.39088
0.342893,0,0,14.6571,14.6571,15.3429,15.3429,-0.180399,-0.298011,10.9756,-0.377435,-0.084552,0.45483,1,0,0,3.2725,0.0875,-0.9975,-0.42456,-0.069174,-0.561322,-0.21924,0.05726,0.39088
0.324274,0,0,14.6757,14.6757,15.3243,15.3243,-0.180416,-0.298348,10.9755,0.327674,-0.0245881,-0.402859,1,0,0,3.43,-0.0175,-0.91,0.283528,-0.009272,-1.41239,-0.21924,0.05726,0.39088
0.334985,0,0,14.665,14.665,15.335,15.335,-0.180588,-0.298298,10.9754,0.327673,-0.0245911,-0.402859,1,0,0,3.3425,0.21,-0.9625,0.283528,-0.009272,-1.41239,-0.22582,0.05922,0.38458
0.337396,0,0,14.6626,14.6626,15.3374,15.3374,-0.180791,-0.298576,10.9751,-0.220587,0.0805565,0.359668,1,0,0,3.325,0.0175,-1.0675,-0.267058,0.09577,-0.65575,-0.22582,0.05922,0.38458
0.324943,0,0,14.6751,14.6751,15.3249,15.3249,-0.180806,-0.298825,10.9747,-0.220583,0.0805562,0.359668,1,0,0,3.43,0.035,-1.1025,-0.267058,0.09577,-0.65575,-0.22582,0.05922,0.38458
0.346326,0,0,14.6537,14.6537,15.3463,15.3463,-0.181133,-0.298895,10.9742,0.0923658,-0.186907,-0.175527,1,0,0,3.255,0.14,-1.1725,0.047214,-0.17141,-1.18682,-0.22582,0.05922,0.38458
0.336342,0,0,14.6637,14.6637,15.3363,15.3363,-0.181305,-0.299143,10.974,0.0923701,-0.18691,-0.175527,1,0,0,3.3425,0.035,-1.0325,0.047214,-0.17141,-1.18682,-0.22582,0.05922,0.38458
17.4819,0,0,1,1,32.4819,32.4819,-0.431894,-0.218795,11.0543,0.0774829,0.203186,0.109696,0,0,0,3.535,0.0875,-0.9975,0.033672,0.22265,-0.903776,-0.22582,0.05922,0.38458
17.6265,0,0,1,1,32.6265,32.6265,-0.678005,-0.139501,11.134,0.076099,0.198891,0.109659,0,0,0,3.3775,0.1925,-1.0325,0.033672,0.22265,-0.903776,-0.22582,0.05922,0.38458
-23.75,0,0,38.75,38.75,1,1,-0.313314,0.264098,10.9492,0.219819,-0.288503,0.117698,0,0,0,3.535,0.245,-1.085,0.185074,-0.270596,-0.895846,-0.22582,0.05922,0.38458
-23.8722,0,0,38.8722,38.8722,1,1,0.0435744,0.655727,10.7707,0.212984,-0.282274,0.117658,0,0,0,3.57,0.1575,-0.7875,0.185074,-0.270596,-0.895846,-0.22456,0.05866,0.38626
-0.0572614,0,0,15.0573,15.0573,14.9427,14.9427,0.0432467,0.655569,10.7708,-0.0582912,0.271321,-0.208893,1,0,0,3.255,0.0875,-0.805,-0.087352,0.28243,-1.21988,-0.22456,0.05866,0.38626
-0.0652266,0,0,15.0652,15.0652,14.9348,14.9348,0.0430439,0.65577,10.771,-0.0582947,0.271317,-0.208893,1,0,0,3.325,0.2975,-0.805,-0.087352,0.28243,-1.21988,-0.22456,0.05866,0.38626
-0.0924859,0,0,15.0925,15.0925,14.9075,14.9075,0.0432444,0.655701,10.7709,-0.0957111,-0.197524,0.448635,1,0,0,3.5525,0.14,-0.9275,-0.124928,-0.185928,-0.567422,-0.22456,0.05866,0.38626
-0.103422,0,0,15.1034,15.1034,14.8966,14.8966,0.0435993,0.655842,10.7707,-0.0957135,-0.197518,0.448635,1,0,0,3.64,0.2625,-1.015,-0.124928,-0.185928,-0.567422,-0.22456,0.05866,0.38626
-0.0786094,0,0,15.0786,15.0786,14.9214,14.9214,0.0435823,0.655893,10.7707,0.241408,0.146269,-0.553395,1,0,0,3.43,0.21,-0.875,0.213622,0.157502,-1.56172,-0.22456,0.05866,0.38626
-0.0572139,0,0,15.0572,15.0572,14.9428,14.9428,0.0432532,0.655467,10.7707,0.241416,0.146263,-0.553395,1,0,0,3.255,-0.07,-0.875,0.213622,0.157502,-1.56172,-0.22456,0.05866,0.38626
-0.09721,0,0,15.0972,15.0972,14.9028,14.9028,0.0435169,0.655309,10.7707,-0.324462,-0.0618365,0.670311,1,0,0,3.5875,0.0875,-0.8925,-0.354654,-0.050386,-0.347456,-0.22456,0.05866,0.38626
-0.0976912,0,0,15.0977,15.0977,14.9023,14.9023,0.0437805,0.655211,10.7707,-0.32446,-0.0618319,0.670311,1,0,0,3.5875,0.1225,-0.8925,-0.354654,-0.050386,-0.347456,-0.22596,0.063,0.3836
-0.0577079,0,0,15.0577,15.0577,14.9423,14.9423,0.0434531,0.655232,10.7708,0.268147,-0.0453505,-0.646221,1,0,0,3.255,0.1925,-0.7875,0.240462,-0.033916,-1.65383,-0.22596,0.063,0.3836
-0.0784964,0,0,15.0785,15.0785,14.9215,14.9215,0.0434379,0.655343,10.771,0.268145,-0.0453508,-0.646221,1,0,0,3.43,0.245,-0.7875,0.240462,-0.033916,-1.65383,-0.22596,0.063,0.3836
-0.0591943,0,0,15.0592,15.0592,14.9408,14.9408,0.0431411,0.655244,10.7711,-0.285221,0.0936243,0.57183,1,0,0,3.2725,0.1225,-0.8225,-0.315248,0.10492,-0.445178,-0.22596,0.063,0.3836
-0.0797324,0,0,15.0797,15.0797,14.9203,14.9203,0.0431519,0.655146,10.7708,-0.285219,0.0936245,0.57183,1,0,0,3.4475,0.1225,-1.05,-0.315248,0.10492,-0.445178,-0.22596,0.063,0.3836
-0.0776917,0,0,15.0777,15.0777,14.9223,14.9223,0.0431326,0.654989,10.7706,0.324156,-0.121807,-0.472987,1,0,0,3.43,0.0875,-0.9975,0.296704,-0.110288,-1.48193,-0.22596,0.063,0.3836
-0.0777106,0,0,15.0777,15.0777,14.9223,14.9223,0.0431139,0.655368,10.7705,0.324149,-0.121808,-0.472987,1,0,0,3.43,0.4025,-0.9625,0.296704,-0.110288,-1.48193,-0.22596,0.063,0.3836
-0.0841417,0,0,15.0841,15.0841,14.9159,14.9159,0.0431896,0.655569,10.7704,-0.184272,0.183266,0.288433,1,0,0,3.4825,0.2975,-0.9275,-0.213866,0.194468,-0.726388,-0.22596,0.063,0.3836
-0.0989859,0,0,15.099,15.099,14.901,14.901,0.04348,0.656069,10.77,-0.184281,0.183271,0.288433,1,0,0,3.605,0.4725,-1.12,-0.213866,0.194468,-0.726388,-0.2282,0.0623,0.39214
-17.3533,0,0,32.3533,32.3533,1,1,0.295772,0.886371,10.698,0.132544,-0.218275,0.00828941,0,0,0,3.6575,0.385,-1.085,0.108336,-0.21106,-1.0043,-0.2282,0.0623,0.39214
-17.4219,0,0,32.4219,32.4219,1,1,0.542432,1.10966,10.6284,0.128647,-0.213972,0.00819005,0,0,0,3.43,0.21,-0.7875,0.108336,-0.21106,-1.0043,-0.2282,0.0623,0.39214
-0.99615,0,0,15.9962,15.9962,14.0038,14.0038,0.542698,1.10977,10.6285,-0.0137357,0.213843,-0.214962,1,0,0,3.5875,0.245,-0.8225,-0.034648,0.216306,-1.22573,-0.2282,0.0623,0.39214
-1.01115,0,0,16.0112,16.0112,13.9888,13.9888,0.543175,1.10977,10.6283,-0.0137356,0.213851,-0.214962,1,0,0,3.71,0.175,-1.05,-0.034648,0.216306,-1.22573,-0.2282,0.0623,0.39214
-1.00366,0,0,16.0037,16.0037,13.9963,13.9963,0.543528,1.10967,10.6281,-0.193533,-0.144829,0.405559,1,0,0,3.64,0.1225,-0.9975,-0.215208,-0.142008,-0.61,-0.2282,0.0623,0.39214
-1.03241,0,0,16.0324,16.0324,13.9676,13.9676,0.544291,1.11032,10.6281,-0.193544,-0.144815,0.405559,1,0,0,3.8675,0.56,-0.8925,-0.215208,-0.142008,-0.61,-0.2282,0.0623,0.39214
-1.03185,0,0,16.0318,16.0318,13.9682,13.9682,0.545025,1.11103,10.6281,0.256062,0.123388,-0.47008,1,0,0,3.85,0.595,-0.84,0.236314,0.125904,-1.47888,-0.2282,0.0623,0.39214
-0.990619,0,0,15.9906,15.9906,14.0094,14.0094,0.545136,1.11105,10.6283,0.256062,0.12339,-0.470081,1,0,0,3.5,0.1925,-0.7875,0.236314,0.125904,-1.47888,-0.22792,0.06342,0.3983
-1.00997,0,0,16.01,16.01,13.99,13.99,0.545525,1.11104,10.6284,-0.297305,0.0525629,0.480434,1,0,0,3.6575,0.175,-0.8575,-0.319396,0.055144,-0.535702,-0.22792,0.06342,0.3983
-0.969957,0,0,15.97,15.97,14.03,14.03,0.545319,1.11133,10.6282,-0.29731,0.0525593,0.480434,1,0,0,3.325,0.35,-0.945,-0.319396,0.055144,-0.535702,-0.22792,0.06342,0.3983
-0.982649,0,0,15.9826,15.9826,14.0174,14.0174,0.545302,1.11153,10.6283,0.226532,-0.0704226,-0.474261,1,0,0,3.43,0.2975,-0.875,0.206668,-0.06771,-1.48303,-0.22792,0.06342,0.3983
-0.987253,0,0,15.9873,15.9873,14.0127,14.0127,0.545352,1.1117,10.6285,0.226529,-0.0704217,-0.474261,1,0,0,3.465,0.28,-0.7525,0.206668,-0.06771,-1.48303,-0.22792,0.06342,0.3983
-1.01718,0,0,16.0172,16.0172,13.9828,13.9828,0.545836,1.11184,10.6286,-0.237184,0.14685,0.420312,1,0,0,3.71,0.2625,-0.8225,-0.259006,0.149328,-0.59536,-0.22792,0.06342,0.3983
-0.977613,0,0,15.9776,15.9776,14.0224,14.0224,0.545729,1.11203,10.6288,-0.237187,0.146848,0.420312,1,0,0,3.3775,0.2975,-0.7875,-0.259006,0.149328,-0.59536,-0.22792,0.06342,0.3983
-0.962304,0,0,15.9623,15.9623,14.0377,14.0377,0.545399,1.11233,10.6288,0.178532,-0.139545,-0.294511,1,0,0,3.255,0.35,-0.8925,0.158478,-0.136762,-1.30467,-0.22792,0.06342,0.3983
-0.961792,0,0,15.9618,15.9618,14.0382,14.0382,0.54507,1.11262,10.6287,0.178526,-0.13955,-0.294511,1,0,0,3.255,0.35,-0.8925,0.158478,-0.136762,-1.30467,-0.22792,0.06342,0.3983
-0.993053,0,0,15.9931,15.9931,14.0069,14.0069,0.545205,1.11249,10.6285,-0.106963,0.156854,0.192365,1,0,0,3.5175,0.105,-1.015,-0.128222,0.159332,-0.821548,-0.22456,0.06524,0.3871
-0.973829,0,0,15.9738,15.9738,14.0262,14.0262,0.545054,1.11272,10.6281,-0.240723,-0.0510088,0.344699,1,0,0,3.36,0.315,-1.155,-0.262544,-0.048312,-0.67039,-0.22456,0.06524,0.3871
-0.963389,0,0,15.9634,15.9634,14.0366,14.0366,0.544753,1.11275,10.6279,-0.240723,-0.051014,0.344699,1,0,0,3.2725,0.1925,-0.9625,-0.262544,-0.048312,-0.67039,-0.22456,0.06524,0.3871
-0.982364,0,0,15.9824,15.9824,14.0176,14.0176,0.544736,1.1128,10.6279,0.307906,-0.00497253,-0.382173,1,0,0,3.43,0.21,-0.875,0.288408,-0.002318,-1.39165,-0.22456,0.06524,0.3871
-0.982415,0,0,15.9824,15.9824,14.0176,14.0176,0.544719,1.11285,10.628,0.307905,-0.00497283,-0.382173,1,0,0,3.43,0.21,-0.875,0.288408,-0.002318,-1.39165,-0.22456,0.06524,0.3871
-0.995127,0,0,15.9951,15.9951,14.0049,14.0049,0.544887,1.11272,10.6279,-0.360386,0.0836941,0.38896,1,0,0,3.535,0.105,-0.945,-0.382714,0.086254,-0.62647,-0.22456,0.06524,0.3871
-0.995512,0,0,15.9955,15.9955,14.0045,14.0045,0.545056,1.11259,10.6277,-0.360384,0.0836971,0.38896,1,0,0,3.535,0.105,-0.945,-0.382714,0.086254,-0.62647,-0.22456,0.06524,0.3871
-0.985011,0,0,15.985,15.985,14.015,14.015,0.545065,1.11247,10.6275,0.244739,-0.124407,-0.240167,1,0,0,3.4475,0.105,-1.0325,0.224968,-0.121634,-1.25074,-0.22232,0.06832,0.38458
7.03968,0,0,7.96032,7.96032,22.0397,22.0397,0.427867,1.03155,10.7715,-0.0450505,0.105711,-0.0399634,0,0,0,3.7625,0.105,-0.9275,-0.067466,0.110288,-1.05213,-0.22232,0.06832,0.38458
7.09431,0,0,7.90569,7.90569,22.0943,22.0943,0.312951,0.952938,10.915,-0.0436786,0.103706,-0.0399266,0,0,0,3.7625,0.105,-0.9275,-0.067466,0.110288,-1.05213,-0.22232,0.06832,0.38458
-0.571843,0,0,15.5718,15.5718,14.4282,14.4282,0.313026,0.952871,10.9149,-0.169537,-0.0494394,0.25515,1,0,0,3.4825,0.14,-0.9625,-0.193858,-0.0427,-0.759328,-0.22232,0.06832,0.38458
-0.572023,0,0,15.572,15.572,14.428,14.428,0.3131,0.952803,10.9148,-0.169535,-0.0494381,0.25515,1,0,0,3.4825,0.14,-0.9625,-0.193858,-0.0427,-0.759328,-0.22232,0.06832,0.38458
-0.551005,0,0,15.551,15.551,14.449,14.449,0.312865,0.952914,10.9148,0.227964,-0.00388898,-0.272914,1,0,0,3.3075,0.245,-0.875,0.205326,0.002806,-1.28332,-0.22232,0.06832,0.38458
-0.550628,0,0,15.5506,15.5506,14.4494,14.4494,0.312629,0.953025,10.9148,0.227962,-0.00389308,-0.272914,1,0,0,3.3075,0.245,-0.875,0.205326,0.002806,-1.28332,-0.22232,0.06832,0.38458
-0.571624,0,0,15.5716,15.5716,14.4284,14.4284,0.312706,0.953345,10.9148,-0.257743,0.030548,0.300395,1,0,0,3.4825,0.3675,-0.875,-0.28243,0.03721,-0.714432,-0.22232,0.06832,0.38458
-0.571809,0,0,15.5718,15.5718,14.4282,14.4282,0.312783,0.953665,10.9148,-0.257749,0.0305493,0.300395,1,0,0,3.4825,0.3675,-0.875,-0.28243,0.03721,-0.714432,-0.22498,0.06482,0.3878
-0.621146,0,0,15.6211,15.6211,14.3789,14.3789,0.313578,0.953716,10.9148,0.317363,-0.0232947,-0.302545,1,0,0,3.885,0.21,-0.875,0.295118,-0.016592,-1.31272,-0.22498,0.06482,0.3878
-0.622624,0,0,15.6226,15.6226,14.3774,14.3774,0.314372,0.953767,10.9149,0.317362,-0.0232808,-0.302545,1,0,0,3.885,0.21,-0.875,0.295118,-0.016592,-1.31272,-0.22498,0.06482,0.3878
-0.572981,0,0,15.573,15.573,14.427,14.427,0.31442,0.953757,10.915,-0.397581,0.0504846,0.281706,1,0,0,3.465,0.175,-0.7875,-0.422852,0.057096,-0.732976,-0.22498,0.06482,0.3878
-4.36367,0,0,19.3637,19.3637,10.6363,10.6363,0.369832,1.16655,10.8566,0.137131,-0.0395333,0.0290955,0,0,0,3.3775,0.315,-0.7525,0.117852,-0.033794,-0.983564,-0.22498,0.06482,0.3878
-4.37361,0,0,19.3736,19.3736,10.6264,10.6264,0.423931,1.37327,10.7988,0.133524,-0.0385899,0.029009,0,0,0,3.4125,-0.035,-0.7525,0.117852,-0.033794,-0.983564,-0.22498,0.06482,0.3878
-0.770744,0,0,15.7707,15.7707,14.2293,14.2293,0.423984,1.37302,10.7992,0.0124067,-0.0107441,-0.180003,1,0,0,3.465,0.035,-0.6825,-0.003782,-0.005978,-1.19096,-0.22498,0.06482,0.3878
-0.787855,0,0,15.7879,15.7879,14.2121,14.2121,0.424285,1.37289,10.7994,0.012409,-0.0107389,-0.180003,1,0,0,3.605,0.105,-0.735,-0.003782,-0.005978,-1.19096,-0.22498,0.06482,0.3878
-0.792982,0,0,15.793,15.793,14.207,14.207,0.424653,1.37282,10.7998,-0.174921,0.0206541,0.25462,1,0,0,3.64,0.14,-0.6475,-0.191906,0.025376,-0.759694,-0.2247,0.06706,0.39382
-0.780544,0,0,15.7805,15.7805,14.2195,14.2195,0.424828,1.37314,10.8,0.326445,-0.055672,-0.150373,1,0,0,3.535,0.3675,-0.77,0.311588,-0.050874,-1.16156,-0.2247,0.06706,0.39382
-0.778632,0,0,15.7786,15.7786,14.2214,14.2214,0.424969,1.37298,10.8001,0.326448,-0.0556696,-0.150373,1,0,0,3.5175,0.0875,-0.8225,0.311588,-0.050874,-1.16156,-0.2247,0.06706,0.39382
4.47791,0,0,10.5221,10.5221,19.4779,19.4779,0.348331,0.959997,11.1603,-0.284586,0.0514427,0.0078947,0,0,0,3.675,-0.0525,-0.9625,-0.30927,0.057462,-1.00467,-0.2247,0.06706,0.39382
4.5123,0,0,10.4877,10.4877,19.5123,19.5123,0.273204,0.557498,11.5186,-0.277562,0.0501321,0.00799484,0,0,0,3.7975,0.0525,-0.91,-0.30927,0.057462,-1.00467,-0.2247,0.06706,0.39382
-1.43226,0,0,16.4323,16.4323,13.5677,13.5677,0.286877,0.86352,11.3952,0.191985,0.00237461,0.100385,0,0,0,3.6925,0.21,-1.0325,0.167628,0.009516,-0.912926,-0.2247,0.06706,0.39382
-1.36542,0,0,16.3654,16.3654,13.6346,13.6346,0.299213,1.16244,11.2727,0.186768,0.00258941,0.100291,0,0,0,3.3775,0.42,-0.9975,0.167628,0.009516,-0.912926,-0.2247,0.06706,0.39382
-0.533201,0,0,15.5332,15.5332,14.4668,14.4668,0.299069,1.1624,11.2726,-0.200284,0.00136563,-0.181629,1,0,0,3.36,0.1575,-0.945,-0.221064,0.008296,-1.19267,-0.2247,0.06706,0.39382
-0.543879,0,0,15.5439,15.5439,14.4561,14.4561,0.299084,1.16227,11.2726,-0.200282,0.00136589,-0.181629,1,0,0,3.4475,0.105,-0.8575,-0.221064,0.008296,-1.19267,-0.2226,0.06314,0.38934
-0.534777,0,0,15.5348,15.5348,14.4652,14.4652,0.298965,1.16197,11.2722,0.0581234,0.085387,0.260371,1,0,0,3.3775,0,-1.12,0.03843,0.092232,-0.754082,-0.2226,0.06314,0.38934
-0.560629,0,0,15.5606,15.5606,14.4394,14.4394,0.299226,1.16184,11.2721,0.0581256,0.0853916,0.260371,1,0,0,3.5875,0.105,-0.9625,0.03843,0.092232,-0.754082,-0.2226,0.06314,0.38934
-0.554691,0,0,15.5547,15.5547,14.4453,14.4453,0.299393,1.16177,11.2719,-0.0237546,-0.0841174,-0.195768,1,0,0,3.535,0.14,-0.98,-0.043798,-0.077104,-1.2067,-0.2226,0.06314,0.38934
-0.534085,0,0,15.5341,15.5341,14.4659,14.4659,0.299253,1.16215,11.272,-0.0237612,-0.0841199,-0.195769,1,0,0,3.36,0.4025,-0.805,-0.043798,-0.077104,-1.2067,-0.2226,0.06314,0.38934
-0.550851,0,0,15.5509,15.5509,14.4491,14.4491,0.299362,1.16253,11.2721,-0.11306,0.103591,0.247215,1,0,0,3.5,0.4025,-0.8575,-0.133468,0.11041,-0.767136,-0.2226,0.06314,0.38934
-0.544385,0,0,15.5444,15.5444,14.4556,14.4556,0.299373,1.16243,11.2719,-0.113058,0.103591,0.247215,1,0,0,3.4475,0.1225,-0.98,-0.133468,0.11041,-0.767136,-0.2226,0.06314,0.38934
-0.523203,0,0,15.5232,15.5232,14.4768,14.4768,0.299073,1.16234,11.2718,0.140363,-0.172543,-0.141548,1,0,0,3.2725,0.1225,-0.9275,0.121024,-0.165432,-1.1529,-0.2226,0.06314,0.38934
-0.537668,0,0,15.5377,15.5377,14.4623,14.4623,0.298992,1.16218,11.2718,0.140366,-0.172544,-0.141548,1,0,0,3.395,0.0875,-0.9275,0.121024,-0.165432,-1.1529,-0.22386,0.06286,0.39242
6.95774,0,0,8.04226,8.04226,21.9577,21.9577,0.189437,0.875512,11.5577,-0.179606,0.0811557,0.0655942,0,0,0,3.5,0.105,-0.945,-0.205326,0.089914,-0.947452,-0.22386,0.06286,0.39242
6.99757,0,0,8.00243,8.00243,21.9976,21.9976,0.0821811,0.596424,11.8424,-0.174736,0.079284,0.0656612,0,0,0,3.64,0.2625,-1.015,-0.205326,0.089914,-0.947452,-0.22386,0.06286,0.39242
-7.1847,0,0,22.1847,22.1847,7.8153,7.8153,0.184885,0.793447,11.7921,0.119466,-0.0787876,0.059099,0,0,0,3.5875,0.105,-0.9625,0.093574,-0.069784,-0.953918,-0.22386,0.06286,0.39242
-7.21464,0,0,22.2146,22.2146,7.78536,7.78536,0.285326,0.985295,11.7426,0.116118,-0.077035,0.0590399,0,0,0,3.5875,0.105,-0.9625,0.093574,-0.069784,-0.953918,-0.22386,0.06286,0.39242
-0.542839,0,0,15.5428,15.5428,14.4572,14.4572,0.28568,0.985437,11.7423,-0.198654,-0.0217054,-0.166079,1,0,0,3.64,0.2625,-1.015,-0.222528,-0.014518,-1.1773,-0.22386,0.06286,0.39242
-0.543518,0,0,15.5435,15.5435,14.4565,14.4565,0.286033,0.985578,11.7421,-0.198656,-0.0216992,-0.166079,1,0,0,3.64,0.2625,-1.015,-0.222528,-0.014518,-1.1773,-0.22386,0.06286,0.39242
-0.518762,0,0,15.5188,15.5188,14.4812,14.4812,0.286015,0.985421,11.7421,0.185606,0.00883213,0.239405,1,0,0,3.43,0.0875,-0.91,0.163358,0.015982,-0.774944,-0.22386,0.06286,0.39242
-0.518773,0,0,15.5188,15.5188,14.4812,14.4812,0.285998,0.985263,11.742,0.185608,0.00883182,0.239405,1,0,0,3.43,0.0875,-0.91,0.163358,0.015982,-0.774944,-0.22386,0.06286,0.39242
-0.50183,0,0,15.5018,15.5018,14.4982,14.4982,0.285732,0.985523,11.7421,-0.175695,-0.0932708,-0.240586,1,0,0,3.29,0.3325,-0.84,-0.19947,-0.08601,-1.25123,-0.22316,0.06076,0.38332
-0.516355,0,0,15.5164,15.5164,14.4836,14.4836,0.285685,0.985813,11.7422,0.0350779,0.217663,0.175595,1,0,0,3.4125,0.35,-0.84,0.0122,0.224602,-0.838262,-0.22316,0.06076,0.38332
-0.516313,0,0,15.5163,15.5163,14.4837,14.4837,0.285638,0.986102,11.7423,0.0350728,0.217662,0.175595,1,0,0,3.4125,0.35,-0.84,0.0122,0.224602,-0.838262,-0.22316,0.06076,0.38332
-17.4851,0,0,32.4851,32.4851,1,1,0.533432,0.92704,11.8533,-0.0708039,-0.240507,-0.0306036,0,0,0,3.535,0.175,-0.9625,-0.09516,-0.237412,-1.04286,-0.22316,0.06076,0.38332
-17.6191,0,0,32.6191,32.6191,1,1,0.776666,0.868646,11.963,-0.0697848,-0.236263,-0.0306361,0,0,0,3.535,0.175,-0.9625,-0.09516,-0.237412,-1.04286,-0.22316,0.06076,0.38332
11.7543,0,0,3.24568,3.24568,26.7543,26.7543,0.584486,0.885484,12.0524,0.0340346,0.182087,-0.0303549,0,0,0,3.5875,0.1575,-0.9625,0.009394,0.183854,-1.04261,-0.22316,0.06076,0.38332
-1.11212,0,0,16.1121,16.1121,13.8879,13.8879,0.58528,0.885147,12.0523,0.00354753,0.0522803,0.199682,1,0,0,3.885,-0.0175,-0.8925,-0.021228,0.054168,-0.81435,-0.22316,0.06076,0.38332
-1.10053,0,0,16.1005,16.1005,13.8995,13.8995,0.585883,0.885111,12.0521,0.00354815,0.0522908,0.199682,1,0,0,3.78,0.1575,-1.05,-0.021228,0.054168,-0.81435,-0.22442,0.06538,0.37814
-1.07179,0,0,16.0718,16.0718,13.9282,13.9282,0.586049,0.885076,12.0518,-0.00774939,-0.091938,-0.263957,1,0,0,3.535,0.1575,-1.05,-0.032574,-0.089914,-1.27441,-0.22442,0.06538,0.37814
-1.0745,0,0,16.0745,16.0745,13.9255,13.9255,0.586248,0.884949,12.0517,-0.00774718,-0.0919345,-0.263957,1,0,0,3.5525,0.105,-0.945,-0.032574,-0.089914,-1.27441,-0.22442,0.06538,0.37814
-1.02346,0,0,16.0235,16.0235,13.9765,13.9765,0.585696,0.884824,12.0514,-0.0354437,0.202503,0.32595,1,0,0,3.1325,0.105,-1.05,-0.06039,0.204228,-0.689056,-0.22442,0.06538,0.37814
-1.08017,0,0,16.0802,16.0802,13.9198,13.9198,0.585985,0.8847,12.051,-0.0354416,0.202509,0.32595,1,0,0,3.605,0.105,-1.1025,-0.06039,0.204228,-0.689056,-0.22442,0.06538,0.37814
-1.09363,0,0,16.0936,16.0936,13.9064,13.9064,0.586462,0.884515,12.0507,0.12711,-0.163497,-0.234695,1,0,0,3.71,0.07,-1.085,0.102846,-0.161406,-1.24538,-0.22442,0.06538,0.37814
-1.09021,0,0,16.0902,16.0902,13.9098,13.9098,0.586876,0.88484,12.0502,0.127104,-0.16349,-0.234696,1,0,0,3.675,0.3675,-1.1375,0.102846,-0.161406,-1.24538,-0.22442,0.06538,0.37814
-1.07828,0,0,16.0783,16.0783,13.9217,13.9217,0.587103,0.885253,12.0499,-0.0369091,0.147082,0.227714,1,0,0,3.57,0.42,-1.1025,-0.061854,0.14884,-0.786534,-0.22442,0.06538,0.37814
-1.08123,0,0,16.0812,16.0812,13.9188,13.9188,0.587365,0.884887,12.0498,-0.0369027,0.147087,0.227714,1,0,0,3.5875,-0.035,-0.9275,-0.061854,0.14884,-0.786534,-0.22442,0.06538,0.37814
-15.2954,0,0,30.2954,30.2954,1,1,0.795226,0.987732,12.0415,0.0503516,-0.183669,0.0170298,0,0,0,3.5875,0.0525,-1.0325,0.027572,-0.185196,-0.99552,-0.22484,0.06692,0.38038
-1.42869,0,0,16.4287,16.4287,13.5713,13.5713,0.795088,0.98769,12.0418,-0.103692,0.0127082,-0.220015,1,0,0,3.36,0.1575,-0.735,-0.127124,0.01098,-1.23074,-0.22484,0.06692,0.38038
-1.44958,0,0,16.4496,16.4496,13.5504,13.5504,0.795257,0.987593,12.0417,-0.10369,0.0127111,-0.220015,1,0,0,3.535,0.1225,-0.91,-0.127124,0.01098,-1.23074,-0.22484,0.06692,0.38038
24.3465,0,0,1,1,39.3465,39.3465,0.418652,0.404365,12.5269,-0.377423,0.318785,0.0982461,0,0,0,3.535,0.175,-0.9975,-0.412238,0.3233,-0.915122,-0.22484,0.06692,0.38038
24.6629,0,0,1,1,39.6629,39.6629,0.0473273,-0.164509,13.0153,-0.367495,0.312304,0.0982933,0,0,0,3.4475,0.8225,-1.085,-0.412238,0.3233,-0.915122,-0.22484,0.06692,0.38038
-0.123103,0,0,15.1231,15.1231,14.8769,14.8769,0.0477803,-0.164696,13.0146,-0.525423,-0.214909,-0.513007,1,0,0,3.6925,0.07,-1.2775,-0.570838,-0.203374,-1.52171,-0.22484,0.06692,0.38038
-0.09818,0,0,15.0982,15.0982,14.9018,14.9018,0.0478573,-0.164048,13.0145,-0.525434,-0.214908,-0.513007,1,0,0,3.4825,0.56,-0.98,-0.570838,-0.203374,-1.52171,-0.22484,0.06692,0.38038
-0.0127351,0,0,15.0127,15.0127,14.9873,14.9873,0.0466842,-0.163579,13.0148,0.243441,-0.0594608,0.169235,1,0,0,2.7825,0.455,-0.665,0.2013,-0.048068,-0.844728,-0.22484,0.06692,0.38038
-0.16886,0,0,15.1689,15.1689,14.8311,14.8311,0.0478221,-0.164364,13.0148,0.243454,-0.0594409,0.169235,1,0,0,4.0775,-0.28,-0.91,0.2013,-0.048068,-0.844728,-0.22624,0.06902,0.38976
-0.102586,0,0,15.1026,15.1026,14.8974,14.8974,0.047962,-0.164432,13.0145,0.176395,-0.260703,-0.189406,1,0,0,3.5175,0.14,-1.085,0.133956,-0.249124,-1.2006,-0.22624,0.06902,0.38976
-0.280056,0,0,15.2801,15.2801,14.7199,14.7199,0.0506902,-0.164471,13.015,0.176396,-0.260656,-0.189406,1,0,0,4.97,0.1575,-0.5775,0.133956,-0.249124,-1.2006,-0.22624,0.06902,0.38976
-0.255125,0,0,15.2551,15.2551,14.7449,14.7449,0.0529824,-0.163464,13.0151,-0.0312406,0.494128,-0.330797,1,0,0,4.725,0.77,-0.7875,-0.074542,0.504836,-1.3409,-0.22624,0.06902,0.38976
-0.201581,0,0,15.2016,15.2016,14.7984,14.7984,0.0544322,-0.160844,13.0152,-0.0312864,0.494153,-0.330797,1,0,0,4.2525,1.715,-0.8575,-0.074542,0.504836,-1.3409,-0.22624,0.06902,0.38976
-0.248878,0,0,15.2489,15.2489,14.7511,14.7511,0.0565346,-0.15933,13.0163,0.178129,-0.255913,-0.265634,1,0,0,4.62,1.0675,-0.245,0.135786,-0.244488,-1.27624,-0.22624,0.06902,0.38976
0.0291941,0,0,14.9708,14.9708,15.0292,15.0292,0.0545202,-0.159249,13.0162,0.178127,-0.255948,-0.265634,1,0,0,2.31,0.2275,-0.9625,0.135786,-0.244488,-1.27624,-0.22624,0.06902,0.38976
0.188925,0,0,14.8111,14.8111,15.1889,15.1889,0.0502256,-0.159407,13.0166,0.609161,-0.395614,-0.172931,1,0,0,1.0325,0.0875,-0.6475,0.568642,-0.383934,-1.18425,-0.22624,0.06902,0.38976
0.171377,0,0,14.8286,14.8286,15.1714,15.1714,0.0463001,-0.161658,13.0189,0.6092,-0.395682,-0.172931,1,0,0,1.2425,-1.1375,0.49,0.568642,-0.383934,-1.18425,-0.2205,0.06846,0.38794
0.0977618,0,0,14.9022,14.9022,15.0978,15.0978,0.0435529,-0.163215,13.013,-0.113977,-0.163812,-0.162726,1,0,0,1.89,-0.735,-4.34,-0.157624,-0.152256,-1.17413,-0.2205,0.06846,0.38794
-0.0927093,0,0,15.0927,15.0927,14.9073,14.9073,0.0436599,-0.163314,13.0133,-0.113975,-0.16381,-0.162726,1,0,0,3.5,0.1225,-0.7175,-0.157624,-0.152256,-1.17413,-0.2205,0.06846,0.38794
-0.180395,0,0,15.1804,15.1804,14.8196,14.8196,0.0450446,-0.16398,13.0143,-0.211273,0.110633,-0.24793,1,0,0,4.2175,-0.21,-0.315,-0.255346,0.121878,-1.25867,-0.2205,0.06846,0.38794
-0.193826,0,0,15.1938,15.1938,14.8062,14.8062,0.046589,-0.162764,13.014,-0.211295,0.11066,-0.24793,1,0,0,4.305,0.8925,-1.05,-0.255346,0.121878,-1.25867,-0.2205,0.06846,0.38794
5.42488,0,0,9.57512,9.57512,20.4249,20.4249,-0.0339721,-0.587213,13.3964,-0.288684,0.0506333,0.0620982,0,0,0,4.515,1.365,-0.525,-0.340502,0.063318,-0.95099,-0.2205,0.06846,0.38794
5.47826,0,0,9.52174,9.52174,20.4783,20.4783,-0.113195,-1.00137,13.7768,-0.281456,0.0492508,0.0619962,0,0,0,4.515,1.365,-0.525,-0.340502,0.063318,-0.95099,-0.2205,0.06846,0.38794
0.533419,0,0,14.4666,14.4666,15.5334,15.5334,-0.118111,-1.10058,13.9437,-0.0633588,-0.000662608,0.0925785,0,0,0,3.885,1.4525,-0.665,-0.12322,0.013542,-0.920612,-0.2205,0.06846,0.38794
0.520736,0,0,14.4793,14.4793,15.5207,15.5207,-0.122713,-1.19677,14.1096,-0.0616803,-0.000742842,0.0925446,0,0,0,3.885,1.4525,-0.665,-0.12322,0.013542,-0.920612,-0.217,0.06874,0.39382
0.337955,0,0,14.662,14.662,15.338,15.338,-0.124524,-1.198,14.1103,0.366092,-0.114719,-0.166508,1,0,0,2.4325,-0.5425,-0.4725,0.306342,-0.100284,-1.17767,-0.217,0.06874,0.39382
0.341235,0,0,14.6588,14.6588,15.3412,15.3412,-0.126336,-1.19923,14.111,0.366114,-0.11475,-0.166509,1,0,0,2.4325,-0.5425,-0.4725,0.306342,-0.100284,-1.17767,-0.217,0.06874,0.39382
0.342452,0,0,14.6575,14.6575,15.3425,15.3425,-0.128117,-1.20056,14.1103,0.0563484,0.0179704,-0.140198,1,0,0,2.4325,-0.595,-1.3125,-0.004758,0.03233,-1.15156,-0.217,0.06874,0.39382
7.90495,0,0,7.09505,7.09505,22.9049,22.9049,-0.240305,-1.77722,14.6061,-0.390255,0.0631548,0.114775,0,0,0,1.645,-0.6825,-0.945,-0.463356,0.079422,-0.898286,-0.217,0.06874,0.39382
7.99185,0,0,7.00815,7.00815,22.9918,22.9918,-0.350813,-2.33819,15.0969,-0.380471,0.0612292,0.114413,0,0,0,1.6625,0.6125,-2.485,-0.463356,0.079422,-0.898286,-0.217,0.06874,0.39382
3.87048,0,0,11.1295,11.1295,18.8705,18.8705,-0.39822,-2.10772,15.0562,0.183577,0.0611342,-0.0714571,0,0,0,3.4125,0.8225,-1.89,0.107116,0.080154,-1.08287,-0.217,0.06874,0.39382
3.28999,0,0,11.71,11.71,18.29,18.29,-0.4359,-1.88118,15.0158,0.179625,0.0604759,-0.0713243,0,0,0,8.5575,1.575,-1.715,0.107116,0.080154,-1.08287,-0.217,0.06874,0.39382
-14.6388,0,0,29.6388,29.6388,1,1,-0.210729,-1.60681,14.891,0.178727,-0.196337,-0.0366079,0,0,0,5.5825,1.365,-1.925,0.11102,-0.180316,-1.04859,-0.22022,0.0728,0.39802
4.16741,0,0,10.8326,10.8326,19.1674,19.1674,-0.266153,-1.61736,14.9991,-0.000888259,0.0523227,0.00506245,0,0,0,5.25,0.5775,-1.2425,-0.06954,0.069052,-1.00723,-0.22022,0.0728,0.39802
4.26553,0,0,10.7345,10.7345,19.2655,19.2655,-0.321553,-1.62962,15.1069,-0.000674295,0.0513563,0.00505143,0,0,0,4.6725,-0.6825,-1.0675,-0.06954,0.069052,-1.00723,-0.22022,0.0728,0.39802
3.77678,0,0,11.2232,11.2232,18.7768,18.7768,-0.368356,-2.15546,15.5529,-0.394834,0.0109726,0.0290872,0,0,0,3.9375,-1.0325,-1.68,-0.47458,0.029524,-0.983076,-0.22022,0.0728,0.39802
4.00983,0,0,10.9902,10.9902,19.0098,19.0098,-0.417332,-2.66891,15.9956,-0.385881,0.0101212,0.0287042,0,0,0,2.31,-1.015,-1.68,-0.47458,0.029524,-0.983076,-0.22022,0.0728,0.39802
1.02367,0,0,13.9763,13.9763,16.0237,16.0237,-0.421405,-2.67009,15.9942,0.0857473,0.0391163,0.309886,1,0,0,1.12,-0.5075,-1.6975,-0.000976,0.05856,-0.704062,-0.22022,0.0728,0.39802
1.13252,0,0,13.8675,13.8675,16.1325,16.1325,-0.42696,-2.67232,15.9925,0.0857862,0.0390195,0.309883,1,0,0,0.28,-1.12,-1.9075,-0.000976,0.05856,-0.704062,-0.22022,0.0728,0.39802
13.8619,0,0,1.13814,1.13814,28.8619,28.8619,-0.618287,-3.25402,16.5098,-0.36402,0.119835,0.173101,0,0,0,0.875,0.6125,-1.82,-0.462868,0.142618,-0.839238,-0.22022,0.0728,0.39802
13.8221,0,0,1.17786,1.17786,28.8221,28.8221,-0.804003,-3.81592,17.0226,-0.354231,0.116608,0.172456,0,0,0,1.715,1.47,-1.295,-0.462868,0.142618,-0.839238,-0.2142,0.07826,0.40012
1.2445,0,0,13.7555,13.7555,16.2445,16.2445,-0.80113,-3.81353,17.0214,0.437085,-0.147991,-0.371587,1,0,0,5.005,1.5925,-1.575,0.33184,-0.121756,-1.37909,-0.2142,0.07826,0.40012
1.0189,0,0,13.9811,13.9811,16.0189,16.0189,-0.795035,-3.81401,17.0219,0.437093,-0.147885,-0.371586,1,0,0,6.8775,-0.105,-0.56,0.33184,-0.121756,-1.37909,-0.2142,0.07826,0.40012
1.00905,0,0,13.9909,13.9909,16.0091,16.0091,-0.788955,-3.8152,17.0227,-0.632446,-0.0887918,0.088856,1,0,0,6.8775,-0.525,-0.4375,-0.742248,-0.06283,-0.922198,-0.2142,0.07826,0.40012
0.965052,0,0,14.0349,14.0349,15.9651,15.9651,-0.782391,-3.81473,17.0228,-0.632454,-0.0886775,0.0888581,1,0,0,7.1225,0.455,-0.84,-0.742248,-0.06283,-0.922198,-0.2142,0.07826,0.40012
1.10982,0,0,13.8902,13.8902,16.1098,16.1098,-0.778112,-3.81541,17.0239,0.312352,-0.0225324,0.136071,1,0,0,5.88,-0.2275,-0.245,0.206546,0.003172,-0.87535,-0.2142,0.07826,0.40012
1.29625,0,0,13.7037,13.7037,16.2963,16.2963,-0.776666,-3.81625,17.0244,0.312366,-0.0225072,0.13607,1,0,0,4.27,-0.315,-0.5775,0.206546,0.003172,-0.87535,-0.2142,0.07826,0.40012
1.78722,0,0,13.2128,13.2128,16.7872,16.7872,-0.782428,-3.81659,17.0245,0.262806,-0.0867241,0.176026,1,0,0,0.21,-0.0175,-0.875,0.15677,-0.060878,-0.8357,-0.2142,0.07826,0.40012
1.98554,0,0,13.0145,13.0145,16.9855,16.9855,-0.790933,-3.81705,17.0258,0.262814,-0.0868722,0.176024,1,0,0,-1.2775,-0.105,-0.0875,0.15677,-0.060878,-0.8357,-0.224,0.07434,0.40306
4.97299,0,0,10.027,10.027,19.973,19.973,-0.842847,-3.79777,17.136,0.0209648,0.0367928,0.0495193,0,0,0,-1.61,1.365,-0.665,-0.085766,0.063562,-0.961238,-0.224,0.07434,0.40306
4.78478,0,0,10.2152,10.2152,19.7848,19.7848,-0.890645,-3.77961,17.2466,0.0206484,0.0359602,0.0495277,0,0,0,0.1925,0.8575,-0.035,-0.085766,0.063562,-0.961238,-0.224,0.07434,0.40306
1.39629,0,0,13.6037,13.6037,16.3963,16.3963,-0.887693,-3.77938,17.248,0.0143273,0.0372328,-0.193295,1,0,0,5.145,0.2975,-0.0875,-0.09211,0.064782,-1.20219,-0.224,0.07434,0.40306
1.33616,0,0,13.6638,13.6638,16.3362,16.3362,-0.883938,-3.7782,17.2495,0.0143068,0.0372982,-0.193292,1,0,0,5.6,0.8575,0,-0.09211,0.064782,-1.20219,-0.224,0.07434,0.40306
13.1465,0,0,1.85352,1.85352,28.1465,28.1465,-1.05278,-3.76797,17.3889,0.0310151,0.167354,-0.0414888,0,0,0,6.79,0.1225,0.14,-0.075152,0.19764,-1.05152,-0.224,0.07434,0.40306
13.3135,0,0,1.68652,1.68652,28.3135,28.3135,-1.21961,-3.75747,17.5264,0.0308322,0.164449,-0.0415343,0,0,0,6.09,0.0875,-0.595,-0.075152,0.19764,-1.05152,-0.224,0.07434,0.40306
1.91123,0,0,13.0888,13.0888,16.9112,16.9112,-1.21553,-3.75831,17.5266,0.0909823,-0.0142736,0.249485,1,0,0,5.74,-0.315,-0.77,-0.014762,0.019032,-0.762744,-0.224,0.07434,0.40306
2.58031,0,0,12.4197,12.4197,17.5803,17.5803,-1.22131,-3.75891,17.527,0.0909927,-0.0143743,0.249482,1,0,0,0.21,-0.175,-0.6475,-0.014762,0.019032,-0.762744,-0.21924,0.07532,0.40544
2.49758,0,0,12.5024,12.5024,17.4976,17.4976,-1.22574,-3.75977,17.5276,-0.633411,0.0190114,0.129236,1,0,0,0.98,-0.3325,-0.56,-0.742248,0.05246,-0.88206,-0.21924,0.07532,0.40544
2.07772,0,0,12.9223,12.9223,17.0777,17.0777,-1.22391,-3.75928,17.5271,-0.63342,0.0190432,0.129237,1,0,0,4.445,0.4725,-1.1725,-0.742248,0.05246,-0.88206,-0.21924,0.07532,0.40544
26.2362,0,0,1,1,41.2362,41.2362,-1.57498,-3.61557,17.6028,0.156042,0.310427,0.0923648,0,0,0,1.5225,0.6125,-1.33,0.05307,0.349652,-0.91866,-0.21924,0.07532,0.40544
26.407,0,0,1,1,41.407,41.407,-1.91931,-3.47327,17.6774,0.153563,0.304427,0.0923354,0,0,0,1.82,0.945,-1.3475,0.05307,0.349652,-0.91866,-0.21924,0.07532,0.40544
3.29947,0,0,11.7005,11.7005,18.2995,18.2995,-1.91708,-3.4719,17.6764,0.178566,-0.0549531,-0.154665,1,0,0,4.655,0.9975,-1.435,0.078202,-0.009394,-1.16376,-0.21924,0.07532,0.40544
3.20658,0,0,11.7934,11.7934,18.2066,18.2066,-1.91355,-3.47133,17.676,0.178556,-0.0548917,-0.154663,1,0,0,5.4075,0.525,-1.0675,0.078202,-0.009394,-1.16376,-0.21924,0.07532,0.40544
-7.61851,0,0,22.6185,22.6185,7.38149,7.38149,-1.752,-3.08258,17.4806,0.266905,-0.117062,0.046221,0,0,0,5.5475,-0.4025,-0.98,0.173728,-0.074298,-0.964898,-0.21924,0.07532,0.40544
-7.00783,0,0,22.0078,22.0078,7.99217,7.99217,-1.60362,-2.70374,17.2869,0.260301,-0.114486,0.0466303,0,0,0,0.4025,-0.84,-1.4175,0.173728,-0.074298,-0.964898,-0.21924,0.07532,0.40544
3.05694,0,0,11.9431,11.9431,18.0569,18.0569,-1.60613,-2.70529,17.2862,0.0105539,0.0338538,0.250231,1,0,0,2.0125,-0.7175,-1.295,-0.077104,0.073932,-0.762866,-0.22092,0.07406,0.41048
3.25723,0,0,11.7428,11.7428,18.2572,18.2572,-1.6115,-2.70658,17.2852,0.0105764,0.0337603,0.250227,1,0,0,0.4025,-0.56,-1.4875,-0.077104,0.073932,-0.762866,-0.22092,0.07406,0.41048
3.22591,0,0,11.7741,11.7741,18.2259,18.2259,-1.61627,-2.70749,17.284,-0.0963152,0.260467,0.166496,1,0,0,0.735,-0.3325,-1.5925,-0.184464,0.300486,-0.845948,-0.22092,0.07406,0.41048
3.12468,0,0,11.8753,11.8753,18.1247,18.1247,-1.61943,-2.70734,17.2832,-0.0963177,0.260411,0.166494,1,0,0,1.645,0.28,-1.3825,-0.184464,0.300486,-0.845948,-0.22092,0.07406,0.41048
7.46143,0,0,7.53857,7.53857,22.4614,22.4614,-1.68584,-2.5911,17.3138,0.0990699,0.0756948,-0.0730719,0,0,0,3.815,0.63,-1.365,0.013786,0.11712,-1.08373,-0.22092,0.07406,0.41048
7.2248,0,0,7.7752,7.7752,22.2248,22.2248,-1.74705,-2.47595,17.3448,0.097062,0.0746254,-0.073015,0,0,0,6.125,1.4175,-0.945,0.013786,0.11712,-1.08373,-0.22092,0.07406,0.41048
2.57285,0,0,12.4271,12.4271,17.5729,17.5729,-1.7387,-2.47384,17.3448,0.222763,-0.0681174,-0.170015,1,0,0,8.12,1.4175,-0.8575,0.140056,-0.02562,-1.17998,-0.22092,0.07406,0.41048
2.83908,0,0,12.1609,12.1609,17.8391,17.8391,-1.73446,-2.47336,17.3458,0.222755,-0.0680434,-0.170013,1,0,0,5.845,0.4375,-0.2625,0.140056,-0.02562,-1.17998,-0.22092,0.07406,0.41048
2.93319,0,0,12.0668,12.0668,17.9332,17.9332,-1.7317,-2.47378,17.3472,0.0600926,-0.232622,0.142892,1,0,0,5.0225,-0.0875,-0.07,-0.023302,-0.190076,-0.869494,-0.22092,0.0735,0.40712
3.28135,0,0,11.7186,11.7186,18.2814,18.2814,-1.73409,-2.47484,17.348,0.0937626,-0.0531375,0.184816,1,0,0,2.1175,-0.455,-0.455,0.010492,-0.010736,-0.827892,-0.22092,0.0735,0.40712
3.60637,0,0,11.3936,11.3936,18.6064,18.6064,-1.74116,-2.47563,17.3487,0.0937764,-0.0532607,0.184811,1,0,0,-0.5075,-0.2975,-0.4725,0.010492,-0.010736,-0.827892,-0.22092,0.0735,0.40712
-15.9122,0,0,30.9122,30.9122,1,1,-1.46296,-2.26187,17.2406,0.120785,-0.239788,0.0627673,0,0,0,-1.0325,0.0875,-0.595,0.041358,-0.20191,-0.949282,-0.22092,0.0735,0.40712
-16.2704,0,0,31.2704,31.2704,1,1,-1.18684,-2.05351,17.1346,0.117151,-0.234977,0.0630156,0,0,0,1.0325,0.3675,-0.805,0.041358,-0.20191,-0.949282,-0.22092,0.0735,0.40712
2.2927,0,0,12.7073,12.7073,17.2927,17.2927,-1.1891,-2.05305,17.1354,0.145813,0.0770175,-0.200095,1,0,0,2.1875,0.4375,-0.385,0.07015,0.1098,-1.21036,-0.22092,0.0735,0.40712
1.79674,0,0,13.2033,13.2033,16.7967,16.7967,-1.18406,-2.05146,17.1362,0.145786,0.0771054,-0.200092,1,0,0,6.2825,1.1025,-0.4025,0.07015,0.1098,-1.21036,-0.22092,0.0735,0.40712
1.59661,0,0,13.4034,13.4034,16.5966,16.5966,-1.17623,-2.04994,17.1366,0.0664288,-0.104849,-0.302504,1,0,0,7.84,1.0675,-0.6475,-0.009516,-0.072102,-1.31199,-0.22092,0.0735,0.40712
1.60741,0,0,13.3926,13.3926,16.6074,16.6074,-1.16875,-2.04917,17.1366,0.0664154,-0.104719,-0.302501,1,0,0,7.63,0.63,-0.875,-0.009516,-0.072102,-1.31199,-0.22176,0.08134,0.40698
-13.5833,0,0,28.5833,28.5833,1.41671,1.41671,-0.939603,-1.91917,17.0788,0.0708296,-0.199524,-0.00124817,0,0,0,6.7375,0.6475,-0.9625,-0.002806,-0.1708,-1.01321,-0.22176,0.08134,0.40698
-13.4116,0,0,28.4116,28.4116,1.58841,1.58841,-0.718983,-1.79377,17.0219,0.0686421,-0.195677,-0.00112158,0,0,0,4.5325,0.1575,-1.225,-0.002806,-0.1708,-1.01321,-0.22176,0.08134,0.40698
5.60881,0,0,9.39119,9.39119,20.6088,20.6088,-0.781968,-1.60869,16.9749,0.134296,0.0612766,0.0976876,0,0,0,2.6425,-0.455,-1.3825,0.066368,0.086986,-0.915244,-0.22176,0.08134,0.40698
6.16961,0,0,8.83039,8.83039,21.1696,21.1696,-0.851485,-1.42773,16.9285,0.131138,0.0600627,0.0977539,0,0,0,-1.505,-0.49,-0.9625,0.066368,0.086986,-0.915244,-0.22176,0.08134,0.40698
2.90572,0,0,12.0943,12.0943,17.9057,17.9057,-0.871502,-1.44662,17.0069,-0.0103059,0.00805398,0.0416759,0,0,0,-1.4525,-0.49,-1.015,-0.076006,0.03538,-0.970876,-0.22176,0.08134,0.40698
2.73171,0,0,12.2683,12.2683,17.7317,17.7317,-0.888449,-1.46483,17.0843,-0.00998814,0.00775845,0.0416633,0,0,0,0.035,-0.385,-1.3125,-0.076006,0.03538,-0.970876,-0.22176,0.08134,0.40698
6.1756,0,0,8.8244,8.8244,21.1756,21.1756,-0.955249,-1.27283,17.0286,0.15091,0.073273,0.00213517,0,0,0,2.5725,0.0875,-1.26,0.088938,0.101992,-1.01016,-0.22176,0.08134,0.40698
5.80984,0,0,9.19016,9.19016,20.8098,20.8098,-1.01495,-1.08378,16.9834,0.147612,0.0722302,0.0021851,0,0,0,5.88,0.35,-1.26,0.088938,0.101992,-1.01016,-0.22876,0.07364,0.39984
-1.18077,0,0,16.1808,16.1808,13.8192,13.8192,-0.970974,-1.03447,17.0128,0.0317043,-0.031299,-0.0703253,0,0,0,7.525,1.1375,-1.6275,-0.026596,-0.002196,-1.08214,-0.22876,0.07364,0.39984
-1.16809,0,0,16.1681,16.1681,13.8319,13.8319,-0.928338,-0.986084,17.0432,0.0308598,-0.0305554,-0.0702981,0,0,0,7.2975,1.3475,-0.9625,-0.026596,-0.002196,-1.08214,-0.22876,0.07364,0.39984
-7.44389,0,0,22.4439,22.4439,7.55611,7.55611,-0.795159,-0.853471,16.9994,0.0840646,-0.109202,-0.0173581,0,0,0,7.5075,0.7,-0.735,0.029158,-0.083082,-1.02968,-0.22876,0.07364,0.39984
-7.19847,0,0,22.1985,22.1985,7.80153,7.80153,-0.669065,-0.724902,16.9557,0.0818208,-0.107002,-0.0172991,0,0,0,5.0925,0.4025,-1.085,0.029158,-0.083082,-1.02968,-0.22876,0.07364,0.39984
-2.07995,0,0,17.0799,17.0799,12.9201,12.9201,-0.621044,-0.7186,17.0046,0.00019395,-0.043391,0.0628741,0,0,0,2.3975,-0.035,-0.77,-0.052704,-0.020374,-0.950136,-0.22876,0.07364,0.39984
-1.66113,0,0,16.6611,16.6611,13.3389,13.3389,-0.580401,-0.712526,17.053,8.79365e-05,-0.0426817,0.0628829,0,0,0,-1.225,0,-0.805,-0.052704,-0.020374,-0.950136,-0.22876,0.07364,0.39984
10.605,0,0,4.395,4.395,25.605,25.605,-0.71998,-0.720823,17.1411,0.00873674,0.117433,0.0226493,0,0,0,-1.785,-0.0525,-0.9275,-0.044164,0.142008,-0.99003,-0.22876,0.07364,0.39984
10.6328,0,0,4.36718,4.36718,25.6328,25.6328,-0.856294,-0.728192,17.2295,0.00886534,0.115055,0.0226149,0,0,0,-1.435,0.105,-0.63,-0.044164,0.142008,-0.99003,-0.22932,0.07336,0.4088
9.82605,0,0,5.17395,5.17395,24.826,24.826,-0.977238,-0.828396,17.3787,-0.0610625,0.10122,-0.000188062,0,0,0,0.805,-0.35,-0.315,-0.116144,0.130296,-1.0126,-0.22932,0.07336,0.4088
9.3897,0,0,5.6103,5.6103,24.3897,24.3897,-1.08863,-0.925533,17.5271,-0.0593673,0.0992772,-0.000249048,0,0,0,4.8475,-0.105,-0.4725,-0.116144,0.130296,-1.0126,-0.22932,0.07336,0.4088
-5.10136,0,0,20.1014,20.1014,9.89864,9.89864,-0.985435,-0.79302,17.4839,0.0876261,-0.082113,-0.00768163,0,0,0,6.335,0.42,-0.6125,0.033794,-0.052704,-1.02004,-0.22932,0.07336,0.4088
-5.34488,0,0,20.3449,20.3449,9.65512,9.65512,-0.881396,-0.663001,17.4415,0.085357,-0.080298,-0.00762323,0,0,0,8.05,0.945,-0.455,0.033794,-0.052704,-1.02004,-0.22932,0.07336,0.4088
-5.13659,0,0,20.1366,20.1366,9.86341,9.86341,-0.783134,-0.652907,17.4786,-0.00313928,-0.0802931,0.0485912,0,0,0,7.4025,1.19,-0.49,-0.0549,-0.054412,-0.964288,-0.22932,0.07336,0.4088
-4.84562,0,0,19.8456,19.8456,10.1544,10.1544,-0.691702,-0.643756,17.5153,-0.00329898,-0.0786976,0.0486135,0,0,0,4.62,0.945,-0.6125,-0.0549,-0.054412,-0.964288,-0.22932,0.07336,0.4088
1.14668,0,0,13.8533,13.8533,16.1467,16.1467,-0.690195,-0.780945,17.6645,-0.0984578,-0.0127225,0.0388711,0,0,0,2.5725,0.7875,-0.4725,-0.152866,0.011468,-0.973926,-0.22932,0.07336,0.4088
1.61698,0,0,13.383,13.383,16.617,16.617,-0.695595,-0.915853,17.8102,-0.0961034,-0.0128163,0.0388351,0,0,0,-1.4175,0.0875,-0.6825,-0.152866,0.011468,-0.973926,-0.2247,0.07574,0.40208
8.61337,0,0,6.38663,6.38663,23.6134,23.6134,-0.803037,-0.881463,17.8626,0.0376596,0.0946122,-0.00507259,0,0,0,-1.4525,-0.595,-0.665,-0.017934,0.120658,-1.01748,-0.2247,0.07574,0.40208
8.59127,0,0,6.40873,6.40873,23.5913,23.5913,-0.907331,-0.847956,17.9144,0.0370748,0.0927922,-0.00509093,0,0,0,-0.7875,-0.805,-0.8225,-0.017934,0.120658,-1.01748,-0.2247,0.07574,0.40208
7.20324,0,0,7.79676,7.79676,22.2032,22.2032,-0.988607,-0.765117,17.9287,0.0714674,0.0768406,0.0112581,0,0,0,1.2775,-1.1375,-0.77,0.018056,0.10614,-1.00125,-0.2247,0.07574,0.40208
6.78791,0,0,8.21209,8.21209,21.7879,21.7879,-1.06168,-0.682342,17.9424,0.0700229,0.0755652,0.0112535,0,0,0,5.0925,-0.175,-0.98,0.018056,0.10614,-1.00125,-0.2247,0.07574,0.40208
7.95972,0,0,7.04028,7.04028,22.9597,22.9597,-1.14994,-0.670737,18.007,0.0185534,0.0839174,0.0470042,0,0,0,7.07,0.2625,-0.9975,-0.033428,0.116022,-0.965752,-0.2247,0.07574,0.40208
8.03629,0,0,6.96371,6.96371,23.0363,23.0363,-1.237,-0.657155,18.0707,0.0183163,0.0823983,0.0469753,0,0,0,6.825,1.4525,-1.3475,-0.033428,0.116022,-0.965752,-0.2247,0.07574,0.40208
1.78003,0,0,13.22,13.22,16.78,16.78,-1.23039,-0.654912,18.0698,0.133567,-0.116309,0.158984,1,0,0,7.14,1.505,-1.3825,0.08235,-0.082594,-0.85461,-0.2247,0.07574,0.40208
2.0907,0,0,12.9093,12.9093,17.0907,17.0907,-1.22849,-0.653425,18.0685,0.133541,-0.116276,0.158985,1,0,0,4.4975,1.0675,-1.6275,0.08235,-0.082594,-0.85461,-0.2247,0.07574,0.40208
2.26046,0,0,12.7395,12.7395,17.2605,17.2605,-1.22911,-0.652329,18.067,-0.221702,-0.0797705,-0.0969935,1,0,0,3.08,0.84,-1.715,-0.274378,-0.046116,-1.10861,-0.22344,0.07952,0.40978
2.7179,0,0,12.2821,12.2821,17.7179,17.7179,-1.2364,-0.65312,18.0668,-0.0870822,-0.198605,-0.148143,1,0,0,-0.6475,-0.28,-1.05,-0.139202,-0.1647,-1.15937,-0.22344,0.07952,0.40978
2.77187,0,0,12.2281,12.2281,17.7719,17.7719,-1.24428,-0.654448,18.0666,-0.087059,-0.198742,-0.148146,1,0,0,-0.98,-0.595,-1.015,-0.139202,-0.1647,-1.15937,-0.22344,0.07952,0.40978
-8.43507,0,0,23.4351,23.4351,6.56493,6.56493,-1.08827,-0.624552,18.0614,0.00657066,-0.159993,-0.0792338,0,0,0,0,-0.84,-0.9625,-0.044652,-0.12871,-1.09105,-0.22344,0.07952,0.40978
-9.03565,0,0,24.0357,24.0357,5.96435,5.96435,-0.927579,-0.594712,18.056,0.00604989,-0.157189,-0.0791789,0,0,0,4.2875,-0.21,-1.155,-0.044652,-0.12871,-1.09105,-0.22344,0.07952,0.40978
-1.88931,0,0,16.8893,16.8893,13.1107,13.1107,-0.875493,-0.769658,18.2102,-0.141175,-0.0604101,-0.0223987,0,0,0,4.76,0.4375,-0.9625,-0.195566,-0.03294,-1.03468,-0.22344,0.07952,0.40978
-1.93307,0,0,16.9331,16.9331,13.0669,13.0669,-0.824135,-0.940642,18.3629,-0.138191,-0.0595133,-0.02243,0,0,0,4.76,0.4375,-0.9625,-0.195566,-0.03294,-1.03468,-0.22344,0.07952,0.40978
1.12251,0,0,13.8775,13.8775,16.1225,16.1225,-0.818755,-0.938617,18.3631,-0.0360567,-0.20304,-0.105418,1,0,0,6.4575,1.365,-0.7875,-0.092964,-0.176412,-1.11703,-0.22344,0.07952,0.40978
1.11294,0,0,13.8871,13.8871,16.1129,16.1129,-0.813374,-0.936592,18.3632,-0.036092,-0.202947,-0.105416,1,0,0,6.4575,1.365,-0.7875,-0.092964,-0.176412,-1.11703,-0.23072,0.07714,0.40852
-12.9655,0,0,27.9655,27.9655,2.03449,2.03449,-0.602509,-0.827662,18.299,0.0572518,-0.187177,0.0182216,0,0,0,3.6925,0.77,-0.8225,0.002684,-0.164334,-0.994422,-0.23072,0.07714,0.40852
-13.0588,0,0,28.0588,28.0588,1.94122,1.94122,-0.395824,-0.721888,18.236,0.0554058,-0.18357,0.018278,0,0,0,3.6925,0.77,-0.8225,0.002684,-0.164334,-0.994422,-0.23072,0.07714,0.40852
0.216286,0,0,14.7837,14.7837,15.2163,15.2163,-0.388463,-0.649256,18.2312,0.0548672,-0.00586953,-0.0466228,0,0,0,0.77,-0.2275,-0.6475,0.003416,0.013054,-1.05884,-0.23072,0.07714,0.40852
2.10219,0,0,12.8978,12.8978,17.1022,17.1022,-0.408839,-0.597764,18.244,0.041091,0.0168567,-0.0157554,0,0,0,-0.35,-0.6825,-0.5075,-0.009516,0.036112,-1.02822,-0.23072,0.07714,0.40852
2.02077,0,0,12.9792,12.9792,17.0208,17.0208,-0.42749,-0.54743,18.2568,0.0402126,0.0165312,-0.015749,0,0,0,0.455,-0.6825,-0.455,-0.009516,0.036112,-1.02822,-0.23072,0.07714,0.40852
-5.29031,0,0,20.2903,20.2903,9.70969,9.70969,-0.338867,-0.401721,18.1858,0.098048,-0.071319,0.0183391,0,0,0,3.185,-0.385,-0.525,0.051118,-0.053192,-0.994422,-0.23072,0.07714,0.40852
-5.65405,0,0,20.6541,20.6541,9.34595,9.34595,-0.24726,-0.258449,18.1157,0.0955474,-0.0697203,0.0183617,0,0,0,5.9675,0.315,-0.4025,0.051118,-0.053192,-0.994422,-0.23072,0.07714,0.40852
2.67518,0,0,12.3248,12.3248,17.6752,17.6752,-0.279714,-0.232022,18.1426,0.0223163,0.0366963,-0.00868757,0,0,0,5.88,0.945,-0.7,-0.02196,0.05368,-1.02126,-0.23366,0.07798,0.40292
-4.96861,0,0,19.9686,19.9686,10.0314,10.0314,-0.199673,-0.0666613,18.0563,0.107386,-0.0567993,0.0528,0,0,0,5.2675,1.19,-0.8575,0.066368,-0.041114,-0.960262,-0.23366,0.07798,0.40292
-4.77352,0,0,19.7735,19.7735,10.2265,10.2265,-0.124585,0.0942119,17.971,0.104578,-0.0554888,0.0528031,0,0,0,3.535,0.945,-0.77,0.066368,-0.041114,-0.960262,-0.23366,0.07798,0.40292
-1.36817,0,0,16.3682,16.3682,13.6318,13.6318,-0.101208,0.189208,17.9354,0.0657455,-0.0160002,0.016407,0,0,0,2.59,0.5775,-0.8925,0.029036,-0.002074,-0.996374,-0.23366,0.07798,0.40292
-1.06814,0,0,16.0681,16.0681,13.9319,13.9319,-0.0828283,0.280235,17.9,0.0641568,-0.0156794,0.016401,0,0,0,0.14,-0.4025,-0.9275,0.029036,-0.002074,-0.996374,-0.23366,0.07798,0.40292
14.9739,0,0,1,1,29.9739,29.9739,-0.299236,0.0840459,18.0942,-0.119507,0.176923,0.053038,0,0,0,0.3675,-0.735,-0.91,-0.158844,0.194102,-0.960018,-0.23366,0.07798,0.40292
14.9395,0,0,1,1,29.9395,29.9395,-0.50945,-0.107351,18.2885,-0.116167,0.173255,0.0530114,0,0,0,1.575,-0.8225,-0.84,-0.158844,0.194102,-0.960018,-0.23366,0.07798,0.40292
5.32925,0,0,9.67075,9.67075,20.3293,20.3293,-0.573772,-0.0284266,18.2887,0.0657778,0.0646604,0.00566726,0,0,0,2.7475,-0.2975,-0.9625,0.025254,0.086742,-1.00699,-0.2282,0.0742,0.40558
0.114364,0,0,14.8856,14.8856,15.1144,15.1144,-0.560235,-0.0221674,18.3231,0.00249603,-0.0104555,0.0194399,0,0,0,4.4975,0.8925,-1.155,-0.038186,0.011468,-0.993324,-0.2282,0.0742,0.40558
0.00980834,0,0,14.9902,14.9902,15.0098,15.0098,-0.545525,-0.0155193,18.3575,0.00238,-0.0101988,0.0194424,0,0,0,5.3025,1.225,-1.015,-0.038186,0.011468,-0.993324,-0.2282,0.0742,0.40558
-5.24424,0,0,20.2442,20.2442,9.75576,9.75576,-0.454463,0.0260473,18.3535,0.0193914,-0.0770005,0.0424476,0,0,0,4.795,1.4175,-1.1375,-0.020374,-0.056852,-0.97051,-0.2282,0.0742,0.40558
-5.06588,0,0,20.0659,20.0659,9.93412,9.93412,-0.368399,0.0659462,18.349,0.0186951,-0.0754984,0.0424578,0,0,0,2.9925,1.155,-1.435,-0.020374,-0.056852,-0.97051,-0.2282,0.0742,0.40558
-3.34143,0,0,18.3414,18.3414,11.6586,11.6586,-0.309783,0.0560758,18.3811,-0.0149057,-0.0601866,-0.0557718,0,0,0,2.5025,0.7175,-1.365,-0.05429,-0.042578,-1.06799,-0.2282,0.0742,0.40558
-3.33046,0,0,18.3305,18.3305,11.6695,11.6695,-0.252868,0.0439892,18.4134,-0.0146947,-0.0591932,-0.0557668,0,0,0,2.1525,-0.63,-1.155,-0.05429,-0.042578,-1.06799,-0.2282,0.0742,0.40558
3.90114,0,0,11.0989,11.0989,18.9011,18.9011,-0.303071,0.165129,18.3776,0.0952008,0.0521651,0.013691,0,0,0,1.33,-0.77,-1.12,0.058194,0.06954,-0.999058,-0.2282,0.0742,0.40558
3.91229,0,0,11.0877,11.0877,18.9123,18.9123,-0.352116,0.28463,18.3429,0.0931151,0.0513091,0.013678,0,0,0,1.5225,-0.35,-1.12,0.058194,0.06954,-0.999058,-0.231,0.07294,0.40292
0.705863,0,0,14.2941,14.2941,15.7059,15.7059,-0.35304,0.283635,18.3428,-0.0276243,0.00232021,0.1322,1,0,0,2.9225,-0.4025,-0.98,-0.063074,0.020618,-0.88145,-0.231,0.07294,0.40292
0.707577,0,0,14.2924,14.2924,15.7076,15.7076,-0.353963,0.28264,18.3426,-0.0276069,0.00230409,0.1322,1,0,0,2.9225,-0.4025,-0.98,-0.063074,0.020618,-0.88145,-0.231,0.07294,0.40292
6.3634,0,0,8.6366,8.6366,21.3634,21.3634,-0.437467,0.0274036,18.561,-0.180355,0.0597117,0.0268354,0,0,0,4.6725,0.945,-1.3125,-0.220942,0.079422,-0.986004,-0.231,0.07294,0.40292
6.39399,0,0,8.60601,8.60601,21.394,21.394,-0.519223,-0.221707,18.7783,-0.176007,0.0582849,0.0268161,0,0,0,4.6725,0.945,-1.3125,-0.220942,0.079422,-0.986004,-0.231,0.07294,0.40292
-7.20097,0,0,22.201,22.201,7.79903,7.79903,-0.400264,-0.0662329,18.6947,0.110658,-0.104266,-0.0702897,0,0,0,4.8825,0.77,-0.84,0.069662,-0.085034,-1.08238,-0.231,0.07294,0.40292
-7.23945,0,0,22.2395,22.2395,7.76055,7.76055,-0.283871,0.0853282,18.6121,0.108013,-0.102234,-0.070278,0,0,0,4.8825,0.77,-0.84,0.069662,-0.085034,-1.08238,-0.231,0.07294,0.40292
0.628223,0,0,14.3718,14.3718,15.6282,15.6282,-0.285449,0.0847205,18.6117,-0.156451,0.016201,-0.13876,1,0,0,2.555,-0.175,-1.085,-0.195932,0.033306,-1.15034,-0.231,0.07294,0.40292
0.733674,0,0,14.2663,14.2663,15.7337,15.7337,-0.288525,0.0839044,18.6116,0.191742,-0.0501675,0.136521,1,0,0,1.715,-0.2975,-0.9975,0.15372,-0.03294,-0.87718,-0.22876,0.06762,0.39648
10.563,0,0,4.43699,4.43699,25.563,25.563,-0.435084,-0.0408793,18.7641,-0.0763861,0.1279,0.00199998,0,0,0,2.9575,-0.91,-0.7525,-0.11773,0.147498,-1.01065,-0.22876,0.06762,0.39648
10.5682,0,0,4.43177,4.43177,25.5682,25.5682,-0.577864,-0.16127,18.9158,-0.0742848,0.125408,0.00197425,0,0,0,3.5,-0.2275,-1.0675,-0.11773,0.147498,-1.01065,-0.22876,0.06762,0.39648
-8.85542,0,0,23.8554,23.8554,6.14458,6.14458,-0.433195,0.117406,18.7527,0.186176,-0.110336,0.0515466,0,0,0,4.0425,0.49,-1.0325,0.148718,-0.090524,-0.961482,-0.22876,0.06762,0.39648
-9.00412,0,0,24.0041,24.0041,5.99588,5.99588,-0.290156,0.389896,18.5921,0.18142,-0.10784,0.0515413,0,0,0,5.0225,0.7875,-0.77,0.148718,-0.090524,-0.961482,-0.22876,0.06762,0.39648
0.584459,0,0,14.4155,14.4155,15.5845,15.5845,-0.290925,0.500886,18.5611,0.0887334,0.012686,-0.0714223,0,0,0,4.795,0.9625,-0.8575,0.057584,0.02989,-1.08348,-0.22876,0.06762,0.39648
0.765982,0,0,14.234,14.234,15.766,15.766,-0.294324,0.60923,18.5305,0.0868425,0.0126268,-0.0714409,0,0,0,3.43,0.91,-0.7,0.057584,0.02989,-1.08348,-0.22876,0.06762,0.39648
4.56442,0,0,10.4356,10.4356,19.5644,19.5644,-0.353112,0.355056,18.7449,-0.196157,0.0371251,-0.0511229,0,0,0,3.0275,0.56,-0.7525,-0.231068,0.055388,-1.06335,-0.22876,0.06762,0.39648
4.5517,0,0,10.4483,10.4483,19.5517,19.5517,-0.410168,0.107502,18.9618,-0.191836,0.0361292,-0.0511121,0,0,0,2.975,0,-0.91,-0.231068,0.055388,-1.06335,-0.22092,0.0672,0.39242
-1.32047,0,0,16.3205,16.3205,13.6795,13.6795,-0.379955,0.0718543,19.0252,-0.028666,-0.0306353,0.0254895,0,0,0,3.2725,-0.4025,-0.8575,-0.067832,-0.011834,-0.987346,-0.22092,0.0672,0.39242
-1.33832,0,0,16.3383,16.3383,13.6617,13.6617,-0.350276,0.0368082,19.0884,-0.0280543,-0.0301174,0.0254933,0,0,0,3.255,-0.49,-0.735,-0.067832,-0.011834,-0.987346,-0.22092,0.0672,0.39242
6.12161,0,0,8.87839,8.87839,21.1216,21.1216,-0.430333,-0.0174777,19.1856,-0.0300225,0.0675302,0.0463852,0,0,0,3.535,-0.245,-0.8575,-0.07076,0.087108,-0.966606,-0.22092,0.0672,0.39242
5.99493,0,0,9.00507,9.00507,20.9949,20.9949,-0.506434,-0.0697113,19.2825,-0.0291109,0.066202,0.0463737,0,0,0,4.8825,0.105,-0.77,-0.07076,0.087108,-0.966606,-0.22092,0.0672,0.39242
-10.5125,0,0,25.5125,25.5125,4.48755,4.48755,-0.339433,0.232894,19.0973,0.19801,-0.12421,0.0815509,0,0,0,5.1275,0.3325,-0.7875,0.162626,-0.106018,-0.931714,-0.22092,0.0672,0.39242
-10.4062,0,0,25.4062,25.4062,4.59376,4.59376,-0.178372,0.529646,18.9143,0.192831,-0.121399,0.0815292,0,0,0,3.955,1.12,-0.8225,0.162626,-0.106018,-0.931714,-0.22092,0.0672,0.39242
0.317159,0,0,14.6828,14.6828,15.3172,15.3172,-0.178169,0.531878,18.9146,-0.255491,0.080236,-0.116295,1,0,0,3.5525,1.4875,-0.7175,-0.287554,0.095404,-1.12801,-0.22092,0.0672,0.39242
0.368049,0,0,14.632,14.632,15.368,15.368,-0.178713,0.532528,18.915,-0.255502,0.0802265,-0.116295,1,0,0,3.1325,0.56,-0.665,-0.287554,0.095404,-1.12801,-0.23072,0.0658,0.3941
0.11466,0,0,14.8853,14.8853,15.1147,15.1147,-0.175542,0.300972,19.1014,-0.184765,-0.0248694,-0.0560211,0,0,0,2.485,0.07,-0.5775,-0.220576,-0.009638,-1.06823,-0.23072,0.0658,0.3941
0.0880359,0,0,14.912,14.912,15.088,15.088,-0.172064,0.073942,19.2858,-0.180803,-0.0248087,-0.056008,0,0,0,2.52,-0.4725,-0.875,-0.220576,-0.009638,-1.06823,-0.23072,0.0658,0.3941
-9.54362,0,0,24.5436,24.5436,5.45638,5.45638,-0.028002,0.287779,19.16,0.132786,-0.111447,0.0901704,0,0,0,2.135,-0.4025,-0.875,0.098088,-0.098698,-0.923174,-0.23072,0.0658,0.3941
-9.82237,0,0,24.8224,24.8224,5.17763,5.17763,0.116344,0.49657,19.0358,0.129142,-0.108928,0.0901435,0,0,0,4.095,-0.245,-0.84,0.098088,-0.098698,-0.923174,-0.23072,0.0658,0.3941
2.81496,0,0,12.185,12.185,17.815,17.815,0.0723186,0.396933,19.1441,-0.0670193,0.0335587,0.0363069,0,0,0,4.2875,0.14,-0.8925,-0.10065,0.044408,-0.97661,-0.23072,0.0658,0.3941
2.92046,0,0,12.0795,12.0795,17.9205,17.9205,0.0279097,0.299957,19.2511,-0.0653268,0.0327836,0.0363179,0,0,0,3.535,0.2625,-1.2425,-0.10065,0.044408,-0.97661,-0.23072,0.0658,0.3941
1.9198,0,0,13.0802,13.0802,16.9198,16.9198,-0.000716433,0.28755,19.3019,-0.00667559,0.0272768,-0.0364664,0,0,0,3.7275,0.595,-1.4175,-0.041968,0.039406,-1.04883,-0.23072,0.0658,0.3941
2.05528,0,0,12.9447,12.9447,17.0553,17.0553,-0.0305686,0.275687,19.3526,-0.00646855,0.0267558,-0.0364655,0,0,0,2.73,0.7,-1.33,-0.041968,0.039406,-1.04883,-0.23072,0.0658,0.3941
0.211975,0,0,14.788,14.788,15.212,15.212,-0.0327133,0.276873,19.3516,0.06786,-0.110796,-0.1063,1,0,0,2.24,0.875,-1.4875,0.032696,-0.097966,-1.11813,-0.22694,0.06804,0.39382
-4.69228,0,0,19.6923,19.6923,10.3077,10.3077,0.0368281,0.493422,19.2312,0.151429,-0.0493742,0.0290404,0,0,0,2.275,0.3675,-1.6975,0.120414,-0.03782,-0.983808,-0.22694,0.06804,0.39382
-4.60225,0,0,19.6022,19.6022,10.3978,10.3978,0.103226,0.703724,19.1124,0.147759,-0.0482154,0.0290007,0,0,0,1.5225,-0.2975,-1.3475,0.120414,-0.03782,-0.983808,-0.22694,0.06804,0.39382
-2.7609,0,0,17.7609,17.7609,12.2391,12.2391,0.140984,1.2263,18.7919,0.394245,0.00434702,0.066345,0,0,0,2.8175,-0.4375,-1.5225,0.377102,0.01403,-0.946598,-0.22694,0.06804,0.39382
-2.68521,0,0,17.6852,17.6852,12.3148,12.3148,0.176644,1.73861,18.4722,0.385307,0.00496854,0.0661119,0,0,0,2.8525,-0.1225,-1.8025,0.377102,0.01403,-0.946598,-0.22694,0.06804,0.39382
-1.15286,0,0,16.1529,16.1529,13.8471,13.8471,0.188984,1.40964,18.6996,-0.255744,-0.0403689,-0.0140164,0,0,0,3.15,0.105,-1.68,-0.272426,-0.031476,-1.02626,-0.22694,0.06804,0.39382
-1.25742,0,0,16.2574,16.2574,13.7426,13.7426,0.202527,1.08885,18.9254,-0.250146,-0.0401322,-0.0138952,0,0,0,3.7275,0.42,-1.3825,-0.272426,-0.031476,-1.02626,-0.22694,0.06804,0.39382
1.81459,0,0,13.1854,13.1854,16.8146,16.8146,0.170845,0.59676,19.2729,-0.393051,-0.0113743,-0.00663601,0,0,0,3.7625,0.665,-1.26,-0.42456,-0.002196,-1.01919,-0.22694,0.06804,0.39382
1.8326,0,0,13.1674,13.1674,16.8326,16.8326,0.139732,0.116941,19.6216,-0.384677,-0.0119171,-0.00658238,0,0,0,3.43,0.7525,-0.98,-0.42456,-0.002196,-1.01919,-0.22638,0.06566,0.3962
-1.56451,0,0,16.5645,16.5645,13.4355,13.4355,0.159054,0.138528,19.6434,0.0128118,-0.017442,0.0210793,0,0,0,2.625,0.7525,-0.805,-0.02501,-0.008052,-0.991738,-0.22638,0.06566,0.3962
-1.54414,0,0,16.5441,16.5441,13.4559,13.4559,0.17757,0.158574,19.6653,0.012462,-0.0171188,0.0210775,0,0,0,2.3975,0.175,-0.63,-0.02501,-0.008052,-0.991738,-0.22638,0.06566,0.3962
3.84575,0,0,11.1543,11.1543,18.8457,18.8457,0.116876,0.547504,19.4622,0.319836,0.0927129,-0.0153544,0,0,0,2.205,0.1225,-0.525,0.290482,0.102724,-1.02785,-0.22638,0.06566,0.3962
3.96585,0,0,11.0341,11.0341,18.9659,18.9659,0.0560238,0.927963,19.2596,0.313196,0.0916508,-0.0154383,0,0,0,2.03,-0.105,-0.21,0.290482,0.102724,-1.02785,-0.22638,0.06566,0.3962
-3.72105,0,0,18.7211,18.7211,11.2789,11.2789,0.109043,1.07015,19.1871,0.0964142,-0.0376112,0.0499257,0,0,0,3.01,-0.245,-0.175,0.075274,-0.027328,-0.962946,-0.22638,0.06566,0.3962
-3.78624,0,0,18.7862,18.7862,11.2138,11.2138,0.16162,1.20928,19.1153,0.0939865,-0.0366938,0.0498752,0,0,0,3.4825,-0.0525,-0.0875,0.075274,-0.027328,-0.962946,-0.22638,0.06566,0.3962
-6.37037,0,0,21.3704,21.3704,8.62963,8.62963,0.250558,1.04925,19.2293,-0.127605,-0.0946174,0.0232449,0,0,0,4.27,0.385,-0.175,-0.15006,-0.086742,-0.98942,-0.22638,0.06566,0.3962
-6.47585,0,0,21.4759,21.4759,8.52415,8.52415,0.338697,0.891454,19.3305,-0.124851,-0.0930791,0.0232836,0,0,0,4.865,0.4725,-0.1925,-0.15006,-0.086742,-0.98942,-0.22638,0.07336,0.3913
-0.293447,0,0,15.2934,15.2934,14.7066,14.7066,0.33422,0.692894,19.477,-0.152001,-0.0125533,-0.017241,0,0,0,3.675,0.63,-0.175,-0.180804,-0.006222,-1.02968,-0.22638,0.07336,0.3913
-0.242597,0,0,15.2426,15.2426,14.7574,14.7574,0.329117,0.49859,19.6224,-0.14861,-0.0126422,-0.0172053,0,0,0,3.115,0.385,-0.1575,-0.180804,-0.006222,-1.02968,-0.22638,0.07336,0.3913
5.27683,0,0,9.72317,9.72317,20.2768,20.2768,0.243533,0.326455,19.7722,-0.128719,0.0709866,-0.0643884,0,0,0,3.43,0.21,-0.1225,-0.163846,0.078812,-1.07653,-0.22638,0.07336,0.3913
5.35386,0,0,9.64614,9.64614,20.3539,20.3539,0.159074,0.158009,19.921,-0.125779,0.0695126,-0.0643708,0,0,0,3.0625,-0.0875,-0.35,-0.163846,0.078812,-1.07653,-0.22638,0.07336,0.3913
-0.15603,0,0,15.156,15.156,14.844,14.844,0.15731,0.157341,19.9215,-0.123095,-0.0174724,0.183371,1,0,0,2.45,-0.21,-0.5775,-0.161162,-0.008052,-0.830698,-0.22638,0.07336,0.3913
-0.206194,0,0,15.2062,15.2062,14.7938,14.7938,0.156325,0.156646,19.9214,-0.123082,-0.0174896,0.183371,1,0,0,2.8875,-0.2275,-0.9275,-0.161162,-0.008052,-0.830698,-0.22638,0.07336,0.3913
6.78178,0,0,8.21822,8.21822,21.7818,21.7818,0.053302,0.13638,19.9806,-0.00428017,0.0934353,0.0387874,0,0,0,3.9725,0.0175,-1.0675,-0.042212,0.104554,-0.97417,-0.22638,0.07336,0.3913
6.83395,0,0,8.16605,8.16605,21.8339,21.8339,-0.0477744,0.116815,20.0415,-0.0039387,0.0916712,0.0387882,0,0,0,4.025,0.1225,-1.4525,-0.042212,0.104554,-0.97417,-0.22736,0.0714,0.3969
8.20598,0,0,6.79402,6.79402,23.206,23.206,-0.166233,-0.0365522,20.1925,-0.111814,0.109877,-0.0761706,0,0,0,4.4975,-0.07,-1.715,-0.153232,0.124806,-1.08824,-0.22736,0.0714,0.3969
8.34639,0,0,6.65361,6.65361,23.3464,23.3464,-0.283627,-0.185269,20.3424,-0.109218,0.107828,-0.0761837,0,0,0,3.78,0.4375,-2.1,-0.153232,0.124806,-1.08824,-0.22736,0.0714,0.3969
2.60113,0,0,12.3989,12.3989,17.6011,17.6011,-0.314021,-0.452669,20.5516,-0.190685,0.00593234,0.0600145,0,0,0,3.955,0.105,-1.995,-0.23973,0.023546,-0.953064,-0.22736,0.0714,0.3969
2.62409,0,0,12.3759,12.3759,17.6241,17.6241,-0.34395,-0.71388,20.7587,-0.186126,0.00541028,0.0599651,0,0,0,3.71,0.07,-2.3275,-0.23973,0.023546,-0.953064,-0.22736,0.0714,0.3969
4.24425,0,0,10.7558,10.7558,19.2442,19.2442,-0.396755,-0.454588,20.6379,0.212317,0.0742228,-0.0239685,0,0,0,2.7825,0,-2.17,0.164944,0.093208,-1.03639,-0.22736,0.0714,0.3969
4.30944,0,0,10.6906,10.6906,19.3094,19.3094,-0.449123,-0.20108,20.5176,0.207892,0.0733087,-0.0239499,0,0,0,2.8175,-0.1575,-1.925,0.164944,0.093208,-1.03639,-0.22736,0.0714,0.3969
4.68564,0,0,10.3144,10.3144,19.6856,19.6856,-0.505607,-0.176097,20.544,0.0247418,0.0529047,0.0416978,0,0,0,3.3775,-0.2275,-1.8725,-0.018544,0.07381,-0.971242,-0.22736,0.0714,0.3969
4.69972,0,0,10.3003,10.3003,19.6997,19.6997,-0.560812,-0.15175,20.5758,0.0243169,0.0519412,0.04169,0,0,0,3.605,-0.1575,-1.7675,-0.018544,0.07381,-0.971242,-0.2212,0.06944,0.3941
7.89704,0,0,7.10296,7.10296,22.897,22.897,-0.661262,-0.269062,20.7105,-0.0766555,0.083651,0.0298608,0,0,0,3.955,0.1575,-1.6275,-0.122,0.107238,-0.982954,-0.2212,0.06944,0.3941
7.90812,0,0,7.09188,7.09188,22.9081,22.9081,-0.759232,-0.383371,20.8454,-0.0746605,0.0819414,0.0298282,0,0,0,4.235,0.21,-1.2425,-0.122,0.107238,-0.982954,-0.2212,0.06944,0.3941
1.81678,0,0,13.1832,13.1832,16.8168,16.8168,-0.765656,-0.256491,20.8037,0.107297,0.0206436,-0.0938471,0,0,0,4.0425,0.315,-1.0675,0.062952,0.046116,-1.10569,-0.2212,0.06944,0.3941
1.87657,0,0,13.1234,13.1234,16.8766,16.8766,-0.772783,-0.131879,20.7631,0.105123,0.0205191,-0.0938414,0,0,0,3.7275,0.63,-0.56,0.062952,0.046116,-1.10569,-0.2212,0.06944,0.3941
13.8332,0,0,1.16681,1.16681,28.8332,28.8332,-0.954355,-0.381294,21.0048,-0.170306,0.147416,0.0397363,0,0,0,3.01,0.5425,-0.28,-0.218014,0.176046,-0.973072,-0.2212,0.06944,0.3941
13.981,0,0,1.01904,1.01904,28.981,28.981,-1.13331,-0.624733,21.247,-0.166057,0.144294,0.0396422,0,0,0,2.5725,0.525,0.2275,-0.218014,0.176046,-0.973072,-0.2212,0.06944,0.3941
9.11977,0,0,5.88023,5.88023,24.1198,24.1198,-1.23655,-0.717359,21.3775,-0.0627573,0.0929092,-0.0312324,0,0,0,3.0275,0.3325,0.385,-0.1159,0.126514,-1.04334,-0.2212,0.06944,0.3941
9.22471,0,0,5.77529,5.77529,24.2247,24.2247,-1.33862,-0.807498,21.5079,-0.0611842,0.091129,-0.0312933,0,0,0,2.5725,0.4025,0.6475,-0.1159,0.126514,-1.04334,-0.2212,0.06944,0.3941
4.99375,0,0,10.0062,10.0062,19.9938,19.9938,-1.3762,-0.962306,21.663,-0.112301,0.0200072,0.0376235,0,0,0,3.08,0.455,0.735,-0.169946,0.05612,-0.974902,-0.22302,0.07196,0.40068
4.90563,0,0,10.0944,10.0944,19.9056,19.9056,-1.4115,-1.11343,21.8168,-0.109664,0.0193926,0.0375608,0,0,0,3.85,0.5075,0.4725,-0.169946,0.05612,-0.974902,-0.22302,0.07196,0.40068
-7.52537,0,0,22.5254,22.5254,7.47463,7.47463,-1.2643,-0.656931,21.5255,0.350454,-0.105054,0.0196704,0,0,0,3.8325,0.6475,0.5425,0.30012,-0.07076,-0.992836,-0.22302,0.07196,0.40068
-7.53697,0,0,22.537,22.537,7.46303,7.46303,-1.12081,-0.210223,21.2367,0.342658,-0.102552,0.0197815,0,0,0,3.955,0.595,0.4025,0.30012,-0.07076,-0.992836,-0.22302,0.07196,0.40068
10.5415,0,0,4.45847,4.45847,25.5415,25.5415,-1.24513,-0.204098,21.2968,0.0184273,0.126465,-0.0531714,0,0,0,3.2375,0.63,0.2975,-0.025376,0.160186,-1.06518,-0.22302,0.07196,0.40068
10.6754,0,0,4.32457,4.32457,25.6754,25.6754,-1.36814,-0.198339,21.3558,0.0183268,0.124319,-0.05322,0,0,0,2.7125,0.3325,-0.1925,-0.025376,0.160186,-1.06518,-0.22302,0.07196,0.40068
2.5599,0,0,12.4401,12.4401,17.5599,17.5599,-1.36938,-0.198145,21.3567,-0.0837246,-0.0956532,0.139194,1,0,0,2.7475,0.28,-0.315,-0.127856,-0.059536,-0.874252,-0.22302,0.07196,0.40068
2.60267,0,0,12.3973,12.3973,17.6027,17.6027,-1.3712,-0.197828,21.3566,-0.0837301,-0.0956851,0.139193,1,0,0,2.415,0.3675,-0.9625,-0.127856,-0.059536,-0.874252,-0.22302,0.07196,0.40068
6.53224,0,0,8.46776,8.46776,21.5322,21.5322,-1.43037,-0.475685,21.5917,-0.20146,0.0282189,0.0588541,0,0,0,2.66,0.2275,-1.2425,-0.250954,0.06527,-0.953918,-0.2226,0.06734,0.39508
5.679,0,0,9.321,9.321,20.679,20.679,-1.47552,-0.482655,21.6484,-0.000279266,0.0435519,-0.0260014,0,0,0,3.2375,0.105,-1.855,-0.049044,0.081374,-1.0381,-0.2226,0.06734,0.39508
5.65504,0,0,9.34496,9.34496,20.655,20.655,-1.51913,-0.489382,21.7035,-0.00016186,0.0427911,-0.0260223,0,0,0,3.6225,0.105,-2.5725,-0.049044,0.081374,-1.0381,-0.2226,0.06734,0.39508
-7.21182,0,0,22.2118,22.2118,7.78818,7.78818,-1.37366,-0.342442,21.6124,0.105153,-0.133831,-0.0756108,0,0,0,3.4825,0.175,-2.5725,0.059292,-0.0976,-1.08739,-0.2226,0.06734,0.39508
-7.2431,0,0,22.2431,22.2431,7.7569,7.7569,-1.23156,-0.199211,21.5217,0.102653,-0.131352,-0.0755426,0,0,0,3.3075,0.1575,-2.9225,0.059292,-0.0976,-1.08739,-0.2226,0.06734,0.39508
7.12929,0,0,7.87071,7.87071,22.1293,22.1293,-1.3031,-0.527856,21.7873,-0.251938,0.0388664,0.0156212,0,0,0,3.0975,0.2275,-3.0625,-0.30256,0.073688,-0.996862,-0.2226,0.06734,0.39508
7.16484,0,0,7.83516,7.83516,22.1648,22.1648,-1.37328,-0.849521,22.0518,-0.246324,0.0376435,0.0155251,0,0,0,2.9575,-0.105,-2.8,-0.30256,0.073688,-0.996862,-0.2226,0.06734,0.39508
7.35269,0,0,7.64731,7.64731,22.3527,22.3527,-1.44436,-0.747606,22.0444,0.0903566,0.0775596,-0.0202586,0,0,0,2.8875,-0.035,-2.66,0.037332,0.114802,-1.03236,-0.2226,0.06734,0.39508
7.35243,0,0,7.64757,7.64757,22.3524,22.3524,-1.51356,-0.647525,22.0373,0.08861,0.0763517,-0.0202685,0,0,0,3.2725,-0.0175,-2.4675,0.037332,0.114802,-1.03236,-0.22708,0.06608,0.3997
-3.29033,0,0,18.2903,18.2903,11.7097,11.7097,-1.4255,-0.572456,22.0075,0.0470881,-0.0753812,0.0336363,0,0,0,3.185,-0.1225,-2.31,-0.00305,-0.038308,-0.978928,-0.22708,0.06608,0.3997
-3.35841,0,0,18.3584,18.3584,11.6416,11.6416,-1.33875,-0.499198,21.9794,0.0458096,-0.073868,0.0336848,0,0,0,3.465,-0.07,-1.5925,-0.00305,-0.038308,-0.978928,-0.22708,0.06608,0.3997
4.15243,0,0,10.8476,10.8476,19.1524,19.1524,-1.36398,-0.739849,22.1816,-0.195635,0.00385398,-0.0400172,0,0,0,3.5875,0.105,-1.1725,-0.249734,0.039772,-1.05201,-0.22708,0.06608,0.3997
4.00412,0,0,10.9959,10.9959,19.0041,19.0041,-1.38638,-0.975211,22.3833,-0.191527,0.00346469,-0.040088,0,0,0,4.7425,-0.035,-0.6475,-0.249734,0.039772,-1.05201,-0.22708,0.06608,0.3997
8.86306,0,0,6.13694,6.13694,23.8631,23.8631,-1.47915,-0.888278,22.3967,0.0852794,0.107485,-0.0819063,0,0,0,4.235,0.1225,-0.2625,0.029768,0.145302,-1.09349,-0.22708,0.06608,0.3997
8.92717,0,0,6.07283,6.07283,23.9272,23.9272,-1.57042,-0.802526,22.4106,0.0837829,0.105892,-0.0819266,0,0,0,4.2175,0.385,0.245,0.029768,0.145302,-1.09349,-0.22708,0.06608,0.3997
2.76421,0,0,12.2358,12.2358,17.7642,17.7642,-1.56927,-0.656275,22.3619,0.119863,0.0151714,-0.054722,0,0,0,4.1825,0.56,0.4725,0.068564,0.054656,-1.06652,-0.22708,0.06608,0.3997
2.8616,0,0,12.1384,12.1384,17.8616,17.8616,-1.56957,-0.512418,22.3045,0.117352,0.0151655,-0.0546965,0,0,0,3.395,0.595,1.1375,0.068564,0.054656,-1.06652,-0.23002,0.0721,0.39746
-5.86098,0,0,20.861,20.861,9.13902,9.13902,-1.44246,-0.724175,22.4428,-0.195665,-0.150662,-0.0602108,0,0,0,3.36,0.56,1.3125,-0.24949,-0.113216,-1.07201,-0.23002,0.0721,0.39746
-5.95639,0,0,20.9564,20.9564,9.04361,9.04361,-1.3173,-0.931656,22.5788,-0.192044,-0.148477,-0.0602105,0,0,0,3.325,0.4725,1.015,-0.24949,-0.113216,-1.07201,-0.23002,0.0721,0.39746
-7.2853,0,0,22.2853,22.2853,7.7147,7.7147,-1.17601,-0.690218,22.4234,0.174031,-0.114261,-0.00292615,0,0,0,3.4825,0.2275,1.1375,0.122366,-0.081496,-1.01528,-0.23002,0.0721,0.39746
-7.48426,0,0,22.4843,22.4843,7.51574,7.51574,-1.03553,-0.454839,22.2692,0.169923,-0.11181,-0.0028378,0,0,0,4.8475,0,0.8225,0.122366,-0.081496,-1.01528,-0.23002,0.0721,0.39746
1.96785,0,0,13.0322,13.0322,16.9678,16.9678,-1.0368,-0.448383,22.2948,0.00519687,0.00406601,-0.0221402,0,0,0,4.4975,0.21,0.7,-0.042944,0.034282,-1.03444,-0.23002,0.0721,0.39746
1.96912,0,0,13.0309,13.0309,16.9691,16.9691,-1.03805,-0.441964,22.3195,0.00508484,0.00404421,-0.0221397,0,0,0,4.4975,0.28,0.245,-0.042944,0.034282,-1.03444,-0.23002,0.0721,0.39746
-4.1378,0,0,19.1378,19.1378,10.8622,10.8622,-0.950063,-0.601836,22.4267,-0.122479,-0.0909002,0.0844578,0,0,0,4.5325,0.0875,-0.1225,-0.17385,-0.062098,-0.928664,-0.23002,0.0721,0.39746
-4.11807,0,0,19.1181,19.1181,10.8819,10.8819,-0.86468,-0.757326,22.5374,-0.119766,-0.0894098,0.0844492,0,0,0,3.5525,0.0525,-0.84,-0.17385,-0.062098,-0.928664,-0.22414,0.06972,0.39242
2.51324,0,0,12.4868,12.4868,17.5132,17.5132,-0.878395,-0.966691,22.708,-0.168594,-0.00660206,-0.028722,0,0,0,3.255,0.1225,-1.1025,-0.226554,0.020862,-1.0409,-0.22414,0.06972,0.39242
2.54973,0,0,12.4503,12.4503,17.5497,17.5497,-0.89228,-1.17138,22.8759,-0.165022,-0.0068433,-0.0287924,0,0,0,2.8175,0.07,-1.9775,-0.226554,0.020862,-1.0409,-0.22414,0.06972,0.39242
-3.41691,0,0,18.4169,18.4169,11.5831,11.5831,-0.818652,-1.04068,22.8081,0.092191,-0.057341,0.0171306,0,0,0,3.2025,-0.1925,-2.205,0.034038,-0.030866,-0.995398,-0.22414,0.06972,0.39242
-3.40028,0,0,18.4003,18.4003,11.5997,11.5997,-0.7472,-0.912749,22.7402,0.0899585,-0.0560948,0.0171857,0,0,0,2.9225,0.0175,-2.695,0.034038,-0.030866,-0.995398,-0.22414,0.06972,0.39242
-12.6488,0,0,27.6488,27.6488,2.3512,2.3512,-0.542546,-0.750464,22.6136,0.101583,-0.179536,0.0223079,0,0,0,2.835,0.0525,-2.905,0.048556,-0.157746,-0.990396,-0.22414,0.06972,0.39242
-12.8039,0,0,27.8039,27.8039,2.19606,2.19606,-0.341004,-0.592504,22.4883,0.0988264,-0.176019,0.0223673,0,0,0,3.465,-0.035,-3.15,0.048556,-0.157746,-0.990396,-0.22414,0.06972,0.39242
-1.2931,0,0,16.2931,16.2931,13.7069,13.7069,-0.312885,-0.718776,22.5857,-0.106224,-0.0402115,-0.0440473,0,0,0,3.465,0.07,-3.115,-0.159576,-0.02257,-1.05628,-0.22414,0.06972,0.39242
-1.3064,0,0,16.3064,16.3064,13.6936,13.6936,-0.285309,-0.842177,22.6825,-0.104071,-0.0397301,-0.0440741,0,0,0,3.3075,0.105,-2.975,-0.159576,-0.02257,-1.05628,-0.22414,0.06972,0.39242
-3.93936,0,0,18.9394,18.9394,11.0606,11.0606,-0.220002,-0.916148,22.7411,-0.0657269,-0.0702212,-0.00732727,0,0,0,3.1325,0.0875,-2.8525,-0.122366,-0.054168,-1.0198,-0.22456,0.06846,0.39438
-3.91672,0,0,18.9167,18.9167,11.0833,11.0833,-0.156742,-0.988491,22.7999,-0.0644644,-0.0691172,-0.00734463,0,0,0,2.5725,0.1575,-2.415,-0.122366,-0.054168,-1.0198,-0.22456,0.06846,0.39438
-1.67484,0,0,16.6748,16.6748,13.3252,13.3252,-0.127889,-0.923352,22.7819,0.0471376,-0.022694,-0.00634082,0,0,0,2.6075,0.0175,-1.8375,-0.00915,-0.008296,-1.01882,-0.22456,0.06846,0.39438
-1.67993,0,0,16.6799,16.6799,13.3201,13.3201,-0.0997205,-0.859757,22.7641,0.0460278,-0.0222025,-0.00632258,0,0,0,2.6075,0.0175,-1.8375,-0.00915,-0.008296,-1.01882,-0.22456,0.06846,0.39438
0.348135,0,0,14.6519,14.6519,15.3481,15.3481,-0.101913,-0.981713,22.8717,-0.0930104,-0.011005,0.0142985,0,0,0,2.59,0.1225,-0.945,-0.150914,0.002928,-0.998326,-0.22456,0.06846,0.39438
0.333527,0,0,14.6665,14.6665,15.3335,15.3335,-0.103835,-1.10088,22.9784,-0.0909308,-0.0110385,0.0142606,0,0,0,2.59,0.1225,-0.945,-0.150914,0.002928,-0.998326,-0.22456,0.06846,0.39438
1.07727,0,0,13.9227,13.9227,16.0773,16.0773,-0.116568,-0.898725,22.8889,0.154223,0.0295295,0.0354689,0,0,0,2.94,0.2625,0.3325,0.09882,0.043676,-0.977342,-0.22456,0.06846,0.39438
1.11665,0,0,13.8833,13.8833,16.1167,16.1167,-0.129542,-0.700934,22.7997,0.150771,0.029303,0.0355166,0,0,0,2.94,0.2625,0.3325,0.09882,0.043676,-0.977342,-0.22456,0.06846,0.39438
2.92938,0,0,12.0706,12.0706,17.9294,17.9294,-0.16865,-0.381124,22.6419,0.263395,0.070754,-0.0188986,0,0,0,3.185,0.63,0.7875,0.217526,0.085766,-1.03139,-0.23044,0.06538,0.39382
-2.83948,0,0,17.8395,17.8395,12.1605,12.1605,-0.122472,-0.301882,22.6108,0.0592523,-0.0403081,-0.0836822,0,0,0,2.9225,0.525,0.875,0.013908,-0.025986,-1.09568,-0.23044,0.06538,0.39382
-2.89004,0,0,17.89,17.89,12.11,12.11,-0.0767692,-0.224979,22.5799,0.0579101,-0.0395105,-0.0836746,0,0,0,3.2375,0.28,0.875,0.013908,-0.025986,-1.09568,-0.23044,0.06538,0.39382
-6.7511,0,0,21.7511,21.7511,8.2489,8.2489,0.0241252,-0.388216,22.684,-0.131796,-0.107972,0.0526608,0,0,0,3.395,0.2975,0.7875,-0.179462,-0.096136,-0.960384,-0.23044,0.06538,0.39382
-6.78632,0,0,21.7863,21.7863,8.21368,8.21368,0.122881,-0.547958,22.7863,-0.129008,-0.106249,0.0526358,0,0,0,3.0275,0.315,0.455,-0.179462,-0.096136,-0.960384,-0.23044,0.06538,0.39382
0.657444,0,0,14.3426,14.3426,15.6574,15.6574,0.11032,-0.589374,22.8438,-0.0297601,0.00710971,0.0206625,0,0,0,3.08,0.315,0.315,-0.08052,0.017324,-0.992104,-0.23044,0.06538,0.39382
0.621762,0,0,14.3782,14.3782,15.6218,15.6218,0.0986094,-0.630344,22.9003,-0.029045,0.00690532,0.0206552,0,0,0,3.3775,0,-0.0175,-0.08052,0.017324,-0.992104,-0.23044,0.06538,0.39382
-0.172266,0,0,15.1723,15.1723,14.8277,14.8277,0.098804,-0.630294,22.9009,0.106411,0.0393944,-0.131309,1,0,0,3.5525,0.21,-0.525,0.05551,0.049776,-1.1429,-0.23044,0.06538,0.39382
-0.149666,0,0,15.1497,15.1497,14.8503,14.8503,0.0986631,-0.630631,22.9008,0.106417,0.039392,-0.131309,1,0,0,3.36,-0.0175,-0.945,0.05551,0.049776,-1.1429,-0.22736,0.0665,0.39368
-1.99263,0,0,16.9926,16.9926,13.0074,13.0074,0.125443,-0.486673,22.8303,0.107427,-0.0110674,0.0120724,0,0,0,3.64,0,-1.0675,0.059048,-0.001098,-1.00064,-0.22736,0.0665,0.39368
-1.98572,0,0,16.9857,16.9857,13.0143,13.0143,0.151418,-0.346104,22.7587,0.104974,-0.0106141,0.0120891,0,0,0,3.6575,-0.07,-1.995,0.059048,-0.001098,-1.00064,-0.22736,0.0665,0.39368
-11.1837,0,0,26.1837,26.1837,3.81632,3.81632,0.311052,-0.486262,22.8265,-0.122917,-0.16183,0.0429202,0,0,0,3.7975,-0.14,-2.135,-0.172264,-0.15494,-0.970022,-0.22736,0.0665,0.39368
-11.2008,0,0,26.2008,26.2008,3.7992,3.7992,0.466738,-0.623633,22.8928,-0.120519,-0.159113,0.0428785,0,0,0,3.01,-0.1225,-2.31,-0.172264,-0.15494,-0.970022,-0.22736,0.0665,0.39368
8.49153,0,0,6.50847,6.50847,23.4915,23.4915,0.330711,-0.610854,22.9404,0.0256478,0.125999,0.0427745,0,0,0,3.08,-0.175,-2.52,-0.025254,0.132248,-0.970144,-0.22736,0.0665,0.39368
8.5018,0,0,6.4982,6.4982,23.5018,23.5018,0.198109,-0.598175,22.9884,0.0254266,0.123685,0.0427875,0,0,0,3.64,-0.2625,-2.205,-0.025254,0.132248,-0.970144,-0.22736,0.0665,0.39368
1.7554,0,0,13.2446,13.2446,16.7554,16.7554,0.167529,-0.712512,23.09,-0.0844663,0.0183667,-0.00038855,0,0,0,3.6575,-0.2275,-2.205,-0.137616,0.027572,-1.01297,-0.22736,0.0665,0.39368
1.71031,0,0,13.2897,13.2897,16.7103,16.7103,0.138411,-0.823315,23.1849,-0.0825326,0.0178585,-0.000413111,0,0,0,3.99,0.1575,-2.3625,-0.137616,0.027572,-1.01297,-0.22568,0.07098,0.39256
-1.06968,0,0,16.0697,16.0697,13.9303,13.9303,0.150662,-0.90968,23.2556,-0.071914,-0.0196649,-0.042116,0,0,0,4.34,0.2975,-2.0475,-0.128466,-0.010126,-1.05432,-0.22568,0.07098,0.39256
-1.10269,0,0,16.1027,16.1027,13.8973,13.8973,0.163072,-0.994203,23.3269,-0.070439,-0.0194484,-0.0421411,0,0,0,4.4625,0.245,-1.4,-0.128466,-0.010126,-1.05432,-0.22568,0.07098,0.39256
-1.01606,0,0,16.0161,16.0161,13.9839,13.9839,0.173891,-0.799493,23.2256,0.147753,0.0100509,0.0211071,0,0,0,4.165,0.315,-1.225,0.094062,0.019154,-0.991616,-0.22568,0.07098,0.39256
-0.908564,0,0,15.9086,15.9086,14.0914,14.0914,0.182855,-0.609493,23.1255,0.144437,0.0102075,0.0211474,0,0,0,3.5175,0.07,-0.8225,0.094062,0.019154,-0.991616,-0.22568,0.07098,0.39256
-8.43433,0,0,23.4343,23.4343,6.56567,6.56567,0.301501,-0.260213,22.8954,0.27149,-0.0848124,-0.0211094,0,0,0,3.255,0.14,-0.5075,0.227774,-0.077836,-1.03358,-0.22568,0.07098,0.39256
-8.43376,0,0,23.4338,23.4338,6.56624,6.56624,0.417019,0.0814517,22.6677,0.265526,-0.0827962,-0.0211127,0,0,0,3.29,0.1925,-0.21,0.227774,-0.077836,-1.03358,-0.22568,0.07098,0.39256
0.814746,0,0,14.1853,14.1853,15.8147,15.8147,0.394418,-0.00447712,22.7385,-0.0629291,0.0125567,0.0174969,0,0,0,3.115,0.28,-0.07,-0.103578,0.017812,-0.995276,-0.22568,0.07098,0.39256
0.814823,0,0,14.1852,14.1852,15.8148,15.8148,0.372409,-0.0881236,22.8107,-0.0614691,0.0121726,0.0174983,0,0,0,3.185,0.595,0.315,-0.103578,0.017812,-0.995276,-0.2289,0.06902,0.39256
2.40569,0,0,12.5943,12.5943,17.4057,17.4057,0.327743,-0.0682114,22.8253,0.0197002,0.0442451,0.0157822,0,0,0,3.465,0.35,0.35,-0.021716,0.05063,-0.996984,-0.2289,0.06902,0.39256
2.41831,0,0,12.5817,12.5817,17.4183,17.4183,0.284066,-0.0481576,22.8398,0.0193502,0.0434828,0.0157867,0,0,0,3.5875,0.63,0.315,-0.021716,0.05063,-0.996984,-0.2289,0.06902,0.39256
-0.552096,0,0,15.5521,15.5521,14.4479,14.4479,0.284922,-0.0476962,22.8414,-0.0828273,0.00685975,0.129883,1,0,0,3.92,0.455,0.0525,-0.124318,0.01403,-0.883768,-0.2289,0.06902,0.39256
-0.54302,0,0,15.543,15.543,14.457,14.457,0.285622,-0.0468741,22.8425,-0.0828417,0.00687197,0.129883,1,0,0,3.8325,0.665,-0.21,-0.124318,0.01403,-0.883768,-0.2289,0.06902,0.39256
-6.42956,0,0,21.4296,21.4296,8.57044,8.57044,0.372279,0.213762,22.6732,0.195428,-0.0587854,-0.00328579,0,0,0,3.6925,0.595,-0.35,0.159698,-0.05307,-1.01589,-0.2289,0.06902,0.39256
-6.42809,0,0,21.4281,21.4281,8.57191,8.57191,0.456636,0.468523,22.5053,0.190982,-0.0573133,-0.00332291,0,0,0,3.6925,0.595,-0.35,0.159698,-0.05307,-1.01589,-0.2289,0.06902,0.39256
-10.6461,0,0,25.6461,25.6461,4.3539,4.3539,0.60038,0.608567,22.3896,0.0930499,-0.127226,0.00437673,0,0,0,2.7825,0.35,-1.0325,0.063806,-0.125416,-1.00821,-0.2289,0.06902,0.39256
-10.6834,0,0,25.6834,25.6834,4.31656,4.31656,0.740889,0.744531,22.2786,0.090677,-0.124774,0.00432001,0,0,0,2.7825,0.35,-1.0325,0.063806,-0.125416,-1.00821,-0.22512,0.06762,0.3976
-1.2309,0,0,16.2309,16.2309,13.7691,13.7691,0.739642,0.744535,22.2776,0.0159633,-0.0645877,0.13649,1,0,0,2.7475,0.175,-1.4525,-0.011224,-0.06527,-0.877058,-0.22512,0.06762,0.3976
-1.22876,0,0,16.2288,16.2288,13.7712,13.7712,0.738395,0.744539,22.2766,0.0159632,-0.0646095,0.13649,1,0,0,2.7475,0.175,-1.4525,-0.011224,-0.06527,-0.877058,-0.22512,0.06762,0.3976
8.73574,0,0,6.26426,6.26426,23.7357,23.7357,0.591641,0.378273,22.5455,-0.279901,0.108815,-0.00468526,0,0,0,2.8,0.1925,-1.715,-0.31476,0.110532,-1.01724,-0.22512,0.06762,0.3976
8.80033,0,0,6.19967,6.19967,23.8003,23.8003,0.447802,0.0204306,22.8136,-0.273656,0.106305,-0.00464076,0,0,0,2.8,0.1925,-1.715,-0.31476,0.110532,-1.01724,-0.22512,0.06762,0.3976
-0.807092,0,0,15.8071,15.8071,14.1929,14.1929,0.448065,0.0204609,22.8125,0.0426927,0.131467,-0.138532,1,0,0,3.5875,0.1925,-1.5575,0.002928,0.135664,-1.15009,-0.22512,0.06762,0.3976
-5.73826,0,0,20.7383,20.7383,9.26174,9.26174,0.520343,0.0802703,22.7702,0.0389761,-0.0652386,-0.0114145,0,0,0,3.1325,0.105,-1.7675,0.000244,-0.062098,-1.02395,-0.22512,0.06762,0.3976
-5.78276,0,0,20.7828,20.7828,9.21724,9.21724,0.59137,0.138339,22.7285,0.0379627,-0.063999,-0.0114285,0,0,0,3.255,-0.0175,-1.7325,0.000244,-0.062098,-1.02395,-0.22512,0.06762,0.3976
2.48704,0,0,12.513,12.513,17.487,17.487,0.539742,-0.128081,22.9084,-0.19392,0.0211993,0.0409569,0,0,0,2.87,-0.14,-1.365,-0.23729,0.023912,-0.971974,-0.23212,0.0707,0.3871
1.99543,0,0,13.0046,13.0046,16.9954,16.9954,0.496651,-0.0607968,22.8855,0.0594181,0.0498798,-0.0502622,0,0,0,3.0975,-0.07,-1.19,0.0183,0.053314,-1.0625,-0.23212,0.0707,0.3871
2.0366,0,0,12.9634,12.9634,17.0366,17.0366,0.454091,0.00507771,22.8631,0.0582684,0.0491371,-0.0502555,0,0,0,3.045,-0.07,-0.91,0.0183,0.053314,-1.0625,-0.23212,0.0707,0.3871
6.81981,0,0,8.18019,8.18019,21.8198,21.8198,0.342787,-0.160411,23,-0.116698,0.0904273,-0.00315658,0,0,0,2.8875,0.105,-0.6825,-0.160308,0.096502,-1.01577,-0.23212,0.0707,0.3871
6.86107,0,0,8.13893,8.13893,21.8611,21.8611,0.233805,-0.321472,23.1366,-0.113887,0.0885252,-0.00315883,0,0,0,2.9225,0.35,-0.6125,-0.160308,0.096502,-1.01577,-0.23212,0.0707,0.3871
-7.79616,0,0,22.7962,22.7962,7.20384,7.20384,0.341767,-0.312284,23.1156,-0.00616838,-0.11171,-0.0727563,0,0,0,3.36,0.49,-0.28,-0.051972,-0.105408,-1.08482,-0.23212,0.0707,0.3871
-7.89672,0,0,22.8967,22.8967,7.10328,7.10328,0.448358,-0.30345,23.0951,-0.00632256,-0.10985,-0.0727683,0,0,0,3.71,0.5775,-0.1575,-0.051972,-0.105408,-1.08482,-0.23212,0.0707,0.3871
3.05495,0,0,11.9451,11.9451,18.0549,18.0549,0.392189,-0.16207,23.0345,0.115368,0.0691846,0.00249343,0,0,0,3.5875,0.3325,-0.175,0.072712,0.07442,-1.01016,-0.23212,0.0707,0.3871
3.07907,0,0,11.9209,11.9209,18.0791,18.0791,0.337145,-0.0251689,22.9811,0.112979,0.0682239,0.00250345,0,0,0,4.165,0.28,-0.2275,0.072712,0.07442,-1.01016,-0.22526,0.06762,0.3906
-2.83355,0,0,17.8336,17.8336,12.1664,12.1664,0.369904,0.181534,22.8605,0.157601,-0.0102204,0.00483102,0,0,0,4.06,0.49,-0.3675,0.121146,-0.004514,-1.00784,-0.22526,0.06762,0.3906
-2.77256,0,0,17.7726,17.7726,12.2274,12.2274,0.40091,0.383864,22.7404,0.15407,-0.00967933,0.00480996,0,0,0,3.71,0.6125,-0.56,0.121146,-0.004514,-1.00784,-0.22526,0.06762,0.3906
-5.0625,0,0,20.0625,20.0625,9.9375,9.9375,0.464546,0.620642,22.5886,0.180309,-0.0381237,-0.00470169,0,0,0,4.13,0.595,-0.525,0.151646,-0.034038,-1.01724,-0.22526,0.06762,0.3906
-5.01843,0,0,20.0184,20.0184,9.98157,9.98157,0.525865,0.852277,22.4377,0.176266,-0.0370541,-0.0047629,0,0,0,3.8325,0.6825,-0.595,0.151646,-0.034038,-1.01724,-0.22526,0.06762,0.3906
-5.12246,0,0,20.1225,20.1225,9.87754,9.87754,0.587089,0.662644,22.547,-0.154267,-0.0782411,0.00854892,0,0,0,3.6225,0.63,-0.595,-0.18361,-0.07625,-1.00406,-0.22526,0.06762,0.3906
-5.19437,0,0,20.1944,20.1944,9.80563,9.80563,0.647753,0.476923,22.6545,-0.151026,-0.0771821,0.00856974,0,0,0,3.71,0.4725,-0.875,-0.18361,-0.07625,-1.00406,-0.22526,0.06762,0.3906
1.07197,0,0,13.928,13.928,16.072,16.072,0.615296,0.498596,22.6574,0.0189191,0.0337532,0.0361132,0,0,0,4.06,0.4375,-0.9625,-0.012566,0.035136,-0.976732,-0.22526,0.06762,0.3906
1.08522,0,0,13.9148,13.9148,16.0852,16.0852,0.583498,0.519219,22.6563,0.0185592,0.0331982,0.0361158,0,0,0,4.095,-0.0175,-1.0325,-0.012566,0.035136,-0.976732,-0.22512,0.07028,0.38976
-1.07594,0,0,16.0759,16.0759,13.9241,13.9241,0.5841,0.518947,22.6557,-0.0515333,-0.0930703,0.15845,1,0,0,3.78,0.0175,-1.225,-0.08296,-0.091012,-0.855342,-0.22512,0.07028,0.38976
-1.1135,0,0,16.1135,16.1135,13.8865,13.8865,0.585233,0.518526,22.6552,-0.051526,-0.0930505,0.158449,1,0,0,4.0775,-0.07,-1.1725,-0.08296,-0.091012,-0.855342,-0.22512,0.07028,0.38976
2.90571,0,0,12.0943,12.0943,17.9057,17.9057,0.527633,0.410182,22.7402,-0.079885,0.0466344,-0.0269319,0,0,0,3.7625,0.105,-1.2425,-0.113338,0.049532,-1.03932,-0.22512,0.07028,0.38976
2.91371,0,0,12.0863,12.0863,17.9137,17.9137,0.471428,0.304018,22.8253,-0.0780321,0.0456536,-0.0269118,0,0,0,3.85,-0.1225,-0.9625,-0.113338,0.049532,-1.03932,-0.22512,0.07028,0.38976
0.434553,0,0,14.5654,14.5654,15.4346,15.4346,0.45291,0.375311,22.792,0.0566661,0.0248131,0.010091,0,0,0,3.3775,0.175,-0.98,0.02318,0.029036,-1.0026,-0.22512,0.07028,0.38976
0.454032,0,0,14.546,14.546,15.454,15.454,0.434594,0.445122,22.759,0.0554477,0.0244933,0.0100847,0,0,0,3.395,0.21,-0.91,0.02318,0.029036,-1.0026,-0.22512,0.07028,0.38976
-5.69481,0,0,20.6948,20.6948,9.30519,9.30519,0.506565,0.717815,22.5763,0.209713,-0.0442297,-0.001654,0,0,0,3.43,0.035,-0.8575,0.182878,-0.04087,-1.01419,-0.22512,0.07028,0.38976
-5.68413,0,0,20.6841,20.6841,9.31587,9.31587,0.576487,0.984503,22.3949,0.205059,-0.0430101,-0.00173467,0,0,0,3.43,0.035,-0.8575,0.182878,-0.04087,-1.01419,-0.22512,0.07028,0.38976
-0.950946,0,0,15.9509,15.9509,14.0491,14.0491,0.575439,0.984197,22.3949,0.0994935,0.0146154,-0.0994784,1,0,0,2.8525,0,-0.9275,0.07686,0.016714,-1.11118,-0.22708,0.0693,0.39046
0.504741,0,0,14.4953,14.4953,15.5047,15.5047,0.553155,1.11325,22.3188,0.107446,0.0349877,-0.0375498,0,0,0,3.08,0,-0.9975,0.087108,0.037454,-1.04969,-0.22708,0.0693,0.39046
0.474721,0,0,14.5253,14.5253,15.4747,15.4747,0.531895,1.23963,22.2432,0.105241,0.0346163,-0.0375916,0,0,0,3.605,0.07,-0.98,0.087108,0.037454,-1.04969,-0.22708,0.0693,0.39046
-5.48586,0,0,20.4859,20.4859,9.51414,9.51414,0.598251,1.49974,22.0618,0.190966,-0.0386022,0.0387625,0,0,0,3.36,0.105,-1.2775,0.177754,-0.036844,-0.973804,-0.22708,0.0693,0.39046
-5.47517,0,0,20.4752,20.4752,9.52483,9.52483,0.662704,1.75409,21.8816,0.186529,-0.0374792,0.0386241,0,0,0,3.36,0.105,-1.2775,0.177754,-0.036844,-0.973804,-0.22708,0.0693,0.39046
4.36842,0,0,10.6316,10.6316,19.3684,19.3684,0.58169,1.6013,21.9862,-0.111969,0.0640612,-0.00443744,0,0,0,3.185,0.5775,-1.365,-0.124684,0.066002,-1.01663,-0.22708,0.0693,0.39046
4.39775,0,0,10.6023,10.6023,19.3977,19.3977,0.502376,1.45209,22.0904,-0.109365,0.0626781,-0.00435497,0,0,0,3.185,0.5775,-1.365,-0.124684,0.066002,-1.01663,-0.22708,0.0693,0.39046
8.03672,0,0,6.96328,6.96328,23.0367,23.0367,0.371997,1.25998,22.2372,-0.138328,0.108155,0.0101267,0,0,0,3.0975,0.455,-1.505,-0.157136,0.113704,-1.00235,-0.22204,0.07042,0.39354
-3.06152,0,0,18.0615,18.0615,11.9385,11.9385,0.407141,1.32236,22.1863,0.0491288,-0.0319215,-0.0589991,0,0,0,2.695,0.28,-1.5225,0.032208,-0.02684,-1.07092,-0.22204,0.07042,0.39354
-3.07168,0,0,18.0717,18.0717,11.9283,11.9283,0.441509,1.38329,22.1357,0.0480657,-0.031322,-0.0590286,0,0,0,2.695,0.28,-1.5225,0.032208,-0.02684,-1.07092,-0.22204,0.07042,0.39354
1.68258,0,0,13.3174,13.3174,16.6826,16.6826,0.405534,1.36903,22.1489,-0.0084193,0.0321669,0.034054,0,0,0,3.045,0.2275,-1.3125,-0.024766,0.03721,-0.978562,-0.22204,0.07042,0.39354
1.70142,0,0,13.2986,13.2986,16.7014,16.7014,0.370229,1.35516,22.1621,-0.0081773,0.0315509,0.034064,0,0,0,3.045,0.2275,-1.3125,-0.024766,0.03721,-0.978562,-0.22204,0.07042,0.39354
9.31261,0,0,5.68739,5.68739,24.3126,24.3126,0.224684,1.30096,22.2282,-0.0292204,0.14552,-0.0558992,0,0,0,3.3425,0.1575,-0.7875,-0.046848,0.153598,-1.06787,-0.22204,0.07042,0.39354
9.39378,0,0,5.60622,5.60622,24.3938,24.3938,0.0817808,1.24821,22.2943,-0.0282999,0.143027,-0.0558721,0,0,0,3.3425,0.1575,-0.7875,-0.046848,0.153598,-1.06787,-0.22204,0.07042,0.39354
-4.48538,0,0,19.4854,19.4854,10.5146,10.5146,0.145348,1.47474,22.1357,0.164554,-0.0390542,0.0519806,0,0,0,3.535,0,-0.3675,0.150792,-0.029402,-0.96075,-0.22204,0.07042,0.39354
-4.51864,0,0,19.5186,19.5186,10.4814,10.4814,0.207729,1.69757,21.9782,0.160667,-0.0379662,0.0518696,0,0,0,3.535,0,-0.3675,0.150792,-0.029402,-0.96075,-0.22568,0.06972,0.3878
4.59274,0,0,10.4073,10.4073,19.5927,19.5927,0.135393,1.6341,22.0296,-0.0422006,0.0644575,0.010226,0,0,0,3.5875,-0.105,-0.1925,-0.054046,0.074176,-1.00211,-0.22568,0.06972,0.3878
1.30868,0,0,13.6913,13.6913,16.3087,16.3087,0.112923,1.74869,21.9584,0.0888271,0.0324346,0.0276265,0,0,0,3.4125,-0.035,-0.1225,0.079544,0.042578,-0.984784,-0.22568,0.06972,0.3878
1.33202,0,0,13.668,13.668,16.332,16.332,0.0907038,1.861,21.8882,0.086868,0.0320469,0.0275655,0,0,0,3.465,0.07,0.2625,0.079544,0.042578,-0.984784,-0.22568,0.06972,0.3878
-5.96361,0,0,20.9636,20.9636,9.03639,9.03639,0.175625,1.7892,21.9089,-0.0651944,-0.094949,-0.0448147,0,0,0,3.3075,0.105,0.3325,-0.07442,-0.085766,-1.05664,-0.22568,0.06972,0.3878
-6.04217,0,0,21.0422,21.0422,8.95783,8.95783,0.259461,1.71871,21.9289,-0.0639648,-0.0934863,-0.0447826,0,0,0,3.465,0.035,0.1225,-0.07442,-0.085766,-1.05664,-0.22568,0.06972,0.3878
-5.75628,0,0,20.7563,20.7563,9.24372,9.24372,0.336917,1.91797,21.7812,0.146253,-0.056719,0.0233364,0,0,0,3.2375,0.0525,0.175,0.140178,-0.050386,-0.988932,-0.22568,0.06972,0.3878
-5.84617,0,0,20.8462,20.8462,9.15383,9.15383,0.413648,2.11266,21.634,0.142857,-0.0553814,0.0232081,0,0,0,3.9025,0.0175,-0.1225,0.140178,-0.050386,-0.988932,-0.22568,0.06972,0.3878
-0.779739,0,0,15.7797,15.7797,14.2203,14.2203,0.414362,2.11256,21.6352,-0.0761802,-0.0248373,-0.103798,1,0,0,3.815,0.1225,-0.175,-0.079788,-0.019886,-1.11496,-0.22568,0.06972,0.3878
-0.810953,0,0,15.811,15.811,14.189,14.189,0.415513,2.11275,21.6356,-0.0761836,-0.0248172,-0.103798,1,0,0,4.0775,0.2975,-0.6825,-0.079788,-0.019886,-1.11496,-0.22554,0.0623,0.39298
-0.770665,0,0,15.7707,15.7707,14.2293,14.2293,0.416044,2.11308,21.6352,-0.0566301,-0.112739,-0.110806,1,0,0,3.745,0.3675,-1.1025,-0.060146,-0.107726,-1.12191,-0.22554,0.0623,0.39298
-0.763231,0,0,15.7632,15.7632,14.2368,14.2368,0.416451,2.11367,21.634,-0.0566405,-0.112732,-0.110807,1,0,0,3.6925,0.525,-1.575,-0.060146,-0.107726,-1.12191,-0.22554,0.0623,0.39298
0.751202,0,0,14.2488,14.2488,15.7512,15.7512,0.394728,1.93641,21.7491,-0.138346,0.00559697,-0.0166391,0,0,0,4.2525,0.2275,-1.8375,-0.145302,0.010858,-1.02858,-0.22554,0.0623,0.39298
0.870097,0,0,14.1299,14.1299,15.8701,15.8701,0.371839,1.7633,21.8629,-0.135326,0.00519834,-0.0165389,0,0,0,3.22,0.2975,-2.2225,-0.145302,0.010858,-1.02858,-0.22554,0.0623,0.39298
-0.636783,0,0,15.6368,15.6368,14.3632,14.3632,0.371559,1.76331,21.8604,-0.191452,-0.0460998,-0.139119,1,0,0,3.325,0.175,-2.31,-0.201666,-0.040382,-1.15022,-0.22554,0.0623,0.39298
-0.616354,0,0,15.6164,15.6164,14.3836,14.3836,0.370987,1.7643,21.8576,-0.19147,-0.0461097,-0.139119,1,0,0,3.1675,0.7525,-2.52,-0.201666,-0.040382,-1.15022,-0.22554,0.0623,0.39298
-0.647939,0,0,15.6479,15.6479,14.3521,14.3521,0.370892,1.76515,21.8551,0.012976,-0.0414706,0.103089,1,0,0,3.43,0.665,-2.38,0.00366,-0.035746,-0.909876,-0.22554,0.0623,0.39298
-0.655923,0,0,15.6559,15.6559,14.3441,14.3441,0.370914,1.76584,21.8523,0.0129639,-0.0414702,0.103089,1,0,0,3.5,0.5775,-2.5025,0.00366,-0.035746,-0.909876,-0.22596,0.0693,0.39648
3.51575,0,0,11.4843,11.4843,18.5157,18.5157,0.310005,1.61344,21.9537,-0.122385,0.0482078,-0.0865361,0,0,0,3.3075,0.875,-2.59,-0.134932,0.0549,-1.09812,-0.22596,0.0693,0.39648
3.49466,0,0,11.5053,11.5053,18.4947,18.4947,0.251005,1.4643,22.0558,-0.119783,0.0471788,-0.0864612,0,0,0,3.605,0.735,-1.8725,-0.134932,0.0549,-1.09812,-0.22596,0.0693,0.39648
-5.12192,0,0,20.1219,20.1219,9.87808,9.87808,0.319406,1.50465,22.0105,0.0256602,-0.064473,-0.0202161,0,0,0,3.7275,0.595,-1.82,0.011834,-0.057828,-1.03236,-0.22596,0.0693,0.39648
-5.08186,0,0,20.0819,20.0819,9.91814,9.91814,0.385423,1.54383,21.9665,0.0249767,-0.0633213,-0.0202414,0,0,0,3.115,0.525,-1.295,0.011834,-0.057828,-1.03236,-0.22596,0.0693,0.39648
4.49852,0,0,10.5015,10.5015,19.4985,19.4985,0.309776,1.41896,22.0585,-0.0867983,0.0577302,0.0682229,0,0,0,3.0275,0.5075,-1.0325,-0.102602,0.064416,-0.944646,-0.22596,0.0693,0.39648
4.46702,0,0,10.533,10.533,19.467,19.467,0.236577,1.29624,22.1512,-0.084657,0.0564533,0.0682798,0,0,0,3.5175,0.0525,-0.455,-0.102602,0.064416,-0.944646,-0.22596,0.0693,0.39648
11.9091,0,0,3.09087,3.09087,26.9091,26.9091,0.0566058,1.17204,22.272,-0.0828543,0.172387,-0.0321144,0,0,0,3.395,-0.14,-0.245,-0.102968,0.183366,-1.04432,-0.22596,0.0693,0.39648
11.9999,0,0,3.00007,3.00007,26.9999,26.9999,-0.11996,1.05173,22.3898,-0.0807549,0.169306,-0.0320754,0,0,0,3.395,0.245,0.0875,-0.102968,0.183366,-1.04432,-0.2268,0.07154,0.39368
-2.15928,0,0,17.1593,17.1593,12.8407,12.8407,-0.085079,1.35223,22.1926,0.235817,-0.0053375,0.0182246,0,0,0,3.57,0.1575,0.07,0.22021,0.008296,-0.9943,-0.2268,0.07154,0.39368
-2.12602,0,0,17.126,17.126,12.874,12.874,-0.0516009,1.6464,21.9964,0.230685,-0.00475324,0.0180909,0,0,0,3.57,0.1575,0.07,0.22021,0.008296,-0.9943,-0.2268,0.07154,0.39368
0.02195,0,0,14.978,14.978,15.022,15.022,-0.0503753,1.63231,21.9996,-0.0111905,-0.0016787,0.0279339,0,0,0,3.8675,-0.105,0.1575,-0.022936,0.011346,-0.98454,-0.2268,0.07154,0.39368
0.0192244,0,0,14.9808,14.9808,15.0192,15.0192,-0.049142,1.61852,22.0029,-0.01095,-0.00165719,0.0279407,0,0,0,3.8675,-0.105,0.1575,-0.022936,0.011346,-0.98454,-0.2268,0.07154,0.39368
6.6934,0,0,8.3066,8.3066,21.6934,21.6934,-0.145421,1.3794,22.1718,-0.192286,0.0779992,-0.0692052,0,0,0,3.5525,0.0525,-0.14,-0.20923,0.092598,-1.08104,-0.2268,0.07154,0.39368
6.72947,0,0,8.27053,8.27053,21.7295,21.7295,-0.239696,1.14571,22.34,-0.188209,0.0763539,-0.0691209,0,0,0,3.5525,0.0525,-0.14,-0.20923,0.092598,-1.08104,-0.2268,0.07154,0.39368
0.175671,0,0,14.8243,14.8243,15.1757,15.1757,-0.235769,1.29503,22.2444,0.109012,0.00900872,0.0649607,0,0,0,3.0625,0.2275,-0.385,0.091866,0.025254,-0.94794,-0.2268,0.07154,0.39368
0.206824,0,0,14.7932,14.7932,15.2068,15.2068,-0.2324,1.44076,22.1621,0.10647,0.00906776,0.0649002,0,0,0,3.0625,0.2275,-0.385,0.091866,0.025254,-0.94794,-0.22526,0.063,0.39172
-1.14017,0,0,16.1402,16.1402,13.8598,13.8598,-0.209445,1.5904,22.0699,0.126941,-0.00872837,-0.0691812,0,0,0,3.465,0.14,-1.2075,0.115046,0.007076,-1.08092,-0.22526,0.063,0.39172
-1.12942,0,0,16.1294,16.1294,13.8706,13.8706,-0.18725,1.73677,21.9782,0.124387,-0.00834091,-0.069254,0,0,0,3.465,0.14,-1.2075,0.115046,0.007076,-1.08092,-0.22526,0.063,0.39172
-0.89448,0,0,15.8945,15.8945,14.1055,14.1055,-0.16907,1.81438,21.929,0.0666641,-0.0111989,-0.0751965,0,0,0,3.4125,0.035,-1.4875,0.058438,0.003904,-1.08678,-0.22526,0.063,0.39172
9.90586,0,0,5.09414,5.09414,24.9059,24.9059,-0.309114,1.72078,22.023,-0.0603562,0.130345,0.00402253,0,0,0,3.9725,0.14,-1.75,-0.07076,0.147742,-1.00821,-0.22526,0.063,0.39172
10.1251,0,0,4.87488,4.87488,25.1251,25.1251,-0.448676,1.62935,22.1173,-0.0587612,0.12791,0.00405307,0,0,0,2.7825,0.07,-1.5575,-0.07076,0.147742,-1.00821,-0.22526,0.063,0.39172
0.871255,0,0,14.1287,14.1287,15.8713,15.8713,-0.44941,1.629,22.1162,0.0854483,0.00418303,-0.176558,1,0,0,3.045,-0.0175,-1.505,0.074054,0.024156,-1.18743,-0.22526,0.063,0.39172
0.904182,0,0,14.0958,14.0958,15.9042,15.9042,-0.450605,1.62917,22.1154,0.0854455,0.00416219,-0.176558,1,0,0,2.7825,0.28,-1.3475,0.074054,0.024156,-1.18743,-0.22526,0.063,0.39172
-6.63555,0,0,21.6356,21.6356,8.36445,8.36445,-0.341645,1.89067,21.9258,0.172727,-0.0763716,0.126014,0,0,0,2.94,0.175,-1.2075,0.166286,-0.058194,-0.887062,-0.22442,0.06594,0.3948
0.596675,0,0,14.4033,14.4033,15.5967,15.5967,-0.34118,1.89063,21.9253,0.0522137,0.0620061,-0.103162,1,0,0,3.71,0.1575,-1.19,0.045262,0.080032,-1.11447,-0.22442,0.06594,0.3948
0.591614,0,0,14.4084,14.4084,15.5916,15.5916,-0.340652,1.89052,21.9248,0.0522155,0.0620153,-0.103162,1,0,0,3.745,0.1225,-1.19,0.045262,0.080032,-1.11447,-0.22442,0.06594,0.3948
5.75895,0,0,9.24105,9.24105,20.7589,20.7589,-0.41561,1.69132,22.0701,-0.153629,0.0572874,-0.0122031,0,0,0,4.0425,0.28,-1.0675,-0.164944,0.076616,-1.02431,-0.22442,0.06594,0.3948
5.79821,0,0,9.20179,9.20179,20.7982,20.7982,-0.48917,1.4964,22.2153,-0.150229,0.0560034,-0.0121186,0,0,0,3.92,0.14,-0.8225,-0.164944,0.076616,-1.02431,-0.22442,0.06594,0.3948
-3.69858,0,0,18.6986,18.6986,11.3014,11.3014,-0.422088,1.32746,22.3134,-0.138291,-0.0803415,0.0334543,0,0,0,3.5175,0.28,-0.8925,-0.155916,-0.060756,-0.979172,-0.22442,0.06594,0.3948
-3.71135,0,0,18.7113,18.7113,11.2887,11.2887,-0.356582,1.16127,22.4106,-0.135391,-0.079199,0.033525,0,0,0,3.115,-0.21,-0.805,-0.155916,-0.060756,-0.979172,-0.22442,0.06594,0.3948
-4.2194,0,0,19.2194,19.2194,10.7806,10.7806,-0.285377,1.40509,22.2461,0.192496,-0.0491341,-0.00799695,0,0,0,3.08,0,-0.84,0.177632,-0.031964,-1.02029,-0.22442,0.06594,0.3948
-4.20259,0,0,19.2026,19.2026,10.7974,10.7974,-0.21629,1.64477,22.0827,0.188315,-0.0479282,-0.00810299,0,0,0,2.8175,0.35,-0.805,0.177632,-0.031964,-1.02029,-0.22722,0.06538,0.39564
-3.23368,0,0,18.2337,18.2337,11.7663,11.7663,-0.163169,1.86122,21.9347,0.1781,-0.0345442,-0.0433788,0,0,0,3.0625,0,-0.8575,0.171166,-0.01952,-1.05518,-0.22722,0.06538,0.39564
-3.28231,0,0,18.2823,18.2823,11.7177,11.7177,-0.110735,2.07334,21.7871,0.1744,-0.0336293,-0.0435037,0,0,0,3.5175,0.2275,-1.1375,0.171166,-0.01952,-1.05518,-0.22722,0.06538,0.39564
-0.0198472,0,0,15.0198,15.0198,14.9802,14.9802,-0.10733,2.02584,21.8136,-0.037979,-0.00767912,-0.0175318,0,0,0,3.64,0.3325,-1.1025,-0.042944,0.006344,-1.02944,-0.22722,0.06538,0.39564
-0.0549508,0,0,15.055,15.055,14.945,14.945,-0.103501,1.9798,21.8394,-0.037176,-0.00761239,-0.0175036,0,0,0,3.8675,0.5775,-1.4,-0.042944,0.006344,-1.02944,-0.22722,0.06538,0.39564
0.141825,0,0,14.8582,14.8582,15.1418,15.1418,-0.102647,1.98051,21.8385,-0.187709,-0.0691494,-0.124346,1,0,0,3.9375,0.595,-1.4525,-0.194102,-0.055144,-1.13545,-0.22722,0.06538,0.39564
0.173785,0,0,14.8262,14.8262,15.1738,15.1738,-0.102281,1.98092,21.8378,-0.187716,-0.069143,-0.124346,1,0,0,3.6575,0.42,-1.2775,-0.194102,-0.055144,-1.13545,-0.22722,0.06538,0.39564
-10.9614,0,0,25.9614,25.9614,4.03862,4.03862,0.0607105,2.41774,21.5218,0.330334,-0.121257,0.0674076,0,0,0,3.955,0.2275,-1.3125,0.333792,-0.110044,-0.94489,-0.22722,0.06538,0.39564
-10.8509,0,0,25.8509,25.8509,4.14914,4.14914,0.217803,2.84393,21.2018,0.322903,-0.118519,0.0670595,0,0,0,3.3425,0.455,-0.9975,0.333792,-0.110044,-0.94489,-0.22428,0.07098,0.39606
0.0950603,0,0,14.9049,14.9049,15.0951,15.0951,0.210892,2.54534,21.3754,-0.251378,-0.024357,-0.0624057,0,0,0,3.0975,0.5075,-1.015,-0.248148,-0.01586,-1.0736,-0.22428,0.07098,0.39606
0.00609894,0,0,14.9939,14.9939,15.0061,15.0061,0.205462,2.25333,21.5479,-0.246286,-0.0244509,-0.062192,0,0,0,3.605,0.49,-0.8575,-0.248148,-0.01586,-1.0736,-0.22428,0.07098,0.39606
3.20979,0,0,11.7902,11.7902,18.2098,18.2098,0.153382,2.11833,21.634,-0.10811,0.0421772,-0.0870579,0,0,0,3.5,0.35,-0.35,-0.111752,0.051606,-1.09837,-0.22428,0.07098,0.39606
3.24254,0,0,11.7575,11.7575,18.2425,18.2425,0.102193,1.98641,21.7198,-0.105809,0.0412845,-0.0869734,0,0,0,3.36,0.35,-0.3675,-0.111752,0.051606,-1.09837,-0.22428,0.07098,0.39606
-5.4466,0,0,20.4466,20.4466,9.5534,9.5534,0.17926,2.17302,21.5758,0.14557,-0.0605687,-0.0145553,0,0,0,3.605,0.21,-0.0525,0.14396,-0.051484,-1.02639,-0.22428,0.07098,0.39606
-5.46148,0,0,20.4615,20.4615,9.53852,9.53852,0.254518,2.35547,21.4328,0.142388,-0.0592567,-0.0146861,0,0,0,3.605,0.21,-0.0525,0.14396,-0.051484,-1.02639,-0.22428,0.07098,0.39606
5.29566,0,0,9.70434,9.70434,20.2957,20.2957,0.170682,2.28311,21.4852,-0.0490263,0.070812,0.0918439,0,0,0,3.955,0.1225,-0.105,-0.049532,0.07991,-0.920734,-0.22428,0.07098,0.39606
5.3404,0,0,9.6596,9.6596,20.3404,20.3404,0.0883959,2.21239,21.5411,-0.0477929,0.069377,0.0918955,0,0,0,3.955,0.1225,-0.105,-0.049532,0.07991,-0.920734,-0.22106,0.0693,0.39242
-1.74375,0,0,16.7437,16.7437,13.2563,13.2563,0.111742,1.98387,21.6761,-0.179507,-0.0436713,0.0388041,0,0,0,3.43,0.3675,-0.14,-0.185806,-0.033428,-0.97356,-0.22106,0.0693,0.39242
-1.78379,0,0,16.7838,16.7838,13.2162,13.2162,0.135058,1.76034,21.8099,-0.175607,-0.0432643,0.0389307,0,0,0,3.43,0.3675,-0.14,-0.185806,-0.033428,-0.97356,-0.22106,0.0693,0.39242
1.45037,0,0,13.5496,13.5496,16.4504,16.4504,0.110524,1.80707,21.7831,0.0344766,0.0264085,0.065709,0,0,0,3.045,0.315,-0.5075,0.025986,0.0366,-0.946964,-0.22106,0.0693,0.39242
-0.105596,0,0,15.1056,15.1056,14.8944,14.8944,0.109361,1.80655,21.7834,0.0420177,0.0760937,-0.128303,1,0,0,2.7825,-0.1225,-0.7175,0.03355,0.086254,-1.13948,-0.22106,0.0693,0.39242
-0.105525,0,0,15.1055,15.1055,14.8945,14.8945,0.108228,1.80576,21.7827,0.0420314,0.076074,-0.128303,1,0,0,2.8175,-0.28,-1.33,0.03355,0.086254,-1.13948,-0.22106,0.0693,0.39242
3.05823,0,0,11.9418,11.9418,18.0582,18.0582,0.0609149,1.61778,21.9087,-0.153683,0.0305503,-0.0716474,0,0,0,3.15,-0.14,-1.435,-0.166286,0.041602,-1.08336,-0.22106,0.0693,0.39242
3.06743,0,0,11.9326,11.9326,18.0674,18.0674,0.0147115,1.4348,22.0334,-0.15049,0.0297443,-0.0715618,0,0,0,3.15,0.315,-1.8725,-0.166286,0.041602,-1.08336,-0.22106,0.0693,0.39242
-6.40505,0,0,21.4051,21.4051,8.59495,8.59495,0.108074,1.42714,22.0157,-0.0156289,-0.0913641,0.0232331,0,0,0,3.535,0.3675,-2.0475,-0.030988,-0.081008,-0.989298,-0.22106,0.0693,0.39242
-6.47596,0,0,21.476,21.476,8.52404,8.52404,0.200018,1.41947,22.0003,-0.0154951,-0.0897599,0.0232321,0,0,0,3.57,0.14,-2.3975,-0.030988,-0.081008,-0.989298,-0.2254,0.06622,0.38738
-0.36254,0,0,15.3625,15.3625,14.6375,14.6375,0.200253,1.27031,22.0947,-0.124295,-0.0168459,-0.0600659,0,0,0,3.115,0.315,-2.3275,-0.142862,-0.008174,-1.07201,-0.2254,0.06622,0.38738
-0.434932,0,0,15.4349,15.4349,14.5651,14.5651,0.20154,1.12471,22.188,-0.121754,-0.0168233,-0.0600129,0,0,0,3.5525,0.455,-2.5725,-0.142862,-0.008174,-1.07201,-0.2254,0.06622,0.38738
3.82788,0,0,11.1721,11.1721,18.8279,18.8279,0.14053,1.17267,22.1758,0.0436012,0.0645476,0.00464443,0,0,0,3.2375,0.4725,-2.31,0.024034,0.074176,-1.00784,-0.2254,0.06622,0.38738
3.86776,0,0,11.1322,11.1322,18.8678,18.8678,0.0805426,1.21894,22.1645,0.0427939,0.0635008,0.0046296,0,0,0,3.255,0.0175,-1.7675,0.024034,0.074176,-1.00784,-0.2254,0.06622,0.38738
2.95318,0,0,12.0468,12.0468,17.9532,17.9532,0.0354898,1.14343,22.2267,-0.0547779,0.0360911,0.0168295,0,0,0,3.2025,0.28,-1.6975,-0.075274,0.04758,-0.995764,-0.2254,0.06622,0.38738
3.01616,0,0,11.9838,11.9838,18.0162,18.0162,-0.00929829,1.07013,22.2894,-0.0534987,0.0353095,0.0168544,0,0,0,2.8175,0.5425,-1.2075,-0.075274,0.04758,-0.995764,-0.2254,0.06622,0.38738
-0.975163,0,0,15.9752,15.9752,14.0248,14.0248,0.0053869,0.674583,22.5422,-0.331601,-0.0576169,0.00245155,0,0,0,3.1325,0.665,-1.1025,-0.361486,-0.045506,-1.01016,-0.2254,0.06622,0.38738
-1.01539,0,0,16.0154,16.0154,13.9846,13.9846,0.0202735,0.286507,22.7919,-0.324828,-0.0573571,0.0025083,0,0,0,3.22,0.3675,-0.595,-0.361486,-0.045506,-1.01016,-0.22736,0.0665,0.38836
-1.74344,0,0,16.7434,16.7434,13.2566,13.2566,0.0454024,0.0802455,22.9289,-0.179941,-0.0503236,-0.0671922,0,0,0,3.0625,0,-0.3325,-0.2196,-0.038918,-1.07933,-0.22736,0.0665,0.38836
-1.77161,0,0,16.7716,16.7716,13.2284,13.2284,0.0702818,-0.121734,23.0653,-0.176415,-0.0498894,-0.0671939,0,0,0,2.9575,-0.14,0.0175,-0.2196,-0.038918,-1.07933,-0.22736,0.0665,0.38836
-4.49621,0,0,19.4962,19.4962,10.5038,10.5038,0.134301,0.317176,22.794,0.353863,-0.0206829,0.0274613,0,0,0,3.0625,-0.0875,0.1225,0.320616,-0.010858,-0.985394,-0.22736,0.0665,0.38836
-4.49238,0,0,19.4924,19.4924,10.5076,10.5076,0.196582,0.747812,22.5243,0.346347,-0.0195962,0.0273883,0,0,0,3.4125,0.2275,0.1925,0.320616,-0.010858,-0.985394,-0.22736,0.0665,0.38836
0.658881,0,0,14.3411,14.3411,15.6589,15.6589,0.181986,0.669097,22.5874,-0.0582843,0.00665064,0.0505205,0,0,0,3.6225,0.21,0.3675,-0.087108,0.015616,-0.962458,-0.22736,0.0665,0.38836
0.663723,0,0,14.3363,14.3363,15.6637,15.6637,0.167704,0.59219,22.6498,-0.0569421,0.00640142,0.050536,0,0,0,3.57,0.2275,0.21,-0.087108,0.015616,-0.962458,-0.22736,0.0665,0.38836
-0.499678,0,0,15.4997,15.4997,14.5003,14.5003,0.170789,0.204852,22.9015,-0.320852,-0.0450821,0.00656733,0,0,0,3.29,0.105,0.14,-0.358924,-0.035868,-1.00613,-0.22736,0.0665,0.38836
-0.599916,0,0,15.5999,15.5999,14.4001,14.4001,0.175256,-0.17385,23.1489,-0.314242,-0.0450041,0.00656888,0,0,0,3.675,-0.0875,0.2625,-0.358924,-0.035868,-1.00613,-0.22652,0.0686,0.3913
10.0361,0,0,4.96393,4.96393,25.0361,25.0361,0.0242606,-0.203468,23.222,-0.00660973,0.152282,-0.0331406,0,0,0,3.5175,0.07,-0.2275,-0.050508,0.163846,-1.04554,-0.22652,0.0686,0.3913
10.1248,0,0,4.87519,4.87519,25.1248,25.1248,-0.124061,-0.231988,23.2946,-0.00611197,0.149693,-0.0331447,0,0,0,3.5175,0.14,-0.4725,-0.050508,0.163846,-1.04554,-0.22652,0.0686,0.3913
-7.30883,0,0,22.3088,22.3088,7.69117,7.69117,-0.0138537,-0.063153,23.1774,0.120688,-0.0894614,0.024528,0,0,0,3.92,0.0175,-0.63,0.079788,-0.076982,-0.988322,-0.22652,0.0686,0.3913
-7.34219,0,0,22.3422,22.3422,7.65781,7.65781,0.0939433,0.101691,23.0608,0.117811,-0.08758,0.0245257,0,0,0,3.92,-0.035,-0.9625,0.079788,-0.076982,-0.988322,-0.22652,0.0686,0.3913
-4.10568,0,0,19.1057,19.1057,10.8943,10.8943,0.151635,0.234111,22.9754,0.0986133,-0.0427296,0.00914823,0,0,0,3.8325,0.1925,-1.015,0.06283,-0.033184,-1.00357,-0.22652,0.0686,0.3913
-4.11868,0,0,19.1187,19.1187,10.8813,10.8813,0.207999,0.364041,22.8904,0.0963456,-0.0417459,0.00913331,0,0,0,3.85,0.49,-1.155,0.06283,-0.033184,-1.00357,-0.22652,0.0686,0.3913
4.50257,0,0,10.4974,10.4974,19.5026,19.5026,0.136962,0.118408,23.0699,-0.205268,0.0489758,-0.0734663,0,0,0,3.4825,0.4025,-1.1725,-0.244366,0.058682,-1.08556,-0.22652,0.0686,0.3913
4.47905,0,0,10.521,10.521,19.479,19.479,0.0681356,-0.121183,23.2461,-0.201087,0.0477745,-0.0734643,0,0,0,3.5875,0.105,-1.4,-0.244366,0.058682,-1.08556,-0.22204,0.07154,0.3899
0.326935,0,0,14.6731,14.6731,15.3269,15.3269,0.0617632,-0.0586846,23.2197,0.0518491,0.0129793,-0.0240371,0,0,0,3.4825,0.2275,-1.365,0.010736,0.024034,-1.03651,-0.22204,0.07154,0.3899
0.355226,0,0,14.6448,14.6448,15.3552,15.3552,0.055145,0.00271707,23.1933,0.0507775,0.0128638,-0.0240365,0,0,0,3.36,0.3675,-1.3825,0.010736,0.024034,-1.03651,-0.22204,0.07154,0.3899
-0.101917,0,0,15.1019,15.1019,14.8981,14.8981,0.0553775,0.00297855,23.1921,-0.0297721,0.0471855,-0.148583,1,0,0,3.57,0.3325,-1.61,-0.07015,0.058316,-1.1601,-0.22204,0.07154,0.3899
-0.102346,0,0,15.1023,15.1023,14.8977,14.8977,0.05561,0.00317979,23.1913,-0.0297756,0.0471895,-0.148583,1,0,0,3.57,0.2975,-1.3125,-0.07015,0.058316,-1.1601,-0.22204,0.07154,0.3899
-10.5325,0,0,25.5325,25.5325,4.46746,4.46746,0.208176,0.107254,23.0956,0.0666899,-0.141642,0.0070616,0,0,0,3.22,0.1925,-1.5225,0.028548,-0.13298,-1.00565,-0.22204,0.07154,0.3899
-10.6287,0,0,25.6287,25.6287,4.37128,4.37128,0.358134,0.209084,23.0008,0.0649126,-0.139025,0.00704376,0,0,0,3.43,0.42,-1.5925,0.028548,-0.13298,-1.00565,-0.22204,0.07154,0.3899
-3.2578,0,0,18.2578,18.2578,11.7422,11.7422,0.396493,0.213688,22.9939,-0.000648529,-0.0401659,-0.0374683,0,0,0,2.9575,0.3325,-1.4525,-0.03721,-0.034892,-1.04981,-0.22204,0.07154,0.3899
-3.38653,0,0,18.3865,18.3865,11.6135,11.6135,0.435722,0.218212,22.9852,-0.000727491,-0.0394812,-0.0374736,0,0,0,3.85,0.4375,-1.575,-0.03721,-0.034892,-1.04981,-0.22372,0.07238,0.39466
2.20606,0,0,12.7939,12.7939,17.2061,17.2061,0.392236,0.33172,22.9292,0.0972742,0.0561178,-0.017314,0,0,0,3.605,0.2275,-1.4,0.063196,0.061366,-1.0298,-0.22372,0.07238,0.39466
2.26243,0,0,12.7376,12.7376,17.2624,17.2624,0.349068,0.443076,22.8736,0.0953307,0.0553643,-0.0173223,0,0,0,3.5,0.3325,-1.3125,0.063196,0.061366,-1.0298,-0.22372,0.07238,0.39466
0.36507,0,0,14.6349,14.6349,15.3651,15.3651,0.334747,0.611917,22.7735,0.134782,0.0309331,0.016217,0,0,0,3.36,0.4025,-1.295,0.105774,0.03721,-0.996496,-0.22372,0.07238,0.39466
0.437858,0,0,14.5621,14.5621,15.4379,15.4379,0.319739,0.776106,22.6738,0.131917,0.030671,0.0161838,0,0,0,3.0625,-0.245,-1.3125,0.105774,0.03721,-0.996496,-0.22372,0.07238,0.39466
6.81094,0,0,8.18906,8.18906,21.8109,21.8109,0.212042,0.847104,22.6538,0.0636179,0.108174,0.0551496,0,0,0,2.8,-0.07,-1.4175,0.03843,0.11651,-0.957822,-0.22372,0.07238,0.39466
6.89999,0,0,8.10001,8.10001,21.9,21.9,0.105875,0.91737,22.6336,0.0623917,0.106321,0.0551359,0,0,0,2.695,0.2625,-1.5225,0.03843,0.11651,-0.957822,-0.22372,0.07238,0.39466
-7.63601,0,0,22.636,22.636,7.36399,7.36399,0.214807,0.907087,22.6106,-0.0190672,-0.103301,0.0653381,0,0,0,3.1675,0.28,-1.5575,-0.043554,-0.094794,-0.947696,-0.22372,0.07238,0.39466
-7.68851,0,0,22.6885,22.6885,7.31149,7.31149,0.321641,0.896902,22.5883,-0.0188895,-0.101437,0.0653322,0,0,0,3.045,0.35,-1.295,-0.043554,-0.094794,-0.947696,-0.22372,0.07238,0.39466
-4.30843,0,0,19.3084,19.3084,10.6916,10.6916,0.376297,0.695192,22.7052,-0.171357,-0.0769126,-0.0106069,0,0,0,3.325,0.315,-1.26,-0.200202,-0.071248,-1.02309,-0.22232,0.06902,0.39872
-4.42424,0,0,19.4242,19.4242,10.5758,10.5758,0.431207,0.498208,22.8213,-0.167919,-0.075954,-0.0105778,0,0,0,3.78,0.56,-0.98,-0.200202,-0.071248,-1.02309,-0.22232,0.06902,0.39872
-5.11952,0,0,20.1195,20.1195,9.88048,9.88048,0.494827,0.605893,22.746,0.0864148,-0.0581125,-0.0790872,0,0,0,3.22,0.49,-0.3325,0.057096,-0.054534,-1.09105,-0.22232,0.06902,0.39872
