pid_x,pid_y,pid_z,front_left_speed,front_right_speed,back_left_speed,back_right_speed,orientation_x,orientation_y,orientation_z,acceleration_x,acceleration_y,acceleration_z,accel_rejected,mag_rejected,gyro_x,gyro_y,gyro_z,accel_x,accel_y,accel_z,mag_x,mag_y,mag_z
-0.287575,0,0,5.28758,5.28758,5,5,0.487416,-0.0490576,-0.250785,0.0392896,-0.422423,0.0839992,0,0,3.5,-0.1225,-0.2625,-0.001708,-0.418338,-0.929274,-0.0532,0.25088,0.32718
-0.570161,0,0,5.57016,5.57016,5,5,0.966375,-0.0945707,-0.500121,0.0400839,-0.414065,0.0838921,0,0,3.5875,-0.105,-0.2625,-0.001708,-0.418338,-0.929274,-0.0532,0.25088,0.32718
-0.847869,0,0,5.84787,5.84787,5,5,1.43707,-0.139274,-0.745725,0.0386774,-0.404874,0.086669,0,0,3.535,-0.035,-0.3325,-0.003904,-0.417362,-0.926346,-0.0532,0.25088,0.32718
-1.12066,0,0,6.12066,6.12066,5,5,1.89942,-0.18066,-0.989841,0.0393997,-0.396808,0.0864321,0,0,3.535,-0.035,-0.3325,-0.003904,-0.417362,-0.926346,-0.0532,0.25088,0.32718
-1.38685,0,0,6.38685,6.38685,5,5,2.35059,-0.221251,-1.22961,0.0377999,-0.389306,0.0791295,0,0,3.5175,0.14,-0.21,-0.006222,-0.417728,-0.9333,-0.0532,0.25088,0.32718
-1.64827,0,0,6.64827,6.64827,5,5,2.79369,-0.258729,-1.46783,0.038454,-0.38158,0.0787797,0,0,3.5175,0.14,-0.21,-0.006222,-0.417728,-0.9333,-0.0532,0.25088,0.32718
-1.90478,0,0,6.90478,6.90478,5,5,3.22844,-0.292098,-1.69723,0.038186,-0.372416,0.0814521,0,0,3.57,0.035,-0.2625,-0.007076,-0.416142,-0.93025,-0.04592,0.24696,0.33068
-2.15906,0,0,7.15906,7.15906,5,5,3.65943,-0.321277,-1.92676,0.0402746,-0.365152,0.0898498,0,0,3.5875,-0.0875,-0.3325,-0.00549,-0.416386,-0.921466,-0.04592,0.24696,0.33068
-2.40872,0,0,7.40872,7.40872,5,5,4.08258,-0.347717,-2.15466,0.0407361,-0.357783,0.0893485,0,0,3.6225,-0.0525,-0.3325,-0.00549,-0.416386,-0.921466,-0.04592,0.24696,0.33068
-2.6548,0,0,7.6548,7.6548,5,5,4.49966,-0.374666,-2.37822,0.0391411,-0.352357,0.088555,0,0,3.675,-0.0525,-0.2275,-0.007564,-0.418216,-0.92171,-0.04592,0.24696,0.33068
-2.89637,0,0,7.89637,7.89637,5,5,4.90911,-0.399069,-2.60015,0.0395671,-0.345235,0.0879661,0,0,3.675,-0.0525,-0.2275,-0.007564,-0.418216,-0.92171,-0.04592,0.24696,0.33068
-3.13145,0,0,8.13145,8.13145,5,5,5.30754,-0.417688,-2.82337,0.0424432,-0.338675,0.0793529,0,0,3.71,-0.2625,-0.3325,-0.005002,-0.418582,-0.92964,-0.04592,0.24696,0.33068
-3.36387,0,0,8.36387,8.36387,5,5,5.70147,-0.434346,-3.04465,0.0427339,-0.331099,0.0872977,0,0,3.5525,-0.2975,-0.2625,-0.005002,-0.41785,-0.9211,-0.04592,0.24696,0.33068
-3.59197,0,0,8.59197,8.59197,5,5,6.08808,-0.448396,-3.26387,0.0429791,-0.324388,0.0866028,0,0,3.57,-0.035,-0.1225,-0.005002,-0.41785,-0.9211,-0.04592,0.24696,0.33068
-3.81371,0,0,8.81371,8.81371,5,5,6.46392,-0.459713,-3.48222,0.0435411,-0.318356,0.0771549,0,0,3.64,-0.105,-0.245,-0.004636,-0.418338,-0.929762,-0.0476,0.2471,0.32886
-4.03287,0,0,9.03287,9.03287,5,5,6.83537,-0.467862,-3.69976,0.0448982,-0.314116,0.0778784,0,0,3.605,-0.07,-0.28,-0.003416,-0.420534,-0.928298,-0.0476,0.2471,0.32886
-4.24765,0,0,9.24765,9.24765,5,5,7.1994,-0.474418,-3.91541,0.0450126,-0.30781,0.0771013,0,0,3.36,-0.2275,-0.2625,-0.003416,-0.420534,-0.928298,-0.0476,0.2471,0.32886
-4.46099,0,0,9.46099,9.46099,5,5,7.56099,-0.48344,-4.12597,0.0423759,-0.30143,0.0853876,0,0,3.535,-0.2625,-0.245,-0.006222,-0.420412,-0.91927,-0.0476,0.2471,0.32886
-4.67048,0,0,9.67048,9.67048,5,5,7.91606,-0.490286,-4.33476,0.0424954,-0.295289,0.0845521,0,0,3.71,-0.07,-0.315,-0.006222,-0.420412,-0.91927,-0.0476,0.2471,0.32886
-4.87146,0,0,9.87146,9.87146,5,5,8.25671,-0.489775,-4.54597,0.0458881,-0.287083,0.0724047,0,0,3.745,-0.105,-0.42,-0.002806,-0.418094,-0.930494,-0.0476,0.2471,0.32886
-5.06842,0,0,10.0684,10.0684,5,5,8.59055,-0.487752,-4.75479,0.0458528,-0.281319,0.0715514,0,0,3.57,-0.0525,-0.1575,-0.002806,-0.418094,-0.930494,-0.0476,0.2471,0.32886
-5.26362,0,0,10.2636,10.2636,5,5,8.92139,-0.486898,-4.95968,0.04438,-0.277688,0.0747299,0,0,3.2725,-0.035,-0.14,-0.00427,-0.420168,-0.926468,-0.0476,0.2471,0.32886
-5.45512,0,0,10.4551,10.4551,5,5,9.24596,-0.484064,-5.16068,0.0443306,-0.272095,0.073836,0,0,3.36,-0.1575,-0.14,-0.00427,-0.420168,-0.926468,-0.05278,0.2478,0.33082
-5.64022,0,0,10.6402,10.6402,5,5,9.5597,-0.478212,-5.36087,0.0447144,-0.263029,0.0707292,0,0,3.43,-0.07,-0.1925,-0.003782,-0.416508,-0.928664,-0.05278,0.2478,0.33082
-5.82197,0,0,10.822,10.822,5,5,9.86774,-0.471298,-5.55917,0.0445937,-0.25773,0.0698231,0,0,3.6225,-0.1575,-0.21,-0.003782,-0.416508,-0.928664,-0.05278,0.2478,0.33082
-6.00188,0,0,11.0019,11.0019,5,5,10.1727,-0.466815,-5.75308,0.0424502,-0.255542,0.06816,0,0,3.6925,-0.21,-0.2975,-0.005856,-0.419558,-0.929396,-0.05278,0.2478,0.33082
-6.17816,0,0,11.1782,11.1782,5,5,10.4715,-0.461222,-5.94496,0.0423526,-0.250412,0.0672265,0,0,3.535,-0.245,-0.21,-0.005856,-0.419558,-0.929396,-0.05278,0.2478,0.33082
-6.35222,0,0,11.3522,11.3522,5,5,10.7665,-0.453226,-6.13592,0.0433064,-0.246694,0.0678771,0,0,3.57,-0.2275,-0.28,-0.004758,-0.4209,-0.92781,-0.05278,0.2478,0.33082
-6.52277,0,0,11.5228,11.5228,5,5,11.0555,-0.443507,-6.32481,0.0431368,-0.24174,0.0669235,0,0,3.43,0.175,-0.2625,-0.004758,-0.4209,-0.92781,-0.05278,0.2478,0.33082
-6.69055,0,0,11.6905,11.6905,5,5,11.3399,-0.432236,-6.51214,0.0430616,-0.233574,0.0750593,0,0,3.43,0.2275,-0.2975,-0.004636,-0.417606,-0.918782,-0.05278,0.2478,0.33082
-6.85532,0,0,11.8553,11.8553,5,5,11.6192,-0.423449,-6.70753,0.0429082,-0.228797,0.0740904,0,0,3.5175,-0.245,-0.21,-0.004636,-0.417606,-0.918782,-0.04956,0.252,0.3311
-7.01533,0,0,12.0153,12.0153,5,5,11.8904,-0.407229,-6.90546,0.0469986,-0.22575,0.0646447,0,0,3.5525,-0.1925,-0.21,-0.000244,-0.419192,-0.9272,-0.04956,0.252,0.3311
-7.1722,0,0,12.1722,12.1722,5,5,12.1563,-0.390272,-7.10119,0.0467027,-0.221211,0.0636801,0,0,3.5175,-0.1925,-0.105,-0.000244,-0.419192,-0.9272,-0.04956,0.252,0.3311
-7.32752,0,0,12.3275,12.3275,5,5,12.4195,-0.383303,-7.28709,0.0392919,-0.217821,0.0649161,0,0,3.57,-0.0875,-0.105,-0.007564,-0.42029,-0.925004,-0.04956,0.252,0.3311
-7.47991,0,0,12.4799,12.4799,5,5,12.6778,-0.375175,-7.47127,0.03915,-0.213421,0.0639376,0,0,3.675,0,-0.21,-0.007564,-0.42029,-0.925004,-0.04956,0.252,0.3311
-7.62586,0,0,12.6259,12.6259,5,5,12.9252,-0.3563,-7.66067,0.0450164,-0.205058,0.0610159,0,0,3.5,-0.105,-0.21,-0.001342,-0.416142,-0.926956,-0.04956,0.252,0.3311
-7.76891,0,0,12.7689,12.7689,5,5,13.1677,-0.337218,-7.84806,0.0446834,-0.200935,0.0600625,0,0,3.465,-0.315,-0.14,-0.001342,-0.416142,-0.926956,-0.04956,0.252,0.3311
-7.91329,0,0,12.9133,12.9133,5,5,13.4124,-0.328584,-8.02556,0.037608,-0.200564,0.0644914,0,0,3.5875,-0.1925,-0.175,-0.008296,-0.419924,-0.921588,-0.04956,0.252,0.3311
-8.05513,0,0,13.0551,13.0551,5,5,13.6528,-0.31943,-8.20509,0.0374482,-0.196484,0.0635104,0,0,3.8325,0.0875,-0.2275,-0.008296,-0.419924,-0.921588,-0.05152,0.25592,0.3374
-8.19446,0,0,13.1945,13.1945,5,5,13.8889,-0.304351,-8.38651,0.0408296,-0.194679,0.0592111,0,0,3.885,0.07,-0.4025,-0.004636,-0.42212,-0.924882,-0.05152,0.25592,0.3374
-8.33107,0,0,13.3311,13.3311,5,5,14.1204,-0.288627,-8.56604,0.0405552,-0.190758,0.0582346,0,0,3.885,0.07,-0.4025,-0.004636,-0.42212,-0.924882,-0.05152,0.25592,0.3374
-8.46205,0,0,13.462,13.462,5,5,14.3425,-0.271357,-8.74435,0.0402538,-0.181506,0.0593736,0,0,3.7275,0,-0.2975,-0.004636,-0.41663,-0.922808,-0.05152,0.25592,0.3374
-8.59046,0,0,13.5905,13.5905,5,5,14.5601,-0.253571,-8.92081,0.0399433,-0.177828,0.058427,0,0,3.7275,0,-0.2975,-0.004636,-0.41663,-0.922808,-0.05152,0.25592,0.3374
-8.74079,0,0,13.7408,13.7408,5,5,14.8149,-0.156464,-9.14643,0.100692,-0.226894,0.043781,0,0,3.6225,0.035,-0.21,0.058072,-0.469944,-0.936228,-0.05152,0.25592,0.3374
-8.88822,0,0,13.8882,13.8882,5,5,15.0648,-0.060819,-9.36911,0.0990228,-0.222679,0.0426597,0,0,3.6225,0.035,-0.21,0.058072,-0.469944,-0.936228,-0.05152,0.25592,0.3374
-8.96691,0,0,13.9669,13.9669,5,5,15.1982,-0.051041,-9.53712,0.0255963,-0.140683,-0.0453642,0,0,3.57,0.035,-0.2275,-0.015494,-0.390278,-1.02297,-0.05152,0.25592,0.3374
-9.04404,0,0,14.044,14.044,5,5,15.3289,-0.0409553,-9.70353,0.0254203,-0.138482,-0.0459647,0,0,3.57,0.035,-0.2275,-0.015494,-0.390278,-1.02297,-0.05152,0.25592,0.3374
-9.04023,0,0,14.0402,14.0402,5,5,15.3224,0.206225,-10.0293,0.168954,-0.0143894,-0.0351214,0,0,3.64,-0.1575,-0.595,0.13298,-0.266204,-1.01223,-0.04942,0.25508,0.3374
-9.16452,0,0,14.1645,14.1645,5,5,15.5331,0.561593,-10.4164,0.236251,-0.133105,0.18111,0,0,3.92,-0.4725,-0.7,0.20679,-0.388326,-0.79666,-0.04942,0.25508,0.3374
-9.28648,0,0,14.2865,14.2865,5,5,15.7398,0.908547,-10.7977,0.230196,-0.129652,0.180063,0,0,3.92,-0.4725,-0.7,0.20679,-0.388326,-0.79666,-0.04942,0.25508,0.3374
-9.25754,0,0,14.2575,14.2575,5,5,15.6907,1.14524,-11.1162,0.128148,0.0541595,0.0888731,0,0,3.2725,4.4275,-0.525,0.108458,-0.203862,-0.887306,-0.04942,0.25508,0.3374
-9.22917,0,0,14.2292,14.2292,5,5,15.6427,1.37547,-11.4325,0.124131,0.0533279,0.0890146,0,0,3.2725,4.4275,-0.525,0.108458,-0.203862,-0.887306,-0.04942,0.25508,0.3374
-9.13925,0,0,14.1393,14.1393,5,5,15.4903,1.6597,-11.7957,0.150029,0.127305,0.0608316,0,0,2.8525,0.6475,0.0525,0.139446,-0.127368,-0.915854,-0.04942,0.25508,0.3374
-9.05101,0,0,14.051,14.051,5,5,15.3407,1.93592,-12.1576,0.145211,0.124749,0.0613793,0,0,2.8525,0.6475,0.0525,0.139446,-0.127368,-0.915854,-0.04942,0.25508,0.3374
-9.01535,0,0,14.0153,14.0153,5,5,15.2802,2.16622,-12.4888,0.137792,0.0482199,0.0322573,0,0,3.2725,-0.385,0.245,0.13603,-0.202764,-0.94489,-0.04942,0.25508,0.3374
-8.98056,0,0,13.9806,13.9806,5,5,15.2213,2.38885,-12.8182,0.133909,0.0471873,0.0323788,0,0,3.2725,-0.385,0.245,0.13603,-0.202764,-0.94489,-0.04606,0.2562,0.3493
-8.99231,0,0,13.9923,13.9923,5,5,15.2412,2.30849,-12.942,-0.0495903,-0.00424435,0.0286546,0,0,4.13,-0.4375,0.77,-0.049654,-0.254492,-0.94855,-0.04606,0.2562,0.3493
-9.29164,0,0,14.2916,14.2916,5,5,15.7485,1.69091,-12.6405,-0.274865,-0.220696,0.386277,0,0,4.165,-0.385,0.7875,-0.2867,-0.479338,-0.5917,-0.04606,0.2562,0.3493
-9.29219,0,0,14.2922,14.2922,5,5,15.7495,1.69037,-12.6384,-0.274856,-0.22068,0.386273,1,0,4.0775,-0.07,1.0325,-0.2867,-0.479338,-0.5917,-0.04606,0.2562,0.3493
-9.6428,0,0,14.6428,14.6428,5,5,16.3437,1.47132,-12.5911,-0.0608635,-0.415738,0.283552,0,0,3.5,-0.14,0.945,-0.07564,-0.684176,-0.690886,-0.04606,0.2562,0.3493
-9.98665,0,0,14.9867,14.9867,5,5,16.9265,1.26045,-12.5489,-0.0571842,-0.40597,0.280724,0,0,3.5175,-0.3325,0.6125,-0.07564,-0.684176,-0.690886,-0.04606,0.2562,0.3493
-10.0431,0,0,15.0431,15.0431,5,5,17.0222,1.15331,-12.6253,-0.0549502,-0.0520255,0.0727376,0,0,4.025,0.21,0.56,-0.075274,-0.332206,-0.896822,-0.04606,0.2562,0.3493
-10.098,0,0,15.098,15.098,5,5,17.1152,1.05011,-12.7012,-0.0531494,-0.0504647,0.0722946,0,0,3.675,0.5775,0.4725,-0.075274,-0.332206,-0.896822,-0.04606,0.2562,0.3493
-10.2347,0,0,15.2347,15.2347,5,5,17.347,1.0436,-12.838,0.0289671,-0.187778,0.0647048,0,0,3.78,0.2625,0.35,0.007076,-0.473238,-0.903166,-0.0518,0.26796,0.36386
-10.234,0,0,15.234,15.234,5,5,17.3458,1.04332,-12.8376,-0.0256966,-0.333619,-0.199259,1,0,2.87,-0.1925,0.0175,-0.047824,-0.618906,-1.1651,-0.0518,0.26796,0.36386
-10.2337,0,0,15.2337,15.2337,5,5,17.3452,1.04219,-12.8376,-0.0256769,-0.333628,-0.199256,1,0,3.2725,-0.735,-0.0525,-0.047824,-0.618906,-1.1651,-0.0518,0.26796,0.36386
-10.2748,0,0,15.2748,15.2748,5,5,17.4149,1.12867,-13.0466,0.0651432,-0.0537833,0.0380134,0,0,3.6925,-0.6125,-0.07,0.044896,-0.340502,-0.929274,-0.0518,0.26796,0.36386
-10.3157,0,0,15.3157,15.3157,5,5,17.4843,1.214,-13.2539,0.0636542,-0.0526362,0.0376209,0,0,4.3225,-0.175,-0.42,0.044896,-0.340502,-0.929274,-0.0518,0.26796,0.36386
-10.3165,0,0,15.3165,15.3165,5,5,17.4856,1.21452,-13.2541,0.0618228,-0.139813,0.243307,1,0,4.3225,0.14,-0.49,0.043066,-0.42761,-0.725168,-0.0518,0.26796,0.36386
-10.317,0,0,15.317,15.317,5,5,17.4865,1.21589,-13.2547,0.0617989,-0.139799,0.243302,1,0,4.0775,0.56,-0.805,0.043066,-0.42761,-0.725168,-0.0518,0.26796,0.36386
-10.317,0,0,15.317,15.317,5,5,17.4864,1.21715,-13.2556,-0.0312811,0.116666,0.0816243,1,0,3.57,0.4375,-0.98,-0.050386,-0.17141,-0.885598,-0.0518,0.26796,0.36386
-10.316,0,0,15.316,15.316,5,5,17.4848,1.21797,-13.2575,-0.0312954,0.116639,0.0816326,1,0,2.695,0.0175,-1.4525,-0.050386,-0.17141,-0.885598,-0.04802,0.27062,0.35994
-10.2178,0,0,15.2178,15.2178,5,5,17.3183,0.971929,-13.2766,-0.188456,0.14943,-0.0356966,0,0,1.2775,-0.0525,-1.7675,-0.212524,-0.135908,-1.00296,-0.04802,0.27062,0.35994
-10.1224,0,0,15.1224,15.1224,5,5,17.1566,0.732048,-13.294,-0.18427,0.146753,-0.034801,0,0,2.275,0.4375,-1.435,-0.212524,-0.135908,-1.00296,-0.04802,0.27062,0.35994
-10.1224,0,0,15.1224,15.1224,5,5,17.1567,0.732461,-13.2949,0.998386,-0.37436,-0.317706,1,0,3.64,-0.035,-0.84,0.975146,-0.656482,-1.28368,-0.04802,0.27062,0.35994
-10.1229,0,0,15.1229,15.1229,5,5,17.1574,0.731731,-13.2966,0.998399,-0.374347,-0.31771,1,0,4.0425,-0.8225,-1.12,0.975146,-0.656482,-1.28368,-0.04802,0.27062,0.35994
-10.1236,0,0,15.1236,15.1236,5,5,17.1586,0.730635,-13.2992,-0.0792819,-0.00049852,0.269855,1,0,4.235,-1.155,-1.47,-0.107116,-0.28304,-0.700646,-0.04802,0.27062,0.35994
-10.1239,0,0,15.1239,15.1239,5,5,17.1591,0.730947,-13.3,-0.0792874,-0.000489425,0.269853,1,0,3.9025,-0.07,-0.7525,-0.107116,-0.28304,-0.700646,-0.04802,0.27062,0.35994
-10.1237,0,0,15.1237,15.1237,5,5,17.1589,0.731292,-13.3001,-0.018672,0.0170931,0.426736,1,0,3.465,0.07,-0.3675,-0.046238,-0.265472,-0.544974,-0.04802,0.27062,0.35994
-10.1233,0,0,15.1233,15.1233,5,5,17.1581,0.733045,-13.3007,-0.0187026,0.0170802,0.42674,1,0,3.1675,0.77,-0.8925,-0.046238,-0.265472,-0.544974,-0.0448,0.27174,0.36344
-10.1217,0,0,15.1217,15.1217,5,5,17.1554,0.733842,-13.3017,-0.0686472,-0.0286408,0.425401,1,0,2.065,0.1575,-0.98,-0.09638,-0.3111,-0.546316,-0.0448,0.27174,0.36344
-10.1186,0,0,15.1186,15.1186,5,5,17.1501,0.733949,-13.3033,-0.068649,-0.0287287,0.425428,1,0,0.6475,-0.315,-1.1375,-0.09638,-0.3111,-0.546316,-0.0448,0.27174,0.36344
-10.3825,0,0,15.3825,15.3825,5,5,17.5974,0.913471,-13.5327,0.194272,-0.382055,0.17728,0,0,0.665,-0.2275,-0.735,0.1708,-0.671488,-0.790194,-0.0448,0.27174,0.36344
-10.6442,0,0,15.6442,15.6442,5,5,18.041,1.09171,-13.7572,0.191161,-0.374701,0.174859,0,0,3.045,0.42,-0.7,0.1708,-0.671488,-0.790194,-0.0448,0.27174,0.36344
-10.7845,0,0,15.7845,15.7845,5,5,18.2788,0.805009,-13.7124,-0.156751,-0.182536,0.0621308,0,0,2.3275,0.56,-0.455,-0.18361,-0.483486,-0.900848,-0.0448,0.27174,0.36344
-10.9215,0,0,15.9215,15.9215,5,5,18.5111,0.527001,-13.6696,-0.1519,-0.178671,0.0609048,0,0,2.3275,0.56,-0.455,-0.18361,-0.483486,-0.900848,-0.0448,0.27174,0.36344
-11.0793,0,0,16.0793,16.0793,5,5,18.7785,0.943981,-14.0475,0.291049,-0.180385,0.209567,0,0,4.235,-0.98,0.2275,0.268522,-0.489586,-0.751764,-0.0448,0.27174,0.36344
-11.2347,0,0,16.2347,16.2347,5,5,19.0418,1.34955,-14.4264,0.283972,-0.176085,0.207944,0,0,4.235,-0.98,0.2275,0.268522,-0.489586,-0.751764,-0.04634,0.27636,0.35644
-11.1023,0,0,16.1023,16.1023,5,5,18.8175,1.33479,-14.5985,-0.0436601,0.192214,-0.0151615,0,0,4.55,-0.4025,0.455,-0.060756,-0.117974,-0.974414,-0.04634,0.27636,0.35644
-10.9726,0,0,15.9726,15.9726,5,5,18.5977,1.31945,-14.7697,-0.0433925,0.188582,-0.0139252,0,0,4.55,-0.4025,0.455,-0.060756,-0.117974,-0.974414,-0.04634,0.27636,0.35644
-11.0091,0,0,16.0091,16.0091,5,5,18.6595,1.20463,-14.854,-0.0681158,-0.0716114,-0.0461943,0,0,0.6125,0.5075,0.2275,-0.087596,-0.378932,-1.00613,-0.04634,0.27636,0.35644
-11.0447,0,0,16.0447,16.0447,5,5,18.7198,1.0932,-14.9378,-0.0661713,-0.0706017,-0.0464947,0,0,0.6125,0.5075,0.2275,-0.087596,-0.378932,-1.00613,-0.04634,0.27636,0.35644
-10.9671,0,0,15.9671,15.9671,5,5,18.5883,1.24883,-15.1949,0.0773817,0.0972078,-0.0186421,0,0,1.4175,4.06,0.3675,0.059292,-0.209108,-0.979172,-0.04634,0.27636,0.35644
-10.8912,0,0,15.8912,15.8912,5,5,18.4596,1.39976,-15.4506,0.0747482,0.0950587,-0.0179862,0,0,1.4175,4.06,0.3675,0.059292,-0.209108,-0.979172,-0.04634,0.27636,0.35644
-10.8911,0,0,15.8911,15.8911,5,5,18.4595,1.39279,-15.452,0.0943076,-0.389785,-0.0238843,1,0,3.5525,-4.2525,0.2275,0.078812,-0.693448,-0.985028,-0.04634,0.27636,0.35644
-10.891,0,0,15.891,15.891,5,5,18.4594,1.38581,-15.4535,0.0944292,-0.389786,-0.023881,1,0,3.5525,-4.2525,0.2275,0.078812,-0.693448,-0.985028,-0.04228,0.273,0.35868
-11.0701,0,0,16.0701,16.0701,5,5,18.7628,1.56788,-15.682,0.184797,-0.290391,0.0607846,0,0,4.3925,-1.2075,0.3325,0.172752,-0.599142,-0.899262,-0.04228,0.273,0.35868
-11.194,0,0,16.194,16.194,5,5,18.9728,1.57817,-15.8186,0.0344608,-0.125841,0.140372,0,0,4.0425,-1.1025,-0.14,0.02196,-0.438224,-0.819108,-0.04228,0.273,0.35868
-11.3136,0,0,16.3136,16.3136,5,5,19.1757,1.59151,-15.9543,0.0342281,-0.122498,0.13921,0,0,2.4325,0.0175,-0.9275,0.02196,-0.438224,-0.819108,-0.04228,0.273,0.35868
-11.3153,0,0,16.3153,16.3153,5,5,19.1785,2.2024,-16.4646,0.422288,-0.0313382,0.0654598,0,0,1.995,0.3325,-1.085,0.422364,-0.34709,-0.891942,-0.04228,0.273,0.35868
-11.3173,0,0,16.3173,16.3173,5,5,19.1819,2.79733,-16.9683,0.411914,-0.0314308,0.0650125,0,0,2.31,0.2975,-0.7525,0.422364,-0.34709,-0.891942,-0.04228,0.273,0.35868
-11.2874,0,0,16.2874,16.2874,5,5,19.1311,2.76197,-17.1155,-0.0322283,0.0557956,0.0338567,0,0,2.625,-0.1225,-0.56,-0.024278,-0.259128,-0.923174,-0.04228,0.273,0.35868
-11.2572,0,0,16.2572,16.2572,5,5,19.08,2.72732,-17.2617,-0.0316242,0.0549625,0.0341759,0,0,1.89,-0.175,-0.7525,-0.024278,-0.259128,-0.923174,-0.04228,0.273,0.35868
-11.2557,0,0,16.2557,16.2557,5,5,19.0775,2.72769,-17.2628,-0.159555,-0.333686,-0.117529,1,0,2.2225,-0.105,-0.91,-0.152744,-0.647332,-1.07372,-0.04354,0.27468,0.37072
-11.3027,0,0,16.3027,16.3027,5,5,19.1571,2.33607,-17.1658,-0.251009,-0.0378271,0.015332,0,0,3.01,-0.245,-1.225,-0.251442,-0.35319,-0.941718,-0.04354,0.27468,0.37072
-11.3482,0,0,16.3482,16.3482,5,5,19.2342,1.95504,-17.069,-0.244363,-0.0364754,0.015125,0,0,3.0275,0.14,-0.6125,-0.251442,-0.35319,-0.941718,-0.04354,0.27468,0.37072
-11.3482,0,0,16.3482,16.3482,5,5,19.2342,1.95426,-17.0695,-0.0853247,-0.0441701,0.254138,1,0,3.57,-0.6475,-0.4025,-0.091744,-0.360876,-0.70455,-0.04354,0.27468,0.37072
-11.3483,0,0,16.3483,16.3483,5,5,19.2344,1.95335,-17.0708,-0.0853088,-0.0441661,0.254137,1,0,3.745,-0.8575,-0.7875,-0.091744,-0.360876,-0.70455,-0.04354,0.27468,0.37072
-11.3373,0,0,16.3373,16.3373,5,5,19.2158,1.91713,-17.1959,-0.0275788,0.0476186,0.0843489,0,0,4.025,-0.2625,-0.98,-0.034404,-0.268888,-0.873154,-0.04354,0.27468,0.37072
-11.3265,0,0,16.3265,16.3265,5,5,19.1974,1.88311,-17.3187,-0.0269854,0.0473209,0.0844734,0,0,3.885,0.6825,-0.63,-0.034404,-0.268888,-0.873154,-0.04354,0.27468,0.37072
-11.3267,0,0,16.3267,16.3267,5,5,19.1978,1.88354,-17.3189,0.152806,-0.050862,-0.430438,1,0,3.8325,0.105,-0.4025,0.146156,-0.366976,-1.38409,-0.04354,0.27468,0.37072
-11.3256,0,0,16.3256,16.3256,5,5,19.1959,1.88261,-17.3193,0.152822,-0.0508925,-0.430426,1,0,2.555,-0.7,-0.315,0.146156,-0.366976,-1.38409,-0.04466,0.27622,0.36596
-11.3433,0,0,16.3433,16.3433,5,5,19.2259,1.69114,-17.3416,-0.119732,-0.00297897,0.0280977,0,0,2.8875,0.0175,-0.0175,-0.130906,-0.31964,-0.92903,-0.04466,0.27622,0.36596
-11.3599,0,0,16.3599,16.3599,5,5,19.2541,1.50526,-17.3635,-0.116489,-0.00248478,0.0280211,0,0,2.45,0.315,0.07,-0.130906,-0.31964,-0.92903,-0.04466,0.27622,0.36596
-11.3598,0,0,16.3598,16.3598,5,5,19.2538,1.50518,-17.3632,-0.400521,-0.721206,0.504694,1,0,3.4125,-0.0875,-0.0525,-0.416142,-1.03761,-0.456036,-0.04466,0.27622,0.36596
-11.359,0,0,16.359,16.359,5,5,19.2525,1.50482,-17.3623,-0.400515,-0.721227,0.504702,1,0,2.835,-0.1225,0.3325,-0.416142,-1.03761,-0.456036,-0.04466,0.27622,0.36596
-11.3586,0,0,16.3586,16.3586,5,5,19.2519,1.50325,-17.3619,0.306074,-0.31028,-0.0848322,1,0,3.2725,-0.91,0.2275,0.29341,-0.62708,-1.04103,-0.04466,0.27622,0.36596
-11.359,0,0,16.359,16.359,5,5,19.2525,1.50201,-17.3618,0.306095,-0.31027,-0.084835,1,0,3.92,-0.77,0.0525,0.29341,-0.62708,-1.04103,-0.04466,0.27622,0.36596
-11.3591,0,0,16.3591,16.3591,5,5,19.2526,1.50149,-17.3611,0.620145,0.0817587,-0.104015,1,0,3.64,-0.2625,0.2275,0.60878,-0.23546,-1.06006,-0.04466,0.27622,0.36596
-11.3599,0,0,16.3599,16.3599,5,5,19.254,1.50078,-17.361,0.620157,0.0817814,-0.104023,1,0,4.3575,-0.4725,-0.0525,0.60878,-0.23546,-1.06006,-0.04256,0.28294,0.36736
-11.3605,0,0,16.3605,16.3605,5,5,19.2551,1.50068,-17.3602,-0.185777,-0.112505,-0.152471,1,0,4.1825,-0.0175,0.1925,-0.200568,-0.429562,-1.10813,-0.04256,0.28294,0.36736
-11.3603,0,0,16.3603,16.3603,5,5,19.2548,1.50167,-17.3591,-0.185794,-0.11251,-0.152469,1,0,3.395,0.6475,0.14,-0.200568,-0.429562,-1.10813,-0.04256,0.28294,0.36736
-11.397,0,0,16.397,16.397,5,5,19.317,1.14423,-17.2796,-0.245767,-0.0465884,-0.0463416,0,0,3.78,0.28,-0.0525,-0.267058,-0.36478,-1.0026,-0.04256,0.28294,0.36736
-11.432,0,0,16.432,16.432,5,5,19.3762,0.795509,-17.2018,-0.239682,-0.045579,-0.0465868,0,0,3.325,-0.2275,-0.3675,-0.267058,-0.36478,-1.0026,-0.04256,0.28294,0.36736
-11.7439,0,0,16.7439,16.7439,5,5,19.9049,0.724476,-17.2179,0.0329569,-0.389708,0.246879,0,0,3.2725,0.14,0.07,0.00549,-0.717238,-0.708332,-0.04256,0.28294,0.36736
-12.0502,0,0,17.0502,17.0502,5,5,20.4241,0.657769,-17.2355,0.034121,-0.381197,0.243769,0,0,3.675,-0.0175,0.105,0.00549,-0.717238,-0.708332,-0.04256,0.28294,0.36736
-12.0508,0,0,17.0508,17.0508,5,5,20.4251,0.657105,-17.2347,0.155375,-0.143645,-0.211638,1,0,4.1125,-0.315,0.2975,0.127246,-0.479948,-1.16022,-0.04256,0.28294,0.36736
-12.0523,0,0,17.0523,17.0523,5,5,20.4276,0.655902,-17.235,0.155396,-0.143603,-0.211653,1,0,5.0225,-0.8225,-0.1575,0.127246,-0.479948,-1.16022,-0.04396,0.27734,0.36806
-12.0536,0,0,17.0536,17.0536,5,5,20.4298,0.655647,-17.2353,0.119441,0.0100683,-0.155971,1,0,4.83,-0.315,-0.385,0.091134,-0.326472,-1.10495,-0.04396,0.27734,0.36806
-12.0544,0,0,17.0544,17.0544,5,5,20.4312,0.65699,-17.2351,0.119418,0.0100901,-0.155979,1,0,4.34,0.665,-0.4375,0.091134,-0.326472,-1.10495,-0.04396,0.27734,0.36806
-12.0457,0,0,17.0457,17.0457,5,5,20.4165,0.609983,-17.3273,-0.0344133,0.00704479,-0.0299825,0,0,3.815,0.595,-0.3675,-0.064172,-0.329278,-0.980026,-0.04396,0.27734,0.36806
-12.0367,0,0,17.0367,17.0367,5,5,20.4011,0.564118,-17.4195,-0.0336129,0.00679601,-0.0298812,0,0,3.29,0.4025,-0.805,-0.064172,-0.329278,-0.980026,-0.04396,0.27734,0.36806
-12.2979,0,0,17.2979,17.2979,5,5,20.844,-0.144698,-17.0444,-0.398333,-0.249504,0.26018,0,0,3.2375,0.245,-0.6825,-0.44286,-0.592554,-0.689544,-0.04396,0.27734,0.36806
-12.5527,0,0,17.5527,17.5527,5,5,21.2757,-0.835254,-16.6792,-0.386281,-0.242509,0.257376,0,0,3.2025,0.42,-0.385,-0.44286,-0.592554,-0.689544,-0.04396,0.27734,0.36806
-12.7063,0,0,17.7063,17.7063,5,5,21.5362,-0.823276,-16.7524,0.0427184,-0.207745,0.0956407,0,0,4.0775,-0.2625,-0.4725,-0.011834,-0.562054,-0.848388,-0.04396,0.27734,0.36806
-12.857,0,0,17.857,17.857,5,5,21.7915,-0.810444,-16.8248,0.0424945,-0.203603,0.0939989,0,0,4.0775,-0.2625,-0.4725,-0.011834,-0.562054,-0.848388,-0.04396,0.27734,0.36806
-12.8587,0,0,17.8587,17.8587,5,5,21.7945,-0.81084,-16.826,0.0938899,0.341497,0.414383,1,0,5.2675,-0.5775,-0.805,0.039772,-0.017568,-0.530456,-0.04858,0.2793,0.37156
-12.8606,0,0,17.8606,17.8606,5,5,21.7976,-0.810876,-16.8269,0.331152,0.331655,-0.168044,1,0,5.32,-0.315,-0.7175,0.278038,-0.02745,-1.10837,-0.04858,0.2793,0.37156
-12.8624,0,0,17.8624,17.8624,5,5,21.8007,-0.810912,-16.8277,0.331153,0.331705,-0.168064,1,0,5.32,-0.315,-0.7175,0.278038,-0.02745,-1.10837,-0.04858,0.2793,0.37156
-12.8635,0,0,17.8635,17.8635,5,5,21.8026,-0.809882,-16.829,0.0811171,-0.0276828,0.247367,1,0,4.655,0.175,-1.1725,0.026962,-0.386496,-0.696132,-0.04858,0.2793,0.37156
-12.8646,0,0,17.8646,17.8646,5,5,21.8045,-0.808851,-16.8303,0.0810991,-0.0276516,0.247355,1,0,4.655,0.175,-1.1725,0.026962,-0.386496,-0.696132,-0.04858,0.2793,0.37156
-12.8648,0,0,17.8648,17.8648,5,5,21.8048,-0.807317,-16.8308,-0.468286,-0.336383,0.205796,1,0,3.745,0.6125,-0.875,-0.524722,-0.694912,-0.737368,-0.04858,0.2793,0.37156
-12.865,0,0,17.865,17.865,5,5,21.8051,-0.805782,-16.8313,-0.468313,-0.336379,0.205795,1,0,3.745,0.6125,-0.875,-0.524722,-0.694912,-0.737368,-0.04858,0.2793,0.37156
-12.8648,0,0,17.8648,17.8648,5,5,21.8047,-0.80649,-16.8321,-0.0206256,0.047704,0.305877,1,0,3.3775,-0.6475,-0.49,-0.075152,-0.311222,-0.63806,-0.04858,0.2793,0.37156
-12.8645,0,0,17.8645,17.8645,5,5,21.8043,-0.807197,-16.8328,-0.0206132,0.047698,0.305879,1,0,3.3775,-0.6475,-0.49,-0.075152,-0.311222,-0.63806,-0.04396,0.28238,0.37324
-12.8649,0,0,17.8649,17.8649,5,5,21.8049,-0.808804,-16.833,0.00261857,0.0704225,0.148501,1,0,3.9025,-1.0325,-0.035,-0.05185,-0.28853,-0.79422,-0.04396,0.28238,0.37324
-12.8652,0,0,17.8652,17.8652,5,5,21.8054,-0.810411,-16.8332,0.00264662,0.0704314,0.148497,1,0,3.9025,-1.0325,-0.035,-0.05185,-0.28853,-0.79422,-0.04396,0.28238,0.37324
-12.8666,0,0,17.8666,17.8666,5,5,21.8079,-0.810465,-16.833,-0.236436,-0.165967,-0.0254904,1,0,4.9525,-0.0875,-0.1225,-0.291946,-0.524722,-0.96685,-0.04396,0.28238,0.37324
-12.7828,0,0,17.7828,17.7828,5,5,21.6658,-0.864144,-16.9131,-0.0482901,0.149011,0.0570527,0,0,5.285,0.805,-0.0525,-0.103944,-0.207766,-0.885842,-0.04396,0.28238,0.37324
-12.7007,0,0,17.7007,17.7007,5,5,21.5267,-0.917505,-16.9924,-0.0473589,0.146748,0.057933,0,0,5.39,0.5425,0.175,-0.103944,-0.207766,-0.885842,-0.04396,0.28238,0.37324
-12.7019,0,0,17.7019,17.7019,5,5,21.5287,-0.915671,-16.9905,-0.0356068,-0.124097,0.261646,1,0,4.725,1.295,0.3675,-0.09211,-0.478362,-0.683688,-0.04396,0.28238,0.37324
-12.7028,0,0,17.7028,17.7028,5,5,21.5301,-0.914675,-16.9887,-0.0356241,-0.124073,0.261637,1,0,4.4275,0.8225,0.5075,-0.09211,-0.478362,-0.683688,-0.04396,0.28238,0.37324
-12.7034,0,0,17.7034,17.7034,5,5,21.5311,-0.914451,-16.9872,-0.00124759,-0.23739,0.319908,1,0,4.165,0.35,0.5425,-0.057584,-0.591578,-0.62586,-0.04676,0.28084,0.37254
-12.7043,0,0,17.7043,17.7043,5,5,21.5328,-0.915127,-16.9858,-0.130375,-0.609362,-0.202879,1,0,4.515,-0.175,0.6475,-0.18727,-0.96319,-1.1446,-0.04676,0.28084,0.37254
-12.7058,0,0,17.7058,17.7058,5,5,21.5353,-0.916432,-16.9848,-0.130352,-0.60932,-0.202896,1,0,5.04,-0.6125,0.5425,-0.18727,-0.96319,-1.1446,-0.04676,0.28084,0.37254
-12.7075,0,0,17.7075,17.7075,5,5,21.5381,-0.917876,-16.9841,0.301797,-0.235567,-0.442787,1,0,5.18,-0.735,0.455,0.246684,-0.58987,-1.38263,-0.04676,0.28084,0.37254
-12.7087,0,0,17.7087,17.7087,5,5,21.5402,-0.918881,-16.9832,0.301815,-0.235533,-0.4428,1,0,4.76,-0.4725,0.42,0.246684,-0.58987,-1.38263,-0.04676,0.28084,0.37254
-12.7097,0,0,17.7097,17.7097,5,5,21.5419,-0.919198,-16.9822,0.192969,0.0999768,-0.486212,1,0,4.5675,-0.0525,0.385,0.137372,-0.254736,-1.42569,-0.04676,0.28084,0.37254
-12.7104,0,0,17.7104,17.7104,5,5,21.543,-0.918611,-16.9815,0.192959,0.0999938,-0.486219,1,0,4.1825,0.35,-0.035,0.137372,-0.254736,-1.42569,-0.04676,0.28084,0.37254
-12.6768,0,0,17.6768,17.6768,5,5,21.4861,-1.44538,-16.766,-0.316957,0.136983,0.118629,0,0,4.6725,0.49,-0.21,-0.383934,-0.216794,-0.825696,-0.04676,0.28084,0.37254
-12.6434,0,0,17.6434,17.6434,5,5,21.4294,-1.96073,-16.5378,-0.307967,0.135964,0.118742,0,0,4.9,0.245,-0.56,-0.383934,-0.216794,-0.825696,-0.04522,0.27188,0.36932
-12.6442,0,0,17.6442,17.6442,5,5,21.4308,-1.95957,-16.5381,-0.274093,-0.208044,-0.0690082,1,0,4.3575,0.455,-0.6825,-0.349896,-0.560468,-1.01199,-0.04522,0.27188,0.36932
-12.6459,0,0,17.6459,17.6459,5,5,21.4337,-1.95905,-16.5391,-0.274102,-0.207997,-0.0690266,1,0,5.215,-0.0525,-0.945,-0.349896,-0.560468,-1.01199,-0.04522,0.27188,0.36932
-12.6471,0,0,17.6471,17.6471,5,5,21.4358,-1.95833,-16.5407,0.480312,-0.218466,-0.000188088,1,0,4.7075,-0.0525,-1.26,0.407724,-0.57096,-0.94367,-0.04522,0.27188,0.36932
-12.6486,0,0,17.6486,17.6486,5,5,21.4383,-1.95853,-16.5425,0.480316,-0.218426,-0.000204073,1,0,4.9525,-0.595,-1.1725,0.407724,-0.57096,-0.94367,-0.04522,0.27188,0.36932
-12.6499,0,0,17.6499,17.6499,5,5,21.4404,-1.95865,-16.5443,0.250953,-0.118979,-0.343121,1,0,4.7775,-0.56,-1.225,0.177388,-0.471652,-1.28393,-0.04522,0.27188,0.36932
-12.6506,0,0,17.6506,17.6506,5,5,21.4416,-1.95863,-16.546,0.250952,-0.11896,-0.343129,1,0,4.2175,-0.455,-1.1725,0.177388,-0.471652,-1.28393,-0.04522,0.27188,0.36932
-12.6511,0,0,17.6511,17.6511,5,5,21.4426,-1.95781,-16.5477,0.00930281,-0.0849931,0.189478,1,0,4.095,-0.035,-1.3825,-0.06527,-0.437736,-0.755424,-0.04522,0.27188,0.36932
-12.6514,0,0,17.6514,17.6514,5,5,21.443,-1.95655,-16.5485,0.00928087,-0.0849864,0.189477,1,0,3.7975,0.42,-0.9275,-0.06527,-0.437736,-0.755424,-0.04634,0.2688,0.36428
-12.6518,0,0,17.6518,17.6518,5,5,21.4437,-1.95466,-16.5485,-0.0312067,-0.243861,-0.016343,1,0,4.0075,0.91,-0.6825,-0.105896,-0.596458,-0.959652,-0.04634,0.2688,0.36428
-12.6529,0,0,17.6529,17.6529,5,5,21.4457,-1.95382,-16.5482,-0.0312214,-0.243829,-0.0163549,1,0,4.69,0.42,-0.2625,-0.105896,-0.596458,-0.959652,-0.04634,0.2688,0.36428
-12.6463,0,0,17.6463,17.6463,5,5,21.4344,-1.78287,-16.7112,0.102711,0.0342285,0.089912,0,0,5.1975,0.0175,0,0.031598,-0.318542,-0.854366,-0.04634,0.2688,0.36428
-12.6402,0,0,17.6402,17.6402,5,5,21.424,-1.61764,-16.8717,0.0998283,0.0340905,0.090058,0,0,5.4075,-0.35,0.7875,0.031598,-0.318542,-0.854366,-0.04634,0.2688,0.36428
-12.7421,0,0,17.7421,17.7421,5,5,21.5967,-1.42932,-17.0249,0.150604,-0.171544,0.0360437,0,0,5.53,-0.42,0.8225,0.085888,-0.526796,-0.906948,-0.04634,0.2688,0.36428
-12.8416,0,0,17.8416,17.8416,5,5,21.7655,-1.24485,-17.1747,0.147385,-0.16878,0.0350254,0,0,5.0225,0.0525,1.085,0.085888,-0.526796,-0.906948,-0.04634,0.2688,0.36428
-12.8429,0,0,17.8429,17.8429,5,5,21.7677,-1.24549,-17.1723,0.0391525,-0.0701882,-0.151502,1,0,4.8475,0.07,1.19,-0.022814,-0.428342,-1.09202,-0.04634,0.2688,0.36428
-12.8432,0,0,17.8432,17.8432,5,5,21.7681,-1.24553,-17.1696,0.0391533,-0.0701822,-0.151504,1,0,3.8325,0.4725,1.26,-0.022814,-0.428342,-1.09202,-0.0441,0.26502,0.36764
-12.7454,0,0,17.7454,17.7454,5,5,21.6024,-1.05229,-17.3606,0.110374,0.119506,-0.0614815,0,0,3.85,-0.0525,0.8925,0.052094,-0.236192,-1.00382,-0.0441,0.26502,0.36764
-12.6497,0,0,17.6497,17.6497,5,5,21.4402,-0.864603,-17.5509,0.107098,0.116893,-0.0603922,0,0,3.85,-0.0525,0.8925,0.052094,-0.236192,-1.00382,-0.0441,0.26502,0.36764
-12.59,0,0,17.59,17.59,5,5,21.339,-0.776858,-17.6793,0.0468893,0.0710462,-0.0545635,0,0,4.76,-0.2975,0.42,-0.006832,-0.280356,-0.998692,-0.0441,0.26502,0.36764
-12.5315,0,0,17.5315,17.5315,5,5,21.2398,-0.691751,-17.8069,0.045404,0.0694415,-0.0539178,0,0,4.76,-0.2975,0.42,-0.006832,-0.280356,-0.998692,-0.0441,0.26502,0.36764
-12.6953,0,0,17.6953,17.6953,5,5,21.5174,-0.99288,-17.663,-0.152222,-0.161292,0.155839,0,0,5.25,-3.7625,-0.315,-0.210572,-0.515328,-0.78873,-0.0441,0.26502,0.36764
-12.8553,0,0,17.8553,17.8553,5,5,21.7886,-1.28516,-17.5224,-0.147122,-0.156931,0.153998,0,0,5.25,-3.7625,-0.315,-0.210572,-0.515328,-0.78873,-0.0441,0.26502,0.36764
-12.8571,0,0,17.8571,17.8571,5,5,21.7917,-1.2848,-17.5241,0.158894,0.101417,-0.221137,1,0,5.2675,-0.2625,-1.2075,0.096746,-0.257298,-1.16095,-0.0441,0.26502,0.36764
-12.8589,0,0,17.8589,17.8589,5,5,21.7947,-1.28444,-17.5257,0.158888,0.101466,-0.221157,1,0,5.2675,-0.2625,-1.2075,0.096746,-0.257298,-1.16095,-0.04774,0.26908,0.36694
-12.8597,0,0,17.8597,17.8597,5,5,21.7961,-1.28362,-17.5282,0.155472,-0.0101345,-0.137684,1,0,4.375,-0.21,-1.8025,0.09333,-0.368806,-1.07811,-0.04774,0.26908,0.36694
-12.8606,0,0,17.8606,17.8606,5,5,21.7976,-1.2828,-17.5307,0.155458,-0.0101108,-0.137693,1,0,4.375,-0.21,-1.8025,0.09333,-0.368806,-1.07811,-0.04774,0.26908,0.36694
-12.8923,0,0,17.8923,17.8923,5,5,21.8514,-1.52737,-17.4458,-0.158081,-0.0263759,0.00460421,0,0,4.48,-0.3675,-1.855,-0.225822,-0.385886,-0.936472,-0.04774,0.26908,0.36694
-12.8938,0,0,17.8938,17.8938,5,5,21.8539,-1.5262,-17.4481,0.0404058,0.0756404,0.117332,1,0,4.9525,0.035,-1.75,-0.026474,-0.284016,-0.824598,-0.04774,0.26908,0.36694
-12.8949,0,0,17.8949,17.8949,5,5,21.8557,-1.52516,-17.4502,0.0403877,0.0756702,0.117321,1,0,4.585,0,-1.61,-0.026474,-0.284016,-0.824598,-0.04774,0.26908,0.36694
-12.896,0,0,17.896,17.896,5,5,21.8577,-1.52394,-17.4517,-0.143927,-0.184794,-0.0235902,1,0,4.655,0.2275,-1.3475,-0.211548,-0.544242,-0.96441,-0.04774,0.26908,0.36694
-12.8973,0,0,17.8973,17.8973,5,5,21.8599,-1.52367,-17.4524,-0.143932,-0.184758,-0.0236045,1,0,4.83,-0.105,-0.665,-0.211548,-0.544242,-0.96441,-0.04774,0.26908,0.36694
-12.8984,0,0,17.8984,17.8984,5,5,21.8617,-1.52327,-17.452,0.0491017,-0.231015,-0.0244769,1,0,4.62,0.1925,-0.14,-0.01769,-0.59048,-0.965264,-0.04886,0.26908,0.35994
-12.8996,0,0,17.8996,17.8996,5,5,21.8637,-1.52351,-17.4507,-0.180016,0.129536,0.0995651,1,0,4.725,0.035,0.4725,-0.247782,-0.230336,-0.842166,-0.04886,0.26908,0.35994
-12.9009,0,0,17.9009,17.9009,5,5,21.8659,-1.52526,-17.449,-0.179986,0.12957,0.0995505,1,0,4.8125,-0.6825,1.05,-0.247782,-0.230336,-0.842166,-0.04886,0.26908,0.35994
-12.8494,0,0,17.8494,17.8494,5,5,21.7787,-1.10267,-17.7579,0.265539,0.0555558,0.0262577,0,0,4.865,-0.7175,1.2075,0.207034,-0.302926,-0.91561,-0.04886,0.26908,0.35994
-12.7993,0,0,17.7993,17.7993,5,5,21.6937,-0.690827,-18.0634,0.258352,0.0542193,0.0269117,0,0,4.9,-0.14,1.61,0.207034,-0.302926,-0.91561,-0.04886,0.26908,0.35994
-12.8003,0,0,17.8003,17.8003,5,5,21.6955,-0.69119,-18.0599,-0.114724,-0.00339591,0.179233,1,0,4.6025,0.4375,1.68,-0.167628,-0.36051,-0.764452,-0.04886,0.26908,0.35994
-12.802,0,0,17.802,17.802,5,5,21.6982,-0.692574,-18.0569,-0.1147,-0.00335115,0.179215,1,0,5.1625,-0.1925,1.715,-0.167628,-0.36051,-0.764452,-0.04886,0.26908,0.35994
-12.8033,0,0,17.8033,17.8033,5,5,21.7004,-0.693603,-18.0537,-0.218431,-0.0118644,-0.114523,1,0,4.8475,0.0175,1.68,-0.271816,-0.36905,-1.05591,-0.04886,0.26908,0.35994
-12.8042,0,0,17.8042,17.8042,5,5,21.702,-0.693977,-18.0512,-0.218424,-0.0118386,-0.114533,1,0,4.4975,0.2275,1.1725,-0.271816,-0.36905,-1.05591,-0.04956,0.27034,0.35826
-12.8055,0,0,17.8055,17.8055,5,5,21.7043,-0.695268,-18.0496,0.344928,-0.17191,-0.0973356,1,0,4.8825,-0.455,0.91,0.293898,-0.528992,-1.03883,-0.04956,0.27034,0.35826
-12.8064,0,0,17.8064,17.8064,5,5,21.7057,-0.696337,-18.049,0.344946,-0.171887,-0.0973448,1,0,4.375,-0.56,0.2975,0.293898,-0.528992,-1.03883,-0.04956,0.27034,0.35826
-12.8074,0,0,17.8074,17.8074,5,5,21.7074,-0.697445,-18.0493,-0.00795033,0.0314814,0.154442,1,0,4.55,-0.7875,-0.21,-0.060512,-0.325862,-0.788974,-0.04956,0.27034,0.35826
-12.8086,0,0,17.8086,17.8086,5,5,21.7096,-0.697088,-18.0501,-0.00795656,0.0315164,0.154429,1,0,4.795,-0.0875,-0.77,-0.060512,-0.325862,-0.788974,-0.04956,0.27034,0.35826
-12.8104,0,0,17.8104,17.8104,5,5,21.7125,-0.696726,-18.0517,0.120326,-0.115233,-0.0902577,1,0,5.215,-0.245,-1.1725,0.06832,-0.472506,-1.03175,-0.04956,0.27034,0.35826
-12.812,0,0,17.812,17.812,5,5,21.7153,-0.695609,-18.0546,0.120307,-0.115186,-0.0902759,1,0,5.1625,-0.14,-2.1,0.06832,-0.472506,-1.03175,-0.04956,0.27034,0.35826
-12.7574,0,0,17.7574,17.7574,5,5,21.6227,-0.702916,-18.1349,-0.0159944,0.0970326,0.0253993,0,0,5.355,-0.3325,-2.24,-0.068686,-0.259006,-0.917562,-0.04956,0.27034,0.35826
-12.7032,0,0,17.7032,17.7032,5,5,21.5308,-0.709951,-18.2131,-0.0158716,0.0955404,0.0259878,0,0,4.7075,0.0175,-2.275,-0.068686,-0.259006,-0.917562,-0.04564,0.26684,0.35378
-12.7044,0,0,17.7044,17.7044,5,5,21.5328,-0.70881,-18.216,-0.00848091,-0.281798,-0.213652,1,0,4.7075,-0.105,-2.065,-0.061244,-0.635986,-1.15534,-0.04564,0.26684,0.35378
-12.7054,0,0,17.7054,17.7054,5,5,21.5346,-0.707741,-18.2188,-0.00849957,-0.281769,-0.213663,1,0,4.585,-0.1225,-1.995,-0.061244,-0.635986,-1.15534,-0.04564,0.26684,0.35378
-12.8663,0,0,17.8663,17.8663,5,5,21.8072,-0.818201,-18.1853,-0.0341491,-0.149857,0.187827,0,0,4.725,-0.175,-1.715,-0.088938,-0.508618,-0.75518,-0.04564,0.26684,0.35378
-13.0242,0,0,18.0242,18.0242,5,5,22.0749,-0.924217,-18.1519,-0.032299,-0.145534,0.186056,0,0,5.1275,0.28,-1.225,-0.088938,-0.508618,-0.75518,-0.04564,0.26684,0.35378
-13.0256,0,0,18.0256,18.0256,5,5,22.0772,-0.924338,-18.1527,-0.225945,-0.202774,-0.0963721,1,0,4.8825,-0.35,-0.665,-0.283406,-0.565836,-1.03541,-0.04564,0.26684,0.35378
-13.027,0,0,18.027,18.027,5,5,22.0796,-0.925557,-18.1528,-0.225924,-0.202736,-0.0963877,1,0,4.9,-0.7875,-0.035,-0.283406,-0.565836,-1.03541,-0.04564,0.26684,0.35378
-13.0283,0,0,18.0283,18.0283,5,5,22.0818,-0.926729,-18.1522,-0.0593465,0.33942,0.0810122,1,0,4.83,-0.63,0.28,-0.116144,-0.024278,-0.859368,-0.04564,0.26684,0.35378
-13.03,0,0,18.03,18.03,5,5,22.0848,-0.926592,-18.1507,-0.0593488,0.339468,0.0809927,1,0,5.2675,0.2975,0.525,-0.116144,-0.024278,-0.859368,-0.04564,0.26684,0.35378
-13.0459,0,0,18.0459,18.0459,5,5,22.1116,-0.943878,-18.1936,-0.00923805,-0.0323419,-0.0245551,0,0,5.0925,0.1925,0.77,-0.066124,-0.396134,-0.963922,-0.04466,0.26544,0.35868
-13.0476,0,0,18.0476,18.0476,5,5,22.1146,-0.944898,-18.1911,0.121863,-0.367165,-0.0470748,1,0,5.3025,-0.105,1.33,0.065514,-0.730658,-0.986248,-0.04466,0.26544,0.35868
-13.0488,0,0,18.0488,18.0488,5,5,22.1167,-0.94562,-18.1884,0.121875,-0.367132,-0.0470882,1,0,4.7425,0.105,1.3825,0.065514,-0.730658,-0.986248,-0.04466,0.26544,0.35868
-13.0502,0,0,18.0502,18.0502,5,5,22.119,-0.946449,-18.1862,-0.0132022,0.119826,0.217727,1,0,4.9525,-0.07,1.12,-0.07015,-0.244244,-0.72346,-0.04466,0.26544,0.35868
-13.0516,0,0,18.0516,18.0516,5,5,22.1214,-0.948097,-18.1843,-0.0131735,0.119863,0.217711,1,0,4.9175,-0.595,1.1025,-0.07015,-0.244244,-0.72346,-0.04466,0.26544,0.35868
-13.0119,0,0,18.0119,18.0119,5,5,22.0541,-0.983857,-18.2295,-0.0296789,0.0710195,0.0075322,0,0,4.8125,-0.595,0.91,-0.087352,-0.291946,-0.932446,-0.04466,0.26544,0.35868
-12.9735,0,0,17.9735,17.9735,5,5,21.9889,-1.01816,-18.275,-0.0290803,0.0699613,0.00794893,0,0,5.3025,-0.3325,0.385,-0.087352,-0.291946,-0.932446,-0.04466,0.26544,0.35868
-12.9829,0,0,17.9829,17.9829,5,5,22.0049,-1.18966,-18.2301,-0.109791,0.0120661,0.0200858,0,0,5.3375,-0.1225,0.3325,-0.17141,-0.350018,-0.920246,-0.04746,0.26558,0.3542
-12.9846,0,0,17.9846,17.9846,5,5,22.0078,-1.18971,-18.2302,0.0819141,-0.0375926,0.134286,1,0,5.215,-0.1575,-0.2975,0.021106,-0.399672,-0.806908,-0.04746,0.26558,0.3542
-12.9864,0,0,17.9864,17.9864,5,5,22.0108,-1.18947,-18.2312,0.0819099,-0.0375443,0.134267,1,0,5.25,-0.1925,-0.84,0.021106,-0.399672,-0.806908,-0.04746,0.26558,0.3542
-13.0611,0,0,18.0611,18.0611,5,5,22.1375,-1.02212,-18.3623,0.134994,-0.151983,-0.0113455,0,0,4.9175,-0.1225,-0.9975,0.077348,-0.51606,-0.950624,-0.04746,0.26558,0.3542
-13.1342,0,0,18.1342,18.1342,5,5,22.2614,-0.858845,-18.4917,0.132145,-0.149964,-0.012119,0,0,4.4975,-0.21,-1.085,0.077348,-0.51606,-0.950624,-0.04746,0.26558,0.3542
-13.1345,0,0,18.1345,18.1345,5,5,22.2618,-0.858664,-18.493,-0.212999,0.0455684,0.301766,1,0,3.8325,-0.2975,-0.9975,-0.269254,-0.320738,-0.639158,-0.04746,0.26558,0.3542
-13.1352,0,0,18.1352,18.1352,5,5,22.2631,-0.85808,-18.4941,-0.213009,0.0455893,0.301757,1,0,4.305,-0.035,-0.98,-0.269254,-0.320738,-0.639158,-0.04746,0.26558,0.3542
-13.015,0,0,18.015,18.015,5,5,22.0594,-0.381153,-18.8449,0.268984,0.166289,0.0704402,0,0,4.34,0.1225,-0.9275,0.223138,-0.196908,-0.870104,-0.04746,0.26558,0.3542
-12.8977,0,0,17.8977,17.8977,5,5,21.8606,0.0843799,-19.186,0.260859,0.163079,0.0717573,0,0,5.145,-0.0175,-0.7,0.223138,-0.196908,-0.870104,-0.05236,0.26306,0.35224
-12.9,0,0,17.9,17.9,5,5,21.8645,0.0842565,-19.187,0.19295,0.0198868,0.126075,1,0,5.7575,-0.385,-0.7525,0.15494,-0.340014,-0.81618,-0.05236,0.26306,0.35224
-12.9024,0,0,17.9024,17.9024,5,5,21.8685,0.0842491,-19.1877,0.192951,0.0199519,0.126049,1,0,5.845,-0.2625,-0.63,0.15494,-0.340014,-0.81618,-0.05236,0.26306,0.35224
-12.8839,0,0,17.8839,17.8839,5,5,21.8371,-0.335611,-19.0127,-0.261489,0.104194,0.0860341,0,0,5.495,-0.0875,-0.175,-0.308782,-0.255346,-0.856074,-0.05236,0.26306,0.35224
-12.865,0,0,17.865,17.865,5,5,21.805,-0.745493,-18.8381,-0.254335,0.103649,0.0861796,0,0,5.495,-0.0875,-0.175,-0.308782,-0.255346,-0.856074,-0.05236,0.26306,0.35224
-12.866,0,0,17.866,17.866,5,5,21.8068,-0.745769,-18.8378,-0.0865586,0.217377,0.155019,1,0,4.585,-0.1925,-0.035,-0.1403,-0.141764,-0.787754,-0.05236,0.26306,0.35224
-12.867,0,0,17.867,17.867,5,5,21.8085,-0.746044,-18.8375,-0.0865538,0.217406,0.155008,1,0,4.585,-0.1925,-0.035,-0.1403,-0.141764,-0.787754,-0.05236,0.26306,0.35224
-12.8817,0,0,17.8817,17.8817,5,5,21.8335,-0.230384,-19.1667,0.363662,-0.0614658,0.0436489,0,0,4.6725,-0.1225,0.4375,0.32086,-0.420778,-0.898164,-0.05236,0.26306,0.35224
-12.8965,0,0,17.8965,17.8965,5,5,21.8585,0.272387,-19.4901,0.354887,-0.0610618,0.0434835,0,0,4.6725,-0.1225,0.4375,0.32086,-0.420778,-0.898164,-0.05334,0.26362,0.3563
-12.9693,0,0,17.9693,17.9693,5,5,21.9818,0.209,-19.4893,-0.0242564,-0.0492923,0.124199,0,0,5.1275,-0.245,0.0875,-0.061,-0.411018,-0.817278,-0.05334,0.26362,0.3563
-13.0405,0,0,18.0405,18.0405,5,5,22.1026,0.147762,-19.4888,-0.0231876,-0.0473373,0.123411,0,0,5.1275,-0.245,0.0875,-0.061,-0.411018,-0.817278,-0.05334,0.26362,0.3563
-13.0421,0,0,18.0421,18.0421,5,5,22.1052,0.147433,-19.4883,0.197436,0.0711674,0.152656,1,0,5.04,-0.175,0.0875,0.160552,-0.292678,-0.788242,-0.05334,0.26362,0.3563
-13.0436,0,0,18.0436,18.0436,5,5,22.1078,0.147104,-19.4878,0.197442,0.0712093,0.152639,1,0,5.04,-0.175,0.0875,0.160552,-0.292678,-0.788242,-0.05334,0.26362,0.3563
-13.0448,0,0,18.0448,18.0448,5,5,22.1098,0.146842,-19.4882,0.110949,-0.253248,-0.102739,1,0,4.7425,-0.3325,-0.4025,0.073688,-0.616832,-1.04164,-0.05334,0.26362,0.3563
-13.046,0,0,18.046,18.046,5,5,22.1119,0.14658,-19.4885,0.110953,-0.253215,-0.102752,1,0,4.7425,-0.3325,-0.4025,0.073688,-0.616832,-1.04164,-0.05334,0.26362,0.3563
-13.1296,0,0,18.1296,18.1296,5,5,22.2536,0.139235,-19.5124,0.0145003,-0.156277,-0.0230315,0,0,4.3225,-0.0875,-0.1925,-0.023302,-0.522282,-0.961604,-0.05334,0.26362,0.3563
-13.1303,0,0,18.1303,18.1303,5,5,22.2547,0.139443,-19.5124,-0.0767391,-0.064297,-0.094964,1,0,4.235,0,-0.315,-0.114924,-0.430416,-1.03297,-0.05334,0.26362,0.3563
-13.1306,0,0,18.1306,18.1306,5,5,22.2553,0.13964,-19.5125,-0.0767425,-0.064288,-0.0949677,1,0,3.9025,-0.035,-0.385,-0.114924,-0.430416,-1.03297,-0.04704,0.2618,0.35854
-13.1463,0,0,18.1463,18.1463,5,5,22.2818,0.310564,-19.6548,0.128015,-0.068993,-0.0551958,0,0,4.06,0.28,-0.2275,0.093696,-0.43554,-0.993324,-0.04704,0.2618,0.35854
-13.1626,0,0,18.1626,18.1626,5,5,22.3095,0.47654,-19.7961,0.125118,-0.0685536,-0.0553975,0,0,4.7775,-0.14,-0.4375,0.093696,-0.43554,-0.993324,-0.04704,0.2618,0.35854
-13.1452,0,0,18.1452,18.1452,5,5,22.28,0.32674,-19.7729,-0.0976234,0.0667824,0.0565748,0,0,5.1975,-0.245,-0.5425,-0.132614,-0.299876,-0.882426,-0.04704,0.2618,0.35854
-13.1281,0,0,18.1281,18.1281,5,5,22.2511,0.181694,-19.7497,-0.0950919,0.066319,0.0567767,0,0,5.39,0.3325,-0.735,-0.132614,-0.299876,-0.882426,-0.04704,0.2618,0.35854
-13.13,0,0,18.13,18.13,5,5,22.2543,0.182651,-19.7503,-0.0930434,0.0390149,0.12327,1,0,5.4075,0.28,-0.7875,-0.13054,-0.327204,-0.816424,-0.04704,0.2618,0.35854
-13.1311,0,0,18.1311,18.1311,5,5,22.2562,0.183277,-19.7511,-0.0930543,0.0390445,0.123258,1,0,4.62,0.035,-0.875,-0.13054,-0.327204,-0.816424,-0.04704,0.2618,0.35854
-13.2345,0,0,18.2345,18.2345,5,5,22.4313,0.352038,-19.8647,0.140776,-0.170267,0.0565516,0,0,4.375,-0.105,-0.7525,0.107238,-0.539118,-0.88145,-0.04704,0.2618,0.35854
-13.3364,0,0,18.3364,18.3364,5,5,22.6041,0.517372,-19.9783,0.13789,-0.167491,0.0553769,0,0,4.5325,0.4725,-0.7525,0.107238,-0.539118,-0.88145,-0.04578,0.2625,0.35812
-13.3375,0,0,18.3375,18.3375,5,5,22.606,0.518102,-19.9787,-0.00328875,-0.112625,-0.0600846,1,0,4.655,0.1925,-0.6475,-0.034526,-0.48434,-0.996008,-0.04578,0.2625,0.35812
-13.3397,0,0,18.3397,18.3397,5,5,22.6096,0.518478,-19.9788,-0.00329531,-0.112567,-0.0601091,1,0,5.635,0.07,-0.4025,-0.034526,-0.48434,-0.996008,-0.04578,0.2625,0.35812
-13.3418,0,0,18.3418,18.3418,5,5,22.6133,0.518447,-19.9792,-0.0405909,-0.0907688,-0.0801743,1,0,5.6525,-0.21,-0.455,-0.07198,-0.462624,-1.01589,-0.04578,0.2625,0.35812
-13.3437,0,0,18.3437,18.3437,5,5,22.6164,0.518576,-19.9792,-0.0405931,-0.0907181,-0.0801955,1,0,5.355,-0.035,-0.28,-0.07198,-0.462624,-1.01589,-0.04578,0.2625,0.35812
-13.3846,0,0,18.3846,18.3846,5,5,22.6858,0.385823,-19.9474,-0.0776376,-0.0238901,0.0579183,0,0,5.3025,-0.0175,-0.2275,-0.111508,-0.396988,-0.8784,-0.04578,0.2625,0.35812
-13.4242,0,0,18.4242,18.4242,5,5,22.7528,0.257046,-19.9154,-0.07539,-0.0228054,0.0574778,0,0,5.0225,0.2975,0.105,-0.111508,-0.396988,-0.8784,-0.04578,0.2625,0.35812
-13.4546,0,0,18.4546,18.4546,5,5,22.8044,0.563392,-20.1237,0.212287,-0.0588721,0.054266,0,0,4.7425,-0.0175,0.1225,0.182756,-0.433832,-0.881206,-0.04578,0.2625,0.35812
-13.4847,0,0,18.4847,18.4847,5,5,22.8555,0.862272,-20.3262,0.207071,-0.0580764,0.0538606,0,0,4.83,-0.315,0.3325,0.182756,-0.433832,-0.881206,-0.0476,0.25956,0.34622
-13.5364,0,0,18.5364,18.5364,5,5,22.943,0.529659,-20.1788,-0.212324,-0.0322158,0.033905,0,0,5.005,0.035,0.5425,-0.244244,-0.409432,-0.900482,-0.0476,0.25956,0.34622
-13.5861,0,0,18.5861,18.5861,5,5,23.0272,0.20563,-20.0334,-0.206669,-0.0308492,0.0333648,0,0,4.7075,-0.0875,0.35,-0.244244,-0.409432,-0.900482,-0.0476,0.25956,0.34622
-13.5874,0,0,18.5874,18.5874,5,5,23.0295,0.20509,-20.0325,0.234698,-0.00504335,-0.180458,1,0,4.8825,-0.1925,0.35,0.198982,-0.38369,-1.11264,-0.0476,0.25956,0.34622
-13.5885,0,0,18.5885,18.5885,5,5,23.0313,0.2048,-20.0321,0.234703,-0.00501483,-0.18047,1,0,4.585,-0.175,0.0175,0.198982,-0.38369,-1.11264,-0.0476,0.25956,0.34622
-13.75,0,0,18.75,18.75,5,5,23.3052,-0.017796,-19.9055,-0.104245,-0.142041,0.185886,0,0,4.34,0,-0.2275,-0.145302,-0.524966,-0.74725,-0.0476,0.25956,0.34622
-13.9081,0,0,18.9081,18.9081,5,5,23.5731,-0.233525,-19.7826,-0.10048,-0.137754,0.184018,0,0,4.445,-0.14,-0.6475,-0.145302,-0.524966,-0.74725,-0.0476,0.25956,0.34622
-13.9424,0,0,18.9424,18.9424,5,5,23.6312,-0.377001,-19.7326,-0.0802385,0.00703608,0.0983961,0,0,4.6725,-0.035,-0.56,-0.12749,-0.38125,-0.831796,-0.0476,0.25956,0.34622
-13.9762,0,0,18.9762,18.9762,5,5,23.6884,-0.516209,-19.6807,-0.077809,0.00794292,0.0979781,0,0,5.0225,0.0525,-0.8575,-0.12749,-0.38125,-0.831796,-0.04928,0.26054,0.35532
-13.9779,0,0,18.9779,18.9779,5,5,23.6914,-0.515774,-19.6818,-0.0606871,0.177136,0.110867,1,0,5.2675,-0.14,-0.9625,-0.110288,-0.21228,-0.818986,-0.04928,0.26054,0.35532
-13.9795,0,0,18.9795,18.9795,5,5,23.694,-0.515841,-19.6833,-0.0606859,0.177177,0.110849,1,0,5.0225,-0.5075,-1.0675,-0.110288,-0.21228,-0.818986,-0.04928,0.26054,0.35532
-13.9946,0,0,18.9946,18.9946,5,5,23.7196,-0.606768,-19.6621,-0.0516884,0.0247996,0.0827456,0,0,5.0575,-0.595,-0.875,-0.102846,-0.364902,-0.84668,-0.04928,0.26054,0.35532
-14.0088,0,0,19.0088,19.0088,5,5,23.7437,-0.694422,-19.6404,-0.0501586,0.0251786,0.08256,0,0,4.69,-0.0175,-0.735,-0.102846,-0.364902,-0.84668,-0.04928,0.26054,0.35532
-13.828,0,0,18.828,18.828,5,5,23.4374,-0.428326,-19.8624,0.133257,0.25649,-0.00402717,0,0,4.55,-0.21,-0.28,0.08601,-0.128954,-0.934764,-0.04928,0.26054,0.35532
-13.6507,0,0,18.6507,18.6507,5,5,23.1369,-0.169679,-20.085,0.128743,0.251681,-0.00193209,0,0,4.55,-0.21,-0.28,0.08601,-0.128954,-0.934764,-0.04928,0.26054,0.35532
-13.6521,0,0,18.6521,18.6521,5,5,23.1391,-0.170162,-20.0842,-0.0601588,0.0607117,0.0961652,1,0,4.865,-0.1925,0.2625,-0.1037,-0.319762,-0.837408,-0.04928,0.26054,0.35532
-13.6534,0,0,18.6534,18.6534,5,5,23.1414,-0.170645,-20.0834,-0.0601504,0.0607481,0.0961496,1,0,4.865,-0.1925,0.2625,-0.1037,-0.319762,-0.837408,-0.05754,0.2674,0.35756
-13.7619,0,0,18.7619,18.7619,5,5,23.3252,-0.130941,-20.1042,0.0446062,-0.1394,0.0910743,0,0,5.53,4.235,0.5775,0.002196,-0.522648,-0.84119,-0.05754,0.2674,0.35756
-13.8683,0,0,18.8683,18.8683,5,5,23.5056,-0.0915932,-20.1246,0.0439195,-0.13651,0.0898242,0,0,5.53,4.235,0.5775,0.002196,-0.522648,-0.84119,-0.05754,0.2674,0.35756
-13.8453,0,0,18.8453,18.8453,5,5,23.4667,-0.157885,-20.1259,-0.052112,0.0522839,0.00968468,0,0,5.11,4.375,0.7175,-0.095404,-0.333426,-0.920978,-0.05754,0.2674,0.35756
-13.8227,0,0,18.8227,18.8227,5,5,23.4282,-0.222588,-20.127,-0.0509828,0.0516673,0.00994802,0,0,5.11,4.375,0.7175,-0.095404,-0.333426,-0.920978,-0.05754,0.2674,0.35756
-13.8237,0,0,18.8237,18.8237,5,5,23.43,-0.223341,-20.1257,-0.00201089,0.0399709,-0.151864,1,0,4.5675,-0.21,0.6125,-0.046238,-0.345138,-1.08153,-0.05754,0.2674,0.35756
-13.8247,0,0,18.8247,18.8247,5,5,23.4317,-0.224094,-20.1244,-0.00199775,0.0399987,-0.151876,1,0,4.5675,-0.21,0.6125,-0.046238,-0.345138,-1.08153,-0.05754,0.2674,0.35756
-13.8258,0,0,18.8258,18.8258,5,5,23.4336,-0.223859,-20.1245,0.33913,-0.193111,-0.0595553,1,0,4.655,0.0175,-0.315,0.296338,-0.578036,-0.989908,-0.05754,0.2674,0.35756
-13.8714,0,0,18.8714,18.8714,5,5,23.5108,-0.0352304,-20.2475,0.12749,-0.0493497,0.0956905,0,0,4.5325,-0.245,-0.7,0.087108,-0.435662,-0.835334,-0.05754,0.2674,0.35756
-13.9165,0,0,18.9165,18.9165,5,5,23.5873,0.148409,-20.3651,0.124285,-0.048127,0.0951541,0,0,4.55,-0.105,-1.015,0.087108,-0.435662,-0.835334,-0.05096,0.26278,0.36498
-13.9176,0,0,18.9176,18.9176,5,5,23.5892,0.14928,-20.3666,-0.185762,0.100409,0.192516,1,0,4.6375,0.0175,-1.2425,-0.224236,-0.28731,-0.73871,-0.05096,0.26278,0.36498
-13.9196,0,0,18.9196,18.9196,5,5,23.5925,0.150214,-20.3689,-0.185778,0.100462,0.192493,1,0,5.46,-0.1575,-1.7325,-0.224236,-0.28731,-0.73871,-0.05096,0.26278,0.36498
-13.8343,0,0,18.8343,18.8343,5,5,23.4479,-0.223884,-20.2281,-0.278503,0.173987,-0.048835,0,0,5.6525,-0.245,-1.8375,-0.32391,-0.211548,-0.979172,-0.05096,0.26278,0.36498
-13.7495,0,0,18.7495,18.7495,5,5,23.3043,-0.590158,-20.0861,-0.27211,0.171668,-0.0478823,0,0,5.355,-0.42,-1.5225,-0.32391,-0.211548,-0.979172,-0.05096,0.26278,0.36498
-13.7983,0,0,18.7983,18.7983,5,5,23.3869,-0.103057,-20.3611,0.356581,-0.117039,0.0621243,0,0,4.76,-0.1575,-1.015,0.31598,-0.501298,-0.869494,-0.05096,0.26278,0.36498
-13.846,0,0,18.846,18.846,5,5,23.4678,0.371296,-20.631,0.348302,-0.115751,0.0615453,0,0,4.13,-0.315,-0.7175,0.31598,-0.501298,-0.869494,-0.05096,0.26278,0.36498
-13.8463,0,0,18.8463,18.8463,5,5,23.4682,0.371513,-20.6306,0.0155487,-0.0984022,-0.0989056,1,0,3.8325,0.105,-0.0875,-0.018178,-0.483974,-1.0287,-0.05096,0.26278,0.36498
-13.8465,0,0,18.8465,18.8465,5,5,23.4687,0.371731,-20.6302,0.0155449,-0.0983953,-0.0989086,1,0,3.8325,0.105,-0.0875,-0.018178,-0.483974,-1.0287,-0.04984,0.26544,0.35742
-13.8475,0,0,18.8475,18.8475,5,5,23.4703,0.363981,-20.6311,-0.0489502,0.191438,0.0636187,1,0,4.515,-4.48,1.0675,-0.083082,-0.194468,-0.86742,-0.04984,0.26544,0.35742
-13.8485,0,0,18.8485,18.8485,5,5,23.472,0.356231,-20.632,-0.048815,0.191465,0.063608,1,0,4.515,-4.48,1.0675,-0.083082,-0.194468,-0.86742,-0.04984,0.26544,0.35742
-13.8861,0,0,18.8861,18.8861,5,5,23.5357,0.30907,-20.636,-0.0224799,-0.0395531,0.0345214,0,0,4.865,-0.2975,1.2425,-0.057462,-0.426268,-0.895846,-0.04984,0.26544,0.35742
-13.9229,0,0,18.9229,18.9229,5,5,23.5982,0.263378,-20.6401,-0.0216824,-0.0385531,0.0340895,0,0,4.865,-0.2975,1.2425,-0.057462,-0.426268,-0.895846,-0.04984,0.26544,0.35742
-13.924,0,0,18.924,18.924,5,5,23.6001,0.263071,-20.6376,0.252273,0.0331658,-0.0926837,1,0,4.655,0.315,1.155,0.217648,-0.354654,-1.02163,-0.04984,0.26544,0.35742
-13.9252,0,0,18.9252,18.9252,5,5,23.602,0.262763,-20.6351,0.252279,0.0331964,-0.092697,1,0,4.655,0.315,1.155,0.217648,-0.354654,-1.02163,-0.04984,0.26544,0.35742
-13.9266,0,0,18.9266,18.9266,5,5,23.6044,0.261832,-20.634,0.348754,0.0797651,-0.222424,1,0,4.935,-0.3675,0.5075,0.314516,-0.308172,-1.15034,-0.04984,0.26544,0.35742
-13.9275,0,0,18.9275,18.9275,5,5,23.6059,0.261358,-20.6338,0.0242744,0.472794,0.0951407,1,0,4.4625,-0.2975,0,-0.011346,0.084424,-0.835212,-0.0469,0.2611,0.35448
-13.928,0,0,18.928,18.928,5,5,23.6068,0.262065,-20.6348,0.0242621,0.472808,0.0951346,1,0,4.0775,0.035,-0.9625,-0.011346,0.084424,-0.835212,-0.0469,0.2611,0.35448
-13.9817,0,0,18.9817,18.9817,5,5,23.6978,0.396265,-20.7276,0.11024,-0.120744,-0.0162915,0,0,3.745,-0.455,-1.3825,0.077348,-0.50996,-0.945134,-0.0469,0.2611,0.35448
-14.0346,0,0,19.0346,19.0346,5,5,23.7874,0.527284,-20.819,0.107953,-0.11932,-0.0169382,0,0,3.745,-0.455,-1.3825,0.077348,-0.50996,-0.945134,-0.0469,0.2611,0.35448
-14.0179,0,0,19.0179,19.0179,5,5,23.7592,0.794062,-21.0065,0.176553,0.00404397,0.0164075,0,0,3.9025,-0.735,-1.7675,0.150914,-0.386252,-0.912194,-0.0469,0.2611,0.35448
-14.0019,0,0,19.0019,19.0019,5,5,23.732,1.05377,-21.192,0.172021,0.00358084,0.0165313,0,0,3.9025,-0.735,-1.7675,0.150914,-0.386252,-0.912194,-0.0469,0.2611,0.35448
-14.0033,0,0,19.0033,19.0033,5,5,23.7344,1.05487,-21.1943,0.0301067,-0.0828469,-0.0819675,1,0,4.9525,-0.035,-1.6975,0.008418,-0.472628,-1.00992,-0.0469,0.2611,0.35448
-13.9978,0,0,18.9978,18.9978,5,5,23.7251,1.1682,-21.2992,0.0751442,-0.00375133,-0.00214343,0,0,4.3925,0.1575,-1.47,0.055632,-0.39345,-0.930738,-0.0469,0.2611,0.35448
-13.9924,0,0,18.9924,18.9924,5,5,23.7159,1.27787,-21.4028,0.0732304,-0.00391389,-0.00211663,0,0,4.2175,0.21,-0.4375,0.055632,-0.39345,-0.930738,-0.04746,0.26348,0.3605
-13.9922,0,0,18.9922,18.9922,5,5,23.7156,1.2779,-21.4027,0.198968,0.0186745,-0.178546,1,0,3.4125,-0.0525,-0.175,0.181902,-0.37088,-1.10581,-0.04746,0.26348,0.3605
-13.9922,0,0,18.9922,18.9922,5,5,23.7156,1.27804,-21.4016,0.198965,0.0186738,-0.178545,1,0,3.5525,0.21,0.2625,0.181902,-0.37088,-1.10581,-0.04746,0.26348,0.3605
-13.993,0,0,18.993,18.993,5,5,23.717,1.27853,-21.3997,0.0404178,0.00953677,-0.187654,1,0,4.3575,0.6125,0.665,0.022692,-0.38003,-1.11484,-0.04746,0.26348,0.3605
-13.9946,0,0,18.9946,18.9946,5,5,23.7197,1.27742,-21.3978,0.0404371,0.00957944,-0.187672,1,0,5.0575,-0.245,1.0325,0.022692,-0.38003,-1.11484,-0.04746,0.26348,0.3605
-13.9961,0,0,18.9961,18.9961,5,5,23.7223,1.27617,-21.3957,0.0375434,0.0444278,0.0937393,1,0,5.04,-0.2975,1.1375,0.019764,-0.34526,-0.835578,-0.04746,0.26348,0.3605
-13.9966,0,0,18.9966,18.9966,5,5,23.723,1.27497,-21.3932,0.0375642,0.0444398,0.0937345,1,0,3.9725,-0.1575,1.365,0.019764,-0.34526,-0.835578,-0.04746,0.26348,0.3605
-13.9975,0,0,18.9975,18.9975,5,5,23.7245,1.27411,-21.3912,-0.136388,-0.090853,-0.178238,1,0,4.3925,-0.0875,1.0325,-0.15494,-0.480436,-1.10544,-0.04746,0.26348,0.3605
-13.9984,0,0,18.9984,18.9984,5,5,23.7261,1.27373,-21.39,-0.136382,-0.0908266,-0.178249,1,0,4.4975,-0.035,0.455,-0.15494,-0.480436,-1.10544,-0.05208,0.26306,0.35602
-13.9997,0,0,18.9997,18.9997,5,5,23.7283,1.27366,-21.3892,-0.0451446,0.121098,-0.262115,1,0,4.795,0.035,0.175,-0.063318,-0.268766,-1.18865,-0.05208,0.26306,0.35602
-14.0008,0,0,19.0008,19.0008,5,5,23.7302,1.27291,-21.3896,-0.0451316,0.121128,-0.262128,1,0,4.6375,-0.595,-0.28,-0.063318,-0.268766,-1.18865,-0.05208,0.26306,0.35602
-14.0014,0,0,19.0014,19.0014,5,5,23.7312,1.273,-21.3902,-0.227483,0.0950097,-0.123327,1,0,4.2,-0.21,-0.6125,-0.24644,-0.294874,-1.05091,-0.05208,0.26306,0.35602
-14.0017,0,0,19.0017,19.0017,5,5,23.7317,1.27362,-21.3916,-0.227494,0.0950165,-0.12333,1,0,3.85,-0.105,-1.155,-0.24644,-0.294874,-1.05091,-0.05208,0.26306,0.35602
-13.821,0,0,18.821,18.821,5,5,23.4255,1.5489,-21.6406,0.157793,0.233205,-0.138022,0,0,4.2,-0.2625,-1.4175,0.145302,-0.15189,-1.0675,-0.05208,0.26306,0.35602
-13.6435,0,0,18.6435,18.6435,5,5,23.1246,1.81662,-21.8896,0.153123,0.22833,-0.136074,0,0,3.9375,-0.0875,-1.435,0.145302,-0.15189,-1.0675,-0.05208,0.26306,0.35602
-13.6207,0,0,18.6207,18.6207,5,5,23.0859,1.77027,-21.9226,-0.0372869,0.0529546,0.0235554,0,0,4.165,-0.3675,-1.33,-0.046726,-0.326472,-0.909388,-0.05208,0.26306,0.35602
-13.5988,0,0,18.5988,18.5988,5,5,23.0489,1.72592,-21.9606,-0.0365133,0.0523696,0.0238302,0,0,4.8475,0.07,-1.26,-0.046726,-0.326472,-0.909388,-0.04802,0.26278,0.34874
-13.6006,0,0,18.6006,18.6006,5,5,23.0519,1.72672,-21.9617,0.0295609,0.026405,0.235403,1,0,5.3025,0.07,-1.0325,0.019642,-0.352458,-0.699426,-0.04802,0.26278,0.34874
-13.6019,0,0,18.6019,18.6019,5,5,23.0541,1.7268,-21.9617,0.0295596,0.0264399,0.235389,1,0,4.8125,-0.07,-0.28,0.019642,-0.352458,-0.699426,-0.04802,0.26278,0.34874
-13.603,0,0,18.603,18.603,5,5,23.0559,1.72667,-21.9613,0.174008,0.044666,0.15755,1,0,4.6025,-0.0875,-0.0175,0.1647,-0.33428,-0.776652,-0.04802,0.26278,0.34874
-13.6035,0,0,18.6035,18.6035,5,5,23.0568,1.72706,-21.9594,0.174002,0.0446808,0.157543,1,0,4.0775,0.5425,0.6825,0.1647,-0.33428,-0.776652,-0.04802,0.26278,0.34874
-13.6037,0,0,18.6037,18.6037,5,5,23.0571,1.72696,-21.9574,0.152743,-0.267348,-0.0525777,1,0,3.7275,0.2975,0.84,0.14335,-0.64599,-0.98515,-0.04802,0.26278,0.34874
-13.6051,0,0,18.6051,18.6051,5,5,23.0595,1.72603,-21.9555,0.152759,-0.267309,-0.0525936,1,0,4.9,-0.175,0.9625,0.14335,-0.64599,-0.98515,-0.04802,0.26278,0.34874
-13.6,0,0,18.6,18.6,5,5,23.0509,1.92758,-22.1148,0.145478,-0.0242159,-0.0237448,0,0,5.1625,-0.315,1.12,0.139568,-0.402966,-0.95648,-0.04802,0.26278,0.34874
-13.5951,0,0,18.5951,18.5951,5,5,23.0425,2.12627,-22.2727,0.142012,-0.0243981,-0.0238005,0,0,5.18,0.5425,1.0325,0.139568,-0.402966,-0.95648,-0.05348,0.26698,0.35028
-13.5969,0,0,18.5969,18.5969,5,5,23.0455,2.12673,-22.2709,0.169946,-0.102755,-0.301439,1,0,5.2675,0.5425,0.5775,0.167628,-0.48129,-1.23196,-0.05348,0.26698,0.35028
-13.5982,0,0,18.5982,18.5982,5,5,23.0478,2.12621,-22.2705,0.169955,-0.102718,-0.301454,1,0,4.8475,-0.2975,0.07,0.167628,-0.48129,-1.23196,-0.05348,0.26698,0.35028
-13.5999,0,0,18.5999,18.5999,5,5,23.0507,2.12578,-22.2707,-0.160843,-0.0444178,-0.13537,1,0,5.1975,-0.385,-0.2625,-0.164578,-0.423096,-1.06713,-0.05348,0.26698,0.35028
-13.6009,0,0,18.6009,18.6009,5,5,23.0524,2.12604,-22.2715,-0.160848,-0.0443903,-0.135382,1,0,4.5675,-0.14,-0.7175,-0.164578,-0.423096,-1.06713,-0.05348,0.26698,0.35028
-13.6017,0,0,18.6017,18.6017,5,5,23.0537,2.12679,-22.2722,0.0499167,-0.220354,-0.0798191,1,0,4.3575,0.1225,-0.84,0.047092,-0.598898,-1.01199,-0.05348,0.26698,0.35028
-13.6027,0,0,18.6027,18.6027,5,5,23.0554,2.12724,-22.2744,0.0499088,-0.220326,-0.0798311,1,0,4.6025,-0.3675,-1.54,0.047092,-0.598898,-1.01199,-0.05348,0.26698,0.35028
-13.6036,0,0,18.6036,18.6036,5,5,23.057,2.12751,-22.2769,0.0350829,0.0419055,-0.160127,1,0,4.5325,-0.525,-1.6275,0.032208,-0.336964,-1.09166,-0.05348,0.26698,0.35028
-13.6045,0,0,18.6045,18.6045,5,5,23.0585,2.12882,-22.2784,0.03506,0.0419287,-0.160138,1,0,4.445,0.2625,-1.3475,0.032208,-0.336964,-1.09166,-0.04662,0.25998,0.35658
-13.6051,0,0,18.6051,18.6051,5,5,23.0595,2.12972,-22.2795,-0.0757506,0.127434,0.104439,1,0,4.2,0.105,-1.1025,-0.079056,-0.251564,-0.829112,-0.04662,0.25998,0.35658
-13.6065,0,0,18.6065,18.6065,5,5,23.0619,2.13051,-22.2806,-0.0757645,0.127471,0.104423,1,0,4.9175,0.0875,-0.98,-0.079056,-0.251564,-0.829112,-0.04662,0.25998,0.35658
-13.5536,0,0,18.5536,18.5536,5,5,22.9722,2.24223,-22.4099,0.0539777,0.0996235,0.0717696,0,0,4.83,-0.4725,-0.735,0.053192,-0.277916,-0.862052,-0.04662,0.25998,0.35658
-13.5018,0,0,18.5018,18.5018,5,5,22.8844,2.35099,-22.5368,0.0520809,0.0981839,0.072296,0,0,4.7425,-0.0175,-0.0175,0.053192,-0.277916,-0.862052,-0.04662,0.25998,0.35658
-13.5621,0,0,18.5621,18.5621,5,5,22.9866,2.19192,-22.4773,-0.0957872,-0.0618284,0.03863,0,0,4.83,0.2275,0.2275,-0.098088,-0.439444,-0.89487,-0.04662,0.25998,0.35658
-13.6201,0,0,18.6201,18.6201,5,5,23.0849,2.03727,-22.4179,-0.09309,-0.0602106,0.0380503,0,0,4.13,0.4025,0.595,-0.098088,-0.439444,-0.89487,-0.04662,0.25998,0.35658
-13.6201,0,0,18.6201,18.6201,5,5,23.0849,2.0367,-22.416,0.136406,0.0214924,0.178089,1,0,3.5525,0.035,0.9275,0.13237,-0.357826,-0.755912,-0.04662,0.25998,0.35658
-13.6215,0,0,18.6215,18.6215,5,5,23.0873,2.03533,-22.4142,0.13643,0.0215312,0.178073,1,0,4.9,-0.4375,1.015,0.13237,-0.357826,-0.755912,-0.04662,0.25998,0.35658
-13.623,0,0,18.623,18.623,5,5,23.0899,2.03372,-22.4126,-0.227756,0.215754,0.173631,1,0,4.9875,-0.6125,0.9625,-0.233386,-0.163846,-0.760304,-0.04284,0.26292,0.35392
-13.6331,0,0,18.6331,18.6331,5,5,23.107,2.1333,-22.5153,0.0645029,0.00484697,0.0698097,0,0,5.0225,0.3675,0.3325,0.061854,-0.374784,-0.86315,-0.04284,0.26292,0.35392
-13.6433,0,0,18.6433,18.6433,5,5,23.1242,2.22985,-22.6179,0.0628189,0.00509658,0.0696334,0,0,5.075,-0.14,-0.035,0.061854,-0.374784,-0.86315,-0.04284,0.26292,0.35392
-13.6848,0,0,18.6848,18.6848,5,5,23.1945,2.35663,-22.7237,0.102885,-0.0819854,0.0110376,0,0,4.3925,0.0875,-0.1575,0.10431,-0.462868,-0.920734,-0.04284,0.26292,0.35392
-13.7261,0,0,18.7261,18.7261,5,5,23.2646,2.48048,-22.8294,0.100725,-0.0808993,0.0104722,0,0,4.7775,-0.1575,-0.7875,0.10431,-0.462868,-0.920734,-0.04284,0.26292,0.35392
-13.7269,0,0,18.7269,18.7269,5,5,23.266,2.48089,-22.8304,0.068889,-0.309375,0.0634527,1,0,4.4275,-0.1225,-0.8925,0.072346,-0.69113,-0.868152,-0.04284,0.26292,0.35392
-13.7273,0,0,18.7273,18.7273,5,5,23.2665,2.48165,-22.8316,0.0688757,-0.309367,0.0634485,1,0,3.92,0.035,-1.05,0.072346,-0.69113,-0.868152,-0.04284,0.26292,0.35392
-13.7271,0,0,18.7271,18.7271,5,5,23.2662,2.24688,-22.7635,-0.168179,0.0200699,-0.028974,0,0,4.7425,-0.2975,-1.1025,-0.169824,-0.362096,-0.960018,-0.04284,0.26292,0.35392
-13.727,0,0,18.727,18.727,5,5,23.266,2.01572,-22.6811,-0.164148,0.0201265,-0.028835,0,0,4.8125,-0.3325,-0.945,-0.169824,-0.362096,-0.960018,-0.04942,0.25774,0.35602
-13.7283,0,0,18.7283,18.7283,5,5,23.2683,2.01633,-22.6816,-0.0888371,0.0741435,-0.170857,1,0,4.9,0.0875,-0.7,-0.094184,-0.308172,-1.10093,-0.04942,0.25774,0.35602
-13.7293,0,0,18.7293,18.7293,5,5,23.27,2.01739,-22.6815,-0.0888555,0.0741697,-0.170869,1,0,4.515,0.49,-0.4375,-0.094184,-0.308172,-1.10093,-0.04942,0.25774,0.35602
-13.7307,0,0,18.7307,18.7307,5,5,23.2724,2.01874,-22.6813,0.0106176,-0.219263,-0.0203971,1,0,4.935,0.665,-0.4725,0.005734,-0.601338,-0.9516,-0.04942,0.25774,0.35602
-13.7322,0,0,18.7322,18.7322,5,5,23.2749,2.01914,-22.6805,0.0106106,-0.219223,-0.0204143,1,0,4.9525,0.2975,0.0875,0.005734,-0.601338,-0.9516,-0.04942,0.25774,0.35602
-13.5946,0,0,18.5946,18.5946,5,5,23.0417,2.21354,-22.871,0.109875,0.174145,-0.108437,0,0,4.165,0.1575,0.455,0.108824,-0.204594,-1.04042,-0.04942,0.25774,0.35602
-13.4601,0,0,18.4601,18.4601,5,5,22.8137,2.40216,-23.0605,0.106586,0.170432,-0.10701,0,0,4.4275,0.21,0.7875,0.108824,-0.204594,-1.04042,-0.04942,0.25774,0.35602
-13.4619,0,0,18.4619,18.4619,5,5,22.8167,2.40207,-23.0587,-0.053409,-0.124212,-0.0635066,1,0,5.2325,0.2275,0.6825,-0.05185,-0.49898,-0.997228,-0.04942,0.25774,0.35602
-13.4637,0,0,18.4637,18.4637,5,5,22.8198,2.40126,-23.0573,-0.0533949,-0.124163,-0.0635265,1,0,5.25,-0.21,0.7175,-0.05185,-0.49898,-0.997228,-0.05026,0.25816,0.364
-13.4518,0,0,18.4518,18.4518,5,5,22.7997,2.41333,-23.1059,0.00154918,0.050519,0.0736884,0,0,5.355,-0.28,0.6125,0.003538,-0.324154,-0.861198,-0.05026,0.25816,0.364
-13.4401,0,0,18.4401,18.4401,5,5,22.7798,2.42501,-23.1547,0.00134544,0.0501958,0.0738148,0,0,5.215,-0.4375,0.245,0.003538,-0.324154,-0.861198,-0.05026,0.25816,0.364
-13.4412,0,0,18.4412,18.4412,5,5,22.7817,2.42519,-23.1541,-0.0922017,-0.0963259,-0.191152,1,0,4.6375,0.1225,0.0175,-0.090402,-0.470554,-1.12411,-0.05026,0.25816,0.364
-13.4421,0,0,18.4421,18.4421,5,5,22.7832,2.42603,-23.1542,-0.0922164,-0.0963017,-0.191163,1,0,4.445,0.315,-0.525,-0.090402,-0.470554,-1.12411,-0.05026,0.25816,0.364
-13.4432,0,0,18.4432,18.4432,5,5,22.785,2.42654,-23.155,-0.136811,-0.0753897,-0.267157,1,0,4.6025,0,-0.77,-0.135176,-0.449692,-1.1995,-0.05026,0.25816,0.364
-13.4443,0,0,18.4443,18.4443,5,5,22.787,2.4259,-23.1564,-0.136799,-0.0753569,-0.267171,1,0,4.76,-0.7875,-0.8925,-0.135176,-0.449692,-1.1995,-0.05026,0.25816,0.364
-13.3348,0,0,18.3348,18.3348,5,5,22.6014,2.70377,-23.3875,0.147856,0.161307,0.061167,0,0,4.5325,-0.735,-0.9975,0.15555,-0.210206,-0.87474,-0.05026,0.25816,0.364
-13.2281,0,0,18.2281,18.2281,5,5,22.4205,2.97561,-23.6324,0.143117,0.158305,0.0621568,0,0,5.39,-0.4725,-0.875,0.15555,-0.210206,-0.87474,-0.04732,0.26544,0.35826
-13.229,0,0,18.229,18.229,5,5,22.422,2.97572,-23.6335,0.313074,0.151735,-0.123137,1,0,4.4625,-0.2975,-0.875,0.326228,-0.216794,-1.05859,-0.04732,0.26544,0.35826
-13.2296,0,0,18.2296,18.2296,5,5,22.4231,2.97521,-23.6346,0.313083,0.151751,-0.123143,1,0,4.2,-0.6125,-0.7,0.326228,-0.216794,-1.05859,-0.04732,0.26544,0.35826
-13.3704,0,0,18.3704,18.3704,5,5,22.6616,2.9413,-23.616,0.0121466,-0.185374,0.104959,0,0,3.9725,-0.525,-0.5775,0.023424,-0.557418,-0.830698,-0.04732,0.26544,0.35826
-13.5088,0,0,18.5088,18.5088,5,5,22.8962,2.91039,-23.5971,0.0126853,-0.181594,0.103401,0,0,4.375,0.28,-0.3325,0.023424,-0.557418,-0.830698,-0.04732,0.26544,0.35826
-13.5098,0,0,18.5098,18.5098,5,5,22.898,2.91069,-23.597,-0.163596,-0.0260973,-0.170787,1,0,4.6025,0.0875,-0.245,-0.153598,-0.402112,-1.10276,-0.04732,0.26544,0.35826
-13.5108,0,0,18.5108,18.5108,5,5,22.8996,2.91019,-23.5963,-0.163587,-0.0260715,-0.170797,1,0,4.4625,-0.21,0.245,-0.153598,-0.402112,-1.10276,-0.04732,0.26544,0.35826
-13.5121,0,0,18.5121,18.5121,5,5,22.9018,2.91004,-23.5952,-0.214973,-0.166726,-0.12028,1,0,4.795,0.0525,0.35,-0.205204,-0.542656,-1.05262,-0.04732,0.26544,0.35826
-13.5137,0,0,18.5137,18.5137,5,5,22.9045,2.90946,-23.5937,-0.214963,-0.166682,-0.120298,1,0,5.075,-0.07,0.7,-0.205204,-0.542656,-1.05262,-0.04802,0.25984,0.36176
-13.3732,0,0,18.3732,18.3732,5,5,22.6665,3.08947,-23.7921,0.0858571,0.199839,-0.0207297,0,0,5.46,-0.245,0.525,0.10004,-0.17263,-0.95526,-0.04802,0.25984,0.36176
-13.2353,0,0,18.2353,18.2353,5,5,22.4327,3.26352,-23.991,0.0828241,0.196012,-0.019323,0,0,5.285,-0.8225,0.1575,0.10004,-0.17263,-0.95526,-0.04802,0.25984,0.36176
-13.237,0,0,18.237,18.237,5,5,22.4356,3.26318,-23.9905,0.0811292,-0.188152,-0.0165139,1,0,5.18,-0.175,0.105,0.098332,-0.556442,-0.952454,-0.04802,0.25984,0.36176
-13.238,0,0,18.238,18.238,5,5,22.4373,3.26479,-23.9896,0.0811012,-0.188125,-0.0165269,1,0,4.5325,0.9625,-0.14,0.098332,-0.556442,-0.952454,-0.04802,0.25984,0.36176
-13.2387,0,0,18.2387,18.2387,5,5,22.4384,3.26524,-23.9899,0.00735141,-0.154278,-0.0593209,1,0,4.235,0.07,-0.525,0.024278,-0.522648,-0.99491,-0.04802,0.25984,0.36176
-13.2393,0,0,18.2393,18.2393,5,5,22.4395,3.26508,-23.991,0.00735432,-0.154261,-0.0593278,1,0,4.2175,-0.455,-0.84,0.024278,-0.522648,-0.99491,-0.04802,0.25984,0.36176
-13.2405,0,0,18.2405,18.2405,5,5,22.4416,3.26529,-23.9915,-0.0475609,-0.0820498,-0.250404,1,0,4.795,-0.105,-0.5775,-0.030866,-0.450546,-1.1845,-0.04802,0.25984,0.36176
-13.2425,0,0,18.2425,18.2425,5,5,22.4448,3.2654,-23.9918,-0.0475629,-0.0819978,-0.250426,1,0,5.4075,-0.105,-0.42,-0.030866,-0.450546,-1.1845,-0.04802,0.25984,0.36176
-13.3203,0,0,18.3203,18.3203,5,5,22.5769,3.16596,-23.9498,-0.0516614,-0.073729,0.0828346,0,0,5.915,-0.1575,-0.4025,-0.036722,-0.444446,-0.853024,-0.04928,0.2576,0.36064
-13.3947,0,0,18.3947,18.3947,5,5,22.7029,3.06957,-23.9087,-0.0499815,-0.0716658,0.0820733,0,0,4.235,-0.14,-0.42,-0.036722,-0.444446,-0.853024,-0.04928,0.2576,0.36064
-13.4354,0,0,18.4354,18.4354,5,5,22.7719,2.80937,-23.795,-0.161951,0.012334,0.102848,0,0,3.7625,-0.5775,-0.3675,-0.15372,-0.36173,-0.832162,-0.04928,0.2576,0.36064
-13.4739,0,0,18.4739,18.4739,5,5,22.8371,2.55697,-23.6819,-0.157551,0.0134632,0.102597,0,0,2.9925,0.28,-0.2275,-0.15372,-0.36173,-0.832162,-0.04928,0.2576,0.36064
-13.5226,0,0,18.5226,18.5226,5,5,22.9196,2.67505,-23.7555,0.0862777,-0.0538843,0.0903943,0,0,3.8675,0.945,-0.14,0.093208,-0.430294,-0.84363,-0.04928,0.2576,0.36064
-13.5714,0,0,18.5714,18.5714,5,5,23.0023,2.78922,-23.8282,0.0842874,-0.0525932,0.0897441,0,0,4.7075,0.245,0.07,0.093208,-0.430294,-0.84363,-0.04928,0.2576,0.36064
-13.687,0,0,18.687,18.687,5,5,23.1983,2.54327,-23.6844,-0.15476,-0.179559,-0.00891092,0,0,5.04,-0.315,0.56,-0.151158,-0.560346,-0.940376,-0.04928,0.2576,0.36064
-13.7998,0,0,18.7998,18.7998,5,5,23.3895,2.30405,-23.5431,-0.150589,-0.176428,-0.010067,0,0,5.04,-0.315,0.56,-0.151158,-0.560346,-0.940376,-0.04928,0.2576,0.36064
-13.8014,0,0,18.8014,18.8014,5,5,23.3922,2.29706,-23.545,0.157013,0.00925122,-0.290281,1,0,5.18,-4.305,0.35,0.157624,-0.374906,-1.21841,-0.05754,0.2597,0.36246
-13.8026,0,0,18.8026,18.8026,5,5,23.3942,2.29594,-23.544,-0.0694167,-0.00586015,0.173221,1,0,4.69,-0.4725,0.5425,-0.069784,-0.390034,-0.758474,-0.05754,0.2597,0.36246
-13.8038,0,0,18.8038,18.8038,5,5,23.3962,2.29483,-23.543,-0.0693973,-0.0058278,0.173208,1,0,4.69,-0.4725,0.5425,-0.069784,-0.390034,-0.758474,-0.05754,0.2597,0.36246
-13.8048,0,0,18.8048,18.8048,5,5,23.398,2.2948,-23.5429,0.34815,-0.154549,-0.174625,1,0,4.6025,-0.105,-0.21,0.34953,-0.53863,-1.10361,-0.05754,0.2597,0.36246
-13.8059,0,0,18.8059,18.8059,5,5,23.3998,2.29477,-23.5429,0.34815,-0.15452,-0.174638,1,0,4.6025,-0.105,-0.21,0.34953,-0.53863,-1.10361,-0.05754,0.2597,0.36246
-13.7289,0,0,18.7289,18.7289,5,5,23.2694,2.35086,-23.629,0.0203754,0.109244,-0.0332429,0,0,4.1825,-0.5775,-0.6475,0.02135,-0.273036,-0.964166,-0.05754,0.2597,0.36246
-13.6535,0,0,18.6535,18.6535,5,5,23.1415,2.40508,-23.7147,0.01943,0.107179,-0.0324002,0,0,4.1825,-0.5775,-0.6475,0.02135,-0.273036,-0.964166,-0.05754,0.2597,0.36246
-13.6553,0,0,18.6553,18.6553,5,5,23.1446,2.40515,-23.715,-0.206778,0.320341,-0.280286,1,0,5.355,-0.14,-0.4375,-0.205814,-0.060146,-1.21012,-0.05754,0.2597,0.36246
-13.6572,0,0,18.6572,18.6572,5,5,23.1477,2.40522,-23.7153,-0.206779,0.320391,-0.280307,1,0,5.355,-0.14,-0.4375,-0.205814,-0.060146,-1.21012,-0.04508,0.2618,0.36022
-13.622,0,0,18.622,18.622,5,5,23.0881,2.501,-23.8217,0.0639219,0.0255688,-0.059764,0,0,4.5675,-0.245,-0.315,0.06771,-0.353678,-0.991616,-0.04508,0.2618,0.36022
-13.5876,0,0,18.5876,18.5876,5,5,23.0298,2.59416,-23.9273,0.0622976,0.0246054,-0.0594324,0,0,4.5675,-0.245,-0.315,0.06771,-0.353678,-0.991616,-0.04508,0.2618,0.36022
-13.5881,0,0,18.5881,18.5881,5,5,23.0307,2.60139,-23.9244,-0.0116917,0.209152,0.108381,1,0,4.0425,4.4625,-0.3325,-0.006466,-0.169336,-0.825086,-0.04508,0.2618,0.36022
-13.5887,0,0,18.5887,18.5887,5,5,23.0316,2.60862,-23.9214,-0.0118178,0.209165,0.108369,1,0,4.0425,4.4625,-0.3325,-0.006466,-0.169336,-0.825086,-0.04508,0.2618,0.36022
-13.5903,0,0,18.5903,18.5903,5,5,23.0344,2.6084,-23.9221,-0.0946672,-0.0437154,-0.112588,1,0,5.1625,-0.385,-0.5775,-0.08967,-0.421998,-1.04432,-0.04508,0.2618,0.36022
-13.6244,0,0,18.6244,18.6244,5,5,23.0922,2.75901,-24.0297,0.120531,-0.0733677,0.00899143,0,0,5.425,-0.28,-0.455,0.129076,-0.452498,-0.923174,-0.04508,0.2618,0.36022
-13.6587,0,0,18.6587,18.6587,5,5,23.1504,2.90579,-24.1351,0.117972,-0.0724857,0.00847718,0,0,5.9325,-0.2625,0.0175,0.129076,-0.452498,-0.923174,-0.04508,0.2618,0.36022
-13.6599,0,0,18.6599,18.6599,5,5,23.1524,2.90675,-24.1346,-0.130361,-0.296801,-0.0249792,1,0,4.69,0.525,-0.21,-0.120292,-0.676612,-0.956358,-0.0511,0.26222,0.35658
-13.6412,0,0,18.6412,18.6412,5,5,23.1207,2.62996,-24.0394,-0.194418,0.0786889,0.0273366,0,0,4.165,-0.3325,-0.14,-0.189466,-0.301096,-0.904874,-0.0511,0.26222,0.35658
-13.6214,0,0,18.6214,18.6214,5,5,23.087,2.3594,-23.9443,-0.189701,0.0782303,0.0277557,0,0,3.255,-0.3675,0.07,-0.189466,-0.301096,-0.904874,-0.0511,0.26222,0.35658
-13.6216,0,0,18.6216,18.6216,5,5,23.0874,2.35844,-23.9444,0.0390736,-0.124738,-0.150521,1,0,3.7975,-0.6475,-0.0875,0.04026,-0.50386,-1.08177,-0.0511,0.26222,0.35658
-13.6224,0,0,18.6224,18.6224,5,5,23.0889,2.35849,-23.9444,0.0390726,-0.124715,-0.150531,1,0,4.41,-0.0875,-0.2975,0.04026,-0.50386,-1.08177,-0.0511,0.26222,0.35658
-13.6235,0,0,18.6235,18.6235,5,5,23.0907,2.35835,-23.9449,0.0412618,-0.282717,-0.32968,1,0,4.655,-0.2975,-0.49,0.042456,-0.661728,-1.25953,-0.0511,0.26222,0.35658
-13.626,0,0,18.626,18.626,5,5,23.095,2.35733,-23.9456,0.0412796,-0.282649,-0.329708,1,0,5.9675,-0.805,-0.3675,0.042456,-0.661728,-1.25953,-0.0511,0.26222,0.35658
-13.5474,0,0,18.5474,18.5474,5,5,22.9616,2.56795,-24.1235,0.138197,0.0832396,-0.0703834,0,0,5.1975,-0.665,-0.175,0.143472,-0.29402,-1.00296,-0.0511,0.26222,0.35658
-13.4694,0,0,18.4694,18.4694,5,5,22.8295,2.77204,-24.2882,0.134639,0.0810539,-0.0696405,0,0,3.9375,-0.4025,-0.2975,0.143472,-0.29402,-1.00296,-0.05138,0.25536,0.36274
-13.4697,0,0,18.4697,18.4697,5,5,22.83,2.77157,-24.2882,0.0140119,-0.314019,-0.0170213,1,0,3.85,-0.3675,-0.1575,0.022326,-0.68869,-0.950746,-0.05138,0.25536,0.36274
-13.4694,0,0,18.4694,18.4694,5,5,22.8295,2.77242,-24.2879,0.013997,-0.314028,-0.0170182,1,0,3.2725,0.42,-0.2975,0.022326,-0.68869,-0.950746,-0.05138,0.25536,0.36274
-13.4409,0,0,18.4409,18.4409,5,5,22.7812,2.74498,-24.3121,-0.0258578,0.0341224,-0.0461788,0,0,3.5525,-0.0525,-0.3325,-0.018178,-0.340136,-0.980026,-0.05138,0.25536,0.36274
-13.4138,0,0,18.4138,18.4138,5,5,22.7352,2.71837,-24.336,-0.0253939,0.0333914,-0.0458481,0,0,4.3225,0.1575,-0.3325,-0.018178,-0.340136,-0.980026,-0.05138,0.25536,0.36274
-13.4153,0,0,18.4153,18.4153,5,5,22.7377,2.718,-24.3363,0.0329257,-0.175161,-0.287704,1,0,5.005,-0.3675,-0.315,0.040382,-0.548512,-1.22,-0.05138,0.25536,0.36274
-13.4174,0,0,18.4174,18.4174,5,5,22.7413,2.71761,-24.3363,0.0329324,-0.175103,-0.287728,1,0,5.6,-0.315,-0.175,0.040382,-0.548512,-1.22,-0.05138,0.25536,0.36274
-13.4194,0,0,18.4194,18.4194,5,5,22.7447,2.71714,-24.3357,0.0808061,0.175577,-0.172302,1,0,5.46,-0.245,0.14,0.08845,-0.19825,-1.10544,-0.05138,0.25536,0.36274
-13.4206,0,0,18.4206,18.4206,5,5,22.7468,2.71788,-24.3355,0.0807931,0.175611,-0.172317,1,0,4.76,0.35,-0.2975,0.08845,-0.19825,-1.10544,-0.05376,0.26026,0.36246
-13.5689,0,0,18.5689,18.5689,5,5,22.9981,2.24366,-24.0545,-0.325933,-0.18647,0.0415929,0,0,4.06,0.0525,-0.28,-0.328302,-0.564128,-0.89182,-0.05376,0.26026,0.36246
-13.7131,0,0,18.7131,18.7131,5,5,23.2426,1.7812,-23.7774,-0.317867,-0.182437,0.0401792,0,0,4.0775,0.3325,0.21,-0.328302,-0.564128,-0.89182,-0.05376,0.26026,0.36246
-13.7938,0,0,18.7938,18.7938,5,5,23.3793,1.77363,-23.7597,0.0153791,-0.12993,0.0258381,0,0,4.27,-0.35,0.2275,0.006222,-0.513864,-0.905118,-0.05376,0.26026,0.36246
-13.8734,0,0,18.8734,18.8734,5,5,23.5142,1.76674,-23.7424,0.0154994,-0.127768,0.0249046,0,0,4.795,-0.4025,0.1575,0.006222,-0.513864,-0.905118,-0.05376,0.26026,0.36246
-13.8747,0,0,18.8747,18.8747,5,5,23.5164,1.76624,-23.7417,0.0271708,0.0798815,-0.170475,1,0,4.7775,-0.21,0.245,0.017934,-0.306464,-1.09898,-0.05376,0.26026,0.36246
-13.8766,0,0,18.8766,18.8766,5,5,23.5197,1.76575,-23.7409,0.0271793,0.0799343,-0.170498,1,0,5.425,-0.1925,0.2625,0.017934,-0.306464,-1.09898,-0.05376,0.26026,0.36246
-13.8982,0,0,18.8982,18.8982,5,5,23.5563,1.5907,-23.6671,-0.122717,-0.0166562,-0.0167399,0,0,5.7575,-0.6125,-4.48,-0.135664,-0.403576,-0.946232,-0.05376,0.26026,0.36246
-13.918,0,0,18.918,18.918,5,5,23.5899,1.41723,-23.5849,-0.119691,-0.0160881,-0.0169011,0,0,4.6725,-0.5775,-0.0175,-0.135664,-0.403576,-0.946232,-0.05222,0.25718,0.357
-13.9187,0,0,18.9187,18.9187,5,5,23.5911,1.41676,-23.5849,-0.108384,0.299629,0.0837855,1,0,4.27,-0.35,-0.1225,-0.124318,-0.088206,-0.846314,-0.05222,0.25718,0.357
-13.9187,0,0,18.9187,18.9187,5,5,23.5911,1.4173,-23.5848,-0.108394,0.299629,0.0837853,1,0,3.5875,0.1925,-0.35,-0.124318,-0.088206,-0.846314,-0.05222,0.25718,0.357
-13.8801,0,0,18.8801,18.8801,5,5,23.5255,1.73603,-23.7829,0.202394,0.0548763,0.0825039,0,0,2.975,-4.0425,-0.4375,0.19337,-0.331596,-0.8479,-0.05222,0.25718,0.357
-13.8425,0,0,18.8425,18.8425,5,5,23.4619,2.04653,-23.9793,0.196978,0.0537868,0.0827824,0,0,2.975,-4.0425,-0.4375,0.19337,-0.331596,-0.8479,-0.05222,0.25718,0.357
-13.924,0,0,18.924,18.924,5,5,23.6,2.05768,-23.9683,0.0304695,-0.149058,0.00275845,0,0,4.095,0.175,-0.455,0.026352,-0.536434,-0.926346,-0.05222,0.25718,0.357
-13.9897,0,0,18.9897,18.9897,5,5,23.7113,1.77863,-23.8164,-0.194028,-0.0879824,-0.027871,0,0,5.8625,-0.0525,-0.56,-0.203984,-0.477264,-0.956114,-0.05222,0.25718,0.357
-14.053,0,0,19.053,19.053,5,5,23.8187,1.50646,-23.6664,-0.18928,-0.0862128,-0.0285014,0,0,5.46,-0.175,-0.5425,-0.203984,-0.477264,-0.956114,-0.05222,0.25718,0.357
-14.1044,0,0,19.1044,19.1044,5,5,23.9057,1.41033,-23.6156,-0.0573697,-0.075281,-0.00141319,0,0,5.4425,-0.2275,-0.4025,-0.0732,-0.467748,-0.928664,-0.0483,0.25802,0.35042
-14.1245,0,0,19.1245,19.1245,5,5,23.9399,1.4775,-23.6586,0.0544401,-0.0520334,-0.0153288,0,0,3.85,0.3325,-0.245,0.04026,-0.445056,-0.942206,-0.0483,0.25802,0.35042
-14.1443,0,0,19.1443,19.1443,5,5,23.9735,1.54309,-23.7016,0.0532957,-0.0515099,-0.0155944,0,0,3.815,0.21,-0.5075,0.04026,-0.445056,-0.942206,-0.0483,0.25802,0.35042
-14.1447,0,0,19.1447,19.1447,5,5,23.974,1.54301,-23.7019,-0.0186225,-0.11061,-0.181456,1,0,3.9025,-0.2275,-0.42,-0.031964,-0.504104,-1.10678,-0.0483,0.25802,0.35042
-14.1499,0,0,19.1499,19.1499,5,5,23.983,1.54271,-23.7019,-0.0186173,-0.110468,-0.181519,1,0,8.61,-0.2625,-0.175,-0.031964,-0.504104,-1.10678,-0.0483,0.25802,0.35042
-14.1515,0,0,19.1515,19.1515,5,5,23.9857,1.54309,-23.7011,-0.0374541,0.0645829,0.20034,1,0,5.0925,0.28,0.07,-0.050874,-0.329278,-0.727852,-0.0483,0.25802,0.35042
-14.1532,0,0,19.1532,19.1532,5,5,23.9884,1.54316,-23.7007,-0.0374553,0.0646268,0.20032,1,0,5.1275,0.0175,-0.07,-0.050874,-0.329278,-0.727852,-0.0483,0.25802,0.35042
-14.3623,0,0,19.3623,19.3623,5,5,24.3429,1.30089,-23.5101,-0.114745,-0.198733,0.228375,0,0,4.9525,-0.665,-0.315,-0.132736,-0.598044,-0.697596,-0.0483,0.25802,0.35042
-14.5658,0,0,19.5658,19.5658,5,5,24.6879,1.06526,-23.3262,-0.110634,-0.193221,0.225955,0,0,3.605,0.0175,-0.1575,-0.132736,-0.598044,-0.697596,-0.0504,0.26096,0.35112
-14.3949,0,0,19.3949,19.3949,5,5,24.3982,1.12284,-23.4336,-0.00193675,0.270041,0.0166883,0,0,3.4825,0.3325,-0.1575,-0.02257,-0.130662,-0.907314,-0.0504,0.26096,0.35112
-14.2269,0,0,19.2269,19.2269,5,5,24.1133,1.17764,-23.5416,-0.00289291,0.265501,0.0187128,0,0,3.2375,-0.105,-0.3675,-0.02257,-0.130662,-0.907314,-0.0504,0.26096,0.35112
-14.2042,0,0,19.2042,19.2042,5,5,24.075,1.68718,-23.8259,0.345385,0.0111426,0.0984535,0,0,3.325,-0.5075,-0.1575,0.33611,-0.384056,-0.828258,-0.0504,0.26096,0.35112
-14.1836,0,0,19.1836,19.1836,5,5,24.0399,2.18446,-24.1066,0.33671,0.0104648,0.0984351,0,0,4.2,-0.21,-0.1225,0.33611,-0.384056,-0.828258,-0.0504,0.26096,0.35112
-14.1848,0,0,19.1848,19.1848,5,5,24.042,2.18493,-24.1063,0.0463514,-0.185149,-0.0381757,1,0,4.7425,0.21,-0.2275,0.04453,-0.5795,-0.9638,-0.0504,0.26096,0.35112
-14.1868,0,0,19.1868,19.1868,5,5,24.0454,2.18561,-24.1067,0.0463397,-0.185095,-0.0382003,1,0,5.5125,0.1575,-0.63,0.04453,-0.5795,-0.9638,-0.0504,0.26096,0.35112
-14.1879,0,0,19.1879,19.1879,5,5,24.0473,2.18631,-24.1073,-0.171982,-0.171144,-0.0962456,1,0,4.6375,0.14,-0.7175,-0.174704,-0.565592,-1.02138,-0.0504,0.26096,0.35112
-14.188,0,0,19.188,19.188,5,5,24.0475,2.18654,-24.1075,-0.171986,-0.17114,-0.0962474,1,0,3.7275,-0.035,-0.42,-0.174704,-0.565592,-1.02138,-0.05208,0.25886,0.35966
-14.1051,0,0,19.1051,19.1051,5,5,23.9069,1.94611,-24.0375,-0.199015,0.146531,-0.0888421,0,0,3.3425,0.1925,-0.42,-0.206058,-0.246074,-1.01516,-0.05208,0.25886,0.35966
-14.0239,0,0,19.0239,19.0239,5,5,23.7693,1.7106,-23.9672,-0.194906,0.144388,-0.0877522,0,0,4.0075,0.0525,-0.49,-0.206058,-0.246074,-1.01516,-0.05208,0.25886,0.35966
-13.9165,0,0,18.9165,18.9165,5,5,23.5872,1.60802,-23.9737,-0.0951993,0.188763,-0.00675826,0,0,4.375,0.035,-0.2625,-0.107726,-0.19886,-0.936106,-0.05208,0.25886,0.35966
-13.8117,0,0,18.8117,18.8117,5,5,23.4097,1.50574,-23.9793,-0.0934149,0.185942,-0.00547899,0,0,5.2325,-0.7175,0.245,-0.107726,-0.19886,-0.936106,-0.05208,0.25886,0.35966
-13.8139,0,0,18.8139,18.8139,5,5,23.4134,1.5055,-23.9785,0.133039,-0.128598,-0.271196,1,0,5.6175,-0.035,0.2625,0.119682,-0.513132,-1.19975,-0.05208,0.25886,0.35966
-13.8156,0,0,18.8156,18.8156,5,5,23.4163,1.50487,-23.9779,0.13305,-0.128551,-0.271216,1,0,5.215,-0.315,0.1925,0.119682,-0.513132,-1.19975,-0.05208,0.25886,0.35966
-13.6617,0,0,18.6617,18.6617,5,5,23.1554,1.37312,-23.9875,-0.137994,0.248937,-0.136702,0,0,4.8475,-0.4025,0.07,-0.154818,-0.131882,-1.06811,-0.05208,0.25886,0.35966
-13.5087,0,0,18.5087,18.5087,5,5,22.896,1.24486,-23.9989,-0.135756,0.244792,-0.134885,0,0,3.4125,-0.0525,-0.035,-0.154818,-0.131882,-1.06811,-0.05362,0.25928,0.34804
-13.5081,0,0,18.5081,18.5081,5,5,22.8951,1.24546,-23.9982,0.177666,-0.30174,-0.0478312,1,0,3.0625,0.3675,-0.035,0.159942,-0.677832,-0.981734,-0.05362,0.25928,0.34804
-13.5068,0,0,18.5068,18.5068,5,5,22.8929,1.24599,-23.9978,0.177657,-0.301775,-0.0478166,1,0,2.3625,0.28,-0.14,0.159942,-0.677832,-0.981734,-0.05362,0.25928,0.34804
-13.5064,0,0,18.5064,18.5064,5,5,22.8922,1.24608,-23.998,-0.235639,-0.0548468,0.270256,1,0,3.185,-0.105,-0.385,-0.255102,-0.431148,-0.66612,-0.05362,0.25928,0.34804
-13.5073,0,0,18.5073,18.5073,5,5,22.8937,1.2457,-23.9982,-0.235632,-0.0548233,0.270246,1,0,4.41,-0.3675,-0.2975,-0.255102,-0.431148,-0.66612,-0.05362,0.25928,0.34804
-13.4913,0,0,18.4913,18.4913,5,5,22.8666,1.60213,-24.2041,0.267174,-0.0272295,-0.0115104,0,0,4.3225,-0.0175,-0.1575,0.256078,-0.403088,-0.945744,-0.05362,0.25928,0.34804
-13.4775,0,0,18.4775,18.4775,5,5,22.8433,1.94994,-24.4081,0.261106,-0.027677,-0.0115259,0,0,5.6875,0.07,-0.4025,0.256078,-0.403088,-0.945744,-0.05362,0.25928,0.34804
-13.4789,0,0,18.4789,18.4789,5,5,22.8455,1.95002,-24.4088,-0.0824567,0.13894,0.0625967,1,0,4.865,-0.21,-0.63,-0.088938,-0.23668,-0.872178,-0.05362,0.25928,0.34804
-13.4797,0,0,18.4797,18.4797,5,5,22.847,1.94968,-24.4093,-0.0824506,0.138964,0.0625869,1,0,4.4275,-0.42,-0.4725,-0.088938,-0.23668,-0.872178,-0.05362,0.25928,0.34804
-13.4714,0,0,18.4714,18.4714,5,5,22.8328,2.13843,-24.5377,0.133053,-0.00480939,0.0168381,0,0,3.5,0.3675,-0.4725,0.130784,-0.38003,-0.917562,-0.04844,0.26138,0.35616
-13.5313,0,0,18.5313,18.5313,5,5,22.9344,1.91835,-24.4254,-0.148964,-0.0740793,0.00164326,0,0,3.7975,0.42,-0.6475,-0.156282,-0.450912,-0.93208,-0.04844,0.26138,0.35616
-13.4722,0,0,18.4722,18.4722,5,5,22.8342,2.11821,-24.5804,0.124294,0.0788743,0.0154886,0,0,4.0425,-0.14,0.1575,0.121634,-0.29646,-0.918904,-0.04844,0.26138,0.35616
-13.4732,0,0,18.4732,18.4732,5,5,22.8359,2.1167,-24.5798,-0.418964,-0.266472,0.00613363,1,0,4.55,-0.77,0.4375,-0.42395,-0.641476,-0.928176,-0.04844,0.26138,0.35616
-13.4751,0,0,18.4751,18.4751,5,5,22.8392,2.11654,-24.5787,-0.418961,-0.266419,0.00611151,1,0,5.4075,0.0525,0.3675,-0.42395,-0.641476,-0.928176,-0.04844,0.26138,0.35616
-13.4767,0,0,18.4767,18.4767,5,5,22.8418,2.11613,-24.5781,0.0736709,0.058969,-0.162837,1,0,5.0575,-0.21,0.1225,0.07076,-0.316468,-1.0958,-0.04844,0.26138,0.35616
-13.4779,0,0,18.4779,18.4779,5,5,22.844,2.11552,-24.5781,0.0736814,0.0590038,-0.162852,1,0,4.795,-0.42,-0.0875,0.07076,-0.316468,-1.0958,-0.04844,0.26138,0.35616
-13.37,0,0,18.37,18.37,5,5,22.661,2.30681,-24.7518,0.10667,0.149805,-0.0103869,0,0,3.5875,0.0175,0,0.107238,-0.222772,-0.945622,-0.04844,0.26138,0.35616
-13.2645,0,0,18.2645,18.2645,5,5,22.4823,2.49192,-24.9351,0.103442,0.146875,-0.00931526,0,0,3.43,0.315,-0.385,0.107238,-0.222772,-0.945622,-0.03682,0.25872,0.35
-13.4517,0,0,18.4517,18.4517,5,5,22.7995,2.40327,-24.8424,-0.0166197,-0.30145,0.0836553,0,0,2.66,0.245,-0.56,-0.014884,-0.675758,-0.851316,-0.03682,0.25872,0.35
-13.6352,0,0,18.6352,18.6352,5,5,23.1105,2.31689,-24.7526,-0.0151135,-0.296432,0.0815972,0,0,2.7125,-0.525,-0.7525,-0.014884,-0.675758,-0.851316,-0.03682,0.25872,0.35
-13.6352,0,0,18.6352,18.6352,5,5,23.1106,2.31691,-24.7536,0.233932,-0.112264,-0.0193438,1,0,3.64,-0.3325,-0.805,0.235216,-0.491782,-0.951478,-0.03682,0.25872,0.35
-13.6354,0,0,18.6354,18.6354,5,5,23.1109,2.31759,-24.7545,0.23392,-0.11226,-0.0193461,1,0,3.7625,0.0525,-0.8925,0.235216,-0.491782,-0.951478,-0.03682,0.25872,0.35
-13.7004,0,0,18.7004,18.7004,5,5,23.221,2.32983,-24.7692,0.0285173,-0.122954,-0.0123642,0,0,5.355,0.14,-0.9625,0.029158,-0.504226,-0.943792,-0.03682,0.25872,0.35
-13.7639,0,0,18.7639,18.7639,5,5,23.3286,2.3401,-24.7848,0.0283382,-0.121234,-0.0131119,0,0,5.04,-1.2425,-1.05,0.029158,-0.504226,-0.943792,-0.03682,0.25872,0.35
-13.7262,0,0,18.7262,18.7262,5,5,23.2647,2.10311,-24.7132,-0.19738,0.0606302,-0.115678,0,0,5.285,-0.9275,-0.875,-0.201666,-0.321592,-1.04615,-0.03682,0.25872,0.35
-13.6887,0,0,18.6887,18.6887,5,5,23.2011,1.87089,-24.6319,-0.193329,0.0596661,-0.115111,0,0,4.5675,0.3325,-0.5775,-0.201666,-0.321592,-1.04615,-0.04396,0.25802,0.35434
-13.6885,0,0,18.6885,18.6885,5,5,23.2008,1.87225,-24.6316,0.122874,-0.259822,-0.0528981,1,0,3.43,0.6825,-0.4375,0.1159,-0.640744,-0.984418,-0.04396,0.25802,0.35434
-13.6891,0,0,18.6891,18.6891,5,5,23.2019,1.87188,-24.6316,0.122881,-0.259805,-0.0529052,1,0,4.1825,-0.2975,-0.14,0.1159,-0.640744,-0.984418,-0.04396,0.25802,0.35434
-13.6894,0,0,18.6894,18.6894,5,5,23.2023,1.87063,-24.631,-0.102332,-0.280803,-0.141062,1,0,3.8325,-0.6475,0.3325,-0.110288,-0.661728,-1.07189,-0.04396,0.25802,0.35434
-13.6905,0,0,18.6905,18.6905,5,5,23.2042,1.87039,-24.6298,-0.102328,-0.280774,-0.141074,1,0,4.6025,0.035,0.4375,-0.110288,-0.661728,-1.07189,-0.04396,0.25802,0.35434
-13.7648,0,0,18.7648,18.7648,5,5,23.3302,1.59554,-24.4748,-0.169695,-0.031635,0.115153,0,0,4.9,0.1575,0.245,-0.182756,-0.414922,-0.816912,-0.04396,0.25802,0.35434
-13.8374,0,0,18.8374,18.8374,5,5,23.4532,1.32698,-24.3223,-0.165009,-0.0296173,0.114411,0,0,5.1975,-0.28,0.0875,-0.182756,-0.414922,-0.816912,-0.04396,0.25802,0.35434
-13.8376,0,0,18.8376,18.8376,5,5,23.4536,1.32707,-24.321,0.054878,-0.202665,0.383542,1,0,3.78,0.245,0.42,0.038064,-0.587796,-0.549854,-0.04396,0.25802,0.35434
-13.8377,0,0,18.8377,18.8377,5,5,23.4537,1.32697,-24.3199,0.0548797,-0.202663,0.383541,1,0,3.6575,0.0875,0.3325,0.038064,-0.587796,-0.549854,-0.04942,0.25634,0.3591
-13.7454,0,0,18.7454,18.7454,5,5,23.2973,1.73006,-24.5732,0.254494,0.119126,0.0497862,0,0,3.2375,-0.1575,0,0.245586,-0.263764,-0.881938,-0.04942,0.25634,0.3591
-13.6543,0,0,18.6543,18.6543,5,5,23.1429,2.12311,-24.826,0.247638,0.11656,0.0506362,0,0,2.4325,-0.245,-0.5425,0.245586,-0.263764,-0.881938,-0.04942,0.25634,0.3591
-13.5439,0,0,18.5439,18.5439,5,5,22.9557,2.17729,-24.9185,0.00979606,0.173018,-0.00430575,0,0,3.815,-0.2625,-0.525,0.007686,-0.20435,-0.937692,-0.04942,0.25634,0.3591
-13.4353,0,0,18.4353,18.4353,5,5,22.7718,2.22994,-25.0104,0.00887774,0.170048,-0.00309201,0,0,3.6575,-0.035,-0.5775,0.007686,-0.20435,-0.937692,-0.04942,0.25634,0.3591
-13.5793,0,0,18.5793,18.5793,5,5,23.0158,2.03549,-24.8609,-0.109581,-0.190651,0.082047,0,0,4.3225,0.21,-0.77,-0.11468,-0.568642,-0.851682,-0.04942,0.25634,0.3591
-13.7203,0,0,18.7203,18.7203,5,5,23.2547,1.84523,-24.7152,-0.106262,-0.186775,0.080513,0,0,4.4975,-0.735,-1.0325,-0.11468,-0.568642,-0.851682,-0.04942,0.25634,0.3591
-13.5612,0,0,18.5612,18.5612,5,5,22.9851,1.91157,-24.832,0.00714157,0.248175,-0.0141898,0,0,4.6375,-0.35,-0.63,0.000366,-0.129808,-0.947452,-0.04942,0.25634,0.3591
-13.4003,0,0,18.4003,18.4003,5,5,22.7123,1.97817,-24.9562,0.00597988,0.243774,-0.0123784,0,0,0.525,0.3325,-0.4025,0.000366,-0.129808,-0.947452,-0.04676,0.25942,0.35392
-13.4004,0,0,18.4004,18.4004,5,5,22.7126,1.97906,-24.9559,0.196818,-0.17707,-0.110125,1,0,3.745,0.4375,-0.2975,0.192028,-0.55022,-1.04444,-0.04676,0.25942,0.35392
-13.401,0,0,18.401,18.401,5,5,22.7135,1.97759,-24.9561,0.196844,-0.177055,-0.11013,1,0,4.095,-0.9275,0,0.192028,-0.55022,-1.04444,-0.04676,0.25942,0.35392
-13.4044,0,0,18.4044,18.4044,5,5,22.7193,1.96656,-24.9724,-0.00414395,-0.031263,-0.0652866,0,0,4.06,-0.9275,0.1225,-0.010004,-0.404674,-0.999912,-0.04676,0.25942,0.35392
-13.4127,0,0,18.4127,18.4127,5,5,22.7334,1.9564,-24.9877,-0.00396668,-0.0310342,-0.0653758,0,0,8.785,-0.42,0.455,-0.010004,-0.404674,-0.999912,-0.04676,0.25942,0.35392
-13.4138,0,0,18.4138,18.4138,5,5,22.7353,1.95709,-24.9857,-0.1104,-0.0369869,0.326447,1,0,4.655,0.7175,0.665,-0.116876,-0.410652,-0.611098,-0.04676,0.25942,0.35392
-13.4101,0,0,18.4101,18.4101,5,5,22.729,1.95796,-24.9844,-0.110415,-0.0370884,0.326489,1,0,0.035,0.665,0.2625,-0.116876,-0.410652,-0.611098,-0.04676,0.25942,0.35392
-13.4111,0,0,18.4111,18.4111,5,5,22.7307,1.95879,-24.9833,-0.08346,-0.151983,0.269921,1,0,4.4975,0.595,0.1575,-0.089792,-0.525454,-0.667218,-0.04676,0.25942,0.35392
-13.4116,0,0,18.4116,18.4116,5,5,22.7316,1.95903,-24.982,-0.0834642,-0.151969,0.269915,1,0,4.06,0.315,0.385,-0.089792,-0.525454,-0.667218,-0.04676,0.25942,0.35392
-13.2357,0,0,18.2357,18.2357,5,5,22.4333,1.90237,-25.0436,-0.0870923,0.280698,-0.113623,0,0,4.025,0.2275,-0.105,-0.094428,-0.08845,-1.04981,-0.04774,0.25284,0.3493
-13.2365,0,0,18.2365,18.2365,5,5,22.4348,1.90323,-25.0443,-0.0862568,-0.0944513,0.288163,1,0,4.445,0.1925,-0.84,-0.093574,-0.463234,-0.651114,-0.04774,0.25284,0.3493
-13.2373,0,0,18.2373,18.2373,5,5,22.436,1.90392,-25.0453,-0.0862689,-0.0944319,0.288154,1,0,4.2875,0.0525,-0.9275,-0.093574,-0.463234,-0.651114,-0.04774,0.25284,0.3493
-13.2724,0,0,18.2724,18.2724,5,5,22.4955,2.24061,-25.2181,0.25057,-0.0713272,0.0887537,0,0,3.6925,-0.1925,-0.9625,0.250588,-0.44103,-0.848388,-0.04774,0.25284,0.3493
-13.3074,0,0,18.3074,18.3074,5,5,22.555,2.56901,-25.389,0.244843,-0.0704615,0.0881343,0,0,3.7625,-0.525,-1.26,0.250588,-0.44103,-0.848388,-0.04774,0.25284,0.3493
-13.3249,0,0,18.3249,18.3249,5,5,22.5845,2.69244,-25.464,0.0869465,-0.0154335,0.0740752,0,0,3.1325,-0.56,-1.19,0.094184,-0.386496,-0.862052,-0.04774,0.25284,0.3493
-13.3429,0,0,18.3429,18.3429,5,5,22.6152,2.81354,-25.5368,0.0848353,-0.014979,0.073776,0,0,3.8325,0.0175,-0.6825,0.094184,-0.386496,-0.862052,-0.04774,0.25284,0.3493
-13.3432,0,0,18.3432,18.3432,5,5,22.6155,2.81398,-25.5369,-0.01965,-0.109255,-0.146059,1,0,3.7975,0.1225,-0.3675,-0.010736,-0.48068,-1.08019,-0.04634,0.25186,0.35084
-13.3436,0,0,18.3436,18.3436,5,5,22.6163,2.81356,-25.5368,0.247383,0.101793,0.169545,1,0,4.0425,-0.315,-0.1225,0.25742,-0.269864,-0.767014,-0.04634,0.25186,0.35084
-13.3445,0,0,18.3445,18.3445,5,5,22.6178,2.8121,-25.536,0.247408,0.101817,0.169536,1,0,4.3925,-0.7175,0.5075,0.25742,-0.269864,-0.767014,-0.04634,0.25186,0.35084
-13.4296,0,0,18.4296,18.4296,5,5,22.762,2.80775,-25.5112,0.0235859,-0.1588,-0.00454162,0,0,4.165,-0.7,0.735,0.032574,-0.53253,-0.93879,-0.04634,0.25186,0.35084
-13.5127,0,0,18.5127,18.5127,5,5,22.9029,2.80544,-25.4862,0.0236262,-0.156537,-0.00549253,0,0,3.78,0.1925,0.7525,0.032574,-0.53253,-0.93879,-0.04634,0.25186,0.35084
-13.5131,0,0,18.5131,18.5131,5,5,22.9036,2.80499,-25.4852,0.028372,-0.184615,-0.201108,1,0,3.9375,-0.1225,0.385,0.037332,-0.56059,-1.13289,-0.04634,0.25186,0.35084
-13.5134,0,0,18.5134,18.5134,5,5,22.9041,2.80461,-25.4846,0.0283786,-0.184607,-0.201111,1,0,3.85,-0.175,0.1575,0.037332,-0.56059,-1.13289,-0.04634,0.25186,0.35084
-13.3492,0,0,18.3492,18.3492,5,5,22.6257,2.77612,-25.5642,-0.0640612,0.251805,-0.128024,0,0,3.465,0.175,0.14,-0.055998,-0.12017,-1.06225,-0.04634,0.25186,0.35084
-13.1869,0,0,18.1869,18.1869,5,5,22.3507,2.75015,-25.6533,-0.0636086,0.247384,-0.12617,0,0,3.2375,0.5425,0.35,-0.055998,-0.12017,-1.06225,-0.04158,0.25634,0.3535
-13.1873,0,0,18.1873,18.1873,5,5,22.3513,2.75074,-25.6523,-0.175872,0.0887516,0.303531,1,0,3.92,0.4375,0.1575,-0.168726,-0.278648,-0.635864,-0.04158,0.25634,0.3535
-13.188,0,0,18.188,18.188,5,5,22.3525,2.75105,-25.6524,-0.175877,0.0887699,0.303523,1,0,4.235,0.0175,-0.42,-0.168726,-0.278648,-0.635864,-0.04158,0.25634,0.3535
-13.189,0,0,18.189,18.189,5,5,22.3542,2.75202,-25.6531,-0.0593891,-0.301276,-0.138243,1,0,4.55,0.28,-0.805,-0.051728,-0.668316,-1.07421,-0.04158,0.25634,0.3535
-13.1894,0,0,18.1894,18.1894,5,5,22.3548,2.75335,-25.6543,-0.0594124,-0.301265,-0.138249,1,0,4.0075,0.3325,-1.2425,-0.051728,-0.668316,-1.07421,-0.04158,0.25634,0.3535
-13.2635,0,0,18.2635,18.2635,5,5,22.4805,2.84768,-25.6982,0.0910433,-0.127195,0.0430515,0,0,3.5175,0.1575,-1.26,0.101016,-0.496418,-0.893406,-0.04158,0.25634,0.3535
-13.3356,0,0,18.3356,18.3356,5,5,22.6027,2.93942,-25.7415,0.0894442,-0.125258,0.04216,0,0,2.7475,-0.2975,-1.12,0.101016,-0.496418,-0.893406,-0.04158,0.25634,0.3535
-13.3347,0,0,18.3347,18.3347,5,5,22.6012,2.94018,-25.7426,-0.0776118,0.0300623,-0.139671,1,0,2.765,0.07,-0.98,-0.066734,-0.341234,-1.07384,-0.04158,0.25634,0.3535
-13.3346,0,0,18.3346,18.3346,5,5,22.6011,2.94016,-25.7428,-0.0776114,0.0300605,-0.13967,1,0,3.535,-0.175,-0.385,-0.066734,-0.341234,-1.07384,-0.04718,0.2639,0.3528
-13.2255,0,0,18.2255,18.2255,5,5,22.416,2.90764,-25.8131,-0.0535979,0.164362,-0.0824674,0,0,3.92,-0.6125,-0.1575,-0.043188,-0.204106,-1.01833,-0.04718,0.2639,0.3528
-13.119,0,0,18.119,18.119,5,5,22.2356,2.87417,-25.8821,-0.0530144,0.161465,-0.0812456,0,0,4.655,-1.015,0.4375,-0.043188,-0.204106,-1.01833,-0.04718,0.2639,0.3528
-13.1491,0,0,18.1491,18.1491,5,5,22.2866,2.78343,-25.857,-0.0590862,-0.0589776,-0.0478217,0,0,4.55,-0.5775,0.7875,-0.050874,-0.42517,-0.984906,-0.04718,0.2639,0.3528
-13.1775,0,0,18.1775,18.1775,5,5,22.3347,2.69636,-25.8317,-0.0575683,-0.0581741,-0.0480729,0,0,3.675,0.245,0.7525,-0.050874,-0.42517,-0.984906,-0.04718,0.2639,0.3528
-13.1773,0,0,18.1773,18.1773,5,5,22.3344,2.69596,-25.8308,-0.166291,-0.187511,-0.205199,1,0,3.395,-0.14,0.28,-0.160064,-0.554368,-1.14082,-0.04718,0.2639,0.3528
-13.1775,0,0,18.1775,18.1775,5,5,22.3347,2.69568,-25.8301,-0.166286,-0.187506,-0.205201,1,0,3.745,-0.0875,0.21,-0.160064,-0.554368,-1.14082,-0.04718,0.2639,0.3528
-13.1775,0,0,18.1775,18.1775,5,5,22.3347,2.69842,-25.8367,0.148071,0.112192,0.213929,1,0,3.7625,-0.0875,-4.41,0.155672,-0.25498,-0.724924,-0.04718,0.2639,0.3528
-13.1774,0,0,18.1774,18.1774,5,5,22.3346,2.69908,-25.836,0.14806,0.112191,0.213929,1,0,3.535,0.385,-0.07,0.155672,-0.25498,-0.724924,-0.04718,0.2639,0.3528
-13.2745,0,0,18.2745,18.2745,5,5,22.4992,2.84677,-25.8991,0.141719,-0.172691,0.0571893,0,0,4.0425,0.455,-0.1925,0.15189,-0.542168,-0.879254,-0.04172,0.25956,0.34888
-13.2817,0,0,18.2817,18.2817,5,5,22.5114,2.82242,-25.9161,-0.0144519,-0.0383908,-0.071108,0,0,3.8675,0.4375,-0.455,-0.005368,-0.408212,-1.0065,-0.04172,0.25956,0.34888
-13.2887,0,0,18.2887,18.2887,5,5,22.5232,2.79853,-25.9342,-0.0140354,-0.0381927,-0.0711679,0,0,3.85,0.0875,-1.0325,-0.005368,-0.408212,-1.0065,-0.04172,0.25956,0.34888
-13.3561,0,0,18.3561,18.3561,5,5,22.6374,2.61262,-25.8386,-0.128028,-0.111525,-0.0356443,0,0,3.7625,0.2275,-1.3475,-0.123098,-0.483364,-0.970632,-0.04172,0.25956,0.34888
-13.4219,0,0,18.4219,18.4219,5,5,22.749,2.43106,-25.7448,-0.124862,-0.109677,-0.0362661,0,0,3.885,-0.105,-1.5225,-0.123098,-0.483364,-0.970632,-0.04172,0.25956,0.34888
-13.4218,0,0,18.4218,18.4218,5,5,22.7488,2.43087,-25.7466,-0.0761431,0.16425,0.077463,1,0,3.5,-0.6125,-1.1725,-0.074176,-0.209718,-0.857782,-0.04172,0.25956,0.34888
-13.4214,0,0,18.4214,18.4214,5,5,22.7482,2.43101,-25.7476,-0.0761456,0.164241,0.0774666,1,0,3.3075,-0.2625,-0.84,-0.074176,-0.209718,-0.857782,-0.04172,0.25956,0.34888
-13.5409,0,0,18.5409,18.5409,5,5,22.9507,2.61918,-25.8157,0.16476,-0.171952,0.141002,0,0,3.15,0.105,-0.385,0.171044,-0.548756,-0.793244,-0.04172,0.25956,0.34888
-13.6587,0,0,18.6587,18.6587,5,5,23.1503,2.8041,-25.8758,0.161536,-0.16881,0.139499,0,0,3.6575,-0.49,-0.0875,0.171044,-0.548756,-0.793244,-0.04396,0.25732,0.3521
-13.6587,0,0,18.6587,18.6587,5,5,23.1504,2.80268,-25.8744,-0.232418,0.12796,0.185113,1,0,3.605,-0.5425,0.84,-0.224602,-0.252296,-0.747982,-0.04396,0.25732,0.3521
-13.6593,0,0,18.6593,18.6593,5,5,23.1514,2.80197,-25.8728,-0.232405,0.127977,0.185107,1,0,4.1125,-0.1225,0.77,-0.224602,-0.252296,-0.747982,-0.04396,0.25732,0.3521
-13.66,0,0,18.66,18.66,5,5,23.1525,2.80182,-25.8714,-0.0516317,-0.0974511,-0.13887,1,0,4.1825,0.14,0.5425,-0.043066,-0.477508,-1.06945,-0.04396,0.25732,0.3521
-13.6607,0,0,18.6607,18.6607,5,5,23.1537,2.80167,-25.8699,-0.0516291,-0.097433,-0.138878,1,0,4.1825,0.14,0.5425,-0.043066,-0.477508,-1.06945,-0.04396,0.25732,0.3521
-13.6609,0,0,18.6609,18.6609,5,5,23.1541,2.80044,-25.869,0.0205547,-0.216744,-0.297975,1,0,3.78,-0.5425,0.5425,0.029402,-0.596702,-1.22732,-0.04396,0.25732,0.3521
-13.6611,0,0,18.6611,18.6611,5,5,23.1544,2.79922,-25.868,0.020576,-0.216738,-0.297976,1,0,3.78,-0.5425,0.5425,0.029402,-0.596702,-1.22732,-0.04396,0.25732,0.3521
-13.5106,0,0,18.5106,18.5106,5,5,22.8993,2.91174,-26.0187,0.0415754,0.221108,-0.0444054,0,0,2.9925,0.28,-0.105,0.05246,-0.155184,-0.977342,-0.04396,0.25732,0.3521
-13.3629,0,0,18.3629,18.3629,5,5,22.649,3.02071,-26.1706,0.0396761,0.217047,-0.0428071,0,0,2.9925,0.28,-0.105,0.05246,-0.155184,-0.977342,-0.04242,0.25788,0.35504
-13.418,0,0,18.418,18.418,5,5,22.7424,2.7385,-26.0244,-0.202749,-0.0588276,-0.00374051,0,0,3.2375,0.175,-0.6475,-0.195932,-0.432368,-0.93818,-0.04242,0.25788,0.35504
-13.4342,0,0,18.4342,18.4342,5,5,22.7699,2.87594,-26.1118,0.0995408,-0.0208168,0.0601452,0,0,3.815,0.35,-0.735,0.110044,-0.394792,-0.874496,-0.04242,0.25788,0.35504
-13.4508,0,0,18.4508,18.4508,5,5,22.798,3.01025,-26.1994,0.0971996,-0.0204109,0.0598442,0,0,4.2875,0.1575,-1.3125,0.110044,-0.394792,-0.874496,-0.04242,0.25788,0.35504
-13.4115,0,0,18.4115,18.4115,5,5,22.7314,3.10904,-26.2973,0.0694799,0.0289217,-0.070117,0,0,4.3925,-0.1575,-1.3475,0.083936,-0.344406,-1.00382,-0.04242,0.25788,0.35504
-13.3722,0,0,18.3722,18.3722,5,5,22.6648,3.20493,-26.3941,0.0678089,0.0278155,-0.0697543,0,0,3.535,-0.2275,-1.0675,0.083936,-0.344406,-1.00382,-0.04242,0.25788,0.35504
-13.3719,0,0,18.3719,18.3719,5,5,22.6643,3.20551,-26.3952,-0.0977862,0.132347,0.173318,1,0,3.3075,-0.035,-0.9625,-0.08235,-0.239974,-0.762622,-0.04242,0.25788,0.35504
-13.3709,0,0,18.3709,18.3709,5,5,22.6626,3.20542,-26.3948,-0.0977847,0.132319,0.17333,1,0,2.625,-0.07,-0.035,-0.08235,-0.239974,-0.762622,-0.04242,0.25788,0.35504
-13.3707,0,0,18.3707,18.3707,5,5,22.6622,3.20466,-26.3945,-0.0551299,-0.380741,0.00931952,1,0,3.3775,-0.455,0.07,-0.039528,-0.752496,-0.92537,-0.04844,0.25494,0.357
-13.3711,0,0,18.3711,18.3711,5,5,22.6629,3.20315,-26.3936,-0.134312,-0.18325,-0.260925,1,0,3.955,-0.7175,0.5775,-0.119072,-0.555222,-1.19353,-0.04844,0.25494,0.357
-13.3715,0,0,18.3715,18.3715,5,5,22.6635,3.20312,-26.3923,-0.134312,-0.18324,-0.260929,1,0,3.9025,0.175,0.455,-0.119072,-0.555222,-1.19353,-0.04844,0.25494,0.357
-13.2215,0,0,18.2215,18.2215,5,5,22.4093,3.2482,-26.5066,-0.0103315,0.240218,0.0198211,0,0,3.71,-0.035,0.3325,0.006222,-0.1281,-0.916586,-0.04844,0.25494,0.357
-13.0741,0,0,18.0741,18.0741,5,5,22.1594,3.29077,-26.6214,-0.0110733,0.236173,0.0214331,0,0,3.57,-0.5425,0.035,0.006222,-0.1281,-0.916586,-0.04844,0.25494,0.357
-13.0741,0,0,18.0741,18.0741,5,5,22.1595,3.29013,-26.621,-0.298133,0.017322,0.195897,1,0,3.5875,-0.3675,0.105,-0.282064,-0.346724,-0.743468,-0.04844,0.25494,0.357
-13.0738,0,0,18.0738,18.0738,5,5,22.159,3.29053,-26.6207,-0.29814,0.017314,0.1959,1,0,3.3075,0.175,-0.1925,-0.282064,-0.346724,-0.743468,-0.04844,0.25494,0.357
-13.2028,0,0,18.2028,18.2028,5,5,22.3776,3.58216,-26.7221,0.264239,-0.23159,0.122004,0,0,4.34,0.315,-0.49,0.287798,-0.598776,-0.815082,-0.04844,0.25494,0.357
-13.3306,0,0,18.3306,18.3306,5,5,22.5942,3.86439,-26.8311,0.259324,-0.228228,0.120266,0,0,3.7275,0.2625,-0.9625,0.287798,-0.598776,-0.815082,-0.04144,0.25634,0.35378
-13.466,0,0,18.466,18.466,5,5,22.8238,3.76512,-26.7424,-0.0382883,-0.205565,0.0564934,0,0,3.9025,-0.105,-0.9975,-0.01281,-0.579866,-0.876936,-0.04144,0.25634,0.35378
-13.598,0,0,18.598,18.598,5,5,23.0474,3.66891,-26.6558,-0.0366127,-0.201936,0.0550762,0,0,3.2025,-0.2975,-1.225,-0.01281,-0.579866,-0.876936,-0.04144,0.25634,0.35378
-13.5979,0,0,18.5979,18.5979,5,5,23.0472,3.66903,-26.6578,0.195544,-0.0474487,-0.126887,1,0,3.57,-0.5075,-1.365,0.220332,-0.425536,-1.0575,-0.04144,0.25634,0.35378
-13.5977,0,0,18.5977,18.5977,5,5,23.0469,3.66911,-26.6604,0.195543,-0.0474534,-0.126885,1,0,3.5175,-0.6475,-1.645,0.220332,-0.425536,-1.0575,-0.04144,0.25634,0.35378
-13.597,0,0,18.597,18.597,5,5,23.0458,3.6281,-26.6687,-0.0289772,-0.0202199,-0.0649918,0,0,3.395,-0.2275,-1.2425,-0.005856,-0.39833,-0.99613,-0.04144,0.25634,0.35378
-13.5962,0,0,18.5962,18.5962,5,5,23.0443,3.58764,-26.6759,-0.0282723,-0.0202254,-0.0649411,0,0,3.2725,-0.2275,-0.6125,-0.005856,-0.39833,-0.99613,-0.04144,0.25634,0.35378
-13.7078,0,0,18.7078,18.7078,5,5,23.2336,3.50519,-26.603,-0.032546,-0.144658,0.0858092,0,0,2.9925,-0.2975,-0.2625,-0.01159,-0.525698,-0.845338,-0.04144,0.25634,0.35378
-13.8182,0,0,18.8182,18.8182,5,5,23.4206,3.42502,-26.5256,-0.0311493,-0.141633,0.0845967,0,0,3.9025,-0.3325,0.4375,-0.01159,-0.525698,-0.845338,-0.04606,0.25606,0.35462
-13.8186,0,0,18.8186,18.8186,5,5,23.4214,3.42427,-26.524,-0.19004,-0.417384,-0.221549,1,0,3.9375,-0.14,0.77,-0.171166,-0.801174,-1.14912,-0.04606,0.25606,0.35462
-13.8189,0,0,18.8189,18.8189,5,5,23.4218,3.42392,-26.5222,-0.190033,-0.417376,-0.221552,1,0,3.7975,0.1225,0.7875,-0.171166,-0.801174,-1.14912,-0.04606,0.25606,0.35462
-13.8192,0,0,18.8192,18.8192,5,5,23.4223,3.42309,-26.5204,-0.113118,0.173726,0.312656,1,0,3.815,-0.14,0.8925,-0.09394,-0.210694,-0.619028,-0.04606,0.25606,0.35462
-13.8193,0,0,18.8193,18.8193,5,5,23.4225,3.42154,-26.5192,-0.113091,0.17373,0.312656,1,0,3.6575,-0.665,0.735,-0.09394,-0.210694,-0.619028,-0.04606,0.25606,0.35462
-13.8194,0,0,18.8194,18.8194,5,5,23.4227,3.42049,-26.518,-0.390061,-0.0994653,0.32114,1,0,3.6225,-0.385,0.6475,-0.3721,-0.483608,-0.61061,-0.04606,0.25606,0.35462
-13.8194,0,0,18.8194,18.8194,5,5,23.4227,3.42103,-26.5167,-0.39007,-0.0994644,0.321139,1,0,3.5875,0.4725,0.28,-0.3721,-0.483608,-0.61061,-0.04606,0.25606,0.35462
-13.82,0,0,18.82,18.82,5,5,23.4238,3.422,-26.5163,0.325342,-0.134621,0.0199072,1,0,4.1475,0.525,-0.2275,0.346358,-0.518744,-0.90951,-0.04606,0.25606,0.35462
-13.8201,0,0,18.8201,18.8201,5,5,23.424,3.42364,-26.516,0.325314,-0.134618,0.0199041,1,0,3.71,0.8225,-0.525,0.346358,-0.518744,-0.90951,-0.05026,0.25004,0.3528
-13.814,0,0,18.814,18.814,5,5,23.4136,3.48755,-26.5556,0.033971,0.0406861,0.0919618,0,0,3.5875,0.805,-0.77,0.0549,-0.34343,-0.838018,-0.05026,0.25004,0.3528
-13.8082,0,0,18.8082,18.8082,5,5,23.4037,3.54989,-26.5948,0.032885,0.0405007,0.0919692,0,0,3.5875,0.805,-0.77,0.0549,-0.34343,-0.838018,-0.05026,0.25004,0.3528
-13.9229,0,0,18.9229,18.9229,5,5,23.5981,3.2842,-26.4172,-0.170469,-0.15938,0.0226358,0,0,4.585,-4.3575,-0.9275,-0.153964,-0.546316,-0.905728,-0.05026,0.25004,0.3528
-13.9721,0,0,18.9721,18.9721,5,5,23.6814,3.52049,-26.5133,0.192422,-0.105633,0.0514599,0,0,3.5175,-0.2975,-0.8925,0.214598,-0.493856,-0.876326,-0.05026,0.25004,0.3528
-14.0209,0,0,19.0209,19.0209,5,5,23.7643,3.75144,-26.607,0.188399,-0.104416,0.0506455,0,0,3.57,-0.07,-0.4725,0.214598,-0.493856,-0.876326,-0.05026,0.25004,0.3528
-14.0201,0,0,19.0201,19.0201,5,5,23.7628,3.75181,-26.607,0.283881,-0.0714641,-0.269626,1,0,2.8,0.0875,-0.35,0.31049,-0.460916,-1.19414,-0.05026,0.25004,0.3528
-14.0188,0,0,19.0188,19.0188,5,5,23.7607,3.7513,-26.6068,0.283889,-0.0714975,-0.26961,1,0,2.3975,-0.315,0,0.31049,-0.460916,-1.19414,-0.05026,0.25004,0.3528
-13.9956,0,0,18.9956,18.9956,5,5,23.7213,3.70842,-26.6195,-0.0368148,0.0251061,-0.0556048,0,0,3.675,-0.0525,0.3675,-0.012322,-0.363804,-0.9821,-0.04704,0.25816,0.34776
-13.9726,0,0,18.9726,18.9726,5,5,23.6824,3.66571,-26.6319,-0.036071,0.0245045,-0.0552883,0,0,3.6225,-0.35,0.6825,-0.012322,-0.363804,-0.9821,-0.04704,0.25816,0.34776
-13.9734,0,0,18.9734,18.9734,5,5,23.6837,3.66563,-26.6307,-0.1776,-0.29679,0.0150291,1,0,4.2875,0.1225,0.385,-0.154452,-0.684786,-0.912316,-0.04704,0.25816,0.34776
-13.9735,0,0,18.9735,18.9735,5,5,23.6839,3.66518,-26.63,0.109721,-0.0157729,-0.173083,1,0,3.675,-0.1925,0.21,0.134078,-0.404064,-1.09898,-0.04704,0.25816,0.34776
-13.973,0,0,18.973,18.973,5,5,23.683,3.66481,-26.6296,0.109728,-0.0157868,-0.173077,1,0,3.08,-0.1925,0.0875,0.134078,-0.404064,-1.09898,-0.04704,0.25816,0.34776
-13.7288,0,0,18.7288,18.7288,5,5,23.2691,3.54663,-26.7135,-0.156454,0.410592,-0.0477521,0,0,3.0625,-0.07,-0.1575,-0.135298,0.028426,-0.977586,-0.04704,0.25816,0.34776
-13.4882,0,0,18.4882,18.4882,5,5,22.8613,3.43055,-26.7969,-0.154432,0.404104,-0.0448552,0,0,2.765,0.35,-0.7,-0.135298,0.028426,-0.977586,-0.04704,0.25816,0.34776
-13.488,0,0,18.488,18.488,5,5,22.8611,3.43136,-26.7978,-0.0408571,-0.10578,-0.13891,1,0,3.4825,0.1225,-0.9275,-0.021228,-0.480924,-1.07092,-0.04704,0.25816,0.34776
-13.4881,0,0,18.4881,18.4881,5,5,22.8612,3.43302,-26.7997,-0.040886,-0.105778,-0.138913,1,0,3.745,0.3675,-1.6275,-0.021228,-0.480924,-1.07092,-0.0406,0.25662,0.3514
-13.4882,0,0,18.4882,18.4882,5,5,22.8614,3.43415,-26.802,-0.0118707,-0.267349,-0.0979732,1,0,3.78,-0.035,-1.785,0.00793,-0.64233,-1.03029,-0.0406,0.25662,0.3514
-13.4885,0,0,18.4885,18.4885,5,5,22.8618,3.4351,-26.805,-0.0118872,-0.267343,-0.0979765,1,0,3.885,-0.2625,-2.0475,0.00793,-0.64233,-1.03029,-0.0406,0.25662,0.3514
-13.4884,0,0,18.4884,18.4884,5,5,22.8617,3.43537,-26.8081,0.146647,0.13372,-0.317316,1,0,3.6575,-0.6825,-2.0125,0.16714,-0.241682,-1.24794,-0.0406,0.25662,0.3514
-13.4879,0,0,18.4879,18.4879,5,5,22.8609,3.43564,-26.8098,0.146642,0.133706,-0.317311,1,0,3.185,-0.3325,-1.2075,0.16714,-0.241682,-1.24794,-0.0406,0.25662,0.3514
-13.4772,0,0,18.4772,18.4772,5,5,22.8427,3.58765,-26.9198,0.109978,0.00292018,0.0210163,0,0,2.7825,-0.1925,-0.8575,0.13298,-0.371978,-0.912194,-0.0406,0.25662,0.3514
-13.467,0,0,18.467,18.467,5,5,22.8255,3.73578,-27.0276,0.107398,0.00257873,0.0209809,0,0,2.8,-0.0525,-0.2275,0.13298,-0.371978,-0.912194,-0.0406,0.25662,0.3514
-13.4839,0,0,18.4839,18.4839,5,5,22.8541,3.94087,-27.151,0.164327,-0.0529887,0.0238862,0,0,3.22,-0.21,0.1575,0.193736,-0.427854,-0.9089,-0.0406,0.25662,0.3514
-13.5014,0,0,18.5014,18.5014,5,5,22.8838,4.1418,-27.2656,0.160828,-0.0526086,0.0234576,0,0,3.9725,-0.14,0.84,0.193736,-0.427854,-0.9089,-0.04396,0.2548,0.35196
-13.5535,0,0,18.5535,18.5535,5,5,22.972,4.29078,-27.3365,0.144021,-0.129918,-0.0153079,0,0,3.9375,-0.3675,0.9975,0.179462,-0.506422,-0.946598,-0.04396,0.2548,0.35196
-13.6048,0,0,18.6048,18.6048,5,5,23.059,4.43734,-27.4058,0.141471,-0.128601,-0.0160788,0,0,3.815,0.175,1.12,0.179462,-0.506422,-0.946598,-0.04396,0.2548,0.35196
-13.6048,0,0,18.6048,18.6048,5,5,23.059,4.43607,-27.4042,-0.0604163,0.0558112,-0.379759,1,0,3.535,-0.4375,0.8575,-0.023302,-0.322202,-1.30747,-0.04396,0.2548,0.35196
-13.6048,0,0,18.6048,18.6048,5,5,23.0591,4.43534,-27.4023,-0.0604036,0.0558125,-0.379759,1,0,3.535,-0.0525,0.9625,-0.023302,-0.322202,-1.30747,-0.04396,0.2548,0.35196
-13.6051,0,0,18.6051,18.6051,5,5,23.0595,4.43526,-27.4007,0.0409168,-0.0184342,-0.402384,1,0,3.745,0.21,0.595,0.078446,-0.396378,-1.32992,-0.04396,0.2548,0.35196
-13.6049,0,0,18.6049,18.6049,5,5,23.0591,4.43556,-27.3999,0.0409116,-0.0184404,-0.402381,1,0,3.3425,0.245,0.1225,0.078446,-0.396378,-1.32992,-0.04396,0.2548,0.35196
-13.6519,0,0,18.6519,18.6519,5,5,23.1389,4.12462,-27.2434,-0.234673,-0.0560845,-0.046372,0,0,3.535,0.42,-0.105,-0.20374,-0.435418,-0.976488,-0.04396,0.2548,0.35196
-13.6969,0,0,18.6969,18.6969,5,5,23.215,3.82195,-27.0932,-0.229403,-0.0547215,-0.0465574,0,0,3.255,0.4725,-0.595,-0.20374,-0.435418,-0.976488,-0.04172,0.25634,0.35322
-13.8623,0,0,18.8623,18.8623,5,5,23.4955,3.60805,-26.923,-0.123387,-0.252139,0.0580787,0,0,3.4825,0.245,-0.9625,-0.101016,-0.637206,-0.870958,-0.04172,0.25634,0.35322
-14.025,0,0,19.025,19.025,5,5,23.7711,3.39999,-26.7568,-0.119762,-0.247651,0.0563572,0,0,4.2875,0.07,-1.26,-0.101016,-0.637206,-0.870958,-0.04172,0.25634,0.35322
-14.0053,0,0,19.0053,19.0053,5,5,23.7378,3.50764,-26.8406,0.0861028,-0.0132559,-0.0782642,0,0,4.5325,-0.21,-1.19,0.107604,-0.402478,-1.00467,-0.04172,0.25634,0.35322
-13.9864,0,0,18.9864,18.9864,5,5,23.7058,3.61207,-26.9227,0.0842838,-0.0138112,-0.0781438,0,0,4.725,-0.2975,-0.595,0.107604,-0.402478,-1.00467,-0.04172,0.25634,0.35322
-13.8666,0,0,18.8666,18.8666,5,5,23.5027,3.48113,-26.938,-0.128586,0.213579,-0.015861,0,0,3.85,-0.1575,-0.3325,-0.108458,-0.172142,-0.944402,-0.04172,0.25634,0.35322
-13.7484,0,0,18.7484,18.7484,5,5,23.3024,3.35267,-26.9516,-0.126348,0.210429,-0.0143521,0,0,3.5175,0.2275,0.1225,-0.108458,-0.172142,-0.944402,-0.04172,0.25634,0.35322
-13.7483,0,0,18.7483,18.7483,5,5,23.3023,3.35248,-26.9505,0.272614,-0.107469,-0.0924233,1,0,3.4825,0.0525,0.385,0.29219,-0.489708,-1.02187,-0.04172,0.25634,0.35322
-13.7482,0,0,18.7482,18.7482,5,5,23.3021,3.35191,-26.9487,0.272624,-0.107472,-0.0924215,1,0,3.43,0,0.84,0.29219,-0.489708,-1.02187,-0.04172,0.25634,0.35322
-13.7484,0,0,18.7484,18.7484,5,5,23.3024,3.35131,-26.9474,-0.00593229,-0.201994,-0.0307026,1,0,3.6925,-0.1225,0.595,0.012444,-0.584136,-0.960628,-0.04466,0.25704,0.35434
-13.6365,0,0,18.6365,18.6365,5,5,23.1127,3.49349,-27.0919,0.0680051,0.171183,0.0171841,0,0,4.0075,-0.0525,0.7875,0.089182,-0.208254,-0.914268,-0.04466,0.25704,0.35434
-13.5265,0,0,18.5265,18.5265,5,5,22.9263,3.63165,-27.2363,0.0655985,0.168136,0.0183157,0,0,3.815,-0.175,0.56,0.089182,-0.208254,-0.914268,-0.04466,0.25704,0.35434
-13.5271,0,0,18.5271,18.5271,5,5,22.9273,3.63132,-27.2356,-0.0432471,0.0971969,0.338467,1,0,4.13,-0.1225,0.1925,-0.02013,-0.279136,-0.59658,-0.04466,0.25704,0.35434
-13.5271,0,0,18.5271,18.5271,5,5,22.9273,3.63172,-27.2355,-0.0432539,0.0971963,0.338467,1,0,3.57,0.14,-0.2625,-0.02013,-0.279136,-0.59658,-0.04466,0.25704,0.35434
-13.4975,0,0,18.4975,18.4975,5,5,22.8771,3.43345,-27.1708,-0.163715,0.0571493,-0.068202,0,0,3.255,0.2975,-0.7,-0.14457,-0.31842,-1.00064,-0.04466,0.25704,0.35434
-13.4684,0,0,18.4684,18.4684,5,5,22.8279,3.23941,-27.1072,-0.160335,0.0564357,-0.0676873,0,0,3.675,0.0875,-1.155,-0.14457,-0.31842,-1.00064,-0.04466,0.25704,0.35434
-13.4681,0,0,18.4681,18.4681,5,5,22.8273,3.24067,-27.1088,0.359238,0.100881,-0.163954,1,0,3.3425,0.21,-1.4,0.377224,-0.274012,-1.09617,-0.04466,0.25704,0.35434
-13.4686,0,0,18.4686,18.4686,5,5,22.8281,3.24096,-27.1113,0.359233,0.100893,-0.163959,1,0,4.095,-0.525,-1.68,0.377224,-0.274012,-1.09617,-0.03906,0.259,0.35014
-13.4801,0,0,18.4801,18.4801,5,5,22.8476,3.11125,-27.0678,-0.0972369,-0.00401777,-0.0122571,0,0,4.41,0,-1.715,-0.083448,-0.379176,-0.945622,-0.03906,0.259,0.35014
-13.4908,0,0,18.4908,18.4908,5,5,22.8658,2.984,-27.0246,-0.0950191,-0.00368039,-0.0122712,0,0,4.0775,-0.2975,-1.5575,-0.083448,-0.379176,-0.945622,-0.03906,0.259,0.35014
-13.4912,0,0,18.4912,18.4912,5,5,22.8664,2.984,-27.0264,-0.150174,-0.0663224,0.157763,1,0,3.955,-0.5075,-1.2075,-0.138836,-0.441762,-0.776896,-0.03906,0.259,0.35014
-13.4904,0,0,18.4904,18.4904,5,5,22.8651,2.98419,-27.0265,-0.150177,-0.0663428,0.157771,1,0,2.8875,-0.035,-0.3675,-0.138836,-0.441762,-0.776896,-0.03906,0.259,0.35014
-13.5877,0,0,18.5877,18.5877,5,5,23.0301,3.03653,-27.0267,0.0636975,-0.139921,0.089722,0,0,3.22,0.2975,0.1225,0.07686,-0.51789,-0.843264,-0.03906,0.259,0.35014
-13.6832,0,0,18.6832,18.6832,5,5,23.1919,3.088,-27.0257,0.0628004,-0.137345,0.0885707,0,0,3.0275,0.4025,0.7875,0.07686,-0.51789,-0.843264,-0.03906,0.259,0.35014
-13.683,0,0,18.683,18.683,5,5,23.1915,3.08715,-27.0238,0.118699,-0.0423371,-0.216584,1,0,3.3075,-0.14,0.9275,0.13298,-0.422974,-1.14607,-0.03906,0.259,0.35014
-13.683,0,0,18.683,18.683,5,5,23.1915,3.0855,-27.0222,0.118727,-0.0423356,-0.216583,1,0,3.57,-0.6125,1.015,0.13298,-0.422974,-1.14607,-0.04284,0.25704,0.3486
-13.683,0,0,18.683,18.683,5,5,23.1915,3.08428,-27.0201,-0.225906,0.242097,0.120174,1,0,3.5,-0.2975,1.12,-0.213134,-0.138836,-0.81191,-0.04284,0.25704,0.3486
-13.683,0,0,18.683,18.683,5,5,23.1915,3.08312,-27.0189,-0.225886,0.242097,0.120176,1,0,3.535,-0.4375,0.6825,-0.213134,-0.138836,-0.81191,-0.04284,0.25704,0.3486
-13.8256,0,0,18.8256,18.8256,5,5,23.4333,2.7718,-26.8059,-0.194219,-0.145461,0.122205,0,0,3.71,-0.3675,0.49,-0.186782,-0.529968,-0.808494,-0.04284,0.25704,0.3486
-13.965,0,0,18.965,18.965,5,5,23.6694,2.46896,-26.5967,-0.188939,-0.14159,0.120781,0,0,3.885,-0.035,0.1925,-0.186782,-0.529968,-0.808494,-0.04284,0.25704,0.3486
-13.9131,0,0,18.9131,18.9131,5,5,23.5815,2.57052,-26.6823,0.0627097,0.0662999,-0.023386,0,0,3.6225,0.21,-0.14,0.06771,-0.32086,-0.952088,-0.04284,0.25704,0.3486
-13.8623,0,0,18.8623,18.8623,5,5,23.4954,2.66931,-26.7685,0.0609873,0.0648918,-0.0228586,0,0,3.605,-0.1225,-0.805,0.06771,-0.32086,-0.952088,-0.04284,0.25704,0.3486
-13.7818,0,0,18.7818,18.7818,5,5,23.359,2.56196,-26.7661,-0.0976236,0.161666,0.0396396,0,0,3.255,0.1925,-0.9975,-0.093452,-0.22204,-0.891088,-0.04284,0.25704,0.3486
-13.7034,0,0,18.7034,18.7034,5,5,23.2261,2.45569,-26.7619,-0.0957706,0.159571,0.0406301,0,0,3.92,-0.245,-1.435,-0.093452,-0.22204,-0.891088,-0.04662,0.25942,0.35756
-13.7212,0,0,18.7212,18.7212,5,5,23.2563,2.6269,-26.8492,0.121984,-0.0173269,0.0873904,0,0,3.71,-0.2625,-1.365,0.128222,-0.399184,-0.844362,-0.04662,0.25942,0.35756
-13.7395,0,0,18.7395,18.7395,5,5,23.2874,2.79367,-26.9353,0.119076,-0.0168831,0.0870498,0,0,4.2525,-0.4725,-1.155,0.128222,-0.399184,-0.844362,-0.04662,0.25942,0.35756
-13.7404,0,0,18.7404,18.7404,5,5,23.2888,2.79334,-26.9368,0.184806,-0.226064,-0.0976282,1,0,4.41,-0.63,-0.98,0.194224,-0.60817,-1.02761,-0.04662,0.25942,0.35756
-13.7404,0,0,18.7404,18.7404,5,5,23.2888,2.7936,-26.9364,0.184801,-0.226064,-0.0976285,1,0,3.5875,0.1225,-0.105,0.194224,-0.60817,-1.02761,-0.04662,0.25942,0.35756
-13.7409,0,0,18.7409,18.7409,5,5,23.2897,2.79361,-26.9353,-0.0726272,-0.0683828,-0.108455,1,0,4.095,0.1575,0.3325,-0.064294,-0.450668,-1.03834,-0.04662,0.25942,0.35756
-13.7407,0,0,18.7407,18.7407,5,5,23.2893,2.7933,-26.9334,-0.0726217,-0.0683888,-0.108452,1,0,3.325,0.1575,0.8225,-0.064294,-0.450668,-1.03834,-0.04662,0.25942,0.35756
-13.741,0,0,18.741,18.741,5,5,23.2898,2.79228,-26.9318,0.0147442,-0.211026,-0.235214,1,0,3.78,-0.28,0.84,0.023424,-0.593164,-1.16412,-0.04662,0.25942,0.35756
-13.7414,0,0,18.7414,18.7414,5,5,23.2905,2.79136,-26.9302,0.0147602,-0.211013,-0.235218,1,0,3.9725,-0.2275,0.8225,0.023424,-0.593164,-1.16412,-0.0476,0.26348,0.36232
-13.7141,0,0,18.7141,18.7141,5,5,23.2443,2.80975,-26.9657,0.00666452,0.0404313,-0.0116396,0,0,3.6925,0.1575,0.9275,0.015616,-0.341234,-0.942572,-0.0476,0.26348,0.36232
-13.6875,0,0,18.6875,18.6875,5,5,23.1992,2.82787,-27.0014,0.00634866,0.0397026,-0.0113439,0,0,3.85,0.1925,0.525,0.015616,-0.341234,-0.942572,-0.0476,0.26348,0.36232
-13.8523,0,0,18.8523,18.8523,5,5,23.4785,2.50319,-26.7757,-0.19318,-0.141477,0.185654,0,0,3.64,0.525,-4.34,-0.190442,-0.526796,-0.74542,-0.0476,0.26348,0.36232
-14.0137,0,0,19.0137,19.0137,5,5,23.752,2.18368,-26.5483,-0.187608,-0.137015,0.183952,0,0,3.9725,0.2975,-0.5075,-0.190442,-0.526796,-0.74542,-0.0476,0.26348,0.36232
-14.0134,0,0,19.0134,19.0134,5,5,23.7515,2.22731,-26.5775,0.0367439,-0.0315174,-0.0564356,0,0,3.6225,0.14,-0.7,0.035624,-0.421388,-0.98393,-0.0476,0.26348,0.36232
-14.0131,0,0,19.0131,19.0131,5,5,23.7511,2.27018,-26.607,0.0359963,-0.0315358,-0.0564596,0,0,3.5875,0.14,-1.1025,0.035624,-0.421388,-0.98393,-0.0476,0.26348,0.36232
-14.013,0,0,19.013,19.013,5,5,23.7508,2.27177,-26.6083,0.110804,-0.00137532,-0.29461,1,0,3.465,0.455,-1.295,0.110776,-0.391254,-1.22024,-0.0476,0.26348,0.36232
-14.0134,0,0,19.0134,19.0134,5,5,23.7515,2.27325,-26.6102,0.110778,-0.00136459,-0.294616,1,0,4.025,0.2275,-1.645,0.110776,-0.391254,-1.22024,-0.04116,0.2527,0.35504
-14.0134,0,0,19.0134,19.0134,5,5,23.7516,2.2744,-26.6124,-0.324647,0.14128,0.160047,1,0,3.675,0,-1.68,-0.326472,-0.248758,-0.769088,-0.04116,0.2527,0.35504
-14.0135,0,0,19.0135,19.0135,5,5,23.7516,2.2747,-26.6139,-0.324652,0.141281,0.160046,1,0,3.6575,-0.2975,-1.12,-0.326472,-0.248758,-0.769088,-0.04116,0.2527,0.35504
-14.1064,0,0,19.1064,19.1064,5,5,23.9091,2.02867,-26.4439,-0.158178,-0.0809761,0.095888,0,0,3.43,-0.07,-0.7875,-0.163602,-0.47336,-0.831796,-0.04116,0.2527,0.35504
-14.1968,0,0,19.1968,19.1968,5,5,24.0624,1.78834,-26.2751,-0.153985,-0.0784766,0.0949288,0,0,3.2375,0,-0.105,-0.163602,-0.47336,-0.831796,-0.04116,0.2527,0.35504
-14.197,0,0,19.197,19.197,5,5,24.0628,1.788,-26.2744,0.232588,0.0739438,-0.129947,1,0,3.7975,-0.14,0.1575,0.224602,-0.321104,-1.05493,-0.04116,0.2527,0.35504
-14.1968,0,0,19.1968,19.1968,5,5,24.0624,1.78824,-26.2724,0.232584,0.0739382,-0.129944,1,0,3.36,0.5075,0.77,0.224602,-0.321104,-1.05493,-0.04116,0.2527,0.35504
-14.1971,0,0,19.1971,19.1971,5,5,24.0629,1.78827,-26.2706,0.238415,0.171524,-0.131915,1,0,3.7975,0.35,0.7175,0.230458,-0.223626,-1.05689,-0.04116,0.2527,0.35504
-14.1974,0,0,19.1974,19.1974,5,5,24.0634,1.78758,-26.269,0.238427,0.171533,-0.131918,1,0,3.8675,-0.105,0.735,0.230458,-0.223626,-1.05689,-0.04116,0.2527,0.35504
-14.1973,0,0,19.1973,19.1973,5,5,24.0633,1.78736,-26.2669,-0.0419585,0.123413,0.194389,1,0,3.465,0.28,0.9275,-0.051118,-0.271694,-0.733098,-0.04242,0.25284,0.34888
-14.1972,0,0,19.1972,19.1972,5,5,24.0631,1.78703,-26.2653,0.375108,0.259337,-0.172611,1,0,3.465,0.0875,0.6475,0.367708,-0.135908,-1.09727,-0.04242,0.25284,0.34888
-14.1968,0,0,19.1968,19.1968,5,5,24.0624,1.78759,-26.2646,0.375098,0.259326,-0.172607,1,0,3.185,0.3675,0,0.367708,-0.135908,-1.09727,-0.04242,0.25284,0.34888
-14.2528,0,0,19.2528,19.2528,5,5,24.1573,1.55506,-26.1155,-0.160728,-0.0462628,0.0406322,0,0,3.3775,0.42,-0.28,-0.17446,-0.442738,-0.88511,-0.04242,0.25284,0.34888
-14.3069,0,0,19.3069,19.3069,5,5,24.2491,1.32815,-25.9692,-0.156769,-0.0447621,0.040067,0,0,3.0975,0.14,-0.945,-0.17446,-0.442738,-0.88511,-0.04242,0.25284,0.34888
-14.3069,0,0,19.3069,19.3069,5,5,24.249,1.32905,-25.9705,-0.0956774,-0.232105,-0.0404644,1,0,3.5875,0.07,-1.155,-0.113094,-0.629886,-0.96502,-0.04242,0.25284,0.34888
-14.307,0,0,19.307,19.307,5,5,24.2492,1.33008,-25.9726,-0.0956952,-0.232103,-0.0404659,1,0,3.71,-0.07,-1.6275,-0.113094,-0.629886,-0.96502,-0.04242,0.25284,0.34888
-14.2373,0,0,19.2373,19.2373,5,5,24.1311,1.47059,-26.069,0.0951369,0.0713094,-0.0909456,0,0,4.13,-0.14,-1.8725,0.081008,-0.324886,-1.01589,-0.04242,0.25284,0.34888
-14.1689,0,0,19.1689,19.1689,5,5,24.0151,1.60728,-26.1677,0.092752,0.0694357,-0.0901787,0,0,4.025,-0.1925,-1.2775,0.081008,-0.324886,-1.01589,-0.04284,0.25634,0.35266
-14.1687,0,0,19.1687,19.1687,5,5,24.0148,1.60739,-26.1689,-0.185331,0.097765,0.122155,1,0,3.465,-0.3325,-0.91,-0.19825,-0.296582,-0.8052,-0.04284,0.25634,0.35266
-14.1679,0,0,19.1679,19.1679,5,5,24.0134,1.60762,-26.1689,-0.185335,0.0977425,0.122165,1,0,2.8,0.0175,-0.315,-0.19825,-0.296582,-0.8052,-0.04284,0.25634,0.35266
-14.1394,0,0,19.1394,19.1394,5,5,23.9651,1.66922,-26.2108,0.038825,0.0394377,-0.000468619,0,0,2.7825,-0.1925,-0.0875,0.027938,-0.354044,-0.9272,-0.04284,0.25634,0.35266
-14.1125,0,0,19.1125,19.1125,5,5,23.9196,1.72887,-26.2511,0.0377844,0.0386999,-0.000174767,0,0,3.7625,-0.07,0.6825,0.027938,-0.354044,-0.9272,-0.04284,0.25634,0.35266
-14.176,0,0,19.176,19.176,5,5,24.027,1.50288,-26.1056,-0.144389,-0.0240246,0.107237,0,0,4.2525,-0.035,0.805,-0.158966,-0.41846,-0.819962,-0.04284,0.25634,0.35266
-14.2379,0,0,19.2379,19.2379,5,5,24.132,1.28229,-25.9616,-0.14054,-0.0223143,0.106575,0,0,4.4625,-0.0175,0.945,-0.158966,-0.41846,-0.819962,-0.04284,0.25634,0.35266
-14.239,0,0,19.239,19.239,5,5,24.1339,1.28173,-25.9601,-0.0297353,-0.0920193,-0.112532,1,0,4.6025,-0.035,0.7,-0.047702,-0.488122,-1.03737,-0.04284,0.25634,0.35266
-14.2394,0,0,19.2394,19.2394,5,5,24.1345,1.28107,-25.9588,-0.0297238,-0.0920088,-0.112537,1,0,3.9375,-0.14,0.6125,-0.047702,-0.488122,-1.03737,-0.0476,0.26306,0.35238
-14.2394,0,0,19.2394,19.2394,5,5,24.1346,1.28067,-25.9581,0.0951705,0.0282872,-0.163807,1,0,3.6225,-0.1575,0.21,0.077714,-0.367952,-1.08824,-0.0476,0.26306,0.35238
-14.2388,0,0,19.2388,19.2388,5,5,24.1335,1.28122,-25.9578,0.0951608,0.0282703,-0.163799,1,0,2.9925,0.2625,-0.2275,0.077714,-0.367952,-1.08824,-0.0476,0.26306,0.35238
-14.1827,0,0,19.1827,19.1827,5,5,24.0385,1.34747,-26.0159,0.0337481,0.0852447,-0.00220726,0,0,2.4675,0.245,-0.5075,0.017202,-0.309514,-0.928542,-0.0476,0.26306,0.35238
-14.1287,0,0,19.1287,19.1287,5,5,23.947,1.41125,-26.0749,0.0326351,0.0837747,-0.00158229,0,0,3.36,-0.35,-0.9975,0.017202,-0.309514,-0.928542,-0.0476,0.26306,0.35238
-14.2038,0,0,19.2038,19.2038,5,5,24.0743,1.38806,-26.0331,0.00254688,-0.146111,-0.0094853,0,0,3.6925,-0.1575,-1.2075,-0.01342,-0.541192,-0.935496,-0.0476,0.26306,0.35238
-14.2785,0,0,19.2785,19.2785,5,5,24.2008,1.36657,-25.9925,0.00292186,-0.144093,-0.0103796,0,0,4.585,0.07,-1.6975,-0.01342,-0.541192,-0.935496,-0.0476,0.26306,0.35238
-14.2796,0,0,19.2796,19.2796,5,5,24.2026,1.36748,-25.9946,0.207245,-0.210134,-0.121416,1,0,4.655,-0.1225,-1.5925,0.191784,-0.607194,-1.04566,-0.0476,0.26306,0.35238
-14.2797,0,0,19.2797,19.2797,5,5,24.2029,1.36839,-25.9963,0.207229,-0.210131,-0.121418,1,0,3.745,-0.035,-1.3825,0.191784,-0.607194,-1.04566,-0.03794,0.26068,0.3472
-14.2792,0,0,19.2792,19.2792,5,5,24.202,1.36904,-25.9965,-0.200853,-0.131617,-0.0938711,1,0,3.0975,0.1925,-0.525,-0.218014,-0.528748,-1.01833,-0.03794,0.26068,0.3472
-14.3616,0,0,19.3616,19.3616,5,5,24.3417,1.41525,-25.9897,0.0619649,-0.170315,0.00186926,0,0,2.8175,0.0525,-0.105,0.046726,-0.569618,-0.92232,-0.03794,0.26068,0.3472
-14.4429,0,0,19.4429,19.4429,5,5,24.4795,1.46057,-25.9821,0.0611742,-0.168134,0.000857348,0,0,3.0625,0.07,0.3675,0.046726,-0.569618,-0.92232,-0.03794,0.26068,0.3472
-14.4428,0,0,19.4428,19.4428,5,5,24.4793,1.46029,-25.9805,-0.0531389,-0.0977925,-0.108196,1,0,3.43,0.14,0.6825,-0.068076,-0.499346,-1.03053,-0.03794,0.26068,0.3472
-14.4432,0,0,19.4432,19.4432,5,5,24.4801,1.45907,-25.9784,-0.0531176,-0.0977801,-0.108201,1,0,3.99,-0.2625,1.12,-0.068076,-0.499346,-1.03053,-0.03794,0.26068,0.3472
-14.4436,0,0,19.4436,19.4436,5,5,24.4807,1.45796,-25.9764,0.0383805,0.16639,0.210231,1,0,3.92,-0.21,1.085,0.02379,-0.23546,-0.714554,-0.03794,0.26068,0.3472
