pid_x,pid_y,pid_z,front_left_speed,front_right_speed,back_left_speed,back_right_speed,orientation_x,orientation_y,orientation_z,acceleration_x,acceleration_y,acceleration_z,accel_rejected,mag_rejected,gyro_x,gyro_y,gyro_z,accel_x,accel_y,accel_z,mag_x,mag_y,mag_z
-0.0171984,0,0,15.0172,15.0172,14.9828,14.9828,0.0171984,0.0619318,0.02346,0.0475572,-0.0146664,-0.00239771,0,0,3.5175,0.1225,-0.8225,0.00854,-0.002806,-1.01504,-0.07042,0.10766,0.45122
-0.0380174,0,0,15.038,15.038,14.962,14.962,0.0380174,0.126414,0.0434052,0.0491045,-0.0179668,0.00264116,0,0,3.3425,0.14,-0.91,0.011224,-0.006466,-1.01004,-0.07042,0.10766,0.45122
-0.0547575,0,0,15.0548,15.0548,14.9452,14.9452,0.0547575,0.190597,0.0620397,0.0494421,-0.0144994,-0.00178833,0,0,3.3775,0.07,-0.84,0.012688,-0.003294,-1.01443,-0.07042,0.10766,0.45122
-0.0715026,0,0,15.0715,15.0715,14.9285,14.9285,0.0715026,0.252827,0.0804371,0.048356,-0.0142071,-0.00179285,0,0,3.57,-0.2275,-0.9625,0.012688,-0.003294,-1.01443,-0.07042,0.10766,0.45122
-0.0868932,0,0,15.0869,15.0869,14.9131,14.9131,0.0868932,0.316495,0.0961058,0.0494316,-0.0132057,0.0026274,0,0,3.43,-0.2975,-0.9275,0.014884,-0.002562,-1.01004,-0.07042,0.10766,0.45122
-0.102005,0,0,15.102,15.102,14.898,14.898,0.102005,0.37954,0.111844,0.0483312,-0.012942,0.00262029,0,0,3.4475,0.175,-0.875,0.014884,-0.002562,-1.01004,-0.07042,0.10766,0.45122
-0.118576,0,0,15.1186,15.1186,14.8814,14.8814,0.118576,0.434995,0.136648,0.0423825,-0.0144847,-0.00513291,0,0,3.3425,0.2275,-0.98,0.009882,-0.004392,-1.01772,-0.07364,0.10654,0.44548
-0.139865,0,0,15.1399,15.1399,14.8601,14.8601,0.139865,0.490056,0.160525,0.0414215,-0.0181434,0.00494027,0,0,3.4825,0.1925,-1.1725,0.009882,-0.008418,-1.00772,-0.07364,0.10654,0.44548
-0.155346,0,0,15.1553,15.1553,14.8447,14.8447,0.155346,0.5432,0.184713,0.040737,-0.0135988,-0.00256864,0,0,3.29,0.0875,-1.0325,0.010126,-0.004148,-1.01516,-0.07364,0.10654,0.44548
-0.170853,0,0,15.1709,15.1709,14.8291,14.8291,0.170853,0.600574,0.2042,0.0437447,-0.0133282,0.00086315,0,0,3.4475,0.21,-0.98,0.014152,-0.004148,-1.01175,-0.07364,0.10654,0.44548
-0.186527,0,0,15.1865,15.1865,14.8135,14.8135,0.186527,0.648746,0.231218,0.0362223,-0.0132989,0.00134492,0,0,3.5525,0.455,-0.9625,0.007442,-0.004392,-1.01126,-0.07364,0.10654,0.44548
-0.201727,0,0,15.2017,15.2017,14.7983,14.7983,0.201727,0.69538,0.258055,0.0354084,-0.0130337,0.00133448,0,0,3.465,0.1925,-1.0325,0.007442,-0.004392,-1.01126,-0.07364,0.10654,0.44548
-0.215782,0,0,15.2158,15.2158,14.7842,14.7842,0.215782,0.742274,0.283789,0.0361693,-0.0122999,-0.0091273,0,0,3.4125,0.21,-0.9275,0.009028,-0.003904,-1.02163,-0.07364,0.10654,0.44548
-0.231398,0,0,15.2314,15.2314,14.7686,14.7686,0.231398,0.791935,0.300263,0.0379754,-0.0134929,0.00106475,0,0,3.4125,0.2625,-0.8925,0.011712,-0.005368,-1.0115,-0.07014,0.1092,0.44786
-0.242244,0,0,15.2422,15.2422,14.7578,14.7578,0.242244,0.829359,0.319591,0.035014,-0.00951778,-0.00251078,0,0,3.36,-4.305,-0.805,0.009394,-0.001586,-1.01504,-0.07014,0.1092,0.44786
-0.256046,0,0,15.256,15.256,14.744,14.744,0.256046,0.874146,0.338239,0.0345969,-0.0120859,0.00042732,0,0,3.325,0.035,-0.875,0.00976,-0.004392,-1.01211,-0.07014,0.1092,0.44786
-0.270008,0,0,15.27,15.27,14.73,14.73,0.270008,0.918107,0.35685,0.0338297,-0.0118423,0.000414202,0,0,3.57,0.14,-0.875,0.00976,-0.004392,-1.01211,-0.07014,0.1092,0.44786
-0.281622,0,0,15.2816,15.2816,14.7184,14.7184,0.281622,0.960339,0.376019,0.0327283,-0.0099299,-0.00500859,0,0,3.5525,0.2275,-0.9275,0.009394,-0.002684,-1.01748,-0.07014,0.1092,0.44786
-0.293223,0,0,15.2932,15.2932,14.7068,14.7068,0.293223,1.00189,0.395269,0.0320031,-0.00972751,-0.00502202,0,0,3.675,0.385,-0.8575,0.009394,-0.002684,-1.01748,-0.07014,0.1092,0.44786
-0.305862,0,0,15.3059,15.3059,14.6941,14.6941,0.305862,1.04211,0.414873,0.030451,-0.0106062,0.00209532,0,0,3.6225,0.4725,-0.9625,0.00854,-0.003782,-1.0104,-0.07014,0.1092,0.44786
-0.318656,0,0,15.3187,15.3187,14.6813,14.6813,0.318656,1.08221,0.426114,0.0312091,-0.0109936,-0.00935308,0,0,3.5875,0.2275,-1.12,0.010004,-0.004392,-1.02175,-0.0728,0.1134,0.44842
-0.329442,0,0,15.3294,15.3294,14.6706,14.6706,0.329442,1.1173,0.441133,0.0269521,-0.00946208,0.00169946,0,0,3.3425,0.1225,-0.9275,0.006344,-0.00305,-1.01077,-0.0728,0.1134,0.44842
-0.340351,0,0,15.3404,15.3404,14.6596,14.6596,0.340351,1.15143,0.455967,0.0263565,-0.00927178,0.00168656,0,0,3.535,0.0175,-1.015,0.006344,-0.00305,-1.01077,-0.0728,0.1134,0.44842
-0.351906,0,0,15.3519,15.3519,14.6481,14.6481,0.351906,1.18627,0.469391,0.0273278,-0.009803,-0.0034909,0,0,3.605,-0.105,-0.945,0.00793,-0.003782,-1.01589,-0.0728,0.1134,0.44842
-0.363287,0,0,15.3633,15.3633,14.6367,14.6367,0.363287,1.22093,0.482608,0.026723,-0.00960448,-0.00350485,0,0,3.64,0.245,-1.05,0.00793,-0.003782,-1.01589,-0.0728,0.1134,0.44842
-0.372298,0,0,15.3723,15.3723,14.6277,14.6277,0.372298,1.25916,0.491878,0.0294575,-0.00773757,-0.00315145,0,0,3.5175,0.35,-1.085,0.011346,-0.002074,-1.01553,-0.0728,0.1134,0.44842
-0.380972,0,0,15.381,15.381,14.619,14.619,0.380972,1.29612,0.501125,0.0288126,-0.00758631,-0.00316683,0,0,3.43,0.105,-1.085,0.011346,-0.002074,-1.01553,-0.0728,0.1134,0.44842
-0.391768,0,0,15.3918,15.3918,14.6082,14.6082,0.391768,1.33774,0.505343,0.031974,-0.00922995,0.00788057,0,0,3.4475,0,-1.085,0.01525,-0.003904,-1.00455,-0.0728,0.1134,0.44842
-0.402229,0,0,15.4022,15.4022,14.5978,14.5978,0.402229,1.37825,0.517925,0.0312672,-0.00904755,0.00786255,0,0,3.3775,-0.0175,-0.9275,0.01525,-0.003904,-1.00455,-0.06958,0.10836,0.45192
-0.410329,0,0,15.4103,15.4103,14.5897,14.5897,0.410329,1.40955,0.538072,0.0246469,-0.00683017,-0.00432364,0,0,3.605,0.0525,-0.875,0.00915,-0.00183,-1.01663,-0.06958,0.10836,0.45192
-0.418268,0,0,15.4183,15.4183,14.5817,14.5817,0.418268,1.44015,0.558175,0.0241128,-0.00669175,-0.00433792,0,0,3.605,0.0525,-0.875,0.00915,-0.00183,-1.01663,-0.06958,0.10836,0.45192
-0.42523,0,0,15.4252,15.4252,14.5748,14.5748,0.42523,1.46892,0.578794,0.0223961,-0.00595974,0.00228766,0,0,3.4825,0.035,-1.12,0.00793,-0.00122,-1.01004,-0.06958,0.10836,0.45192
-0.43473,0,0,15.4347,15.4347,14.5653,14.5653,0.43473,1.5024,0.594636,0.0260638,-0.00811451,0.00165652,0,0,3.5175,0.0525,-1.1375,0.0122,-0.003538,-1.01065,-0.06958,0.10836,0.45192
-0.443889,0,0,15.4439,15.4439,14.5561,14.5561,0.443889,1.53548,0.610624,0.0254868,-0.00795483,0.00163999,0,0,3.43,0.245,-1.0325,0.0122,-0.003538,-1.01065,-0.06958,0.10836,0.45192
-0.43664,0,0,15.4366,15.4366,14.5634,14.5634,0.43664,1.57869,0.615922,0.0339659,0.0063295,0.00457124,0,0,3.4475,0.175,-0.9275,0.021472,0.010858,-1.00772,-0.06958,0.10836,0.45192
-0.429495,0,0,15.4295,15.4295,14.5705,14.5705,0.429495,1.62081,0.620875,0.033231,0.00620469,0.00455166,0,0,3.43,0.0875,-1.12,0.021472,0.010858,-1.00772,-0.06958,0.10836,0.45192
-0.508504,0,0,15.5085,15.5085,14.4915,14.4915,0.508504,1.70538,0.590944,0.0572676,-0.0626402,0.0803568,0,0,3.605,0.0875,-0.9625,0.047092,-0.059292,-0.932446,-0.07056,0.10808,0.46382
-0.931233,0,0,15.9312,15.9312,14.0688,14.0688,0.931233,2.01503,0.37138,0.197284,-0.322238,0.21816,0,0,3.185,0,-1.2075,0.193126,-0.325984,-0.79544,-0.07056,0.10808,0.46382
-0.931291,0,0,15.9313,15.9313,14.0687,14.0687,0.931291,2.01472,0.371131,0.19729,-0.322237,0.21816,1,0,3.5,-0.14,-1.155,0.193126,-0.325984,-0.79544,-0.07056,0.10808,0.46382
-0.930748,0,0,15.9307,15.9307,14.0693,14.0693,0.930748,2.01528,0.370656,-0.0199364,-0.0630935,-0.114047,1,0,3.1675,0.3675,-1.295,-0.02501,-0.0671,-1.12508,-0.07056,0.10808,0.46382
-0.930589,0,0,15.9306,15.9306,14.0694,14.0694,0.930589,2.01513,0.369539,-0.0199339,-0.0630963,-0.114047,1,0,3.395,-0.0525,-1.6625,-0.02501,-0.0671,-1.12508,-0.07056,0.10808,0.46382
-0.931454,0,0,15.9315,15.9315,14.0685,14.0685,0.931454,2.01502,0.368272,0.422155,0.112293,-0.259003,1,0,3.9725,-0.035,-1.75,0.418948,0.108092,-1.26892,-0.07056,0.10808,0.46382
-0.932064,0,0,15.9321,15.9321,14.0679,14.0679,0.932064,2.0144,0.366847,0.422165,0.112303,-0.259003,1,0,3.8325,-0.3325,-1.8375,0.418948,0.108092,-1.26892,-0.07056,0.10808,0.46382
-0.932898,0,0,15.9329,15.9329,14.0671,14.0671,0.932898,2.01449,0.365554,-0.344411,-0.311462,-0.0791298,1,0,3.955,0.0875,-1.7675,-0.350872,-0.315248,-1.09044,-0.07056,0.10808,0.46382
-0.933856,0,0,15.9339,15.9339,14.0661,14.0661,0.933856,2.01501,0.364268,-0.34442,-0.311445,-0.0791303,1,0,4.025,0.3325,-1.7675,-0.350872,-0.315248,-1.09044,-0.07238,0.1225,0.46746
-0.93347,0,0,15.9335,15.9335,14.0665,14.0665,0.93347,2.01564,0.362923,-0.231328,0.0504097,-0.158187,1,0,3.2725,0.4025,-1.8025,-0.23729,0.046238,-1.16888,-0.07238,0.1225,0.46746
-0.934538,0,0,15.9345,15.9345,14.0655,14.0655,0.934538,2.01621,0.362088,-0.231338,0.0504284,-0.158187,1,0,4.0775,0.3675,-1.505,-0.23729,0.046238,-1.16888,-0.07238,0.1225,0.46746
-0.934678,0,0,15.9347,15.9347,14.0653,14.0653,0.934678,2.0171,0.361498,0.135291,0.168527,-0.164212,1,0,3.5525,0.56,-1.365,0.130906,0.164212,-1.17486,-0.07238,0.1225,0.46746
-0.934319,0,0,15.9343,15.9343,14.0657,14.0657,0.934319,2.01893,0.361794,0.135259,0.168521,-0.164213,1,0,3.255,1.12,-0.8575,0.130906,0.164212,-1.17486,-0.07238,0.1225,0.46746
-0.933705,0,0,15.9337,15.9337,14.0663,14.0663,0.933705,2.02015,0.36286,0.534318,-0.00820704,0.365448,1,0,3.0975,0.77,-0.4025,0.531676,-0.012322,-0.649284,-0.07238,0.1225,0.46746
-0.933092,0,0,15.9331,15.9331,14.0669,14.0669,0.933092,2.02137,0.363926,0.534297,-0.00821775,0.365448,1,0,3.0975,0.77,-0.4025,0.531676,-0.012322,-0.649284,-0.07238,0.1225,0.46746
-0.9332,0,0,15.9332,15.9332,14.0668,14.0668,0.9332,2.02837,0.365957,0.724057,-0.857363,0.911212,1,0,3.4825,4.165,0.105,0.722362,-0.860588,-0.107726,-0.07238,0.1225,0.46746
-0.933308,0,0,15.9333,15.9333,14.0667,14.0667,0.933308,2.03538,0.367988,0.723934,-0.857361,0.911207,1,0,3.4825,4.165,0.105,0.722362,-0.860588,-0.107726,-0.06706,0.12964,0.47936
-0.728453,0,0,15.7285,15.7285,14.2715,14.2715,0.728453,1.34288,0.989264,-0.537883,0.173484,0.19876,0,0,3.8675,-1.2425,0.945,-0.55693,0.172752,-0.815082,-0.06706,0.12964,0.47936
-0.526339,0,0,15.5263,15.5263,14.4737,14.4737,0.526339,0.662359,1.61428,-0.526008,0.169959,0.199006,0,0,3.8675,-1.2425,0.945,-0.55693,0.172752,-0.815082,-0.06706,0.12964,0.47936
-0.237282,0,0,15.2373,15.2373,14.7627,14.7627,0.237282,0.674029,1.62684,0.0390611,0.506748,-0.946228,0,0,3.7275,0.385,0.945,0.010736,0.51423,-1.95151,-0.06706,0.12964,0.47936
0.274558,0,0,14.7254,14.7254,15.2746,15.2746,-0.274558,0.773855,1.5549,0.0895578,0.452384,0.103728,0,0,2.1,-0.175,1.0325,0.063196,0.468846,-0.909632,-0.06706,0.12964,0.47936
0.777342,0,0,14.2227,14.2227,15.7773,15.7773,-0.777342,0.873905,1.48145,0.0878118,0.44361,0.103622,0,0,2.135,0.9975,0.8575,0.063196,0.468846,-0.909632,-0.06706,0.12964,0.47936
1.13969,0,0,13.8603,13.8603,16.1397,16.1397,-1.13969,1.55238,0.862075,0.803794,0.449139,-0.0560756,0,0,1.8725,1.365,0.84,0.794098,0.48068,-1.06774,-0.06706,0.12964,0.47936
1.13872,0,0,13.8613,13.8613,16.1387,16.1387,-1.13872,1.55318,0.864155,0.80378,0.449156,-0.0560756,1,0,3.9725,0.49,0.21,0.794098,0.48068,-1.06774,-0.06706,0.12964,0.47936
1.13657,0,0,13.8634,13.8634,16.1366,16.1366,-1.13657,1.55369,0.864981,0.281504,0.0196737,-0.118287,1,0,4.655,0.3325,-0.525,0.26962,0.051606,-1.12948,-0.0686,0.12544,0.4837
1.13272,0,0,13.8673,13.8673,16.1327,16.1327,-1.13272,1.55347,0.865372,0.148116,-0.0590308,-0.121113,1,0,5.6175,-0.0875,-0.7875,0.135664,-0.027084,-1.13228,-0.0686,0.12544,0.4837
1.12623,0,0,13.8738,13.8738,16.1262,16.1262,-1.12623,1.55186,0.865009,0.148144,-0.0589177,-0.12111,1,0,7.105,-0.8925,-1.2425,0.135664,-0.027084,-1.13228,-0.0686,0.12544,0.4837
1.55219,0,0,13.4478,13.4478,16.5522,16.5522,-1.55219,1.70176,0.721416,0.112971,0.340215,0.179497,0,0,6.02,-0.665,-2.4325,0.102968,0.379054,-0.833748,-0.0686,0.12544,0.4837
1.97058,0,0,13.0294,13.0294,16.9706,16.9706,-1.97058,1.8488,0.576106,0.110406,0.332922,0.179193,0,0,6.02,-0.665,-2.4325,0.102968,0.379054,-0.833748,-0.0686,0.12544,0.4837
2.25614,0,0,12.7439,12.7439,17.2561,17.2561,-2.25614,1.76334,0.651647,-0.072154,0.263337,-0.00180121,0,0,3.5525,-0.4025,-3.36,-0.081862,0.314516,-1.01321,-0.0686,0.12544,0.4837
2.53627,0,0,12.4637,12.4637,17.5363,17.5363,-2.53627,1.67951,0.72813,-0.0706916,0.258452,-0.00196162,0,0,3.5525,-0.4025,-3.36,-0.081862,0.314516,-1.01321,-0.0686,0.12544,0.4837
2.54073,0,0,12.4593,12.4593,17.5407,17.5407,-2.54073,1.68185,0.723758,0.20662,0.30979,-0.152209,1,0,1.0325,1.5225,-3.5,0.196664,0.365878,-1.16229,-0.0686,0.12544,0.4837
2.54519,0,0,12.4548,12.4548,17.5452,17.5452,-2.54519,1.68418,0.719386,0.206579,0.309712,-0.152214,1,0,1.0325,1.5225,-3.5,0.196664,0.365878,-1.16229,-0.06608,0.13132,0.4977
2.54728,0,0,12.4527,12.4527,17.5473,17.5473,-2.54728,1.68594,0.714979,0.434577,0.01303,-0.21074,1,0,2.3625,1.19,-3.535,0.425658,0.06954,-1.22037,-0.06608,0.13132,0.4977
2.54614,0,0,12.4539,12.4539,17.5461,17.5461,-2.54614,1.68669,0.711337,-0.31063,-0.211541,-0.215289,1,0,4.165,0.5775,-3.115,-0.32269,-0.154818,-1.22488,-0.06608,0.13132,0.4977
2.5393,0,0,12.4607,12.4607,17.5393,17.5393,-2.5393,1.68497,0.708046,-0.3106,-0.211422,-0.215282,1,0,7.35,-0.875,-2.975,-0.32269,-0.154818,-1.22488,-0.06608,0.13132,0.4977
2.58334,0,0,12.4167,12.4167,17.5833,17.5833,-2.58334,1.53667,0.846121,-0.129185,0.0475708,-0.0311901,0,0,7.07,-0.735,-2.7475,-0.143106,0.104676,-1.04225,-0.06608,0.13132,0.4977
2.62983,0,0,12.3702,12.3702,17.6298,17.6298,-2.62983,1.39168,0.985133,-0.126655,0.0467575,-0.0311624,0,0,5.1975,-0.56,-2.275,-0.143106,0.104676,-1.04225,-0.06608,0.13132,0.4977
2.65202,0,0,12.348,12.348,17.652,17.652,-2.65202,1.51083,0.872477,0.0923696,0.0151088,0.088396,0,0,4.2875,-0.56,-2.03,0.078934,0.073444,-0.92354,-0.06608,0.13132,0.4977
2.6797,0,0,12.3203,12.3203,17.6797,17.6797,-2.6797,1.62949,0.760674,0.0902992,0.0146291,0.0883169,0,0,0.9625,0.5425,-1.4875,0.078934,0.073444,-0.92354,-0.06608,0.13132,0.4977
2.60982,0,0,12.3902,12.3902,17.6098,17.6098,-2.60982,1.75787,0.634223,0.115515,-0.0680511,-0.0452151,0,0,0.63,0.5775,-1.155,0.106506,-0.01037,-1.05603,-0.07112,0.13566,0.48916
2.37569,0,0,12.6243,12.6243,17.3757,17.3757,-2.37569,1.51881,0.860643,-0.204316,-0.215046,0.0244247,0,0,0.455,0.77,-0.35,-0.218868,-0.161284,-0.987224,-0.07112,0.13566,0.48916
2.1416,0,0,12.8584,12.8584,17.1416,17.1416,-2.1416,1.28362,1.08457,-0.200213,-0.210969,0.0246859,0,0,2.94,0.2625,-0.4725,-0.218868,-0.161284,-0.987224,-0.07112,0.13566,0.48916
2.13985,0,0,12.8601,12.8601,17.1399,17.1399,-2.13985,1.28368,1.08579,-0.0318345,-0.316945,-0.139449,1,0,4.4275,0.0525,-0.2975,-0.049776,-0.26718,-1.15009,-0.07112,0.13566,0.48916
2.1381,0,0,12.8619,12.8619,17.1381,17.1381,-2.1381,1.28374,1.08702,-0.0318356,-0.316914,-0.139448,1,0,4.4275,0.0525,-0.2975,-0.049776,-0.26718,-1.15009,-0.07112,0.13566,0.48916
1.8134,0,0,13.1866,13.1866,16.8134,16.8134,-1.8134,1.3162,1.06853,0.0175286,-0.27327,0.0776156,0,0,6.02,4.2525,0.5425,0.000366,-0.229238,-0.934886,-0.07112,0.13566,0.48916
1.49474,0,0,13.5053,13.5053,16.4947,16.4947,-1.49474,1.34791,1.05031,0.0169754,-0.267712,0.0777632,0,0,6.02,4.2525,0.5425,0.000366,-0.229238,-0.934886,-0.07112,0.13566,0.48916
1.49452,0,0,13.5055,13.5055,16.4945,16.4945,-1.49452,1.34756,1.05253,-0.207646,-0.312528,0.195794,1,0,3.5525,-0.1925,0.28,-0.225212,-0.274012,-0.817766,-0.07112,0.13566,0.48916
1.46147,0,0,13.5385,13.5385,16.4615,16.4615,-1.46147,1.80645,0.619679,0.36833,-0.0334973,0.120959,0,0,2.835,-0.56,-0.07,0.361242,0.004148,-0.89182,-0.06874,0.13636,0.49042
1.43028,0,0,13.5697,13.5697,16.4303,16.4303,-1.43028,2.25869,0.188668,0.360442,-0.0329464,0.120693,0,0,2.1875,0.6825,0.42,0.361242,0.004148,-0.89182,-0.06874,0.13636,0.49042
1.4324,0,0,13.5676,13.5676,16.4324,16.4324,-1.4324,2.25889,0.19013,0.258269,0.116133,-0.381799,1,0,2.24,0.14,-0.1575,0.25864,0.15311,-1.39043,-0.06874,0.13636,0.49042
1.43452,0,0,13.5655,13.5655,16.4345,16.4345,-1.43452,2.25909,0.191592,0.258266,0.116096,-0.3818,1,0,2.24,0.14,-0.1575,0.25864,0.15311,-1.39043,-0.06874,0.13636,0.49042
1.43484,0,0,13.5652,13.5652,16.4348,16.4348,-1.43484,2.25952,0.192928,0.0192956,0.169338,-0.396062,1,0,3.255,0.28,-0.2275,0.018666,0.206302,-1.40459,-0.06874,0.13636,0.49042
1.43516,0,0,13.5648,13.5648,16.4352,16.4352,-1.43516,2.25996,0.194264,0.019288,0.169333,-0.396063,1,0,3.255,0.28,-0.2275,0.018666,0.206302,-1.40459,-0.06874,0.13636,0.49042
1.42068,0,0,13.5793,13.5793,16.4207,16.4207,-1.42068,2.07212,0.352775,-0.165982,-0.0103108,-0.0591768,0,0,4.7775,0.245,-1.435,-0.170678,0.026596,-1.07043,-0.06874,0.13636,0.49042
1.41859,0,0,13.5814,13.5814,16.4186,16.4186,-1.41859,2.07288,0.351732,0.235758,0.0551856,-0.0872086,1,0,4.655,0.5075,-1.61,0.232776,0.091988,-1.09824,-0.06874,0.13636,0.49042
1.41477,0,0,13.5852,13.5852,16.4148,16.4148,-1.41477,2.07388,0.350292,0.235741,0.0552523,-0.0872076,1,0,5.635,0.6475,-1.8375,0.232776,0.091988,-1.09824,-0.06958,0.14714,0.49336
1.67115,0,0,13.3289,13.3289,16.6711,16.6711,-1.67115,2.11255,0.281469,0.02441,0.233973,0.0247764,0,0,5.7575,0.945,-1.9075,0.021228,0.274988,-0.98698,-0.06958,0.14714,0.49336
1.92678,0,0,13.0732,13.0732,16.9268,16.9268,-1.92678,2.14879,0.211505,0.0237779,0.229517,0.0246129,0,0,3.4825,0.07,-2.4675,0.021228,0.274988,-0.98698,-0.06958,0.14714,0.49336
1.92701,0,0,13.073,13.073,16.927,16.927,-1.92701,2.14877,0.20934,0.310728,-0.0446612,-0.0924342,1,0,3.3775,0.07,-2.275,0.309392,0.001098,-1.10312,-0.06958,0.14714,0.49336
1.93008,0,0,13.0699,13.0699,16.9301,16.9301,-1.93008,2.14779,0.207386,0.310745,-0.0447146,-0.0924353,1,0,1.785,-0.49,-2.17,0.309392,0.001098,-1.10312,-0.06958,0.14714,0.49336
1.93284,0,0,13.0672,13.0672,16.9328,16.9328,-1.93284,2.14676,0.205855,0.307604,0.205963,-0.305752,1,0,1.9425,-0.525,-1.925,0.30622,0.251564,-1.31479,-0.06958,0.14714,0.49336
1.93302,0,0,13.067,13.067,16.933,16.933,-1.93302,2.14583,0.204351,0.30762,0.20596,-0.305751,1,0,3.395,-0.4725,-1.9075,0.30622,0.251564,-1.31479,-0.06958,0.14714,0.49336
1.93235,0,0,13.0677,13.0677,16.9323,16.9323,-1.93235,2.14526,0.203045,0.168529,0.126345,-0.102517,1,0,3.8675,-0.2625,-1.785,0.16653,0.17202,-1.11313,-0.06958,0.14714,0.49336
1.92819,0,0,13.0718,13.0718,16.9282,16.9282,-1.92819,2.14457,0.201413,0.168541,0.126418,-0.102514,1,0,5.8275,-0.3325,-1.9775,0.16653,0.17202,-1.11313,-0.06174,0.1505,0.50414
1.92332,0,0,13.0767,13.0767,16.9233,16.9233,-1.92332,2.14407,0.200525,-0.0523112,-0.0185839,0.161214,1,0,6.2125,-0.2275,-1.54,-0.055266,0.027084,-0.851438,-0.06174,0.1505,0.50414
1.91928,0,0,13.0807,13.0807,16.9193,16.9193,-1.91928,2.14487,0.199923,-0.0523252,-0.0185135,0.161216,1,0,5.74,0.525,-1.3475,-0.055266,0.027084,-0.851438,-0.06174,0.1505,0.50414
2.1437,0,0,12.8563,12.8563,17.1437,17.1437,-2.1437,2.55305,-0.228124,0.303677,0.176286,0.18894,0,0,4.9875,0.665,-0.77,0.309392,0.225578,-0.8235,-0.06174,0.1505,0.50414
2.36708,0,0,12.6329,12.6329,17.3671,17.3671,-2.36708,2.95306,-0.658247,0.296704,0.172408,0.188452,0,0,3.4825,0.3325,-0.385,0.309392,0.225578,-0.8235,-0.06174,0.1505,0.50414
2.36696,0,0,12.633,12.633,17.367,17.367,-2.36696,2.95385,-0.656691,0.305073,-0.176262,-0.0649455,1,0,3.4825,0.4725,-0.0875,0.31781,-0.122732,-1.07494,-0.06174,0.1505,0.50414
2.36702,0,0,12.633,12.633,17.367,17.367,-2.36702,2.95316,-0.654924,0.305085,-0.176263,-0.0649449,1,0,3.3775,-0.4025,0,0.31781,-0.122732,-1.07494,-0.06174,0.1505,0.50414
2.3661,0,0,12.6339,12.6339,17.3661,17.3661,-2.3661,2.95272,-0.652866,0.338987,0.126628,-0.0437967,1,0,3.92,-0.2625,0.175,0.351848,0.179828,-1.05396,-0.06174,0.1505,0.50414
2.36329,0,0,12.6367,12.6367,17.3633,17.3633,-2.36329,2.95197,-0.651126,0.339,0.126676,-0.043794,1,0,4.9875,-0.4375,-0.0175,0.351848,0.179828,-1.05396,-0.06636,0.15582,0.50834
2.42559,0,0,12.5744,12.5744,17.4256,17.4256,-2.42559,2.9129,-0.675025,-0.0365601,0.0550008,0.0406611,0,0,5.3375,-0.6825,0.14,-0.025986,0.109312,-0.970144,-0.06636,0.15582,0.50834
2.48693,0,0,12.5131,12.5131,17.4869,17.4869,-2.48693,2.87529,-0.699424,-0.0359046,0.0539311,0.0406484,0,0,5.215,-0.2275,-0.1925,-0.025986,0.109312,-0.970144,-0.06636,0.15582,0.50834
2.48554,0,0,12.5145,12.5145,17.4855,17.4855,-2.48554,2.87588,-0.698582,-0.0863314,0.0214696,0.323922,1,0,4.2175,0.3675,-0.5075,-0.076616,0.07686,-0.689056,-0.06636,0.15582,0.50834
2.48546,0,0,12.5145,12.5145,17.4855,17.4855,-2.48546,2.87698,-0.697732,-0.0863505,0.0214711,0.323921,1,0,3.4825,0.665,-0.49,-0.076616,0.07686,-0.689056,-0.06636,0.15582,0.50834
2.4857,0,0,12.5143,12.5143,17.4857,17.4857,-2.4857,2.8782,-0.697609,0.00534997,-0.208131,-0.175128,1,0,3.325,0.7525,-0.91,0.015494,-0.1525,-1.18425,-0.06636,0.15582,0.50834
2.48546,0,0,12.5145,12.5145,17.4855,17.4855,-2.48546,2.87945,-0.697277,0.0053281,-0.208127,-0.175129,1,0,3.5875,0.77,-0.7875,0.015494,-0.1525,-1.18425,-0.06636,0.15582,0.50834
2.48572,0,0,12.5143,12.5143,17.4857,17.4857,-2.48572,2.87954,-0.697014,-0.273969,-0.00503491,-0.238816,1,0,3.3075,0.0875,-0.8575,-0.264984,0.050386,-1.24745,-0.06636,0.15582,0.50834
2.48569,0,0,12.5143,12.5143,17.4857,17.4857,-2.48569,2.87853,-0.697846,-0.273951,-0.00503451,-0.238815,1,0,3.5,-0.525,-1.5225,-0.264984,0.050386,-1.24745,-0.06552,0.15708,0.51814
2.39101,0,0,12.609,12.609,17.391,17.391,-2.39101,2.33879,-0.234437,-0.452115,-0.0890142,0.128193,0,0,3.605,-0.7175,-1.5575,-0.453352,-0.035136,-0.883768,-0.06552,0.15708,0.51814
2.29891,0,0,12.7011,12.7011,17.2989,17.2989,-2.29891,1.80866,0.226378,-0.442868,-0.0874229,0.128593,0,0,3.185,-0.735,-1.8375,-0.453352,-0.035136,-0.883768,-0.06552,0.15708,0.51814
2.29692,0,0,12.7031,12.7031,17.2969,17.2969,-2.29692,1.80735,0.224834,0.393948,0.0605072,0.226954,1,0,4.6025,-0.6825,-1.9425,0.386984,0.112606,-0.786168,-0.06552,0.15708,0.51814
2.29612,0,0,12.7039,12.7039,17.2961,17.2961,-2.29612,1.8079,0.222376,0.393938,0.0605212,0.226954,1,0,3.955,0.42,-2.4325,0.386984,0.112606,-0.786168,-0.06552,0.15708,0.51814
2.29466,0,0,12.7053,12.7053,17.2947,17.2947,-2.29466,1.80872,0.220057,0.15071,0.0907119,0.228922,1,0,4.3225,0.5775,-2.345,0.14274,0.14274,-0.784216,-0.06552,0.15708,0.51814
2.29363,0,0,12.7064,12.7064,17.2936,17.2936,-2.29363,1.80972,0.21785,0.150692,0.0907299,0.228922,1,0,4.0775,0.6825,-2.275,0.14274,0.14274,-0.784216,-0.06552,0.15708,0.51814
2.29375,0,0,12.7063,12.7063,17.2937,17.2937,-2.29375,1.81118,0.216016,0.129285,-0.331953,-0.1264,1,0,3.43,0.945,-2.0475,0.121268,-0.279502,-1.1368,-0.06552,0.15708,0.51814
2.29603,0,0,12.704,12.704,17.296,17.296,-2.29603,1.81246,0.214609,0.129263,-0.331993,-0.126402,1,0,2.205,0.8225,-1.8025,0.121268,-0.279502,-1.1368,-0.06286,0.1603,0.51856
2.29888,0,0,12.7011,12.7011,17.2989,17.2989,-2.29888,1.8132,0.213434,0.159135,0.153656,-0.133905,1,0,1.89,0.5075,-1.68,0.15128,0.205692,-1.14424,-0.06286,0.1603,0.51856
2.09808,0,0,12.9019,12.9019,17.0981,17.0981,-2.09808,1.89649,0.0817147,0.0860059,-0.191025,-0.031893,0,0,2.345,-0.525,-1.6625,0.0793,-0.14213,-1.0431,-0.06286,0.1603,0.51856
1.89893,0,0,13.1011,13.1011,16.8989,16.8989,-1.89893,1.97748,-0.0481086,0.0845931,-0.187552,-0.0318196,0,0,3.5,-1.0325,-1.015,0.0793,-0.14213,-1.0431,-0.06286,0.1603,0.51856
1.6701,0,0,13.3299,13.3299,16.6701,16.6701,-1.6701,1.95942,-0.0833627,-0.00499124,-0.214217,-0.0289796,0,0,3.955,-0.5075,-1.05,-0.01098,-0.172752,-1.04042,-0.06286,0.1603,0.51856
1.44425,0,0,13.5558,13.5558,16.4442,16.4442,-1.44425,1.9416,-0.118476,-0.0046804,-0.210279,-0.028862,0,0,4.69,-0.7,-0.945,-0.01098,-0.172752,-1.04042,-0.06286,0.1603,0.51856
1.46077,0,0,13.5392,13.5392,16.4608,16.4608,-1.46077,1.95858,-0.18578,0.019928,0.021352,-0.0955175,0,0,4.8825,-0.84,-1.05,0.01403,0.058926,-1.10654,-0.06286,0.1603,0.51856
1.47887,0,0,13.5211,13.5211,16.4789,16.4789,-1.47887,1.97607,-0.251691,0.0196229,0.0210366,-0.095536,0,0,3.7975,-0.35,-0.2625,0.01403,0.058926,-1.10654,-0.06286,0.1603,0.51856
1.48346,0,0,13.5165,13.5165,16.4835,16.4835,-1.48346,1.9327,-0.263596,-0.0374477,0.00520163,-0.0419067,0,0,3.3075,0.2275,-0.1575,-0.044042,0.043188,-1.05335,-0.0742,0.16464,0.52444
1.49026,0,0,13.5097,13.5097,16.4903,16.4903,-1.49026,1.89114,-0.275112,-0.0367228,0.00508247,-0.0418856,0,0,2.0125,0.77,0.07,-0.044042,0.043188,-1.05335,-0.0742,0.16464,0.52444
1.23873,0,0,13.7613,13.7613,16.2387,16.2387,-1.23873,1.93322,-0.364796,0.0477046,-0.238814,-0.0164783,0,0,2.2575,0.63,0,0.04148,-0.204838,-1.02822,-0.0742,0.16464,0.52444
0.991836,0,0,14.0082,14.0082,15.9918,15.9918,-0.991836,1.97468,-0.453924,0.0469814,-0.234508,-0.0164191,0,0,2.2575,0.63,0,0.04148,-0.204838,-1.02822,-0.0742,0.16464,0.52444
0.608234,0,0,14.3918,14.3918,15.6082,15.6082,-0.608234,1.56043,-0.119334,-0.356778,-0.374128,0.0485682,0,0,3.2025,-0.3675,0,-0.371246,-0.350994,-0.964044,-0.0742,0.16464,0.52444
0.231424,0,0,14.7686,14.7686,15.2314,15.2314,-0.231424,1.15418,0.209448,-0.34969,-0.367555,0.0487843,0,0,3.2025,-0.3675,0,-0.371246,-0.350994,-0.964044,-0.0742,0.16464,0.52444
0.230487,0,0,14.7695,14.7695,15.2305,15.2305,-0.230487,1.15373,0.210795,0.173922,-0.0373075,-0.156908,1,0,3.9725,-0.2275,-0.2275,0.154574,-0.021106,-1.16815,-0.0742,0.16464,0.52444
0.22955,0,0,14.7705,14.7705,15.2295,15.2295,-0.22955,1.15327,0.212143,0.17393,-0.0372911,-0.156908,1,0,3.9725,-0.2275,-0.2275,0.154574,-0.021106,-1.16815,-0.0742,0.16464,0.52444
0.228826,0,0,14.7712,14.7712,15.2288,15.2288,-0.228826,1.15349,0.212197,0.294561,0.0193883,-0.102073,1,0,3.8675,0.175,-0.98,0.27572,0.035502,-1.11374,-0.06902,0.15904,0.51268
0.229141,0,0,14.7709,14.7709,15.2291,15.2291,-0.229141,1.15458,0.211799,-0.0522997,0.0679893,0.107308,1,0,3.29,0.6825,-1.2425,-0.07259,0.084058,-0.905972,-0.06902,0.15904,0.51268
0.231333,0,0,14.7687,14.7687,15.2313,15.2313,-0.231333,1.15626,0.211248,-0.0523291,0.067951,0.107307,1,0,2.24,1.0325,-1.33,-0.07259,0.084058,-0.905972,-0.06902,0.15904,0.51268
0.234366,0,0,14.7656,14.7656,15.2344,15.2344,-0.234366,1.15825,0.210726,-0.190857,-0.0240634,-0.202524,1,0,1.7675,1.2075,-1.3125,-0.21167,-0.007808,-1.21341,-0.06902,0.15904,0.51268
0.236286,0,0,14.7637,14.7637,15.2363,15.2363,-0.236286,1.1596,0.209696,-0.190881,-0.0240969,-0.202525,1,0,2.3975,0.84,-1.61,-0.21167,-0.007808,-1.21341,-0.06902,0.15904,0.51268
0.113505,0,0,14.8865,14.8865,15.1135,15.1135,-0.113505,1.15327,0.1808,-0.00283215,-0.111962,0.01498,0,0,2.6425,0.2975,-1.9425,-0.022936,-0.097722,-0.997594,-0.06902,0.15904,0.51268
-0.00834451,0,0,15.0083,15.0083,14.9917,14.9917,0.00834451,1.14559,0.151539,-0.00269808,-0.109836,0.0149847,0,0,3.43,-0.6125,-2.1875,-0.022936,-0.097722,-0.997594,-0.06902,0.15904,0.51268
-0.00845188,0,0,15.0085,15.0085,14.9915,14.9915,0.00845188,1.14456,0.148865,0.231301,0.434974,-0.128742,1,0,3.5525,-0.56,-2.5725,0.212036,0.44652,-1.14021,-0.06902,0.15904,0.51268
-0.00718168,0,0,15.0072,15.0072,14.9928,14.9928,0.00718168,1.14403,0.145981,0.23131,0.434952,-0.128742,1,0,2.7825,-0.2625,-2.695,0.212036,0.44652,-1.14021,-0.06706,0.1519,0.51436
-0.2324,0,0,15.2324,15.2324,14.7676,14.7676,0.2324,1.39983,-0.112312,0.237902,-0.223779,-0.0245886,0,0,2.7475,-0.455,-2.3275,0.223138,-0.215452,-1.03676,-0.06706,0.1519,0.51436
-0.0689717,0,0,15.069,15.069,14.931,14.931,0.0689717,1.29972,-0.0482859,-0.0848393,0.140239,0.0525488,0,0,1.925,-0.035,-2.2225,-0.102724,0.151036,-0.960262,-0.06706,0.1519,0.51436
0.0912996,0,0,14.9087,14.9087,15.0913,15.0913,-0.0912996,1.20278,0.0167026,-0.0831477,0.137442,0.0525852,0,0,1.96,0.6825,-1.9075,-0.102724,0.151036,-0.960262,-0.06706,0.1519,0.51436
0.0940951,0,0,14.9059,14.9059,15.0941,15.0941,-0.0940951,1.20393,0.0156467,0.313119,-0.0503154,0.213893,1,0,1.9075,0.7175,-1.6275,0.29524,-0.036478,-0.800198,-0.06706,0.1519,0.51436
0.0962919,0,0,14.9037,14.9037,15.0963,15.0963,-0.0962919,1.20486,0.0148611,0.313102,-0.0503538,0.213893,1,0,2.24,0.595,-1.47,0.29524,-0.036478,-0.800198,-0.06706,0.1519,0.51436
0.0965559,0,0,14.9034,14.9034,15.0966,15.0966,-0.0965559,1.20553,0.013956,0.277131,0.00899523,-0.253681,1,0,3.325,0.4375,-1.54,0.259128,0.022814,-1.26416,-0.06706,0.1519,0.51436
0.0966111,0,0,14.9034,14.9034,15.0966,15.0966,-0.0966111,1.20465,0.0140733,0.277146,0.00899427,-0.25368,1,0,3.43,-0.4725,-0.945,0.259128,0.022814,-1.26416,-0.06706,0.1519,0.51436
0.0954471,0,0,14.9046,14.9046,15.0954,15.0954,-0.0954471,1.20383,0.0142805,-0.0322636,0.150193,-0.278762,1,0,4.1125,-0.4375,-0.8925,-0.051606,0.163846,-1.28905,-0.06706,0.1519,0.51436
0.0952164,0,0,14.9048,14.9048,15.0952,15.0952,-0.0952164,1.20268,0.0146382,-0.0322435,0.150197,-0.278761,1,0,3.5875,-0.63,-0.805,-0.051606,0.163846,-1.28905,-0.07042,0.15162,0.5103
0.0959221,0,0,14.9041,14.9041,15.0959,15.0959,-0.0959221,1.20171,0.0149956,-0.480387,-0.175405,-0.0916331,1,0,3.0625,-0.525,-0.805,-0.501664,-0.161406,-1.10337,-0.07042,0.15162,0.5103
0.0970484,0,0,14.903,14.903,15.097,15.097,-0.0970484,1.20098,0.0161325,-0.480375,-0.175425,-0.0916329,1,0,2.8175,-0.385,-0.35,-0.501664,-0.161406,-1.10337,-0.07042,0.15162,0.5103
0.0996293,0,0,14.9004,14.9004,15.0996,15.0996,-0.0996293,1.2004,0.0178691,0.0860019,-0.0389321,0.172215,1,0,1.995,-0.2975,0,0.0671,-0.02501,-0.841556,-0.07042,0.15162,0.5103
0.102047,0,0,14.898,14.898,15.102,15.102,-0.102047,1.20131,0.0199331,0.085986,-0.0389743,0.172214,1,0,2.0825,0.5775,0.1925,0.0671,-0.02501,-0.841556,-0.07042,0.15162,0.5103
0.10521,0,0,14.8948,14.8948,15.1052,15.1052,-0.10521,1.2028,0.0221759,0.57822,-0.146257,0.0645108,1,0,1.6625,0.91,0.2975,0.561444,-0.132126,-0.948428,-0.07042,0.15162,0.5103
0.106415,0,0,14.8936,14.8936,15.1064,15.1064,-0.106415,1.20275,0.0240316,0.578221,-0.146278,0.0645108,1,0,2.765,0.0175,0.07,0.561444,-0.132126,-0.948428,-0.07042,0.15162,0.5103
0.10688,0,0,14.8931,14.8931,15.1069,15.1069,-0.10688,1.20244,0.0254679,0.161044,-0.120517,-0.121141,1,0,3.185,-0.14,-0.175,0.142496,-0.106384,-1.13265,-0.07042,0.15162,0.5103
0.106132,0,0,14.8939,14.8939,15.1061,15.1061,-0.106132,1.20171,0.0266649,0.161057,-0.120504,-0.121141,1,0,3.8675,-0.385,-0.315,0.142496,-0.106384,-1.13265,-0.06664,0.14952,0.49476
0.282272,0,0,14.7177,14.7177,15.2823,15.2823,-0.282272,0.808623,0.372652,-0.336249,0.160122,0.0685554,0,0,3.6225,-0.28,-0.21,-0.363804,0.177022,-0.944524,-0.06664,0.14952,0.49476
0.45581,0,0,14.5442,14.5442,15.4558,15.4558,-0.45581,0.423155,0.71968,-0.329522,0.157093,0.0686082,0,0,3.4125,-0.105,-0.6475,-0.363804,0.177022,-0.944524,-0.06664,0.14952,0.49476
0.457051,0,0,14.5429,14.5429,15.4571,15.4571,-0.457051,0.422994,0.720068,0.109895,0.160125,-0.0885201,1,0,2.765,-0.0525,-0.7875,0.07747,0.180072,-1.10044,-0.06664,0.14952,0.49476
0.458825,0,0,14.5412,14.5412,15.4588,15.4588,-0.458825,0.423098,0.720093,0.109893,0.160094,-0.0885204,1,0,2.4675,0.105,-0.9975,0.07747,0.180072,-1.10044,-0.06664,0.14952,0.49476
0.460009,0,0,14.54,14.54,15.46,15.46,-0.460009,0.424334,0.719749,0.258084,0.000331297,0.348561,1,0,2.8,0.77,-1.2075,0.22631,0.020496,-0.66673,-0.06664,0.14952,0.49476
0.461385,0,0,14.5386,14.5386,15.4614,15.4614,-0.461385,0.425027,0.718749,0.258072,0.000307281,0.348561,1,0,2.695,0.455,-1.5925,0.22631,0.020496,-0.66673,-0.06664,0.14952,0.49476
0.298776,0,0,14.7012,14.7012,15.2988,15.2988,-0.298776,0.460251,0.679512,0.0308865,-0.155864,-0.040434,0,0,3.955,1.0675,-1.8025,-0.00122,-0.138348,-1.05274,-0.06664,0.14952,0.49476
0.138365,0,0,14.8616,14.8616,15.1384,15.1384,-0.138365,0.495518,0.648912,0.030271,-0.153064,-0.0404285,0,0,4.4275,0.49,-2.415,-0.00122,-0.138348,-1.05274,-0.0742,0.14434,0.49462
-0.0738238,0,0,15.0738,15.0738,14.9262,14.9262,0.0738238,0.485132,0.659076,-0.0102455,-0.208226,-0.0582524,0,0,4.6025,0.455,-2.59,-0.04209,-0.197152,-1.07043,-0.0742,0.14434,0.49462
-0.282699,0,0,15.2827,15.2827,14.7173,14.7173,0.282699,0.473809,0.669001,-0.0100478,-0.204581,-0.0582621,0,0,4.9525,-0.21,-2.66,-0.04209,-0.197152,-1.07043,-0.0742,0.14434,0.49462
-0.283994,0,0,15.284,15.284,14.716,14.716,0.283994,0.473477,0.666446,0.0607841,-0.0150173,0.131816,1,0,4.2,-0.1575,-2.5025,0.029036,-0.007808,-0.881816,-0.0742,0.14434,0.49462
-0.284792,0,0,15.2848,15.2848,14.7152,14.7152,0.284792,0.473114,0.664191,0.0607904,-0.0150034,0.131816,1,0,3.92,-0.175,-2.3275,0.029036,-0.007808,-0.881816,-0.0742,0.14434,0.49462
-0.284934,0,0,15.2849,15.2849,14.7151,14.7151,0.284934,0.472363,0.661993,0.131873,0.342708,-0.0446148,1,0,3.5525,-0.4025,-2.2925,0.100406,0.34953,-1.05689,-0.0742,0.14434,0.49462
-0.28483,0,0,15.2848,15.2848,14.7152,14.7152,0.28483,0.47167,0.660066,0.131885,0.342707,-0.0446147,1,0,3.4125,-0.3675,-2.135,0.100406,0.34953,-1.05689,-0.0742,0.14434,0.49462
-0.37024,0,0,15.3702,15.3702,14.6298,14.6298,0.37024,0.712408,0.444232,0.181137,-0.0704234,0.113199,0,0,3.8675,0.4025,-1.9425,0.154086,-0.06466,-0.900238,-0.0742,0.14434,0.49462
-0.45389,0,0,15.4539,15.4539,14.5461,14.5461,0.45389,0.945634,0.23504,0.177067,-0.0689641,0.11313,0,0,3.7975,-0.315,-1.3825,0.154086,-0.06466,-0.900238,-0.06832,0.14056,0.49014
-0.455328,0,0,15.4553,15.4553,14.5447,14.5447,0.455328,0.946157,0.23486,0.0199768,-0.131102,0.19489,1,0,4.27,0.35,-1.12,-0.00366,-0.126758,-0.819108,-0.06832,0.14056,0.49014
-0.449658,0,0,15.4497,15.4497,14.5503,14.5503,0.449658,0.946079,0.235245,0.0199781,-0.1312,0.194891,1,0,0.28,0,-0.7875,-0.00366,-0.126758,-0.819108,-0.06832,0.14056,0.49014
-0.411289,0,0,15.4113,15.4113,14.5887,14.5887,0.411289,1.21797,-0.0131537,0.225039,0.0371528,0.0471454,0,0,4.9525,-0.4025,-0.525,0.207034,0.04209,-0.96563,-0.06832,0.14056,0.49014
-0.373396,0,0,15.3734,15.3734,14.6266,14.6266,0.373396,1.48427,-0.260635,0.220393,0.0364909,0.0470403,0,0,4.865,-0.5075,-0.0525,0.207034,0.04209,-0.96563,-0.06832,0.14056,0.49014
-0.375574,0,0,15.3756,15.3756,14.6244,14.6244,0.375574,1.48307,-0.258697,-0.0402945,0.304597,-0.176849,1,0,4.655,-0.6475,0.1225,-0.054778,0.30988,-1.18779,-0.06832,0.14056,0.49014
-0.37804,0,0,15.378,15.378,14.622,14.622,0.37804,1.48215,-0.256457,-0.0402784,0.30464,-0.176848,1,0,4.8125,-0.49,0.2975,-0.054778,0.30988,-1.18779,-0.06832,0.14056,0.49014
-0.379731,0,0,15.3797,15.3797,14.6203,14.6203,0.379731,1.48095,-0.254009,-0.00478365,0.0391661,-0.272871,1,0,4.375,-0.6475,0.42,-0.019154,0.044652,-1.28307,-0.06832,0.14056,0.49014
-0.380954,0,0,15.381,15.381,14.619,14.619,0.380954,1.4811,-0.251582,-0.00478623,0.0391874,-0.272871,1,0,4.1125,0.14,0.4025,-0.019154,0.044652,-1.28307,-0.06832,0.14056,0.49014
-0.5049,0,0,15.5049,15.5049,14.4951,14.4951,0.5049,0.970715,0.208943,-0.40553,-0.106178,0.152705,0,0,4.515,0.455,0.5075,-0.430538,-0.102724,-0.860954,-0.07126,0.14056,0.48776
-0.626542,0,0,15.6265,15.6265,14.3735,14.3735,0.626542,0.46997,0.666353,-0.396791,-0.104054,0.152793,0,0,4.6025,0.525,0.455,-0.430538,-0.102724,-0.860954,-0.07126,0.14056,0.48776
-0.629305,0,0,15.6293,15.6293,14.3707,14.3707,0.629305,0.470028,0.66782,-0.282717,-0.101685,0.249062,1,0,5.005,0.0875,-0.1575,-0.31598,-0.100406,-0.765428,-0.07126,0.14056,0.48776
-0.631474,0,0,15.6315,15.6315,14.3685,14.3685,0.631474,0.471194,0.669028,-0.282738,-0.101647,0.249061,1,0,4.6725,0.735,-0.315,-0.31598,-0.100406,-0.765428,-0.07126,0.14056,0.48776
-0.635756,0,0,15.6358,15.6358,14.3642,14.3642,0.635756,0.470191,0.669193,0.533664,0.265296,-0.250234,1,0,5.8625,-0.5425,-0.91,0.50386,0.266082,-1.26087,-0.07126,0.14056,0.48776
-0.636665,0,0,15.6367,15.6367,14.3633,14.3633,0.636665,0.471073,0.668988,0.533648,0.265312,-0.250234,1,0,3.9725,0.56,-1.1375,0.50386,0.266082,-1.26087,-0.07126,0.14056,0.48776
-0.637686,0,0,15.6377,15.6377,14.3623,14.3623,0.637686,0.470956,0.667423,0.291894,0.0618668,-0.112409,1,0,4.0425,-0.035,-1.925,0.26108,0.06283,-1.12411,-0.07126,0.14056,0.48776
-0.637459,0,0,15.6375,15.6375,14.3625,14.3625,0.637459,0.470899,0.665769,0.291895,0.0618628,-0.112409,1,0,3.3425,0,-1.9775,0.26108,0.06283,-1.12411,-0.07126,0.14056,0.48776
-0.637324,0,0,15.6373,15.6373,14.3627,14.3627,0.637324,0.471979,0.663917,0.0425874,0.209023,-0.0840077,1,0,3.395,0.665,-2.1,0.010736,0.20984,-1.09593,-0.06972,0.1407,0.4914
-0.518947,0,0,15.5189,15.5189,14.4811,14.4811,0.518947,0.610021,0.544523,0.121331,0.115362,-0.0254861,0,0,4.4275,0.5075,-2.17,0.092232,0.11834,-1.03785,-0.06972,0.1407,0.4914
-0.403531,0,0,15.4035,15.4035,14.5965,14.5965,0.403531,0.745671,0.424177,0.118963,0.113348,-0.0254979,0,0,4.8825,0.7175,-2.555,0.092232,0.11834,-1.03785,-0.06972,0.1407,0.4914
-0.406031,0,0,15.406,15.406,14.594,14.594,0.406031,0.746091,0.421686,0.460209,-0.0799354,-0.154717,1,0,4.8825,0.28,-2.4675,0.43493,-0.074786,-1.16608,-0.06972,0.1407,0.4914
-0.407569,0,0,15.4076,15.4076,14.5924,14.5924,0.407569,0.745822,0.419551,0.460214,-0.0799086,-0.154717,1,0,4.34,-0.1225,-2.2575,0.43493,-0.074786,-1.16608,-0.06972,0.1407,0.4914
-0.408391,0,0,15.4084,15.4084,14.5916,14.5916,0.408391,0.746,0.417598,0.0245632,-0.243422,-0.166029,1,0,3.9375,0.14,-2.1525,-0.002562,-0.238144,-1.1773,-0.06972,0.1407,0.4914
-0.4074,0,0,15.4074,15.4074,14.5926,14.5926,0.4074,0.745312,0.41546,0.0245752,-0.243439,-0.166028,1,0,2.9225,-0.3675,-2.2575,-0.002562,-0.238144,-1.1773,-0.06972,0.1407,0.4914
-0.59612,0,0,15.5961,15.5961,14.4039,14.4039,0.59612,0.895932,0.281967,0.136386,-0.189219,-0.0381056,0,0,2.52,-0.2275,-1.8375,0.112362,-0.18727,-1.0503,-0.06972,0.1407,0.4914
-0.782129,0,0,15.7821,15.7821,14.2179,14.2179,0.782129,1.04648,0.164959,0.133759,-0.185974,-0.0381891,0,0,2.9225,0.105,-1.155,0.112362,-0.18727,-1.0503,-0.06888,0.13146,0.48188
-0.490448,0,0,15.4904,15.4904,14.5096,14.5096,0.490448,1.2421,-0.00804039,0.167641,0.272529,0.0498303,0,0,3.6225,0.2275,-0.8225,0.149816,0.275842,-0.962946,-0.06888,0.13146,0.48188
-0.204367,0,0,15.2044,15.2044,14.7956,14.7956,0.204367,1.43379,-0.181899,0.164297,0.267537,0.0497825,0,0,3.9025,0.0875,-0.4725,0.149816,0.275842,-0.962946,-0.06888,0.13146,0.48188
-0.205594,0,0,15.2056,15.2056,14.7944,14.7944,0.205594,1.4338,-0.180433,0.374103,0.245697,-0.201401,1,0,4.13,0.0525,-0.1575,0.36051,0.254004,-1.21219,-0.06888,0.13146,0.48188
-0.207693,0,0,15.2077,15.2077,14.7923,14.7923,0.207693,1.43309,-0.17909,0.374115,0.245734,-0.201401,1,0,4.62,-0.3675,-0.2275,0.36051,0.254004,-1.21219,-0.06888,0.13146,0.48188
-0.208577,0,0,15.2086,15.2086,14.7914,14.7914,0.208577,1.43277,-0.177625,0.0122146,-0.161421,-0.173246,1,0,3.9375,-0.14,-0.1575,-0.002928,-0.152744,-1.18425,-0.06888,0.13146,0.48188
-0.210031,0,0,15.21,15.21,14.79,14.79,0.210031,1.43125,-0.175835,0.012241,-0.161396,-0.173245,1,0,4.2525,-0.84,0.035,-0.002928,-0.152744,-1.18425,-0.06888,0.13146,0.48188
-0.716472,0,0,15.7165,15.7165,14.2835,14.2835,0.716472,0.723309,0.48733,-0.615513,-0.476803,0.359897,0,0,3.185,-0.1575,0.1575,-0.645746,-0.476654,-0.655384,-0.06888,0.13146,0.48188
-1.21626,0,0,16.2163,16.2163,13.7837,13.7837,1.21626,0.0269375,1.13661,-0.60336,-0.468081,0.35983,0,0,3.22,0.735,-0.0175,-0.645746,-0.476654,-0.655384,-0.06818,0.1316,0.48062
-1.21571,0,0,16.2157,16.2157,13.7843,13.7843,1.21571,0.0267574,1.13873,0.373996,0.114821,-0.129259,1,0,3.15,-0.035,0.2275,0.335744,0.105652,-1.1407,-0.06818,0.1316,0.48062
-1.21531,0,0,16.2153,16.2153,13.7847,13.7847,1.21531,0.0268346,1.13998,0.373994,0.114814,-0.129259,1,0,3.2375,0.105,-0.28,0.335744,0.105652,-1.1407,-0.06818,0.1316,0.48062
-1.14059,0,0,16.1406,16.1406,13.8594,13.8594,1.14059,0.284242,0.936042,0.222383,0.071498,0.0111627,0,0,3.78,-0.42,-0.665,0.188002,0.063684,-1.00138,-0.06818,0.1316,0.48062
-1.0673,0,0,16.0673,16.0673,13.9327,13.9327,1.0673,0.537411,0.731529,0.217964,0.0702185,0.0111557,0,0,3.8675,0.07,-0.8925,0.188002,0.063684,-1.00138,-0.06818,0.1316,0.48062
-1.15617,0,0,16.1562,16.1562,13.8438,13.8438,1.15617,0.548021,0.743447,0.00918804,-0.0917585,-0.0848989,0,0,3.605,-0.1575,-0.9625,-0.021472,-0.099674,-1.09666,-0.06818,0.1316,0.48062
-1.24236,0,0,16.2424,16.2424,13.7576,13.7576,1.24236,0.557786,0.754986,0.00901763,-0.0902546,-0.0849321,0,0,3.0275,-0.5075,-1.155,-0.021472,-0.099674,-1.09666,-0.06818,0.1316,0.48062
-1.24111,0,0,16.2411,16.2411,13.7589,13.7589,1.24111,0.556443,0.754202,-0.0192651,0.0562757,0.212727,1,0,2.765,-0.7525,-1.4525,-0.049898,0.046726,-0.801296,-0.06818,0.1316,0.48062
-1.23966,0,0,16.2397,16.2397,13.7603,13.7603,1.23966,0.556465,0.752429,-0.0192655,0.0562504,0.212727,1,0,2.66,0.035,-2.0475,-0.049898,0.046726,-0.801296,-0.06636,0.13272,0.48314
-1.2375,0,0,16.2375,16.2375,13.7625,13.7625,1.2375,0.55705,0.750937,0.0499712,-0.000209872,0.165147,1,0,2.2575,0.3675,-1.89,0.019642,-0.009638,-0.84851,-0.06636,0.13272,0.48314
-1.23653,0,0,16.2365,16.2365,13.7635,13.7635,1.23653,0.557831,0.75002,0.0499575,-0.000226832,0.165147,1,0,2.9225,0.49,-1.5575,0.019642,-0.009638,-0.84851,-0.06636,0.13272,0.48314
-1.23671,0,0,16.2367,16.2367,13.7633,13.7633,1.23671,0.55817,0.748793,0.202052,0.269799,-0.0955036,1,0,3.57,0.2275,-1.7325,0.172386,0.260104,-1.10715,-0.06636,0.13272,0.48314
-1.23733,0,0,16.2373,16.2373,13.7627,13.7627,1.23733,0.559159,0.747941,0.202034,0.269809,-0.095504,1,0,3.815,0.6125,-1.5225,0.172386,0.260104,-1.10715,-0.06636,0.13272,0.48314
-1.23817,0,0,16.2382,16.2382,13.7618,13.7618,1.23817,0.559526,0.746835,-0.103508,-0.140644,-0.29087,1,0,3.9375,0.245,-1.6625,-0.134444,-0.149938,-1.30101,-0.06636,0.13272,0.48314
-1.23782,0,0,16.2378,16.2378,13.7622,13.7622,1.23782,0.560182,0.746185,-0.10352,-0.14065,-0.290869,1,0,3.2725,0.42,-1.4,-0.134444,-0.149938,-1.30101,-0.06636,0.13272,0.48314
-1.23695,0,0,16.2369,16.2369,13.7631,13.7631,1.23695,0.560628,0.74556,0.104699,0.0540047,-0.282386,1,0,2.975,0.2975,-1.3825,0.074664,0.04453,-1.29259,-0.06636,0.13272,0.48314
-1.23379,0,0,16.2338,16.2338,13.7662,13.7662,1.23379,0.561071,0.745086,0.104691,0.0539497,-0.282385,1,0,1.6975,0.2975,-1.295,0.074664,0.04453,-1.29259,-0.07238,0.133,0.48006
-1.23083,0,0,16.2308,16.2308,13.7692,13.7692,1.23083,0.560588,0.744591,0.438178,0.354208,-0.140747,1,0,1.8025,-0.245,-1.295,0.409554,0.344528,-1.15205,-0.07238,0.133,0.48006
-1.22936,0,0,16.2294,16.2294,13.7706,13.7706,1.22936,0.559712,0.744298,0.438193,0.354182,-0.140746,1,0,2.6425,-0.4725,-1.1725,0.409554,0.344528,-1.15205,-0.07238,0.133,0.48006
-1.39307,0,0,16.3931,16.3931,13.6069,13.6069,1.39307,0.474224,0.840689,-0.0772367,-0.161634,-0.0173578,0,0,2.2225,0.2975,-1.2425,-0.109556,-0.173606,-1.02956,-0.07238,0.133,0.48006
-1.55758,0,0,16.5576,16.5576,13.4424,13.4424,1.55758,0.389089,0.936178,-0.0757508,-0.158763,-0.0174205,0,0,4.3575,-0.49,-1.295,-0.109556,-0.173606,-1.02956,-0.07238,0.133,0.48006
-1.66068,0,0,16.6607,16.6607,13.3393,13.3393,1.66068,-0.296487,1.56104,-0.557139,-0.092237,0.222042,0,0,3.2375,0.5775,-1.4525,-0.604998,-0.108946,-0.791902,-0.07238,0.133,0.48006
-1.76178,0,0,16.7618,16.7618,13.2382,13.2382,1.76178,-0.970987,2.18165,-0.545367,-0.0904772,0.221859,0,0,3.3425,0.2275,-1.645,-0.604998,-0.108946,-0.791902,-0.07238,0.133,0.48006
-1.60317,0,0,16.6032,16.6032,13.3968,13.3968,1.60317,-1.04667,2.29267,-0.0549452,0.145269,0.0383554,0,0,3.675,0.245,-1.4875,-0.113826,0.12932,-0.974048,-0.07238,0.133,0.48006
-1.44628,0,0,16.4463,16.4463,13.5537,13.5537,1.44628,-1.12086,2.40427,-0.0536505,0.142532,0.0384038,0,0,3.0275,0.1575,-1.2775,-0.113826,0.12932,-0.974048,-0.07238,0.133,0.48006
-1.44577,0,0,16.4458,16.4458,13.5542,13.5542,1.44577,-1.12197,2.4037,0.12556,-0.145208,-0.116143,1,0,3.1675,-0.6125,-1.33,0.066124,-0.158112,-1.1274,-0.07462,0.13538,0.48636
-1.4449,0,0,16.4449,16.4449,13.5551,13.5551,1.4449,-1.12323,2.40351,0.103229,-0.101502,-0.118356,1,0,2.975,-0.7,-1.1025,0.043676,-0.114436,-1.1296,-0.07462,0.13538,0.48636
-1.44438,0,0,16.4444,16.4444,13.5556,13.5556,1.44438,-1.12468,2.40332,0.103254,-0.101511,-0.118356,1,0,3.1675,-0.805,-1.1025,0.043676,-0.114436,-1.1296,-0.07462,0.13538,0.48636
-1.4442,0,0,16.4442,16.4442,13.5558,13.5558,1.4442,-1.12571,2.40335,0.261446,-0.0842942,0.139958,1,0,3.36,-0.56,-0.98,0.20252,-0.097234,-0.873276,-0.07462,0.13538,0.48636
-1.44313,0,0,16.4431,16.4431,13.5569,13.5569,1.44313,-1.12586,2.40392,0.261449,-0.0843128,0.139959,1,0,2.87,-0.035,-0.6825,0.20252,-0.097234,-0.873276,-0.07462,0.13538,0.48636
-1.4414,0,0,16.4414,16.4414,13.5586,13.5586,1.4414,-1.12566,2.40491,-0.217937,-0.204271,-0.183887,1,0,2.5025,0.175,-0.4375,-0.278892,-0.217038,-1.19462,-0.07462,0.13538,0.48636
-1.43997,0,0,16.44,16.44,13.56,13.56,1.43997,-1.125,2.40642,-0.217948,-0.204296,-0.183886,1,0,2.6775,0.455,-0.14,-0.278892,-0.217038,-1.19462,-0.07462,0.13538,0.48636
-1.438,0,0,16.438,16.438,13.562,13.562,1.438,-1.12512,2.40821,-0.492504,-0.0778074,-0.0751985,1,0,2.38,0,0.035,-0.554612,-0.090646,-1.08678,-0.07462,0.13538,0.48636
-1.43815,0,0,16.4382,16.4382,13.5618,13.5618,1.43815,-1.12405,2.41019,-0.492523,-0.0778047,-0.0751982,1,0,3.57,0.7,0.1225,-0.554612,-0.090646,-1.08678,-0.0735,0.13286,0.48216
-1.52093,0,0,16.5209,16.5209,13.4791,13.4791,1.52093,-1.01068,2.35549,0.0988351,-0.0868627,-0.0892147,0,0,3.675,0.2275,0.0525,0.041236,-0.101138,-1.10068,-0.0735,0.13286,0.48216
-1.60233,0,0,16.6023,16.6023,13.3977,13.3977,1.60233,-0.899346,2.30056,0.0968922,-0.0854418,-0.0892211,0,0,3.7625,0.4375,-0.3325,0.041236,-0.101138,-1.10068,-0.0735,0.13286,0.48216
-1.6021,0,0,16.6021,16.6021,13.3979,13.3979,1.6021,-0.899903,2.30174,0.316913,0.184576,-0.200612,1,0,3.3425,-0.2625,-0.315,0.262178,0.168604,-1.21122,-0.0735,0.13286,0.48216
-1.60097,0,0,16.601,16.601,13.399,13.399,1.60097,-0.899166,2.30259,0.3169,0.184557,-0.200612,1,0,2.835,0.49,-0.525,0.262178,0.168604,-1.21122,-0.0735,0.13286,0.48216
-1.6016,0,0,16.6016,16.6016,13.3984,13.3984,1.6016,-0.898917,2.30278,0.0366278,0.490251,-0.083442,1,0,3.815,0.1925,-0.91,-0.019276,0.47397,-1.09495,-0.0735,0.13286,0.48216
-1.60027,0,0,16.6003,16.6003,13.3997,13.3997,1.60027,-0.898319,2.30219,0.0366174,0.490228,-0.0834412,1,0,2.7125,0.385,-1.365,-0.019276,0.47397,-1.09495,-0.0735,0.13286,0.48216
-1.60154,0,0,16.6015,16.6015,13.3985,13.3985,1.60154,-0.89675,2.30109,-0.244528,0.024092,-0.235037,1,0,4.165,0.945,-1.68,-0.301584,0.008296,-1.24538,-0.0735,0.13286,0.48216
-1.6026,0,0,16.6026,16.6026,13.3974,13.3974,1.6026,-0.895782,2.29907,-0.244545,0.0241106,-0.235037,1,0,4.0425,0.5775,-2.205,-0.301584,0.008296,-1.24538,-0.07028,0.133,0.48496
-1.5309,0,0,16.5309,16.5309,13.4691,13.4691,1.5309,-0.836193,2.28639,0.0546065,0.0711002,-0.0629823,0,0,3.815,0.5775,-2.38,-0.000122,0.056486,-1.0747,-0.07028,0.133,0.48496
-1.45371,0,0,16.4537,16.4537,13.5463,13.5463,1.45371,-0.777946,2.27278,0.05359,0.0697539,-0.0629329,0,0,0,0.455,-2.87,-0.000122,0.056486,-1.0747,-0.07028,0.133,0.48496
-1.45307,0,0,16.4531,16.4531,13.5469,13.5469,1.45307,-0.776977,2.26932,-0.29582,-0.0622761,-0.0725224,1,0,3.08,0.56,-3.045,-0.350994,-0.075396,-1.08421,-0.07028,0.133,0.48496
-1.45271,0,0,16.4527,16.4527,13.5473,13.5473,1.45271,-0.777243,2.26622,-0.295815,-0.0622824,-0.0725223,1,0,3.2375,-0.1575,-2.8175,-0.350994,-0.075396,-1.08421,-0.07028,0.133,0.48496
-1.60307,0,0,16.6031,16.6031,13.3969,13.3969,1.60307,-0.874754,2.3854,-0.0817564,-0.132325,0.0709871,0,0,3.7275,-0.28,-2.6425,-0.137738,-0.147986,-0.941718,-0.07028,0.133,0.48496
-1.75904,0,0,16.759,16.759,13.241,13.241,1.75904,-0.970822,2.50409,-0.08008,-0.129606,0.0708802,0,0,8.4,-0.525,-2.4325,-0.137738,-0.147986,-0.941718,-0.07028,0.133,0.48496
-1.76166,0,0,16.7617,16.7617,13.2383,13.2383,1.76166,-0.971592,2.50239,-0.0181088,-0.088281,-0.130511,1,0,4.9175,-0.4375,-1.995,-0.075518,-0.10675,-1.14155,-0.07028,0.133,0.48496
-1.76408,0,0,16.7641,16.7641,13.2359,13.2359,1.76408,-0.972108,2.50215,-0.0180998,-0.0882389,-0.130512,1,0,4.8125,-0.2625,-1.1375,-0.075518,-0.10675,-1.14155,-0.06734,0.13048,0.48594
-1.7677,0,0,16.7677,16.7677,13.2323,13.2323,1.7677,-0.973231,2.50221,0.382823,0.0305315,-0.0587128,1,0,5.495,-0.6125,-0.9625,0.327082,0.011834,-1.07031,-0.06734,0.13048,0.48594
-1.77033,0,0,16.7703,16.7703,13.2297,13.2297,1.77033,-0.975058,2.50377,0.382854,0.0305774,-0.0587148,1,0,4.9525,-0.9975,-0.07,0.327082,0.011834,-1.07031,-0.06734,0.13048,0.48594
-1.77214,0,0,16.7721,16.7721,13.2279,13.2279,1.77214,-0.975804,2.50611,0.115599,0.0704222,0.120297,1,0,4.4975,-0.35,0.3675,0.058682,0.051606,-0.892674,-0.06734,0.13048,0.48594
-1.77349,0,0,16.7735,16.7735,13.2265,13.2265,1.77349,-0.976879,2.50946,0.115618,0.0704458,0.120296,1,0,4.2525,-0.525,0.9625,0.058682,0.051606,-0.892674,-0.06734,0.13048,0.48594
-1.81832,0,0,16.8183,16.8183,13.1817,13.1817,1.81832,-0.417767,2.05364,0.497044,-0.0405145,0.0773582,0,0,4.1475,-0.735,1.295,0.451522,-0.060024,-0.935374,-0.06734,0.13048,0.48594
-1.86106,0,0,16.8611,16.8611,13.1389,13.1389,1.86106,0.130476,1.59998,0.487475,-0.0397682,0.0773582,0,0,3.6225,-1.19,1.6625,0.451522,-0.060024,-0.935374,-0.06734,0.13048,0.48594
-1.8607,0,0,16.8607,16.8607,13.1393,13.1393,1.8607,0.130346,1.60444,-0.0589649,-0.175091,0.206454,1,0,3.255,0.0525,1.5925,-0.097234,-0.1952,-0.807274,-0.06734,0.13048,0.48594
-1.86149,0,0,16.8615,16.8615,13.1385,13.1385,1.86149,0.130285,1.60861,-0.0589638,-0.175077,0.206454,1,0,3.9025,0.0875,1.4175,-0.097234,-0.1952,-0.807274,-0.06762,0.13286,0.48622
-1.86288,0,0,16.8629,16.8629,13.1371,13.1371,1.86288,0.13081,1.61219,0.111471,-0.423825,-0.0490339,1,0,4.235,0.42,1.0675,0.073932,-0.443714,-1.06079,-0.06762,0.13286,0.48622
-1.86607,0,0,16.8661,16.8661,13.1339,13.1339,1.86607,0.131529,1.6144,0.111459,-0.423769,-0.0490357,1,0,5.25,0.5075,0.2625,0.073932,-0.443714,-1.06079,-0.06762,0.13286,0.48622
-1.70072,0,0,16.7007,16.7007,13.2993,13.2993,1.70072,0.3499,1.44396,0.171306,0.149784,0.115174,0,0,5.6175,0.1225,-0.3325,0.13786,0.132126,-0.89792,-0.06762,0.13286,0.48622
-1.53691,0,0,16.5369,16.5369,13.4631,13.4631,1.53691,0.565601,1.2706,0.167542,0.146925,0.115225,0,0,4.8825,0.9625,-1.5925,0.13786,0.132126,-0.89792,-0.06762,0.13286,0.48622
-1.53939,0,0,16.5394,16.5394,13.4606,13.4606,1.53939,0.566658,1.26849,0.209679,-0.049045,-0.121083,1,0,4.865,0.63,-2.2575,0.180194,-0.063684,-1.1324,-0.06762,0.13286,0.48622
-1.54157,0,0,16.5416,16.5416,13.4584,13.4584,1.54157,0.567241,1.26512,0.209668,-0.0490068,-0.121084,1,0,4.7075,0.3325,-2.9925,0.180194,-0.063684,-1.1324,-0.06762,0.13286,0.48622
-1.54294,0,0,16.5429,16.5429,13.4571,13.4571,1.54294,0.567854,1.26066,-0.237531,0.125536,-0.078545,1,0,4.2525,0.3325,-3.6225,-0.268888,0.110654,-1.09019,-0.06762,0.13286,0.48622
-1.54454,0,0,16.5445,16.5445,13.4555,13.4555,1.54454,0.569066,1.25502,-0.237552,0.125564,-0.078546,1,0,4.3925,0.665,-4.3225,-0.268888,0.110654,-1.09019,-0.06482,0.13258,0.47866
-1.5457,0,0,16.5457,16.5457,13.4543,13.4543,1.5457,0.570677,1.24899,-0.0524361,-0.261191,-0.10412,1,0,4.1475,0.8925,-4.55,-0.08296,-0.27572,-1.11557,-0.06482,0.13258,0.47866
-1.54834,0,0,16.5483,16.5483,13.4517,13.4517,1.54834,0.571446,1.24319,-0.0524496,-0.261145,-0.104121,1,0,4.97,0.4025,-4.41,-0.08296,-0.27572,-1.11557,-0.06482,0.13258,0.47866
-1.54957,0,0,16.5496,16.5496,13.4504,13.4504,1.54957,0.573239,1.23819,-0.279052,-0.095764,0.178167,1,0,4.1825,1.015,-3.955,-0.31049,-0.110532,-0.835456,-0.06482,0.13258,0.47866
-1.55073,0,0,16.5507,16.5507,13.4493,13.4493,1.55073,0.574397,1.23456,-0.279072,-0.0957439,0.178167,1,0,4.13,0.665,-3.15,-0.31049,-0.110532,-0.835456,-0.06482,0.13258,0.47866
-1.33212,0,0,16.3321,16.3321,13.6679,13.6679,1.33212,0.63856,1.18934,0.0593608,0.21504,-0.00678673,0,0,4.34,0.49,-2.765,0.0305,0.20374,-1.01907,-0.06482,0.13258,0.47866
-1.11781,0,0,16.1178,16.1178,13.8822,13.8822,1.11781,0.700894,1.14529,0.058273,0.211301,-0.00671949,0,0,4.5675,0.14,-1.9075,0.0305,0.20374,-1.01907,-0.06482,0.13258,0.47866
-1.1197,0,0,16.1197,16.1197,13.8803,13.8803,1.1197,0.701196,1.14586,0.272811,0.18813,-0.244257,1,0,4.515,0.2275,-0.6825,0.245952,0.18056,-1.25477,-0.06482,0.13258,0.47866
-1.12158,0,0,16.1216,16.1216,13.8784,13.8784,1.12158,0.701498,1.14643,0.272806,0.188162,-0.244257,1,0,4.515,0.2275,-0.6825,0.245952,0.18056,-1.25477,-0.06482,0.13258,0.47866
-0.947127,0,0,15.9471,15.9471,14.0529,14.0529,0.947127,0.832539,1.0498,0.12583,0.1795,-0.0515728,0,0,4.48,-0.525,0.9625,0.10065,0.174948,-1.0636,-0.07182,0.12894,0.47362
-0.742898,0,0,15.7429,15.7429,14.2571,14.2571,0.742898,1.02118,0.898802,0.176356,0.206467,-0.0200986,0,0,4.06,-0.525,1.5225,0.154696,0.205448,-1.03236,-0.07182,0.12894,0.47362
-0.542865,0,0,15.5429,15.5429,14.4571,14.4571,0.542865,1.20665,0.748286,0.173119,0.202976,-0.0201224,0,0,4.41,-0.2975,2.31,0.154696,0.205448,-1.03236,-0.07182,0.12894,0.47362
-0.543666,0,0,15.5437,15.5437,14.4563,14.4563,0.543666,1.20605,0.753526,-0.0657109,-0.114783,-0.104219,1,0,3.85,-0.28,2.0475,-0.085156,-0.111996,-1.11581,-0.07182,0.12894,0.47362
-0.543613,0,0,15.5436,15.5436,14.4564,14.4564,0.543613,1.2048,0.758159,-0.065689,-0.114784,-0.104219,1,0,3.3775,-0.665,1.6975,-0.085156,-0.111996,-1.11581,-0.07182,0.12894,0.47362
-0.542205,0,0,15.5422,15.5422,14.4578,14.4578,0.542205,1.204,0.762227,-0.235876,-0.00611615,-0.135078,1,0,2.625,-0.4025,1.365,-0.256078,-0.003416,-1.14643,-0.07182,0.12894,0.47362
-0.540796,0,0,15.5408,15.5408,14.4592,14.4592,0.540796,1.2032,0.766295,-0.235862,-0.00614072,-0.135078,1,0,2.625,-0.4025,1.365,-0.256078,-0.003416,-1.14643,-0.07182,0.12894,0.47362
-0.384595,0,0,15.3846,15.3846,14.6154,14.6154,0.384595,1.31118,0.679915,0.0861341,0.13964,0.0922348,0,0,4.27,-0.0175,0.14,0.069174,0.144936,-0.920856,-0.07182,0.12894,0.47362
-0.231166,0,0,15.2312,15.2312,14.7688,14.7688,0.231166,1.41806,0.584877,0.0842692,0.136962,0.0922048,0,0,4.27,-0.0175,0.14,0.069174,0.144936,-0.920856,-0.07,0.13412,0.4788
-0.234945,0,0,15.2349,15.2349,14.7651,14.7651,0.234945,1.41731,0.58349,-0.144597,-0.0379794,0.132778,1,0,5.6,-0.4025,-1.82,-0.160674,-0.02989,-0.880596,-0.07,0.13412,0.4788
-0.238724,0,0,15.2387,15.2387,14.7613,14.7613,0.238724,1.41655,0.582102,-0.144583,-0.0379135,0.132778,1,0,5.6,-0.4025,-1.82,-0.160674,-0.02989,-0.880596,-0.07,0.13412,0.4788
-0.162614,0,0,15.1626,15.1626,14.8374,14.8374,0.162614,1.60797,0.403939,0.1598,0.0737256,0.0552368,0,0,5.6,0.1925,-3.08,0.148352,0.08296,-0.957456,-0.07,0.13412,0.4788
-0.161903,0,0,15.1619,15.1619,14.8381,14.8381,0.161903,1.60812,0.399585,0.045115,-0.160526,-0.202217,1,0,3.1325,0.1225,-3.5525,0.033184,-0.151036,-1.21292,-0.07,0.13412,0.4788
-0.160485,0,0,15.1605,15.1605,14.8395,14.8395,0.160485,1.60913,0.395593,0.0450973,-0.160551,-0.202218,1,0,2.73,0.63,-3.3425,0.033184,-0.151036,-1.21292,-0.07,0.13412,0.4788
-0.354878,0,0,15.3549,15.3549,14.6451,14.6451,0.354878,1.85545,0.169657,0.219992,-0.191844,0.0269359,0,0,2.8175,-0.035,-3.255,0.213134,-0.185684,-0.985394,-0.07,0.13412,0.4788
-0.547397,0,0,15.5474,15.5474,14.4526,14.4526,0.547397,2.09728,-0.054025,0.215773,-0.188487,0.0267639,0,0,3.675,0.1225,-3.0975,0.213134,-0.185684,-0.985394,-0.07,0.13412,0.4788
-0.547962,0,0,15.548,15.548,14.452,14.452,0.547962,2.0976,-0.0574773,-0.0202789,0.141143,-0.12852,1,0,3.85,0.21,-3.0275,-0.023912,0.143594,-1.13948,-0.06818,0.13132,0.48048
-0.534191,0,0,15.5342,15.5342,14.4658,14.4658,0.534191,1.94239,0.0760637,-0.14173,0.0135253,-0.0456782,0,0,3.6575,0.56,-2.1525,-0.148596,0.016348,-1.05737,-0.06818,0.13132,0.48048
-0.519758,0,0,15.5198,15.5198,14.4802,14.4802,0.519758,1.79042,0.210874,-0.139079,0.0132743,-0.0455895,0,0,3.1325,0.6825,-1.3125,-0.148596,0.016348,-1.05737,-0.06818,0.13132,0.48048
-0.481818,0,0,15.4818,15.4818,14.5182,14.5182,0.481818,1.91912,0.0930937,0.118777,0.0370372,-0.0462712,0,0,2.9925,1.0675,-1.1725,0.112606,0.040748,-1.05798,-0.06818,0.13132,0.48048
-0.446302,0,0,15.4463,15.4463,14.5537,14.5537,0.446302,2.04496,-0.0231112,0.116582,0.0364171,-0.0463421,0,0,3.955,0.875,-0.2975,0.112606,0.040748,-1.05798,-0.06818,0.13132,0.48048
-0.520491,0,0,15.5205,15.5205,14.4795,14.4795,0.520491,1.96762,0.0476801,-0.0667275,-0.064875,0.0627495,0,0,4.27,0.9625,0.0875,-0.072834,-0.061732,-0.94977,-0.06818,0.13132,0.48048
-0.593254,0,0,15.5933,15.5933,14.4067,14.4067,0.593254,1.89014,0.118723,-0.065376,-0.0636053,0.0627827,0,0,4.2175,-0.0175,0.455,-0.072834,-0.061732,-0.94977,-0.06818,0.13132,0.48048
-0.67787,0,0,15.6779,15.6779,14.3221,14.3221,0.67787,1.92377,0.0875941,0.0273384,-0.0758078,0.0487307,0,0,4.13,-0.3325,0.49,0.020862,-0.075396,-0.963678,-0.06874,0.13286,0.47852
-0.676952,0,0,15.677,15.677,14.323,14.323,0.676952,1.92342,0.0907967,0.121374,0.0659653,-0.216592,1,0,2.8875,-0.14,0.8575,0.11529,0.066246,-1.22695,-0.06874,0.13286,0.47852
-0.673936,0,0,15.6739,15.6739,14.3261,14.3261,0.673936,1.92345,0.0937938,0.121374,0.0659127,-0.216591,1,0,1.715,0.0875,0.735,0.11529,0.066246,-1.22695,-0.06874,0.13286,0.47852
-0.670412,0,0,15.6704,15.6704,14.3296,14.3296,0.670412,1.92406,0.0965276,0.279173,-0.203927,-0.194952,1,0,1.435,0.42,0.5775,0.273768,-0.203252,-1.20548,-0.06874,0.13286,0.47852
-0.669355,0,0,15.6694,15.6694,14.3306,14.3306,0.669355,1.9234,0.0983762,0.279185,-0.203945,-0.194951,1,0,2.835,-0.3325,0.07,0.273768,-0.203252,-1.20548,-0.06874,0.13286,0.47852
-0.67156,0,0,15.6716,15.6716,14.3284,14.3284,0.67156,1.92286,0.0997461,-0.0828333,0.136338,-0.0994204,1,0,4.6725,-0.2625,-0.21,-0.089792,0.13664,-1.11069,-0.06874,0.13286,0.47852
-0.675129,0,0,15.6751,15.6751,14.3249,14.3249,0.675129,1.92332,0.0999274,-0.0828413,0.136401,-0.0994214,1,0,5.46,0.315,-0.91,-0.089792,0.13664,-1.11069,-0.06874,0.13286,0.47852
-0.678698,0,0,15.6787,15.6787,14.3213,14.3213,0.678698,1.92331,0.0991729,-0.0182108,-0.281699,0.175982,1,0,5.4775,0.035,-1.4525,-0.024888,-0.281088,-0.837408,-0.06874,0.13286,0.47852
-0.679278,0,0,15.6793,15.6793,14.3207,14.3207,0.679278,1.92293,0.0977238,-0.018204,-0.281689,0.175983,1,0,3.815,-0.1925,-1.855,-0.024888,-0.281088,-0.837408,-0.06846,0.13146,0.47852
-0.678008,0,0,15.678,15.678,14.322,14.322,0.678008,1.92281,0.0960078,-0.0318084,-0.0760497,0.325734,1,0,2.7825,-0.035,-2.0125,-0.038552,-0.07564,-0.688812,-0.06846,0.13146,0.47852
-0.676738,0,0,15.6767,15.6767,14.3233,14.3233,0.676738,1.9227,0.0942918,-0.0318064,-0.0760718,0.325734,1,0,2.7825,-0.035,-2.0125,-0.038552,-0.07564,-0.688812,-0.06846,0.13146,0.47852
-0.722233,0,0,15.7222,15.7222,14.2778,14.2778,0.722233,1.95622,0.0591655,0.0357624,-0.0523187,-0.0926887,0,0,1.8375,-0.1575,-2.5375,0.02989,-0.052704,-1.10398,-0.06846,0.13146,0.47852
-0.766911,0,0,15.7669,15.7669,14.2331,14.2331,0.766911,1.98907,0.02414,0.0351892,-0.0515397,-0.0927186,0,0,1.8375,-0.1575,-2.5375,0.02989,-0.052704,-1.10398,-0.06846,0.13146,0.47852
-0.765737,0,0,15.7657,15.7657,14.2343,14.2343,0.765737,1.98791,0.0207591,-0.153458,0.117463,-0.177921,1,0,2.87,-0.665,-2.975,-0.159576,0.116144,-1.18852,-0.06846,0.13146,0.47852
-0.764564,0,0,15.7646,15.7646,14.2354,14.2354,0.764564,1.98674,0.0173783,-0.153437,0.117443,-0.17792,1,0,2.87,-0.665,-2.975,-0.159576,0.116144,-1.18852,-0.06846,0.13146,0.47852
-0.808777,0,0,15.8088,15.8088,14.1912,14.1912,0.808777,1.84254,0.143821,-0.122251,-0.0414046,0.0514525,0,0,2.66,0.4025,-1.9775,-0.130784,-0.04331,-0.960994,-0.06846,0.13146,0.47852
-0.852165,0,0,15.8522,15.8522,14.1478,14.1478,0.852165,1.70074,0.274869,-0.119778,-0.0406466,0.051518,0,0,2.66,0.4025,-1.9775,-0.130784,-0.04331,-0.960994,-0.07224,0.12852,0.47866
-1.11228,0,0,16.1123,16.1123,13.8877,13.8877,1.11228,1.61247,0.366971,-0.0768111,-0.236152,0.0948856,0,0,2.2925,0.63,-1.5925,-0.089182,-0.243146,-0.917928,-0.07224,0.12852,0.47866
-1.10969,0,0,16.1097,16.1097,13.8903,13.8903,1.10969,1.61428,0.366762,0.155438,-0.139473,-0.0735539,1,0,2.0125,1.1025,-1.155,0.144082,-0.146522,-1.08507,-0.07224,0.12852,0.47866
-1.10782,0,0,16.1078,16.1078,13.8922,13.8922,1.10782,1.61556,0.367682,0.155416,-0.139506,-0.0735539,1,0,2.3975,0.805,-0.49,0.144082,-0.146522,-1.08507,-0.07224,0.12852,0.47866
-1.10701,0,0,16.107,16.107,13.893,13.893,1.10701,1.61571,0.368671,0.172664,0.370359,-0.101955,1,0,2.9925,0.14,-0.4375,0.161406,0.362828,-1.11325,-0.07224,0.12852,0.47866
-1.10413,0,0,16.1041,16.1041,13.8959,13.8959,1.10413,1.61511,0.370726,0.172674,0.370309,-0.101954,1,0,1.82,-0.28,0.1925,0.161406,0.362828,-1.11325,-0.07224,0.12852,0.47866
-0.994473,0,0,15.9945,15.9945,14.0055,14.0055,0.994473,1.22757,0.723539,-0.342466,0.104606,0.0389024,0,0,2.1525,0.07,0.2275,-0.362706,0.099308,-0.973682,-0.07224,0.12852,0.47866
-0.886844,0,0,15.8868,15.8868,14.1132,14.1132,0.886844,0.84755,1.07784,-0.335835,0.10273,0.0390533,0,0,2.3625,0.28,0.665,-0.362706,0.099308,-0.973682,-0.07224,0.12852,0.47866
-0.982909,0,0,15.9829,15.9829,14.0171,14.0171,0.982909,0.998498,0.965711,0.119046,-0.0862347,0.0814007,0,0,2.7475,0.455,0.35,0.096746,-0.091134,-0.931592,-0.07224,0.12852,0.47866
-1.07904,0,0,16.079,16.079,13.921,13.921,1.07904,1.14327,0.84728,0.11652,-0.0845584,0.0813233,0,0,3.78,-0.14,0.0875,0.096746,-0.091134,-0.931592,-0.0644,0.13188,0.48062
-1.14358,0,0,16.1436,16.1436,13.8564,13.8564,1.14358,1.36007,0.661214,0.179918,-0.0572989,0.0685552,0,0,4.0425,-0.035,-0.0175,0.164212,-0.065026,-0.944158,-0.0644,0.13188,0.48062
-1.20689,0,0,16.2069,16.2069,13.7931,13.7931,1.20689,1.57265,0.476085,0.176209,-0.0561966,0.0684376,0,0,4.0075,-0.035,0.07,0.164212,-0.065026,-0.944158,-0.0644,0.13188,0.48062
-1.20814,0,0,16.2081,16.2081,13.7919,13.7919,1.20814,1.57315,0.477171,-0.107347,0.0641201,0.141099,1,0,4.1475,0.35,-0.385,-0.120536,0.055144,-0.872056,-0.0644,0.13188,0.48062
-1.207,0,0,16.207,16.207,13.793,13.793,1.207,1.57261,0.476586,-0.107337,0.0641003,0.1411,1,0,2.835,-0.28,-1.3475,-0.120536,0.055144,-0.872056,-0.0644,0.13188,0.48062
-1.20467,0,0,16.2047,16.2047,13.7953,13.7953,1.20467,1.57216,0.475612,-0.419791,0.0476947,-0.117091,1,0,2.17,-0.2275,-1.575,-0.43432,0.038796,-1.12826,-0.0644,0.13188,0.48062
-1.20286,0,0,16.2029,16.2029,13.7971,13.7971,1.20286,1.57098,0.474322,-0.41977,0.0476631,-0.117089,1,0,2.4675,-0.665,-1.75,-0.43432,0.038796,-1.12826,-0.0644,0.13188,0.48062
-1.34854,0,0,16.3485,16.3485,13.6515,13.6515,1.34854,1.44281,0.591165,-0.109325,-0.137259,0.0453278,0,0,2.765,-0.6825,-1.8375,-0.124806,-0.148474,-0.967094,-0.0644,0.13188,0.48062
-1.4929,0,0,16.4929,16.4929,13.5071,13.5071,1.4929,1.31835,0.715866,-0.107153,-0.13474,0.0453176,0,0,3.5,-0.28,-2.555,-0.124806,-0.148474,-0.967094,-0.07042,0.12586,0.47754
-1.49359,0,0,16.4936,16.4936,13.5064,13.5064,1.49359,1.31783,0.713418,0.0410684,-0.198234,-0.107753,1,0,3.885,-0.2975,-2.4325,0.024034,-0.211914,-1.11898,-0.07042,0.12586,0.47754
-1.49579,0,0,16.4958,16.4958,13.5042,13.5042,1.49579,1.31764,0.711008,0.0410717,-0.198195,-0.107754,1,0,4.725,-0.105,-2.415,0.024034,-0.211914,-1.11898,-0.07042,0.12586,0.47754
-1.63455,0,0,16.6346,16.6346,13.3654,13.3654,1.63455,1.27587,0.764399,-0.0370437,-0.121155,0.0799384,0,0,4.6025,-0.1225,-2.1175,-0.055144,-0.137372,-0.93269,-0.07042,0.12586,0.47754
-1.76913,0,0,16.7691,16.7691,13.2309,13.2309,1.76913,1.23654,0.81724,-0.0363573,-0.118807,0.0798837,0,0,3.64,0.84,-2.24,-0.055144,-0.137372,-0.93269,-0.07042,0.12586,0.47754
-1.78744,0,0,16.7874,16.7874,13.2126,13.2126,1.78744,1.39152,0.694458,0.146447,-0.0216433,-0.0690788,0,0,3.3075,-0.035,-2.1175,0.13115,-0.040626,-1.08043,-0.07042,0.12586,0.47754
-1.80607,0,0,16.8061,16.8061,13.1939,13.1939,1.80607,1.54423,0.572876,0.143783,-0.0213206,-0.0691572,0,0,3.675,0.455,-1.645,0.13115,-0.040626,-1.08043,-0.07042,0.12586,0.47754
-1.80544,0,0,16.8054,16.8054,13.1946,13.1946,1.80544,1.5459,0.572655,-0.0296066,0.00810099,0.159404,1,0,3.115,1.015,-1.1725,-0.042944,-0.011224,-0.853634,-0.07042,0.12586,0.47754
-1.806,0,0,16.806,16.806,13.194,13.194,1.806,1.5467,0.573396,-0.0296205,0.00811066,0.159403,1,0,3.7625,0.525,-0.595,-0.042944,-0.011224,-0.853634,-0.06496,0.13062,0.47768
-1.67214,0,0,16.6721,16.6721,13.3279,13.3279,1.67214,1.61315,0.515131,0.0606988,0.134375,-0.0190794,0,0,4.2525,-0.105,-0.28,0.048922,0.117242,-1.03078,-0.06496,0.13062,0.47768
-1.54006,0,0,16.5401,16.5401,13.4599,13.4599,1.54006,1.67882,0.457338,0.0595532,0.132071,-0.0190477,0,0,3.92,0.1925,0.0525,0.048922,0.117242,-1.03078,-0.06496,0.13062,0.47768
-1.54113,0,0,16.5411,16.5411,13.4589,13.4589,1.54113,1.67859,0.459459,0.552668,0.122319,-0.0231054,1,0,4.025,-0.0525,0.2275,0.54412,0.107482,-1.0348,-0.06496,0.13062,0.47768
-1.5412,0,0,16.5412,16.5412,13.4588,13.4588,1.5412,1.67801,0.4619,0.552678,0.12232,-0.0231052,1,0,3.465,-0.2625,0.42,0.54412,0.107482,-1.0348,-0.06496,0.13062,0.47768
-1.54227,0,0,16.5423,16.5423,13.4577,13.4577,1.54227,1.67802,0.464117,-0.111849,-0.0403339,0.410534,1,0,4.025,0.0875,0.28,-0.12322,-0.055022,-0.60451,-0.06496,0.13062,0.47768
-1.54414,0,0,16.5441,16.5441,13.4559,13.4559,1.54414,1.67828,0.465921,-0.111854,-0.0403013,0.410533,1,0,4.48,0.2275,0.035,-0.12322,-0.055022,-0.60451,-0.06496,0.13062,0.47768
-1.33502,0,0,16.335,16.335,13.665,13.665,1.33502,1.77363,0.378976,0.0881491,0.215203,-0.0285978,0,0,4.515,0.665,0.0525,0.0793,0.203862,-1.04029,-0.06496,0.13062,0.47768
-1.13107,0,0,16.1311,16.1311,13.8689,13.8689,1.13107,1.86613,0.289202,0.0865355,0.211645,-0.0285725,0,0,5.4075,-0.21,-0.63,0.0793,0.203862,-1.04029,-0.06608,0.1316,0.47572
-1.13396,0,0,16.134,16.134,13.866,13.866,1.13396,1.86604,0.289587,-0.0758894,-0.136121,-0.0918919,1,0,5.075,0,-0.7875,-0.083814,-0.143594,-1.10312,-0.06608,0.1316,0.47572
-1.13426,0,0,16.1343,16.1343,13.8657,13.8657,1.13426,1.86616,0.289075,-0.0758914,-0.136116,-0.0918921,1,0,3.64,0.105,-1.3125,-0.083814,-0.143594,-1.10312,-0.06608,0.1316,0.47572
-1.19199,0,0,16.192,16.192,13.808,13.808,1.19199,1.81919,0.3292,-0.0415419,-0.0567033,-0.0018879,0,0,3.325,0.21,-1.4175,-0.050142,-0.06527,-1.01382,-0.06608,0.1316,0.47572
-1.24784,0,0,16.2478,16.2478,13.7522,13.7522,1.24784,1.77114,0.367973,-0.0407037,-0.0557287,-0.00188237,0,0,2.87,-0.98,-2.065,-0.050142,-0.06527,-1.01382,-0.06608,0.1316,0.47572
-1.48639,0,0,16.4864,16.4864,13.5136,13.5136,1.48639,1.83371,0.312318,0.0511412,-0.219738,0.083925,0,0,2.8875,-0.805,-2.345,0.043188,-0.233264,-0.928542,-0.06608,0.1316,0.47572
-1.72121,0,0,16.7212,16.7212,13.2788,13.2788,1.72121,1.89622,0.257405,0.0500509,-0.215644,0.0837749,0,0,3.0975,-0.1225,-2.24,0.043188,-0.233264,-0.928542,-0.06608,0.1316,0.47572
-1.72092,0,0,16.7209,16.7209,13.2791,13.2791,1.72092,1.89585,0.255079,-0.147964,0.240494,0.206109,1,0,3.3425,-0.21,-2.3625,-0.155672,0.222406,-0.807152,-0.06608,0.1316,0.47572
-1.72206,0,0,16.7221,16.7221,13.2779,13.2779,1.72206,1.89514,0.253372,-0.147952,0.240514,0.206109,1,0,4.13,-0.4025,-1.995,-0.155672,0.222406,-0.807152,-0.06762,0.13398,0.48566
-1.72242,0,0,16.7224,16.7224,13.2776,13.2776,1.72242,1.89561,0.252061,0.0561357,0.181533,0.17156,1,0,3.6925,0.2975,-1.785,0.049288,0.16348,-0.841434,-0.06762,0.13398,0.48566
-1.72263,0,0,16.7226,16.7226,13.2774,13.2774,1.72263,1.89714,0.251652,0.0561092,0.181537,0.171559,1,0,3.5875,0.9275,-1.2775,0.049288,0.16348,-0.841434,-0.06762,0.13398,0.48566
-1.62838,0,0,16.6284,16.6284,13.3716,13.3716,1.62838,1.97877,0.169753,0.0686561,0.0929378,0.0199632,0,0,4.48,0.315,-1.1025,0.063318,0.076616,-0.99186,-0.06762,0.13398,0.48566
-1.53532,0,0,16.5353,16.5353,13.4647,13.4647,1.53532,2.05899,0.0882565,0.0672568,0.0913139,0.0199587,0,0,4.2175,0.4375,-0.84,0.063318,0.076616,-0.99186,-0.06762,0.13398,0.48566
-1.53653,0,0,16.5365,16.5365,13.4635,13.4635,1.53653,2.05956,0.0888979,0.283005,-0.141561,-0.0911876,1,0,4.13,0.385,-0.6475,0.27999,-0.156038,-1.10215,-0.06762,0.13398,0.48566
-1.53763,0,0,16.5376,16.5376,13.4624,13.4624,1.53763,2.05919,0.0897844,0.283012,-0.141542,-0.0911879,1,0,4.06,-0.1575,-0.49,0.27999,-0.156038,-1.10215,-0.06762,0.13398,0.48566
-1.76884,0,0,16.7688,16.7688,13.2312,13.2312,1.76884,1.77744,0.339261,-0.235555,-0.212003,0.107299,0,0,2.835,0.455,-0.5075,-0.245708,-0.230458,-0.90524,-0.06762,0.13398,0.48566
-1.99456,0,0,16.9946,16.9946,13.0054,13.0054,1.99456,1.50075,0.586168,-0.230728,-0.208062,0.107308,0,0,2.03,0.28,-0.35,-0.245708,-0.230458,-0.90524,-0.06762,0.13398,0.48566
-1.87982,0,0,16.8798,16.8798,13.1202,13.1202,1.87982,1.64554,0.456784,0.121241,0.107708,0.0471844,0,0,2.205,0.28,-0.2975,0.110288,0.086986,-0.964898,-0.06216,0.1323,0.48048
-1.87959,0,0,16.8796,16.8796,13.1204,13.1204,1.87959,1.64532,0.458214,-0.0935419,-0.282246,-0.054002,1,0,3.3075,-0.0525,-0.175,-0.105408,-0.30256,-1.0653,-0.06216,0.1323,0.48048
-1.88163,0,0,16.8816,16.8816,13.1184,13.1184,1.88163,1.64524,0.458477,-0.0935404,-0.282211,-0.0540031,1,0,4.6025,0,-0.8575,-0.105408,-0.30256,-1.0653,-0.06216,0.1323,0.48048
-1.88365,0,0,16.8837,16.8837,13.1163,13.1163,1.88365,1.64518,0.458141,-0.0781106,-0.111564,0.224966,1,0,4.6025,0,-1.2075,-0.089914,-0.132126,-0.788486,-0.06216,0.1323,0.48048
-1.8857,0,0,16.8857,16.8857,13.1143,13.1143,1.8857,1.64611,0.457507,-0.0781268,-0.111529,0.224964,1,0,4.62,0.5775,-1.4,-0.089914,-0.132126,-0.788486,-0.06216,0.1323,0.48048
-1.85418,0,0,16.8542,16.8542,13.1458,13.1458,1.85418,1.62046,0.477834,-0.0233753,0.0322758,0.00331884,0,0,4.34,0.525,-1.75,-0.03538,0.012078,-1.00845,-0.06216,0.1323,0.48048
-1.8208,0,0,16.8208,16.8208,13.1792,13.1792,1.8208,1.59461,0.497627,-0.0229244,0.0316942,0.00335016,0,0,2.9925,0.105,-2.0475,-0.03538,0.012078,-1.00845,-0.06216,0.1323,0.48048
-1.8199,0,0,16.8199,16.8199,13.1801,13.1801,1.8199,1.59448,0.496508,0.365346,0.282405,-0.132139,1,0,2.975,-0.0525,-1.6625,0.354532,0.262544,-1.1429,-0.06216,0.1323,0.48048
-1.81878,0,0,16.8188,16.8188,13.1812,13.1812,1.81878,1.59337,0.495238,0.365366,0.282385,-0.132137,1,0,2.8525,-0.63,-1.7325,0.354532,0.262544,-1.1429,-0.06692,0.12838,0.47978
-2.03264,0,0,17.0326,17.0326,12.9674,12.9674,2.03264,1.36761,0.705174,-0.208603,-0.222052,-0.00294212,0,0,2.835,-0.0875,-1.89,-0.225822,-0.245098,-1.01467,-0.06692,0.12838,0.47978
-2.24245,0,0,17.2425,17.2425,12.7575,12.7575,2.24245,1.14622,0.913657,-0.20474,-0.21839,-0.00299398,0,0,2.6425,-0.035,-1.4525,-0.225822,-0.245098,-1.01467,-0.06692,0.12838,0.47978
-2.00398,0,0,17.004,17.004,12.996,12.996,2.00398,1.22277,0.85356,0.0624077,0.218328,0.100409,0,0,3.2025,-0.21,-1.12,0.043798,0.195322,-0.912194,-0.06692,0.12838,0.47978
-1.76953,0,0,16.7695,16.7695,13.2305,13.2305,1.76953,1.2985,0.793493,0.0610864,0.214239,0.100515,0,0,3.1675,0.14,-0.91,0.043798,0.195322,-0.912194,-0.06692,0.12838,0.47978
-1.75854,0,0,16.7585,16.7585,13.2415,13.2415,1.75854,1.79297,0.361142,0.399666,0.0149732,0.175164,0,0,3.85,-0.49,-1.015,0.392474,-0.003538,-0.837896,-0.06692,0.12838,0.47978
-1.74884,0,0,16.7488,16.7488,13.2512,13.2512,1.74884,2.28016,-0.0702633,0.391168,0.0147948,0.174867,0,0,4.6725,0.3675,-0.8575,0.392474,-0.003538,-0.837896,-0.06692,0.12838,0.47978
-1.75049,0,0,16.7505,16.7505,13.2495,13.2495,1.75049,2.28129,-0.0696623,-0.0937012,-0.013632,0.120522,1,0,4.375,0.7175,-0.6825,-0.094428,-0.031964,-0.89182,-0.06692,0.12838,0.47978
-1.75238,0,0,16.7524,16.7524,13.2476,13.2476,1.75238,2.28197,-0.0691951,-0.0937132,-0.013599,0.120521,1,0,4.515,0.455,-0.7525,-0.094428,-0.031964,-0.89182,-0.06818,0.13202,0.48146
-1.75279,0,0,16.7528,16.7528,13.2472,13.2472,1.75279,2.28332,-0.0686177,-0.140266,0.0606611,-0.109763,1,0,3.675,0.84,-0.7,-0.141154,0.042212,-1.12033,-0.06818,0.13202,0.48146
-1.75338,0,0,16.7534,16.7534,13.2466,13.2466,1.75338,2.28472,-0.0680384,-0.14029,0.0606713,-0.109764,1,0,3.78,0.875,-0.7,-0.141154,0.042212,-1.12033,-0.06818,0.13202,0.48146
-1.75349,0,0,16.7535,16.7535,13.2465,13.2465,1.75349,2.28538,-0.067782,-0.0890347,-0.20825,-0.11333,1,0,3.5175,0.4375,-0.875,-0.08967,-0.226432,-1.12386,-0.06818,0.13202,0.48146
-1.75294,0,0,16.7529,16.7529,13.2471,13.2471,1.75294,2.28569,-0.0675666,-0.08904,-0.208259,-0.11333,1,0,3.15,0.2275,-0.8925,-0.08967,-0.226432,-1.12386,-0.06818,0.13202,0.48146
-1.75269,0,0,16.7527,16.7527,13.2473,13.2473,1.75269,2.28571,-0.0677203,0.0164092,0.193045,0.282195,1,0,3.325,0.0525,-1.1025,0.016226,0.17446,-0.73139,-0.06818,0.13202,0.48146
-1.75295,0,0,16.753,16.753,13.247,13.247,1.75295,2.28478,-0.0682033,0.0164254,0.193049,0.282196,1,0,3.6225,-0.5075,-1.2775,0.016226,0.17446,-0.73139,-0.06818,0.13202,0.48146
-1.75321,0,0,16.7532,16.7532,13.2468,13.2468,1.75321,2.28428,-0.0688535,-0.156197,0.264132,0.151379,1,0,3.6225,-0.2625,-1.3825,-0.157136,0.245464,-0.861198,-0.06818,0.13202,0.48146
-1.75243,0,0,16.7524,16.7524,13.2476,13.2476,1.75243,2.28474,-0.0697444,-0.156205,0.264118,0.151379,1,0,3.045,0.2975,-1.54,-0.157136,0.245464,-0.861198,-0.06328,0.1302,0.48496
-1.75178,0,0,16.7518,16.7518,13.2482,13.2482,1.75178,2.28541,-0.0706589,-0.15488,-0.238079,-0.151321,1,0,3.115,0.42,-1.5575,-0.155794,-0.2562,-1.16156,-0.06328,0.1302,0.48496
-1.75112,0,0,16.7511,16.7511,13.2489,13.2489,1.75112,2.28608,-0.0715734,-0.154892,-0.23809,-0.151321,1,0,3.115,0.42,-1.5575,-0.155794,-0.2562,-1.16156,-0.06328,0.1302,0.48496
-1.75111,0,0,16.7511,16.7511,13.2489,13.2489,1.75111,2.28599,-0.0712198,0.182475,0.0101934,-0.120092,1,0,3.4475,0,-0.805,0.183,-0.008174,-1.13057,-0.06328,0.1302,0.48496
-1.75109,0,0,16.7511,16.7511,13.2489,13.2489,1.75109,2.2859,-0.0708663,0.182477,0.0101932,-0.120092,1,0,3.4475,0,-0.805,0.183,-0.008174,-1.13057,-0.06328,0.1302,0.48496
-1.75191,0,0,16.7519,16.7519,13.2481,13.2481,1.75191,2.28616,-0.0700518,0.134242,-0.107278,-0.183165,1,0,3.9025,0.21,-0.5425,0.134566,-0.125538,-1.19316,-0.06328,0.1302,0.48496
-1.75273,0,0,16.7527,16.7527,13.2473,13.2473,1.75273,2.28642,-0.0692373,0.134238,-0.107264,-0.183165,1,0,3.9025,0.21,-0.5425,0.134566,-0.125538,-1.19316,-0.06328,0.1302,0.48496
-1.92573,0,0,16.9257,16.9257,13.0743,13.0743,1.92573,2.24879,-0.0364138,-0.0332421,-0.157862,0.0801193,0,0,2.9225,0.245,-0.2975,-0.034282,-0.179096,-0.931836,-0.06328,0.1302,0.48496
-2.09571,0,0,17.0957,17.0957,12.9043,12.9043,2.09571,2.21107,-0.00793784,-0.0325842,-0.154898,0.0800409,0,0,2.9225,0.245,-0.2975,-0.034282,-0.179096,-0.931836,-0.0665,0.13328,0.48524
-2.09383,0,0,17.0938,17.0938,12.9062,12.9062,2.09383,2.21086,-0.00755923,-0.155767,0.0992149,-0.147904,1,0,2.3975,-0.07,-0.7875,-0.15799,0.074786,-1.15802,-0.0665,0.13328,0.48524
-2.09194,0,0,17.0919,17.0919,12.9081,12.9081,2.09194,2.21065,-0.00718062,-0.155763,0.0991821,-0.147903,1,0,2.3975,-0.07,-0.7875,-0.15799,0.074786,-1.15802,-0.0665,0.13328,0.48524
-2.08576,0,0,17.0858,17.0858,12.9142,12.9142,2.08576,2.21121,-0.00746456,0.076386,-0.0712925,-0.169047,1,0,0,0.3675,-1.19,0.075152,-0.095404,-1.17901,-0.0665,0.13328,0.48524
-2.08721,0,0,17.0872,17.0872,12.9128,12.9128,2.08721,2.21185,-0.00804627,0.0910747,0.127921,0.218978,1,0,4.2875,0.4025,-1.365,0.089914,0.103578,-0.793976,-0.0665,0.13328,0.48524
-2.08789,0,0,17.0879,17.0879,12.9121,12.9121,2.08789,2.21232,-0.00914436,0.0910665,0.127933,0.218977,1,0,3.8675,0.2975,-1.6625,0.089914,0.103578,-0.793976,-0.0665,0.13328,0.48524
-2.08686,0,0,17.0869,17.0869,12.9131,12.9131,2.08686,2.21356,-0.0106951,-0.20453,0.191299,-0.11323,1,0,2.9225,0.735,-1.9425,-0.206912,0.166896,-1.12362,-0.0665,0.13328,0.48524
-2.08642,0,0,17.0864,17.0864,12.9136,12.9136,2.08642,2.21391,-0.0125485,-0.204536,0.191291,-0.11323,1,0,3.255,0.21,-2.1,-0.206912,0.166896,-1.12362,-0.0665,0.13328,0.48524
-2.01298,0,0,17.013,17.013,12.987,12.987,2.01298,1.97538,0.19081,-0.202562,0.069844,0.0561449,0,0,2.835,-0.14,-1.89,-0.209108,0.046848,-0.955748,-0.06972,0.12852,0.48594
-2.0124,0,0,17.0124,17.0124,12.9876,12.9876,2.0124,1.97524,0.1893,-0.00939773,0.0710552,0.141595,1,0,3.1675,-0.07,-1.89,-0.015128,0.048068,-0.870958,-0.06972,0.12852,0.48594
-2.01216,0,0,17.0122,17.0122,12.9878,12.9878,2.01216,1.97472,0.188467,-0.00938858,0.071051,0.141595,1,0,3.3425,-0.28,-1.4875,-0.015128,0.048068,-0.870958,-0.06972,0.12852,0.48594
-2.01178,0,0,17.0118,17.0118,12.9882,12.9882,2.01178,1.97498,0.188141,-0.237665,0.17876,0.161882,1,0,3.255,0.1925,-1.2075,-0.244366,0.155672,-0.850828,-0.06972,0.12852,0.48594
-2.0108,0,0,17.0108,17.0108,12.9892,12.9892,2.0108,1.97501,0.188649,-0.237665,0.178743,0.161882,1,0,2.905,0.07,-0.7175,-0.244366,0.155672,-0.850828,-0.06972,0.12852,0.48594
-2.0089,0,0,17.0089,17.0089,12.9911,12.9911,2.0089,1.9752,0.189612,0.115369,-0.224064,-0.12889,1,0,2.38,0.175,-0.455,0.110166,-0.246684,-1.13936,-0.06972,0.12852,0.48594
-2.00795,0,0,17.0079,17.0079,12.9921,12.9921,2.00795,1.97547,0.191689,0.115364,-0.224081,-0.12889,1,0,2.8875,0.245,0.1925,0.110166,-0.246684,-1.13936,-0.06972,0.12852,0.48594
-2.00826,0,0,17.0083,17.0083,12.9917,12.9917,2.00826,1.97585,0.1941,0.296736,0.0673192,-0.0685223,1,0,3.5875,0.315,0.385,0.292312,0.044408,-1.07946,-0.06972,0.12852,0.48594
-2.00936,0,0,17.0094,17.0094,12.9906,12.9906,2.00936,1.97579,0.197007,0.296737,0.0673384,-0.0685229,1,0,4.025,0.07,0.6825,0.292312,0.044408,-1.07946,-0.0714,0.13314,0.4907
-2.01077,0,0,17.0108,17.0108,12.9892,12.9892,2.01077,1.97588,0.199888,0.13115,-0.0172707,-0.15508,1,0,4.2,0.1575,0.665,0.126026,-0.040138,-1.16534,-0.0714,0.13314,0.4907
-2.01055,0,0,17.0105,17.0105,12.9895,12.9895,2.01055,1.97638,0.202213,0.131141,-0.0172747,-0.15508,1,0,3.29,0.385,0.3325,0.126026,-0.040138,-1.16534,-0.0714,0.13314,0.4907
-2.01017,0,0,17.0102,17.0102,12.9898,12.9898,2.01017,1.97733,0.203684,-0.122051,0.0507432,0.152168,1,0,3.22,0.63,-0.175,-0.128222,0.027816,-0.860466,-0.0714,0.13314,0.4907
-2.00988,0,0,17.0099,17.0099,12.9901,12.9901,2.00988,1.9778,0.204297,-0.12206,0.0507382,0.152168,1,0,3.29,0.3325,-0.665,-0.128222,0.027816,-0.860466,-0.0714,0.13314,0.4907
-2.01013,0,0,17.0101,17.0101,12.9899,12.9899,2.01013,1.97755,0.204254,-0.000691009,-0.139897,0.224093,1,0,3.605,-0.105,-1.0325,-0.006344,-0.162626,-0.789096,-0.0714,0.13314,0.4907
-2.01249,0,0,17.0125,17.0125,12.9875,12.9875,2.01249,1.97732,0.20265,-0.000687026,-0.139856,0.224092,1,0,4.8125,-0.1225,-1.9425,-0.006344,-0.162626,-0.789096,-0.0714,0.13314,0.4907
-2.01435,0,0,17.0143,17.0143,12.9857,12.9857,2.01435,1.97745,0.200398,0.218592,0.236449,-0.0810677,1,0,4.55,0.07,-2.3275,0.213866,0.213256,-1.0919,-0.0714,0.13314,0.4907
-2.0163,0,0,17.0163,17.0163,12.9837,12.9837,2.0163,1.97758,0.197096,0.21859,0.236483,-0.081069,1,0,4.62,0.0525,-2.94,0.213866,0.213256,-1.0919,-0.0672,0.13272,0.4844
-2.01739,0,0,17.0174,17.0174,12.9826,12.9826,2.01739,1.97844,0.193189,-0.122435,0.146494,-0.237215,1,0,4.1475,0.4725,-3.3075,-0.128588,0.123342,-1.24684,-0.0672,0.13272,0.4844
-2.01847,0,0,17.0185,17.0185,12.9815,12.9815,2.01847,1.97931,0.189282,-0.12245,0.146513,-0.237216,1,0,4.1475,0.4725,-3.3075,-0.128588,0.123342,-1.24684,-0.0672,0.13272,0.4844
-2.01745,0,0,17.0174,17.0174,12.9826,12.9826,2.01745,1.97907,0.186537,0.00693614,-0.312945,0.17872,1,0,2.94,-0.1575,-2.6075,0.001342,-0.335622,-0.834114,-0.0672,0.13272,0.4844
-2.01642,0,0,17.0164,17.0164,12.9836,12.9836,2.01642,1.97882,0.183792,0.00694046,-0.312963,0.17872,1,0,2.94,-0.1575,-2.6075,0.001342,-0.335622,-0.834114,-0.0672,0.13272,0.4844
-1.90543,0,0,16.9054,16.9054,13.0946,13.0946,1.90543,2.16833,0.00545529,0.176145,0.11535,-0.0262882,0,0,3.955,0.245,-1.5575,0.174582,0.094184,-1.03749,-0.0672,0.13272,0.4844
-1.79625,0,0,16.7962,16.7962,13.2038,13.2038,1.79625,2.35425,-0.173186,0.172902,0.113443,-0.0263546,0,0,3.955,0.245,-1.5575,0.174582,0.094184,-1.03749,-0.0672,0.13272,0.4844
-1.95001,0,0,16.95,16.95,13.05,13.05,1.95001,2.49185,-0.301613,0.123974,-0.151094,0.0248487,0,0,4.27,-0.1575,-0.35,0.127856,-0.172752,-0.986492,-0.0672,0.13272,0.4844
-1.94919,0,0,16.9492,16.9492,13.0508,13.0508,1.94919,2.49196,-0.299812,-0.0855908,0.236766,0.130462,1,0,2.9575,0.14,0.035,-0.082594,0.21472,-0.881694,-0.06608,0.12782,0.47866
-1.88435,0,0,16.8843,16.8843,13.1157,13.1157,1.88435,2.60001,-0.40247,0.0858853,0.0619695,0.0705401,0,0,3.0975,0.3675,0.6825,0.0915,0.041236,-0.941108,-0.06608,0.12782,0.47866
-1.82173,0,0,16.8217,16.8217,13.1783,13.1783,1.82173,2.70465,-0.504486,0.084061,0.0608757,0.0704909,0,0,3.71,-0.4025,1.0675,0.0915,0.041236,-0.941108,-0.06608,0.12782,0.47866
-1.90245,0,0,16.9024,16.9024,13.0976,13.0976,1.90245,2.44201,-0.274142,-0.246903,-0.0862172,-0.0471338,0,0,4.165,-0.2625,1.05,-0.245464,-0.107116,-1.05798,-0.06608,0.12782,0.47866
-1.98186,0,0,16.9819,16.9819,13.0181,13.0181,1.98186,2.18544,-0.0453884,-0.242429,-0.084827,-0.047,0,0,4.2875,0.3675,0.8225,-0.245464,-0.107116,-1.05798,-0.06608,0.12782,0.47866
-1.87959,0,0,16.8796,16.8796,13.1204,13.1204,1.87959,2.02811,0.0917712,-0.14031,0.103179,0.0120533,0,0,4.48,0.385,0.5775,-0.145668,0.082472,-0.999546,-0.06608,0.12782,0.47866
-1.77918,0,0,16.7792,16.7792,13.2208,13.2208,1.77918,1.87384,0.227602,-0.137619,0.101431,0.0122008,0,0,4.585,0.4025,-0.385,-0.145668,0.082472,-0.999546,-0.06608,0.12782,0.47866
-1.7797,0,0,16.7797,16.7797,13.2203,13.2203,1.7797,2.03964,0.0827014,0.164904,-0.00139375,-0.0813391,0,0,4.3925,0.28,-0.84,0.16104,-0.020252,-1.09227,-0.06608,0.12782,0.47866
-1.77893,0,0,16.7789,16.7789,13.2211,13.2211,1.77893,2.2027,-0.0670169,0.16206,-0.00141048,-0.081444,0,0,3.7275,0.2975,-1.61,0.16104,-0.020252,-1.09227,-0.0679,0.13062,0.48104
-1.83965,0,0,16.8396,16.8396,13.1604,13.1604,1.83965,2.5074,-0.343973,0.263047,-0.0566594,0.0724816,0,0,4.025,-0.105,-1.9775,0.26779,-0.076494,-0.939278,-0.0679,0.13062,0.48104
-1.90009,0,0,16.9001,16.9001,13.0999,13.0999,1.90009,2.80602,-0.621087,0.25784,-0.0556142,0.0722058,0,0,4.5325,-0.35,-2.7475,0.26779,-0.076494,-0.939278,-0.0679,0.13062,0.48104
-1.90212,0,0,16.9021,16.9021,13.0979,13.0979,1.90212,2.8061,-0.624933,-0.23515,0.137992,-0.0934071,1,0,4.7075,0.0175,-3.255,-0.227286,0.116876,-1.10361,-0.0679,0.13062,0.48104
-1.90297,0,0,16.903,16.903,13.097,13.097,1.90297,2.80603,-0.629326,-0.235148,0.138007,-0.0934075,1,0,4.06,-0.0875,-3.57,-0.227286,0.116876,-1.10361,-0.0679,0.13062,0.48104
-1.88549,0,0,16.8855,16.8855,13.1145,13.1145,1.88549,2.72562,-0.578258,-0.0725353,0.016677,-0.0439045,0,0,3.535,-0.1575,-3.185,-0.065392,-0.004026,-1.05457,-0.0679,0.13062,0.48104
-1.86831,0,0,16.8683,16.8683,13.1317,13.1317,1.86831,2.64591,-0.526584,-0.0711456,0.0163798,-0.0438295,0,0,3.5175,-0.6475,-2.7825,-0.065392,-0.004026,-1.05457,-0.0679,0.13062,0.48104
-1.85224,0,0,16.8522,16.8522,13.1478,13.1478,1.85224,2.78629,-0.667753,0.116046,0.0168288,0.0615533,0,0,3.4825,-0.28,-2.3275,0.12505,-0.003294,-0.949892,-0.0679,0.13062,0.48104
-1.83797,0,0,16.838,16.838,13.162,13.162,1.83797,2.9237,-0.801427,0.113651,0.0165763,0.061442,0,0,4.2875,0.21,-1.2075,0.12505,-0.003294,-0.949892,-0.06286,0.12628,0.4802
-1.76235,0,0,16.7624,16.7624,13.2376,13.2376,1.76235,2.98827,-0.873465,0.0640526,0.0801065,-0.0717279,0,0,4.165,0.6475,-0.5075,0.076372,0.061488,-1.08202,-0.06286,0.12628,0.4802
-1.68625,0,0,16.6863,16.6863,13.3137,13.3137,1.68625,3.05106,-0.944359,0.0629583,0.078779,-0.0717457,0,0,3.1325,0.35,0.1575,0.076372,0.061488,-1.08202,-0.06286,0.12628,0.4802
-1.68537,0,0,16.6854,16.6854,13.3146,13.3146,1.68537,3.05182,-0.942268,-0.0156561,0.0643526,0.197142,1,0,2.905,0.525,0.1925,-0.002562,0.047092,-0.815204,-0.06286,0.12628,0.4802
-1.68273,0,0,16.6827,16.6827,13.3173,13.3173,1.68273,3.05282,-0.939268,-0.0156736,0.0643065,0.197143,1,0,1.89,0.6825,0.7175,-0.002562,0.047092,-0.815204,-0.06286,0.12628,0.4802
-1.68092,0,0,16.6809,16.6809,13.3191,13.3191,1.68092,3.05297,-0.935813,-0.0357214,0.0984705,0.473778,1,0,2.345,0.1925,0.9975,-0.022692,0.081252,-0.540704,-0.06286,0.12628,0.4802
-1.68046,0,0,16.6805,16.6805,13.3195,13.3195,1.68046,3.05236,-0.9328,-0.0357107,0.0984625,0.473778,1,0,3.115,-0.2625,0.7525,-0.022692,0.081252,-0.540704,-0.06286,0.12628,0.4802
-1.6816,0,0,16.6816,16.6816,13.3184,13.3184,1.6816,3.05218,-0.930136,-0.113458,0.0570815,0.159153,1,0,4.025,-0.0175,0.5425,-0.100772,0.039894,-0.852902,-0.06286,0.12628,0.4802
-1.68466,0,0,16.6847,16.6847,13.3153,13.3153,1.68466,3.0521,-0.929151,-0.113457,0.0571347,0.159151,1,0,5.145,0.0175,-0.4375,-0.100772,0.039894,-0.852902,-0.06286,0.12628,0.4802
-1.68654,0,0,16.6865,16.6865,13.3135,13.3135,1.68654,3.0518,-0.928413,-0.0828373,0.119574,-0.169122,1,0,4.4975,-0.1225,-0.5775,-0.070028,0.102236,-1.17864,-0.06328,0.12656,0.48552
-1.7012,0,0,16.7012,16.7012,13.2988,13.2988,1.7012,3.278,-1.14501,0.211347,-0.0158597,-0.000907766,0,0,3.535,0.1225,-1.225,0.22936,-0.033306,-1.0115,-0.06328,0.12656,0.48552
-1.71504,0,0,16.715,16.715,13.285,13.285,1.71504,3.50003,-1.36275,0.207478,-0.0156254,-0.00114393,0,0,3.3075,0.14,-2.205,0.22936,-0.033306,-1.0115,-0.06328,0.12656,0.48552
-1.71454,0,0,16.7145,16.7145,13.2855,13.2855,1.71454,3.50018,-1.36533,0.178076,-0.116144,-0.0761424,1,0,3.2725,0.0875,-2.52,0.199836,-0.133712,-1.08592,-0.06328,0.12656,0.48552
-1.71487,0,0,16.7149,16.7149,13.2851,13.2851,1.71487,3.50033,-1.36774,0.178073,-0.116139,-0.0761427,1,0,3.7275,0.0875,-2.415,0.199836,-0.133712,-1.08592,-0.06328,0.12656,0.48552
-1.92505,0,0,16.925,16.925,13.075,13.075,1.92505,3.484,-1.36403,-0.0110383,-0.207127,0.0324448,0,0,3.8325,-0.4025,-2.6775,0.009638,-0.228262,-0.978074,-0.06328,0.12656,0.48552
-2.13125,0,0,17.1312,17.1312,12.8688,12.8688,2.13125,3.46835,-1.36059,-0.0107657,-0.203536,0.0323342,0,0,3.605,-0.2275,-2.695,0.009638,-0.228262,-0.978074,-0.06328,0.12656,0.48552
-1.90495,0,0,16.905,16.905,13.095,13.095,1.90495,3.68132,-1.58793,0.202984,0.240599,-0.0248067,0,0,3.15,-0.5425,-2.275,0.228018,0.219356,-1.03468,-0.06328,0.12656,0.48552
-1.6823,0,0,16.6823,16.6823,13.3177,13.3177,1.6823,3.893,-1.82023,0.199298,0.236716,-0.0249292,0,0,3.2025,-0.49,-1.6275,0.228018,0.219356,-1.03468,-0.06846,0.13104,0.4879
-1.68126,0,0,16.6813,16.6813,13.3187,13.3187,1.68126,3.89198,-1.8209,0.0225535,0.307531,0.184331,1,0,2.905,-0.56,-1.3825,0.050508,0.290116,-0.827038,-0.06846,0.13104,0.4879
-1.68078,0,0,16.6808,16.6808,13.3192,13.3192,1.68078,3.89205,-1.82066,0.0225524,0.307523,0.184331,1,0,3.185,0.0875,-0.875,0.050508,0.290116,-0.827038,-0.06846,0.13104,0.4879
-1.63074,0,0,16.6307,16.6307,13.3693,13.3693,1.63074,3.88577,-1.84943,-0.00285034,0.0511631,-0.0808363,0,0,3.185,0.28,-0.4375,0.024888,0.034892,-1.09019,-0.06846,0.13104,0.4879
-1.58164,0,0,16.5816,16.5816,13.4184,13.4184,1.58164,3.88015,-1.87694,-0.00275244,0.0503086,-0.0808057,0,0,3.185,0.63,0.2275,0.024888,0.034892,-1.09019,-0.06846,0.13104,0.4879
-1.5807,0,0,16.5807,16.5807,13.4193,13.4193,1.5807,3.89988,-1.92359,0.0114823,0.00217368,0.0632671,0,0,3.15,0.6475,0.2975,0.039528,-0.013176,-0.947208,-0.06846,0.13104,0.4879
-1.57921,0,0,16.5792,16.5792,13.4208,13.4208,1.57921,3.91878,-1.97018,0.0111532,0.00214718,0.0632453,0,0,2.835,0.385,0.28,0.039528,-0.013176,-0.947208,-0.06846,0.13104,0.4879
-1.57878,0,0,16.5788,16.5788,13.4212,13.4212,1.57878,3.91907,-1.96837,-0.0234753,0.219159,0.193571,1,0,3.15,0.245,0.035,0.004758,0.203618,-0.817888,-0.06846,0.13104,0.4879
-1.57847,0,0,16.5785,16.5785,13.4215,13.4215,1.57847,3.9192,-1.96692,-0.0234774,0.219154,0.193571,1,0,3.2375,0.14,-0.175,0.004758,0.203618,-0.817888,-0.06132,0.12656,0.48482
-1.57786,0,0,16.5779,16.5779,13.4221,13.4221,1.57786,3.9191,-1.96633,-0.0446144,-0.0440402,0.197997,1,0,3.0975,0,-0.665,-0.01647,-0.059292,-0.813496,-0.06132,0.12656,0.48482
-1.57765,0,0,16.5776,16.5776,13.4224,13.4224,1.57765,3.91892,-1.96682,-0.0446112,-0.0440439,0.197997,1,0,3.36,-0.07,-1.295,-0.01647,-0.059292,-0.813496,-0.06132,0.12656,0.48482
-1.55489,0,0,16.5549,16.5549,13.4451,13.4451,1.55489,3.87822,-1.961,-0.0383141,0.0223647,0.0362563,0,0,3.1675,-0.245,-1.715,-0.010858,0.007442,-0.974048,-0.06132,0.12656,0.48482
-1.53251,0,0,16.5325,16.5325,13.4675,13.4675,1.53251,3.83936,-1.95541,-0.0376375,0.0219763,0.0363124,0,0,3.1675,0.385,-1.89,-0.010858,0.007442,-0.974048,-0.06132,0.12656,0.48482
-1.5321,0,0,16.5321,16.5321,13.4679,13.4679,1.5321,3.83996,-1.95705,-0.0749439,0.20577,-0.27942,1,0,3.29,0.3675,-1.9775,-0.048312,0.191052,-1.28734,-0.06132,0.12656,0.48482
-1.53314,0,0,16.5331,16.5331,13.4669,13.4669,1.53314,3.83927,-1.95876,-0.074932,0.205788,-0.279419,1,0,4.1125,-0.385,-1.995,-0.048312,0.191052,-1.28734,-0.06132,0.12656,0.48482
-1.3602,0,0,16.3602,16.3602,13.6398,13.6398,1.3602,3.82212,-1.98405,-0.0237308,0.165529,0.0661618,0,0,4.0075,-0.175,-2.0475,0.002806,0.153842,-0.944524,-0.06132,0.12656,0.48482
-1.18902,0,0,16.189,16.189,13.811,13.811,1.18902,3.8066,-2.00967,-0.0234604,0.162549,0.0662461,0,0,3.3075,0.595,-1.54,0.002806,0.153842,-0.944524,-0.06748,0.12852,0.4858
-1.17932,0,0,16.1793,16.1793,13.8207,13.8207,1.17932,3.62075,-1.87081,-0.173174,0.0103369,-0.0290713,0,0,3.7625,0.175,-1.54,-0.150792,0.001952,-1.03932,-0.06748,0.12852,0.4858
-1.16855,0,0,16.1685,16.1685,13.8315,13.8315,1.16855,3.43825,-1.73124,-0.169995,0.0101533,-0.0288714,0,0,3.0625,0.105,-1.015,-0.150792,0.001952,-1.03932,-0.06748,0.12852,0.4858
-1.16853,0,0,16.1685,16.1685,13.8315,13.8315,1.16853,3.43756,-1.73054,0.0994724,0.116037,0.128257,1,0,3.43,-0.35,-0.595,0.119804,0.107726,-0.883402,-0.06748,0.12852,0.4858
-1.1681,0,0,16.1681,16.1681,13.8319,13.8319,1.1681,3.4377,-1.7294,0.0994699,0.116029,0.128257,1,0,3.185,0.14,-0.35,0.119804,0.107726,-0.883402,-0.06748,0.12852,0.4858
-1.28487,0,0,16.2849,16.2849,13.7151,13.7151,1.28487,3.47646,-1.7756,0.0361081,-0.11752,0.0173966,0,0,2.66,0.5425,-0.245,0.056852,-0.127612,-0.993324,-0.06748,0.12852,0.4858
-1.40123,0,0,16.4012,16.4012,13.5988,13.5988,1.40123,3.51319,-1.82136,0.0354682,-0.115494,0.01731,0,0,3.535,-0.2275,-0.07,0.056852,-0.127612,-0.993324,-0.06748,0.12852,0.4858
-1.29533,0,0,16.2953,16.2953,13.7047,13.7047,1.29533,3.33488,-1.68869,-0.166979,0.108356,-0.00827995,0,0,3.605,0.2625,-0.0525,-0.149572,0.097844,-1.01894,-0.06748,0.12852,0.4858
-1.19122,0,0,16.1912,16.1912,13.8088,13.8088,1.19122,3.16145,-1.55874,-0.163957,0.106546,-0.00806913,0,0,3.6225,0.595,-0.105,-0.149572,0.097844,-1.01894,-0.06398,0.1302,0.48328
-1.19233,0,0,16.1923,16.1923,13.8077,13.8077,1.19233,3.16187,-1.55789,-0.336838,-0.0550087,-0.48093,1,0,4.06,0.2975,-0.525,-0.323178,-0.063562,-1.48816,-0.06398,0.1302,0.48328
-1.19321,0,0,16.1932,16.1932,13.8068,13.8068,1.19321,3.16163,-1.55859,-0.336834,-0.0549935,-0.48093,1,0,3.9725,-0.105,-1.4175,-0.323178,-0.063562,-1.48816,-0.06398,0.1302,0.48328
-0.990881,0,0,15.9909,15.9909,14.0091,14.0091,0.990881,3.26198,-1.68288,0.0924482,0.212479,-0.019904,0,0,3.7625,0.105,-1.6625,0.109678,0.207156,-1.03066,-0.06398,0.1302,0.48328
-0.790313,0,0,15.7903,15.7903,14.2097,14.2097,0.790313,3.3617,-1.80839,0.0907106,0.208983,-0.0199502,0,0,2.905,0.8575,-2.1525,0.109678,0.207156,-1.03066,-0.06398,0.1302,0.48328
-1.00435,0,0,16.0044,16.0044,13.9956,13.9956,1.00435,3.08914,-1.57089,-0.23984,-0.20569,0.0862406,0,0,2.6075,0.42,-2.3275,-0.227042,-0.210816,-0.925492,-0.06398,0.1302,0.48328
-1.21462,0,0,16.2146,16.2146,13.7854,13.7854,1.21462,2.82053,-1.33612,-0.235158,-0.202021,0.0864113,0,0,2.5725,-0.21,-2.45,-0.227042,-0.210816,-0.925492,-0.06398,0.1302,0.48328
-1.21409,0,0,16.2141,16.2141,13.7859,13.7859,1.21409,2.81927,-1.3381,0.14803,-0.039235,0.127846,1,0,3.22,-0.7175,-2.1525,0.157746,-0.04819,-0.884378,-0.06398,0.1302,0.48328
-1.21441,0,0,16.2144,16.2144,13.7856,13.7856,1.21441,2.81844,-1.33941,0.148044,-0.0392295,0.127847,1,0,3.675,-0.455,-1.7675,0.157746,-0.04819,-0.884378,-0.06398,0.1302,0.48328
-1.21419,0,0,16.2142,16.2142,13.7858,13.7858,1.21419,2.81761,-1.34012,0.218885,0.276953,-0.172639,1,0,3.36,-0.455,-1.4175,0.228872,0.267668,-1.18255,-0.06328,0.12418,0.47922
-1.21491,0,0,16.2149,16.2149,13.7851,13.7851,1.21491,2.81693,-1.34011,0.218896,0.276965,-0.172638,1,0,3.8675,-0.35,-0.9975,0.228872,0.267668,-1.18255,-0.06328,0.12418,0.47922
-1.16492,0,0,16.1649,16.1649,13.8351,13.8351,1.16492,2.79577,-1.32901,-0.0211548,0.0490609,0.0452627,0,0,3.5,0.07,-0.315,-0.012566,0.04087,-0.966362,-0.06328,0.12418,0.47922
-1.11579,0,0,16.1158,16.1158,13.8842,13.8842,1.11579,2.77499,-1.31787,-0.0207926,0.0482049,0.0452973,0,0,3.5,0.07,-0.315,-0.012566,0.04087,-0.966362,-0.06328,0.12418,0.47922
-1.02509,0,0,16.0251,16.0251,13.9749,13.9749,1.02509,2.91409,-1.4528,0.14091,0.0971824,-0.0666767,0,0,3.3075,0.2625,0.2975,0.152256,0.091378,-1.07738,-0.06328,0.12418,0.47922
-0.935896,0,0,15.9359,15.9359,14.0641,14.0641,0.935896,3.05062,-1.58785,0.13853,0.0956259,-0.0667741,0,0,3.3075,0.2625,0.2975,0.152256,0.091378,-1.07738,-0.06328,0.12418,0.47922
-0.936642,0,0,15.9366,15.9366,14.0634,14.0634,0.936642,3.04345,-1.58566,-0.0926538,-0.25633,-0.0764806,1,0,3.815,-4.13,0.3325,-0.080032,-0.260226,-1.08702,-0.06328,0.12418,0.47922
-0.937387,0,0,15.9374,15.9374,14.0626,14.0626,0.937387,3.03629,-1.58347,-0.0925289,-0.256317,-0.0764741,1,0,3.815,-4.13,0.3325,-0.080032,-0.260226,-1.08702,-0.06328,0.12418,0.47922
-0.937502,0,0,15.9375,15.9375,14.0625,14.0625,0.937502,3.03671,-1.58257,0.0602928,-0.205144,-0.0740156,1,0,3.5,0.2975,-0.49,0.073444,-0.209108,-1.08458,-0.07056,0.13244,0.48146
-0.752305,0,0,15.7523,15.7523,14.2477,14.2477,0.752305,3.04238,-1.61757,-0.00176377,0.180846,0.0454097,0,0,3.2025,0.28,-0.7525,0.011224,0.179706,-0.966118,-0.07056,0.13244,0.48146
-0.571833,0,0,15.5718,15.5718,14.4282,14.4282,0.571833,3.04683,-1.65342,-0.00184125,0.177701,0.045442,0,0,4.13,-0.3325,-1.295,0.011224,0.179706,-0.966118,-0.07056,0.13244,0.48146
-0.572569,0,0,15.5726,15.5726,14.4274,14.4274,0.572569,3.0462,-1.65493,0.136177,0.24757,0.211054,1,0,3.92,-0.3325,-1.89,0.149816,0.24949,-0.801784,-0.07056,0.13244,0.48146
-0.573874,0,0,15.5739,15.5739,14.4261,14.4261,0.573874,3.04621,-1.65749,0.136177,0.247593,0.211054,1,0,4.27,0.035,-2.5025,0.149816,0.24949,-0.801784,-0.07056,0.13244,0.48146
-0.575445,0,0,15.5754,15.5754,14.4246,14.4246,0.575445,3.04641,-1.66092,-0.0639131,0.243957,0.148596,1,0,4.445,0.14,-3.01,-0.051118,0.24583,-0.86376,-0.07056,0.13244,0.48146
-0.575202,0,0,15.5752,15.5752,14.4248,14.4248,0.575202,3.0476,-1.66499,-0.0639339,0.243953,0.148594,1,0,3.4475,0.7175,-3.395,-0.051118,0.24583,-0.86376,-0.07056,0.13244,0.48146
-0.575232,0,0,15.5752,15.5752,14.4248,14.4248,0.575232,3.04854,-1.66862,-0.0386813,0.32993,-0.105049,1,0,3.5875,0.5775,-3.1325,-0.025742,0.331718,-1.11545,-0.07056,0.13244,0.48146
-0.574033,0,0,15.574,15.574,14.426,14.426,0.574033,3.04936,-1.67129,-0.0386956,0.329909,-0.10505,1,0,2.87,0.5075,-2.5725,-0.025742,0.331718,-1.11545,-0.06496,0.12698,0.47432
-0.736671,0,0,15.7367,15.7367,14.2633,14.2633,0.736671,3.14679,-1.76325,0.0999223,-0.175671,-0.0326344,0,0,2.94,0.0875,-1.785,0.115168,-0.176168,-1.04347,-0.06496,0.12698,0.47432
-0.896606,0,0,15.8966,15.8966,14.1034,14.1034,0.896606,3.24245,-1.85461,0.0982555,-0.172886,-0.0327672,0,0,2.94,0.0875,-1.785,0.115168,-0.176168,-1.04347,-0.06496,0.12698,0.47432
-0.896539,0,0,15.8965,15.8965,14.1035,14.1035,0.896539,3.24179,-1.85366,-0.0950168,-0.166414,-0.26059,1,0,3.395,-0.3325,-0.455,-0.078934,-0.169702,-1.26953,-0.06496,0.12698,0.47432
-0.89748,0,0,15.8975,15.8975,14.1025,14.1025,0.89748,3.24163,-1.85202,-0.107163,0.192044,0.24313,1,0,3.9375,-0.035,-0.0525,-0.091134,0.188368,-0.769698,-0.06496,0.12698,0.47432
-0.897151,0,0,15.8972,15.8972,14.1028,14.1028,0.897151,3.24196,-1.84964,-0.107168,0.192039,0.24313,1,0,3.2025,0.2625,0.3675,-0.091134,0.188368,-0.769698,-0.06496,0.12698,0.47432
-0.77586,0,0,15.7759,15.7759,14.2241,14.2241,0.77586,3.05073,-1.69715,-0.181951,0.124468,-0.00439762,0,0,3.2025,0.2625,0.6125,-0.16958,0.122976,-1.01553,-0.06496,0.12698,0.47432
-0.656975,0,0,15.657,15.657,14.343,14.343,0.656975,2.86326,-1.54314,-0.178683,0.122398,-0.00420293,0,0,3.395,0.4725,1.1375,-0.16958,0.122976,-1.01553,-0.06496,0.12698,0.47432
-0.526901,0,0,15.5269,15.5269,14.4731,14.4731,0.526901,3.02881,-1.70723,0.138546,0.125869,0.0779245,0,0,4.06,0.1575,1.2775,0.15189,0.12871,-0.93391,-0.07056,0.1274,0.47852
-0.632453,0,0,15.6325,15.6325,14.3675,14.3675,0.632453,3.00293,-1.68593,-0.0246445,-0.100057,0.0562908,0,0,3.6575,0.455,0.455,-0.012444,-0.09882,-0.955382,-0.07056,0.1274,0.47852
-0.736908,0,0,15.7369,15.7369,14.2631,14.2631,0.736908,2.97776,-1.66626,-0.0242056,-0.0982365,0.0562919,0,0,4.095,0.56,-0.385,-0.012444,-0.09882,-0.955382,-0.07056,0.1274,0.47852
-0.489989,0,0,15.49,15.49,14.51,14.51,0.489989,2.95041,-1.66772,-0.0316256,0.245399,0.0455432,0,0,3.2725,0.735,-0.7,-0.020374,0.248758,-0.966118,-0.07056,0.1274,0.47852
-0.247385,0,0,15.2474,15.2474,14.7526,14.7526,0.247385,2.92258,-1.67008,-0.0311404,0.241171,0.0455953,0,0,3.43,0.21,-1.4175,-0.020374,0.248758,-0.966118,-0.07056,0.1274,0.47852
-0.247886,0,0,15.2479,15.2479,14.7521,14.7521,0.247886,2.92194,-1.67197,0.0878051,-0.078304,0.136209,1,0,3.7975,-0.3325,-2.1175,0.099064,-0.070394,-0.876204,-0.07056,0.1274,0.47852
-0.247904,0,0,15.2479,15.2479,14.7521,14.7521,0.247904,2.92071,-1.67478,0.0878265,-0.0783036,0.13621,1,0,3.5525,-0.6825,-2.6425,0.099064,-0.070394,-0.876204,-0.07056,0.1274,0.47852
-0.249579,0,0,15.2496,15.2496,14.7504,14.7504,0.249579,2.91952,-1.67815,0.410878,0.204815,-0.0105896,1,0,4.4975,-0.665,-2.975,0.423462,0.212402,-1.02187,-0.07056,0.1274,0.47852
-0.251262,0,0,15.2513,15.2513,14.7487,14.7487,0.251262,2.91919,-1.68197,0.410884,0.204845,-0.0105894,1,0,4.515,-0.1575,-3.2375,0.423462,0.212402,-1.02187,-0.06594,0.12502,0.47418
-0.251656,0,0,15.2517,15.2517,14.7483,14.7483,0.251656,2.91964,-1.68596,-0.0112871,-0.00764899,-0.190709,1,0,3.7975,0.2975,-3.3425,-0.000488,0.000122,-1.2006,-0.06594,0.12502,0.47418
-0.250708,0,0,15.2507,15.2507,14.7493,14.7493,0.250708,2.92026,-1.68873,-0.0112979,-0.00766551,-0.19071,1,0,3.01,0.4025,-2.625,-0.000488,0.000122,-1.2006,-0.06594,0.12502,0.47418
-0.200211,0,0,15.2002,15.2002,14.7998,14.7998,0.200211,2.75549,-1.54961,-0.150564,0.0461676,0.0549641,0,0,1.9075,0.91,-2.0825,-0.143228,0.054778,-0.956968,-0.06594,0.12502,0.47418
-0.151759,0,0,15.1518,15.1518,14.8482,14.8482,0.151759,2.59269,-1.40917,-0.147726,0.0453233,0.0550993,0,0,2.555,0.315,-1.365,-0.143228,0.054778,-0.956968,-0.06594,0.12502,0.47418
0.0807391,0,0,14.9193,14.9193,15.0807,15.0807,-0.0807391,2.69443,-1.52126,0.0905563,0.231421,0.0513314,0,0,3.2025,-0.105,-1.015,0.097844,0.244732,-0.960628,-0.06594,0.12502,0.47418
0.309794,0,0,14.6902,14.6902,15.3098,15.3098,-0.309794,2.79475,-1.63251,0.0888074,0.227428,0.051234,0,0,2.975,0.14,-0.2275,0.097844,0.244732,-0.960628,-0.06594,0.12502,0.47418
0.310238,0,0,14.6898,14.6898,15.3102,15.3102,-0.310238,2.79436,-1.63083,0.0674328,-0.228845,-0.120156,1,0,3.1675,-0.1925,-0.035,0.076372,-0.21106,-1.1307,-0.06594,0.12502,0.47418
0.310704,0,0,14.6893,14.6893,15.3107,15.3107,-0.310704,2.79426,-1.62831,0.0674344,-0.228853,-0.120156,1,0,3.1325,-0.0175,0.455,0.076372,-0.21106,-1.1307,-0.06692,0.12222,0.47642
0.311467,0,0,14.6885,14.6885,15.3115,15.3115,-0.311467,2.79385,-1.62549,-0.137991,-0.284556,-0.163434,1,0,2.9575,-0.21,0.63,-0.12993,-0.266692,-1.17364,-0.06692,0.12222,0.47642
0.312197,0,0,14.6878,14.6878,15.3122,15.3122,-0.312197,2.79441,-1.62264,-0.138,-0.284569,-0.163434,1,0,2.975,0.3675,0.6475,-0.12993,-0.266692,-1.17364,-0.06692,0.12222,0.47642
0.312601,0,0,14.6874,14.6874,15.3126,15.3126,-0.312601,2.79498,-1.62079,-0.0573438,-0.169655,-0.153722,1,0,3.185,0.3675,0.07,-0.048922,-0.15189,-1.164,-0.06692,0.12222,0.47642
0.312408,0,0,14.6876,14.6876,15.3124,15.3124,-0.312408,2.79547,-1.61948,-0.0573525,-0.169651,-0.153722,1,0,3.535,0.3325,-0.245,-0.048922,-0.15189,-1.164,-0.06692,0.12222,0.47642
0.234788,0,0,14.7652,14.7652,15.2348,15.2348,-0.234788,2.80095,-1.62093,0.00463118,-0.0769475,0.0212355,0,0,3.71,-0.14,-0.7,0.01342,-0.060634,-0.990396,-0.06692,0.12222,0.47642
0.15848,0,0,14.8415,14.8415,15.1585,15.1585,-0.15848,2.80633,-1.62243,0.0045374,-0.0756173,0.0212354,0,0,3.71,-0.14,-0.7,0.01342,-0.060634,-0.990396,-0.06692,0.12222,0.47642
0.158109,0,0,14.8419,14.8419,15.1581,15.1581,-0.158109,2.807,-1.62387,-0.176609,-0.0605892,-0.0961809,1,0,3.71,0.4375,-1.855,-0.168482,-0.045628,-1.10691,-0.06692,0.12222,0.47642
0.157739,0,0,14.8423,14.8423,15.1577,15.1577,-0.157739,2.80767,-1.62532,-0.176621,-0.0605828,-0.0961815,1,0,3.71,0.4375,-1.855,-0.168482,-0.045628,-1.10691,-0.0651,0.1316,0.47152
-0.0400072,0,0,15.04,15.04,14.96,14.96,0.0400072,2.63268,-1.47139,-0.172598,-0.220907,-0.0686155,0,0,3.2375,-0.455,-2.24,-0.167506,-0.20923,-1.0797,-0.0651,0.1316,0.47152
-0.23442,0,0,15.2344,15.2344,14.7656,14.7656,0.23442,2.46089,-1.31896,-0.169603,-0.217517,-0.0684904,0,0,3.2375,-0.455,-2.24,-0.167506,-0.20923,-1.0797,-0.0651,0.1316,0.47152
-0.234353,0,0,15.2344,15.2344,14.7656,14.7656,0.234353,2.45966,-1.32134,-0.139453,0.160708,-0.133529,1,0,3.4825,-0.6825,-2.3975,-0.13725,0.168604,-1.14424,-0.0651,0.1316,0.47152
-0.234287,0,0,15.2343,15.2343,14.7657,14.7657,0.234287,2.45843,-1.32372,-0.139432,0.160707,-0.133528,1,0,3.4825,-0.6825,-2.3975,-0.13725,0.168604,-1.14424,-0.0651,0.1316,0.47152
-0.0511482,0,0,15.0511,15.0511,14.9489,14.9489,0.0511482,2.6329,-1.5058,0.151157,0.177176,0.0764634,0,0,2.9225,0.1575,-1.9425,0.157624,0.188246,-0.93574,-0.0651,0.1316,0.47152
-0.0505197,0,0,15.0505,15.0505,14.9495,14.9495,0.0505197,2.63309,-1.50668,-0.110405,0.0920424,-0.220826,1,0,3.1325,0.1575,-1.5225,-0.105042,0.103212,-1.23074,-0.0651,0.1316,0.47152
-0.0495502,0,0,15.0496,15.0496,14.9504,14.9504,0.0495502,2.63332,-1.50614,-0.110409,0.0920255,-0.220826,1,0,2.905,0.175,-0.7,-0.105042,0.103212,-1.23074,-0.0651,0.1316,0.47152
-0.0911046,0,0,15.0911,15.0911,14.9089,14.9089,0.0911046,2.8013,-1.65519,0.150651,-0.042933,0.0475533,0,0,2.7125,0.5075,-0.6125,0.160064,-0.03233,-0.964288,-0.06664,0.12166,0.48524
-0.0905958,0,0,15.0906,15.0906,14.9094,14.9094,0.0905958,2.80236,-1.65421,-0.108739,-0.201462,-0.0990022,1,0,3.15,0.665,-0.4375,-0.100406,-0.190686,-1.10971,-0.06664,0.12166,0.48524
-0.0899871,0,0,15.09,15.09,14.91,14.91,0.0899871,2.80296,-1.65271,-0.10875,-0.201473,-0.0990027,1,0,3.08,0.4025,-0.14,-0.100406,-0.190686,-1.10971,-0.06664,0.12166,0.48524
-0.0890336,0,0,15.089,15.089,14.911,14.911,0.0890336,2.80337,-1.65124,-0.010961,-0.21187,0.183287,1,0,2.8875,0.28,-0.1575,-0.002196,-0.201056,-0.8296,-0.06664,0.12166,0.48524
-0.0883419,0,0,15.0883,15.0883,14.9117,14.9117,0.0883419,2.80386,-1.65016,-0.0109696,-0.211882,0.183286,1,0,3.045,0.3325,-0.385,-0.002196,-0.201056,-0.8296,-0.06664,0.12166,0.48524
-0.0872399,0,0,15.0872,15.0872,14.9128,14.9128,0.0872399,2.80366,-1.64918,-0.305447,-0.0559458,0.14173,1,0,2.8175,-0.07,-0.4375,-0.297924,-0.045262,-0.870836,-0.06664,0.12166,0.48524
-0.0885389,0,0,15.0885,15.0885,14.9115,14.9115,0.0885389,2.80373,-1.64888,-0.305449,-0.0559232,0.14173,1,0,4.1825,0.0875,-0.84,-0.297924,-0.045262,-0.870836,-0.06664,0.12166,0.48524
0.132391,0,0,14.8676,14.8676,15.1324,15.1324,-0.132391,2.7175,-1.58702,-0.0816266,0.213179,0.0834003,0,0,4.27,0.245,-0.9975,-0.074664,0.227408,-0.928786,-0.06664,0.12166,0.48524
0.350093,0,0,14.6499,14.6499,15.3501,15.3501,-0.350093,2.63582,-1.5343,-0.0802026,0.209383,0.0834509,0,0,4.0775,0.5775,-1.435,-0.074664,0.227408,-0.928786,-0.06216,0.12754,0.48328
0.349304,0,0,14.6507,14.6507,15.3493,15.3493,-0.349304,2.63631,-1.53491,-0.013151,0.196207,-0.172036,1,0,3.92,0.3325,-1.365,-0.00732,0.214232,-1.1823,-0.06216,0.12754,0.48328
0.349283,0,0,14.6507,14.6507,15.3493,15.3493,-0.349283,2.63778,-1.53591,-0.0131767,0.196207,-0.172038,1,0,3.5,0.91,-1.5925,-0.00732,0.214232,-1.1823,-0.06216,0.12754,0.48328
0.349725,0,0,14.6503,14.6503,15.3497,15.3497,-0.349725,2.63869,-1.53679,0.0825382,0.0275426,0.157095,1,0,3.2375,0.5775,-1.5225,0.088816,0.04575,-0.855708,-0.06216,0.12754,0.48328
0.350928,0,0,14.6491,14.6491,15.3509,15.3509,-0.350928,2.63831,-1.53727,0.0825448,0.0275216,0.157095,1,0,2.8,-0.175,-1.295,0.088816,0.04575,-0.855708,-0.06216,0.12754,0.48328
0.352031,0,0,14.648,14.648,15.352,15.352,-0.352031,2.63779,-1.5376,-0.123243,0.37825,-0.114621,1,0,2.8525,-0.2625,-1.2075,-0.117852,0.396134,-1.12533,-0.06216,0.12754,0.48328
0.352291,0,0,14.6477,14.6477,15.3523,15.3523,-0.352291,2.63642,-1.53793,-0.123219,0.378246,-0.11462,1,0,3.325,-0.7525,-1.2075,-0.117852,0.396134,-1.12533,-0.06216,0.12754,0.48328
0.235729,0,0,14.7643,14.7643,15.2357,15.2357,-0.235729,2.84813,-1.73706,0.192233,-0.115556,0.0759069,0,0,3.325,-0.49,-1.2075,0.202642,-0.099186,-0.936106,-0.06216,0.12754,0.48328
0.120928,0,0,14.8791,14.8791,15.1209,15.1209,-0.120928,3.0566,-1.93531,0.188599,-0.113554,0.0757257,0,0,3.4125,-0.77,-0.91,0.202642,-0.099186,-0.936106,-0.06552,0.12866,0.47936
0.0811554,0,0,14.9188,14.9188,15.0812,15.0812,-0.0811554,3.02571,-1.91938,-0.0306298,-0.037631,0.0868209,0,0,3.115,0.07,-0.77,-0.018056,-0.024034,-0.925126,-0.06552,0.12866,0.47936
0.0424766,0,0,14.9575,14.9575,15.0425,15.0425,-0.0424766,2.99567,-1.90376,-0.0301062,-0.0369569,0.0868492,0,0,2.8875,0.2275,-0.8925,-0.018056,-0.024034,-0.925126,-0.06552,0.12866,0.47936
0.142807,0,0,14.8572,14.8572,15.1428,15.1428,-0.142807,3.04206,-1.96736,0.0495088,0.111388,-0.0804062,0,0,3.36,0.455,-0.91,0.062708,0.125904,-1.09105,-0.06552,0.12866,0.47936
0.241489,0,0,14.7585,14.7585,15.2415,15.2415,-0.241489,3.08821,-2.03091,0.0487045,0.109669,-0.0804551,0,0,3.3425,0.8225,-0.875,0.062708,0.125904,-1.09105,-0.06552,0.12866,0.47936
0.24103,0,0,14.759,14.759,15.241,15.241,-0.24103,3.08971,-2.03116,-0.197087,0.191257,0.166793,1,0,3.7275,0.9275,-1.155,-0.184098,0.2074,-0.845704,-0.06552,0.12866,0.47936
0.24151,0,0,14.7585,14.7585,15.2415,15.2415,-0.24151,3.0908,-2.03204,-0.197106,0.191249,0.166792,1,0,3.22,0.6825,-1.5225,-0.184098,0.2074,-0.845704,-0.06552,0.12866,0.47936
0.350515,0,0,14.6495,14.6495,15.3505,15.3505,-0.350515,2.82349,-1.80885,-0.239705,0.101172,0.111204,0,0,3.465,0.105,-1.645,-0.231556,0.119316,-0.901092,-0.06552,0.12866,0.47936
0.458709,0,0,14.5413,14.5413,15.4587,15.4587,-0.458709,2.56224,-1.58675,-0.23515,0.0992844,0.111405,0,0,2.9575,-0.1575,-1.5225,-0.231556,0.119316,-0.901092,-0.06076,0.1295,0.47838
0.459171,0,0,14.5408,14.5408,15.4592,15.4592,-0.459171,2.56177,-1.58741,0.099308,-0.209338,0.370089,1,0,3.22,-0.2275,-1.4,0.10431,-0.188978,-0.644404,-0.06076,0.1295,0.47838
0.45932,0,0,14.5407,14.5407,15.4593,15.4593,-0.45932,2.56115,-1.58807,0.0993188,-0.209341,0.370089,1,0,3.395,-0.315,-1.4,0.10431,-0.188978,-0.644404,-0.06076,0.1295,0.47838
0.458901,0,0,14.5411,14.5411,15.4589,15.4589,-0.458901,2.56089,-1.58858,-0.075859,-0.181733,0.226978,1,0,3.71,-0.105,-1.3125,-0.071614,-0.161406,-0.786412,-0.06076,0.1295,0.47838
0.458271,0,0,14.5417,14.5417,15.4583,15.4583,-0.458271,2.56076,-1.58856,-0.0758567,-0.181722,0.226978,1,0,3.815,-0.035,-0.9975,-0.071614,-0.161406,-0.786412,-0.06076,0.1295,0.47838
0.458767,0,0,14.5412,14.5412,15.4588,15.4588,-0.458767,2.57214,-1.60999,0.015788,0.00145996,-0.0762221,0,0,3.6225,-0.2975,-0.91,0.020618,0.021594,-1.08726,-0.06076,0.1295,0.47838
0.460313,0,0,14.5397,14.5397,15.4603,15.4603,-0.460313,2.58395,-1.63062,0.0155821,0.00143309,-0.0762316,0,0,3.01,0.07,-0.455,0.020618,0.021594,-1.08726,-0.06076,0.1295,0.47838
0.460886,0,0,14.5391,14.5391,15.4609,15.4609,-0.460886,2.58415,-1.62961,0.110823,0.135763,-0.14078,1,0,3.115,0.1575,-0.42,0.116266,0.155794,-1.15131,-0.06076,0.1295,0.47838
0.461334,0,0,14.5387,14.5387,15.4613,15.4613,-0.461334,2.58426,-1.62856,0.110821,0.135755,-0.14078,1,0,3.185,0.105,-0.4025,0.116266,0.155794,-1.15131,-0.06076,0.1295,0.47838
0.46251,0,0,14.5375,14.5375,15.4625,15.4625,-0.46251,2.58462,-1.62707,-0.35982,-0.136486,-0.0582819,1,0,2.765,0.245,-0.14,-0.356362,-0.116144,-1.06945,-0.06706,0.13174,0.48314
0.337079,0,0,14.6629,14.6629,15.3371,15.3371,-0.337079,2.5735,-1.62101,-0.011327,-0.121354,0.0710839,0,0,2.9575,0,-0.4725,-0.006588,-0.103212,-0.941108,-0.06706,0.13174,0.48314
0.213018,0,0,14.787,14.787,15.213,15.213,-0.213018,2.56224,-1.61547,-0.0111307,-0.119191,0.0711031,0,0,3.3775,-0.21,-0.7,-0.006588,-0.103212,-0.941108,-0.06706,0.13174,0.48314
0.213997,0,0,14.786,14.786,15.214,15.214,-0.213997,2.56175,-1.61515,-0.075145,-0.20543,-0.270202,1,0,2.905,-0.245,-0.8225,-0.070882,-0.189344,-1.27978,-0.06706,0.13174,0.48314
0.215114,0,0,14.7849,14.7849,15.2151,15.2151,-0.215114,2.56045,-1.61509,-0.0751224,-0.205449,-0.270201,1,0,2.835,-0.7175,-0.98,-0.070882,-0.189344,-1.27978,-0.06706,0.13174,0.48314
0.215911,0,0,14.7841,14.7841,15.2159,15.2159,-0.215911,2.5595,-1.61557,0.397473,-0.0404697,-0.17344,1,0,3.0275,-0.5075,-1.295,0.403698,-0.024522,-1.18377,-0.06706,0.13174,0.48314
0.215602,0,0,14.7844,14.7844,15.2156,15.2156,-0.215602,2.56011,-1.61713,0.397463,-0.0404643,-0.17344,1,0,3.675,0.4025,-1.925,0.403698,-0.024522,-1.18377,-0.06706,0.13174,0.48314
0.0917785,0,0,14.9082,14.9082,15.0918,15.0918,-0.0917785,2.43122,-1.50442,-0.121463,-0.125138,0.014529,0,0,4.0775,0.56,-2.205,-0.119682,-0.111264,-0.99735,-0.06706,0.13174,0.48314
-0.0297025,0,0,15.0297,15.0297,14.9703,14.9703,0.0297025,2.30643,-1.38772,-0.119287,-0.123019,0.0146202,0,0,3.9725,0.84,-2.415,-0.119682,-0.111264,-0.99735,-0.06328,0.12768,0.47782
-0.155836,0,0,15.1558,15.1558,14.8442,14.8442,0.155836,2.57685,-1.63396,0.251267,-0.127903,0.0644556,0,0,4.0775,0.455,-2.3975,0.257176,-0.11834,-0.947696,-0.06328,0.12768,0.47782
-0.278649,0,0,15.2786,15.2786,14.7214,14.7214,0.278649,2.84196,-1.87848,0.246645,-0.125763,0.0642288,0,0,3.36,0.1225,-2.24,0.257176,-0.11834,-0.947696,-0.06328,0.12768,0.47782
-0.397271,0,0,15.3973,15.3973,14.6027,14.6027,0.397271,2.77566,-1.82197,-0.061745,-0.124916,-0.00937287,0,0,2.8,0.0875,-2.0125,-0.05368,-0.11956,-1.02077,-0.06328,0.12768,0.47782
-0.514591,0,0,15.5146,15.5146,14.4854,14.4854,0.514591,2.70933,-1.76498,-0.0605887,-0.122871,-0.00933376,0,0,3.1675,-0.6475,-1.47,-0.05368,-0.11956,-1.02077,-0.06328,0.12768,0.47782
-0.706174,0,0,15.7062,15.7062,14.2938,14.2938,0.706174,2.86206,-1.9015,0.142424,-0.194152,0.055295,0,0,3.115,-0.6125,-1.26,0.152866,-0.194102,-0.95648,-0.06328,0.12768,0.47782
-0.895329,0,0,15.8953,15.8953,14.1047,14.1047,0.895329,3.01218,-2.03557,0.139808,-0.190857,0.0551147,0,0,3.4475,-0.525,-0.4725,0.152866,-0.194102,-0.95648,-0.06328,0.12768,0.47782
-0.535194,0,0,15.5352,15.5352,14.4648,14.4648,0.535194,3.21512,-2.25834,0.195191,0.392248,0.0388944,0,0,3.29,-0.1225,-0.245,0.212036,0.39467,-0.972462,-0.06328,0.12768,0.47782
-0.181133,0,0,15.1811,15.1811,14.8189,14.8189,0.181133,3.41666,-2.48673,0.19168,0.386078,0.0387295,0,0,3.7275,0.035,0.245,0.212036,0.39467,-0.972462,-0.06286,0.13104,0.47544
-0.181556,0,0,15.1816,15.1816,14.8184,14.8184,0.181556,3.41681,-2.48391,-0.113252,0.0100573,-0.149382,1,0,3.605,0.14,0.63,-0.094184,0.019032,-1.15912,-0.06286,0.13104,0.47544
-0.181217,0,0,15.1812,15.1812,14.8188,14.8188,0.181217,3.41709,-2.4813,-0.113257,0.0100513,-0.149382,1,0,3.185,0.21,0.5075,-0.094184,0.019032,-1.15912,-0.06286,0.13104,0.47544
-0.333845,0,0,15.3338,15.3338,14.6662,14.6662,0.333845,3.25956,-2.34662,-0.152303,-0.166693,-0.0474326,0,0,3.2725,0.2625,0.3675,-0.136152,-0.160186,-1.05811,-0.06286,0.13104,0.47544
-0.48424,0,0,15.4842,15.4842,14.5158,14.5158,0.48424,3.10495,-2.21369,-0.149609,-0.164071,-0.0473016,0,0,3.5,0.28,0,-0.136152,-0.160186,-1.05811,-0.06286,0.13104,0.47544
-0.386477,0,0,15.3865,15.3865,14.6135,14.6135,0.386477,3.18574,-2.31274,0.0843009,0.107667,-0.0698656,0,0,3.3775,0.0175,-0.105,0.100162,0.112972,-1.08043,-0.06286,0.13104,0.47544
-0.29013,0,0,15.2901,15.2901,14.7099,14.7099,0.29013,3.26409,-2.41312,0.0829356,0.105987,-0.0699326,0,0,3.3075,-0.5425,-0.84,0.100162,0.112972,-1.08043,-0.06286,0.13104,0.47544
-0.378689,0,0,15.3787,15.3787,14.6213,14.6213,0.378689,3.06166,-2.24353,-0.179226,-0.0839631,0.0908241,0,0,2.7825,-0.245,-1.3475,-0.166652,-0.078324,-0.9211,-0.06286,0.13104,0.47544
-0.467042,0,0,15.467,15.467,14.533,14.533,0.467042,2.86171,-2.07825,-0.175741,-0.0824218,0.090993,0,0,3.535,-0.105,-2.0125,-0.166652,-0.078324,-0.9211,-0.06734,0.13328,0.47586
-0.233955,0,0,15.234,15.234,14.766,14.766,0.233955,3.28974,-2.50217,0.354009,0.217731,0.207172,0,0,3.325,0.3675,-2.31,0.372832,0.225578,-0.805444,-0.06734,0.13328,0.47586
-0.00440104,0,0,15.0044,15.0044,14.9956,14.9956,0.00440104,3.71088,-2.92967,0.346673,0.213731,0.206732,0,0,3.6575,0.4025,-2.8875,0.372832,0.225578,-0.805444,-0.06734,0.13328,0.47586
-0.200611,0,0,15.2006,15.2006,14.7994,14.7994,0.200611,3.40206,-2.66412,-0.290486,-0.201745,0.0398501,0,0,3.7975,0.1225,-2.94,-0.272426,-0.192882,-0.971364,-0.06734,0.13328,0.47586
-0.393737,0,0,15.3937,15.3937,14.6063,14.6063,0.393737,3.09902,-2.40149,-0.285205,-0.198378,0.0401325,0,0,3.955,0.315,-3.185,-0.272426,-0.192882,-0.971364,-0.06734,0.13328,0.47586
-0.451744,0,0,15.4517,15.4517,14.5483,14.5483,0.451744,3.10196,-2.42409,0.00315072,-0.0591197,0.00766387,0,0,3.6225,0.4375,-2.8875,0.017202,-0.054778,-1.00357,-0.06734,0.13328,0.47586
-0.508386,0,0,15.5084,15.5084,14.4916,14.4916,0.508386,3.10462,-2.44587,0.00310424,-0.0581327,0.00765308,0,0,3.3775,0.2975,-2.415,0.017202,-0.054778,-1.00357,-0.06734,0.13328,0.47586
-0.507705,0,0,15.5077,15.5077,14.4923,14.4923,0.507705,3.10403,-2.4476,0.177568,-0.0996676,0.163061,1,0,3.1325,-0.315,-2.0125,0.192394,-0.096258,-0.849364,-0.06734,0.13328,0.47586
-0.506685,0,0,15.5067,15.5067,14.4933,14.4933,0.506685,3.10389,-2.44748,0.17757,-0.0996854,0.163061,1,0,2.8875,-0.035,-0.945,0.192394,-0.096258,-0.849364,-0.06062,0.13916,0.4774
-0.261107,0,0,15.2611,15.2611,14.7389,14.7389,0.261107,3.45361,-2.81357,0.292719,0.232859,0.169134,0,0,3.045,-0.4375,-0.4025,0.31415,0.240218,-0.84302,-0.06062,0.13916,0.4774
-0.0204011,0,0,15.0204,15.0204,14.9796,14.9796,0.0204011,3.79761,-3.18041,0.286728,0.228665,0.168764,0,0,3.815,-0.35,0.49,0.31415,0.240218,-0.84302,-0.06062,0.13916,0.4774
-0.0202421,0,0,15.0202,15.0202,14.9798,14.9798,0.0202421,3.79792,-3.17723,-0.399065,-0.24409,-0.111681,1,0,3.255,0.2275,0.84,-0.37454,-0.232044,-1.1213,-0.06062,0.13916,0.4774
-0.0195921,0,0,15.0196,15.0196,14.9804,14.9804,0.0195921,3.79782,-3.17345,-0.399063,-0.244101,-0.111681,1,0,2.9575,-0.0175,1.19,-0.37454,-0.232044,-1.1213,-0.06062,0.13916,0.4774
0.157092,0,0,14.8429,14.8429,15.1571,15.1571,-0.157092,3.81242,-3.23863,0.0103326,0.195531,-0.0578504,0,0,3.36,-0.1225,1.26,0.036844,0.210206,-1.06787,-0.06062,0.13916,0.4774
0.331046,0,0,14.669,14.669,15.331,15.331,-0.331046,3.82755,-3.30454,0.0100691,0.192502,-0.0578809,0,0,3.29,0.42,0.8225,0.036844,0.210206,-1.06787,-0.06062,0.13916,0.4774
0.331018,0,0,14.669,14.669,15.331,15.331,-0.331018,3.82812,-3.30232,-0.00524793,-0.192685,-0.114807,1,0,3.395,0.3675,0.28,0.021472,-0.174582,-1.12435,-0.06062,0.13916,0.4774
0.331104,0,0,14.6689,14.6689,15.3311,15.3311,-0.331104,3.82856,-3.30134,-0.00525556,-0.192687,-0.114807,1,0,3.3775,0.2975,-0.4375,0.021472,-0.174582,-1.12435,-0.06062,0.13916,0.4774
0.33177,0,0,14.6682,14.6682,15.3318,15.3318,-0.33177,3.82959,-3.30111,0.0227897,0.0343351,0.163547,1,0,3.08,0.6475,-0.875,0.049654,0.052216,-0.848144,-0.06608,0.1323,0.4732
0.331664,0,0,14.6683,14.6683,15.3317,15.3317,-0.331664,3.82908,-3.30285,0.0227984,0.034337,0.163547,1,0,3.5875,-0.245,-2.03,0.049654,0.052216,-0.848144,-0.06608,0.1323,0.4732
0.786957,0,0,14.213,14.213,15.787,15.787,-0.786957,3.90599,-3.44683,0.0394392,0.425642,0.202846,0,0,3.5175,-0.175,-2.975,0.06771,0.451034,-0.808982,-0.06608,0.1323,0.4732
1.23567,0,0,13.7643,13.7643,16.2357,16.2357,-1.23567,3.98131,-3.59186,0.0381276,0.417832,0.202618,0,0,3.5175,-0.175,-2.975,0.06771,0.451034,-0.808982,-0.06608,0.1323,0.4732
1.14301,0,0,13.857,13.857,16.143,16.143,-1.14301,3.52129,-3.19453,-0.430206,-0.0934976,0.104818,0,0,4.1475,-4.27,-3.15,-0.410652,-0.061366,-0.906582,-0.06608,0.1323,0.4732
1.05199,0,0,13.948,13.948,16.052,16.052,-1.05199,3.06865,-2.79893,-0.422319,-0.0919207,0.105302,0,0,4.1475,-4.27,-3.15,-0.410652,-0.061366,-0.906582,-0.06608,0.1323,0.4732
1.0518,0,0,13.9482,13.9482,16.0518,16.0518,-1.0518,3.0682,-2.8031,0.197387,-0.014489,-0.313583,1,0,3.6925,-0.175,-3.4475,0.21167,0.015982,-1.32224,-0.06608,0.1323,0.4732
1.05161,0,0,13.9484,13.9484,16.0516,16.0516,-1.05161,3.06775,-2.80727,0.197395,-0.0144858,-0.313583,1,0,3.6925,-0.175,-3.4475,0.21167,0.015982,-1.32224,-0.06608,0.1323,0.4732
1.05287,0,0,13.9471,13.9471,16.0529,16.0529,-1.05287,3.06852,-2.8081,0.0382353,-0.0460164,-0.134817,1,0,2.7825,0.5075,-1.4875,0.05185,-0.015494,-1.14485,-0.06314,0.12642,0.4809
1.05371,0,0,13.9463,13.9463,16.0537,16.0537,-1.05371,3.06931,-2.80818,-0.0258014,-0.179393,0.115751,1,0,2.9925,0.5075,-1.05,-0.012444,-0.148718,-0.896212,-0.06314,0.12642,0.4809
1.05422,0,0,13.9458,13.9458,16.0542,16.0542,-1.05422,3.06951,-2.80659,-0.0258048,-0.179402,0.115751,1,0,3.1325,0.14,-0.0875,-0.012444,-0.148718,-0.896212,-0.06314,0.12642,0.4809
1.18675,0,0,13.8132,13.8132,16.1868,16.1868,-1.18675,3.225,-2.97566,0.159667,0.143759,-0.0182111,0,0,3.465,-0.385,0.385,0.176534,0.176412,-1.02895,-0.06314,0.12642,0.4809
1.3167,0,0,13.6833,13.6833,16.3167,16.3167,-1.3167,3.37831,-3.14408,0.156995,0.141499,-0.0184146,0,0,3.6925,-0.0875,1.015,0.176534,0.176412,-1.02895,-0.06314,0.12642,0.4809
1.31708,0,0,13.6829,13.6829,16.3171,16.3171,-1.31708,3.37881,-3.14004,-0.00835522,-0.0959222,-0.167798,1,0,3.115,0.28,1.3475,0.010492,-0.060756,-1.17718,-0.06314,0.12642,0.4809
1.31637,0,0,13.6836,13.6836,16.3164,16.3164,-1.31637,3.37787,-3.13591,-0.0083389,-0.0959097,-0.167796,1,0,3.7275,-0.56,1.3825,0.010492,-0.060756,-1.17718,-0.06314,0.12642,0.4809
1.3164,0,0,13.6836,13.6836,16.3164,16.3164,-1.3164,3.37761,-3.13239,0.0577539,-0.0806445,0.124084,1,0,3.325,-0.1575,1.0325,0.07686,-0.045506,-0.88755,-0.06314,0.12642,0.4809
1.31782,0,0,13.6822,13.6822,16.3178,16.3178,-1.31782,3.37822,-3.12958,0.0577432,-0.0806693,0.124082,1,0,2.5725,0.3675,0.63,0.07686,-0.045506,-0.88755,-0.06538,0.12978,0.47656
1.31782,0,0,13.6822,13.6822,16.3178,16.3178,-1.31782,3.37837,-3.12911,0.10597,0.340424,-0.103987,1,0,3.4475,0.1225,-0.735,0.125294,0.37515,-1.11386,-0.06538,0.12978,0.47656
1.31782,0,0,13.6822,13.6822,16.3178,16.3178,-1.31782,3.37851,-3.12863,0.105968,0.340424,-0.103987,1,0,3.4475,0.1225,-0.735,0.125294,0.37515,-1.11386,-0.06538,0.12978,0.47656
0.985486,0,0,14.0145,14.0145,15.9855,15.9855,-0.985486,3.33224,-3.07863,-0.0399806,-0.348811,0.0369523,0,0,4.06,0.2275,-2.24,-0.022082,-0.319152,-0.97417,-0.06538,0.12978,0.47656
0.658387,0,0,14.3416,14.3416,15.6584,15.6584,-0.658387,3.28684,-3.02945,-0.0391894,-0.343113,0.0370798,0,0,4.06,0.2275,-2.24,-0.022082,-0.319152,-0.97417,-0.06538,0.12978,0.47656
0.531022,0,0,14.469,14.469,15.531,15.531,-0.531022,3.22327,-2.9834,-0.0584913,-0.139263,-0.0613159,0,0,3.7975,-0.21,-3.185,-0.042578,-0.11773,-1.07189,-0.06538,0.12978,0.47656
0.529477,0,0,14.4705,14.4705,15.5295,15.5295,-0.529477,3.22226,-2.98766,-0.118245,-0.0251699,-0.237746,1,0,4.4625,-0.525,-3.5,-0.102602,-0.003782,-1.24696,-0.06538,0.12978,0.47656
0.528663,0,0,14.4713,14.4713,15.5287,15.5287,-0.528663,3.22193,-2.99214,-0.118239,-0.0251557,-0.237745,1,0,4.06,-0.1225,-3.6225,-0.102602,-0.003782,-1.24696,-0.06538,0.12978,0.47656
0.512084,0,0,14.4879,14.4879,15.5121,15.5121,-0.512084,3.07722,-2.87874,-0.14536,-0.0161971,-0.0865003,0,0,4.1825,-0.245,-3.4475,-0.13237,0.00488,-1.09702,-0.07224,0.12922,0.47992
0.498179,0,0,14.5018,14.5018,15.4982,15.4982,-0.498179,2.93479,-2.7645,-0.142877,-0.0159559,-0.0863678,0,0,2.8175,-0.4375,-2.8175,-0.13237,0.00488,-1.09702,-0.07224,0.12922,0.47992
0.498611,0,0,14.5014,14.5014,15.4986,15.4986,-0.498611,2.93513,-2.76571,0.196305,0.12265,0.294526,1,0,3.255,0.245,-1.715,0.208254,0.14335,-0.719068,-0.07224,0.12922,0.47992
0.500122,0,0,14.4999,14.4999,15.5001,15.5001,-0.500122,2.93612,-2.76605,-0.222838,0.0841542,0.177847,1,0,2.625,0.63,-1.2075,-0.212646,0.10492,-0.834846,-0.07224,0.12922,0.47992
0.501192,0,0,14.4988,14.4988,15.5012,15.5012,-0.501192,2.93594,-2.76509,-0.222835,0.0841355,0.177847,1,0,2.835,-0.07,-0.455,-0.212646,0.10492,-0.834846,-0.07224,0.12922,0.47992
0.503051,0,0,14.4969,14.4969,15.5031,15.5031,-0.503051,2.93668,-2.76309,-0.0239757,-0.148426,-0.113788,1,0,2.3625,0.4725,0.1575,-0.012932,-0.127368,-1.12423,-0.07224,0.12922,0.47992
0.503972,0,0,14.496,14.496,15.504,15.504,-0.503972,2.93741,-2.75983,-0.0239884,-0.148442,-0.113789,1,0,2.8525,0.455,0.8925,-0.012932,-0.127368,-1.12423,-0.07224,0.12922,0.47992
0.502916,0,0,14.4971,14.4971,15.5029,15.5029,-0.502916,2.9374,-2.75638,0.196022,0.0170579,-0.138501,1,0,3.955,0.0175,0.9975,0.20801,0.037942,-1.14875,-0.07224,0.12922,0.47992
0.502075,0,0,14.4979,14.4979,15.5021,15.5021,-0.502075,2.9375,-2.75284,0.196021,0.0170726,-0.138501,1,0,3.8325,0.0875,1.05,0.20801,0.037942,-1.14875,-0.06902,0.12978,0.47614
0.579729,0,0,14.4203,14.4203,15.5797,15.5797,-0.579729,2.85269,-2.69106,-0.0838619,0.0832544,-0.0183183,0,0,3.675,0,0.945,-0.074542,0.105408,-1.02956,-0.06902,0.12978,0.47614
0.657632,0,0,14.3424,14.3424,15.6576,15.6576,-0.657632,2.7698,-2.62975,-0.082417,0.0818957,-0.018262,0,0,2.835,0.2625,0.56,-0.074542,0.105408,-1.02956,-0.06902,0.12978,0.47614
0.493764,0,0,14.5062,14.5062,15.4938,15.4938,-0.493764,2.62843,-2.49438,-0.131462,-0.164387,0.0558979,0,0,2.765,0.28,0.2275,-0.12627,-0.143472,-0.956114,-0.06902,0.12978,0.47614
0.331731,0,0,14.6683,14.6683,15.3317,15.3317,-0.331731,2.48893,-2.36221,-0.12903,-0.161563,0.0560269,0,0,3.325,-0.0875,-1.015,-0.12627,-0.143472,-0.956114,-0.06902,0.12978,0.47614
0.617495,0,0,14.3825,14.3825,15.6175,15.6175,-0.617495,2.52983,-2.42839,0.0364494,0.304131,0.0218977,0,0,2.9925,0.245,-1.5925,0.040626,0.326716,-0.989908,-0.06902,0.12978,0.47614
0.897315,0,0,14.1027,14.1027,15.8973,15.8973,-0.897315,2.57046,-2.49639,0.035741,0.299253,0.0218016,0,0,3.8325,0.56,-2.52,0.040626,0.326716,-0.989908,-0.06902,0.12978,0.47614
0.789822,0,0,14.2102,14.2102,15.7898,15.7898,-0.789822,2.47522,-2.41001,-0.09356,-0.114349,-0.0246951,0,0,3.5175,0.56,-2.765,-0.09089,-0.088328,-1.03615,-0.06902,0.12978,0.47614
0.68351,0,0,14.3165,14.3165,15.6835,15.6835,-0.68351,2.38062,-2.32444,-0.0919105,-0.112496,-0.0246013,0,0,3.8675,-0.0525,-2.87,-0.09089,-0.088328,-1.03615,-0.07042,0.12992,0.48762
