pid_x,pid_y,pid_z,front_left_speed,front_right_speed,back_left_speed,back_right_speed,orientation_x,orientation_y,orientation_z,acceleration_x,acceleration_y,acceleration_z,accel_rejected,mag_rejected,gyro_x,gyro_y,gyro_z,accel_x,accel_y,accel_z,mag_x,mag_y,mag_z
-33.1517,0,0,48.1517,48.1517,5,5,0.49284,-0.0563479,-0.281617,0.0397813,-0.426969,0.0864572,0,0,3.465,4.4625,-0.4025,-0.001342,-0.422974,-0.926834,-0.05782,0.26796,0.3255
-32.9617,0,0,47.9617,47.9617,5,5,0.978459,-0.121501,-0.557313,0.0369094,-0.41764,0.0905269,0,0,3.6225,-0.035,-0.4025,-0.005368,-0.42212,-0.922686,-0.05782,0.26796,0.3255
-32.6795,0,0,47.6795,47.6795,5,5,1.45555,-0.182552,-0.83165,0.0379749,-0.409315,0.0903472,0,0,3.605,-0.105,-0.5075,-0.005368,-0.42212,-0.922686,-0.05782,0.26796,0.3255
-32.523,0,0,47.523,47.523,5,5,1.92606,-0.236802,-1.10685,0.0415944,-0.40416,0.0881343,0,0,3.605,-0.1925,-0.5075,-0.002684,-0.42517,-0.924638,-0.05782,0.26796,0.3255
-32.1899,0,0,47.1899,47.1899,5,5,2.38742,-0.283138,-1.38336,0.0451973,-0.395014,0.0885653,0,0,3.605,-0.0875,-0.49,0.000122,-0.424072,-0.923906,-0.05782,0.26796,0.3255
-31.9131,0,0,46.9131,46.9131,5,5,2.84055,-0.325529,-1.65801,0.0459372,-0.387114,0.0882006,0,0,3.5875,0.0875,-0.5075,0.000122,-0.424072,-0.923906,-0.05782,0.26796,0.3255
-31.9464,0,0,46.9464,46.9464,5,5,3.29013,-0.367631,-1.92538,0.0443637,-0.38221,0.0918339,0,0,3.6225,0.0525,-0.56,-0.002196,-0.427,-0.91988,-0.05446,0.26726,0.33054
-31.7372,0,0,46.7372,46.7372,5,5,3.73259,-0.400964,-2.19533,0.0491975,-0.373404,0.0957832,0,0,3.71,-0.1225,-0.4725,0.002074,-0.425902,-0.915488,-0.05446,0.26726,0.33054
-31.4163,0,0,46.4163,46.4163,5,5,4.16633,-0.436114,-2.45926,0.0460449,-0.366096,0.0939049,0,0,3.5,-0.14,-0.525,-0.001708,-0.426146,-0.91683,-0.05446,0.26726,0.33054
-31.1326,0,0,46.1326,46.1326,5,5,4.59199,-0.466204,-2.72231,0.0479064,-0.360766,0.0887845,0,0,3.5,0.0525,-0.49,-0.000366,-0.42822,-0.921344,-0.05446,0.26726,0.33054
-30.8748,0,0,45.8748,45.8748,5,5,5.01001,-0.493428,-2.98336,0.0483815,-0.353496,0.0881699,0,0,3.57,-0.035,-0.5075,-0.000366,-0.42822,-0.921344,-0.05446,0.26726,0.33054
-30.4956,0,0,45.4956,45.4956,5,5,5.41867,-0.519383,-3.24092,0.0473767,-0.344806,0.0871489,0,0,3.5875,-0.07,-0.49,-0.00183,-0.426634,-0.92171,-0.05446,0.26726,0.33054
-30.0291,0,0,45.0291,45.0291,5,5,5.81675,-0.54535,-3.49398,0.0451572,-0.335694,0.0849892,0,0,3.43,0.035,-0.5775,-0.004514,-0.424438,-0.923174,-0.05446,0.26726,0.33054
-29.7678,0,0,44.7678,44.7678,5,5,6.20739,-0.566428,-3.73881,0.0455251,-0.328914,0.0842716,0,0,3.5,0.0175,-0.56,-0.004514,-0.424438,-0.923174,-0.05418,0.26376,0.32956
-29.4514,0,0,44.4514,44.4514,5,5,6.58984,-0.584545,-3.98207,0.0464487,-0.324113,0.0782378,0,0,3.4125,-0.14,-0.5425,-0.003904,-0.426268,-0.92842,-0.05418,0.26376,0.32956
-29.2375,0,0,44.2375,44.2375,5,5,6.96569,-0.600302,-4.22319,0.0463592,-0.315646,0.0827476,0,0,3.43,0.0175,-0.7,-0.00427,-0.424316,-0.923174,-0.05418,0.26376,0.32956
-28.9928,0,0,43.9928,43.9928,5,5,7.33456,-0.613754,-4.46223,0.046594,-0.309259,0.0819439,0,0,3.43,0.0175,-0.7,-0.00427,-0.424316,-0.923174,-0.05418,0.26376,0.32956
-28.9234,0,0,43.9234,43.9234,5,5,7.6991,-0.617883,-4.70395,0.0520114,-0.304417,0.0841845,0,0,3.465,0.175,-0.455,0.001098,-0.42578,-0.920124,-0.05418,0.26376,0.32956
-28.5024,0,0,43.5024,43.5024,5,5,8.05413,-0.629405,-4.93679,0.0455308,-0.29828,0.076817,0,0,3.5875,-0.0875,-0.56,-0.005612,-0.42578,-0.92659,-0.05418,0.26376,0.32956
-28.24,0,0,43.24,43.24,5,5,8.40209,-0.638897,-5.1674,0.0456964,-0.29227,0.0759461,0,0,3.395,-0.105,-0.49,-0.005612,-0.42578,-0.92659,-0.05418,0.26376,0.32956
-27.9008,0,0,42.9008,42.9008,5,5,8.7419,-0.633043,-5.39885,0.0493603,-0.283963,0.0775222,0,0,3.3775,4.445,-0.4725,-0.00183,-0.42334,-0.92415,-0.05418,0.26376,0.32956
-27.7577,0,0,42.7577,42.7577,5,5,9.07656,-0.641578,-5.62765,0.0445284,-0.279659,0.0742801,0,0,3.78,-0.07,-0.455,-0.006832,-0.424804,-0.926468,-0.05642,0.26628,0.32928
-27.714,0,0,42.714,42.714,5,5,9.40757,-0.64315,-5.85769,0.0482004,-0.273591,0.0815895,0,0,3.4475,0.105,-0.4025,-0.003172,-0.424438,-0.918294,-0.05642,0.26628,0.32928
-27.3638,0,0,42.3638,42.3638,5,5,9.73042,-0.642044,-6.08643,0.04891,-0.268767,0.075981,0,0,3.3075,0,-0.49,-0.00244,-0.42517,-0.92293,-0.05642,0.26628,0.32928
-27.1809,0,0,42.1809,42.1809,5,5,10.0477,-0.639347,-6.3132,0.0488629,-0.263313,0.0750307,0,0,3.64,-0.035,-0.665,-0.00244,-0.42517,-0.92293,-0.05642,0.26628,0.32928
-26.9772,0,0,41.9772,41.9772,5,5,10.3591,-0.632572,-6.5395,0.050567,-0.258452,0.0733316,0,0,3.78,-0.0175,-0.665,-0.00061,-0.425658,-0.923662,-0.05642,0.26628,0.32928
-26.723,0,0,41.723,41.723,5,5,10.6639,-0.624421,-6.76313,0.0504247,-0.253221,0.0723626,0,0,3.465,0.0175,-0.455,-0.00061,-0.425658,-0.923662,-0.05642,0.26628,0.32928
-26.7385,0,0,41.7385,41.7385,5,5,10.9662,-0.620513,-6.98027,0.0468334,-0.249015,0.0762911,0,0,3.43,0.0525,-0.3325,-0.004148,-0.426634,-0.918782,-0.05642,0.26628,0.32928
-26.5236,0,0,41.5236,41.5236,5,5,11.2627,-0.614856,-7.19223,0.0467347,-0.243938,0.0752948,0,0,3.4825,-0.245,-0.35,-0.004148,-0.426634,-0.918782,-0.0574,0.26488,0.32886
-26.0811,0,0,41.0811,41.0811,5,5,11.5499,-0.603464,-7.40514,0.0492086,-0.23707,0.0713548,0,0,3.535,-0.28,-0.3325,-0.001464,-0.424682,-0.92171,-0.0574,0.26488,0.32886
-25.8805,0,0,40.8805,40.8805,5,5,11.8316,-0.590968,-7.61585,0.0489905,-0.232256,0.0703609,0,0,3.535,-0.28,-0.3325,-0.001464,-0.424682,-0.92171,-0.0574,0.26488,0.32886
-25.6732,0,0,40.6732,40.6732,5,5,12.1077,-0.578029,-7.82371,0.0481572,-0.228641,0.0670279,0,0,3.5175,-0.0525,-0.4725,-0.002074,-0.42578,-0.924028,-0.0574,0.26488,0.32886
-25.4791,0,0,40.4791,40.4791,5,5,12.3784,-0.564091,-8.02941,0.047914,-0.224023,0.0660283,0,0,3.5175,-0.0525,-0.4725,-0.002074,-0.42578,-0.924028,-0.0574,0.26488,0.32886
-25.5559,0,0,40.5559,40.5559,5,5,12.6479,-0.544828,-8.23583,0.0507364,-0.220653,0.0700535,0,0,3.8675,0.0875,-0.63,0.001098,-0.427,-0.919026,-0.0574,0.26488,0.32886
-25.3654,0,0,40.3654,40.3654,5,5,12.9121,-0.524772,-8.44004,0.0503864,-0.216155,0.0690367,0,0,3.8675,0.0875,-0.63,0.001098,-0.427,-0.919026,-0.0574,0.26488,0.32886
-25.0843,0,0,40.0843,40.0843,5,5,13.1697,-0.514848,-8.63481,0.0428026,-0.210552,0.0675316,0,0,3.71,-0.0525,-0.6475,-0.006344,-0.42578,-0.919514,-0.0574,0.26488,0.32886
-24.6602,0,0,39.6602,39.6602,5,5,13.4188,-0.497405,-8.82633,0.0457783,-0.204612,0.0639527,0,0,3.6575,-0.035,-0.6125,-0.00305,-0.424072,-0.922076,-0.0609,0.26376,0.32984
-24.4696,0,0,39.4696,39.4696,5,5,13.6628,-0.479783,-9.01548,0.0454707,-0.200471,0.0629582,0,0,3.57,-0.2975,-0.385,-0.00305,-0.424072,-0.922076,-0.0609,0.26376,0.32984
-24.2511,0,0,39.2511,39.2511,5,5,13.9014,-0.458969,-9.20418,0.0469297,-0.19838,0.0571741,0,0,3.5175,-0.28,-0.385,-0.00122,-0.426024,-0.926834,-0.0609,0.26376,0.32984
-24.3808,0,0,39.3808,39.3808,5,5,14.1398,-0.439659,-9.38909,0.0454994,-0.194831,0.0644063,0,0,3.4825,-0.21,-0.3325,-0.002318,-0.426512,-0.91866,-0.0609,0.26376,0.32984
-24.2076,0,0,39.2076,39.2076,5,5,14.3735,-0.419645,-9.57215,0.0451501,-0.190878,0.0634045,0,0,3.4825,-0.175,-0.455,-0.002318,-0.426512,-0.91866,-0.0609,0.26376,0.32984
-24.1833,0,0,39.1833,39.1833,5,5,14.6047,-0.403175,-9.75046,0.0425544,-0.190512,0.0584624,0,0,3.6925,-0.1925,-0.5075,-0.004636,-0.43005,-0.922564,-0.0609,0.26376,0.32984
-24.01,0,0,39.01,39.01,5,5,14.8313,-0.385736,-9.92703,0.04225,-0.186687,0.0574598,0,0,3.6575,-0.035,-0.6825,-0.004636,-0.43005,-0.922564,-0.0609,0.26376,0.32984
-23.4784,0,0,38.4784,38.4784,5,5,15.0479,-0.360117,-10.1066,0.0460549,-0.177781,0.0566107,0,0,3.7975,-0.0175,-0.5775,-0.000366,-0.424804,-0.922442,-0.0609,0.26376,0.32984
-23.2786,0,0,38.2786,38.2786,5,5,15.2597,-0.334453,-10.2859,0.045607,-0.174213,0.0556472,0,0,3.43,0.0525,-0.595,-0.000366,-0.424804,-0.922442,-0.05838,0.26348,0.32844
-23.0913,0,0,38.0913,38.0913,5,5,15.4668,-0.310141,-10.4618,0.0439678,-0.170605,0.0539543,0,0,3.395,0.1575,-0.5075,-0.001586,-0.424682,-0.923174,-0.05838,0.26348,0.32844
-22.9371,0,0,37.9371,37.9371,5,5,15.6697,-0.285569,-10.6357,0.0435389,-0.167193,0.0530059,0,0,3.3775,0.14,-0.49,-0.001586,-0.424682,-0.923174,-0.05838,0.26348,0.32844
-22.7001,0,0,37.7001,37.7001,5,5,15.8673,-0.260426,-10.8082,0.0431001,-0.162652,0.0523166,0,0,3.3075,0.105,-0.6825,-0.001586,-0.423462,-0.92293,-0.05838,0.26348,0.32844
-22.5666,0,0,37.5666,37.5666,5,5,16.0611,-0.235185,-10.9789,0.0426596,-0.159399,0.051388,0,0,3.4125,0.0175,-0.7175,-0.001586,-0.423462,-0.92293,-0.05838,0.26348,0.32844
-22.4459,0,0,37.4459,37.4459,5,5,16.2515,-0.205366,-11.1503,0.0452978,-0.157185,0.0491132,0,0,3.5875,-0.0875,-0.56,0.001586,-0.424438,-0.924272,-0.05838,0.26348,0.32844
-22.3071,0,0,37.3071,37.3071,5,5,16.438,-0.175484,-11.3198,0.0447762,-0.15406,0.0481986,0,0,3.5875,-0.0875,-0.56,0.001586,-0.424438,-0.924272,-0.05838,0.26348,0.32844
-22.2966,0,0,37.2966,37.2966,5,5,16.6227,-0.15044,-11.484,0.0411805,-0.150114,0.0523233,0,0,3.6225,-0.0875,-0.525,-0.001586,-0.423584,-0.91927,-0.05838,0.26348,0.32844
-22.17,0,0,37.17,37.17,5,5,16.8039,-0.125964,-11.6502,0.0407533,-0.147085,0.0514148,0,0,3.6225,-0.0875,-0.525,-0.001586,-0.423584,-0.91927,-0.049,0.26124,0.32522
-22.1192,0,0,37.1192,37.1192,5,5,16.9828,-0.099983,-11.8149,0.0413932,-0.146052,0.0491563,0,0,3.64,0,-0.4025,-0.000488,-0.425536,-0.920612,-0.049,0.26124,0.32522
-21.9881,0,0,36.9881,36.9881,5,5,17.158,-0.073884,-11.9778,0.0409377,-0.143128,0.048259,0,0,3.64,0,-0.4025,-0.000488,-0.425536,-0.920612,-0.049,0.26124,0.32522
-21.8686,0,0,36.8686,36.8686,5,5,17.33,-0.0542057,-12.1347,0.0360993,-0.139651,0.0488452,0,0,3.465,0.1225,-0.5075,-0.005002,-0.424926,-0.919148,-0.049,0.26124,0.32522
-21.4086,0,0,36.4086,36.4086,5,5,17.4935,-0.0263265,-12.2953,0.0403507,-0.134118,0.0441799,0,0,3.6575,0.0525,-0.5075,-0.000244,-0.42212,-0.92293,-0.049,0.26124,0.32522
-21.2705,0,0,36.2705,36.2705,5,5,17.6535,0.00131328,-12.454,0.0398683,-0.131456,0.0433367,0,0,3.5175,-0.0525,-0.4025,-0.000244,-0.42212,-0.92293,-0.049,0.26124,0.32522
-21.2914,0,0,36.2914,36.2914,5,5,17.8125,0.0255308,-12.6086,0.0375018,-0.131012,0.0416312,0,0,3.5525,-0.035,-0.4375,-0.002196,-0.424316,-0.923784,-0.049,0.26124,0.32522
-21.1583,0,0,36.1583,36.1583,5,5,17.968,0.0501332,-12.7615,0.0370724,-0.128429,0.0407971,0,0,3.43,0.1575,-0.455,-0.002196,-0.424316,-0.923784,-0.049,0.26124,0.32522
-21.4563,0,0,36.4563,36.4563,5,5,18.1265,0.0770885,-12.909,0.0384243,-0.128363,0.0474391,0,0,3.5175,0.0525,-0.49,-0.000366,-0.426878,-0.916342,-0.05432,0.26124,0.3262
-20.9342,0,0,35.9342,35.9342,5,5,18.2759,0.104562,-13.0558,0.0379448,-0.124177,0.0382636,0,0,3.4825,-0.105,-0.49,-0.000366,-0.42517,-0.924638,-0.05432,0.26124,0.3262
-20.8209,0,0,35.8209,35.8209,5,5,18.4223,0.131721,-13.2009,0.0374707,-0.121752,0.0374585,0,0,3.465,-0.2275,-0.4375,-0.000366,-0.42517,-0.924638,-0.05432,0.26124,0.3262
-20.8817,0,0,35.8817,35.8817,5,5,18.5682,0.158857,-13.3442,0.0372401,-0.119948,0.0407066,0,0,3.43,-0.21,-0.455,-0.000122,-0.42578,-0.920612,-0.05432,0.26124,0.3262
-20.7815,0,0,35.7815,35.7815,5,5,18.7114,0.186022,-13.4857,0.036766,-0.117581,0.0399067,0,0,3.5,-0.1225,-0.42,-0.000122,-0.42578,-0.920612,-0.05432,0.26124,0.3262
-20.3142,0,0,35.3142,35.3142,5,5,18.8463,0.209977,-13.6243,0.0337967,-0.112787,0.0334917,0,0,3.4125,-0.1575,-0.4375,-0.002684,-0.423218,-0.926224,-0.05432,0.26124,0.3262
-20.2093,0,0,35.2093,35.2093,5,5,18.9784,0.2341,-13.7613,0.0333757,-0.110606,0.0327425,0,0,3.3775,-0.0175,-0.4375,-0.002684,-0.423218,-0.926224,-0.05432,0.26124,0.3262
-20.6828,0,0,35.6828,35.6828,5,5,19.1165,0.254359,-13.8934,0.0314428,-0.114558,0.0357664,0,0,3.3775,0.1575,-0.5075,-0.00427,-0.42944,-0.922442,-0.05432,0.26124,0.3262
-20.5933,0,0,35.5933,35.5933,5,5,19.2519,0.274907,-14.0219,0.0310841,-0.112325,0.034988,0,0,3.535,0.175,-0.455,-0.00427,-0.42944,-0.922442,-0.05474,0.26208,0.3339
-19.9441,0,0,34.9441,34.9441,5,5,19.3765,0.302083,-14.1541,0.0342544,-0.106977,0.0255372,0,0,3.5525,0.0175,-0.525,-0.00061,-0.426146,-0.931104,-0.05474,0.26208,0.3339
-19.843,0,0,34.843,34.843,5,5,19.4985,0.329038,-14.2849,0.033784,-0.10497,0.0248264,0,0,3.4825,-0.0175,-0.595,-0.00061,-0.426146,-0.931104,-0.05474,0.26208,0.3339
-19.7858,0,0,34.7858,34.7858,5,5,19.6185,0.353453,-14.4127,0.0315356,-0.099822,0.0310079,0,0,3.605,0.035,-0.56,-0.00244,-0.422974,-0.924272,-0.05474,0.26208,0.3339
-19.6922,0,0,34.6922,34.6922,5,5,19.736,0.377794,-14.539,0.0311108,-0.097891,0.0303145,0,0,3.57,0.0875,-0.5425,-0.00244,-0.422974,-0.924272,-0.05474,0.26208,0.3339
-19.9674,0,0,34.9674,34.9674,5,5,19.8566,0.400904,-14.6626,0.0305859,-0.0978656,0.0366071,0,0,3.5,0.0525,-0.525,-0.002562,-0.424926,-0.917318,-0.05474,0.26208,0.3339
-19.8817,0,0,34.8817,34.8817,5,5,19.9749,0.42358,-14.7848,0.0301902,-0.0959264,0.0359015,0,0,3.535,-0.105,-0.4025,-0.002562,-0.424926,-0.917318,-0.05474,0.26208,0.3339
-19.5813,0,0,34.5813,34.5813,5,5,20.0876,0.447021,-14.9063,0.030024,-0.0934686,0.0305527,0,0,3.465,-0.035,-0.42,-0.002318,-0.424316,-0.921954,-0.05474,0.26208,0.3339
-19.532,0,0,34.532,34.532,5,5,20.1986,0.469117,-15.0375,0.0296384,-0.0916513,0.0298829,0,0,3.605,-0.1225,-0.42,-0.002318,-0.424316,-0.921954,-0.05894,0.26866,0.3297
-19.3558,0,0,34.3558,34.3558,5,5,20.3059,0.492006,-15.1679,0.0297249,-0.0907495,0.0250509,0,0,3.535,-0.07,-0.49,-0.00183,-0.42517,-0.926102,-0.05894,0.26866,0.3297
-19.284,0,0,34.284,34.284,5,5,20.4113,0.514696,-15.2968,0.0293289,-0.0890273,0.0244081,0,0,3.605,-0.105,-0.49,-0.00183,-0.42517,-0.926102,-0.05894,0.26866,0.3297
-19.2255,0,0,34.2255,34.2255,5,5,20.5148,0.537759,-15.4246,0.0294123,-0.0877023,0.0234042,0,0,3.71,-0.1925,-0.455,-0.001342,-0.425536,-0.926468,-0.05894,0.26866,0.3297
-19.1491,0,0,34.1491,34.1491,5,5,20.6162,0.560658,-15.551,0.0290126,-0.0860459,0.0227786,0,0,3.71,-0.1925,-0.455,-0.001342,-0.425536,-0.926468,-0.05894,0.26866,0.3297
-19.077,0,0,34.077,34.077,5,5,20.7157,0.580847,-15.6744,0.026838,-0.0824689,0.0268347,0,0,3.465,-0.1575,-0.5075,-0.003172,-0.423584,-0.921832,-0.05894,0.26866,0.3297
-19.0033,0,0,34.0033,34.0033,5,5,20.8132,0.600934,-15.7964,0.0264874,-0.0808793,0.0262282,0,0,3.465,-0.1575,-0.5075,-0.003172,-0.423584,-0.921832,-0.05894,0.26866,0.3297
-18.9379,0,0,33.9379,33.9379,5,5,20.9088,0.621596,-15.9173,0.0264913,-0.0796874,0.0257532,0,0,3.325,-0.0525,-0.595,-0.002806,-0.42395,-0.92171,-0.05894,0.26866,0.3297
-18.8626,0,0,33.8626,33.8626,5,5,21.0025,0.642319,-16.0341,0.0261296,-0.0781624,0.0251648,0,0,3.325,-0.0525,-0.595,-0.002806,-0.42395,-0.92171,-0.05376,0.26572,0.33292
-18.8832,0,0,33.8832,33.8832,5,5,21.0956,0.662892,-16.1496,0.0261351,-0.0772577,0.025315,0,0,3.5525,-0.245,-0.49,-0.00244,-0.42456,-0.920978,-0.05376,0.26572,0.33292
-18.8144,0,0,33.8144,33.8144,5,5,21.1869,0.683314,-16.2639,0.0257786,-0.0757736,0.0247366,0,0,3.5525,-0.245,-0.49,-0.00244,-0.42456,-0.920978,-0.05376,0.26572,0.33292
-18.6793,0,0,33.6793,33.6793,5,5,21.2753,0.699297,-16.3747,0.022827,-0.0743361,0.0213467,0,0,3.5875,-0.4025,-0.4725,-0.005124,-0.42456,-0.923784,-0.05376,0.26572,0.33292
-18.6126,0,0,33.6126,33.6126,5,5,21.362,0.715367,-16.4844,0.0225466,-0.0729286,0.0207937,0,0,3.5875,-0.3325,-0.5075,-0.005124,-0.42456,-0.923784,-0.05376,0.26572,0.33292
-18.6796,0,0,33.6796,33.6796,5,5,21.4488,0.736505,-16.5953,0.0257008,-0.0728621,0.0223261,0,0,3.605,-0.28,-0.49,-0.001586,-0.425902,-0.92171,-0.05376,0.26572,0.33292
-18.611,0,0,33.611,33.611,5,5,21.5339,0.757773,-16.7048,0.0253296,-0.0714824,0.0217777,0,0,3.57,-0.0525,-0.4375,-0.001586,-0.425902,-0.92171,-0.05376,0.26572,0.33292
-18.4698,0,0,33.4698,33.4698,5,5,21.6161,0.780839,-16.8145,0.0258989,-0.0677077,0.0243188,0,0,3.5875,-0.07,-0.56,-0.00061,-0.423462,-0.91866,-0.05376,0.26572,0.33292
-18.4049,0,0,33.4049,33.4049,5,5,21.6966,0.80365,-16.9259,0.0255008,-0.0664039,0.0237952,0,0,3.5175,0.105,-0.5075,-0.00061,-0.423462,-0.91866,-0.05404,0.26726,0.3318
-18.4768,0,0,33.4768,33.4768,5,5,21.7775,0.824414,-17.035,0.0244096,-0.0671713,0.0224072,0,0,3.57,0,-0.525,-0.001342,-0.425536,-0.919514,-0.05404,0.26726,0.3318
-18.421,0,0,33.421,33.421,5,5,21.8568,0.844778,-17.1429,0.0240542,-0.0658885,0.0218881,0,0,3.605,-0.105,-0.49,-0.001342,-0.425536,-0.919514,-0.05404,0.26726,0.3318
-18.5548,0,0,33.5548,33.5548,5,5,21.9374,0.862171,-17.2476,0.0222928,-0.0659288,0.0238185,0,0,3.605,-0.105,-0.49,-0.002806,-0.426878,-0.917074,-0.05404,0.26726,0.3318
-18.4904,0,0,33.4904,33.4904,5,5,22.0162,0.879844,-17.351,0.0219844,-0.0646538,0.0232989,0,0,3.57,0.14,-0.5075,-0.002806,-0.426878,-0.917074,-0.05404,0.26726,0.3318
-18.0348,0,0,33.0348,33.0348,5,5,22.0877,0.896668,-17.4537,0.0205974,-0.0613022,0.014958,0,0,3.6925,0.14,-0.525,-0.003904,-0.424682,-0.924882,-0.05404,0.26726,0.3318
-17.9793,0,0,32.9793,32.9793,5,5,22.1576,0.913653,-17.5554,0.020301,-0.0601732,0.014494,0,0,3.675,0.2625,-0.7,-0.003904,-0.424682,-0.924882,-0.05404,0.26726,0.3318
-18.2292,0,0,33.2292,33.2292,5,5,22.2306,0.934297,-17.6578,0.0230994,-0.0603387,0.0215071,0,0,3.57,0.035,-0.665,-0.000732,-0.426024,-0.91744,-0.05404,0.26726,0.3318
-18.1609,0,0,33.1609,33.1609,5,5,22.302,0.954493,-17.7588,0.022747,-0.0591884,0.0210298,0,0,3.4475,-0.035,-0.525,-0.000732,-0.426024,-0.91744,-0.05404,0.26726,0.3318
-17.6579,0,0,32.6579,32.6579,5,5,22.3652,0.975067,-17.8473,0.0217805,-0.0564601,0.0115067,0,0,3.3425,-0.0175,-0.4025,-0.001342,-0.424316,-0.926468,-0.0616,0.26544,0.33656
-17.8819,0,0,32.8819,32.8819,5,5,22.4312,0.994653,-17.934,0.0214387,-0.0566188,0.0157344,0,0,3.57,-0.0875,-0.3325,-0.001342,-0.425536,-0.921832,-0.0616,0.26544,0.33656
-17.7493,0,0,32.7493,32.7493,5,5,22.4947,1.01214,-18.0189,0.0197972,-0.0557199,0.011741,0,0,3.675,-0.0525,-0.4375,-0.002684,-0.425658,-0.92537,-0.0616,0.26544,0.33656
-17.5222,0,0,32.5222,32.5222,5,5,22.5542,1.03206,-18.1046,0.0207859,-0.0526872,0.0114605,0,0,3.4825,0,-0.385,-0.001342,-0.423584,-0.925248,-0.0616,0.26544,0.33656
-17.5235,0,0,32.5235,32.5235,5,5,22.6131,1.05135,-18.1889,0.0203279,-0.0529606,0.00958429,0,0,3.535,0.0525,-0.385,-0.001464,-0.424804,-0.926712,-0.0616,0.26544,0.33656
-17.4768,0,0,32.4768,32.4768,5,5,22.6709,1.0678,-18.271,0.0183399,-0.0509335,0.0110357,0,0,3.4825,0.0175,-0.42,-0.003172,-0.423706,-0.924882,-0.0616,0.26544,0.33656
-17.5339,0,0,32.5339,32.5339,5,5,22.729,1.08406,-18.3584,0.0226727,-0.0500006,0.0151888,0,0,3.5,-4.41,-0.2975,0.001464,-0.423706,-0.920368,-0.0616,0.26544,0.33656
-17.5549,0,0,32.5549,32.5549,5,5,22.7868,1.10094,-18.4385,0.0184905,-0.0498044,0.0134405,0,0,3.5875,0.07,-0.35,-0.00244,-0.424438,-0.92171,-0.0616,0.26544,0.33656
-17.5468,0,0,32.5468,32.5468,5,5,22.8441,1.11646,-18.5225,0.0177339,-0.0497409,0.011942,0,0,3.5875,0.07,-0.42,-0.002928,-0.425292,-0.922808,-0.05992,0.26698,0.33404
-17.5505,0,0,32.5505,32.5505,5,5,22.9008,1.09103,-18.5839,-0.0081848,-0.0467487,0.00849111,0,0,3.5875,0.0525,-0.5425,-0.029402,-0.423218,-0.925858,-0.05992,0.26698,0.33404
-17.4929,0,0,32.4929,32.4929,5,5,22.9562,1.06628,-18.6447,-0.00775297,-0.0458553,0.008122,0,0,3.5175,-0.105,-0.4725,-0.029402,-0.423218,-0.925858,-0.05992,0.26698,0.33404
-17.4294,0,0,32.4294,32.4294,5,5,23.0102,1.08253,-18.7263,0.01784,-0.0469446,0.0118068,0,0,3.5525,-0.1225,-0.525,-0.003416,-0.42517,-0.921832,-0.05992,0.26698,0.33404
-17.4003,0,0,32.4003,32.4003,5,5,23.0632,1.09871,-18.8072,0.0175576,-0.0460951,0.0114397,0,0,3.64,-0.0875,-0.6825,-0.003416,-0.42517,-0.921832,-0.05992,0.26698,0.33404
-17.4258,0,0,32.4258,32.4258,5,5,23.1161,1.11846,-18.8889,0.0197642,-0.0454922,0.0135303,0,0,3.5875,-0.0875,-0.6125,-0.000854,-0.425414,-0.919392,-0.05992,0.26698,0.33404
-17.3775,0,0,32.3775,32.3775,5,5,23.1679,1.13784,-18.9696,0.019426,-0.0446646,0.0131693,0,0,3.5,-0.105,-0.5775,-0.000854,-0.425414,-0.919392,-0.05992,0.26698,0.33404
-17.7165,0,0,32.7165,32.7165,5,5,23.2242,1.10917,-19.0233,-0.0102022,-0.0453452,0.0107012,0,0,3.3775,-0.0875,-0.665,-0.03111,-0.427,-0.921466,-0.05992,0.26698,0.33404
-17.6476,0,0,32.6476,32.6476,5,5,23.279,1.08199,-19.0694,-0.00972779,-0.0444633,0.0103321,0,0,3.29,0.0175,-0.49,-0.03111,-0.427,-0.921466,-0.05768,0.26194,0.33208
-17.3062,0,0,32.3062,32.3062,5,5,23.3282,1.09781,-19.138,0.0167228,-0.043921,0.00986464,0,0,3.325,0.0175,-0.4375,-0.00427,-0.427244,-0.921588,-0.05768,0.26194,0.33208
-17.2816,0,0,32.2816,32.2816,5,5,23.3766,1.11378,-19.2056,0.0164442,-0.0431477,0.00952492,0,0,3.4125,0.2625,-0.42,-0.00427,-0.427244,-0.921588,-0.05768,0.26194,0.33208
-17.4281,0,0,32.4281,32.4281,5,5,23.4267,1.13419,-19.2745,0.0193682,-0.0439351,0.01163,0,0,3.6225,0.2975,-0.385,-0.000976,-0.42883,-0.919148,-0.05768,0.26194,0.33208
-17.3884,0,0,32.3884,32.3884,5,5,23.4758,1.15387,-19.3427,0.0190248,-0.0431518,0.0112827,0,0,3.5875,0.0525,-0.4025,-0.000976,-0.42883,-0.919148,-0.05768,0.26194,0.33208
-16.8082,0,0,31.8082,31.8082,5,5,23.5159,1.17577,-19.413,0.0193716,-0.0386062,0.00214478,0,0,3.885,0.0875,-0.42,-0.000244,-0.424926,-0.927932,-0.05768,0.26194,0.33208
-16.7602,0,0,31.7602,31.7602,5,5,23.5548,1.19746,-19.4825,0.018993,-0.0379862,0.00186615,0,0,3.71,0.21,-0.49,-0.000244,-0.424926,-0.927932,-0.05768,0.26194,0.33208
-16.962,0,0,31.962,31.962,5,5,23.5964,1.21565,-19.549,0.0169749,-0.0375677,0.00710236,0,0,3.7625,0.1925,-0.4375,-0.001952,-0.42517,-0.922442,-0.05768,0.26194,0.33208
-17.0905,0,0,32.0905,32.0905,5,5,23.6396,1.23223,-19.6271,0.0165641,-0.0370027,0.0110983,0,0,3.6925,-0.07,-0.5425,-0.002074,-0.425292,-0.918172,-0.05642,0.26796,0.33124
-17.0419,0,0,32.0419,32.0419,5,5,23.6816,1.24987,-19.7052,0.0172282,-0.0364558,0.0114127,0,0,3.395,-0.1575,-0.5425,-0.001098,-0.425414,-0.917562,-0.05642,0.26796,0.33124
-17.0227,0,0,32.0227,32.0227,5,5,23.7229,1.26724,-19.7825,0.0169252,-0.0357977,0.0111165,0,0,3.4825,-0.175,-0.63,-0.001098,-0.425414,-0.917562,-0.05642,0.26796,0.33124
-16.7407,0,0,31.7407,31.7407,5,5,23.7597,1.28448,-19.8594,0.0162598,-0.03448,0.00458151,0,0,3.535,0,-0.5775,-0.001464,-0.424682,-0.923784,-0.05642,0.26796,0.33124
-16.684,0,0,31.684,31.684,5,5,23.7953,1.30145,-19.9353,0.0159637,-0.033914,0.00432484,0,0,3.2725,0.035,-0.56,-0.001464,-0.424682,-0.923784,-0.05642,0.26796,0.33124
-16.6047,0,0,31.6047,31.6047,5,5,23.8295,1.31911,-20.0112,0.0163845,-0.0332502,0.00284859,0,0,3.3075,-0.07,-0.4725,-0.000732,-0.42456,-0.925004,-0.05642,0.26796,0.33124
-16.594,0,0,31.594,31.594,5,5,23.8631,1.33665,-20.0862,0.0160785,-0.0327161,0.00260476,0,0,3.4125,0.035,-0.56,-0.000732,-0.42456,-0.925004,-0.05642,0.26796,0.33124
-16.8732,0,0,31.8732,31.8732,5,5,23.9006,1.35125,-20.1584,0.0147303,-0.0338301,0.00676061,0,0,3.57,-0.07,-0.49,-0.00183,-0.426268,-0.920612,-0.05642,0.26796,0.33124
-16.8211,0,0,31.8211,31.8211,5,5,23.937,1.36594,-20.2191,0.014474,-0.0332524,0.00649772,0,0,3.43,-0.0525,-0.4025,-0.00183,-0.426268,-0.920612,-0.05936,0.26264,0.32578
-16.6416,0,0,31.6416,31.6416,5,5,23.9703,1.37889,-20.2786,0.0130331,-0.0326002,0.00121543,0,0,3.5,0.0525,-0.3675,-0.00305,-0.426146,-0.925614,-0.05936,0.26264,0.32578
-16.618,0,0,31.618,31.618,5,5,24.0031,1.39167,-20.3376,0.0128102,-0.0320808,0.00097839,0,0,3.5,0.035,-0.4725,-0.00305,-0.426146,-0.925614,-0.05936,0.26264,0.32578
-16.7145,0,0,31.7145,31.7145,5,5,24.0369,1.41127,-20.3994,0.0169632,-0.0306896,0.00786127,0,0,3.4825,0.0525,-0.595,0.001464,-0.425292,-0.918538,-0.05936,0.26264,0.32578
-16.6923,0,0,31.6923,31.6923,5,5,24.0702,1.43014,-20.4604,0.0166339,-0.0301636,0.00761753,0,0,3.4825,-0.105,-0.49,0.001464,-0.425292,-0.918538,-0.05936,0.26264,0.32578
-16.2841,0,0,31.2841,31.2841,5,5,24.097,1.44358,-20.5191,0.0126333,-0.0288834,-0.00401324,0,0,3.5525,-0.0525,-0.525,-0.002318,-0.424438,-0.929884,-0.05936,0.26264,0.32578
-16.2683,0,0,31.2683,31.2683,5,5,24.1234,1.45662,-20.5771,0.0124059,-0.0284657,-0.00420647,0,0,3.57,-0.105,-0.4375,-0.002318,-0.424438,-0.929884,-0.05936,0.26264,0.32578
-16.5297,0,0,31.5297,31.5297,5,5,24.1534,1.47201,-20.6353,0.0143241,-0.0288454,0.00344179,0,0,3.4475,-0.2625,-0.4725,-0.000122,-0.425292,-0.922076,-0.05936,0.26264,0.32578
-16.5052,0,0,31.5052,31.5052,5,5,24.1828,1.48738,-20.6928,0.0140559,-0.0283806,0.00322558,0,0,3.4125,-0.1225,-0.5775,-0.000122,-0.425292,-0.922076,-0.05936,0.26264,0.32578
-13.3768,0,0,28.3768,28.3768,5,5,24.1654,1.58083,-20.8,0.0520299,0.0273809,0.0492928,0,0,3.605,-0.1925,-0.525,0.03965,-0.369294,-0.876448,-0.0588,0.26306,0.3255
-13.4145,0,0,28.4145,28.4145,5,5,24.1487,1.6716,-20.9061,0.0504462,0.0270969,0.0493708,0,0,3.6575,-0.1925,-0.5775,0.03965,-0.369294,-0.876448,-0.0588,0.26306,0.3255
-21.5561,0,0,36.5561,36.5561,5,5,24.2532,1.61969,-20.9159,-0.0181379,-0.094944,0.00168093,0,0,3.535,-0.035,-0.5425,-0.030134,-0.49288,-0.923052,-0.0588,0.26306,0.3255
-21.4316,0,0,36.4316,36.4316,5,5,24.3549,1.56966,-20.9257,-0.0172652,-0.0933169,0.000972755,0,0,3.29,-0.07,-0.56,-0.030134,-0.49288,-0.923052,-0.0588,0.26306,0.3255
-12.7521,0,0,27.7521,27.7521,5,5,24.3267,1.58632,-20.9931,0.00564806,0.0316551,0.0180125,0,0,3.325,0.0175,-0.4725,-0.006832,-0.367586,-0.906338,-0.0588,0.26306,0.3255
-12.7951,0,0,27.7951,27.7951,5,5,24.2993,1.60219,-21.0595,0.00537116,0.0312171,0.0182019,0,0,3.465,-0.035,-0.315,-0.006832,-0.367586,-0.906338,-0.0588,0.26306,0.3255
-20.7817,0,0,35.7817,35.7817,5,5,24.3909,1.65525,-21.1211,0.0468438,-0.0803047,0.0293221,0,0,3.5175,-0.0875,-0.315,0.035746,-0.480436,-0.894626,-0.0588,0.26306,0.3255
-20.7281,0,0,35.7281,35.7281,5,5,24.4809,1.70759,-21.182,0.0459309,-0.0788864,0.0286482,0,0,3.57,0.07,-0.4725,0.035746,-0.480436,-0.894626,-0.0588,0.26306,0.3255
-14.2308,0,0,29.2308,29.2308,5,5,24.4735,1.61428,-21.1873,-0.055947,0.00516103,-0.0278117,0,0,3.675,-4.48,-0.4025,-0.068198,-0.396378,-0.950746,-0.05908,0.26026,0.33152
-14.7345,0,0,29.7345,29.7345,5,5,24.4737,1.61421,-21.1875,0.0846131,0.0626851,0.134356,1,0,3.6225,-0.1225,-0.5775,0.072956,-0.338916,-0.789828,-0.05908,0.26026,0.33152
-14.735,0,0,29.735,29.735,5,5,24.4738,1.61414,-21.1877,0.0846143,0.0626875,0.134355,1,0,3.6225,-0.1225,-0.5775,0.072956,-0.338916,-0.789828,-0.05908,0.26026,0.33152
-14.7268,0,0,29.7268,29.7268,5,5,24.4738,1.61433,-21.188,-0.0532753,-0.112076,-0.116706,1,0,3.5525,-0.0175,-0.7175,-0.065514,-0.513498,-1.03895,-0.05908,0.26026,0.33152
-14.7271,0,0,29.7271,29.7271,5,5,24.4739,1.61453,-21.1884,-0.0532787,-0.112075,-0.116706,1,0,3.5525,-0.0175,-0.7175,-0.065514,-0.513498,-1.03895,-0.05908,0.26026,0.33152
-14.7199,0,0,29.7199,29.7199,5,5,24.4738,1.61428,-21.1884,0.0733137,0.0838145,0.115667,1,0,3.4825,-0.1575,-0.4025,0.06161,-0.31781,-0.808372,-0.05908,0.26026,0.33152
-14.7202,0,0,29.7202,29.7202,5,5,24.4737,1.61403,-21.1883,0.073318,0.0838131,0.115668,1,0,3.4825,-0.1575,-0.4025,0.06161,-0.31781,-0.808372,-0.05908,0.26026,0.33152
-14.7285,0,0,29.7285,29.7285,5,5,24.4737,1.61427,-21.1885,-0.0576478,-0.129053,-0.0840004,1,0,3.5525,0.0525,-0.63,-0.069906,-0.530456,-1.0065,-0.05908,0.26026,0.33152
-14.7289,0,0,29.7289,29.7289,5,5,24.4737,1.61451,-21.1887,-0.057652,-0.129053,-0.0840007,1,0,3.5525,0.0525,-0.63,-0.069906,-0.530456,-1.0065,-0.063,0.26586,0.32816
-14.7167,0,0,29.7167,29.7167,5,5,24.4736,1.61446,-21.1889,0.0241088,0.0899175,0.0855465,1,0,3.4475,-0.105,-0.56,0.0122,-0.31171,-0.838262,-0.063,0.26586,0.32816
-14.7169,0,0,29.7169,29.7169,5,5,24.4734,1.6144,-21.1891,0.0241098,0.089915,0.0855477,1,0,3.4475,-0.105,-0.56,0.0122,-0.31171,-0.838262,-0.063,0.26586,0.32816
-23.1021,0,0,38.1021,38.1021,5,5,24.5979,1.5769,-21.1968,-0.00512137,-0.126098,-0.0112375,0,0,3.535,-0.2275,-0.595,-0.017812,-0.52948,-0.933422,-0.063,0.26586,0.32816
-13.0025,0,0,28.0025,28.0025,5,5,24.5711,1.47727,-21.2019,-0.0695928,-0.000102153,-0.087598,0,0,3.325,-0.2625,-0.6475,-0.084302,-0.40321,-1.00943,-0.063,0.26586,0.32816
-13.013,0,0,28.013,28.013,5,5,24.5447,1.38061,-21.2064,-0.0679064,-0.000503295,-0.0873684,0,0,3.4125,0.035,-0.4725,-0.084302,-0.40321,-1.00943,-0.063,0.26586,0.32816
-15.7933,0,0,30.7933,30.7933,5,5,24.5599,1.62953,-21.3739,0.143509,0.00689572,0.105324,0,0,3.5,-0.175,-0.5075,0.13237,-0.396012,-0.81801,-0.063,0.26586,0.32816
-15.8354,0,0,30.8354,30.8354,5,5,24.5756,1.87153,-21.5392,0.139288,0.00709064,0.105093,0,0,3.5525,-0.1575,-0.56,0.13237,-0.396012,-0.81801,-0.063,0.26586,0.32816
-14.8033,0,0,29.8033,29.8033,5,5,24.5758,1.87147,-21.5395,-0.0887401,-0.0670375,-0.138469,1,0,3.64,-0.1225,-0.595,-0.096624,-0.470066,-1.05969,-0.06146,0.26152,0.33096
-14.774,0,0,29.774,29.774,5,5,24.5755,1.87092,-21.5398,0.0493988,0.084762,0.110872,1,0,3.395,-0.42,-0.5425,0.04209,-0.31842,-0.812276,-0.06146,0.26152,0.33096
-14.7749,0,0,29.7749,29.7749,5,5,24.5753,1.87043,-21.5399,0.0494074,0.0847581,0.110875,1,0,3.395,-0.315,-0.4025,0.04209,-0.31842,-0.812276,-0.06146,0.26152,0.33096
-22.7908,0,0,37.7908,37.7908,5,5,24.6942,1.82387,-21.5348,-0.0118597,-0.124503,-0.0199228,0,0,3.4825,-0.3675,-0.5425,-0.020252,-0.529358,-0.94123,-0.06146,0.26152,0.33096
-22.6965,0,0,37.6965,37.6965,5,5,24.8106,1.77944,-21.53,-0.0110846,-0.122648,-0.0207512,0,0,3.57,-0.21,-0.6125,-0.020252,-0.529358,-0.94123,-0.06146,0.26152,0.33096
-11.6188,0,0,26.6188,26.6188,5,5,24.7613,1.77559,-21.5781,-0.010167,0.0598848,0.0329708,0,0,3.5,-0.14,-0.525,-0.019398,-0.346236,-0.888282,-0.06146,0.26152,0.33096
-11.6651,0,0,26.6651,26.6651,5,5,24.7132,1.7717,-21.6257,-0.0100991,0.0591225,0.0333243,0,0,3.57,-0.0875,-0.49,-0.019398,-0.346236,-0.888282,-0.06146,0.26152,0.33096
-22.2123,0,0,37.2123,37.2123,5,5,24.8222,1.79865,-21.6555,0.03353,-0.102195,0.018129,0,0,3.57,0,-0.525,0.024888,-0.509106,-0.902556,-0.06146,0.26152,0.33096
-22.1759,0,0,37.1759,37.1759,5,5,24.9298,1.82427,-21.6947,0.0330831,-0.100499,0.0173271,0,0,3.71,-0.035,-0.4375,0.024888,-0.509106,-0.902556,-0.05922,0.26572,0.3304
-12.5453,0,0,27.5453,27.5453,5,5,24.8932,1.73486,-21.7055,-0.0614524,0.0439064,-0.00350719,0,0,3.7275,-0.0875,-0.42,-0.071614,-0.364292,-0.92354,-0.05922,0.26572,0.3304
-12.5356,0,0,27.5356,27.5356,5,5,24.8567,1.64786,-21.716,-0.0599346,0.0433489,-0.00319926,0,0,3.57,0,-0.385,-0.071614,-0.364292,-0.92354,-0.05922,0.26572,0.3304
-21.5428,0,0,36.5428,36.5428,5,5,24.9545,1.77291,-21.8035,0.0918063,-0.0805552,0.0587269,0,0,3.5875,-0.07,-0.455,0.08296,-0.489586,-0.86132,-0.05922,0.26572,0.3304
-21.4921,0,0,36.4921,36.4921,5,5,25.0507,1.89507,-21.8897,0.0896753,-0.0790636,0.057956,0,0,3.5525,-0.0175,-0.6125,0.08296,-0.489586,-0.86132,-0.05922,0.26572,0.3304
-13.5132,0,0,28.5132,28.5132,5,5,25.0274,1.74823,-21.8678,-0.100926,0.00999919,-0.070894,0,0,3.5,-0.035,-0.56,-0.11102,-0.400282,-0.98942,-0.05922,0.26572,0.3304
-13.5145,0,0,28.5145,28.5145,5,5,25.0043,1.60529,-21.8457,-0.0984317,0.00966506,-0.0706576,0,0,3.64,0.0175,-0.4375,-0.11102,-0.400282,-0.98942,-0.05922,0.26572,0.3304
-16.7898,0,0,31.7898,31.7898,5,5,25.0301,1.80275,-21.9803,0.120928,-0.0121974,0.0748761,0,0,3.535,-0.0525,-0.3675,0.112728,-0.422486,-0.844728,-0.05922,0.26572,0.3304
-16.7946,0,0,31.7946,31.7946,5,5,25.0558,1.99537,-22.1092,0.117568,-0.0118394,0.0745859,0,0,3.5525,-0.105,-0.35,0.112728,-0.422486,-0.844728,-0.06216,0.26516,0.32984
-16.0993,0,0,31.0993,31.0993,5,5,25.0708,1.83573,-22.0691,-0.105853,-0.0351323,-0.0894544,0,0,3.6225,-0.175,-0.385,-0.114436,-0.446032,-1.00748,-0.06216,0.26516,0.32984
-16.048,0,0,31.048,31.048,5,5,25.085,1.68049,-22.0295,-0.103145,-0.0348733,-0.0894839,0,0,3.6225,-0.175,-0.385,-0.114436,-0.446032,-1.00748,-0.06216,0.26516,0.32984
-15.1255,0,0,30.1255,30.1255,5,5,25.0853,1.6872,-22.026,0.130719,0.023629,0.121859,1,0,3.6575,4.3925,-0.2975,0.120536,-0.387594,-0.797758,-0.06216,0.26516,0.32984
-15.1261,0,0,30.1261,30.1261,5,5,25.0856,1.69391,-22.0225,0.130602,0.0236326,0.121854,1,0,3.6575,4.3925,-0.2975,0.120536,-0.387594,-0.797758,-0.06216,0.26516,0.32984
-15.1164,0,0,30.1164,30.1164,5,5,25.0858,1.69428,-22.0221,-0.0856489,-0.0609986,-0.140643,1,0,3.6225,0.2625,-0.35,-0.096624,-0.47214,-1.05823,-0.06216,0.26516,0.32984
-15.1169,0,0,30.1169,30.1169,5,5,25.086,1.69464,-22.0217,-0.0856552,-0.0609961,-0.140644,1,0,3.6225,0.2625,-0.35,-0.096624,-0.47214,-1.05823,-0.06216,0.26516,0.32984
-15.1229,0,0,30.1229,30.1229,5,5,25.0862,1.69434,-22.0216,0.101316,0.0860485,0.133037,1,0,3.675,-0.175,-0.3675,0.091134,-0.325252,-0.786656,-0.06216,0.26516,0.32984
-15.1235,0,0,30.1235,30.1235,5,5,25.0865,1.69404,-22.0215,0.101322,0.0860526,0.133036,1,0,3.675,-0.175,-0.3675,0.091134,-0.325252,-0.786656,-0.063,0.26544,0.3339
-15.0922,0,0,30.0922,30.0922,5,5,25.0862,1.69416,-22.0216,-0.0884411,-0.113995,-0.0840898,1,0,3.4125,0.0175,-0.5425,-0.09943,-0.525088,-1.00211,-0.063,0.26544,0.3339
-8.05291,0,0,23.0529,23.0529,6.94709,6.94709,24.9814,1.67446,-22.0697,-0.0269901,0.0875709,-0.0322828,0,0,3.57,-0.0175,-0.525,-0.038064,-0.32208,-0.951478,-0.063,0.26544,0.3339
-8.13556,0,0,23.1356,23.1356,6.86444,6.86444,24.8786,1.65485,-22.117,-0.026648,0.0859501,-0.0315184,0,0,3.6225,0.035,-0.385,-0.038064,-0.32208,-0.951478,-0.063,0.26544,0.3339
-15.0005,0,0,30.0005,30.0005,5,5,24.8789,1.65497,-22.1169,0.0514653,0.0592083,0.176877,1,0,3.675,0.0525,-0.455,0.040382,-0.348798,-0.744688,-0.063,0.26544,0.3339
-14.9968,0,0,29.9968,29.9968,5,5,24.8791,1.65519,-22.1168,0.0514614,0.0592112,0.176876,1,0,3.64,0.105,-0.49,0.040382,-0.348798,-0.744688,-0.063,0.26544,0.3339
-14.9994,0,0,29.9994,29.9994,5,5,24.8793,1.6554,-22.1167,-0.0697849,-0.067675,-0.101973,1,0,3.6575,0.105,-0.4725,-0.081374,-0.475556,-1.02138,-0.063,0.26544,0.3339
-14.9873,0,0,29.9873,29.9873,5,5,24.8793,1.65584,-22.1166,-0.0697926,-0.0676746,-0.101973,1,0,3.5525,0.2275,-0.525,-0.081374,-0.475556,-1.02138,-0.063,0.26544,0.3339
-14.9858,0,0,29.9858,29.9858,5,5,24.8793,1.6561,-22.1164,0.0673601,0.0797324,0.165439,1,0,3.535,0.1575,-0.4375,0.056364,-0.328302,-0.756034,-0.05964,0.26362,0.34062
-14.9883,0,0,29.9883,29.9883,5,5,24.8794,1.65623,-22.1162,-0.0196259,-0.185038,-0.109843,1,0,3.5525,0.0875,-0.4025,-0.030988,-0.592798,-1.02919,-0.05964,0.26362,0.34062
-15.0029,0,0,30.0029,30.0029,5,5,24.8796,1.6566,-22.1162,-0.0196323,-0.185034,-0.109845,1,0,3.675,0.1575,-0.5775,-0.030988,-0.592798,-1.02919,-0.05964,0.26362,0.34062
-5.83211,0,0,20.8321,20.8321,9.16789,9.16789,24.7435,1.625,-22.1623,-0.0382758,0.136209,0.0240734,0,0,3.6575,0.14,-0.6125,-0.050264,-0.269742,-0.89731,-0.05964,0.26362,0.34062
-5.91335,0,0,20.9134,20.9134,9.08665,9.08665,24.6099,1.59345,-22.2078,-0.0377254,0.134096,0.0250611,0,0,3.535,0.035,-0.4725,-0.050264,-0.269742,-0.89731,-0.05964,0.26362,0.34062
-20.8664,0,0,35.8664,35.8664,5,5,24.6997,1.61327,-22.2313,0.0270452,-0.0929829,-0.00142043,0,0,3.71,-0.0525,-0.455,0.015128,-0.498004,-0.92293,-0.05964,0.26362,0.34062
-20.7795,0,0,35.7795,35.7795,5,5,24.7874,1.63289,-22.2547,0.026703,-0.0915973,-0.00206967,0,0,3.5175,-0.0875,-0.49,0.015128,-0.498004,-0.92293,-0.05964,0.26362,0.34062
-7.55894,0,0,22.5589,22.5589,7.44106,7.44106,24.6777,1.69952,-22.3433,0.0274843,0.0859335,-0.0201114,0,0,3.4125,-0.1575,-0.4725,0.01708,-0.318908,-0.941596,-0.05964,0.26362,0.34062
-7.65911,0,0,22.6591,22.6591,7.34089,7.34089,24.5706,1.76424,-22.4358,0.0263552,0.0842199,-0.0193635,0,0,3.465,-0.0175,-0.56,0.01708,-0.318908,-0.941596,-0.05586,0.26278,0.33432
-14.7903,0,0,29.7903,29.7903,5,5,24.5704,1.76405,-22.4361,-0.0100872,-0.0223999,0.131004,1,0,3.43,-0.21,-0.595,-0.01952,-0.425414,-0.79239,-0.05586,0.26278,0.33432
-14.7971,0,0,29.7971,29.7971,5,5,24.5703,1.76428,-22.4363,-0.0100912,-0.0224015,0.131005,1,0,3.4825,0.0525,-0.6125,-0.01952,-0.425414,-0.79239,-0.05586,0.26278,0.33432
-14.8083,0,0,29.8083,29.8083,5,5,24.5703,1.76433,-22.4362,-0.0057185,-0.0735716,-0.0966964,1,0,3.57,0,-0.4725,-0.015128,-0.476532,-1.01833,-0.05586,0.26278,0.33432
-14.8087,0,0,29.8087,29.8087,5,5,24.5704,1.76437,-22.4362,-0.00571932,-0.0735707,-0.0966969,1,0,3.57,0,-0.4725,-0.015128,-0.476532,-1.01833,-0.05586,0.26278,0.33432
-14.8002,0,0,29.8002,29.8002,5,5,24.5703,1.76451,-22.4364,-0.0438681,0.0518523,0.194814,1,0,3.5,-0.0175,-0.63,-0.053436,-0.351238,-0.729072,-0.05586,0.26278,0.33432
-14.8005,0,0,29.8005,29.8005,5,5,24.5703,1.76464,-22.4366,-0.0438704,0.0518512,0.194815,1,0,3.5,-0.0175,-0.63,-0.053436,-0.351238,-0.729072,-0.05586,0.26278,0.33432
-14.8329,0,0,29.8329,29.8329,5,5,24.5707,1.77159,-22.4335,-0.00876096,-0.114481,-0.136538,1,0,3.71,4.4275,-0.525,-0.018056,-0.517402,-1.05786,-0.05586,0.26278,0.33432
-14.8336,0,0,29.8336,29.8336,5,5,24.5711,1.77855,-22.4304,-0.00888234,-0.114476,-0.136544,1,0,3.71,4.4275,-0.525,-0.018056,-0.517402,-1.05786,-0.05894,0.26558,0.33754
-14.8297,0,0,29.8297,29.8297,5,5,24.5714,1.77834,-22.4305,0.0315761,0.0306164,0.13308,1,0,3.7275,-0.1575,-0.455,0.02257,-0.372466,-0.790316,-0.05894,0.26558,0.33754
-14.8303,0,0,29.8303,29.8303,5,5,24.5718,1.77813,-22.4306,0.0315797,0.0306218,0.133077,1,0,3.7275,-0.1575,-0.455,0.02257,-0.372466,-0.790316,-0.05894,0.26558,0.33754
-14.8288,0,0,29.8288,29.8288,5,5,24.5721,1.77814,-22.4306,-0.0343871,-0.135343,-0.0952403,1,0,3.71,-0.035,-0.49,-0.043676,-0.538264,-1.01687,-0.05894,0.26558,0.33754
-14.8294,0,0,29.8294,29.8294,5,5,24.5724,1.77814,-22.4306,-0.0343872,-0.135339,-0.0952426,1,0,3.71,-0.035,-0.49,-0.043676,-0.538264,-1.01687,-0.05894,0.26558,0.33754
-14.799,0,0,29.799,29.799,5,5,24.5722,1.77829,-22.4303,0.0165127,0.0793578,0.148074,1,0,3.4475,0.105,-0.385,0.007442,-0.323788,-0.775432,-0.05894,0.26558,0.33754
-23.1031,0,0,38.1031,38.1031,5,5,24.6955,1.73584,-22.4206,-0.0104454,-0.0944179,0.0434291,0,0,3.185,0.035,-0.455,-0.020374,-0.499346,-0.8784,-0.05894,0.26558,0.33754
-23.002,0,0,38.002,38.002,5,5,24.8162,1.69488,-22.4113,-0.0097308,-0.092497,0.0425669,0,0,3.22,-0.0875,-0.4375,-0.020374,-0.499346,-0.8784,-0.05894,0.26558,0.33754
-13.0103,0,0,28.0103,28.0103,5,5,24.7873,1.73211,-22.4646,0.0208414,0.014264,-0.0192051,0,0,3.43,-0.0875,-0.4025,0.01098,-0.39223,-0.939888,-0.06216,0.26166,0.32956
-14.9271,0,0,29.9271,29.9271,5,5,24.7871,1.73211,-22.4644,0.0299529,0.0346562,0.106941,1,0,3.43,0,-0.4025,0.02013,-0.371856,-0.814716,-0.06216,0.26166,0.32956
-14.9351,0,0,29.9351,29.9351,5,5,24.787,1.73202,-22.4646,0.0299545,0.0346552,0.106942,1,0,3.5,-0.1225,-0.5425,0.02013,-0.371856,-0.814716,-0.06216,0.26166,0.32956
-14.9565,0,0,29.9565,29.9565,5,5,24.7873,1.73182,-22.4648,0.0374901,-0.136563,-0.105392,1,0,3.675,-0.175,-0.5075,0.027694,-0.5429,-1.02541,-0.06216,0.26166,0.32956
-14.9694,0,0,29.9694,29.9694,5,5,24.7877,1.73171,-22.465,0.037492,-0.136556,-0.105395,1,0,3.78,-0.1575,-0.595,0.027694,-0.5429,-1.02541,-0.06216,0.26166,0.32956
-14.9619,0,0,29.9619,29.9619,5,5,24.788,1.7319,-22.4652,0.0487868,0.109412,0.0989432,1,0,3.71,0.035,-0.595,0.03904,-0.297192,-0.822646,-0.06216,0.26166,0.32956
-14.9504,0,0,29.9504,29.9504,5,5,24.7881,1.732,-22.465,0.048785,0.109414,0.0989422,1,0,3.605,0.0525,-0.4375,0.03904,-0.297192,-0.822646,-0.06216,0.26166,0.32956
-14.9506,0,0,29.9506,29.9506,5,5,24.7883,1.73212,-22.465,-0.0194919,-0.128609,-0.0956862,1,0,3.605,0.035,-0.49,-0.029524,-0.53497,-1.01577,-0.06216,0.26166,0.32956
-14.9407,0,0,29.9407,29.9407,5,5,24.7882,1.73217,-22.4649,-0.0194928,-0.128609,-0.095686,1,0,3.5175,0.0175,-0.4375,-0.029524,-0.53497,-1.01577,-0.0595,0.25648,0.3318
-10.0448,0,0,25.0448,25.0448,5,5,24.7154,1.82776,-22.5497,0.0461427,0.0768538,0.0502468,0,0,3.5175,0.0175,-0.3325,0.038064,-0.328546,-0.871446,-0.0595,0.25648,0.3318
-10.0987,0,0,25.0987,25.0987,5,5,24.644,1.92041,-22.6341,0.0445265,0.0757005,0.0507186,0,0,3.36,-0.105,-0.5075,0.038064,-0.328546,-0.871446,-0.0595,0.25648,0.3318
-19.8505,0,0,34.8505,34.8505,5,5,24.7183,1.80703,-22.5841,-0.0659914,-0.0770979,-0.034598,0,0,3.3425,-0.0175,-0.525,-0.074908,-0.482388,-0.955626,-0.0595,0.25648,0.3318
-19.7964,0,0,34.7964,34.7964,5,5,24.791,1.69707,-22.5347,-0.0640731,-0.0759207,-0.0350762,0,0,3.605,0.07,-0.4375,-0.074908,-0.482388,-0.955626,-0.0595,0.25648,0.3318
-5.1034,0,0,20.1034,20.1034,9.8966,9.8966,24.6447,1.73484,-22.6062,0.00208495,0.141458,0.0338408,0,0,3.6575,0.07,-0.5425,-0.007808,-0.26291,-0.888282,-0.0595,0.25648,0.3318
-5.21649,0,0,20.2165,20.2165,9.78351,9.78351,24.5014,1.77107,-22.6773,0.00145293,0.139176,0.0348631,0,0,3.6575,0.07,-0.5425,-0.007808,-0.26291,-0.888282,-0.0595,0.25648,0.3318
-19.4322,0,0,34.4322,34.4322,5,5,24.5706,1.7161,-22.656,-0.0267447,-0.0377734,0.0452074,0,0,3.57,-0.1225,-0.56,-0.037088,-0.440786,-0.877546,-0.0595,0.25648,0.3318
-19.3776,0,0,34.3776,34.3776,5,5,24.6385,1.6625,-22.6418,-0.0258095,-0.0366861,0.0447398,0,0,3.57,-0.1225,-0.56,-0.037088,-0.440786,-0.877546,-0.06048,0.2611,0.33334
-13.5345,0,0,28.5345,28.5345,5,5,24.6188,1.70911,-22.6953,0.0290178,0.00060739,-0.0285394,0,0,3.7625,0.1225,-0.4725,0.018788,-0.40321,-0.95038,-0.06048,0.2611,0.33334
-13.5598,0,0,28.5598,28.5598,5,5,24.5997,1.75438,-22.7482,0.0282281,0.00029448,-0.0284223,0,0,3.7625,0.1225,-0.4725,0.018788,-0.40321,-0.95038,-0.06048,0.2611,0.33334
-23.1185,0,0,38.1185,38.1185,5,5,24.7229,1.77079,-22.7488,0.0188303,-0.0610182,0.111203,0,0,3.605,4.4275,-0.5075,0.009638,-0.466406,-0.810934,-0.06048,0.2611,0.33334
-23.0313,0,0,38.0313,38.0313,5,5,24.8436,1.78726,-22.7493,0.018543,-0.0591093,0.110312,0,0,3.605,4.4275,-0.5075,0.009638,-0.466406,-0.810934,-0.06048,0.2611,0.33334
-15.6299,0,0,30.6299,30.6299,5,5,24.8533,1.82286,-22.79,0.0278838,-0.0377147,-0.0494865,0,0,3.64,0.0525,-0.385,0.019642,-0.445178,-0.969412,-0.06048,0.2611,0.33334
-15.6314,0,0,30.6314,30.6314,5,5,24.8629,1.85754,-22.8302,0.0272789,-0.0375712,-0.0495744,0,0,3.64,0.0525,-0.385,0.019642,-0.445178,-0.969412,-0.06048,0.2611,0.33334
-19.165,0,0,34.165,34.165,5,5,24.9249,1.76114,-22.7949,-0.0527993,-0.00737911,0.0789913,0,0,3.64,-0.1575,-0.665,-0.062464,-0.41602,-0.841434,-0.06048,0.2611,0.33334
-19.0908,0,0,34.0908,34.0908,5,5,24.9852,1.66769,-22.7684,-0.0511691,-0.00640382,0.0785913,0,0,3.64,-0.1575,-0.665,-0.062464,-0.41602,-0.841434,-0.0567,0.26418,0.33502
-16.4367,0,0,31.4367,31.4367,5,5,25.0056,1.7187,-22.8202,0.0399057,-0.046517,-0.0391214,0,0,3.4475,0.0175,-0.455,0.02989,-0.456402,-0.958066,-0.0567,0.26418,0.33502
-11.1697,0,0,26.1697,26.1697,5,5,24.9475,1.78809,-22.8984,0.035901,0.0471964,0.00147733,0,0,3.5875,0.0875,-0.49,0.027084,-0.361852,-0.918172,-0.0567,0.26418,0.33502
-11.2362,0,0,26.2362,26.2362,5,5,24.8909,1.85541,-22.9758,0.0347266,0.0462848,0.00185966,0,0,3.6575,0.14,-0.4375,0.027084,-0.361852,-0.918172,-0.0567,0.26418,0.33502
-16.3633,0,0,31.3633,31.3633,5,5,24.9109,1.80668,-22.9795,-0.0290536,-0.0377754,-0.0516229,0,0,3.5525,0,-0.4725,-0.03782,-0.446154,-0.97112,-0.0567,0.26418,0.33502
-16.3498,0,0,31.3498,31.3498,5,5,24.9307,1.75949,-22.9828,-0.0282304,-0.0374528,-0.0517445,0,0,3.6575,0.14,-0.385,-0.03782,-0.446154,-0.97112,-0.0567,0.26418,0.33502
-8.75698,0,0,23.757,23.757,6.24302,6.24302,24.8373,1.91567,-23.1112,0.0890729,0.0622762,-0.016836,0,0,3.7975,0.0175,-0.315,0.082716,-0.345016,-0.937082,-0.0567,0.26418,0.33502
-8.84597,0,0,23.846,23.846,6.15403,6.15403,24.7461,2.06718,-23.2387,0.0864301,0.0607936,-0.0162524,0,0,3.7275,-0.07,-0.385,0.082716,-0.345016,-0.937082,-0.0567,0.26418,0.33502
-18.3806,0,0,33.3806,33.3806,5,5,24.7975,2.00252,-23.2204,-0.0351426,-0.0114082,0.0598827,0,0,3.57,-0.0875,-0.28,-0.040504,-0.417972,-0.861198,-0.0602,0.26026,0.3283
-14.9828,0,0,29.9828,29.9828,5,5,24.7978,2.00241,-23.2203,0.000333188,-0.09799,-0.066634,1,0,3.745,-0.07,-0.4025,-0.00488,-0.50447,-0.986736,-0.0602,0.26026,0.3283
-14.9673,0,0,29.9673,29.9673,5,5,24.798,2.00216,-23.2199,0.000337553,-0.0979878,-0.0666349,1,0,3.605,-0.07,-0.21,-0.00488,-0.50447,-0.986736,-0.0602,0.26026,0.3283
-18.0439,0,0,33.0439,33.0439,5,5,24.8438,2.04116,-23.2527,0.0340377,-0.0545274,-0.00662482,0,0,3.605,-0.0875,-0.3675,0.029646,-0.46177,-0.926834,-0.0602,0.26026,0.3283
-18.0146,0,0,33.0146,33.0146,5,5,24.8889,2.07916,-23.2853,0.0333749,-0.053825,-0.00697663,0,0,3.57,-0.2275,-0.4725,0.029646,-0.46177,-0.926834,-0.0602,0.26026,0.3283
-16.5753,0,0,31.5753,31.5753,5,5,24.9121,2.06823,-23.2991,-0.00117936,-0.0529664,-0.0650496,0,0,3.605,-0.21,-0.5075,-0.005246,-0.461282,-0.984296,-0.0602,0.26026,0.3283
-16.5749,0,0,31.5749,31.5749,5,5,24.9351,2.05812,-23.3125,-0.00100292,-0.0526,-0.0652128,0,0,3.7625,0.07,-0.49,-0.005246,-0.461282,-0.984296,-0.0602,0.26026,0.3283
-13.1859,0,0,28.1859,28.1859,5,5,24.9075,2.09658,-23.3606,0.02153,0.0154663,-0.0141314,0,0,3.64,0.2275,-0.4725,0.018056,-0.39284,-0.933788,-0.0602,0.26026,0.3283
-13.2158,0,0,28.2158,28.2158,5,5,24.8806,2.13389,-23.399,0.0208792,0.0150304,-0.0139556,0,0,3.64,0.2275,-0.4725,0.018056,-0.39284,-0.933788,-0.06426,0.25774,0.33054
-17.594,0,0,32.594,32.594,5,5,24.919,2.01884,-23.3486,-0.071387,-0.0346475,-0.0258518,0,0,3.4125,0.035,-0.3325,-0.076616,-0.443104,-0.945378,-0.06426,0.25774,0.33054
-17.5348,0,0,32.5348,32.5348,5,5,24.9561,1.90701,-23.2988,-0.0694363,-0.0340312,-0.0260646,0,0,3.4125,0.035,-0.3325,-0.076616,-0.443104,-0.945378,-0.06426,0.25774,0.33054
-11.9129,0,0,26.9129,26.9129,5,5,24.9094,2.03307,-23.3828,0.0796146,0.0134378,-0.0334124,0,0,3.5175,-0.1575,-0.42,0.075274,-0.394914,-0.952942,-0.06426,0.25774,0.33054
-11.9748,0,0,26.9748,26.9748,5,5,24.864,2.15553,-23.466,0.0774786,0.0126866,-0.03315,0,0,3.5175,-0.1575,-0.42,0.075274,-0.394914,-0.952942,-0.06426,0.25774,0.33054
-12.7893,0,0,27.7893,27.7893,5,5,24.8311,2.09382,-23.4584,-0.044996,0.0305018,-0.0231598,0,0,3.605,0,-0.455,-0.0488,-0.376614,-0.943304,-0.06426,0.25774,0.33054
-12.7989,0,0,27.7989,27.7989,5,5,24.7987,2.03361,-23.4507,-0.0439459,0.0300037,-0.0228878,0,0,3.605,0,-0.455,-0.0488,-0.376614,-0.943304,-0.06426,0.25774,0.33054
-9.91239,0,0,24.9124,24.9124,5.08761,5.08761,24.7236,2.21493,-23.5694,0.106328,0.0500154,0.00595534,0,0,3.5525,-0.07,-0.4025,0.105286,-0.355386,-0.915122,-0.06426,0.25774,0.33054
-19.9906,0,0,34.9906,34.9906,5,5,24.799,2.12915,-23.5291,-0.0460982,-0.033889,0.0554961,0,0,3.64,-0.0875,-0.5775,-0.049288,-0.44042,-0.865468,-0.05796,0.2569,0.33026
-19.8941,0,0,34.8941,34.8941,5,5,24.8723,2.04616,-23.4896,-0.0446507,-0.0327069,0.0550071,0,0,3.5,-0.0175,-0.7,-0.049288,-0.44042,-0.865468,-0.05796,0.2569,0.33026
-17.3292,0,0,32.3292,32.3292,5,5,24.9067,2.10743,-23.5286,0.0480676,-0.0503743,-0.0132718,0,0,3.325,-0.0525,-0.5075,0.044896,-0.458598,-0.932934,-0.05796,0.2569,0.33026
-17.3191,0,0,32.3191,32.3191,5,5,24.9408,2.16719,-23.5671,0.0470253,-0.0498523,-0.0135572,0,0,3.325,-0.0525,-0.5075,0.044896,-0.458598,-0.932934,-0.05796,0.2569,0.33026
-18.1747,0,0,33.1747,33.1747,5,5,24.9872,2.17774,-23.579,0.0174418,-0.0765995,-0.0557079,0,0,3.6925,-0.0175,-0.6125,0.015372,-0.486048,-0.974414,-0.05796,0.2569,0.33026
-17.2699,0,0,32.2699,32.2699,5,5,25.0198,2.08691,-23.5445,-0.0549589,-0.000707465,0.038161,0,0,3.6225,-0.035,-0.63,-0.058926,-0.410774,-0.881084,-0.05796,0.2569,0.33026
-17.2137,0,0,32.2137,32.2137,5,5,25.0512,1.99873,-23.5105,-0.0534208,-0.000187363,0.0379787,0,0,3.5525,0,-0.7,-0.058926,-0.410774,-0.881084,-0.05796,0.2569,0.33026
-12.7829,0,0,27.7829,27.7829,5,5,25.0165,2.09802,-23.5827,0.0566143,0.0356316,0.0346133,0,0,3.605,-0.105,-0.5775,0.053314,-0.374418,-0.884622,-0.05796,0.2569,0.33026
-12.8278,0,0,27.8278,27.8278,5,5,24.9828,2.19465,-23.6616,0.0549289,0.0350715,0.0348047,0,0,3.6225,-0.1225,-0.63,0.053314,-0.374418,-0.884622,-0.05894,0.2625,0.33432
-17.1411,0,0,32.1411,32.1411,5,5,25.0135,1.96122,-23.5651,-0.148619,0.0104608,0.0178686,0,0,3.4825,-0.1925,-0.6125,-0.155184,-0.39955,-0.901336,-0.05894,0.2625,0.33432
-17.0705,0,0,32.0705,32.0705,5,5,25.0428,1.73396,-23.4695,-0.144654,0.0109787,0.0177679,0,0,3.605,-0.1575,-0.56,-0.155184,-0.39955,-0.901336,-0.05894,0.2625,0.33432
-17.7318,0,0,32.7318,32.7318,5,5,25.0817,1.90729,-23.5646,0.119955,-0.0464573,0.0342372,0,0,3.605,-0.245,-0.5075,0.113582,-0.4575,-0.884622,-0.05894,0.2625,0.33432
-17.7314,0,0,32.7314,32.7314,5,5,25.1203,2.07598,-23.6584,0.117013,-0.0458918,0.0338593,0,0,3.5,-0.28,-0.455,0.113582,-0.4575,-0.884622,-0.05894,0.2625,0.33432
-18.2919,0,0,33.2919,33.2919,5,5,25.1668,1.84986,-23.5594,-0.134163,0.0263446,0.0839227,0,0,3.535,-0.105,-0.5075,-0.142618,-0.38613,-0.834724,-0.05894,0.2625,0.33432
-18.1772,0,0,33.1772,33.1772,5,5,25.2112,1.62983,-23.4612,-0.130325,0.0270953,0.0836985,0,0,3.3775,0,-0.35,-0.142618,-0.38613,-0.834724,-0.05894,0.2625,0.33432
-15.2028,0,0,30.2028,30.2028,5,5,25.211,1.62985,-23.4609,0.0907788,-0.15048,-0.0433057,1,0,3.4125,0.0525,-0.3325,0.079422,-0.563518,-0.96075,-0.05894,0.2625,0.33432
-15.1981,0,0,30.1981,30.1981,5,5,25.2107,1.62983,-23.461,0.0907792,-0.150485,-0.0433036,1,0,3.3775,-0.07,-0.525,0.079422,-0.563518,-0.96075,-0.05796,0.266,0.33026
-18.6933,0,0,33.6933,33.6933,5,5,25.2624,1.41294,-23.3693,-0.138689,-0.023836,-0.00474536,0,0,3.3775,-0.0525,-0.4375,-0.154818,-0.437858,-0.922198,-0.05796,0.266,0.33026
-18.611,0,0,33.611,33.611,5,5,25.3124,1.20204,-23.2786,-0.135009,-0.0230115,-0.00504195,0,0,3.5,0.0175,-0.49,-0.154818,-0.437858,-0.922198,-0.05796,0.266,0.33026
-15.2645,0,0,30.2645,30.2645,5,5,25.3122,1.20222,-23.2785,0.136994,-0.0857882,-0.119505,1,0,3.4125,0.07,-0.5075,0.11834,-0.500566,-1.03578,-0.05796,0.266,0.33026
-15.2664,0,0,30.2664,30.2664,5,5,25.312,1.20181,-23.2788,0.137001,-0.0857911,-0.119504,1,0,3.43,-0.315,-0.5075,0.11834,-0.500566,-1.03578,-0.05796,0.266,0.33026
-9.59458,0,0,24.5946,24.5946,5.40542,5.40542,25.2274,0.945833,-23.1932,-0.169292,0.128098,0.0385755,0,0,3.3075,-0.2975,-0.455,-0.193736,-0.285602,-0.87962,-0.05796,0.266,0.33026
-9.61411,0,0,24.6141,24.6141,5.38589,5.38589,25.144,0.696293,-23.1075,-0.164937,0.126806,0.0392519,0,0,3.4825,-0.1225,-0.5075,-0.193736,-0.285602,-0.87962,-0.05796,0.266,0.33026
-15.1689,0,0,30.1689,30.1689,5,5,25.1438,0.696013,-23.1078,0.179844,-0.135646,-0.12058,1,0,3.4475,-0.245,-0.5425,0.1525,-0.54778,-1.03822,-0.05796,0.266,0.33026
-15.1672,0,0,30.1672,30.1672,5,5,25.1436,0.695469,-23.1078,0.179853,-0.135649,-0.120578,1,0,3.43,-0.3325,-0.3675,0.1525,-0.54778,-1.03822,-0.05796,0.266,0.33026
-9.41712,0,0,24.4171,24.4171,5.58288,5.58288,25.0579,0.627999,-23.1055,-0.0518572,0.107867,0.0464176,0,0,3.43,-0.35,-0.5075,-0.081374,-0.30317,-0.873154,-0.06286,0.26558,0.329
-19.018,0,0,34.018,34.018,5,5,25.1158,0.403299,-22.9958,-0.140265,-0.0166289,0.0204484,0,0,3.5525,-0.0525,-0.5775,-0.174094,-0.428464,-0.89853,-0.06286,0.26558,0.329
-18.9269,0,0,33.9269,33.9269,5,5,25.1717,0.184837,-22.8874,-0.136452,-0.0157368,0.0200514,0,0,3.6575,0.035,-0.63,-0.174094,-0.428464,-0.89853,-0.06286,0.26558,0.329
-15.2142,0,0,30.2142,30.2142,5,5,25.1719,0.17807,-22.8906,0.216704,-0.0825362,-0.0566699,1,0,3.675,-4.4275,-0.5075,0.180438,-0.495198,-0.974658,-0.06286,0.26558,0.329
-15.2148,0,0,30.2148,30.2148,5,5,25.1722,0.171302,-22.8938,0.216822,-0.0825323,-0.0566714,1,0,3.675,-4.4275,-0.5075,0.180438,-0.495198,-0.974658,-0.06286,0.26558,0.329
-15.2027,0,0,30.2027,30.2027,5,5,25.1722,0.164606,-22.8969,-0.301198,0.170393,-0.738667,1,0,3.57,-4.34,-0.42,-0.339892,-0.242536,-1.65139,-0.06286,0.26558,0.329
-15.2032,0,0,30.2032,30.2032,5,5,25.1723,0.15791,-22.8999,-0.301081,0.170394,-0.738667,1,0,3.57,-4.34,-0.42,-0.339892,-0.242536,-1.65139,-0.06286,0.26558,0.329
-15.0576,0,0,30.0576,30.0576,5,5,25.1702,0.165056,-22.8976,0.814762,-0.264166,0.142275,1,0,2.345,4.34,-1.015,0.7808,-0.676612,-0.777262,-0.06426,0.2646,0.32914
18.036,0,0,5,5,33.036,33.036,24.6761,0.138845,-22.991,-0.0834104,0.456011,-0.129864,0,0,3.2025,-0.7,-0.91,-0.121634,0.05063,-1.05091,-0.06426,0.2646,0.32914
17.7758,0,0,5,5,32.7758,32.7758,24.1903,0.111956,-23.0845,-0.0829411,0.448292,-0.126356,0,0,3.2025,-0.7,-0.91,-0.121634,0.05063,-1.05091,-0.06426,0.2646,0.32914
-14.6374,0,0,29.6374,29.6374,5,5,24.1906,0.118709,-23.0821,-0.0269326,-0.372027,0.0607688,1,0,3.745,4.165,-0.7875,-0.06527,-0.768844,-0.865224,-0.06426,0.2646,0.32914
-14.638,0,0,29.638,29.638,5,5,24.191,0.125463,-23.0796,-0.0270504,-0.372021,0.0607658,1,0,3.745,4.165,-0.7875,-0.06527,-0.768844,-0.865224,-0.06426,0.2646,0.32914
-14.6278,0,0,29.6278,29.6278,5,5,24.1912,0.125852,-23.0794,0.151527,-0.0469164,0.402315,1,0,3.6575,0.2275,-0.455,0.11407,-0.44408,-0.526308,-0.06426,0.2646,0.32914
-14.6282,0,0,29.6282,29.6282,5,5,24.1915,0.126241,-23.0792,0.15152,-0.046913,0.402314,1,0,3.6575,0.2275,-0.455,0.11407,-0.44408,-0.526308,-0.06426,0.2646,0.32914
-14.5762,0,0,29.5762,29.5762,5,5,24.1909,0.126145,-23.0791,0.0534827,-0.0673171,0.294861,1,0,3.22,-0.0525,-0.385,0.015616,-0.464454,-0.632936,-0.06426,0.2646,0.32914
-14.5763,0,0,29.5763,29.5763,5,5,24.1903,0.126049,-23.0789,0.0534844,-0.067326,0.294865,1,0,3.22,-0.0525,-0.385,0.015616,-0.464454,-0.632936,-0.05824,0.26082,0.329
-14.5701,0,0,29.5701,29.5701,5,5,24.1897,0.125855,-23.0779,0.565428,-0.305972,0.237944,1,0,3.1675,0.105,0.105,0.529724,-0.702842,-0.689422,-0.05824,0.26082,0.329
-14.6561,0,0,29.6561,29.6561,5,5,24.1903,0.124866,-23.0777,-0.0360299,-0.0800277,0.493796,1,0,3.885,-0.5075,-0.1225,-0.074298,-0.477142,-0.43554,-0.05824,0.26082,0.329
-14.7114,0,0,29.7114,29.7114,5,5,24.1917,0.123899,-23.0776,-0.0360131,-0.0800048,0.493785,1,0,4.34,-0.525,-0.1925,-0.074298,-0.477142,-0.43554,-0.05824,0.26082,0.329
-36.6617,0,0,51.6617,51.6617,5,5,24.5195,-0.853047,-22.5264,-0.614607,-0.0679998,0.290799,0,0,3.955,-0.735,-0.35,-0.672464,-0.47031,-0.634522,-0.05824,0.26082,0.329
-36.0998,0,0,51.0998,51.0998,5,5,24.8359,-1.81016,-21.984,-0.597907,-0.0631447,0.288141,0,0,3.36,-0.315,-0.7175,-0.672464,-0.47031,-0.634522,-0.05824,0.26082,0.329
-15.0305,0,0,30.0305,30.0305,5,5,24.8363,-1.81073,-21.985,-0.650986,-1.26658,0.895134,1,0,3.745,-0.5775,-0.8575,-0.725778,-1.6725,-0.032208,-0.05824,0.26082,0.329
-14.7869,0,0,29.7869,29.7869,5,5,24.8331,-1.81052,-21.9847,-0.65099,-1.26663,0.895158,1,0,1.7325,0.1575,-0.3675,-0.725778,-1.6725,-0.032208,-0.05824,0.26082,0.329
-14.7523,0,0,29.7523,29.7523,5,5,24.8294,-1.81307,-21.9865,-0.0746174,-0.826541,0.175443,1,0,1.4175,-1.855,-0.8575,-0.14701,-1.23281,-0.746396,-0.05992,0.26866,0.33474
-28.1609,0,0,43.1609,43.1609,5,5,25.025,-1.26259,-22.2247,0.421523,-0.228824,0.142149,0,0,2.8,-0.315,-0.805,0.360876,-0.638914,-0.778238,-0.05992,0.26866,0.33474
-28.3316,0,0,43.3316,43.3316,5,5,25.2215,-0.724065,-22.4558,0.412126,-0.225651,0.140841,0,0,4.3575,0.5775,-0.84,0.360876,-0.638914,-0.778238,-0.05992,0.26866,0.33474
-15.3633,0,0,30.3633,30.3633,5,5,25.2233,-0.723896,-22.4569,-0.0187869,0.166894,0.443404,1,0,4.585,-0.21,-1.085,-0.071858,-0.246806,-0.477996,-0.05992,0.26866,0.33474
-15.3356,0,0,30.3356,30.3356,5,5,25.2248,-0.722552,-22.4581,-0.0188103,0.166917,0.443393,1,0,4.34,0.385,-1.435,-0.071858,-0.246806,-0.477996,-0.05992,0.26866,0.33474
-15.2672,0,0,30.2672,30.2672,5,5,25.2252,-0.721386,-22.4589,0.0213811,-0.404019,-0.159672,1,0,3.7625,0.385,-1.19,-0.031476,-0.817156,-1.07641,-0.05992,0.26866,0.33474
-15.2048,0,0,30.2048,30.2048,5,5,25.2247,-0.71982,-22.4597,0.0213538,-0.404027,-0.159668,1,0,3.2375,0.595,-1.295,-0.031476,-0.817156,-1.07641,-0.05992,0.26866,0.33474
-15.178,0,0,30.178,30.178,5,5,25.2238,-0.720269,-22.4609,-0.0207939,0.0252338,0.280863,1,0,3.01,-0.5775,-1.015,-0.07381,-0.388326,-0.63928,-0.05992,0.26866,0.33474
-15.2131,0,0,30.2131,30.2131,5,5,25.2234,-0.720254,-22.4617,-0.0207942,0.0252275,0.280866,1,0,3.3075,-0.2275,-0.91,-0.07381,-0.388326,-0.63928,-0.05964,0.26572,0.33446
-15.3119,0,0,30.3119,30.3119,5,5,25.2244,-0.720881,-22.4625,0.0467628,-0.338205,-0.330565,1,0,4.13,-0.56,-0.735,-0.005978,-0.751398,-1.24599,-0.05964,0.26572,0.33446
-15.3129,0,0,30.3129,30.3129,5,5,25.2255,-0.721507,-22.4633,0.0467737,-0.338188,-0.330573,1,0,4.13,-0.56,-0.735,-0.005978,-0.751398,-1.24599,-0.05964,0.26572,0.33446
-15.2773,0,0,30.2773,30.2773,5,5,25.226,-0.720933,-22.463,0.056361,0.0167207,0.157898,1,0,3.8325,0.35,-0.455,0.00366,-0.396866,-0.76128,-0.05964,0.26572,0.33446
-15.278,0,0,30.278,30.278,5,5,25.2266,-0.720358,-22.4627,0.056351,0.016729,0.157894,1,0,3.8325,0.35,-0.455,0.00366,-0.396866,-0.76128,-0.05964,0.26572,0.33446
-15.1711,0,0,30.1711,30.1711,5,5,25.2255,-0.719811,-22.4617,-0.0702466,-0.372506,-0.224222,1,0,2.94,0.49,-0.1225,-0.123464,-0.78568,-1.14046,-0.05964,0.26572,0.33446
2.65333,0,0,12.3467,12.3467,17.6533,17.6533,24.9594,-0.49626,-22.6224,0.111846,0.215866,-0.0279567,0,0,3.7625,0.56,-0.1925,0.063318,-0.193736,-0.947696,-0.05964,0.26572,0.33446
2.40643,0,0,12.5936,12.5936,17.4064,17.4064,24.6994,-0.279998,-22.7836,0.108072,0.211758,-0.0260279,0,0,4.1125,0,-0.2625,0.063318,-0.193736,-0.947696,-0.05964,0.26572,0.33446
-15.0498,0,0,30.0498,30.0498,5,5,24.7012,-0.279897,-22.7831,0.0515795,0.0631584,0.22502,1,0,4.55,0.14,-0.245,0.006588,-0.34221,-0.698572,-0.06482,0.2688,0.33894
-14.9611,0,0,29.9611,29.9611,5,5,24.7017,-0.280587,-22.7832,0.0374992,-0.375269,-0.199771,1,0,3.7975,-0.4025,-0.315,-0.007564,-0.78019,-1.12008,-0.06482,0.2688,0.33894
-14.9197,0,0,29.9197,29.9197,5,5,24.7015,-0.281826,-22.7832,0.0375208,-0.375272,-0.19977,1,0,3.4475,-0.7,-0.1925,-0.007564,-0.78019,-1.12008,-0.06482,0.2688,0.33894
-6.60947,0,0,21.6095,21.6095,8.39053,8.39053,24.5778,-0.0580808,-22.9225,0.123394,0.108469,0.0544148,0,0,2.625,-0.4725,-0.1575,0.082594,-0.294996,-0.868762,-0.06482,0.2688,0.33894
-6.79742,0,0,21.7974,21.7974,8.20258,8.20258,24.458,0.159694,-23.0608,0.119593,0.106565,0.0552795,0,0,3.15,-0.2625,-0.175,0.082594,-0.294996,-0.868762,-0.06482,0.2688,0.33894
-14.7453,0,0,29.7453,29.7453,5,5,24.4574,0.159583,-23.0607,-0.0628768,-0.170672,-0.213359,1,0,3.2025,-0.07,-0.4025,-0.10065,-0.571936,-1.13533,-0.06482,0.2688,0.33894
-14.8147,0,0,29.8147,29.8147,5,5,24.4579,0.160376,-23.06,-0.0628906,-0.170665,-0.213362,1,0,3.78,0.56,-0.2975,-0.10065,-0.571936,-1.13533,-0.06482,0.2688,0.33894
-14.8384,0,0,29.8384,29.8384,5,5,24.4586,0.161114,-23.0593,0.20971,0.124161,0.188797,1,0,3.9725,0.525,-0.2975,0.173118,-0.277428,-0.73627,-0.06482,0.2688,0.33894
-14.816,0,0,29.816,29.816,5,5,24.4591,0.161152,-23.0592,0.20971,0.124168,0.188794,1,0,3.78,0.0175,-0.42,0.173118,-0.277428,-0.73627,-0.06146,0.26544,0.33698
-22.9933,0,0,37.9933,37.9933,5,5,24.5811,-0.0426867,-22.9403,-0.120818,-0.0729602,0.0470146,0,0,3.5,-0.21,-0.525,-0.162382,-0.476288,-0.876082,-0.06146,0.26544,0.33698
-22.8695,0,0,37.8695,37.8695,5,5,24.7001,-0.24085,-22.8233,-0.11736,-0.071075,0.0461405,0,0,3.6575,-0.28,-0.665,-0.162382,-0.476288,-0.876082,-0.06146,0.26544,0.33698
-9.33809,0,0,24.3381,24.3381,5.66191,5.66191,24.617,0.111888,-23.0184,0.225269,0.0421635,0.01663,0,0,3.71,-0.42,-0.56,0.18788,-0.361852,-0.905972,-0.06146,0.26544,0.33698
-9.48235,0,0,24.4824,24.4824,5.51765,5.51765,24.5367,0.455098,-23.2112,0.219279,0.0408769,0.0171859,0,0,3.955,-0.315,-0.35,0.18788,-0.361852,-0.905972,-0.06146,0.26544,0.33698
-26.3847,0,0,41.3847,41.3847,5,5,24.7084,0.0980745,-23.0084,-0.214632,-0.0820549,0.0850618,0,0,3.8675,-0.2975,-0.56,-0.254126,-0.48739,-0.837408,-0.06146,0.26544,0.33698
-26.0641,0,0,41.0641,41.0641,5,5,24.8738,-0.249131,-22.8091,-0.208572,-0.0794376,0.0838441,0,0,3.08,-0.245,-0.875,-0.254126,-0.48739,-0.837408,-0.06146,0.26544,0.33698
-14.9818,0,0,29.9818,29.9818,5,5,24.8729,-0.248424,-22.8098,0.175189,-0.296348,-0.250447,1,0,3.0625,0.1575,-1.05,0.131272,-0.704062,-1.16913,-0.06146,0.26544,0.33698
-14.9333,0,0,29.9333,29.9333,5,5,24.8714,-0.247014,-22.8103,0.175164,-0.296373,-0.250435,1,0,2.66,0.595,-1.085,0.131272,-0.704062,-1.16913,-0.06356,0.27902,0.3353
-14.9687,0,0,29.9687,29.9687,5,5,24.8703,-0.246416,-22.8116,0.0635082,-0.0597073,0.363823,1,0,2.9575,-0.035,-1.3125,0.019154,-0.467626,-0.559614,-0.06356,0.27902,0.3353
-15.0442,0,0,30.0442,30.0442,5,5,24.8704,-0.245607,-22.8135,0.0634941,-0.0597057,0.363823,1,0,3.5875,-0.07,-1.68,0.019154,-0.467626,-0.559614,-0.06356,0.27902,0.3353
-15.0908,0,0,30.0908,30.0908,5,5,24.8712,-0.24493,-22.8153,-0.0137827,-0.27256,-0.10351,1,0,3.9725,-0.1225,-1.61,-0.058438,-0.680272,-1.02334,-0.06356,0.27902,0.3353
-15.1061,0,0,30.1061,30.1061,5,5,24.8722,-0.244943,-22.8165,-0.0137824,-0.272544,-0.103518,1,0,4.095,-0.315,-1.0675,-0.058438,-0.680272,-1.02334,-0.06356,0.27902,0.3353
-15.065,0,0,30.065,30.065,5,5,24.8726,-0.244922,-22.8174,0.144149,0.0402284,0.295447,1,0,3.745,-0.245,-0.9625,0.100162,-0.36783,-0.627446,-0.06356,0.27902,0.3353
-14.9795,0,0,29.9795,29.9795,5,5,24.8717,-0.244908,-22.818,0.144148,0.040214,0.295454,1,0,3.0275,-0.1925,-0.84,0.100162,-0.36783,-0.627446,-0.06356,0.27902,0.3353
-14.9626,0,0,29.9626,29.9626,5,5,24.8705,-0.245205,-22.8188,-0.0658952,-0.245703,-0.421204,1,0,2.8875,-0.385,-0.8225,-0.110776,-0.653432,-1.33858,-0.06356,0.27902,0.3353
-14.9474,0,0,29.9474,29.9474,5,5,24.8692,-0.24574,-22.819,-0.0658859,-0.245725,-0.421194,1,0,2.765,-0.3675,-0.455,-0.110776,-0.653432,-1.33858,-0.06356,0.27902,0.3353
-14.9741,0,0,29.9741,29.9741,5,5,24.8682,-0.24554,-22.8188,-0.0322379,0.105252,0.131589,1,0,2.9925,0.14,-0.385,-0.076982,-0.302804,-0.790072,-0.06034,0.27412,0.3423
-14.5839,0,0,29.5839,29.5839,5,5,24.8614,-0.104765,-22.905,0.0927437,-0.000979923,0.0244346,0,0,3.6575,-0.1575,-0.21,0.050996,-0.408822,-0.896456,-0.06034,0.27412,0.3423
-14.5893,0,0,29.5893,29.5893,5,5,24.8548,0.0315083,-22.9895,0.0903653,-0.00108432,0.0244846,0,0,3.4125,-0.3675,0.4025,0.050996,-0.408822,-0.896456,-0.06034,0.27412,0.3423
-14.994,0,0,29.994,29.994,5,5,24.8542,0.0297639,-22.988,0.108011,-0.102703,-0.179852,1,0,3.22,-0.595,0.735,0.068686,-0.510326,-1.09922,-0.06034,0.27412,0.3423
-15.0424,0,0,30.0424,30.0424,5,5,24.8544,0.0290211,-22.9856,0.108024,-0.1027,-0.179853,1,0,3.6225,0.1575,0.9625,0.068686,-0.510326,-1.09922,-0.06034,0.27412,0.3423
-15.0533,0,0,30.0533,30.0533,5,5,24.8547,0.0288299,-22.9827,0.302769,0.197859,0.158376,1,0,3.71,0.595,1.1375,0.264252,-0.210084,-0.763598,-0.06034,0.27412,0.3423
-15.1148,0,0,30.1148,30.1148,5,5,24.8559,0.0272576,-22.9808,0.302796,0.197878,0.158367,1,0,4.2175,-0.4025,0.91,0.264252,-0.210084,-0.763598,-0.06034,0.27412,0.3423
-15.141,0,0,30.141,30.141,5,5,24.8575,0.0251179,-22.9791,0.0109037,-0.124389,-0.379544,1,0,4.4275,-0.7525,0.945,-0.028914,-0.532042,-1.29735,-0.06034,0.27412,0.3423
-15.1718,0,0,30.1718,30.1718,5,5,24.8595,0.024235,-22.9774,0.0109191,-0.124357,-0.379559,1,0,4.6725,-0.0875,0.63,-0.028914,-0.532042,-1.29735,-0.0602,0.28126,0.3535
-13.0819,0,0,28.0819,28.0819,5,5,24.8305,0.370877,-23.1776,0.214067,0.0278322,0.0963231,0,0,4.1825,0.2975,0.6125,0.18117,-0.379542,-0.82533,-0.0602,0.28126,0.3535
-13.053,0,0,28.053,28.053,5,5,24.8012,0.708151,-23.3764,0.208181,0.0273457,0.0964869,0,0,3.2725,-0.0175,0.1925,0.18117,-0.379542,-0.82533,-0.0602,0.28126,0.3535
-14.9717,0,0,29.9717,29.9717,5,5,24.8008,0.707523,-23.3757,-0.0599268,-0.0322594,-0.128259,1,0,3.2725,-0.1925,0.0525,-0.088084,-0.439078,-1.04835,-0.0602,0.28126,0.3535
-14.9817,0,0,29.9817,29.9817,5,5,24.8005,0.706701,-23.3757,-0.0599125,-0.0322642,-0.128257,1,0,3.36,-0.455,-0.245,-0.088084,-0.439078,-1.04835,-0.0602,0.28126,0.3535
-14.9692,0,0,29.9692,29.9692,5,5,24.8,0.706489,-23.3758,0.183792,0.0320886,0.384934,1,0,3.255,-0.175,-0.49,0.156648,-0.374784,-0.539118,-0.0602,0.28126,0.3535
-15.0803,0,0,30.0803,30.0803,5,5,24.8011,0.707861,-23.3762,0.183768,0.0321067,0.384925,1,0,4.1825,0.595,-1.0325,0.156648,-0.374784,-0.539118,-0.0602,0.28126,0.3535
-3.10616,0,0,18.1062,18.1062,11.8938,11.8938,24.6242,0.40873,-23.2942,-0.253584,0.180761,-0.133441,0,0,4.1125,0.7525,-1.12,-0.287798,-0.223504,-1.05481,-0.0602,0.28126,0.3535
-3.17151,0,0,18.1715,18.1715,11.8285,11.8285,24.4499,0.116117,-23.2179,-0.248477,0.178003,-0.132157,0,0,4.375,0.21,-1.5925,-0.287798,-0.223504,-1.05481,-0.06216,0.2849,0.35084
-14.8211,0,0,29.8211,29.8211,5,5,24.4503,0.116879,-23.2196,0.193474,-0.147459,-0.184659,1,0,3.7625,-0.035,-1.5575,0.156038,-0.548634,-1.10691,-0.06216,0.2849,0.35084
-14.8027,0,0,29.8027,29.8027,5,5,24.4504,0.116722,-23.2219,0.193477,-0.147457,-0.184659,1,0,3.605,-0.6825,-1.68,0.156038,-0.548634,-1.10691,-0.06216,0.2849,0.35084
-18.9101,0,0,33.9101,33.9101,5,5,24.5116,0.00174793,-23.1867,-0.0668038,-0.0158086,0.0606741,0,0,3.5,-0.315,-1.9775,-0.10736,-0.418094,-0.863028,-0.06216,0.2849,0.35084
-18.816,0,0,33.816,33.816,5,5,24.5708,-0.110192,-23.1515,-0.06485,-0.0148691,0.0602431,0,0,3.3075,-0.28,-1.6625,-0.10736,-0.418094,-0.863028,-0.06216,0.2849,0.35084
-22.4457,0,0,37.4457,37.4457,5,5,24.6835,-0.146656,-23.1418,-0.00954506,-0.113959,0.000898993,0,0,3.3425,-0.2275,-1.6975,-0.05246,-0.518866,-0.9211,-0.06216,0.2849,0.35084
-22.3531,0,0,37.3531,37.3531,5,5,24.7937,-0.181677,-23.1316,-0.00893384,-0.112212,9.20581e-05,0,0,3.3075,-0.035,-1.3125,-0.05246,-0.518866,-0.9211,-0.06216,0.2849,0.35084
-14.9964,0,0,29.9964,29.9964,5,5,24.7936,-0.181098,-23.1326,0.033819,0.0791592,0.299349,1,0,3.4825,0.035,-1.1375,-0.009516,-0.327692,-0.624152,-0.06216,0.2849,0.35084
-15.0786,0,0,30.0786,30.0786,5,5,24.7948,-0.180534,-23.1332,0.0338092,0.079177,0.299341,1,0,4.165,0.1225,-0.9275,-0.009516,-0.327692,-0.624152,-0.06356,0.27944,0.35028
-15.1026,0,0,30.1026,30.1026,5,5,24.7962,-0.179852,-23.1334,-0.0708019,-0.0622225,-0.299183,1,0,4.3575,0.28,-0.7525,-0.114558,-0.468968,-1.21805,-0.06356,0.27944,0.35028
-15.1438,0,0,30.1438,30.1438,5,5,24.7983,-0.18043,-23.1337,-0.0707918,-0.0621899,-0.299198,1,0,4.69,-0.42,-0.5075,-0.114558,-0.468968,-1.21805,-0.06356,0.27944,0.35028
-15.1013,0,0,30.1013,30.1013,5,5,24.7997,-0.181337,-23.1338,0.18726,0.0766904,0.321436,1,0,4.3225,-0.5425,-0.315,0.14457,-0.330254,-0.602192,-0.06356,0.27944,0.35028
-15.0709,0,0,30.0709,30.0709,5,5,24.8006,-0.182402,-23.1334,0.187278,0.0767052,0.321429,1,0,4.06,-0.49,0.0175,0.14457,-0.330254,-0.602192,-0.06356,0.27944,0.35028
-30.5437,0,0,45.5437,45.5437,5,5,25.0316,-0.356944,-23.019,-0.0802241,-0.127139,0.149434,0,0,3.955,-0.5425,0.035,-0.127124,-0.537532,-0.771162,-0.06356,0.27944,0.35028
-30.3214,0,0,45.3214,45.3214,5,5,25.2571,-0.526212,-22.9069,-0.0772699,-0.123585,0.147741,0,0,3.85,-0.6125,0.0525,-0.127124,-0.537532,-0.771162,-0.06356,0.27944,0.35028
-15.2515,0,0,30.2515,30.2515,5,5,25.2567,-0.527283,-22.906,0.115547,0.0901296,0.326142,1,0,3.2725,-0.3675,0.28,0.06649,-0.324032,-0.59414,-0.06356,0.27944,0.35028
-15.3607,0,0,30.3607,30.3607,5,5,25.2578,-0.527457,-22.905,0.11555,0.0901477,0.326134,1,0,4.1825,0.1225,0.0875,0.06649,-0.324032,-0.59414,-0.06244,0.28588,0.35728
-15.4825,0,0,30.4825,30.4825,5,5,25.2607,-0.621803,-22.8778,-0.0701348,-0.0269325,-0.0824608,0,0,3.9725,0.07,0.21,-0.121634,-0.44103,-0.999546,-0.06244,0.28588,0.35728
-15.5824,0,0,30.5824,30.5824,5,5,25.2651,-0.71315,-22.8511,-0.0685406,-0.0268711,-0.0825103,0,0,5.005,0.28,-0.1225,-0.121634,-0.44103,-0.999546,-0.06244,0.28588,0.35728
-15.4527,0,0,30.4527,30.4527,5,5,25.2676,-0.712812,-22.85,0.153408,0.0789288,-0.261418,1,0,4.9,0.4375,0.0525,0.10126,-0.335378,-1.17706,-0.06244,0.28588,0.35728
-15.3707,0,0,30.3707,30.3707,5,5,25.2687,-0.712691,-22.849,0.153406,0.0789473,-0.261427,1,0,4.2,0.28,0.0175,0.10126,-0.335378,-1.17706,-0.06244,0.28588,0.35728
-12.2394,0,0,27.2394,27.2394,5,5,25.2233,-0.699229,-22.8822,0.00325749,0.0542952,0.0220639,0,0,4.34,-0.0525,-0.14,-0.049288,-0.35929,-0.89609,-0.06244,0.28588,0.35728
-12.1463,0,0,27.1463,27.1463,5,5,25.177,-0.686005,-22.9158,0.0030267,0.053564,0.022411,0,0,3.2725,-0.07,-0.56,-0.049288,-0.35929,-0.89609,-0.06244,0.28588,0.35728
-30.1745,0,0,45.1745,45.1745,5,5,25.399,-0.849483,-22.8137,-0.0806181,-0.163265,0.0899412,0,0,3.6925,-0.4025,-0.5425,-0.136152,-0.579378,-0.827404,-0.06244,0.28588,0.35728
-30.0164,0,0,45.0164,45.0164,5,5,25.6167,-1.00741,-22.7136,-0.0778621,-0.159856,0.0882648,0,0,4.025,-0.14,-0.6125,-0.136152,-0.579378,-0.827404,-0.06244,0.28588,0.35728
-15.6127,0,0,30.6127,30.6127,5,5,25.6183,-1.00728,-22.714,0.110317,-0.0197507,0.218824,1,0,4.445,-0.0525,-0.7,0.052826,-0.439444,-0.69784,-0.05558,0.28728,0.36036
-15.6456,0,0,30.6456,30.6456,5,5,25.6204,-1.0067,-22.7144,0.110307,-0.0197176,0.218808,1,0,4.7075,0.175,-0.8225,0.052826,-0.439444,-0.69784,-0.05558,0.28728,0.36036
-15.6159,0,0,30.6159,30.6159,5,5,25.6221,-1.00585,-22.7149,0.284502,-0.276524,-0.39152,1,0,4.445,0.28,-0.98,0.227774,-0.69601,-1.30345,-0.05558,0.28728,0.36036
-15.6173,0,0,30.6173,30.6173,5,5,25.6237,-1.005,-22.7155,0.284488,-0.276499,-0.391532,1,0,4.445,0.28,-0.98,0.227774,-0.69601,-1.30345,-0.05558,0.28728,0.36036
2.68617,0,0,12.3138,12.3138,17.6862,17.6862,25.3532,-0.919587,-22.8263,0.0204665,0.228886,-0.0840743,0,0,4.375,0.5075,-0.98,-0.035868,-0.186904,-1.0004,-0.05558,0.28728,0.36036
2.50441,0,0,12.4956,12.4956,17.5044,17.5044,25.0878,-0.837121,-22.9371,0.0190274,0.224706,-0.0820809,0,0,4.375,0.5075,-0.98,-0.035868,-0.186904,-1.0004,-0.05558,0.28728,0.36036
-20.0903,0,0,35.0903,35.0903,5,5,25.1607,-0.613852,-23.0589,0.178286,-0.127556,-0.0267577,0,0,3.885,0.0175,-0.875,0.127978,-0.539972,-0.945012,-0.05558,0.28728,0.36036
-20.0881,0,0,35.0881,35.0881,5,5,25.2329,-0.396086,-23.1787,0.174486,-0.126402,-0.0272637,0,0,3.885,0.0175,-0.875,0.127978,-0.539972,-0.945012,-0.05558,0.28728,0.36036
-15.352,0,0,30.352,30.352,5,5,25.234,-0.397309,-23.1799,0.257603,0.0049018,0.362352,1,0,4.165,-0.98,-0.805,0.211426,-0.408822,-0.558394,-0.05726,0.29316,0.36876
-15.3972,0,0,30.3972,30.3972,5,5,25.2358,-0.398587,-23.1811,-0.129306,0.0423007,0.212095,1,0,4.5325,-1.015,-0.805,-0.177144,-0.37149,-0.707478,-0.05726,0.29316,0.36876
-15.4969,0,0,30.4969,30.4969,5,5,25.239,-0.399418,-23.1815,-0.129292,0.0423519,0.212071,1,0,5.355,-0.56,-0.455,-0.177144,-0.37149,-0.707478,-0.05726,0.29316,0.36876
-17.3619,0,0,32.3619,32.3619,5,5,25.27,-0.257256,-23.2777,0.107432,-0.0607171,-0.0206424,0,0,5.2675,-0.4375,-0.385,0.063074,-0.474946,-0.93818,-0.05726,0.29316,0.36876
-17.3561,0,0,32.3561,32.3561,5,5,25.3006,-0.117849,-23.3725,0.104999,-0.0602313,-0.0208631,0,0,5.145,0.07,-0.42,0.063074,-0.474946,-0.93818,-0.05726,0.29316,0.36876
-15.5094,0,0,30.5094,30.5094,5,5,25.3034,-0.117722,-23.3724,-0.310849,-0.0193961,0.226365,1,0,5.1275,0.0525,-0.4725,-0.354532,-0.434198,-0.692838,-0.05726,0.29316,0.36876
-15.4442,0,0,30.4442,30.4442,5,5,25.3052,-0.117367,-23.3717,-0.310855,-0.0193671,0.226351,1,0,4.5675,0.3325,-0.1925,-0.354532,-0.434198,-0.692838,-0.05726,0.29316,0.36876
-15.4436,0,0,30.4436,30.4436,5,5,25.307,-0.117419,-23.3713,0.547685,-0.0922482,-0.287833,1,0,4.55,0.0525,-0.2275,0.507642,-0.507032,-1.20304,-0.05726,0.29316,0.36876
-15.4515,0,0,30.4515,30.4515,5,5,25.3089,-0.11772,-23.3713,0.547691,-0.0922182,-0.287847,1,0,4.6025,-0.1925,-0.4025,0.507642,-0.507032,-1.20304,-0.05516,0.3003,0.38458
1.98856,0,0,13.0114,13.0114,16.9886,16.9886,25.0516,0.095425,-23.5648,0.116098,0.188761,-0.12979,0,0,4.655,-0.035,-0.49,0.077958,-0.222284,-1.0481,-0.05516,0.3003,0.38458
1.71649,0,0,13.2835,13.2835,16.7165,16.7165,24.8005,0.301355,-23.7583,0.112504,0.184782,-0.127955,0,0,5.3375,-0.6125,-0.3325,0.077958,-0.222284,-1.0481,-0.05516,0.3003,0.38458
-15.1991,0,0,30.1991,30.1991,5,5,24.8032,0.301323,-23.7582,0.230832,-0.121226,-0.253382,1,0,5.0225,-0.035,-0.4375,0.196786,-0.528016,-1.17254,-0.05516,0.3003,0.38458
-15.2807,0,0,30.2807,30.2807,5,5,24.807,0.301009,-23.7586,0.230837,-0.121165,-0.25341,1,0,5.6875,-0.2975,-0.6125,0.196786,-0.528016,-1.17254,-0.05516,0.3003,0.38458
-14.3601,0,0,29.3601,29.3601,5,5,24.7971,0.0279722,-23.6683,-0.194335,0.0473411,-0.0107477,0,0,5.5475,-0.2975,-0.6825,-0.234972,-0.359534,-0.931836,-0.05516,0.3003,0.38458
-14.3383,0,0,29.3383,29.3383,5,5,24.787,-0.237948,-23.5784,-0.189694,0.047177,-0.0106812,0,0,5.845,0.035,-0.77,-0.234972,-0.359534,-0.931836,-0.05516,0.3003,0.38458
-15.2933,0,0,30.2933,30.2933,5,5,24.7911,-0.237134,-23.5787,-0.000555297,0.266949,-0.216281,1,0,5.8625,0.3325,-0.8225,-0.045018,-0.140056,-1.13582,-0.05516,0.3003,0.38458
-15.2312,0,0,30.2312,30.2312,5,5,24.7943,-0.236199,-23.5794,-0.000571624,0.266999,-0.216305,1,0,5.32,0.2975,-1.0675,-0.045018,-0.140056,-1.13582,-0.0616,0.30632,0.38612
-30.4405,0,0,45.4405,45.4405,5,5,25.0236,-0.40642,-23.4935,-0.075716,-0.108094,0.169406,0,0,5.5125,0.4725,-0.8575,-0.123464,-0.518378,-0.751398,-0.0616,0.30632,0.38612
-30.315,0,0,45.315,45.315,5,5,25.2489,-0.571867,-23.4089,-0.0728286,-0.104544,0.167713,0,0,6.1775,0.3325,-0.4375,-0.123464,-0.518378,-0.751398,-0.0616,0.30632,0.38612
-15.7479,0,0,30.7479,30.7479,5,5,25.2557,-0.572118,-23.4084,-0.505799,0.0345432,0.429543,1,0,7.3325,-0.035,-0.14,-0.558272,-0.379542,-0.491538,-0.0616,0.30632,0.38612
-15.7981,0,0,30.7981,30.7981,5,5,25.2631,-0.572314,-23.4072,-0.505796,0.0346607,0.429487,1,0,7.7175,0.1575,0.1925,-0.558272,-0.379542,-0.491538,-0.0616,0.30632,0.38612
-15.2336,0,0,30.2336,30.2336,5,5,25.2621,-0.252822,-23.5993,0.223738,-0.0272564,0.0225716,0,0,7.7525,0,0.3675,0.17995,-0.441396,-0.895358,-0.0616,0.30632,0.38612
-15.1604,0,0,30.1604,30.1604,5,5,25.26,0.0578229,-23.7889,0.218316,-0.0272857,0.0225956,0,0,6.65,-0.2975,0.5775,0.17995,-0.441396,-0.895358,-0.0616,0.30632,0.38612
-3.00929,0,0,18.0093,18.0093,11.9907,11.9907,25.0773,0.156898,-23.9126,0.0411618,0.14691,-0.0671559,0,0,6.265,-0.5075,0.7875,0.003782,-0.264496,-0.98576,-0.0616,0.30632,0.38612
-3.17193,0,0,18.1719,18.1719,11.8281,11.8281,24.8986,0.252733,-24.0421,0.0394892,0.144081,-0.0658439,0,0,6.3875,-0.07,1.3125,0.003782,-0.264496,-0.98576,-0.05208,0.30604,0.38794
-23.8798,0,0,38.8798,38.8798,5,5,25.0293,0.404542,-24.1394,0.120179,-0.0849204,0.118586,0,0,6.79,-0.07,1.19,0.087474,-0.49532,-0.801784,-0.05208,0.30604,0.38794
-23.9868,0,0,38.9868,38.9868,5,5,25.1605,0.553834,-24.2353,0.117573,-0.0828565,0.117595,0,0,8.1375,0.315,0.9625,0.087474,-0.49532,-0.801784,-0.05208,0.30604,0.38794
-15.8655,0,0,30.8655,30.8655,5,5,25.1698,0.552954,-24.2331,0.0246521,-0.509299,-0.158739,1,0,8.715,0.0525,0.91,-0.005856,-0.921466,-1.07592,-0.05208,0.30604,0.38794
-15.9324,0,0,30.9324,30.9324,5,5,25.1799,0.552155,-24.2308,0.0246661,-0.509138,-0.158814,1,0,9.2225,0.105,0.91,-0.005856,-0.921466,-1.07592,-0.05208,0.30604,0.38794
-15.9553,0,0,30.9553,30.9553,5,5,25.1903,0.550997,-24.2291,0.12394,-0.507875,-0.116105,1,0,9.3625,-0.21,0.735,0.093818,-0.920368,-1.03346,-0.05208,0.30604,0.38794
-15.9634,0,0,30.9634,30.9634,5,5,25.2008,0.549641,-24.2284,0.123964,-0.50771,-0.116183,1,0,9.38,-0.5775,0.2275,0.093818,-0.920368,-1.03346,-0.05208,0.30604,0.38794
-15.9383,0,0,30.9383,30.9383,5,5,25.2107,0.54864,-24.2279,0.0819472,-0.245468,-0.398792,1,0,9.1175,-0.455,0,0.051606,-0.658556,-1.31382,-0.05208,0.30604,0.38794
-16.0616,0,0,31.0616,31.0616,5,5,25.2224,0.547565,-24.2285,0.0819659,-0.245284,-0.398879,1,0,10.0975,-0.735,-0.49,0.051606,-0.658556,-1.31382,-0.05138,0.30814,0.39018
3.08121,0,0,11.9188,11.9188,18.0812,18.0812,24.9494,0.688357,-24.4084,0.0488944,0.24598,-0.00910346,0,0,9.9225,-0.8575,-0.945,0.020862,-0.16348,-0.92903,-0.05138,0.30814,0.39018
2.869,0,0,12.131,12.131,17.869,17.869,24.682,0.825671,-24.5888,0.046498,0.241731,-0.00717356,0,0,10.1325,-0.525,-1.5925,0.020862,-0.16348,-0.92903,-0.05138,0.30814,0.39018
-15.729,0,0,30.729,30.729,5,5,24.6935,0.825632,-24.5911,-0.127226,-0.287995,0.0417994,1,0,9.975,-0.6125,-1.68,-0.153598,-0.692838,-0.880352,-0.05138,0.30814,0.39018
-15.7323,0,0,30.7323,30.7323,5,5,24.7049,0.826191,-24.5931,-0.127236,-0.287814,0.0417162,1,0,9.94,-0.2275,-1.68,-0.153598,-0.692838,-0.880352,-0.05138,0.30814,0.39018
-15.8233,0,0,30.8233,30.8233,5,5,24.7175,0.82637,-24.5953,0.0757639,-0.129216,0.217932,1,0,10.64,-0.4725,-1.68,0.050264,-0.534604,-0.705404,-0.05138,0.30814,0.39018
-15.9032,0,0,30.9032,30.9032,5,5,24.7312,0.826863,-24.5969,0.0757553,-0.128998,0.217832,1,0,11.235,-0.1575,-1.435,0.050264,-0.534604,-0.705404,-0.05138,0.30814,0.39018
-39.6484,0,0,54.6484,54.6484,5,5,25.0978,0.878942,-24.6019,0.0863876,-0.220659,0.248813,0,0,11.655,-0.315,-1.225,0.061854,-0.63196,-0.671976,-0.05138,0.30814,0.39018
-39.4394,0,0,54.4394,54.4394,5,5,25.458,0.930742,-24.6061,0.0854836,-0.214981,0.246115,0,0,11.7775,-0.56,-0.665,0.061854,-0.63196,-0.671976,-0.05138,0.30814,0.39018
-16.3857,0,0,31.3857,31.3857,5,5,25.4723,0.930062,-24.6063,-0.236442,-0.114857,-0.137222,1,0,11.5325,-0.4375,-0.4025,-0.261446,-0.532164,-1.05225,-0.04872,0.3094,0.39256
-16.4142,0,0,31.4142,31.4142,5,5,25.4868,0.928378,-24.6058,-0.236412,-0.114627,-0.137331,1,0,11.69,-0.805,0.1925,-0.261446,-0.532164,-1.05225,-0.04872,0.3094,0.39256
-4.99616,0,0,19.9962,19.9962,10.0038,10.0038,25.3315,0.86959,-24.6656,-0.0712591,0.141351,-0.0990226,0,0,11.2175,-0.5425,0.7175,-0.096624,-0.274012,-1.01541,-0.04872,0.3094,0.39256
-5.08826,0,0,20.0883,20.0883,9.91174,9.91174,25.1789,0.811574,-24.7248,-0.0702467,0.138949,-0.0978731,0,0,11.2175,-0.5425,0.7175,-0.096624,-0.274012,-1.01541,-0.04872,0.3094,0.39256
-16.3676,0,0,31.3676,31.3676,5,5,25.1954,0.810027,-24.7219,-0.0376615,0.104526,0.40302,1,0,12.74,-0.1225,1.4525,-0.063928,-0.30866,-0.518256,-0.04872,0.3094,0.39256
-16.3779,0,0,31.3779,31.3779,5,5,25.2118,0.80848,-24.719,-0.0376345,0.104786,0.402898,1,0,12.74,-0.1225,1.4525,-0.063928,-0.30866,-0.518256,-0.04872,0.3094,0.39256
-16.5435,0,0,31.5435,31.5435,5,5,25.2306,0.807253,-24.716,-0.328814,-0.0575908,0.259893,1,0,14.035,0.0525,1.3825,-0.356362,-0.471164,-0.66002,-0.04872,0.3094,0.39256
-16.5551,0,0,31.5551,31.5551,5,5,25.2494,0.806025,-24.7131,-0.328793,-0.0572944,0.259753,1,0,14.035,0.0525,1.3825,-0.356362,-0.471164,-0.66002,-0.04872,0.3094,0.39256
-16.5454,0,0,31.5454,31.5454,5,5,25.2678,0.80444,-24.7105,-0.39376,0.322689,0.415638,1,0,13.86,-0.245,1.2425,-0.421632,-0.091866,-0.505202,-0.04858,0.31374,0.3934
-16.6115,0,0,31.6115,31.6115,5,5,25.2871,0.803591,-24.7079,0.779199,-0.3393,-0.563913,1,0,14.315,0.175,1.12,0.756278,-0.753472,-1.47705,-0.04858,0.31374,0.3934
-16.8215,0,0,31.8215,31.8215,5,5,25.3093,0.801453,-24.7068,0.779236,-0.33895,-0.564078,1,0,15.9775,-0.8925,0.63,0.756278,-0.753472,-1.47705,-0.04858,0.31374,0.3934
-16.7788,0,0,31.7788,31.7788,5,5,25.3307,0.800244,-24.7054,-0.199917,-0.0546677,-0.614769,1,0,15.505,-0.315,0.5775,-0.227042,-0.469822,-1.5272,-0.04858,0.31374,0.3934
-16.7831,0,0,31.7831,31.7831,5,5,25.3519,0.799987,-24.7045,-0.199913,-0.0543328,-0.614928,1,0,15.435,0.0525,0.0525,-0.227042,-0.469822,-1.5272,-0.04858,0.31374,0.3934
-11.6502,0,0,26.6502,26.6502,5,5,25.2966,1.1756,-24.963,0.245459,0.0473336,0.0544682,0,0,15.4,-0.56,-0.175,0.226798,-0.367342,-0.863272,-0.04858,0.31374,0.3934
-11.5663,0,0,26.5663,26.5663,5,5,25.2406,1.54252,-25.2193,0.239057,0.0463848,0.0547481,0,0,13.9475,-0.1575,-0.6125,0.226798,-0.367342,-0.863272,-0.04858,0.31374,0.3934
-16.5606,0,0,31.5606,31.5606,5,5,25.2593,1.54194,-25.2198,0.185492,-0.258881,-0.159813,1,0,14.035,-0.455,-0.5775,0.172996,-0.672586,-1.07604,-0.04858,0.31374,0.3934
-16.5722,0,0,31.5722,31.5722,5,5,25.278,1.54136,-25.2202,0.185502,-0.258585,-0.159952,1,0,14.035,-0.455,-0.5775,0.172996,-0.672586,-1.07604,-0.0469,0.31192,0.38668
-16.8466,0,0,31.8466,31.8466,5,5,25.3007,1.53922,-25.2228,-0.0875603,-0.206202,-0.165161,1,0,16.2575,-1.8025,-1.295,-0.10126,-0.620614,-1.08104,-0.0469,0.31192,0.38668
-16.8606,0,0,31.8606,31.8606,5,5,25.3233,1.53709,-25.2253,-0.0875231,-0.205845,-0.165329,1,0,16.2575,-1.8025,-1.295,-0.10126,-0.620614,-1.08104,-0.0469,0.31192,0.38668
-17.0216,0,0,32.0216,32.0216,5,5,25.3481,1.53639,-25.2278,-0.0776705,-0.426747,-0.0597779,1,0,17.4825,-1.0325,-1.6275,-0.091378,-0.841678,-0.976122,-0.0469,0.31192,0.38668
-16.8504,0,0,31.8504,31.8504,5,5,25.3701,1.53575,-25.2301,0.240876,-0.245041,-0.0596964,1,0,15.925,-0.945,-1.5225,0.228506,-0.660508,-0.975878,-0.0469,0.31192,0.38668
-16.8782,0,0,31.8782,31.8782,5,5,25.3924,1.53636,-25.2327,0.240865,-0.244691,-0.0598631,1,0,16.0475,-0.35,-1.9775,0.228506,-0.660508,-0.975878,-0.0469,0.31192,0.38668
-3.7504,0,0,18.7504,18.7504,11.2496,11.2496,25.2193,1.26208,-25.2049,-0.244301,0.206451,-0.104572,0,0,17.815,-0.6125,-1.8025,-0.26352,-0.207156,-1.02163,-0.0469,0.31192,0.38668
-4.33837,0,0,19.3384,19.3384,10.6616,10.6616,25.0564,0.994124,-25.1757,-0.239625,0.203918,-0.103282,0,0,22.2075,0,-1.7675,-0.26352,-0.207156,-1.02163,-0.0469,0.31192,0.38668
-17.0143,0,0,32.0143,32.0143,5,5,25.0835,0.994568,-25.178,-0.224568,0.0355665,0.184218,1,0,18.725,-0.3675,-1.8025,-0.248392,-0.37576,-0.736148,-0.05614,0.2821,0.35644
-16.8646,0,0,31.8646,31.8646,5,5,25.1081,0.994254,-25.1807,-0.224563,0.035955,0.184036,1,0,17.3425,-0.875,-1.8375,-0.248392,-0.37576,-0.736148,-0.05614,0.2821,0.35644
-16.8033,0,0,31.8033,31.8033,5,5,25.1315,0.992616,-25.1823,0.424564,-0.0211961,-0.371496,1,0,16.695,-1.3125,-0.945,0.403454,-0.433222,-1.28722,-0.05614,0.2821,0.35644
-23.8099,0,0,38.8099,38.8099,5,5,25.2589,0.663842,-25.0195,-0.195714,0.00515404,0.121763,0,0,16.205,-1.4525,-0.49,-0.225212,-0.408944,-0.796904,-0.05614,0.2821,0.35644
-23.5865,0,0,38.5865,38.5865,5,5,25.3818,0.343269,-24.8575,-0.19012,0.00711435,0.12089,0,0,15.82,-1.2075,0.1225,-0.225212,-0.408944,-0.796904,-0.05614,0.2821,0.35644
-17.0506,0,0,32.0506,32.0506,5,5,25.4065,0.340812,-24.8569,-0.187161,-0.074688,-0.172772,1,0,17.36,-1.19,0.4375,-0.222284,-0.49105,-1.08812,-0.05614,0.2821,0.35644
-17.0701,0,0,32.0701,32.0701,5,5,25.4312,0.338042,-24.8559,-0.187113,-0.0742981,-0.172957,1,0,17.395,-1.2425,0.7525,-0.222284,-0.49105,-1.08812,-0.05614,0.2821,0.35644
25.3461,0,0,5,5,40.3461,40.3461,24.8251,1.11186,-25.3817,0.426856,0.538656,0.0836695,0,0,17.29,-0.525,0.7875,0.407846,0.130906,-0.837774,-0.05614,0.2821,0.35644
25.5426,0,0,5,5,40.5426,40.5426,24.2216,1.87709,-25.9224,0.413505,0.52893,0.0877236,0,0,16.8875,-0.5075,1.1375,0.407846,0.130906,-0.837774,-0.06118,0.30254,0.38584
-16.348,0,0,31.348,31.348,5,5,24.2461,1.87614,-25.9201,0.0316923,0.294105,-0.600963,1,0,17.255,0,0.945,0.0244,-0.104066,-1.52097,-0.06118,0.30254,0.38584
-16.4589,0,0,31.4589,31.4589,5,5,24.2721,1.87376,-25.9183,0.0317339,0.294518,-0.601148,1,0,18.06,-0.8575,1.085,0.0244,-0.104066,-1.52097,-0.06118,0.30254,0.38584
-16.632,0,0,31.632,31.632,5,5,24.3004,1.87166,-25.9165,0.0617774,-0.0280563,-0.543195,1,0,19.3725,-0.735,0.945,0.054534,-0.426756,-1.46327,-0.06118,0.30254,0.38584
-16.6908,0,0,31.6908,31.6908,5,5,24.3293,1.86973,-25.915,0.0618111,-0.0275961,-0.543402,1,0,19.7225,-0.7,0.7875,0.054534,-0.426756,-1.46327,-0.06118,0.30254,0.38584
-16.8294,0,0,31.8294,31.8294,5,5,24.36,1.86893,-25.913,0.446692,-0.420478,0.0805869,1,0,20.72,0.035,0.805,0.44103,-0.819718,-0.843874,-0.06118,0.30254,0.38584
-16.7795,0,0,31.7795,31.7795,5,5,24.3897,1.86749,-25.9116,0.446717,-0.420006,0.0803738,1,0,20.16,-0.4725,0.595,0.44103,-0.819718,-0.843874,-0.06118,0.30254,0.38584
-16.7944,0,0,31.7944,31.7944,5,5,24.4194,1.86521,-25.9108,-0.24146,0.114648,-0.157498,1,0,20.1425,-1.05,0.5075,-0.2501,-0.28609,-1.0797,-0.06118,0.30254,0.38584
-16.7925,0,0,31.7925,31.7925,5,5,24.4487,1.86196,-25.9105,-0.241403,0.115115,-0.157708,1,0,19.985,-1.6975,0.455,-0.2501,-0.28609,-1.0797,-0.04998,0.30338,0.38878
-16.7877,0,0,31.7877,31.7877,5,5,24.4777,1.8588,-25.9101,-0.15485,0.338702,0.337689,1,0,19.7925,-1.61,0.525,-0.163236,-0.063196,-0.587918,-0.04998,0.30338,0.38878
-16.8395,0,0,31.8395,31.8395,5,5,24.5072,1.85717,-25.9084,-0.154822,0.339171,0.337477,1,0,20.055,-0.5075,0.77,-0.163236,-0.063196,-0.587918,-0.04998,0.30338,0.38878
-16.9544,0,0,31.9544,31.9544,5,5,24.5382,1.8554,-25.9067,-0.496287,-0.490921,0.0528735,1,0,20.86,-0.56,0.8575,-0.506178,-0.892918,-0.870104,-0.04998,0.30338,0.38878
-17.0789,0,0,32.0789,32.0789,5,5,24.5707,1.85426,-25.9047,-0.496267,-0.490405,0.0526383,1,0,21.735,-0.1575,0.8575,-0.506178,-0.892918,-0.870104,-0.04998,0.30338,0.38878
-17.2352,0,0,32.2352,32.2352,5,5,24.6053,1.85267,-25.9038,0.329985,-0.341717,0.128739,1,0,22.89,-0.6475,0.42,0.323544,-0.744932,-0.794342,-0.04998,0.30338,0.38878
-17.2563,0,0,32.2563,32.2563,5,5,24.6398,1.85107,-25.9028,0.330013,-0.341169,0.128489,1,0,22.89,-0.6475,0.42,0.323544,-0.744932,-0.794342,-0.04998,0.30338,0.38878
-17.1842,0,0,32.1842,32.1842,5,5,24.673,1.84985,-25.9032,-0.146554,0.140659,-0.30576,1,0,22.1375,-0.77,-0.3675,-0.155062,-0.26413,-1.225,-0.04998,0.30338,0.38878
-17.2045,0,0,32.2045,32.2045,5,5,24.7062,1.84863,-25.9035,-0.146533,0.141185,-0.306001,1,0,22.1375,-0.77,-0.3675,-0.155062,-0.26413,-1.225,-0.0504,0.30814,0.38612
-31.5369,0,0,46.5369,46.5369,5,5,24.9521,1.03607,-25.5079,-0.518923,0.0185838,0.226732,0,0,23.905,-1.0325,-0.595,-0.543266,-0.390644,-0.694912,-0.0504,0.30814,0.38612
-31.1663,0,0,46.1663,46.1663,5,5,25.1903,0.239256,-25.1168,-0.505017,0.0224151,0.225111,0,0,23.905,-1.0325,-0.595,-0.543266,-0.390644,-0.694912,-0.0504,0.30814,0.38612
-47.0096,0,0,62.0096,62.0096,5,5,25.6619,0.272841,-25.0835,0.0964795,-0.344226,0.234607,0,0,29.0325,-0.525,-1.295,0.061366,-0.76433,-0.68198,-0.0504,0.30814,0.38612
-46.7331,0,0,61.7331,61.7331,5,5,26.1252,0.30788,-25.0509,0.095868,-0.336953,0.231073,0,0,29.0325,-0.525,-1.295,0.061366,-0.76433,-0.68198,-0.0504,0.30814,0.38612
-41.605,0,0,56.605,56.605,5,5,26.5082,0.104381,-24.9212,-0.0971442,-0.301158,0.0986568,0,0,28.7175,-0.9275,-1.2775,-0.13603,-0.734562,-0.810446,-0.0504,0.30814,0.38612
-41.2931,0,0,56.2931,56.2931,5,5,26.883,-0.0925172,-24.7949,-0.0937077,-0.295313,0.0957178,0,0,28.7175,-0.9275,-1.2775,-0.13603,-0.734562,-0.810446,-0.0504,0.30814,0.38612
-24.0908,0,0,39.0908,39.0908,5,5,26.9988,-0.0983649,-24.8076,0.00965724,-0.0906587,-0.0109336,0,0,24.4125,-0.735,-0.315,-0.03233,-0.53192,-0.915366,-0.0504,0.30814,0.38612
11.9961,0,0,5,5,26.9961,26.9961,26.5771,-0.0722032,-24.9374,-0.0568876,0.42352,-0.198063,0,0,25.2175,-1.0675,0.5425,-0.098698,-0.011712,-1.10434,-0.04998,0.30184,0.37142
-46.43,0,0,61.43,61.43,5,5,27.0277,-0.0580899,-24.8878,0.0775937,-0.302343,0.243096,0,0,29.2425,-2.1175,1.5925,0.0366,-0.743834,-0.66307,-0.04998,0.30184,0.37142
-46.5298,0,0,61.5298,61.5298,5,5,27.4758,-0.041586,-24.8391,0.0773057,-0.295391,0.239515,0,0,32.3575,-1.715,1.54,0.0366,-0.743834,-0.66307,-0.04998,0.30184,0.37142
-20.2685,0,0,35.2685,35.2685,5,5,27.5294,-0.0443358,-24.8368,0.164337,-0.105386,-0.273367,1,0,33.6175,-0.84,1.4525,0.123952,-0.554856,-1.17157,-0.04998,0.30184,0.37142
-20.1374,0,0,35.1374,35.1374,5,5,27.5806,-0.047219,-24.8347,0.164388,-0.104594,-0.27378,1,0,32.2525,-0.945,1.4175,0.123952,-0.554856,-1.17157,-0.04998,0.30184,0.37142
-19.8662,0,0,34.8662,34.8662,5,5,27.6274,-0.0490259,-24.8322,-0.096289,-0.243218,0.0356721,1,0,29.7325,-0.315,1.26,-0.13786,-0.694058,-0.864126,-0.04998,0.30184,0.37142
-19.9555,0,0,34.9555,34.9555,5,5,27.675,-0.0516412,-24.8303,-0.0962434,-0.242481,0.0352863,1,0,30.24,-0.8575,1.2425,-0.13786,-0.694058,-0.864126,-0.04998,0.30184,0.37142
-3.82782,0,0,18.8278,18.8278,11.1722,11.1722,27.4824,0.0857803,-24.9649,0.0649994,0.173068,-0.150655,0,0,30.94,-0.6475,1.085,0.026474,-0.275964,-1.05018,-0.04998,0.30184,0.37142
-4.52303,0,0,19.523,19.523,10.477,10.477,27.3019,0.214476,-25.0706,0.0627533,0.170268,-0.149211,0,0,34.3,-1.0325,0.4375,0.026474,-0.275964,-1.05018,-0.05726,0.28672,0.37744
-29.4521,0,0,44.4521,44.4521,5,5,27.4936,0.577988,-25.2052,0.291119,-0.168371,0.0861327,0,0,36.4875,-1.19,-0.105,0.262178,-0.617198,-0.815082,-0.05726,0.28672,0.37744
-29.4502,0,0,44.4502,44.4502,5,5,27.6836,0.934355,-25.3368,0.2849,-0.165471,0.0845247,0,0,36.75,-0.6475,-0.5075,0.262178,-0.617198,-0.815082,-0.05726,0.28672,0.37744
-20.8045,0,0,35.8045,35.8045,5,5,27.7433,0.92877,-25.3306,-0.0132499,0.0511285,0.360922,1,0,36.96,-1.2425,4.235,-0.037332,-0.401746,-0.540338,-0.05726,0.28672,0.37744
-20.2946,0,0,35.2946,35.2946,5,5,27.7949,0.924731,-25.3303,-0.0131794,0.0519258,0.360503,1,0,32.4625,-2.0475,0.77,-0.037332,-0.401746,-0.540338,-0.05726,0.28672,0.37744
-20.1866,0,0,35.1866,35.1866,5,5,27.8444,0.921347,-25.3289,-0.0342588,0.222447,-0.525621,1,0,31.29,-1.4,1.1725,-0.05856,-0.232166,-1.41923,-0.05726,0.28672,0.37744
-20.466,0,0,35.466,35.466,5,5,27.8976,0.919183,-25.326,-0.0342211,0.223268,-0.526054,1,0,33.355,-0.3675,1.5925,-0.05856,-0.232166,-1.41923,-0.05726,0.28672,0.37744
-20.672,0,0,35.672,35.672,5,5,27.9535,0.914276,-25.3237,-0.193403,0.123009,-0.572492,1,0,34.8075,-1.9425,2.0475,-0.218502,-0.333182,-1.46485,-0.05726,0.28672,0.37744
-21.4073,0,0,36.4073,36.4073,5,5,28.0197,0.910489,-25.3214,-0.193337,0.12403,-0.573033,1,0,40.6525,-1.3475,1.7675,-0.218502,-0.333182,-1.46485,-0.06006,0.26698,0.3934
-34.8841,0,0,49.8841,49.8841,5,5,28.2857,0.639638,-25.1103,-0.157267,-0.108407,0.104246,0,0,41.37,-0.9975,1.2425,-0.187026,-0.569496,-0.790682,-0.06006,0.26698,0.3934
-34.6236,0,0,49.6236,49.6236,5,5,28.5454,0.376152,-24.9028,-0.152668,-0.1044,0.102125,0,0,41.37,-0.9975,1.2425,-0.187026,-0.569496,-0.790682,-0.06006,0.26698,0.3934
-21.6987,0,0,36.6987,36.6987,5,5,28.6107,0.375124,-24.9016,-0.295882,-0.456712,-0.180956,1,0,40.1275,-0.2275,0.42,-0.330864,-0.922442,-1.07104,-0.06006,0.26698,0.3934
-21.7383,0,0,36.7383,36.7383,5,5,28.676,0.374094,-24.9004,-0.295864,-0.455712,-0.181502,1,0,40.1275,-0.2275,0.42,-0.330864,-0.922442,-1.07104,-0.06006,0.26698,0.3934
-21.5005,0,0,36.5005,36.5005,5,5,28.7371,0.372178,-24.8998,0.0483382,0.298868,0.468752,1,0,37.8175,-0.8575,0.35,0.014762,-0.16958,-0.425292,-0.06006,0.26698,0.3934
-21.5376,0,0,36.5376,36.5376,5,5,28.7983,0.370261,-24.8993,0.0483717,0.299804,0.468239,1,0,37.8175,-0.8575,0.35,0.014762,-0.16958,-0.425292,-0.06006,0.26698,0.3934
-22.0634,0,0,37.0634,37.0634,5,5,28.8667,0.368919,-24.9,0.0927374,0.380843,-0.523056,1,0,41.895,-0.9275,-0.4725,0.059292,-0.08967,-1.40837,-0.06006,0.26698,0.3934
-22.6986,0,0,37.6986,37.6986,5,5,28.9439,0.365113,-24.9019,0.0928038,0.382023,-0.523707,1,0,46.8475,-2.5375,-0.4025,0.059292,-0.08967,-1.40837,-0.05222,0.29736,0.39144
-22.8199,0,0,37.8199,37.8199,5,5,29.0223,0.362924,-24.9013,0.710597,0.212242,-0.255604,1,0,47.46,-0.98,0.455,0.679662,-0.26047,-1.14168,-0.05222,0.29736,0.39144
-22.4217,0,0,37.4217,37.4217,5,5,29.094,0.356694,-24.9019,0.710705,0.213336,-0.256212,1,0,43.75,-3.395,0.98,0.679662,-0.26047,-1.14168,-0.05222,0.29736,0.39144
-22.2625,0,0,37.2625,37.2625,5,5,29.1627,0.350748,-24.9003,0.763777,0.371561,-0.0692982,1,0,42.0525,-2.6075,2.0475,0.732854,-0.103456,-0.955626,-0.05222,0.29736,0.39144
-22.0568,0,0,37.0568,37.0568,5,5,29.2278,0.344753,-24.8976,0.763882,0.372553,-0.0698513,1,0,39.9875,-2.345,2.5725,0.732854,-0.103456,-0.955626,-0.05222,0.29736,0.39144
-22.2845,0,0,37.2845,37.2845,5,5,29.2956,0.337697,-24.8967,-0.166819,0.473485,-0.445422,1,0,41.5625,-3.36,2.03,-0.20191,-0.00366,-1.32773,-0.05222,0.29736,0.39144
-22.8824,0,0,37.8824,37.8824,5,5,29.3717,0.333082,-24.8947,-0.166738,0.474644,-0.446073,1,0,46.2,-1.8375,1.82,-0.20191,-0.00366,-1.32773,-0.05222,0.29736,0.39144
-23.6354,0,0,38.6354,38.6354,5,5,29.4583,0.326432,-24.8947,0.0774428,-0.0223163,-0.124566,1,0,52.0975,-3.4125,1.4525,0.043188,-0.50142,-1.00796,-0.05222,0.29736,0.39144
-23.9086,0,0,38.9086,38.9086,5,5,29.5482,0.322847,-24.8939,0.0775054,-0.0209505,-0.125339,1,0,53.935,-1.6275,0.9625,0.043188,-0.50142,-1.00796,-0.05222,0.29736,0.39144
-24.1408,0,0,39.1408,39.1408,5,5,29.6408,0.316764,-24.8947,0.250121,0.0780335,0.188612,1,0,55.4225,-3.36,0.875,0.216428,-0.403942,-0.695644,-0.05614,0.29316,0.39984
-23.6769,0,0,38.6769,38.6769,5,5,29.7256,0.314515,-24.8931,-0.332485,0.0631989,-0.123057,1,0,51.0825,-0.735,0.945,-0.368684,-0.420046,-1.00418,-0.05614,0.29316,0.39984
-23.136,0,0,38.136,38.136,5,5,29.8016,0.313033,-24.8922,-0.332459,0.0643506,-0.123716,1,0,46.1475,-0.5075,0.4375,-0.368684,-0.420046,-1.00418,-0.05614,0.29316,0.39984
-23.018,0,0,38.018,38.018,5,5,29.8752,0.311881,-24.8919,-0.217149,0.315214,0.281006,1,0,44.7825,-0.525,0.0175,-0.252906,-0.170556,-0.601948,-0.05614,0.29316,0.39984
-24.0279,0,0,39.0279,39.0279,5,5,29.9631,0.305456,-24.8932,-0.217037,0.316544,0.280242,1,0,52.8325,-3.675,0.735,-0.252906,-0.170556,-0.601948,-0.05614,0.29316,0.39984
-24.3168,0,0,39.3168,39.3168,5,5,30.0545,0.301118,-24.8929,-0.0303591,0.0399654,0.530751,1,0,54.7925,-2.1525,0.9275,-0.065514,-0.448228,-0.35258,-0.05614,0.29316,0.39984
-25.1786,0,0,40.1786,40.1786,5,5,30.1579,0.29528,-24.892,-0.0302572,0.0415271,0.529846,1,0,61.5125,-2.73,1.68,-0.065514,-0.448228,-0.35258,-0.05614,0.29316,0.39984
-25.1852,0,0,40.1852,40.1852,5,5,30.2605,0.291447,-24.8888,-0.00990223,-0.292041,0.00924191,1,0,61.04,-1.0325,2.2575,-0.04514,-0.782996,-0.868274,-0.05614,0.29316,0.39984
-24.7826,0,0,39.7826,39.7826,5,5,30.3562,0.284172,-24.8871,-0.00977527,-0.290599,0.00839975,1,0,57.1725,-3.22,2.5025,-0.04514,-0.782996,-0.868274,-0.06062,0.27496,0.38598
-24.364,0,0,39.364,39.364,5,5,30.4448,0.278555,-24.8851,-0.0788026,0.204371,0.193639,1,0,53.2,-2.2575,2.2225,-0.114558,-0.289872,-0.683688,-0.06062,0.27496,0.38598
-24.4128,0,0,39.4128,39.4128,5,5,30.5333,0.272035,-24.8849,-0.0786888,0.205703,0.192855,1,0,53.165,-3.2725,1.54,-0.114558,-0.289872,-0.683688,-0.06062,0.27496,0.38598
-24.9053,0,0,39.9053,39.9053,5,5,30.6283,0.268163,-24.8843,0.0564709,-0.141052,-0.228472,1,0,56.8225,-1.8025,0.98,0.021106,-0.637694,-1.10093,-0.06062,0.27496,0.38598
-25.7797,0,0,40.7797,40.7797,5,5,30.7355,0.264338,-24.8832,0.0565376,-0.139443,-0.229427,1,0,63.63,-1.645,1.19,0.021106,-0.637694,-1.10093,-0.06062,0.27496,0.38598
-26.3527,0,0,41.3527,41.3527,5,5,30.8503,0.261049,-24.8817,0.20177,-0.0529669,-0.332622,1,0,67.865,-1.225,1.2775,0.166896,-0.553026,-1.20231,-0.06062,0.27496,0.38598
-26.6965,0,0,41.6965,41.6965,5,5,30.9691,0.256442,-24.8822,0.201851,-0.0511873,-0.333687,1,0,70.1575,-2.5025,0.6475,0.166896,-0.553026,-1.20231,-0.06062,0.27496,0.38598
-26.3313,0,0,41.3313,41.3313,5,5,31.0815,0.252262,-24.8834,0.0255266,0.531694,-0.301501,1,0,66.5175,-2.485,0.1925,-0.010248,0.027572,-1.16937,-0.06062,0.27496,0.38598
-26.2411,0,0,41.2411,41.2411,5,5,31.1914,0.244356,-24.8865,0.0256646,0.533337,-0.302493,1,0,65.205,-4.9525,0.3325,-0.010248,0.027572,-1.16937,-0.0546,0.2723,0.40152
-26.195,0,0,41.195,41.195,5,5,31.2997,0.237191,-24.8869,0.197692,1.57205,-0.677974,1,0,64.26,-3.745,1.4875,0.162382,1.0636,-1.54098,-0.0546,0.2723,0.40152
-26.3678,0,0,41.3678,41.3678,5,5,31.4096,0.227215,-24.8865,0.197866,1.57369,-0.678972,1,0,65.1525,-4.8825,2.7825,0.162382,1.0636,-1.54098,-0.0546,0.2723,0.40152
-26.8105,0,0,41.8105,41.8105,5,5,31.5251,0.218133,-24.8844,-0.124034,-0.0675588,-0.319784,1,0,68.285,-3.955,3.29,-0.16104,-0.57767,-1.18352,-0.0546,0.2723,0.40152
-27.0636,0,0,42.0636,42.0636,5,5,31.6434,0.212069,-24.8796,-0.123928,-0.0658008,-0.320865,1,0,69.8075,-1.575,3.78,-0.16104,-0.57767,-1.18352,-0.0546,0.2723,0.40152
-63.4008,0,0,78.4008,78.4008,5,5,32.3007,0.265041,-24.7316,0.107306,-0.372379,0.406691,0,0,71.1025,-1.9775,3.535,0.072102,-0.89365,-0.455548,-0.0546,0.2723,0.40152
-62.8272,0,0,77.8272,77.8272,5,5,32.9437,0.319182,-24.5863,0.106361,-0.36293,0.400637,0,0,68.845,-2.03,3.3075,0.072102,-0.89365,-0.455548,-0.0546,0.2723,0.40152
-29.8937,0,0,44.8937,44.8937,5,5,33.0913,0.764644,-24.7099,0.309729,-0.0574468,0.094997,0,0,69.65,-2.415,3.1325,0.284138,-0.590602,-0.757376,-0.0546,0.2723,0.40152
-30.1548,0,0,45.1548,45.1548,5,5,33.2415,1.19591,-24.8393,0.302203,-0.0553235,0.0934555,0,0,71.0675,-3.15,3.115,0.284138,-0.590602,-0.757376,-0.05082,0.27874,0.4179
-28.6689,0,0,43.6689,43.6689,5,5,33.3682,1.18724,-24.837,0.237846,0.0648674,0.145972,1,0,74.5675,-3.5525,3.395,0.219356,-0.472384,-0.704062,-0.05082,0.27874,0.4179
-29.5921,0,0,44.5921,44.5921,5,5,33.5076,1.18122,-24.8329,0.237951,0.0668974,0.144634,1,0,81.6025,-1.645,3.465,0.219356,-0.472384,-0.704062,-0.05082,0.27874,0.4179
-29.7629,0,0,44.7629,44.7629,5,5,33.6482,1.1755,-24.8313,-0.13977,0.492967,-0.420809,1,0,82.355,-2.3275,2.1175,-0.160064,-0.0488,-1.2638,-0.05082,0.27874,0.4179
-29.8613,0,0,44.8613,44.8613,5,5,33.789,1.16941,-24.8322,-0.139664,0.495012,-0.422171,1,0,82.495,-3.2725,1.085,-0.160064,-0.0488,-1.2638,-0.05082,0.27874,0.4179
-30.1301,0,0,45.1301,45.1301,5,5,33.9326,1.1609,-24.8338,0.964304,0.60481,-0.232871,1,0,84.035,-4.69,1.5225,0.948428,0.058804,-1.07458,-0.05082,0.27874,0.4179
-29.7489,0,0,44.7489,44.7489,5,5,34.0692,1.15195,-24.8335,0.96446,0.606787,-0.234201,1,0,80.115,-4.305,2.555,0.948428,0.058804,-1.07458,-0.05082,0.27874,0.4179
-29.8929,0,0,44.8929,44.8929,5,5,34.2067,1.14236,-24.8328,0.882624,0.24154,0.277642,1,0,80.6225,-4.4275,3.0275,0.866078,-0.30805,-0.565348,-0.05082,0.27874,0.4179
-29.4039,0,0,44.4039,44.4039,5,5,34.3357,1.1389,-24.828,0.882685,0.243401,0.276375,1,0,75.81,-0.14,2.9575,0.866078,-0.30805,-0.565348,-0.0525,0.27314,0.42924
-29.2513,0,0,44.2513,44.2513,5,5,34.4613,1.13472,-24.8245,-0.310839,0.00462047,-0.138706,1,0,73.9025,-0.875,2.6075,-0.332572,-0.54839,-0.976,-0.0525,0.27314,0.42924
-29.861,0,0,44.861,44.861,5,5,34.5948,1.12696,-24.8252,-0.310704,0.00654143,-0.140025,1,0,78.4,-4.0425,1.715,-0.332572,-0.54839,-0.976,-0.0525,0.27314,0.42924
-30.3591,0,0,45.3591,45.3591,5,5,34.7345,1.11699,-24.8263,0.428103,-0.324857,-0.310709,1,0,81.8825,-5.1975,2.31,0.409188,-0.88145,-1.14399,-0.0525,0.27314,0.42924
-31.8886,0,0,46.8886,46.8886,5,5,34.8957,1.1077,-24.827,0.428265,-0.322546,-0.312312,1,0,93.9225,-4.725,2.2925,0.409188,-0.88145,-1.14399,-0.0525,0.27314,0.42924
-32.3325,0,0,47.3325,47.3325,5,5,35.0621,1.09671,-24.8291,0.593192,0.359836,-0.233442,1,0,96.8275,-6.02,2.1875,0.57462,-0.202154,-1.06408,-0.0525,0.27314,0.42924
-32.3571,0,0,47.3571,47.3571,5,5,35.2273,1.09355,-24.8264,0.593247,0.362195,-0.235101,1,0,96.145,-0.6475,1.855,0.57462,-0.202154,-1.06408,-0.0525,0.27314,0.42924
-32.1442,0,0,47.1442,47.1442,5,5,35.3879,1.08876,-24.8269,-0.265088,0.566724,0.127946,1,0,93.5725,-2.4675,0.9275,-0.287432,-0.000122,-0.702232,-0.0525,0.27314,0.42924
-31.6794,0,0,46.6794,46.6794,5,5,35.5401,1.08397,-24.8297,-0.265004,0.568889,0.126406,1,0,88.9175,-3.29,-0.21,-0.287432,-0.000122,-0.702232,-0.0525,0.27314,0.42924
-32.197,0,0,47.197,47.197,5,5,35.6987,1.07563,-24.8331,-0.0420536,0.0446516,-0.289294,1,0,92.47,-5.145,0.77,-0.063684,-0.526064,-1.11313,-0.05614,0.25872,0.43204
-32.6903,0,0,47.6903,47.6903,5,5,35.8632,1.06688,-24.8308,-0.0419009,0.0469817,-0.29097,1,0,95.725,-3.395,3.605,-0.063684,-0.526064,-1.11313,-0.05614,0.25872,0.43204
-36.1592,0,0,51.1592,51.1592,5,5,36.0777,2.24901,-25.2247,0.86016,0.0345168,0.505514,0,0,99.9075,-4.445,4.1125,0.862906,-0.541192,-0.320128,-0.05614,0.25872,0.43204
-36.2214,0,0,51.2214,51.2214,5,5,36.2913,3.41162,-25.6072,0.839894,0.03693,0.502507,0,0,99.9075,-4.445,4.1125,0.862906,-0.541192,-0.320128,-0.05614,0.25872,0.43204
-32.5155,0,0,47.5155,47.5155,5,5,36.4479,3.40031,-25.6103,0.0241928,-0.719029,0.676593,1,0,91.42,-6.4575,1.96,0.043554,-1.29857,-0.14579,-0.05614,0.25872,0.43204
-32.6099,0,0,47.6099,47.6099,5,5,36.6044,3.38901,-25.6135,0.0243896,-0.71683,0.674978,1,0,91.42,-6.4575,1.96,0.043554,-1.29857,-0.14579,-0.05614,0.25872,0.43204
-33.28,0,0,48.28,48.28,5,5,36.7696,3.37497,-25.6129,0.325676,0.603111,-0.855102,1,0,96.0925,-6.4225,4.69,0.34587,0.01769,-1.66237,-0.05614,0.25872,0.43204
-33.3795,0,0,48.3795,48.3795,5,5,36.9347,3.36093,-25.6124,0.32592,0.605421,-0.856816,1,0,96.0925,-6.4225,4.69,0.34587,0.01769,-1.66237,-0.05614,0.25872,0.43204
-35.6539,0,0,50.6539,50.6539,5,5,37.1321,3.35393,-25.6071,0.866168,0.390298,0.214213,1,0,114.065,-1.47,4.41,0.888282,-0.199958,-0.597556,-0.0532,0.25998,0.43792
-35.3526,0,0,50.3526,50.3526,5,5,37.3233,3.34908,-25.6031,-0.67613,0.41115,0.376337,1,0,110.6,-0.8575,3.115,-0.66063,-0.18178,-0.434686,-0.0532,0.25998,0.43792
-35.0666,0,0,50.0666,50.0666,5,5,37.5086,3.34421,-25.6034,-0.676045,0.413717,0.37438,1,0,107.398,-2.3975,1.12,-0.66063,-0.18178,-0.434686,-0.0532,0.25998,0.43792
-35.3372,0,0,50.3372,50.3372,5,5,37.6962,3.33536,-25.6038,-0.551004,-0.092468,0.746525,1,0,108.728,-4.305,2.4675,-0.535214,-0.690032,-0.06344,-0.0532,0.25998,0.43792
-35.9744,0,0,50.9744,50.9744,5,5,37.8916,3.32345,-25.6002,-0.550796,-0.0897703,0.744448,1,0,112.963,-4.235,5.46,-0.535214,-0.690032,-0.06344,-0.0532,0.25998,0.43792
-56.9647,0,0,71.9647,71.9647,5,5,38.3973,3.47385,-25.4922,0.150593,-0.24158,0.238238,0,0,113.96,-6.58,6.0025,0.171776,-0.84851,-0.560224,-0.0532,0.25998,0.43792
-56.7329,0,0,71.7329,71.7329,5,5,38.895,3.62215,-25.385,0.14801,-0.234909,0.232698,0,0,113.96,-6.58,6.0025,0.171776,-0.84851,-0.560224,-0.0532,0.25998,0.43792
-35.6464,0,0,50.6464,50.6464,5,5,39.0748,3.60991,-25.3879,0.232412,-0.676396,0.719336,1,0,104.44,-6.6675,2.7125,0.256322,-1.29198,-0.075396,-0.0532,0.25998,0.43792
-35.7548,0,0,50.7548,50.7548,5,5,39.2546,3.59768,-25.3908,0.232626,-0.67396,0.717368,1,0,104.44,-6.6675,2.7125,0.256322,-1.29198,-0.075396,-0.05642,0.24682,0.44324
-37.4647,0,0,52.4647,52.4647,5,5,39.4582,3.58256,-25.3909,1.42515,1.00901,-1.0718,1,0,117.688,-6.9125,5.075,1.45363,0.386496,-1.84854,-0.05642,0.24682,0.44324
-37.5872,0,0,52.5872,52.5872,5,5,39.6618,3.56745,-25.3911,1.42541,1.01176,-1.07405,1,0,117.688,-6.9125,5.075,1.45363,0.386496,-1.84854,-0.05642,0.24682,0.44324
-39.2897,0,0,54.2897,54.2897,5,5,39.8889,3.56215,-25.3825,1.1654,1.61359,-0.934568,1,0,130.55,0.7875,5.3375,1.19243,0.984662,-1.70763,-0.05642,0.24682,0.44324
-39.4264,0,0,54.4264,54.4264,5,5,40.1159,3.55681,-25.3739,1.1655,1.61662,-0.937107,1,0,130.55,0.7875,5.3375,1.19243,0.984662,-1.70763,-0.05642,0.24682,0.44324
-38.906,0,0,53.906,53.906,5,5,40.3332,3.55411,-25.3734,0.287446,2.02778,-0.348535,1,0,125.353,-1.05,0.77,0.310612,1.39251,-1.12118,-0.05642,0.24682,0.44324
-39.2409,0,0,54.2409,54.2409,5,5,40.5536,3.54605,-25.3734,1.50159,0.118206,-0.885476,1,0,127.068,-3.605,2.59,1.52976,-0.518012,-1.65151,-0.05642,0.24682,0.44324
-40.4911,0,0,55.4911,55.4911,5,5,40.7905,3.53175,-25.3712,1.50184,0.121347,-0.888154,1,0,136.308,-5.565,5.915,1.52976,-0.518012,-1.65151,-0.05642,0.24682,0.44324
-40.7763,0,0,55.7763,55.7763,5,5,41.0296,3.5141,-25.3716,0.761086,-0.295731,0.0903846,1,0,137.585,-8.015,6.0725,0.785558,-0.937814,-0.677832,-0.056,0.23604,0.45682
-39.1162,0,0,54.1162,54.1162,5,5,41.2419,3.51096,-25.3676,0.761141,-0.292944,0.0879547,1,0,122.395,0.1225,2.485,0.785558,-0.937814,-0.677832,-0.056,0.23604,0.45682
-38.7819,0,0,53.7819,53.7819,5,5,41.4472,3.49593,-25.375,0.728116,1.09809,-0.448362,1,0,118.93,-9.4675,2.1175,0.75213,0.449082,-1.20768,-0.056,0.23604,0.45682
-40.4095,0,0,55.4095,55.4095,5,5,41.675,3.47744,-25.3796,0.221235,-0.574142,-0.190206,1,0,131.373,-9.9575,4.6375,0.24278,-1.22439,-0.948916,-0.056,0.23604,0.45682
-41.6043,0,0,56.6043,56.6043,5,5,41.9184,3.46197,-25.3783,0.221505,-0.570969,-0.19302,1,0,139.983,-6.2825,6.1075,0.24278,-1.22439,-0.948916,-0.056,0.23604,0.45682
-42.4545,0,0,57.4545,57.4545,5,5,42.1723,3.43569,-25.3863,-0.253775,-0.284942,-2.04412,1,0,146.16,-14.595,6.335,-0.234972,-0.941962,-2.78282,-0.056,0.23604,0.45682
-41.6205,0,0,56.6205,56.6205,5,5,42.4116,3.43067,-25.3761,-0.253688,-0.281855,-2.04692,1,0,137.323,1.8025,5.88,-0.234972,-0.941962,-2.78282,-0.056,0.23604,0.45682
-42.1467,0,0,57.1467,57.1467,5,5,42.6565,3.42161,-25.3764,2.19501,0.158143,-1.41895,1,0,140.858,-4.06,2.975,2.22394,-0.505568,-2.15684,-0.056,0.23604,0.45682
-42.9784,0,0,57.9784,57.9784,5,5,42.9116,3.41445,-25.3784,2.19514,0.161409,-1.42197,1,0,146.615,-3.885,1.5225,2.22394,-0.505568,-2.15684,-0.05306,0.22988,0.4676
-43.762,0,0,58.762,58.762,5,5,43.176,3.40458,-25.3782,0.865771,1.81325,-0.260536,1,0,151.795,-4.2,3.5175,0.88877,1.14119,-1.00125,-0.05306,0.22988,0.4676
-45.6365,0,0,60.6365,60.6365,5,5,43.466,3.38278,-25.3792,0.866151,1.81694,-0.263986,1,0,166.128,-9.7125,7.84,0.88877,1.14119,-1.00125,-0.05306,0.22988,0.4676
-45.3722,0,0,60.3722,60.3722,5,5,43.7494,3.36625,-25.3765,-0.498088,-0.285547,-0.207503,1,0,162.348,-5.95,7.315,-0.481534,-0.962702,-0.94184,-0.05306,0.22988,0.4676
-42.6071,0,0,57.6071,57.6071,5,5,43.9892,3.35854,-25.3739,-0.497954,-0.28253,-0.210393,1,0,137.883,-2.24,3.7275,-0.481534,-0.962702,-0.94184,-0.05306,0.22988,0.4676
-42.867,0,0,57.867,57.867,5,5,44.2307,3.34172,-25.3804,-1.02758,1.11507,-0.341544,1,0,139.143,-9.7475,3.64,-1.0137,0.430416,-1.06909,-0.05306,0.22988,0.4676
-44.6506,0,0,59.6506,59.6506,5,5,44.4965,3.32409,-25.3793,-1.02727,1.11839,-0.34477,1,0,152.548,-6.9825,7.1575,-1.0137,0.430416,-1.06909,-0.05306,0.22988,0.4676
-46.1783,0,0,61.1783,61.1783,5,5,44.7827,3.31019,-25.3732,-1.39416,1.22503,0.407377,1,0,163.783,-3.325,7.7525,-1.38238,0.533384,-0.319274,-0.05306,0.22988,0.4676
-47.3581,0,0,62.3581,62.3581,5,5,45.0839,3.28902,-25.3791,-1.39379,1.22876,0.403686,1,0,172.568,-11.2525,5.81,-1.38238,0.533384,-0.319274,-0.0532,0.21938,0.48076
-46.309,0,0,61.309,61.309,5,5,45.3667,3.2826,-25.3687,-3.12048,-0.67661,2.0734,1,0,161.788,1.6275,6.44,-3.11649,-1.37348,1.34102,-0.0532,0.21938,0.48076
-46.0394,0,0,61.0394,61.0394,5,5,45.643,3.27118,-25.369,-3.12028,-0.673227,2.06997,1,0,158.463,-4.83,4.165,-3.11649,-1.37348,1.34102,-0.0532,0.21938,0.48076
-46.2996,0,0,61.2996,61.2996,5,5,45.9208,3.25612,-25.3623,-2.37895,1.60135,-0.490446,1,0,159.023,-3.395,8.5225,-2.37229,0.895358,-1.19621,-0.0532,0.21938,0.48076
-49.1326,0,0,64.1326,64.1326,5,5,46.2381,3.23669,-25.3586,-2.37862,1.6052,-0.494416,1,0,181.335,-6.37,9.1875,-2.37229,0.895358,-1.19621,-0.0532,0.21938,0.48076
-51.1522,0,0,66.1522,66.1522,5,5,46.5826,3.2052,-25.3572,-0.0357017,-0.33563,1.37807,1,0,196.648,-12.145,13.405,-0.020008,-1.04761,0.66612,-0.0532,0.21938,0.48076
-48.6711,0,0,63.6711,63.6711,5,5,46.8872,3.19713,-25.3482,-0.035561,-0.331987,1.37421,1,0,174.003,0.56,6.545,-0.020008,-1.04761,0.66612,-0.0532,0.21938,0.48076
-47.6574,0,0,62.6574,62.6574,5,5,47.1739,3.18887,-25.3415,1.94444,-1.20593,1.19978,1,0,164.098,-0.4725,5.705,1.96823,-1.92406,0.496662,-0.0532,0.21938,0.48076
-47.8299,0,0,62.8299,62.8299,5,5,47.4607,3.18057,-25.3349,1.94458,-1.20254,1.19611,1,0,164.098,-0.4725,5.705,1.96823,-1.92406,0.496662,-0.06006,0.19698,0.4788
-48.8467,0,0,63.8467,63.8467,5,5,47.76,3.15657,-25.3401,3.24307,0.251371,-0.389703,1,0,171.5,-11.76,7.8225,3.2718,-0.47519,-1.07311,-0.06006,0.19698,0.4788
-49.0266,0,0,64.0266,64.0266,5,5,48.0593,3.13259,-25.3454,3.24349,0.254884,-0.393558,1,0,171.5,-11.76,7.8225,3.2718,-0.47519,-1.07311,-0.06006,0.19698,0.4788
-50.6331,0,0,65.6331,65.6331,5,5,48.3798,3.12574,-25.3346,1.20265,0.823691,-1.38045,1,0,182.893,1.995,6.685,1.2222,0.089304,-2.04826,-0.06006,0.19698,0.4788
-50.8259,0,0,65.8259,65.8259,5,5,48.7003,3.11884,-25.3239,1.20277,0.827394,-1.38463,1,0,182.893,1.995,6.685,1.2222,0.089304,-2.04826,-0.06006,0.19698,0.4788
-51.122,0,0,66.122,66.122,5,5,49.0223,3.11196,-25.3246,2.96322,0.516004,0.424517,1,0,184.1,-2.975,2.2925,2.98998,-0.225456,-0.24888,-0.06006,0.19698,0.4788
-51.3158,0,0,66.3158,66.3158,5,5,49.3443,3.10508,-25.3252,2.96334,0.519677,0.420274,1,0,184.1,-2.975,2.2925,2.98998,-0.225456,-0.24888,-0.06006,0.19698,0.4788
-54.011,0,0,69.011,69.011,5,5,49.7036,3.07896,-25.3316,-2.04081,-0.132794,0.253482,1,0,205.118,-12.7925,8.715,-2.03581,-0.881328,-0.409676,-0.06006,0.19698,0.4788
-55.6095,0,0,70.6095,70.6095,5,5,50.0833,3.05168,-25.3436,-0.385092,0.832138,-0.617859,1,0,216.808,-15.715,7.175,-0.373564,0.078324,-1.26929,-0.0539,0.17486,0.4907
-52.099,0,0,67.099,67.099,5,5,50.4075,3.0454,-25.3386,-0.384982,0.835756,-0.622198,1,0,185.133,-0.14,4.2,-0.373564,0.078324,-1.26929,-0.0539,0.17486,0.4907
-52.0489,0,0,67.0489,67.0489,5,5,50.728,3.02336,-25.3506,-3.02375,0.248349,-0.482896,1,0,183.593,-13.65,5.0225,-3.02389,-0.512034,-1.12679,-0.0539,0.17486,0.4907
-53.288,0,0,68.288,68.288,5,5,51.0641,3.00001,-25.3596,3.96816,1.59057,-0.406651,1,0,192.22,-12.74,6.79,3.99721,0.825086,-1.04664,-0.0539,0.17486,0.4907
-54.6657,0,0,69.6657,69.6657,5,5,51.4176,2.96142,-25.3773,3.96883,1.59445,-0.411434,1,0,202.265,-22.2425,10.64,3.99721,0.825086,-1.04664,-0.0539,0.17486,0.4907
-55.2659,0,0,70.2659,70.2659,5,5,51.7769,2.93032,-25.3936,2.35373,3.91902,-1.8397,1,0,205.45,-18.8475,7.8225,2.37473,3.14333,-2.45903,-0.0539,0.17486,0.4907
-56.7703,0,0,71.7703,71.7703,5,5,52.1554,2.91497,-25.3927,2.354,3.92309,-1.84489,1,0,215.688,-5.145,6.9125,2.37473,3.14333,-2.45903,-0.0539,0.17486,0.4907
-56.4262,0,0,71.4262,71.4262,5,5,52.5253,2.90369,-25.3969,-0.462936,-0.56307,0.204852,1,0,211.068,-6.0375,3.22,-0.454328,-1.34212,-0.420046,-0.0539,0.17486,0.4907
-56.4727,0,0,71.4727,71.4727,5,5,52.8927,2.8864,-25.4012,-0.462634,-0.559179,0.199767,1,0,209.598,-8.1375,6.055,-0.454328,-1.34212,-0.420046,-0.05782,0.15274,0.4963
-58.7653,0,0,73.7653,73.7653,5,5,53.2908,2.87542,-25.3895,-3.45852,-1.91806,0.943964,1,0,226.415,1.54,8.715,-3.46309,-2.70376,0.32391,-0.05782,0.15274,0.4963
-60.1793,0,0,75.1793,75.1793,5,5,53.7064,2.85234,-25.3951,-3.45812,-1.91373,0.938153,1,0,236.688,-10.71,8.4,-3.46309,-2.70376,0.32391,-0.05782,0.15274,0.4963
-58.1432,0,0,73.1432,73.1432,5,5,54.088,2.84507,-25.3819,1.26173,1.47835,-0.0458878,1,0,217.105,3.7275,7.5075,1.27661,0.680882,-0.64721,-0.05782,0.15274,0.4963
-57.5804,0,0,72.5804,72.5804,5,5,54.4578,2.82381,-25.3878,1.2621,1.48213,-0.0511104,1,0,211.033,-10.115,7.5775,1.27661,0.680882,-0.64721,-0.05782,0.15274,0.4963
-57.6166,0,0,72.6166,72.6166,5,5,54.8248,2.79556,-25.3873,0.450213,0.694838,-3.22298,1,0,209.3,-9.3625,13.1425,0.460794,-0.109312,-3.78944,-0.05782,0.15274,0.4963
-60.2359,0,0,75.2359,75.2359,5,5,55.2275,2.77604,-25.3866,0.450554,0.698876,-3.22872,1,0,229.285,-6.265,9.0825,0.460794,-0.109312,-3.78944,-0.05782,0.15274,0.4963
-61.4653,0,0,76.4653,76.4653,5,5,55.6449,2.73311,-25.4164,-1.2122,4.81382,-2.7515,1,0,238.333,-28.665,10.29,-1.20975,3.99721,-3.30998,-0.05782,0.15274,0.4963
-61.7171,0,0,76.7171,76.7171,5,5,56.0622,2.69041,-25.4465,-1.21146,4.81793,-2.7575,1,0,238.333,-28.665,10.29,-1.20975,3.99721,-3.30998,-0.05264,0.12558,0.51002
-61.8549,0,0,76.8549,76.8549,5,5,56.4779,2.66639,-25.4577,0.86333,0.30939,-1.8928,1,0,236.88,-13.265,7.5775,0.873398,-0.510692,-2.44598,-0.05264,0.12558,0.51002
-60.8748,0,0,75.8748,75.8748,5,5,56.8753,2.64588,-25.4696,0.863687,0.31321,-1.89858,1,0,226.643,-12.46,5.705,0.873398,-0.510692,-2.44598,-0.05264,0.12558,0.51002
-62.4789,0,0,77.4789,77.4789,5,5,57.293,2.61755,-25.4646,0.752779,-0.430473,1.25743,1,0,237.58,-6.5975,14.98,0.761524,-1.25758,0.69174,-0.05264,0.12558,0.51002
-66.8412,0,0,81.8412,81.8412,5,5,57.7718,2.57749,-25.4872,0.753477,-0.425965,1.25041,1,0,272.545,-23.7825,12.18,0.761524,-1.25758,0.69174,-0.05264,0.12558,0.51002
-64.4844,0,0,79.4844,79.4844,5,5,58.2113,2.56302,-25.484,0.445885,-0.438015,2.06349,1,0,249.848,-2.975,7.6475,0.452376,-1.27368,1.50499,-0.05264,0.12558,0.51002
-63.0532,0,0,78.0532,78.0532,5,5,58.6255,2.54347,-25.4911,0.446226,-0.434219,2.05734,1,0,235.97,-9.5725,7.07,0.452376,-1.27368,1.50499,-0.05264,0.12558,0.51002
-63.6794,0,0,78.6794,78.6794,5,5,59.0454,2.51698,-25.4987,-2.08714,-2.34194,-0.679105,1,0,239.12,-11.8475,10.465,-2.09218,-3.18322,-1.20414,-0.05264,0.12558,0.51002
-64.7758,0,0,79.7758,79.7758,5,5,59.4778,2.49883,-25.4965,-2.08682,-2.33808,-0.685578,1,0,245.91,-4.375,9.275,-2.09218,-3.18322,-1.20414,-0.04858,0.09716,0.5215
-67.2997,0,0,82.2997,82.2997,5,5,59.9439,2.4718,-25.5015,-0.474601,2.04099,-3.45843,1,0,264.95,-10.5175,11.69,-0.473604,1.18718,-3.94865,-0.04858,0.09716,0.5215
-64.289,0,0,79.289,79.289,5,5,60.361,2.44885,-25.5003,-0.474201,2.04462,-3.46473,1,0,237.37,-6.125,11.48,-0.473604,1.18718,-3.94865,-0.04858,0.09716,0.5215
-67.0658,0,0,82.0658,82.0658,5,5,60.8157,2.44003,-25.4999,0.573403,-0.399509,1.06824,1,0,258.44,-2.38,4.1125,0.57828,-1.25831,0.556198,-0.04858,0.09716,0.5215
-67.3394,0,0,82.3394,82.3394,5,5,61.2703,2.4312,-25.4996,0.573557,-0.395665,1.0613,1,0,258.44,-2.38,4.1125,0.57828,-1.25831,0.556198,-0.04858,0.09716,0.5215
-67.2496,0,0,82.2496,82.2496,5,5,61.7196,2.40294,-25.5075,3.65104,2.97952,-2.75304,1,0,255.605,-12.005,11.8125,3.6683,2.10962,-3.2219,-0.04858,0.09716,0.5215
-67.5198,0,0,82.5198,82.5198,5,5,62.1689,2.37474,-25.5157,3.65153,2.98323,-2.75995,1,0,255.605,-12.005,11.8125,3.6683,2.10962,-3.2219,-0.04858,0.09716,0.5215
-72.4462,0,0,87.4462,87.4462,5,5,62.6873,2.34995,-25.5333,1.51454,4.73933,-2.32976,1,0,294.63,-15.925,7.5775,1.52183,3.85971,-2.78709,-0.04858,0.09716,0.5215
-72.7582,0,0,87.7582,87.7582,5,5,63.2058,2.32532,-25.5512,1.51497,4.74346,-2.33781,1,0,294.63,-15.925,7.5775,1.52183,3.85971,-2.78709,-0.04564,0.07938,0.53228
-68.8761,0,0,83.8761,83.8761,5,5,63.662,2.3021,-25.5612,-0.225633,-2.91471,0.0229495,1,0,259.49,-11.3575,9.03,-0.226554,-3.79408,-0.437492,-0.04564,0.07938,0.53228
-69.1505,0,0,84.1505,84.1505,5,5,64.1181,2.27896,-25.5714,-0.22523,-2.91119,0.0158138,1,0,259.49,-11.3575,9.03,-0.226554,-3.79408,-0.437492,-0.04564,0.07938,0.53228
-71.9393,0,0,86.9393,86.9393,5,5,64.6116,2.25513,-25.5672,-1.93533,-3.1108,4.47527,1,0,280.123,-3.8325,13.125,-1.94431,-3.99721,3.99526,-0.04564,0.07938,0.53228
-72.2357,0,0,87.2357,87.2357,5,5,65.1051,2.23128,-25.5631,-1.93492,-3.10712,4.46749,1,0,280.123,-3.8325,13.125,-1.94431,-3.99721,3.99526,-0.04564,0.07938,0.53228
-71.5346,0,0,86.5346,86.5346,5,5,65.5837,2.2141,-25.557,-0.388469,-0.895336,-0.326479,1,0,271.758,-0.945,10.1325,-0.39162,-1.7912,-0.754204,-0.04564,0.07938,0.53228
-71.8223,0,0,86.8223,86.8223,5,5,66.0624,2.19687,-25.5509,-0.388168,-0.891907,-0.334089,1,0,271.758,-0.945,10.1325,-0.39162,-1.7912,-0.754204,-0.04564,0.07938,0.53228
-73.1756,0,0,88.1756,88.1756,5,5,66.5568,2.17012,-25.5676,-1.64872,4.42885,-1.57245,1,0,281.12,-15.2425,9.9225,-1.65798,3.52055,-1.97518,-0.04564,0.07938,0.53228
-73.4732,0,0,88.4732,88.4732,5,5,67.0513,2.14351,-25.5844,-1.64826,4.43226,-1.58037,1,0,281.12,-15.2425,9.9225,-1.65798,3.52055,-1.97518,-0.04564,0.07938,0.53228
-79.0884,0,0,94.0884,94.0884,5,5,67.6248,2.11119,-25.6094,-1.45891,4.91329,-2.99366,1,0,325.605,-20.8425,11.305,-1.46839,3.99721,-3.36842,-0.04004,0.03906,0.53018
-76.275,0,0,91.275,91.275,5,5,68.1514,2.09692,-25.5976,-0.255828,0.462912,0.61928,1,0,298.515,3.2375,9.835,-0.26047,-0.45201,0.22509,-0.04004,0.03906,0.53018
-76.431,0,0,91.431,91.431,5,5,68.6756,2.07257,-25.6111,-0.255403,0.46629,0.610784,1,0,297.693,-12.635,9.835,-0.26047,-0.45201,0.22509,-0.04004,0.03906,0.53018
-76.2611,0,0,91.2611,91.2611,5,5,69.1926,2.04434,-25.6206,0.463556,4.92339,-2.62195,1,0,293.562,-11.1825,12.8975,0.461038,3.99721,-2.97436,-0.04004,0.03906,0.53018
-80.5312,0,0,95.5312,95.5312,5,5,69.7684,2.01936,-25.6281,0.463991,4.92692,-2.63135,1,0,326.515,-9.24,11.655,0.461038,3.99721,-2.97436,-0.04004,0.03906,0.53018
-81.7972,0,0,96.7972,96.7972,5,5,70.3579,1.98136,-25.6768,0.219618,4.93045,-3.13895,1,0,334.985,-34.44,10.675,0.214964,3.99721,-3.46846,-0.04004,0.03906,0.53018
-78.5804,0,0,93.5804,93.5804,5,5,70.8943,1.95713,-25.6646,0.22004,4.93357,-3.14777,1,0,304.028,2.0125,15.225,0.214964,3.99721,-3.46846,-0.04004,0.03906,0.53018
-80.7791,0,0,95.7791,95.7791,5,5,71.4585,1.93111,-25.6896,-2.04436,1.59354,-2.02841,1,0,320.373,-18.8125,9.1875,-2.05948,0.657458,-2.3485,-0.04004,0.03906,0.53018
-79.1861,0,0,94.1861,94.1861,5,5,71.9941,1.9065,-25.7135,-2.04393,1.59648,-2.03728,1,0,304.238,-17.85,8.785,-2.05948,0.657458,-2.3485,-0.04242,0.00924,0.53228
-81.1401,0,0,96.1401,96.1401,5,5,72.5539,1.88418,-25.7178,0.690734,-2.35084,1.91138,1,0,317.468,-6.4225,11.165,0.686372,-3.28875,1.57892,-0.04242,0.00924,0.53228
-86.3292,0,0,100,100,5,5,73.1858,1.85218,-25.7586,0.691292,-2.34758,1.90085,1,0,358.575,-28.3675,10.36,0.686372,-3.28875,1.57892,-0.04242,0.00924,0.53228
-84.2374,0,0,99.2374,99.2374,5,5,73.781,1.82157,-25.7595,1.6218,0.528908,0.00954447,1,0,337.243,-5.67,16.485,1.62028,-0.418216,-0.28792,-0.04242,0.00924,0.53228
-82.916,0,0,97.916,97.916,5,5,74.3512,1.80281,-25.7773,1.62213,0.531648,-1.75796e-05,1,0,323.54,-13.0375,7.21,1.62028,-0.418216,-0.28792,-0.04242,0.00924,0.53228
-82.8069,0,0,97.8069,97.8069,5,5,74.9147,1.77814,-25.7987,-3.97125,1.89317,-0.513089,1,0,319.83,-15.9425,10.0975,-3.99721,0.939278,-0.787632,-0.04242,0.00924,0.53228
-85.5859,0,0,100,100,5,5,75.5145,1.75562,-25.795,-3.97086,1.89585,-0.523203,1,0,339.728,-1.3125,12.775,-3.99721,0.939278,-0.787632,-0.04242,0.00924,0.53228
-89.2985,0,0,100,100,5,5,76.164,1.72282,-25.8177,-1.22034,4.95975,-3.76872,1,0,368.113,-17.6225,14.84,-1.23562,3.99721,-3.99721,-0.04242,0.00924,0.53228
-84.8959,0,0,99.8959,99.8959,5,5,76.7424,1.69184,-25.8105,-1.2198,4.96213,-3.77852,1,1,327.653,-0.1925,18.0775,-1.23562,3.99721,-3.99721,-0.03752,-0.03388,0.5439
-86.8175,0,0,100,100,5,5,77.3441,1.66893,-25.807,2.13956,-2.54581,-3.78875,1,1,340.83,-1.0675,13.0025,2.13756,-3.5053,-3.99721,-0.03752,-0.03388,0.5439
-87.0117,0,0,100,100,5,5,77.9433,1.6568,-25.8304,2.13977,-2.54357,-3.79896,1,1,339.868,-14.9275,3.5175,2.13756,-3.5053,-3.99721,-0.03752,-0.03388,0.5439
-85.0161,0,0,100,100,5,5,78.5075,1.63355,-25.8576,3.99198,-2.27959,-3.80859,1,1,320.285,-18.3925,9.5725,3.99721,-3.24361,-3.99721,-0.03752,-0.03388,0.5439
-90.9139,0,0,100,100,5,5,79.1543,1.62199,-25.8969,3.99219,-2.2774,-3.81966,1,1,366.8,-23.9225,1.6975,3.99721,-3.24361,-3.99721,-0.03752,-0.03388,0.5439
-88.4896,0,0,100,100,5,5,79.7593,1.58822,-25.9145,1.81065,4.96239,2.30989,1,1,343,-13.825,17.01,1.80584,3.98672,2.09535,-0.03752,-0.03388,0.5439
-88.851,0,0,100,100,5,5,80.3642,1.57027,-25.9453,1.81096,4.96422,2.2995,1,1,343.175,-19.6175,6.7375,1.80584,3.98672,2.09535,-0.03752,-0.03388,0.5439
-85.4956,0,0,100,100,5,5,80.9139,1.55601,-25.9805,-3.96738,-2.77802,-0.855356,1,1,312.235,-21.7175,4.3925,-3.99721,-3.74906,-1.02578,-0.03752,-0.03388,0.5439
-86.6099,0,0,100,100,5,5,81.4752,1.54726,-25.9802,-3.96722,-2.77652,-0.865033,1,1,318.22,-0.6125,4.6025,-3.99721,-3.74906,-1.02578,-0.03836,-0.0721,0.5467
-90.0677,0,0,100,100,5,5,82.0828,1.53453,-25.9729,-3.41023,2.37741,0.0614657,1,1,344.12,3.0975,7.4725,-3.43808,1.398,-0.096014,-0.03836,-0.0721,0.5467
-87.1971,0,0,100,100,5,5,82.6424,1.50592,-25.9744,-3.40973,2.37872,0.0517913,1,1,317.275,-3.0975,15.96,-3.43808,1.398,-0.096014,-0.03836,-0.0721,0.5467
-89.2817,0,0,100,100,5,5,83.2279,1.4873,-25.9456,0.324332,2.77372,2.71136,1,1,331.398,15.365,12.3725,0.311466,1.79133,2.55309,-0.03836,-0.0721,0.5467
-86.4909,0,0,100,100,5,5,83.7668,1.48616,-25.9372,0.324352,2.77478,2.70202,1,1,305.498,4.7775,0.735,0.311466,1.79133,2.55309,-0.03836,-0.0721,0.5467
-84.2135,0,0,99.2135,99.2135,5,5,84.2669,1.47645,-25.9459,0.000275681,1.90835,-1.40982,1,1,284.06,-5.74,4.62,-0.014152,0.924882,-1.51841,-0.03836,-0.0721,0.5467
-88.9663,0,0,100,100,5,5,84.8332,1.46864,-25.9485,0.000412054,1.90929,-1.41966,1,1,321.073,-1.96,3.92,-0.014152,0.924882,-1.51841,-0.03836,-0.0721,0.5467
-89.2623,0,0,100,100,5,5,85.3988,1.45124,-25.9664,1.26259,2.87702,-0.983678,1,1,320.915,-11.34,8.75,1.25306,1.89076,-1.07604,-0.03836,-0.0721,0.5467
-86.7043,0,0,100,100,5,5,85.9214,1.45868,-25.9371,1.26246,2.87771,-0.992769,1,0,296.083,17.4125,-3.5175,1.25306,1.89076,-1.07604,-0.03444,-0.10108,0.50148
-83.5932,0,0,98.5932,98.5932,5,5,86.393,1.47011,-25.9454,2.54746,-2.57202,-1.37769,1,0,268.065,-4.4625,-7.455,2.5437,-3.55386,-1.44985,-0.03444,-0.10108,0.50148
-80.1494,0,0,95.1494,95.1494,5,5,86.8092,1.48062,-25.9569,2.54727,-2.57159,-1.38494,1,0,237.038,-6.37,-7,2.5437,-3.55386,-1.44985,-0.03444,-0.10108,0.50148
-83.5609,0,0,98.5609,98.5609,5,5,87.2724,1.49309,-25.9583,2.23848,-3.01499,2.66798,1,0,263.235,-0.4725,-7.7875,2.23382,-3.99721,2.57981,-0.03444,-0.10108,0.50148
-80.7874,0,0,95.7874,95.7874,5,5,87.6901,1.50765,-25.9572,2.23823,-3.01468,2.66069,1,0,237.755,0.9625,-8.9425,2.23382,-3.99721,2.57981,-0.03444,-0.10108,0.50148
-79.2606,0,0,94.2606,94.2606,5,5,88.0815,1.54068,-25.9248,0.804241,1.69391,-1.24077,1,0,222.46,19.6875,-19.04,0.794342,0.706258,-1.28478,-0.03444,-0.10108,0.50148
-76.9738,0,0,91.9738,91.9738,5,5,88.4353,1.57502,-25.927,0.803642,1.69408,-1.24694,1,0,201.95,-0.7175,-20.545,0.794342,0.706258,-1.28478,-0.03444,-0.10108,0.50148
-75.5769,0,0,90.5769,90.5769,5,5,88.7652,1.60793,-25.9213,-2.08513,4.98858,-3.39077,1,0,188.405,3.745,-19.6,-2.10609,3.99721,-3.40636,-0.03444,-0.10108,0.50148
-76.8443,0,0,91.8443,91.8443,5,5,89.111,1.62952,-25.9194,-2.08551,4.98868,-3.3968,1,0,197.365,1.3475,-13.055,-2.10609,3.99721,-3.40636,-0.03444,-0.10108,0.50148
-78.057,0,0,93.057,93.057,5,5,89.4717,1.66145,-25.9249,-3.96922,4.98007,-2.40352,1,0,205.853,-3.0625,-19.145,-3.99721,3.98855,-2.4145,-0.04956,-0.1701,0.47768
-72.8686,0,0,87.8686,87.8686,5,5,89.7521,1.6895,-25.9174,-3.96971,4.98009,-2.40841,1,0,160.58,4.515,-16.8175,-3.99721,3.98855,-2.4145,-0.04956,-0.1701,0.47768
-70.6588,0,0,85.6588,85.6588,5,5,89.997,1.71854,-25.908,0.169655,0.869296,-0.115763,1,0,140.718,5.46,-17.4125,0.160186,-0.117974,-0.135298,-0.04956,-0.1701,0.47768
-70.8077,0,0,85.8077,85.8077,5,5,90.242,1.74754,-25.8986,0.169149,0.869272,-0.120037,1,0,140.718,5.46,-17.4125,0.160186,-0.117974,-0.135298,-0.04956,-0.1701,0.47768
-66.8042,0,0,81.8042,81.8042,5,5,90.4252,1.75605,-25.9152,2.63443,-1.20251,-0.0473744,1,0,106.558,-9.7825,-5.39,2.63605,-2.18758,-0.060024,-0.04956,-0.1701,0.47768
-66.9154,0,0,81.9154,81.9154,5,5,90.6085,1.76462,-25.9318,2.63428,-1.20254,-0.050571,1,0,106.558,-9.7825,-5.39,2.63605,-2.18758,-0.060024,-0.04956,-0.1701,0.47768
-66.2408,0,0,81.2408,81.2408,5,5,90.78,1.76085,-25.9486,1.71191,4.56693,0.77474,1,0,100.013,-9.8875,1.8375,1.70971,3.57594,0.76189,-0.04956,-0.1701,0.47768
-66.3451,0,0,81.3451,81.3451,5,5,90.9516,1.75714,-25.9655,1.71197,4.56689,0.771748,1,0,100.013,-9.8875,1.8375,1.70971,3.57594,0.76189,-0.04956,-0.1701,0.47768
-60.895,0,0,75.895,75.895,5,5,91.0406,1.7489,-25.9686,0.195002,2.97446,0.170453,1,1,53.48,-1.75,4.3575,0.186172,1.98518,0.166774,-0.04382,-0.18984,0.4774
