pid_x,pid_y,pid_z,front_left_speed,front_right_speed,back_left_speed,back_right_speed,orientation_x,orientation_y,orientation_z,acceleration_x,acceleration_y,acceleration_z,accel_rejected,mag_rejected,gyro_x,gyro_y,gyro_z,accel_x,accel_y,accel_z,mag_x,mag_y,mag_z
0.277487,0,0,14.7225,14.7225,15.2775,15.2775,-0.462479,-0.0982055,0.328387,0.064566,0.393414,0.0916245,0,0,3.6225,0.0175,-0.245,0.022814,0.413214,-0.92171,-0.0511,-0.12166,0.48958
0.550711,0,0,14.4493,14.4493,15.5507,15.5507,-0.917852,-0.201028,0.668435,0.0594359,0.386566,0.0902946,0,0,3.6925,0.0525,-0.2975,0.01586,0.414312,-0.92293,-0.0511,-0.12166,0.48958
0.820084,0,0,14.1799,14.1799,15.8201,15.8201,-1.36681,-0.302905,1.01505,0.0589057,0.379098,0.09136,0,0,3.57,0.0525,-0.2975,0.013542,0.414678,-0.92171,-0.0511,-0.12166,0.48958
1.08498,0,0,13.915,13.915,16.085,16.085,-1.80829,-0.400902,1.36606,0.0606161,0.371397,0.0911361,0,0,3.5875,0.035,-0.21,0.013542,0.414678,-0.92171,-0.0511,-0.12166,0.48958
1.347,0,0,13.653,13.653,16.347,16.347,-2.24499,-0.487481,1.71253,0.0692948,0.364146,0.0962646,0,0,3.5175,0.0175,-0.315,0.02074,0.415044,-0.916342,-0.0511,-0.12166,0.48958
1.60253,0,0,13.3975,13.3975,16.6025,16.6025,-2.67088,-0.568543,2.06268,0.0711955,0.354645,0.0932279,0,0,3.64,0.14,-0.4375,0.021228,0.41297,-0.919026,-0.0511,-0.12166,0.48958
1.85394,0,0,13.1461,13.1461,16.8539,16.8539,-3.0899,-0.646355,2.41663,0.0725535,0.347342,0.092846,0,0,3.5,-0.0175,-0.49,0.021228,0.41297,-0.919026,-0.0511,-0.12166,0.48958
2.10139,0,0,12.8986,12.8986,17.1014,17.1014,-3.50231,-0.722547,2.7766,0.0719394,0.342478,0.0877443,0,0,3.3425,-0.0875,-0.3675,0.019276,0.415288,-0.923662,-0.06034,-0.12194,0.49154
2.34456,0,0,12.6554,12.6554,17.3446,17.3446,-3.9076,-0.79373,3.13905,0.074518,0.336153,0.0860414,0,0,3.5,0.0175,-0.2275,0.020618,0.41602,-0.924882,-0.06034,-0.12194,0.49154
2.58504,0,0,12.415,12.415,17.585,17.585,-4.30839,-0.864473,3.50661,0.0736873,0.328568,0.0930224,0,0,3.7275,0,-0.2275,0.018544,0.41541,-0.91744,-0.06034,-0.12194,0.49154
2.82142,0,0,12.1786,12.1786,17.8214,17.8214,-4.70237,-0.931645,3.87747,0.0748595,0.321715,0.092464,0,0,3.7625,0.14,-0.385,0.018544,0.41541,-0.91744,-0.06034,-0.12194,0.49154
3.05055,0,0,11.9495,11.9495,18.0505,18.0505,-5.08425,-0.996221,4.25474,0.0739212,0.313123,0.0840079,0,0,3.6925,0.07,-0.3325,0.01647,0.413458,-0.925248,-0.06034,-0.12194,0.49154
3.2767,0,0,11.7233,11.7233,18.2767,18.2767,-5.46117,-1.05642,4.63387,0.0761866,0.306697,0.0859666,0,0,3.5175,0.1575,-0.315,0.01769,0.41358,-0.922686,-0.06034,-0.12194,0.49154
3.49904,0,0,11.501,11.501,18.499,18.499,-5.83173,-1.11377,5.01623,0.0771872,0.300264,0.0853116,0,0,3.5,0,-0.385,0.01769,0.41358,-0.922686,-0.06034,-0.12194,0.49154
3.71917,0,0,11.2808,11.2808,18.7192,18.7192,-6.19862,-1.17333,5.40564,0.0739746,0.295121,0.0873249,0,0,3.395,0.1575,-0.245,0.01342,0.4148,-0.920002,-0.05502,-0.12068,0.49
3.93599,0,0,11.064,11.064,18.936,18.936,-6.55998,-1.22818,5.79634,0.0771186,0.292398,0.080334,0,0,3.3775,0.14,-0.28,0.015616,0.418338,-0.926224,-0.05502,-0.12068,0.49
4.1486,0,0,10.8514,10.8514,19.1486,19.1486,-6.91433,-1.27679,6.18676,0.0806394,0.28284,0.0858606,0,0,3.43,-0.0175,-0.4025,0.0183,0.414922,-0.920002,-0.05502,-0.12068,0.49
4.35747,0,0,10.6425,10.6425,19.3575,19.3575,-7.26246,-1.32238,6.58057,0.0814349,0.276814,0.0850931,0,0,3.5175,0.0525,-0.2625,0.0183,0.414922,-0.920002,-0.05502,-0.12068,0.49
4.56327,0,0,10.4367,10.4367,19.5633,19.5633,-7.60546,-1.36423,6.97614,0.0835014,0.272226,0.0834411,0,0,3.5525,0.035,-0.2275,0.019642,0.416264,-0.920856,-0.05502,-0.12068,0.49
4.76065,0,0,10.2393,10.2393,19.7607,19.7607,-7.93442,-1.40242,7.37692,0.0824669,0.264464,0.0701085,0,0,3.64,0.2275,-0.245,0.017934,0.41419,-0.9333,-0.05502,-0.12068,0.49
4.95454,0,0,10.0455,10.0455,19.9545,19.9545,-8.25757,-1.43773,7.78051,0.083083,0.258885,0.0692993,0,0,3.71,0.385,-0.2975,0.017934,0.41419,-0.9333,-0.05502,-0.12068,0.49
5.14771,0,0,9.85229,9.85229,20.1477,20.1477,-8.57952,-1.4675,8.18159,0.087976,0.252841,0.0792833,0,0,3.71,0.315,-0.385,0.022326,0.413702,-0.922564,-0.05082,-0.12054,0.49056
5.33675,0,0,9.66325,9.66325,20.3368,20.3368,-8.89459,-1.49913,8.59052,0.0839114,0.246311,0.0776965,0,0,3.5875,0.21,-0.315,0.01769,0.412604,-0.923296,-0.05082,-0.12054,0.49056
5.52254,0,0,9.47746,9.47746,20.5225,20.5225,-9.20423,-1.5283,9.00237,0.0844203,0.240978,0.0768335,0,0,3.5875,0.21,-0.315,0.01769,0.412604,-0.923296,-0.05082,-0.12054,0.49056
5.70784,0,0,9.29216,9.29216,20.7078,20.7078,-9.51307,-1.55546,9.4158,0.0861089,0.238716,0.0784037,0,0,3.4475,0.1925,-0.35,0.01891,0.415654,-0.920856,-0.05082,-0.12054,0.49056
5.88995,0,0,9.11005,9.11005,20.8899,20.8899,-9.81658,-1.58024,9.83211,0.0865413,0.233498,0.077503,0,0,3.4475,0.1925,-0.35,0.01891,0.415654,-0.920856,-0.05082,-0.12054,0.49056
6.06587,0,0,8.93413,8.93413,21.0659,21.0659,-10.1098,-1.59975,10.2495,0.0882181,0.224676,0.0762398,0,0,3.815,0.14,-0.1925,0.020252,0.411872,-0.921222,-0.05082,-0.12054,0.49056
6.23872,0,0,8.76128,8.76128,21.2387,21.2387,-10.3979,-1.61708,10.6696,0.0885204,0.219731,0.0753368,0,0,3.815,0.14,-0.1925,0.020252,0.411872,-0.921222,-0.05082,-0.12054,0.49056
6.40857,0,0,8.59143,8.59143,21.4086,21.4086,-10.681,-1.62911,11.089,0.0918889,0.216709,0.0700014,0,0,3.675,0.3325,-0.28,0.023424,0.413702,-0.925614,-0.05082,-0.12054,0.49056
6.57546,0,0,8.42454,8.42454,21.5755,21.5755,-10.9591,-1.63936,11.5131,0.0920677,0.211944,0.0690855,0,0,3.675,0.3325,-0.28,0.023424,0.413702,-0.925614,-0.0539,-0.12236,0.49
6.74038,0,0,8.25962,8.25962,21.7404,21.7404,-11.234,-1.64969,11.9409,0.0911546,0.209071,0.0668051,0,0,3.4825,0.105,-0.3325,0.022326,0.415532,-0.926956,-0.0539,-0.12236,0.49
6.9024,0,0,8.0976,8.0976,21.9024,21.9024,-11.504,-1.65805,12.3713,0.0913003,0.204453,0.0658722,0,0,3.4825,0.105,-0.3325,0.022326,0.415532,-0.926956,-0.0539,-0.12236,0.49
7.0602,0,0,7.9398,7.9398,22.0602,22.0602,-11.767,-1.66791,12.8083,0.0869774,0.197396,0.0661715,0,0,3.4125,0.0875,-0.35,0.017812,0.41297,-0.925736,-0.0539,-0.12236,0.49
7.21522,0,0,7.78478,7.78478,22.2152,22.2152,-12.0254,-1.67584,13.2477,0.0871158,0.192986,0.0652384,0,0,3.4125,0.0875,-0.35,0.017812,0.41297,-0.925736,-0.0539,-0.12236,0.49
7.36698,0,0,7.63302,7.63302,22.367,22.367,-12.2783,-1.67938,13.6873,0.088514,0.18281,0.0766026,0,0,3.57,0.21,-0.1925,0.019154,0.407114,-0.913536,-0.0539,-0.12236,0.49
7.4575,0,0,7.5425,7.5425,22.4575,22.4575,-12.4292,-1.64701,14.1138,0.0872204,0.106227,0.0494986,0,0,3.5,0.0525,-0.175,0.018422,0.333182,-0.939888,-0.0539,-0.12236,0.49
7.54638,0,0,7.45362,7.45362,22.5464,22.5464,-12.5773,-1.61437,14.5415,0.0866508,0.1037,0.0489549,0,0,3.4825,-0.0875,-0.35,0.018422,0.333182,-0.939888,-0.0539,-0.12236,0.49
7.74715,0,0,7.25285,7.25285,22.7472,22.7472,-12.9119,-1.71261,15.0641,0.0189965,0.310762,-0.0230769,0,0,3.395,-0.1225,-0.3675,-0.05124,0.545706,-1.01004,-0.05278,-0.11942,0.49896
7.8737,0,0,7.1263,7.1263,22.8737,22.8737,-13.1228,-1.60516,15.3955,0.187566,0.148156,0.0622112,0,0,3.535,-0.245,-0.3675,0.119926,0.386862,-0.924638,-0.05278,-0.11942,0.49896
7.99815,0,0,7.00185,7.00185,22.9981,22.9981,-13.3302,-1.49789,15.7281,0.185695,0.144622,0.0614325,0,0,3.29,-0.0875,-0.49,0.119926,0.386862,-0.924638,-0.05278,-0.11942,0.49896
8.07938,0,0,6.92062,6.92062,23.0794,23.0794,-13.4656,-1.82693,16.5125,-0.313459,0.122212,0.0270353,0,0,3.2725,-0.14,-0.4375,-0.387106,0.366732,-0.958066,-0.05278,-0.11942,0.49896
8.15863,0,0,6.84137,6.84137,23.1586,23.1586,-13.5977,-2.14836,17.2985,-0.307853,0.120017,0.0263071,0,0,3.64,0.7525,-0.3675,-0.387106,0.366732,-0.958066,-0.05278,-0.11942,0.49896
8.19045,0,0,6.80955,6.80955,23.1904,23.1904,-13.6507,-2.28317,17.9247,-0.148785,0.0878754,-0.133709,0,0,3.2025,0.6475,-0.595,-0.229726,0.3355,-1.11654,-0.05278,-0.11942,0.49896
8.19024,0,0,6.80976,6.80976,23.1902,23.1902,-13.6504,-2.28385,17.9239,-0.148773,0.0878815,-0.133708,1,0,3.7275,-0.3325,-0.8225,-0.229726,0.3355,-1.11654,-0.05278,-0.11942,0.49896
8.25872,0,0,6.74128,6.74128,23.2587,23.2587,-13.7645,-2.09417,18.2029,0.246878,0.0818874,0.00512052,0,0,4.375,0.2975,-0.84,0.170922,0.331474,-0.97844,-0.05278,-0.11942,0.49896
8.32626,0,0,6.67374,6.67374,23.3263,23.3263,-13.8771,-1.90874,18.4762,0.243643,0.0799538,0.00476126,0,0,4.1825,-0.4375,-0.49,0.170922,0.331474,-0.97844,-0.04858,-0.11424,0.50372
8.40475,0,0,6.59525,6.59525,23.4048,23.4048,-14.0079,-1.68813,18.7033,0.319854,0.128026,-0.0916941,0,0,4.585,-0.35,-0.525,0.25132,0.381738,-1.07372,-0.04858,-0.11424,0.50372
8.40368,0,0,6.59632,6.59632,23.4037,23.4037,-14.0061,-1.68796,18.7032,0.319851,0.128056,-0.0916865,1,0,4.55,0.07,-0.35,0.25132,0.381738,-1.07372,-0.04858,-0.11424,0.50372
8.40262,0,0,6.59738,6.59738,23.4026,23.4026,-14.0044,-1.68754,18.7034,-0.175575,0.170098,0.209914,1,0,4.5325,0.175,-0.1575,-0.246196,0.423706,-0.774456,-0.04858,-0.11424,0.50372
8.40486,0,0,6.59514,6.59514,23.4049,23.4049,-14.0081,-1.68885,18.7031,-0.175552,0.170035,0.209897,1,0,1.4525,-0.7525,-0.6475,-0.246196,0.423706,-0.774456,-0.04858,-0.11424,0.50372
8.40756,0,0,6.59244,6.59244,23.4076,23.4076,-14.0126,-1.68773,18.7026,0.107854,-0.0877292,0.23619,1,0,1.015,0.665,-0.42,0.03843,0.166286,-0.748348,-0.04858,-0.11424,0.50372
8.40784,0,0,6.59216,6.59216,23.4078,23.4078,-14.0131,-1.68579,18.703,0.10782,-0.0877374,0.236189,1,0,3.29,0.9975,0.21,0.03843,0.166286,-0.748348,-0.04858,-0.11424,0.50372
8.40911,0,0,6.59089,6.59089,23.4091,23.4091,-14.0152,-1.68405,18.7039,-0.452502,0.282637,0.049668,1,0,2.38,0.805,0.49,-0.524234,0.536312,-0.933422,-0.04858,-0.11424,0.50372
8.40861,0,0,6.59139,6.59139,23.4086,23.4086,-14.0144,-1.68545,18.7046,-0.452477,0.282651,0.0496708,1,1,4.025,-0.945,-0.0875,-0.524234,0.536312,-0.933422,-0.04536,-0.11774,0.51744
8.40744,0,0,6.59256,6.59256,23.4074,23.4074,-14.0124,-1.68352,18.7056,0.0136295,0.122454,0.273077,1,1,4.655,0.91,0.5425,-0.05612,0.376248,-0.711748,-0.04536,-0.11774,0.51744
8.40448,0,0,6.59552,6.59552,23.4045,23.4045,-14.0075,-1.68144,18.708,0.0135932,0.122537,0.273099,1,1,6.3525,0.805,1.3125,-0.05612,0.376248,-0.711748,-0.04536,-0.11774,0.51744
8.4029,0,0,6.5971,6.5971,23.4029,23.4029,-14.0048,-1.67939,18.7109,0.00906241,0.0092478,0.203154,1,1,5.075,0.7,1.68,-0.060634,0.263032,-0.781166,-0.04536,-0.11774,0.51744
8.40269,0,0,6.59731,6.59731,23.4027,23.4027,-14.0045,-1.67864,18.7144,0.0090493,0.00925356,0.203156,1,1,3.7975,-0.105,1.75,-0.060634,0.263032,-0.781166,-0.04536,-0.11774,0.51744
8.40458,0,0,6.59542,6.59542,23.4046,23.4046,-14.0076,-1.67742,18.7174,0.305818,0.183597,0.25724,1,1,1.8375,0.21,1.61,0.237412,0.437248,-0.727486,-0.04536,-0.11774,0.51744
8.40646,0,0,6.59354,6.59354,23.4065,23.4065,-14.0108,-1.67621,18.7205,0.305796,0.183544,0.257228,1,1,1.8375,0.21,1.61,0.237412,0.437248,-0.727486,-0.04536,-0.11774,0.51744
8.53563,0,0,6.46437,6.46437,23.5356,23.5356,-14.226,-1.15386,18.7278,0.46409,0.153955,0.159523,0,1,2.1525,0.49,1.085,0.405528,0.411384,-0.823744,-0.04536,-0.11774,0.51744
8.66253,0,0,6.33747,6.33747,23.6625,23.6625,-14.4375,-0.640449,18.7331,0.45513,0.150345,0.158746,0,1,2.1525,0.49,1.085,0.405528,0.411384,-0.823744,-0.04984,-0.10962,0.51814
8.66446,0,0,6.33554,6.33554,23.6645,23.6645,-14.4408,-0.642572,18.7345,0.351054,-0.190321,-0.31044,1,1,1.75,-1.4525,0.175,0.300974,0.071126,-1.2893,-0.04984,-0.10962,0.51814
8.66639,0,0,6.33361,6.33361,23.6664,23.6664,-14.444,-0.644695,18.7359,0.351091,-0.190375,-0.310455,1,1,1.75,-1.4525,0.175,0.300974,0.071126,-1.2893,-0.04984,-0.10962,0.51814
8.66562,0,0,6.33438,6.33438,23.6656,23.6656,-14.4427,-0.645699,18.7358,0.240435,-0.141014,-0.155903,1,1,4.27,-0.595,-0.525,0.189832,0.120414,-1.13594,-0.04984,-0.10962,0.51814
8.66484,0,0,6.33516,6.33516,23.6648,23.6648,-14.4414,-0.646704,18.7356,0.240453,-0.140992,-0.155898,1,1,4.27,-0.595,-0.525,0.189832,0.120414,-1.13594,-0.04984,-0.10962,0.51814
8.66167,0,0,6.33833,6.33833,23.6617,23.6617,-14.4361,-0.6475,18.7326,-0.313994,0.159529,-0.308085,1,1,6.4925,-0.0525,-2.135,-0.366976,0.420534,-1.28698,-0.04984,-0.10962,0.51814
8.6585,0,0,6.3415,6.3415,23.6585,23.6585,-14.4308,-0.648296,18.7295,-0.31398,0.159618,-0.308062,1,1,6.4925,-0.0525,-2.135,-0.366976,0.420534,-1.28698,-0.04984,-0.10962,0.51814
8.65702,0,0,6.34298,6.34298,23.657,23.657,-14.4284,-0.649391,18.7252,-0.318699,-0.575787,0.208332,1,1,4.9,-0.035,-2.905,-0.371734,-0.31415,-0.774578,-0.04984,-0.10962,0.51814
8.65554,0,0,6.34446,6.34446,23.6555,23.6555,-14.4259,-0.650486,18.7208,-0.31868,-0.575746,0.208343,1,1,4.9,-0.035,-2.905,-0.371734,-0.31415,-0.774578,-0.0469,-0.10192,0.5327
8.58702,0,0,6.41298,6.41298,23.587,23.587,-14.3117,-1.10748,18.714,-0.365495,-0.139258,0.143556,0,1,-1.19,-0.3675,-3.4125,-0.426756,0.119926,-0.839238,-0.0469,-0.10192,0.5327
8.51966,0,0,6.48034,6.48034,23.5197,23.5197,-14.1994,-1.55634,18.7061,-0.357663,-0.137314,0.143862,0,1,-1.19,-0.3675,-3.4125,-0.426756,0.119926,-0.839238,-0.0469,-0.10192,0.5327
8.43369,0,0,6.56631,6.56631,23.4337,23.4337,-14.0561,-1.56897,18.697,-0.0125447,-0.122065,-0.0951604,0,1,0.0525,0.0175,-3.3425,-0.080398,0.132736,-1.07702,-0.0469,-0.10192,0.5327
8.4303,0,0,6.5697,6.5697,23.4303,23.4303,-14.0505,-1.57183,18.693,-0.31876,0.415388,-0.48304,1,1,6.65,-1.1025,-2.975,-0.38796,0.669536,-1.46193,-0.0469,-0.10192,0.5327
8.42665,0,0,6.57335,6.57335,23.4267,23.4267,-14.0444,-1.57385,18.6904,-0.318725,0.415491,-0.483016,1,1,6.9125,-0.8225,-2.0475,-0.38796,0.669536,-1.46193,-0.0469,-0.10192,0.5327
8.42268,0,0,6.57732,6.57732,23.4227,23.4227,-14.0378,-1.57225,18.6884,-0.0571941,-0.256338,-0.181763,1,1,7.2275,1.1375,-1.1725,-0.125294,-0.001708,-1.16303,-0.0469,-0.10192,0.5327
8.4215,0,0,6.5785,6.5785,23.4215,23.4215,-14.0358,-1.57161,18.6886,-0.0572053,-0.256305,-0.181754,1,1,4.655,0.2975,-0.1225,-0.125294,-0.001708,-1.16303,-0.0469,-0.10192,0.5327
8.4211,0,0,6.5789,6.5789,23.4211,23.4211,-14.0352,-1.56762,18.6894,0.54007,0.025086,0.374223,1,1,3.9375,2.1,0.7525,0.47458,0.27938,-0.611342,-0.0469,-0.10192,0.5327
8.42105,0,0,6.57895,6.57895,23.4211,23.4211,-14.0351,-1.56632,18.6916,0.540047,0.0250872,0.374224,1,1,3.6225,0.385,1.12,0.47458,0.27938,-0.611342,-0.04606,-0.09996,0.52178
8.75405,0,0,6.24595,6.24595,23.7541,23.7541,-14.5901,-1.29508,18.7079,0.262701,0.498442,0.205719,0,1,0.2975,1.3475,1.6275,0.200812,0.761646,-0.776286,-0.04606,-0.09996,0.52178
9.0815,0,0,5.9185,5.9185,24.0815,24.0815,-15.1358,-1.02687,18.7218,0.258021,0.489213,0.203368,0,1,0.2975,2.03,2.0125,0.200812,0.761646,-0.776286,-0.04606,-0.09996,0.52178
9.08374,0,0,5.91626,5.91626,24.0837,24.0837,-15.1396,-1.02408,18.7262,-0.131511,0.28471,0.0092158,1,1,1.505,0.8575,2.6075,-0.19032,0.557418,-0.968924,-0.04606,-0.09996,0.52178
9.08481,0,0,5.91519,5.91519,24.0848,24.0848,-15.1414,-1.02513,18.7312,-0.131493,0.28468,0.0092073,1,1,2.59,-1.4,2.345,-0.19032,0.557418,-0.968924,-0.04606,-0.09996,0.52178
9.08427,0,0,5.91573,5.91573,24.0843,24.0843,-15.1404,-1.02698,18.7366,0.0808966,-0.288445,0.0875291,1,1,4.1125,-1.925,2.485,0.022936,-0.015128,-0.89121,-0.04606,-0.09996,0.52178
9.07897,0,0,5.92103,5.92103,24.079,24.079,-15.1316,-1.02788,18.7426,0.0809124,-0.288297,0.087569,1,1,8.5575,-1.47,2.9225,0.022936,-0.015128,-0.89121,-0.04606,-0.09996,0.52178
9.11026,0,0,5.88974,5.88974,24.1103,24.1103,-15.1838,-0.802642,18.7488,0.208065,0.0586255,-0.004082,0,1,8.015,-1.19,2.6075,0.154574,0.332328,-0.981978,-0.04606,-0.09996,0.52178
9.14282,0,0,5.85718,5.85718,24.1428,24.1428,-15.238,-0.581948,18.7536,0.204213,0.0576996,-0.00428553,0,1,6.2475,-1.12,1.8725,0.154574,0.332328,-0.981978,-0.04816,-0.09758,0.5271
9.14028,0,0,5.85972,5.85972,24.1403,24.1403,-15.2338,-0.580851,18.7562,0.138713,0.385193,0.0731916,1,1,5.9325,0.175,1.33,0.088816,0.65941,-0.905118,-0.04816,-0.09758,0.5271
9.14196,0,0,5.85804,5.85804,24.142,24.142,-15.2366,-0.578658,18.7573,0.138675,0.385145,0.0731791,1,1,1.9775,1.0325,0.63,0.088816,0.65941,-0.905118,-0.04816,-0.09758,0.5271
9.14452,0,0,5.85548,5.85548,24.1445,24.1445,-15.2409,-0.575974,18.7572,0.205688,0.0604603,0.161437,1,1,1.155,1.4875,0.0525,0.15616,0.335134,-0.817522,-0.04816,-0.09758,0.5271
9.14676,0,0,5.85324,5.85324,24.1468,24.1468,-15.2446,-0.576625,18.7561,0.2057,0.0603976,0.16142,1,1,1.4525,-0.245,-1.015,0.15616,0.335134,-0.817522,-0.04816,-0.09758,0.5271
9.2121,0,0,5.7879,5.7879,24.2121,24.2121,-15.3535,-0.704746,18.7557,-0.115945,0.0930106,0.0190116,0,1,1.12,0.0175,-1.1725,-0.169092,0.369538,-0.95831,-0.04816,-0.09758,0.5271
9.27324,0,0,5.72676,5.72676,24.2732,24.2732,-15.4554,-0.833848,18.7549,-0.113692,0.0913042,0.0185101,0,1,3.8675,-1.82,-2.1175,-0.169092,0.369538,-0.95831,-0.04816,-0.09758,0.5271
9.27226,0,0,5.72774,5.72774,24.2723,24.2723,-15.4538,-0.836228,18.7524,-0.34095,-0.390824,-0.351435,1,1,4.445,-0.9975,-2.0825,-0.397354,-0.112118,-1.32541,-0.04816,-0.09758,0.5271
9.27249,0,0,5.72751,5.72751,24.2725,24.2725,-15.4541,-0.836417,18.7488,-0.340947,-0.390831,-0.351437,1,1,3.3075,0.4025,-2.3275,-0.397354,-0.112118,-1.32541,-0.0497,-0.09814,0.53732
9.27155,0,0,5.72845,5.72845,24.2715,24.2715,-15.4526,-0.839737,18.7451,0.438806,-0.0621612,-0.293153,1,1,4.3925,-1.33,-2.94,0.385642,0.216184,-1.26758,-0.0497,-0.09814,0.53732
9.27111,0,0,5.72889,5.72889,24.2711,24.2711,-15.4519,-0.840692,18.7407,0.438823,-0.0621489,-0.29315,1,1,3.92,0.0875,-2.87,0.385642,0.216184,-1.26758,-0.0497,-0.09814,0.53732
9.27009,0,0,5.72991,5.72991,24.2701,24.2701,-15.4502,-0.838392,18.7364,0.212455,0.153189,0.214759,1,1,4.4625,1.925,-2.3625,0.158356,0.43127,-0.763598,-0.0497,-0.09814,0.53732
9.26908,0,0,5.73092,5.73092,24.2691,24.2691,-15.4485,-0.836091,18.7321,0.212415,0.153217,0.214768,1,1,4.4625,1.925,-2.3625,0.158356,0.43127,-0.763598,-0.0497,-0.09814,0.53732
9.26984,0,0,5.73016,5.73016,24.2698,24.2698,-15.4497,-0.832942,18.7284,0.139225,0.1764,0.310416,1,1,2.8,2.31,-1.89,0.084912,0.45445,-0.668682,-0.0497,-0.09814,0.53732
9.27061,0,0,5.72939,5.72939,24.2706,24.2706,-15.451,-0.829793,18.7247,0.13917,0.176378,0.310411,1,1,2.8,2.31,-1.89,0.084912,0.45445,-0.668682,-0.0497,-0.09814,0.53732
9.27102,0,0,5.72898,5.72898,24.271,24.271,-15.4517,-0.822847,18.7226,0.377526,0.348076,-0.0354444,1,1,3.15,4.2,-0.385,0.324398,0.625982,-1.01187,-0.0497,-0.09814,0.53732
9.27143,0,0,5.72857,5.72857,24.2714,24.2714,-15.4524,-0.815902,18.7206,0.377404,0.348064,-0.0354459,1,1,3.15,4.2,-0.385,0.324398,0.625982,-1.01187,-0.04662,-0.0987,0.5306
9.271,0,0,5.729,5.729,24.271,24.271,-15.4517,-0.822466,18.7236,0.0457414,0.184427,-0.216178,1,1,3.9725,-4.235,0.42,-0.008784,0.462502,-1.19121,-0.04662,-0.0987,0.5306
9.27057,0,0,5.72943,5.72943,24.2706,24.2706,-15.451,-0.82903,18.7267,0.045856,0.184439,-0.216177,1,1,3.9725,-4.235,0.42,-0.008784,0.462502,-1.19121,-0.04662,-0.0987,0.5306
9.21682,0,0,5.78318,5.78318,24.2168,24.2168,-15.3614,-0.730679,18.7284,0.0958925,-0.0612442,-0.105454,0,1,3.85,-1.015,1.2075,0.043188,0.215574,-1.08177,-0.04662,-0.0987,0.5306
9.16411,0,0,5.83589,5.83589,24.1641,24.1641,-15.2735,-0.634216,18.7303,0.094209,-0.0597706,-0.10503,0,1,3.85,-1.015,1.2075,0.043188,0.215574,-1.08177,-0.04662,-0.0987,0.5306
9.16441,0,0,5.83559,5.83559,24.1644,24.1644,-15.274,-0.632088,18.7323,0.00791704,-0.158824,0.3216,1,1,3.2725,0.8575,1.12,-0.043432,0.116632,-0.658434,-0.04662,-0.0987,0.5306
9.43013,0,0,5.56987,5.56987,24.4301,24.4301,-15.7169,-0.575867,18.7387,0.0521285,0.414438,0.120368,0,1,3.5525,1.225,1.12,0.001952,0.696742,-0.856074,-0.04662,-0.0987,0.5306
9.69126,0,0,5.30874,5.30874,24.6913,24.6913,-16.1521,-0.520103,18.7455,0.0511553,0.407132,0.118292,0,1,3.43,1.365,1.68,0.001952,0.696742,-0.856074,-0.04662,-0.0987,0.5306
9.69033,0,0,5.30967,5.30967,24.6903,24.6903,-16.1505,-0.519226,18.7484,-0.229978,0.202839,-0.220915,1,1,4.4275,-0.035,1.505,-0.280356,0.492636,-1.19267,-0.0483,-0.0952,0.53564
9.68965,0,0,5.31035,5.31035,24.6896,24.6896,-16.1494,-0.517334,18.7516,-0.230011,0.202858,-0.22091,1,1,4.2,0.5075,1.7675,-0.280356,0.492636,-1.19267,-0.0483,-0.0952,0.53564
9.68791,0,0,5.31209,5.31209,24.6879,24.6879,-16.1465,-0.518189,18.7536,0.200914,0.129387,-0.09598,1,1,5.18,-0.8575,0.7,0.152378,0.419192,-1.06872,-0.0483,-0.0952,0.53564
9.68618,0,0,5.31382,5.31382,24.6862,24.6862,-16.1436,-0.519045,18.7556,0.200929,0.129435,-0.0959661,1,1,5.18,-0.8575,0.7,0.152378,0.419192,-1.06872,-0.0483,-0.0952,0.53564
9.80564,0,0,5.19436,5.19436,24.8056,24.8056,-16.3427,-0.137401,18.7584,0.325594,0.126577,0.172233,0,1,4.2,-1.2775,0.3325,0.28426,0.41968,-0.801662,-0.0483,-0.0952,0.53564
9.80416,0,0,5.19584,5.19584,24.8042,24.8042,-16.3403,-0.138966,18.7595,0.279214,0.0231767,0.229908,1,1,4.935,-1.12,0.105,0.237656,0.316346,-0.744444,-0.0483,-0.0952,0.53564
9.80385,0,0,5.19615,5.19615,24.8039,24.8039,-16.3398,-0.140538,18.7588,0.279241,0.0231852,0.22991,1,1,3.8325,-0.805,-0.98,0.237656,0.316346,-0.744444,-0.0483,-0.0952,0.53564
9.88792,0,0,5.11208,5.11208,24.8879,24.8879,-16.4799,-0.0428697,18.7575,0.0891122,0.117319,0.0396353,0,1,1.6975,-0.245,-1.26,0.048434,0.412726,-0.932568,-0.0483,-0.0952,0.53564
9.96858,0,0,5.03142,5.03142,24.9686,24.9686,-16.6143,0.0553646,18.7544,0.0873977,0.11507,0.0389669,0,1,3.3775,1.4,-1.7675,0.048434,0.412726,-0.932568,-0.0462,-0.09212,0.5439
9.96947,0,0,5.03053,5.03053,24.9695,24.9695,-16.6158,0.0572671,18.7509,-0.0216082,0.389097,-0.19329,1,1,2.7125,1.61,-1.9425,-0.061,0.686494,-1.16303,-0.0462,-0.09212,0.5439
9.96818,0,0,5.03182,5.03182,24.9682,24.9682,-16.6136,0.0575436,18.7483,-0.021613,0.389133,-0.193279,1,1,4.76,0.5425,-1.6975,-0.061,0.686494,-1.16303,-0.0462,-0.09212,0.5439
10.0426,0,0,5,5,25.0426,25.0426,-16.7377,0.00601932,18.7462,-0.0495059,0.139509,-0.0311163,0,1,5.9675,0.0175,-1.5225,-0.089914,0.4392,-1.0015,-0.0462,-0.09212,0.5439
10.1183,0,0,5,5,25.1183,25.1183,-16.8638,-0.0453626,18.7441,-0.0486091,0.137401,-0.0317531,0,1,3.43,-0.4375,-1.715,-0.089914,0.4392,-1.0015,-0.0462,-0.09212,0.5439
10.1183,0,0,5,5,25.1183,25.1183,-16.8638,-0.0472016,18.7413,0.0674419,0.0663232,0.137547,1,1,3.5525,-0.6125,-2.135,0.026596,0.368196,-0.833504,-0.0462,-0.09212,0.5439
10.1189,0,0,5,5,25.1189,25.1189,-16.8648,-0.0474758,18.7391,0.0674466,0.0663062,0.137542,1,1,2.975,0.175,-1.575,0.026596,0.368196,-0.833504,-0.0462,-0.09212,0.5439
10.2283,0,0,5,5,25.2283,25.2283,-17.0471,-0.124416,18.7377,-0.0672745,0.134952,0.0937029,0,1,2.1875,0.5075,-1.1375,-0.110044,0.43981,-0.876082,-0.0462,-0.09212,0.5439
10.3355,0,0,5,5,25.3355,25.3355,-17.2259,-0.199673,18.7373,-0.065961,0.131972,0.0927802,0,1,2.24,0.5075,-0.7,-0.110044,0.43981,-0.876082,-0.0462,-0.08666,0.54432
10.4887,0,0,5,5,25.4887,25.4887,-17.4812,-0.0524546,18.7365,0.141761,0.245325,0.0404328,0,1,2.87,0.6475,-0.8925,0.101138,0.557296,-0.926712,-0.0462,-0.08666,0.54432
10.6382,0,0,5,5,25.6382,25.6382,-17.7303,0.0923846,18.7358,0.139233,0.241182,0.0391172,0,1,3.7275,0.7175,-0.42,0.101138,0.557296,-0.926712,-0.0462,-0.08666,0.54432
10.7297,0,0,5,5,25.7297,25.7297,-17.8828,0.332779,18.735,0.217284,0.122631,0.0692711,0,1,3.115,0.665,-0.2625,0.183732,0.441396,-0.895968,-0.0462,-0.08666,0.54432
10.8196,0,0,5,5,25.8196,25.8196,-18.0327,0.569098,18.734,0.213159,0.120153,0.068434,0,1,3.0625,0.7875,0.105,0.183732,0.441396,-0.895968,-0.0462,-0.08666,0.54432
10.8495,0,0,5,5,25.8495,25.8495,-18.0825,0.478829,18.7344,-0.0876433,0.061556,-0.0379264,0,1,3.01,0.7875,0.5075,-0.119926,0.38369,-1.00125,-0.0462,-0.08666,0.54432
10.8791,0,0,5,5,25.8791,25.8791,-18.1318,0.387739,18.7361,-0.0860535,0.0607339,-0.0381826,0,1,2.7475,-0.84,0.6825,-0.119926,0.38369,-1.00125,-0.0462,-0.08666,0.54432
10.8798,0,0,5,5,25.8798,25.8798,-18.1329,0.386291,18.7385,0.165812,-0.00291296,0.221233,1,1,2.905,-1.295,0.7875,0.13298,0.320128,-0.743834,-0.0462,-0.08666,0.54432
10.8789,0,0,5,5,25.8789,25.8789,-18.1314,0.385931,18.7409,0.165818,-0.0028877,0.221241,1,1,4.3925,-0.6825,0.9625,0.13298,0.320128,-0.743834,-0.05642,-0.0833,0.54698
10.8789,0,0,5,5,25.8789,25.8789,-18.1315,0.385447,18.7433,0.0935423,0.142686,0.204274,1,1,3.4825,-0.7525,0.945,0.06039,0.465552,-0.76067,-0.05642,-0.0833,0.54698
10.879,0,0,5,5,25.879,25.879,-18.1317,0.385979,18.7446,0.093533,0.142683,0.204273,1,1,3.4475,0.0175,0.5075,0.06039,0.465552,-0.76067,-0.05642,-0.0833,0.54698
10.8795,0,0,5,5,25.8795,25.8795,-18.1325,0.386805,18.7456,0.0441954,0.243302,-0.0826937,1,1,3.08,0.2275,0.42,0.010858,0.56608,-1.04542,-0.05642,-0.0833,0.54698
10.8808,0,0,5,5,25.8808,25.8808,-18.1347,0.38768,18.7463,0.0441801,0.243265,-0.0827057,1,1,2.31,0.315,0.245,0.010858,0.56608,-1.04542,-0.05642,-0.0833,0.54698
10.9589,0,0,5,5,25.9589,25.9589,-18.2648,0.479232,18.7463,0.0900832,0.143778,-0.0331401,0,1,2.38,0.245,0.385,0.05856,0.468846,-0.99552,-0.05642,-0.0833,0.54698
11.0343,0,0,5,5,26.0343,26.0343,-18.3905,0.568974,18.7457,0.088517,0.1417,-0.0338436,0,1,3.43,0.2625,0.1925,0.05856,0.468846,-0.99552,-0.05642,-0.0833,0.54698
11.1745,0,0,5,5,26.1745,26.1745,-18.6242,0.814884,18.7435,0.231466,0.20343,0.0845641,0,1,3.255,-0.1225,0.0525,0.206424,0.53436,-0.876692,-0.05642,-0.0833,0.54698
11.3123,0,0,5,5,26.3123,26.3123,-18.8538,1.05633,18.7404,0.227253,0.199658,0.083212,0,1,3.255,-0.1225,0.0525,0.206424,0.53436,-0.876692,-0.05642,-0.0833,0.54698
11.3128,0,0,5,5,26.3128,26.3128,-18.8547,1.05533,18.7407,0.331383,-0.319151,0.167919,1,1,3.0625,-0.665,-0.2975,0.310978,0.016104,-0.792634,-0.05726,-0.07644,0.56014
11.3139,0,0,5,5,26.3139,26.3139,-18.8565,1.05425,18.7402,-0.197425,0.359599,-0.0988895,1,1,2.5025,-0.5425,-0.7875,-0.220088,0.69418,-1.05737,-0.05726,-0.07644,0.56014
11.315,0,0,5,5,26.315,26.315,-18.8584,1.05318,18.7397,-0.197406,0.359568,-0.0988998,1,1,2.5025,-0.5425,-0.7875,-0.220088,0.69418,-1.05737,-0.05726,-0.07644,0.56014
11.3156,0,0,5,5,26.3156,26.3156,-18.8593,1.05449,18.7389,0.118677,-0.0195286,0.130025,1,1,3.045,0.8225,-0.4725,0.097356,0.315492,-0.83021,-0.05726,-0.07644,0.56014
11.3161,0,0,5,5,26.3161,26.3161,-18.8602,1.05579,18.7382,0.118654,-0.0195435,0.130019,1,1,3.045,0.8225,-0.4725,0.097356,0.315492,-0.83021,-0.05726,-0.07644,0.56014
11.31,0,0,5,5,26.31,26.31,-18.85,1.10679,18.7366,0.0497318,0.00823078,-0.0585422,0,1,2.8175,0.595,-1.155,0.029036,0.343064,-1.01736,-0.05726,-0.07644,0.56014
11.3723,0,0,5,5,26.3723,26.3723,-18.9538,1.25602,18.7331,0.143223,0.106557,-0.00532822,0,1,3.15,0.875,-0.84,0.125538,0.442982,-0.963922,-0.05726,-0.07644,0.56014
11.4338,0,0,5,5,26.4338,26.4338,-19.0564,1.40122,18.7301,0.140689,0.104884,-0.00596657,0,1,2.73,0.07,-0.6475,0.125538,0.442982,-0.963922,-0.05054,-0.063,0.58114
11.4348,0,0,5,5,26.4348,26.4348,-19.0581,1.40114,18.7292,0.0893024,-0.0563511,0.19861,1,1,2.625,0.0875,-0.8225,0.073932,0.281942,-0.760914,-0.05054,-0.063,0.58114
11.4357,0,0,5,5,26.4357,26.4357,-19.0595,1.4006,18.729,0.0893118,-0.0563742,0.198603,1,1,2.765,-0.315,-0.49,0.073932,0.281942,-0.760914,-0.05054,-0.063,0.58114
11.4367,0,0,5,5,26.4367,26.4367,-19.0611,1.39986,18.7289,-0.143199,0.224978,-0.0369759,1,1,2.625,-0.42,-0.5425,-0.159576,0.56303,-0.994666,-0.05054,-0.063,0.58114
11.4388,0,0,5,5,26.4388,26.4388,-19.0646,1.39999,18.7287,-0.143201,0.224921,-0.0369959,1,1,1.5925,0.0525,-0.35,-0.159576,0.56303,-0.994666,-0.05054,-0.063,0.58114
11.4403,0,0,5,5,26.4403,26.4403,-19.0671,1.40078,18.7284,0.225373,-0.144066,0.122822,1,1,2.135,0.455,-0.3325,0.210572,0.194468,-0.836066,-0.05054,-0.063,0.58114
11.4417,0,0,5,5,26.4417,26.4417,-19.0695,1.40182,18.7278,0.225355,-0.144105,0.122808,1,1,2.205,0.6475,-0.4375,0.210572,0.194468,-0.836066,-0.05054,-0.063,0.58114
11.4429,0,0,5,5,26.4429,26.4429,-19.0715,1.40281,18.7273,0.065948,0.64468,0.372259,1,1,2.4675,0.595,-0.3675,0.050508,0.982466,-0.588528,-0.05054,-0.063,0.58114
11.4435,0,0,5,5,26.4435,26.4435,-19.0725,1.40242,18.7275,0.0659549,0.644663,0.372254,1,1,2.975,-0.315,-0.2275,0.050508,0.982466,-0.588528,-0.05054,-0.063,0.58114
11.4444,0,0,5,5,26.4444,26.4444,-19.074,1.40294,18.7277,0.374155,0.230018,0.612732,1,1,2.695,0.21,-0.105,0.360022,0.568276,-0.349896,-0.05166,-0.04732,0.58422
11.4452,0,0,5,5,26.4452,26.4452,-19.0754,1.40265,18.7274,-0.319645,-0.294661,0.277444,1,1,2.7825,-0.14,-0.5425,-0.33672,0.044164,-0.68259,-0.05166,-0.04732,0.58422
11.4458,0,0,5,5,26.4458,26.4458,-19.0764,1.40169,18.7274,-0.319628,-0.294678,0.277439,1,1,2.9925,-0.5775,-0.4725,-0.33672,0.044164,-0.68259,-0.05166,-0.04732,0.58422
11.4457,0,0,5,5,26.4457,26.4457,-19.0762,1.40013,18.7273,-0.198237,-0.525007,-0.314557,1,1,3.6225,-0.8925,-0.6475,-0.214842,-0.185928,-1.27002,-0.05166,-0.04732,0.58422
11.446,0,0,5,5,26.446,26.446,-19.0766,1.39893,18.7265,-0.198216,-0.525014,-0.314559,1,1,3.325,-0.56,-0.9625,-0.214842,-0.185928,-1.27002,-0.05166,-0.04732,0.58422
11.4467,0,0,5,5,26.4467,26.4467,-19.0778,1.3977,18.7249,-0.383824,0.0848682,-0.400752,1,1,2.94,-0.42,-1.4175,-0.401258,0.42334,-1.35554,-0.05166,-0.04732,0.58422
11.4484,0,0,5,5,26.4484,26.4484,-19.0806,1.39735,18.7236,-0.383818,0.084821,-0.400768,1,1,1.96,0,-1.05,-0.401258,0.42334,-1.35554,-0.05166,-0.04732,0.58422
11.4569,0,0,5,5,26.4569,26.4569,-19.0949,1.56522,18.7216,0.14536,-0.0104037,0.058046,0,1,1.4875,0.385,-1.225,0.133102,0.328424,-0.900116,-0.04298,-0.05404,0.57232
11.5909,0,0,5,5,26.5909,26.5909,-19.3182,1.66459,18.7139,0.0921166,0.183901,0.0879473,0,1,1.8375,-0.4725,-1.3825,0.081374,0.526186,-0.869128,-0.04298,-0.05404,0.57232
11.7212,0,0,5,5,26.7212,26.7212,-19.5354,1.76304,18.7062,0.0903991,0.180345,0.0866385,0,1,2.94,-0.0175,-1.015,0.081374,0.526186,-0.869128,-0.04298,-0.05404,0.57232
11.8199,0,0,5,5,26.8199,26.8199,-19.6998,1.71542,18.7002,-0.0444696,0.13721,0.0631995,0,1,3.6925,0.455,-0.7525,-0.0549,0.485804,-0.891454,-0.04298,-0.05404,0.57232
11.9166,0,0,5,5,26.9166,26.9166,-19.861,1.66877,18.695,-0.0436558,0.134557,0.0622708,0,1,3.7975,0.385,-0.385,-0.0549,0.485804,-0.891454,-0.04298,-0.05404,0.57232
11.9172,0,0,5,5,26.9172,26.9172,-19.8621,1.66914,18.695,-0.0566613,0.247261,-0.115888,1,1,2.9225,0.175,-0.2625,-0.067954,0.59841,-1.06823,-0.04298,-0.05404,0.57232
11.9196,0,0,5,5,26.9196,26.9196,-19.866,1.67066,18.6955,-0.0566877,0.247197,-0.115912,1,1,1.3475,0.6825,0.2975,-0.067954,0.59841,-1.06823,-0.04298,-0.05404,0.57232
11.9713,0,0,5,5,26.9713,26.9713,-19.9522,1.70818,18.6942,0.0320712,0.0593018,0.0507672,0,1,0.9625,0.175,0.49,0.021838,0.412116,-0.902312,-0.04298,-0.05404,0.57232
12.0221,0,0,5,5,27.0221,27.0221,-20.0368,1.74568,18.693,0.0314169,0.0579225,0.0502443,0,1,0.9975,0.5425,0.665,0.021838,0.412116,-0.902312,-0.04956,-0.06468,0.57036
11.8838,0,0,5,5,26.8838,26.8838,-19.8064,1.69877,18.7015,-0.045637,-0.206742,-0.072541,0,1,1.75,0.5425,0.84,-0.056364,0.14396,-1.02553,-0.04956,-0.06468,0.57036
11.7476,0,0,5,5,26.7476,26.7476,-19.5793,1.65216,18.7103,-0.0448238,-0.20302,-0.0711836,0,1,2.275,0.14,1.0325,-0.056364,0.14396,-1.02553,-0.04956,-0.06468,0.57036
11.8891,0,0,5,5,26.8891,26.8891,-19.8152,1.69671,18.7055,0.0417471,0.212008,0.0659707,0,1,1.96,0.0875,1.05,0.031354,0.56242,-0.888038,-0.04956,-0.06468,0.57036
12.0272,0,0,5,5,27.0272,27.0272,-20.0454,1.73954,18.7012,0.041,0.20824,0.0645808,0,1,2.73,-0.49,1.12,0.031354,0.56242,-0.888038,-0.04956,-0.06468,0.57036
12.1044,0,0,5,5,27.1044,27.1044,-20.174,1.96137,18.6989,0.196641,0.0856365,0.096396,0,1,2.6075,-0.455,0.665,0.19154,0.442006,-0.855586,-0.04956,-0.06468,0.57036
12.1802,0,0,5,5,27.1802,27.1802,-20.3004,2.17914,18.6962,0.192843,0.0836164,0.0955049,0,1,2.6075,-0.455,0.665,0.19154,0.442006,-0.855586,-0.04956,-0.06468,0.57036
12.3053,0,0,5,5,27.3053,27.3053,-20.5088,1.8995,18.6899,-0.274981,0.198856,0.0508766,0,1,2.975,-0.1575,0.315,-0.283162,0.56059,-0.898774,-0.04956,-0.06468,0.57036
12.4281,0,0,5,5,27.4281,27.4281,-20.7134,1.6248,18.6846,-0.270188,0.195463,0.0497578,0,1,2.975,-0.1575,0.315,-0.283162,0.56059,-0.898774,-0.04956,-0.06468,0.57036
12.4292,0,0,5,5,27.4292,27.4292,-20.7153,1.62304,18.6837,-0.265177,0.037888,0.162614,1,1,2.5025,-0.805,-1.19,-0.27816,0.40321,-0.786778,-0.04718,-0.06664,0.56616
12.5211,0,0,5,5,27.5211,27.5211,-20.8685,1.26558,18.6782,-0.29903,0.0629347,0.185049,0,1,1.855,-0.77,-1.61,-0.31842,0.430782,-0.76372,-0.04718,-0.06664,0.56616
12.6119,0,0,5,5,27.6119,27.6119,-21.0198,0.915099,18.673,-0.292914,0.060427,0.184214,0,1,1.3475,-0.2275,-1.8725,-0.31842,0.430782,-0.76372,-0.04718,-0.06664,0.56616
12.614,0,0,5,5,27.614,27.614,-21.0233,0.913669,18.6702,0.228527,0.142439,-0.100433,1,1,1.5925,-0.2275,-2.1525,0.205204,0.512766,-1.04615,-0.04718,-0.06664,0.56616
12.6161,0,0,5,5,27.6161,27.6161,-21.0269,0.912239,18.6673,0.228552,0.142381,-0.100455,1,1,1.5925,-0.2275,-2.1525,0.205204,0.512766,-1.04615,-0.04718,-0.06664,0.56616
12.617,0,0,5,5,27.617,27.617,-21.0283,0.911494,18.6651,0.537503,0.162996,0.0816228,1,1,2.7475,0,-1.6275,0.51545,0.533384,-0.865468,-0.04718,-0.06664,0.56616
12.6179,0,0,5,5,27.6179,27.6179,-21.0298,0.910749,18.663,0.537516,0.162973,0.0816138,1,1,2.7475,0,-1.6275,0.51545,0.533384,-0.865468,-0.04718,-0.06664,0.56616
12.5593,0,0,5,5,27.5593,27.5593,-20.9321,0.543006,18.6657,-0.333921,-0.106831,0.020703,0,1,2.31,-4.2875,-0.9975,-0.366122,0.2623,-0.92659,-0.05096,-0.07616,0.56182
12.5615,0,0,5,5,27.5615,27.5615,-20.9358,0.542954,18.665,-0.212192,-0.143773,-0.233577,1,1,1.4875,0.07,-0.6825,-0.243878,0.225456,-1.17889,-0.05096,-0.07616,0.56182
12.5637,0,0,5,5,27.5637,27.5637,-20.9395,0.542903,18.6644,-0.212191,-0.143833,-0.2336,1,1,1.4875,0.07,-0.6825,-0.243878,0.225456,-1.17889,-0.05096,-0.07616,0.56182
12.743,0,0,5,5,27.743,27.743,-21.2383,0.308612,18.6624,-0.231792,0.268352,0.10684,0,1,0.7525,0.6825,0.1225,-0.267668,0.642086,-0.839238,-0.05096,-0.07616,0.56182
12.9192,0,0,5,5,27.9192,27.9192,-21.5319,0.0784146,18.6617,-0.227774,0.263576,0.104984,0,1,0.7525,0.6825,0.1225,-0.267668,0.642086,-0.839238,-0.05096,-0.07616,0.56182
12.9043,0,0,5,5,27.9043,27.9043,-21.5071,0.146595,18.6639,0.0651528,-0.00653111,-0.0578891,0,1,1.785,0.2625,1.19,0.027694,0.371856,-1.00101,-0.05096,-0.07616,0.56182
12.8897,0,0,5,5,27.8897,27.8897,-21.4828,0.213506,18.6661,0.063985,-0.0061342,-0.0577367,0,1,1.785,0.2625,1.19,0.027694,0.371856,-1.00101,-0.05096,-0.07616,0.56182
13.0048,0,0,5,5,28.0048,28.0048,-21.6747,0.0796862,18.6683,-0.120403,0.136324,0.116853,0,1,2.6775,-0.0875,1.365,-0.15982,0.51728,-0.82655,-0.05096,-0.07616,0.56182
13.1178,0,0,5,5,28.1178,28.1178,-21.863,-0.0516754,18.671,-0.11811,0.133271,0.115635,0,1,2.6775,-0.0875,1.365,-0.15982,0.51728,-0.82655,-0.04886,-0.07476,0.55412
13.0808,0,0,5,5,28.0808,28.0808,-21.8014,-0.0849748,18.6728,-0.0310312,-0.0595453,-0.0122011,0,1,1.61,-0.1925,0.875,-0.072956,0.323666,-0.953796,-0.04886,-0.07476,0.55412
13.0833,0,0,5,5,28.0833,28.0833,-21.8055,-0.0845838,18.6743,0.176824,0.176703,-0.083784,1,1,1.225,-0.1575,0.595,0.135786,0.559736,-1.0248,-0.04886,-0.07476,0.55412
13.0861,0,0,5,5,28.0861,28.0861,-21.8102,-0.0852262,18.675,0.176835,0.176627,-0.0838145,1,1,0.91,-0.5425,-0.07,0.135786,0.559736,-1.0248,-0.04886,-0.07476,0.55412
13.1428,0,0,5,5,28.1428,28.1428,-21.9047,-0.403184,18.6753,-0.28242,0.0427194,0.109071,0,1,1.05,-0.5775,-0.5425,-0.330986,0.427488,-0.832772,-0.04886,-0.07476,0.55412
13.1989,0,0,5,5,28.1989,28.1989,-21.9982,-0.714428,18.6743,-0.276988,0.0412261,0.108411,0,1,0.665,0.4025,-1.33,-0.330986,0.427488,-0.832772,-0.04886,-0.07476,0.55412
13.2015,0,0,5,5,28.2015,28.2015,-22.0026,-0.713964,18.6715,0.055632,-0.127502,0.124489,1,1,1.085,0.8225,-1.715,0.00305,0.259006,-0.81679,-0.04886,-0.07476,0.55412
13.2039,0,0,5,5,28.2039,28.2039,-22.0065,-0.713983,18.6685,0.0556323,-0.127565,0.124464,1,1,1.33,0.595,-1.9075,0.00305,0.259006,-0.81679,-0.04886,-0.07476,0.55412
13.3607,0,0,5,5,28.3607,28.3607,-22.2678,-0.552353,18.6682,0.163728,0.261935,0.0493737,0,1,0.8575,0.8225,-1.9425,0.114436,0.652334,-0.889624,-0.04858,-0.07434,0.55454
13.364,0,0,5,5,28.364,28.364,-22.2733,-0.553534,18.6653,0.125845,-0.132256,0.166261,1,1,0.455,-0.0525,-2.1,0.076372,0.25864,-0.773602,-0.04858,-0.07434,0.55454
13.3678,0,0,5,5,28.3678,28.3678,-22.2796,-0.554048,18.6627,0.125854,-0.132359,0.166219,1,1,-0.0175,0.2625,-1.8375,0.076372,0.25864,-0.773602,-0.04858,-0.07434,0.55454
13.372,0,0,5,5,28.372,28.372,-22.2867,-0.554856,18.6606,0.148221,0.123139,0.216458,1,1,-0.42,-0.0175,-1.61,0.09882,0.513986,-0.723704,-0.04858,-0.07434,0.55454
13.3766,0,0,5,5,28.3766,28.3766,-22.2943,-0.555448,18.659,0.148232,0.123016,0.216408,1,1,-0.735,-0.0175,-1.2775,0.09882,0.513986,-0.723704,-0.04858,-0.07434,0.55454
13.3819,0,0,5,5,28.3819,28.3819,-22.3031,-0.555576,18.6578,-0.0895135,0.0580246,0.288274,1,1,-1.3825,0.14,-0.945,-0.139934,0.449204,-0.652334,-0.04858,-0.07434,0.55454
13.3869,0,0,5,5,28.3869,28.3869,-22.3115,-0.554467,18.6572,-0.0895328,0.0578887,0.288219,1,1,-1.1725,0.7,-0.4025,-0.139934,0.449204,-0.652334,-0.04858,-0.07434,0.55454
13.3916,0,0,5,5,28.3916,28.3916,-22.3193,-0.553377,18.6568,0.219872,-0.0483648,0.217226,1,1,-0.805,0.63,-0.2625,0.1708,0.343186,-0.722728,-0.04858,-0.07434,0.55454
13.396,0,0,5,5,28.396,28.396,-22.3267,-0.552026,18.6574,0.219849,-0.0484848,0.217177,1,1,-0.6125,0.5425,0.35,0.1708,0.343186,-0.722728,-0.04732,-0.07224,0.54936
13.4001,0,0,5,5,28.4001,28.4001,-22.3335,-0.552004,18.6585,0.184739,-0.0290538,0.388892,1,1,-0.245,-0.2625,0.2625,0.135542,0.362706,-0.552294,-0.04732,-0.07224,0.54936
13.4045,0,0,5,5,28.4045,28.4045,-22.3409,-0.551426,18.659,0.0133125,0.0753672,-0.123853,1,1,-0.595,0.14,0.14,-0.0366,0.467138,-1.06103,-0.04732,-0.07224,0.54936
13.4096,0,0,5,5,28.4096,28.4096,-22.3493,-0.551293,18.6595,0.0133102,0.0752318,-0.123908,1,1,-1.155,-0.07,-0.035,-0.0366,0.467138,-1.06103,-0.04732,-0.07224,0.54936
13.4656,0,0,5,5,28.4656,28.4656,-22.4426,-0.26256,18.6599,0.280277,0.0765204,0.0288206,0,1,-1.5925,0.2625,-0.245,0.236558,0.469944,-0.9089,-0.04732,-0.07224,0.54936
13.5213,0,0,5,5,28.5213,28.5213,-22.5355,0.0204815,18.6588,0.275337,0.0750191,0.0282104,0,1,-2.24,0.2275,-0.9625,0.236558,0.469944,-0.9089,-0.04732,-0.07224,0.54936
13.5285,0,0,5,5,28.5285,28.5285,-22.5475,0.0212939,18.657,0.222841,0.201105,0.521891,1,1,-3.1675,0.805,-1.1025,0.183854,0.596092,-0.418948,-0.04732,-0.07224,0.54936
13.535,0,0,5,5,28.535,28.535,-22.5583,0.0221635,18.6553,-0.408535,-0.100234,-0.406565,1,1,-2.5375,0.805,-1.015,-0.45018,0.29524,-1.34017,-0.04732,-0.07224,0.54936
13.5415,0,0,5,5,28.5415,28.5415,-22.5691,0.0237066,18.6541,-0.408562,-0.100408,-0.406638,1,1,-2.5025,1.05,-0.5775,-0.45018,0.29524,-1.34017,-0.04942,-0.07868,0.55272
13.5478,0,0,5,5,28.5478,28.5478,-22.5797,0.0247942,18.653,0.290691,0.315629,-0.132164,1,1,-2.38,0.805,-0.6825,0.252052,0.711016,-1.06774,-0.04942,-0.07868,0.55272
13.5546,0,0,5,5,28.5546,28.5546,-22.5909,0.0251072,18.6523,0.290685,0.315448,-0.13224,1,1,-2.765,0.2625,-0.56,0.252052,0.711016,-1.06774,-0.04942,-0.07868,0.55272
13.5804,0,0,5,5,28.5804,28.5804,-22.6341,0.129098,18.6521,0.0898769,-8.88186e-05,0.0710711,0,1,-3.08,0.735,-0.105,0.052216,0.3965,-0.865712,-0.04942,-0.07868,0.55272
13.6482,0,0,5,5,28.6482,28.6482,-22.747,0.30608,18.6517,0.157614,0.0645341,0.0823489,0,1,-2.9925,1.19,0.21,0.123342,0.462868,-0.853756,-0.04942,-0.07868,0.55272
13.7156,0,0,5,5,28.7156,28.7156,-22.8593,0.47877,18.6514,0.1546,0.062735,0.0815701,0,1,-3.7975,0.5075,0.2275,0.123342,0.462868,-0.853756,-0.04942,-0.07868,0.55272
13.6069,0,0,5,5,28.6069,28.6069,-22.6782,0.42675,18.6534,-0.0501672,-0.173477,-0.0567463,0,1,-3.5175,0.5775,0.21,-0.083204,0.223992,-0.992226,-0.04942,-0.07868,0.55272
13.4995,0,0,5,5,28.4995,28.4995,-22.4992,0.374404,18.6554,-0.0492536,-0.170595,-0.0555404,0,1,-2.8525,-0.1925,0.1225,-0.083204,0.223992,-0.992226,-0.04942,-0.07868,0.55272
13.6029,0,0,5,5,28.6029,28.6029,-22.6715,0.493943,18.6546,0.113516,0.141843,0.0575091,0,1,-3.115,0.245,0.07,0.08235,0.538874,-0.878888,-0.04536,-0.08274,0.54628
13.6089,0,0,5,5,28.6089,28.6089,-22.6816,0.493919,18.6548,-0.131156,-0.112465,-0.146038,1,1,-2.1,-0.105,-0.1925,-0.163358,0.284992,-1.0808,-0.04536,-0.08274,0.54628
13.8613,0,0,5,5,28.8613,28.8613,-23.1021,0.791428,18.65,0.290431,0.335352,0.235513,0,1,-2.765,-0.0525,-0.4025,0.265228,0.739076,-0.699304,-0.04536,-0.08274,0.54628
14.1103,0,0,5,5,29.1103,29.1103,-23.5172,1.08326,18.6417,0.285339,0.328734,0.23257,0,1,-3.4475,-0.105,-1.435,0.265228,0.739076,-0.699304,-0.04536,-0.08274,0.54628
14.1586,0,0,5,5,29.1586,29.1586,-23.5977,1.27363,18.6377,0.199042,0.0939659,-0.0409999,0,1,-3.5525,-0.035,-1.8725,0.181902,0.505812,-0.970144,-0.04536,-0.08274,0.54628
14.2072,0,0,5,5,29.2072,29.2072,-23.6786,1.46175,18.6326,0.19576,0.092705,-0.0416373,0,1,-4.4975,0.875,-2.17,0.181902,0.505812,-0.970144,-0.04536,-0.08274,0.54628
14.1672,0,0,5,5,29.1672,29.1672,-23.6119,1.50872,18.6309,0.0495219,-0.0463004,-0.0979925,0,1,-4.2525,0.7175,-2.345,0.035868,0.365878,-1.02651,-0.04536,-0.08274,0.54628
14.0868,0,0,5,5,29.0868,29.0868,-23.478,1.56922,18.6316,0.047616,-0.158946,0.0509451,0,1,-4.375,1.0675,-1.9075,0.035014,0.251198,-0.87962,-0.05348,-0.08568,0.5453
14.1327,0,0,5,5,29.1327,29.1327,-23.5544,1.62182,18.6274,0.047913,0.0451362,0.0425206,0,1,-3.675,0.5425,-1.5575,0.036234,0.45628,-0.887428,-0.05348,-0.08568,0.5453
14.1772,0,0,5,5,29.1772,29.1772,-23.6287,1.67351,18.6248,0.0470112,0.0439591,0.0419783,0,1,-3.255,0.21,-0.7175,0.036234,0.45628,-0.887428,-0.05348,-0.08568,0.5453
14.1846,0,0,5,5,29.1846,29.1846,-23.641,1.67477,18.6244,0.124497,-0.124406,0.320001,1,1,-3.3425,0.7175,-0.21,0.11407,0.288286,-0.611464,-0.05348,-0.08568,0.5453
14.1923,0,0,5,5,29.1923,29.1923,-23.6539,1.67591,18.6249,0.124477,-0.124611,0.319911,1,1,-3.675,0.455,0.2275,0.11407,0.288286,-0.611464,-0.05348,-0.08568,0.5453
14.2011,0,0,5,5,29.2011,29.2011,-23.6685,1.67748,18.6258,0.185071,0.113302,-0.131045,1,1,-4.69,0.5775,0.56,0.174948,0.526186,-1.05884,-0.05348,-0.08568,0.5453
14.2437,0,0,5,5,29.2437,29.2437,-23.7394,1.77556,18.6254,0.102815,0.0844678,-0.0527793,0,1,-5.39,-0.14,0.49,0.094062,0.498492,-0.980636,-0.05348,-0.08568,0.5453
14.2852,0,0,5,5,29.2852,29.2852,-23.8086,1.87162,18.6246,0.101139,0.0833848,-0.0533147,0,1,-5.1625,-0.1575,0.21,0.094062,0.498492,-0.980636,-0.05348,-0.08568,0.5453
14.2941,0,0,5,5,29.2941,29.2941,-23.8234,1.87158,18.6254,0.215458,-0.0564426,0.132356,1,1,-4.7775,-0.2625,0.14,0.208864,0.359046,-0.796294,-0.04956,-0.08274,0.54292
14.3578,0,0,5,5,29.3578,29.3578,-23.9297,1.65149,18.6229,-0.212948,0.0876344,0.0281914,0,1,-2.94,-0.28,-0.1575,-0.225212,0.504714,-0.899018,-0.04956,-0.08274,0.54292
14.4205,0,0,5,5,29.4205,29.4205,-24.0341,1.43546,18.6203,-0.209179,0.0859278,0.0275433,0,1,-3.0275,-0.0875,-0.42,-0.225212,0.504714,-0.899018,-0.04956,-0.08274,0.54292
14.4911,0,0,5,5,29.4911,29.4911,-24.1519,1.62161,18.6166,0.179972,0.0906826,0.0445761,0,1,-3.5175,-0.245,-0.9275,0.168848,0.511302,-0.881206,-0.04956,-0.08274,0.54292
14.5616,0,0,5,5,29.5616,29.5616,-24.2694,1.80601,18.6112,0.176755,0.0888521,0.0436475,0,1,-4.55,0.9625,-1.295,0.168848,0.511302,-0.881206,-0.04956,-0.08274,0.54292
14.6518,0,0,5,5,29.6518,29.6518,-24.4197,1.94364,18.6049,0.129283,0.107013,0.0689292,0,1,-5.705,0.49,-1.26,0.123586,0.531798,-0.854976,-0.04956,-0.08274,0.54292
14.7413,0,0,5,5,29.7413,29.7413,-24.5688,2.07861,18.5987,0.126928,0.104682,0.0677759,0,1,-6.545,0.35,-1.1725,0.123586,0.531798,-0.854976,-0.04956,-0.08274,0.54292
14.789,0,0,5,5,29.789,29.789,-24.6483,2.08181,18.5948,0.005387,0.076187,-0.0194822,0,1,-6.23,0.1225,-1.2425,0.001586,0.504592,-0.940986,-0.05152,-0.07826,0.53186
14.7308,0,0,5,5,29.7308,29.7308,-24.5513,2.0201,18.5976,-0.0591389,-0.0949781,-0.0507096,0,1,-5.0575,0.5075,-0.875,-0.064294,0.332084,-0.972706,-0.05152,-0.07826,0.53186
14.6725,0,0,5,5,29.6725,29.6725,-24.4542,1.96034,18.601,-0.0580964,-0.0934522,-0.0499743,0,1,-4.025,0.735,-0.21,-0.064294,0.332084,-0.972706,-0.05152,-0.07826,0.53186
14.7101,0,0,5,5,29.7101,29.7101,-24.5168,1.98512,18.5995,0.0183717,0.011444,0.0775489,0,1,-4.3575,0.6475,0.14,0.012932,0.437858,-0.845704,-0.05152,-0.07826,0.53186
14.7479,0,0,5,5,29.7479,29.7479,-24.5799,2.00979,18.5986,0.0179414,0.0104496,0.0770783,0,1,-5.2675,0.7,0.5075,0.012932,0.437858,-0.845704,-0.05152,-0.07826,0.53186
14.7456,0,0,5,5,29.7456,29.7456,-24.5761,2.3485,18.6003,0.333485,-0.0274998,0.00964872,0,1,-6.055,0.525,0.595,0.335744,0.399794,-0.912438,-0.05152,-0.07826,0.53186
14.744,0,0,5,5,29.744,29.744,-24.5734,2.67971,18.6015,0.32771,-0.027352,0.00943748,0,1,-6.65,-0.175,-0.14,0.335744,0.399794,-0.912438,-0.05152,-0.07826,0.53186
14.765,0,0,5,5,29.765,29.765,-24.6083,2.71022,18.6007,0.0286879,0.0105755,0.0162927,0,1,-6.0025,-0.385,-0.4025,0.03599,0.438224,-0.905362,-0.05152,-0.07826,0.53186
14.7836,0,0,5,5,29.7836,29.7836,-24.6393,2.73938,18.5996,0.0281794,0.0100932,0.016045,0,1,-4.2175,-0.7,-0.805,0.03599,0.438224,-0.905362,-0.04998,-0.0777,0.5418
14.7439,0,0,5,5,29.7439,29.7439,-24.5731,2.58028,18.6022,-0.146902,-0.0801393,-0.000569789,0,1,-3.71,-0.5075,-1.225,-0.142618,0.34709,-0.922442,-0.04998,-0.0777,0.5418
14.7057,0,0,5,5,29.7057,29.7057,-24.5096,2.42371,18.6037,-0.144172,-0.0791809,-1.04784e-06,0,1,-4.515,-0.5075,-1.6975,-0.142618,0.34709,-0.922442,-0.04998,-0.0777,0.5418
14.715,0,0,5,5,29.715,29.715,-24.525,2.42239,18.6016,0.00491417,0.169834,-0.105725,1,1,-5.0575,-0.2275,-1.75,0.007076,0.596092,-1.02724,-0.04998,-0.0777,0.5418
14.7254,0,0,5,5,29.7254,29.7254,-24.5423,2.42297,18.5993,0.00490416,0.169559,-0.105851,1,1,-6.125,0.805,-1.3475,0.007076,0.596092,-1.02724,-0.04998,-0.0777,0.5418
14.7358,0,0,5,5,29.7358,29.7358,-24.5597,2.42376,18.5971,-0.272218,0.345269,-0.238638,1,1,-6.125,0.9275,-1.3125,-0.271206,0.771894,-1.15888,-0.04998,-0.0777,0.5418
14.747,0,0,5,5,29.747,29.747,-24.5784,2.42349,18.5954,-0.272214,0.344973,-0.238773,1,1,-6.8775,0.2275,-1.26,-0.271206,0.771894,-1.15888,-0.04998,-0.0777,0.5418
14.6516,0,0,5,5,29.6516,29.6516,-24.4193,2.34176,18.6018,-0.0761685,-0.166315,-0.024008,0,1,-6.0025,-0.21,-0.9275,-0.075762,0.25864,-0.946964,-0.04998,-0.0777,0.5418
14.5572,0,0,5,5,29.5572,29.5572,-24.262,2.26262,18.6078,-0.0747883,-0.163838,-0.0228264,0,1,-5.32,0.42,-0.7,-0.075762,0.25864,-0.946964,-0.04998,-0.0777,0.5418
14.5673,0,0,5,5,29.5673,29.5673,-24.2788,2.26334,18.6076,-0.179886,-0.118674,0.115739,1,1,-5.8625,0.4025,-0.2625,-0.181292,0.304024,-0.809348,-0.04774,-0.08134,0.53354
14.4836,0,0,5,5,29.4836,29.4836,-24.1394,2.31536,18.614,0.0397033,-0.165659,0.0361711,0,1,-6.5975,0.6825,0.105,0.040138,0.254858,-0.889258,-0.04774,-0.08134,0.53354
14.4029,0,0,5,5,29.4029,29.4029,-24.0048,2.36625,18.6203,0.0388159,-0.163502,0.0370951,0,1,-7.8925,0.6125,0,0.040138,0.254858,-0.889258,-0.04774,-0.08134,0.53354
14.4148,0,0,5,5,29.4148,29.4148,-24.0247,2.36644,18.6199,-0.0734402,-0.0796721,0.17355,1,1,-7.56,0.14,-0.4375,-0.07259,0.338916,-0.753716,-0.04774,-0.08134,0.53354
14.4243,0,0,5,5,29.4243,29.4243,-24.0405,2.36655,18.6198,-0.0734422,-0.079924,0.173438,1,1,-5.32,0.035,-0.315,-0.07259,0.338916,-0.753716,-0.04774,-0.08134,0.53354
14.6214,0,0,5,5,29.6214,29.6214,-24.369,2.88707,18.6054,0.48227,0.182358,0.317141,0,1,-4.4975,0.1225,-0.1925,0.494588,0.605974,-0.608414,-0.04774,-0.08134,0.53354
14.8143,0,0,5,5,29.8143,29.8143,-24.6905,3.39909,18.5871,0.473347,0.177464,0.314369,0,1,-3.1325,0.0875,-1.05,0.494588,0.605974,-0.608414,-0.04774,-0.08134,0.53354
14.7819,0,0,5,5,29.7819,29.7819,-24.6364,3.74275,18.5894,0.334698,-0.0817761,0.0175022,0,1,-4.34,0.1925,-1.435,0.361364,0.345992,-0.903044,-0.04774,-0.08134,0.53354
14.7521,0,0,5,5,29.7521,29.7521,-24.5868,4.08065,18.5907,0.328814,-0.0808228,0.0174963,0,1,-6.2825,0.595,-2.0475,0.361364,0.345992,-0.903044,-0.0497,-0.07756,0.54054
14.7757,0,0,5,5,29.7757,29.7757,-24.6262,4.07049,18.5866,-0.0070383,0.0378669,-0.0356453,0,1,-7.1575,0.7875,-1.6625,0.023912,0.465186,-0.955504,-0.0497,-0.07756,0.54054
14.7998,0,0,5,5,29.7998,29.7998,-24.6664,4.05985,18.5833,-0.00685318,0.0372249,-0.0359254,0,1,-8.085,0.245,-1.4,0.023912,0.465186,-0.955504,-0.0497,-0.07756,0.54054
14.7619,0,0,5,5,29.7619,29.7619,-24.6031,3.53201,18.5876,-0.519077,-0.110168,0.0474636,0,1,-7.21,-0.2975,-1.2075,-0.499712,0.3172,-0.873764,-0.0497,-0.07756,0.54054
14.7207,0,0,5,5,29.7207,29.7207,-24.5345,3.01388,18.5924,-0.510049,-0.109295,0.0484302,0,1,-3.6575,0.14,-0.1575,-0.499712,0.3172,-0.873764,-0.0497,-0.07756,0.54054
14.7276,0,0,5,5,29.7276,29.7276,-24.546,3.01455,18.5929,-0.24182,-0.252121,0.171418,1,1,-2.905,0.1925,0.1225,-0.230336,0.174704,-0.751642,-0.0497,-0.07756,0.54054
14.7351,0,0,5,5,29.7351,29.7351,-24.5585,3.01399,18.5942,-0.241811,-0.25232,0.171328,1,1,-3.5175,-0.665,0.2625,-0.230336,0.174704,-0.751642,-0.0497,-0.07756,0.54054
14.7444,0,0,5,5,29.7444,29.7444,-24.574,3.0142,18.5953,0.0146419,-0.0648559,0.157445,1,1,-5.145,-0.21,0.3675,0.027206,0.362218,-0.765306,-0.0497,-0.07756,0.54054
14.7563,0,0,5,5,29.7563,29.7563,-24.5939,3.01532,18.5961,0.0146225,-0.0651714,0.1573,1,1,-7.6475,0.3675,0.3675,0.027206,0.362218,-0.765306,-0.03948,-0.07868,0.5432
14.9039,0,0,5,5,29.9039,29.9039,-24.8398,3.15458,18.5841,0.136354,0.198448,0.0968659,0,1,-8.54,0.49,0.0175,0.15189,0.629398,-0.823378,-0.03948,-0.07868,0.5432
15.0473,0,0,5,5,30.0473,30.0473,-25.0788,3.29059,18.5718,0.133984,0.194729,0.0949874,0,1,-7.0875,0.105,-0.175,0.15189,0.629398,-0.823378,-0.03948,-0.07868,0.5432
15.0561,0,0,5,5,30.0561,30.0561,-25.0936,3.29009,18.5723,0.248918,0.531199,0.257417,1,1,-4.7425,-0.455,-0.1225,0.267302,0.965752,-0.662094,-0.03948,-0.07868,0.5432
15.0616,0,0,5,5,30.0616,30.0616,-25.1026,3.28892,18.5722,0.248938,0.531055,0.257351,1,1,-1.54,-0.63,-0.665,0.267302,0.965752,-0.662094,-0.03948,-0.07868,0.5432
15.0675,0,0,5,5,30.0675,30.0675,-25.1125,3.28754,18.5715,0.445891,0.0124716,-0.0152975,1,1,-1.9425,-0.6125,-0.98,0.465064,0.447862,-0.932568,-0.03948,-0.07868,0.5432
15.0759,0,0,5,5,30.0759,30.0759,-25.1265,3.28826,18.5689,0.445878,0.0122506,-0.015402,1,1,-4.235,0.98,-1.4875,0.465064,0.447862,-0.932568,-0.03948,-0.07868,0.5432
15.0858,0,0,5,5,30.0858,30.0858,-25.143,3.29034,18.5659,0.426647,0.131186,-0.0263458,1,1,-5.635,1.82,-1.4,0.445788,0.566934,-0.943304,-0.03948,-0.07868,0.5432
15.0984,0,0,5,5,30.0984,30.0984,-25.164,3.29245,18.5634,0.42661,0.130856,-0.0265029,1,1,-8.12,1.68,-1.0675,0.445788,0.566934,-0.943304,-0.0462,-0.0742,0.53886
15.2321,0,0,5,5,30.2321,30.2321,-25.3868,3.13803,18.5499,-0.147148,0.147554,0.127014,0,1,-7.28,1.0675,-1.1375,-0.133102,0.587186,-0.789462,-0.0462,-0.0742,0.53886
15.36,0,0,5,5,30.36,30.36,-25.6,2.98631,18.5376,-0.144504,0.14414,0.125543,0,1,-4.13,0.9625,-0.875,-0.133102,0.587186,-0.789462,-0.0462,-0.0742,0.53886
15.249,0,0,5,5,30.249,30.249,-25.415,3.2343,18.547,0.226565,-0.198712,-0.0085241,0,1,-2.275,1.295,-0.4375,0.243878,0.241682,-0.923662,-0.0462,-0.0742,0.53886
15.1391,0,0,5,5,30.1391,30.1391,-25.2318,3.47594,18.5584,0.222355,-0.195723,-0.00738255,0,1,-1.6275,-0.1225,-0.21,0.243878,0.241682,-0.923662,-0.0462,-0.0742,0.53886
15.0074,0,0,5,5,30.0074,30.0074,-25.0124,3.25065,18.5722,-0.215807,-0.21715,-0.0462461,0,1,-2.17,-0.0175,-0.1225,-0.20008,0.216916,-0.964044,-0.0462,-0.0742,0.53886
14.8814,0,0,5,5,29.8814,29.8814,-24.8024,3.02905,18.5844,-0.211945,-0.21392,-0.0445126,0,1,-5.285,0.0175,-0.4025,-0.20008,0.216916,-0.964044,-0.0462,-0.0742,0.53886
14.9087,0,0,5,5,29.9087,29.9087,-24.8478,2.74074,18.5819,-0.282605,0.0226699,0.0148919,0,1,-6.3175,0.21,-0.91,-0.276086,0.454084,-0.904996,-0.0462,-0.0742,0.53886
14.9336,0,0,5,5,29.9336,29.9336,-24.8893,2.45669,18.5796,-0.277652,0.0219187,0.0147915,0,1,-4.585,-0.21,-1.0675,-0.276086,0.454084,-0.904996,-0.04186,-0.07854,0.53102
14.981,0,0,5,5,29.981,29.981,-24.9683,2.74904,18.5753,0.251545,-0.00463525,0.147154,0,1,-3.535,-0.5425,-1.365,0.26047,0.428708,-0.77287,-0.04186,-0.07854,0.53102
15.0247,0,0,5,5,30.0247,30.0247,-25.0412,3.03582,18.5699,0.246546,-0.00568036,0.146388,0,1,-0.84,-0.63,-1.8725,0.26047,0.428708,-0.77287,-0.04186,-0.07854,0.53102
15.119,0,0,5,5,30.119,30.119,-25.1983,3.53126,18.5594,0.437393,0.032475,0.248177,0,1,-0.5425,-0.5425,-1.7675,0.460794,0.46909,-0.670268,-0.04186,-0.07854,0.53102
15.2133,0,0,5,5,30.2133,30.2133,-25.3556,4.01994,18.5474,0.428882,0.0302388,0.2465,0,1,-1.8725,0.0875,-1.68,0.460794,0.46909,-0.670268,-0.04186,-0.07854,0.53102
15.2446,0,0,5,5,30.2446,30.2446,-25.4077,4.34211,18.5423,0.269352,-0.0368419,0.157587,0,1,-3.29,0.42,-1.47,0.30622,0.402722,-0.757742,-0.04186,-0.07854,0.53102
15.2765,0,0,5,5,30.2765,30.2765,-25.4609,4.65989,18.5374,0.263822,-0.0374914,0.156796,0,1,-4.41,0.9275,-0.98,0.30622,0.402722,-0.757742,-0.04186,-0.07854,0.53102
15.3138,0,0,5,5,30.3138,30.3138,-25.523,4.51116,18.5323,-0.142632,0.0255614,0.047586,0,1,-4.62,1.225,-0.595,-0.104554,0.466772,-0.865834,-0.04186,-0.07854,0.53102
15.3488,0,0,5,5,30.3488,30.3488,-25.5813,4.36514,18.5281,-0.140091,0.0245611,0.0473264,0,1,-3.185,1.0675,-0.175,-0.104554,0.466772,-0.865834,-0.04186,-0.07854,0.53102
15.1355,0,0,5,5,30.1355,30.1355,-25.2258,4.28889,18.5563,-0.0797223,-0.349342,-0.0112805,0,1,-2.0825,0.9275,0.6125,-0.045262,0.087718,-0.926712,-0.04214,-0.0812,0.52794
15.0267,0,0,5,5,30.0267,30.0267,-25.0446,4.16653,18.5721,-0.120234,-0.167271,-0.0795099,0,1,-1.54,-0.175,0.7875,-0.088084,0.266814,-0.995886,-0.04214,-0.0812,0.52794
14.9209,0,0,5,5,29.9209,29.9209,-24.8682,4.04539,18.5873,-0.118125,-0.164551,-0.0780769,0,1,-2.415,-0.63,0.5425,-0.088084,0.266814,-0.995886,-0.04214,-0.0812,0.52794
14.8352,0,0,5,5,29.8352,29.8352,-24.7254,4.11053,18.5999,0.0615114,-0.141498,-0.0468622,0,1,-2.975,-0.4375,0.595,0.093452,0.287554,-0.965874,-0.04214,-0.0812,0.52794
14.7507,0,0,5,5,29.7507,29.7507,-24.5844,4.176,18.6124,0.0603718,-0.139234,-0.045914,0,1,-2.625,0.4025,0.8925,0.093452,0.287554,-0.965874,-0.04214,-0.0812,0.52794
14.8236,0,0,5,5,29.8236,29.8236,-24.706,4.03407,18.6055,-0.1336,0.0656518,0.101764,0,1,-0.9625,-0.07,0.5075,-0.103822,0.494222,-0.81862,-0.04214,-0.0812,0.52794
14.8938,0,0,5,5,29.8938,29.8938,-24.823,3.89446,18.5985,-0.131169,0.063731,0.101063,0,1,0.35,-0.0175,0.1225,-0.103822,0.494222,-0.81862,-0.04214,-0.0812,0.52794
14.8959,0,0,5,5,29.8959,29.8959,-24.8265,3.89447,18.5992,0.394621,-0.0180281,-0.0281816,1,1,1.5225,-0.21,0.07,0.424194,0.412604,-0.946842,-0.04214,-0.0812,0.52794
14.8982,0,0,5,5,29.8982,29.8982,-24.8303,3.89465,18.5996,0.394618,-0.0180866,-0.0282089,1,1,1.4525,-0.0525,-0.035,0.424194,0.412604,-0.946842,-0.04802,-0.07756,0.53354
15.1561,0,0,5,5,30.1561,30.1561,-25.2601,4.27496,18.5695,0.384474,0.337195,0.303967,0,1,-1.19,-0.035,-0.315,0.420656,0.77409,-0.61366,-0.04802,-0.07756,0.53354
15.4108,0,0,5,5,30.4108,30.4108,-25.6846,4.65051,18.5369,0.377939,0.330746,0.30033,0,1,-1.575,0.6475,-0.105,0.420656,0.77409,-0.61366,-0.04802,-0.07756,0.53354
15.4176,0,0,5,5,30.4176,30.4176,-25.696,4.65235,18.5371,0.49587,0.0544411,-0.088521,1,1,-2.8175,0.8925,0.245,0.539118,0.498248,-0.999424,-0.04802,-0.07756,0.53354
15.4237,0,0,5,5,30.4237,30.4237,-25.7062,4.6542,18.5371,0.495838,0.054282,-0.0886005,1,1,-2.1875,0.91,0.21,0.539118,0.498248,-0.999424,-0.04802,-0.07756,0.53354
15.4283,0,0,5,5,30.4283,30.4283,-25.7138,4.65668,18.5376,0.147981,0.158094,0.283012,1,1,-0.735,1.155,0.56,0.189832,0.60207,-0.630618,-0.04802,-0.07756,0.53354
15.4363,0,0,5,5,30.4363,30.4363,-25.7272,4.65714,18.5387,0.147973,0.157884,0.28291,1,1,-4.025,-0.0875,0.4025,0.189832,0.60207,-0.630618,-0.04802,-0.07756,0.53354
15.4413,0,0,5,5,30.4413,30.4413,-25.7354,4.65737,18.5397,-0.177248,0.080571,0.171456,1,1,-1.12,-0.175,0.28,-0.136762,0.524966,-0.74115,-0.04802,-0.07756,0.53354
15.4462,0,0,5,5,30.4462,30.4462,-25.7437,4.65803,18.5398,-0.17726,0.0804417,0.171393,1,1,-1.1025,0.2625,-0.0525,-0.136762,0.524966,-0.74115,-0.04648,-0.07616,0.53466
15.4371,0,0,5,5,30.4371,30.4371,-25.7285,4.54218,18.5422,-0.111464,-0.0327233,0.0168622,0,1,-1.19,0.2275,0.105,-0.072712,0.41175,-0.894748,-0.04648,-0.07616,0.53466
15.4279,0,0,5,5,30.4279,30.4279,-25.7132,4.42616,18.5434,-0.109446,-0.032552,0.0171204,0,1,-0.9625,-0.7,-0.98,-0.072712,0.41175,-0.894748,-0.04648,-0.07616,0.53466
15.2787,0,0,5,5,30.2787,30.2787,-25.4645,4.49773,18.5623,0.0739674,-0.22914,-0.113391,0,1,0.35,-0.5425,-1.1025,0.112728,0.211426,-1.02602,-0.04648,-0.07616,0.53466
15.1308,0,0,5,5,30.1308,30.1308,-25.2181,4.56857,18.5805,0.0727348,-0.225223,-0.111644,0,1,1.505,-0.0525,-1.3125,0.112728,0.211426,-1.02602,-0.04648,-0.07616,0.53466
15.132,0,0,5,5,30.132,30.132,-25.2201,4.56764,18.5788,-0.0612477,-0.0585521,-0.287843,1,1,2.5025,-0.1225,-1.4175,-0.021838,0.377956,-1.20085,-0.04648,-0.07616,0.53466
15.1338,0,0,5,5,30.1338,30.1338,-25.2229,4.5678,18.5769,-0.0612505,-0.058597,-0.287865,1,1,2.03,0.525,-1.2775,-0.021838,0.377956,-1.20085,-0.04648,-0.07616,0.53466
15.1351,0,0,5,5,30.1351,30.1351,-25.2252,4.56813,18.575,-0.532378,0.0239257,-0.294152,1,1,2.38,0.595,-1.2075,-0.494954,0.460428,-1.20707,-0.04648,-0.07616,0.53466
15.138,0,0,5,5,30.138,30.138,-25.23,4.56794,18.5733,-0.532374,0.0238489,-0.294188,1,1,0.8925,0.28,-1.2425,-0.494954,0.460428,-1.20707,-0.04242,-0.0742,0.53158
14.9357,0,0,5,5,29.9357,29.9357,-24.8928,4.19817,18.5978,-0.391333,-0.336447,-0.128225,0,1,0.2275,0.56,-1.1375,-0.359778,0.095404,-1.0453,-0.04242,-0.0742,0.53158
14.7369,0,0,5,5,29.7369,29.7369,-24.5615,3.83494,18.6206,-0.38501,-0.331393,-0.125409,0,1,0.0175,0.8225,-0.455,-0.359778,0.095404,-1.0453,-0.04242,-0.0742,0.53158
14.7407,0,0,5,5,29.7407,29.7407,-24.5679,3.83525,18.6202,-0.0520226,0.340447,-0.0041055,1,1,-0.0175,0.21,-0.42,-0.025376,0.766648,-0.924882,-0.04242,-0.0742,0.53158
14.7449,0,0,5,5,29.7449,29.7449,-24.5749,3.83457,18.6202,-0.0520108,0.340336,-0.00415558,1,1,-0.385,-0.4025,-0.4725,-0.025376,0.766648,-0.924882,-0.04242,-0.0742,0.53158
14.6329,0,0,5,5,29.6329,29.6329,-24.3882,4.31895,18.6327,0.462066,-0.236193,0.0710282,0,1,1.6625,0.8575,-0.5075,0.499346,0.187514,-0.851072,-0.04242,-0.0742,0.53158
14.5213,0,0,5,5,29.5213,29.5213,-24.2022,4.79544,18.6473,0.453777,-0.232972,0.0717571,0,1,2.7125,0.5075,-0.245,0.499346,0.187514,-0.851072,-0.04242,-0.0742,0.53158
14.5216,0,0,5,5,29.5216,29.5216,-24.2027,4.79654,18.647,-0.202265,-0.00338137,0.275969,1,1,3.2725,0.6125,-0.1925,-0.159454,0.416874,-0.64843,-0.04242,-0.0742,0.53158
14.5206,0,0,5,5,29.5206,29.5206,-24.201,4.79532,18.6467,-0.202244,-0.00335508,0.275983,1,1,4.515,-0.63,-0.735,-0.159454,0.416874,-0.64843,-0.04872,-0.07644,0.5348
14.6107,0,0,5,5,29.6107,29.6107,-24.3511,4.67629,18.6337,-0.119264,0.181904,-0.0149691,0,1,3.9025,-0.105,-0.7175,-0.078202,0.604388,-0.936228,-0.04872,-0.07644,0.5348
14.7005,0,0,5,5,29.7005,29.7005,-24.5008,4.55917,18.6208,-0.117227,0.179464,-0.0158963,0,1,2.6075,-0.105,-0.9275,-0.078202,0.604388,-0.936228,-0.04872,-0.07644,0.5348
14.7905,0,0,5,5,29.7905,29.7905,-24.6508,4.73932,18.6072,0.177279,0.127125,0.0775799,0,1,3.3775,0.595,-0.9275,0.220698,0.554368,-0.842166,-0.04872,-0.07644,0.5348
14.88,0,0,5,5,29.88,29.88,-24.8,4.91554,18.5951,0.174215,0.124877,0.0762596,0,1,2.345,-0.2275,-0.21,0.220698,0.554368,-0.842166,-0.04872,-0.07644,0.5348
14.7351,0,0,5,5,29.7351,29.7351,-24.5586,5.03657,18.617,0.133599,-0.214652,-0.14801,0,1,2.835,-0.56,0.0175,0.182024,0.211304,-1.06628,-0.04872,-0.07644,0.5348
14.5922,0,0,5,5,29.5922,29.5922,-24.3204,5.1559,18.6392,0.131525,-0.210807,-0.146466,0,1,3.2725,-0.3325,0.21,0.182024,0.211304,-1.06628,-0.04872,-0.07644,0.5348
14.5929,0,0,5,5,29.5929,29.5929,-24.3216,5.15663,18.64,-0.0303068,-0.018475,-0.231064,1,1,2.8525,0.1575,0.28,0.01952,0.403454,-1.15022,-0.04872,-0.07644,0.5348
14.5956,0,0,5,5,29.5956,29.5956,-24.326,5.15593,18.6418,-0.0302947,-0.0185459,-0.231095,1,1,0.9625,-0.8575,0.5075,0.01952,0.403454,-1.15022,-0.04564,-0.07602,0.53438
14.599,0,0,5,5,29.599,29.599,-24.3316,5.06419,18.6407,-0.0961245,0.027226,-0.0537132,0,1,1.9425,3.78,0.8575,-0.04819,0.449326,-0.974292,-0.04564,-0.07602,0.53438
14.6023,0,0,5,5,29.6023,29.6023,-24.3371,4.97407,18.6396,-0.0945576,0.0270819,-0.0536273,0,1,1.9425,3.78,0.8575,-0.04819,0.449326,-0.974292,-0.04564,-0.07602,0.53438
14.5045,0,0,5,5,29.5045,29.5045,-24.1742,5.4339,18.6525,0.464545,-0.193651,0.0186742,0,1,3.7625,4.375,0.56,0.521306,0.225944,-0.903044,-0.04564,-0.07602,0.53438
14.4082,0,0,5,5,29.4082,29.4082,-24.0136,5.88648,18.6666,0.456685,-0.190787,0.0191016,0,1,3.7625,4.375,0.56,0.521306,0.225944,-0.903044,-0.04564,-0.07602,0.53438
14.4889,0,0,5,5,29.4889,29.4889,-24.1482,6.16389,18.6528,0.28264,0.116269,0.0821101,0,1,5.0925,-0.385,-0.07,0.35136,0.534604,-0.839116,-0.04564,-0.07602,0.53438
14.5683,0,0,5,5,29.5683,29.5683,-24.2805,6.43657,18.6385,0.27791,0.114389,0.080692,0,1,5.0925,-0.385,-0.07,0.35136,0.534604,-0.839116,-0.04564,-0.07602,0.53438
14.5734,0,0,5,5,29.5734,29.5734,-24.2889,6.08784,18.6366,-0.357606,0.0203119,-0.0251134,0,1,3.395,0.595,-0.7175,-0.292922,0.44103,-0.944646,-0.04564,-0.07602,0.53438
14.5739,0,0,5,5,29.5739,29.5739,-24.2898,6.08899,18.6356,0.108515,-0.218704,-0.218766,1,1,3.0975,0.805,-0.5425,0.175192,0.202276,-1.1368,-0.04466,-0.07406,0.53662
14.574,0,0,5,5,29.574,29.574,-24.29,6.08864,18.635,0.108521,-0.218707,-0.218766,1,1,3.4825,-0.0875,-0.7,0.175192,0.202276,-1.1368,-0.04466,-0.07406,0.53662
14.5457,0,0,5,5,29.5457,29.5457,-24.2428,5.89137,18.6396,-0.194685,-0.0323523,-0.0442528,0,1,3.15,-0.28,-0.665,-0.132736,0.387838,-0.964288,-0.04466,-0.07406,0.53662
14.5179,0,0,5,5,29.5179,29.5179,-24.1964,5.69754,18.6439,-0.191319,-0.0317581,-0.043611,0,1,3.15,-0.28,-0.665,-0.132736,0.387838,-0.964288,-0.04466,-0.07406,0.53662
14.5217,0,0,5,5,29.5217,29.5217,-24.2028,5.69857,18.6429,-0.212233,-0.113072,0.150478,1,1,0.0525,0.735,-0.56,-0.15372,0.306708,-0.77165,-0.04466,-0.07406,0.53662
14.5258,0,0,5,5,29.5258,29.5258,-24.2096,5.69922,18.6421,0.280138,-0.182548,0.180919,1,1,-0.2625,0.49,-0.56,0.340746,0.237412,-0.741394,-0.04466,-0.07406,0.53662
14.5295,0,0,5,5,29.5295,29.5295,-24.2158,5.69856,18.6423,0.280149,-0.182646,0.180877,1,1,0.105,-0.4375,-0.3675,0.340746,0.237412,-0.741394,-0.04466,-0.07406,0.53662
14.4477,0,0,5,5,29.4477,29.4477,-24.0796,5.25005,18.6555,-0.439272,-0.152947,0.025152,0,1,3.885,-0.4375,-0.28,-0.389546,0.265228,-0.897554,-0.04466,-0.07406,0.53662
14.3657,0,0,5,5,29.3657,29.3657,-23.9428,4.80898,18.6675,-0.431604,-0.15105,0.0267359,0,1,5.5125,-0.2625,-0.1925,-0.389546,0.265228,-0.897554,-0.04704,-0.07336,0.53102
14.363,0,0,5,5,29.363,29.363,-23.9384,4.80788,18.6683,-0.289203,-0.190183,-0.306053,1,1,5.985,-0.8225,-0.14,-0.246562,0.226066,-1.22781,-0.04704,-0.07336,0.53102
14.3625,0,0,5,5,29.3625,29.3625,-23.9374,4.80724,18.6678,-0.289192,-0.190169,-0.306045,1,1,4.1125,-0.2625,-0.735,-0.246562,0.226066,-1.22781,-0.04704,-0.07336,0.53102
14.3629,0,0,5,5,29.3629,29.3629,-23.9382,4.80738,18.666,0.717436,-0.00637986,-0.123473,1,1,3.2025,0.455,-1.2075,0.76433,0.409676,-1.04664,-0.04704,-0.07336,0.53102
14.3641,0,0,5,5,29.3641,29.3641,-23.9401,4.80659,18.6642,0.717449,-0.0064108,-0.123485,1,1,2.555,-0.0525,-1.4175,0.76433,0.409676,-1.04664,-0.04704,-0.07336,0.53102
14.3661,0,0,5,5,29.3661,29.3661,-23.9435,4.80537,18.6625,-0.0102286,0.15401,-0.0787537,1,1,1.75,-0.2975,-1.4875,0.03355,0.569984,-1.00223,-0.04704,-0.07336,0.53102
14.3673,0,0,5,5,29.3673,29.3673,-23.9455,4.80404,18.6606,-0.0102055,0.153976,-0.0787665,1,1,2.485,-0.2975,-1.645,0.03355,0.569984,-1.00223,-0.04704,-0.07336,0.53102
14.3678,0,0,5,5,29.3678,29.3678,-23.9464,4.80347,18.6588,-0.206759,-0.0195798,0.150035,1,1,3.15,0.07,-1.3825,-0.163846,0.396622,-0.775188,-0.04704,-0.07336,0.53102
14.3707,0,0,5,5,29.3707,29.3707,-23.9512,4.80392,18.6574,-0.206767,-0.0196561,0.150001,1,1,0.91,0.525,-0.9275,-0.163846,0.396622,-0.775188,-0.04704,-0.07336,0.53102
14.3742,0,0,5,5,29.3742,29.3742,-23.9571,4.80553,18.6569,0.278905,-0.337278,0.148113,1,1,0.28,0.9275,-0.175,0.32391,0.079422,-0.777018,-0.04368,-0.08036,0.5313
14.3769,0,0,5,5,29.3769,29.3769,-23.9615,4.80461,18.6583,-0.3115,-0.0254363,-0.114781,1,1,1.0325,-0.8575,0.21,-0.26901,0.39101,-1.03785,-0.04368,-0.08036,0.5313
14.3777,0,0,5,5,29.3777,29.3777,-23.9628,4.80542,18.6588,-0.311514,-0.0254568,-0.114791,1,1,2.7825,0.2625,0.175,-0.26901,0.39101,-1.03785,-0.04368,-0.08036,0.5313
14.281,0,0,5,5,29.281,29.281,-23.8016,4.97447,18.6723,0.156668,-0.161162,-0.0115932,0,1,4.935,0.98,0.1575,0.204106,0.252784,-0.93635,-0.04368,-0.08036,0.5313
14.1857,0,0,5,5,29.1857,29.1857,-23.6429,5.13981,18.6875,0.153793,-0.158533,-0.0107157,0,1,5.04,0.245,0.7175,0.204106,0.252784,-0.93635,-0.04368,-0.08036,0.5313
14.3215,0,0,5,5,29.3215,29.3215,-23.8692,5.14362,18.6682,-0.00335384,0.161993,0.15306,0,1,3.99,-0.21,0.3325,0.04636,0.576572,-0.77226,-0.04368,-0.08036,0.5313
14.4552,0,0,5,5,29.4552,29.4552,-24.092,5.14731,18.649,-0.00341806,0.158456,0.15148,0,1,3.78,-0.14,0.21,0.04636,0.576572,-0.77226,-0.04368,-0.08036,0.5313
14.455,0,0,5,5,29.455,29.455,-24.0917,5.14813,18.6504,-0.237171,0.412241,-0.0872848,1,1,3.6575,0.07,0.6125,-0.188368,0.830088,-1.00918,-0.04424,-0.07546,0.53424
14.455,0,0,5,5,29.455,29.455,-24.0917,5.14815,18.6517,-0.0539706,-0.221718,-0.207282,1,1,3.5,-0.35,0.4025,-0.004392,0.196786,-1.12826,-0.04424,-0.07546,0.53424
14.4557,0,0,5,5,29.4557,29.4557,-24.0928,5.14825,18.6519,-0.0539724,-0.221736,-0.20729,1,1,2.905,-0.035,-0.175,-0.004392,0.196786,-1.12826,-0.04424,-0.07546,0.53424
14.4569,0,0,5,5,29.4569,29.4569,-24.0949,5.14826,18.6527,0.188756,0.105775,0.274161,1,1,2.3275,-0.2275,0.1225,0.239364,0.52399,-0.650504,-0.04424,-0.07546,0.53424
14.4585,0,0,5,5,29.4585,29.4585,-24.0976,5.14871,18.6535,0.188748,0.105733,0.274141,1,1,2.0125,-0.0175,0.28,0.239364,0.52399,-0.650504,-0.04424,-0.07546,0.53424
14.4621,0,0,5,5,29.4621,29.4621,-24.1034,5.15016,18.6544,0.34386,0.0111142,0.25959,1,1,0.21,0.525,0.5075,0.395158,0.429562,-0.6649,-0.04424,-0.07546,0.53424
14.4646,0,0,5,5,29.4646,29.4646,-24.1077,5.14884,18.6562,0.343883,0.0110449,0.259561,1,1,1.0325,-1.19,0.3675,0.395158,0.429562,-0.6649,-0.04424,-0.07546,0.53424
14.4454,0,0,5,5,29.4454,29.4454,-24.0757,5.43938,18.6613,0.31648,-0.0261147,-0.031289,0,1,2.24,-1.295,0.385,0.37271,0.391742,-0.953308,-0.04424,-0.07546,0.53424
14.4251,0,0,5,5,29.4251,29.4251,-24.0418,5.72926,18.6649,0.311445,-0.0253758,-0.0314983,0,1,3.6575,1.3825,0.5425,0.37271,0.391742,-0.953308,-0.05026,-0.0826,0.52976
14.359,0,0,5,5,29.359,29.359,-23.9317,5.43153,18.6764,-0.283523,-0.125321,0.0471984,0,1,6.0025,1.3125,1.05,-0.22997,0.29036,-0.876448,-0.05026,-0.0826,0.52976
14.2951,0,0,5,5,29.2951,29.2951,-23.8251,5.13665,18.6878,-0.278398,-0.123821,0.0483811,0,1,5.0575,0,0.9275,-0.22997,0.29036,-0.876448,-0.05026,-0.0826,0.52976
14.2941,0,0,5,5,29.2941,29.2941,-23.8235,5.13706,18.6886,-0.521741,-0.308206,-0.207341,1,1,4.4275,-0.0175,0.2275,-0.474336,0.10614,-1.13021,-0.05026,-0.0826,0.52976
14.2935,0,0,5,5,29.2935,29.2935,-23.8225,5.13746,18.688,-0.521748,-0.308189,-0.207334,1,1,4.165,0.315,-0.525,-0.474336,0.10614,-1.13021,-0.05026,-0.0826,0.52976
14.2945,0,0,5,5,29.2945,29.2945,-23.8241,5.13707,18.6873,-0.151574,-0.16606,-0.304352,1,1,2.6425,-0.105,-0.735,-0.102602,0.248148,-1.22647,-0.05026,-0.0826,0.52976
14.296,0,0,5,5,29.296,29.296,-23.8266,5.13773,18.6845,-0.151585,-0.166099,-0.30437,1,1,2.2925,0.98,-1.6625,-0.102602,0.248148,-1.22647,-0.05026,-0.0826,0.52976
14.2976,0,0,5,5,29.2976,29.2976,-23.8293,5.13799,18.6809,-0.0545229,-0.0895688,-0.186728,1,1,2.205,0.945,-2.1525,-0.005124,0.324642,-1.10971,-0.05026,-0.0826,0.52976
14.3,0,0,5,5,29.3,29.3,-23.8333,5.13613,18.6794,-0.0544907,-0.0896325,-0.186753,1,1,1.4175,-0.6825,-1.54,-0.005124,0.324642,-1.10971,-0.05026,-0.0826,0.52976
14.3005,0,0,5,5,29.3005,29.3005,-23.8342,5.1358,18.6788,0.147667,-0.33732,0.416058,1,1,3.0625,-0.105,-0.6475,0.197884,0.077226,-0.511546,-0.04802,-0.08722,0.5348
14.3027,0,0,5,5,29.3027,29.3027,-23.8378,5.13612,18.6786,-0.108916,-0.205603,0.0560388,1,1,1.54,0.1925,-0.3675,-0.05978,0.208864,-0.868762,-0.04802,-0.08722,0.5348
14.3034,0,0,5,5,29.3034,29.3034,-23.839,5.1339,18.6783,-0.108877,-0.205623,0.0560336,1,1,2.8875,-1.1725,-0.9625,-0.05978,0.208864,-0.868762,-0.04802,-0.08722,0.5348
14.4157,0,0,5,5,29.4157,29.4157,-24.0262,5.10388,18.6603,-0.0274461,0.191593,0.0447973,0,1,3.71,0.0175,-1.085,0.021472,0.608658,-0.878644,-0.04802,-0.08722,0.5348
14.5246,0,0,5,5,29.5246,29.5246,-24.2076,5.07655,18.643,-0.026971,0.188697,0.0435472,0,1,5.11,1.1375,-0.4025,0.021472,0.608658,-0.878644,-0.04802,-0.08722,0.5348
14.5221,0,0,5,5,29.5221,29.5221,-24.2035,5.07668,18.6428,-0.205436,0.199632,-0.207484,1,1,5.88,0.07,-0.3675,-0.157746,0.619516,-1.12777,-0.04802,-0.08722,0.5348
14.5202,0,0,5,5,29.5202,29.5202,-24.2003,5.0762,18.6424,-0.205427,0.199682,-0.207461,1,1,5.3375,-0.21,-0.6125,-0.157746,0.619516,-1.12777,-0.04802,-0.08722,0.5348
14.5179,0,0,5,5,29.5179,29.5179,-24.1965,5.07512,18.6414,0.486574,0.175317,0.00403932,1,1,5.7575,-0.385,-1.085,0.537166,0.595116,-0.917928,-0.04354,-0.07644,0.5334
14.5175,0,0,5,5,29.5175,29.5175,-24.1959,5.07397,18.6404,-0.517485,0.000561719,-0.14669,1,1,3.92,-0.42,-1.1025,-0.471164,0.420534,-1.0675,-0.04354,-0.07644,0.5334
14.5186,0,0,5,5,29.5186,29.5186,-24.1977,5.07306,18.6384,-0.51747,0.000532836,-0.146701,1,1,2.6425,-0.07,-1.54,-0.471164,0.420534,-1.0675,-0.04354,-0.07644,0.5334
14.521,0,0,5,5,29.521,29.521,-24.2017,5.07296,18.6357,-0.69508,-0.0218795,-0.278776,1,1,1.4525,0.56,-1.785,-0.649528,0.398208,-1.19853,-0.04354,-0.07644,0.5334
14.5242,0,0,5,5,29.5242,29.5242,-24.207,5.07252,18.6344,-0.695072,-0.0219641,-0.278813,1,1,0.63,0.0175,-1.0675,-0.649528,0.398208,-1.19853,-0.04354,-0.07644,0.5334
14.5261,0,0,5,5,29.5261,29.5261,-24.2101,5.07391,18.6344,-0.0866961,-0.722288,-0.312649,1,1,1.785,0.7,0.035,-0.038552,-0.30134,-1.23208,-0.04354,-0.07644,0.5334
14.5282,0,0,5,5,29.5282,29.5282,-24.2137,5.07434,18.6355,-0.0867035,-0.722344,-0.312675,1,1,1.4875,-0.0875,0.4025,-0.038552,-0.30134,-1.23208,-0.04354,-0.07644,0.5334
14.4224,0,0,5,5,29.4224,29.4224,-24.0373,4.76676,18.6524,-0.324691,-0.16027,-0.11207,0,1,0.9275,-0.77,0.21,-0.282918,0.257542,-1.03468,-0.04354,-0.07644,0.5334
14.3183,0,0,5,5,29.3183,29.3183,-23.8639,4.46418,18.668,-0.319427,-0.157686,-0.110457,0,1,0.9275,-0.77,0.21,-0.282918,0.257542,-1.03468,-0.04536,-0.07966,0.52794
14.3417,0,0,5,5,29.3417,29.3417,-23.9028,4.399,18.6666,-0.0680322,0.0525727,-0.0178245,0,1,4.1475,1.68,1.5575,-0.031598,0.468236,-0.942572,-0.04536,-0.07966,0.52794
14.3646,0,0,5,5,29.3646,29.3646,-23.941,4.33495,18.6653,-0.0669176,0.0519305,-0.0180163,0,1,4.1475,1.68,1.5575,-0.031598,0.468236,-0.942572,-0.04536,-0.07966,0.52794
14.362,0,0,5,5,29.362,29.362,-23.9367,4.33545,18.6689,0.319034,-0.215215,-0.117329,1,1,5.7925,-0.6125,1.6975,0.355996,0.2013,-1.04115,-0.04536,-0.07966,0.52794
14.3595,0,0,5,5,29.3595,29.3595,-23.9324,4.33595,18.6724,0.319025,-0.215146,-0.1173,1,1,5.7925,-0.6125,1.6975,0.355996,0.2013,-1.04115,-0.04536,-0.07966,0.52794
14.3589,0,0,5,5,29.3589,29.3589,-23.9316,4.34208,18.6707,-0.259839,-0.0899497,-0.29742,1,1,4.095,3.6225,0.28,-0.225212,0.32635,-1.21988,-0.04536,-0.07966,0.52794
14.3584,0,0,5,5,29.3584,29.3584,-23.9307,4.3482,18.6691,-0.259946,-0.0899328,-0.297422,1,1,4.095,3.6225,0.28,-0.225212,0.32635,-1.21988,-0.04536,-0.07966,0.52794
14.3602,0,0,5,5,29.3602,29.3602,-23.9336,4.34897,18.6673,-0.65904,0.236955,-0.0299074,1,1,1.995,0.7875,-1.0675,-0.625982,0.652944,-0.954406,-0.04536,-0.07966,0.52794
14.3053,0,0,5,5,29.3053,29.3053,-23.8422,4.67842,18.6738,0.305291,-0.132429,0.0723701,0,1,0.6475,0.0525,-0.9275,0.348188,0.282308,-0.853146,-0.05054,-0.08288,0.52444
14.2494,0,0,5,5,29.2494,29.2494,-23.749,5.00255,18.6819,0.299654,-0.130753,0.0725875,0,1,2.415,-0.1575,-0.2975,0.348188,0.282308,-0.853146,-0.05054,-0.08288,0.52444
14.3579,0,0,5,5,29.3579,29.3579,-23.9299,4.79869,18.6672,-0.199144,0.130163,0.12397,0,1,2.625,-0.0875,0.0175,-0.156282,0.54595,-0.801174,-0.05054,-0.08288,0.52444
14.4646,0,0,5,5,29.4646,29.4646,-24.1076,4.59821,18.6533,-0.195657,0.127222,0.122973,0,1,2.625,-0.0875,0.0175,-0.156282,0.54595,-0.801174,-0.05054,-0.08288,0.52444
14.3953,0,0,5,5,29.3953,29.3953,-23.9922,4.84896,18.6624,0.213276,-0.155841,0.0910045,0,1,2.2925,0.14,-0.5425,0.258762,0.261202,-0.833382,-0.05054,-0.08288,0.52444
14.3969,0,0,5,5,29.3969,29.3969,-23.9949,4.85119,18.6614,-0.313039,-0.214626,0.0719252,1,1,2.065,1.3825,-0.2975,-0.269742,0.20252,-0.852292,-0.05054,-0.08288,0.52444
14.3926,0,0,5,5,29.3926,29.3926,-23.9876,4.85292,18.6617,-0.313069,-0.214509,0.0719743,1,1,7.6125,0.8225,0.245,-0.269742,0.20252,-0.852292,-0.05054,-0.08288,0.52444
14.39,0,0,5,5,29.39,29.39,-23.9833,4.8525,18.6625,-0.0999757,0.498169,-0.0542627,1,1,5.9325,-0.455,0.0175,-0.055754,0.91439,-0.977586,-0.05054,-0.08288,0.52444
14.3883,0,0,5,5,29.3883,29.3883,-23.9804,4.84982,18.6626,-0.0999292,0.498213,-0.0542389,1,1,5.145,-1.505,-0.875,-0.055754,0.91439,-0.977586,-0.05068,-0.07322,0.53326
14.438,0,0,5,5,29.438,29.438,-24.0634,5.27984,18.6542,0.438309,0.036992,0.133295,0,1,5.18,-1.4175,-1.4175,0.49227,0.454694,-0.790316,-0.05068,-0.07322,0.53326
14.4902,0,0,5,5,29.4902,29.4902,-24.1503,5.70496,18.6442,0.430923,0.0359029,0.13203,0,1,2.31,-0.1575,-1.5575,0.49227,0.454694,-0.790316,-0.05068,-0.07322,0.53326
14.5477,0,0,5,5,29.5477,29.5477,-24.2462,6.04002,18.6328,0.315161,0.0334083,0.142359,0,1,1.5925,0.0175,-1.47,0.38186,0.453474,-0.778848,-0.05068,-0.07322,0.53326
14.6043,0,0,5,5,29.6043,29.6043,-24.3405,6.3676,18.6206,0.309477,0.0321709,0.141122,0,1,1.6975,-0.8925,-2.24,0.38186,0.453474,-0.778848,-0.05068,-0.07322,0.53326
14.7775,0,0,5,5,29.7775,29.7775,-24.6292,6.0466,18.5875,-0.341948,0.283462,0.111812,0,1,1.6975,-1.015,-2.1525,-0.277916,0.709308,-0.80642,-0.05068,-0.07322,0.53326
14.9457,0,0,5,5,29.9457,29.9457,-24.9095,5.73363,18.5573,-0.336514,0.278808,0.110282,0,1,3.57,0.455,-0.9975,-0.277916,0.709308,-0.80642,-0.05068,-0.07322,0.53326
14.8113,0,0,5,5,29.8113,29.8113,-24.6856,5.5558,18.5784,-0.184605,-0.199213,-0.123011,0,1,3.885,0.4375,-0.63,-0.128466,0.228384,-1.03981,-0.05068,-0.07322,0.53326
14.6806,0,0,5,5,29.6806,29.6806,-24.4676,5.38113,18.5988,-0.181571,-0.19589,-0.121171,0,1,2.695,0.49,-0.3675,-0.128466,0.228384,-1.03981,-0.05068,-0.07322,0.53326
14.629,0,0,5,5,29.629,29.629,-24.3817,5.10889,18.6073,-0.28812,-0.0556068,-0.102699,0,1,3.255,-0.7175,-0.2275,-0.240218,0.367342,-1.02248,-0.05096,-0.07966,0.52556
14.5916,0,0,5,5,29.5916,29.5916,-24.3194,5.15732,18.6142,0.0476749,-0.0525132,-0.0308889,0,1,4.48,0.56,0.8925,0.097844,0.369416,-0.9516,-0.05096,-0.07966,0.52556
14.5537,0,0,5,5,29.5537,29.5537,-24.2562,5.2047,18.6217,0.0468515,-0.0514816,-0.0305053,0,1,5.5475,0.28,1.2075,0.097844,0.369416,-0.9516,-0.05096,-0.07966,0.52556
14.5522,0,0,5,5,29.5522,29.5522,-24.2537,5.20483,18.6239,-0.450878,-0.0535178,-0.120486,1,1,4.8475,-0.5075,0.91,-0.40199,0.367342,-1.0409,-0.05096,-0.07966,0.52556
14.5511,0,0,5,5,29.5511,29.5511,-24.2519,5.20394,18.6244,-0.450862,-0.0534902,-0.120472,1,1,4.515,-0.6475,-0.2275,-0.40199,0.367342,-1.0409,-0.05096,-0.07966,0.52556
14.5517,0,0,5,5,29.5517,29.5517,-24.2528,5.20334,18.6238,-0.565534,0.122357,-0.172362,1,1,3.0625,-0.2275,-0.7525,-0.517158,0.543022,-1.09239,-0.05096,-0.07966,0.52556
14.5531,0,0,5,5,29.5531,29.5531,-24.2552,5.20428,18.6236,-0.565551,0.12232,-0.17238,1,1,2.205,0.5075,-0.175,-0.517158,0.543022,-1.09239,-0.05096,-0.07966,0.52556
14.5545,0,0,5,5,29.5545,29.5545,-24.2574,5.20364,18.6234,0.158637,-0.324333,-0.185797,1,1,2.3275,-0.35,-0.5425,0.210084,0.096868,-1.10569,-0.05334,-0.0819,0.52738
14.7715,0,0,5,5,29.7715,29.7715,-24.6191,4.85057,18.5912,-0.368425,0.298061,0.228028,0,1,2.73,-0.0175,-0.735,-0.325374,0.724558,-0.69296,-0.05334,-0.0819,0.52738
14.983,0,0,5,5,29.983,29.983,-24.9716,4.50294,18.5636,-0.362378,0.292286,0.225906,0,1,4.515,-0.3325,0.385,-0.325374,0.724558,-0.69296,-0.05334,-0.0819,0.52738
14.9816,0,0,5,5,29.9816,29.9816,-24.9694,4.50381,18.5652,0.205917,-0.229891,0.278789,1,1,4.7425,0.0175,0.77,0.245342,0.202886,-0.6405,-0.05334,-0.0819,0.52738
14.9835,0,0,5,5,29.9835,29.9835,-24.9725,4.50622,18.566,0.205875,-0.229939,0.278763,1,1,1.785,1.0325,0.735,0.245342,0.202886,-0.6405,-0.05334,-0.0819,0.52738
14.9853,0,0,5,5,29.9853,29.9853,-24.9755,4.5074,18.5672,0.0458574,-0.282744,-0.214776,1,1,1.8025,0.28,0.63,0.084668,0.150182,-1.13021,-0.05334,-0.0819,0.52738
14.9828,0,0,5,5,29.9828,29.9828,-24.9714,4.50879,18.5692,0.0458331,-0.282678,-0.214747,1,1,5.775,0.21,1.085,0.084668,0.150182,-1.13021,-0.05334,-0.0819,0.52738
14.9802,0,0,5,5,29.9802,29.9802,-24.967,4.51182,18.5709,0.11114,0.102091,-0.178449,1,1,5.915,1.1375,1.3475,0.150304,0.534482,-1.09422,-0.05334,-0.0819,0.52738
14.9781,0,0,5,5,29.9781,29.9781,-24.9634,4.51072,18.5731,0.111159,0.102147,-0.178421,1,1,5.4425,-1.19,0.63,0.150304,0.534482,-1.09422,-0.05026,-0.07252,0.53452
14.9758,0,0,5,5,29.9758,29.9758,-24.9596,4.50824,18.5744,-0.202231,0.101107,-0.188226,1,1,5.6525,-1.68,-0.2275,-0.164456,0.533384,-1.10398,-0.05026,-0.07252,0.53452
14.9766,0,0,5,5,29.9766,29.9766,-24.9611,4.50758,18.5729,-0.20222,0.101083,-0.188236,1,1,2.7825,-0.0175,-1.26,-0.164456,0.533384,-1.10398,-0.05026,-0.07252,0.53452
14.8811,0,0,5,5,29.8811,29.8811,-24.8018,4.8947,18.5844,0.399204,-0.185855,0.00373502,0,1,3.0975,0.5775,-1.05,0.446276,0.244,-0.914146,-0.05026,-0.07252,0.53452
14.7887,0,0,5,5,29.7887,29.7887,-24.6478,5.27398,18.5966,0.39261,-0.183177,0.00432231,0,1,1.505,-0.2975,-1.5225,0.446276,0.244,-0.914146,-0.05026,-0.07252,0.53452
14.7915,0,0,5,5,29.7915,29.7915,-24.6525,5.27262,18.5945,0.210284,-0.276681,0.0904766,1,1,0.98,-0.245,-1.7675,0.263154,0.15067,-0.828624,-0.05026,-0.07252,0.53452
14.7921,0,0,5,5,29.7921,29.7921,-24.6535,5.27123,18.5923,0.210308,-0.276696,0.0904718,1,1,3.1325,-0.2625,-1.7675,0.263154,0.15067,-0.828624,-0.05026,-0.07252,0.53452
14.6911,0,0,5,5,29.6911,29.6911,-24.4852,4.83079,18.607,-0.474138,-0.168555,-0.060398,0,1,4.06,-0.1575,-0.4025,-0.43188,0.256322,-0.980148,-0.05026,-0.07252,0.53452
14.5932,0,0,5,5,29.5932,29.5932,-24.322,4.39909,18.6193,-0.466628,-0.16622,-0.0586731,0,1,2.7825,1.12,-0.3675,-0.43188,0.256322,-0.980148,-0.0462,-0.07854,0.532
14.5953,0,0,5,5,29.5953,29.5953,-24.3254,4.40116,18.619,-0.197817,-0.346899,-0.274229,1,1,1.6275,1.12,0.07,-0.161894,0.075884,-1.19401,-0.0462,-0.07854,0.532
14.5973,0,0,5,5,29.5973,29.5973,-24.3289,4.40323,18.6188,-0.197853,-0.346952,-0.274256,1,1,1.6275,1.12,0.07,-0.161894,0.075884,-1.19401,-0.0462,-0.07854,0.532
14.5969,0,0,5,5,29.5969,29.5969,-24.3281,4.40518,18.6195,0.309438,-0.173641,-0.09524,1,1,3.955,0.8225,0.5425,0.347578,0.249002,-1.01638,-0.0462,-0.07854,0.532
14.5964,0,0,5,5,29.5964,29.5964,-24.3273,4.40712,18.6202,0.309404,-0.173628,-0.0952368,1,1,3.955,0.8225,0.5425,0.347578,0.249002,-1.01638,-0.0462,-0.07854,0.532
14.4909,0,0,5,5,29.4909,29.4909,-24.1516,4.36079,18.6347,-0.0451354,-0.167811,-0.0417946,0,1,4.4275,-1.82,-0.3325,-0.009272,0.252052,-0.964654,-0.0462,-0.07854,0.532
14.4912,0,0,5,5,29.4912,29.4912,-24.1519,4.35872,18.634,0.218768,-0.0804976,-0.388387,1,1,3.36,-0.9975,-1.1375,0.255712,0.339282,-1.30857,-0.0462,-0.07854,0.532
14.4917,0,0,5,5,29.4917,29.4917,-24.1528,4.35864,18.6331,0.218769,-0.0805111,-0.388393,1,1,3.115,0.14,-0.8225,0.255712,0.339282,-1.30857,-0.0462,-0.07854,0.532
14.4914,0,0,5,5,29.4914,29.4914,-24.1523,4.3583,18.6323,-0.646082,-0.309003,-0.0768372,1,1,3.85,-0.035,-0.805,-0.612806,0.11102,-0.999424,-0.0462,-0.07854,0.532
14.4942,0,0,5,5,29.4942,29.4942,-24.157,4.35719,18.6303,-0.646062,-0.309077,-0.0768691,1,1,1.015,-0.175,-1.5925,-0.612806,0.11102,-0.999424,-0.04774,-0.07756,0.52458
14.4972,0,0,5,5,29.4972,29.4972,-24.1619,4.35661,18.6275,-0.538052,-0.422246,0.140346,1,1,0.8925,0.3325,-1.96,-0.504348,-0.001952,-0.78385,-0.04774,-0.07756,0.52458
14.4965,0,0,5,5,29.4965,29.4965,-24.1608,4.35769,18.6264,-0.53807,-0.422227,0.140353,1,1,4.2175,0.77,-0.5775,-0.504348,-0.001952,-0.78385,-0.04774,-0.07756,0.52458
14.4983,0,0,5,5,29.4983,29.4983,-24.1638,4.36001,18.626,0.401703,0.066478,-0.155854,1,1,1.9075,1.3125,0,0.439444,0.486292,-1.07775,-0.04774,-0.07756,0.52458
14.4979,0,0,5,5,29.4979,29.4979,-24.1632,4.36158,18.6266,0.401675,0.0664882,-0.155852,1,1,3.85,0.63,0.4375,0.439444,0.486292,-1.07775,-0.04774,-0.07756,0.52458
14.4988,0,0,5,5,29.4988,29.4988,-24.1646,4.36151,18.6285,-0.0705384,0.00833297,-0.287417,1,1,2.66,-0.525,0.665,-0.03477,0.42822,-1.20829,-0.04774,-0.07756,0.52458
14.4997,0,0,5,5,29.4997,29.4997,-24.1662,4.36198,18.6298,-0.0705466,0.00830818,-0.287428,1,1,2.6075,-0.105,0.5075,-0.03477,0.42822,-1.20829,-0.04774,-0.07756,0.52458
14.4983,0,0,5,5,29.4983,29.4983,-24.1639,4.3652,18.63,-0.25684,0.0899276,0.198723,1,1,4.8475,1.6275,0.5775,-0.221796,0.509716,-0.7259,-0.04774,-0.07756,0.52458
14.4985,0,0,5,5,29.4985,29.4985,-24.1642,4.36518,18.6332,-0.25684,0.0899217,0.19872,1,1,3.2025,-0.8225,1.4,-0.221796,0.509716,-0.7259,-0.04354,-0.08022,0.52262
14.3871,0,0,5,5,29.3871,29.3871,-23.9785,4.32121,18.6502,-0.0450541,-0.188897,-0.0117489,0,1,2.59,-1.7325,0.735,-0.009882,0.228262,-0.936106,-0.04354,-0.08022,0.52262
14.2771,0,0,5,5,29.2771,29.2771,-23.7952,4.27845,18.6645,-0.0443099,-0.186003,-0.0104058,0,1,3.115,-0.9275,-0.3325,-0.009882,0.228262,-0.936106,-0.04354,-0.08022,0.52262
14.278,0,0,5,5,29.278,29.278,-23.7966,4.27813,18.6652,-0.255932,-0.468993,-0.248812,1,1,2.73,-0.385,0,-0.222406,-0.054412,-1.17266,-0.04354,-0.08022,0.52262
14.2784,0,0,5,5,29.2784,29.2784,-23.7973,4.27753,18.6651,-0.255922,-0.469005,-0.248817,1,1,3.15,-0.35,-0.4725,-0.222406,-0.054412,-1.17266,-0.04354,-0.08022,0.52262
14.2789,0,0,5,5,29.2789,29.2789,-23.7982,4.27715,18.6638,-0.0773314,0.0485542,-0.377918,1,1,3.115,0.07,-1.1025,-0.043066,0.462624,-1.30076,-0.04354,-0.08022,0.52262
14.2803,0,0,5,5,29.2803,29.2803,-23.8006,4.27737,18.663,-0.0773351,0.0485167,-0.377935,1,1,2.2575,0.2625,-0.6825,-0.043066,0.462624,-1.30076,-0.04354,-0.08022,0.52262
14.281,0,0,5,5,29.281,29.281,-23.8016,4.27679,18.6629,0.347875,-0.0358895,-0.0569232,1,1,2.975,-0.35,-0.455,0.383934,0.378322,-0.982222,-0.04354,-0.08022,0.52262
14.282,0,0,5,5,29.282,29.282,-23.8033,4.28081,18.663,0.347805,-0.035914,-0.0569397,1,1,2.6075,2.1,0.6825,0.383934,0.378322,-0.982222,-0.05124,-0.07742,0.5208
14.2834,0,0,5,5,29.2834,29.2834,-23.8056,4.28357,18.6639,-0.195163,-0.0926168,0.155618,1,1,2.1875,1.2075,0.8575,-0.161284,0.321714,-0.771284,-0.05124,-0.07742,0.5208
14.2843,0,0,5,5,29.2843,29.2843,-23.8072,4.28215,18.6655,-0.195138,-0.0926434,0.155609,1,1,2.5725,-1.1725,0.1925,-0.161284,0.321714,-0.771284,-0.05124,-0.07742,0.5208
14.3158,0,0,5,5,29.3158,29.3158,-23.8596,4.65357,18.6689,0.406921,0.0455854,0.0340432,0,1,2.1,0.07,4.445,0.449814,0.460428,-0.891088,-0.05124,-0.07742,0.5208
14.3452,0,0,5,5,29.3452,29.3452,-23.9086,5.01874,18.6651,0.40057,0.0450238,0.0332069,0,1,3.85,1.5575,0.6475,0.449814,0.460428,-0.891088,-0.05124,-0.07742,0.5208
14.3454,0,0,5,5,29.3454,29.3454,-23.909,5.01478,18.6594,-0.296932,0.0462359,-0.287809,1,1,3.5875,-0.8225,-4.2525,-0.25071,0.461648,-1.20963,-0.05124,-0.07742,0.5208
14.3465,0,0,5,5,29.3465,29.3465,-23.9108,5.01355,18.6593,-0.29691,0.0462062,-0.28782,1,1,2.5375,-0.665,-0.6825,-0.25071,0.461648,-1.20963,-0.05124,-0.07742,0.5208
14.3463,0,0,5,5,29.3463,29.3463,-23.9105,5.01202,18.6583,-0.394315,0.0570799,0.308362,1,1,3.78,-0.6475,-1.155,-0.348554,0.472506,-0.618052,-0.05124,-0.07742,0.5208
14.3461,0,0,5,5,29.3461,29.3461,-23.9102,5.01048,18.6574,-0.394288,0.0570842,0.308366,1,1,3.78,-0.6475,-1.155,-0.348554,0.472506,-0.618052,-0.04998,-0.07728,0.53102
14.2725,0,0,5,5,29.2725,29.2725,-23.7875,5.42701,18.6663,0.410604,-0.171273,0.0777263,0,1,2.485,-0.6125,-2.0825,0.467016,0.24217,-0.847168,-0.04998,-0.07728,0.53102
14.1999,0,0,5,5,29.1999,29.1999,-23.6665,5.8371,18.676,0.403481,-0.169067,0.0779287,0,1,2.485,-0.6125,-2.0825,0.467016,0.24217,-0.847168,-0.04998,-0.07728,0.53102
14.2013,0,0,5,5,29.2013,29.2013,-23.6689,5.83798,18.6741,0.270196,0.522133,-0.232903,1,1,2.3275,0.8575,-1.0675,0.333182,0.93269,-1.15558,-0.04998,-0.07728,0.53102
14.2027,0,0,5,5,29.2027,29.2027,-23.6712,5.83886,18.6723,0.27018,0.522096,-0.232921,1,1,2.3275,0.8575,-1.0675,0.333182,0.93269,-1.15558,-0.04998,-0.07728,0.53102
14.3653,0,0,5,5,29.3653,29.3653,-23.9421,5.93522,18.6445,0.0961194,0.242955,0.139401,0,1,3.8675,0.315,-0.0875,0.160064,0.658068,-0.784094,-0.04998,-0.07728,0.53102
14.5252,0,0,5,5,29.5252,29.5252,-24.2087,6.02986,18.6168,0.0944766,0.238801,0.137356,0,1,3.8675,0.315,-0.0875,0.160064,0.658068,-0.784094,-0.04998,-0.07728,0.53102
14.5274,0,0,5,5,29.5274,29.5274,-24.2123,6.02933,18.6157,-0.0373261,0.0628819,0.246018,1,1,1.61,-0.0875,-0.9625,0.027694,0.482388,-0.676246,-0.04998,-0.07728,0.53102
14.5295,0,0,5,5,29.5295,29.5295,-24.2158,6.0288,18.6147,-0.0373169,0.0628251,0.245994,1,1,1.61,-0.0875,-0.9625,0.027694,0.482388,-0.676246,-0.04578,-0.0791,0.52248
14.6682,0,0,5,5,29.6682,29.6682,-24.4471,5.96505,18.5914,-0.0654884,0.240722,0.0610066,0,1,2.0125,0.35,0.2625,-0.001708,0.663802,-0.85827,-0.04578,-0.0791,0.52248
14.8046,0,0,5,5,29.8046,29.8046,-24.6744,5.90226,18.5688,-0.0643985,0.237086,0.0594692,0,1,2.0125,0.35,0.2625,-0.001708,0.663802,-0.85827,-0.04578,-0.0791,0.52248
14.8054,0,0,5,5,29.8054,29.8054,-24.6756,5.90097,18.5679,-0.30346,-0.497404,0.0449549,1,1,2.94,-0.525,-1.0675,-0.241804,-0.069906,-0.872666,-0.04578,-0.0791,0.52248
14.804,0,0,5,5,29.804,29.804,-24.6733,5.90034,18.5669,0.409794,0.322223,0.0163252,1,1,4.865,-0.1225,-1.015,0.474458,0.748836,-0.901092,-0.04578,-0.0791,0.52248
14.8032,0,0,5,5,29.8032,29.8032,-24.672,5.89906,18.5675,0.409816,0.322243,0.0163368,1,1,4.2525,-0.875,-0.28,0.474458,0.748836,-0.901092,-0.04578,-0.0791,0.52248
14.8022,0,0,5,5,29.8022,29.8022,-24.6704,5.89955,18.5665,0.0796092,0.279036,-0.0118074,1,1,4.515,0.455,-0.7,0.142862,0.705648,-0.92903,-0.04578,-0.0791,0.52248
14.8046,0,0,5,5,29.8046,29.8046,-24.6743,5.90074,18.5651,0.0795886,0.278976,-0.0118377,1,1,1.435,0.9275,-0.7525,0.142862,0.705648,-0.92903,-0.04578,-0.0791,0.52248
14.857,0,0,5,5,29.857,29.857,-24.7616,5.3566,18.5569,-0.578038,0.0426032,0.120421,0,1,2.835,0.07,-0.07,-0.52704,0.471286,-0.798002,-0.04914,-0.08246,0.52458
14.7061,0,0,5,5,29.7061,29.7061,-24.5101,5.67689,18.5832,0.337502,-0.272685,-0.0534477,0,1,2.6775,0.2275,1.0675,0.397964,0.152134,-0.971852,-0.04914,-0.08246,0.52458
14.5577,0,0,5,5,29.5577,29.5577,-24.2629,5.98962,18.6112,0.332072,-0.268546,-0.0521808,0,1,2.2575,-1.26,0.8925,0.397964,0.152134,-0.971852,-0.04914,-0.08246,0.52458
14.5605,0,0,5,5,29.5605,29.5605,-24.2676,5.98747,18.6142,-0.455847,-0.045008,-0.0758167,1,1,0.7525,-1.9075,0.7525,-0.393328,0.375516,-0.995276,-0.04914,-0.08246,0.52458
14.5622,0,0,5,5,29.5622,29.5622,-24.2704,5.99095,18.6142,-0.455907,-0.0450497,-0.0758424,1,1,1.9775,1.8025,0.56,-0.393328,0.375516,-0.995276,-0.04914,-0.08246,0.52458
14.5578,0,0,5,5,29.5578,29.5578,-24.2629,6.06052,18.6158,0.068554,-0.00433364,-0.0149232,0,1,2.1875,2.2575,1.1025,0.134566,0.41602,-0.934764,-0.04914,-0.08246,0.52458
14.5533,0,0,5,5,29.5533,29.5533,-24.2555,6.12394,18.6197,0.0674534,-0.00416793,-0.0149773,0,1,2.1175,-0.945,1.12,0.134566,0.41602,-0.934764,-0.04914,-0.08246,0.52458
14.2063,0,0,5,5,29.2063,29.2063,-23.6772,6.02992,18.6828,-0.11448,-0.604114,-0.046274,0,1,2.5025,-0.8225,0.42,-0.049776,-0.192394,-0.970022,-0.04914,-0.08246,0.52458
13.8619,0,0,5,5,28.8619,28.8619,-23.1032,5.93747,18.7416,-0.112875,-0.595034,-0.0421636,0,1,4.8825,0.21,-0.665,-0.049776,-0.192394,-0.970022,-0.05138,-0.0784,0.532
13.8611,0,0,5,5,28.8611,28.8611,-23.1018,5.9378,18.7413,-0.644259,0.0233151,-0.313133,1,1,4.3225,0.21,-0.4025,-0.583404,0.425292,-1.23891,-0.05138,-0.0784,0.532
13.8608,0,0,5,5,28.8608,28.8608,-23.1013,5.93811,18.7406,-0.644265,0.0233238,-0.31313,1,1,3.885,0.28,-0.595,-0.583404,0.425292,-1.23891,-0.05138,-0.0784,0.532
13.8604,0,0,5,5,28.8604,28.8604,-23.1006,5.93917,18.7382,-0.0739076,-0.111859,-0.210097,1,1,4.0775,1.0675,-1.33,-0.010614,0.290238,-1.13667,-0.05138,-0.0784,0.532
13.8599,0,0,5,5,28.8599,28.8599,-23.0999,5.94022,18.7358,-0.0739258,-0.111847,-0.210094,1,1,4.0775,1.0675,-1.33,-0.010614,0.290238,-1.13667,-0.05138,-0.0784,0.532
13.7686,0,0,5,5,28.7686,28.7686,-22.9476,6.59024,18.7553,0.630226,-0.276611,0.259217,0,1,3.3425,-4.1475,-0.21,0.707844,0.122732,-0.670878,-0.05138,-0.0784,0.532
13.6781,0,0,5,5,28.6781,28.6781,-22.7968,7.23215,18.7764,0.619104,-0.27368,0.258991,0,1,3.3425,-4.1475,-0.21,0.707844,0.122732,-0.670878,-0.05138,-0.0784,0.532
13.6818,0,0,5,5,28.6818,28.6818,-22.803,7.22974,18.776,-0.288595,0.404267,0.0580564,1,1,0.105,-1.26,-1.05,-0.20374,0.800076,-0.870226,-0.05138,-0.0784,0.532
13.6855,0,0,5,5,28.6855,28.6855,-22.8092,7.22733,18.7756,-0.288553,0.404166,0.0580197,1,1,0.105,-1.26,-1.05,-0.20374,0.800076,-0.870226,-0.04606,-0.08344,0.52752
13.6869,0,0,5,5,28.6869,28.6869,-22.8115,7.23018,18.7749,-0.0815911,-0.156064,0.092178,1,1,2.2925,1.645,-0.0175,0.004148,0.240462,-0.83631,-0.04606,-0.08344,0.52752
13.748,0,0,5,5,28.748,28.748,-22.9134,7.22049,18.7623,-0.00731701,0.108905,0.0134402,0,1,3.4125,0.35,0,0.078568,0.506788,-0.91378,-0.04606,-0.08344,0.52752
13.8062,0,0,5,5,28.8062,28.8062,-23.0103,7.20643,18.7501,-0.00707365,0.107349,0.0128141,0,1,5.215,-2.1,-0.98,0.078568,0.506788,-0.91378,-0.04606,-0.08344,0.52752
13.8048,0,0,5,5,28.8048,28.8048,-23.0079,7.20397,18.7492,0.23922,0.060609,-0.117122,1,1,4.9175,-1.1725,-1.33,0.325862,0.460062,-1.04273,-0.04606,-0.08344,0.52752
13.8035,0,0,5,5,28.8035,28.8035,-23.0058,7.20439,18.7472,0.239213,0.0606439,-0.117108,1,1,4.9,0.63,-1.26,0.325862,0.460062,-1.04273,-0.04606,-0.08344,0.52752
13.8019,0,0,5,5,28.8019,28.8019,-23.0031,7.20549,18.7456,0.386435,0.0434672,-0.107994,1,1,5.145,0.91,-0.8925,0.473726,0.44286,-1.03371,-0.04606,-0.08344,0.52752
13.8019,0,0,5,5,28.8019,28.8019,-23.0031,7.20598,18.7433,0.386426,0.0434677,-0.107995,1,1,3.71,0.735,-1.4,0.473726,0.44286,-1.03371,-0.04606,-0.08344,0.52752
13.8023,0,0,5,5,28.8023,28.8023,-23.0039,7.20544,18.7409,-0.256224,-0.24855,0.0624074,1,1,3.2725,0.21,-1.6975,-0.171654,0.151158,-0.864614,-0.04424,-0.07588,0.52276
13.8025,0,0,5,5,28.8025,28.8025,-23.0042,7.20586,18.7393,0.175529,0.0693408,-0.190992,1,1,3.4825,0.5425,-1.05,0.261934,0.468724,-1.11606,-0.04424,-0.07588,0.52276
13.8032,0,0,5,5,28.8032,28.8032,-23.0053,7.20644,18.7397,0.175519,0.0693238,-0.191001,1,1,2.905,0.175,0.0525,0.261934,0.468724,-1.11606,-0.04424,-0.07588,0.52276
13.8045,0,0,5,5,28.8045,28.8045,-23.0074,7.20514,18.74,-0.172272,0.192027,-0.127448,1,1,2.345,-0.8225,-0.42,-0.087352,0.591334,-1.05298,-0.04424,-0.07588,0.52276
13.8082,0,0,5,5,28.8082,28.8082,-23.0137,7.20498,18.7412,-0.172269,0.191926,-0.127491,1,1,-0.07,-0.385,0.2625,-0.087352,0.591334,-1.05298,-0.04424,-0.07588,0.52276
13.8088,0,0,5,5,28.8088,28.8088,-23.0146,7.20691,18.7419,-0.120671,-0.18558,0.508389,1,1,3.01,0.8225,0.5425,-0.035502,0.214232,-0.421998,-0.04424,-0.07588,0.52276
13.8088,0,0,5,5,28.8088,28.8088,-23.0146,7.2091,18.7436,-0.120709,-0.185579,0.508385,1,1,3.4125,0.7525,1.1025,-0.035502,0.214232,-0.421998,-0.04424,-0.07588,0.52276
13.8912,0,0,5,5,28.8912,28.8912,-23.152,7.09058,18.729,-0.121937,0.112808,0.0793364,0,1,3.5525,-0.42,1.1375,-0.038796,0.514596,-0.847046,-0.04424,-0.07588,0.52276
13.9691,0,0,5,5,28.9691,28.9691,-23.2818,6.97259,18.7146,-0.119893,0.110643,0.0786818,0,1,6.475,-1.12,0.6475,-0.038796,0.514596,-0.847046,-0.04592,-0.07476,0.52836
13.9669,0,0,5,5,28.9669,28.9669,-23.2781,6.97482,18.7161,0.00568482,0.415653,-0.160309,1,1,5.495,0.8225,0.98,0.087352,0.81923,-1.08421,-0.04592,-0.07476,0.52836
13.965,0,0,5,5,28.965,28.965,-23.2751,6.97711,18.7175,0.0429412,-0.134599,0.0772435,1,1,5.1625,0.8575,0.9975,0.124806,0.269498,-0.84851,-0.04592,-0.07476,0.52836
13.9612,0,0,5,5,28.9612,28.9612,-23.2686,6.97767,18.7178,0.0429314,-0.134496,0.0772867,1,1,7.1575,0.1925,-0.0175,0.124806,0.269498,-0.84851,-0.04592,-0.07476,0.52836
13.9612,0,0,5,5,28.9612,28.9612,-23.2687,6.97793,18.7176,0.428523,0.41031,0.136793,1,1,3.5,0.1225,-0.315,0.512034,0.81374,-0.789462,-0.04592,-0.07476,0.52836
13.9609,0,0,5,5,28.9609,28.9609,-23.2682,6.97799,18.7177,0.428522,0.410318,0.136796,1,1,3.7975,-0.035,-0.2275,0.512034,0.81374,-0.789462,-0.04592,-0.07476,0.52836
14.0506,0,0,5,5,29.0506,29.0506,-23.4176,7.58871,18.6991,0.609774,0.0297632,0.325715,0,1,3.6225,1.085,0.42,0.704672,0.435418,-0.599752,-0.04592,-0.07476,0.52836
14.1446,0,0,5,5,29.1446,29.1446,-23.5744,8.18899,18.6795,0.599397,0.0278509,0.323316,0,1,-1.4,-0.2975,0.0525,0.704672,0.435418,-0.599752,-0.04592,-0.07476,0.52836
14.1494,0,0,5,5,29.1494,29.1494,-23.5823,8.18726,18.6808,-0.428221,-0.711753,0.158637,1,1,-0.9625,-1.2775,0,-0.327326,-0.303292,-0.76311,-0.04704,-0.08442,0.525
14.1544,0,0,5,5,29.1544,29.1544,-23.5906,8.33226,18.6795,0.120698,-0.0365003,0.100338,0,1,2.9575,0.63,-0.1575,0.226432,0.371246,-0.820572,-0.04704,-0.08442,0.525
14.1569,0,0,5,5,29.1569,29.1569,-23.5949,8.47604,18.679,0.118216,-0.0364217,0.0999718,0,1,5.075,1.12,0.5075,0.226432,0.371246,-0.820572,-0.04704,-0.08442,0.525
14.1394,0,0,5,5,29.1394,29.1394,-23.5656,8.18614,18.6836,-0.305379,-0.00596389,-0.0524707,0,1,5.81,-0.63,0.0875,-0.203984,0.401502,-0.972706,-0.04704,-0.08442,0.525
14.1227,0,0,5,5,29.1227,29.1227,-23.5379,7.90029,18.6868,-0.30044,-0.00580356,-0.0516393,0,1,5.32,-0.6825,-0.735,-0.203984,0.401502,-0.972706,-0.04704,-0.08442,0.525
14.2197,0,0,5,5,29.2197,29.2197,-23.6995,8.08935,18.6631,0.188188,0.129946,0.117965,0,1,5.075,-0.2975,-0.9275,0.289994,0.539484,-0.802882,-0.04704,-0.08442,0.525
14.3148,0,0,5,5,29.3148,29.3148,-23.858,8.27696,18.6395,0.184947,0.127628,0.116435,0,1,5.39,0.5775,-0.4025,0.289994,0.539484,-0.802882,-0.04704,-0.08442,0.525
14.3137,0,0,5,5,29.3137,29.3137,-23.8562,8.27737,18.6388,-0.110513,-0.0943682,-0.182072,1,1,4.655,0.3325,-0.56,-0.00671,0.317688,-1.0991,-0.04704,-0.08442,0.525
14.3123,0,0,5,5,29.3123,29.3123,-23.8538,8.2761,18.6359,-0.110491,-0.0943322,-0.182053,1,1,5.11,-0.035,-2.1525,-0.00671,0.317688,-1.0991,-0.0525,-0.08106,0.5194
14.3119,0,0,5,5,29.3119,29.3119,-23.8532,8.27412,18.6333,-0.763078,0.102299,-0.460768,1,1,4.0775,-0.5075,-2.1175,-0.662094,0.514108,-1.37567,-0.0525,-0.08106,0.5194
14.3109,0,0,5,5,29.3109,29.3109,-23.8514,8.2753,18.6314,-0.763098,0.102328,-0.460759,1,1,4.7075,1.05,-1.05,-0.662094,0.514108,-1.37567,-0.0525,-0.08106,0.5194
14.3109,0,0,5,5,29.3109,29.3109,-23.8515,8.27636,18.6293,-0.134793,0.129075,-0.27806,1,1,3.6925,0.9975,-1.12,-0.03111,0.540826,-1.19438,-0.0525,-0.08106,0.5194
14.3155,0,0,5,5,29.3155,29.3155,-23.8592,8.27524,18.6288,-0.134773,0.128952,-0.278111,1,1,-0.735,-0.525,-0.84,-0.03111,0.540826,-1.19438,-0.0525,-0.08106,0.5194
14.189,0,0,5,5,29.189,29.189,-23.6483,8.34335,18.6588,0.0623151,-0.216562,-0.0326257,0,1,1.785,-0.91,-1.2425,0.167994,0.192272,-0.952088,-0.0525,-0.08106,0.5194
14.0631,0,0,5,5,29.0631,29.0631,-23.4385,8.41386,18.689,0.0610976,-0.21317,-0.0313432,0,1,3.0625,0.9625,-0.21,0.167994,0.192272,-0.952088,-0.0525,-0.08106,0.5194
14.0626,0,0,5,5,29.0626,29.0626,-23.4377,8.41611,18.6894,-0.366692,-0.0291094,0.18062,1,1,3.9725,1.0675,0.4375,-0.261568,0.376126,-0.74176,-0.0525,-0.08106,0.5194
14.0599,0,0,5,5,29.0599,29.0599,-23.4332,8.4145,18.691,-0.366664,-0.0290398,0.180655,1,1,5.9325,-1.295,0.21,-0.261568,0.376126,-0.74176,-0.04928,-0.07504,0.52052
14.1529,0,0,5,5,29.1529,29.1529,-23.5882,8.20646,18.6688,-0.219476,0.181529,0.0134731,0,1,5.9325,-0.5775,-0.0175,-0.117364,0.589138,-0.90707,-0.04928,-0.07504,0.52052
14.243,0,0,5,5,29.243,29.243,-23.7383,8.00448,18.6465,-0.215986,0.178955,0.0128874,0,1,7.2625,1.1025,0.105,-0.117364,0.589138,-0.90707,-0.04928,-0.07504,0.52052
14.2394,0,0,5,5,29.2394,29.2394,-23.7324,8.00609,18.6468,0.0213696,0.280537,-0.253996,1,1,6.8425,0.7525,0.2275,0.121024,0.69052,-1.17193,-0.04928,-0.07504,0.52052
14.2359,0,0,5,5,29.2359,29.2359,-23.7265,8.0077,18.6471,0.0213417,0.280632,-0.253959,1,1,6.8425,0.7525,0.2275,0.121024,0.69052,-1.17193,-0.04928,-0.07504,0.52052
14.2349,0,0,5,5,29.2349,29.2349,-23.7249,8.00718,18.6473,-0.162336,0.197733,-0.340502,1,1,4.4275,-0.3675,-0.3325,-0.06344,0.607682,-1.25782,-0.04928,-0.07504,0.52052
14.234,0,0,5,5,29.234,29.234,-23.7233,8.00665,18.6474,-0.162326,0.197757,-0.34049,1,1,4.4275,-0.3675,-0.3325,-0.06344,0.607682,-1.25782,-0.04928,-0.07504,0.52052
14.2338,0,0,5,5,29.2338,29.2338,-23.723,8.00726,18.6492,-0.415513,0.316714,-0.00582366,1,1,3.5525,-0.1225,0.77,-0.317688,0.72651,-0.925736,-0.04928,-0.07504,0.52052
14.2371,0,0,5,5,29.2371,29.2371,-23.7285,8.00769,18.6511,0.255809,-0.0145798,0.209789,1,1,0.35,-0.2625,0.805,0.356484,0.395646,-0.711748,-0.0462,-0.08498,0.51996
14.2394,0,0,5,5,29.2394,29.2394,-23.7323,8.00657,18.6523,0.255829,-0.0146418,0.209765,1,1,1.295,-0.9275,0.0875,0.356484,0.395646,-0.711748,-0.0462,-0.08498,0.51996
14.2406,0,0,5,5,29.2406,29.2406,-23.7344,8.01426,18.6506,-0.0485043,-0.167325,0.245266,1,1,2.52,4.4625,0.63,0.050996,0.243146,-0.67649,-0.0462,-0.08498,0.51996
14.2419,0,0,5,5,29.2419,29.2419,-23.7365,8.02194,18.649,-0.0486371,-0.16735,0.245234,1,1,2.52,4.4625,0.63,0.050996,0.243146,-0.67649,-0.0462,-0.08498,0.51996
14.1833,0,0,5,5,29.1833,29.1833,-23.6388,7.68565,18.6672,-0.340827,-0.100178,-0.00724185,0,1,4.6375,-4.13,1.26,-0.24827,0.309026,-0.92842,-0.0462,-0.08498,0.51996
14.1817,0,0,5,5,29.1817,29.1817,-23.6361,7.68644,18.6689,0.282745,0.162682,-0.0386995,1,1,4.9525,0,0.7525,0.377956,0.57157,-0.959652,-0.0462,-0.08498,0.51996
14.1804,0,0,5,5,29.1804,29.1804,-23.6339,7.68713,18.6691,0.282733,0.162717,-0.0386859,1,1,4.7425,0.2625,0,0.377956,0.57157,-0.959652,-0.0462,-0.08498,0.51996
14.1773,0,0,5,5,29.1773,29.1773,-23.6288,7.6881,18.6697,-0.233476,0.117124,-0.171068,1,1,6.3875,0.3325,0.2625,-0.140422,0.525942,-1.09105,-0.0462,-0.08498,0.51996
14.1754,0,0,5,5,29.1754,29.1754,-23.6256,7.68773,18.6693,-0.23347,0.117174,-0.171045,1,1,5.3375,-0.14,-0.63,-0.140422,0.525942,-1.09105,-0.04942,-0.07966,0.51786
14.175,0,0,5,5,29.175,29.175,-23.6251,7.68712,18.6674,-0.552481,-0.0401167,-0.208908,1,1,4.025,0.07,-1.4525,-0.460794,0.368806,-1.12862,-0.04942,-0.07966,0.51786
14.1759,0,0,5,5,29.1759,29.1759,-23.6265,7.68643,18.6655,-0.552469,-0.0401404,-0.208917,1,1,2.87,0.0175,-1.435,-0.460794,0.368806,-1.12862,-0.04942,-0.07966,0.51786
14.1782,0,0,5,5,29.1782,29.1782,-23.6303,7.68585,18.6643,-0.0615351,-0.557408,-0.194434,1,1,1.4875,-0.0875,-1.05,0.032208,-0.147864,-1.11423,-0.04942,-0.07966,0.51786
14.1798,0,0,5,5,29.1798,29.1798,-23.633,7.68487,18.6631,-0.0615181,-0.557452,-0.194451,1,1,2.135,-0.2975,-1.155,0.032208,-0.147864,-1.11423,-0.04942,-0.07966,0.51786
14.1846,0,0,5,5,29.1846,29.1846,-23.641,7.68336,18.6623,-0.258542,-0.387701,0.023854,1,1,-0.8575,-0.665,-1.085,-0.165676,0.021838,-0.897554,-0.04942,-0.07966,0.51786
14.1876,0,0,5,5,29.1876,29.1876,-23.646,7.68231,18.6611,-0.258524,-0.387782,0.0238214,1,1,0.8225,-0.3325,-1.1725,-0.165676,0.021838,-0.897554,-0.04942,-0.07966,0.51786
14.3122,0,0,5,5,29.3122,29.3122,-23.8536,7.59302,18.6325,-0.0927303,0.210444,0.0651046,0,1,3.2725,0.21,-0.875,-0.000732,0.62281,-0.855342,-0.04942,-0.07966,0.51786
14.4343,0,0,5,5,29.4343,29.4343,-24.0571,7.50693,18.6052,-0.0912408,0.207146,0.0638556,0,1,3.605,1.0675,-0.1575,-0.000732,0.62281,-0.855342,-0.04942,-0.07966,0.51786
14.4311,0,0,5,5,29.4311,29.4311,-24.0518,7.50624,18.6058,0.100476,-0.120437,-0.288353,1,1,6.475,-0.5425,-0.175,0.191784,0.295484,-1.20487,-0.04648,-0.08064,0.52514
14.4286,0,0,5,5,29.4286,29.4286,-24.0476,7.50624,18.6051,0.100475,-0.12037,-0.288323,1,1,5.9675,0.105,-0.63,0.191784,0.295484,-1.20487,-0.04648,-0.08064,0.52514
14.1917,0,0,5,5,29.1917,29.1917,-23.6529,7.54722,18.6552,0.0370797,-0.399618,-0.116224,0,1,5.8975,0.0525,-0.98,0.128832,0.010248,-1.03676,-0.04648,-0.08064,0.52514
13.9585,0,0,5,5,28.9585,28.9585,-23.2641,7.58746,18.7046,0.0363836,-0.393411,-0.113632,0,1,5.95,0.1925,-0.98,0.128832,0.010248,-1.03676,-0.04648,-0.08064,0.52514
13.9585,0,0,5,5,28.9585,28.9585,-23.2642,7.58615,18.7031,-0.747784,-0.0315519,-0.318707,1,1,3.605,-0.42,-1.365,-0.658678,0.371734,-1.24025,-0.04648,-0.08064,0.52514
13.9602,0,0,5,5,28.9602,28.9602,-23.267,7.58461,18.7006,-0.747757,-0.0315982,-0.318724,1,1,2.1525,-0.2975,-1.995,-0.658678,0.371734,-1.24025,-0.04648,-0.08064,0.52514
13.9623,0,0,5,5,28.9623,28.9623,-23.2705,7.58222,18.6987,-0.310367,0.030751,-0.409724,1,1,1.7325,-0.8925,-1.855,-0.219478,0.434076,-1.33053,-0.04648,-0.08064,0.52514
13.9647,0,0,5,5,28.9647,28.9647,-23.2746,7.5837,18.6978,-0.310393,0.0306876,-0.409755,1,1,1.33,0.945,-0.42,-0.219478,0.434076,-1.33053,-0.04648,-0.08064,0.52514
13.9661,0,0,5,5,28.9661,28.9661,-23.2768,7.58351,18.697,0.462016,-0.055814,-0.145062,1,1,2.345,0.035,-0.7525,0.556198,0.3477,-1.06787,-0.0455,-0.0861,0.5166
13.9688,0,0,5,5,28.9688,28.9688,-23.2814,7.58274,18.6982,-0.582504,0.124494,0.0298643,1,1,0.91,-0.735,0.1575,-0.492758,0.527894,-0.89426,-0.0455,-0.0861,0.5166
13.9682,0,0,5,5,28.9682,28.9682,-23.2804,7.584,18.6993,-0.582526,0.124511,0.0298682,1,1,4.0075,0.385,0.56,-0.492758,0.527894,-0.89426,-0.0455,-0.0861,0.5166
14.0499,0,0,5,5,29.0499,29.0499,-23.4165,7.28987,18.6822,-0.328876,0.171058,-0.00955267,0,1,3.955,1.645,0.805,-0.243146,0.576816,-0.933056,-0.0455,-0.0861,0.5166
14.1292,0,0,5,5,29.1292,29.1292,-23.5487,7.00027,18.668,-0.323861,0.168708,-0.00988819,0,1,4.69,1.1375,1.82,-0.243146,0.576816,-0.933056,-0.0455,-0.0861,0.5166
14.1256,0,0,5,5,29.1256,29.1256,-23.5426,7.00167,18.6709,0.209073,-0.317747,-0.14583,1,1,6.755,0.035,1.5575,0.292068,0.090768,-1.06799,-0.0455,-0.0861,0.5166
14.1228,0,0,5,5,29.1228,29.1228,-23.538,7.00186,18.6737,0.209069,-0.317674,-0.145799,1,1,5.915,-0.6125,1.2775,0.292068,0.090768,-1.06799,-0.0455,-0.0861,0.5166
14.1311,0,0,5,5,29.1311,29.1311,-23.5518,6.74286,18.6738,-0.280403,0.0472942,-0.0549079,0,1,6.5625,-0.455,1.0675,-0.203984,0.455792,-0.978196,-0.0455,-0.0861,0.5166
14.1411,0,0,5,5,29.1411,29.1411,-23.5685,6.48649,18.6731,-0.275959,0.0468225,-0.0545513,0,1,4.83,-1.085,0.21,-0.203984,0.455792,-0.978196,-0.04438,-0.08036,0.52332
14.2864,0,0,5,5,29.2864,29.2864,-23.8107,6.65997,18.6457,0.147691,0.147291,0.22389,0,1,2.59,-0.14,-0.28,0.22448,0.559858,-0.699914,-0.04438,-0.08036,0.52332
14.4309,0,0,5,5,29.4309,29.4309,-24.0514,6.8309,18.6171,0.144728,0.143619,0.221877,0,1,1.365,0.2625,-0.6825,0.22448,0.559858,-0.699914,-0.04438,-0.08036,0.52332
14.4333,0,0,5,5,29.4333,29.4333,-24.0555,6.83164,18.6165,0.333869,0.332485,0.0413584,1,1,1.3125,0.4725,-0.4025,0.414434,0.748592,-0.87901,-0.04438,-0.08036,0.52332
14.4364,0,0,5,5,29.4364,29.4364,-24.0607,6.8315,18.6166,0.333871,0.332402,0.0413215,1,1,0.595,-0.14,-0.28,0.414434,0.748592,-0.87901,-0.04438,-0.08036,0.52332
14.307,0,0,5,5,29.307,29.307,-23.8449,6.33939,18.6422,-0.511884,-0.251886,0.0316917,0,1,2.5375,-0.945,-0.2975,-0.44347,0.161894,-0.890966,-0.04438,-0.08036,0.52332
14.1788,0,0,5,5,29.1788,29.1788,-23.6313,5.85412,18.666,-0.503462,-0.248855,0.0340073,0,1,3.2025,-1.015,-0.0525,-0.44347,0.161894,-0.890966,-0.04438,-0.08036,0.52332
14.0769,0,0,5,5,29.0769,29.0769,-23.4614,5.60299,18.6829,-0.271558,-0.155463,-0.0997791,0,1,4.2525,0.0175,-0.2275,-0.214964,0.252662,-1.02529,-0.04438,-0.08036,0.52332
13.9761,0,0,5,5,28.9761,28.9761,-23.2935,5.35933,18.6985,-0.267325,-0.152945,-0.0982484,0,1,4.7775,1.9775,0.42,-0.214964,0.252662,-1.02529,-0.04844,-0.08246,0.52808
13.9748,0,0,5,5,28.9748,28.9748,-23.2913,5.3611,18.6987,0.260135,0.159124,-0.30479,1,1,4.7425,0.8575,0.2275,0.31476,0.564372,-1.23025,-0.04844,-0.08246,0.52808
13.9732,0,0,5,5,28.9732,28.9732,-23.2886,5.36018,18.6992,0.260151,0.159166,-0.30477,1,1,5.0225,-0.665,-0.2275,0.31476,0.564372,-1.23025,-0.04844,-0.08246,0.52808
13.9702,0,0,5,5,28.9702,28.9702,-23.2837,5.35827,18.699,0.161295,0.351716,-0.0625245,1,1,6.335,-1.0325,-0.84,0.215452,0.756644,-0.989908,-0.04844,-0.08246,0.52808
13.9697,0,0,5,5,28.9697,28.9697,-23.2828,5.35591,18.6988,0.161336,0.351728,-0.0625151,1,1,4.0425,-1.26,-0.9625,0.215452,0.756644,-0.989908,-0.04844,-0.08246,0.52808
13.9683,0,0,5,5,28.9683,28.9683,-23.2805,5.35395,18.6968,0.0939452,-0.12221,0.229998,1,1,4.9525,-0.6475,-1.8025,0.147742,0.283162,-0.69967,-0.04844,-0.08246,0.52808
13.9703,0,0,5,5,28.9703,28.9703,-23.2839,5.3519,18.6926,0.0939809,-0.122266,0.229978,1,1,1.855,-0.175,-3.0275,0.147742,0.283162,-0.69967,-0.04844,-0.08246,0.52808
13.9724,0,0,5,5,28.9724,28.9724,-23.2874,5.35022,18.6888,0.08502,-0.0319488,0.155327,1,1,1.785,-0.07,-2.7125,0.138714,0.373442,-0.773724,-0.04844,-0.08246,0.52808
13.9745,0,0,5,5,28.9745,28.9745,-23.2909,5.34948,18.6854,0.085033,-0.0320045,0.155304,1,1,1.785,0.3325,-2.275,0.138714,0.373442,-0.773724,-0.04508,-0.0854,0.52808
13.7459,0,0,5,5,28.7459,28.7459,-22.9098,5.29105,18.718,-0.0701822,-0.396117,-0.0352861,0,1,0.63,1.2775,-1.785,-0.018178,0.00366,-0.965508,-0.04508,-0.0854,0.52808
13.5194,0,0,5,5,28.5194,28.5194,-22.5323,5.23088,18.7514,-0.0691364,-0.390102,-0.0326631,0,1,1.89,-0.42,-1.4175,-0.018178,0.00366,-0.965508,-0.04508,-0.0854,0.52808
13.5201,0,0,5,5,28.5201,28.5201,-22.5336,5.22977,18.7503,-0.469291,0.00947531,-0.268239,1,1,2.8875,-0.4025,-1.12,-0.420046,0.402844,-1.19926,-0.04508,-0.0854,0.52808
13.5194,0,0,5,5,28.5194,28.5194,-22.5324,5.23136,18.7504,-0.469319,0.00949564,-0.268234,1,1,4.2175,0.7875,0.1225,-0.420046,0.402844,-1.19926,-0.04508,-0.0854,0.52808
13.4515,0,0,5,5,28.4515,28.4515,-22.4192,4.79295,18.76,-0.495712,-0.1129,-0.0443267,0,1,5.985,1.33,0.315,-0.454206,0.279014,-0.97844,-0.04508,-0.0854,0.52808
13.3861,0,0,5,5,28.3861,28.3861,-22.3101,4.35901,18.7707,-0.488163,-0.111376,-0.0430461,0,1,4.585,-0.2275,1.0325,-0.454206,0.279014,-0.97844,-0.04508,-0.0854,0.52808
13.4429,0,0,5,5,28.4429,28.4429,-22.4049,4.69115,18.7644,0.343824,0.0654571,0.110819,0,1,5.285,-0.21,0.5425,0.387106,0.457012,-0.82472,-0.04508,-0.0854,0.52808
13.4992,0,0,5,5,28.4992,28.4992,-22.4986,5.01736,18.758,0.338151,0.0641342,0.109751,0,1,5.0225,-0.6475,0.525,0.387106,0.457012,-0.82472,-0.04438,-0.0777,0.5285
13.4988,0,0,5,5,28.4988,28.4988,-22.4981,5.01686,18.7601,0.439235,-0.0494349,-0.012824,1,1,3.7625,-0.7875,0.7175,0.48861,0.343552,-0.946354,-0.04438,-0.0777,0.5285
13.4992,0,0,5,5,28.4992,28.4992,-22.4986,5.01555,18.7605,0.439258,-0.0494444,-0.0128258,1,1,3.22,-0.8575,-0.35,0.48861,0.343552,-0.946354,-0.04438,-0.0777,0.5285
13.5004,0,0,5,5,28.5004,28.5004,-22.5006,5.01581,18.7604,-0.333031,0.071795,0.240311,1,1,2.415,0.1225,-0.2975,-0.286944,0.464698,-0.695156,-0.04438,-0.0777,0.5285
13.5007,0,0,5,5,28.5007,28.5007,-22.5012,5.01502,18.7611,-0.333017,0.0717846,0.240308,1,1,3.1675,-0.63,-0.105,-0.286944,0.464698,-0.695156,-0.04438,-0.0777,0.5285
13.2784,0,0,5,5,28.2784,28.2784,-22.1307,4.56022,18.7933,-0.505999,-0.420904,-0.0342494,0,1,2.835,-0.5425,0.245,-0.468602,-0.033184,-0.970632,-0.04438,-0.0777,0.5285
13.0598,0,0,5,5,28.0598,28.0598,-21.7664,4.11253,18.8225,-0.498208,-0.415244,-0.0313315,0,1,2.345,0.07,0.7,-0.468602,-0.033184,-0.970632,-0.04438,-0.0777,0.5285
13.0609,0,0,5,5,28.0609,28.0609,-21.7681,4.11328,18.8245,0.254018,-0.57135,-0.131055,1,1,2.5025,-0.0525,0.91,0.286822,-0.1891,-1.06957,-0.04438,-0.0777,0.5285
13.0617,0,0,5,5,28.0617,28.0617,-21.7695,4.11456,18.827,0.253996,-0.571372,-0.131065,1,1,2.66,0.105,1.33,0.286822,-0.1891,-1.06957,-0.04438,-0.0777,0.5285
13.0609,0,0,5,5,28.0609,28.0609,-21.7682,4.11747,18.8292,-0.082084,-0.0898028,0.273809,1,1,4.2175,1.05,1.5575,-0.05063,0.291946,-0.667828,-0.0476,-0.08386,0.52696
13.0581,0,0,5,5,28.0581,28.0581,-21.7635,4.12061,18.8318,-0.0821387,-0.0897265,0.273836,1,1,6.0375,1.1025,1.785,-0.05063,0.291946,-0.667828,-0.0476,-0.08386,0.52696
13.0558,0,0,5,5,28.0558,28.0558,-21.7596,4.12091,18.8334,-0.34759,0.0433332,-0.276826,1,1,5.6875,-0.2275,0.6125,-0.3172,0.424804,-1.21427,-0.0476,-0.08386,0.52696
13.0534,0,0,5,5,28.0534,28.0534,-21.7557,4.12119,18.8349,-0.347595,0.0433968,-0.276801,1,1,5.6875,-0.2275,0.6125,-0.3172,0.424804,-1.21427,-0.0476,-0.08386,0.52696
13.0507,0,0,5,5,28.0507,28.0507,-21.7512,4.1198,18.8354,0.125009,0.10673,-0.352015,1,1,6.02,-0.91,-0.3325,0.15738,0.488,-1.28893,-0.0476,-0.08386,0.52696
13.051,0,0,5,5,28.051,28.051,-21.7517,4.119,18.8353,0.329483,0.111119,-0.0779645,1,1,3.3075,-0.455,-0.5425,0.362706,0.492392,-1.01699,-0.0476,-0.08386,0.52696
13.0511,0,0,5,5,28.0511,28.0511,-21.7518,4.118,18.8323,0.3295,0.111117,-0.077964,1,1,3.605,0.0525,-2.1175,0.362706,0.492392,-1.01699,-0.0476,-0.08386,0.52696
13.053,0,0,5,5,28.053,28.053,-21.755,4.11618,18.8292,-0.313978,0.498572,0.163734,1,1,1.8725,-0.3675,-2.3625,-0.283528,0.879498,-0.77714,-0.0476,-0.08386,0.52696
13.055,0,0,5,5,28.055,28.055,-21.7583,4.11369,18.8267,-0.313934,0.498517,0.163715,1,1,1.7675,-0.8575,-2.1875,-0.283528,0.879498,-0.77714,-0.05068,-0.08134,0.5222
13.0554,0,0,5,5,28.0554,28.0554,-21.759,4.11299,18.824,-0.0212631,-0.176244,0.0937545,1,1,3.3075,0.1575,-1.9075,0.01037,0.205448,-0.846558,-0.05068,-0.08134,0.5222
13.0562,0,0,5,5,28.0562,28.0562,-21.7603,4.11263,18.822,-0.0212569,-0.176266,0.0937462,1,1,2.87,0.1925,-1.4525,0.01037,0.205448,-0.846558,-0.05068,-0.08134,0.5222
13.0578,0,0,5,5,28.0578,28.0578,-21.763,4.11038,18.8204,0.145218,0.32502,-0.00388954,1,1,2.1175,-0.91,-1.68,0.17751,0.706258,-0.943426,-0.05068,-0.08134,0.5222
13.0561,0,0,5,5,28.0561,28.0561,-21.7602,4.11208,18.8185,0.145188,0.325066,-0.00387337,1,1,5.1975,1.2775,-0.9275,0.17751,0.706258,-0.943426,-0.05068,-0.08134,0.5222
13.1419,0,0,5,5,28.1419,28.1419,-21.9031,4.23261,18.8062,0.121952,0.137425,0.0719019,0,1,6.055,2.2225,-0.42,0.156282,0.521062,-0.867176,-0.05068,-0.08134,0.5222
13.2272,0,0,5,5,28.2272,28.2272,-22.0453,4.34719,18.7956,0.119957,0.135187,0.0708376,0,1,5.1625,-0.3325,-0.2625,0.156282,0.521062,-0.867176,-0.05068,-0.08134,0.5222
13.2248,0,0,5,5,28.2248,28.2248,-22.0414,4.34648,18.7953,-0.491103,-0.469767,-0.116018,1,1,5.7225,-0.385,-0.5775,-0.457378,-0.083326,-1.05262,-0.05068,-0.08134,0.5222
13.2234,0,0,5,5,28.2234,28.2234,-22.0389,4.34543,18.794,-0.491085,-0.469728,-0.116001,1,1,4.9875,-0.315,-1.26,-0.457378,-0.083326,-1.05262,-0.05236,-0.08414,0.52696
13.2237,0,0,5,5,28.2237,28.2237,-22.0396,4.3452,18.7927,-0.169144,0.443281,-0.130267,1,1,3.2375,0.105,-1.0325,-0.134078,0.828746,-1.06677,-0.05236,-0.08414,0.52696
13.2236,0,0,5,5,28.2236,28.2236,-22.0394,4.34458,18.7911,-0.169133,0.443283,-0.130265,1,1,3.71,-0.035,-1.2775,-0.134078,0.828746,-1.06677,-0.05236,-0.08414,0.52696
13.2243,0,0,5,5,28.2243,28.2243,-22.0405,4.34435,18.7888,0.158518,0.365715,0.108125,1,1,3.01,0.3325,-1.5925,0.194956,0.751276,-0.83021,-0.05236,-0.08414,0.52696
13.2252,0,0,5,5,28.2252,28.2252,-22.0419,4.34334,18.7875,0.158535,0.365691,0.108117,1,1,2.8175,-0.2975,-1.2425,0.194956,0.751276,-0.83021,-0.05236,-0.08414,0.52696
13.2248,0,0,5,5,28.2248,28.2248,-22.0413,4.34473,18.7881,0.450077,-0.203286,0.480285,1,1,3.885,0.5775,0.3325,0.487756,0.182878,-0.460916,-0.05236,-0.08414,0.52696
13.2243,0,0,5,5,28.2243,28.2243,-22.0404,4.34509,18.7894,0.450071,-0.203272,0.48029,1,1,3.9725,-0.1575,0.525,0.487756,0.182878,-0.460916,-0.05236,-0.08414,0.52696
13.2261,0,0,5,5,28.2261,28.2261,-22.0435,4.34576,18.7919,-0.375072,0.750978,0.163185,1,1,1.75,-0.21,1.155,-0.340868,1.13619,-0.775554,-0.05236,-0.08414,0.52696
13.2279,0,0,5,5,28.2279,28.2279,-22.0465,4.34644,18.7943,-0.375084,0.75093,0.163165,1,1,1.75,-0.21,1.155,-0.340868,1.13619,-0.775554,-0.04536,-0.0861,0.53074
13.2261,0,0,5,5,28.2261,28.2261,-22.0435,4.35144,18.7974,0.344389,0.302775,0.142154,1,1,5.075,1.9775,2.5025,0.381738,0.688446,-0.796416,-0.04536,-0.0861,0.53074
13.2243,0,0,5,5,28.2243,28.2243,-22.0405,4.35644,18.8006,0.344302,0.302825,0.142167,1,1,5.075,1.9775,2.5025,0.381738,0.688446,-0.796416,-0.04536,-0.0861,0.53074
13.2208,0,0,5,5,28.2208,28.2208,-22.0346,4.35766,18.8048,-0.0431371,-0.021081,-0.315779,1,1,6.685,-0.315,2.2575,-0.00732,0.36478,-1.25087,-0.04536,-0.0861,0.53074
13.2172,0,0,5,5,28.2172,28.2172,-22.0287,4.35887,18.8091,-0.0431583,-0.020985,-0.315742,1,1,6.685,-0.315,2.2575,-0.00732,0.36478,-1.25087,-0.04536,-0.0861,0.53074
13.2148,0,0,5,5,28.2148,28.2148,-22.0247,4.35903,18.8117,0.057915,0.245316,-0.245881,1,1,5.67,-0.5425,1.1725,0.094184,0.63074,-1.18157,-0.04536,-0.0861,0.53074
13.2124,0,0,5,5,28.2124,28.2124,-22.0207,4.35919,18.8144,0.0579123,0.24538,-0.245855,1,1,5.67,-0.5425,1.1725,0.094184,0.63074,-1.18157,-0.04536,-0.0861,0.53074
13.2944,0,0,5,5,28.2944,28.2944,-22.1573,4.32582,18.8034,-0.0397889,0.0808544,0.146973,0,1,5.145,0.28,-0.4025,-0.004514,0.468602,-0.790926,-0.04536,-0.0861,0.53074
13.2966,0,0,5,5,28.2966,28.2966,-22.161,4.32548,18.8022,-0.101498,-0.128896,-0.221405,1,1,1.5575,0.035,-1.015,-0.06649,0.259128,-1.15644,-0.05236,-0.08134,0.52458
13.2966,0,0,5,5,28.2966,28.2966,-22.161,4.32463,18.8006,-0.101483,-0.128897,-0.221404,1,1,3.605,-0.14,-1.3825,-0.06649,0.259128,-1.15644,-0.05236,-0.08134,0.52458
13.2951,0,0,5,5,28.2951,28.2951,-22.1586,4.32566,18.7993,-0.254937,-0.52638,-0.183029,1,1,4.9525,0.7875,-0.7525,-0.220576,-0.137982,-1.11837,-0.05236,-0.08134,0.52458
13.2937,0,0,5,5,28.2937,28.2937,-22.1562,4.32668,18.7981,-0.254955,-0.526341,-0.183015,1,1,4.9525,0.7875,-0.7525,-0.220576,-0.137982,-1.11837,-0.05236,-0.08134,0.52458
13.2966,0,0,5,5,28.2966,28.2966,-22.1609,4.32557,18.7975,-0.307053,-0.572459,-0.182307,1,1,0.91,-0.525,-0.84,-0.272914,-0.183976,-1.11764,-0.05236,-0.08134,0.52458
13.2962,0,0,5,5,28.2962,28.2962,-22.1603,4.32709,18.7963,0.300227,0.368905,0.0806827,1,1,3.9725,1.05,-0.63,0.336964,0.7564,-0.856684,-0.05236,-0.08134,0.52458
13.2906,0,0,5,5,28.2906,28.2906,-22.151,4.32875,18.7958,0.300199,0.369054,0.0807411,1,1,8.7325,0.9625,-0.1925,0.336964,0.7564,-0.856684,-0.05236,-0.08134,0.52458
13.2881,0,0,5,5,28.2881,28.2881,-22.1468,4.3289,18.7957,-0.234341,0.0231372,-0.168694,1,1,5.915,0.0525,-0.315,-0.199836,0.410774,-1.10422,-0.05236,-0.08134,0.52458
13.286,0,0,5,5,28.286,28.286,-22.1433,4.32682,18.7943,-0.234305,0.0231925,-0.168668,1,1,5.565,-0.875,-1.4875,-0.199836,0.410774,-1.10422,-0.04816,-0.08022,0.5299
13.2839,0,0,5,5,28.2839,28.2839,-22.1398,4.32487,18.7919,-0.419658,0.197523,-0.150692,1,1,5.635,-0.56,-2.0475,-0.386008,0.584868,-1.08641,-0.04816,-0.08022,0.5299
13.2843,0,0,5,5,28.2843,28.2843,-22.1405,4.32274,18.7895,-0.419621,0.197511,-0.150695,1,1,3.2375,-0.6825,-2.0475,-0.386008,0.584868,-1.08641,-0.04816,-0.08022,0.5299
13.2279,0,0,5,5,28.2279,28.2279,-22.0465,4.40436,18.7934,0.101469,-0.0661924,-0.115508,0,1,4.9,-0.0525,-2.24,0.138714,0.319884,-1.05201,-0.04816,-0.08022,0.5299
13.1743,0,0,5,5,28.1743,28.1743,-21.9572,4.48422,18.7963,0.100079,-0.0647114,-0.115026,0,1,3.1675,-0.07,-2.835,0.138714,0.319884,-1.05201,-0.04816,-0.08022,0.5299
13.1746,0,0,5,5,28.1746,28.1746,-21.9577,4.48191,18.7916,0.147012,0.307644,-0.0652325,1,1,3.4825,-0.2625,-3.36,0.185806,0.691862,-1.0026,-0.04816,-0.08022,0.5299
13.174,0,0,5,5,28.174,28.174,-21.9567,4.48261,18.7888,0.147,0.307662,-0.0652264,1,1,4.27,0.945,-1.6625,0.185806,0.691862,-1.0026,-0.04816,-0.08022,0.5299
13.3176,0,0,5,5,28.3176,28.3176,-22.1959,4.37759,18.7679,-0.113581,0.210812,0.139156,0,1,5.775,1.5225,-0.98,-0.077714,0.59902,-0.798368,-0.04816,-0.08022,0.5299
13.4641,0,0,5,5,28.4641,28.4641,-22.4401,4.27091,18.7496,-0.111725,0.206828,0.137672,0,1,0.7875,-0.6475,-0.7175,-0.077714,0.59902,-0.798368,-0.04494,-0.08232,0.5292
13.4675,0,0,5,5,28.4675,28.4675,-22.4458,4.16234,18.7497,-0.108498,-0.0318315,0.0818211,0,1,1.435,-0.7525,-0.4375,-0.076372,0.360754,-0.853878,-0.04494,-0.08232,0.5292
13.4675,0,0,5,5,28.4675,28.4675,-22.4458,4.05981,18.751,-0.106714,-0.03188,0.0819399,0,1,4.5675,1.2775,1.1725,-0.076372,0.360754,-0.853878,-0.04494,-0.08232,0.5292
13.6186,0,0,5,5,28.6186,28.6186,-22.6977,4.37173,18.734,0.322168,0.214829,0.193614,0,1,5.8625,1.7675,1.5925,0.359778,0.611098,-0.741028,-0.04494,-0.08232,0.5292
13.7689,0,0,5,5,28.7689,28.7689,-22.9481,4.67518,18.7182,0.316889,0.210975,0.19154,0,1,4.6025,-0.7525,1.9775,0.359778,0.611098,-0.741028,-0.04494,-0.08232,0.5292
13.766,0,0,5,5,28.766,28.766,-22.9434,4.67504,18.7222,0.442507,-0.266343,-0.136086,1,1,6.0025,-1.05,1.855,0.485926,0.1342,-1.06616,-0.04494,-0.08232,0.5292
13.766,0,0,5,5,28.766,28.766,-22.9434,4.67459,18.7256,0.442515,-0.266343,-0.136085,1,1,3.395,-1.05,1.4,0.485926,0.1342,-1.06616,-0.04494,-0.08232,0.5292
13.7662,0,0,5,5,28.7662,28.7662,-22.9437,4.67474,18.7284,-0.135273,-0.196492,0.164767,1,1,3.2375,-0.6125,1.26,-0.094306,0.203984,-0.767624,-0.04494,-0.08232,0.5292
13.7653,0,0,5,5,28.7653,28.7653,-22.9421,4.67455,18.7305,-0.13527,-0.196466,0.164778,1,1,4.3575,-0.63,0.7875,-0.094306,0.203984,-0.767624,-0.0441,-0.0889,0.53228
13.8662,0,0,5,5,28.8662,28.8662,-23.1103,4.34662,18.7118,-0.364761,0.183409,0.051427,0,1,3.7625,-0.665,-4.0075,-0.330498,0.586332,-0.879376,-0.0441,-0.0889,0.53228
13.9653,0,0,5,5,28.9653,28.9653,-23.2755,4.02766,18.7003,-0.359209,0.180607,0.0506683,0,1,3.6925,0.1225,0.0875,-0.330498,0.586332,-0.879376,-0.0441,-0.0889,0.53228
13.9242,0,0,5,5,28.9242,28.9242,-23.2069,4.36992,18.7059,0.307622,-0.130891,0.144424,0,1,4.1125,0.63,0.455,0.345138,0.27389,-0.786412,-0.0441,-0.0889,0.53228
13.8847,0,0,5,5,28.8847,28.8847,-23.1411,4.70751,18.7131,0.301748,-0.129654,0.144446,0,1,3.08,0.6825,1.225,0.345138,0.27389,-0.786412,-0.0441,-0.0889,0.53228
13.886,0,0,5,5,28.886,28.886,-23.1433,4.70766,18.7154,0.336126,-0.213712,0.245864,1,1,2.2225,-0.49,0.9625,0.379664,0.189954,-0.685762,-0.0441,-0.0889,0.53228
13.8865,0,0,5,5,28.8865,28.8865,-23.1442,4.70868,18.7173,0.336108,-0.213727,0.245856,1,1,2.9225,0.0525,0.98,0.379664,0.189954,-0.685762,-0.0441,-0.0889,0.53228
13.7095,0,0,5,5,28.7095,28.7095,-22.8491,4.75925,18.7426,0.0338225,-0.313269,0.026487,0,1,2.975,0.805,0.56,0.076982,0.085766,-0.905362,-0.0441,-0.0889,0.53228
13.5321,0,0,5,5,28.5321,28.5321,-22.5534,4.80894,18.7669,0.0329584,-0.308497,0.0284049,0,1,5.88,0.9975,0.14,0.076982,0.085766,-0.905362,-0.0441,-0.0889,0.53228
13.5314,0,0,5,5,28.5314,28.5314,-22.5523,4.80974,18.7673,-0.445223,0.0828157,-0.297279,1,1,4.165,0.2975,0.105,-0.40321,0.476654,-1.22854,-0.04396,-0.08106,0.5229
13.5304,0,0,5,5,28.5304,28.5304,-22.5506,4.80763,18.7662,0.580274,-0.0345221,-0.0267783,1,1,4.55,-0.945,-1.3475,0.626592,0.359412,-0.96014,-0.04396,-0.08106,0.5229
13.5293,0,0,5,5,28.5293,28.5293,-22.5489,4.80553,18.7651,0.580311,-0.034496,-0.0267641,1,1,4.55,-0.945,-1.3475,0.626592,0.359412,-0.96014,-0.04396,-0.08106,0.5229
13.5291,0,0,5,5,28.5291,28.5291,-22.5485,4.80374,18.7624,0.0369362,0.228571,0.329669,1,1,3.92,-0.4025,-2.1525,0.080886,0.6222,-0.606462,-0.04396,-0.08106,0.5229
13.5288,0,0,5,5,28.5288,28.5288,-22.548,4.80196,18.7597,0.0369672,0.228577,0.329674,1,1,3.92,-0.4025,-2.1525,0.080886,0.6222,-0.606462,-0.04396,-0.08106,0.5229
13.5277,0,0,5,5,28.5277,28.5277,-22.5461,4.79978,18.7544,-0.334741,0.488492,0.0405148,1,1,4.8475,-0.035,-3.64,-0.292434,0.881816,-0.893406,-0.04396,-0.08106,0.5229
13.5266,0,0,5,5,28.5266,28.5266,-22.5443,4.7976,18.7491,-0.334703,0.488521,0.0405302,1,1,4.8475,-0.035,-3.64,-0.292434,0.881816,-0.893406,-0.04396,-0.08106,0.5229
13.5245,0,0,5,5,28.5245,28.5245,-22.5408,4.79799,18.7458,0.176623,0.412858,0.203582,1,1,5.635,0.8925,-1.96,0.221064,0.806176,-0.731634,-0.04788,-0.08106,0.53088
13.3841,0,0,5,5,28.3841,28.3841,-22.3068,4.28507,18.7623,-0.591232,-0.280749,-0.0270738,0,1,1.5225,0.07,-1.75,-0.559004,0.1098,-0.962702,-0.04788,-0.08106,0.53088
13.3841,0,0,5,5,28.3841,28.3841,-22.3069,4.28437,18.7609,0.746095,0.210321,0.255954,1,1,3.57,-0.14,-1.155,0.783972,0.600362,-0.681858,-0.04788,-0.08106,0.53088
13.3847,0,0,5,5,28.3847,28.3847,-22.3078,4.28454,18.7605,0.746092,0.210306,0.255947,1,1,3.0275,0.1575,-0.525,0.783972,0.600362,-0.681858,-0.04788,-0.08106,0.53088
13.3831,0,0,5,5,28.3831,28.3831,-22.3051,4.28601,18.76,0.070727,-0.0330481,0.348175,1,1,5.0925,0.8575,-0.2275,0.105774,0.357216,-0.590358,-0.04788,-0.08106,0.53088
13.3815,0,0,5,5,28.3815,28.3815,-22.3026,4.28619,18.7601,0.0707239,-0.033007,0.348192,1,1,4.97,0.0175,-0.175,0.105774,0.357216,-0.590358,-0.04788,-0.08106,0.53088
13.3818,0,0,5,5,28.3818,28.3818,-22.303,4.28608,18.7609,0.0194588,0.164832,-0.0297545,1,1,3.29,-0.28,0.105,0.05429,0.554856,-0.965386,-0.04788,-0.08106,0.53088
13.3808,0,0,5,5,28.3808,28.3808,-22.3013,4.28522,18.7618,0.0194739,0.164858,-0.0297427,1,1,4.4275,-0.7175,0,0.05429,0.554856,-0.965386,-0.04788,-0.08106,0.53088
13.5315,0,0,5,5,28.5315,28.5315,-22.5525,4.26665,18.7443,-0.0174991,0.286598,0.061438,0,1,4.445,-0.28,0.455,0.016836,0.680516,-0.873276,-0.04998,-0.0826,0.5334
13.5297,0,0,5,5,28.5297,28.5297,-22.5495,4.26599,18.7451,-0.0334022,-0.0981757,0.0786714,1,1,5.18,-0.5775,-0.035,0.000854,0.296094,-0.856196,-0.04998,-0.0826,0.5334
13.5282,0,0,5,5,28.5282,28.5282,-22.5471,4.26588,18.7451,-0.0334003,-0.0981359,0.0786881,1,1,4.935,-0.1225,-0.28,0.000854,0.296094,-0.856196,-0.04998,-0.0826,0.5334
13.694,0,0,5,5,28.694,28.694,-22.8233,4.25858,18.7248,-0.0106769,0.263193,0.140038,0,1,5.1975,0.2625,0.105,0.023546,0.661484,-0.793488,-0.04998,-0.0826,0.5334
13.8589,0,0,5,5,28.8589,28.8589,-23.0982,4.2515,18.7074,-0.0105537,0.258785,0.13818,0,1,3.4475,-0.21,1.505,0.023546,0.661484,-0.793488,-0.04998,-0.0826,0.5334
13.8594,0,0,5,5,28.8594,28.8594,-23.0991,4.25444,18.7102,0.0909571,0.165101,0.26284,1,1,2.94,0.8925,1.89,0.125538,0.56791,-0.66978,-0.04998,-0.0826,0.5334
