pid_x,pid_y,pid_z,front_left_speed,front_right_speed,back_left_speed,back_right_speed,orientation_x,orientation_y,orientation_z,acceleration_x,acceleration_y,acceleration_z,accel_rejected,mag_rejected,ahrs_initialized,gyro_x,gyro_y,gyro_z,accel_x,accel_y,accel_z,mag_x,mag_y,mag_z
-0.0153312,0,0,15.0153,15.0153,14.9847,14.9847,0.0109497,0.00641577,0.210975,0.0024831,-0.00927973,-0.0069462,0,0,1,3.605,0.3675,-0.9625,-0.037698,0.002684,-1.01955,-0.2212,0.05474,0.36708
-0.0309778,0,0,15.031,15.031,14.969,14.969,0.0221235,0.00907217,0.422933,0.000128513,-0.00932896,-6.11436e-05,0,0,1,3.6575,0.315,-0.875,-0.040016,0.00244,-1.01272,-0.2212,0.05474,0.36708
-0.0463206,0,0,15.0463,15.0463,14.9537,14.9537,0.0330791,0.0116154,0.633367,8.41257e-05,-0.00913775,-6.12437e-05,0,0,1,3.6575,0.315,-0.875,-0.040016,0.00244,-1.01272,-0.2212,0.05474,0.36708
-0.0639629,0,0,15.064,15.064,14.936,14.936,0.0456758,0.00983927,0.845332,-0.00280053,-0.0105055,0.00461065,0,0,1,3.6575,0.28,-0.8225,-0.042944,0.000854,-1.00809,-0.2212,0.05474,0.36708
-0.0812573,0,0,15.0813,15.0813,14.9187,14.9187,0.0580227,0.0080645,1.05576,-0.00276956,-0.0102901,0.00461046,0,0,1,3.6575,0.28,-0.8225,-0.042944,0.000854,-1.00809,-0.2212,0.05474,0.36708
-0.0985422,0,0,15.0985,15.0985,14.9015,14.9015,0.0703615,0.0149966,1.2584,0.00281928,-0.0100747,-0.00510273,0,0,1,3.8325,0.2625,-0.91,-0.03721,0.000854,-1.01772,-0.2212,0.05474,0.36708
-0.115494,0,0,15.1155,15.1155,14.8845,14.8845,0.0824612,0.0216956,1.45957,0.00270236,-0.00986352,-0.00510305,0,0,1,3.8325,0.2625,-0.91,-0.03721,0.000854,-1.01772,-0.2212,0.05474,0.36708
-0.129009,0,0,15.129,15.129,14.871,14.871,0.0921051,0.0274056,1.66877,0.00260271,-0.00798543,-0.00338207,0,0,1,3.675,-0.0175,-0.7525,-0.03721,0.002562,-1.01602,-0.2177,0.0504,0.36176
-0.144522,0,0,15.1445,15.1445,14.8555,14.8555,0.103174,0.026102,1.88105,-0.00211248,-0.00962414,-0.00657905,0,0,1,3.465,-0.0175,-0.8925,-0.041968,0.000732,-1.01919,-0.2177,0.0504,0.36176
-0.156403,0,0,15.1564,15.1564,14.8436,14.8436,0.111649,0.0211555,2.0939,-0.00396992,-0.00727795,0.000305822,0,0,1,3.5175,-0.1225,-0.875,-0.04392,0.002928,-1.01236,-0.2177,0.0504,0.36176
-0.168527,0,0,15.1685,15.1685,14.8315,14.8315,0.120296,0.0165186,2.30519,-0.003889,-0.00712703,0.000305543,0,0,1,3.71,0,-0.875,-0.04392,0.002928,-1.01236,-0.2177,0.0504,0.36176
-0.18047,0,0,15.1805,15.1805,14.8195,14.8195,0.128813,0.0216027,2.50837,0.00233953,-0.00722263,-0.00326032,0,0,1,3.535,-0.035,-0.805,-0.037576,0.002684,-1.01589,-0.2177,0.0504,0.36176
-0.192183,0,0,15.1922,15.1922,14.8078,14.8078,0.137164,0.0265171,2.71007,0.00225376,-0.00707687,-0.00326069,0,0,1,3.535,-0.035,-0.805,-0.037576,0.002684,-1.01589,-0.2177,0.0504,0.36176
-0.204363,0,0,15.2044,15.2044,14.7956,14.7956,0.145849,0.0229337,2.91596,-0.00327204,-0.00778018,0.00300934,0,0,1,3.29,-0.035,-0.84,-0.043188,0.00183,-1.00967,-0.2177,0.0504,0.36176
-0.216303,0,0,15.2163,15.2163,14.7837,14.7837,0.154361,0.0194132,3.12035,-0.0032106,-0.00763162,0.00300897,0,0,1,3.29,-0.035,-0.84,-0.043188,0.00183,-1.00967,-0.2177,0.0504,0.36176
-0.228351,0,0,15.2284,15.2284,14.7716,14.7716,0.162949,0.0266872,3.30973,0.00358713,-0.0073596,0.00386914,0,0,1,3.4125,0.07,-0.84,-0.036234,0.001952,-1.00882,-0.22204,0.0532,0.3654
-0.243242,0,0,15.2432,15.2432,14.7568,14.7568,0.173567,0.029166,3.50086,0.000263752,-0.00937257,-0.00313949,0,0,1,3.325,0.0875,-0.91,-0.039528,-0.000244,-1.01577,-0.22204,0.0532,0.3654
-0.255841,0,0,15.2558,15.2558,14.7442,14.7442,0.182547,0.0325005,3.68979,0.00105595,-0.00787245,-0.000803984,0,0,1,3.36,0.0525,-0.875,-0.038674,0.001098,-1.01345,-0.22204,0.0532,0.3654
-0.26876,0,0,15.2688,15.2688,14.7312,14.7312,0.191754,0.0354118,3.87722,0.00100514,-0.00771175,-0.000804539,0,0,1,3.5875,-0.1225,-0.91,-0.038674,0.001098,-1.01345,-0.22204,0.0532,0.3654
-0.283424,0,0,15.2834,15.2834,14.7166,14.7166,0.202207,0.0315249,4.06811,-0.00366496,-0.00875059,0.00189974,0,0,1,3.6575,0.0525,-0.875,-0.043432,-0.000122,-1.01077,-0.22204,0.0532,0.3654
-0.298059,0,0,15.2981,15.2981,14.7019,14.7019,0.212637,0.028093,4.25729,-0.00360506,-0.00856854,0.00189911,0,0,1,3.7625,0.28,-1.0325,-0.043432,-0.000122,-1.01077,-0.22204,0.0532,0.3654
-0.30457,0,0,15.3046,15.3046,14.6954,14.6954,0.217265,0.0233095,4.44573,-0.00364306,-0.00384696,5.46197e-05,0,0,1,3.64,0.14,-0.875,-0.043554,0.004514,-1.0126,-0.22204,0.0532,0.3654
-0.310732,0,0,15.3107,15.3107,14.6893,14.6893,0.221643,0.0187275,4.63286,-0.00356309,-0.00377055,5.43563e-05,0,0,1,3.5525,0.1925,-0.8225,-0.043554,0.004514,-1.0126,-0.22204,0.0532,0.3654
-0.320639,0,0,15.3206,15.3206,14.6794,14.6794,0.228694,0.0171601,4.82369,-0.00183493,-0.00609001,0.00116042,0,0,1,3.4825,0.035,-0.91,-0.041846,0.002074,-1.0115,-0.21434,0.04984,0.36232
-0.333976,0,0,15.334,15.334,14.666,14.666,0.238196,0.0102474,5.01697,-0.00548034,-0.00812247,0.00337284,0,0,1,3.57,-0.035,-0.8225,-0.045628,-0.000122,-1.00931,-0.21434,0.04984,0.36232
-0.34705,0,0,15.347,15.347,14.653,14.653,0.247508,0.00348273,5.20883,-0.00536227,-0.00795995,0.00337217,0,0,1,3.57,-0.035,-0.8225,-0.045628,-0.000122,-1.00931,-0.21434,0.04984,0.36232
-0.358179,0,0,15.3582,15.3582,14.6418,14.6418,0.25543,0.00939366,5.39051,0.00291707,-0.00672253,-0.00314472,0,0,1,3.4825,0.0175,-0.875,-0.03721,0.000976,-1.01577,-0.21434,0.04984,0.36232
-0.369091,0,0,15.3691,15.3691,14.6309,14.6309,0.263196,0.0151163,5.57086,0.00281719,-0.006587,-0.00314535,0,0,1,3.4825,0.0175,-0.875,-0.03721,0.000976,-1.01577,-0.21434,0.04984,0.36232
-0.381144,0,0,15.3811,15.3811,14.6189,14.6189,0.271776,0.0123671,5.75576,-0.00296614,-0.00753639,0.0012801,0,0,1,3.4125,0.175,-0.8575,-0.043066,-0.000122,-1.01138,-0.21434,0.04984,0.36232
-0.394011,0,0,15.394,15.394,14.606,14.606,0.280937,0.013898,5.93668,-0.000198686,-0.00786501,4.98416e-05,0,0,1,3.465,0.1225,-0.6475,-0.04026,-0.00061,-1.0126,-0.21434,0.04984,0.36232
-0.406621,0,0,15.4066,15.4066,14.5934,14.5934,0.289913,0.0149628,6.11554,-0.000217269,-0.00770835,4.90565e-05,0,0,1,3.465,-0.105,-0.7,-0.04026,-0.00061,-1.0126,-0.2177,0.04984,0.36358
-0.414761,0,0,15.4148,15.4148,14.5852,14.5852,0.295695,0.00957377,6.29725,-0.00401076,-0.00528703,-0.00880373,0,0,1,3.43,-0.1225,-0.7175,-0.044164,0.001708,-1.02138,-0.2177,0.04984,0.36358
-0.422827,0,0,15.4228,15.4228,14.5772,14.5772,0.301424,0.00445693,6.47747,-0.00392145,-0.00518703,-0.00880424,0,0,1,3.465,-0.035,-0.7875,-0.044164,0.001708,-1.02138,-0.2177,0.04984,0.36358
-0.431113,0,0,15.4311,15.4311,14.5689,14.5689,0.30731,0.00280906,6.65429,-0.00182743,-0.00545069,-0.000567236,0,0,1,3.2725,0.07,-0.7,-0.04209,0.001342,-1.01321,-0.2177,0.04984,0.36358
-0.43919,0,0,15.4392,15.4392,14.5608,14.5608,0.313046,0.00103357,6.82975,-0.00179644,-0.00535058,-0.000567776,0,0,1,3.255,-0.0175,-0.7175,-0.04209,0.001342,-1.01321,-0.2177,0.04984,0.36358
-0.403934,0,0,15.4039,15.4039,14.5961,14.5961,0.287832,-0.00323455,7.00474,0.000464791,0.020833,0.0178768,0,0,1,3.325,-0.0175,-0.7875,-0.039894,0.027938,-0.99491,-0.2177,0.04984,0.36358
-0.369558,0,0,15.3696,15.3696,14.6304,14.6304,0.26325,-0.00738307,7.17843,0.000537197,0.020404,0.0178789,0,0,1,3.395,-0.07,-0.8225,-0.039894,0.027938,-0.99491,-0.2177,0.04984,0.36358
-0.3908,0,0,15.3908,15.3908,14.6092,14.6092,0.278393,0.0977678,7.27682,0.066734,-0.0102298,-0.00253329,0,0,1,3.36,0.035,-0.8575,0.028426,-0.002928,-1.01516,-0.2177,0.04984,0.36358
-0.412293,0,0,15.4123,15.4123,14.5877,14.5877,0.293713,0.200689,7.37421,0.0649376,-0.00996246,-0.0025393,0,0,1,3.6575,0.4025,-1.0325,0.028426,-0.002928,-1.01516,-0.2177,0.04984,0.36358
-0.466794,0,0,15.4668,15.4668,14.5332,14.5332,0.332607,-0.0582467,7.70227,-0.154806,-0.0361515,0.122255,0,0,1,3.5,0.3675,-1.2775,-0.196786,-0.029768,-0.891332,-0.21798,0.05516,0.37338
-0.551152,0,0,15.5512,15.5512,14.4488,14.4488,0.39282,0.0629387,7.77382,0.0707434,-0.0473133,0.0123326,0,0,1,3.535,0.49,-1.3825,0.031842,-0.041968,-1.0004,-0.21798,0.05516,0.37338
-0.632352,0,0,15.6324,15.6324,14.3676,14.3676,0.450772,0.179238,7.84539,0.0687136,-0.0463019,0.0123209,0,0,1,2.9925,-0.35,-1.12,0.031842,-0.041968,-1.0004,-0.21798,0.05516,0.37338
-0.707548,0,0,15.7075,15.7075,14.2925,14.2925,0.50443,0.703567,7.6281,0.399358,-0.0386491,-0.112181,0,0,1,2.9925,0.21,-0.8925,0.373076,-0.035258,-1.12386,-0.21798,0.05516,0.37338
-0.709372,0,0,15.7094,15.7094,14.2906,14.2906,0.505678,0.702988,7.62775,0.399368,-0.0386273,-0.112181,1,0,1,4.2175,-0.245,-1.05,0.373076,-0.035258,-1.12386,-0.21798,0.05516,0.37338
-0.71225,0,0,15.7122,15.7122,14.2878,14.2878,0.507679,0.702585,7.62766,-0.316418,0.0471406,-0.0591908,1,0,1,4.6375,-0.14,-0.8925,-0.345748,0.050386,-1.07128,-0.21798,0.05516,0.37338
-0.715159,0,0,15.7152,15.7152,14.2848,14.2848,0.509703,0.702734,7.62941,-0.316421,0.0471759,-0.0591911,1,0,1,4.6375,0.1925,0.175,-0.345748,0.050386,-1.07128,-0.21798,0.05516,0.37338
-0.719798,0,0,15.7198,15.7198,14.2802,14.2802,0.512961,0.702236,7.63005,-0.493538,0.345955,0.0191267,1,0,1,5.3375,-0.1925,-0.4725,-0.523624,0.348798,-0.993568,-0.21798,0.05516,0.37338
-0.719141,0,0,15.7191,15.7191,14.2809,14.2809,0.512437,0.70452,7.6302,-0.493578,0.345946,0.0191263,1,0,1,3.22,1.435,-0.77,-0.523624,0.348798,-0.993568,-0.21896,0.05866,0.3892
-0.718416,0,0,15.7184,15.7184,14.2816,14.2816,0.511864,0.705479,7.63151,-0.331533,0.0351231,-0.41439,1,0,1,3.185,0.665,-0.0875,-0.360876,0.038308,-1.42374,-0.21896,0.05866,0.3892
-0.716373,0,0,15.7164,15.7164,14.2836,14.2836,0.51035,0.705845,7.63242,-0.33154,0.0350967,-0.41439,1,0,1,2.66,0.315,-0.315,-0.360876,0.038308,-1.42374,-0.21896,0.05866,0.3892
-0.710641,0,0,15.7106,15.7106,14.2894,14.2894,0.506202,0.70554,7.63483,0.683479,-0.148532,0.074085,1,0,1,1.1725,-0.07,0.56,0.658434,-0.145058,-0.939034,-0.21896,0.05866,0.3892
-0.704908,0,0,15.7049,15.7049,14.2951,14.2951,0.502053,0.705235,7.63723,0.683484,-0.148605,0.0740857,1,0,1,1.1725,-0.07,0.56,0.658434,-0.145058,-0.939034,-0.21896,0.05866,0.3892
-0.704796,0,0,15.7048,15.7048,14.2952,14.2952,0.50192,0.703355,7.63872,0.657762,-0.329965,0.171707,1,0,1,3.43,-0.9975,0.035,0.63257,-0.326228,-0.842166,-0.21896,0.05866,0.3892
-0.704685,0,0,15.7047,15.7047,14.2953,14.2953,0.501786,0.701475,7.64022,0.657795,-0.329967,0.171708,1,0,1,3.43,-0.9975,0.035,0.63257,-0.326228,-0.842166,-0.21896,0.05866,0.3892
-0.706953,0,0,15.707,15.707,14.293,14.293,0.503352,0.708846,7.64281,-0.104414,-0.206348,0.330555,1,0,1,4.375,4.4275,0.63,-0.132736,-0.202764,-0.684542,-0.21896,0.05866,0.3892
-0.709221,0,0,15.7092,15.7092,14.2908,14.2908,0.504918,0.716217,7.6454,-0.104542,-0.206321,0.330553,1,0,1,4.375,4.4275,0.63,-0.132736,-0.202764,-0.684542,-0.21364,0.0686,0.39592
-0.115327,0,0,15.1153,15.1153,14.8847,14.8847,0.0806995,-0.124973,8.33133,-0.563777,0.368821,0.156326,0,0,1,4.795,1.2775,-0.805,-0.608658,0.379176,-0.857538,-0.21364,0.0686,0.39592
-0.471693,0,0,15.4717,15.4717,14.5283,14.5283,0.335211,0.492643,8.0077,0.54943,-0.291718,-0.281298,0,0,1,3.0625,1.82,-0.595,0.520086,-0.285114,-1.29174,-0.21364,0.0686,0.39592
-0.475274,0,0,15.4753,15.4753,14.5247,14.5247,0.337733,0.49404,8.00643,0.549405,-0.291674,-0.281299,1,0,1,4.935,0.91,-1.5925,0.520086,-0.285114,-1.29174,-0.21364,0.0686,0.39592
-0.473132,0,0,15.4731,15.4731,14.5269,14.5269,0.336167,0.493614,8.00527,0.413713,-0.300005,-0.0366311,1,0,1,2.6425,-0.1575,-1.5225,0.383812,-0.29341,-1.04896,-0.21364,0.0686,0.39592
-0.471678,0,0,15.4717,15.4717,14.5283,14.5283,0.335092,0.492954,8.00326,0.413725,-0.300024,-0.0366309,1,0,1,2.9225,-0.2975,-2.0125,0.383812,-0.29341,-1.04896,-0.21364,0.0686,0.39592
-0.465938,0,0,15.4659,15.4659,14.5341,14.5341,0.330957,0.490503,8.00098,-0.355966,0.0177995,-0.359247,1,0,1,1.2075,-1.3475,-2.17,-0.38918,0.024156,-1.36908,-0.21364,0.0686,0.39592
-0.462933,0,0,15.4629,15.4629,14.5371,14.5371,0.328775,0.489942,7.99721,-0.355956,0.0177614,-0.359247,1,0,1,2.31,-0.245,-3.045,-0.38918,0.024156,-1.36908,-0.21364,0.0686,0.39592
-0.459065,0,0,15.4591,15.4591,14.5409,14.5409,0.325977,0.489734,7.99437,0.4399,-0.556772,0.859542,1,0,1,1.96,-0.035,-2.5025,0.410042,-0.549732,-0.159698,-0.2177,0.0707,0.39256
-0.452235,0,0,15.4522,15.4522,14.5478,14.5478,0.321065,0.489691,7.98877,-0.186965,0.602858,0.554999,1,0,1,0.7875,0.0525,-4.1125,-0.219478,0.60878,-0.461892,-0.2177,0.0707,0.39256
-0.453494,0,0,15.4535,15.4535,14.5465,14.5465,0.321929,0.487385,7.98717,-0.186925,0.602873,0.554999,1,0,1,4.0075,-1.26,-1.7675,-0.219478,0.60878,-0.461892,-0.2177,0.0707,0.39256
-0.4575,0,0,15.4575,15.4575,14.5425,14.5425,0.324756,0.485262,7.98501,-0.13963,0.25132,-0.370311,1,0,1,5.11,-1.155,-2.1,-0.17202,0.257542,-1.38006,-0.2177,0.0707,0.39256
-0.472913,0,0,15.4729,15.4729,14.5271,14.5271,0.335729,0.488396,7.98285,-0.139685,0.251511,-0.370312,1,0,1,9.6775,1.925,-2.1175,-0.17202,0.257542,-1.38006,-0.2177,0.0707,0.39256
-0.486462,0,0,15.4865,15.4865,14.5135,14.5135,0.34537,0.489881,7.98182,-0.00097394,0.62038,-0.298512,1,0,1,8.925,0.9625,-1.4525,-0.032696,0.62586,-1.30882,-0.2177,0.0707,0.39256
-0.488361,0,0,15.4884,15.4884,14.5116,14.5116,0.346689,0.492723,7.97864,-0.00102355,0.620403,-0.298512,1,0,1,4.27,1.75,-2.7125,-0.032696,0.62586,-1.30882,-0.2177,0.0707,0.39256
-0.339109,0,0,15.3391,15.3391,14.6609,14.6609,0.240055,0.362132,8.18012,-0.0716358,0.0832607,0.0746629,0,0,1,3.99,0.21,-2.0475,-0.105896,0.091134,-0.938546,-0.2177,0.0707,0.39256
-0.182492,0,0,15.1825,15.1825,14.8175,14.8175,0.128172,0.235257,8.38442,-0.0694214,0.0813081,0.0746807,0,0,1,-0.14,0.2975,-0.28,-0.105896,0.091134,-0.938546,-0.22134,0.06944,0.40124
-0.171552,0,0,15.1716,15.1716,14.8284,14.8284,0.120345,0.23542,8.38518,-0.119233,-0.0433978,0.524795,1,0,1,-0.875,0.1925,-0.4025,-0.155916,-0.033306,-0.491904,-0.22134,0.06944,0.40124
-0.159745,0,0,15.1597,15.1597,14.8403,14.8403,0.111899,0.234952,8.38734,-0.119225,-0.0435452,0.524796,1,0,1,-1.225,-0.175,0.42,-0.155916,-0.033306,-0.491904,-0.22134,0.06944,0.40124
-0.147022,0,0,15.147,15.147,14.853,14.853,0.1028,0.233409,8.39002,-0.0823881,0.254041,0.377996,1,0,1,-1.5925,-0.805,0.7175,-0.11895,0.26413,-0.637572,-0.22134,0.06944,0.40124
-0.152784,0,0,15.1528,15.1528,14.8472,14.8472,0.106904,0.231597,8.39269,-0.0823565,0.254113,0.377996,1,0,1,5.81,-0.9625,0.7175,-0.11895,0.26413,-0.637572,-0.22134,0.06944,0.40124
-0.164754,0,0,15.1648,15.1648,14.8352,14.8352,0.115442,0.230531,8.39573,0.0628375,0.341826,-0.322073,1,0,1,8.295,-0.525,0.9275,0.02684,0.351604,-1.33224,-0.22134,0.06944,0.40124
-0.185113,0,0,15.1851,15.1851,14.8149,14.8149,0.12997,0.233319,8.39791,0.0627888,0.34208,-0.322074,1,0,1,11.655,1.7325,0.42,0.02684,0.351604,-1.33224,-0.22134,0.06944,0.40124
-0.205214,0,0,15.2052,15.2052,14.7948,14.7948,0.144313,0.234941,8.40062,0.22786,-0.0520169,-0.33105,1,0,1,11.55,1.05,0.735,0.192638,-0.042334,-1.34115,-0.22134,0.06944,0.40124
-0.204594,0,0,15.2046,15.2046,14.7954,14.7954,0.143854,0.235461,8.40195,0.227851,-0.0520249,-0.33105,1,0,1,3.255,0.4025,-0.07,0.192638,-0.042334,-1.34115,-0.21868,0.0763,0.41034
-0.503063,0,0,15.5031,15.5031,14.4969,14.4969,0.357008,-0.0534829,8.69373,-0.206763,-0.19217,0.0767619,0,0,1,1.2775,-0.035,-0.245,-0.24888,-0.18605,-0.936472,-0.21868,0.0763,0.41034
-0.788706,0,0,15.7887,15.7887,14.2113,14.2113,0.560979,-0.334752,8.98176,-0.201854,-0.18861,0.0767168,0,0,1,-1.6275,0.455,0.1225,-0.24888,-0.18605,-0.936472,-0.21868,0.0763,0.41034
-0.774705,0,0,15.7747,15.7747,14.2253,14.2253,0.550919,-0.334461,8.98408,0.142796,0.0913729,0.522284,1,0,1,-2.1175,0.28,0.5075,0.097234,0.093818,-0.494344,-0.21868,0.0763,0.41034
-0.764559,0,0,15.7646,15.7646,14.2354,14.2354,0.543614,-0.335171,8.98498,0.142808,0.0912454,0.522285,1,0,1,-0.5775,-0.315,-0.315,0.097234,0.093818,-0.494344,-0.21868,0.0763,0.41034
-0.146532,0,0,15.1465,15.1465,14.8535,14.8535,0.102155,-0.654105,9.32581,-0.153518,0.335122,0.170525,0,0,1,0.315,-0.665,-0.665,-0.205936,0.345138,-0.843386,-0.21868,0.0763,0.41034
0.441502,0,0,14.5585,14.5585,15.4415,15.4415,-0.317835,-0.965171,9.66881,-0.148089,0.327792,0.170434,0,0,1,8.1375,-0.7525,-1.155,-0.205936,0.345138,-0.843386,-0.21868,0.0763,0.41034
0.423856,0,0,14.5761,14.5761,15.4239,15.4239,-0.305198,-0.966328,9.66751,-0.133734,-0.0936906,-0.45107,1,0,1,10.5875,-0.5775,-1.61,-0.19154,-0.076128,-1.4601,-0.21868,0.0763,0.41034
0.410695,0,0,14.5893,14.5893,15.4107,15.4107,-0.295766,-0.964651,9.66559,-0.133763,-0.093526,-0.451068,1,0,1,8.785,1.085,-1.96,-0.19154,-0.076128,-1.4601,-0.21378,0.08428,0.40908
0.40154,0,0,14.5985,14.5985,15.4015,15.4015,-0.289196,-0.963931,9.66307,-0.242141,0.105899,-0.27021,1,0,1,7.175,0.525,-2.31,-0.300364,0.122976,-1.28063,-0.21378,0.08428,0.40908
0.405859,0,0,14.5941,14.5941,15.4059,15.4059,-0.292249,-0.964344,9.66117,-0.242133,0.105846,-0.270211,1,0,1,1.785,-0.14,-1.96,-0.300364,0.122976,-1.28063,-0.21378,0.08428,0.40908
0.871021,0,0,14.129,14.129,15.871,15.871,-0.624441,-1.24179,9.97589,-0.139253,0.249045,0.143617,0,0,1,1.1025,-0.77,-2.1525,-0.20191,0.271816,-0.86986,-0.21378,0.08428,0.40908
1.33124,0,0,13.6688,13.6688,16.3312,16.3312,-0.95307,-1.50866,10.2922,-0.134597,0.243313,0.143427,0,0,1,-0.2275,1.19,-1.995,-0.20191,0.271816,-0.86986,-0.21378,0.08428,0.40908
1.34109,0,0,13.6589,13.6589,16.3411,16.3411,-0.960002,-1.50629,10.2901,-0.394739,0.259313,0.431371,1,0,1,-0.4025,1.505,-2.0475,-0.463112,0.28792,-0.584136,-0.21378,0.08428,0.40908
1.3456,0,0,13.6544,13.6544,16.3456,16.3456,-0.963121,-1.50572,10.289,-0.394749,0.259258,0.43137,1,0,1,1.75,0.4375,-1.505,-0.463112,0.28792,-0.584136,-0.21378,0.08428,0.40908
1.68668,0,0,13.3133,13.3133,16.6867,16.6867,-1.20662,-1.35318,10.3049,0.127286,0.20738,0.0809532,0,0,1,4.6025,-0.5075,-1.4525,0.063806,0.24034,-0.931836,-0.21378,0.08428,0.40908
2.0163,0,0,12.9837,12.9837,17.0163,17.0163,-1.4419,-1.20313,10.3161,0.124668,0.203274,0.0809168,0,0,1,6.51,-0.8225,-1.5225,0.063806,0.24034,-0.931836,-0.2177,0.08596,0.4165
2.00477,0,0,12.9952,12.9952,17.0048,17.0048,-1.43352,-1.20326,10.3138,0.118232,-0.127299,-0.195222,1,0,1,8.19,0.0525,-2.17,0.05734,-0.090036,-1.20585,-0.2177,0.08596,0.4165
1.99671,0,0,13.0033,13.0033,16.9967,16.9967,-1.4276,-1.20195,10.3133,0.118209,-0.127195,-0.195219,1,0,1,6.825,0.875,-1.155,0.05734,-0.090036,-1.20585,-0.2177,0.08596,0.4165
1.9904,0,0,13.0096,13.0096,16.9904,16.9904,-1.42295,-1.2022,10.3134,-0.252561,0.0210254,-0.172349,1,0,1,6.125,-0.0525,-0.805,-0.315004,0.05795,-1.18316,-0.2177,0.08596,0.4165
1.99596,0,0,13.004,13.004,16.996,16.996,-1.42676,-1.20325,10.3139,-0.252543,0.0209589,-0.172351,1,0,1,1.3825,-0.525,-0.525,-0.315004,0.05795,-1.18316,-0.2177,0.08596,0.4165
2.48482,0,0,12.5152,12.5152,17.4848,17.4848,-1.77576,-1.57144,10.7051,-0.210402,0.270243,0.119081,0,0,1,-0.0525,0.1225,-0.5075,-0.279136,0.313052,-0.89365,-0.2177,0.08596,0.4165
2.96453,0,0,12.0355,12.0355,17.9645,17.9645,-2.11819,-1.92816,11.0992,-0.204179,0.26428,0.118688,0,0,1,0.35,1.4525,0.105,-0.279136,0.313052,-0.89365,-0.2177,0.08596,0.4165
3.38483,0,0,11.6152,11.6152,18.3848,18.3848,-2.41814,-1.75593,11.1142,0.147069,0.2483,0.100012,0,0,1,1.8025,1.435,0.1925,0.076616,0.302316,-0.912072,-0.2177,0.08596,0.4165
3.79268,0,0,11.2073,11.2073,18.7927,18.7927,-2.70917,-1.58872,11.128,0.144152,0.243224,0.0998698,0,0,1,3.6575,0.3325,0.14,0.076616,0.302316,-0.912072,-0.2177,0.08596,0.4165
3.90049,0,0,11.0995,11.0995,18.9005,18.9005,-2.78587,-1.03519,10.8197,0.387305,0.0773721,0.127198,0,0,1,4.76,0.21,0.0525,0.330498,0.137982,-0.88511,-0.2128,0.08932,0.42602
3.89364,0,0,11.1064,11.1064,18.8936,18.8936,-2.78069,-1.03718,10.8215,-0.429165,0.066349,-0.258979,1,0,1,6.44,-1.12,0.14,-0.489464,0.12688,-1.26831,-0.2128,0.08932,0.42602
3.88851,0,0,11.1115,11.1115,18.8885,18.8885,-2.77672,-1.03785,10.8216,-0.429154,0.0664181,-0.258976,1,0,1,5.74,-0.2975,-0.805,-0.489464,0.12688,-1.26831,-0.2128,0.08932,0.42602
3.93743,0,0,11.0626,11.0626,18.9374,18.9374,-2.81137,-1.09613,10.9638,-0.0416906,0.0361384,-0.0653806,0,0,1,5.075,-0.0875,-0.77,-0.101382,0.097234,-1.07616,-0.2128,0.08932,0.42602
3.99486,0,0,11.0051,11.0051,18.9949,18.9949,-2.85209,-1.15253,11.1056,-0.0407064,0.0354297,-0.065435,0,0,1,1.2775,0.1225,-0.56,-0.101382,0.097234,-1.07616,-0.2128,0.08932,0.42602
4.00629,0,0,10.9937,10.9937,19.0063,19.0063,-2.85994,-1.07466,11.1447,0.0516003,0.00024113,0.0976142,0,0,1,1.0325,0.8225,-0.84,-0.00732,0.06222,-0.91439,-0.2128,0.08932,0.42602
4.01734,0,0,10.9827,10.9827,19.0173,19.0173,-2.86753,-1.00002,11.184,0.0502977,0.000107741,0.0976312,0,0,1,1.1375,0.0175,-0.63,-0.00732,0.06222,-0.91439,-0.2128,0.08932,0.42602
4.01338,0,0,10.9866,10.9866,19.0134,19.0134,-2.86439,-0.369751,10.7963,0.477133,0.0128571,0.0533808,0,0,1,1.575,0.7525,-0.8225,0.432368,0.074908,-0.958432,-0.2128,0.08932,0.42602
4.00845,0,0,10.9915,10.9915,19.0085,19.0085,-2.86056,0.250947,10.404,0.4663,0.0129232,0.0533954,0,0,1,2.1875,0,-1.3475,0.432368,0.074908,-0.958432,-0.21742,0.0931,0.41874
4.00613,0,0,10.9939,10.9939,19.0061,19.0061,-2.8586,0.249642,10.4028,0.100407,-0.259263,-0.0882395,1,0,1,4.62,-0.63,-1.6275,0.064904,-0.19703,-1.09898,-0.21742,0.0931,0.41874
3.99996,0,0,11,11,19,19,-2.85389,0.248073,10.401,0.100435,-0.259181,-0.0882353,1,0,1,6.16,-0.77,-1.925,0.064904,-0.19703,-1.09898,-0.21742,0.0931,0.41874
3.73689,0,0,11.2631,11.2631,18.7369,18.7369,-2.66569,-0.159939,10.7472,-0.309261,-0.183357,0.0391801,0,0,1,5.67,-0.175,-2.31,-0.353678,-0.124562,-0.972706,-0.21742,0.0931,0.41874
3.48339,0,0,11.5166,11.5166,18.4834,18.4834,-2.48436,-0.558037,11.0878,-0.302313,-0.180194,0.0392788,0,0,1,3.7275,0.1925,-2.7125,-0.353678,-0.124562,-0.972706,-0.21742,0.0931,0.41874
3.28225,0,0,11.7178,11.7178,18.2822,18.2822,-2.34043,-0.306439,10.9617,0.180332,-0.12798,-0.0766458,0,0,1,2.1875,0.14,-2.415,0.13542,-0.074908,-1.08787,-0.21742,0.0931,0.41874
3.08706,0,0,11.9129,11.9129,18.0871,18.0871,-2.20078,-0.0611659,10.8378,0.176051,-0.125545,-0.0765355,0,0,1,1.5925,0.1925,-2.135,0.13542,-0.074908,-1.08787,-0.21742,0.0931,0.41874
3.09538,0,0,11.9046,11.9046,18.0954,18.0954,-2.20648,-0.059943,10.8358,-0.151253,-0.121858,-0.155472,1,0,1,0.315,0.8575,-1.995,-0.193248,-0.071126,-1.1662,-0.21742,0.0931,0.41874
3.10033,0,0,11.8997,11.8997,18.1003,18.1003,-2.20978,-0.0586879,10.8346,-0.151275,-0.121916,-0.155474,1,0,1,1.6625,0.8575,-1.505,-0.193248,-0.071126,-1.1662,-0.21546,0.09632,0.42686
3.10407,0,0,11.8959,11.8959,18.1041,18.1041,-2.21221,-0.0580241,10.8336,0.200536,0.0269142,-0.136788,1,0,1,2.1525,0.5075,-1.4175,0.160064,0.077592,-1.14765,-0.21546,0.09632,0.42686
3.10531,0,0,11.8947,11.8947,18.1053,18.1053,-2.21286,-0.0588917,10.8332,0.200551,0.0269028,-0.136788,1,0,1,3.15,-0.4025,-1.1025,0.160064,0.077592,-1.14765,-0.21546,0.09632,0.42686
3.06672,0,0,11.9333,11.9333,18.0667,18.0667,-2.18507,-0.546963,11.2478,-0.37637,-0.0472301,-0.0091942,0,0,1,3.4825,-0.455,-1.0325,-0.427854,0.00305,-1.02102,-0.21546,0.09632,0.42686
3.02931,0,0,11.9707,11.9707,18.0293,18.0293,-2.15812,-1.0233,11.6587,-0.368057,-0.0467558,-0.00929021,0,0,1,3.3775,-0.2625,-1.1725,-0.427854,0.00305,-1.02102,-0.21546,0.09632,0.42686
3.03103,0,0,11.969,11.969,18.031,18.031,-2.15911,-1.02426,11.659,0.111707,-0.197478,0.174271,1,0,1,2.9575,-0.4725,-0.7175,0.053924,-0.147498,-0.838872,-0.21546,0.09632,0.42686
3.03625,0,0,11.9638,11.9638,18.0362,18.0362,-2.16261,-1.02391,11.659,0.111701,-0.197538,0.174269,1,0,1,1.5575,0.2975,-0.805,0.053924,-0.147498,-0.838872,-0.21546,0.09632,0.42686
2.65017,0,0,12.3498,12.3498,17.6502,17.6502,-1.88664,-0.760674,11.5082,0.167242,-0.246097,-0.000814163,0,0,1,1.085,0.6825,-0.3675,0.114314,-0.200812,-1.01284,-0.21546,0.09632,0.42686
2.27266,0,0,12.7273,12.7273,17.2727,17.2727,-1.61681,-0.506079,11.3581,0.162799,-0.241392,-0.000621118,0,0,1,1.155,1.1025,-0.245,0.114314,-0.200812,-1.01284,-0.2156,0.0973,0.44478
2.27583,0,0,12.7242,12.7242,17.2758,17.2758,-1.61891,-0.504755,11.3589,-0.297776,-0.042362,-0.0702108,1,0,1,2.345,0.8575,-0.3325,-0.348188,-0.001952,-1.0819,-0.2156,0.0973,0.44478
2.12588,0,0,12.8741,12.8741,17.1259,17.1259,-1.51164,-0.72233,11.5706,-0.166176,-0.106194,0.00516712,0,0,1,3.0625,0.6125,-0.14,-0.219844,-0.067588,-1.00711,-0.2156,0.0973,0.44478
1.97506,0,0,13.0249,13.0249,16.9751,16.9751,-1.40376,-0.93658,11.7802,-0.162437,-0.10431,0.0051609,0,0,1,4.4975,-0.42,-0.1225,-0.219844,-0.067588,-1.00711,-0.2156,0.0973,0.44478
1.65689,0,0,13.3431,13.3431,16.6569,16.6569,-1.17636,-0.529063,11.5214,0.273023,-0.187299,0.0448077,0,0,1,3.815,-0.8575,-0.14,0.224602,-0.154452,-0.967948,-0.2156,0.0973,0.44478
1.34662,0,0,13.6534,13.6534,16.3466,16.3466,-0.954638,-0.132498,11.2661,0.266102,-0.183431,0.0449196,0,0,1,3.5175,-1.4,-0.3675,0.224602,-0.154452,-0.967948,-0.2156,0.0973,0.44478
1.45772,0,0,13.5423,13.5423,16.4577,16.4577,-1.03389,-0.676785,11.7202,-0.342397,0.038435,0.162613,0,0,1,2.415,-1.1025,-0.315,-0.396012,0.068564,-0.851072,-0.2156,0.0973,0.44478
1.57125,0,0,13.4288,13.4288,16.5712,16.5712,-1.11486,-1.20594,12.1715,-0.333162,0.0370252,0.162435,0,0,1,0.84,0.2975,-0.7,-0.396012,0.068564,-0.851072,-0.2156,0.0973,0.44478
1.8254,0,0,13.1746,13.1746,16.8254,16.8254,-1.29626,-1.04293,12.1333,0.12734,0.159528,0.0409511,0,0,1,0.735,0.525,-0.7,0.069296,0.194102,-0.971608,-0.21588,0.10584,0.44548
1.89407,0,0,13.1059,13.1059,16.8941,16.8941,-1.34517,-1.37841,12.4373,-0.238796,0.0276354,0.0215048,0,0,1,3.0275,0.98,-0.77,-0.304268,0.063196,-0.990762,-0.21588,0.10584,0.44548
1.95661,0,0,13.0434,13.0434,16.9566,16.9566,-1.38969,-1.70651,12.7399,-0.233071,0.0268626,0.0213322,0,0,1,4.97,0.525,-0.665,-0.304268,0.063196,-0.990762,-0.21588,0.10584,0.44548
1.95186,0,0,13.0481,13.0481,16.9519,16.9519,-1.38614,-1.70546,12.7395,-0.347165,-0.00238607,-0.126204,1,0,1,5.495,0.7175,-1.0675,-0.418826,0.033916,-1.13716,-0.21588,0.10584,0.44548
1.95017,0,0,13.0498,13.0498,16.9502,16.9502,-1.38479,-1.70518,12.7393,-0.34717,-0.00236249,-0.126203,1,0,1,4.27,0.2625,-0.945,-0.418826,0.033916,-1.13716,-0.21588,0.10584,0.44548
1.9504,0,0,13.0496,13.0496,16.9504,16.9504,-1.3848,-1.70587,12.7388,-0.134072,-0.0225136,0.229609,1,0,1,3.5,-0.2975,-1.155,-0.204838,0.013786,-0.784094,-0.21588,0.10584,0.44548
1.95689,0,0,13.0431,13.0431,16.9569,16.9569,-1.38929,-1.70726,12.7377,-0.134047,-0.0225918,0.229607,1,0,1,0.98,-0.7,-1.54,-0.204838,0.013786,-0.784094,-0.21588,0.10584,0.44548
2.10476,0,0,12.8952,12.8952,17.1048,17.1048,-1.49475,-1.1915,12.4332,0.398537,0.115154,0.0287672,0,0,1,0.455,-0.91,-1.4525,0.339038,0.153232,-0.983564,-0.21588,0.10584,0.44548
2.25057,0,0,12.7494,12.7494,17.2506,17.2506,-1.59873,-0.683274,12.1174,0.389668,0.113336,0.0288633,0,0,1,0.525,-0.14,-1.3825,0.339038,0.153232,-0.983564,-0.22358,0.11256,0.46424
2.40794,0,0,12.5921,12.5921,17.4079,17.4079,-1.71096,-1.01612,12.4118,-0.231025,0.081582,0.034991,0,0,1,1.54,0.455,-1.3475,-0.290116,0.123464,-0.977342,-0.22358,0.11256,0.46424
2.55588,0,0,12.4441,12.4441,17.5559,17.5559,-1.81644,-1.33969,12.7052,-0.225379,0.0797458,0.0348183,0,0,1,4.1475,1.1725,-1.3825,-0.290116,0.123464,-0.977342,-0.22358,0.11256,0.46424
2.55116,0,0,12.4488,12.4488,17.5512,17.5512,-1.81287,-1.33738,12.705,0.314949,0.0999589,-0.167429,1,0,1,5.5125,1.4525,-0.91,0.25254,0.143594,-1.17803,-0.22358,0.11256,0.46424
2.54644,0,0,12.4536,12.4536,17.5464,17.5464,-1.8093,-1.33507,12.7048,0.314909,0.100021,-0.167426,1,0,1,5.5125,1.4525,-0.91,0.25254,0.143594,-1.17803,-0.22358,0.11256,0.46424
2.57615,0,0,12.4239,12.4239,17.5761,17.5761,-1.83033,-1.30472,12.7342,0.0222062,0.0239355,-0.0259119,0,0,1,5.0575,1.1375,-0.7525,-0.04087,0.067954,-1.03761,-0.22358,0.11256,0.46424
2.40075,0,0,12.5992,12.5992,17.4008,17.4008,-1.70486,-1.0164,12.5484,0.186769,-0.0984487,0.0788867,0,0,1,2.03,0.07,-1.1025,0.129442,-0.056486,-0.933788,-0.22358,0.11256,0.46424
2.23393,0,0,12.7661,12.7661,17.2339,17.2339,-1.58553,-0.737297,12.3648,0.181898,-0.0963692,0.079021,0,0,1,0.245,-1.2075,-0.98,0.129442,-0.056486,-0.933788,-0.22358,0.11256,0.46424
2.21566,0,0,12.7843,12.7843,17.2157,17.2157,-1.57231,-1.02458,12.6034,-0.196983,-0.031165,0.0553442,0,0,1,-0.14,-1.4875,-0.84,-0.256078,0.008418,-0.957212,-0.2268,0.11284,0.46592
2.3145,0,0,12.6855,12.6855,17.3145,17.3145,-1.64274,-0.542511,12.3005,0.338374,0.0731207,0.0979649,0,0,1,0.77,-0.1225,-0.63,0.289994,0.113826,-0.915,-0.2268,0.11284,0.46592
2.41248,0,0,12.5875,12.5875,17.4125,17.4125,-1.71254,-0.0688268,11.9976,0.330107,0.0719017,0.0979733,0,0,1,0.9275,1.0675,-0.595,0.289994,0.113826,-0.915,-0.2268,0.11284,0.46592
2.41037,0,0,12.5896,12.5896,17.4104,17.4104,-1.71085,-0.0667416,11.9989,-0.200336,-0.0942834,-0.187143,1,0,1,4.4625,1.295,-0.07,-0.242658,-0.052216,-1.19792,-0.2268,0.11284,0.46592
2.40507,0,0,12.5949,12.5949,17.4051,17.4051,-1.70688,-0.0648954,12.0001,-0.200368,-0.0942142,-0.187141,1,0,1,5.74,1.155,-0.07,-0.242658,-0.052216,-1.19792,-0.2268,0.11284,0.46592
2.31739,0,0,12.6826,12.6826,17.3174,17.3174,-1.64408,-0.248439,12.154,-0.142982,-0.0641742,-0.0393338,0,0,1,4.9,1.015,-0.1575,-0.188246,-0.023302,-1.05127,-0.2268,0.11284,0.46592
2.2382,0,0,12.7618,12.7618,17.2382,17.2382,-1.58734,-0.428915,12.3059,-0.139832,-0.0631838,-0.0393245,0,0,1,2.1,0.2625,-0.49,-0.188246,-0.023302,-1.05127,-0.2268,0.11284,0.46592
2.245,0,0,12.755,12.755,17.245,17.245,-1.59203,-0.429591,12.3068,-0.0759191,-0.170493,0.15776,1,0,1,0.8925,-0.315,-0.315,-0.124074,-0.130418,-0.855708,-0.2268,0.11284,0.46592
2.25494,0,0,12.7451,12.7451,17.2549,17.2549,-1.59896,-0.431515,12.308,-0.0758855,-0.170614,0.157756,1,0,1,-0.3675,-1.05,-0.175,-0.124074,-0.130418,-0.855708,-0.23072,0.1204,0.46998
2.25848,0,0,12.7415,12.7415,17.2585,17.2585,-1.60131,0.0271562,11.9931,0.354551,0.0164425,-0.0184022,0,0,1,-0.315,-0.9625,-0.1225,0.316224,0.056486,-1.03053,-0.23072,0.1204,0.46998
2.26208,0,0,12.7379,12.7379,17.2621,17.2621,-1.60372,0.476422,11.6787,0.34671,0.0164016,-0.0184378,0,0,1,0.175,-0.455,-0.385,0.316224,0.056486,-1.03053,-0.23072,0.1204,0.46998
2.26175,0,0,12.7383,12.7383,17.2617,17.2617,-1.6033,0.0943405,11.9623,-0.290374,-0.0205966,-0.024183,0,0,1,1.7675,0.245,-0.56,-0.330254,0.01952,-1.03627,-0.23072,0.1204,0.46998
2.25225,0,0,12.7477,12.7477,17.2523,17.2523,-1.59635,-0.278135,12.2438,-0.283873,-0.020475,-0.02419,0,0,1,5.4075,0.5425,-0.525,-0.330254,0.01952,-1.03627,-0.23072,0.1204,0.46998
2.16992,0,0,12.8301,12.8301,17.1699,17.1699,-1.53738,-0.216177,12.2085,0.0395337,-0.0459477,0.0214567,0,0,1,6.125,0.875,-0.665,-0.004392,-0.006954,-0.991006,-0.23072,0.1204,0.46998
2.08927,0,0,12.9107,12.9107,17.0893,17.0893,-1.47961,-0.155798,12.1735,0.0384799,-0.04494,0.0214867,0,0,1,6.125,0.875,-0.665,-0.004392,-0.006954,-0.991006,-0.23072,0.1204,0.46998
2.068,0,0,12.932,12.932,17.068,17.068,-1.46426,-0.397743,12.3606,-0.169897,-0.0242765,0.0391777,0,0,1,4.1125,0.7525,-0.9625,-0.217892,0.01342,-0.973438,-0.23072,0.1204,0.46998
2.04733,0,0,12.9527,12.9527,17.0473,17.0473,-1.44934,-0.635063,12.5471,-0.165756,-0.0240152,0.039147,0,0,1,4.1125,0.7525,-0.9625,-0.217892,0.01342,-0.973438,-0.23856,0.119,0.47572
2.0946,0,0,12.9054,12.9054,17.0946,17.0946,-1.48295,-0.28533,12.3211,0.244837,0.0398801,0.0597134,0,0,1,1.5925,-0.7175,-1.0325,0.200568,0.077836,-0.953064,-0.23856,0.119,0.47572
2.14192,0,0,12.8581,12.8581,17.1419,17.1419,-1.51659,0.0564425,12.0956,0.238872,0.0392929,0.05971,0,0,1,1.5925,-0.7175,-1.0325,0.200568,0.077836,-0.953064,-0.23856,0.119,0.47572
1.86031,0,0,13.1397,13.1397,16.8603,16.8603,-1.31529,-0.407406,12.4077,-0.308587,-0.19241,0.162926,0,0,1,1.575,-0.2625,-1.225,-0.357338,-0.157136,-0.850706,-0.23856,0.119,0.47572
1.85953,0,0,13.1405,13.1405,16.8595,16.8595,-1.3146,-0.407382,12.4067,0.19412,0.147847,-0.200756,1,0,1,3.9025,0.1225,-1.3825,0.147498,0.182756,-1.21158,-0.23856,0.119,0.47572
1.85495,0,0,13.1451,13.1451,16.8549,16.8549,-1.31118,-0.406618,12.4055,0.194107,0.147906,-0.200754,1,0,1,5.425,0.56,-1.5575,0.147498,0.182756,-1.21158,-0.23856,0.119,0.47572
1.30733,0,0,13.6927,13.6927,16.3073,16.3073,-0.919927,-0.458073,12.3991,-0.0655817,-0.385921,-0.0246887,0,0,1,5.32,0.9625,-1.82,-0.114192,-0.357338,-1.037,-0.23856,0.119,0.47572
0.774366,0,0,14.2256,14.2256,15.7744,15.7744,-0.539182,-0.508724,12.3927,-0.0646976,-0.379277,-0.0246115,0,0,1,3.3425,1.1025,-1.715,-0.114192,-0.357338,-1.037,-0.23856,0.119,0.47572
0.791654,0,0,14.2083,14.2083,15.7917,15.7917,-0.551471,-0.0603997,12.1113,0.332511,0.0309763,0.00456411,0,0,1,2.66,0.7875,-1.5225,0.292556,0.052704,-1.00809,-0.23422,0.10682,0.46634
0.647247,0,0,14.3528,14.3528,15.6472,15.6472,-0.448275,0.101151,12.0114,0.100448,-0.0842201,0.0703563,0,0,1,1.645,-0.035,-1.3475,0.062342,-0.064172,-0.942816,-0.23422,0.10682,0.46634
0.509681,0,0,14.4903,14.4903,15.5097,15.5097,-0.349976,0.257668,11.9126,0.0977162,-0.0825044,0.0703597,0,0,1,0.1575,-0.56,-1.3125,0.062342,-0.064172,-0.942816,-0.23422,0.10682,0.46634
0.492075,0,0,14.5079,14.5079,15.4921,15.4921,-0.337364,0.323722,11.8868,0.0412874,-0.0132827,0.0884286,0,0,1,0.14,-0.245,-1.365,0.006832,0.004758,-0.924882,-0.23422,0.10682,0.46634
0.472131,0,0,14.5279,14.5279,15.4721,15.4721,-0.323084,0.38912,11.8613,0.040146,-0.0130334,0.0884229,0,0,1,1.26,0.3325,-1.19,0.006832,0.004758,-0.924882,-0.23422,0.10682,0.46634
0.544355,0,0,14.4556,14.4556,15.5444,15.5444,-0.374633,0.670738,11.6909,0.213572,0.0603203,-0.0338388,0,0,1,2.0475,0.35,-0.9275,0.185928,0.078934,-1.04615,-0.23422,0.10682,0.46634
0.616175,0,0,14.3838,14.3838,15.6162,15.6162,-0.425887,0.946623,11.5206,0.208757,0.0594263,-0.033913,0,0,1,1.9425,0.8225,-1.0675,0.185928,0.078934,-1.04615,-0.23422,0.10682,0.46634
0.621306,0,0,14.3787,14.3787,15.6213,15.6213,-0.429506,0.947951,11.5204,0.356218,-0.128834,-0.0707984,1,0,1,1.4875,0.875,-0.9275,0.334036,-0.109068,-1.08275,-0.23422,0.10682,0.46634
0.627598,0,0,14.3724,14.3724,15.6276,15.6276,-0.433954,0.948838,11.5211,0.356202,-0.128912,-0.0707993,1,0,1,1.015,0.6125,-0.455,0.334036,-0.109068,-1.08275,-0.23562,0.10822,0.4585
0.675015,0,0,14.325,14.325,15.675,15.675,-0.467773,0.824627,11.6257,-0.0848098,0.0192482,0.0280802,0,0,1,0.42,0.735,-0.49,-0.11102,0.039528,-0.984662,-0.23562,0.10822,0.4585
0.721661,0,0,14.2783,14.2783,15.7217,15.7217,-0.501038,0.70209,11.7302,-0.0826713,0.0186674,0.0281038,0,0,1,0.315,-0.105,-0.245,-0.11102,0.039528,-0.984662,-0.23562,0.10822,0.4585
0.51885,0,0,14.4811,14.4811,15.5189,15.5189,-0.356135,-0.123652,12.3026,-0.627215,-0.191427,0.167373,0,0,1,-0.21,-0.3325,-0.175,-0.672342,-0.172874,-0.846558,-0.23562,0.10822,0.4585
0.317659,0,0,14.6823,14.6823,15.3177,15.3177,-0.212404,-0.931581,12.8663,-0.613115,-0.188918,0.167256,0,0,1,0.7175,0.0525,-0.035,-0.672342,-0.172874,-0.846558,-0.23562,0.10822,0.4585
0.325114,0,0,14.6749,14.6749,15.3251,15.3251,-0.217706,-0.931439,12.8682,0.280167,-0.212947,-0.101756,1,0,1,0.56,0.175,0.2625,0.224724,-0.196786,-1.11349,-0.23562,0.10822,0.4585
0.329416,0,0,14.6706,14.6706,15.3294,15.3294,-0.220755,-0.930672,12.8698,0.280153,-0.213,-0.101756,1,0,1,1.82,0.5425,0.07,0.224724,-0.196786,-1.11349,-0.23562,0.10822,0.4585
0.242197,0,0,14.7578,14.7578,15.2422,15.2422,-0.158439,-1.14644,13.0471,-0.145776,-0.0663377,0.0814957,0,0,1,1.645,0.7,0.1225,-0.20679,-0.051362,-0.931592,-0.23562,0.10822,0.4585
0.15471,0,0,14.8453,14.8453,15.1547,15.1547,-0.0959375,-1.3576,13.2347,-0.142092,-0.0652469,0.0814176,0,0,1,2.2925,0.21,-0.3325,-0.20679,-0.051362,-0.931592,-0.2324,0.09954,0.43708
0.237841,0,0,14.7622,14.7622,15.2378,15.2378,-0.1553,-1.17437,13.1716,0.12283,0.0545004,0.100051,0,0,1,1.925,0.56,-0.6125,0.062464,0.069296,-0.91317,-0.2324,0.09954,0.43708
0.321468,0,0,14.6785,14.6785,15.3215,15.3215,-0.215011,-0.995506,13.1084,0.119709,0.0534583,0.100107,0,0,1,1.2425,0.5075,-0.6825,0.062464,0.069296,-0.91317,-0.2324,0.09954,0.43708
0.32556,0,0,14.6744,14.6744,15.3256,15.3256,-0.21791,-0.995013,13.1084,-0.142223,-0.121722,0.204859,1,0,1,1.89,0.385,-0.8225,-0.200568,-0.105652,-0.809226,-0.2324,0.09954,0.43708
0.331907,0,0,14.6681,14.6681,15.3319,15.3319,-0.22242,-0.994583,13.1078,-0.14223,-0.121801,0.204859,1,0,1,0.98,0.35,-1.2425,-0.200568,-0.105652,-0.809226,-0.2324,0.09954,0.43708
0.616106,0,0,14.3839,14.3839,15.6161,15.6161,-0.425373,-1.02339,13.2043,-0.00286959,0.171059,0.0580295,0,0,1,1.4875,0.385,-1.3125,-0.061122,0.190442,-0.954894,-0.2324,0.09954,0.43708
0.894415,0,0,14.1056,14.1056,15.8944,15.8944,-0.624099,-1.05189,13.3009,-0.00237221,0.167592,0.0579887,0,0,1,1.715,-0.07,-1.1725,-0.061122,0.190442,-0.954894,-0.2324,0.09954,0.43708
0.89853,0,0,14.1015,14.1015,15.8985,15.8985,-0.626971,-1.0515,13.2994,-0.0892412,0.195142,-0.0784846,1,0,1,1.89,0.3325,-1.68,-0.148352,0.218014,-1.09031,-0.2324,0.09954,0.43708
0.902646,0,0,14.0974,14.0974,15.9026,15.9026,-0.629844,-1.05112,13.298,-0.089248,0.195092,-0.078485,1,0,1,1.89,0.3325,-1.68,-0.148352,0.218014,-1.09031,-0.22694,0.09772,0.4354
0.90693,0,0,14.0931,14.0931,15.9069,15.9069,-0.632836,-1.0499,13.2963,0.0212827,0.192842,-0.192827,1,0,1,1.82,0.8225,-1.82,-0.037332,0.215818,-1.20377,-0.22694,0.09772,0.4354
0.911215,0,0,14.0888,14.0888,15.9112,15.9112,-0.635829,-1.04867,13.2946,0.0212613,0.192789,-0.192827,1,0,1,1.82,0.8225,-1.82,-0.037332,0.215818,-1.20377,-0.22694,0.09772,0.4354
0.916921,0,0,14.0831,14.0831,15.9169,15.9169,-0.639836,-1.04879,13.2938,-0.0647485,0.088179,0.117863,1,0,1,1.26,0.035,-1.33,-0.123708,0.111386,-0.89548,-0.22694,0.09772,0.4354
0.92315,0,0,14.0769,14.0769,15.9231,15.9231,-0.644216,-1.04926,13.2929,-0.0468819,0.018246,-0.100495,1,0,1,1.05,-0.175,-1.3825,-0.105774,0.041602,-1.11215,-0.22694,0.09772,0.4354
0.929399,0,0,14.0706,14.0706,15.9294,15.9294,-0.64861,-1.04961,13.2927,-0.0468759,0.0181694,-0.100496,1,0,1,1.05,-0.105,-0.9275,-0.105774,0.041602,-1.11215,-0.22694,0.09772,0.4354
0.933991,0,0,14.066,14.066,15.934,15.934,-0.65182,-1.05031,13.2927,0.510027,-0.0345233,0.00671429,1,0,1,1.715,-0.315,-0.875,0.453474,-0.01098,-1.00577,-0.22694,0.09772,0.4354
0.93946,0,0,14.0605,14.0605,15.9395,15.9395,-0.655657,-1.05059,13.2928,0.510032,-0.0345902,0.00671344,1,0,1,1.365,-0.07,-0.7875,0.453474,-0.01098,-1.00577,-0.22694,0.09772,0.4354
0.942973,0,0,14.057,14.057,15.943,15.943,-0.658095,-1.05042,13.2933,0.0487476,0.0197136,-0.188406,1,0,1,2.1525,0.1925,-0.5775,-0.00976,0.04331,-1.19938,-0.22904,0.09282,0.43988
0.948759,0,0,14.0512,14.0512,15.9488,15.9488,-0.662157,-1.05019,13.2937,0.241298,-0.176371,-0.137629,1,0,1,1.2425,0.2275,-0.5775,0.18361,-0.1525,-1.149,-0.22904,0.09282,0.43988
0.955706,0,0,14.0443,14.0443,15.9557,15.9557,-0.667048,-1.04982,13.2934,0.241292,-0.176456,-0.13763,1,0,1,0.77,0.315,-1.015,0.18361,-0.1525,-1.149,-0.22904,0.09282,0.43988
0.852638,0,0,14.1474,14.1474,15.8526,15.8526,-0.593364,-0.947378,13.2724,0.0663871,-0.0663557,-0.0103331,0,0,1,1.155,0.4375,-0.945,0.00976,-0.043798,-1.02273,-0.22904,0.09282,0.43988
0.753022,0,0,14.247,14.247,15.753,15.753,-0.522154,-0.847754,13.2518,0.0646486,-0.0651133,-0.0102938,0,0,1,0.6475,0.35,-0.8925,0.00976,-0.043798,-1.02273,-0.22904,0.09282,0.43988
0.755096,0,0,14.2449,14.2449,15.7551,15.7551,-0.523579,-0.641873,13.165,0.133461,0.00642766,0.103849,0,0,1,1.4525,0.595,-1.2775,0.082472,0.027694,-0.90951,-0.22904,0.09282,0.43988
0.757249,0,0,14.2428,14.2428,15.7572,15.7572,-0.525061,-0.441447,13.0789,0.129963,0.0064015,0.103882,0,0,1,1.5925,0.2625,-1.085,0.082472,0.027694,-0.90951,-0.22904,0.09282,0.43988
0.760636,0,0,14.2394,14.2394,15.7606,15.7606,-0.527423,-0.44117,13.0782,-0.298765,0.0897728,0.292238,1,0,1,2.1875,0.2625,-1.26,-0.348066,0.11102,-0.722606,-0.22904,0.09282,0.43988
0.764282,0,0,14.2357,14.2357,15.7643,15.7643,-0.529971,-0.440715,13.0772,-0.298773,0.0897284,0.292238,1,0,1,2.0825,0.3675,-1.4,-0.348066,0.11102,-0.722606,-0.22806,0.091,0.42742
0.766317,0,0,14.2337,14.2337,15.7663,15.7663,-0.531368,-0.440376,13.0767,0.409119,0.232104,-0.0716896,1,0,1,2.73,0.2975,-1.12,0.362828,0.253272,-1.08373,-0.22806,0.091,0.42742
0.768926,0,0,14.2311,14.2311,15.7689,15.7689,-0.533174,-0.439644,13.0767,0.409106,0.232072,-0.0716898,1,0,1,2.5025,0.525,-0.84,0.362828,0.253272,-1.08373,-0.22806,0.091,0.42742
0.76966,0,0,14.2303,14.2303,15.7697,15.7697,-0.533641,-0.438967,13.0772,0.160291,0.112258,0.163388,1,0,1,3.255,0.49,-0.5775,0.112972,0.13359,-0.850462,-0.22806,0.091,0.42742
0.76992,0,0,14.2301,14.2301,15.7699,15.7699,-0.53377,-0.438823,13.0782,0.160289,0.112256,0.163388,1,0,1,3.4475,0.175,-0.2275,0.112972,0.13359,-0.850462,-0.22806,0.091,0.42742
0.511755,0,0,14.4882,14.4882,15.5118,15.5118,-0.349329,-0.415829,13.0936,0.000133753,-0.16847,0.00641029,0,0,1,3.36,0.1925,-0.105,-0.047458,-0.15006,-1.00626,-0.22806,0.091,0.42742
0.257797,0,0,14.7422,14.7422,15.2578,15.2578,-0.167912,-0.393832,13.1096,-0.000250172,-0.165304,0.0064273,0,0,1,3.64,0.21,0.2275,-0.047458,-0.15006,-1.00626,-0.22806,0.091,0.42742
0.148765,0,0,14.8512,14.8512,15.1488,15.1488,-0.0900225,-0.65857,13.335,-0.207744,-0.0923783,-0.0333244,0,0,1,2.38,0.42,0.49,-0.26047,-0.078568,-1.04566,-0.22806,0.091,0.42742
0.0419839,0,0,14.958,14.958,15.042,15.042,-0.0137489,-0.916217,13.5647,-0.203247,-0.0910472,-0.033385,0,0,1,2.0125,0.07,0,-0.26047,-0.078568,-1.04566,-0.22638,0.08624,0.42952
0.0354547,0,0,14.9645,14.9645,15.0355,15.0355,-0.00908419,-0.416538,13.2741,0.359865,0.0178491,0.055977,0,0,1,1.365,-0.4725,-4.445,0.313784,0.030134,-0.95709,-0.22638,0.08624,0.42952
0.0307597,0,0,14.9692,14.9692,15.0308,15.0308,-0.00573004,0.0726525,12.9917,0.351327,0.0179077,0.0560026,0,0,1,1.365,-0.1575,-0.315,0.313784,0.030134,-0.95709,-0.22638,0.08624,0.42952
0.0357815,0,0,14.9642,14.9642,15.0358,15.0358,-0.00931601,0.0722493,12.9911,0.07459,-0.186473,-0.0922732,1,0,1,1.505,-0.14,-1.19,0.035868,-0.173972,-1.10422,-0.22638,0.08624,0.42952
0.0389692,0,0,14.961,14.961,15.039,15.039,-0.0115917,0.0719953,12.99,0.0745944,-0.186513,-0.0922732,1,0,1,2.24,-0.0525,-1.5225,0.035868,-0.173972,-1.10422,-0.22638,0.08624,0.42952
0.0429461,0,0,14.9571,14.9571,15.0429,15.0429,-0.0144308,0.0724281,12.9876,0.0201613,-0.113775,0.109608,1,0,1,1.925,0.35,-2.24,-0.018788,-0.10126,-0.903898,-0.22638,0.08624,0.42952
0.0469235,0,0,14.9531,14.9531,15.0469,15.0469,-0.0172699,0.0728607,12.9852,0.0201537,-0.113824,0.109608,1,0,1,1.925,0.35,-2.24,-0.018788,-0.10126,-0.903898,-0.22638,0.08624,0.42952
-0.119349,0,0,15.1193,15.1193,14.8807,14.8807,0.101485,0.162819,12.9576,0.0540575,-0.110286,-0.0150664,0,0,1,1.33,0.665,-2.8175,0.016836,-0.099796,-1.02761,-0.22638,0.08624,0.42952
-0.282146,0,0,15.2821,15.2821,14.7179,14.7179,0.217746,0.249903,12.9237,0.0525376,-0.108257,-0.0150775,0,0,1,1.33,0.665,-2.8175,0.016836,-0.099796,-1.02761,-0.22876,0.0903,0.42854
-0.277401,0,0,15.2774,15.2774,14.7226,14.7226,0.214333,0.248826,12.9204,-0.347496,-0.0708236,-0.0426177,1,0,1,1.61,-0.5425,-2.8,-0.38491,-0.062342,-1.05493,-0.22876,0.0903,0.42854
-0.272655,0,0,15.2727,15.2727,14.7273,14.7273,0.210921,0.247748,12.917,-0.347477,-0.0708832,-0.0426174,1,0,1,1.61,-0.5425,-2.8,-0.38491,-0.062342,-1.05493,-0.22876,0.0903,0.42854
-0.450619,0,0,15.4506,15.4506,14.5494,14.5494,0.338002,0.427063,12.8236,0.101806,-0.100052,0.0934576,0,0,1,2.5725,4.375,-1.8025,0.069418,-0.093696,-0.91988,-0.22876,0.0903,0.42854
-0.624808,0,0,15.6248,15.6248,14.3752,14.3752,0.462373,0.601742,12.7313,0.0987573,-0.0978816,0.093415,0,0,1,2.5725,4.375,-1.8025,0.069418,-0.093696,-0.91988,-0.22876,0.0903,0.42854
-0.62826,0,0,15.6283,15.6283,14.3717,14.3717,0.464789,0.602886,12.7321,0.0550025,0.155207,-0.106377,1,0,1,4.865,0.77,-0.4025,0.025498,0.159088,-1.11813,-0.22876,0.0903,0.42854
-0.631713,0,0,15.6317,15.6317,14.3683,14.3683,0.467205,0.60403,12.7329,0.0549825,0.155249,-0.106377,1,0,1,4.865,0.77,-0.4025,0.025498,0.159088,-1.11813,-0.22876,0.0903,0.42854
-0.633836,0,0,15.6338,15.6338,14.3662,14.3662,0.468671,0.603756,12.7353,-0.0792544,-0.0367083,0.145298,1,0,1,4.3225,-0.0525,0.595,-0.109312,-0.032696,-0.868396,-0.22876,0.0903,0.42854
-0.634209,0,0,15.6342,15.6342,14.3658,14.3658,0.468888,0.603334,12.7377,-0.0757239,-0.0867765,0.155872,1,0,1,3.6225,-0.14,0.525,-0.105774,-0.082716,-0.857904,-0.22876,0.0903,0.42854
-0.63406,0,0,15.6341,15.6341,14.3659,14.3659,0.468731,0.602731,12.7402,-0.0757134,-0.0867792,0.155872,1,0,1,3.4125,-0.245,0.595,-0.105774,-0.082716,-0.857904,-0.22652,0.08568,0.42098
-0.619753,0,0,15.6198,15.6198,14.3802,14.3802,0.458462,0.582476,12.8015,-0.0134022,0.00720134,-0.0494471,0,0,1,2.8,-0.1925,0.6475,-0.043554,0.011346,-1.06164,-0.22652,0.08568,0.42098
-0.60491,0,0,15.6049,15.6049,14.3951,14.3951,0.447812,0.563459,12.862,-0.0130703,0.0070155,-0.0494423,0,0,1,2.4675,0.2275,0.3675,-0.043554,0.011346,-1.06164,-0.22652,0.08568,0.42098
-0.595062,0,0,15.5951,15.5951,14.4049,14.4049,0.44073,0.222674,13.1394,-0.23175,-0.0122817,0.0699824,0,0,1,2.7475,0.1925,0.07,-0.269132,-0.007808,-0.943182,-0.22652,0.08568,0.42098
-0.586841,0,0,15.5868,15.5868,14.4132,14.4132,0.434812,-0.110256,13.4136,-0.225939,-0.0123849,0.0699889,0,0,1,3.2725,-0.0525,-0.595,-0.269132,-0.007808,-0.943182,-0.22652,0.08568,0.42098
-0.585164,0,0,15.5852,15.5852,14.4148,14.4148,0.433568,-0.110419,13.4135,-0.146727,-0.253851,-0.0977127,1,0,1,2.8175,0,-0.91,-0.189588,-0.249002,-1.10959,-0.22652,0.08568,0.42098
-0.583491,0,0,15.5835,15.5835,14.4165,14.4165,0.432326,-0.110783,13.4121,-0.146721,-0.253873,-0.0977125,1,0,1,2.8175,-0.1225,-1.6275,-0.189588,-0.249002,-1.10959,-0.22652,0.08568,0.42098
-0.740276,0,0,15.7403,15.7403,14.2597,14.2597,0.544257,-0.0932809,13.4347,0.00300828,-0.106589,-0.0221153,0,0,1,2.5725,-0.455,-1.925,-0.038918,-0.103822,-1.03456,-0.22652,0.08568,0.42098
-0.89576,0,0,15.8958,15.8958,14.1042,14.1042,0.655247,-0.0766966,13.4564,0.00271883,-0.104652,-0.0221351,0,0,1,3.255,-0.56,-1.925,-0.038918,-0.103822,-1.03456,-0.22806,0.08596,0.42182
-0.740396,0,0,15.7404,15.7404,14.2596,14.2596,0.544215,-0.0132031,13.4747,0.0516628,0.0985836,0.0672696,0,0,1,2.7475,-0.14,-1.855,0.011346,0.101138,-0.945866,-0.22806,0.08596,0.42182
-0.588258,0,0,15.5883,15.5883,14.4117,14.4117,0.435498,0.049995,13.4927,0.0505598,0.0966862,0.0672855,0,0,1,2.9225,0.4375,-1.89,0.011346,0.101138,-0.945866,-0.22806,0.08596,0.42182
-0.275404,0,0,15.2754,15.2754,14.7246,14.7246,0.212008,-0.41828,13.8835,-0.342899,0.195494,-0.0112829,0,0,1,4.2875,0.525,-1.96,-0.391986,0.20374,-1.02382,-0.22806,0.08596,0.42182
0.0210941,0,0,14.9789,14.9789,15.0211,15.0211,0.000223623,-0.875599,14.275,-0.334918,0.191798,-0.0113661,0,0,1,8.8025,0.49,-1.715,-0.391986,0.20374,-1.02382,-0.22806,0.08596,0.42182
0.0187976,0,0,14.9812,14.9812,15.0188,15.0188,0.00186381,-0.87415,14.2742,-0.128539,-0.144022,0.138877,1,0,1,4.4275,0.945,-1.33,-0.184708,-0.13176,-0.87474,-0.22806,0.08596,0.42182
0.0182303,0,0,14.9818,14.9818,15.0182,15.0182,0.0022688,-0.873447,14.2745,-0.128551,-0.144015,0.138877,1,0,1,3.745,0.5075,-0.6475,-0.184708,-0.13176,-0.87474,-0.22806,0.08596,0.42182
0.181383,0,0,14.8186,14.8186,15.1814,15.1814,-0.114257,-0.915016,14.3806,-0.0194606,0.10883,-0.0137149,0,0,1,4.83,0.56,-0.7175,-0.075884,0.122854,-1.02614,-0.22806,0.08596,0.42182
0.34439,0,0,14.6556,14.6556,15.3444,15.3444,-0.230666,-0.957973,14.5021,-0.0187109,0.106799,-0.0137333,0,0,1,3.8675,-0.1575,-0.28,-0.075884,0.122854,-1.02614,-0.22456,0.07672,0.4179
0.34505,0,0,14.655,14.655,15.345,15.345,-0.231112,-0.958194,14.503,0.45776,-0.0941076,-0.00561876,1,0,1,3.2725,-0.035,-0.3675,0.4026,-0.077836,-1.01809,-0.22456,0.07672,0.4179
0.346835,0,0,14.6532,14.6532,15.3468,15.3468,-0.232362,-0.958147,14.5033,0.457759,-0.0941294,-0.00561884,1,0,1,2.8175,0.1225,-0.63,0.4026,-0.077836,-1.01809,-0.22456,0.07672,0.4179
-0.0376735,0,0,15.0377,15.0377,14.9623,14.9623,0.0422821,-0.721953,14.3774,0.151381,-0.257139,-0.0378859,0,0,1,3.5,0.1575,-0.4725,0.099064,-0.245464,-1.05018,-0.22456,0.07672,0.4179
-0.4154,0,0,15.4154,15.4154,14.5846,14.5846,0.312053,-0.49154,14.2531,0.147359,-0.25243,-0.0378579,0,0,1,3.92,0.525,-1.05,0.099064,-0.245464,-1.05018,-0.22456,0.07672,0.4179
-0.482491,0,0,15.4825,15.4825,14.5175,14.5175,0.359937,-0.750397,14.4879,-0.200553,-0.0633978,-0.020576,0,0,1,2.7825,0.455,-1.0675,-0.254858,-0.057462,-1.03297,-0.22456,0.07672,0.4179
-0.54914,0,0,15.5491,15.5491,14.4509,14.4509,0.407499,-1.00343,14.7207,-0.196137,-0.0625683,-0.0206491,0,0,1,2.9925,0.2625,-0.9625,-0.254858,-0.057462,-1.03297,-0.22456,0.07672,0.4179
-0.51949,0,0,15.5195,15.5195,14.4805,14.4805,0.386279,-1.17869,14.9133,-0.117636,0.00728393,0.0531872,0,0,1,2.59,0.1575,-1.1025,-0.179096,0.012688,-0.959652,-0.22456,0.07672,0.4179
-0.490991,0,0,15.491,15.491,14.509,14.509,0.365884,-1.35002,15.11,-0.114647,0.00692762,0.0531236,0,0,1,2.7125,-0.245,-0.9625,-0.179096,0.012688,-0.959652,-0.2233,0.0735,0.41902
-0.560005,0,0,15.56,15.56,14.44,14.44,0.415136,-1.40993,15.2227,-0.0500644,-0.0510783,-0.0187094,0,0,1,2.8,-0.385,-1.0325,-0.11529,-0.046116,-1.0309,-0.2233,0.0735,0.41902
-0.626739,0,0,15.6267,15.6267,14.3733,14.3733,0.462753,-1.46877,15.3343,-0.0490378,-0.0502477,-0.0187415,0,0,1,2.3625,-0.525,-1.085,-0.11529,-0.046116,-1.0309,-0.2233,0.0735,0.41902
-0.523117,0,0,15.5231,15.5231,14.4769,14.4769,0.388696,-1.5389,15.4728,-0.0378523,0.0605723,0.0543903,0,0,1,3.57,-0.4375,-1.0325,-0.105286,0.06588,-0.95831,-0.2233,0.0735,0.41902
-0.421479,0,0,15.4215,15.4215,14.5785,14.5785,0.316063,-1.60645,15.6107,-0.0366738,0.059305,0.0543657,0,0,1,3.5525,-0.035,-0.98,-0.105286,0.06588,-0.95831,-0.2233,0.0735,0.41902
-0.420671,0,0,15.4207,15.4207,14.5793,14.5793,0.315452,-1.60631,15.6104,0.173616,-0.36705,-0.115918,1,0,1,3.1675,0.175,-1.0325,0.105896,-0.360022,-1.12728,-0.2233,0.0735,0.41902
-0.42061,0,0,15.4206,15.4206,14.5794,14.5794,0.315375,-1.60615,15.61,0.173613,-0.367052,-0.115918,1,0,1,3.465,0.1925,-1.085,0.105896,-0.360022,-1.12728,-0.2233,0.0735,0.41902
-0.418957,0,0,15.419,15.419,14.581,14.581,0.31416,-1.60589,15.61,0.00717281,0.0184814,0.177806,1,0,1,2.835,0.245,-0.8225,-0.061244,0.025132,-0.835822,-0.2233,0.0735,0.41902
-0.419249,0,0,15.4192,15.4192,14.5808,14.5808,0.314336,-1.60558,15.6095,0.00716728,0.0184845,0.177807,1,0,1,3.605,0.28,-1.155,-0.061244,0.025132,-0.835822,-0.2233,0.0735,0.41902
-0.741742,0,0,15.7417,15.7417,14.2583,14.2583,0.544629,-1.26635,15.4177,0.213484,-0.184623,0.0709597,0,0,1,2.8875,0.3325,-1.33,0.15189,-0.18178,-0.941962,-0.2247,0.07602,0.42308
-1.05866,0,0,16.0587,16.0587,13.9413,13.9413,0.770915,-0.935429,15.2293,0.207709,-0.180674,0.0710253,0,0,1,3.535,0.4725,-1.33,0.15189,-0.18178,-0.941962,-0.2247,0.07602,0.42308
-1.05831,0,0,16.0583,16.0583,13.9417,13.9417,0.770585,-0.934511,15.2288,-0.0364928,0.103143,0.132746,1,0,1,3.325,0.63,-1.155,-0.09333,0.101748,-0.880718,-0.2247,0.07602,0.42308
-1.05879,0,0,16.0588,16.0588,13.9412,13.9412,0.770841,-0.934165,15.2286,-0.0364989,0.103148,0.132746,1,0,1,3.6575,0.2975,-0.945,-0.09333,0.101748,-0.880718,-0.2247,0.07602,0.42308
-0.943101,0,0,15.9431,15.9431,14.0569,14.0569,0.688136,-1.01749,15.3641,-0.0548469,0.0734928,-0.0446753,0,0,1,3.4125,0.315,-0.8225,-0.113216,0.073566,-1.05676,-0.2247,0.07602,0.42308
-0.8304,0,0,15.8304,15.8304,14.1696,14.1696,0.607569,-1.09903,15.4998,-0.0534241,0.0720867,-0.0446856,0,0,1,3.71,0.07,-0.35,-0.113216,0.073566,-1.05676,-0.2247,0.07602,0.42308
-0.832658,0,0,15.8327,15.8327,14.1673,14.1673,0.609117,-1.09899,15.5007,0.23887,0.0647861,0.144163,1,0,1,4.3925,0.1225,-0.315,0.180316,0.066246,-0.869372,-0.2247,0.07602,0.42308
-0.831552,0,0,15.8316,15.8316,14.1684,14.1684,0.608262,-1.09791,15.5016,0.238851,0.0647712,0.144163,1,0,1,3.045,0.735,-0.35,0.180316,0.066246,-0.869372,-0.2247,0.07602,0.42308
-1.15587,0,0,16.1559,16.1559,13.8441,13.8441,0.83983,-0.770539,15.3006,0.201066,-0.182279,0.0957639,0,0,1,2.8875,0.7,0.1225,0.148108,-0.184586,-0.91744,-0.22764,0.08372,0.4256
-1.15462,0,0,16.1546,16.1546,13.8454,13.8454,0.838844,-0.770728,15.3022,-0.184041,0.00736619,-0.131199,1,0,1,2.975,0,0.1225,-0.238632,0.00488,-1.14265,-0.22764,0.08372,0.4256
-1.15407,0,0,16.1541,16.1541,13.8459,13.8459,0.838363,-0.771089,15.3035,-0.184034,0.00735779,-0.131199,1,0,1,3.255,-0.105,-0.105,-0.238632,0.00488,-1.14265,-0.22764,0.08372,0.4256
-1.15323,0,0,16.1532,16.1532,13.8468,13.8468,0.837671,-0.771026,15.3043,0.253556,0.0360455,-0.150502,1,0,1,3.1325,0.14,-0.4025,0.200812,0.03355,-1.16181,-0.22764,0.08372,0.4256
-1.15139,0,0,16.1514,16.1514,13.8486,13.8486,0.836268,-0.771372,15.3045,0.253562,0.036021,-0.150501,1,0,1,2.73,-0.105,-0.735,0.200812,0.03355,-1.16181,-0.22764,0.08372,0.4256
-1.32829,0,0,16.3283,16.3283,13.6717,13.6717,0.962521,-0.405103,15.0881,0.262477,-0.0990453,-0.00330086,0,0,1,3.0275,-0.525,-0.9275,0.216184,-0.103578,-1.01577,-0.22764,0.08372,0.4256
-1.50064,0,0,16.5006,16.5006,13.4994,13.4994,1.08551,-0.0471659,14.8725,0.25623,-0.0968986,-0.00331457,0,0,1,3.01,-0.2975,-1.82,0.216184,-0.103578,-1.01577,-0.22764,0.08372,0.4256
-1.57342,0,0,16.5734,16.5734,13.4266,13.4266,1.13737,0.0551512,14.8352,0.0669918,-0.0418915,0.0276508,0,0,1,2.52,0,-1.82,0.027938,-0.049532,-0.985028,-0.22764,0.08372,0.4256
-1.64643,0,0,16.6464,16.6464,13.3536,13.3536,1.1894,0.156848,14.7984,0.0652169,-0.0409837,0.027629,0,0,1,3.185,0.84,-2.2925,0.027938,-0.049532,-0.985028,-0.2275,0.08344,0.41272
-1.58166,0,0,16.5817,16.5817,13.4183,13.4183,1.14302,0.180889,14.8255,0.0214269,0.045039,-0.043297,0,0,1,3.185,0.735,-2.38,-0.015616,0.03721,-1.05542,-0.2275,0.08344,0.41272
-1.51885,0,0,16.5189,16.5189,13.4811,13.4811,1.09803,0.203745,14.8535,0.021028,0.044254,-0.043283,0,0,1,3.5,0.3325,-1.8025,-0.015616,0.03721,-1.05542,-0.2275,0.08344,0.41272
-1.52011,0,0,16.5201,16.5201,13.4799,13.4799,1.09881,0.20417,14.8523,0.149917,0.199979,-0.130823,1,0,1,3.955,0.3325,-1.505,0.113826,0.19276,-1.14229,-0.2275,0.08344,0.41272
-1.52028,0,0,16.5203,16.5203,13.4797,13.4797,1.09882,0.203797,14.8523,0.149923,0.199979,-0.130823,1,0,1,3.5175,-0.1225,-0.84,0.113826,0.19276,-1.14229,-0.2275,0.08344,0.41272
-1.52203,0,0,16.522,16.522,13.478,13.478,1.09995,0.203715,14.8527,-0.463092,0.0726208,-0.0345543,1,0,1,4.1475,0.0525,-0.63,-0.501786,0.065514,-1.04676,-0.2275,0.08344,0.41272
-1.52334,0,0,16.5233,16.5233,13.4767,13.4767,1.10077,0.20334,14.8544,-0.463085,0.0726352,-0.0345545,1,0,1,3.9725,-0.105,0.1225,-0.501786,0.065514,-1.04676,-0.2275,0.08344,0.41272
-1.82488,0,0,16.8249,16.8249,13.1751,13.1751,1.31601,0.16804,14.8845,-0.0416429,-0.187158,0.0888085,0,0,1,3.78,0.0175,0.2275,-0.079178,-0.197762,-0.924272,-0.2275,0.08344,0.41272
-2.12214,0,0,17.1221,17.1221,12.8779,12.8779,1.52818,0.134529,14.9188,-0.041058,-0.183457,0.0887182,0,0,1,4.095,0.2625,-0.1225,-0.079178,-0.197762,-0.924272,-0.22834,0.07966,0.42224
-2.12247,0,0,17.1225,17.1225,12.8775,12.8775,1.52825,0.134892,14.9203,0.20543,-0.172952,-0.157671,1,0,1,3.5525,0.3325,0.035,0.16836,-0.18727,-1.16876,-0.22834,0.07966,0.42224
-2.12193,0,0,17.1219,17.1219,12.8781,12.8781,1.5277,0.135761,14.9219,0.205415,-0.172962,-0.15767,1,0,1,3.2025,0.63,0.07,0.16836,-0.18727,-1.16876,-0.22834,0.07966,0.42224
-2.23488,0,0,17.2349,17.2349,12.7651,12.7651,1.60821,0.21764,14.8989,0.0469049,-0.0657958,0.0696185,0,0,1,1.9775,0.49,-0.1925,0.010614,-0.081618,-0.943182,-0.22834,0.07966,0.42224
-2.34425,0,0,17.3443,17.3443,12.6557,12.6557,1.68615,0.295638,14.8747,0.0455436,-0.0644362,0.0695733,0,0,1,1.47,-0.525,-1.1025,0.010614,-0.081618,-0.943182,-0.22834,0.07966,0.42224
-1.95993,0,0,16.9599,16.9599,13.0401,13.0401,1.41148,0.0240188,15.1285,-0.160736,0.225342,0.0863141,0,0,1,1.7675,-0.4725,-1.295,-0.2013,0.212646,-0.926712,-0.22834,0.07966,0.42224
-1.58163,0,0,16.5816,16.5816,13.4184,13.4184,1.14114,-0.241137,15.3824,-0.156109,0.220624,0.0864104,0,0,1,1.4525,-0.63,-1.61,-0.2013,0.212646,-0.926712,-0.22834,0.07966,0.42224
-1.47596,0,0,16.476,16.476,13.524,13.524,1.06555,-0.318182,15.4886,-0.047978,0.0649371,-0.00344606,0,0,1,3.1325,-0.4025,-1.995,-0.094062,0.058438,-1.01589,-0.22834,0.07966,0.42224
-1.37433,0,0,16.3743,16.3743,13.6257,13.6257,0.992849,-0.392424,15.5879,-0.0466823,0.0636683,-0.0034313,0,0,1,3.9025,0.035,-2.2575,-0.094062,0.058438,-1.01589,-0.23086,0.08302,0.41916
-1.25349,0,0,16.2535,16.2535,13.7465,13.7465,0.906443,-0.028215,15.4002,0.288943,0.111866,-0.0250219,0,0,1,4.095,0.3675,-2.135,0.249368,0.108092,-1.03737,-0.23086,0.08302,0.41916
-1.13195,0,0,16.1319,16.1319,13.8681,13.8681,0.819538,0.328747,15.2132,0.282713,0.11035,-0.0250154,0,0,1,3.3775,0.7525,-1.6625,0.249368,0.108092,-1.03737,-0.23086,0.08302,0.41916
-1.13023,0,0,16.1302,16.1302,13.8698,13.8698,0.818225,0.329583,15.2122,-0.196927,-0.237979,0.179448,1,0,1,2.7825,0.5775,-1.435,-0.232288,-0.239852,-0.83448,-0.23086,0.08302,0.41916
-1.12883,0,0,16.1288,16.1288,13.8712,13.8712,0.817136,0.330078,15.2121,-0.196936,-0.237998,0.179448,1,0,1,2.905,0.385,-0.91,-0.232288,-0.239852,-0.83448,-0.23086,0.08302,0.41916
-1.07808,0,0,16.0781,16.0781,13.9219,13.9219,0.780799,-0.0787442,15.5207,-0.310557,0.00586602,-0.0208102,0,0,1,3.01,-0.7175,-0.2975,-0.353556,0.004392,-1.03322,-0.23086,0.08302,0.41916
-1.03002,0,0,16.03,16.03,13.97,13.97,0.746391,-0.477203,15.828,-0.303603,0.00526509,-0.0208359,0,0,1,3.64,-0.35,0.21,-0.353556,0.004392,-1.03322,-0.23086,0.08302,0.41916
-1.03847,0,0,16.0385,16.0385,13.9615,13.9615,0.752345,-0.64962,15.9857,-0.114113,-0.0150265,0.0934752,0,0,1,3.2725,0.49,0.2975,-0.166286,-0.015982,-0.919758,-0.23086,0.08302,0.41916
-1.05419,0,0,16.0542,16.0542,13.9458,13.9458,0.763493,-0.815521,16.1505,-0.111218,-0.0148325,0.0934356,0,0,1,5.915,1.0325,0.175,-0.166286,-0.015982,-0.919758,-0.22134,0.07938,0.41468
-0.936517,0,0,15.9365,15.9365,14.0635,14.0635,0.67937,-0.951055,16.3129,-0.0913586,0.0726074,0.00403409,0,0,1,5.5825,1.085,0.2625,-0.148718,0.072834,-1.00845,-0.22134,0.07938,0.41468
-0.814891,0,0,15.8149,15.8149,14.1851,14.1851,0.592431,-1.08492,16.4738,-0.0890227,0.0710899,0.00400943,0,0,1,3.0625,0.0525,-0.175,-0.148718,0.072834,-1.00845,-0.22134,0.07938,0.41468
-0.450372,0,0,15.4504,15.4504,14.5496,14.5496,0.332024,-1.26785,16.6972,-0.115838,0.24424,-0.042494,0,0,1,2.1525,-0.035,-0.91,-0.178852,0.250344,-1.05457,-0.22134,0.07938,0.41468
-0.0902059,0,0,15.0902,15.0902,14.9098,14.9098,0.0747549,-1.44642,16.9205,-0.112722,0.239751,-0.0425519,0,0,1,1.2775,-0.2625,-1.0675,-0.178852,0.250344,-1.05457,-0.22134,0.07938,0.41468
-0.0874898,0,0,15.0875,15.0875,14.9125,14.9125,0.072807,-1.44727,16.9199,-0.0113879,-0.28091,-0.130214,1,0,1,2.415,-0.4025,-1.1725,-0.077104,-0.269742,-1.14155,-0.22134,0.07938,0.41468
-0.081767,0,0,15.0818,15.0818,14.9182,14.9182,0.0687119,-1.44734,16.9179,-0.0113867,-0.280981,-0.130214,1,0,1,1.19,0.0525,-2.0475,-0.077104,-0.269742,-1.14155,-0.22134,0.07938,0.41468
-0.0751834,0,0,15.0752,15.0752,14.9248,14.9248,0.0640025,-1.44726,16.9154,0.357807,-0.278376,-0.0527567,1,0,1,0.84,0.14,-2.275,0.293654,-0.267058,-1.06469,-0.22134,0.07938,0.41468
-0.0753104,0,0,15.0753,15.0753,14.9247,14.9247,0.0640863,-1.44721,16.9135,0.357806,-0.278375,-0.0527567,1,0,1,3.535,0.1225,-1.96,0.293654,-0.267058,-1.06469,-0.22134,0.07938,0.41468
-0.0760964,0,0,15.0761,15.0761,14.9239,14.9239,0.0646408,-1.44842,16.9127,-0.0249741,-0.17529,0.122198,1,0,1,3.815,-0.6125,-1.295,-0.090768,-0.16409,-0.891088,-0.22666,0.07924,0.41748
-0.079335,0,0,15.0793,15.0793,14.9207,14.9207,0.066947,-1.44843,16.9106,-0.0249739,-0.17525,0.122198,1,0,1,4.7775,0.0875,-2.1,-0.090768,-0.16409,-0.891088,-0.22666,0.07924,0.41748
0.616712,0,0,14.3833,14.3833,15.6167,15.6167,-0.430184,-1.69007,17.2189,-0.117339,0.432695,0.140867,0,0,1,3.2375,0.42,-1.435,-0.187758,0.451888,-0.872422,-0.22666,0.07924,0.41748
1.30199,0,0,13.698,13.698,16.302,16.302,-0.919572,-1.9259,17.5302,-0.113225,0.42416,0.140636,0,0,1,3.2375,0.42,-1.435,-0.187758,0.451888,-0.872422,-0.22666,0.07924,0.41748
1.29826,0,0,13.7017,13.7017,16.2983,16.2983,-0.916804,-1.92638,17.5306,0.0122778,0.0431729,-0.112023,1,0,1,5.075,-0.1925,-0.595,-0.061732,0.071248,-1.12313,-0.22666,0.07924,0.41748
1.29452,0,0,13.7055,13.7055,16.2945,16.2945,-0.914036,-1.92687,17.531,0.0122862,0.0432211,-0.112022,1,0,1,5.075,-0.1925,-0.595,-0.061732,0.071248,-1.12313,-0.22666,0.07924,0.41748
1.2952,0,0,13.7048,13.7048,16.2952,16.2952,-0.914424,-1.9251,17.5325,0.107014,0.0501756,-0.167348,1,0,1,3.325,1.12,0.0175,0.033428,0.078202,-1.17803,-0.22666,0.07924,0.41748
1.29588,0,0,13.7041,13.7041,16.2959,16.2959,-0.914812,-1.92333,17.534,0.106983,0.0501688,-0.167347,1,0,1,3.325,1.12,0.0175,0.033428,0.078202,-1.17803,-0.22666,0.07924,0.41748
1.13403,0,0,13.866,13.866,16.134,16.134,-0.799121,-1.74659,17.4648,0.111797,-0.0933898,0.0312208,0,0,1,3.8325,4.3225,-0.4025,0.041358,-0.067222,-0.981124,-0.22442,0.08036,0.42252
1.1352,0,0,13.8648,13.8648,16.1352,16.1352,-0.799871,-1.74611,17.466,0.10207,0.11409,0.153309,1,0,1,3.115,0.3675,-0.14,0.031598,0.140056,-0.859978,-0.22442,0.08036,0.42252
1.13385,0,0,13.8661,13.8661,16.1339,16.1339,-0.798822,-1.7454,17.4665,0.102057,0.114109,0.153309,1,0,1,4.1125,0.5075,-0.525,0.031598,0.140056,-0.859978,-0.22442,0.08036,0.42252
1.05565,0,0,13.9444,13.9444,16.0556,16.0556,-0.742882,-1.77929,17.5449,-0.0362097,-0.0561369,-0.0630851,0,0,1,3.99,0.4375,-0.805,-0.107848,-0.030988,-1.0747,-0.22442,0.08036,0.42252
0.982638,0,0,14.0174,14.0174,15.9826,15.9826,-0.690658,-1.8129,17.6228,-0.0356234,-0.0552257,-0.063092,0,0,1,2.4675,0.2275,-0.735,-0.107848,-0.030988,-1.0747,-0.22442,0.08036,0.42252
1.30416,0,0,13.6958,13.6958,16.3042,16.3042,-0.920216,-1.88296,17.7812,-0.0237106,0.193085,0.080662,0,0,1,2.2575,1.05,-0.7,-0.097112,0.221064,-0.931958,-0.22442,0.08036,0.42252
1.61926,0,0,13.3807,13.3807,16.6193,16.6193,-1.14516,-1.95319,17.9396,-0.0224854,0.189162,0.0805502,0,0,1,2.5025,-0.315,-0.6475,-0.097112,0.221064,-0.931958,-0.22442,0.08036,0.42252
1.66997,0,0,13.33,13.33,16.67,16.67,-1.18126,-2.01917,18.0589,-0.0388286,0.0240286,0.0825877,0,0,1,2.9225,-0.21,-1.155,-0.11468,0.05673,-0.929884,-0.22442,0.08036,0.42252
1.7224,0,0,13.2776,13.2776,16.7224,16.7224,-1.21858,-2.08427,18.1706,-0.0376931,0.0233787,0.0825334,0,0,1,1.9075,-0.4025,-0.8575,-0.11468,0.05673,-0.929884,-0.23212,0.08344,0.41916
1.72285,0,0,13.2771,13.2771,16.7229,16.7229,-1.21877,-2.08535,18.1709,-0.164141,-0.0711507,0.21876,1,0,1,3.4125,-0.5425,-0.7,-0.241682,-0.037698,-0.794708,-0.23212,0.08344,0.41916
1.72119,0,0,13.2788,13.2788,16.7212,16.7212,-1.21746,-2.08461,18.17,-0.164154,-0.0711278,0.218761,1,0,1,4.235,0.5425,-1.3475,-0.241682,-0.037698,-0.794708,-0.23212,0.08344,0.41916
1.71893,0,0,13.2811,13.2811,16.7189,16.7189,-1.21571,-2.08485,18.1694,-0.221977,-0.194812,-0.0706598,1,0,1,4.48,-0.035,-1.225,-0.299754,-0.161284,-1.0819,-0.23212,0.08344,0.41916
1.71753,0,0,13.2825,13.2825,16.7175,16.7175,-1.21458,-2.08386,18.1684,-0.221994,-0.194792,-0.0706587,1,0,1,4.13,0.6825,-1.365,-0.299754,-0.161284,-1.0819,-0.23212,0.08344,0.41916
1.72065,0,0,13.2793,13.2793,16.7207,16.7207,-1.21668,-2.08258,18.1679,-0.0949424,-0.215102,-0.0803716,1,0,1,2.3275,0.8575,-1.1375,-0.172142,-0.181536,-1.09153,-0.23212,0.08344,0.41916
1.71941,0,0,13.2806,13.2806,16.7194,16.7194,-1.21566,-2.08317,18.1658,-0.0949319,-0.215084,-0.0803716,1,0,1,4.0425,-0.2275,-2.0825,-0.172142,-0.181536,-1.09153,-0.23212,0.08344,0.41916
1.71984,0,0,13.2802,13.2802,16.7198,16.7198,-1.21584,-2.08332,18.164,0.171246,0.098168,-0.0961092,1,0,1,3.3775,0.035,-1.9075,0.09516,0.131394,-1.10715,-0.23212,0.08344,0.41916
1.72177,0,0,13.2782,13.2782,16.7218,16.7218,-1.21709,-2.08399,18.1641,0.171257,0.0981463,-0.0961101,1,0,1,2.8175,-0.2975,-0.805,0.09516,0.131394,-1.10715,-0.22848,0.08386,0.41888
1.72236,0,0,13.2776,13.2776,16.7224,16.7224,-1.21738,-2.08419,18.1636,0.202483,0.00764527,-0.155617,1,0,1,3.3425,-0.0175,-1.1025,0.126514,0.040992,-1.1662,-0.22848,0.08386,0.41888
1.72325,0,0,13.2767,13.2767,16.7233,16.7233,-1.21789,-2.08378,18.1639,0.202476,0.00763648,-0.155617,1,0,1,3.2375,0.3325,-0.7,0.126514,0.040992,-1.1662,-0.22848,0.08386,0.41888
1.71992,0,0,13.2801,13.2801,16.7199,16.7199,-1.21538,-2.08363,18.1646,-0.0830183,0.0280754,0.254417,1,0,1,4.935,0.175,-0.4375,-0.160186,0.061366,-0.759328,-0.22848,0.08386,0.41888
1.72157,0,0,13.2784,13.2784,16.7216,16.7216,-1.21643,-2.08287,18.166,-0.0830316,0.0280571,0.254417,1,0,1,2.9575,0.525,0,-0.160186,0.061366,-0.759328,-0.22848,0.08386,0.41888
1.57325,0,0,13.4268,13.4268,16.5732,16.5732,-1.11036,-2.3934,18.4129,-0.244173,-0.12458,0.0511321,0,0,1,1.89,0.42,-0.35,-0.327448,-0.092964,-0.960872,-0.22848,0.08386,0.41888
1.42525,0,0,13.5747,13.5747,16.4253,16.4253,-1.00454,-2.69825,18.6563,-0.238857,-0.12273,0.0509298,0,0,1,2.59,-0.28,-0.63,-0.327448,-0.092964,-0.960872,-0.22848,0.08386,0.41888
1.07426,0,0,13.9257,13.9257,16.0743,16.0743,-0.753751,-2.34137,18.4264,0.244629,-0.213377,0.0204107,0,0,1,2.625,-0.3675,-0.2625,0.164334,-0.18788,-0.991494,-0.22848,0.08386,0.41888
0.729408,0,0,14.2706,14.2706,15.7294,15.7294,-0.507375,-1.99253,18.2037,0.238545,-0.209083,0.0206882,0,0,1,3.325,-0.035,-0.3675,0.164334,-0.18788,-0.991494,-0.22946,0.0812,0.42602
0.814096,0,0,14.1859,14.1859,15.8141,15.8141,-0.567805,-2.04648,18.3133,-0.0383521,0.053291,-0.04587,0,0,1,2.3975,0.9975,-0.9275,-0.11468,0.075274,-1.0575,-0.22946,0.0812,0.42602
0.892156,0,0,14.1078,14.1078,15.8922,15.8922,-0.623496,-2.09992,18.4225,-0.0374201,0.05232,-0.0459139,0,0,1,4.3925,0.4725,-0.8575,-0.11468,0.075274,-1.0575,-0.22946,0.0812,0.42602
0.890845,0,0,14.1092,14.1092,15.8908,15.8908,-0.622493,-2.10017,18.4225,0.0647538,0.153092,-0.173411,1,0,1,4.0775,-0.0525,-0.84,-0.012078,0.175924,-1.18401,-0.22946,0.0812,0.42602
0.893852,0,0,14.1061,14.1061,15.8939,15.8939,-0.624574,-2.10036,18.4207,0.064757,0.153056,-0.173412,1,0,1,2.31,0,-1.9425,-0.012078,0.175924,-1.18401,-0.22946,0.0812,0.42602
1.50081,0,0,13.4992,13.4992,16.5008,16.5008,-1.058,-2.45409,18.8042,-0.189782,0.336874,0.1952,0,0,1,1.6975,0.105,-2.24,-0.27389,0.367098,-0.817888,-0.22946,0.0812,0.42602
2.09745,0,0,12.9026,12.9026,17.0974,17.0974,-1.48401,-2.79953,19.1917,-0.18376,0.329455,0.194759,0,0,1,2.135,0.1225,-1.4875,-0.27389,0.367098,-0.817888,-0.22946,0.0812,0.42602
2.09522,0,0,12.9048,12.9048,17.0952,17.0952,-1.48226,-2.79962,19.1911,-0.307188,0.11784,-0.055932,1,0,1,4.48,0.0525,-1.2075,-0.397842,0.155672,-1.06665,-0.22946,0.0812,0.42602
2.09636,0,0,12.9036,12.9036,17.0964,17.0964,-1.48292,-2.79857,19.1906,-0.307206,0.117828,-0.0559315,1,0,1,3.1325,0.7175,-1.12,-0.397842,0.155672,-1.06665,-0.22946,0.0812,0.42602
1.892,0,0,13.108,13.108,16.892,16.892,-1.33681,-2.78192,19.2159,-0.00171667,-0.125711,0.0907,0,0,1,3.255,1.3125,-0.805,-0.090768,-0.090158,-0.921222,-0.22358,0.08414,0.42518
1.89095,0,0,13.109,13.109,16.891,16.891,-1.33591,-2.7829,19.2181,0.323518,0.0538306,0.186722,1,0,1,4.0775,-0.5075,0.4375,0.235826,0.089182,-0.82594,-0.22358,0.08414,0.42518
1.89207,0,0,13.1079,13.1079,16.8921,16.8921,-1.33656,-2.78262,19.2201,0.323513,0.0538192,0.186722,1,0,1,3.2025,0.2275,0.315,0.235826,0.089182,-0.82594,-0.22358,0.08414,0.42518
1.82239,0,0,13.1776,13.1776,16.8224,16.8224,-1.28666,-2.69366,19.2192,0.0617396,-0.0378848,0.0287045,0,0,1,4.4975,0.105,0.3675,-0.025498,-0.003294,-0.982832,-0.22358,0.08414,0.42518
1.76544,0,0,13.2346,13.2346,16.7654,16.7654,-1.24585,-2.60718,19.218,0.0602318,-0.037175,0.0287901,0,0,1,0,-0.07,0.1225,-0.025498,-0.003294,-0.982832,-0.22358,0.08414,0.42518
1.76657,0,0,13.2334,13.2334,16.7666,16.7666,-1.24652,-2.60651,19.2191,0.123879,-0.323574,-0.24895,1,0,1,3.1675,0.4725,-0.1925,0.03843,-0.289384,-1.25843,-0.22358,0.08414,0.42518
1.76831,0,0,13.2317,13.2317,16.7683,16.7683,-1.24763,-2.60606,19.2196,0.123871,-0.323593,-0.24895,1,0,1,2.905,0.35,-0.5075,0.03843,-0.289384,-1.25843,-0.22358,0.08414,0.42518
1.77372,0,0,13.2263,13.2263,16.7737,16.7737,-1.25136,-2.60534,19.2193,0.229429,-0.104196,0.15014,1,0,1,1.4175,0.525,-1.0325,0.144448,-0.07015,-0.862418,-0.22428,0.08008,0.41916
1.7765,0,0,13.2235,13.2235,16.7765,16.7765,-1.25321,-2.60617,19.2177,-0.392199,-0.0136108,-0.162889,1,0,1,2.4325,-0.3675,-1.82,-0.479826,0.020374,-1.17303,-0.22428,0.08008,0.41916
1.78179,0,0,13.2182,13.2182,16.7818,16.7818,-1.25685,-2.60583,19.2147,-0.392204,-0.0136742,-0.16289,1,0,1,1.4,0.3325,-2.555,-0.479826,0.020374,-1.17303,-0.22428,0.08008,0.41916
1.84862,0,0,13.1514,13.1514,16.8486,16.8486,-1.30445,-2.99057,19.5496,-0.258666,0.00931828,0.134791,0,0,1,2.52,0.105,-2.45,-0.352458,0.044164,-0.877302,-0.22428,0.08008,0.41916
1.90947,0,0,13.0905,13.0905,16.9095,16.9095,-1.34777,-3.36722,19.8824,-0.252103,0.00857201,0.134409,0,0,1,4.3225,-0.315,-2.38,-0.352458,0.044164,-0.877302,-0.22428,0.08008,0.41916
1.9227,0,0,13.0773,13.0773,16.9227,16.9227,-1.35707,-3.45611,20.0206,-0.0663819,0.00169515,0.0121023,0,0,1,3.535,0.4375,-2.625,-0.167506,0.037454,-0.99857,-0.22428,0.08008,0.41916
1.93702,0,0,13.063,13.063,16.937,16.937,-1.36716,-3.54269,20.1602,-0.0648734,0.00152173,0.0120059,0,0,1,3.01,0.5425,-1.295,-0.167506,0.037454,-0.99857,-0.22428,0.08008,0.41916
1.62797,0,0,13.372,13.372,16.628,16.628,-1.14629,-3.19204,19.9477,0.255935,-0.19224,-0.047918,0,0,1,3.115,0.4725,-1.19,0.160796,-0.159942,-1.05847,-0.22428,0.08008,0.41916
1.32753,0,0,13.6725,13.6725,16.3275,16.3275,-0.93158,-2.85202,19.7405,0.250009,-0.188504,-0.0475374,0,0,1,2.8525,-0.035,-0.9975,0.160796,-0.159942,-1.05847,-0.22176,0.07924,0.4256
1.57796,0,0,13.422,13.422,16.578,16.578,-1.11035,-3.0755,20.0124,-0.152344,0.150583,0.0117125,0,0,1,2.9225,-0.035,4.305,-0.247172,0.181902,-0.999424,-0.22176,0.07924,0.4256
1.82342,0,0,13.1766,13.1766,16.8234,16.8234,-1.28553,-3.29467,20.2776,-0.148525,0.147536,0.0114362,0,0,1,2.9225,-0.6825,0.7,-0.247172,0.181902,-0.999424,-0.22176,0.07924,0.4256
1.60494,0,0,13.3951,13.3951,16.6049,16.6049,-1.12936,-3.44736,20.4194,-0.151453,-0.166537,-0.0489079,0,0,1,4.2175,-0.455,0.7,-0.252784,-0.134566,-1.0592,-0.22176,0.07924,0.4256
1.38861,0,0,13.6114,13.6114,16.3886,16.3886,-0.974728,-3.59477,20.5589,-0.148885,-0.163841,-0.0490164,0,0,1,4.7775,0.91,0.4025,-0.252784,-0.134566,-1.0592,-0.22176,0.07924,0.4256
1.68729,0,0,13.3127,13.3127,16.6873,16.6873,-1.18794,-3.76713,20.8087,-0.0959521,0.171473,0.0812917,0,0,1,2.905,1.19,0.4725,-0.202642,0.204106,-0.92964,-0.22176,0.07924,0.4256
1.98305,0,0,13.0169,13.0169,16.9831,16.9831,-1.39905,-3.93673,21.0577,-0.0929987,0.167802,0.0810099,0,0,1,1.9075,0.175,0.245,-0.202642,0.204106,-0.92964,-0.22176,0.07924,0.4256
1.80165,0,0,13.1984,13.1984,16.8016,16.8016,-1.26934,-3.89558,21.076,0.0153789,-0.118282,0.0188996,0,0,1,1.4875,-0.35,-1.575,-0.093086,-0.083936,-0.991372,-0.22176,0.07924,0.4256
1.62378,0,0,13.3762,13.3762,16.6238,16.6238,-1.14217,-3.8558,21.0926,0.0146862,-0.116069,0.0189931,0,0,1,1.4875,-0.35,-1.575,-0.093086,-0.083936,-0.991372,-0.22218,0.08022,0.41916
1.13772,0,0,13.8623,13.8623,16.1377,16.1377,-0.794902,-3.32703,20.7194,0.381474,-0.296396,0.0422959,0,0,1,2.625,-0.2275,-1.6275,0.284504,-0.270108,-0.968924,-0.22218,0.08022,0.41916
0.662979,0,0,14.337,14.337,15.663,15.663,-0.455753,-2.80975,20.353,0.372458,-0.290491,0.0428437,0,0,1,2.625,-0.2275,-1.6275,0.284504,-0.270108,-0.968924,-0.22218,0.08022,0.41916
0.665831,0,0,14.3342,14.3342,15.6658,15.6658,-0.457741,-2.80849,20.351,-0.133065,-0.0332046,0.170342,1,0,1,2.345,0.84,-2.0125,-0.223138,-0.013054,-0.84241,-0.22218,0.08022,0.41916
0.668684,0,0,14.3313,14.3313,15.6687,15.6687,-0.45973,-2.80724,20.349,-0.133087,-0.0332393,0.170343,1,0,1,2.345,0.84,-2.0125,-0.223138,-0.013054,-0.84241,-0.22218,0.08022,0.41916
0.674846,0,0,14.3252,14.3252,15.6748,15.6748,-0.464081,-2.8072,20.3481,0.0829137,-0.0386887,-0.108874,1,0,1,1.05,0.1225,-1.3825,-0.006222,-0.018422,-1.11947,-0.22218,0.08022,0.41916
0.681008,0,0,14.319,14.319,15.681,15.681,-0.468433,-2.80717,20.3471,0.0829131,-0.0387646,-0.108874,1,0,1,1.05,0.1225,-1.3825,-0.006222,-0.018422,-1.11947,-0.22218,0.08022,0.41916
0.682923,0,0,14.3171,14.3171,15.6829,15.6829,-0.46975,-2.80789,20.348,0.416282,0.0148261,-0.0964574,1,0,1,2.8,-0.3325,-0.35,0.328546,0.035136,-1.10715,-0.22218,0.08022,0.41916
0.684838,0,0,14.3152,14.3152,15.6848,15.6848,-0.471068,-2.80861,20.3489,0.416295,0.0148032,-0.0964582,1,0,1,2.8,-0.3325,-0.35,0.328546,0.035136,-1.10715,-0.22218,0.08022,0.41916
0.679626,0,0,14.3204,14.3204,15.6796,15.6796,-0.467295,-2.80802,20.3503,-0.242654,-0.00735814,-0.191742,1,0,1,5.67,0.4375,0,-0.333182,0.012932,-1.2017,-0.22526,0.0826,0.41678
0.655215,0,0,14.3448,14.3448,15.6552,15.6552,-0.44981,-2.5427,20.2312,0.205133,0.00491338,-0.0250514,0,0,1,3.43,1.1025,-0.0525,0.121146,0.024888,-1.03651,-0.22526,0.0826,0.41678
0.632075,0,0,14.3679,14.3679,15.6321,15.6321,-0.433235,-2.28323,20.1127,0.200609,0.00520093,-0.0248585,0,0,1,3.43,1.1025,-0.0525,0.121146,0.024888,-1.03651,-0.22526,0.0826,0.41678
0.63528,0,0,14.3647,14.3647,15.6353,15.6353,-0.435478,-2.28519,20.1126,0.114874,0.00369631,0.220176,1,0,1,2.2575,-1.05,-0.8575,0.035014,0.023424,-0.793366,-0.22526,0.0826,0.41678
0.568372,0,0,14.4316,14.4316,15.5684,15.5684,-0.387644,-2.20704,20.0992,0.0522824,-0.0398019,0.0724516,0,0,1,1.26,0.175,-1.2775,-0.026474,-0.020862,-0.94001,-0.22526,0.0826,0.41678
0.49988,0,0,14.5001,14.5001,15.4999,15.4999,-0.338686,-2.132,20.0869,0.0509736,-0.0389484,0.0725066,0,0,1,2.5025,-0.525,-0.735,-0.026474,-0.020862,-0.94001,-0.22526,0.0826,0.41678
0.371919,0,0,14.6281,14.6281,15.3719,15.3719,-0.247258,-1.92639,19.977,0.154781,-0.0774119,-0.0768636,0,0,1,2.2575,0.6125,-1.33,0.081374,-0.060878,-1.08836,-0.22526,0.0826,0.41678
0.244995,0,0,14.755,14.755,15.245,15.245,-0.156581,-1.72651,19.8679,0.151294,-0.0758305,-0.0767468,0,0,1,3.0625,0.105,-1.5575,0.081374,-0.060878,-1.08836,-0.22526,0.0826,0.41678
0.247306,0,0,14.7527,14.7527,15.2473,15.2473,-0.158215,-1.72638,19.8664,0.34336,0.122108,0.181814,1,0,1,2.5725,0.175,-1.7675,0.274256,0.136884,-0.831796,-0.22526,0.08554,0.4144
0.250706,0,0,14.7493,14.7493,15.2507,15.2507,-0.160626,-1.72747,19.8647,0.343379,0.122066,0.181813,1,0,1,2.135,-0.5425,-1.82,0.274256,0.136884,-0.831796,-0.22526,0.08554,0.4144
0.290409,0,0,14.7096,14.7096,15.2904,15.2904,-0.188965,-1.81938,19.9678,-0.0626017,0.0164211,0.0400024,0,0,1,2.275,-0.42,-1.365,-0.135054,0.031842,-0.972462,-0.22526,0.08554,0.4144
0.291276,0,0,14.7087,14.7087,15.2913,15.2913,-0.189565,-1.81951,19.9671,-0.00951011,0.137072,0.134427,1,0,1,3.1675,0.0175,-1.225,-0.08174,0.152378,-0.878766,-0.22526,0.08554,0.4144
0.291151,0,0,14.7088,14.7088,15.2912,15.2912,-0.189455,-1.81997,19.9677,-0.00950207,0.137074,0.134426,1,0,1,3.5875,-0.175,-0.49,-0.08174,0.152378,-0.878766,-0.22526,0.08554,0.4144
0.407472,0,0,14.5925,14.5925,15.4075,15.4075,-0.272513,-2.02734,20.1639,-0.162237,0.0672345,-0.0525826,0,0,1,4.3575,0.8575,-0.5425,-0.238754,0.084058,-1.06421,-0.22526,0.08554,0.4144
0.523732,0,0,14.4763,14.4763,15.5237,15.5237,-0.355517,-2.22902,20.3594,-0.158719,0.0657875,-0.0527212,0,0,1,3.43,1.2775,-0.4025,-0.238754,0.084058,-1.06421,-0.22526,0.08554,0.4144
-0.147747,0,0,15.1477,15.1477,14.8523,14.8523,0.124097,-1.89242,20.0744,0.201082,-0.419972,0.117422,0,0,1,3.9725,-0.0875,-0.4025,0.128466,-0.409554,-0.895602,-0.22582,0.07784,0.41706
-0.1465,0,0,15.1465,15.1465,14.8535,14.8535,0.123193,-1.89303,20.0745,0.208867,0.332679,-0.0587638,1,0,1,3.01,-0.2625,-0.7875,0.136274,0.342332,-1.07043,-0.22582,0.07784,0.41706
-0.142721,0,0,15.1427,15.1427,14.8573,14.8573,0.120481,-1.89302,20.0755,0.208867,0.332632,-0.0587637,1,0,1,2.0125,0.105,-0.28,0.136274,0.342332,-1.07043,-0.22582,0.07784,0.41706
-0.0879506,0,0,15.088,15.088,14.912,14.912,0.081351,-2.24256,20.3603,-0.249597,0.00855715,0.075646,0,0,1,4.3925,-0.14,-0.2625,-0.330254,0.019276,-0.936838,-0.22582,0.07784,0.41706
-0.0323055,0,0,15.0323,15.0323,14.9677,14.9677,0.0416,-2.58308,20.643,-0.24366,0.00786372,0.0753966,0,0,1,3.4825,0.4025,-0.2275,-0.330254,0.019276,-0.936838,-0.22582,0.07784,0.41706
0.115612,0,0,14.8844,14.8844,15.1156,15.1156,-0.0640482,-2.51356,20.6811,0.0671035,0.11215,-0.0927434,0,0,1,1.9425,0.91,-0.2275,-0.016958,0.125294,-1.10373,-0.22582,0.07784,0.41706
0.262408,0,0,14.7376,14.7376,15.2624,15.2624,-0.168885,-2.44673,20.7194,0.0659381,0.110322,-0.0926966,0,0,1,1.3825,0.07,0.105,-0.016958,0.125294,-1.10373,-0.22582,0.07784,0.41706
-0.00767034,0,0,15.0077,15.0077,14.9923,14.9923,0.0240258,-2.52913,20.7781,-0.0843607,-0.188212,0.0255216,0,0,1,3.29,-1.0325,-0.2975,-0.169336,-0.17629,-0.98637,-0.22582,0.07784,0.41706
-0.274031,0,0,15.274,15.274,14.726,14.726,0.214261,-2.60806,20.8356,-0.0829844,-0.184895,0.025453,0,0,1,3.535,0,-1.4175,-0.169336,-0.17629,-0.98637,-0.2205,0.07826,0.42
-0.333436,0,0,15.3334,15.3334,14.6666,14.6666,0.256665,-2.77354,20.9871,-0.116545,-0.0493285,0.0989605,0,0,1,3.2375,0.1575,-1.12,-0.205936,-0.041602,-0.913292,-0.2205,0.07826,0.42
-0.400841,0,0,15.4008,15.4008,14.5992,14.5992,0.304779,-2.93605,21.1372,-0.113712,-0.0484905,0.0988152,0,0,1,6.72,-0.2625,-1.1025,-0.205936,-0.041602,-0.913292,-0.2205,0.07826,0.42
-0.546502,0,0,15.5465,15.5465,14.4535,14.4535,0.408779,-2.86867,21.1246,0.0392785,-0.0919863,-0.0464617,0,0,1,6.0025,-0.42,-1.2425,-0.051118,-0.086864,-1.0575,-0.2205,0.07826,0.42
-0.676508,0,0,15.6765,15.6765,14.3235,14.3235,0.501586,-2.80045,21.1112,0.0380893,-0.0903681,-0.0464157,0,0,1,0.875,1.155,-1.8725,-0.051118,-0.086864,-1.0575,-0.2205,0.07826,0.42
-0.6696,0,0,15.6696,15.6696,14.3304,14.3304,0.496599,-2.79938,21.1092,-0.382027,-0.139061,-0.185592,1,0,1,0.665,0.7175,-1.995,-0.472994,-0.13542,-1.1956,-0.2205,0.07826,0.42
-0.66751,0,0,15.6675,15.6675,14.3325,14.3325,0.495053,-2.80006,21.1071,-0.382015,-0.139088,-0.185592,1,0,1,2.59,-0.315,-2.0825,-0.472994,-0.13542,-1.1956,-0.2205,0.07826,0.42
-0.473588,0,0,15.4736,15.4736,14.5264,14.5264,0.356499,-2.9509,21.2927,-0.10094,0.117648,-0.00534072,0,0,1,2.5375,0.1225,-1.89,-0.19337,0.123464,-1.01663,-0.2205,0.07826,0.42
-0.285772,0,0,15.2858,15.2858,14.7142,14.7142,0.222321,-3.09758,21.4788,-0.098384,0.115309,-0.00546397,0,0,1,3.535,0.3325,-1.19,-0.19337,0.123464,-1.01663,-0.2205,0.07826,0.42
-0.521193,0,0,15.5212,15.5212,14.4788,14.4788,0.390437,-3.00061,21.4292,0.052026,-0.155324,-0.0342825,0,0,1,3.8325,0.665,-1.12,-0.040626,-0.149816,-1.0453,-0.22652,0.07784,0.413
-0.490179,0,0,15.4902,15.4902,14.5098,14.5098,0.368245,-3.203,21.6196,-0.154253,0.00427376,0.00524128,0,0,1,4.6025,0.7,-0.385,-0.25132,0.010004,-1.00589,-0.22652,0.07784,0.413
-0.45433,0,0,15.4543,15.4543,14.5457,14.5457,0.342602,-3.40087,21.8094,-0.150805,0.00382573,0.00504514,0,0,1,2.31,0.56,0.14,-0.25132,0.010004,-1.00589,-0.22652,0.07784,0.413
-0.451649,0,0,15.4516,15.4516,14.5484,14.5484,0.34065,-3.40132,21.8113,-0.0913905,0.000982807,0.143239,1,0,1,2.485,-0.1575,0.28,-0.191662,0.007198,-0.868762,-0.22652,0.07784,0.413
-0.451482,0,0,15.4515,15.4515,14.5485,14.5485,0.340494,-3.402,21.8135,-0.0913786,0.000980093,0.143238,1,0,1,3.5,-0.2975,0.42,-0.191662,0.007198,-0.868762,-0.22652,0.07784,0.413
-0.176159,0,0,15.1762,15.1762,14.8238,14.8238,0.14382,-3.63269,22.0725,-0.151261,0.164989,0.020672,0,0,1,3.6575,-0.1925,0.7,-0.255834,0.17446,-0.990152,-0.22652,0.07784,0.413
0.0915314,0,0,14.9085,14.9085,15.0915,15.0915,-0.0473828,-3.85657,22.3302,-0.147362,0.161658,0.0204196,0,0,1,4.6725,0.4025,0.28,-0.255834,0.17446,-0.990152,-0.22652,0.07784,0.413
0.0856165,0,0,14.9144,14.9144,15.0856,15.0856,-0.0431532,-3.85593,22.331,-0.246141,0.109828,-0.0886349,1,0,1,5.915,0.4725,-0.4025,-0.35502,0.12261,-1.09837,-0.22582,0.07644,0.41944
-0.345472,0,0,15.3455,15.3455,14.6545,14.6545,0.264738,-3.45153,22.05,0.2771,-0.258394,0.0326629,0,0,1,3.115,0.735,-0.9975,0.17751,-0.250588,-0.97844,-0.22582,0.07644,0.41944
-0.767806,0,0,15.7678,15.7678,14.2322,14.2322,0.566346,-3.05875,21.7718,0.270256,-0.253136,0.033014,0,0,1,3.5,-0.56,-2.3625,0.17751,-0.250588,-0.97844,-0.22582,0.07644,0.41944
-0.719854,0,0,15.7199,15.7199,14.2801,14.2801,0.532037,-2.54895,21.5025,0.418814,0.0789438,0.0109554,0,0,1,1.9075,0.1925,-2.8525,0.335622,0.08174,-1.00077,-0.22582,0.07644,0.41944
-0.674264,0,0,15.6743,15.6743,14.3257,14.3257,0.499419,-2.04999,21.2338,0.410113,0.0783781,0.0113099,0,0,1,3.29,-0.315,-2.5725,0.335622,0.08174,-1.00077,-0.22582,0.07644,0.41944
-0.674114,0,0,15.6741,15.6741,14.3259,14.3259,0.499258,-2.05094,21.2315,0.251712,-0.0917472,-0.0788119,1,0,1,3.3775,-0.4725,-2.2225,0.176534,-0.088206,-1.09019,-0.22582,0.07644,0.41944
-0.67272,0,0,15.6727,15.6727,14.3273,14.3273,0.498209,-2.0501,21.2295,0.251697,-0.0917655,-0.0788112,1,0,1,2.8875,0.5775,-1.995,0.176534,-0.088206,-1.09019,-0.22582,0.07644,0.41944
-0.62301,0,0,15.623,15.623,14.377,14.377,0.462652,-2.16987,21.3579,-0.0811498,0.0204588,0.0648438,0,0,1,2.5725,0.9625,-1.47,-0.15982,0.024522,-0.947574,-0.22582,0.07644,0.41944
-0.575002,0,0,15.575,15.575,14.425,14.425,0.428315,-2.28755,21.4849,-0.0790973,0.0198593,0.0647686,0,0,1,2.73,0.2975,-0.7,-0.15982,0.024522,-0.947574,-0.2247,0.07826,0.42448
-0.57504,0,0,15.575,15.575,14.425,14.425,0.428296,-2.28808,21.4933,-0.44063,-0.0989703,-0.0195744,1,0,1,3.6925,-0.175,4.06,-0.522892,-0.094184,-1.03127,-0.2247,0.07826,0.42448
-0.575592,0,0,15.5756,15.5756,14.4244,14.4244,0.428645,-2.2879,21.4956,-0.440633,-0.0989642,-0.0195743,1,0,1,3.7625,0.21,0.5075,-0.522892,-0.094184,-1.03127,-0.2247,0.07826,0.42448
-0.470311,0,0,15.4703,15.4703,14.5297,14.5297,0.353406,-2.37045,21.6152,-0.0460654,0.0590987,0.0916444,0,0,1,3.85,0.28,0.9625,-0.1281,0.065026,-0.920856,-0.2247,0.07826,0.42448
-0.373816,0,0,15.3738,15.3738,14.6262,14.6262,0.284451,-2.45241,21.7344,-0.0446362,0.057896,0.091591,0,0,1,6.545,-0.595,1.12,-0.1281,0.065026,-0.920856,-0.2247,0.07826,0.42448
-0.378319,0,0,15.3783,15.3783,14.6217,14.6217,0.287636,-2.45321,21.7366,-0.410051,0.231127,-0.0312355,1,0,1,5.355,-0.3675,0.4725,-0.495076,0.238022,-1.04273,-0.2247,0.07826,0.42448
-0.382822,0,0,15.3828,15.3828,14.6172,14.6172,0.290822,-2.45402,21.7389,-0.410037,0.231183,-0.0312363,1,0,1,5.355,-0.3675,0.4725,-0.495076,0.238022,-1.04273,-0.2247,0.07826,0.42448
-0.378043,0,0,15.378,15.378,14.622,14.622,0.287378,-2.45439,21.7385,-0.100485,-0.35362,-0.0452525,1,0,1,1.575,-0.1225,-1.0675,-0.18422,-0.346114,-1.05664,-0.2247,0.07826,0.42448
-0.373264,0,0,15.3733,15.3733,14.6267,14.6267,0.283934,-2.45476,21.7381,-0.100479,-0.35368,-0.0452524,1,0,1,1.575,-0.1225,-1.0675,-0.18422,-0.346114,-1.05664,-0.22344,0.07756,0.40964
-0.440766,0,0,15.4408,15.4408,14.5592,14.5592,0.332114,-2.49494,21.7946,-0.0406146,-0.0535076,-0.033976,0,0,1,2.17,0.4725,-2.3625,-0.124806,-0.047092,-1.04542,-0.22344,0.07756,0.40964
-0.507153,0,0,15.5072,15.5072,14.4928,14.4928,0.379492,-2.53434,21.8505,-0.0399275,-0.0526817,-0.0340113,0,0,1,2.17,0.4725,-2.3625,-0.124806,-0.047092,-1.04542,-0.22344,0.07756,0.40964
-0.511335,0,0,15.5113,15.5113,14.4887,14.4887,0.382438,-2.53383,21.8475,0.40628,-0.0544622,-0.113436,1,0,1,5.0925,0.385,-2.59,0.3233,-0.048922,-1.12423,-0.22344,0.07756,0.40964
-0.515516,0,0,15.5155,15.5155,14.4845,14.4845,0.385384,-2.53332,21.8445,0.406272,-0.0544109,-0.113436,1,0,1,5.0925,0.385,-2.59,0.3233,-0.048922,-1.12423,-0.22344,0.07756,0.40964
-0.551393,0,0,15.5514,15.5514,14.4486,14.4486,0.410965,-2.11311,21.6117,0.305035,0.00942109,0.0916905,0,0,1,1.2425,0.77,-2.1175,0.228994,0.014396,-0.920978,-0.22344,0.07756,0.40964
-0.585002,0,0,15.585,15.585,14.415,14.415,0.434926,-1.70165,21.3799,0.297858,0.0098408,0.0919264,0,0,1,1.2425,0.77,-2.1175,0.228994,0.014396,-0.920978,-0.22344,0.07756,0.40964
-0.521689,0,0,15.5217,15.5217,14.4783,14.4783,0.38966,-1.80497,21.493,-0.0674694,0.0296902,0.070238,0,0,1,2.1525,0.28,-1.0325,-0.13969,0.035014,-0.94245,-0.22344,0.07756,0.40964
-0.459756,0,0,15.4598,15.4598,14.5402,14.5402,0.345385,-1.90582,21.6055,-0.0657103,0.0289175,0.070186,0,0,1,2.1525,0.28,-1.0325,-0.13969,0.035014,-0.94245,-0.22344,0.07756,0.40964
-0.633511,0,0,15.6335,15.6335,14.3665,14.3665,0.469446,-1.69704,21.4751,0.156125,-0.10631,-0.0680319,0,0,1,4.41,0.105,0.4375,0.086742,-0.102236,-1.0797,-0.224,0.0812,0.41286
-0.536233,0,0,15.5362,15.5362,14.4638,14.4638,0.399919,-1.78025,21.5808,-0.0504067,0.0599124,0.0664389,0,0,1,6.37,0.4375,0.77,-0.122122,0.065026,-0.946232,-0.224,0.0812,0.41286
-0.440879,0,0,15.4409,15.4409,14.5591,14.5591,0.331773,-1.86141,21.686,-0.048991,0.0587234,0.0664014,0,0,1,6.37,0.4375,0.77,-0.122122,0.065026,-0.946232,-0.224,0.0812,0.41286
-0.401002,0,0,15.401,15.401,14.599,14.599,0.303257,-2.29306,21.9963,-0.345541,-0.0134639,0.00391919,0,0,1,3.4125,-4.1825,0.07,-0.427488,-0.006588,-1.00796,-0.224,0.0812,0.41286
-0.362425,0,0,15.3624,15.3624,14.6376,14.6376,0.275673,-2.71501,22.3039,-0.338184,-0.0139465,0.00359988,0,0,1,3.4125,-4.1825,0.07,-0.427488,-0.006588,-1.00796,-0.224,0.0812,0.41286
-0.356956,0,0,15.357,15.357,14.643,14.643,0.271737,-2.71505,22.3041,-0.155104,0.170763,-0.096357,1,0,1,1.3125,0.07,-0.7525,-0.243634,0.177998,-1.10715,-0.224,0.0812,0.41286
-0.12737,0,0,15.1274,15.1274,14.8726,14.8726,0.107735,-2.81393,22.4522,-0.053519,0.142501,0.0300833,0,0,1,2.8175,-0.385,-0.91,-0.14335,0.152622,-0.981612,-0.224,0.0812,0.41286
0.0965631,0,0,14.9034,14.9034,15.0966,15.0966,-0.0522111,-2.90836,22.5981,-0.0518729,0.139713,0.0300024,0,0,1,3.325,0.665,-1.9425,-0.14335,0.152622,-0.981612,-0.224,0.0812,0.41286
0.420595,0,0,14.5794,14.5794,15.4206,15.4206,-0.283632,-3.22347,22.91,-0.198846,0.174761,0.115514,0,0,1,2.38,0.98,-1.9775,-0.29646,0.191662,-0.896456,-0.2184,0.0812,0.41272
0.738882,0,0,14.2611,14.2611,15.7389,15.7389,-0.510925,-3.53309,23.222,-0.193451,0.170803,0.115169,0,0,1,2.415,-0.1925,-1.785,-0.29646,0.191662,-0.896456,-0.2184,0.0812,0.41272
0.739163,0,0,14.2608,14.2608,15.7392,15.7392,-0.511071,-3.53324,23.2204,-0.0929799,-0.0261898,0.23406,1,0,1,3.3775,0.0175,-1.785,-0.195566,-0.005124,-0.778482,-0.2184,0.0812,0.41272
0.739445,0,0,14.2606,14.2606,15.7394,15.7394,-0.511217,-3.53338,23.2188,-0.0929773,-0.0261923,0.234059,1,0,1,3.3775,0.0175,-1.785,-0.195566,-0.005124,-0.778482,-0.2184,0.0812,0.41272
0.740835,0,0,14.2592,14.2592,15.7408,15.7408,-0.512156,-3.53367,23.2189,-0.049116,0.056349,-0.17745,1,0,1,2.9925,-0.07,-0.7875,-0.151524,0.077348,-1.18682,-0.2184,0.0812,0.41272
0.738109,0,0,14.2619,14.2619,15.7381,15.7381,-0.510154,-3.53344,23.2189,0.184983,-0.216447,-0.126057,1,0,1,4.6375,0.2275,-0.84,0.08357,-0.1952,-1.13582,-0.2184,0.0812,0.41272
0.740596,0,0,14.2594,14.2594,15.7406,15.7406,-0.511876,-3.53154,23.2196,0.18495,-0.216477,-0.126055,1,0,1,2.5725,1.2075,-0.455,0.08357,-0.1952,-1.13582,-0.2184,0.0812,0.41272
0.631015,0,0,14.369,14.369,15.631,15.631,-0.433557,-3.54997,23.2707,-0.0222266,-0.0753998,0.0552855,0,0,1,1.3825,0.98,-0.2975,-0.124806,-0.055632,-0.95587,-0.22498,0.07448,0.41314
0.632886,0,0,14.3671,14.3671,15.6329,15.6329,-0.434847,-3.55094,23.2709,0.324753,0.127186,0.375073,1,0,1,2.8,-0.4725,-0.7175,0.223626,0.146766,-0.638548,-0.22498,0.07448,0.41314
0.634402,0,0,14.3656,14.3656,15.6344,15.6344,-0.435883,-3.54922,23.2711,0.324723,0.127168,0.375075,1,0,1,2.94,1.1025,-0.735,0.223626,0.146766,-0.638548,-0.22498,0.07448,0.41314
0.630656,0,0,14.3693,14.3693,15.6307,15.6307,-0.433161,-3.5489,23.272,-0.484741,0.125628,-0.111063,1,0,1,5.075,0.28,-0.28,-0.58926,0.14518,-1.12094,-0.22498,0.07448,0.41314
0.62994,0,0,14.3701,14.3701,15.6299,15.6299,-0.432603,-3.54891,23.2727,-0.484741,0.125637,-0.111063,1,0,1,3.85,0.0875,-0.4725,-0.58926,0.14518,-1.12094,-0.22498,0.07448,0.41314
0.630583,0,0,14.3694,14.3694,15.6306,15.6306,-0.433016,-3.54826,23.2734,0.00872243,0.290501,-0.0660627,1,0,1,3.3075,0.4725,-0.4375,-0.093696,0.30988,-1.07628,-0.22498,0.07448,0.41314
0.638087,0,0,14.3619,14.3619,15.6381,15.6381,-0.438329,-3.54705,23.2731,0.0087014,0.290409,-0.0660621,1,0,1,0.525,0.805,-1.0325,-0.093696,0.30988,-1.07628,-0.22498,0.07448,0.41314
0.0920477,0,0,14.908,14.908,15.092,15.092,-0.0482958,-3.30044,23.0586,0.14387,-0.351412,0.0544674,0,0,1,1.5225,-0.245,-1.2425,0.04636,-0.338062,-0.956968,-0.22498,0.07448,0.41314
-0.444488,0,0,15.4445,15.4445,14.5555,14.5555,0.334908,-3.06099,22.8499,0.139698,-0.344734,0.0546826,0,0,1,2.415,-0.0175,-1.4875,0.04636,-0.338062,-0.956968,-0.21994,0.07434,0.41496
-0.218222,0,0,15.2182,15.2182,14.7818,14.7818,0.173271,-3.11917,22.9849,-0.0209859,0.141444,0.0462799,0,0,1,3.115,0.2975,-1.3125,-0.116022,0.150426,-0.965264,-0.21994,0.07434,0.41496
-0.0010714,0,0,15.0011,15.0011,14.9989,14.9989,0.0181615,-3.17654,23.12,-0.019986,0.138741,0.0462294,0,0,1,5.1275,-0.2625,-0.8925,-0.116022,0.150426,-0.965264,-0.21994,0.07434,0.41496
-0.00964849,0,0,15.0096,15.0096,14.9904,14.9904,0.0242854,-3.17727,23.1195,-0.23476,-0.271376,-0.225242,1,0,1,6.93,-0.3325,-1.19,-0.331718,-0.259372,-1.23464,-0.21994,0.07434,0.41496
-0.0114266,0,0,15.0114,15.0114,14.9886,14.9886,0.0255527,-3.17475,23.1192,-0.234804,-0.271354,-0.225239,1,0,1,4.2175,1.575,-0.9975,-0.331718,-0.259372,-1.23464,-0.21994,0.07434,0.41496
0.056177,0,0,14.9438,14.9438,15.0562,15.0562,-0.0227331,-2.97926,23.0639,0.159169,0.062432,-0.00178157,0,0,1,2.6425,1.54,-1.05,0.067344,0.074908,-1.01309,-0.21994,0.07434,0.41496
0.122017,0,0,14.878,14.878,15.122,15.122,-0.0697541,-2.79211,23.0074,0.155907,0.0616122,-0.00161779,0,0,1,3.045,-0.9625,-1.7675,0.067344,0.074908,-1.01309,-0.21994,0.07434,0.41496
0.343433,0,0,14.6566,14.6566,15.3434,15.3434,-0.227884,-2.18827,22.7035,0.477398,0.190751,0.186329,0,0,1,2.52,-0.7525,-2.135,0.40077,0.206668,-0.827038,-0.21994,0.07434,0.41496
0.561735,0,0,14.4383,14.4383,15.5617,15.5617,-0.383773,-1.58945,22.3917,0.466952,0.18803,0.186659,0,0,1,2.1875,-0.2275,-1.2075,0.40077,0.206668,-0.827038,-0.224,0.07896,0.41412
0.430029,0,0,14.57,14.57,15.43,15.43,-0.289667,-1.54262,22.3671,0.025871,-0.0888998,-0.0347389,0,0,1,3.4125,0.07,-0.945,-0.041358,-0.071614,-1.04676,-0.224,0.07896,0.41412
0.300088,0,0,14.6999,14.6999,15.3001,15.3001,-0.19683,-1.49554,22.3426,0.0250496,-0.0872802,-0.0347102,0,0,1,3.7275,0.98,-1.015,-0.041358,-0.071614,-1.04676,-0.224,0.07896,0.41412
0.405756,0,0,14.5942,14.5942,15.4058,15.4058,-0.272278,-1.14651,22.167,0.297162,0.108515,-0.020559,0,0,1,2.6075,1.1025,-0.4725,0.238022,0.125294,-1.03285,-0.224,0.07896,0.41412
0.512062,0,0,14.4879,14.4879,15.5121,15.5121,-0.348174,-0.80558,21.9924,0.291212,0.10719,-0.0204649,0,0,1,2.065,0.42,0.2275,0.238022,0.125294,-1.03285,-0.224,0.07896,0.41412
0.330791,0,0,14.6692,14.6692,15.3308,15.3308,-0.218671,-0.476202,21.7676,0.227515,-0.0890058,0.105264,0,0,1,3.255,-1.155,0.3675,0.179828,-0.072956,-0.908168,-0.224,0.07896,0.41412
0.154279,0,0,14.8457,14.8457,15.1543,15.1543,-0.0925813,-0.152261,21.5434,0.221862,-0.0868053,0.105301,0,0,1,3.15,-0.0875,-0.5425,0.179828,-0.072956,-0.908168,-0.224,0.07896,0.41412
-0.0918416,0,0,15.0918,15.0918,14.9082,14.9082,0.0832105,-0.240531,21.5715,-0.0832278,-0.170569,0.0500921,0,0,1,4.4275,0.14,-0.07,-0.1281,-0.159698,-0.962946,-0.224,0.07896,0.41412
-0.337933,0,0,15.3379,15.3379,14.6621,14.6621,0.258962,-0.327009,21.5985,-0.0817185,-0.167502,0.0500754,0,0,1,6.055,0.28,-0.4375,-0.1281,-0.159698,-0.962946,-0.224,0.07896,0.41412
-0.342083,0,0,15.3421,15.3421,14.6579,14.6579,0.261899,-0.32613,21.5988,-0.582498,0.247048,-0.284959,1,0,1,5.1625,0.6125,-0.63,-0.630984,0.25437,-1.2954,-0.2226,0.07784,0.42028
-0.405888,0,0,15.4059,15.4059,14.5941,14.5941,0.30744,0.0253056,21.3749,0.263834,-0.0168062,0.0484891,0,0,1,1.19,1.085,-1.2775,0.22509,-0.010004,-0.964532,-0.2226,0.07784,0.42028
-0.469305,0,0,15.4693,15.4693,14.5307,14.5307,0.3527,0.36649,21.1511,0.257879,-0.0160164,0.0484642,0,0,1,2.0125,-0.56,-1.9075,0.22509,-0.010004,-0.964532,-0.2226,0.07784,0.42028
-0.470044,0,0,15.47,15.47,14.53,14.53,0.353191,0.365831,21.1489,0.242219,-0.203472,-0.0630501,1,0,1,3.7975,-0.2975,-2.0825,0.209352,-0.197274,-1.07519,-0.2226,0.07784,0.42028
-0.471394,0,0,15.4714,15.4714,14.5286,14.5286,0.354117,0.365501,21.1467,0.242224,-0.203456,-0.0630501,1,0,1,4.0425,-0.105,-2.135,0.209352,-0.197274,-1.07519,-0.2226,0.07784,0.42028
-0.394005,0,0,15.394,15.394,14.606,14.606,0.298807,0.310437,21.2012,-0.0395117,0.0505791,-0.0423836,0,0,1,3.535,0.4725,-2.2575,-0.074542,0.057462,-1.05469,-0.2226,0.07784,0.42028
-0.329769,0,0,15.3298,15.3298,14.6702,14.6702,0.252897,0.25709,21.2572,-0.0385807,0.0497779,-0.0423751,0,0,1,8.19,0.7,-1.2775,-0.074542,0.057462,-1.05469,-0.2226,0.07784,0.42028
-0.329156,0,0,15.3292,15.3292,14.6708,14.6708,0.252432,0.25848,21.2569,0.13682,0.375726,0.248398,1,0,1,3.255,0.91,-0.9975,0.101626,0.38308,-0.76616,-0.2226,0.07784,0.42028
-0.320544,0,0,15.3205,15.3205,14.6795,14.6795,0.246255,0.259961,21.2566,0.136795,0.375618,0.248398,1,0,1,0.0525,0.9625,-1.0675,0.101626,0.38308,-0.76616,-0.2191,0.07686,0.41314
-0.315473,0,0,15.3155,15.3155,14.6845,14.6845,0.242607,0.260305,21.2565,0.022835,-0.131516,0.118811,1,0,1,1.47,0.2975,-0.875,-0.01281,-0.123464,-0.894748,-0.2191,0.07686,0.41314
-0.312994,0,0,15.313,15.313,14.687,14.687,0.24081,0.260222,21.2585,0.0228364,-0.131547,0.118811,1,0,1,2.5025,0.0525,0.2975,-0.01281,-0.123464,-0.894748,-0.2191,0.07686,0.41314
-0.164876,0,0,15.1649,15.1649,14.8351,14.8351,0.134997,-0.0110504,21.4749,-0.193047,0.0742217,0.0668201,0,0,1,3.22,0.455,0.8225,-0.234362,0.083936,-0.946354,-0.2191,0.07686,0.41314
-0.024838,0,0,15.0248,15.0248,14.9752,14.9752,0.0349659,-0.277021,21.6902,-0.188405,0.0724758,0.0668111,0,0,1,5.2675,-0.0875,0.6825,-0.234362,0.083936,-0.946354,-0.2191,0.07686,0.41314
-0.0303898,0,0,15.0304,15.0304,14.9696,14.9696,0.0389273,-0.27626,21.6916,0.0241817,0.11016,-0.139865,1,0,1,5.74,0.5425,0.0175,-0.020862,0.121512,-1.15144,-0.2191,0.07686,0.41314
-0.0294342,0,0,15.0294,15.0294,14.9706,14.9706,0.0382406,-0.275439,21.6925,0.0241674,0.110148,-0.139865,1,0,1,3.1325,0.5775,-0.315,-0.020862,0.121512,-1.15144,-0.2191,0.07686,0.41314
0.0957091,0,0,14.9043,14.9043,15.0957,15.0957,-0.0511419,-0.487956,21.8709,-0.161884,0.0676756,-0.0127614,0,0,1,2.7125,-0.1925,-0.4725,-0.211426,0.080642,-1.02529,-0.2191,0.07686,0.41314
0.220169,0,0,14.7798,14.7798,15.2202,15.2202,-0.140027,-0.695225,22.0418,-0.158267,0.0661244,-0.0128014,0,0,1,1.75,-0.4725,-2.4325,-0.211426,0.080642,-1.02529,-0.21714,0.08008,0.41552
0.22423,0,0,14.7758,14.7758,15.2242,15.2242,-0.142912,-1.2288,22.4042,-0.451333,-0.0508009,0.0341314,0,0,1,3.0975,-0.8225,-2.24,-0.515084,-0.036112,-0.978562,-0.21714,0.08008,0.41552
0.228094,0,0,14.7719,14.7719,15.2281,15.2281,-0.145656,-1.74987,22.7638,-0.442242,-0.0508481,0.033895,0,0,1,2.8875,-0.14,-1.7325,-0.515084,-0.036112,-0.978562,-0.21714,0.08008,0.41552
0.228396,0,0,14.7716,14.7716,15.2284,15.2284,-0.145857,-1.74899,22.7614,0.0189022,-0.268481,-0.295484,1,0,1,3.36,0.6125,-2.2925,-0.051972,-0.253516,-1.3054,-0.21714,0.08008,0.41552
0.224551,0,0,14.7754,14.7754,15.2246,15.2246,-0.143095,-1.7474,22.76,0.0188744,-0.268433,-0.295483,1,0,1,5.04,1.0325,-1.645,-0.051972,-0.253516,-1.3054,-0.21714,0.08008,0.41552
0.523399,0,0,14.4766,14.4766,15.5234,15.5234,-0.356519,-1.45687,22.6596,0.259085,0.23418,0.0373415,0,0,1,2.695,1.1725,-1.3475,0.194346,0.252296,-0.975268,-0.21714,0.08008,0.41552
0.816357,0,0,14.1836,14.1836,15.8164,15.8164,-0.565715,-1.17487,22.559,0.254165,0.230529,0.0374252,0,0,1,3.3075,-0.7525,-0.7525,0.194346,0.252296,-0.975268,-0.21714,0.08008,0.41552
1.10242,0,0,13.8976,13.8976,16.1024,16.1024,-0.769963,-0.452357,22.1587,0.569203,0.24113,0.28223,0,0,1,2.835,0.2275,-1.155,0.52338,0.266448,-0.732488,-0.21714,0.08008,0.41552
1.38235,0,0,13.6177,13.6177,16.3823,16.3823,-0.969808,0.264544,21.7493,0.556691,0.237642,0.282198,0,0,1,3.4475,-0.07,-0.0875,0.52338,0.266448,-0.732488,-0.22106,0.08498,0.41426
1.38038,0,0,13.6196,13.6196,16.3804,16.3804,-0.968297,0.263783,21.7511,0.170865,-0.208827,-0.142835,1,0,1,4.3575,-0.3675,0.2275,0.135908,-0.179584,-1.15424,-0.22106,0.08498,0.41426
1.3802,0,0,13.6198,13.6198,16.3802,16.3802,-0.968064,0.26476,21.7532,0.170848,-0.208823,-0.142835,1,0,1,3.64,0.6475,0.385,0.135908,-0.179584,-1.15424,-0.22106,0.08498,0.41426
1.33087,0,0,13.6691,13.6691,16.3309,16.3309,-0.932731,0.637619,21.4968,0.31231,-0.00388766,-0.0270582,0,0,1,2.9225,1.7675,-4.305,0.284504,0.024522,-1.03932,-0.22106,0.08498,0.41426
1.27976,0,0,13.7202,13.7202,16.2798,16.2798,-0.896124,1.00018,21.2487,0.305983,-0.00324744,-0.0271385,0,0,1,4.48,0.1225,-0.105,0.284504,0.024522,-1.03932,-0.22106,0.08498,0.41426
1.53377,0,0,13.4662,13.4662,16.5338,16.5338,-1.07745,0.516982,21.6077,-0.378174,0.139895,0.0496385,0,0,1,4.4625,-1.1375,-1.155,-0.411018,0.170678,-0.96319,-0.22106,0.08498,0.41426
1.78341,0,0,13.2166,13.2166,16.7834,16.7834,-1.25563,0.0440832,21.9664,-0.369921,0.136785,0.0496156,0,0,1,4.4625,-1.1375,-1.155,-0.411018,0.170678,-0.96319,-0.22106,0.08498,0.41426
1.78508,0,0,13.2149,13.2149,16.7851,16.7851,-1.25669,0.0444624,21.9653,0.289376,0.236177,-0.0343586,1,0,1,2.9225,0.3325,-1.4875,0.251076,0.269986,-1.04652,-0.22106,0.08498,0.41426
1.78675,0,0,13.2132,13.2132,16.7868,16.7868,-1.25774,0.0448416,21.9642,0.289369,0.236159,-0.034359,1,0,1,2.9225,0.3325,-1.4875,0.251076,0.269986,-1.04652,-0.21644,0.08148,0.4186
1.82642,0,0,13.1736,13.1736,16.8264,16.8264,-1.28594,0.0806905,21.96,0.0345953,0.0369666,-0.0686733,0,0,1,4.9525,-0.2625,-1.925,-0.004148,0.071492,-1.08055,-0.21644,0.08148,0.4186
1.86549,0,0,13.1345,13.1345,16.8655,16.8655,-1.3137,0.115827,21.9559,0.0339821,0.0364822,-0.0686853,0,0,1,4.9525,-0.2625,-1.925,-0.004148,0.071492,-1.08055,-0.21644,0.08148,0.4186
1.48621,0,0,13.5138,13.5138,16.4862,16.4862,-1.04268,-0.0343148,21.9988,-0.152065,-0.289508,0.0194449,0,0,1,1.2425,0.8575,-0.9275,-0.193614,-0.258884,-0.993202,-0.21644,0.08148,0.4186
1.11296,0,0,13.887,13.887,16.113,16.113,-0.77599,-0.181874,22.0405,-0.149489,-0.284854,0.019514,0,0,1,1.2425,0.8575,-0.9275,-0.193614,-0.258884,-0.993202,-0.21644,0.08148,0.4186
1.09952,0,0,13.9005,13.9005,16.0995,16.0995,-0.766312,-0.181311,22.0413,-0.0870555,0.168405,0.151932,1,0,1,8.9425,0.42,-0.4025,-0.130906,0.193736,-0.861808,-0.21644,0.08148,0.4186
0.722872,0,0,14.2771,14.2771,15.7229,15.7229,-0.497222,-0.0612757,21.9087,0.0755841,-0.270341,-0.0586228,0,0,1,5.74,0.245,0.105,0.034526,-0.249246,-1.07079,-0.21644,0.08148,0.4186
0.352216,0,0,14.6478,14.6478,15.3522,15.3522,-0.232442,0.0561338,21.7775,0.0735349,-0.265719,-0.0585932,0,0,1,6.16,0.595,-0.28,0.034526,-0.249246,-1.07079,-0.21644,0.08148,0.4186
0.741646,0,0,14.2584,14.2584,15.7416,15.7416,-0.510552,-0.0249123,21.9097,-0.0356026,0.242725,0.105512,0,0,1,2.66,1.0325,-0.315,-0.076494,0.26352,-0.907924,-0.2254,0.07952,0.41734
1.12873,0,0,13.8713,13.8713,16.1287,16.1287,-0.786955,-0.106013,22.0417,-0.0341871,0.237902,0.105456,0,0,1,0.9275,-0.28,-0.665,-0.076494,0.26352,-0.907924,-0.2254,0.07952,0.41734
1.13653,0,0,13.8635,13.8635,16.1365,16.1365,-0.792442,-0.107567,22.0406,0.180748,0.0185884,0.193485,1,0,1,0.4375,-0.805,-1.5225,0.139324,0.04453,-0.820572,-0.2254,0.07952,0.41734
1.13856,0,0,13.8614,13.8614,16.1386,16.1386,-0.793809,-0.107565,22.0396,0.180748,0.0185645,0.193485,1,0,1,2.7475,0.105,-1.4,0.139324,0.04453,-0.820572,-0.2254,0.07952,0.41734
1.67731,0,0,13.3227,13.3227,16.6773,16.6773,-1.17851,-0.27093,22.257,-0.0905938,0.358569,0.0840589,0,0,1,4.48,-0.1225,-1.2075,-0.13603,0.390888,-0.92903,-0.2254,0.07952,0.41734
2.20544,0,0,12.7946,12.7946,17.2054,17.2054,-1.55557,-0.430178,22.4754,-0.0878144,0.351991,0.0838849,0,0,1,5.2325,0.035,-1.365,-0.13603,0.390888,-0.92903,-0.2254,0.07952,0.41734
2.20124,0,0,12.7988,12.7988,17.2012,17.2012,-1.55241,-0.429562,22.4745,0.1023,-0.137804,-0.138281,1,0,1,5.285,0.4725,-1.4,0.0549,-0.098454,-1.14948,-0.2254,0.07952,0.41734
2.20863,0,0,12.7914,12.7914,17.2086,17.2086,-1.55752,-0.427629,22.4735,0.102266,-0.137894,-0.138284,1,0,1,0.6475,1.2425,-1.3475,0.0549,-0.098454,-1.14948,-0.2254,0.07952,0.41734
2.21567,0,0,12.7843,12.7843,17.2157,17.2157,-1.56238,-0.427468,22.4734,-0.815925,-0.315184,-0.0432467,1,0,1,0.7875,0.1925,-0.91,-0.867176,-0.275476,-1.05518,-0.2254,0.07952,0.41734
2.21874,0,0,12.7813,12.7813,17.2187,17.2187,-1.5644,-0.429166,22.4731,-0.815896,-0.31522,-0.0432479,1,0,1,2.38,-0.8925,-1.085,-0.867176,-0.275476,-1.05518,-0.22358,0.07868,0.41566
2.22308,0,0,12.7769,12.7769,17.2231,17.2231,-1.56734,-0.430662,22.4735,-0.244523,0.3756,-0.0833307,1,0,1,1.8725,-0.7875,-0.595,-0.29341,0.414678,-1.09495,-0.22358,0.07868,0.41566
2.22044,0,0,12.7796,12.7796,17.2204,17.2204,-1.56528,-0.431108,22.4752,-0.244515,0.375636,-0.0833298,1,0,1,4.6725,-0.1925,0.14,-0.29341,0.414678,-1.09495,-0.22358,0.07868,0.41566
2.21133,0,0,12.7887,12.7887,17.2113,17.2113,-1.55861,-0.431471,22.4767,-0.405112,-0.163681,-0.207996,1,0,1,7.2625,-0.14,0.0175,-0.454694,-0.124196,-1.21866,-0.22358,0.07868,0.41566
2.20778,0,0,12.7922,12.7922,17.2078,17.2078,-1.5559,-0.429529,22.4784,-0.405146,-0.163634,-0.207995,1,0,1,5.04,1.2075,0.14,-0.454694,-0.124196,-1.21866,-0.22358,0.07868,0.41566
2.18239,0,0,12.8176,12.8176,17.1824,17.1824,-1.5376,0.0724103,22.1625,0.402234,0.0210957,0.0781422,0,0,1,2.45,1.4525,-0.4375,0.364902,0.060024,-0.934764,-0.22358,0.07868,0.41566
2.15994,0,0,12.8401,12.8401,17.1599,17.1599,-1.52141,0.561537,21.8456,0.393697,0.0213796,0.0781025,0,0,1,2.17,-0.4725,-1.4175,0.364902,0.060024,-0.934764,-0.22358,0.07868,0.41566
1.94859,0,0,13.0514,13.0514,16.9486,16.9486,-1.3703,1.12319,21.4409,0.464198,-0.110198,0.0539271,0,0,1,3.185,-0.3325,-2.065,0.445544,-0.074054,-0.958676,-0.22358,0.07868,0.41566
1.74413,0,0,13.2559,13.2559,16.7441,16.7441,-1.22412,1.67331,21.0382,0.454599,-0.107643,0.0537506,0,0,1,3.045,0.0175,-1.4175,0.445544,-0.074054,-0.958676,-0.22288,0.08008,0.42014
1.74655,0,0,13.2535,13.2535,16.7465,16.7465,-1.22572,1.67413,21.0367,0.143217,-0.287197,-0.173705,1,0,1,2.6425,0.595,-1.68,0.132858,-0.253394,-1.18438,-0.22288,0.08008,0.42014
1.74897,0,0,13.251,13.251,16.749,16.749,-1.22732,1.67495,21.0353,0.143203,-0.287225,-0.173706,1,0,1,2.6425,0.595,-1.68,0.132858,-0.253394,-1.18438,-0.22288,0.08008,0.42014
2.07323,0,0,12.9268,12.9268,17.0732,17.0732,-1.45877,1.91801,20.9203,0.211854,0.24903,0.0586848,0,0,1,3.15,1.0675,-1.435,0.206058,0.286334,-0.953552,-0.22288,0.08008,0.42014
2.39279,0,0,12.6072,12.6072,17.3928,17.3928,-1.68685,2.15663,20.8042,0.207692,0.245058,0.0584276,0,0,1,3.15,1.0675,-1.435,0.206058,0.286334,-0.953552,-0.22288,0.08008,0.42014
2.24972,0,0,12.7503,12.7503,17.2497,17.2497,-1.58449,1.70661,21.0747,-0.353376,-0.135666,0.109521,0,0,1,3.5175,-1.2075,-0.9975,-0.365268,-0.09577,-0.903166,-0.22288,0.08008,0.42014
2.10829,0,0,12.8917,12.8917,17.1083,17.1083,-1.48331,1.26588,21.3415,-0.345686,-0.133907,0.109768,0,0,1,3.5175,-1.2075,-0.9975,-0.365268,-0.09577,-0.903166,-0.22288,0.08008,0.42014
2.10738,0,0,12.8926,12.8926,17.1074,17.1074,-1.4825,1.26512,21.344,-0.516117,-0.079546,-0.139325,1,0,1,3.9375,-0.385,0.5775,-0.536434,-0.04148,-1.15034,-0.22288,0.08008,0.42014
2.10732,0,0,12.8927,12.8927,17.1073,17.1073,-1.4823,1.26476,21.3458,-0.0650346,-0.262733,-0.341944,1,0,1,3.605,-0.14,0.21,-0.083448,-0.22448,-1.35139,-0.22344,0.0763,0.40978
2.30784,0,0,12.6922,12.6922,17.3078,17.3078,-1.62535,1.54044,21.2022,0.229132,0.159288,0.0590513,0,0,1,2.485,0.8575,0.1575,0.216794,0.199592,-0.953308,-0.22344,0.0763,0.40978
2.5026,0,0,12.4974,12.4974,17.5026,17.5026,-1.76428,1.80865,21.057,0.224453,0.156869,0.0588429,0,0,1,3.7625,-0.42,-0.49,0.216794,0.199592,-0.953308,-0.22344,0.0763,0.40978
2.50199,0,0,12.498,12.498,17.502,17.502,-1.76365,1.80654,21.0569,-0.385247,0.0643082,-0.211765,1,0,1,3.8675,-1.1375,-0.9625,-0.395524,0.107116,-1.22183,-0.22344,0.0763,0.40978
2.5007,0,0,12.4993,12.4993,17.5007,17.5007,-1.76254,1.80699,21.0555,-0.385255,0.0643277,-0.211765,1,0,1,4.165,0.385,-1.645,-0.395524,0.107116,-1.22183,-0.22344,0.0763,0.40978
2.50031,0,0,12.4997,12.4997,17.5003,17.5003,-1.76208,1.80792,21.0541,0.265163,0.0634809,0.270439,1,0,1,3.7975,0.665,-1.6275,0.257664,0.106262,-0.743346,-0.22344,0.0763,0.40978
2.50223,0,0,12.4978,12.4978,17.5022,17.5022,-1.76325,1.80749,21.0523,0.26517,0.0634603,0.270438,1,0,1,2.8875,-0.1225,-1.9075,0.257664,0.106262,-0.743346,-0.22344,0.0763,0.40978
2.50584,0,0,12.4942,12.4942,17.5058,17.5058,-1.76564,1.80775,21.0497,-0.512707,0.258577,-0.129269,1,0,1,2.2225,0.2975,-2.3975,-0.523502,0.301218,-1.13997,-0.22344,0.0763,0.40978
2.51479,0,0,12.4852,12.4852,17.5148,17.5148,-1.77185,1.80903,21.0478,-0.512729,0.258469,-0.129273,1,0,1,0.07,0.875,-1.925,-0.523502,0.301218,-1.13997,-0.22064,0.08498,0.42028
2.28927,0,0,12.7107,12.7107,17.2893,17.2893,-1.61059,1.41733,21.2611,-0.307752,-0.186197,0.128211,0,0,1,1.6625,-0.42,-1.82,-0.32452,-0.14579,-0.884744,-0.22064,0.08498,0.42028
2.06262,0,0,12.9374,12.9374,17.0626,17.0626,-1.44854,1.03445,21.4706,-0.301071,-0.183374,0.128429,0,0,1,3.29,0.07,-1.9775,-0.32452,-0.14579,-0.884744,-0.22064,0.08498,0.42028
2.06053,0,0,12.9395,12.9395,17.0605,17.0605,-1.4469,1.03463,21.4699,0.36819,-0.30132,0.00277673,1,0,1,4.445,0.21,-1.26,0.347578,-0.263642,-1.00943,-0.22064,0.08498,0.42028
2.05406,0,0,12.9459,12.9459,17.0541,17.0541,-1.44212,1.03393,21.4713,0.368202,-0.301237,0.00277905,1,0,1,6.1775,-0.3325,-0.0175,0.347578,-0.263642,-1.00943,-0.22064,0.08498,0.42028
2.04938,0,0,12.9506,12.9506,17.0494,17.0494,-1.43862,1.03405,21.4729,0.334184,-0.150471,-0.106398,1,0,1,5.46,0.14,0.07,0.313418,-0.113094,-1.11776,-0.22064,0.08498,0.42028
2.0558,0,0,12.9442,12.9442,17.0558,17.0558,-1.44306,1.03673,21.4743,0.334138,-0.150548,-0.106401,1,0,1,1.015,1.645,0.035,0.313418,-0.113094,-1.11776,-0.22064,0.08498,0.42028
2.13998,0,0,12.86,12.86,17.14,17.14,-1.50302,1.20527,21.374,0.13111,0.0629837,0.0580201,0,0,1,0.1925,1.61,-0.175,0.112484,0.10126,-0.954528,-0.22064,0.08498,0.42028
2.21596,0,0,12.784,12.784,17.216,17.216,-1.55712,1.36625,21.2767,0.128301,0.0620417,0.0579319,0,0,1,3.01,-0.9975,-0.3325,0.112484,0.10126,-0.954528,-0.22064,0.08274,0.40992
2.23673,0,0,12.7633,12.7633,17.2367,17.2367,-1.57179,1.65892,21.0794,0.260109,0.0434706,-0.0465931,0,0,1,3.3775,-0.875,-0.735,0.249978,0.08296,-1.05811,-0.22064,0.08274,0.40992
2.2589,0,0,12.7411,12.7411,17.2589,17.2589,-1.58746,1.94842,20.8819,0.255059,0.0432017,-0.0467596,0,0,1,3.0625,0.735,-1.0675,0.249978,0.08296,-1.05811,-0.22064,0.08274,0.40992
2.25508,0,0,12.7449,12.7449,17.2551,17.2551,-1.58456,1.94843,20.8817,-0.113894,-0.21529,-0.154584,1,0,1,5.145,0.105,-0.945,-0.120536,-0.175314,-1.1651,-0.22064,0.08274,0.40992
2.2561,0,0,12.7439,12.7439,17.2561,17.2561,-1.58512,1.94844,20.8815,-0.113894,-0.2153,-0.154584,1,0,1,3.2025,0.105,-0.9275,-0.120536,-0.175314,-1.1651,-0.22064,0.08274,0.40992
2.26495,0,0,12.7351,12.7351,17.2649,17.2649,-1.59127,1.95028,20.8806,-0.107123,0.11922,0.159053,1,0,1,0.0875,1.19,-1.3475,-0.113704,0.158966,-0.853878,-0.22064,0.08274,0.40992
2.27381,0,0,12.7262,12.7262,17.2738,17.2738,-1.59743,1.94886,20.8793,-0.107098,0.119113,0.159051,1,0,1,0.0875,-0.7175,-1.645,-0.113704,0.158966,-0.853878,-0.22064,0.08274,0.40992
2.75871,0,0,12.2413,12.2413,17.7587,17.7587,-1.94358,1.85387,21.0103,-0.0521088,0.347804,0.0218319,0,0,1,1.12,-1.1375,-1.6975,-0.060146,0.39345,-0.989908,-0.22064,0.08274,0.40992
3.22822,0,0,11.7718,11.7718,18.2282,18.2282,-2.2787,1.76532,21.141,-0.050564,0.34196,0.0216653,0,0,1,3.885,0.84,-0.8225,-0.060146,0.39345,-0.989908,-0.22232,0.08442,0.413
3.22393,0,0,11.7761,11.7761,18.2239,18.2239,-2.27539,1.76522,21.1418,-0.207036,0.0873831,0.13601,1,0,1,5.355,0.0175,-0.3325,-0.217282,0.13908,-0.876448,-0.22232,0.08442,0.413
3.21548,0,0,11.7845,11.7845,18.2155,18.2155,-2.26911,1.76527,21.1419,-0.207037,0.0874926,0.136014,1,0,1,7.035,0.1225,-0.805,-0.217282,0.13908,-0.876448,-0.22232,0.08442,0.413
3.3721,0,0,11.6279,11.6279,18.3721,18.3721,-2.38072,2.0104,20.9964,0.224699,0.150036,-0.0250223,0,0,1,7.8225,-0.0875,-0.385,0.220576,0.203496,-1.03602,-0.22232,0.08442,0.413
3.54319,0,0,11.4568,11.4568,18.5432,18.5432,-2.50266,2.25301,20.8495,0.220468,0.147918,-0.0252703,0,0,1,1.26,1.225,-0.8575,0.220576,0.203496,-1.03602,-0.22232,0.08442,0.413
3.54982,0,0,11.4502,11.4502,18.5498,18.5498,-2.50713,2.25331,20.8486,-0.300225,-0.210358,-0.176132,1,0,1,1.0325,0.2975,-1.3825,-0.302316,-0.15433,-1.18572,-0.22232,0.08442,0.413
3.55292,0,0,11.4471,11.4471,18.5529,18.5529,-2.50908,2.25288,20.8473,-0.300217,-0.210392,-0.176133,1,0,1,2.45,-0.1225,-1.61,-0.302316,-0.15433,-1.18572,-0.22232,0.08442,0.413
3.55693,0,0,11.4431,11.4431,18.5569,18.5569,-2.51167,2.25304,20.8471,0.439992,0.00780347,-0.00130225,1,0,1,2.065,0.1925,-0.9625,0.44103,0.063684,-1.01223,-0.22232,0.08442,0.413
3.55984,0,0,11.4402,11.4402,18.5598,18.5598,-2.51348,2.25386,20.8478,0.439978,0.007772,-0.0013042,1,0,1,2.485,0.56,-0.385,0.44103,0.063684,-1.01223,-0.21798,0.08344,0.41342
3.55924,0,0,11.4408,11.4408,18.5592,18.5592,-2.51278,2.25425,20.848,-0.0677176,0.0941278,-0.142818,1,0,1,3.9025,0.315,-0.7175,-0.068808,0.149938,-1.15266,-0.21798,0.08344,0.41342
3.56185,0,0,11.4382,11.4382,18.5618,18.5618,-2.51438,2.25557,20.8487,-0.0677408,0.0941001,-0.14282,1,0,1,2.6075,0.8575,-0.4375,-0.068808,0.149938,-1.15266,-0.21798,0.08344,0.41342
3.56255,0,0,11.4375,11.4375,18.5625,18.5625,-2.51461,2.25671,20.8498,-0.316806,-0.115107,0.191476,1,0,1,3.36,0.735,-0.175,-0.318908,-0.059048,-0.820938,-0.21798,0.08344,0.41342
3.56507,0,0,11.4349,11.4349,18.5651,18.5651,-2.51614,2.25678,20.8496,-0.316808,-0.115134,0.191475,1,0,1,2.66,0.14,-0.9275,-0.318908,-0.059048,-0.820938,-0.21798,0.08344,0.41342
3.56654,0,0,11.4335,11.4335,18.5665,18.5665,-2.51692,2.2567,20.8495,-0.524911,0.0314047,-0.0561438,1,0,1,3.08,0.0525,-0.945,-0.527894,0.087352,-1.06665,-0.21798,0.08344,0.41342
3.5678,0,0,11.4322,11.4322,18.5678,18.5678,-2.51755,2.25573,20.8509,-0.524894,0.0313938,-0.0561436,1,0,1,3.1325,-0.5075,-0.035,-0.527894,0.087352,-1.06665,-0.21798,0.08344,0.41342
3.5693,0,0,11.4307,11.4307,18.5693,18.5693,-2.51835,2.25554,20.8517,-0.316421,-0.304713,-0.0582342,1,0,1,3.045,-0.035,-0.3675,-0.318542,-0.248392,-1.06872,-0.21798,0.08344,0.41342
3.56952,0,0,11.4305,11.4305,18.5695,18.5695,-2.51824,2.25647,20.8506,-0.316438,-0.304711,-0.0582348,1,0,1,3.605,0.665,-1.47,-0.318542,-0.248392,-1.06872,-0.21798,0.08344,0.41342
3.62993,0,0,11.3701,11.3701,18.6299,18.6299,-2.56111,1.91271,21.0826,-0.254437,0.00668817,0.126742,0,0,1,3.255,0.5425,-1.3125,-0.2623,0.06344,-0.885354,-0.22316,0.0847,0.41244
3.62994,0,0,11.3701,11.3701,18.6299,18.6299,-2.56085,1.91269,21.0811,-0.141333,0.0472389,-0.156286,1,0,1,3.6925,0.1225,-1.75,-0.148718,0.103944,-1.1662,-0.22316,0.0847,0.41244
3.62619,0,0,11.3738,11.3738,18.6262,18.6262,-2.55789,1.91206,21.0788,-0.141322,0.0472904,-0.156283,1,0,1,5.215,-0.21,-2.17,-0.148718,0.103944,-1.1662,-0.22316,0.0847,0.41244
3.69861,0,0,11.3014,11.3014,18.6986,18.6986,-2.60934,1.95071,21.054,0.0370733,0.0575084,-0.0156929,0,0,1,4.1125,-0.035,-1.9425,0.03111,0.115046,-1.02663,-0.22316,0.0847,0.41244
3.77263,0,0,11.2274,11.2274,18.7726,18.7726,-2.66193,1.9876,21.03,0.0364298,0.056593,-0.0157572,0,0,1,2.9925,-0.6475,-1.505,0.03111,0.115046,-1.02663,-0.22316,0.0847,0.41244
3.77652,0,0,11.2235,11.2235,18.7765,18.7765,-2.66442,1.98879,21.0283,0.0129623,0.0784104,-0.133176,1,0,1,2.1525,0.84,-1.82,0.007564,0.136884,-1.14314,-0.22316,0.0847,0.41244
3.78519,0,0,11.2148,11.2148,18.7852,18.7852,-2.67033,1.99012,21.0289,0.0129391,0.0783075,-0.133181,1,0,1,0.1925,0.8575,-0.4725,0.007564,0.136884,-1.14314,-0.22316,0.0847,0.41244
3.00115,0,0,11.9988,11.9988,18.0012,18.0012,-2.11008,1.86714,20.9738,-0.158397,-0.628937,0.0957367,0,0,1,1.54,-0.385,0.1575,-0.166652,-0.579378,-0.916464,-0.22316,0.0847,0.41244
2.22565,0,0,12.7744,12.7744,17.2256,17.2256,-1.55598,1.74772,20.9201,-0.156314,-0.619278,0.0961116,0,0,1,2.1175,0,-0.42,-0.166652,-0.579378,-0.916464,-0.22386,0.08218,0.41762
2.09506,0,0,12.9049,12.9049,17.0951,17.0951,-1.46254,1.48955,21.0664,-0.2213,-0.119375,0.00431625,0,0,1,2.6075,0.875,0.1225,-0.236436,-0.081618,-1.00772,-0.22386,0.08218,0.41762
1.95374,0,0,13.0463,13.0463,16.9537,16.9537,-1.36146,1.2343,21.2123,-0.216846,-0.117615,0.00446557,0,0,1,7.56,-0.595,0.945,-0.236436,-0.081618,-1.00772,-0.22386,0.08218,0.41762
1.75488,0,0,13.2451,13.2451,16.7549,16.7549,-1.21928,1.53496,20.9778,0.229227,-0.111468,0.0448447,0,0,1,6.23,-0.8225,0.49,0.216794,-0.077958,-0.967582,-0.22386,0.08218,0.41762
1.57074,0,0,13.4293,13.4293,16.5707,16.5707,-1.08764,1.83229,20.7439,0.22404,-0.109169,0.0447385,0,0,1,2.135,0.9975,-0.35,0.216794,-0.077958,-0.967582,-0.22386,0.08218,0.41762
1.44444,0,0,13.5556,13.5556,16.4444,16.4444,-0.997315,1.72408,20.7846,-0.0973456,-0.106251,-0.0171403,0,0,1,1.05,1.12,-1.12,-0.107848,-0.076616,-1.02907,-0.22386,0.08218,0.41762
1.31768,0,0,13.6823,13.6823,16.3177,16.3177,-0.906675,1.61512,20.8226,-0.0954446,-0.104671,-0.0170586,0,0,1,2.03,-0.595,-2.345,-0.107848,-0.076616,-1.02907,-0.22386,0.08218,0.41762
1.31923,0,0,13.6808,13.6808,16.3192,16.3192,-0.907686,1.615,20.8198,-0.214256,0.00180614,0.149045,1,0,1,2.9925,0.0525,-2.485,-0.227164,0.029768,-0.864248,-0.22386,0.08218,0.41762
1.31804,0,0,13.682,13.682,16.318,16.318,-0.906735,1.61585,20.818,-0.21427,0.00182273,0.149044,1,0,1,4.0775,0.6125,-1.925,-0.227164,0.029768,-0.864248,-0.2219,0.07658,0.42014
1.31751,0,0,13.6825,13.6825,16.3175,16.3175,-0.906266,1.61673,20.8157,0.107408,0.0416443,-0.341274,1,0,1,3.815,0.63,-2.1875,0.095892,0.06954,-1.35078,-0.2219,0.07658,0.42014
1.31041,0,0,13.6896,13.6896,16.3104,16.3104,-0.901099,1.61591,20.8139,0.107423,0.0417344,-0.341273,1,0,1,6.44,-0.3675,-1.89,0.095892,0.06954,-1.35078,-0.2219,0.07658,0.42014
1.3106,0,0,13.6894,13.6894,16.3106,16.3106,-0.901132,1.61713,20.8126,-0.0173643,0.180714,0.172529,1,0,1,3.5175,0.8225,-1.61,-0.029402,0.208376,-0.840946,-0.2219,0.07658,0.42014
1.31579,0,0,13.6842,13.6842,16.3158,16.3158,-0.904746,1.61693,20.8126,-0.017361,0.180651,0.172528,1,0,1,1.4875,-0.0175,-0.805,-0.029402,0.208376,-0.840946,-0.2219,0.07658,0.42014
1.3185,0,0,13.6815,13.6815,16.3185,16.3185,-0.906584,1.61516,20.8126,-0.15473,0.0802307,-0.189064,1,0,1,2.485,-0.945,-0.875,-0.167384,0.108092,-1.19975,-0.2219,0.07658,0.42014
1.322,0,0,13.678,13.678,16.322,16.322,-0.908983,1.61653,20.8137,-0.154754,0.0801889,-0.189065,1,0,1,2.1525,0.8925,-0.1925,-0.167384,0.108092,-1.19975,-0.2219,0.07658,0.42014
1.32302,0,0,13.677,13.677,16.323,16.323,-0.909615,1.61653,20.8166,-0.277333,-0.174456,-0.0827146,1,0,1,3.115,0.07,0.8575,-0.290482,-0.146278,-1.09422,-0.2219,0.07658,0.42014
1.31991,0,0,13.6801,13.6801,16.3199,16.3199,-0.907297,1.61653,20.819,-0.277333,-0.174416,-0.082714,1,0,1,4.7775,0.07,0.525,-0.290482,-0.146278,-1.09422,-0.22302,0.07826,0.41776
1.31844,0,0,13.6816,13.6816,16.3184,16.3184,-0.906148,1.61729,20.8208,0.0782421,0.0396923,0.108471,1,0,1,4.13,0.525,0.2275,0.066612,0.067588,-0.904508,-0.22302,0.07826,0.41776
1.31992,0,0,13.6801,13.6801,16.3199,16.3199,-0.90711,1.61804,20.822,0.078229,0.0396755,0.10847,1,0,1,2.9575,0.525,-0.1575,0.066612,0.067588,-0.904508,-0.22302,0.07826,0.41776
0.986949,0,0,14.0131,14.0131,15.9869,15.9869,-0.669203,2.14034,20.419,0.434304,-0.213248,0.0417133,0,0,1,3.0975,-0.21,-0.5775,0.433344,-0.189222,-0.97051,-0.22302,0.07826,0.41776
0.662715,0,0,14.3373,14.3373,15.6627,15.6627,-0.43756,2.65239,20.0184,0.425375,-0.209205,0.0413787,0,0,1,2.6075,-0.21,-1.715,0.433344,-0.189222,-0.97051,-0.22302,0.07826,0.41776
0.666353,0,0,14.3336,14.3336,15.6664,15.6664,-0.440112,2.65296,20.0165,0.19515,0.00276272,-0.0864886,1,0,1,2.135,0.4375,-1.9775,0.202154,0.02257,-1.09739,-0.22302,0.07826,0.41776
0.668464,0,0,14.3315,14.3315,15.6685,15.6685,-0.441572,2.65251,20.0145,0.195157,0.00273727,-0.0864884,1,0,1,2.7475,-0.1575,-1.995,0.202154,0.02257,-1.09739,-0.22302,0.07826,0.41776
0.457986,0,0,14.542,14.542,15.458,15.458,-0.2912,2.66438,19.9566,0.00276006,-0.162321,-0.0770142,0,0,1,3.9025,-0.2975,-2.24,0.00915,-0.144936,-1.088,-0.22302,0.07826,0.41776
0.257244,0,0,14.7428,14.7428,15.2572,15.2572,-0.147797,2.67619,19.892,0.00255432,-0.159821,-0.0770142,0,0,1,1.6625,0.56,-1.96,0.00915,-0.144936,-1.088,-0.22288,0.08372,0.4137
-0.0361234,0,0,15.0361,15.0361,14.9639,14.9639,0.0617447,2.16424,20.1601,-0.398047,-0.24129,0.179713,0,0,1,1.645,0.1575,-1.61,-0.402112,-0.22997,-0.833626,-0.22288,0.08372,0.4137
-0.332951,0,0,15.333,15.333,14.667,14.667,0.273735,1.66168,20.4232,-0.38928,-0.237591,0.179995,0,0,1,4.48,-0.3325,-1.19,-0.402112,-0.22997,-0.833626,-0.22288,0.08372,0.4137
-0.120078,0,0,15.1201,15.1201,14.8799,14.8799,0.12167,1.80168,20.3521,0.123377,0.169125,0.016901,0,0,1,4.9,0.1925,-0.6825,0.115168,0.178974,-0.995398,-0.22288,0.08372,0.4137
0.0900345,0,0,14.91,14.91,15.09,15.09,-0.0284074,1.93893,20.2826,0.120982,0.166507,0.016825,0,0,1,4.69,0.1575,0.4025,0.115168,0.178974,-0.995398,-0.22288,0.08372,0.4137
0.0885654,0,0,14.9114,14.9114,15.0886,15.0886,-0.0273551,1.94041,20.284,0.355059,0.0761514,-0.135632,1,0,1,4.0775,0.9625,0,0.350262,0.088694,-1.14668,-0.22288,0.08372,0.4137
0.0905487,0,0,14.9095,14.9095,15.0905,15.0905,-0.0287687,1.94145,20.2855,0.355041,0.0761267,-0.135633,1,0,1,2.695,0.7,0,0.350262,0.088694,-1.14668,-0.22288,0.08372,0.4137
0.0910069,0,0,14.909,14.909,15.091,15.091,-0.0290928,1.9417,20.2868,0.570067,-0.319692,0.0747321,1,0,1,3.3075,0.245,-0.0525,0.566202,-0.306708,-0.937936,-0.22288,0.08372,0.4137
0.0938259,0,0,14.9062,14.9062,15.0938,15.0938,-0.0311031,1.94037,20.2863,0.57009,-0.319727,0.0747328,1,0,1,2.3975,-0.6825,-1.1375,0.566202,-0.306708,-0.937936,-0.22288,0.08372,0.4137
0.0969768,0,0,14.903,14.903,15.097,15.097,-0.0333501,1.94098,20.2853,-0.167946,-0.00235859,0.203951,1,0,1,2.275,0.455,-1.4525,-0.174948,0.01037,-0.809714,-0.22554,0.07784,0.42014
0.0964255,0,0,14.9036,14.9036,15.0964,15.0964,-0.0329528,1.94064,20.2849,-0.16794,-0.00235166,0.203952,1,0,1,3.745,-0.105,-1.0675,-0.174948,0.01037,-0.809714,-0.22554,0.07784,0.42014
0.09738,0,0,14.9026,14.9026,15.0974,15.0974,-0.033631,1.93952,20.2841,-0.306779,0.0490519,-0.164647,1,0,1,3.15,-0.56,-1.3125,-0.314394,0.061732,-1.17547,-0.22554,0.07784,0.42014
0.0983346,0,0,14.9017,14.9017,15.0983,15.0983,-0.0343092,1.9384,20.2833,-0.306759,0.04904,-0.164647,1,0,1,3.15,-0.56,-1.3125,-0.314394,0.061732,-1.17547,-0.22554,0.07784,0.42014
0.594512,0,0,14.4055,14.4055,15.5945,15.5945,-0.38868,1.48198,20.6506,-0.364399,0.330832,0.0405233,0,0,1,0.315,0.8575,-1.715,-0.380274,0.349408,-0.972096,-0.22554,0.07784,0.42014
1.08316,0,0,13.9168,13.9168,16.0832,16.0832,-0.737636,1.03479,21.0203,-0.356596,0.324742,0.0406348,0,0,1,0.315,0.8575,-1.715,-0.380274,0.349408,-0.972096,-0.22554,0.07784,0.42014
1.08139,0,0,13.9186,13.9186,16.0814,16.0814,-0.73629,1.03435,21.0203,0.10943,-0.166429,0.1701,1,0,1,4.27,-0.1575,-0.875,0.087718,-0.141276,-0.84363,-0.22554,0.07784,0.42014
1.07961,0,0,13.9204,13.9204,16.0796,16.0796,-0.734944,1.03392,21.0202,0.109438,-0.166405,0.1701,1,0,1,4.27,-0.1575,-0.875,0.087718,-0.141276,-0.84363,-0.22554,0.07784,0.42014
1.07798,0,0,13.922,13.922,16.078,16.078,-0.733701,1.03392,21.0214,0.295919,-0.148187,0.238337,1,0,1,4.2,0.0875,-0.14,0.274988,-0.123098,-0.77592,-0.22764,0.08624,0.41986
1.06692,0,0,13.9331,13.9331,16.0669,16.0669,-0.725718,1.03177,21.0225,-0.463208,-0.0840529,-0.0960803,1,0,1,7.98,-1.1725,-0.245,-0.48739,-0.05917,-1.10776,-0.22764,0.08624,0.41986
1.07118,0,0,13.9288,13.9288,16.0712,16.0712,-0.728688,1.03359,21.0237,-0.46324,-0.0841047,-0.0960815,1,0,1,1.8375,1.155,-0.105,-0.48739,-0.05917,-1.10776,-0.22764,0.08624,0.41986
1.07809,0,0,13.9219,13.9219,16.0781,16.0781,-0.733543,1.03487,21.0242,-0.319909,-0.263838,-0.101616,1,0,1,0.7875,0.84,-0.5425,-0.34343,-0.238632,-1.11325,-0.22764,0.08624,0.41986
1.08076,0,0,13.9192,13.9192,16.0808,16.0808,-0.73537,1.03364,21.0231,-0.319888,-0.26387,-0.101616,1,0,1,2.5025,-0.6125,-1.505,-0.34343,-0.238632,-1.11325,-0.22764,0.08624,0.41986
1.08438,0,0,13.9156,13.9156,16.0844,16.0844,-0.737881,1.03409,21.0221,0.213305,-0.110278,-0.0862478,1,0,1,2.1175,0.3675,-1.435,0.192028,-0.085156,-1.098,-0.22764,0.08624,0.41986
1.08115,0,0,13.9189,13.9189,16.0811,16.0811,-0.735491,1.03361,21.0229,0.213314,-0.110236,-0.0862471,1,0,1,4.8475,-0.1925,-0.42,0.192028,-0.085156,-1.098,-0.22764,0.08624,0.41986
0.906443,0,0,14.0936,14.0936,15.9064,15.9064,-0.610636,1.13392,20.9179,0.0775646,-0.122468,-0.0670747,0,0,1,4.7425,-0.0875,-1.1025,0.057462,-0.099552,-1.07897,-0.22764,0.08624,0.41986
0.73788,0,0,14.2621,14.2621,15.7379,15.7379,-0.490182,1.23336,20.8167,0.0758293,-0.120366,-0.0670904,0,0,1,3.5875,0.7,-1.505,0.057462,-0.099552,-1.07897,-0.22302,0.08456,0.41188
0.726289,0,0,14.2737,14.2737,15.7263,15.7263,-0.481851,1.68323,20.5106,0.333912,0.025478,0.134838,0,0,1,2.485,0.805,-1.3125,0.32452,0.045994,-0.8784,-0.22302,0.08456,0.41188
0.719897,0,0,14.2801,14.2801,15.7199,15.7199,-0.477234,2.12158,20.2046,0.326266,0.0255607,0.134585,0,0,1,1.155,-0.875,-1.61,0.32452,0.045994,-0.8784,-0.22302,0.08456,0.41188
0.725516,0,0,14.2745,14.2745,15.7255,15.7255,-0.481196,2.12044,20.2029,0.149767,-0.203862,0.16188,1,0,1,1.33,-0.56,-1.8725,0.147254,-0.183122,-0.851316,-0.22302,0.08456,0.41188
0.726937,0,0,14.2731,14.2731,15.7269,15.7269,-0.482159,2.1212,20.202,0.149754,-0.203879,0.161879,1,0,1,2.9925,0.5425,-1.33,0.147254,-0.183122,-0.851316,-0.22302,0.08456,0.41188
0.726587,0,0,14.2734,14.2734,15.7266,15.7266,-0.481858,2.12107,20.2025,-0.552067,-0.109836,-0.126927,1,0,1,3.675,0.0175,-0.595,-0.55754,-0.089182,-1.13789,-0.22302,0.08456,0.41188
0.719351,0,0,14.2806,14.2806,15.7194,15.7194,-0.476638,2.12093,20.2025,-0.552064,-0.109745,-0.126926,1,0,1,6.44,0.0175,-0.805,-0.55754,-0.089182,-1.13789,-0.22302,0.08456,0.41188
