pid_x,pid_y,pid_z,front_left_speed,front_right_speed,back_left_speed,back_right_speed,orientation_x,orientation_y,orientation_z,acceleration_x,acceleration_y,acceleration_z,accel_rejected,mag_rejected,gyro_x,gyro_y,gyro_z,accel_x,accel_y,accel_z,mag_x,mag_y,mag_z
-0.0232825,0,0,15.0233,15.0233,14.9767,14.9767,0.0122539,0.0659785,0.012473,0.0513742,-0.0107225,-0.00153712,0,0,3.29,0.245,-0.9275,0.012444,0.00122,-1.01419,-0.06496,0.11032,0.45542
-0.0472121,0,0,15.0472,15.0472,14.9528,14.9528,0.0248485,0.128624,0.026566,0.0487015,-0.0111133,-0.000309567,0,0,3.22,0.2275,-0.98,0.010858,0.00061,-1.01297,-0.06496,0.11032,0.45542
-0.0713385,0,0,15.0713,15.0713,14.9287,14.9287,0.0375466,0.18967,0.0407517,0.047636,-0.0113802,-0.00117329,0,0,3.115,0.1225,-0.945,0.010858,0.000122,-1.01382,-0.06496,0.11032,0.45542
-0.0956298,0,0,15.0956,15.0956,14.9044,14.9044,0.0503315,0.24948,0.0548605,0.0465922,-0.0111571,-0.00117746,0,0,3.3075,0.1925,-0.98,0.010858,0.000122,-1.01382,-0.06496,0.11032,0.45542
-0.118644,0,0,15.1186,15.1186,14.8814,14.8814,0.0624444,0.304991,0.0716759,0.0429506,-0.0107014,0.002752,0,0,3.2025,0.2625,-1.0325,0.008174,0.000366,-1.00992,-0.06496,0.11032,0.45542
-0.141076,0,0,15.1411,15.1411,14.8589,14.8589,0.0742507,0.359001,0.0884658,0.042008,-0.0104954,0.00274629,0,0,3.1675,0.105,-1.0325,0.008174,0.000366,-1.00992,-0.06496,0.11032,0.45542
-0.166503,0,0,15.1665,15.1665,14.8335,14.8335,0.0876332,0.416752,0.101179,0.0447661,-0.0118494,0.00286208,0,0,3.1675,0.21,-0.8925,0.011956,-0.00122,-1.00979,-0.06496,0.11032,0.45542
-0.191475,0,0,15.1915,15.1915,14.8085,14.8085,0.100776,0.4734,0.113757,0.0437775,-0.0116201,0.00285403,0,0,3.185,0.315,-0.9625,0.011956,-0.00122,-1.00979,-0.06496,0.11032,0.45542
-0.216361,0,0,15.2164,15.2164,14.7836,14.7836,0.113874,0.526576,0.131194,0.0410271,-0.0116357,0.0030914,0,0,3.15,0.28,-0.84,0.010126,-0.001464,-1.00955,-0.06552,0.10906,0.4522
-0.240462,0,0,15.2405,15.2405,14.7595,14.7595,0.126559,0.577014,0.150219,0.0388105,-0.0108038,0.000131691,0,0,3.4825,0.4725,-0.875,0.008784,-0.000854,-1.01248,-0.06552,0.10906,0.4522
-0.263778,0,0,15.2638,15.2638,14.7362,14.7362,0.13883,0.626572,0.169002,0.0379456,-0.0105896,0.000122111,0,0,3.395,0.6125,-0.9975,0.008784,-0.000854,-1.01248,-0.06552,0.10906,0.4522
-0.286257,0,0,15.2863,15.2863,14.7137,14.7137,0.150662,0.676468,0.186335,0.0382897,-0.00989465,0.00171002,0,0,3.5875,0.5425,-0.9625,0.010004,-0.000366,-1.01089,-0.06552,0.10906,0.4522
-0.308288,0,0,15.3083,15.3083,14.6917,14.6917,0.162257,0.725264,0.20364,0.0374381,-0.00969232,0.00169905,0,0,3.5875,0.5425,-0.9625,0.010004,-0.000366,-1.01089,-0.06552,0.10906,0.4522
-0.330904,0,0,15.3309,15.3309,14.6691,14.6691,0.17416,0.770999,0.2228,0.0354251,-0.0105838,-0.00200044,0,0,3.22,0.3675,-0.7875,0.008784,-0.001464,-1.01455,-0.06552,0.10906,0.4522
-0.353004,0,0,15.353,15.353,14.647,14.647,0.185791,0.8153,0.241803,0.0346519,-0.0103808,-0.00201178,0,0,3.2025,0.1225,-0.8575,0.008784,-0.001464,-1.01455,-0.06552,0.10906,0.4522
-0.371616,0,0,15.3716,15.3716,14.6284,14.6284,0.195587,0.859274,0.262226,0.034492,-0.00862225,-0.0028842,0,0,3.325,0.2275,-0.98,0.009394,0.000122,-1.01541,-0.063,0.10766,0.448
-0.391839,0,0,15.3918,15.3918,14.6082,14.6082,0.206231,0.904285,0.280869,0.0351643,-0.00904718,0.00202099,0,0,3.4825,0.1575,-0.875,0.010858,-0.000488,-1.01053,-0.063,0.10766,0.448
-0.411659,0,0,15.4117,15.4117,14.5883,14.5883,0.216663,0.948309,0.299479,0.034396,-0.00886519,0.0020079,0,0,3.4825,0.1575,-0.875,0.010858,-0.000488,-1.01053,-0.063,0.10766,0.448
-0.384259,0,0,15.3843,15.3843,14.6157,14.6157,0.202241,1.11922,0.198387,0.145367,0.0122551,-0.0452572,0,0,3.0275,-0.0875,-0.8925,0.125294,0.020862,-1.05737,-0.063,0.10766,0.448
-0.357361,0,0,15.3574,15.3574,14.6426,14.6426,0.188085,1.28647,0.0974178,0.142449,0.0120079,-0.0453177,0,0,3.0275,-0.0875,-0.8925,0.125294,0.020862,-1.05737,-0.063,0.10766,0.448
-0.350908,0,0,15.3509,15.3509,14.6491,14.6491,0.184689,1.23524,0.195111,-0.0409511,0.00254496,-0.0167737,0,0,3.22,0.14,-0.9975,-0.05978,0.011468,-1.02907,-0.063,0.10766,0.448
-0.378854,0,0,15.3789,15.3789,14.6211,14.6211,0.199397,1.24046,0.242796,0.00366442,-0.0128306,-0.00644889,0,0,3.4125,0.21,-1.12,-0.014884,-0.004148,-1.01882,-0.063,0.10766,0.448
-0.40583,0,0,15.4058,15.4058,14.5942,14.5942,0.213595,1.24535,0.290547,0.00357909,-0.0125829,-0.00645164,0,0,3.29,0.0875,-1.015,-0.014884,-0.004148,-1.01882,-0.063,0.10766,0.448
-0.40338,0,0,15.4034,15.4034,14.5966,14.5966,0.212305,1.37101,0.222243,0.0954164,0.00107262,0.0389893,0,0,3.3425,0.0525,-0.9625,0.079544,0.009516,-0.973682,-0.06748,0.1106,0.45164
-0.40559,0,0,15.4056,15.4056,14.5944,14.5944,0.213469,1.25679,0.370882,-0.0890711,-0.000616691,0.02465,0,0,3.71,0.2625,-0.8925,-0.107726,0.007808,-0.987956,-0.06748,0.1106,0.45164
-0.407186,0,0,15.4072,15.4072,14.5928,14.5928,0.214309,1.1448,0.519261,-0.0871169,-0.000601881,0.0246909,0,0,3.5525,0.105,-0.8575,-0.107726,0.007808,-0.987956,-0.06748,0.1106,0.45164
-0.462201,0,0,15.4622,15.4622,14.5378,14.5378,0.243264,1.27269,0.451969,0.102113,-0.0251328,-0.00744777,0,0,3.6225,0.0175,-0.9275,0.084546,-0.017202,-1.0198,-0.06748,0.1106,0.45164
-0.51586,0,0,15.5159,15.5159,14.4841,14.4841,0.271505,1.39804,0.384907,0.0999258,-0.0246403,-0.00750097,0,0,3.5525,0.175,-0.9275,0.084546,-0.017202,-1.0198,-0.06748,0.1106,0.45164
-0.492597,0,0,15.4926,15.4926,14.5074,14.5074,0.259262,1.2966,0.52018,-0.0816262,0.0108073,-0.024917,0,0,3.5525,0.2275,-0.91,-0.099552,0.018422,-1.03712,-0.06748,0.1106,0.45164
-0.469351,0,0,15.4694,15.4694,14.5306,14.5306,0.247027,1.19735,0.655159,-0.0798943,0.010594,-0.0248784,0,0,3.43,0.21,-0.945,-0.099552,0.018422,-1.03712,-0.06748,0.1106,0.45164
-0.494191,0,0,15.4942,15.4942,14.5058,14.5058,0.2601,1.30509,0.604275,0.0915857,-0.0117715,-0.0566412,0,0,3.71,0.14,-0.9625,0.074542,-0.004148,-1.0686,-0.06748,0.1106,0.45164
-0.518111,0,0,15.5181,15.5181,14.4819,14.4819,0.27269,1.41015,0.559962,0.0897526,-0.0115521,-0.0566856,0,0,3.5875,0.2975,-0.8225,0.074542,-0.004148,-1.0686,-0.06412,0.1064,0.4592
-0.69852,0,0,15.6985,15.6985,14.3015,14.3015,0.367642,1.35659,0.663229,-0.0440404,-0.0734011,0.0998411,0,0,3.7275,0.1575,-0.84,-0.060756,-0.067588,-0.913292,-0.06412,0.1064,0.4592
-0.874432,0,0,15.8744,15.8744,14.1256,14.1256,0.460227,1.30416,0.765848,-0.0431256,-0.0717855,0.0998507,0,0,3.465,0.1925,-0.9275,-0.060756,-0.067588,-0.913292,-0.06412,0.1064,0.4592
-0.776852,0,0,15.7769,15.7769,14.2231,14.2231,0.40887,1.32709,0.79243,0.0249923,0.0483459,-0.102525,0,0,3.3425,-0.105,-0.9975,0.008052,0.053314,-1.1141,-0.06412,0.1064,0.4592
-0.776499,0,0,15.7765,15.7765,14.2235,14.2235,0.408684,1.32722,0.792424,0.0249899,0.0483427,-0.102525,1,0,3.325,0.21,-0.9625,0.008052,0.053314,-1.1141,-0.06412,0.1064,0.4592
-0.776324,0,0,15.7763,15.7763,14.2237,14.2237,0.408591,1.32733,0.792418,-0.059809,-0.124468,0.16206,1,0,3.3775,0.1925,-0.9625,-0.077104,-0.119316,-0.85156,-0.06412,0.1064,0.4592
-0.776213,0,0,15.7762,15.7762,14.2238,14.2238,0.408533,1.32756,0.792532,-0.0598129,-0.124469,0.16206,1,0,3.395,0.2625,-0.8925,-0.077104,-0.119316,-0.85156,-0.06412,0.1064,0.4592
-0.776624,0,0,15.7766,15.7766,14.2234,14.2234,0.408749,1.32796,0.792378,0.0326306,0.0979273,-0.124656,1,0,3.5525,0.3675,-1.05,0.015738,0.102846,-1.13606,-0.06412,0.1064,0.4592
-0.777035,0,0,15.777,15.777,14.223,14.223,0.408966,1.32837,0.792223,0.0326235,0.097931,-0.124656,1,0,3.5525,0.3675,-1.05,0.015738,0.102846,-1.13606,-0.06748,0.10766,0.46368
-0.776858,0,0,15.7769,15.7769,14.2231,14.2231,0.408873,1.32881,0.792189,0.0130567,-0.160002,0.135011,1,0,3.3775,0.385,-0.98,-0.003904,-0.154818,-0.8784,-0.06748,0.10766,0.46368
-0.776682,0,0,15.7767,15.7767,14.2233,14.2233,0.40878,1.32924,0.792155,0.0130491,-0.160004,0.135011,1,0,3.3775,0.385,-0.98,-0.003904,-0.154818,-0.8784,-0.06748,0.10766,0.46368
-0.483941,0,0,15.4839,15.4839,14.5161,14.5161,0.254706,1.40301,0.757423,0.0797938,0.147021,-0.0852052,0,0,3.3425,-4.48,-0.98,0.064416,0.154574,-1.0969,-0.06748,0.10766,0.46368
-0.196912,0,0,15.1969,15.1969,14.8031,14.8031,0.103638,1.47531,0.722567,0.0785324,0.144385,-0.0852286,0,0,3.3425,-4.48,-0.98,0.064416,0.154574,-1.0969,-0.06748,0.10766,0.46368
-0.474531,0,0,15.4745,15.4745,14.5255,14.5255,0.249753,1.54502,0.71173,0.0491315,-0.125164,0.025631,0,0,3.535,0.385,-0.875,0.036112,-0.117242,-0.986858,-0.06748,0.10766,0.46368
-0.579443,0,0,15.5794,15.5794,14.4206,14.4206,0.30497,1.42512,0.868412,-0.0810745,-0.0359027,0.237029,0,0,3.3425,0.5075,-0.84,-0.096746,-0.029036,-0.77714,-0.06748,0.10766,0.46368
-0.579879,0,0,15.5799,15.5799,14.4201,14.4201,0.3052,1.42544,0.868796,-0.08108,-0.0358987,0.237029,1,0,3.5525,0.315,-0.735,-0.096746,-0.029036,-0.77714,-0.06748,0.10766,0.46368
-0.579841,0,0,15.5798,15.5798,14.4202,14.4202,0.305179,1.4256,0.86918,0.200035,0.0434833,-0.250093,1,0,3.4125,0.2275,-0.735,0.185562,0.050264,-1.2605,-0.07028,0.10948,0.455
-0.579975,0,0,15.58,15.58,14.42,14.42,0.30525,1.42589,0.869444,0.20003,0.0434845,-0.250093,1,0,3.465,0.2975,-0.805,0.185562,0.050264,-1.2605,-0.07028,0.10948,0.455
-0.580518,0,0,15.5805,15.5805,14.4195,14.4195,0.305536,1.42602,0.869587,-0.157505,-0.118084,0.289282,1,0,3.5875,0.21,-0.875,-0.173484,-0.111142,-0.72529,-0.07028,0.10948,0.455
-0.581061,0,0,15.5811,15.5811,14.4189,14.4189,0.305822,1.42616,0.869731,-0.157507,-0.118079,0.289282,1,0,3.5875,0.21,-0.875,-0.173484,-0.111142,-0.72529,-0.07028,0.10948,0.455
-0.581548,0,0,15.5815,15.5815,14.4185,14.4185,0.306078,1.42603,0.869933,0.174273,0.125568,-0.302961,1,0,3.57,0.0525,-0.84,0.159698,0.132248,-1.31296,-0.07028,0.10948,0.455
-0.582035,0,0,15.582,15.582,14.418,14.418,0.306334,1.42589,0.870135,0.174275,0.125573,-0.302961,1,0,3.57,0.0525,-0.84,0.159698,0.132248,-1.31296,-0.07028,0.10948,0.455
-0.581264,0,0,15.5813,15.5813,14.4187,14.4187,0.305928,1.42588,0.870068,-0.197714,-0.168516,0.311167,1,0,3.2025,0.1225,-0.9975,-0.213866,-0.161528,-0.703574,-0.07028,0.10948,0.455
-0.580492,0,0,15.5805,15.5805,14.4195,14.4195,0.305522,1.42587,0.87,-0.197714,-0.168523,0.311167,1,0,3.2025,0.1225,-0.9975,-0.213866,-0.161528,-0.703574,-0.07028,0.10948,0.455
-0.581143,0,0,15.5811,15.5811,14.4189,14.4189,0.305865,1.42616,0.869905,0.234527,0.227296,-0.214193,1,0,3.6225,0.2975,-1.015,0.22021,0.233874,-1.22488,-0.07028,0.10864,0.45934
-0.582083,0,0,15.5821,15.5821,14.4179,14.4179,0.306359,1.42617,0.869658,0.122031,-0.0948657,-0.156899,1,0,3.71,0.14,-1.1025,0.107238,-0.087962,-1.16803,-0.07028,0.10864,0.45934
-0.582194,0,0,15.5822,15.5822,14.4178,14.4178,0.306418,1.42589,0.869439,0.122036,-0.0948647,-0.156898,1,0,3.465,-0.035,-1.085,0.107238,-0.087962,-1.16803,-0.07028,0.10864,0.45934
-0.582486,0,0,15.5825,15.5825,14.4175,14.4175,0.306571,1.42567,0.86928,-0.139519,0.0174946,0.326412,1,0,3.5175,0,-1.05,-0.155428,0.024278,-0.688446,-0.07028,0.10864,0.45934
-0.582886,0,0,15.5829,15.5829,14.4171,14.4171,0.306782,1.42599,0.868915,-0.139524,0.0174983,0.326412,1,0,3.5525,0.315,-1.1725,-0.155428,0.024278,-0.688446,-0.07028,0.10864,0.45934
-0.582871,0,0,15.5829,15.5829,14.4171,14.4171,0.306774,1.42622,0.868519,0.228938,0.0105369,-0.289191,1,0,3.43,0.2625,-1.19,0.214598,0.017324,-1.2993,-0.07028,0.10864,0.45934
-0.583223,0,0,15.5832,15.5832,14.4168,14.4168,0.30696,1.42648,0.868393,0.228933,0.0105401,-0.289191,1,0,3.535,0.28,-1.0325,0.214598,0.017324,-1.2993,-0.07028,0.10864,0.45934
-0.583995,0,0,15.584,15.584,14.416,14.416,0.307366,1.42674,0.868357,-0.209635,-0.101931,0.424525,1,0,3.6575,0.28,-0.98,-0.225822,-0.095038,-0.59109,-0.07028,0.10864,0.45934
-0.584291,0,0,15.5843,15.5843,14.4157,14.4157,0.307522,1.42645,0.868288,-0.20963,-0.101929,0.424525,1,0,3.5175,-0.035,-0.9975,-0.225822,-0.095038,-0.59109,-0.06356,0.11144,0.45752
-0.584648,0,0,15.5846,15.5846,14.4154,14.4154,0.30771,1.4265,0.868251,0.286153,0.131092,-0.438328,1,0,3.535,0.1575,-0.98,0.27206,0.137738,-1.44729,-0.06356,0.11144,0.45752
-0.585586,0,0,15.5856,15.5856,14.4144,14.4144,0.308203,1.42688,0.867946,0.286146,0.131101,-0.438328,1,0,3.71,0.35,-1.1375,0.27206,0.137738,-1.44729,-0.06356,0.11144,0.45752
-0.586413,0,0,15.5864,15.5864,14.4136,14.4136,0.308638,1.42711,0.86782,-0.325052,-0.204007,0.408049,1,0,3.675,0.2625,-1.0325,-0.341722,-0.19703,-0.607438,-0.06356,0.11144,0.45752
-0.587118,0,0,15.5871,15.5871,14.4129,14.4129,0.30901,1.42707,0.867633,-0.325052,-0.204001,0.408049,1,0,3.64,0.105,-1.0675,-0.341722,-0.19703,-0.607438,-0.06356,0.11144,0.45752
-0.588714,0,0,15.5887,15.5887,14.4113,14.4113,0.309849,1.42705,0.867445,0.232811,0.157509,-0.427263,1,0,3.9025,0.1225,-1.0675,0.218502,0.16409,-1.43631,-0.06356,0.11144,0.45752
-0.588593,0,0,15.5886,15.5886,14.4114,14.4114,0.309786,1.42668,0.867346,0.232817,0.157508,-0.427263,1,0,3.395,-0.0875,-1.015,0.218502,0.16409,-1.43631,-0.06356,0.11144,0.45752
-0.587947,0,0,15.5879,15.5879,14.4121,14.4121,0.309446,1.4264,0.867427,-0.150951,-0.131816,0.286699,1,0,3.2375,-0.035,-0.91,-0.166896,-0.124928,-0.727852,-0.06356,0.11144,0.45752
-0.587608,0,0,15.5876,15.5876,14.4124,14.4124,0.309267,1.42615,0.867719,-0.150947,-0.131819,0.286699,1,0,3.325,-0.0175,-0.7875,-0.166896,-0.124928,-0.727852,-0.06356,0.11144,0.45752
-0.586793,0,0,15.5868,15.5868,14.4132,14.4132,0.308838,1.42602,0.867981,0.137706,0.104733,-0.282306,1,0,3.185,0.0525,-0.805,0.122976,0.111386,-1.29247,-0.06636,0.112,0.45108
-0.863576,0,0,15.8636,15.8636,14.1364,14.1364,0.454514,1.31739,1.0116,-0.0952309,-0.134658,-0.0282661,0,0,3.1325,0.2975,-0.7875,-0.11285,-0.130296,-1.04042,-0.06636,0.112,0.45108
-1.13548,0,0,16.1355,16.1355,13.8645,13.8645,0.597623,1.21118,1.15427,-0.0933776,-0.132161,-0.0282482,0,0,3.29,0.42,-0.77,-0.11285,-0.130296,-1.04042,-0.06636,0.112,0.45108
-1.13533,0,0,16.1353,16.1353,13.8647,13.8647,0.597543,1.21134,1.1548,0.214829,0.0913295,0.230435,1,0,3.3775,0.2275,-0.6475,0.196664,0.092964,-0.783728,-0.06636,0.112,0.45108
-1.13528,0,0,16.1353,16.1353,13.8647,13.8647,0.597517,1.21148,1.155,0.214826,0.0913291,0.230435,1,0,3.4125,0.21,-0.84,0.196664,0.092964,-0.783728,-0.06636,0.112,0.45108
-1.13577,0,0,16.1358,16.1358,13.8642,13.8642,0.597772,1.21173,1.15518,-0.0750429,-0.138021,-0.181073,1,0,3.57,0.28,-0.8575,-0.094428,-0.136152,-1.19206,-0.06636,0.112,0.45108
-1.13624,0,0,16.1362,16.1362,13.8638,13.8638,0.598023,1.2119,1.15517,-0.0750458,-0.138016,-0.181073,1,0,3.57,0.2275,-0.9625,-0.094428,-0.136152,-1.19206,-0.06636,0.112,0.45108
-1.13708,0,0,16.1371,16.1371,13.8629,13.8629,0.598461,1.21192,1.15514,0.0608964,0.113328,0.218386,1,0,3.675,0.14,-0.98,0.04209,0.114924,-0.795684,-0.06636,0.112,0.45108
-1.13697,0,0,16.137,16.137,13.863,13.863,0.598405,1.21205,1.1554,0.060894,0.113327,0.218386,1,0,3.395,0.21,-0.805,0.04209,0.114924,-0.795684,-0.0644,0.11102,0.45808
-1.13644,0,0,16.1364,16.1364,13.8636,13.8636,0.598126,1.21219,1.15543,0.0580975,-0.0681578,-0.269842,1,0,3.2725,0.21,-0.945,0.039284,-0.066368,-1.28015,-0.0644,0.11102,0.45808
-1.13597,0,0,16.136,16.136,13.864,13.864,0.59788,1.21244,1.15551,0.058093,-0.0681621,-0.269842,1,0,3.29,0.28,-0.91,0.039284,-0.066368,-1.28015,-0.0644,0.11102,0.45808
-1.13651,0,0,16.1365,16.1365,13.8635,13.8635,0.598165,1.21264,1.15563,-0.0863569,0.0559236,0.296212,1,0,3.5875,0.245,-0.8925,-0.105774,0.057584,-0.718458,-0.0644,0.11102,0.45808
-1.13634,0,0,16.1363,16.1363,13.8637,13.8637,0.598075,1.21268,1.15574,-0.0863577,0.055922,0.296212,1,0,3.3775,0.1575,-0.8925,-0.105774,0.057584,-0.718458,-0.0644,0.11102,0.45808
-1.13646,0,0,16.1365,16.1365,13.8635,13.8635,0.598136,1.21294,1.15558,0.332642,0.063495,-0.331809,1,0,3.465,0.28,-1.05,0.315004,0.065148,-1.34163,-0.0644,0.11102,0.45808
-1.13645,0,0,16.1364,16.1364,13.8636,13.8636,0.598129,1.2132,1.15522,0.332637,0.0634949,-0.331809,1,0,3.43,0.28,-1.1725,0.315004,0.065148,-1.34163,-0.0644,0.11102,0.45808
-1.13703,0,0,16.137,16.137,13.863,13.863,0.598437,1.21319,1.15494,-0.308321,-0.163656,0.292647,1,0,3.605,0.1225,-1.12,-0.328668,-0.161772,-0.721996,-0.0644,0.11102,0.45808
-1.1378,0,0,16.1378,16.1378,13.8622,13.8622,0.598842,1.21321,1.15482,-0.308321,-0.163648,0.292646,1,0,3.6575,0.14,-1.0325,-0.328668,-0.161772,-0.721996,-0.06118,0.11032,0.45976
-1.1385,0,0,16.1385,16.1385,13.8615,13.8615,0.599211,1.21314,1.15451,0.366654,0.235224,-0.168656,1,0,3.64,0.0875,-1.1375,0.349164,0.23668,-1.17974,-0.06118,0.11032,0.45976
-1.1392,0,0,16.1392,16.1392,13.8608,13.8608,0.599578,1.21317,1.15405,0.366654,0.23523,-0.168656,1,0,3.64,0.14,-1.225,0.349164,0.23668,-1.17974,-0.06118,0.11032,0.45976
-1.83294,0,0,16.8329,16.8329,13.1671,13.1671,0.964708,0.832451,1.55232,-0.331076,-0.331782,0.0949768,0,0,3.3775,0.2625,-1.2775,-0.358192,-0.33611,-0.918172,-0.06118,0.11032,0.45976
-2.51466,0,0,17.5147,17.5147,12.4853,12.4853,1.3235,0.458829,1.94503,-0.324556,-0.32552,0.0949252,0,0,3.4475,0.2975,-1.12,-0.358192,-0.33611,-0.918172,-0.06118,0.11032,0.45976
-1.73992,0,0,16.7399,16.7399,13.2601,13.2601,0.915749,0.766284,1.70532,0.282731,0.385713,0.0522208,0,0,3.4825,0.21,-1.2775,0.257054,0.381494,-0.960628,-0.06118,0.11032,0.45976
-0.978879,0,0,15.9789,15.9789,14.0211,14.0211,0.5152,1.06843,1.46281,0.277458,0.378723,0.0522237,0,0,3.5875,0.315,-0.9625,0.257054,0.381494,-0.960628,-0.06118,0.11032,0.45976
-0.978763,0,0,15.9788,15.9788,14.0212,14.0212,0.515139,1.06866,1.46281,-0.181519,-0.328392,-0.233632,1,0,3.395,0.2625,-0.9625,-0.203862,-0.324886,-1.24428,-0.06118,0.11032,0.45976
-0.978541,0,0,15.9785,15.9785,14.0215,14.0215,0.515021,1.06885,1.46313,-0.181522,-0.328394,-0.233632,1,0,3.36,0.245,-0.77,-0.203862,-0.324886,-1.24428,-0.06552,0.1099,0.45598
-0.978434,0,0,15.9784,15.9784,14.0216,14.0216,0.514965,1.06902,1.46339,0.0545215,0.296283,0.338694,1,0,3.395,0.2275,-0.805,0.033184,0.299144,-0.676368,-0.06552,0.1099,0.45598
-0.977901,0,0,15.9779,15.9779,14.0221,14.0221,0.514685,1.06889,1.46333,0.0545238,0.296278,0.338694,1,0,3.2725,0.0525,-0.9975,0.033184,0.299144,-0.676368,-0.06552,0.1099,0.45598
-0.976956,0,0,15.977,15.977,14.023,14.023,0.514188,1.06869,1.46338,0.164107,-0.174651,-0.340597,1,0,3.15,0.0175,-0.9275,0.143228,-0.171288,-1.35042,-0.06552,0.1099,0.45598
-0.976549,0,0,15.9765,15.9765,14.0235,14.0235,0.513973,1.06865,1.46352,0.164108,-0.174655,-0.340597,1,0,3.3075,0.105,-0.875,0.143228,-0.171288,-1.35042,-0.06552,0.1099,0.45598
-0.976622,0,0,15.9766,15.9766,14.0234,14.0234,0.514011,1.0687,1.46381,-0.151391,-0.0190646,0.473076,1,0,3.4475,0.1575,-0.7875,-0.173606,-0.01586,-0.543022,-0.06552,0.1099,0.45598
-0.976924,0,0,15.9769,15.9769,14.0231,14.0231,0.51417,1.06871,1.46389,-0.151391,-0.0190618,0.473076,1,0,3.5175,0.14,-0.91,-0.173606,-0.01586,-0.543022,-0.06552,0.1099,0.45598
-0.977284,0,0,15.9773,15.9773,14.0227,14.0227,0.51436,1.06867,1.46395,0.43988,0.0841386,-0.4033,1,0,3.535,0.105,-0.9275,0.420168,0.08723,-1.41264,-0.06552,0.1099,0.45598
-0.977811,0,0,15.9778,15.9778,14.0222,14.0222,0.514637,1.06902,1.46367,0.439874,0.0841434,-0.403301,1,0,3.5875,0.3325,-1.12,0.420168,0.08723,-1.41264,-0.06552,0.11424,0.45836
-0.979111,0,0,15.9791,15.9791,14.0209,14.0209,0.515322,1.06916,1.46346,-0.467626,-0.262685,0.396602,1,0,3.815,0.21,-1.085,-0.491172,-0.25925,-0.618906,-0.06552,0.11424,0.45836
-0.980238,0,0,15.9802,15.9802,14.0198,14.0198,0.515915,1.06897,1.46339,-0.467623,-0.262674,0.396602,1,0,3.7625,0.0175,-0.9975,-0.491172,-0.25925,-0.618906,-0.06552,0.11424,0.45836
-0.980358,0,0,15.9804,15.9804,14.0196,14.0196,0.515978,1.06848,1.46335,0.496496,0.269555,-0.254779,1,0,3.465,-0.1575,-0.98,0.47702,0.272426,-1.26526,-0.06552,0.11424,0.45836
-0.979944,0,0,15.9799,15.9799,14.0201,14.0201,0.51576,1.06876,1.46328,0.496491,0.269551,-0.254779,1,0,3.3075,0.2975,-0.9975,0.47702,0.272426,-1.26526,-0.06552,0.11424,0.45836
-1.58264,0,0,16.5826,16.5826,13.4174,13.4174,0.832966,0.602167,1.92896,-0.409182,-0.297686,0.0900222,0,0,3.3425,0.3675,-0.9975,-0.440664,-0.299754,-0.923174,-0.06552,0.11424,0.45836
-2.17467,0,0,17.1747,17.1747,12.8253,12.8253,1.14456,0.143952,2.38846,-0.401185,-0.292248,0.0899805,0,0,3.325,0.2275,-0.945,-0.440664,-0.299754,-0.923174,-0.06552,0.11424,0.45836
-1.47658,0,0,16.4766,16.4766,13.5234,13.5234,0.777148,0.533762,2.08046,0.363689,0.359847,0.0350898,0,0,3.29,0.2275,-0.9275,0.33428,0.35807,-0.977708,-0.06552,0.11424,0.45836
-0.790573,0,0,15.7906,15.7906,14.2094,14.2094,0.416091,0.916403,1.76825,0.357011,0.353546,0.0350709,0,0,3.4125,0.07,-1.1025,0.33428,0.35807,-0.977708,-0.06552,0.11424,0.45836
-0.790389,0,0,15.7904,15.7904,14.2096,14.2096,0.415994,0.916184,1.76797,-0.167924,-0.294949,-0.242301,1,0,3.3775,0,-1.12,-0.192882,-0.28975,-1.25294,-0.0686,0.11382,0.45612
-0.790094,0,0,15.7901,15.7901,14.2099,14.2099,0.415839,0.915933,1.76793,-0.338607,-0.0717042,0.394941,1,0,3.3425,-0.0175,-0.98,-0.364292,-0.066734,-0.620614,-0.0686,0.11382,0.45612
-0.79004,0,0,15.79,15.79,14.21,14.21,0.41581,0.91601,1.76799,-0.338609,-0.0717047,0.394941,1,0,3.4125,0.175,-0.9275,-0.364292,-0.066734,-0.620614,-0.0686,0.11382,0.45612
-0.790096,0,0,15.7901,15.7901,14.2099,14.2099,0.41584,0.916148,1.7678,0.433187,0.0991511,-0.221645,1,0,3.4475,0.21,-1.0675,0.410774,0.103944,-1.23244,-0.0686,0.11382,0.45612
-0.790086,0,0,15.7901,15.7901,14.2099,14.2099,0.415835,0.916199,1.76737,0.433186,0.099151,-0.221645,1,0,3.43,0.1575,-1.2075,0.410774,0.103944,-1.23244,-0.0686,0.11382,0.45612
-1.37846,0,0,16.3785,16.3785,13.6215,13.6215,0.725504,0.438369,2.24252,-0.36356,-0.250833,0.21585,0,0,3.3775,0.105,-1.085,-0.39772,-0.251076,-0.798368,-0.0686,0.11382,0.45612
-1.95578,0,0,16.9558,16.9558,13.0442,13.0442,1.02936,-0.0306632,2.71156,-0.355374,-0.24553,0.215798,0,0,3.15,0.105,-0.9625,-0.39772,-0.251076,-0.798368,-0.0686,0.11382,0.45612
-1.95472,0,0,16.9547,16.9547,13.0453,13.0453,1.0288,-0.0302567,2.71153,0.44934,0.287666,-0.0661228,1,0,3.115,0.3675,-0.98,0.410408,0.281576,-1.07811,-0.0686,0.11382,0.45612
-1.95478,0,0,16.9548,16.9548,13.0452,13.0452,1.02883,-0.0302064,2.71138,0.449339,0.287666,-0.0661228,1,0,3.4475,0.1575,-1.05,0.410408,0.281576,-1.07811,-0.06496,0.11298,0.45682
-2.50552,0,0,17.5055,17.5055,12.4945,12.4945,1.31869,-0.392552,3.09154,-0.339825,-0.288722,0.00604396,0,0,3.4125,0.0525,-1.1025,-0.388448,-0.299266,-1.00638,-0.06496,0.11298,0.45682
-3.04761,0,0,18.0476,18.0476,11.9524,11.9524,1.60401,-0.747895,3.46732,-0.333623,-0.283745,0.00585527,0,0,3.745,0.14,-0.9275,-0.388448,-0.299266,-1.00638,-0.06496,0.11298,0.45682
-2.37465,0,0,17.3747,17.3747,12.6253,12.6253,1.24982,-0.420188,3.24056,0.275861,0.308742,0.127049,0,0,3.5525,0.1225,-0.98,0.22936,0.298778,-0.88633,-0.06496,0.11298,0.45682
-1.71326,0,0,16.7133,16.7133,13.2867,13.2867,0.901717,-0.0984104,3.01096,0.270245,0.302668,0.127188,0,0,3.5175,0.0525,-0.84,0.22936,0.298778,-0.88633,-0.06496,0.11298,0.45682
-1.71338,0,0,16.7134,16.7134,13.2866,13.2866,0.901781,-0.0986004,3.01086,-0.0317653,-0.248611,-0.168011,1,0,3.465,0.0175,-1.015,-0.073932,-0.25193,-1.17925,-0.06496,0.11298,0.45682
-1.71357,0,0,16.7136,16.7136,13.2864,13.2864,0.901876,-0.0986102,3.0107,-0.0317651,-0.248609,-0.168011,1,0,3.4825,0.1225,-1.05,-0.073932,-0.25193,-1.17925,-0.06496,0.11298,0.45682
-1.7141,0,0,16.7141,16.7141,13.2859,13.2859,0.902159,-0.0985906,3.01058,0.105149,0.166504,0.276571,1,0,3.5875,0.14,-1.0325,0.063562,0.162748,-0.7381,-0.06496,0.11298,0.45682
-1.7141,0,0,16.7141,16.7141,13.2859,13.2859,0.90216,-0.0988735,3.01068,0.105154,0.166504,0.276571,1,0,3.43,-0.035,-0.8925,0.063562,0.162748,-0.7381,-0.06314,0.1113,0.45276
-1.71375,0,0,16.7138,16.7138,13.2862,13.2862,0.901974,-0.0990658,3.01073,0.184366,-0.0728672,-0.31014,1,0,3.325,0.0175,-0.9275,0.143106,-0.076372,-1.32028,-0.06314,0.1113,0.45276
-1.71459,0,0,16.7146,16.7146,13.2854,13.2854,0.902413,-0.0994345,3.0106,0.184372,-0.0728596,-0.31014,1,0,3.675,-0.0875,-1.0325,0.143106,-0.076372,-1.32028,-0.06314,0.1113,0.45276
-1.71554,0,0,16.7155,16.7155,13.2845,13.2845,0.902914,-0.0995951,3.01053,-0.214827,0.0515963,0.244973,1,0,3.71,0.035,-0.9975,-0.257786,0.047946,-0.769454,-0.06314,0.1113,0.45276
-1.71679,0,0,16.7168,16.7168,13.2832,13.2832,0.903571,-0.0996058,3.01043,-0.214827,0.0516078,0.244972,1,0,3.7975,0.1225,-1.015,-0.257786,0.047946,-0.769454,-0.06314,0.1113,0.45276
-1.7175,0,0,16.7175,16.7175,13.2825,13.2825,0.903948,-0.0996734,3.01015,0.352027,0.0612624,-0.274485,1,0,3.64,0.0875,-1.12,0.311466,0.057584,-1.2849,-0.06314,0.1113,0.45276
-1.71822,0,0,16.7182,16.7182,13.2818,13.2818,0.904324,-0.0997411,3.00988,0.352028,0.061269,-0.274485,1,0,3.64,0.0875,-1.12,0.311466,0.057584,-1.2849,-0.06314,0.1113,0.45276
-1.71751,0,0,16.7175,16.7175,13.2825,13.2825,0.903951,-0.0995162,3.00999,-0.335342,-0.0633068,0.194932,1,0,3.22,0.2625,-0.8925,-0.37881,-0.066856,-0.819108,-0.06314,0.1113,0.45276
-1.7168,0,0,16.7168,16.7168,13.2832,13.2832,0.903578,-0.0992913,3.01011,-0.335346,-0.0633133,0.194932,1,0,3.22,0.2625,-0.8925,-0.37881,-0.066856,-0.819108,-0.0623,0.11242,0.45822
-1.71692,0,0,16.7169,16.7169,13.2831,13.2831,0.903642,-0.0994244,3.01019,0.354209,0.124641,-0.0758003,1,0,3.465,0.0525,-0.91,0.313662,0.120902,-1.08775,-0.0623,0.11242,0.45822
-1.71704,0,0,16.717,16.717,13.283,13.283,0.903705,-0.0995574,3.01027,0.354211,0.124642,-0.0758003,1,0,3.465,0.0525,-0.91,0.313662,0.120902,-1.08775,-0.0623,0.11242,0.45822
-1.98521,0,0,16.9852,16.9852,13.0148,13.0148,1.04485,-0.415458,3.35391,-0.253899,-0.121301,0.0982281,0,0,3.465,0.1925,-0.8925,-0.30256,-0.127246,-0.915,-0.0623,0.11242,0.45822
-2.2484,0,0,17.2484,17.2484,12.7516,12.7516,1.18337,-0.725156,3.69514,-0.248494,-0.118885,0.0981273,0,0,3.465,0.1925,-0.8925,-0.30256,-0.127246,-0.915,-0.0623,0.11242,0.45822
-2.00827,0,0,17.0083,17.0083,12.9917,12.9917,1.05699,-0.373161,3.44533,0.306626,0.11889,0.0212636,0,0,3.3425,0.07,-0.9975,0.26108,0.112484,-0.991372,-0.0623,0.11242,0.45822
-2.00881,0,0,17.0088,17.0088,12.9912,12.9912,1.05727,-0.373172,3.44526,0.220858,-0.0620972,-0.122463,1,0,3.5875,0.1225,-0.9975,0.174948,-0.06832,-1.13399,-0.0623,0.11242,0.45822
-2.00935,0,0,17.0093,17.0093,12.9907,12.9907,1.05755,-0.372852,3.44508,0.220852,-0.0620923,-0.122463,1,0,3.5875,0.315,-1.0675,0.174948,-0.06832,-1.13399,-0.0623,0.11242,0.45822
-2.00959,0,0,17.0096,17.0096,12.9904,12.9904,1.05768,-0.372834,3.44504,-0.0688916,-0.00737728,0.110893,1,0,3.5,0.14,-0.98,-0.116022,-0.013664,-0.902434,-0.06986,0.11256,0.4508
-1.79508,0,0,16.7951,16.7951,13.2049,13.2049,0.944778,-0.0841326,3.25043,0.243026,0.103987,0.0317685,0,0,3.4125,-0.035,-0.9275,0.202276,0.099552,-0.981002,-0.06986,0.11256,0.4508
-1.58395,0,0,16.5839,16.5839,13.4161,13.4161,0.833655,0.198802,3.05524,0.238088,0.102047,0.0317937,0,0,3.29,-0.07,-0.91,0.202276,0.099552,-0.981002,-0.06986,0.11256,0.4508
-1.71514,0,0,16.7151,16.7151,13.2849,13.2849,0.902708,0.191604,3.11707,-0.00937453,-0.0672367,-0.0551487,0,0,3.36,0.035,-0.98,-0.04636,-0.07076,-1.06726,-0.06986,0.11256,0.4508
-1.8439,0,0,16.8439,16.8439,13.1561,13.1561,0.970474,0.184571,3.17867,-0.00925177,-0.0660541,-0.0551677,0,0,3.3775,0.0875,-0.98,-0.04636,-0.07076,-1.06726,-0.06986,0.11256,0.4508
-1.72491,0,0,16.7249,16.7249,13.2751,13.2751,0.907848,0.2584,3.16776,0.0580991,0.0538806,0.0821787,0,0,3.4125,0.0875,-0.98,0.02257,0.050142,-0.930982,-0.06986,0.11256,0.4508
-1.60841,0,0,16.6084,16.6084,13.3916,13.3916,0.84653,0.33078,3.1565,0.0568359,0.0528104,0.0821886,0,0,3.4825,0.105,-1.1375,0.02257,0.050142,-0.930982,-0.06986,0.11256,0.4508
-1.6087,0,0,16.6087,16.6087,13.3913,13.3913,0.846687,0.33062,3.15637,0.100452,-0.0218063,-0.097685,1,0,3.5175,0.035,-1.0325,0.066368,-0.0244,-1.10947,-0.06986,0.11256,0.4508
-1.60823,0,0,16.6082,16.6082,13.3918,13.3918,0.846439,0.330457,3.15642,0.100455,-0.0218106,-0.097685,1,0,3.29,0.035,-0.9275,0.066368,-0.0244,-1.10947,-0.07028,0.11466,0.45304
-1.60753,0,0,16.6075,16.6075,13.3925,13.3925,0.846066,0.330623,3.15651,-0.10656,-0.0623632,0.114401,1,0,3.22,0.2275,-0.91,-0.14152,-0.064904,-0.899018,-0.07028,0.11466,0.45304
-1.60759,0,0,16.6076,16.6076,13.3924,13.3924,0.846099,0.330878,3.1566,-0.106564,-0.0623626,0.114401,1,0,3.4475,0.28,-0.91,-0.14152,-0.064904,-0.899018,-0.07028,0.11466,0.45304
-1.50332,0,0,16.5033,16.5033,13.4967,13.4967,0.791222,0.552738,3.00593,0.193642,0.0525776,-0.0256533,0,0,3.36,0.105,-0.9625,0.163846,0.050874,-1.03798,-0.07028,0.11466,0.45304
-1.40088,0,0,16.4009,16.4009,13.5991,13.5991,0.737303,0.770031,2.85521,0.18985,0.0516361,-0.0256845,0,0,3.36,0.07,-0.9625,0.163846,0.050874,-1.03798,-0.07028,0.11466,0.45304
-1.62808,0,0,16.6281,16.6281,13.3719,13.3719,0.856886,0.596882,3.05177,-0.145709,-0.108095,0.0289116,0,0,3.4475,0.2975,-1.05,-0.176168,-0.110776,-0.983808,-0.07028,0.11466,0.45304
-1.85099,0,0,16.851,16.851,13.149,13.149,0.974208,0.427001,3.24717,-0.142744,-0.106047,0.0289054,0,0,3.4475,0.1575,-0.98,-0.176168,-0.110776,-0.983808,-0.07028,0.11466,0.45304
-1.85165,0,0,16.8517,16.8517,13.1483,13.1483,0.974553,0.427167,3.24723,0.147483,0.074951,0.118166,1,0,3.6225,0.2275,-0.9275,0.11529,0.070028,-0.895236,-0.07028,0.11466,0.45304
-1.85159,0,0,16.8516,16.8516,13.1484,13.1484,0.974523,0.427304,3.24722,0.14748,0.0749505,0.118166,1,0,3.4125,0.21,-0.9625,0.11529,0.070028,-0.895236,-0.06594,0.1141,0.45878
-1.85106,0,0,16.8511,16.8511,13.1489,13.1489,0.974243,0.427443,3.2471,-0.0119113,0.00924139,-0.184287,1,0,3.2725,0.21,-1.0325,-0.044774,0.004392,-1.19536,-0.06594,0.1141,0.45878
-1.85071,0,0,16.8507,16.8507,13.1493,13.1493,0.974055,0.427554,3.24688,-0.0119132,0.00923812,-0.184287,1,0,3.325,0.1925,-1.085,-0.044774,0.004392,-1.19536,-0.06594,0.1141,0.45878
-1.85017,0,0,16.8502,16.8502,13.1498,13.1498,0.973775,0.427515,3.24669,0.0793232,-0.00762027,0.210746,1,0,3.2725,0.105,-1.0675,0.046848,-0.012444,-0.80337,-0.06594,0.1141,0.45878
-1.84964,0,0,16.8496,16.8496,13.1504,13.1504,0.973494,0.427476,3.2465,0.0793239,-0.00762517,0.210746,1,0,3.2725,0.105,-1.0675,0.046848,-0.012444,-0.80337,-0.06594,0.1141,0.45878
-1.84828,0,0,16.8483,16.8483,13.1517,13.1517,0.972779,0.434779,3.24674,0.120866,0.103864,-0.151829,1,0,3.0275,4.41,-0.8925,0.088694,0.098942,-1.16315,-0.06594,0.1141,0.45878
-1.84692,0,0,16.8469,16.8469,13.1531,13.1531,0.972064,0.442083,3.24698,0.120739,0.103852,-0.15183,1,0,3.0275,4.41,-0.8925,0.088694,0.098942,-1.16315,-0.06594,0.1141,0.45878
-1.84645,0,0,16.8465,16.8465,13.1535,13.1535,0.971816,0.44231,3.24694,-0.216388,-0.144436,0.223163,1,0,3.29,0.2625,-0.98,-0.249856,-0.149084,-0.791048,-0.06594,0.1141,0.45878
-1.84598,0,0,16.846,16.846,13.154,13.154,0.971567,0.442537,3.24691,-0.216392,-0.144441,0.223163,1,0,3.29,0.2625,-0.98,-0.249856,-0.149084,-0.791048,-0.06762,0.11438,0.44996
-1.46714,0,0,16.4671,16.4671,13.5329,13.5329,0.772181,0.761779,3.00428,0.300182,0.200629,-0.0355265,0,0,3.3775,0.1225,-1.0675,0.2745,0.199104,-1.04774,-0.06762,0.11438,0.44996
-1.09481,0,0,16.0948,16.0948,13.9052,13.9052,0.576214,1.075,2.76011,0.294716,0.197208,-0.0355738,0,0,3.3775,0.1225,-1.0675,0.2745,0.199104,-1.04774,-0.06762,0.11438,0.44996
-1.51926,0,0,16.5193,16.5193,13.4807,13.4807,0.799611,0.857697,2.99209,-0.19436,-0.211926,0.00882772,0,0,3.605,0.21,-0.98,-0.220454,-0.2135,-1.00369,-0.06762,0.11438,0.44996
-1.51974,0,0,16.5197,16.5197,13.4803,13.4803,0.799862,0.857626,2.99203,0.136204,0.143834,0.246241,1,0,3.57,0.0875,-0.9975,0.111508,0.141886,-0.768112,-0.06762,0.11438,0.44996
-1.52021,0,0,16.5202,16.5202,13.4798,13.4798,0.800112,0.857137,2.99195,0.136213,0.143838,0.246241,1,0,3.57,-0.1575,-0.9975,0.111508,0.141886,-0.768112,-0.06762,0.11438,0.44996
-1.52075,0,0,16.5207,16.5207,13.4793,13.4793,0.800394,0.856796,2.99197,0.134882,-0.162817,-0.139448,1,0,3.5875,-0.07,-0.945,0.110166,-0.164456,-1.15083,-0.06762,0.11438,0.44996
-1.52116,0,0,16.5212,16.5212,13.4788,13.4788,0.800613,0.856187,2.99186,0.134893,-0.162813,-0.139448,1,0,3.5525,-0.2275,-1.015,0.110166,-0.164456,-1.15083,-0.06762,0.11438,0.44996
-1.52087,0,0,16.5209,16.5209,13.4791,13.4791,0.800456,0.855759,2.99173,-0.237818,0.0157334,0.327019,1,0,3.3425,-0.1225,-1.0325,-0.26413,0.013908,-0.687958,-0.06678,0.1092,0.45528
-1.51945,0,0,16.5195,16.5195,13.4805,13.4805,0.799711,0.855505,2.9919,0.189816,0.361583,-0.282806,1,0,3.01,-0.0175,-0.8575,0.16531,0.359412,-1.29308,-0.06678,0.1092,0.45528
-1.51915,0,0,16.5192,16.5192,13.4808,13.4808,0.799555,0.855912,2.99181,0.189809,0.361581,-0.282806,1,0,3.3425,0.3675,-1.015,0.16531,0.359412,-1.29308,-0.06678,0.1092,0.45528
-1.52063,0,0,16.5206,16.5206,13.4794,13.4794,0.80033,0.856265,2.99136,-0.123144,-0.00796138,0.123539,1,0,3.8675,0.3325,-1.225,-0.148962,-0.00976,-0.889868,-0.06678,0.1092,0.45528
-1.52105,0,0,16.5211,16.5211,13.4789,13.4789,0.800553,0.856757,2.99157,-0.123153,-0.00795749,0.123539,1,0,3.5525,0.42,-0.84,-0.148962,-0.00976,-0.889868,-0.06678,0.1092,0.45528
-0.99782,0,0,15.9978,15.9978,14.0022,14.0022,0.525168,1.34075,2.59226,0.394678,0.244801,0.173964,0,0,3.9375,0.2975,-0.9625,0.379542,0.247538,-0.839726,-0.06678,0.1092,0.45528
-0.481344,0,0,15.4813,15.4813,14.5187,14.5187,0.253339,1.81651,2.18934,0.386377,0.240057,0.173768,0,0,3.57,0.385,-0.945,0.379542,0.247538,-0.839726,-0.06678,0.1092,0.45528
-0.684639,0,0,15.6846,15.6846,14.3154,14.3154,0.360336,1.89598,2.15229,0.0605028,-0.0949024,0.0358874,0,0,3.64,0.5075,-0.77,0.05368,-0.088938,-0.976488,-0.06678,0.1092,0.45528
-0.883127,0,0,15.8831,15.8831,14.1169,14.1169,0.464804,1.97339,2.11677,0.0591525,-0.0930806,0.0358287,0,0,3.3425,0.105,-0.6825,0.05368,-0.088938,-0.976488,-0.06874,0.10878,0.4529
-0.880863,0,0,15.8809,15.8809,14.1191,14.1191,0.463612,1.97281,2.11658,-0.29266,-0.301327,0.2114,1,0,2.765,-0.21,-1.0675,-0.299632,-0.296948,-0.802272,-0.06874,0.10878,0.4529
-0.880591,0,0,15.8806,15.8806,14.1194,14.1194,0.463469,1.97286,2.1169,-0.292661,-0.30133,0.2114,1,0,3.3425,0.1575,-0.77,-0.299632,-0.296948,-0.802272,-0.06874,0.10878,0.4529
-0.881426,0,0,15.8814,15.8814,14.1186,14.1186,0.463908,1.97326,2.11693,-0.226094,0.0734847,-0.608544,1,0,3.675,0.3675,-0.945,-0.232776,0.07747,-1.61589,-0.06874,0.10878,0.4529
-0.880032,0,0,15.88,15.88,14.12,14.12,0.463175,1.97271,2.11644,-0.226084,0.0734719,-0.608544,1,0,3.0275,-0.1925,-1.2425,-0.232776,0.07747,-1.61589,-0.06874,0.10878,0.4529
-0.885016,0,0,15.885,15.885,14.115,14.115,0.465798,1.97208,2.11643,-0.259967,-0.226914,0.221727,1,0,4.9,-0.245,-0.9625,-0.266814,-0.22265,-0.792024,-0.06874,0.10878,0.4529
-0.884992,0,0,15.885,15.885,14.115,14.115,0.465785,1.97135,2.11602,-0.259955,-0.226914,0.221728,1,0,3.43,-0.2975,-1.19,-0.266814,-0.22265,-0.792024,-0.06874,0.10878,0.4529
-0.889451,0,0,15.8895,15.8895,14.1105,14.1105,0.468132,1.9698,2.11432,0.641982,0.239895,-0.495307,1,0,4.7775,-0.7875,-1.9425,0.638914,0.243634,-1.50353,-0.06874,0.10878,0.4529
-0.883385,0,0,15.8834,15.8834,14.1166,14.1166,0.46494,1.96953,2.11221,0.641987,0.239839,-0.495307,1,0,1.68,-0.035,-2.1875,0.638914,0.243634,-1.50353,-0.06594,0.11452,0.46354
-0.876008,0,0,15.876,15.876,14.124,14.124,0.461057,1.96843,2.11001,-0.409331,0.0836936,-0.112813,1,0,1.295,-0.525,-2.24,-0.416874,0.087718,-1.12399,-0.06594,0.11452,0.46354
-0.866749,0,0,15.8667,15.8667,14.1333,14.1333,0.456184,1.97074,2.10804,-0.409372,0.0836086,-0.112813,1,0,0.735,1.47,-2.1175,-0.416874,0.087718,-1.12399,-0.06594,0.11452,0.46354
-0.863275,0,0,15.8633,15.8633,14.1367,14.1367,0.454356,1.97338,2.10475,0.333103,0.454476,-0.116626,1,0,2.4675,1.6625,-2.8875,0.32879,0.458232,-1.12777,-0.06594,0.11452,0.46354
-0.866108,0,0,15.8661,15.8661,14.1339,14.1339,0.455846,1.97476,2.10268,0.333079,0.454502,-0.116627,1,0,4.305,0.9275,-2.17,0.32879,0.458232,-1.12777,-0.06594,0.11452,0.46354
-0.871477,0,0,15.8715,15.8715,14.1285,14.1285,0.458672,1.97643,2.10131,-0.634341,-0.475933,-0.139497,1,0,5.04,1.1025,-1.7675,-0.642696,-0.471286,-1.15046,-0.06594,0.11452,0.46354
-0.880006,0,0,15.88,15.88,14.12,14.12,0.463161,1.97539,2.09928,-0.634323,-0.475854,-0.139497,1,0,5.985,-0.49,-2.135,-0.642696,-0.471286,-1.15046,-0.06594,0.11452,0.46354
-0.887268,0,0,15.8873,15.8873,14.1127,14.1127,0.466983,1.97541,2.09873,-0.0227641,-0.187447,0.313691,1,0,5.5825,0.14,-1.2775,-0.028548,-0.183244,-0.700768,-0.06594,0.11452,0.46354
-0.89453,0,0,15.8945,15.8945,14.1055,14.1055,0.470805,1.97543,2.09819,-0.0227645,-0.18738,0.31369,1,0,5.5825,0.14,-1.2775,-0.028548,-0.183244,-0.700768,-0.06594,0.11452,0.46354
-0.625273,0,0,15.6253,15.6253,14.3747,14.3747,0.329091,2.24043,1.87162,0.220809,0.125479,0.0672715,0,0,1.61,-0.6125,-1.4,0.220698,0.13176,-0.945134,-0.06538,0.11326,0.46928
-0.456019,0,0,15.456,15.456,14.544,14.544,0.24001,1.83654,2.25419,-0.333532,0.0723886,0.0827756,0,0,0.0175,-0.56,-1.225,-0.343064,0.080276,-0.930006,-0.06538,0.11326,0.46928
-0.289459,0,0,15.2895,15.2895,14.7105,14.7105,0.152347,1.44035,2.63724,-0.32662,0.0708599,0.0829785,0,0,0.0175,-0.56,-1.225,-0.343064,0.080276,-0.930006,-0.06538,0.11326,0.46928
-0.288692,0,0,15.2887,15.2887,14.7113,14.7113,0.151943,1.44233,2.6385,0.115311,0.460071,-0.09456,1,0,3.185,1.295,-0.2275,0.100772,0.46909,-1.10617,-0.06538,0.11326,0.46928
-0.287925,0,0,15.2879,15.2879,14.7121,14.7121,0.151539,1.44432,2.63975,0.115276,0.460064,-0.0945608,1,0,3.185,1.295,-0.2275,0.100772,0.46909,-1.10617,-0.06538,0.11326,0.46928
-0.926833,0,0,15.9268,15.9268,14.0732,14.0732,0.487807,1.45639,2.66474,-0.00241137,-0.294308,0.0901927,0,0,5.67,0.875,0.77,-0.017202,-0.29036,-0.922808,-0.06538,0.11326,0.46928
-1.55441,0,0,16.5544,16.5544,13.4456,13.4456,0.818113,1.4679,2.68958,-0.00261225,-0.288546,0.0901219,0,0,5.67,0.875,0.77,-0.017202,-0.29036,-0.922808,-0.06538,0.11326,0.46928
-1.55568,0,0,16.5557,16.5557,13.4443,13.4443,0.818777,1.46745,2.69353,0.0259449,0.156374,0.238275,1,0,3.745,-0.105,1.3475,0.011468,0.154086,-0.775798,-0.06398,0.1218,0.4718
-1.5502,0,0,16.5502,16.5502,13.4498,13.4498,0.815895,1.46573,2.69794,0.163497,0.0378604,-0.12393,1,0,1.75,-0.84,1.6275,0.149572,0.035746,-1.13521,-0.06398,0.1218,0.4718
-1.54472,0,0,16.5447,16.5447,13.4553,13.4553,0.813013,1.46401,2.70235,0.163527,0.0378101,-0.123928,1,0,1.75,-0.84,1.6275,0.149572,0.035746,-1.13521,-0.06398,0.1218,0.4718
-1.6724,0,0,16.6724,16.6724,13.3276,13.3276,0.880208,1.32532,2.84418,-0.117237,-0.063481,0.00238127,0,0,3.29,-1.2075,0.945,-0.13481,-0.066612,-1.00992,-0.06398,0.1218,0.4718
-1.79767,0,0,16.7977,16.7977,13.2023,13.2023,0.946141,1.18942,2.98536,-0.114865,-0.0623299,0.00241498,0,0,3.29,-1.2075,0.945,-0.13481,-0.066612,-1.00992,-0.06398,0.1218,0.4718
-2.10727,0,0,17.1073,17.1073,12.8927,12.8927,1.10909,0.95176,3.2194,-0.218233,-0.162194,-0.0371479,0,0,4.725,0.07,0.1925,-0.24278,-0.169214,-1.0492,-0.06398,0.1218,0.4718
-2.41119,0,0,17.4112,17.4112,12.5888,12.5888,1.26905,0.718756,3.45155,-0.214167,-0.159402,-0.0371466,0,0,4.725,0.07,0.1925,-0.24278,-0.169214,-1.0492,-0.06398,0.1218,0.4718
-2.41393,0,0,17.4139,17.4139,12.5861,12.5861,1.27049,0.720407,3.45203,-0.0895512,-0.0510503,-0.120015,1,0,4.235,1.1025,-0.7,-0.117608,-0.061,-1.13143,-0.06398,0.1218,0.4718
-2.41667,0,0,17.4167,17.4167,12.5833,12.5833,1.27193,0.722057,3.4525,-0.08958,-0.0510252,-0.120016,1,0,4.235,1.1025,-0.7,-0.117608,-0.061,-1.13143,-0.06104,0.12516,0.47348
-2.41368,0,0,17.4137,17.4137,12.5863,12.5863,1.27036,0.722758,3.45134,0.0243614,0.0327263,0.164856,1,0,2.555,0.525,-1.645,-0.003172,0.022692,-0.848754,-0.06104,0.12516,0.47348
-2.40973,0,0,17.4097,17.4097,12.5903,12.5903,1.26828,0.723861,3.44953,0.00854896,-0.138287,0.214159,1,0,2.275,0.7525,-2.03,-0.019032,-0.148108,-0.799832,-0.06104,0.12516,0.47348
-2.40962,0,0,17.4096,17.4096,12.5904,12.5904,1.26822,0.723444,3.44759,0.00855625,-0.138288,0.214159,1,0,3.4125,-0.14,-2.0825,-0.019032,-0.148108,-0.799832,-0.06104,0.12516,0.47348
-2.41236,0,0,17.4124,17.4124,12.5876,12.5876,1.26966,0.722976,3.44521,0.0906887,0.0194023,-0.12149,1,0,4.2525,-0.175,-2.345,0.06344,0.009394,-1.13289,-0.06104,0.12516,0.47348
-2.41691,0,0,17.4169,17.4169,12.5831,12.5831,1.27206,0.72196,3.44197,0.0907065,0.0194441,-0.121491,1,0,4.795,-0.5075,-2.835,0.06344,0.009394,-1.13289,-0.06104,0.12516,0.47348
-2.14695,0,0,17.147,17.147,12.853,12.853,1.12998,0.621629,3.55347,-0.0827249,0.137138,-0.0127322,0,0,5.0575,-0.525,-2.66,-0.112484,0.129442,-1.02504,-0.06104,0.12516,0.47348
-1.88308,0,0,16.8831,16.8831,13.1169,13.1169,0.991095,0.525346,3.66488,-0.0810445,0.134715,-0.0126705,0,0,5.39,0.6475,-2.94,-0.112484,0.129442,-1.02504,-0.06104,0.12516,0.47348
-1.89127,0,0,16.8913,16.8913,13.1087,13.1087,0.995405,0.527304,3.66151,0.181573,-0.228659,-0.0834904,1,0,5.8625,1.2425,-2.94,0.15128,-0.23363,-1.09532,-0.05922,0.12082,0.47656
-1.82177,0,0,16.8218,16.8218,13.1782,13.1782,0.958824,0.549057,3.67293,0.0187673,0.0346186,-0.024099,0,0,3.4475,1.2075,-2.5375,-0.011834,0.030012,-1.03639,-0.05922,0.12082,0.47656
-1.75249,0,0,16.7525,16.7525,13.2475,13.2475,0.922362,0.569133,3.68476,0.018417,0.0339823,-0.024092,0,0,3.1325,0.4725,-2.275,-0.011834,0.030012,-1.03639,-0.05922,0.12082,0.47656
-1.81426,0,0,16.8143,16.8143,13.1857,13.1857,0.954871,0.219917,4.02931,-0.293538,-0.034207,0.0676603,0,0,1.61,-0.3325,-1.9775,-0.33123,-0.038674,-0.945378,-0.05922,0.12082,0.47656
-1.8744,0,0,16.8744,16.8744,13.1256,13.1256,0.986525,-0.12353,4.37299,-0.287543,-0.0336546,0.067656,0,0,1.505,-0.91,-1.7675,-0.33123,-0.038674,-0.945378,-0.05922,0.12082,0.47656
-1.86794,0,0,16.8679,16.8679,13.1321,13.1321,0.983128,-0.125101,4.37157,0.155542,0.0230751,0.17118,1,0,1.5225,-0.805,-1.7675,0.113704,0.018056,-0.842654,-0.05922,0.12082,0.47656
-1.86593,0,0,16.8659,16.8659,13.1341,13.1341,0.982069,-0.127378,4.37123,0.155582,0.0230566,0.17118,1,0,2.835,-1.2075,-1.1375,0.113704,0.018056,-0.842654,-0.05922,0.12082,0.47656
-1.96412,0,0,16.9641,16.9641,13.0359,13.0359,1.03375,0.178008,4.12971,0.274289,-0.0489513,-0.00871209,0,0,3.6925,-1.05,-1.225,0.238266,-0.054778,-1.02114,-0.05922,0.12082,0.47656
-2.06517,0,0,17.0652,17.0652,12.9348,12.9348,1.08693,0.47925,3.87935,0.269031,-0.0480238,-0.00875941,0,0,5.145,-0.07,-0.91,0.238266,-0.054778,-1.02114,-0.06146,0.12754,0.4865
-2.11291,0,0,17.1129,17.1129,12.8871,12.8871,1.11206,0.483581,3.89634,0.00411693,-0.0232821,-0.0969225,0,0,5.7575,0.28,-0.7875,-0.027694,-0.0305,-1.10861,-0.06146,0.12754,0.4865
-2.16036,0,0,17.1604,17.1604,12.8396,12.8396,1.13703,0.487324,3.9138,0.00405161,-0.0228464,-0.0969316,0,0,5.9325,0,-0.49,-0.027694,-0.0305,-1.10861,-0.06146,0.12754,0.4865
-2.16311,0,0,17.1631,17.1631,12.8369,12.8369,1.13848,0.486634,3.9148,-0.469366,-0.18928,-0.0227941,1,0,4.235,-0.2625,-0.3675,-0.503128,-0.196786,-1.03505,-0.06146,0.12754,0.4865
-2.15245,0,0,17.1525,17.1525,12.8475,12.8475,1.13287,0.486874,3.91567,-0.46937,-0.189378,-0.0227922,1,0,0.28,0.28,-0.455,-0.503128,-0.196786,-1.03505,-0.06146,0.12754,0.4865
-2.14677,0,0,17.1468,17.1468,12.8532,12.8532,1.12988,0.486725,3.9165,0.167339,-0.0532586,0.185115,1,0,1.75,0.0525,-0.4725,0.136274,-0.060756,-0.828746,-0.06146,0.12754,0.4865
-2.14401,0,0,17.144,17.144,12.856,12.856,1.12842,0.486217,3.91744,0.167348,-0.053284,0.185115,1,0,2.6075,-0.1575,-0.4025,0.136274,-0.060756,-0.828746,-0.06146,0.12754,0.4865
-2.26127,0,0,17.2613,17.2613,12.7387,12.7387,1.19014,0.197064,4.19819,-0.236527,-0.0588013,0.0819698,0,0,1.33,-0.105,-0.1925,-0.274378,-0.067344,-0.931104,-0.06146,0.12754,0.4865
-2.37701,0,0,17.377,17.377,12.623,12.623,1.25106,-0.0869685,4.4774,-0.231569,-0.0577383,0.081952,0,0,1.54,-0.4375,-0.315,-0.274378,-0.067344,-0.931104,-0.06146,0.12754,0.4865
-2.37251,0,0,17.3725,17.3725,12.6275,12.6275,1.24869,-0.0878818,4.47761,-0.173362,-0.255136,-0.194067,1,0,2.1,-0.4025,-0.8225,-0.21594,-0.264496,-1.20499,-0.06314,0.13398,0.48482
-2.37269,0,0,17.3727,17.3727,12.6273,12.6273,1.24878,-0.0860637,4.47725,-0.173393,-0.255135,-0.194067,1,0,3.4825,1.19,-1.19,-0.21594,-0.264496,-1.20499,-0.06314,0.13398,0.48482
-2.85172,0,0,17.8517,17.8517,12.1483,12.1483,1.5009,0.111401,4.30783,0.161376,-0.234371,0.0434866,0,0,4.0075,1.19,-0.5075,0.123708,-0.248148,-0.969168,-0.06314,0.13398,0.48482
-3.32225,0,0,18.3223,18.3223,11.6777,11.6777,1.74855,0.304893,4.13907,0.157999,-0.230051,0.0433518,0,0,4.06,1.225,-1.2775,0.123708,-0.248148,-0.969168,-0.06314,0.13398,0.48482
-3.32765,0,0,18.3276,18.3276,11.6724,11.6724,1.75139,0.305782,4.13891,-0.0836513,0.159461,-0.203039,1,0,5.0225,0.6475,-1.0675,-0.11895,0.14091,-1.21366,-0.06314,0.13398,0.48482
-3.33393,0,0,18.3339,18.3339,11.6661,11.6661,1.7547,0.305958,4.13861,-0.0836543,0.159519,-0.20304,1,0,5.285,0.2275,-1.1375,-0.11895,0.14091,-1.21366,-0.06314,0.13398,0.48482
-3.34272,0,0,18.3427,18.3427,11.6573,11.6573,1.75933,0.305124,4.13909,0.171723,0.138105,0.467272,1,0,6.02,-0.35,-0.665,0.137494,0.119438,-0.548512,-0.06314,0.13398,0.48482
-3.34852,0,0,18.3485,18.3485,11.6515,11.6515,1.76238,0.304459,4.13795,0.171735,0.138159,0.467271,1,0,5.145,-0.28,-1.61,0.137494,0.119438,-0.548512,-0.06314,0.13398,0.48482
-3.35593,0,0,18.3559,18.3559,11.6441,11.6441,1.76628,0.304738,4.13723,-0.139031,-0.138391,-0.161367,1,0,5.6175,0.28,-1.3825,-0.174582,-0.156892,-1.1723,-0.06622,0.13258,0.48496
-3.35729,0,0,18.3573,18.3573,11.6427,11.6427,1.76699,0.305569,4.13605,-0.0676114,-0.187229,-0.315914,1,0,3.8325,0.595,-1.6625,-0.102846,-0.205692,-1.32565,-0.06622,0.13258,0.48496
-3.35758,0,0,18.3576,18.3576,11.6424,11.6424,1.76715,0.306122,4.13519,-0.0676211,-0.187226,-0.315914,1,0,3.5175,0.4375,-1.47,-0.102846,-0.205692,-1.32565,-0.06622,0.13258,0.48496
-3.35367,0,0,18.3537,18.3537,11.6463,11.6463,1.76509,0.30679,4.13541,-0.36831,-0.171508,-0.158293,1,0,2.275,0.525,-0.84,-0.404796,-0.189954,-1.16925,-0.06622,0.13258,0.48496
-3.35112,0,0,18.3511,18.3511,11.6489,11.6489,1.76375,0.306777,4.13543,-0.36831,-0.171531,-0.158292,1,0,2.6775,0.1225,-0.945,-0.404796,-0.189954,-1.16925,-0.06622,0.13258,0.48496
-3.34816,0,0,18.3482,18.3482,11.6518,11.6518,1.76219,0.306375,4.13547,0.455127,-0.00412249,-0.0434573,1,0,2.555,-0.105,-0.9275,0.42212,-0.022692,-1.0553,-0.06622,0.13258,0.48496
-3.34763,0,0,18.3476,18.3476,11.6524,11.6524,1.76191,0.305453,4.13589,0.455144,-0.00412732,-0.0434571,1,0,3.2725,-0.4025,-0.7,0.42212,-0.022692,-1.0553,-0.06622,0.13258,0.48496
-3.34912,0,0,18.3491,18.3491,11.6509,11.6509,1.7627,0.305215,4.13644,0.300982,0.108365,0.158178,1,0,3.8675,0,-0.63,0.267302,0.08967,-0.85522,-0.06622,0.13258,0.48496
-3.35465,0,0,18.3547,18.3547,11.6453,11.6453,1.76561,0.303981,4.13727,0.301004,0.108416,0.158177,1,0,5.0575,-0.5775,-0.455,0.267302,0.08967,-0.85522,-0.0616,0.1407,0.49854
-3.36397,0,0,18.364,18.364,11.636,11.636,1.77051,0.302673,4.13761,-0.29316,-0.0943511,0.194321,1,0,6.1775,-0.63,-0.735,-0.3294,-0.112972,-0.819352,-0.0616,0.1407,0.49854
-3.38094,0,0,18.3809,18.3809,11.6191,11.6191,1.77944,0.301079,4.13852,-0.293132,-0.0941953,0.194316,1,0,8.435,-0.7875,-0.4025,-0.3294,-0.112972,-0.819352,-0.0616,0.1407,0.49854
-3.39928,0,0,18.3993,18.3993,11.6007,11.6007,1.78909,0.299969,4.13922,0.42584,0.0144216,-0.159658,1,0,8.8375,-0.5075,-0.525,0.392596,-0.004636,-1.17059,-0.0616,0.1407,0.49854
-3.41833,0,0,18.4183,18.4183,11.5817,11.5817,1.79912,0.300019,4.14009,0.425839,0.0145965,-0.159663,1,0,9.0475,0.175,-0.455,0.392596,-0.004636,-1.17059,-0.0616,0.1407,0.49854
-3.43239,0,0,18.4324,18.4324,11.5676,11.5676,1.80652,0.301824,4.14029,1.29164,-0.315139,-0.16938,1,0,7.5775,1.19,-0.875,1.26209,-0.334158,-1.18023,-0.0616,0.1407,0.49854
-3.43002,0,0,18.43,18.43,11.57,11.57,1.80527,0.303208,4.14053,1.29161,-0.31516,-0.16938,1,0,2.73,0.945,-0.84,1.26209,-0.334158,-1.18023,-0.0616,0.1407,0.49854
-3.64486,0,0,18.6449,18.6449,11.3551,11.3551,1.91834,0.706603,3.77632,0.372821,-0.12023,-0.00856621,0,0,0.805,1.1025,-1.085,0.34648,-0.141398,-1.02053,-0.0616,0.1407,0.49854
-3.84475,0,0,18.8448,18.8448,11.1552,11.1552,2.02355,1.09334,3.39452,0.366072,-0.118399,-0.00873531,0,0,-2.135,-0.6825,-0.6125,0.34648,-0.141398,-1.02053,-0.0546,0.15456,0.5033
-3.82964,0,0,18.8296,18.8296,11.1704,11.1704,2.0156,1.09155,3.39484,-0.345195,-0.0878834,0.251798,1,0,-1.0325,-0.91,-0.735,-0.36783,-0.110776,-0.762012,-0.0546,0.15456,0.5033
-3.82421,0,0,18.8242,18.8242,11.1758,11.1758,2.01274,1.0906,3.39525,-0.345179,-0.0879334,0.2518,1,0,1.82,-0.42,-0.7,-0.36783,-0.110776,-0.762012,-0.0546,0.15456,0.5033
-3.82986,0,0,18.8299,18.8299,11.1701,11.1701,2.01572,1.08919,3.39585,-0.188559,0.0307037,0.175448,1,0,5.0925,-0.6825,-0.5775,-0.210572,0.007686,-0.837774,-0.0546,0.15456,0.5033
-3.84651,0,0,18.8465,18.8465,11.1535,11.1535,2.02448,1.09031,3.39682,-0.188579,0.0308564,0.175442,1,0,8.33,0.805,-0.42,-0.210572,0.007686,-0.837774,-0.0546,0.15456,0.5033
-3.86527,0,0,18.8653,18.8653,11.1347,11.1347,2.03435,1.0919,3.39729,-0.334875,-0.0940292,-0.0554619,1,0,8.96,1.0675,-0.7175,-0.35746,-0.117242,-1.06689,-0.0546,0.15456,0.5033
-3.88784,0,0,18.8878,18.8878,11.1122,11.1122,2.04623,1.09488,3.39808,-0.334927,-0.0938221,-0.0554703,1,0,10.08,1.89,-0.56,-0.35746,-0.117242,-1.06689,-0.0546,0.15456,0.5033
-3.90357,0,0,18.9036,18.9036,11.0964,11.0964,2.05451,1.09748,3.39852,0.376448,-0.287737,-0.269776,1,0,8.0675,1.6625,-0.7525,0.356972,-0.3111,-1.27954,-0.0546,0.15456,0.5033
-3.91009,0,0,18.9101,18.9101,11.0899,11.0899,2.05794,1.09843,3.39843,0.376431,-0.287677,-0.269778,1,0,5.355,0.6825,-1.0325,0.356972,-0.3111,-1.27954,-0.05712,0.15358,0.5026
-3.90889,0,0,18.9089,18.9089,11.0911,11.0911,2.05731,1.09879,3.39795,0.00152014,-0.331654,-0.167485,1,0,3.08,0.3325,-1.2425,-0.01952,-0.35502,-1.17803,-0.05712,0.15358,0.5026
-3.90502,0,0,18.905,18.905,11.095,11.095,2.05527,1.09922,3.39724,0.00151261,-0.331689,-0.167483,1,0,2.2925,0.3675,-1.3825,-0.01952,-0.35502,-1.17803,-0.05712,0.15358,0.5026
-4.01573,0,0,19.0157,19.0157,10.9843,10.9843,2.11354,0.927991,3.5161,-0.142133,-0.0555198,0.0366269,0,0,2.3625,-0.1575,-1.365,-0.166774,-0.080154,-0.975512,-0.05712,0.15358,0.5026
-4.1257,0,0,19.1257,19.1257,10.8743,10.8743,2.17142,0.758665,3.63369,-0.139178,-0.0545088,0.0366326,0,0,2.7475,-1.085,-1.715,-0.166774,-0.080154,-0.975512,-0.05712,0.15358,0.5026
-4.12203,0,0,19.122,19.122,10.878,10.878,2.16949,0.757115,3.63168,0.192141,0.0354649,0.263597,1,0,2.3625,-0.8225,-2.1,0.16592,0.00976,-0.7503,-0.05712,0.15358,0.5026
-4.12905,0,0,19.1291,19.1291,10.8709,10.8709,2.17318,0.756722,3.62988,0.192148,0.0355293,0.263595,1,0,5.5125,-0.14,-1.995,0.16592,0.00976,-0.7503,-0.05712,0.15358,0.5026
-4.10692,0,0,19.1069,19.1069,10.8931,10.8931,2.16154,1.21438,3.19535,0.390687,0.0187118,0.0885095,0,0,5.3375,0.07,-2.17,0.37332,-0.006832,-0.923906,-0.05712,0.15358,0.5026
-4.08966,0,0,19.0897,19.0897,10.9103,10.9103,2.15245,1.66557,2.76692,0.382815,0.0185459,0.0883177,0,0,6.8425,0.77,-2.52,0.37332,-0.006832,-0.923906,-0.05922,0.14938,0.50652
-3.88372,0,0,18.8837,18.8837,11.1163,11.1163,2.04406,1.66986,2.73475,-0.000182875,0.109961,-0.00345778,0,0,7.1225,0.8925,-2.1,-0.011224,0.086376,-1.01504,-0.05922,0.14938,0.50652
-3.68558,0,0,18.6856,18.6856,11.3144,11.3144,1.93978,1.67294,2.70237,-0.000236661,0.108143,-0.00339612,0,0,8.33,0.2625,-2.2225,-0.011224,0.086376,-1.01504,-0.05922,0.14938,0.50652
-3.72127,0,0,18.7213,18.7213,11.2787,11.2787,1.95856,1.6269,2.7088,-0.0403741,-0.0151212,-0.0979315,0,0,7.7175,0.0875,-2.1,-0.052338,-0.037088,-1.10886,-0.05922,0.14938,0.50652
-3.75273,0,0,18.7527,18.7527,11.2473,11.2473,1.97512,1.58072,2.7158,-0.0395685,-0.0148317,-0.0979189,0,0,6.65,-0.525,-1.7325,-0.052338,-0.037088,-1.10886,-0.05922,0.14938,0.50652
-3.75668,0,0,18.7567,18.7567,11.2433,11.2433,1.9772,1.57969,2.7141,-0.399391,0.00779796,0.229615,1,0,4.62,-0.5075,-1.925,-0.413702,-0.014518,-0.78385,-0.05922,0.14938,0.50652
-3.75385,0,0,18.7538,18.7538,11.2462,11.2462,1.97571,1.57893,2.71326,-0.399378,0.00777201,0.229616,1,0,2.6075,-0.3325,-1.435,-0.413702,-0.014518,-0.78385,-0.05922,0.14938,0.50652
-3.2885,0,0,18.2885,18.2885,11.7115,11.7115,1.73079,1.55178,2.71708,-0.0292233,0.232733,0.0139929,0,0,2.0475,-0.035,-1.295,-0.042456,0.214476,-0.99796,-0.05922,0.14938,0.50652
-2.83367,0,0,17.8337,17.8337,12.1663,12.1663,1.49141,1.52551,2.72146,-0.0287649,0.228559,0.0141226,0,0,2.7125,0.245,-1.12,-0.042456,0.214476,-0.99796,-0.05922,0.14938,0.50652
-2.83381,0,0,17.8338,17.8338,12.1662,12.1662,1.49148,1.52546,2.72178,0.18991,-0.262267,0.298134,1,0,3.465,0.105,-0.77,0.177144,-0.275842,-0.71614,-0.05628,0.14504,0.50554
-2.84196,0,0,17.842,17.842,12.158,12.158,1.49577,1.52546,2.72351,0.18991,-0.262192,0.298132,1,0,5.81,0.1575,0.0525,0.177144,-0.275842,-0.71614,-0.05628,0.14504,0.50554
-2.85314,0,0,17.8531,17.8531,12.1469,12.1469,1.50165,1.52588,2.72628,0.0631932,0.0755907,0.220302,1,0,6.685,0.42,0.6475,0.049898,0.061488,-0.793366,-0.05628,0.14504,0.50554
-2.86431,0,0,17.8643,17.8643,12.1357,12.1357,1.50753,1.52631,2.72904,0.0631859,0.0756933,0.2203,1,0,6.685,0.42,0.6475,0.049898,0.061488,-0.793366,-0.05628,0.14504,0.50554
-2.97952,0,0,17.9795,17.9795,12.0205,12.0205,1.56817,1.62662,2.61591,0.0777148,-0.0433011,0.093709,0,0,7.665,0.455,0.735,0.066246,-0.058438,-0.918904,-0.05628,0.14504,0.50554
-2.99475,0,0,17.9948,17.9948,12.0052,12.0052,1.57619,1.68333,2.54308,0.0543721,-0.00469211,-0.0693531,0,0,6.195,0.6125,0.8925,0.043798,-0.020008,-1.08068,-0.05628,0.14504,0.50554
-2.41738,0,0,17.4174,17.4174,12.5826,12.5826,1.2723,1.7382,2.48265,0.0449108,0.312666,-0.0292917,0,0,4.4625,0.805,0.8575,0.035258,0.302316,-1.04103,-0.05628,0.14504,0.50554
-2.41582,0,0,17.4158,17.4158,12.5842,12.5842,1.27148,1.73899,2.48542,-0.0113509,-0.138362,0.197917,1,0,2.9225,0.63,0.6475,-0.021228,-0.14823,-0.81557,-0.05628,0.14504,0.50554
-2.41662,0,0,17.4166,17.4166,12.5834,12.5834,1.27191,1.73964,2.48795,-0.0113622,-0.138355,0.197917,1,0,3.6225,0.5425,0.5075,-0.021228,-0.14823,-0.81557,-0.06846,0.1379,0.5026
-2.42031,0,0,17.4203,17.4203,12.5797,12.5797,1.27385,1.73856,2.49023,0.376439,0.03974,-0.267198,1,0,4.48,-0.4725,0.385,0.368196,0.029646,-1.2771,-0.06846,0.1379,0.5026
-2.42985,0,0,17.4299,17.4299,12.5701,12.5701,1.27887,1.73854,2.49205,0.376439,0.0398275,-0.2672,1,0,6.2125,0.14,0.105,0.368196,0.029646,-1.2771,-0.06846,0.1379,0.5026
-2.563,0,0,17.563,17.563,12.437,12.437,1.34895,1.77131,2.44841,0.0261104,-0.0576291,0.0445521,0,0,6.7025,0.28,-0.175,0.016958,-0.06893,-0.967704,-0.06846,0.1379,0.5026
-2.69079,0,0,17.6908,17.6908,12.3092,12.3092,1.4162,1.80285,2.40306,0.0255603,-0.0564566,0.0445066,0,0,5.8625,-0.0875,-1.2425,0.016958,-0.06893,-0.967704,-0.06846,0.1379,0.5026
-2.74165,0,0,17.7416,17.7416,12.2584,12.2584,1.44297,1.60205,2.56662,-0.167501,-0.0213031,0.0532055,0,0,5.1975,0.5075,-1.68,-0.180438,-0.034282,-0.959164,-0.06846,0.1379,0.5026
-2.78528,0,0,17.7853,17.7853,12.2147,12.2147,1.46594,1.40415,2.7279,-0.164048,-0.0209003,0.0532859,0,0,3.3775,-0.1575,-2.6775,-0.180438,-0.034282,-0.959164,-0.06846,0.1379,0.5026
-2.78072,0,0,17.7807,17.7807,12.2193,12.2193,1.46353,1.40507,2.7253,-0.115712,0.0286413,0.220128,1,0,2.1175,0.63,-2.485,-0.131882,0.01525,-0.79361,-0.06846,0.1379,0.5026
-2.78209,0,0,17.7821,17.7821,12.2179,12.2179,1.46426,1.40613,2.72163,-0.115731,0.0286539,0.220127,1,0,3.885,0.7,-3.115,-0.131882,0.01525,-0.79361,-0.06818,0.13902,0.4991
-3.03272,0,0,18.0327,18.0327,11.9673,11.9673,1.59617,1.5455,2.58112,0.132098,-0.137704,-0.0654836,0,0,4.1125,0.7875,-2.625,0.119438,-0.153232,-1.07689,-0.06818,0.13902,0.4991
-3.28839,0,0,18.2884,18.2884,11.7116,11.7116,1.73073,1.68155,2.44071,0.129724,-0.135359,-0.0656186,0,0,6.9475,0.455,-3.08,0.119438,-0.153232,-1.07689,-0.06818,0.13902,0.4991
-3.33647,0,0,18.3365,18.3365,11.6635,11.6635,1.75604,1.94416,2.18827,0.237639,-0.0197571,-0.0146304,0,0,6.545,0.1225,-2.7825,0.23241,-0.038186,-1.02614,-0.06818,0.13902,0.4991
-3.38287,0,0,18.3829,18.3829,11.6171,11.6171,1.78046,2.20189,1.93651,0.233144,-0.0193364,-0.0148062,0,0,6.37,0.2625,-2.7825,0.23241,-0.038186,-1.02614,-0.06818,0.13902,0.4991
-3.39034,0,0,18.3903,18.3903,11.6097,11.6097,1.78439,2.20138,1.93321,-0.0239113,-0.113183,0.203794,1,0,5.705,-0.2275,-2.87,-0.025742,-0.132004,-0.809226,-0.06818,0.13902,0.4991
-3.39138,0,0,18.3914,18.3914,11.6086,11.6086,1.78494,2.20003,1.93124,-0.0238876,-0.113174,0.203795,1,0,3.78,-0.7,-2.0825,-0.025742,-0.132004,-0.809226,-0.06818,0.13902,0.4991
-3.59984,0,0,18.5998,18.5998,11.4002,11.4002,1.89465,2.14605,1.95201,-0.0429913,-0.0920862,0.106517,0,0,3.0625,-0.63,-1.7325,-0.045872,-0.11285,-0.905728,-0.06818,0.13902,0.4991
-3.79829,0,0,18.7983,18.7983,11.2017,11.2017,1.9991,2.09202,1.96064,-0.0420489,-0.0902644,0.10649,0,0,1.225,-0.525,-1.19,-0.045872,-0.11285,-0.905728,-0.0665,0.14728,0.49112
-3.57893,0,0,18.5789,18.5789,11.4211,11.4211,1.88365,2.03178,1.98268,-0.0542402,0.107768,0.00417997,0,0,1.8375,-0.1925,-0.5075,-0.05917,0.086986,-1.00735,-0.0665,0.14728,0.49112
-3.36673,0,0,18.3667,18.3667,11.6333,11.6333,1.77196,1.97348,2.00596,-0.0532233,0.105822,0.00427765,0,0,2.765,0.2975,0.0875,-0.05917,0.086986,-1.00735,-0.0665,0.14728,0.49112
-3.11271,0,0,18.1127,18.1127,11.8873,11.8873,1.63827,2.06714,1.8962,0.0850946,0.137563,-0.0650535,0,0,3.8675,0.455,0.35,0.081374,0.121024,-1.07616,-0.0665,0.14728,0.49112
-2.86613,0,0,17.8661,17.8661,12.1339,12.1339,1.50849,2.15857,1.78738,0.0834998,0.135298,-0.0650502,0,0,4.725,0.28,1.015,0.081374,0.121024,-1.07616,-0.0665,0.14728,0.49112
-2.10465,0,0,17.1046,17.1046,12.8954,12.8954,1.10771,2.46447,1.49386,0.261366,0.408099,0.080834,0,0,5.6,0.5425,1.54,0.26535,0.400526,-0.931348,-0.0665,0.14728,0.49112
-1.35455,0,0,16.3546,16.3546,13.6454,13.6454,0.712924,2.7642,1.19646,0.25614,0.401213,0.0807047,0,0,5.5825,0.07,1.4,0.26535,0.400526,-0.931348,-0.0665,0.14728,0.49112
-1.36202,0,0,16.362,16.362,13.638,13.638,0.716853,2.76479,1.20087,-0.332955,0.0123073,0.220742,1,0,5.5125,0.5075,1.61,-0.326228,0.011956,-0.79239,-0.0665,0.14728,0.49112
-1.36925,0,0,16.3692,16.3692,13.6308,13.6308,0.720656,2.76569,1.20463,-0.33297,0.0123736,0.22074,1,0,5.46,0.6825,1.225,-0.326228,0.011956,-0.79239,-0.06552,0.14252,0.4914
-1.71572,0,0,16.7157,16.7157,13.2843,13.2843,0.90301,2.63767,1.28663,-0.109513,-0.180826,-0.0161214,0,0,4.0775,0.0175,1.1375,-0.104066,-0.18422,-1.02748,-0.06552,0.14252,0.4914
-2.05184,0,0,17.0518,17.0518,12.9482,12.9482,1.07991,2.51284,1.36578,-0.107336,-0.17774,-0.0160769,0,0,2.905,0.35,0.035,-0.104066,-0.18422,-1.02748,-0.06552,0.14252,0.4914
-2.04663,0,0,17.0466,17.0466,12.9534,12.9534,1.07718,2.51226,1.36591,0.0292236,-0.022687,-0.251891,1,0,1.89,-0.21,-0.875,0.033062,-0.02928,-1.26148,-0.06552,0.14252,0.4914
-2.03983,0,0,17.0398,17.0398,12.9602,12.9602,1.0736,2.51356,1.36614,0.029201,-0.0227494,-0.251891,1,0,1.4175,0.8925,-0.84,0.033062,-0.02928,-1.26148,-0.06552,0.14252,0.4914
-2.03381,0,0,17.0338,17.0338,12.9662,12.9662,1.07043,2.51482,1.36499,0.208127,0.104085,-0.149843,1,0,1.68,0.8575,-1.645,0.212768,0.097478,-1.16022,-0.06552,0.14252,0.4914
-2.02779,0,0,17.0278,17.0278,12.9722,12.9722,1.06726,2.51609,1.36383,0.208105,0.10403,-0.149843,1,0,1.68,0.8575,-1.645,0.212768,0.097478,-1.16022,-0.06552,0.14252,0.4914
-2.08338,0,0,17.0834,17.0834,12.9166,12.9166,1.09652,2.87865,1.00074,0.326915,-0.0263857,0.039559,0,0,4.795,-0.21,-2.7825,0.338428,-0.033306,-0.971974,-0.06552,0.14252,0.4914
-2.13765,0,0,17.1377,17.1377,12.8623,12.8623,1.12508,3.23384,0.639565,0.320724,-0.0258944,0.0392189,0,0,4.795,-0.21,-2.7825,0.338428,-0.033306,-0.971974,-0.0637,0.14154,0.48608
-2.29401,0,0,17.294,17.294,12.706,12.706,1.20738,3.24286,0.584756,0.0147877,-0.0801506,-0.0575797,0,0,6.3875,0.0875,-3.08,0.031354,-0.088938,-1.06799,-0.0637,0.14154,0.48608
-2.24446,0,0,17.2445,17.2445,12.7555,12.7555,1.18129,3.51032,0.296046,0.250183,0.0283264,-0.02219,0,0,4.865,0.1925,-3.465,0.272426,0.019886,-1.03261,-0.0637,0.14154,0.48608
-2.18812,0,0,17.1881,17.1881,12.8119,12.8119,1.15164,3.77244,0.00805418,0.245618,0.0278041,-0.02247,0,0,2.6775,0.0875,-3.2025,0.272426,0.019886,-1.03261,-0.0637,0.14154,0.48608
-1.95386,0,0,16.9539,16.9539,13.0461,13.0461,1.02835,3.78729,-0.0632834,0.0116207,0.121771,-0.0530604,0,0,1.9775,-0.0525,-2.9925,0.037698,0.1159,-1.06299,-0.0637,0.14154,0.48608
-1.7211,0,0,16.7211,16.7211,13.2789,13.2789,0.905841,3.80215,-0.13296,0.0113619,0.119637,-0.0530416,0,0,1.1375,0.21,-2.0825,0.037698,0.1159,-1.06299,-0.0637,0.14154,0.48608
-1.49684,0,0,16.4968,16.4968,13.5032,13.5032,0.78781,3.94211,-0.316411,0.108178,0.105856,0.0657151,0,0,1.61,0.07,-1.995,0.137372,0.104188,-0.945012,-0.0637,0.14154,0.48608
-1.28364,0,0,16.2836,16.2836,13.7164,13.7164,0.675602,4.07949,-0.498063,0.105787,0.1039,0.0655723,0,0,3.675,0.21,-0.84,0.137372,0.104188,-0.945012,-0.0637,0.14154,0.48608
-0.9426,0,0,15.9426,15.9426,14.0574,14.0574,0.496105,4.03672,-0.518742,-0.0466622,0.190661,-0.0833565,0,0,4.375,0.5775,-0.665,-0.01647,0.19398,-1.09288,-0.0637,0.14154,0.48608
-0.60791,0,0,15.6079,15.6079,14.3921,14.3921,0.319953,3.99028,-0.522182,-0.0458537,0.187595,-0.0832779,0,0,4.4275,-0.1925,-0.42,-0.01647,0.19398,-1.09288,-0.06538,0.13076,0.48412
-0.560013,0,0,15.56,15.56,14.44,14.44,0.294744,3.90867,-0.485392,-0.0737107,0.0259488,-0.0241622,0,0,4.06,0.245,-0.21,-0.045872,0.03294,-1.03432,-0.06538,0.13076,0.48412
-0.510856,0,0,15.5109,15.5109,14.4891,14.4891,0.268872,3.82778,-0.447951,-0.0723021,0.0254988,-0.0240647,0,0,3.4125,-0.245,0.1575,-0.045872,0.03294,-1.03432,-0.06538,0.13076,0.48412
-0.426612,0,0,15.4266,15.4266,14.5734,14.5734,0.224532,3.69094,-0.357589,-0.122644,0.0421914,0.00658644,0,0,3.1675,-0.1225,0.4375,-0.09882,0.050386,-1.00406,-0.06538,0.13076,0.48412
-0.343373,0,0,15.3434,15.3434,14.6566,14.6566,0.180723,3.55727,-0.267689,-0.120315,0.0414288,0.0067366,0,0,3.045,0.21,0.1225,-0.09882,0.050386,-1.00406,-0.06538,0.13076,0.48412
-0.343364,0,0,15.3434,15.3434,14.6566,14.6566,0.180718,3.55701,-0.265774,0.272331,-0.057616,-0.307642,1,0,3.36,-0.0175,0.1575,0.295484,-0.048556,-1.31601,-0.06538,0.13076,0.48412
-0.345664,0,0,15.3457,15.3457,14.6543,14.6543,0.181929,3.55723,-0.264399,0.272327,-0.0575949,-0.307643,1,0,4.06,0.2625,-0.1575,0.295484,-0.048556,-1.31601,-0.06538,0.13076,0.48412
-0.728435,0,0,15.7284,15.7284,14.2716,14.2716,0.383387,3.22077,0.0232775,-0.286598,-0.185614,0.0917779,0,0,3.6575,0.245,-0.4375,-0.271694,-0.17995,-0.920002,-0.06538,0.13076,0.48412
-1.10835,0,0,16.1084,16.1084,13.8916,13.8916,0.583344,2.88564,0.292729,-0.280757,-0.182126,0.09206,0,0,4.865,-0.035,-0.735,-0.271694,-0.17995,-0.920002,-0.0679,0.14126,0.4816
-1.11143,0,0,16.1114,16.1114,13.8886,13.8886,0.584962,2.88456,0.292591,0.00851922,-0.132759,-0.317604,1,0,4.34,-0.5075,-1.0325,0.018788,-0.130662,-1.32651,-0.0679,0.14126,0.4816
-1.11286,0,0,16.1129,16.1129,13.8871,13.8871,0.585717,2.88359,0.292063,0.00853601,-0.132746,-0.317603,1,0,3.8675,-0.4375,-1.26,0.018788,-0.130662,-1.32651,-0.0679,0.14126,0.4816
-1.11305,0,0,16.113,16.113,13.887,13.887,0.585816,2.8832,0.291511,-0.130558,0.134103,0.13743,1,0,3.5,-0.105,-1.2775,-0.120902,0.135908,-0.874984,-0.0679,0.14126,0.4816
-1.11178,0,0,16.1118,16.1118,13.8882,13.8882,0.585147,2.88319,0.290603,-0.130558,0.134091,0.13743,1,0,3.08,0.1225,-1.4875,-0.120902,0.135908,-0.874984,-0.0679,0.14126,0.4816
-1.11065,0,0,16.1107,16.1107,13.8893,13.8893,0.584553,2.88388,0.289942,0.0266324,-0.0194325,0.127716,1,0,3.115,0.525,-1.3475,0.036966,-0.017446,-0.884622,-0.0679,0.14126,0.4816
-1.11261,0,0,16.1126,16.1126,13.8874,13.8874,0.585583,2.88468,0.289282,0.0266185,-0.0194145,0.127716,1,0,4.025,0.595,-1.3475,0.036966,-0.017446,-0.884622,-0.0679,0.14126,0.4816
-1.11365,0,0,16.1136,16.1136,13.8864,13.8864,0.58613,2.8853,0.288951,-0.0456763,-0.147516,0.24427,1,0,3.745,0.49,-1.155,-0.035624,-0.145424,-0.768966,-0.0679,0.14126,0.4816
-1.11469,0,0,16.1147,16.1147,13.8853,13.8853,0.586676,2.88591,0.28862,-0.0456871,-0.147506,0.244269,1,0,3.745,0.49,-1.155,-0.035624,-0.145424,-0.768966,-0.0693,0.13146,0.48244
-1.1194,0,0,16.1194,16.1194,13.8806,13.8806,0.589159,2.88674,0.288921,-0.0459444,0.000920822,-0.196502,1,0,4.8125,0.6125,-0.7875,-0.035868,0.002806,-1.20634,-0.0693,0.13146,0.48244
-1.12412,0,0,16.1241,16.1241,13.8759,13.8759,0.591641,2.88756,0.289223,-0.0459587,0.000964086,-0.196503,1,0,4.8125,0.6125,-0.7875,-0.035868,0.002806,-1.20634,-0.0693,0.13146,0.48244
-1.12616,0,0,16.1262,16.1262,13.8738,13.8738,0.592716,2.88838,0.289464,-0.00758352,-0.165964,-0.123842,1,0,4.025,0.6125,-0.8225,0.002684,-0.163968,-1.13423,-0.0693,0.13146,0.48244
-1.1282,0,0,16.1282,16.1282,13.8718,13.8718,0.593791,2.8892,0.289706,-0.00759784,-0.165946,-0.123843,1,0,4.025,0.6125,-0.8225,0.002684,-0.163968,-1.13423,-0.0693,0.13146,0.48244
-0.918938,0,0,15.9189,15.9189,14.0811,14.0811,0.483651,2.94235,0.22013,0.0502748,0.113392,-0.0582172,0,0,3.325,0.63,-0.1925,0.061732,0.116998,-1.06909,-0.0693,0.13146,0.48244
-0.713335,0,0,15.7133,15.7133,14.2867,14.2867,0.375439,2.99444,0.150534,0.0493668,0.111506,-0.0582501,0,0,3.325,0.63,-0.1925,0.061732,0.116998,-1.06909,-0.0693,0.13146,0.48244
-0.992007,0,0,15.992,15.992,14.008,14.008,0.522109,3.25459,-0.101172,0.221473,-0.139842,0.0826273,0,0,2.17,0.455,-0.56,0.23912,-0.13664,-0.92903,-0.0693,0.13146,0.48244
-1.26593,0,0,16.2659,16.2659,13.7341,13.7341,0.666279,3.50896,-0.348491,0.217041,-0.137333,0.0823394,0,0,2.17,0.455,-0.56,0.23912,-0.13664,-0.92903,-0.06566,0.12908,0.48174
-1.27473,0,0,16.2747,16.2747,13.7253,13.7253,0.67091,3.10389,-0.00587067,-0.392683,-0.00828159,-0.045858,0,0,2.555,-0.245,-1.1725,-0.380274,-0.007808,-1.05664,-0.06566,0.12908,0.48174
-1.28303,0,0,16.283,16.283,13.717,13.717,0.67528,2.70618,0.336088,-0.385751,-0.00820129,-0.0455071,0,0,2.555,-0.245,-1.1725,-0.380274,-0.007808,-1.05664,-0.06566,0.12908,0.48174
-1.76264,0,0,16.7626,16.7626,13.2374,13.2374,0.927705,2.77093,0.269542,0.0518051,-0.227172,0.104866,0,0,3.3775,-0.07,-1.5575,0.060268,-0.230946,-0.907314,-0.06566,0.12908,0.48174
-2.23406,0,0,17.2341,17.2341,12.7659,12.7659,1.17582,2.83446,0.203555,0.0506976,-0.222848,0.104733,0,0,3.3775,-0.07,-1.5575,0.060268,-0.230946,-0.907314,-0.06566,0.12908,0.48174
-2.21497,0,0,17.215,17.215,12.785,12.785,1.16577,3.08529,-0.0419964,0.247263,0.00876872,-0.057167,0,0,3.325,-0.56,-2.03,0.262056,0.00061,-1.06774,-0.06566,0.12908,0.48174
-2.19602,0,0,17.196,17.196,12.804,12.804,1.1558,3.33133,-0.287172,0.242975,0.00859008,-0.0574038,0,0,3.325,-0.56,-2.03,0.262056,0.00061,-1.06774,-0.06566,0.12908,0.48174
-2.1594,0,0,17.1594,17.1594,12.8406,12.8406,1.13652,3.52801,-0.491477,0.176984,0.0185088,0.00620792,0,0,3.325,-0.14,-1.9775,0.199226,0.010858,-1.00443,-0.06566,0.12908,0.48174
-2.12326,0,0,17.1233,17.1233,12.8767,12.8767,1.11751,3.72117,-0.698288,0.173619,0.0181735,0.00600135,0,0,3.325,-0.14,-1.9775,0.199226,0.010858,-1.00443,-0.06566,0.13104,0.47432
-2.12241,0,0,17.1224,17.1224,12.8776,12.8776,1.11706,3.72109,-0.699499,-0.578133,0.0555364,-0.0731772,1,0,3.22,0.07,-1.6625,-0.55571,0.04819,-1.08299,-0.06566,0.13104,0.47432
-2.12155,0,0,17.1215,17.1215,12.8785,12.8785,1.1166,3.72101,-0.70071,-0.578131,0.0555285,-0.073177,1,0,3.22,0.07,-1.6625,-0.55571,0.04819,-1.08299,-0.06566,0.13104,0.47432
-2.46833,0,0,17.4683,17.4683,12.5317,12.5317,1.29912,3.52795,-0.552756,-0.170464,-0.187252,-0.0218845,0,0,3.045,-0.315,-1.7675,-0.149694,-0.197518,-1.03224,-0.06566,0.13104,0.47432
-2.80893,0,0,17.8089,17.8089,12.1911,12.1911,1.47838,3.3387,-0.406368,-0.167167,-0.184125,-0.0217624,0,0,3.045,-0.315,-1.7675,-0.149694,-0.197518,-1.03224,-0.06566,0.13104,0.47432
-2.80768,0,0,17.8077,17.8077,12.1923,12.1923,1.47772,3.34523,-0.406446,0.457884,-0.00973948,-0.170782,1,0,3.0625,3.955,-1.1025,0.478118,-0.023302,-1.18011,-0.06566,0.13104,0.47432
-2.80642,0,0,17.8064,17.8064,12.1936,12.1936,1.47707,3.35176,-0.406525,0.457771,-0.00975113,-0.170789,1,0,3.0625,3.955,-1.1025,0.478118,-0.023302,-1.18011,-0.06566,0.13104,0.47432
-2.82311,0,0,17.8231,17.8231,12.1769,12.1769,1.48585,3.33092,-0.407766,-0.0225851,-0.0105747,-0.0508967,0,0,3.255,4.2,-0.7525,-0.004636,-0.024278,-1.06116,-0.06566,0.13104,0.47432
-2.83949,0,0,17.8395,17.8395,12.1605,12.1605,1.49447,3.31049,-0.409015,-0.0222291,-0.0104239,-0.0508799,0,0,3.255,4.2,-0.7525,-0.004636,-0.024278,-1.06116,-0.06566,0.13104,0.47432
-2.93538,0,0,17.9354,17.9354,12.0646,12.0646,1.54494,3.2226,-0.348053,-0.0762166,-0.0487452,0.0250433,0,0,2.5725,0.5075,-0.1575,-0.06039,-0.06344,-0.985882,-0.06776,0.12838,0.48076
-3.12978,0,0,18.1298,18.1298,11.8702,11.8702,1.64725,3.08768,-0.240516,-0.115778,-0.0975197,0.0435655,0,0,1.96,0.98,-0.0525,-0.10248,-0.113948,-0.967582,-0.06776,0.12838,0.48076
-3.32101,0,0,18.321,18.321,11.679,11.679,1.7479,2.95493,-0.133881,-0.113464,-0.0957627,0.0436356,0,0,2.065,0.6825,-0.1225,-0.10248,-0.113948,-0.967582,-0.06776,0.12838,0.48076
-2.85678,0,0,17.8568,17.8568,12.1432,12.1432,1.50357,3.16424,-0.344645,0.157081,0.219581,0.129625,0,0,2.2925,0.4025,-0.315,0.172874,0.205326,-0.882182,-0.06776,0.12838,0.48076
-2.40362,0,0,17.4036,17.4036,12.5964,12.5964,1.26506,3.36882,-0.556199,0.153516,0.215421,0.129522,0,0,3.325,-0.0525,-0.0875,0.172874,0.205326,-0.882182,-0.06776,0.12838,0.48076
-2.40487,0,0,17.4049,17.4049,12.5951,12.5951,1.26572,3.3691,-0.554577,-0.211189,0.118586,0.13653,1,0,3.745,0.315,-0.0175,-0.19337,0.10858,-0.875228,-0.06776,0.12838,0.48076
-2.40717,0,0,17.4072,17.4072,12.5928,12.5928,1.26693,3.36881,-0.553148,-0.211184,0.118607,0.13653,1,0,4.06,-0.0175,-0.1225,-0.19337,0.10858,-0.875228,-0.06776,0.12838,0.48076
-2.40889,0,0,17.4089,17.4089,12.5911,12.5911,1.26784,3.36935,-0.552062,0.146461,0.253695,0.155586,1,0,3.9025,0.455,-0.3325,0.165798,0.243512,-0.856318,-0.06776,0.12838,0.48076
-2.40917,0,0,17.4092,17.4092,12.5908,12.5908,1.26798,3.37009,-0.551182,0.146448,0.253698,0.155585,1,0,3.4825,0.5775,-0.455,0.165798,0.243512,-0.856318,-0.0679,0.12698,0.47768
-2.66981,0,0,17.6698,17.6698,12.3302,12.3302,1.40517,3.2051,-0.415576,-0.14856,-0.142408,-0.036597,0,0,3.185,0.3325,-0.4375,-0.133346,-0.154574,-1.04713,-0.0679,0.12698,0.47768
-2.92632,0,0,17.9263,17.9263,12.0737,12.0737,1.54017,3.04408,-0.281562,-0.145754,-0.140052,-0.0365043,0,0,3.36,0.7525,-0.7175,-0.133346,-0.154574,-1.04713,-0.0679,0.12698,0.47768
-2.92718,0,0,17.9272,17.9272,12.0728,12.0728,1.54062,3.04441,-0.281891,0.0798393,0.208383,-0.238755,1,0,3.6925,0.315,-1.155,0.093208,0.193492,-1.24782,-0.0679,0.12698,0.47768
-2.92924,0,0,17.9292,17.9292,12.0708,12.0708,1.5417,3.04394,-0.282692,0.0798475,0.208402,-0.238755,1,0,4.06,-0.1575,-1.4175,0.093208,0.193492,-1.24782,-0.0679,0.12698,0.47768
-2.7844,0,0,17.7844,17.7844,12.2156,12.2156,1.46547,2.6609,0.0414247,-0.327499,0.0744527,0.0874258,0,0,4.4975,0.035,-1.3475,-0.322568,0.061,-0.924516,-0.0679,0.12698,0.47768
-2.64003,0,0,17.64,17.64,12.36,12.36,1.38949,2.28391,0.365226,-0.320925,0.0731352,0.0877425,0,0,4.025,-0.525,-1.75,-0.322568,0.061,-0.924516,-0.0679,0.12698,0.47768
-2.89848,0,0,17.8985,17.8985,12.1015,12.1015,1.52552,2.48983,0.179229,0.187182,-0.135654,0.0137635,0,0,3.9025,-0.6825,-1.96,0.191296,-0.149938,-0.997716,-0.0679,0.12698,0.47768
-3.14669,0,0,18.1467,18.1467,11.8533,11.8533,1.65615,2.69212,0.00449731,0.183655,-0.133382,0.0135407,0,0,2.205,-0.84,-2.0475,0.191296,-0.149938,-0.997716,-0.06496,0.11984,0.47194
-3.14187,0,0,18.1419,18.1419,11.8581,11.8581,1.65361,2.69036,0.00293738,0.177125,0.102523,-0.123175,1,0,2.0475,-0.9275,-1.8375,0.184708,0.085766,-1.13338,-0.06496,0.11984,0.47194
-3.13795,0,0,18.1379,18.1379,11.8621,11.8621,1.65155,2.6896,0.000835783,0.177138,0.102487,-0.123174,1,0,2.3275,-0.35,-2.17,0.184708,0.085766,-1.13338,-0.06496,0.11984,0.47194
-3.26858,0,0,18.2686,18.2686,11.7314,11.7314,1.7203,2.60494,0.0788841,-0.0754122,-0.0686339,0.00079137,0,0,2.94,0.385,-2.31,-0.070394,-0.086376,-1.0104,-0.06496,0.11984,0.47194
-3.39958,0,0,18.3996,18.3996,11.6004,11.6004,1.78925,2.52222,0.156797,-0.07397,-0.0674303,0.000819099,0,0,3.7275,0.56,-2.1525,-0.070394,-0.086376,-1.0104,-0.06496,0.11984,0.47194
-3.41728,0,0,18.4173,18.4173,11.5827,11.5827,1.79857,2.50607,0.173643,-0.0139174,-0.00913529,-0.0199519,0,0,3.92,0.2625,-1.9425,-0.01037,-0.028304,-1.03102,-0.06496,0.11984,0.47194
-3.43483,0,0,18.4348,18.4348,11.5652,11.5652,1.80781,2.48953,0.19111,-0.0136289,-0.00897385,-0.0199444,0,0,3.955,-0.14,-1.54,-0.01037,-0.028304,-1.03102,-0.06496,0.11984,0.47194
-3.31082,0,0,18.3108,18.3108,11.6892,11.6892,1.74254,2.45414,0.222855,-0.0315992,0.0623106,0.0579439,0,0,3.605,0.035,-1.4525,-0.029036,0.044042,-0.953796,-0.06496,0.11984,0.47194
-3.18721,0,0,18.1872,18.1872,11.8128,11.8128,1.67748,2.41933,0.251886,-0.0309922,0.0611774,0.0580035,0,0,3.08,-0.1575,-1.54,-0.029036,0.044042,-0.953796,-0.06412,0.12138,0.47558
-2.98029,0,0,17.9803,17.9803,12.0197,12.0197,1.56857,2.47602,0.199096,0.0426115,0.0997018,0.0861703,0,0,2.8175,0.1225,-0.91,0.045872,0.084424,-0.925858,-0.06412,0.12138,0.47558
-2.77787,0,0,17.7779,17.7779,12.2221,12.2221,1.46204,2.53236,0.146573,0.0416292,0.0978438,0.0861765,0,0,3.08,0.56,-0.7525,0.045872,0.084424,-0.925858,-0.06412,0.12138,0.47558
-3.36568,0,0,18.3657,18.3657,11.6343,11.6343,1.77141,2.30285,0.366875,-0.192602,-0.274619,0.151479,0,0,2.8875,0.4725,-0.63,-0.19337,-0.293044,-0.861076,-0.06412,0.12138,0.47558
-3.94496,0,0,18.945,18.945,11.055,11.055,2.0763,2.07716,0.584832,-0.188666,-0.2693,0.151451,0,0,3.29,0.2625,-0.21,-0.19337,-0.293044,-0.861076,-0.06412,0.12138,0.47558
-3.93581,0,0,18.9358,18.9358,11.0642,11.0642,2.07148,2.32615,0.371975,0.241303,0.00270882,-0.0548977,0,0,3.2725,0.315,-0.245,0.24278,-0.021228,-1.06567,-0.06412,0.12138,0.47558
-3.92813,0,0,18.9281,18.9281,11.0719,11.0719,2.06744,2.5702,0.159404,0.237047,0.00263181,-0.055077,0,0,3.71,0.21,-0.315,0.24278,-0.021228,-1.06567,-0.06412,0.12138,0.47558
-3.93116,0,0,18.9312,18.9312,11.0688,11.0688,2.06903,2.57145,0.160764,-0.106172,0.0660433,-0.22401,1,0,4.2875,0.8925,-0.1925,-0.10187,0.04209,-1.2333,-0.06412,0.12138,0.47558
-3.93182,0,0,18.9318,18.9318,11.0682,11.0682,2.06938,2.57183,0.161521,-0.106178,0.0660493,-0.224011,1,0,3.605,0.3675,-0.525,-0.10187,0.04209,-1.2333,-0.0651,0.12194,0.46844
-4.11357,0,0,19.1136,19.1136,10.8864,10.8864,2.16503,2.55736,0.17839,-0.0108027,-0.0997193,-0.040376,0,0,3.675,-0.1925,-0.35,-0.006344,-0.125172,-1.05103,-0.0651,0.12194,0.46844
-4.28975,0,0,19.2898,19.2898,10.7102,10.7102,2.25776,2.54359,0.195125,-0.0105625,-0.0981032,-0.0404277,0,0,2.975,0.0525,-0.35,-0.006344,-0.125172,-1.05103,-0.0651,0.12194,0.46844
-4.28837,0,0,19.2884,19.2884,10.7116,10.7116,2.25704,2.54308,0.196239,-0.00788101,0.158228,-0.12895,1,0,2.9925,-0.14,-0.2975,-0.00366,0.130906,-1.13887,-0.0651,0.12194,0.46844
-4.28883,0,0,19.2888,19.2888,10.7112,10.7112,2.25728,2.54216,0.197457,-0.00786484,0.158232,-0.128949,1,0,3.535,-0.385,-0.2275,-0.00366,0.130906,-1.13887,-0.0651,0.12194,0.46844
-4.51707,0,0,19.5171,19.5171,10.4829,10.4829,2.37741,2.70917,0.0558242,0.159182,-0.128266,-0.0386772,0,0,3.535,-0.0175,-0.245,0.167018,-0.15738,-1.04908,-0.0651,0.12194,0.46844
-4.74515,0,0,19.7452,19.7452,10.2548,10.2548,2.49745,2.8732,-0.0855974,0.156322,-0.126181,-0.0389054,0,0,4.6725,0.14,-0.665,0.167018,-0.15738,-1.04908,-0.0651,0.12194,0.46844
-4.74745,0,0,19.7475,19.7475,10.2525,10.2525,2.49866,2.8734,-0.0851448,0.00276083,0.0398103,-0.15165,1,0,4.095,0.2625,-0.7,0.01281,0.008418,-1.16095,-0.0651,0.12194,0.46844
-4.74667,0,0,19.7467,19.7467,10.2533,10.2533,2.49825,2.8731,-0.0846843,0.00276608,0.0398031,-0.15165,1,0,3.185,-0.035,-0.6825,0.01281,0.008418,-1.16095,-0.0651,0.12194,0.46844
-4.74476,0,0,19.7448,19.7448,10.2552,10.2552,2.49724,2.87349,-0.0842239,-0.239362,-0.0168812,0.177484,1,0,2.8525,0.3675,-0.7,-0.230336,-0.04819,-0.834358,-0.05782,0.12068,0.47614
-4.73907,0,0,19.7391,19.7391,10.2609,10.2609,2.49425,2.87303,-0.0841912,-0.0667224,0.200086,0.191871,1,0,1.75,-0.14,-0.9275,-0.056974,0.168604,-0.820084,-0.05782,0.12068,0.47614
-4.73877,0,0,19.7388,19.7388,10.2612,10.2612,2.49409,2.87215,-0.084898,-0.0667071,0.200083,0.191872,1,0,3.36,-0.4025,-1.3475,-0.056974,0.168604,-0.820084,-0.05782,0.12068,0.47614
-4.65169,0,0,19.6517,19.6517,10.3483,10.3483,2.44826,2.66142,0.0963641,-0.177109,0.0448023,0.0832748,0,0,3.2725,0.3675,-1.2425,-0.171532,0.014274,-0.928054,-0.05782,0.12068,0.47614
-4.57206,0,0,19.5721,19.5721,10.4279,10.4279,2.40635,2.45489,0.276821,-0.173507,0.044079,0.0834664,0,0,5.075,0.455,-1.6975,-0.171532,0.014274,-0.928054,-0.05782,0.12068,0.47614
-4.81365,0,0,19.8136,19.8136,10.1864,10.1864,2.5335,2.49375,0.247844,0.0362281,-0.128104,-0.0175991,0,0,4.7775,0.175,-1.61,0.039772,-0.159942,-1.02822,-0.05782,0.12068,0.47614
-5.05173,0,0,20.0517,20.0517,9.94827,9.94827,2.65881,2.53188,0.218021,0.0355632,-0.125923,-0.0177272,0,0,5.005,0.175,-2.1875,0.039772,-0.159942,-1.02822,-0.05782,0.12068,0.47614
-5.05633,0,0,20.0563,20.0563,9.94367,9.94367,2.66123,2.53207,0.215558,0.142467,-0.021218,0.124768,1,0,4.8475,0.175,-2.3975,0.147132,-0.055388,-0.886818,-0.05782,0.12068,0.47614
-5.05724,0,0,20.0572,20.0572,9.94276,9.94276,2.6617,2.53251,0.212897,0.14246,-0.0212097,0.124767,1,0,3.7625,0.315,-2.52,0.147132,-0.055388,-0.886818,-0.0602,0.12824,0.47544
-5.4543,0,0,20.4543,20.4543,9.5457,9.5457,2.87068,2.37352,0.347644,-0.145605,-0.219195,-0.0202462,0,0,3.9725,0.525,-2.555,-0.144936,-0.25681,-1.03066,-0.0602,0.12824,0.47544
-5.8411,0,0,20.8411,20.8411,9.1589,9.1589,3.07426,2.2164,0.479974,-0.142865,-0.215644,-0.0203207,0,0,2.9925,-0.2275,-3.045,-0.144936,-0.25681,-1.03066,-0.0602,0.12824,0.47544
-5.83792,0,0,20.8379,20.8379,9.16208,9.16208,3.07259,2.21569,0.476232,0.0900357,-0.0611831,0.220046,1,0,2.5725,-0.4025,-3.115,0.088938,-0.10248,-0.792146,-0.0602,0.12824,0.47544
-5.83781,0,0,20.8378,20.8378,9.16219,9.16219,3.07253,2.21522,0.473133,0.090044,-0.061184,0.220046,1,0,3.465,-0.245,-2.7475,0.088938,-0.10248,-0.792146,-0.0602,0.12824,0.47544
-5.83852,0,0,20.8385,20.8385,9.16148,9.16148,3.07291,2.21429,0.470642,-0.180246,0.143751,-0.0976526,1,0,3.6925,-0.49,-2.38,-0.182512,0.102236,-1.10739,-0.0602,0.12824,0.47544
-5.84073,0,0,20.8407,20.8407,9.15927,9.15927,3.07407,2.21311,0.469128,-0.180225,0.143771,-0.0976529,1,0,4.1125,-0.6125,-1.8025,-0.182512,0.102236,-1.10739,-0.0602,0.12824,0.47544
-5.70372,0,0,20.7037,20.7037,9.29628,9.29628,3.00196,2.39515,0.300226,0.146434,0.072286,0.079455,0,0,4.165,-0.1925,-1.3825,0.148718,0.032086,-0.931592,-0.0602,0.12824,0.47544
-5.57058,0,0,20.5706,20.5706,9.42942,9.42942,2.93188,2.57404,0.137759,0.143315,0.0710588,0.0793831,0,0,4.62,0.3675,-0.7525,0.148718,0.032086,-0.931592,-0.05992,0.1246,0.47614
-5.42314,0,0,20.4231,20.4231,9.57686,9.57686,2.85428,2.34854,0.331674,-0.207248,0.079486,-0.0305417,0,0,4.0775,0.805,0.28,-0.207278,0.041846,-1.0409,-0.05992,0.1246,0.47614
-5.27809,0,0,20.2781,20.2781,9.72191,9.72191,2.77794,2.1273,0.525808,-0.20339,0.0781637,-0.0303257,0,0,4.0775,0.805,0.28,-0.207278,0.041846,-1.0409,-0.05992,0.1246,0.47614
-4.85403,0,0,19.854,19.854,10.146,10.146,2.55475,2.36064,0.317877,0.212395,0.229735,0.0126052,0,0,3.5175,0.6475,1.505,0.214354,0.197152,-0.998326,-0.05992,0.1246,0.47614
-4.43674,0,0,19.4367,19.4367,10.5633,10.5633,2.33513,2.58973,0.108745,0.208401,0.225902,0.012596,0,0,3.5175,0.6475,1.505,0.214354,0.197152,-0.998326,-0.05992,0.1246,0.47614
-4.27958,0,0,19.2796,19.2796,10.7204,10.7204,2.25241,2.49809,0.192634,-0.0846044,0.0797435,0.0830512,0,0,4.13,4.2525,1.7675,-0.081496,0.052582,-0.928542,-0.05992,0.1246,0.47614
-4.12511,0,0,19.1251,19.1251,10.8749,10.8749,2.17111,2.40821,0.276668,-0.083037,0.0783295,0.083173,0,0,4.13,4.2525,1.7675,-0.081496,0.052582,-0.928542,-0.05992,0.1246,0.47614
-4.24561,0,0,19.2456,19.2456,10.7544,10.7544,2.23453,2.39297,0.295023,-0.0151038,-0.0575911,0.0240034,0,0,5.075,0.91,1.715,-0.013542,-0.084302,-0.987224,-0.05992,0.1246,0.47614
-4.0728,0,0,19.0728,19.0728,10.9272,10.9272,2.14358,2.35004,0.338208,-0.0391382,0.0934836,-0.0334449,0,0,4.165,0.8225,1.12,-0.03843,0.068198,-1.04432,-0.0567,0.11984,0.47628
-3.90099,0,0,18.901,18.901,11.099,11.099,2.05315,2.30741,0.380233,-0.0383948,0.0919088,-0.033357,0,0,3.605,0.49,0.385,-0.03843,0.068198,-1.04432,-0.0567,0.11984,0.47628
-3.82109,0,0,18.8211,18.8211,11.1789,11.1789,2.0111,2.10725,0.565755,-0.176435,0.0415972,0.037253,0,0,3.5,0.455,-0.245,-0.18056,0.018666,-0.974414,-0.0567,0.11984,0.47628
-3.74247,0,0,18.7425,18.7425,11.2575,11.2575,1.96972,1.91086,0.751242,-0.173009,0.04088,0.0373981,0,0,3.5,0.455,-0.245,-0.18056,0.018666,-0.974414,-0.0567,0.11984,0.47628
-3.7002,0,0,18.7002,18.7002,11.2998,11.2998,1.94748,1.90308,0.765988,-0.0059522,0.0232725,-0.0126241,0,0,4.2175,-0.21,-2.31,-0.012932,0.001464,-1.02407,-0.0567,0.11984,0.47628
-3.70072,0,0,18.7007,18.7007,11.2993,11.2993,1.94775,1.90284,0.762821,0.0982866,0.101194,-0.151064,1,0,3.64,-0.07,-2.8,0.091744,0.0793,-1.16144,-0.0567,0.11984,0.47628
-3.70559,0,0,18.7056,18.7056,11.2944,11.2944,1.95031,1.90305,0.759187,0.0982831,0.101239,-0.151066,1,0,4.935,0.175,-3.08,0.091744,0.0793,-1.16144,-0.0567,0.11984,0.47628
-3.70814,0,0,18.7081,18.7081,11.2919,11.2919,1.95165,1.90355,0.755354,-0.0573489,0.100529,-0.221639,1,0,4.2525,0.35,-3.2025,-0.064538,0.078568,-1.23147,-0.0567,0.11984,0.47628
-3.70965,0,0,18.7097,18.7097,11.2903,11.2903,1.95245,1.90393,0.750136,-0.0573555,0.100543,-0.22164,1,0,3.9725,0.245,-4.0075,-0.064538,0.078568,-1.23147,-0.0644,0.12138,0.47362
-3.71086,0,0,18.7109,18.7109,11.2891,11.2891,1.95308,1.90448,0.744833,-0.0684204,0.161862,-0.123282,1,0,3.885,0.35,-4.06,-0.07564,0.139812,-1.13387,-0.0644,0.12138,0.47362
-3.71087,0,0,18.7109,18.7109,11.2891,11.2891,1.95309,1.9046,0.741167,-0.0684223,0.161862,-0.123282,1,0,3.5,0.1225,-3.0975,-0.07564,0.139812,-1.13387,-0.0644,0.12138,0.47362
-3.71174,0,0,18.7117,18.7117,11.2883,11.2883,1.95355,1.90481,0.738045,0.28777,-0.0514854,-0.154265,1,0,3.745,0.1925,-2.7825,0.282064,-0.073322,-1.16461,-0.0644,0.12138,0.47362
-3.7096,0,0,18.7096,18.7096,11.2904,11.2904,1.95242,1.9046,0.735959,0.287774,-0.0515051,-0.154265,1,0,2.835,-0.035,-2.17,0.282064,-0.073322,-1.16461,-0.0644,0.12138,0.47362
-3.7082,0,0,18.7082,18.7082,11.2918,11.2918,1.95169,1.90482,0.734488,0.128259,0.193102,-0.14406,1,0,3.045,0.2275,-1.82,0.121878,0.171044,-1.15449,-0.0644,0.12138,0.47362
-3.70663,0,0,18.7066,18.7066,11.2934,11.2934,1.95086,1.90473,0.734958,0.128261,0.193088,-0.144059,1,0,2.9575,0.0875,-0.6825,0.121878,0.171044,-1.15449,-0.0644,0.12138,0.47362
-3.59333,0,0,18.5933,18.5933,11.4067,11.4067,1.89122,1.6641,0.958789,-0.220457,0.060766,-0.0123386,0,0,3.8675,0.2275,-0.5425,-0.232532,0.039894,-1.02395,-0.0644,0.12138,0.47362
-3.47957,0,0,18.4796,18.4796,11.5204,11.5204,1.83135,1.42925,1.17146,-0.21636,0.0597256,-0.0121941,0,0,3.185,0.5075,-0.5775,-0.232532,0.039894,-1.02395,-0.06426,0.12894,0.47964
-3.48129,0,0,18.4813,18.4813,11.5187,11.5187,1.83226,1.42983,1.17268,0.135209,-0.194771,-0.0838738,1,0,3.92,0.49,-0.2625,0.120536,-0.214354,-1.09507,-0.06426,0.12894,0.47964
-3.48303,0,0,18.483,18.483,11.517,11.517,1.83318,1.43081,1.17435,0.135192,-0.194755,-0.0838747,1,0,3.92,0.735,0,0.120536,-0.214354,-1.09507,-0.06426,0.12894,0.47964
-3.7143,0,0,18.7143,18.7143,11.2857,11.2857,1.95489,1.54715,1.08081,0.104735,-0.122655,-0.001991,0,0,4.0775,0.665,0.1225,0.091988,-0.144448,-1.0137,-0.06426,0.12894,0.47964
-3.94521,0,0,18.9452,18.9452,11.0548,11.0548,2.07643,1.66036,0.988029,0.10276,-0.120538,-0.00212083,0,0,5.145,0.1575,0.2275,0.091988,-0.144448,-1.0137,-0.06426,0.12894,0.47964
-3.4682,0,0,18.4682,18.4682,11.5318,11.5318,1.82537,1.97353,0.708068,0.260573,0.242558,0.129287,0,0,4.8475,0.0525,0.1225,0.255956,0.22265,-0.88328,-0.06426,0.12894,0.47964
-2.99669,0,0,17.9967,17.9967,12.0033,12.0033,1.57721,2.27972,0.42587,0.255233,0.238226,0.129217,0,0,4.34,-0.84,0.035,0.255956,0.22265,-0.88328,-0.06426,0.12894,0.47964
-2.73651,0,0,17.7365,17.7365,12.2635,12.2635,1.44027,2.0207,0.648574,-0.235668,0.138141,0.0155994,0,0,3.6575,-0.8575,-0.0875,-0.24156,0.12505,-0.996252,-0.06426,0.12894,0.47964
-2.47667,0,0,17.4767,17.4767,12.5233,12.5233,1.30351,1.76475,0.884919,-0.231203,0.13576,0.015804,0,0,2.5375,-0.35,-0.35,-0.24156,0.12505,-0.996252,-0.06608,0.11998,0.47362
-2.47321,0,0,17.4732,17.4732,12.5268,12.5268,1.30169,1.7644,0.885624,-0.0478752,-0.229797,-0.0855046,1,0,2.3975,-0.07,-0.5425,-0.057462,-0.240096,-1.09678,-0.06608,0.11998,0.47362
-2.46872,0,0,17.4687,17.4687,12.5313,12.5313,1.29933,1.76385,0.886834,-0.0478657,-0.229838,-0.0855034,1,0,2.0825,-0.175,-0.245,-0.057462,-0.240096,-1.09678,-0.06608,0.11998,0.47362
-2.37319,0,0,17.3732,17.3732,12.6268,12.6268,1.24905,1.89965,0.778723,0.13005,0.0488313,-0.029741,0,0,1.8725,-0.21,-0.175,0.123586,0.039162,-1.04139,-0.06608,0.11998,0.47362
-2.27924,0,0,17.2792,17.2792,12.7208,12.7208,1.1996,2.03291,0.670628,0.127726,0.0479674,-0.0298024,0,0,1.8725,-0.21,-0.175,0.123586,0.039162,-1.04139,-0.06608,0.11998,0.47362
-2.28311,0,0,17.2831,17.2831,12.7169,12.7169,1.20164,2.03328,0.67255,-0.249372,-0.021243,-0.133203,1,0,4.5325,0.3675,0.1575,-0.255102,-0.030012,-1.14399,-0.06608,0.11998,0.47362
-2.28698,0,0,17.287,17.287,12.713,12.713,1.20367,2.03364,0.674471,-0.249379,-0.0212075,-0.133204,1,0,4.5325,0.3675,0.1575,-0.255102,-0.030012,-1.14399,-0.06608,0.11998,0.47362
-2.38834,0,0,17.3883,17.3883,12.6117,12.6117,1.25702,2.09493,0.633797,0.0541169,-0.0508098,0.00234969,0,0,4.8125,0.7,-0.28,0.050752,-0.060512,-1.00943,-0.06608,0.11998,0.47362
-2.48793,0,0,17.4879,17.4879,12.5121,12.5121,1.30944,2.15493,0.59037,0.0530705,-0.0498966,0.0022904,0,0,4.8125,0.7,-0.28,0.050752,-0.060512,-1.00943,-0.06664,0.12194,0.47572
-2.82574,0,0,17.8257,17.8257,12.1743,12.1743,1.48723,2.29279,0.480346,0.121249,-0.178452,0.0274488,0,0,3.2025,1.225,-0.9275,0.121634,-0.192028,-0.984296,-0.06664,0.12194,0.47572
-3.15787,0,0,18.1579,18.1579,11.8421,11.8421,1.66204,2.42799,0.37125,0.118892,-0.175407,0.0272679,0,0,3.2025,1.225,-0.9275,0.121634,-0.192028,-0.984296,-0.06664,0.12194,0.47572
-2.88777,0,0,17.8878,17.8878,12.1122,12.1122,1.51988,2.6608,0.157248,0.217974,0.148066,-0.00284306,0,0,3.57,0.5775,-2.3625,0.225212,0.13359,-1.01406,-0.06664,0.12194,0.47572
-2.62191,0,0,17.6219,17.6219,12.3781,12.3781,1.37995,2.88933,-0.0573858,0.21399,0.145623,-0.00297438,0,0,3.57,0.5775,-2.3625,0.225212,0.13359,-1.01406,-0.06664,0.12194,0.47572
-2.73906,0,0,17.7391,17.7391,12.2609,12.2609,1.44161,2.9052,-0.0771501,0.0179997,-0.0651929,-0.0710054,0,0,5.0225,0.91,-3.3775,0.02867,-0.07808,-1.08153,-0.06664,0.12194,0.47572
-2.85419,0,0,17.8542,17.8542,12.1458,12.1458,1.50221,2.92078,-0.0968821,0.0177282,-0.0641374,-0.0710463,0,0,5.0225,0.91,-3.3775,0.02867,-0.07808,-1.08153,-0.06664,0.12194,0.47572
-2.8534,0,0,17.8534,17.8534,12.1466,12.1466,1.50179,2.91973,-0.101993,-0.256933,0.0287939,-0.165224,1,0,3.3425,-0.56,-3.92,-0.247172,0.014762,-1.17498,-0.06664,0.12194,0.47572
-2.18816,0,0,17.1882,17.1882,12.8118,12.8118,1.15166,2.86142,-0.0823438,-0.0605672,0.367702,-0.00433742,0,0,1.3125,-0.5775,-3.78,-0.050996,0.359412,-1.01553,-0.06286,0.1274,0.47558
-1.5375,0,0,16.5375,16.5375,13.4625,13.4625,0.809212,2.80405,-0.0612053,-0.0595673,0.361734,-0.00418581,0,0,2.3975,-0.49,-3.3775,-0.050996,0.359412,-1.01553,-0.06286,0.1274,0.47558
-1.68897,0,0,16.689,16.689,13.311,13.311,0.888933,2.87957,-0.143106,0.0612094,-0.0721374,0.0837594,0,0,3.7975,-0.175,-2.6775,0.071614,-0.075396,-0.928176,-0.06286,0.1274,0.47558
-1.71503,0,0,16.715,16.715,13.285,13.285,0.902645,3.01231,-0.279934,0.131909,-0.0115696,-0.046197,0,0,5.53,-0.07,-2.275,0.144936,-0.015128,-1.05701,-0.06286,0.1274,0.47558
-1.74265,0,0,16.7426,16.7426,13.2574,13.2574,0.917184,3.14221,-0.414266,0.129645,-0.0113182,-0.0463227,0,0,6.0725,-0.2625,-0.98,0.144936,-0.015128,-1.05701,-0.06286,0.1274,0.47558
-1.92006,0,0,16.9201,16.9201,13.0799,13.0799,1.01056,3.30062,-0.571401,0.166246,-0.100556,-0.071341,0,0,5.3025,-0.35,-0.245,0.184464,-0.105896,-1.08165,-0.06286,0.1274,0.47558
-2.08939,0,0,17.0894,17.0894,12.9106,12.9106,1.09968,3.45692,-0.72601,0.163522,-0.0990067,-0.0715304,0,0,3.745,0.1575,0.805,0.184464,-0.105896,-1.08165,-0.06286,0.1274,0.47558
-1.97185,0,0,16.9719,16.9719,13.0281,13.0281,1.03782,3.30138,-0.607001,-0.149387,0.0634464,-0.0653258,0,0,2.5025,-0.035,1.2425,-0.132492,0.057462,-1.07567,-0.06286,0.1274,0.47558
-1.85355,0,0,16.8535,16.8535,13.1465,13.1465,0.975551,3.14865,-0.474383,-0.146726,0.0623641,-0.0651568,0,0,1.6625,-0.3325,2.03,-0.132492,0.057462,-1.07567,-0.05754,0.11858,0.47404
-1.31691,0,0,16.3169,16.3169,13.6831,13.6831,0.693108,3.43506,-0.754241,0.285753,0.302547,0.00938052,0,0,0.945,0.245,2.065,0.30683,0.302316,-1.0015,-0.05754,0.11858,0.47404
-0.796834,0,0,15.7968,15.7968,14.2032,14.2032,0.419386,3.71582,-1.03522,0.280863,0.297777,0.00912124,0,0,3.4125,-0.175,2.625,0.30683,0.302316,-1.0015,-0.05754,0.11858,0.47404
-0.798562,0,0,15.7986,15.7986,14.2014,14.2014,0.420296,3.71556,-1.02988,-0.0835897,0.13744,-0.172842,1,0,3.745,0,2.1525,-0.05917,0.14213,-1.18206,-0.05754,0.11858,0.47404
-0.803718,0,0,15.8037,15.8037,14.1963,14.1963,0.423009,3.71474,-1.02608,-0.0835755,0.137487,-0.172842,1,0,4.8125,-0.3325,1.26,-0.05917,0.14213,-1.18206,-0.05754,0.11858,0.47404
-0.811161,0,0,15.8112,15.8112,14.1888,14.1888,0.426927,3.71369,-1.02297,-0.145393,0.072462,-0.130178,1,0,5.5125,-0.4725,0.8575,-0.121268,0.077104,-1.13972,-0.05754,0.11858,0.47404
-0.814277,0,0,15.8143,15.8143,14.1857,14.1857,0.428567,3.71445,-1.02177,-0.145407,0.0724906,-0.130179,1,0,4.305,0.5775,-0.2625,-0.121268,0.077104,-1.13972,-0.05754,0.11858,0.47404
-1.10371,0,0,16.1037,16.1037,13.8963,13.8963,0.5809,3.68887,-1.00156,-0.0255407,-0.140776,0.0669128,0,0,4.97,0.7875,-0.84,-0.001342,-0.138592,-0.944158,-0.05754,0.11858,0.47404
-1.38503,0,0,16.385,16.385,13.615,13.615,0.728964,3.66393,-0.98269,-0.0251062,-0.138197,0.0669113,0,0,4.0775,0.945,-1.4525,-0.001342,-0.138592,-0.944158,-0.0616,0.11914,0.4739
-1.33685,0,0,16.3369,16.3369,13.6631,13.6631,0.703605,3.56223,-0.906203,-0.0936751,0.0250124,0.0382587,0,0,3.5175,0.56,-1.96,-0.07198,0.024888,-0.972706,-0.0616,0.11914,0.4739
-1.29193,0,0,16.2919,16.2919,13.7081,13.7081,0.679965,3.46115,-0.830623,-0.0919141,0.0246019,0.0383717,0,0,4.27,-0.1925,-2.4675,-0.07198,0.024888,-0.972706,-0.0616,0.11914,0.4739
-1.05307,0,0,16.0531,16.0531,13.9469,13.9469,0.554247,3.60682,-0.985491,0.121185,0.120478,0.0768444,0,0,3.9375,0.1925,-2.5375,0.14457,0.122854,-0.934398,-0.0616,0.11914,0.4739
-0.821391,0,0,15.8214,15.8214,14.1786,14.1786,0.432311,3.75043,-1.14143,0.118684,0.118353,0.0767019,0,0,4.935,0.56,-2.9925,0.14457,0.122854,-0.934398,-0.0616,0.11914,0.4739
-0.807182,0,0,15.8072,15.8072,14.1928,14.1928,0.424832,3.69983,-1.1138,-0.047599,0.00916402,0.00704846,0,0,4.445,0.3675,-2.94,-0.023302,0.013908,-1.00357,-0.0616,0.11914,0.4739
-0.786353,0,0,15.7864,15.7864,14.2136,14.2136,0.41387,3.65017,-1.08559,-0.046734,0.0089735,0.00710541,0,0,2.3975,0.3675,-2.59,-0.023302,0.013908,-1.00357,-0.0616,0.11914,0.4739
-0.782409,0,0,15.7824,15.7824,14.2176,14.2176,0.411794,3.65029,-1.08782,-0.00227238,0.0728096,-0.101458,1,0,2.345,0.1925,-2.2575,0.02135,0.077714,-1.1113,-0.0616,0.11914,0.4739
-0.775862,0,0,15.7759,15.7759,14.2241,14.2241,0.408348,3.65092,-1.08951,-0.00228331,0.0727496,-0.101458,1,0,1.5575,0.49,-1.9425,0.02135,0.077714,-1.1113,-0.0616,0.11914,0.4739
-0.863136,0,0,15.8631,15.8631,14.1369,14.1369,0.454282,3.42637,-0.896977,-0.210486,-0.0493079,-0.00901102,0,0,2.3275,0.455,-1.7675,-0.191662,-0.045018,-1.0198,-0.06748,0.12068,0.47446
-1.14126,0,0,16.1413,16.1413,13.8587,13.8587,0.600665,3.42778,-0.90111,0.00427641,-0.15252,-0.011372,0,0,2.59,-0.0875,-1.435,0.024034,-0.15067,-1.02212,-0.06748,0.12068,0.47446
-1.42324,0,0,16.4232,16.4232,13.5768,13.5768,0.749072,3.43002,-0.904547,0.00423751,-0.149934,-0.0114048,0,0,5.0925,0.4025,-0.98,0.024034,-0.15067,-1.02212,-0.06748,0.12068,0.47446
-2.02958,0,0,17.0296,17.0296,12.9704,12.9704,1.0682,3.56304,-1.01457,0.120126,-0.315477,0.0760278,0,0,5.565,0.665,-1.295,0.14274,-0.321592,-0.93513,-0.06748,0.12068,0.47446
-2.62705,0,0,17.6271,17.6271,12.3729,12.3729,1.38266,3.6923,-1.12323,0.117874,-0.310004,0.0757679,0,0,5.7925,-0.105,-1.295,0.14274,-0.321592,-0.93513,-0.06748,0.12068,0.47446
-2.63789,0,0,17.6379,17.6379,12.3621,12.3621,1.38836,4.01499,-1.42777,0.299707,-0.00435294,0.0386255,0,0,4.62,-0.1225,-1.505,0.330986,-0.016348,-0.971608,-0.06748,0.12068,0.47446
-2.64828,0,0,17.6483,17.6483,12.3517,12.3517,1.39383,4.33183,-1.73166,0.294192,-0.00426752,0.0382209,0,0,4.62,-0.1225,-1.505,0.330986,-0.016348,-0.971608,-0.06748,0.12068,0.47446
-2.64728,0,0,17.6473,17.6473,12.3527,12.3527,1.39331,4.33127,-1.73246,-0.111803,0.0570309,0.210596,1,0,3.1675,-0.21,-1.4175,-0.076738,0.044896,-0.800564,-0.06216,0.12026,0.46718
-2.64337,0,0,17.6434,17.6434,12.3566,12.3566,1.39125,4.33124,-1.73286,0.17867,0.155918,-0.0965288,1,0,2.2925,0.105,-1.19,0.214964,0.143716,-1.10532,-0.06216,0.12026,0.46718
-2.64252,0,0,17.6425,17.6425,12.3575,12.3575,1.3908,4.32976,-1.7326,0.178695,0.15591,-0.0965267,1,0,3.1675,-0.735,-0.7875,0.214964,0.143716,-1.10532,-0.06216,0.12026,0.46718
-2.41972,0,0,17.4197,17.4197,12.5803,12.5803,1.27354,4.19276,-1.64328,-0.12798,0.118701,-0.00962291,0,0,2.94,-1.0675,-0.245,-0.095404,0.10858,-1.01931,-0.06216,0.12026,0.46718
-2.20185,0,0,17.2019,17.2019,12.7981,12.7981,1.15887,4.05923,-1.55349,-0.125655,0.116709,-0.00941289,0,0,3.2725,-0.4725,-0.2625,-0.095404,0.10858,-1.01931,-0.06216,0.12026,0.46718
-2.20295,0,0,17.2029,17.2029,12.7971,12.7971,1.15945,4.05839,-1.55111,-0.114221,0.0541903,-0.157565,1,0,3.6575,-0.3325,0.4375,-0.083936,0.046116,-1.16632,-0.06216,0.12026,0.46718
-2.20404,0,0,17.204,17.204,12.796,12.796,1.16002,4.05755,-1.54873,-0.114206,0.0542003,-0.157564,1,0,3.6575,-0.3325,0.4375,-0.083936,0.046116,-1.16632,-0.06216,0.12026,0.46718
-2.00128,0,0,17.0013,17.0013,12.9987,12.9987,1.0533,3.98628,-1.50912,-0.0678944,0.109744,-0.04064,0,0,2.415,0,1.225,-0.038674,0.103456,-1.05042,-0.06216,0.12026,0.46718
-1.80197,0,0,16.802,16.802,13.198,13.198,0.948407,3.91635,-1.4718,-0.0666769,0.107919,-0.040524,0,0,2.415,0,1.225,-0.038674,0.103456,-1.05042,-0.06454,0.12222,0.4718
-1.80422,0,0,16.8042,16.8042,13.1958,13.1958,0.949589,3.91772,-1.46869,-0.242612,0.0472428,-0.125237,1,0,3.9725,0.9625,0.84,-0.21533,0.042822,-1.13448,-0.06454,0.12222,0.4718
-1.80646,0,0,16.8065,16.8065,13.1935,13.1935,0.950771,3.91909,-1.46558,-0.242636,0.0472634,-0.125239,1,0,3.9725,0.9625,0.84,-0.21533,0.042822,-1.13448,-0.06454,0.12222,0.4718
-1.80936,0,0,16.8094,16.8094,13.1906,13.1906,0.952297,3.91955,-1.4629,0.179762,0.17821,-0.251631,1,0,4.1825,0.42,0.595,0.208864,0.173606,-1.25989,-0.06454,0.12222,0.4718
-1.81227,0,0,16.8123,16.8123,13.1877,13.1877,0.953824,3.92,-1.46023,0.179754,0.178236,-0.251632,1,0,4.1825,0.42,0.595,0.208864,0.173606,-1.25989,-0.06454,0.12222,0.4718
-1.88059,0,0,16.8806,16.8806,13.1194,13.1194,0.989782,3.78938,-1.35972,-0.122779,-0.0374214,-0.0347317,0,0,3.7275,0.91,-1.295,-0.097234,-0.042456,-1.04481,-0.06454,0.12222,0.4718
-1.94769,0,0,16.9477,16.9477,13.0523,13.0523,1.0251,3.66121,-1.25957,-0.120547,-0.0368039,-0.0345972,0,0,3.7275,0.91,-1.295,-0.097234,-0.042456,-1.04481,-0.06454,0.12222,0.4718
-1.94315,0,0,16.9431,16.9431,13.0569,13.0569,1.02271,3.66114,-1.26276,0.0439463,0.031057,0.300315,1,0,2.205,0.0525,-2.8175,0.067954,0.025376,-0.71248,-0.06454,0.12222,0.4718
-1.93861,0,0,16.9386,16.9386,13.0614,13.0614,1.02032,3.66106,-1.26596,0.0439476,0.0310154,0.300316,1,0,2.205,0.0525,-2.8175,0.067954,0.025376,-0.71248,-0.06454,0.12222,0.4718
-1.93416,0,0,16.9342,16.9342,13.0658,13.0658,1.01798,3.66147,-1.27089,-0.125775,-0.0964035,0.110484,1,0,2.2925,0.315,-3.8325,-0.10248,-0.10187,-0.900848,-0.06538,0.12768,0.48496
-1.77124,0,0,16.7712,16.7712,13.2288,13.2288,0.932234,3.95095,-1.56713,0.286366,0.0927375,-0.0180612,0,0,4.13,0.5075,-3.7975,0.316468,0.088572,-1.02809,-0.06538,0.12768,0.48496
-1.61061,0,0,16.6106,16.6106,13.3894,13.3894,0.84769,4.23522,-1.86367,0.281417,0.0912604,-0.0183924,0,0,4.13,0.5075,-3.7975,0.316468,0.088572,-1.02809,-0.06538,0.12768,0.48496
-1.7954,0,0,16.7954,16.7954,13.2046,13.2046,0.944947,4.03603,-1.71342,-0.183322,-0.096095,-0.00661108,0,0,5.4425,0.0875,-3.0975,-0.15372,-0.100284,-1.01663,-0.06538,0.12768,0.48496
-1.97694,0,0,16.9769,16.9769,13.0231,13.0231,1.04049,3.84055,-1.56411,-0.179918,-0.0944276,-0.00640561,0,0,5.4425,0.0875,-3.0975,-0.15372,-0.100284,-1.01663,-0.06538,0.12768,0.48496
-2.26916,0,0,17.2692,17.2692,12.7308,12.7308,1.19429,3.9734,-1.70429,0.135818,-0.161365,-0.018173,0,0,5.0925,-0.4025,-2.2575,0.165676,-0.169824,-1.02809,-0.06538,0.12768,0.48496
-2.26645,0,0,17.2664,17.2664,12.7336,12.7336,1.19287,3.97217,-1.70598,-0.137867,0.10277,0.168834,1,0,2.695,-0.6125,-1.925,-0.10919,0.094062,-0.842532,-0.06538,0.12768,0.48496
-2.2605,0,0,17.2605,17.2605,12.7395,12.7395,1.18974,3.97094,-1.70478,-0.137846,0.102716,0.168836,1,0,1.6275,-0.5775,-0.245,-0.10919,0.094062,-0.842532,-0.06384,0.1218,0.46578
-2.17094,0,0,17.1709,17.1709,12.8291,12.8291,1.1426,4.05297,-1.80134,0.0818297,0.0460812,-0.0432103,0,0,1.8725,-0.07,0.1925,0.11285,0.038308,-1.05286,-0.06384,0.1218,0.46578
-2.08342,0,0,17.0834,17.0834,12.9166,12.9166,1.09654,4.13347,-1.89739,0.0804283,0.0452774,-0.0432949,0,0,2.0125,-0.0525,0.4375,0.11285,0.038308,-1.05286,-0.06384,0.1218,0.46578
-2.04828,0,0,17.0483,17.0483,12.9517,12.9517,1.07804,3.97044,-1.77148,-0.149014,0.0183357,0.0156816,0,0,2.905,-0.315,1.155,-0.120414,0.011712,-0.994544,-0.06384,0.1218,0.46578
-2.01299,0,0,17.013,17.013,12.987,12.987,1.05947,3.81042,-1.64405,-0.146228,0.0180158,0.0158771,0,0,2.6425,-0.2975,2.1,-0.120414,0.011712,-0.994544,-0.06384,0.1218,0.46578
-2.01297,0,0,17.013,17.013,12.987,12.987,1.05946,3.80966,-1.63905,-0.0575298,-0.130368,-0.157848,1,0,3.2375,-0.2625,1.96,-0.031354,-0.136518,-1.16693,-0.06384,0.1218,0.46578
-2.01598,0,0,17.016,17.016,12.984,12.984,1.06104,3.80989,-1.63589,-0.0575338,-0.130341,-0.157849,1,0,4.2,0.2975,0.875,-0.031354,-0.136518,-1.16693,-0.06384,0.1218,0.46578
-1.84026,0,0,16.8403,16.8403,13.1597,13.1597,0.968556,3.97574,-1.80897,0.149506,0.094957,0.0278811,0,0,4.3225,-0.1575,0.63,0.179462,0.090158,-0.982466,-0.06384,0.1218,0.46578
-1.66795,0,0,16.668,16.668,13.332,13.332,0.877871,4.13806,-1.98303,0.14668,0.0933752,0.0277062,0,0,4.5325,-0.4375,0.14,0.179462,0.090158,-0.982466,-0.06384,0.1218,0.46578
-1.74284,0,0,16.7428,16.7428,13.2572,13.2572,0.917284,3.89725,-1.78973,-0.22792,-0.0400292,-0.0183617,0,0,3.92,0.0175,-0.21,-0.200934,-0.043798,-1.02846,-0.06216,0.12628,0.4746
-1.81994,0,0,16.8199,16.8199,13.1801,13.1801,0.957864,3.66178,-1.59869,-0.223819,-0.0393181,-0.0181024,0,0,5.0575,0.56,-1.155,-0.200934,-0.043798,-1.02846,-0.06216,0.12628,0.4746
-1.75507,0,0,16.7551,16.7551,13.2449,13.2449,0.923721,3.47299,-1.45183,-0.187001,0.0382517,-0.0765341,0,0,4.3575,0.5775,-1.26,-0.167262,0.034282,-1.08665,-0.06216,0.12628,0.4746
-1.68792,0,0,16.6879,16.6879,13.3121,13.3121,0.888379,3.28673,-1.30488,-0.183755,0.037639,-0.0763327,0,0,3.3775,0.0525,-1.2075,-0.167262,0.034282,-1.08665,-0.06216,0.12628,0.4746
-1.76669,0,0,16.7667,16.7667,13.2333,13.2333,0.929838,3.24833,-1.28694,-0.0331731,-0.0457834,-0.033274,0,0,2.5025,-0.455,-1.8375,-0.016714,-0.049776,-1.04395,-0.06216,0.12628,0.4746
-1.84248,0,0,16.8425,16.8425,13.1575,13.1575,0.969727,3.21199,-1.26942,-0.0325398,-0.0450878,-0.0332498,0,0,2.03,0.315,-2.03,-0.016714,-0.049776,-1.04395,-0.06216,0.12628,0.4746
-1.83816,0,0,16.8382,16.8382,13.1618,13.1618,0.967455,3.21302,-1.27101,0.0577061,-0.0492797,-0.195665,1,0,2.205,0.7175,-1.89,0.073932,-0.053924,-1.20512,-0.06216,0.12628,0.4746
-1.8341,0,0,16.8341,16.8341,13.1659,13.1659,0.965316,3.21452,-1.27189,0.05768,-0.049317,-0.195666,1,0,2.2575,0.9975,-1.4875,0.073932,-0.053924,-1.20512,-0.06216,0.12628,0.4746
-1.83012,0,0,16.8301,16.8301,13.1699,13.1699,0.963223,3.21512,-1.27306,-0.130998,-0.00147981,-0.283082,1,0,2.2925,0.4725,-1.645,-0.115534,-0.0061,-1.29186,-0.06328,0.12894,0.47446
-1.73919,0,0,16.7392,16.7392,13.2608,13.2608,0.915365,3.29487,-1.36893,0.0625971,0.0461694,0.0807799,0,0,3.535,0.3325,-1.715,0.080276,0.042334,-0.930738,-0.06328,0.12894,0.47446
-1.65588,0,0,16.6559,16.6559,13.3441,13.3441,0.871518,3.37399,-1.46469,0.0612186,0.0454043,0.0807115,0,0,5.3375,0.84,-1.6975,0.080276,0.042334,-0.930738,-0.06328,0.12894,0.47446
-1.85308,0,0,16.8531,16.8531,13.1469,13.1469,0.975307,3.22809,-1.34809,-0.140821,-0.110695,-0.0715042,0,0,5.5825,0.7,-1.5575,-0.125172,-0.115412,-1.0819,-0.06328,0.12894,0.47446
-2.0418,0,0,17.0418,17.0418,12.9582,12.9582,1.07463,3.08457,-1.23243,-0.13832,-0.108962,-0.0713973,0,0,4.095,0.49,-1.6625,-0.125172,-0.115412,-1.0819,-0.06328,0.12894,0.47446
-2.15521,0,0,17.1552,17.1552,12.8448,12.8448,1.13432,2.97392,-1.14702,-0.101282,-0.0587027,0.0189289,0,0,3.7275,0.49,-1.6975,-0.089914,-0.066246,-0.992348,-0.06328,0.12894,0.47446
-2.26494,0,0,17.2649,17.2649,12.7351,12.7351,1.19207,2.86561,-1.06318,-0.0993943,-0.0576943,0.0190047,0,0,3.255,0.63,-2.38,-0.089914,-0.066246,-0.992348,-0.06328,0.12894,0.47446
-2.55753,0,0,17.5575,17.5575,12.4425,12.4425,1.34607,2.81804,-1.02793,-0.0418312,-0.169076,-0.0434714,0,0,2.3975,0.1575,-2.2225,-0.03294,-0.180194,-1.05432,-0.06328,0.12894,0.47446
-2.84022,0,0,17.8402,17.8402,12.1598,12.1598,1.49485,2.77287,-0.973452,-0.0410438,-0.166482,-0.0434973,0,0,0.9625,-0.665,-2.1175,-0.03294,-0.180194,-1.05432,-0.06748,0.11606,0.47418
-2.67537,0,0,17.6754,17.6754,12.3246,12.3246,1.40809,2.77182,-0.974411,-0.000570754,0.0817549,0.0284668,0,0,0.77,-0.8225,-2.0125,0.007686,0.069296,-0.982954,-0.06748,0.11606,0.47418
-2.51943,0,0,17.5194,17.5194,12.4806,12.4806,1.32601,2.77095,-0.974601,-0.000555588,0.0803246,0.0285017,0,0,2.555,-0.7175,-1.61,0.007686,0.069296,-0.982954,-0.06748,0.11606,0.47418
-2.51849,0,0,17.5185,17.5185,12.4815,12.4815,1.32552,2.76996,-0.975172,0.301111,-0.0923712,0.228786,1,0,3.1675,-0.455,-1.2775,0.310612,-0.103212,-0.784216,-0.06748,0.11606,0.47418
-2.52165,0,0,17.5216,17.5216,12.4784,12.4784,1.32718,2.76796,-0.974415,0.301145,-0.0923423,0.228787,1,0,4.34,-1.0325,-0.49,0.310612,-0.103212,-0.784216,-0.06748,0.11606,0.47418
-2.52449,0,0,17.5245,17.5245,12.4755,12.4755,1.32868,2.76622,-0.973171,0.0701101,-0.037237,-0.154074,1,0,4.235,-0.875,-0.21,0.078568,-0.04819,-1.16412,-0.06748,0.11606,0.47418
-2.53053,0,0,17.5305,17.5305,12.4695,12.4695,1.33186,2.7651,-0.970712,0.0701295,-0.0371815,-0.154074,1,0,5.145,-0.49,0.49,0.078568,-0.04819,-1.16412,-0.06748,0.11606,0.47418
-2.53415,0,0,17.5342,17.5342,12.4658,12.4658,1.33376,2.76458,-0.968118,-0.293954,-0.0317747,-0.36112,1,0,4.4275,-0.14,0.56,-0.287066,-0.042822,-1.36957,-0.06748,0.11606,0.47418
-2.53289,0,0,17.5329,17.5329,12.4671,12.4671,1.3331,2.7639,-0.965048,-0.293942,-0.0317863,-0.361119,1,0,2.975,-0.2275,0.84,-0.287066,-0.042822,-1.36957,-0.06482,0.1197,0.48076
-2.52959,0,0,17.5296,17.5296,12.4704,12.4704,1.33136,2.76247,-0.961635,-0.15105,0.262143,-0.0793192,1,0,2.3625,-0.665,1.05,-0.143594,0.250832,-1.08995,-0.06482,0.1197,0.48076
-2.52559,0,0,17.5256,17.5256,12.4744,12.4744,1.32926,2.76176,-0.957484,-0.151038,0.262106,-0.0793177,1,0,2.135,-0.2275,1.47,-0.143594,0.250832,-1.08995,-0.06482,0.1197,0.48076
-2.5233,0,0,17.5233,17.5233,12.4767,12.4767,1.32806,2.76143,-0.953925,0.0449246,-0.209446,-0.0826366,1,0,2.66,-0.0175,1.12,0.053192,-0.22021,-1.09324,-0.06482,0.1197,0.48076
-2.52042,0,0,17.5204,17.5204,12.4796,12.4796,1.32654,2.76156,-0.951076,0.0449223,-0.209473,-0.0826361,1,0,2.5025,0.245,0.7,0.053192,-0.22021,-1.09324,-0.06482,0.1197,0.48076
-2.41314,0,0,17.4131,17.4131,12.5869,12.5869,1.27007,2.69732,-0.892279,-0.0601363,0.0554141,0.00338061,0,0,2.2225,0.5775,0.525,-0.053436,0.045384,-1.00796,-0.06482,0.1197,0.48076
-2.30956,0,0,17.3096,17.3096,12.6904,12.6904,1.21556,2.63488,-0.835365,-0.0590477,0.054465,0.0034519,0,0,2.835,0.91,-0.6125,-0.053436,0.045384,-1.00796,-0.06482,0.1197,0.48076
-2.39096,0,0,17.391,17.391,12.609,12.609,1.2584,2.39301,-0.610351,-0.229648,-0.043829,0.00276025,0,0,3.815,1.155,-1.2775,-0.228994,-0.053558,-1.00882,-0.06482,0.1197,0.48076
-2.47381,0,0,17.4738,17.4738,12.5262,12.5262,1.30201,2.15341,-0.397972,-0.22547,-0.0430649,0.0029091,0,0,4.725,1.1375,-2.6425,-0.228994,-0.053558,-1.00882,-0.06902,0.12698,0.47348
-2.34682,0,0,17.3468,17.3468,12.6532,12.6532,1.23517,2.26196,-0.500464,0.102228,0.0712999,-0.0142279,0,0,4.48,0.42,-2.9225,0.101992,0.061854,-1.02578,-0.06902,0.12698,0.47348
-2.22375,0,0,17.2237,17.2237,12.7763,12.7763,1.17039,2.36911,-0.6044,0.100359,0.070169,-0.0142797,0,0,5.0575,0.7525,-3.7625,0.101992,0.061854,-1.02578,-0.06902,0.12698,0.47348
-2.22675,0,0,17.2267,17.2267,12.7733,12.7733,1.17197,2.37099,-0.609262,-0.0325788,-0.177721,0.158092,1,0,4.4275,1.1725,-3.815,-0.031476,-0.185806,-0.854732,-0.06902,0.12698,0.47348
-2.2331,0,0,17.2331,17.2331,12.7669,12.7669,1.17532,2.37236,-0.614495,-0.0326029,-0.177663,0.15809,1,0,5.425,0.875,-4.025,-0.031476,-0.185806,-0.854732,-0.06902,0.12698,0.47348
-2.40129,0,0,17.4013,17.4013,12.5987,12.5987,1.26384,2.34943,-0.596123,-0.0233346,-0.0809821,0.0770505,0,0,4.2525,0.7,-3.7625,-0.02257,-0.090768,-0.93513,-0.06902,0.12698,0.47348
-2.56227,0,0,17.5623,17.5623,12.4377,12.4377,1.34856,2.32578,-0.576995,-0.0229221,-0.0795047,0.0770337,0,0,2.94,0.035,-3.22,-0.02257,-0.090768,-0.93513,-0.06902,0.12698,0.47348
-2.56067,0,0,17.5607,17.5607,12.4393,12.4393,1.34772,2.32578,-0.579975,0.155662,-0.0276154,0.185843,1,0,3.0275,0.0875,-2.695,0.15677,-0.038918,-0.82716,-0.06902,0.12698,0.47348
-2.55824,0,0,17.5582,17.5582,12.4418,12.4418,1.34644,2.32734,-0.580876,0.155635,-0.0276378,0.185843,1,0,2.73,1.0325,-1.505,0.15677,-0.038918,-0.82716,-0.06398,0.1197,0.47054
-2.55469,0,0,17.5547,17.5547,12.4453,12.4453,1.34457,2.32812,-0.581495,0.0420319,-0.0669951,0.111336,1,0,2.3975,0.5775,-1.33,0.0427,-0.078202,-0.901092,-0.06398,0.1197,0.47054
-2.54977,0,0,17.5498,17.5498,12.4502,12.4502,1.34198,2.3273,-0.579991,0.0420463,-0.0670403,0.111338,1,0,1.9425,-0.3325,-0.07,0.0427,-0.078202,-0.901092,-0.06398,0.1197,0.47054
-2.69015,0,0,17.6901,17.6901,12.3099,12.3099,1.41587,2.08681,-0.34946,-0.235363,-0.0839451,-0.0408647,0,0,2.275,-0.315,0.6475,-0.240096,-0.09638,-1.05225,-0.06398,0.1197,0.47054
-2.83337,0,0,17.8334,17.8334,12.1666,12.1666,1.49125,1.85029,-0.118689,-0.231238,-0.0826271,-0.0407563,0,0,3.8325,-0.525,1.435,-0.240096,-0.09638,-1.05225,-0.06398,0.1197,0.47054
-2.64766,0,0,17.6477,17.6477,12.3523,12.3523,1.3935,1.95834,-0.202588,0.108374,0.105818,-0.0367187,0,0,4.305,-0.28,1.3825,0.102846,0.093574,-1.04822,-0.06398,0.1197,0.47054
-2.46356,0,0,17.4636,17.4636,12.5364,12.5364,1.29661,2.06372,-0.286362,0.106536,0.104127,-0.0367436,0,0,3.8675,-0.7,1.54,0.102846,0.093574,-1.04822,-0.06398,0.1197,0.47054
-2.46735,0,0,17.4673,17.4673,12.5327,12.5327,1.2986,2.06254,-0.282164,-0.0337597,-0.0371388,-0.138176,1,0,4.4625,-0.5075,1.505,-0.038064,-0.04758,-1.14887,-0.06398,0.1197,0.47054
-2.47181,0,0,17.4718,17.4718,12.5282,12.5282,1.30095,2.06267,-0.279347,-0.033762,-0.0370978,-0.138177,1,0,4.69,0.245,0.6825,-0.038064,-0.04758,-1.14887,-0.06398,0.1197,0.47054
-2.59568,0,0,17.5957,17.5957,12.4043,12.4043,1.36615,1.96585,-0.175679,-0.0856484,-0.057576,0.0926301,0,0,4.06,0.175,0.385,-0.091866,-0.069174,-0.91988,-0.06426,0.12026,0.47292
-2.71494,0,0,17.7149,17.7149,12.2851,12.2851,1.42891,1.86871,-0.0732615,-0.083954,-0.0564801,0.0926601,0,0,3.3425,-1.0675,-0.0525,-0.091866,-0.069174,-0.91988,-0.06426,0.12026,0.47292
-2.45044,0,0,17.4504,17.4504,12.5496,12.5496,1.2897,1.94418,-0.134577,0.0808005,0.150661,-0.0631018,0,0,2.695,-0.6825,-0.455,0.074908,0.140178,-1.07445,-0.06426,0.12026,0.47292
-2.1903,0,0,17.1903,17.1903,12.8097,12.8097,1.15279,2.0183,-0.196036,0.0795076,0.148272,-0.0630956,0,0,2.695,-0.6825,-0.455,0.074908,0.140178,-1.07445,-0.06426,0.12026,0.47292
-2.19015,0,0,17.1902,17.1902,12.8098,12.8098,1.15271,2.01874,-0.197445,0.2774,-0.0445674,0.303782,1,0,3.4125,0.3675,-1.785,0.273646,-0.05246,-0.710406,-0.06426,0.12026,0.47292
-2.19,0,0,17.19,17.19,12.81,12.81,1.15263,2.01917,-0.198854,0.277393,-0.0445687,0.303782,1,0,3.4125,0.3675,-1.785,0.273646,-0.05246,-0.710406,-0.06426,0.12026,0.47292
-2.19094,0,0,17.1909,17.1909,12.8091,12.8091,1.15312,2.01944,-0.200867,-0.102012,0.132035,0.302798,1,0,3.745,0.2625,-2.135,-0.10736,0.123952,-0.711382,-0.06426,0.12026,0.47292
-2.19187,0,0,17.1919,17.1919,12.8081,12.8081,1.15362,2.0197,-0.20288,-0.102016,0.132044,0.302798,1,0,3.745,0.2625,-2.135,-0.10736,0.123952,-0.711382,-0.06426,0.12026,0.47292
-2.47681,0,0,17.4768,17.4768,12.5232,12.5232,1.30358,2.04574,-0.210788,0.0270333,-0.169681,-0.07989,0,0,4.025,0.5425,-2.6425,0.022692,-0.180072,-1.09105,-0.06706,0.12138,0.46662
-2.38604,0,0,17.386,17.386,12.614,12.614,1.25581,2.30671,-0.439998,0.23496,0.0486993,0.0571662,0,0,3.4475,0.3675,-2.625,0.23607,0.038918,-0.954894,-0.06706,0.12138,0.46662
-2.29611,0,0,17.2961,17.2961,12.7039,12.7039,1.20848,2.5637,-0.668374,0.230479,0.0478701,0.0569934,0,0,3.3075,0.7875,-2.17,0.23607,0.038918,-0.954894,-0.06706,0.12138,0.46662
-2.2957,0,0,17.2957,17.2957,12.7043,12.7043,1.20826,2.56515,-0.669822,-0.162917,0.0311349,-0.19997,1,0,3.3425,0.9625,-1.82,-0.158966,0.022204,-1.20987,-0.06706,0.12138,0.46662
-2.29904,0,0,17.299,17.299,12.701,12.701,1.21002,2.56754,-0.671701,-0.162959,0.0311655,-0.199972,1,0,4.4625,1.505,-2.0825,-0.158966,0.022204,-1.20987,-0.06706,0.12138,0.46662
-2.30055,0,0,17.3005,17.3005,12.6995,12.6995,1.21082,2.56938,-0.673501,-0.185101,0.132056,-0.137148,1,0,3.92,1.19,-2.03,-0.18117,0.122976,-1.14753,-0.06706,0.12138,0.46662
-2.29869,0,0,17.2987,17.2987,12.7013,12.7013,1.20984,2.57032,-0.674479,-0.185118,0.132039,-0.137148,1,0,2.905,0.665,-1.54,-0.18117,0.122976,-1.14753,-0.06706,0.12138,0.46662
-2.47104,0,0,17.471,17.471,12.529,12.529,1.30055,2.6659,-0.752565,0.0938479,-0.100621,-0.0321378,0,0,2.3625,0.4375,-1.19,0.10065,-0.11102,-1.04322,-0.06706,0.12138,0.46662
-2.64035,0,0,17.6403,17.6403,12.3597,12.3597,1.38966,2.76041,-0.830011,0.0922003,-0.0990694,-0.0322523,0,0,2.3275,0.84,-1.5575,0.10065,-0.11102,-1.04322,-0.06706,0.12068,0.47068
-2.63612,0,0,17.6361,17.6361,12.3639,12.3639,1.38743,2.76101,-0.830814,-0.0101012,-0.162248,-0.134545,1,0,2.205,0.4725,-1.435,-0.002074,-0.174094,-1.14473,-0.06706,0.12068,0.47068
-2.63488,0,0,17.6349,17.6349,12.3651,12.3651,1.38678,2.76067,-0.83083,-0.0100952,-0.162259,-0.134544,1,0,3.0625,-0.07,-0.9625,-0.002074,-0.174094,-1.14473,-0.06706,0.12068,0.47068
-2.84727,0,0,17.8473,17.8473,12.1527,12.1527,1.49856,2.85208,-0.905152,0.0782107,-0.107432,0.0627837,0,0,3.7975,-0.07,-0.5775,0.088206,-0.121268,-0.948794,-0.06706,0.12068,0.47068
-3.05734,0,0,18.0573,18.0573,11.9427,11.9427,1.60913,2.94182,-0.978405,0.0766464,-0.105508,0.0626523,0,0,4.13,-0.035,-0.1925,0.088206,-0.121268,-0.948794,-0.06706,0.12068,0.47068
-3.06053,0,0,18.0605,18.0605,11.9395,11.9395,1.61081,2.94082,-0.977298,0.122828,-0.0969296,-0.118697,1,0,4.34,-0.4375,-0.2975,0.134566,-0.112728,-1.12874,-0.06706,0.12068,0.47068
-3.06178,0,0,18.0618,18.0618,11.9382,11.9382,1.61146,2.93893,-0.975496,0.122861,-0.0969181,-0.118695,1,0,3.745,-0.945,0.1225,0.134566,-0.112728,-1.12874,-0.06706,0.12068,0.47068
-2.90468,0,0,17.9047,17.9047,12.0953,12.0953,1.52878,2.9269,-0.97138,-0.00995576,0.0831219,0.00196741,0,0,2.3625,-0.8925,0.5075,0.000976,0.068564,-1.00906,-0.06706,0.12068,0.47068
-2.75346,0,0,17.7535,17.7535,12.2465,12.2465,1.44919,2.91595,-0.965311,-0.009765,0.0817353,0.00201319,0,0,3.29,-0.3325,1.0675,0.000976,0.068564,-1.00906,-0.06538,0.11984,0.47082
-2.75258,0,0,17.7526,17.7526,12.2474,12.2474,1.44873,2.9155,-0.962175,-0.0288304,0.396814,-0.130033,1,0,3.08,-0.0875,0.875,-0.018178,0.383324,-1.14009,-0.06538,0.11984,0.47082
-2.75053,0,0,17.7505,17.7505,12.2495,12.2495,1.44765,2.91453,-0.959564,-0.0288134,0.396795,-0.130032,1,0,2.7475,-0.4025,0.5775,-0.018178,0.383324,-1.14009,-0.06538,0.11984,0.47082
-2.28661,0,0,17.2866,17.2866,12.7134,12.7134,1.20348,3.09531,-1.13815,0.175047,0.261251,0.0108005,0,0,3.2375,-0.455,0.3675,0.18971,0.252174,-1.00028,-0.06538,0.11984,0.47082
-1.82807,0,0,16.8281,16.8281,13.1719,13.1719,0.962141,3.27412,-1.31866,0.171931,0.257043,0.0107066,0,0,2.73,0.245,-0.175,0.18971,0.252174,-1.00028,-0.06538,0.11984,0.47082
-1.68212,0,0,16.6821,16.6821,13.3179,13.3179,0.885327,3.32055,-1.37288,0.0501226,0.084482,-0.0632104,0,0,3.9725,-0.2625,-0.56,0.068198,0.08113,-1.0736,-0.06538,0.11984,0.47082
-1.53365,0,0,16.5337,16.5337,13.4663,13.4663,0.807187,3.36561,-1.42834,0.0493374,0.08312,-0.0632362,0,0,2.555,-0.56,-1.295,0.068198,0.08113,-1.0736,-0.06538,0.11984,0.47082
-1.83654,0,0,16.8365,16.8365,13.1635,13.1635,0.966599,3.34634,-1.40899,-0.0172655,-0.160676,0.0448122,0,0,2.205,-0.6125,-1.4875,0.000976,-0.165188,-0.966362,-0.06538,0.11984,0.47082
-2.1408,0,0,17.1408,17.1408,12.8592,12.8592,1.12674,3.32858,-1.39525,-0.016956,-0.157886,0.0447793,0,0,4.1125,0.525,-1.9425,0.000976,-0.165188,-0.966362,-0.06734,0.1232,0.47642
-2.14026,0,0,17.1403,17.1403,12.8597,12.8597,1.12645,3.33081,-1.39806,-0.271386,-0.222619,-0.110999,1,0,3.36,1.4,-2.625,-0.254492,-0.229848,-1.12094,-0.06734,0.1232,0.47642
-2.1438,0,0,17.1438,17.1438,12.8562,12.8562,1.12832,3.33182,-1.40307,-0.271403,-0.222586,-0.111,1,0,4.6375,0.665,-3.885,-0.254492,-0.229848,-1.12094,-0.06734,0.1232,0.47642
-2.03133,0,0,17.0313,17.0313,12.9687,12.9687,1.06912,3.46023,-1.53929,0.107703,0.0591036,0.0717112,0,0,4.025,0.21,-3.6575,0.128466,0.052582,-0.939522,-0.06734,0.1232,0.47642
-1.92222,0,0,16.9222,16.9222,13.0778,13.0778,1.01169,3.58704,-1.67421,0.105494,0.0581009,0.0715934,0,0,4.445,0.665,-2.9225,0.128466,0.052582,-0.939522,-0.06734,0.1232,0.47642
-1.92531,0,0,16.9253,16.9253,13.0747,13.0747,1.01332,3.58825,-1.67769,0.152366,-0.150463,0.141672,1,0,4.4625,0.805,-2.9925,0.175558,-0.155794,-0.869982,-0.06734,0.1232,0.47642
-1.92575,0,0,16.9257,16.9257,13.0743,13.0743,1.01355,3.58943,-1.68098,0.152346,-0.150459,0.141671,1,0,3.675,0.7875,-2.8875,0.175558,-0.155794,-0.869982,-0.06734,0.1232,0.47642
-1.92467,0,0,16.9247,16.9247,13.0753,13.0753,1.01298,3.59057,-1.68358,-0.0633113,0.177075,-0.199021,1,0,3.2025,0.77,-2.485,-0.040992,0.17141,-1.20804,-0.06734,0.1232,0.47642
-1.9203,0,0,16.9203,16.9203,13.0797,13.0797,1.01068,3.59116,-1.68397,-0.0633216,0.177035,-0.19902,1,0,2.1525,0.4725,-1.19,-0.040992,0.17141,-1.20804,-0.06734,0.1232,0.47642
-1.9174,0,0,16.9174,16.9174,13.0826,13.0826,1.00916,3.591,-1.68389,-0.125034,0.0248382,-0.159922,1,0,2.5725,0.035,-0.91,-0.102968,0.019398,-1.16925,-0.0665,0.11914,0.47796
-1.91204,0,0,16.912,16.912,13.088,13.088,1.00634,3.59147,-1.68262,0.122789,-0.0570359,0.148925,1,0,1.8025,0.42,-0.2275,0.145912,-0.062342,-0.862784,-0.0665,0.11914,0.47796
-1.91389,0,0,16.9139,16.9139,13.0861,13.0861,1.00731,3.58997,-1.67959,0.122815,-0.0570189,0.148926,1,0,3.8675,-0.7175,0.8225,0.145912,-0.062342,-0.862784,-0.0665,0.11914,0.47796
-1.91474,0,0,16.9147,16.9147,13.0853,13.0853,1.00776,3.58987,-1.67593,0.193522,0.221926,-0.168035,1,0,3.5525,0.105,1.1725,0.216916,0.216306,-1.1773,-0.0665,0.11914,0.47796
-1.9211,0,0,16.9211,16.9211,13.0789,13.0789,1.01111,3.58966,-1.67186,0.193525,0.221985,-0.168036,1,0,5.1625,0.0525,1.4175,0.216916,0.216306,-1.1773,-0.0665,0.11914,0.47796
-1.72734,0,0,16.7273,16.7273,13.2727,13.2727,0.909126,3.56245,-1.66166,-0.0247965,0.116646,-0.0730603,0,0,5.5475,0.28,1.365,-0.002806,0.11285,-1.08312,-0.0665,0.11914,0.47796
-1.5285,0,0,16.5285,16.5285,13.4715,13.4715,0.804472,3.53493,-1.65137,-0.0243171,0.114823,-0.0730033,0,0,3.0975,-0.175,1.33,-0.002806,0.11285,-1.08312,-0.0665,0.11914,0.47796
-1.52891,0,0,16.5289,16.5289,13.4711,13.4711,0.804687,3.5338,-1.64842,0.0977957,0.180287,-0.0946411,1,0,3.4475,-0.5075,0.77,0.119804,0.178242,-1.10459,-0.0665,0.11914,0.47796
-1.52561,0,0,16.5256,16.5256,13.4744,13.4744,0.802954,3.53374,-1.6472,0.0977967,0.180257,-0.0946406,1,0,2.415,0.105,-0.245,0.119804,0.178242,-1.10459,-0.06342,0.1232,0.47824
-1.43352,0,0,16.4335,16.4335,13.5665,13.5665,0.754486,3.52619,-1.65966,-0.00861463,0.049836,0.00496726,0,0,3.43,0.28,-1.015,0.01281,0.0488,-1.00577,-0.06342,0.1232,0.47824
-1.34424,0,0,16.3442,16.3442,13.6558,13.6558,0.707495,3.51718,-1.67289,-0.00845772,0.0490176,0.00498736,0,0,3.8325,-0.6475,-1.4875,0.01281,0.0488,-1.00577,-0.06342,0.1232,0.47824
-1.36385,0,0,16.3639,16.3639,13.6361,13.6361,0.717816,3.344,-1.5316,-0.166773,-0.012108,-0.0277842,0,0,2.9575,-0.4375,-1.6275,-0.149206,-0.012444,-1.03846,-0.06342,0.1232,0.47824
-1.38795,0,0,16.3879,16.3879,13.6121,13.6121,0.730499,3.17377,-1.39204,-0.163807,-0.0118848,-0.0276181,0,0,4.445,-0.5425,-2.4675,-0.149206,-0.012444,-1.03846,-0.06342,0.1232,0.47824
-1.27641,0,0,16.2764,16.2764,13.7236,13.7236,0.671794,3.19129,-1.42547,0.0144714,0.0601238,0.0192208,0,0,3.71,0.1225,-2.7125,0.030134,0.060512,-0.991982,-0.06342,0.1232,0.47824
-1.16694,0,0,16.1669,16.1669,13.8331,13.8331,0.61418,3.2086,-1.45902,0.0141698,0.0591197,0.0192152,0,0,3.78,0.1925,-2.8175,0.030134,0.060512,-0.991982,-0.06342,0.1232,0.47824
-1.1658,0,0,16.1658,16.1658,13.8342,13.8342,0.613578,3.20904,-1.462,-0.0631027,0.107838,0.186548,1,0,3.185,0.3675,-2.695,-0.047458,0.10919,-0.82594,-0.06342,0.1232,0.47824
-1.16578,0,0,16.1658,16.1658,13.8342,13.8342,0.613569,3.20938,-1.46498,-0.0631088,0.107838,0.186547,1,0,3.5175,0.315,-2.695,-0.047458,0.10919,-0.82594,-0.0686,0.11676,0.47796
-1.16884,0,0,16.1688,16.1688,13.8312,13.8312,0.615179,3.21035,-1.46747,0.151661,-0.204535,0.158514,1,0,4.41,0.6825,-2.415,0.168238,-0.202886,-0.853756,-0.0686,0.11676,0.47796
-1.1705,0,0,16.1705,16.1705,13.8295,13.8295,0.616051,3.21108,-1.46921,0.151648,-0.204519,0.158513,1,0,3.9725,0.5425,-1.9775,0.168238,-0.202886,-0.853756,-0.0686,0.11676,0.47796
-1.17139,0,0,16.1714,16.1714,13.8286,13.8286,0.616523,3.21243,-1.47082,0.0155609,0.139398,-0.200744,1,0,3.745,0.91,-1.9075,0.031598,0.140666,-1.21024,-0.0686,0.11676,0.47796
-1.16982,0,0,16.1698,16.1698,13.8302,13.8302,0.615692,3.21331,-1.47064,0.0155455,0.139383,-0.200745,1,0,2.9575,0.6475,-0.8575,0.031598,0.140666,-1.21024,-0.0686,0.11676,0.47796
-1.09004,0,0,16.09,16.09,13.91,13.91,0.573705,3.09086,-1.36206,-0.11474,0.0429055,0.0301549,0,0,3.5525,0.49,-0.4725,-0.101382,0.045018,-0.981246,-0.0686,0.11676,0.47796
-1.00588,0,0,16.0059,16.0059,13.9941,13.9941,0.529412,2.97095,-1.25326,-0.11265,0.0421346,0.030273,0,0,1.8725,0.6825,-0.3675,-0.101382,0.045018,-0.981246,-0.0686,0.11676,0.47796
-1.0021,0,0,16.0021,16.0021,13.9979,13.9979,0.527422,2.97129,-1.25194,-0.0339333,-0.00736145,0.116337,1,0,2.275,0.3325,-0.1925,-0.022326,-0.004392,-0.895846,-0.0686,0.11676,0.47796
-0.995446,0,0,15.9954,15.9954,14.0046,14.0046,0.523919,2.97191,-1.24969,-0.0339441,-0.0074225,0.116337,1,0,1.4,0.5075,0.35,-0.022326,-0.004392,-0.895846,-0.06468,0.12264,0.47992
-0.991622,0,0,15.9916,15.9916,14.0084,14.0084,0.521907,2.97212,-1.24759,-0.00734239,-0.212142,0.131829,1,0,2.24,0.2625,0.2625,0.004392,-0.208864,-0.880474,-0.06468,0.12264,0.47992
-0.99507,0,0,15.9951,15.9951,14.0049,14.0049,0.523721,2.97174,-1.24694,-0.00733583,-0.21211,0.131829,1,0,4.4275,-0.0875,-0.5775,0.004392,-0.208864,-0.880474,-0.06468,0.12264,0.47992
-0.927543,0,0,15.9275,15.9275,14.0725,14.0725,0.48818,3.0235,-1.30274,0.0515331,0.0400721,-0.0185792,0,0,4.8125,-0.14,-0.4375,0.064416,0.043676,-1.02968,-0.06468,0.12264,0.47992
-0.866293,0,0,15.8663,15.8663,14.1337,14.1337,0.455944,3.07505,-1.35728,0.0506346,0.0395099,-0.0186224,0,0,6.3,0.2975,0.2625,0.064416,0.043676,-1.02968,-0.06468,0.12264,0.47992
-0.569199,0,0,15.5692,15.5692,14.4308,14.4308,0.299578,3.15826,-1.45062,0.0671643,0.15427,0.0919703,0,0,5.6,0.0525,0.14,0.082472,0.16104,-0.91988,-0.06468,0.12264,0.47992
-0.270798,0,0,15.2708,15.2708,14.7292,14.7292,0.142526,3.2398,-1.54591,0.0657434,0.151533,0.0919014,0,0,3.85,-0.0525,-0.875,0.082472,0.16104,-0.91988,-0.06468,0.12264,0.47992
-0.953621,0,0,15.9536,15.9536,14.0464,14.0464,0.501906,3.54185,-1.80629,0.295313,-0.384206,0.118603,0,0,3.1325,0,-1.0675,0.318298,-0.380396,-0.89304,-0.06468,0.12264,0.47992
-1.61828,0,0,16.6183,16.6183,13.3817,13.3817,0.851726,3.84302,-2.05253,0.290067,-0.378117,0.118193,0,0,0.7,-0.105,-1.05,0.318298,-0.380396,-0.89304,-0.06482,0.11452,0.47768
-1.75807,0,0,16.7581,16.7581,13.2419,13.2419,0.925298,3.49387,-1.73659,-0.321728,-0.0763982,0.0771289,0,0,0.98,-0.3675,-1.12,-0.302194,-0.080276,-0.934154,-0.06482,0.11452,0.47768
-1.89845,0,0,16.8984,16.8984,13.1016,13.1016,0.999182,3.15072,-1.42264,-0.315749,-0.0751053,0.0774544,0,0,1.9425,-0.4025,-1.435,-0.302194,-0.080276,-0.934154,-0.06482,0.11452,0.47768
-1.89694,0,0,16.8969,16.8969,13.1031,13.1031,0.998391,3.14952,-1.42342,0.217594,-0.0215054,-0.310816,1,0,3.01,-0.5775,-1.4,0.233386,-0.026718,-1.31943,-0.06482,0.11452,0.47768
-1.8997,0,0,16.8997,16.8997,13.1003,13.1003,0.99984,3.14983,-1.42436,0.217589,-0.0214801,-0.310816,1,0,4.27,0.2975,-1.505,0.233386,-0.026718,-1.31943,-0.06482,0.11452,0.47768
-2.28567,0,0,17.2857,17.2857,12.7143,12.7143,1.20299,2.86957,-1.15309,-0.258367,-0.199293,0.0883403,0,0,4.1475,-0.0875,-1.2775,-0.24949,-0.207888,-0.92354,-0.06482,0.11452,0.47768
-2.66571,0,0,17.6657,17.6657,12.3343,12.3343,1.40301,2.59502,-0.884901,-0.25358,-0.195802,0.0884893,0,0,4.305,0.4025,-1.61,-0.24949,-0.207888,-0.92354,-0.06482,0.11452,0.47768
-2.66541,0,0,17.6654,17.6654,12.3346,12.3346,1.40285,2.5958,-0.88567,0.311315,0.010223,-0.175236,1,0,3.36,0.5775,-1.4175,0.31781,-0.002074,-1.18523,-0.06482,0.11452,0.47768
