pid_x,pid_y,pid_z,front_left_speed,front_right_speed,back_left_speed,back_right_speed,orientation_x,orientation_y,orientation_z,acceleration_x,acceleration_y,acceleration_z,accel_rejected,mag_rejected,gyro_x,gyro_y,gyro_z,accel_x,accel_y,accel_z,mag_x,mag_y,mag_z
-0.173191,0,0,15.1732,15.1732,14.8268,14.8268,0.49462,-0.0661368,-0.262236,0.0338778,-0.429625,0.0851043,0,0,3.3425,-0.175,-0.3675,-0.007442,-0.425658,-0.928176,-0.06384,0.26334,0.33012
-0.343381,0,0,15.3434,15.3434,14.6566,14.6566,0.980457,-0.128117,-0.523041,0.0349596,-0.421146,0.0849933,0,0,3.2725,-0.175,-0.3675,-0.007442,-0.425658,-0.928176,-0.06384,0.26334,0.33012
-0.509854,0,0,15.5099,15.5099,14.4901,14.4901,1.45547,-0.17708,-0.789263,0.0421314,-0.409805,0.0860443,0,0,3.4125,-0.035,-0.28,-0.001098,-0.422608,-0.926956,-0.06384,0.26334,0.33012
-0.673494,0,0,15.6735,15.6735,14.3265,14.3265,1.92219,-0.222378,-1.05415,0.042922,-0.401663,0.0858015,0,0,3.465,-0.035,-0.5075,-0.001098,-0.422608,-0.926956,-0.06384,0.26334,0.33012
-0.834409,0,0,15.8344,15.8344,14.1656,14.1656,2.38093,-0.268743,-1.31346,0.0403296,-0.393296,0.0869728,0,0,3.4825,-0.1225,-0.455,-0.004514,-0.422242,-0.925492,-0.06384,0.26334,0.33012
-0.992526,0,0,15.9925,15.9925,14.0075,14.0075,2.83148,-0.310151,-1.56811,0.0410523,-0.385441,0.0866116,0,0,3.535,0,-0.49,-0.004514,-0.422242,-0.925492,-0.06314,0.2604,0.32494
-1.14816,0,0,16.1482,16.1482,13.8518,13.8518,3.27475,-0.349373,-1.81975,0.0406435,-0.377227,0.0887776,0,0,3.6225,0.21,-0.49,-0.005612,-0.421754,-0.92293,-0.06314,0.2604,0.32494
-1.30102,0,0,16.301,16.301,13.699,13.699,3.7099,-0.385662,-2.06947,0.0412768,-0.369647,0.0883109,0,0,3.5525,0.0525,-0.4375,-0.005612,-0.421754,-0.92293,-0.06314,0.2604,0.32494
-1.45099,0,0,16.451,16.451,13.549,13.549,4.13659,-0.416578,-2.31928,0.0435172,-0.361362,0.0890271,0,0,3.4825,-0.035,-0.5075,-0.003904,-0.4209,-0.92171,-0.06314,0.2604,0.32494
-1.59823,0,0,16.5982,16.5982,13.4018,13.4018,4.55534,-0.445125,-2.56623,0.043651,-0.355541,0.0857647,0,0,3.325,0.0525,-0.315,-0.00427,-0.422364,-0.924394,-0.06314,0.2604,0.32494
-1.74294,0,0,16.7429,16.7429,13.2571,13.2571,4.96667,-0.470798,-2.81158,0.044099,-0.348387,0.0851652,0,0,3.465,0.07,-0.5425,-0.00427,-0.422364,-0.924394,-0.06314,0.2604,0.32494
-1.88447,0,0,16.8845,16.8845,13.1155,13.1155,5.36874,-0.488772,-3.05843,0.0478143,-0.340422,0.0831782,0,0,3.5,0.1225,-0.4375,-0.000854,-0.421388,-0.925736,-0.06314,0.2604,0.32494
-2.02351,0,0,17.0235,17.0235,12.9765,12.9765,5.76353,-0.504336,-3.30324,0.048086,-0.333564,0.0825075,0,0,3.5875,0.0875,-0.49,-0.000854,-0.421388,-0.925736,-0.06314,0.2604,0.32494
-2.16105,0,0,17.161,17.161,12.839,12.839,6.15385,-0.523395,-3.53663,0.0438021,-0.329598,0.0819203,0,0,3.675,-0.07,-0.5075,-0.00549,-0.424194,-0.925614,-0.0616,0.25746,0.3227
-2.29674,0,0,17.2967,17.2967,12.7033,12.7033,6.53874,-0.534718,-3.77203,0.0477658,-0.321823,0.0874464,0,0,3.7625,0.0525,-0.56,-0.001708,-0.423096,-0.919392,-0.0616,0.25746,0.3227
-2.42996,0,0,17.43,17.43,12.57,12.57,6.91641,-0.544239,-4.0056,0.047932,-0.315277,0.0866727,0,0,3.745,-0.175,-0.7,-0.001708,-0.423096,-0.919392,-0.0616,0.25746,0.3227
-2.55944,0,0,17.5594,17.5594,12.4406,12.4406,7.28323,-0.557969,-4.23186,0.0431907,-0.306971,0.0818218,0,0,3.7275,-0.14,-0.595,-0.00671,-0.421144,-0.923418,-0.0616,0.25746,0.3227
-2.68645,0,0,17.6865,17.6865,12.3135,12.3135,7.64285,-0.569677,-4.45582,0.043395,-0.300748,0.0810046,0,0,3.57,-0.175,-0.4375,-0.00671,-0.421144,-0.923418,-0.0616,0.25746,0.3227
-2.81213,0,0,17.8121,17.8121,12.1879,12.1879,7.99849,-0.577276,-4.67925,0.0453499,-0.295943,0.0837242,0,0,3.5525,-0.175,-0.4025,-0.00488,-0.422486,-0.91988,-0.0616,0.25746,0.3227
-2.93546,0,0,17.9355,17.9355,12.0645,12.0645,8.3473,-0.582969,-4.90063,0.0454493,-0.289917,0.0828578,0,0,3.5,-0.175,-0.4375,-0.00488,-0.422486,-0.91988,-0.0616,0.25746,0.3227
-3.05601,0,0,18.056,18.056,11.944,11.944,8.68801,-0.582806,-5.12279,0.0482406,-0.285502,0.0770592,0,0,3.2725,-0.0875,-0.5075,-0.002074,-0.42395,-0.92476,-0.0616,0.25746,0.3227
-3.17439,0,0,18.1744,18.1744,11.8256,11.8256,9.02237,-0.582261,-5.34538,0.0482311,-0.279736,0.076161,0,0,3.325,-0.245,-0.4725,-0.002074,-0.42395,-0.92476,-0.05824,0.259,0.32732
-3.29135,0,0,18.2914,18.2914,11.7086,11.7086,9.35253,-0.582346,-5.56403,0.0467747,-0.274292,0.0794212,0,0,3.29,-0.175,-0.4375,-0.003538,-0.424194,-0.920612,-0.05824,0.259,0.32732
-3.40635,0,0,18.4064,18.4064,11.5936,11.5936,9.67695,-0.580844,-5.78074,0.0467485,-0.268708,0.0784856,0,0,3.6225,-0.1925,-0.56,-0.003538,-0.424194,-0.920612,-0.05824,0.259,0.32732
-3.51821,0,0,18.5182,18.5182,11.4818,11.4818,9.99227,-0.575019,-5.99711,0.0482262,-0.260965,0.0761942,0,0,3.745,-0.1925,-0.455,-0.001952,-0.421876,-0.921954,-0.05824,0.259,0.32732
-3.62801,0,0,18.628,18.628,11.372,11.372,10.3016,-0.567847,-6.21134,0.048101,-0.255652,0.0752445,0,0,3.745,-0.1925,-0.455,-0.001952,-0.421876,-0.921954,-0.05824,0.259,0.32732
-3.73472,0,0,18.7347,18.7347,11.2653,11.2653,10.6019,-0.562482,-6.42055,0.0453347,-0.249886,0.0691307,0,0,3.78,0.0525,-0.35,-0.004636,-0.421266,-0.927078,-0.05824,0.259,0.32732
-3.83945,0,0,18.8394,18.8394,11.1606,11.1606,10.8965,-0.555844,-6.62768,0.0452189,-0.244836,0.068173,0,0,3.78,0.0525,-0.35,-0.004636,-0.421266,-0.927078,-0.05824,0.259,0.32732
-3.94377,0,0,18.9438,18.9438,11.0562,11.0562,11.1897,-0.551313,-6.83058,0.0435605,-0.241888,0.0732178,0,0,3.5,-0.105,-0.385,-0.006222,-0.42334,-0.9211,-0.05824,0.259,0.32732
-4.04628,0,0,19.0463,19.0463,10.9537,10.9537,11.4777,-0.548581,-7.04356,0.0435128,-0.23696,0.0722306,0,0,3.5,-0.105,-0.385,-0.006222,-0.42334,-0.9211,-0.06076,0.26614,0.3283
-4.14703,0,0,19.147,19.147,10.853,10.853,11.7605,-0.544881,-7.25421,0.0432052,-0.232492,0.071483,0,0,3.5,-0.0875,-0.525,-0.006466,-0.423706,-0.920856,-0.06076,0.26614,0.3283
-4.24536,0,0,19.2454,19.2454,10.7546,10.7546,12.0363,-0.533027,-7.46727,0.0474933,-0.228637,0.0658206,0,0,3.5875,0.035,-0.56,-0.001952,-0.42456,-0.925492,-0.06076,0.26614,0.3283
-4.34175,0,0,19.3418,19.3418,10.6582,10.6582,12.3064,-0.520232,-7.67792,0.04727,-0.224027,0.0648285,0,0,3.4475,0,-0.455,-0.001952,-0.42456,-0.925492,-0.06076,0.26614,0.3283
-4.43562,0,0,19.4356,19.4356,10.5644,10.5644,12.5692,-0.506579,-7.88634,0.0465458,-0.215151,0.0688836,0,0,3.4475,-0.105,-0.4375,-0.00244,-0.420168,-0.92049,-0.06076,0.26614,0.3283
-4.52786,0,0,19.5279,19.5279,10.4721,10.4721,12.8273,-0.492261,-8.09277,0.0462959,-0.210758,0.0678958,0,0,3.64,-0.28,-0.5425,-0.00244,-0.420168,-0.92049,-0.06076,0.26614,0.3283
-4.61989,0,0,19.6199,19.6199,10.3801,10.3801,13.0846,-0.476536,-8.29724,0.0471148,-0.211265,0.0667682,0,0,3.4125,-0.245,-0.5775,-0.001342,-0.425048,-0.920612,-0.06076,0.26614,0.3283
-4.71022,0,0,19.7102,19.7102,10.2898,10.2898,13.337,-0.459622,-8.49919,0.0468196,-0.206977,0.0657639,0,0,3.465,0,-0.455,-0.001342,-0.425048,-0.920612,-0.06076,0.26614,0.3283
-4.79734,0,0,19.7973,19.7973,10.2027,10.2027,13.5801,-0.44525,-8.69306,0.0432887,-0.199797,0.0621965,0,0,3.465,-0.0175,-0.4375,-0.004636,-0.421998,-0.923174,-0.06482,0.26572,0.32788
-4.87209,0,0,19.8721,19.8721,10.1279,10.1279,13.7878,-0.417949,-8.89362,0.0470642,-0.175391,0.0417937,0,0,3.64,-0.07,-0.49,-0.000366,-0.401136,-0.942572,-0.06482,0.26572,0.32788
-4.94544,0,0,19.9454,19.9454,10.0546,10.0546,13.9913,-0.390447,-9.09207,0.0465842,-0.171941,0.0409442,0,0,3.6225,-0.105,-0.5425,-0.000366,-0.401136,-0.942572,-0.06482,0.26572,0.32788
-5.01928,0,0,20.0193,20.0193,9.98072,9.98072,14.1962,-0.413759,-9.2546,0.0132181,-0.175069,0.0319561,0,0,3.6575,-0.035,-0.6475,-0.034282,-0.407724,-0.950624,-0.06482,0.26572,0.32788
-5.09166,0,0,20.0917,20.0917,9.90834,9.90834,14.3968,-0.435493,-9.41523,0.0135974,-0.171676,0.0310886,0,0,3.57,0,-0.455,-0.034282,-0.407724,-0.950624,-0.06482,0.26572,0.32788
-5.16251,0,0,20.1625,20.1625,9.83749,9.83749,14.593,-0.619947,-9.46543,-0.0842595,-0.119884,0.125734,0,0,3.465,0,-0.3675,-0.135786,-0.35929,-0.85583,-0.06482,0.26572,0.32788
-5.23197,0,0,20.232,20.232,9.76803,9.76803,14.7851,-0.798579,-9.51597,-0.081142,-0.116651,0.124846,0,0,3.5175,-0.0525,-0.385,-0.135786,-0.35929,-0.85583,-0.06482,0.26572,0.32788
-5.31377,0,0,20.3138,20.3138,9.68623,9.68623,15.0124,-0.736441,-9.71921,0.0764339,-0.231521,-0.0264024,0,0,3.6225,-0.035,-0.28,0.023546,-0.477874,-1.00491,-0.06482,0.26572,0.32788
-5.31599,0,0,20.316,20.316,9.68401,9.68401,15.0123,-0.736304,-9.71898,0.0764315,-0.231523,-0.026402,1,0,3.4825,0.0875,-0.3325,0.023546,-0.477874,-1.00491,-0.05992,0.2674,0.33922
-5.31835,0,0,20.3184,20.3184,9.68165,9.68165,15.0126,-0.736228,-9.71899,-0.125965,-0.178759,0.383507,1,0,3.71,0.0175,-0.455,-0.179706,-0.42517,-0.598166,-0.05992,0.2674,0.33922
-5.32072,0,0,20.3207,20.3207,9.67928,9.67928,15.013,-0.736153,-9.71899,-0.125966,-0.178753,0.383506,1,0,3.71,0.0175,-0.455,-0.179706,-0.42517,-0.598166,-0.05992,0.2674,0.33922
-5.53863,0,0,20.5386,20.5386,9.46137,9.46137,15.6289,-1.1962,-9.55492,-0.210267,-0.439422,0.307012,0,0,2.835,-0.2975,-0.945,-0.272426,-0.695888,-0.671122,-0.05992,0.2674,0.33922
-5.75258,0,0,20.7526,20.7526,9.24742,9.24742,16.2332,-1.64211,-9.39998,-0.202487,-0.429336,0.303932,0,0,2.835,-0.2975,-0.945,-0.272426,-0.695888,-0.671122,-0.05992,0.2674,0.33922
-5.77721,0,0,20.7772,20.7772,9.22279,9.22279,16.2966,-1.30037,-9.77423,0.253439,-0.0954359,-0.0567154,0,0,3.7625,-4.305,-0.945,0.191418,-0.363438,-1.02883,-0.05992,0.2674,0.33922
-5.77982,0,0,20.7798,20.7798,9.22018,9.22018,16.2971,-1.30714,-9.77711,0.253557,-0.0954287,-0.0567203,1,0,3.7625,-4.305,-0.945,0.191418,-0.363438,-1.02883,-0.05992,0.2674,0.33922
-5.74603,0,0,20.746,20.746,9.25397,9.25397,16.1936,-1.76214,-9.62664,-0.331476,0.106363,-0.0495343,0,0,3.7275,0.1225,-1.3125,-0.404064,-0.160064,-1.02199,-0.05992,0.2674,0.33922
-5.71268,0,0,20.7127,20.7127,9.28732,9.28732,16.0914,-2.20659,-9.47946,-0.323724,0.104577,-0.0492967,0,0,3.7275,0.1225,-1.3125,-0.404064,-0.160064,-1.02199,-0.06104,0.2688,0.33656
-5.78323,0,0,20.7832,20.7832,9.21677,9.21677,16.286,-2.05122,-9.7222,0.133997,-0.216382,-0.0462119,0,0,3.4125,0.035,-1.015,0.058316,-0.483974,-1.01809,-0.06104,0.2688,0.33656
-5.80959,0,0,20.8096,20.8096,9.19041,9.19041,16.3543,-1.82082,-10.0121,0.16776,-0.0991804,-0.0639979,0,0,2.31,0.3325,-0.9625,0.096258,-0.368074,-1.03554,-0.06104,0.2688,0.33656
-5.83572,0,0,20.8357,20.8357,9.16428,9.16428,16.4219,-1.59782,-10.2992,0.16387,-0.0980159,-0.0642194,0,0,2.66,-0.5075,-1.0325,0.096258,-0.368074,-1.03554,-0.06104,0.2688,0.33656
-5.86354,0,0,20.8635,20.8635,9.13646,9.13646,16.4943,-1.21428,-10.6861,0.292027,-0.12387,-0.0910996,0,0,3.115,-0.28,-1.1025,0.231678,-0.395158,-1.06201,-0.06104,0.2688,0.33656
-5.86593,0,0,20.8659,20.8659,9.13407,9.13407,16.4941,-1.2148,-10.6869,0.292036,-0.123874,-0.0910987,1,0,3.395,-0.455,-0.8225,0.231678,-0.395158,-1.06201,-0.06104,0.2688,0.33656
-5.86815,0,0,20.8682,20.8682,9.13185,9.13185,16.4934,-1.21522,-10.6866,-1.23139,0.390512,0.934172,1,0,3.1325,-0.21,-0.21,-1.2982,0.118706,-0.044652,-0.06104,0.2688,0.33656
-5.87002,0,0,20.87,20.87,9.12998,9.12998,16.4916,-1.21597,-10.6859,-1.23137,0.390483,0.934181,1,0,2.5725,-0.315,0.1225,-1.2982,0.118706,-0.044652,-0.06104,0.2688,0.33656
-5.87293,0,0,20.8729,20.8729,9.12707,9.12707,16.4929,-1.21687,-10.6842,0.431538,-0.536316,0.029519,1,0,4.2525,-0.245,0.665,0.371734,-0.807152,-0.942328,-0.06146,0.27622,0.34944
-5.87664,0,0,20.8766,20.8766,9.12336,9.12336,16.4964,-1.21805,-10.682,-0.192271,0.311425,0.122327,1,0,5.5475,-0.3325,0.945,-0.254736,0.03965,-0.850218,-0.06146,0.27622,0.34944
-5.87994,0,0,20.8799,20.8799,9.12006,9.12006,16.4988,-1.21766,-10.6796,-0.192277,0.311464,0.122316,1,0,4.8825,0.595,0.8575,-0.254736,0.03965,-0.850218,-0.06146,0.27622,0.34944
-5.94408,0,0,20.9441,20.9441,9.05592,9.05592,16.6749,-1.50517,-10.6443,-0.17657,-0.15911,-0.0136733,0,0,4.3225,0.1925,1.2775,-0.244,-0.433344,-0.984174,-0.06146,0.27622,0.34944
-6.00566,0,0,21.0057,21.0057,8.99434,8.99434,16.8436,-1.78413,-10.6091,-0.171703,-0.156332,-0.0146559,0,0,2.4325,0.42,1.9075,-0.244,-0.433344,-0.984174,-0.06146,0.27622,0.34944
-6.00719,0,0,21.0072,21.0072,8.99281,8.99281,16.8407,-1.78639,-10.6061,-0.651897,-0.494427,-0.19009,1,0,1.9775,-0.77,1.645,-0.726266,-0.77104,-1.15827,-0.06146,0.27622,0.34944
-6.00875,0,0,21.0088,21.0088,8.99125,8.99125,16.838,-1.78813,-10.6023,-0.651866,-0.494473,-0.190077,1,0,2.065,-0.3675,1.9425,-0.726266,-0.77104,-1.15827,-0.06146,0.27622,0.34944
-6.01111,0,0,21.0111,21.0111,8.98889,8.98889,16.8375,-0.990201,-11.233,0.556965,-0.0227299,0.0750796,0,0,3.0975,-0.5425,1.9425,0.501664,-0.299876,-0.89548,-0.06146,0.27622,0.34944
-6.01309,0,0,21.0131,21.0131,8.98691,8.98691,16.836,-0.212556,-11.8628,0.543393,-0.0227145,0.0752237,0,0,2.9925,-0.4025,1.855,0.501664,-0.299876,-0.89548,-0.06188,0.28238,0.35756
-6.02039,0,0,21.0204,21.0204,8.97961,8.97961,16.8496,0.0780783,-12.2104,0.193301,-0.0250495,0.00704698,0,0,4.4625,-0.105,1.12,0.155184,-0.302438,-0.963068,-0.06188,0.28238,0.35756
-6.02752,0,0,21.0275,21.0275,8.97248,8.97248,16.8627,0.363333,-12.5559,0.188323,-0.0248357,0.00696216,0,0,4.305,1.05,0,0.155184,-0.302438,-0.963068,-0.06188,0.28238,0.35756
-6.03026,0,0,21.0303,21.0303,8.96974,8.96974,16.8633,0.365781,-12.5545,-0.571735,0.37978,0.515597,1,0,3.8675,1.5925,-0.0525,-0.608048,0.101748,-0.458354,-0.06188,0.28238,0.35756
-6.03329,0,0,21.0333,21.0333,8.96671,8.96671,16.8648,0.36774,-12.5551,-0.571769,0.379804,0.515589,1,0,4.34,0.9625,-1.1375,-0.608048,0.101748,-0.458354,-0.06188,0.28238,0.35756
-6.03605,0,0,21.036,21.036,8.96395,8.96395,16.8654,0.369877,-12.5573,-0.244645,-0.417917,-0.250629,1,0,3.9025,0.805,-2.0125,-0.279502,-0.695156,-1.21866,-0.06188,0.28238,0.35756
-6.03781,0,0,21.0378,21.0378,8.96219,8.96219,16.8632,0.37255,-12.5599,-0.244692,-0.417954,-0.250618,1,0,2.31,1.0325,-2.345,-0.279502,-0.695156,-1.21866,-0.06188,0.28238,0.35756
-6.15379,0,0,21.1538,21.1538,8.84621,8.84621,17.1872,0.77449,-12.9536,0.311258,-0.263451,0.175151,0,0,2.7475,0.0175,-2.5025,0.285846,-0.546194,-0.794464,-0.06188,0.28238,0.35756
-6.26818,0,0,21.2682,21.2682,8.73182,8.73182,17.5066,1.15901,-13.3584,0.304548,-0.258166,0.173381,0,0,2.135,0.42,-2.6075,0.285846,-0.546194,-0.794464,-0.05544,0.29148,0.35728
-6.27049,0,0,21.2705,21.2705,8.72951,8.72951,17.5056,1.15976,-13.3619,0.0347151,0.844379,-0.104847,1,0,3.0625,-0.2275,-2.5375,0.014884,0.555222,-1.07055,-0.05544,0.29148,0.35728
-6.27339,0,0,21.2734,21.2734,8.72661,8.72661,17.5064,1.15778,-13.3673,0.0347497,0.844393,-0.10485,1,0,4.0425,-2.0825,-3.0975,0.014884,0.555222,-1.07055,-0.05544,0.29148,0.35728
-6.27727,0,0,21.2773,21.2773,8.72273,8.72273,17.51,1.1573,-13.3725,0.343089,-0.558295,0.0648001,1,0,5.6,-1.2075,-3.2375,0.32452,-0.84607,-0.90219,-0.05544,0.29148,0.35728
-6.28065,0,0,21.2806,21.2806,8.71935,8.71935,17.5122,1.15582,-13.3778,0.343115,-0.558259,0.0647893,1,0,4.795,-1.785,-3.1325,0.32452,-0.84607,-0.90219,-0.05544,0.29148,0.35728
-6.28385,0,0,21.2838,21.2838,8.71615,8.71615,17.5138,1.15542,-13.3835,0.0006535,-0.555179,0.0823625,1,0,4.515,-1.26,-3.5525,-0.019398,-0.84302,-0.884744,-0.05544,0.29148,0.35728
-6.28691,0,0,21.2869,21.2869,8.71309,8.71309,17.515,1.15759,-13.3886,0.000615561,-0.555159,0.0823552,1,0,4.2875,0.2975,-3.64,-0.019398,-0.84302,-0.884744,-0.05544,0.29148,0.35728
-6.28915,0,0,21.2891,21.2891,8.71085,8.71085,17.5139,1.16058,-13.3928,0.339751,0.616262,-0.0737845,1,0,2.9575,0.91,-3.29,0.321226,0.327204,-1.03968,-0.05544,0.29148,0.35728
-6.29067,0,0,21.2907,21.2907,8.70933,8.70933,17.5108,1.16231,-13.3954,0.339721,0.61621,-0.0737686,1,0,1.8025,0.4725,-2.2225,0.321226,0.327204,-1.03968,-0.05544,0.29148,0.35728
-6.29222,0,0,21.2922,21.2922,8.70778,8.70778,17.5077,1.16439,-13.3968,-0.192179,0.10518,0.21825,1,0,1.82,0.8925,-1.575,-0.21289,-0.183244,-0.749934,-0.0574,0.29246,0.36246
-6.29392,0,0,21.2939,21.2939,8.70608,8.70608,17.5051,1.16287,-13.3974,0.366438,0.344993,0.495267,1,0,2.065,-0.98,-0.525,0.348066,0.056364,-0.475068,-0.0574,0.29246,0.36246
-6.29666,0,0,21.2967,21.2967,8.70334,8.70334,17.5054,1.16038,-13.3964,0.366482,0.344999,0.495266,1,0,3.6925,-1.2425,0.5425,0.348066,0.056364,-0.475068,-0.0574,0.29246,0.36246
-6.45387,0,0,21.4539,21.4539,8.54613,8.54613,17.9469,0.507993,-13.1383,-0.383363,-0.343979,0.153249,0,0,2.6425,-1.2425,1.5925,-0.416386,-0.63928,-0.812276,-0.0574,0.29246,0.36246
-6.60843,0,0,21.6084,21.6084,8.39157,8.39157,18.3806,-0.125187,-12.889,-0.372312,-0.336775,0.150924,0,0,4.095,-0.49,1.6975,-0.416386,-0.63928,-0.812276,-0.0574,0.29246,0.36246
-6.61151,0,0,21.6115,21.6115,8.38849,8.38849,18.3815,-0.127758,-12.8848,0.152673,-0.625467,0.160263,1,0,4.0425,-0.6825,2.345,0.110776,-0.927688,-0.803004,-0.0574,0.29246,0.36246
-6.61418,0,0,21.6142,21.6142,8.38582,8.38582,18.3813,-0.129044,-12.8802,0.152695,-0.625471,0.160264,1,0,3.4125,0.105,2.3275,0.110776,-0.927688,-0.803004,-0.0574,0.29246,0.36246
-6.69478,0,0,21.6948,21.6948,8.30522,8.30522,18.6036,-0.824896,-12.5803,-0.372248,-0.0707881,0.231354,0,0,1.61,1.3125,2.24,-0.428586,-0.377224,-0.731146,-0.05936,0.28728,0.37114
-6.69692,0,0,21.6969,21.6969,8.30308,8.30308,18.6017,-0.822237,-12.5741,0.40327,0.229002,-0.389525,1,0,2.5375,2.6075,2.485,0.350262,-0.077714,-1.34725,-0.05936,0.28728,0.37114
-6.69905,0,0,21.6991,21.6991,8.30095,8.30095,18.5998,-0.819578,-12.568,0.403223,0.228972,-0.389514,1,0,2.5375,2.6075,2.485,0.350262,-0.077714,-1.34725,-0.05936,0.28728,0.37114
-6.70131,0,0,21.7013,21.7013,8.29869,8.29869,18.5983,-0.817191,-12.5624,-0.0725562,-0.10507,-0.110534,1,0,2.73,2.345,2.205,-0.12749,-0.411384,-1.07043,-0.05936,0.28728,0.37114
-6.70357,0,0,21.7036,21.7036,8.29643,8.29643,18.5968,-0.814803,-12.5568,-0.0725979,-0.105095,-0.110525,1,0,2.73,2.345,2.205,-0.12749,-0.411384,-1.07043,-0.05936,0.28728,0.37114
-6.70621,0,0,21.7062,21.7062,8.29379,8.29379,18.5964,-0.815771,-12.5535,-0.130651,0.132923,0.0918501,1,0,3.3075,0.0525,1.5575,-0.185806,-0.173606,-0.869616,-0.05936,0.28728,0.37114
-6.70884,0,0,21.7088,21.7088,8.29116,8.29116,18.5959,-0.816738,-12.5502,-0.130634,0.132915,0.0918524,1,0,3.3075,0.0525,1.5575,-0.185806,-0.173606,-0.869616,-0.05936,0.28728,0.37114
-6.71284,0,0,21.7128,21.7128,8.28716,8.28716,18.5994,-0.821386,-12.5505,0.292582,0.313598,-0.246522,1,0,5.4775,-2.66,0.2625,0.23912,0.006832,-1.20536,-0.05936,0.28728,0.37114
-6.71685,0,0,21.7168,21.7168,8.28315,8.28315,18.6029,-0.826034,-12.5508,0.292663,0.313655,-0.246543,1,0,5.4775,-2.66,0.2625,0.23912,0.006832,-1.20536,-0.05768,0.2933,0.36862
-6.7199,0,0,21.7199,21.7199,8.2801,8.2801,18.6036,-0.825272,-12.5522,0.243569,0.313911,-0.377487,1,0,3.9375,0.14,-1.3475,0.189832,0.007076,-1.33529,-0.05768,0.2933,0.36862
-6.72295,0,0,21.7229,21.7229,8.27705,8.27705,18.6043,-0.82451,-12.5536,0.243556,0.313924,-0.377491,1,0,3.9375,0.14,-1.3475,0.189832,0.007076,-1.33529,-0.05768,0.2933,0.36862
-6.9208,0,0,21.9208,21.9208,8.0792,8.0792,19.1614,-0.990115,-12.5788,-0.0281119,-0.468518,0.211194,0,0,2.7125,1.5225,-2.5725,-0.085888,-0.783728,-0.747982,-0.05768,0.2933,0.36862
-7.11512,0,0,22.1151,22.1151,7.88488,7.88488,19.7082,-1.14842,-12.6063,-0.0253493,-0.459538,0.207971,0,0,2.7125,1.5225,-2.5725,-0.085888,-0.783728,-0.747982,-0.05768,0.2933,0.36862
-7.11663,0,0,22.1166,22.1166,7.88337,7.88337,19.7041,-1.14455,-12.6098,-0.157958,-0.353599,0.544875,1,0,1.19,1.4175,-3.1325,-0.21899,-0.677832,-0.413702,-0.05768,0.2933,0.36862
-7.11815,0,0,22.1181,22.1181,7.88185,7.88185,19.6999,-1.14068,-12.6134,-0.158025,-0.353666,0.5449,1,0,1.19,1.4175,-3.1325,-0.21899,-0.677832,-0.413702,-0.05768,0.2933,0.36862
-7.1212,0,0,22.1212,22.1212,7.8788,7.8788,19.7002,-1.13964,-12.6173,0.18078,-0.187325,0.608218,1,0,3.64,-0.2275,-2.8,0.121268,-0.511668,-0.350872,-0.05768,0.2933,0.36862
-7.17781,0,0,22.1778,22.1778,7.82219,7.82219,19.8534,-0.365298,-13.2189,0.531602,-0.120021,0.200643,0,0,5.18,-2.66,-2.5025,0.487146,-0.447008,-0.75457,-0.05852,0.29792,0.36092
-7.18184,0,0,22.1818,22.1818,7.81816,7.81816,19.8564,-0.368671,-13.2233,-0.105896,0.266925,-0.295472,1,0,5.1975,-2.765,-2.205,-0.15311,-0.060512,-1.24684,-0.05852,0.29792,0.36092
-7.18557,0,0,22.1856,22.1856,7.81443,7.81443,19.8586,-0.371394,-13.2266,-0.105848,0.26696,-0.295485,1,0,4.725,-2.17,-1.68,-0.15311,-0.060512,-1.24684,-0.05852,0.29792,0.36092
-7.18883,0,0,22.1888,22.1888,7.81117,7.81117,19.8594,-0.371935,-13.2287,0.125348,0.118223,-0.455569,1,0,3.99,-0.735,-1.47,0.079056,-0.209108,-1.40568,-0.05852,0.29792,0.36092
-7.19162,0,0,22.1916,22.1916,7.80838,7.80838,19.8589,-0.370162,-13.2292,0.125317,0.118214,-0.455565,1,0,3.22,0.84,-1.1025,0.079056,-0.209108,-1.40568,-0.05852,0.29792,0.36092
-7.194,0,0,22.194,22.194,7.806,7.806,19.8572,-0.367918,-13.2283,0.528611,-0.189939,-0.149782,1,0,2.59,1.4,-0.3675,0.484096,-0.516914,-1.10227,-0.05852,0.29792,0.36092
-7.19599,0,0,22.196,22.196,7.80401,7.80401,19.8543,-0.367251,-13.2274,0.0574776,-0.196825,-0.153454,1,0,1.9425,0.525,-0.07,0.01098,-0.523746,-1.10593,-0.05852,0.29792,0.36092
-7.19846,0,0,22.1985,22.1985,7.80154,7.80154,19.8529,-0.367263,-13.2258,0.0574778,-0.196849,-0.153445,1,0,2.73,0.28,0.42,0.01098,-0.523746,-1.10593,-0.05852,0.29792,0.36092
-7.20081,0,0,22.2008,22.2008,7.79919,7.79919,19.8511,-0.367962,-13.2244,0.545255,-0.331462,0.110659,1,0,2.5375,-0.1225,0.49,0.50081,-0.65819,-0.843874,-0.0581,0.2926,0.35798
-7.15829,0,0,22.1583,22.1583,7.84171,7.84171,19.7212,-0.087803,-13.557,0.150396,0.113151,0.053167,0,0,4.2875,-1.3825,0.84,0.10919,-0.211914,-0.901702,-0.0581,0.2926,0.35798
-7.11675,0,0,22.1168,22.1168,7.88325,7.88325,19.5941,0.183578,-13.8876,0.14566,0.111061,0.0539094,0,0,4.445,-1.7325,1.015,0.10919,-0.211914,-0.901702,-0.0581,0.2926,0.35798
-7.0402,0,0,22.0402,22.0402,7.9598,7.9598,19.3671,0.702362,-14.3659,0.325637,0.162625,-0.0670461,0,0,4.865,-1.2425,1.365,0.299022,-0.156648,-1.02297,-0.0581,0.2926,0.35798
-6.96438,0,0,21.9644,21.9644,8.03562,8.03562,19.1422,1.2081,-14.8429,0.316812,0.158873,-0.0658912,0,0,3.9725,-0.525,1.155,0.299022,-0.156648,-1.02297,-0.0581,0.2926,0.35798
-7.03606,0,0,22.0361,22.0361,7.96394,7.96394,19.3387,1.05915,-14.9091,-0.0682498,-0.178118,0.00335386,0,0,3.605,0.8225,0.8225,-0.09028,-0.49654,-0.953186,-0.0581,0.2926,0.35798
-7.03877,0,0,22.0388,22.0388,7.96123,7.96123,19.3382,1.06233,-14.9057,0.349484,0.0188633,-0.179714,1,0,3.185,2.38,0.77,0.329278,-0.299754,-1.13484,-0.0581,0.2926,0.35798
-7.04179,0,0,22.0418,22.0418,7.95821,7.95821,19.3385,1.06593,-14.9023,0.349421,0.0188686,-0.179717,1,0,3.6925,2.625,0.7525,0.329278,-0.299754,-1.13484,-0.0581,0.2926,0.35798
-7.04465,0,0,22.0447,22.0447,7.95535,7.95535,19.3384,1.06881,-14.8995,-0.393271,0.0431698,0.516786,1,0,3.4475,2.1175,0.56,-0.416508,-0.275476,-0.443714,-0.05362,0.28798,0.36666
-7.04715,0,0,22.0472,22.0472,7.95285,7.95285,19.3373,1.07011,-14.8979,0.119011,-0.481506,0.0259815,1,0,2.87,0.9975,0.1575,0.097966,-0.799588,-0.930738,-0.05362,0.28798,0.36666
-7.05006,0,0,22.0501,22.0501,7.94994,7.94994,19.3373,1.06861,-14.898,0.119037,-0.481505,0.0259818,1,0,3.5525,-0.875,-0.21,0.097966,-0.799588,-0.930738,-0.05362,0.28798,0.36666
-7.0773,0,0,22.0773,22.0773,7.9227,7.9227,19.4068,0.551526,-14.7377,-0.337229,-0.0186795,0.0275441,0,0,3.85,-1.2075,-0.3325,-0.369294,-0.338428,-0.928908,-0.05362,0.28798,0.36666
-7.10417,0,0,22.1042,22.1042,7.89583,7.89583,19.4752,0.0480893,-14.5796,-0.328442,-0.0175378,0.0271899,0,0,4.76,-1.015,-0.7175,-0.369294,-0.338428,-0.928908,-0.05362,0.28798,0.36666
-7.10774,0,0,22.1077,22.1077,7.89226,7.89226,19.4771,0.0460613,-14.5813,0.225203,-0.437623,-0.224005,1,0,4.5675,-1.47,-0.9625,0.18666,-0.758108,-1.17815,-0.05362,0.28798,0.36666
-7.11115,0,0,22.1112,22.1112,7.88885,7.88885,19.4785,0.0456552,-14.5832,0.22521,-0.4376,-0.224013,1,0,4.3225,-0.63,-1.435,0.18666,-0.758108,-1.17815,-0.05362,0.28798,0.36666
-7.03914,0,0,22.0391,22.0391,7.96086,7.96086,19.2645,0.0634535,-14.7612,-0.0239029,0.171708,-0.0951536,0,0,3.6575,0.875,-2.1,-0.063196,-0.145912,-1.05152,-0.04886,0.2877,0.36134
-7.0663,0,0,22.0663,22.0663,7.9337,7.9337,19.3338,-0.00496289,-14.868,-0.0364367,-0.0524739,0.0171909,0,0,3.6225,1.2075,-2.03,-0.076982,-0.371002,-0.939644,-0.04886,0.2877,0.36134
-7.13225,0,0,22.1323,22.1323,7.86775,7.86775,19.5139,-0.0754767,-14.9617,-0.0196558,-0.124374,0.0886845,0,0,3.0275,0.98,-1.995,-0.061366,-0.445788,-0.867664,-0.04886,0.2877,0.36134
-7.19693,0,0,22.1969,22.1969,7.80307,7.80307,19.6902,-0.144731,-15.0545,-0.0184471,-0.121475,0.0876498,0,0,3.0275,0.175,-1.5575,-0.061366,-0.445788,-0.867664,-0.04886,0.2877,0.36134
-7.19961,0,0,22.1996,22.1996,7.80039,7.80039,19.6894,-0.145114,-15.0563,-0.0673992,0.0725714,0.293962,1,0,3.0975,-0.595,-1.365,-0.110532,-0.25193,-0.662948,-0.04886,0.2877,0.36134
-7.2028,0,0,22.2028,22.2028,7.7972,7.7972,19.6901,-0.14766,-15.0582,-0.0673547,0.0725822,0.293958,1,0,3.9025,-1.8025,-0.98,-0.110532,-0.25193,-0.662948,-0.04886,0.2877,0.36134
-7.20633,0,0,22.2063,22.2063,7.79367,7.79367,19.6918,-0.150619,-15.0599,-0.0931795,-0.0495173,-0.269648,1,0,4.4625,-1.9775,-0.7525,-0.136518,-0.37393,-1.2222,-0.04886,0.2877,0.36134
-7.20991,0,0,22.2099,22.2099,7.79009,7.79009,19.6936,-0.153886,-15.0612,-0.0931225,-0.049488,-0.269659,1,0,4.5325,-2.1,-0.56,-0.136518,-0.37393,-1.2222,-0.04886,0.2877,0.36134
-7.12141,0,0,22.1214,22.1214,7.87859,7.87859,19.4324,-0.613505,-14.9477,-0.352977,0.273987,-0.0149089,0,0,4.1125,-2.03,-0.28,-0.405528,-0.046482,-0.970876,-0.04606,0.29988,0.37492
-7.12474,0,0,22.1247,22.1247,7.87526,7.87526,19.4336,-0.615166,-14.9478,0.0370213,-0.288754,0.496181,1,0,4.2,-0.9625,-0.175,-0.013908,-0.608658,-0.463722,-0.04606,0.29988,0.37492
-7.12807,0,0,22.1281,22.1281,7.87193,7.87193,19.4347,-0.616827,-14.9479,0.0370503,-0.288734,0.496174,1,0,4.2,-0.9625,-0.175,-0.013908,-0.608658,-0.463722,-0.04606,0.29988,0.37492
-7.13132,0,0,22.1313,22.1313,7.86868,7.86868,19.4357,-0.614388,-14.9464,0.0100379,0.218963,0.370638,1,0,4.0775,1.61,-0.105,-0.040992,-0.101504,-0.588284,-0.04606,0.29988,0.37492
-7.13445,0,0,22.1345,22.1345,7.86555,7.86555,19.4363,-0.612548,-14.9447,-0.28484,-0.245353,0.52555,1,0,3.885,1.33,0.1575,-0.337086,-0.565348,-0.434564,-0.04606,0.29988,0.37492
-7.1382,0,0,22.1382,22.1382,7.8618,7.8618,19.4387,-0.612206,-14.9433,-0.284846,-0.245314,0.525536,1,0,4.8825,0.4375,0.2625,-0.337086,-0.565348,-0.434564,-0.04606,0.29988,0.37492
-7.14223,0,0,22.1422,22.1422,7.85777,7.85777,19.4419,-0.613381,-14.9426,0.289194,-0.250391,-0.0852907,1,0,5.32,-0.5425,0.1575,0.239364,-0.570472,-1.04066,-0.04606,0.29988,0.37492
-7.14638,0,0,22.1464,22.1464,7.85362,7.85362,19.4454,-0.616204,-14.9418,0.289244,-0.250333,-0.0853116,1,0,5.5125,-1.4175,0.5775,0.239364,-0.570472,-1.04066,-0.04606,0.29988,0.37492
-7.02552,0,0,22.0255,22.0255,7.97448,7.97448,19.0919,-0.0715812,-15.4427,0.307923,0.285616,0.00222734,0,0,4.725,-0.9625,0.35,0.267668,-0.02928,-0.95587,-0.04326,0.29848,0.37324
-7.029,0,0,22.029,22.029,7.971,7.971,19.0937,-0.0736368,-15.4423,0.305651,-0.165125,-0.288802,1,0,4.515,-1.085,0.175,0.26535,-0.479582,-1.24464,-0.04326,0.29848,0.37324
-7.03186,0,0,22.0319,22.0319,7.96814,7.96814,19.0937,-0.0732208,-15.4416,-0.308588,-0.188085,0.294589,1,0,3.535,0.35,-0.105,-0.351482,-0.502518,-0.665754,-0.04326,0.29848,0.37324
-7.03517,0,0,22.0352,22.0352,7.96483,7.96483,19.0949,-0.0710623,-15.4411,-0.308626,-0.188064,0.294582,1,0,4.235,1.26,-0.595,-0.351482,-0.502518,-0.665754,-0.04326,0.29848,0.37324
-7.03858,0,0,22.0386,22.0386,7.96142,7.96142,19.0965,-0.0687799,-15.4407,-0.0775999,-0.055775,0.610796,1,0,4.41,1.3125,-0.665,-0.119438,-0.370392,-0.35197,-0.04326,0.29848,0.37324
-7.04285,0,0,22.0429,22.0429,7.95715,7.95715,19.1005,-0.0659819,-15.44,-0.0776487,-0.0557086,0.610773,1,0,5.7925,1.6625,-0.5775,-0.119438,-0.370392,-0.35197,-0.04326,0.29848,0.37324
-7.04718,0,0,22.0472,22.0472,7.95282,7.95282,19.1047,-0.0640039,-15.4395,-0.174264,-0.0794543,0.256904,1,0,5.88,1.1725,-0.525,-0.216428,-0.394182,-0.703086,-0.04326,0.29848,0.37324
-7.0516,0,0,22.0516,22.0516,7.9484,7.9484,19.1091,-0.0633218,-15.4403,-0.174276,-0.0793811,0.256879,1,0,6.02,0.1925,-1.0325,-0.216428,-0.394182,-0.703086,-0.05068,0.3045,0.37016
-7.05618,0,0,22.0562,22.0562,7.94382,7.94382,19.114,-0.0639638,-15.441,0.0309243,-0.195687,0.225376,1,0,6.2825,-0.525,-0.735,-0.01037,-0.510448,-0.734318,-0.05068,0.3045,0.37016
-7.06077,0,0,22.0608,22.0608,7.93923,7.93923,19.1189,-0.0646058,-15.4418,0.0309355,-0.195606,0.225348,1,0,6.2825,-0.525,-0.735,-0.01037,-0.510448,-0.734318,-0.05068,0.3045,0.37016
-7.0647,0,0,22.0647,22.0647,7.9353,7.9353,19.122,-0.0668109,-15.4437,0.0488323,-0.150491,-0.0911392,1,0,5.2325,-1.61,-1.0675,0.007564,-0.46543,-1.04835,-0.05068,0.3045,0.37016
-7.24977,0,0,22.2498,22.2498,7.75023,7.75023,19.6423,-0.535089,-15.2779,-0.235411,-0.390345,0.221046,0,0,4.2525,-1.4525,-0.98,-0.28609,-0.713578,-0.735538,-0.05068,0.3045,0.37016
-7.43106,0,0,22.4311,22.4311,7.56894,7.56894,20.1517,-0.986843,-15.1187,-0.227527,-0.382022,0.217923,0,0,4.235,0.07,-0.77,-0.28609,-0.713578,-0.735538,-0.05068,0.3045,0.37016
-7.5363,0,0,22.5363,22.5363,7.4637,7.4637,20.4436,-0.66753,-15.432,0.24847,-0.212467,0.191272,0,0,4.2525,-0.0875,-0.7525,0.197518,-0.549,-0.760304,-0.05068,0.3045,0.37016
-7.64058,0,0,22.6406,22.6406,7.35942,7.35942,20.7326,-0.354577,-15.7385,0.243008,-0.207727,0.189544,0,0,5.4775,0.2975,-0.5075,0.197518,-0.549,-0.760304,-0.05068,0.3045,0.37016
-7.64496,0,0,22.645,22.645,7.35504,7.35504,20.7362,-0.353643,-15.738,0.0124119,0.0418368,0.243127,1,0,5.565,0.595,-0.35,-0.034038,-0.299754,-0.707112,-0.049,0.30352,0.37044
-7.64936,0,0,22.6494,22.6494,7.35064,7.35064,20.7399,-0.353478,-15.7376,0.188563,-0.0217311,-0.222255,1,0,5.6,0.14,-0.28,0.142862,-0.363316,-1.16888,-0.049,0.30352,0.37044
-7.65372,0,0,22.6537,22.6537,7.34628,7.34628,20.7435,-0.355164,-15.7378,0.188593,-0.0216726,-0.222278,1,0,5.5475,-0.98,-0.175,0.142862,-0.363316,-1.16888,-0.049,0.30352,0.37044
-7.65808,0,0,22.6581,22.6581,7.34192,7.34192,20.7471,-0.358224,-15.7384,0.364436,0.014535,-0.235579,1,0,5.53,-1.82,-0.1225,0.319396,-0.327204,-1.18206,-0.049,0.30352,0.37044
-7.66244,0,0,22.6624,22.6624,7.33756,7.33756,20.7507,-0.362009,-15.7392,0.364502,0.014593,-0.235601,1,0,5.53,-2.275,-0.1225,0.319396,-0.327204,-1.18206,-0.049,0.30352,0.37044
-7.68767,0,0,22.6877,22.6877,7.31233,7.31233,20.8138,-0.911754,-15.5573,-0.319344,0.0415984,0.143696,0,0,5.425,-1.6275,-0.2975,-0.37698,-0.301218,-0.8052,-0.049,0.30352,0.37044
-7.71197,0,0,22.712,22.712,7.28803,7.28803,20.8743,-1.44661,-15.3775,-0.310011,0.0425168,0.143141,0,0,5.4425,-0.9975,-0.8575,-0.37698,-0.301218,-0.8052,-0.049,0.30352,0.37044
-7.71579,0,0,22.7158,22.7158,7.28421,7.28421,20.8763,-1.44626,-15.3781,-0.663176,0.0150701,-0.0850635,1,0,4.62,0.035,-0.8575,-0.731634,-0.328668,-1.03163,-0.049,0.30352,0.37044
-7.71988,0,0,22.7199,22.7199,7.28012,7.28012,20.879,-1.44487,-15.379,-0.6632,0.015115,-0.0850799,1,0,5.0575,0.56,-1.19,-0.731634,-0.328668,-1.03163,-0.05236,0.28546,0.36246
-7.62216,0,0,22.6222,22.6222,7.37784,7.37784,20.591,-0.779335,-15.8897,0.387335,0.231544,0.0468669,0,0,5.4425,0.7,-1.2075,0.335012,-0.107848,-0.902678,-0.05236,0.28546,0.36246
-7.52607,0,0,22.5261,22.5261,7.47393,7.47393,20.3077,-0.130443,-16.4011,0.376011,0.226943,0.0486783,0,0,5.6175,0.8575,-1.4525,0.335012,-0.107848,-0.902678,-0.05236,0.28546,0.36246
-7.55304,0,0,22.553,22.553,7.44696,7.44696,20.376,-0.387317,-16.3657,-0.157202,-0.020962,0.0466464,0,0,5.7925,0.28,-1.5225,-0.20496,-0.356606,-0.904264,-0.05236,0.28546,0.36246
-7.57946,0,0,22.5795,22.5795,7.42054,7.42054,20.4428,-0.638049,-16.3303,-0.152826,-0.0198843,0.0462037,0,0,5.985,-0.035,-0.9975,-0.20496,-0.356606,-0.904264,-0.05236,0.28546,0.36246
-7.58421,0,0,22.5842,22.5842,7.41579,7.41579,20.4476,-0.637995,-16.331,0.395317,-0.325489,0.0331418,1,0,6.23,-0.14,-0.84,0.345504,-0.661972,-0.917196,-0.05236,0.28546,0.36246
-7.58881,0,0,22.5888,22.5888,7.41119,7.41119,20.452,-0.638314,-16.3315,0.395322,-0.325417,0.033115,1,0,5.985,-0.315,-0.6825,0.345504,-0.661972,-0.917196,-0.05236,0.28546,0.36246
-7.63052,0,0,22.6305,22.6305,7.36948,7.36948,20.5623,-0.650728,-16.4288,0.00714899,-0.121983,-0.0412082,0,0,6.0725,-0.4375,-0.4375,-0.04453,-0.46055,-0.990274,-0.05236,0.28546,0.36246
-7.67114,0,0,22.6711,22.6711,7.32886,7.32886,20.6695,-0.661396,-16.5168,0.00733517,-0.120232,-0.041869,0,0,5.67,-0.0525,0.175,-0.04453,-0.46055,-0.990274,-0.0511,0.28098,0.36288
-7.67579,0,0,22.6758,22.6758,7.32421,7.32421,20.6739,-0.661434,-16.5154,-0.0458749,-0.133594,0.201665,1,0,6.02,0.245,0.3325,-0.097966,-0.47397,-0.748592,-0.0511,0.28098,0.36288
-7.68046,0,0,22.6805,22.6805,7.31954,7.31954,20.6784,-0.661237,-16.5127,-0.0458783,-0.133521,0.201637,1,0,6.055,0.63,0.9625,-0.097966,-0.47397,-0.748592,-0.0511,0.28098,0.36288
-7.68534,0,0,22.6853,22.6853,7.31466,7.31466,20.6835,-0.660792,-16.5095,-0.15741,-0.498231,-0.164658,1,0,6.405,0.8925,1.2425,-0.209962,-0.838384,-1.11203,-0.0511,0.28098,0.36288
-7.69049,0,0,22.6905,22.6905,7.30951,7.30951,20.6894,-0.660361,-16.5058,-0.157417,-0.498135,-0.164694,1,0,6.8425,0.9625,1.4525,-0.209962,-0.838384,-1.11203,-0.0511,0.28098,0.36288
-7.69536,0,0,22.6954,22.6954,7.30464,7.30464,20.6944,-0.6601,-16.502,0.0644108,-0.0421535,0.130106,1,0,6.3875,0.91,1.5925,0.01281,-0.382958,-0.819474,-0.0511,0.28098,0.36288
-7.70035,0,0,22.7003,22.7003,7.29965,7.29965,20.6998,-0.661253,-16.499,0.0644309,-0.042066,0.130073,1,0,6.5625,-0.035,1.435,0.01281,-0.382958,-0.819474,-0.0511,0.28098,0.36288
-7.68606,0,0,22.6861,22.6861,7.31394,7.31394,20.6501,-0.765202,-16.546,-0.0828179,0.0280706,-0.0993103,0,0,6.44,-0.56,1.3825,-0.136884,-0.312076,-1.04737,-0.0511,0.28098,0.36288
-7.67317,0,0,22.6732,22.6732,7.32683,7.32683,20.6044,-0.865976,-16.6052,-0.0810592,0.0273159,-0.099053,0,0,8.3125,-0.5425,1.0325,-0.136884,-0.312076,-1.04737,-0.05404,0.28868,0.36078
-7.64541,0,0,22.6454,22.6454,7.35459,7.35459,20.5163,-0.334786,-17.0289,0.368643,0.034215,-0.0374396,0,0,8.1725,-0.875,0.5075,0.324032,-0.30378,-0.986858,-0.05404,0.28868,0.36078
-7.61809,0,0,22.6181,22.6181,7.38191,7.38191,20.4295,0.182423,-17.4508,0.359616,0.0328,-0.0368985,0,0,7.9275,-1.1725,-0.3325,0.324032,-0.30378,-0.986858,-0.05404,0.28868,0.36078
-7.62369,0,0,22.6237,22.6237,7.37631,7.37631,20.4368,0.181068,-17.4517,-0.148778,0.0619846,0.2392,1,0,7.595,-0.9625,-0.6825,-0.186538,-0.274744,-0.712846,-0.05404,0.28868,0.36078
-7.62887,0,0,22.6289,22.6289,7.37113,7.37113,20.4428,0.180453,-17.4536,-0.148767,0.0620831,0.239163,1,0,6.9125,-0.735,-1.3125,-0.186538,-0.274744,-0.712846,-0.05404,0.28868,0.36078
-7.63417,0,0,22.6342,22.6342,7.36583,7.36583,20.4492,0.180161,-17.4554,0.172932,-0.406535,-0.0472229,1,0,7.1225,-0.56,-1.3825,0.136518,-0.74298,-0.996984,-0.05404,0.28868,0.36078
-7.63941,0,0,22.6394,22.6394,7.36059,7.36059,20.4554,0.181239,-17.4577,0.172913,-0.406433,-0.0472608,1,0,7.0175,0.0875,-1.9425,0.136518,-0.74298,-0.996984,-0.05404,0.28868,0.36078
-7.64506,0,0,22.6451,22.6451,7.35494,7.35494,20.4627,0.182325,-17.4605,0.0812943,-0.077792,0.201419,1,0,7.665,0,-2.1875,0.04453,-0.4148,-0.750178,-0.05404,0.28868,0.36078
-7.65097,0,0,22.651,22.651,7.34903,7.34903,20.4709,0.182953,-17.4637,0.0812833,-0.0776595,0.20137,1,0,8.085,-0.3325,-2.31,0.04453,-0.4148,-0.750178,-0.05404,0.28868,0.36078
-7.65698,0,0,22.657,22.657,7.34302,7.34302,20.4793,0.183042,-17.4667,-0.00813171,-0.234943,0.379102,1,0,8.26,-0.5775,-2.065,-0.045262,-0.572058,-0.573766,-0.05194,0.28336,0.35686
-7.65004,0,0,22.65,22.65,7.34996,7.34996,20.4507,0.682766,-17.8723,0.35708,-0.0165826,-0.0166798,0,0,8.68,-0.7525,-1.8375,0.330254,-0.353434,-0.966606,-0.05194,0.28336,0.35686
-7.64318,0,0,22.6432,22.6432,7.35682,7.35682,20.4223,1.16882,-18.2729,0.348598,-0.0170942,-0.0166354,0,0,8.365,-0.9275,-1.225,0.330254,-0.353434,-0.966606,-0.05194,0.28336,0.35686
-7.64948,0,0,22.6495,22.6495,7.35052,7.35052,20.4315,1.16801,-18.2739,-0.218241,-0.0622523,-0.0953783,1,0,8.715,-0.665,-0.805,-0.238998,-0.398696,-1.04469,-0.05194,0.28336,0.35686
-7.65605,0,0,22.6561,22.6561,7.34395,7.34395,20.4416,1.16754,-18.2732,-0.218232,-0.0620881,-0.0954393,1,0,9.1525,-0.14,0.035,-0.238998,-0.398696,-1.04469,-0.05194,0.28336,0.35686
-7.66274,0,0,22.6627,22.6627,7.33726,7.33726,20.4519,1.16682,-18.2721,-0.313707,0.205294,-0.170747,1,0,9.31,-0.1925,0.315,-0.33489,-0.13176,-1.11935,-0.05194,0.28336,0.35686
-7.66921,0,0,22.6692,22.6692,7.33079,7.33079,20.4616,1.16646,-18.2696,-0.313701,0.205453,-0.170806,1,0,8.96,0.28,0.98,-0.33489,-0.13176,-1.11935,-0.05194,0.28336,0.35686
-7.6757,0,0,22.6757,22.6757,7.3243,7.3243,20.4714,1.16598,-18.267,0.081743,0.176302,-0.151316,1,0,8.9775,0.245,1.0675,0.06222,-0.16104,-1.09995,-0.05194,0.28336,0.35686
-7.6823,0,0,22.6823,22.6823,7.3177,7.3177,20.4815,1.1659,-18.264,0.0817445,0.176467,-0.151378,1,0,9.1525,0.56,1.26,0.06222,-0.16104,-1.09995,-0.04634,0.28196,0.35378
-7.68898,0,0,22.689,22.689,7.31102,7.31102,20.4918,1.16591,-18.2607,0.340023,0.194833,0.129497,1,0,9.275,0.6475,1.33,0.321592,-0.142862,-0.821182,-0.04634,0.28196,0.35378
-7.69628,0,0,22.6963,22.6963,7.30372,7.30372,20.5039,1.16491,-18.2586,0.34004,0.19503,0.129423,1,0,10.2725,-0.14,0.9275,0.321592,-0.142862,-0.821182,-0.04634,0.28196,0.35378
-7.83533,0,0,22.8353,22.8353,7.16467,7.16467,20.8922,0.963042,-18.2085,-0.080908,-0.323386,0.0997946,0,0,10.045,-0.2275,0.63,-0.104676,-0.667096,-0.848266,-0.04634,0.28196,0.35378
-7.97193,0,0,22.9719,22.9719,7.02807,7.02807,21.2734,0.767499,-18.1621,-0.0774956,-0.317161,0.0974499,0,0,10.6225,-0.875,0.2275,-0.104676,-0.667096,-0.848266,-0.04634,0.28196,0.35378
-7.97963,0,0,22.9796,22.9796,7.02037,7.02037,21.2862,0.765386,-18.1624,-0.3474,0.121728,0.187982,1,0,10.745,-1.2425,-0.1575,-0.37576,-0.228872,-0.758352,-0.04634,0.28196,0.35378
-7.98709,0,0,22.9871,22.9871,7.01291,7.01291,21.2984,0.765014,-18.1629,-0.347393,0.121926,0.187905,1,0,10.3775,-0.3325,-0.63,-0.37576,-0.228872,-0.758352,-0.04634,0.28196,0.35378
-7.99432,0,0,22.9943,22.9943,7.00568,7.00568,21.3099,0.764838,-18.1632,0.2847,-0.216544,0.0436131,1,0,9.9925,-0.175,-0.5425,0.259006,-0.567178,-0.901458,-0.04634,0.28196,0.35378
-8.0008,0,0,23.0008,23.0008,6.9992,6.9992,21.3193,0.764354,-18.1639,0.284708,-0.216392,0.0435537,1,0,8.8025,-0.4375,-0.7175,0.259006,-0.567178,-0.901458,-0.04956,0.28182,0.35532
-8.0071,0,0,23.0071,23.0071,6.9929,6.9929,21.3282,0.764753,-18.1644,0.345201,-0.0582156,-0.222071,1,0,8.505,0.07,-0.84,0.319762,-0.40931,-1.16498,-0.04956,0.28182,0.35532
-8.01407,0,0,23.0141,23.0141,6.98593,6.98593,21.339,0.764635,-18.1653,0.345203,-0.0580407,-0.22214,1,0,9.5725,-0.2625,-0.8575,0.319762,-0.40931,-1.16498,-0.04956,0.28182,0.35532
-8.02145,0,0,23.0215,23.0215,6.97855,6.97855,21.3509,0.764915,-18.1663,0.0833966,0.35714,0.0383123,1,0,10.2375,-0.0875,-1.05,0.056852,0.005246,-0.90646,-0.04956,0.28182,0.35532
-8.02963,0,0,23.0296,23.0296,6.97037,6.97037,21.3651,0.764716,-18.1666,0.0834001,0.357371,0.0382221,1,0,11.4975,-0.21,-0.595,0.056852,0.005246,-0.90646,-0.04956,0.28182,0.35532
-8.0382,0,0,23.0382,23.0382,6.9618,6.9618,21.3804,0.764796,-18.1669,-0.358323,-0.0642058,0.302956,1,0,12.1275,-0.035,-0.595,-0.38674,-0.416142,-0.643672,-0.04956,0.28182,0.35532
-8.04605,0,0,23.0461,23.0461,6.95395,6.95395,21.3937,0.764034,-18.1668,-0.35831,-0.0639901,0.302871,1,0,10.9725,-0.42,-0.2275,-0.38674,-0.416142,-0.643672,-0.04956,0.28182,0.35532
-8.05333,0,0,23.0533,23.0533,6.94667,6.94667,21.4053,0.762024,-18.1667,0.0773728,0.0902006,0.1678,1,0,10.045,-1.1025,0.035,0.050752,-0.2623,-0.777628,-0.04956,0.28182,0.35532
-8.06016,0,0,23.0602,23.0602,6.93984,6.93984,21.4156,0.760894,-18.1659,0.0773925,0.0903687,0.167735,1,0,9.3275,-0.4725,0.2275,0.050752,-0.2623,-0.777628,-0.05236,0.27524,0.35588
-8.00278,0,0,23.0028,23.0028,6.99722,6.99722,21.2426,1.14958,-18.506,0.235709,0.129771,-0.0208589,0,0,8.9775,0.0525,0.3325,0.21655,-0.220088,-0.965752,-0.05236,0.27524,0.35588
-7.94705,0,0,22.9471,22.9471,7.05295,7.05295,21.0743,1.52626,-18.8449,0.229136,0.126977,-0.0199423,0,0,9.7125,-0.7175,0.49,0.21655,-0.220088,-0.965752,-0.05236,0.27524,0.35588
-7.95453,0,0,22.9545,22.9545,7.04547,7.04547,21.0867,1.52471,-18.8439,-0.0695701,-0.28158,-0.0924356,1,0,10.43,-0.665,0.42,-0.083448,-0.628422,-1.03761,-0.05236,0.27524,0.35588
-7.96284,0,0,22.9628,22.9628,7.03716,7.03716,21.1014,1.52363,-18.8434,-0.0695512,-0.28134,-0.0925276,1,0,11.7775,-0.5075,0.07,-0.083448,-0.628422,-1.03761,-0.05236,0.27524,0.35588
-7.9714,0,0,22.9714,22.9714,7.0286,7.0286,21.1168,1.52336,-18.8428,0.0927582,-0.20244,-0.168115,1,0,12.1625,-0.0525,-0.0875,0.079544,-0.549854,-1.11252,-0.05236,0.27524,0.35588
-7.97871,0,0,22.9787,22.9787,7.02129,7.02129,21.1286,1.52259,-18.8429,0.0927717,-0.202247,-0.168189,1,0,10.1675,-0.455,-0.2975,0.079544,-0.549854,-1.11252,-0.05236,0.27524,0.35588
-7.98584,0,0,22.9858,22.9858,7.01416,7.01416,21.1399,1.52167,-18.8433,0.41108,-0.0713878,-0.0675645,1,0,9.87,-0.6125,-0.4725,0.399184,-0.419314,-1.0126,-0.05236,0.27524,0.35588
-7.99286,0,0,22.9929,22.9929,7.00714,7.00714,21.1509,1.52051,-18.8442,0.411101,-0.0712087,-0.0676332,1,0,9.7125,-0.8575,-0.7,0.399184,-0.419314,-1.0126,-0.05404,0.27818,0.35896
-7.99988,0,0,22.9999,22.9999,7.00012,7.00012,21.1619,1.51983,-18.8451,-0.0522339,-0.179967,-0.0261455,1,0,9.7125,-0.595,-0.805,-0.066124,-0.528138,-0.971364,-0.05404,0.27818,0.35896
-8.00751,0,0,23.0075,23.0075,6.99249,6.99249,21.1746,1.51869,-18.846,-0.0522142,-0.17976,-0.0262252,1,0,10.675,-0.8225,-0.665,-0.066124,-0.528138,-0.971364,-0.05404,0.27818,0.35896
-8.01527,0,0,23.0153,23.0153,6.98473,6.98473,21.1877,1.5183,-18.8466,-0.240996,-0.396077,0.0193063,1,0,10.885,-0.3675,-0.6825,-0.255712,-0.744444,-0.926102,-0.05404,0.27818,0.35896
-8.02231,0,0,23.0223,23.0223,6.97769,6.97769,21.1988,1.51808,-18.847,-0.240992,-0.395898,0.0192368,1,0,9.73,-0.2275,-0.6125,-0.255712,-0.744444,-0.926102,-0.05404,0.27818,0.35896
-8.0292,0,0,23.0292,23.0292,6.9708,6.9708,21.2093,1.51841,-18.8471,0.234375,-0.0370393,-0.335659,1,0,9.4675,0.1225,-0.595,0.221674,-0.38613,-1.27819,-0.05404,0.27818,0.35896
-8.03574,0,0,23.0357,23.0357,6.96426,6.96426,21.2189,1.51841,-18.8472,0.234375,-0.036883,-0.33572,1,0,8.925,-0.035,-0.4725,0.221674,-0.38613,-1.27819,-0.05404,0.27818,0.35896
-8.05774,0,0,23.0577,23.0577,6.94226,6.94226,21.2727,1.10339,-18.7096,-0.281136,-0.00065437,0.00146519,0,0,9.31,0.07,-0.35,-0.303292,-0.350872,-0.943426,-0.05404,0.27818,0.35896
-8.07948,0,0,23.0795,23.0795,6.92052,6.92052,21.3257,0.700169,-18.5725,-0.274099,0.000247059,0.00123263,0,0,10.15,1.0325,-0.2275,-0.303292,-0.350872,-0.943426,-0.05404,0.27818,0.35896
-8.03872,0,0,23.0387,23.0387,6.96128,6.96128,21.2001,0.830028,-18.7631,0.0624581,0.114093,-0.00193543,0,0,10.255,1.3475,-0.07,0.036966,-0.235094,-0.94733,-0.05446,0.28,0.35294
-7.99912,0,0,22.9991,22.9991,7.00088,7.00088,21.0779,0.954087,-18.9527,0.0602931,0.112092,-0.00119793,0,0,10.675,0.28,0.2975,0.036966,-0.235094,-0.94733,-0.05446,0.28,0.35294
-8.04558,0,0,23.0456,23.0456,6.95442,6.95442,21.2016,1.21662,-19.1878,0.195785,-0.0995268,0.0831463,0,0,10.01,-3.9725,0.2975,0.177632,-0.448472,-0.862784,-0.05446,0.28,0.35294
-8.09139,0,0,23.0914,23.0914,6.90861,6.90861,21.3233,1.47284,-19.4195,0.191314,-0.0975848,0.082278,0,0,10.01,-3.9725,0.2975,0.177632,-0.448472,-0.862784,-0.05446,0.28,0.35294
-8.17368,0,0,23.1737,23.1737,6.82632,6.82632,21.5492,1.63209,-19.58,0.152212,-0.199706,0.0746202,0,0,10.2375,-4.4625,0.4025,0.141154,-0.554124,-0.868884,-0.05446,0.28,0.35294
-8.25462,0,0,23.2546,23.2546,6.74538,6.74538,21.7712,1.78827,-19.738,0.149487,-0.196138,0.0731156,0,0,10.2375,-4.4625,0.4025,0.141154,-0.554124,-0.868884,-0.05446,0.28,0.35294
-8.26217,0,0,23.2622,23.2622,6.73783,6.73783,21.7834,1.78728,-19.7371,-0.00125953,-0.130235,0.292008,1,0,10.3775,-0.3675,0.2625,-0.010248,-0.488488,-0.651602,-0.05446,0.28,0.35294
-8.26973,0,0,23.2697,23.2697,6.73027,6.73027,21.7956,1.78629,-19.7362,-0.00124225,-0.130037,0.291929,1,0,10.3775,-0.3675,0.2625,-0.010248,-0.488488,-0.651602,-0.05446,0.28,0.35294
-8.499,0,0,23.499,23.499,6.501,6.501,22.4411,1.40173,-19.5049,-0.149184,-0.348278,0.404049,0,0,9.555,-0.63,-0.105,-0.165554,-0.716994,-0.536312,-0.0504,0.2779,0.35308
-8.63338,0,0,23.6334,23.6334,6.36662,6.36662,22.8152,1.10175,-19.3728,-0.158042,-0.312897,0.087878,0,0,9.38,0.0525,-0.105,-0.179706,-0.687714,-0.847656,-0.0504,0.2779,0.35308
-8.76499,0,0,23.765,23.765,6.23501,6.23501,23.1813,0.810565,-19.2459,-0.152961,-0.306983,0.08546,0,0,9.5725,-0.455,-0.455,-0.179706,-0.687714,-0.847656,-0.0504,0.2779,0.35308
-8.77274,0,0,23.7727,23.7727,6.22726,6.22726,23.1936,0.809621,-19.2464,-0.158168,-0.0530075,-0.217323,1,0,10.395,-0.6475,-0.49,-0.184952,-0.434198,-1.14802,-0.0504,0.2779,0.35308
-8.78049,0,0,23.7805,23.7805,6.21951,6.21951,23.2057,0.808548,-19.2473,-0.15815,-0.0528118,-0.217407,1,0,10.3775,-0.805,-0.665,-0.184952,-0.434198,-1.14802,-0.0504,0.2779,0.35308
-8.7886,0,0,23.7886,23.7886,6.2114,6.2114,23.219,0.806801,-19.2487,-0.0493893,0.0971277,-0.181104,1,0,10.955,-1.295,-0.805,-0.075762,-0.284626,-1.11191,-0.0504,0.2779,0.35308
-8.79671,0,0,23.7967,23.7967,6.20329,6.20329,23.2322,0.805054,-19.2502,-0.0493588,0.0973398,-0.181195,1,0,10.955,-1.295,-0.805,-0.075762,-0.284626,-1.11191,-0.0504,0.2779,0.35308
-8.84116,0,0,23.8412,23.8412,6.15884,6.15884,23.3492,0.428505,-19.1151,-0.216026,-0.0060301,0.121008,0,0,9.59,-0.2975,-1.3825,-0.249734,-0.38979,-0.8113,-0.0504,0.2779,0.35308
-8.88465,0,0,23.8847,23.8847,6.11535,6.11535,23.4634,0.0596483,-18.9671,-0.209588,-0.00419002,0.120241,0,0,9.59,-0.2975,-1.3825,-0.249734,-0.38979,-0.8113,-0.05866,0.27356,0.35826
-8.89093,0,0,23.8909,23.8909,6.10907,6.10907,23.4712,0.053336,-18.9712,-0.111318,0.367323,-0.213373,1,0,7.945,-4.375,-1.1725,-0.151158,-0.018788,-1.14229,-0.05866,0.27356,0.35826
-8.8972,0,0,23.8972,23.8972,6.1028,6.1028,23.4791,0.0470243,-18.9753,-0.111207,0.367449,-0.213427,1,0,7.945,-4.375,-1.1725,-0.151158,-0.018788,-1.14229,-0.05866,0.27356,0.35826
-8.9359,0,0,23.9359,23.9359,6.0641,6.0641,23.5796,0.510974,-19.2649,0.33736,-0.122519,0.0557085,0,0,9.975,0.2275,-0.665,0.30744,-0.509838,-0.874496,-0.05866,0.27356,0.35826
-8.97426,0,0,23.9743,23.9743,6.02574,6.02574,23.679,0.963103,-19.5496,0.32947,-0.12097,0.0549199,0,0,9.975,0.2275,-0.665,0.30744,-0.509838,-0.874496,-0.05866,0.27356,0.35826
-8.98361,0,0,23.9836,23.9836,6.01639,6.01639,23.6956,0.962624,-19.5492,-0.049193,0.0644392,0.294554,1,0,12.81,-0.175,-0.0875,-0.072834,-0.324886,-0.636596,-0.05866,0.27356,0.35826
-8.99205,0,0,23.9921,23.9921,6.00795,6.00795,23.7095,0.961766,-19.5488,0.12479,-0.280468,0.0330673,1,0,11.3575,-0.4025,-0.0525,0.10187,-0.669658,-0.895968,-0.05866,0.27356,0.35826
-9.00015,0,0,24.0002,24.0002,5.99985,5.99985,23.7225,0.960239,-19.5479,0.124816,-0.28026,0.0329767,1,0,10.7975,-0.63,0.4025,0.10187,-0.669658,-0.895968,-0.05866,0.27356,0.35826
-9.00669,0,0,24.0067,24.0067,5.99331,5.99331,23.731,0.959241,-19.5466,-0.247277,-0.00204164,0.217586,1,0,8.295,-0.245,0.5075,-0.271816,-0.391864,-0.712724,-0.06272,0.2751,0.35574
-9.01308,0,0,24.0131,24.0131,5.98692,5.98692,23.7391,0.958355,-19.5451,0.119139,-0.038062,0.183596,1,0,8.05,-0.1575,0.5425,0.096136,-0.427976,-0.746396,-0.06272,0.2751,0.35574
-9.01977,0,0,24.0198,24.0198,5.98023,5.98023,23.748,0.957231,-19.5442,0.119159,-0.037919,0.183533,1,0,8.54,-0.4025,0.3325,0.096136,-0.427976,-0.746396,-0.06272,0.2751,0.35574
-9.02741,0,0,24.0274,24.0274,5.97259,5.97259,23.7597,0.956334,-19.5435,-0.168018,-0.414982,0.142878,1,0,10.0625,-0.35,0.1225,-0.192272,-0.804834,-0.786656,-0.06272,0.2751,0.35574
-9.0358,0,0,24.0358,24.0358,5.9642,5.9642,23.7735,0.955987,-19.5423,-0.168012,-0.414762,0.142782,1,0,11.235,0.0875,0.315,-0.192272,-0.804834,-0.786656,-0.06272,0.2751,0.35574
-9.15738,0,0,24.1574,24.1574,5.84262,5.84262,24.1105,0.786426,-19.463,-0.0688359,-0.266358,0.10601,0,0,11.34,0.525,0.21,-0.095648,-0.661972,-0.820816,-0.06272,0.2751,0.35574
-9.2755,0,0,24.2755,24.2755,5.7245,5.7245,24.4375,0.622549,-19.387,-0.0659759,-0.261141,0.103696,0,0,9.7125,0.1925,-0.1225,-0.095648,-0.661972,-0.820816,-0.06272,0.2751,0.35574
-9.28217,0,0,24.2822,24.2822,5.71783,5.71783,24.4461,0.621852,-19.3869,0.226088,0.0512734,-0.146935,1,0,8.3475,-0.3675,-0.21,0.19764,-0.350018,-1.06945,-0.06272,0.2751,0.35574
-9.28867,0,0,24.2887,24.2887,5.71133,5.71133,24.4542,0.621249,-19.3864,0.226098,0.051402,-0.146993,1,0,8.0675,-0.2275,-0.035,0.19764,-0.350018,-1.06945,-0.0595,0.27412,0.3598
-9.26265,0,0,24.2627,24.2627,5.73735,5.73735,24.3694,0.892421,-19.6004,0.166819,0.0552805,-0.0158673,0,0,8.82,-0.35,0.0175,0.142862,-0.344772,-0.939888,-0.0595,0.27412,0.3598
-9.23845,0,0,24.2384,24.2384,5.76155,5.76155,24.2899,1.1563,-19.812,0.162214,0.0539813,-0.0153703,0,0,10.5525,-0.035,0.2975,0.142862,-0.344772,-0.939888,-0.0595,0.27412,0.3598
-9.20239,0,0,24.2024,24.2024,5.79761,5.79761,24.1765,1.01632,-19.8222,-0.102247,0.146966,0.0392126,0,0,11.2875,0,0.4375,-0.125172,-0.2501,-0.886574,-0.0595,0.27412,0.3598
-9.1672,0,0,24.1672,24.1672,5.8328,5.8328,24.0656,0.879841,-19.832,-0.0998657,0.145217,0.0400392,0,0,11.6725,0.1925,0.35,-0.125172,-0.2501,-0.886574,-0.0595,0.27412,0.3598
-9.17547,0,0,24.1755,24.1755,5.82453,5.82453,24.0789,0.878941,-19.8307,-0.264949,0.00620456,-0.418038,1,0,10.99,-0.1925,0.4725,-0.29097,-0.38918,-1.34102,-0.0595,0.27412,0.3598
-9.1826,0,0,24.1826,24.1826,5.8174,5.8174,24.089,0.878538,-19.829,-0.264942,0.00636468,-0.41811,1,0,9.1525,0.1575,0.5425,-0.29097,-0.38918,-1.34102,-0.0595,0.27412,0.3598
-9.18922,0,0,24.1892,24.1892,5.81078,5.81078,24.0976,0.877696,-19.8279,0.381134,0.485849,-0.403048,1,0,8.3475,-0.21,0.35,0.357826,0.08967,-1.32602,-0.0595,0.27412,0.3598
-9.19562,0,0,24.1956,24.1956,5.80438,5.80438,24.1055,0.877157,-19.8269,-0.218875,-0.00485147,-0.251141,1,0,7.98,-0.07,0.2275,-0.244732,-0.400648,-1.17523,-0.0546,0.27692,0.35952
-9.20329,0,0,24.2033,24.2033,5.79671,5.79671,24.1171,0.875378,-19.8268,-0.218844,-0.00466675,-0.251223,1,0,10.0275,-0.945,0.0525,-0.244732,-0.400648,-1.17523,-0.0546,0.27692,0.35952
-9.21128,0,0,24.2113,24.2113,5.78872,5.78872,24.1296,0.874032,-19.8272,-0.109848,0.431891,-0.23459,1,0,10.535,-0.84,-0.3325,-0.135298,0.035258,-1.15863,-0.0546,0.27692,0.35952
-9.21927,0,0,24.2193,24.2193,5.78073,5.78073,24.1421,0.872686,-19.8276,-0.109824,0.43209,-0.234679,1,0,10.535,-0.84,-0.3325,-0.135298,0.035258,-1.15863,-0.0546,0.27692,0.35952
-9.22761,0,0,24.2276,24.2276,5.77239,5.77239,24.1555,0.872455,-19.8289,0.0509055,-0.210082,-0.101868,1,0,11.095,-0.455,-1.0675,0.026108,-0.606462,-1.02675,-0.0546,0.27692,0.35952
-9.21011,0,0,24.2101,24.2101,5.78989,5.78989,24.0952,0.485915,-19.7035,-0.265015,0.114702,0.00535474,0,0,9.555,0.21,-1.435,-0.297924,-0.281088,-0.920856,-0.0546,0.27692,0.35952
-9.19218,0,0,24.1922,24.1922,5.80782,5.80782,24.0337,0.107156,-19.5789,-0.258404,0.113735,0.00582377,0,0,8.9075,-0.7,-1.54,-0.297924,-0.281088,-0.920856,-0.0546,0.27692,0.35952
-9.19878,0,0,24.1988,24.1988,5.80122,5.80122,24.0422,0.107142,-19.5804,0.153554,-0.121955,0.297889,1,0,8.33,-0.385,-1.225,0.115778,-0.51667,-0.630984,-0.05684,0.27272,0.36134
-9.20596,0,0,24.206,24.206,5.79404,5.79404,24.0524,0.107002,-19.5814,0.153557,-0.121793,0.297816,1,0,9.2575,-0.3325,-0.9275,0.115778,-0.51667,-0.630984,-0.05684,0.27272,0.36134
-9.21382,0,0,24.2138,24.2138,5.78618,5.78618,24.0646,0.106881,-19.5816,0.376242,0.14708,-0.200089,1,0,10.3425,-0.14,-0.525,0.339404,-0.24827,-1.12496,-0.05684,0.27272,0.36134
-9.22253,0,0,24.2225,24.2225,5.77747,5.77747,24.0791,0.106113,-19.5819,0.109716,-0.239097,0.0144757,1,0,11.69,-0.5075,-0.42,0.071736,-0.634278,-0.91195,-0.05684,0.27272,0.36134
-9.23176,0,0,24.2318,24.2318,5.76824,5.76824,24.0952,0.104073,-19.5816,0.109751,-0.238842,0.0143615,1,0,12.53,-1.05,0.1925,0.071736,-0.634278,-0.91195,-0.05684,0.27272,0.36134
-9.35686,0,0,24.3569,24.3569,5.64314,5.64314,24.4421,0.0719756,-19.5589,0.0234493,-0.238206,0.181419,0,0,11.2525,-0.2975,0.1575,-0.015494,-0.639158,-0.743712,-0.05684,0.27272,0.36134
-9.47846,0,0,24.4785,24.4785,5.52154,5.52154,24.779,0.0412671,-19.5373,0.0239852,-0.232861,0.178972,0,0,9.31,-0.84,0.28,-0.015494,-0.639158,-0.743712,-0.05684,0.27272,0.36134
-9.48509,0,0,24.4851,24.4851,5.51491,5.51491,24.7873,0.0395796,-19.5367,0.0757676,0.0015096,0.133543,1,0,8.19,-0.7875,0.2625,0.036478,-0.405162,-0.78873,-0.05684,0.27272,0.36134
-9.49177,0,0,24.4918,24.4918,5.50823,5.50823,24.7957,0.0378709,-19.536,0.0757974,0.00164367,0.133481,1,0,8.2775,-0.7525,0.3675,0.036478,-0.405162,-0.78873,-0.05796,0.27734,0.3542
-9.37878,0,0,24.3788,24.3788,5.62122,5.62122,24.4624,0.214806,-19.7346,0.0717374,0.283839,-0.0994244,0,0,10.0275,-0.91,0.07,0.035502,-0.117974,-1.02224,-0.05796,0.27734,0.3542
-9.2689,0,0,24.2689,24.2689,5.7311,5.7311,24.1381,0.386994,-19.9333,0.0687322,0.278674,-0.0971096,0,0,11.585,-0.455,0.0525,0.035502,-0.117974,-1.02224,-0.05796,0.27734,0.3542
-9.23297,0,0,24.233,24.233,5.76703,5.76703,24.0252,0.276279,-19.9566,-0.0912759,0.123488,-0.0403534,0,0,13.1425,-0.595,-0.2625,-0.127124,-0.271206,-0.966728,-0.05796,0.27734,0.3542
-9.19683,0,0,24.1968,24.1968,5.80317,5.80317,23.9117,0.170296,-19.9789,-0.0894261,0.121681,-0.039542,0,0,11.7775,0.77,-0.5775,-0.127124,-0.271206,-0.966728,-0.05796,0.27734,0.3542
-9.37341,0,0,24.3734,24.3734,5.62659,5.62659,24.4057,0.0718828,-19.9025,0.00158346,-0.379719,0.233935,0,0,11.2175,0.4025,-0.7,-0.037454,-0.779946,-0.691862,-0.05796,0.27734,0.3542
-9.54529,0,0,24.5453,24.5453,5.45471,5.45471,24.8862,-0.0226301,-19.8287,0.00323302,-0.372097,0.230439,0,0,8.8375,0,-0.455,-0.037454,-0.779946,-0.691862,-0.05796,0.27734,0.3542
-9.55207,0,0,24.5521,24.5521,5.44793,5.44793,24.8948,-0.0230297,-19.829,-0.0593251,-0.051255,0.150828,1,0,8.4,-0.2975,-0.4725,-0.100284,-0.459574,-0.770796,-0.05796,0.27734,0.3542
-9.56055,0,0,24.5605,24.5605,5.43945,5.43945,24.9084,-0.0242543,-19.8286,-0.0593038,-0.0510405,0.150728,1,0,11.13,-0.5775,0.07,-0.100284,-0.459574,-0.770796,-0.05796,0.27734,0.3542
-9.56905,0,0,24.569,24.569,5.43095,5.43095,24.922,-0.024695,-19.8274,0.107504,0.226647,0.0730475,1,0,11.165,0.035,0.2975,0.067222,-0.18239,-0.847778,-0.05852,0.27538,0.3598
-9.57932,0,0,24.5793,24.5793,5.42068,5.42068,24.9407,-0.0265482,-19.826,0.212864,-0.477363,-0.202372,1,0,14,-0.665,0.7525,0.172996,-0.885964,-1.12094,-0.05852,0.27538,0.3598
-9.58905,0,0,24.5891,24.5891,5.41095,5.41095,24.9578,-0.0276201,-19.8239,0.212883,-0.477092,-0.202497,1,0,13.125,-0.07,0.945,0.172996,-0.885964,-1.12094,-0.05852,0.27538,0.3598
-9.59863,0,0,24.5986,24.5986,5.40137,5.40137,24.9744,-0.0290321,-19.8219,-0.24971,-0.329421,0.0795465,1,0,12.88,-0.2975,0.9275,-0.29158,-0.73871,-0.840946,-0.05852,0.27538,0.3598
-9.60637,0,0,24.6064,24.6064,5.39363,5.39363,24.9858,-0.0302602,-19.8201,-0.249689,-0.329241,0.0794626,1,0,9.9225,-0.2275,0.8225,-0.29158,-0.73871,-0.840946,-0.05852,0.27538,0.3598
-9.743,0,0,24.743,24.743,5.257,5.257,25.3653,-0.258763,-19.6867,-0.0980953,-0.249608,0.192576,0,0,9.275,-0.6125,0.805,-0.14335,-0.665144,-0.7259,-0.05852,0.27538,0.3598
-9.87772,0,0,24.8777,24.8777,5.12228,5.12228,25.7392,-0.480326,-19.5582,-0.0942284,-0.243732,0.189739,0,0,10.6225,-1.19,0.35,-0.14335,-0.665144,-0.7259,-0.05852,0.27538,0.3598
-9.88614,0,0,24.8861,24.8861,5.11386,5.11386,25.7522,-0.481538,-19.5585,0.156418,0.242415,-0.259859,1,0,10.8325,-0.7525,-0.315,0.108336,-0.179706,-1.17193,-0.05642,0.27174,0.36442
-9.92635,0,0,24.9264,24.9264,5.07365,5.07365,25.8561,-0.285073,-19.6776,0.144728,-0.100586,0.0262114,0,0,14.1925,-0.595,-0.9275,0.10004,-0.52399,-0.887306,-0.05642,0.27174,0.36442
-9.96527,0,0,24.9653,24.9653,5.03473,5.03473,25.9561,-0.0928995,-19.7951,0.141374,-0.0990097,0.0254582,0,0,12.915,-0.3325,-1.2075,0.10004,-0.52399,-0.887306,-0.05642,0.27174,0.36442
-10.0426,0,0,25.0426,25.0426,5,5,26.166,0.0131239,-19.8513,0.0934803,-0.151531,0.113234,0,0,12.495,-0.4725,-1.26,0.053802,-0.579744,-0.798612,-0.05642,0.27174,0.36442
-10.1174,0,0,25.1174,25.1174,5,5,26.3682,0.117265,-19.9068,0.0916627,-0.148367,0.11167,0,0,10.255,-0.525,-1.54,0.053802,-0.579744,-0.798612,-0.05642,0.27174,0.36442
-10.185,0,0,25.185,25.185,5,5,26.5501,0.390297,-20.0476,0.193319,-0.129291,0.143925,0,0,9.8,0.105,-1.505,0.160674,-0.563518,-0.765184,-0.05642,0.27174,0.36442
-10.2531,0,0,25.2531,25.2531,5,5,26.7331,0.655531,-20.1848,0.18869,-0.126456,0.142455,0,0,11.8475,-0.35,-0.8925,0.160674,-0.563518,-0.765184,-0.05642,0.27174,0.36442
-10.2182,0,0,25.2182,25.2182,5,5,26.6221,1.13606,-20.4793,0.318069,0.0527462,-0.0365433,0,0,11.865,-0.245,-0.35,0.299022,-0.382714,-0.943548,-0.05642,0.27174,0.36442
-10.1863,0,0,25.1863,25.1863,5,5,26.5195,1.60311,-20.7699,0.30992,0.0510578,-0.0359167,0,0,14.91,0.14,0.2975,0.299022,-0.382714,-0.943548,-0.05502,0.27006,0.36148
-10.1347,0,0,25.1347,25.1347,5,5,26.3609,1.74792,-20.9175,0.0730474,0.128297,-0.0769226,0,0,14.5425,0.035,0.42,0.063684,-0.303048,-0.985394,-0.05502,0.27006,0.36148
-10.0839,0,0,25.0839,25.0839,5,5,26.2045,1.88657,-21.0643,0.0706288,0.125816,-0.0757829,0,0,13.86,-0.875,0.9275,0.063684,-0.303048,-0.985394,-0.05502,0.27006,0.36148
-10.0937,0,0,25.0937,25.0937,5,5,26.2213,1.88458,-21.0625,-0.0917629,0.26506,0.208099,1,0,12.95,-0.595,1.0325,-0.09943,-0.164212,-0.703574,-0.05502,0.27006,0.36148
-10.1022,0,0,25.1022,25.1022,5,5,26.2341,1.88282,-21.061,-0.0917321,0.265261,0.208002,1,0,10.675,-0.56,0.805,-0.09943,-0.164212,-0.703574,-0.05502,0.27006,0.36148
-10.3083,0,0,25.3083,25.3083,5,5,26.8117,1.71625,-20.9076,-0.0317281,-0.32728,0.372638,0,0,12.0225,-0.875,0.595,-0.04209,-0.765184,-0.535824,-0.05502,0.27006,0.36148
-10.511,0,0,25.511,25.511,5,5,27.3789,1.55591,-20.76,-0.0289309,-0.318433,0.368202,0,0,12.46,-1.19,0.3675,-0.04209,-0.765184,-0.535824,-0.05502,0.27006,0.36148
-10.522,0,0,25.522,25.522,5,5,27.3986,1.555,-20.76,0.060377,-0.104285,0.239563,1,0,14.5425,-0.5075,-0.21,0.04758,-0.551562,-0.663314,-0.05502,0.27006,0.36148
-10.5328,0,0,25.5328,25.5328,5,5,27.4177,1.55478,-20.761,0.0603808,-0.103988,0.23941,1,0,14.2975,-0.4025,-0.8925,0.04758,-0.551562,-0.663314,-0.05502,0.27006,0.36148
-10.5436,0,0,25.5436,25.5436,5,5,27.4368,1.55381,-20.7626,-0.164229,0.012206,0.149504,1,0,14.245,-0.945,-0.98,-0.177998,-0.435784,-0.752374,-0.05488,0.26726,0.35938
-10.5381,0,0,25.5381,25.5381,5,5,27.4094,1.74304,-20.8975,0.118447,0.0172337,-0.00822568,0,0,13.3875,-0.07,-1.26,0.10919,-0.430294,-0.909022,-0.05488,0.26726,0.35938
-10.5326,0,0,25.5326,25.5326,5,5,27.3819,1.92748,-21.0305,0.115229,0.0167601,-0.00809633,0,0,12.74,0.315,-1.05,0.10919,-0.430294,-0.909022,-0.05488,0.26726,0.35938
-10.5432,0,0,25.5432,25.5432,5,5,27.4005,1.92804,-21.0311,-0.0807369,0.143938,0.162652,1,0,13.9825,0.1225,-0.875,-0.087596,-0.303536,-0.739442,-0.05488,0.26726,0.35938
-10.5536,0,0,25.5536,25.5536,5,5,27.4185,1.92688,-21.0313,-0.0807166,0.144217,0.162508,1,0,13.6325,-0.6825,-0.2275,-0.087596,-0.303536,-0.739442,-0.05488,0.26726,0.35938
-10.5249,0,0,25.5249,25.5249,5,5,27.3249,2.43912,-21.3347,0.303113,0.0850886,0.0752945,0,0,15.365,0.2975,0.2975,0.30683,-0.360998,-0.826428,-0.05488,0.26726,0.35938
-10.4975,0,0,25.4975,25.4975,5,5,27.2347,2.93702,-21.6348,0.294432,0.0835051,0.0756526,0,0,15.9075,0.14,0.6825,0.30683,-0.360998,-0.826428,-0.05488,0.26726,0.35938
-10.4761,0,0,25.4761,25.4761,5,5,27.162,2.78996,-21.6264,-0.113261,0.0809706,-0.0783231,0,0,15.75,0.21,1.155,-0.105164,-0.362462,-0.979904,-0.05488,0.26726,0.35938
-10.4551,0,0,25.4551,25.4551,5,5,27.0904,2.64517,-21.6186,-0.110737,0.0799141,-0.0776473,0,0,15.75,-0.28,1.225,-0.105164,-0.362462,-0.979904,-0.05978,0.27006,0.35924
-10.4655,0,0,25.4655,25.4655,5,5,27.1084,2.64335,-21.6166,0.272582,0.00117839,-0.101149,1,0,13.58,-0.42,1.12,0.279746,-0.441396,-1.00308,-0.05978,0.27006,0.35924
-10.4756,0,0,25.4756,25.4756,5,5,27.1258,2.64182,-21.6147,0.272609,0.00144967,-0.101287,1,0,13.265,-0.315,0.9625,0.279746,-0.441396,-1.00308,-0.05978,0.27006,0.35924
-10.4859,0,0,25.4859,25.4859,5,5,27.1436,2.64056,-21.6132,0.158799,0.462021,-0.239867,1,0,13.4575,-0.2975,0.63,0.165432,0.018422,-1.14046,-0.05978,0.27006,0.35924
-10.4971,0,0,25.4971,25.4971,5,5,27.1639,2.64004,-21.6124,0.158808,0.462336,-0.240028,1,0,14.875,-0.0875,0.105,0.165432,0.018422,-1.14046,-0.05978,0.27006,0.35924
-10.4057,0,0,25.4057,25.4057,5,5,26.8912,2.61624,-21.7037,-0.0599375,0.2726,-0.02515,0,0,17.01,0,-0.315,-0.054656,-0.166896,-0.929396,-0.05978,0.27006,0.35924
-10.3162,0,0,25.3162,25.3162,5,5,26.624,2.59072,-21.7959,-0.0594925,0.268448,-0.0230343,0,0,17.3075,-1.1025,-0.84,-0.054656,-0.166896,-0.929396,-0.05978,0.27006,0.35924
-10.2407,0,0,25.2407,25.2407,5,5,26.397,2.40189,-21.8012,-0.153024,0.25862,0.00308168,0,0,16.94,-1.26,-1.1725,-0.15189,-0.17324,-0.905362,-0.05978,0.27006,0.35924
-10.1659,0,0,25.1659,25.1659,5,5,26.1721,2.21719,-21.7991,-0.149803,0.255161,0.00493492,0,0,15.785,-0.385,-1.1375,-0.15189,-0.17324,-0.905362,-0.05558,0.2667,0.37002
-10.1859,0,0,25.1859,25.1859,5,5,26.2181,2.68874,-22.0589,0.289042,-0.00550373,0.156229,0,0,15.54,-0.245,-1.1025,0.29707,-0.434198,-0.75457,-0.05558,0.2667,0.37002
-10.2056,0,0,25.2056,25.2056,5,5,26.2631,3.14723,-22.314,0.28105,-0.00498006,0.155517,0,0,14.84,-0.5425,-0.49,0.29707,-0.434198,-0.75457,-0.05558,0.2667,0.37002
-10.2175,0,0,25.2175,25.2175,5,5,26.2857,3.14561,-22.314,0.405115,-0.00523737,-0.218665,1,0,16.1875,-0.8925,-0.0525,0.421632,-0.434808,-1.12569,-0.05558,0.2667,0.37002
-10.2299,0,0,25.2299,25.2299,5,5,26.31,3.14533,-22.3127,0.40512,-0.00485673,-0.218853,1,0,17.15,0.1575,0.2975,0.421632,-0.434808,-1.12569,-0.05558,0.2667,0.37002
-10.1761,0,0,25.1761,25.1761,5,5,26.1452,3.26758,-22.4557,0.056634,0.141386,-0.0842912,0,0,18.6025,0,0.5775,0.07381,-0.28609,-0.993324,-0.05558,0.2667,0.37002
-10.124,0,0,25.124,25.124,5,5,25.9851,3.38608,-22.598,0.0545691,0.138827,-0.0831733,0,0,19.39,0.0175,0.5425,0.07381,-0.28609,-0.993324,-0.05558,0.2667,0.37002
-10.1371,0,0,25.1371,25.1371,5,5,26.0113,3.38474,-22.5964,-0.0732104,-0.0576295,0.18195,1,0,18.2,-0.3325,0.7175,-0.054534,-0.482754,-0.730048,-0.05558,0.2667,0.37002
-10.1495,0,0,25.1495,25.1495,5,5,26.0357,3.38282,-22.5955,-0.0731769,-0.0572466,0.181766,1,0,17.185,-0.805,0.525,-0.054534,-0.482754,-0.730048,-0.05376,0.26894,0.36722
-10.1611,0,0,25.1611,25.1611,5,5,26.0576,3.38125,-22.5947,-0.166815,0.41414,0.0108241,1,0,15.785,-0.6475,0.3675,-0.148596,-0.0122,-0.899506,-0.05376,0.26894,0.36722
-10.1736,0,0,25.1736,25.1736,5,5,26.0821,3.37959,-22.595,-0.166786,0.414524,0.0106378,1,0,17.29,-0.9625,-0.14,-0.148596,-0.0122,-0.899506,-0.05376,0.26894,0.36722
-10.212,0,0,25.212,25.212,5,5,26.1807,2.86905,-22.375,-0.338538,0.0113084,0.0264234,0,0,19.25,-0.525,-0.245,-0.33001,-0.416752,-0.883524,-0.05376,0.26894,0.36722
-10.2499,0,0,25.2499,25.2499,5,5,26.2777,2.37078,-22.1585,-0.329851,0.0130007,0.0260328,0,0,20.5975,-0.91,-0.9275,-0.33001,-0.416752,-0.883524,-0.05376,0.26894,0.36722
-10.2645,0,0,25.2645,25.2645,5,5,26.3082,2.36957,-22.1599,0.413784,0.07906,-0.459111,1,0,20.6675,-1.0325,-0.875,0.416752,-0.351238,-1.36469,-0.05376,0.26894,0.36722
-10.2774,0,0,25.2774,25.2774,5,5,26.3337,2.36921,-22.1612,0.413791,0.0794588,-0.459308,1,0,17.8675,-0.56,-1.05,0.416752,-0.351238,-1.36469,-0.05376,0.26894,0.36722
-10.2901,0,0,25.2901,25.2901,5,5,26.3586,2.36857,-22.1622,-0.186095,-0.00722869,-0.19012,1,0,17.5,-0.6125,-0.7875,-0.185684,-0.438224,-1.09739,-0.05376,0.26894,0.36722
-10.3024,0,0,25.3024,25.3024,5,5,26.3824,2.368,-22.1619,-0.186085,-0.00685568,-0.190304,1,0,16.905,-0.245,-0.1225,-0.185684,-0.438224,-1.09739,-0.05474,0.26334,0.36288
-10.3149,0,0,25.3149,25.3149,5,5,26.407,2.36669,-22.161,-0.427575,0.0164884,-0.0691438,1,0,17.29,-0.4725,0.3675,-0.42822,-0.415288,-0.976976,-0.05474,0.26334,0.36288
-10.3303,0,0,25.3303,25.3303,5,5,26.4397,2.36475,-22.1589,-0.427542,0.0169988,-0.0693959,1,0,21.7875,-0.49,1.1725,-0.42822,-0.415288,-0.976976,-0.05474,0.26334,0.36288
-10.3463,0,0,25.3463,25.3463,5,5,26.4739,2.36294,-22.1564,-0.0796965,0.0701699,-0.278427,1,0,22.645,-0.315,1.3475,-0.078934,-0.362706,-1.18413,-0.05474,0.26334,0.36288
-10.3632,0,0,25.3632,25.3632,5,5,26.5108,2.36113,-22.1538,-0.079665,0.0707474,-0.278713,1,0,24.2025,-0.315,1.3475,-0.078934,-0.362706,-1.18413,-0.05474,0.26334,0.36288
-10.3386,0,0,25.3386,25.3386,5,5,26.4293,2.47721,-22.2627,0.0597202,0.0944724,-0.0129562,0,0,22.995,-0.1925,1.085,0.063074,-0.337696,-0.920978,-0.05474,0.26334,0.36288
-10.3125,0,0,25.3125,25.3125,5,5,26.3434,2.58845,-22.3714,0.0577806,0.0930929,-0.0123676,0,0,19.5475,-1.155,1.1375,0.063074,-0.337696,-0.920978,-0.05474,0.26334,0.36288
-10.3261,0,0,25.3261,25.3261,5,5,26.3709,2.58647,-22.3699,0.207607,-0.2615,-0.261427,1,0,18.9,-0.665,0.875,0.2135,-0.69235,-1.16791,-0.05474,0.26334,0.36288
-10.3399,0,0,25.3399,25.3399,5,5,26.3989,2.58445,-22.37,0.207642,-0.261061,-0.261643,1,0,19.2675,-1.1025,0.0525,0.2135,-0.69235,-1.16791,-0.05474,0.26334,0.36288
-10.3554,0,0,25.3554,25.3554,5,5,26.4321,2.58186,-22.3708,-0.047797,-0.303531,-0.0302627,1,0,22.12,-1.5925,-0.1925,-0.043066,-0.735294,-0.938058,-0.05334,0.26614,0.3619
-10.2962,0,0,25.2962,25.2962,5,5,26.2517,2.18889,-22.2623,-0.300559,0.252506,-0.0571351,0,0,25.795,-1.1025,-0.735,-0.30378,-0.177144,-0.966362,-0.05334,0.26614,0.3619
-10.2386,0,0,25.2386,25.2386,5,5,26.0759,1.80464,-22.1525,-0.293857,0.249858,-0.0555737,0,0,27.1775,-0.84,-1.015,-0.30378,-0.177144,-0.966362,-0.05334,0.26614,0.3619
-10.2556,0,0,25.2556,25.2556,5,5,26.1133,1.80373,-22.1541,0.254424,0.448412,-0.189014,1,0,24.535,-0.8925,-0.9975,0.246806,0.020618,-1.09849,-0.05334,0.26614,0.3619
-10.271,0,0,25.271,25.271,5,5,26.1459,1.80148,-22.1553,0.254463,0.448923,-0.189263,1,0,21.8225,-1.5225,-0.5075,0.246806,0.020618,-1.09849,-0.05334,0.26614,0.3619
-10.2853,0,0,25.2853,25.2853,5,5,26.1756,1.80031,-22.1557,0.434525,0.444625,-0.342561,1,0,20.1775,-0.735,-0.3325,0.42761,0.01586,-1.25038,-0.05334,0.26614,0.3619
-10.3003,0,0,25.3003,25.3003,5,5,26.2074,1.79797,-22.1545,0.434566,0.445123,-0.342805,1,0,21.35,-0.945,0.7875,0.42761,0.01586,-1.25038,-0.05334,0.26614,0.3619
-10.3174,0,0,25.3174,25.3174,5,5,26.2449,1.7952,-22.1525,0.0425802,0.330789,-0.215472,1,0,24.5,-0.98,1.295,0.033916,-0.098942,-1.12374,-0.056,0.26026,0.36596
-10.3335,0,0,25.3335,25.3335,5,5,26.2797,1.50173,-22.0229,-0.188954,0.0668724,0.0387717,0,0,28.1225,-0.14,1.61,-0.20374,-0.363194,-0.871324,-0.056,0.26026,0.36596
-10.3496,0,0,25.3496,25.3496,5,5,26.3143,1.21619,-21.8946,-0.183972,0.0674669,0.0386098,0,0,28.9975,0.0875,1.2425,-0.20374,-0.363194,-0.871324,-0.056,0.26026,0.36596
-10.3682,0,0,25.3682,25.3682,5,5,26.3563,1.21396,-21.8924,-0.285495,0.0523692,-0.243635,1,0,27.0375,-0.6125,1.3125,-0.305732,-0.378932,-1.15107,-0.056,0.26026,0.36596
-10.3855,0,0,25.3855,25.3855,5,5,26.3942,1.21066,-21.891,-0.285437,0.0529622,-0.243928,1,0,24.7625,-1.4,1.1375,-0.305732,-0.378932,-1.15107,-0.056,0.26026,0.36596
-10.4016,0,0,25.4016,25.4016,5,5,26.4289,1.20938,-21.8899,0.0812287,0.304598,0.0655101,1,0,22.995,-0.4025,0.4725,0.062464,-0.1281,-0.843752,-0.056,0.26026,0.36596
-10.4068,0,0,25.4068,25.4068,5,5,26.4326,1.47192,-22.0351,0.188658,-0.0277,-0.056456,0,0,25.305,-0.84,0.035,0.174948,-0.460062,-0.964654,-0.056,0.26026,0.36596
-10.4145,0,0,25.4145,25.4145,5,5,26.4432,1.72654,-22.1802,0.184215,-0.0275896,-0.0566495,0,0,28.8925,-1.8025,-0.4725,0.174948,-0.460062,-0.964654,-0.056,0.26026,0.36596
-10.568,0,0,25.568,25.568,5,5,26.8703,1.44234,-21.9794,-0.145519,-0.288815,0.15861,0,0,31.0275,-1.82,-0.7525,-0.161162,-0.72773,-0.74786,-0.05124,0.26208,0.36596
-10.5887,0,0,25.5887,25.5887,5,5,26.9179,1.44118,-21.9811,-0.227866,-0.0671463,-0.170407,1,0,30.2575,-1.1025,-1.0675,-0.243878,-0.507032,-1.07397,-0.05124,0.26208,0.36596
-10.607,0,0,25.607,25.607,5,5,26.9586,1.4394,-21.982,-0.227835,-0.0665132,-0.170728,1,0,26.355,-1.19,-0.4375,-0.243878,-0.507032,-1.07397,-0.05124,0.26208,0.36596
-10.6247,0,0,25.6247,25.6247,5,5,26.9977,1.43788,-21.9825,0.0528231,-0.206106,-0.11571,1,0,25.48,-0.945,-0.28,0.037942,-0.647088,-1.01907,-0.05124,0.26208,0.36596
-10.6427,0,0,25.6427,25.6427,5,5,27.0374,1.4347,-21.982,0.0528786,-0.205488,-0.116024,1,0,25.7775,-1.5575,0.6475,0.037942,-0.647088,-1.01907,-0.05124,0.26208,0.36596
-10.6621,0,0,25.6621,25.6621,5,5,27.0813,1.43091,-21.9808,-0.36035,0.270756,-0.348866,1,0,28.1225,-1.6625,1.225,-0.377102,-0.17202,-1.24977,-0.05124,0.26208,0.36596
-10.6838,0,0,25.6838,25.6838,5,5,27.1317,1.42838,-21.9786,-0.360306,0.271539,-0.349266,1,0,31.7625,-0.77,1.3475,-0.377102,-0.17202,-1.24977,-0.05124,0.26208,0.36596
-10.7065,0,0,25.7065,25.7065,5,5,27.1848,1.4265,-21.976,-0.0213276,-0.100367,-0.0704719,1,0,33.2675,-0.315,1.4,-0.036722,-0.544364,-0.972706,-0.05124,0.26208,0.36596
-10.7292,0,0,25.7292,25.7292,5,5,27.2379,1.42462,-21.9735,-0.0212948,-0.0995426,-0.0708949,1,0,33.2675,-0.315,1.4,-0.036722,-0.544364,-0.972706,-0.05334,0.25816,0.37016
-10.7499,0,0,25.7499,25.7499,5,5,27.2854,1.41991,-21.9728,-0.246447,-0.558857,0.0220455,1,0,30.135,-2.2925,1.1725,-0.26291,-1.00394,-0.880108,-0.05334,0.25816,0.37016
-10.7706,0,0,25.7706,25.7706,5,5,27.3328,1.4152,-21.9721,-0.246365,-0.55812,0.0216674,1,0,30.135,-2.2925,1.1725,-0.26291,-1.00394,-0.880108,-0.05334,0.25816,0.37016
-10.7896,0,0,25.7896,25.7896,5,5,27.3753,1.41328,-21.9709,0.136591,-0.30246,-0.190882,1,0,27.3525,-0.7,0.7,0.121634,-0.749202,-1.09068,-0.05334,0.25816,0.37016
-10.8109,0,0,25.8109,25.8109,5,5,27.4247,1.41091,-21.9706,-0.152139,0.452559,-0.365249,1,0,31.185,-1.1725,0.3675,-0.16836,0.00427,-1.26331,-0.05334,0.25816,0.37016
-10.8351,0,0,25.8351,25.8351,5,5,27.4818,1.40807,-21.9716,-0.152089,0.453445,-0.365708,1,0,35.6125,-1.785,-0.2275,-0.16836,0.00427,-1.26331,-0.05334,0.25816,0.37016
-10.6946,0,0,25.6946,25.6946,5,5,27.069,1.55909,-22.1523,0.0396531,0.417457,-0.090014,0,0,36.155,-1.7675,-0.385,0.02684,-0.025254,-0.992958,-0.05334,0.25816,0.37016
-10.555,0,0,25.555,25.555,5,5,26.6587,1.70537,-22.333,0.037101,0.411039,-0.0868444,0,0,33.6525,-1.6275,0.1575,0.02684,-0.025254,-0.992958,-0.05334,0.25816,0.37016
-10.5165,0,0,25.5165,25.5165,5,5,26.5374,1.328,-22.1869,-0.251282,0.23446,0.0464292,0,0,32.5675,-1.26,0.3325,-0.269376,-0.199836,-0.861808,-0.05474,0.25284,0.37002
-10.5372,0,0,25.5372,25.5372,5,5,26.5849,1.32587,-22.1839,0.116492,-0.356502,-0.11279,1,0,30.1525,-0.35,1.68,0.099918,-0.790926,-1.01943,-0.05474,0.25284,0.37002
-10.3873,0,0,25.3873,25.3873,5,5,26.1455,1.62234,-22.436,0.14485,0.426852,-0.117374,0,0,33.39,-1.2775,1.855,0.13359,-0.001464,-1.02724,-0.05474,0.25284,0.37002
-10.2419,0,0,25.2419,25.2419,5,5,25.719,1.91095,-22.6907,0.139815,0.420093,-0.11426,0,0,36.5575,-1.505,1.61,0.13359,-0.001464,-1.02724,-0.05474,0.25284,0.37002
-10.2678,0,0,25.2678,25.2678,5,5,25.782,1.90833,-22.6891,0.19137,0.125659,-0.311576,1,0,38.815,-0.98,1.1025,0.185318,-0.296582,-1.22256,-0.05474,0.25284,0.37002
-10.2928,0,0,25.2928,25.2928,5,5,25.8423,1.90559,-22.6879,0.191418,0.126608,-0.312033,1,0,37.3625,-1.1725,0.875,0.185318,-0.296582,-1.22256,-0.05474,0.25284,0.37002
-10.3177,0,0,25.3177,25.3177,5,5,25.9023,1.90256,-22.6867,-0.179546,0.0241083,-0.356381,1,0,37.135,-1.3125,0.9625,-0.18727,-0.399916,-1.26612,-0.05474,0.25284,0.37002
-10.3407,0,0,25.3407,25.3407,5,5,25.9569,1.89873,-22.6865,-0.179479,0.0249663,-0.356796,1,0,34.16,-1.995,0.63,-0.18727,-0.399916,-1.26612,-0.05544,0.25102,0.37016
-10.3637,0,0,25.3637,25.3637,5,5,26.0115,1.89694,-22.6865,-0.169851,-0.288044,-0.110085,1,0,34.1075,-0.98,0,-0.177632,-0.713456,-1.0209,-0.05544,0.25102,0.37016
-10.3867,0,0,25.3867,25.3867,5,5,26.066,1.89514,-22.6866,-0.169819,-0.287189,-0.110502,1,0,34.1075,-0.98,0,-0.177632,-0.713456,-1.0209,-0.05544,0.25102,0.37016
-10.4847,0,0,25.4847,25.4847,5,5,26.3347,1.58577,-22.4836,-0.182888,-0.125489,0.0916706,0,0,37.835,-1.0325,-0.56,-0.196176,-0.556198,-0.818376,-0.05544,0.25102,0.37016
-10.512,0,0,25.512,25.512,5,5,26.4014,1.58386,-22.485,0.374521,0.206761,-0.214003,1,0,40.9325,-1.3825,-0.665,0.36356,-0.225334,-1.12118,-0.05544,0.25102,0.37016
-10.5381,0,0,25.5381,25.5381,5,5,26.4648,1.57942,-22.4866,0.374599,0.207753,-0.214494,1,0,39.13,-2.765,-0.105,0.36356,-0.225334,-1.12118,-0.05544,0.25102,0.37016
-10.5636,0,0,25.5636,25.5636,5,5,26.5263,1.57566,-22.487,0.043859,0.612343,0.101375,1,0,38.01,-2.1,0.3325,0.031354,0.177876,-0.807274,-0.05544,0.25102,0.37016
-10.5882,0,0,25.5882,25.5882,5,5,26.5852,1.57388,-22.4842,0.04389,0.613263,0.100917,1,0,36.5225,-0.2275,1.47,0.031354,0.177876,-0.807274,-0.05544,0.25102,0.37016
-10.4967,0,0,25.4967,25.4967,5,5,26.3124,1.86177,-22.6842,0.148934,0.278216,-0.0424239,0,0,37.9925,0.1225,1.995,0.141886,-0.1525,-0.951478,-0.05782,0.2471,0.37436
-10.5237,0,0,25.5237,25.5237,5,5,26.3783,1.85712,-22.6808,-0.00527206,-0.113879,-0.409318,1,0,40.425,-1.5925,2.52,-0.013054,-0.545218,-1.31504,-0.05782,0.2471,0.37436
-10.5529,0,0,25.5529,25.5529,5,5,26.4503,1.85308,-22.6788,-0.00520158,-0.112754,-0.409875,1,0,43.8375,-1.6275,1.645,-0.013054,-0.545218,-1.31504,-0.05782,0.2471,0.37436
-10.5818,0,0,25.5818,25.5818,5,5,26.5216,1.84895,-22.6778,0.076509,-0.230469,-0.0849822,1,0,43.47,-1.9425,1.1375,0.06893,-0.663924,-0.992104,-0.05782,0.2471,0.37436
-10.6107,0,0,25.6107,25.6107,5,5,26.5928,1.84481,-22.6769,0.0765811,-0.229356,-0.0855359,1,0,43.47,-1.9425,1.1375,0.06893,-0.663924,-0.992104,-0.05782,0.2471,0.37436
-10.6387,0,0,25.6387,25.6387,5,5,26.6612,1.84134,-22.6759,-0.519246,-0.118375,-0.0989782,1,0,41.8425,-1.5925,0.9625,-0.52948,-0.554124,-1.00491,-0.05782,0.2471,0.37436
-10.5594,0,0,25.5594,25.5594,5,5,26.4234,2.63026,-23.1191,0.488326,0.243811,0.0836202,0,0,42.07,-1.015,0.7175,0.496174,-0.188368,-0.825086,-0.05782,0.2471,0.37436
-10.4815,0,0,25.4815,25.4815,5,5,26.1896,3.39877,-23.5641,0.474932,0.239845,0.0847942,0,0,42.245,-2.555,0.0875,0.496174,-0.188368,-0.825086,-0.05782,0.2471,0.37436
-10.5249,0,0,25.5249,25.5249,5,5,26.3024,2.98648,-23.349,-0.282029,0.0134079,-0.0129679,0,0,44.17,-2.415,-0.3675,-0.271206,-0.416508,-0.921588,-0.05614,0.2436,0.38234
-10.5553,0,0,25.5553,25.5553,5,5,26.3779,2.98358,-23.3504,0.118924,-0.0848213,0.192635,1,0,45.955,-1.9075,-0.42,0.131394,-0.515816,-0.716994,-0.05614,0.2436,0.38234
-10.5848,0,0,25.5848,25.5848,5,5,26.4509,2.98006,-23.3509,0.118986,-0.0836816,0.192072,1,0,44.4325,-2.0125,0.1925,0.131394,-0.515816,-0.716994,-0.05614,0.2436,0.38234
-10.6142,0,0,25.6142,25.6142,5,5,26.5233,2.97467,-23.3503,-0.507786,-0.228368,0.0886053,1,0,44.135,-2.6775,1.3125,-0.498126,-0.661484,-0.819108,-0.05614,0.2436,0.38234
-10.664,0,0,25.664,25.664,5,5,26.6544,3.16729,-23.4104,0.133946,-0.0495662,0.0768479,0,0,43.2775,-0.175,2.1175,0.149694,-0.484828,-0.8296,-0.05614,0.2436,0.38234
-10.7139,0,0,25.7139,25.7139,5,5,26.7853,3.35376,-23.4685,0.130696,-0.0476133,0.0756576,0,0,44.0825,-0.77,3.115,0.149694,-0.484828,-0.8296,-0.05614,0.2436,0.38234
-10.5767,0,0,25.5767,25.5767,5,5,26.382,3.8343,-23.8174,0.284388,0.398838,-0.115682,0,0,45.6925,-0.2975,2.8175,0.312442,-0.03233,-1.02212,-0.05614,0.2436,0.38234
-10.444,0,0,25.444,25.444,5,5,25.9917,4.30031,-24.177,0.276275,0.392486,-0.113201,0,0,49.4025,-2.1175,2.24,0.312442,-0.03233,-1.02212,-0.05166,0.24388,0.37744
-10.4776,0,0,25.4776,25.4776,5,5,26.0766,4.29489,-24.1749,-0.36544,0.0952166,-0.16917,1,0,51.0475,-2.345,2.03,-0.332084,-0.33062,-1.07702,-0.05166,0.24388,0.37744
-10.5106,0,0,25.5106,25.5106,5,5,26.1598,4.29151,-24.1722,-0.365381,0.0965183,-0.169803,1,0,50.05,-1.1025,1.855,-0.332084,-0.33062,-1.07702,-0.05166,0.24388,0.37744
-10.5437,0,0,25.5437,25.5437,5,5,26.2431,4.28686,-24.1698,-0.37344,-0.000490199,-0.0822838,1,0,50.1375,-1.855,1.995,-0.340258,-0.42883,-0.989542,-0.05166,0.24388,0.37744
-10.5768,0,0,25.5768,25.5768,5,5,26.3264,4.28221,-24.1675,-0.373359,0.000812401,-0.0829204,1,0,50.1375,-1.855,1.995,-0.340258,-0.42883,-0.989542,-0.05166,0.24388,0.37744
-10.6019,0,0,25.6019,25.6019,5,5,26.3866,3.99655,-24.0399,-0.188466,0.079096,0.0432046,0,0,47.18,-2.5725,0.21,-0.159576,-0.351726,-0.864248,-0.05166,0.24388,0.37744
-10.6262,0,0,25.6262,25.6262,5,5,26.4447,3.7178,-23.9132,-0.183611,0.0801477,0.0430475,0,0,47.18,-2.5725,0.21,-0.159576,-0.351726,-0.864248,-0.05166,0.24388,0.37744
-10.6596,0,0,25.6596,25.6596,5,5,26.529,3.71314,-23.9139,0.0805795,-0.462244,-0.170426,1,0,50.82,-2.66,0.385,0.105652,-0.89487,-1.07543,-0.05166,0.24388,0.37744
-10.6931,0,0,25.6931,25.6931,5,5,26.6133,3.70849,-23.9147,0.0806606,-0.460929,-0.171078,1,0,50.82,-2.66,0.385,0.105652,-0.89487,-1.07543,-0.05558,0.24066,0.37884
-10.7273,0,0,25.7273,25.7273,5,5,26.6993,3.70152,-23.9155,-0.0951293,0.116608,-0.18244,1,0,51.8,-3.885,0.9625,-0.071004,-0.319274,-1.08604,-0.05558,0.24066,0.37884
-10.7865,0,0,25.7865,25.7865,5,5,26.8571,4.27878,-24.1579,0.399107,-0.072751,0.180239,0,0,51.87,-2.03,1.0325,0.435418,-0.51057,-0.724314,-0.05558,0.24066,0.37884
-10.8451,0,0,25.8451,25.8451,5,5,27.013,4.84318,-24.394,0.389288,-0.0706871,0.178312,0,0,51.4675,-1.4,1.435,0.435418,-0.51057,-0.724314,-0.05558,0.24066,0.37884
-10.8798,0,0,25.8798,25.8798,5,5,27.1005,4.93141,-24.4289,0.0735915,-0.0424014,-0.0591732,0,0,53.2525,-0.9975,1.3125,0.119926,-0.483608,-0.959164,-0.05558,0.24066,0.37884
-10.9151,0,0,25.9151,25.9151,5,5,27.1896,5.0162,-24.4648,0.0721172,-0.0410812,-0.0599943,0,0,54.9675,-2.17,0.9975,0.119926,-0.483608,-0.959164,-0.05558,0.24066,0.37884
-10.9522,0,0,25.9522,25.9522,5,5,27.2839,5.01066,-24.4641,-0.470099,-0.199361,-0.313027,1,0,56.3675,-2.7125,1.4175,-0.424682,-0.643184,-1.20951,-0.05558,0.24066,0.37884
-10.9897,0,0,25.9897,25.9897,5,5,27.3795,5.00538,-24.4629,-0.470007,-0.197881,-0.313783,1,0,57.0675,-2.4675,1.5575,-0.424682,-0.643184,-1.20951,-0.05558,0.24066,0.37884
-11.0739,0,0,26.0739,26.0739,5,5,27.6081,4.42523,-24.1497,-0.387146,-0.0314187,0.0351534,0,0,56.91,-3.1325,1.365,-0.351604,-0.480802,-0.862174,-0.05558,0.24066,0.37884
-11.1552,0,0,26.1552,26.1552,5,5,27.8286,3.8642,-23.8372,-0.377379,-0.0276922,0.0339949,0,0,56.2275,0.245,1.19,-0.351604,-0.480802,-0.862174,-0.05488,0.2401,0.3801
-11.192,0,0,26.192,26.192,5,5,27.9215,3.86246,-23.8353,-0.237276,-0.26111,0.0243878,1,0,55.5625,-0.385,1.05,-0.210938,-0.715408,-0.870958,-0.05488,0.2401,0.3801
-11.229,0,0,26.229,26.229,5,5,28.0153,3.85954,-23.8349,-0.237225,-0.259666,0.0236248,1,0,56.105,-1.435,0.5425,-0.210938,-0.715408,-0.870958,-0.05488,0.2401,0.3801
-11.2576,0,0,26.2576,26.2576,5,5,28.085,3.98692,-23.8844,0.0931845,-0.00965041,-0.0333905,0,0,56.945,-3.045,0.56,0.123098,-0.46665,-0.926834,-0.05488,0.2401,0.3801
-11.2869,0,0,26.2869,26.2869,5,5,28.1567,4.11053,-23.933,0.0910324,-0.00862176,-0.0341129,0,0,58.5375,-3.3425,0.9625,0.123098,-0.46665,-0.926834,-0.05488,0.2401,0.3801
-11.3269,0,0,26.3269,26.3269,5,5,28.2589,4.10457,-23.9332,0.280532,-0.00314216,-0.131954,1,0,60.8475,-3.1675,1.085,0.313296,-0.462746,-1.02309,-0.05488,0.2401,0.3801
-11.3668,0,0,26.3668,26.3668,5,5,28.3606,4.1005,-23.9305,0.280603,-0.0015805,-0.132789,1,0,60.4625,-1.365,2.0825,0.313296,-0.462746,-1.02309,-0.05488,0.2401,0.3801
-11.4063,0,0,26.4063,26.4063,5,5,28.4614,4.0967,-23.9271,0.00258859,-0.20814,-0.259764,1,0,59.8675,-1.0325,2.3625,0.034038,-0.670634,-1.14826,-0.05488,0.2401,0.3801
-11.4454,0,0,26.4454,26.4454,5,5,28.561,4.09131,-23.9236,0.00268258,-0.206613,-0.260586,1,0,59.2375,-1.8375,2.835,0.034038,-0.670634,-1.14826,-0.05656,0.2352,0.3885
-11.4849,0,0,26.4849,26.4849,5,5,28.6615,4.08565,-23.9212,0.333222,0.878801,-0.37158,1,0,59.7975,-2.275,2.345,0.365878,0.412116,-1.25758,-0.05656,0.2352,0.3885
-11.5248,0,0,26.5248,26.5248,5,5,28.7631,4.07708,-23.9215,0.333371,0.880358,-0.37242,1,0,60.515,-4.515,1.8025,0.365878,0.412116,-1.25758,-0.05656,0.2352,0.3885
-11.5681,0,0,26.5681,26.5681,5,5,28.8744,4.07035,-23.9216,-0.135811,0.462311,-0.301668,1,0,65.9575,-3.5,1.4175,-0.105408,-0.007198,-1.18645,-0.05656,0.2352,0.3885
-11.6123,0,0,26.6123,26.6123,5,5,28.9882,4.06493,-23.9216,-0.135716,0.464047,-0.30262,1,0,67.2875,-2.7825,1.12,-0.105408,-0.007198,-1.18645,-0.05656,0.2352,0.3885
-11.5886,0,0,26.5886,26.5886,5,5,28.9081,3.59574,-23.7341,-0.347921,0.249737,-0.0802829,0,0,68.0575,-2.0475,1.505,-0.326716,-0.220332,-0.966972,-0.05656,0.2352,0.3885
-11.5641,0,0,26.5641,26.5641,5,5,28.8259,3.13714,-23.5431,-0.339931,0.248709,-0.0791796,0,0,66.7625,-0.9275,2.2575,-0.326716,-0.220332,-0.966972,-0.05656,0.2352,0.3885
-11.6056,0,0,26.6056,26.6056,5,5,28.9319,3.13296,-23.5404,-0.196991,0.582514,-0.357686,1,0,62.895,-1.4175,2.1,-0.183244,0.111508,-1.24245,-0.05656,0.2352,0.3885
-11.6452,0,0,26.6452,26.6452,5,5,29.0328,3.12663,-23.5396,-0.19688,0.584054,-0.358533,1,0,60.06,-3.0275,1.785,-0.183244,0.111508,-1.24245,-0.05054,0.22008,0.40586
-11.687,0,0,26.687,26.687,5,5,29.1396,3.11825,-23.5391,-0.521465,0.139922,-0.243859,1,0,63.385,-4.165,2.205,-0.50935,-0.333792,-1.12777,-0.05054,0.22008,0.40586
-11.7309,0,0,26.7309,26.7309,5,5,29.2524,3.1151,-23.5363,-0.521411,0.14164,-0.244815,1,0,66.71,-0.8575,1.8375,-0.50935,-0.333792,-1.12777,-0.05054,0.22008,0.40586
-11.7776,0,0,26.7776,26.7776,5,5,29.3734,3.11125,-23.5335,-0.137327,0.193308,0.141812,1,0,71.295,-1.19,2.0825,-0.123708,-0.284016,-0.743102,-0.05054,0.22008,0.40586
-11.8229,0,0,26.8229,26.8229,5,5,29.4902,3.10647,-23.5285,-0.137244,0.195083,0.140816,1,0,68.8625,-1.015,3.4825,-0.123708,-0.284016,-0.743102,-0.05054,0.22008,0.40586
-11.912,0,0,26.912,26.912,5,5,29.732,2.57646,-23.1829,-0.317766,0.0210344,0.124747,0,0,67.095,-1.7675,3.675,-0.314272,-0.46177,-0.757376,-0.05054,0.22008,0.40586
-11.9975,0,0,26.9975,26.9975,5,5,29.9634,2.0586,-22.8436,-0.308735,0.0247177,0.123055,0,0,65.2925,-2.485,2.7125,-0.314272,-0.46177,-0.757376,-0.05054,0.22008,0.40586
-12.0401,0,0,27.0401,27.0401,5,5,30.0722,2.04999,-22.8416,-0.19864,-0.615168,0.544808,1,0,64.4875,-3.7975,3.0975,-0.203862,-1.10264,-0.33794,-0.05054,0.22008,0.40586
-12.089,0,0,27.089,27.089,5,5,30.1992,2.04007,-22.8405,-0.198467,-0.613251,0.543701,1,0,74.6725,-4.725,3.0275,-0.203862,-1.10264,-0.33794,-0.05572,0.22036,0.40866
-12.1393,0,0,27.1393,27.1393,5,5,30.3297,2.03345,-22.84,0.481968,0.155796,0.527558,1,0,76.7025,-3.2375,1.7325,0.479338,-0.336354,-0.352824,-0.05572,0.22036,0.40866
-12.1909,0,0,27.1909,27.1909,5,5,30.4642,2.02701,-22.8386,0.482081,0.157822,0.526374,1,0,78.925,-2.8525,2.1875,0.479338,-0.336354,-0.352824,-0.05572,0.22036,0.40866
-12.5094,0,0,27.5094,27.5094,5,5,31.3608,1.67233,-22.4167,-0.16654,-0.411446,0.618714,0,0,75.1975,-2.485,2.3975,-0.178242,-0.918538,-0.253394,-0.05572,0.22036,0.40866
-12.8208,0,0,27.8208,27.8208,5,5,32.2365,1.32892,-22.0105,-0.160548,-0.398378,0.610797,0,0,71.54,-1.7675,0.525,-0.178242,-0.918538,-0.253394,-0.05572,0.22036,0.40866
-12.8671,0,0,27.8671,27.8671,5,5,32.355,1.32634,-22.0122,-0.538081,0.358113,0.130931,1,0,70,-1.8375,-0.4725,-0.557418,-0.164578,-0.728462,-0.05572,0.22036,0.40866
-12.9169,0,0,27.9169,27.9169,5,5,32.4832,1.31631,-22.0154,-0.537906,0.360004,0.129735,1,0,75.4775,-5.985,1.12,-0.557418,-0.164578,-0.728462,-0.05572,0.22036,0.40866
-12.9681,0,0,27.9681,27.9681,5,5,32.6156,1.31045,-22.016,-0.488237,0.524625,-0.233466,1,0,77.7525,-3.115,1.1025,-0.507642,-0.002074,-1.08763,-0.05572,0.22036,0.40866
-13.0215,0,0,28.0215,28.0215,5,5,32.7542,1.30582,-22.0152,-0.488157,0.526662,-0.234771,1,0,81.235,-2.0475,1.4175,-0.507642,-0.002074,-1.08763,-0.05572,0.22036,0.40866
-13.0743,0,0,28.0743,28.0743,5,5,32.8911,1.30147,-22.0125,0.566779,-0.0281064,-0.294218,1,0,80.22,-1.33,2.2225,0.551684,-0.558272,-1.14534,-0.04718,0.2156,0.41132
-13.1248,0,0,28.1248,28.1248,5,5,33.0212,1.2953,-22.0087,0.566887,-0.0261989,-0.295452,1,0,76.475,-1.8375,3.395,0.551684,-0.558272,-1.14534,-0.04718,0.2156,0.41132
-13.1743,0,0,28.1743,28.1743,5,5,33.1483,1.29131,-22.006,-0.0268653,0.677767,-0.388872,1,0,74.76,-1.12,2.1525,-0.044652,0.143106,-1.23684,-0.04718,0.2156,0.41132
-13.224,0,0,28.224,28.224,5,5,33.2759,1.28666,-22.0033,-0.0267842,0.679631,-0.39009,1,0,75.04,-1.435,2.3625,-0.044652,0.143106,-1.23684,-0.04718,0.2156,0.41132
-13.2765,0,0,28.2765,28.2765,5,5,33.4118,1.27847,-22.0021,0.144411,0.705182,-0.798227,1,0,79.66,-3.64,2.7825,0.127124,0.166652,-1.64053,-0.04718,0.2156,0.41132
-13.3312,0,0,28.3312,28.3312,5,5,33.5535,1.2719,-22.0017,0.144525,0.707247,-0.79959,1,0,83.02,-3.115,1.855,0.127124,0.166652,-1.64053,-0.04718,0.2156,0.41132
-13.4816,0,0,28.4816,28.4816,5,5,33.9689,1.8476,-22.098,0.422888,-0.242034,0.292734,0,0,86.9225,-4.6375,2.24,0.416752,-0.78751,-0.552416,-0.04718,0.2156,0.41132
-13.6286,0,0,28.6286,28.6286,5,5,34.374,2.41212,-22.1859,0.413042,-0.236394,0.288462,0,0,83.615,-2.9575,2.8175,0.416752,-0.78751,-0.552416,-0.04718,0.2156,0.41132
-13.6833,0,0,28.6833,28.6833,5,5,34.5155,2.40564,-22.1859,-0.421816,0.254517,0.205555,1,0,82.88,-3.1675,1.68,-0.421754,-0.299144,-0.633302,-0.0595,0.20902,0.41496
-13.8858,0,0,28.8858,28.8858,5,5,35.079,1.69121,-21.6873,-0.397935,-0.128329,0.321908,0,0,80.7275,-2.24,1.47,-0.410286,-0.68991,-0.512644,-0.0595,0.20902,0.41496
-14.0855,0,0,29.0855,29.0855,5,5,35.6343,0.985111,-21.2038,-0.385615,-0.120261,0.316537,0,0,83.8075,-7.07,2.8525,-0.410286,-0.68991,-0.512644,-0.0595,0.20902,0.41496
-14.0425,0,0,29.0425,29.0425,5,5,35.4964,0.1268,-20.837,-0.500018,0.490576,0.0678549,0,0,84.0525,-6.09,2.52,-0.540216,-0.077836,-0.760914,-0.0595,0.20902,0.41496
-14.0038,0,0,29.0038,29.0038,5,5,35.3707,-0.716434,-20.4641,-0.485301,0.488745,0.0690644,0,0,91.6475,-5.1975,1.8025,-0.540216,-0.077836,-0.760914,-0.0595,0.20902,0.41496
-14.0425,0,0,29.0425,29.0425,5,5,35.4659,-0.400352,-20.4721,0.196063,0.0333757,0.0144172,0,0,92.1025,-2.38,2.205,0.149572,-0.534116,-0.814228,-0.0595,0.20902,0.41496
-14.0795,0,0,29.0795,29.0795,5,5,35.5564,-0.0934894,-20.478,0.190707,0.0346751,0.0135184,0,0,89.81,-2.2925,3.43,0.149572,-0.534116,-0.814228,-0.0595,0.20902,0.41496
-14.1396,0,0,29.1396,29.1396,5,5,35.7129,-0.0984331,-20.4754,0.396833,0.559353,-0.460687,1,0,91.28,-1.47,2.5025,0.356484,-0.0122,-1.2832,-0.0595,0.20902,0.41496
-14.1985,0,0,29.1985,29.1985,5,5,35.8657,-0.108778,-20.4743,0.397014,0.561516,-0.462247,1,0,89.1975,-4.5675,3.605,0.356484,-0.0122,-1.2832,-0.056,0.20104,0.4263
-14.2569,0,0,29.2569,29.2569,5,5,36.0171,-0.117785,-20.4699,-0.0740719,0.192145,-0.58564,1,0,88.3925,-2.7825,4.725,-0.116754,-0.383324,-1.4041,-0.056,0.20104,0.4263
-14.3187,0,0,29.3187,29.3187,5,5,36.1783,-0.128112,-20.4679,-0.0738917,0.194419,-0.587298,1,0,93.9575,-4.2175,4.06,-0.116754,-0.383324,-1.4041,-0.056,0.20104,0.4263
-14.3825,0,0,29.3825,29.3825,5,5,36.3451,-0.135487,-20.465,0.708605,-0.102079,-0.486603,1,0,97.0025,-2.52,3.4475,0.668926,-0.681858,-1.30247,-0.056,0.20104,0.4263
-14.4447,0,0,29.4447,29.4447,5,5,36.507,-0.143952,-20.4608,0.708753,-0.0998046,-0.488282,1,0,94.3425,-2.555,4.4625,0.668926,-0.681858,-1.30247,-0.056,0.20104,0.4263
-14.4357,0,0,29.4357,29.4357,5,5,36.4658,-1.28116,-19.9585,-0.665814,0.534651,0.168001,0,0,89.7575,-3.36,4.27,-0.73139,-0.047336,-0.65148,-0.056,0.20104,0.4263
-14.4255,0,0,29.4255,29.4255,5,5,36.4209,-2.40036,-19.4486,-0.646291,0.533649,0.16796,0,0,90.125,-1.015,2.45,-0.73139,-0.047336,-0.65148,-0.056,0.20104,0.4263
-14.4861,0,0,29.4861,29.4861,5,5,36.5784,-2.4111,-19.4479,0.18085,0.433877,-0.506454,1,0,91.8575,-4.8475,3.605,0.099064,-0.149206,-1.31906,-0.056,0.20104,0.4263
-14.5487,0,0,29.5487,29.5487,5,5,36.7414,-2.42671,-19.4474,0.181122,0.43615,-0.50816,1,0,94.92,-7.1575,5.2675,0.099064,-0.149206,-1.31906,-0.05236,0.19628,0.44422
-14.6156,0,0,29.6156,29.6156,5,5,36.9169,-2.44225,-19.4489,0.622993,-0.509967,0.522395,1,0,101.868,-7.8575,4.27,0.542534,-1.09678,-0.29463,-0.05236,0.19628,0.44422
-14.6843,0,0,29.6843,29.6843,5,5,37.0971,-2.44971,-19.4454,0.623123,-0.50746,0.520499,1,0,104.668,-2.2925,3.7975,0.542534,-1.09678,-0.29463,-0.05236,0.19628,0.44422
-14.6326,0,0,29.6326,29.6326,5,5,36.9338,-3.26458,-19.0475,-0.510347,0.532192,-0.0552277,0,0,100.433,-1.9075,4.4975,-0.61,-0.05551,-0.867054,-0.05236,0.19628,0.44422
-14.5785,0,0,29.5785,29.5785,5,5,36.7633,-4.06442,-18.6424,-0.496416,0.529279,-0.05416,0,0,97.1075,-0.6825,3.6225,-0.61,-0.05551,-0.867054,-0.05236,0.19628,0.44422
-14.6441,0,0,29.6441,29.6441,5,5,36.935,-4.07381,-18.6408,0.828184,0.194595,-0.596936,1,0,99.8725,-3.8675,3.5875,0.720044,-0.39223,-1.40385,-0.05236,0.19628,0.44422
-14.7105,0,0,29.7105,29.7105,5,5,37.1089,-4.08745,-18.6401,0.828422,0.197002,-0.598772,1,0,101.045,-6.1775,4.655,0.720044,-0.39223,-1.40385,-0.05236,0.19628,0.44422
-14.7779,0,0,29.7779,29.7779,5,5,37.2854,-4.10234,-18.6413,-0.217797,0.990576,0.411344,1,0,102.48,-7.385,4.27,-0.330864,0.398086,-0.399672,-0.05236,0.19628,0.44422
-14.8559,0,0,29.8559,29.8559,5,5,37.492,-4.10632,-18.6399,-0.217728,0.99343,0.409156,1,0,119.42,-1.4,1.5925,-0.330864,0.398086,-0.399672,-0.04928,0.18928,0.43974
-14.8142,0,0,29.8142,29.8142,5,5,37.357,-3.55572,-18.741,0.351685,0.247469,-0.120042,0,0,114.765,-0.3675,3.4825,0.250588,-0.345626,-0.926712,-0.04928,0.18928,0.43974
-14.7668,0,0,29.7668,29.7668,5,5,37.2058,-3.01879,-18.8484,0.342329,0.245697,-0.118018,0,0,103.6,-2.2575,1.925,0.250588,-0.345626,-0.926712,-0.04928,0.18928,0.43974
-14.8335,0,0,29.8335,29.8335,5,5,37.3802,-3.02406,-18.8476,0.421994,-1.28287,0.883764,1,0,101.343,-2.1875,1.8025,0.330498,-1.87502,0.069174,-0.04928,0.18928,0.43974
-14.9004,0,0,29.9004,29.9004,5,5,37.5553,-3.03369,-18.8467,0.422162,-1.28045,0.8819,1,0,101.763,-4.1825,3.395,0.330498,-1.87502,0.069174,-0.04928,0.18928,0.43974
-14.9657,0,0,29.9657,29.9657,5,5,37.7257,-3.04366,-18.8461,-0.818033,0.88647,0.0437837,1,0,99.085,-4.445,3.3775,-0.915122,0.28731,-0.76067,-0.04928,0.18928,0.43974
-15.0311,0,0,30.0311,30.0311,5,5,37.8961,-3.05363,-18.8456,-0.817859,0.888811,0.0419557,1,0,99.085,-4.445,3.3775,-0.915122,0.28731,-0.76067,-0.04928,0.18928,0.43974
-15.1085,0,0,30.1085,30.1085,5,5,38.1009,-3.05842,-18.8422,0.4215,0.145548,0.58958,1,0,118.458,-1.015,2.835,0.3294,-0.457988,-0.215086,-0.04928,0.18928,0.43974
-15.1859,0,0,30.1859,30.1859,5,5,38.3057,-3.06322,-18.8388,0.421583,0.14835,0.587369,1,0,118.458,-1.015,2.835,0.3294,-0.457988,-0.215086,-0.05558,0.18004,0.44478
-15.2557,0,0,30.2557,30.2557,5,5,38.4887,-3.06851,-18.8354,0.133633,1.60135,0.0521571,1,0,106.225,-1.2075,3.045,0.040138,0.991006,-0.7442,-0.05558,0.18004,0.44478
-15.3255,0,0,30.3255,30.3255,5,5,38.6717,-3.07382,-18.832,0.133725,1.60384,0.0501645,1,0,106.225,-1.2075,3.045,0.040138,0.991006,-0.7442,-0.05558,0.18004,0.44478
-15.3998,0,0,30.3998,30.3998,5,5,38.8671,-3.08679,-18.8319,-0.381269,2.33277,-0.935566,1,0,113.103,-5.9325,4.3225,-0.477264,1.71654,-1.7202,-0.05558,0.18004,0.44478
-15.474,0,0,30.474,30.474,5,5,39.0626,-3.09977,-18.8319,-0.381043,2.33541,-0.937717,1,0,113.103,-5.9325,4.3225,-0.477264,1.71654,-1.7202,-0.05558,0.18004,0.44478
-15.5183,0,0,30.5183,30.5183,5,5,39.1721,-1.89456,-19.1846,0.718405,0.182546,0.291888,0,0,133.385,-4.27,3.605,0.647942,-0.43615,-0.49959,-0.05558,0.18004,0.44478
-15.5621,0,0,30.5621,30.5621,5,5,39.2807,-0.712424,-19.5317,0.697778,0.18431,0.291054,0,0,133.385,-4.27,3.605,0.647942,-0.43615,-0.49959,-0.05558,0.18004,0.44478
-15.6384,0,0,30.6384,30.6384,5,5,39.4815,-0.7188,-19.5302,0.530361,0.241243,-0.217965,1,0,116.148,-2.345,2.6075,0.479704,-0.381982,-1.00247,-0.05558,0.18004,0.44478
-15.7146,0,0,30.7146,30.7146,5,5,39.6824,-0.725181,-19.5287,0.530472,0.243944,-0.220199,1,0,116.148,-2.345,2.6075,0.479704,-0.381982,-1.00247,-0.05628,0.16478,0.45458
-15.7962,0,0,30.7962,30.7962,5,5,39.8983,-0.738193,-19.5259,0.74743,1.57924,-2.31065,1,0,124.583,-4.865,5.635,0.697352,0.949038,-3.0744,-0.05628,0.16478,0.45458
-15.8761,0,0,30.8761,30.8761,5,5,40.1094,-0.759837,-19.5305,0.469119,2.03735,-0.25019,1,0,121.888,-11.445,5.6525,0.417484,1.40385,-1.02748,-0.05628,0.16478,0.45458
-15.9624,0,0,30.9624,30.9624,5,5,40.3389,-0.764047,-19.5303,0.410515,-0.913109,-1.03571,1,0,132.178,-1.855,1.2075,0.358558,-1.54659,-1.80438,-0.05628,0.16478,0.45458
-16.0509,0,0,31.0509,31.0509,5,5,40.5741,-0.767917,-19.5269,0.790104,-0.260149,0.880603,1,0,135.45,-0.455,2.5375,0.739686,-0.897432,0.099796,-0.05628,0.16478,0.45458
-16.1332,0,0,31.1332,31.1332,5,5,40.792,-0.775565,-19.5219,-0.273856,0.987205,-1.41228,1,0,125.738,-1.505,4.69,-0.328912,0.345748,-2.17294,-0.05628,0.16478,0.45458
-16.2086,0,0,31.2086,31.2086,5,5,40.9897,-0.785017,-19.5173,-0.370879,-1.47336,2.02924,1,0,114.398,-2.4325,5.215,-0.426512,-2.11487,1.24428,-0.05628,0.16478,0.45458
-16.2925,0,0,31.2925,31.2925,5,5,41.2118,-0.800133,-19.516,-0.370615,-1.47044,2.02669,1,0,128.048,-6.195,5.9325,-0.426512,-2.11487,1.24428,-0.05628,0.16478,0.45458
-16.3702,0,0,31.3702,31.3702,5,5,41.4161,-0.816092,-19.5163,-1.6531,1.68151,1.5832,1,0,118.108,-7.1575,5.5825,-1.71471,1.03114,0.806542,-0.05628,0.16478,0.45458
-16.4504,0,0,31.4504,31.4504,5,5,41.6273,-0.831292,-19.5156,-1.65284,1.68427,1.58075,1,0,121.958,-6.44,5.7225,-1.71471,1.03114,0.806542,-0.04774,0.14854,0.4613
-16.5506,0,0,31.5506,31.5506,5,5,41.8958,-0.837839,-19.5087,-0.392797,-0.426738,1.7859,1,0,154.088,-0.175,5.1275,-0.449448,-1.08116,1.01321,-0.04774,0.14854,0.4613
-16.6457,0,0,31.6457,31.6457,5,5,42.1492,-0.84622,-19.5039,-0.39265,-0.423454,1.78294,1,0,145.67,-1.8025,4.9,-0.449448,-1.08116,1.01321,-0.04774,0.14854,0.4613
-16.7267,0,0,31.7267,31.7267,5,5,42.3625,-0.855721,-19.5019,-0.286549,-2.11777,2.20387,1,0,123.113,-3.36,4.1475,-0.343064,-2.77648,1.43338,-0.04774,0.14854,0.4613
-16.815,0,0,31.815,31.815,5,5,42.5967,-0.874014,-19.5018,-0.28623,-2.11476,2.20111,1,0,134.838,-7.8925,6.8075,-0.343064,-2.77648,1.43338,-0.04774,0.14854,0.4613
-16.9071,0,0,31.9071,31.9071,5,5,42.8416,-0.885777,-19.4971,-0.333404,2.2174,0.865936,1,0,140.858,-3.22,6.23,-0.390644,1.54806,0.111386,-0.04774,0.14854,0.4613
-17.0003,0,0,32.0003,32.0003,5,5,43.0893,-0.910617,-19.4986,-0.33297,2.22056,0.862984,1,0,142.398,-11.2525,8.82,-0.390644,1.54806,0.111386,-0.04774,0.14854,0.4613
-17.102,0,0,32.102,32.102,5,5,43.3614,-0.922775,-19.4931,1.64952,0.437913,0.622685,1,0,156.135,-3.01,6.755,1.60003,-0.236192,-0.12383,-0.04774,0.14854,0.4613
-17.1943,0,0,32.1943,32.1943,5,5,43.6062,-0.932456,-19.4952,1.64969,0.441012,0.619743,1,0,140.788,-5.005,2.5375,1.60003,-0.236192,-0.12383,-0.04928,0.14798,0.46578
-17.2805,0,0,32.2805,32.2805,5,5,43.8337,-0.935098,-19.4922,-0.256615,2.21643,-0.841048,1,0,131.11,0.0875,1.9075,-0.314394,1.53452,-1.57063,-0.04928,0.14798,0.46578
-17.3787,0,0,32.3787,32.3787,5,5,44.0956,-0.953122,-19.4958,-0.2563,2.21971,-0.844224,1,0,150.308,-9.0825,5.355,-0.314394,1.53452,-1.57063,-0.04928,0.14798,0.46578
-17.4797,0,0,32.4797,32.4797,5,5,44.3649,-0.966805,-19.4953,-0.893497,2.7525,-2.5544,1,0,154.56,-5.565,5.3375,-0.954528,2.06339,-3.26435,-0.04928,0.14798,0.46578
-17.5755,0,0,32.5755,32.5755,5,5,44.6197,-0.985415,-19.503,-0.893172,2.75567,-2.55752,1,0,146.283,-10.9725,3.955,-0.954528,2.06339,-3.26435,-0.04928,0.14798,0.46578
-17.6809,0,0,32.6809,32.6809,5,5,44.9014,-1.0004,-19.5046,-0.228141,-1.00772,-0.416393,1,0,161.438,-6.93,5.04,-0.286944,-1.69958,-1.13631,-0.04928,0.14798,0.46578
-17.7804,0,0,32.7804,32.7804,5,5,45.1664,-1.01068,-19.5051,-0.227961,-1.00446,-0.419668,1,0,152.145,-4.48,3.605,-0.286944,-1.69958,-1.13631,-0.04928,0.14798,0.46578
-17.8738,0,0,32.8738,32.8738,5,5,45.4137,-1.01793,-19.5047,-0.00624492,3.28425,-2.06398,1,0,142.188,-2.8525,2.73,-0.064416,2.58164,-2.76489,-0.04928,0.14798,0.46578
-17.9707,0,0,32.9707,32.9707,5,5,45.6712,-1.03996,-19.5122,-0.00586053,3.28739,-2.06719,1,0,147.805,-12.1975,5.67,-0.064416,2.58164,-2.76489,-0.05474,0.12838,0.46704
-18.0768,0,0,33.0768,33.0768,5,5,45.9544,-1.05747,-19.5118,0.777785,1.38858,-3.27452,1,0,162.33,-6.9825,7.07,0.72224,0.68137,-3.95939,-0.05474,0.12838,0.46704
-18.1725,0,0,33.1725,33.1725,5,5,46.2081,-1.07067,-19.5118,0.778015,1.39165,-3.27772,1,0,145.74,-5.39,5.11,0.72224,0.68137,-3.95939,-0.05474,0.12838,0.46704
-18.2808,0,0,33.2808,33.2808,5,5,46.4977,-1.08863,-19.5113,0.250838,-0.439085,-1.75054,1,0,165.918,-7.105,7.315,0.192516,-1.15095,-2.44037,-0.05474,0.12838,0.46704
-18.3909,0,0,33.3909,33.3909,5,5,46.7921,-1.09847,-19.5121,0.251009,-0.435561,-1.75428,1,0,168.595,-4.2875,3.4475,0.192516,-1.15095,-2.44037,-0.05474,0.12838,0.46704
-18.4931,0,0,33.4931,33.4931,5,5,47.064,-1.10524,-19.5158,1.57909,2.00545,-0.303884,1,0,155.925,-4.34,0.945,1.5261,1.28429,-0.997716,-0.05474,0.12838,0.46704
-18.5897,0,0,33.5897,33.5897,5,5,47.3196,-1.12728,-19.5191,1.57947,2.00848,-0.307162,1,0,146.808,-10.22,7.6825,1.5261,1.28429,-0.997716,-0.05474,0.12838,0.46704
-18.6986,0,0,33.6986,33.6986,5,5,47.6104,-1.14723,-19.5166,0.255991,-2.02476,-1.11818,1,0,166.565,-6.8425,9.135,0.196664,-2.74817,-1.79877,-0.05474,0.12838,0.46704
-18.8094,0,0,33.8094,33.8094,5,5,47.9064,-1.16139,-19.5195,0.256238,-2.02129,-1.12201,1,0,169.488,-6.86,4.5325,0.196664,-2.74817,-1.79877,-0.05012,0.1113,0.47964
-18.9205,0,0,33.9205,33.9205,5,5,48.2033,-1.18005,-19.523,1.72581,0.205489,-1.89725,1,0,169.943,-8.855,6.3,1.67213,-0.527162,-2.5642,-0.05012,0.1113,0.47964
-19.0409,0,0,34.0409,34.0409,5,5,48.5265,-1.19434,-19.5255,1.72606,0.209232,-1.90147,1,0,184.713,-6.685,4.8125,1.67213,-0.527162,-2.5642,-0.05012,0.1113,0.47964
-19.1537,0,0,34.1537,34.1537,5,5,48.8279,-1.21002,-19.5343,2.21143,1.29425,-1.33826,1,0,172.375,-9.94,3.0625,2.15928,0.55327,-2.00141,-0.05012,0.1113,0.47964
-19.2545,0,0,34.2545,34.2545,5,5,49.0949,-1.22667,-19.5373,2.21172,1.29731,-1.34178,1,0,153.195,-7.77,5.7225,2.15928,0.55327,-2.00141,-0.05012,0.1113,0.47964
-19.3645,0,0,34.3645,34.3645,5,5,49.3881,-1.25614,-19.5454,2.08759,-2.09802,0.303694,1,0,167.808,-14.8925,9.5025,2.03411,-2.84187,-0.36478,-0.05012,0.1113,0.47964
-19.4778,0,0,34.4778,34.4778,5,5,49.6903,-1.27035,-19.5482,2.08784,-2.09461,0.299679,1,0,172.935,-6.6675,4.8125,2.03411,-2.84187,-0.36478,-0.05012,0.1113,0.47964
-19.5864,0,0,34.5864,34.5864,5,5,49.9791,-1.28324,-19.5526,0.0464929,2.8003,-0.36945,1,0,165.41,-6.8775,3.64,-0.016104,2.04472,-1.02492,-0.05012,0.1113,0.47964
-19.7157,0,0,34.7157,34.7157,5,5,50.3272,-1.29901,-19.5479,0.0467681,2.80419,-0.374117,1,0,198.73,-3.8325,8.3825,-0.016104,2.04472,-1.02492,-0.05012,0.1113,0.47964
-19.8363,0,0,34.8363,34.8363,5,5,50.65,-1.31519,-19.5516,1.26033,2.32061,-0.847023,1,0,184.468,-7.7175,5.4775,1.20231,1.55806,-1.48986,-0.04956,0.10178,0.48356
-19.9445,0,0,34.9445,34.9445,5,5,50.9372,-1.32695,-19.5553,0.46055,1.40245,-0.908941,1,0,164.5,-6.0725,3.5,0.39894,0.637694,-1.54745,-0.04956,0.10178,0.48356
-20.0649,0,0,35.0649,35.0649,5,5,51.2592,-1.35197,-19.5519,0.460987,1.40597,-0.91332,1,0,184.135,-7.6475,12.1975,0.39894,0.637694,-1.54745,-0.04956,0.10178,0.48356
-20.1948,0,0,35.1948,35.1948,5,5,51.6082,-1.37225,-19.5487,-1.30373,3.94364,-0.0410952,1,0,199.238,-5.985,9.9575,-1.3736,3.16895,-0.677222,-0.04956,0.10178,0.48356
-20.3162,0,0,35.3162,35.3162,5,5,51.9329,-1.3839,-19.5432,-1.30352,3.94714,-0.045548,1,0,185.623,-1.7325,6.8775,-1.3736,3.16895,-0.677222,-0.04956,0.10178,0.48356
-20.4565,0,0,35.4565,35.4565,5,5,52.3113,-1.39984,-19.5385,-0.911331,1.09941,-0.164738,1,0,215.793,-3.57,8.5925,-0.980026,0.320128,-0.790316,-0.04956,0.10178,0.48356
-20.5783,0,0,35.5783,35.5783,5,5,52.6369,-1.41377,-19.5466,-0.911088,1.10287,-0.169247,1,0,185.955,-8.7325,3.15,-0.980026,0.320128,-0.790316,-0.04956,0.10178,0.48356
-20.6891,0,0,35.6891,35.6891,5,5,52.9306,-1.42647,-19.5455,-0.670932,-0.340385,-2.75082,1,0,168.21,-4.0425,5.8275,-0.739076,-1.12472,-3.34792,-0.04424,0.0749,0.49364
-20.8119,0,0,35.8119,35.8119,5,5,53.2587,-1.45057,-19.5398,-0.670512,-0.336956,-2.75541,1,0,187.548,-5.845,12.7925,-0.739076,-1.12472,-3.34792,-0.04424,0.0749,0.49364
-20.9468,0,0,35.9468,35.9468,5,5,53.6212,-1.4672,-19.5488,-1.0563,0.325068,0.259739,1,0,206.64,-10.045,4.235,-1.12679,-0.467138,-0.350994,-0.04424,0.0749,0.49364
-21.0818,0,0,36.0818,36.0818,5,5,53.9837,-1.48376,-19.5579,-1.05601,0.328797,0.25463,1,0,206.64,-10.045,4.235,-1.12679,-0.467138,-0.350994,-0.04424,0.0749,0.49364
-21.221,0,0,36.221,36.221,5,5,54.3581,-1.49866,-19.5578,-0.067468,-0.311725,-0.0530009,1,0,213.465,-5.075,6.65,-0.134322,-1.11081,-0.650992,-0.04424,0.0749,0.49364
-21.3603,0,0,36.3603,36.3603,5,5,54.7326,-1.51356,-19.5577,-0.0672081,-0.307941,-0.0583265,1,0,213.465,-5.075,6.65,-0.134322,-1.11081,-0.650992,-0.04424,0.0749,0.49364
-21.2267,0,0,36.2267,36.2267,5,5,54.3277,-1.49069,-19.9555,0.119724,1.81713,0.330786,0,0,178.325,-7.0525,6.3525,0.053802,1.01614,-0.270596,-0.04424,0.0749,0.49364
-21.0917,0,0,36.0917,36.0917,5,5,53.9188,-1.46783,-20.359,0.119325,1.81295,0.336572,0,0,178.325,-7.0525,6.3525,0.053802,1.01614,-0.270596,-0.04424,0.0749,0.49364
-21.2309,0,0,36.2309,36.2309,5,5,54.2934,-1.48546,-20.3687,-2.38382,0.303629,-0.234536,1,0,213.413,-10.71,4.55,-2.46025,-0.495442,-0.83204,-0.04424,0.0749,0.49364
-21.3702,0,0,36.3702,36.3702,5,5,54.668,-1.50301,-20.3786,-2.38352,0.30742,-0.23986,1,0,213.413,-10.71,4.55,-2.46025,-0.495442,-0.83204,-0.04788,0.04914,0.50596
-21.5154,0,0,36.5154,36.5154,5,5,55.059,-1.51289,-20.371,-0.321003,0.789224,0.701262,1,0,222.845,0.2625,6.8075,-0.38918,-0.018056,0.10736,-0.04788,0.04914,0.50596
-21.6549,0,0,36.6549,36.6549,5,5,55.434,-1.5313,-20.3753,1.53258,1.01913,-1.88149,1,0,213.728,-8.2075,6.9825,1.47193,0.207888,-2.45013,-0.04788,0.04914,0.50596
-21.7824,0,0,36.7824,36.7824,5,5,55.7745,-1.5559,-20.3765,1.53301,1.02247,-1.8864,1,0,194.39,-8.75,11.0075,1.47193,0.207888,-2.45013,-0.04788,0.04914,0.50596
-21.9186,0,0,36.9186,36.9186,5,5,56.1394,-1.58052,-20.3745,-0.319702,-0.355594,-0.515516,1,0,208.163,-7.1575,12.0925,-0.389058,-1.1723,-1.08458,-0.04788,0.04914,0.50596
-22.0711,0,0,37.0711,37.0711,5,5,56.5509,-1.59962,-20.3747,-0.319369,-0.351623,-0.521497,1,0,234.238,-6.2825,8.8025,-0.389058,-1.1723,-1.08458,-0.04788,0.04914,0.50596
-22.2186,0,0,37.2186,37.2186,5,5,56.9479,-1.61206,-20.3765,0.0169993,0.09146,-1.15531,1,0,226.1,-4.9,5.0575,-0.051484,-0.733464,-1.70776,-0.04788,0.04914,0.50596
-22.3677,0,0,37.3677,37.3677,5,5,57.3495,-1.62336,-20.3827,0.0171964,0.0952554,-1.1612,1,0,228.55,-6.6675,3.1325,-0.051484,-0.733464,-1.70776,-0.04788,0.04914,0.50596
-22.5114,0,0,37.5114,37.5114,5,5,57.7352,-1.63925,-20.3956,0.986079,2.1948,1.26454,1,0,219.608,-11.4275,3.325,0.921222,1.3603,0.704916,-0.04704,0.04144,0.5173
-22.642,0,0,37.642,37.642,5,5,58.0835,-1.66775,-20.4039,0.587739,2.36826,-1.26868,1,0,198.66,-12.985,11.095,0.520696,1.53037,-1.80365,-0.04704,0.04144,0.5173
-22.7797,0,0,37.7797,37.7797,5,5,58.4519,-1.69571,-20.4092,0.588226,2.37163,-1.27415,1,0,209.983,-11.305,11.795,0.520696,1.53037,-1.80365,-0.04704,0.04144,0.5173
-22.9358,0,0,37.9358,37.9358,5,5,58.8725,-1.71298,-20.4162,-0.525739,3.52697,-1.54009,1,0,239.243,-8.7675,6.055,-0.598288,2.68071,-2.06131,-0.04704,0.04144,0.5173
-23.0871,0,0,38.0871,38.0871,5,5,59.2795,-1.73144,-20.4202,-0.525417,3.53061,-1.54619,1,0,231.63,-7.5775,7.6125,-0.598288,2.68071,-2.06131,-0.04704,0.04144,0.5173
-23.2539,0,0,38.2539,38.2539,5,5,59.7303,-1.75266,-20.4281,-0.701444,-0.173787,-1.68846,1,0,256.165,-10.3425,7.875,-0.775432,-1.02382,-2.19576,-0.04704,0.04144,0.5173
-23.4116,0,0,38.4116,38.4116,5,5,60.1553,-1.77527,-20.4363,-0.70105,-0.170084,-1.69488,1,0,241.623,-10.7975,8.5925,-0.775432,-1.02382,-2.19576,-0.04704,0.04144,0.5173
-23.5589,0,0,38.5589,38.5589,5,5,60.55,-1.80544,-20.4467,1.22065,1.59389,-0.794251,1,0,224.683,-14.0875,11.8475,1.15388,0.734928,-1.29613,-0.04704,0.04144,0.5173
-23.7121,0,0,38.7121,38.7121,5,5,60.9618,-1.82693,-20.4469,1.22103,1.59739,-0.800524,1,0,234.36,-6.265,10.4475,1.15388,0.734928,-1.29613,-0.04214,0.01358,0.51492
-23.8776,0,0,38.8776,38.8776,5,5,61.4082,-1.84271,-20.4476,-0.14031,4.12769,-1.17411,1,0,253.838,-4.83,7.4375,-0.2135,3.25886,-1.66005,-0.04214,0.01358,0.51492
-24.0426,0,0,39.0426,39.0426,5,5,61.8532,-1.85359,-20.45,-0.14012,4.13137,-1.18094,1,0,252.963,-4.3225,4.4625,-0.2135,3.25886,-1.66005,-0.04214,0.01358,0.51492
-24.2075,0,0,39.2075,39.2075,5,5,62.2975,-1.86991,-20.4591,1.05376,-1.22698,-1.37234,1,0,252.455,-9.205,5.495,0.98515,-2.09755,-1.84318,-0.04214,0.01358,0.51492
-24.3645,0,0,39.3645,39.3645,5,5,62.7194,-1.89684,-20.4719,1.05423,-1.2236,-1.37887,1,0,239.838,-13.93,10.0625,0.98515,-2.09755,-1.84318,-0.04214,0.01358,0.51492
-24.228,0,0,39.228,39.228,5,5,62.3027,-2.29624,-20.4377,-0.0829549,1.15161,-0.563297,0,0,234.92,-12.5125,13.79,-0.163846,0.27877,-1.04017,-0.04214,0.01358,0.51492
-24.1045,0,0,39.1045,39.1045,5,5,61.9232,-2.68566,-20.3874,-0.0761647,1.14825,-0.557586,0,0,255.115,-6.09,11.27,-0.163846,0.27877,-1.04017,-0.04214,0.01358,0.51492
-24.2699,0,0,39.2699,39.2699,5,5,62.3691,-2.69623,-20.3862,0.643215,2.94408,0.0679834,1,0,253.558,-2.31,5.3375,0.558394,2.06912,-0.412604,-0.04214,0.01358,0.51492
-24.4327,0,0,39.4327,39.4327,5,5,62.8074,-2.70979,-20.3901,0.643451,2.94759,0.0611945,1,0,249.183,-5.6875,5.5475,0.558394,2.06912,-0.412604,-0.04088,-0.0203,0.52724
-24.6043,0,0,39.6043,39.6043,5,5,63.2704,-2.73389,-20.4054,2.34989,0.0773482,-0.743822,1,0,262.71,-14.4025,8.05,2.27164,-0.801784,-1.20426,-0.04088,-0.0203,0.52724
-24.7696,0,0,39.7696,39.7696,5,5,63.7155,-2.76847,-20.418,2.3505,0.0807851,-0.750778,1,0,252.718,-15.68,14.3325,2.27164,-0.801784,-1.20426,-0.04088,-0.0203,0.52724
-24.939,0,0,39.939,39.939,5,5,64.172,-2.80341,-20.4265,-1.43645,-1.01452,0.46257,1,0,259.228,-13.4575,15.715,-1.53195,-1.89942,0.006832,-0.04088,-0.0203,0.52724
-25.1145,0,0,40.1145,40.1145,5,5,64.6457,-2.8229,-20.4258,-1.43611,-1.01097,0.455114,1,0,269.168,-4.585,9.9925,-1.53195,-1.89942,0.006832,-0.04088,-0.0203,0.52724
-25.2876,0,0,40.2876,40.2876,5,5,65.1124,-2.8396,-20.4334,2.33376,3.45889,1.16109,1,0,264.95,-8.225,6.4925,2.25358,2.56237,0.714676,-0.04088,-0.0203,0.52724
-25.463,0,0,40.463,40.463,5,5,65.5852,-2.85728,-20.4413,2.33407,3.46232,1.15359,1,0,268.433,-8.54,7.0175,2.25358,2.56237,0.714676,-0.04088,-0.0203,0.52724
-25.6386,0,0,40.6386,40.6386,5,5,66.0588,-2.87963,-20.4535,2.50344,1.77459,0.0508282,1,0,268.678,-11.9175,8.54,2.42329,0.873032,-0.3721,-0.04088,-0.0203,0.52724
-25.8118,0,0,40.8118,40.8118,5,5,66.5251,-2.9068,-20.4576,2.50392,1.77784,0.0433767,1,1,264.845,-8.5925,13.125,2.42329,0.873032,-0.3721,-0.03584,-0.05208,0.53452
-25.9894,0,0,40.9894,40.9894,5,5,67.0038,-2.93758,-20.4603,-0.135918,-1.56603,1.21674,1,1,271.828,-8.61,15.435,-0.228262,-2.47062,0.799832,-0.03584,-0.05208,0.53452
-26.1664,0,0,41.1664,41.1664,5,5,67.4805,-2.94212,-20.4489,-0.135839,-1.56281,1.20908,1,1,271.145,5.1275,4.585,-0.228262,-2.47062,0.799832,-0.03584,-0.05208,0.53452
-26.3394,0,0,41.3394,41.3394,5,5,67.9458,-2.94852,-20.4575,1.99987,1.352,1.29489,1,1,264.145,-6.1425,1.1025,1.91638,0.438102,0.89243,-0.03584,-0.05208,0.53452
-26.5181,0,0,41.5181,41.5181,5,5,68.4269,-2.96313,-20.4774,2.00012,1.35511,1.2871,1,1,272.703,-14,3.1675,1.91638,0.438102,0.89243,-0.03584,-0.05208,0.53452
-26.688,0,0,41.688,41.688,5,5,68.8828,-2.97921,-20.4864,1.04358,2.80311,-2.87314,1,1,258.895,-8.33,6.405,0.955504,1.88173,-3.22836,-0.03584,-0.05208,0.53452
-26.857,0,0,41.857,41.857,5,5,69.3361,-3.01886,-20.4989,1.04427,2.80589,-2.88053,1,1,257.268,-15.155,18.5675,0.955504,1.88173,-3.22836,-0.03584,-0.05208,0.53452
-27.0301,0,0,42.0301,42.0301,5,5,69.8006,-3.04859,-20.4993,1.28363,-1.82736,-1.74041,1,1,263.97,-6.335,15.7325,1.19536,-2.74951,-2.08949,-0.03584,-0.05208,0.53452
-27.1915,0,0,42.1915,42.1915,5,5,70.2316,-3.04051,-20.5073,1.28349,-1.82479,-1.74746,1,1,244.948,-2.7825,-6.4575,1.19536,-2.74951,-2.08949,-0.03402,-0.0735,0.53704
-27.3528,0,0,42.3528,42.3528,5,5,70.6623,-3.04757,-20.5229,2.18868,-0.255149,1.3477,1,1,244.51,-10.01,0.4025,2.10426,-1.18401,0.98881,-0.03402,-0.0735,0.53704
-27.5238,0,0,42.5238,42.5238,5,5,71.1205,-3.05267,-20.5292,2.18877,-0.252539,1.34015,1,1,260.225,-4.5325,1.155,2.10426,-1.18401,0.98881,-0.03402,-0.0735,0.53704
-27.6915,0,0,42.6915,42.6915,5,5,71.569,-3.05855,-20.5227,0.634102,3.58071,-0.727258,1,1,255.203,2.485,4.025,0.5429,2.64276,-1.0553,-0.03402,-0.0735,0.53704
-27.8622,0,0,42.8622,42.8622,5,5,72.0256,-3.07198,-20.524,0.634336,3.58318,-0.734822,1,1,259.49,-3.185,6.7725,0.5429,2.64276,-1.0553,-0.03402,-0.0735,0.53704
-28.0243,0,0,43.0243,43.0243,5,5,72.4577,-3.06547,-20.5198,-2.75122,3.33134,-3.70038,1,1,245.91,3.5,-3.3075,-2.85687,2.38888,-3.99086,-0.03402,-0.0735,0.53704
-28.1833,0,0,43.1833,43.1833,5,5,72.881,-3.05879,-20.5216,-2.75134,3.33354,-3.70742,1,1,240.818,0.105,-4.48,-2.85687,2.38888,-3.99086,-0.03402,-0.0735,0.53704
-28.3519,0,0,43.3519,43.3519,5,5,73.3311,-3.05362,-20.5053,-0.298022,-0.417497,0.0229561,1,1,256.375,10.01,-0.56,-0.393084,-1.36054,-0.28182,-0.03402,-0.0735,0.53704
-28.5067,0,0,43.5067,43.5067,5,5,73.7419,-3.05457,-20.4977,-0.298006,-0.415468,0.0160896,1,1,234.08,4.0775,1.3475,-0.393084,-1.36054,-0.28182,-0.03458,-0.0959,0.53452
-28.6568,0,0,43.6568,43.6568,5,5,74.1389,-3.06296,-20.4891,-3.87622,0.509716,2.17505,1,1,226.363,3.4125,5.635,-3.98659,-0.438224,1.86709,-0.03458,-0.0959,0.53452
-28.8036,0,0,43.8036,43.8036,5,5,74.5264,-3.05882,-20.4816,-3.87629,0.511543,2.16855,1,1,220.973,4.8825,-1.575,-3.98659,-0.438224,1.86709,-0.03458,-0.0959,0.53452
-28.9341,0,0,43.9341,43.9341,5,5,74.8671,-3.03814,-20.4733,-1.49833,4.29063,-1.07994,1,1,194.828,7.875,-10.7975,-1.5982,3.33536,-1.35066,-0.03458,-0.0959,0.53452
-29.0693,0,0,44.0693,44.0693,5,5,75.2211,-3.01569,-20.4693,-1.49872,4.29224,-1.08589,1,1,202.108,5.5825,-12.5125,-1.5982,3.33536,-1.35066,-0.03458,-0.0959,0.53452
-29.2118,0,0,44.2118,44.2118,5,5,75.5959,-3.00002,-20.4723,1.48786,0.358369,-1.76302,1,1,213.588,0.595,-9.73,1.40129,-0.596092,-2.01629,-0.03458,-0.0959,0.53452
-29.336,0,0,44.336,44.336,5,5,75.9184,-3.00173,-20.4569,1.48788,0.35975,-1.76847,1,1,184.783,8.505,2.7475,1.40129,-0.596092,-2.01629,-0.03458,-0.0959,0.53452
-29.4596,0,0,44.4596,44.4596,5,5,76.2388,-2.99887,-20.4301,3.14745,-3.04355,-0.589892,1,1,183.978,15.5925,1.6975,3.06793,-3.99721,-0.841434,-0.03458,-0.0959,0.53452
-29.5645,0,0,44.5645,44.5645,5,5,76.5056,-2.95802,-20.3967,3.14674,-3.04242,-0.594402,1,1,154.07,24.605,-19.0225,3.06793,-3.99721,-0.841434,-0.03458,-0.0959,0.53452
-29.6588,0,0,44.6588,44.6588,5,5,76.7423,-2.9304,-20.3888,2.97083,2.6791,1.19516,1,1,136.43,8.1725,-15.0675,2.89177,1.71739,0.938302,-0.03934,-0.11774,0.53844
-29.7671,0,0,44.7671,44.7671,5,5,77.0188,-2.92025,-20.3747,-0.0645431,1.2435,-1.28915,1,1,158.988,9.3625,-4.34,-0.156282,0.282186,-1.52219,-0.03934,-0.11774,0.53844
-29.8659,0,0,44.8659,44.8659,5,5,77.2677,-2.92294,-20.3783,-0.0644962,1.24446,-1.29339,1,1,142.993,-2.3975,0.63,-0.156282,0.282186,-1.52219,-0.03934,-0.11774,0.53844
-29.9646,0,0,44.9646,44.9646,5,5,77.5167,-2.91864,-20.363,0.128348,-0.72217,0.119854,1,1,143.535,9.2575,-0.945,0.037454,-1.68336,-0.115656,-0.03934,-0.11774,0.53844
-30.0345,0,0,45.0345,45.0345,5,5,77.683,-2.89537,-20.3411,0.127943,-0.721527,0.117027,1,1,97.405,15.435,-10.955,0.037454,-1.68336,-0.115656,-0.03934,-0.11774,0.53844
-30.0982,0,0,45.0982,45.0982,5,5,77.8315,-2.88301,-20.3425,0.725801,0.876572,-0.807492,1,1,86.7825,0.7,-7.665,0.63806,-0.087474,-1.03053,-0.03934,-0.11774,0.53844
-30.1721,0,0,45.1721,45.1721,5,5,78.0094,-2.88448,-20.3555,0.725827,0.87722,-0.810523,1,1,102.865,-7.6475,-1.19,0.63806,-0.087474,-1.03053,-0.03934,-0.11774,0.53844
-30.2476,0,0,45.2476,45.2476,5,5,78.1916,-2.89243,-20.3839,1.38369,3.24285,-0.960187,1,1,104.895,-17.255,0.6825,1.29857,2.27506,-1.17596,-0.03934,-0.11774,0.53844
-30.3106,0,0,45.3106,45.3106,5,5,78.338,-2.90404,-20.3746,1.38389,3.24336,-0.962688,1,1,85.89,3.92,7.2975,1.29857,2.27506,-1.17596,-0.03304,-0.13986,0.52934
-30.361,0,0,45.361,45.361,5,5,78.4484,-2.91108,-20.3474,1.96848,1.6589,-2.44094,1,1,66.185,14.735,6.7725,1.88551,0.691862,-2.64093,-0.03304,-0.13986,0.52934
-30.397,0,0,45.397,45.397,5,5,78.5176,-2.92252,-20.3434,1.96868,1.65913,-2.44212,1,1,42.4375,0.91,6.5625,1.88551,0.691862,-2.64093,-0.03304,-0.13986,0.52934
-30.4361,0,0,45.4361,45.4361,5,5,78.5957,-2.94082,-20.3496,0.110026,3.00755,-2.29703,1,1,47.1275,-5.705,9.31,0.018666,2.03862,-2.49563,-0.03304,-0.13986,0.52934
-30.4848,0,0,45.4848,45.4848,5,5,78.7011,-2.97057,-20.3682,0.110545,3.00788,-2.29884,1,1,62.1425,-14.0875,14.455,0.018666,2.03862,-2.49563,-0.03304,-0.13986,0.52934
-30.5335,0,0,45.5335,45.5335,5,5,78.8065,-2.9975,-20.3702,-2.14376,2.42555,0.504181,1,1,62.545,-4.2875,14.735,-2.24565,1.45656,0.287554,-0.03304,-0.13986,0.52934
-30.5617,0,0,45.5617,45.5617,5,5,78.8531,-3.02437,-20.3525,-2.14329,2.42568,0.50338,1,1,30.1875,7.0875,16.94,-2.24565,1.45656,0.287554,-0.03304,-0.13986,0.52934
-30.5781,0,0,45.5781,45.5781,5,5,78.8662,-3.05079,-20.3417,-1.38901,2.97259,-0.109623,1,1,11.165,3.185,15.9075,-1.48864,2.00287,-0.320494,-0.03304,-0.13986,0.52934
-30.598,0,0,45.598,45.598,5,5,78.8893,-3.07161,-20.345,-1.38865,2.97264,-0.110023,1,1,16.415,-4.235,11.1125,-1.48864,2.00287,-0.320494,-0.03304,-0.14154,0.53228
-30.6226,0,0,45.6226,45.6226,5,5,78.9258,-3.09281,-20.3476,0.96757,3.17731,-0.444947,1,1,23.8875,-3.9025,11.41,0.87718,2.20722,-0.652212,-0.03304,-0.14154,0.53228
-30.6489,0,0,45.6489,45.6489,5,5,78.967,-3.1099,-20.3346,0.967868,3.17743,-0.445655,1,1,27.0375,5.495,10.7975,0.87718,2.20722,-0.652212,-0.03304,-0.14154,0.53228
-30.6687,0,0,45.6687,45.6687,5,5,78.9898,-3.12565,-20.3244,0.809846,2.26472,-0.668708,1,1,16.625,4.0425,9.7125,0.718214,1.2954,-0.873154,-0.03304,-0.14154,0.53228
-30.6766,0,0,45.6766,45.6766,5,5,78.9785,-3.13748,-20.3086,0.810052,2.26467,-0.668517,1,1,-2.2925,7.77,8.1025,0.718214,1.2954,-0.873154,-0.03304,-0.14154,0.53228
-30.6799,0,0,45.6799,45.6799,5,5,78.9542,-3.14538,-20.2935,-0.237381,2.96559,-0.143604,1,1,-9.6425,7.7175,5.7575,-0.333792,1.99568,-0.352702,-0.03304,-0.14154,0.53228
-30.686,0,0,45.686,45.686,5,5,78.9377,-3.15101,-20.2868,-0.237283,2.96553,-0.143324,1,1,-5.495,3.185,3.535,-0.333792,1.99568,-0.352702,-0.03304,-0.14154,0.53228
-30.6949,0,0,45.6949,45.6949,5,5,78.9293,-3.15215,-20.2715,-0.0713137,3.07431,-0.200351,1,1,-0.7175,8.6625,1.925,-0.16714,2.10438,-0.409432,-0.03304,-0.14154,0.53228
-30.7002,0,0,45.7002,45.7002,5,5,78.9105,-3.14893,-20.2689,-0.0713697,3.07425,-0.20003,1,1,-6.895,1.8025,-1.995,-0.16714,2.10438,-0.409432,-0.02772,-0.13888,0.53494
-30.7058,0,0,45.7058,45.7058,5,5,78.8928,-3.14132,-20.2651,-0.36647,2.03563,-0.101612,1,1,-6.2825,3.01,-4.375,-0.463356,1.06689,-0.312076,-0.02772,-0.13888,0.53494
-30.7003,0,0,45.7003,45.7003,5,5,78.8433,-3.12469,-20.2665,-0.366759,2.03548,-0.100763,1,1,-24.255,1.085,-10.115,-0.463356,1.06689,-0.312076,-0.02772,-0.13888,0.53494
-30.6911,0,0,45.6911,45.6911,5,5,78.7833,-3.10378,-20.2626,-1.07368,1.53776,-0.509029,1,1,-29.995,4.5675,-11.97,-1.17291,0.569862,-0.718214,-0.02772,-0.13888,0.53494
-30.6841,0,0,45.6841,45.6841,5,5,78.7296,-3.07781,-20.2542,-1.07414,1.5376,-0.508106,1,1,-26.3375,7.77,-14.35,-1.17291,0.569862,-0.718214,-0.02772,-0.13888,0.53494
-30.6735,0,0,45.6735,45.6735,5,5,78.6655,-3.05273,-20.2467,-0.0763264,1.76614,-0.615323,1,1,-32.165,7.1925,-13.93,-0.170434,0.798368,-0.825696,-0.02772,-0.13888,0.53494
-30.6598,0,0,45.6598,45.6598,5,5,78.5928,-3.02941,-20.2451,-0.0767329,1.76592,-0.614076,1,1,-37.205,3.5875,-13.5975,-0.170434,0.798368,-0.825696,-0.02772,-0.13888,0.53494
-30.6422,0,0,45.6422,45.6422,5,5,78.5087,-3.00902,-20.2474,0.16807,3.08034,-0.22916,1,1,-43.6625,0.9975,-12.3725,0.075762,2.1117,-0.445178,-0.02772,-0.13888,0.53494
-30.6166,0,0,45.6166,45.6166,5,5,78.402,-2.98991,-20.2399,0.167737,3.07998,-0.227334,1,1,-56.07,6.545,-10.4825,0.075762,2.1117,-0.445178,-0.03178,-0.14154,0.53228
-30.5897,0,0,45.5897,45.5897,5,5,78.2917,-2.97111,-20.2362,0.00704807,1.11545,-0.663882,1,1,-58.205,4.27,-10.7625,-0.085278,0.149572,-0.88023,-0.03178,-0.14154,0.53228
-30.5618,0,0,45.5618,45.5618,5,5,78.1785,-2.95547,-20.2374,0.00677541,1.11506,-0.661948,1,1,-59.955,1.155,-9.52,-0.085278,0.149572,-0.88023,-0.03178,-0.14154,0.53228
-30.5343,0,0,45.5343,45.5343,5,5,78.0664,-2.94301,-20.2414,-0.873484,1.48715,-0.97638,1,1,-59.43,-0.805,-8.0325,-0.969046,0.521672,-1.19414,-0.03178,-0.14154,0.53228
-30.5029,0,0,45.5029,45.5029,5,5,77.9432,-2.93495,-20.2407,-0.873625,1.48671,-0.974278,1,1,-65.5375,1.3825,-4.9525,-0.969046,0.521672,-1.19414,-0.03178,-0.14154,0.53228
-30.4648,0,0,45.4648,45.4648,5,5,77.801,-2.92728,-20.2378,-0.82978,1.98582,-1.36762,1,1,-76.09,2.555,-4.4625,-0.924882,1.02077,-1.58685,-0.03178,-0.14154,0.53228
-30.4218,0,0,45.4218,45.4218,5,5,77.645,-2.91745,-20.2277,-0.829952,1.98525,-1.36497,1,1,-83.615,6.965,-4.795,-0.924882,1.02077,-1.58685,-0.03178,-0.14154,0.53228
-30.3799,0,0,45.3799,45.3799,5,5,77.4921,-2.90825,-20.2159,-1.25604,1.18451,-1.45457,1,1,-81.865,7.91,-4.2,-1.35261,0.22143,-1.67835,-0.03178,-0.14154,0.53228
-30.3382,0,0,45.3382,45.3382,5,5,77.3396,-2.90968,-20.21,-1.25602,1.18393,-1.45198,1,1,-81.7775,3.1325,1.12,-1.35261,0.22143,-1.67835,-0.03178,-0.14154,0.53228
-30.2945,0,0,45.2945,45.2945,5,5,77.1818,-2.91394,-20.1976,-0.291224,1.51074,-0.292843,1,1,-84.6125,6.545,3.5875,-0.383812,0.548512,-0.530822,-0.03416,-0.1316,0.54026
-30.2398,0,0,45.2398,45.2398,5,5,76.9924,-2.91642,-20.1905,-0.722941,1.43966,-0.594783,1,1,-102.463,3.6925,1.89,-0.8174,0.47824,-0.833626,-0.03416,-0.1316,0.54026
-30.1786,0,0,45.1786,45.1786,5,5,76.7848,-2.9115,-20.1832,-0.723027,1.43884,-0.591259,1,1,-112.613,4.7775,-2.275,-0.8174,0.47824,-0.833626,-0.03416,-0.1316,0.54026
-30.1225,0,0,45.1225,45.1225,5,5,76.5917,-2.9066,-20.179,-1.3337,-0.0714166,0.126103,1,1,-104.65,3.01,-2.66,-1.43057,-1.02968,-0.12505,-0.03416,-0.1316,0.54026
-30.0817,0,0,45.0817,45.0817,5,5,76.4424,-2.90408,-20.1724,-1.33374,-0.072021,0.128634,1,1,-79.9575,4.1125,-0.9625,-1.43057,-1.02968,-0.12505,-0.03416,-0.1316,0.54026
-30.0347,0,0,45.0347,45.0347,5,5,76.2754,-2.89857,-20.1677,0.0367626,2.57562,-0.707044,1,1,-89.985,3.395,-2.9225,-0.054168,1.61589,-0.95709,-0.03416,-0.1316,0.54026
-29.9755,0,0,44.9755,44.9755,5,5,76.0735,-2.88449,-20.1678,0.0365171,2.57479,-0.703625,1,1,-109.638,1.89,-8.435,-0.054168,1.61589,-0.95709,-0.03416,-0.1316,0.54026
-29.9087,0,0,44.9087,44.9087,5,5,75.8503,-2.86634,-20.1667,-0.0556425,1.85368,-2.34219,1,1,-121.573,3.15,-10.57,-0.1464,0.896456,-2.58677,-0.03416,-0.1316,0.54026
-29.8466,0,0,44.8466,44.8466,5,5,75.6404,-2.85387,-20.177,-0.0558599,1.85279,-2.33864,1,1,-114.415,-4.025,-8.96,-0.1464,0.896456,-2.58677,-0.02884,-0.11578,0.54712
-29.7946,0,0,44.7946,44.7946,5,5,75.4595,-2.84687,-20.1854,-0.31256,1.5749,-1.29102,1,1,-98.14,-3.7625,-5.6175,-0.404064,0.619638,-1.55025,-0.02884,-0.11578,0.54712
-29.737,0,0,44.737,44.737,5,5,75.2625,-2.83914,-20.1857,-0.312694,1.57404,-1.28769,1,1,-106.943,0.9625,-4.8475,-0.404064,0.619638,-1.55025,-0.02884,-0.11578,0.54712
-29.6713,0,0,44.6713,44.6713,5,5,75.0428,-2.82712,-20.1802,0.971321,0.0643133,-1.85816,1,1,-119.473,4.8475,-6.405,0.885598,-0.88755,-2.11999,-0.02884,-0.11578,0.54712
-29.5959,0,0,44.5959,44.5959,5,5,74.7954,-2.80956,-20.1899,0.971015,0.0632057,-1.85399,1,1,-135.45,-2.835,-11.8125,0.885598,-0.88755,-2.11999,-0.02884,-0.11578,0.54712
-29.5069,0,0,44.5069,44.5069,5,5,74.5089,-2.39199,-20.2021,0.459083,0.0137184,-0.0582183,0,1,-125.878,-5.88,-9.9225,0.37881,-0.935984,-0.342942,-0.02884,-0.11578,0.54712
-29.4345,0,0,44.4345,44.4345,5,5,74.2702,-1.98662,-20.2156,0.452013,0.0128583,-0.0541355,0,1,-101.535,-7.245,-6.7375,0.37881,-0.935984,-0.342942,-0.02884,-0.11578,0.54712
-29.3787,0,0,44.3787,44.3787,5,5,74.0791,-1.98388,-20.231,-0.429049,1.91359,0.697213,1,1,-103.88,-8.26,-4.4275,-0.505934,0.963678,0.399428,-0.02884,-0.11578,0.54712
-29.3209,0,0,44.3209,44.3209,5,5,73.8823,-1.96951,-20.243,-0.429299,1.91265,0.700516,1,1,-107.065,-4.4625,-10.43,-0.505934,0.963678,0.399428,-0.03164,-0.10808,0.54838
-29.258,0,0,44.258,44.258,5,5,73.6711,-1.95104,-20.2545,-0.371916,2.57307,-0.238713,1,1,-115.098,-3.4825,-12.67,-0.447984,1.62443,-0.536068,-0.03164,-0.10808,0.54838
-29.2057,0,0,44.2057,44.2057,5,5,73.4902,-1.94714,-20.2818,-0.371984,2.57218,-0.235686,1,1,-98.385,-14.7,-7.1225,-0.447984,1.62443,-0.536068,-0.03164,-0.10808,0.54838
-29.1587,0,0,44.1587,44.1587,5,5,73.3245,-1.95098,-20.303,-0.0927427,2.48977,-0.173902,1,1,-89.7575,-12.565,-1.82,-0.167628,1.54293,-0.477508,-0.03164,-0.10808,0.54838
-29.1081,0,0,44.1081,44.1081,5,5,73.1484,-1.95304,-20.3062,-0.0927068,2.48888,-0.170961,1,1,-95.27,-2.1525,0.175,-0.167628,1.54293,-0.477508,-0.03164,-0.10808,0.54838
-29.0593,0,0,44.0593,44.0593,5,5,72.9777,-1.94851,-20.3065,1.05768,-0.900145,-2.12631,1,1,-92.19,0.56,-3.0275,0.987712,-1.84171,-2.4206,-0.03164,-0.10808,0.54838
-29.0104,0,0,44.0104,44.0104,5,5,72.807,-1.94398,-20.3069,1.0576,-0.901018,-2.12346,1,1,-92.19,0.56,-3.0275,0.987712,-1.84171,-2.4206,-0.03164,-0.10808,0.54838
-28.9589,0,0,43.9589,43.9589,5,5,72.6285,-1.94968,-20.3243,0.1219,1.47488,-0.824986,1,1,-96.8275,-10.745,-0.28,0.047946,0.532652,-1.13509,-0.03164,-0.10808,0.54838
-28.9073,0,0,43.9073,43.9073,5,5,72.4501,-1.95543,-20.3417,0.122,1.47395,-0.822018,1,1,-96.8275,-10.745,-0.28,0.047946,0.532652,-1.13509,-0.02884,-0.09324,0.54488
