pid_x,pid_y,pid_z,front_left_speed,front_right_speed,back_left_speed,back_right_speed,orientation_x,orientation_y,orientation_z,acceleration_x,acceleration_y,acceleration_z,accel_rejected,mag_rejected,ahrs_initialized,gyro_x,gyro_y,gyro_z,accel_x,accel_y,accel_z,mag_x,mag_y,mag_z
-0,0,0,5,5,5,5,0.0366224,0.0334376,0.681208,0.00820725,-0.0309366,0.00424177,0,0,0,3.5525,-0.1225,-1.2425,-0.031476,-0.019398,-1.00845,-0.16506,-0.2527,0.35
-0,0,0,5,5,5,5,0.0729455,0.0573228,1.36473,0.00147312,-0.0307911,-0.00178365,0,0,0,3.5,0,-1.225,-0.03782,-0.019886,-1.01443,-0.16506,-0.2527,0.35
-0,0,0,5,5,5,5,0.108778,0.0801856,2.04499,0.00107409,-0.0301657,-0.00178512,0,0,0,3.5,0,-1.225,-0.03782,-0.019886,-1.01443,-0.16506,-0.2527,0.35
-0,0,0,5,5,5,5,0.14552,0.106489,2.71889,0.0032877,-0.0303794,0.00558962,0,0,0,3.5525,0,-1.365,-0.035136,-0.02074,-1.00711,-0.16506,-0.2527,0.35
-0,0,0,5,5,5,5,0.178623,0.126885,3.39641,0.000744975,-0.0276033,-0.0014208,0,0,0,3.43,-0.1575,-1.3125,-0.037332,-0.018544,-1.01406,-0.1638,-0.25326,0.34426
-0,0,0,5,5,5,5,0.210051,0.151448,4.06659,0.00456827,-0.0263221,0.000912318,0,0,0,3.15,-0.3325,-1.295,-0.033062,-0.017812,-1.01175,-0.1638,-0.25326,0.34426
-0,0,0,5,5,5,5,0.241034,0.175023,4.73322,0.00415681,-0.0257813,0.000909017,0,0,0,3.15,-0.3325,-1.295,-0.033062,-0.017812,-1.01175,-0.1638,-0.25326,0.34426
-0,0,0,5,5,5,5,0.276423,0.199412,5.39645,0.00288075,-0.0285832,4.41977e-05,0,0,0,3.605,0.0525,-1.225,-0.033916,-0.021228,-1.0126,-0.1638,-0.25326,0.34426
-0,0,0,5,5,5,5,0.309416,0.219976,6.05714,0.00106401,-0.026664,0.00311365,0,0,0,3.43,0.07,-1.2425,-0.03538,-0.019886,-1.00955,-0.1638,-0.25326,0.34426
-0,0,0,5,5,5,5,0.339641,0.243051,6.71118,0.00406288,-0.0240604,0.00507621,0,0,0,3.4825,0.14,-1.19,-0.031964,-0.017812,-1.0076,-0.1638,-0.25326,0.34426
-0,0,0,5,5,5,5,0.369057,0.265064,7.36152,0.00367869,-0.023547,0.00507133,0,0,0,3.29,0.07,-1.085,-0.031964,-0.017812,-1.0076,-0.1638,-0.25326,0.34426
-0,0,0,5,5,5,5,0.397005,0.275019,8.01463,-0.00427015,-0.0226928,-0.00206376,0,0,0,3.29,0.0175,-1.1025,-0.039772,-0.017446,-1.01467,-0.1638,-0.25326,0.34426
-0,0,0,5,5,5,5,0.425861,0.291322,8.65736,0.000183266,-0.0230441,-0.00342121,0,0,0,3.395,0.035,-1.1025,-0.035014,-0.0183,-1.01602,-0.16044,-0.25158,0.34594
-0,0,0,5,5,5,5,0.456045,0.304087,9.29802,-0.00307667,-0.0233722,0.00358164,0,0,0,3.7275,0.385,-1.365,-0.038064,-0.019154,-1.00906,-0.16044,-0.25158,0.34594
-0,0,0,5,5,5,5,0.485317,0.316163,9.93465,-0.00328744,-0.0228614,0.0035763,0,0,0,3.5,0.385,-1.33,-0.038064,-0.019154,-1.00906,-0.16044,-0.25158,0.34594
-0,0,0,5,5,5,5,0.51116,0.323598,10.5689,-0.00499651,-0.0204563,-0.000116801,0,0,0,3.36,0.1225,-1.2075,-0.03965,-0.017202,-1.01272,-0.16044,-0.25158,0.34594
-0,0,0,5,5,5,5,0.539072,0.337067,11.1952,-0.00134405,-0.0215569,0.010328,0,0,0,3.3075,0.0875,-1.19,-0.035746,-0.018788,-1.00235,-0.16044,-0.25158,0.34594
-0,0,0,5,5,5,5,0.566689,0.349766,11.8172,-0.00156569,-0.0210749,0.010322,0,0,0,3.4125,0.035,-1.2775,-0.035746,-0.018788,-1.00235,-0.16044,-0.25158,0.34594
-0,0,0,5,5,5,5,0.591631,0.358106,12.4367,-0.00341204,-0.0189298,0.00429225,0,0,0,3.605,-0.0175,-1.225,-0.037454,-0.01708,-1.00833,-0.16044,-0.25158,0.34594
-0,0,0,5,5,5,5,0.616177,0.366163,13.0559,-0.00355265,-0.0185015,0.00428684,0,0,0,3.6225,0.07,-1.26,-0.037454,-0.01708,-1.00833,-0.16618,-0.25564,0.34258
-0,0,0,5,5,5,5,0.642635,0.38164,13.666,0.00140111,-0.019261,0.00563244,0,0,0,3.85,0.035,-1.26,-0.032208,-0.0183,-1.00699,-0.16618,-0.25564,0.34258
-0,0,0,5,5,5,5,0.668605,0.394527,14.2725,-3.86607e-05,-0.0191742,-0.00359541,0,0,0,3.8325,-0.07,-1.225,-0.033428,-0.018666,-1.01614,-0.16618,-0.25564,0.34258
-0,0,0,5,5,5,5,0.694098,0.40677,14.8747,-0.000252341,-0.0187293,-0.00360219,0,0,0,3.8325,-0.07,-1.225,-0.033428,-0.018666,-1.01614,-0.16618,-0.25564,0.34258
-0,0,0,5,5,5,5,0.718843,0.417026,15.4731,-0.00176767,-0.0184196,-0.00114983,0,0,0,3.5875,0.105,-1.2425,-0.03477,-0.018788,-1.0137,-0.16618,-0.25564,0.34258
-0,0,0,5,5,5,5,0.743584,0.426044,16.0674,-0.00265399,-0.0184764,0.00326964,0,0,0,3.4125,0.035,-1.1725,-0.035502,-0.019276,-1.00931,-0.16618,-0.25564,0.34258
-0,0,0,5,5,5,5,0.767886,0.434529,16.657,-0.00280206,-0.0180523,0.00326294,0,0,0,3.43,0.035,-1.225,-0.035502,-0.019276,-1.00931,-0.16618,-0.25564,0.34258
-0,0,0,5,5,5,5,0.788598,0.440322,17.2395,-0.00326763,-0.0153705,0.00227367,0,0,0,3.465,-0.0175,-1.225,-0.035868,-0.016958,-1.01028,-0.16436,-0.25592,0.34958
-0,0,0,5,5,5,5,0.814573,0.447453,17.8165,-0.00375654,-0.0189474,0.0036188,0,0,0,3.605,-0.245,-1.295,-0.036234,-0.020984,-1.00894,-0.16436,-0.25592,0.34958
-0,0,0,5,5,5,5,0.832089,0.450345,18.3904,-0.00380701,-0.0126575,0.00373696,0,0,0,3.6575,-0.1925,-1.2425,-0.036234,-0.015006,-1.00882,-0.16436,-0.25592,0.34958
-0,0,0,5,5,5,5,0.84988,0.452729,18.9601,-0.00445605,-0.0134462,-0.00450548,0,0,0,3.3775,-0.14,-1.155,-0.036844,-0.016104,-1.01699,-0.16436,-0.25592,0.34958
-0,0,0,5,5,5,5,0.867476,0.45507,19.5252,-0.0044969,-0.0131391,-0.0045104,0,0,0,3.465,0,-1.1025,-0.036844,-0.016104,-1.01699,-0.16436,-0.25592,0.34958
-0,0,0,5,5,5,5,0.893871,0.466331,20.0807,-0.00104887,-0.0190291,0.00322669,0,0,0,3.4125,0.0525,-1.085,-0.033184,-0.022448,-1.00931,-0.16436,-0.25592,0.34958
-0,0,0,5,5,5,5,0.920228,0.47705,20.6313,-0.00123595,-0.0185692,0.00321787,0,0,0,3.6925,0.0875,-1.2425,-0.033184,-0.022448,-1.00931,-0.16436,-0.25592,0.34958
-0,0,0,5,5,5,5,0.940988,0.487715,21.1812,-0.00494517,-0.0149095,0.000997345,0,0,0,3.605,4.4275,-1.1725,-0.036722,-0.019154,-1.0115,-0.16436,-0.25592,0.34958
-0,0,0,5,5,5,5,0.964792,0.498798,21.7165,-3.61995e-05,-0.0168146,0.0023412,0,0,0,3.5175,0.1225,-1.19,-0.031598,-0.021472,-1.01016,-0.16422,-0.25088,0.34818
-0,0,0,5,5,5,5,0.985571,0.49912,22.2528,-0.00672353,-0.0149865,-0.00196821,0,0,0,3.6925,0,-1.4,-0.038308,-0.020008,-1.01443,-0.16422,-0.25088,0.34818
-0,0,0,5,5,5,5,1.00579,0.499206,22.7846,-0.00672503,-0.0146336,-0.00197436,0,0,0,3.6225,0.0175,-1.26,-0.038308,-0.020008,-1.01443,-0.16422,-0.25088,0.34818
-0,0,0,5,5,5,5,1.03132,0.507575,23.3068,-0.0024976,-0.0177299,0.00736052,0,0,0,3.5875,0.1575,-1.2425,-0.033916,-0.023546,-1.00516,-0.16422,-0.25088,0.34818
-0,0,0,5,5,5,5,1.04522,0.508855,23.828,-0.00385629,-0.00991546,0.00157735,0,0,0,3.535,0.1575,-1.2775,-0.035258,-0.015982,-1.01089,-0.16422,-0.25088,0.34818
-0,0,0,5,5,5,5,1.05907,0.509995,24.3445,-0.00387619,-0.00967369,0.00157273,0,0,0,3.675,0.1925,-1.295,-0.035258,-0.015982,-1.01089,-0.16422,-0.25088,0.34818
-0,0,0,5,5,5,5,1.07527,0.511422,24.856,-0.00426554,-0.011223,0.00341147,0,0,0,3.6925,0.0875,-1.2425,-0.035624,-0.017812,-1.00906,-0.16422,-0.25088,0.34818
-0,0,0,5,5,5,5,1.09113,0.512651,25.3658,-0.00428699,-0.0109462,0.00340605,0,0,0,3.6925,0.0875,-1.2425,-0.035624,-0.017812,-1.00906,-0.16338,-0.25298,0.34804
-0,0,0,5,5,5,5,1.10933,0.517084,25.8689,-0.00266356,-0.0130712,0.00167798,0,0,0,3.2025,-0.07,-1.1025,-0.033916,-0.020252,-1.01077,-0.16338,-0.25298,0.34804
-0,0,0,5,5,5,5,1.1204,0.51485,26.3713,-0.00566171,-0.00799291,0.00167457,0,0,0,3.5,0.2975,-1.2075,-0.036966,-0.015372,-1.01077,-0.16338,-0.25298,0.34804
-0,0,0,5,5,5,5,1.13117,0.512538,26.8691,-0.00562137,-0.00780504,0.00167124,0,0,0,3.465,0.2975,-1.225,-0.036966,-0.015372,-1.01077,-0.16338,-0.25298,0.34804
-0,0,0,5,5,5,5,1.14669,0.510754,27.3614,-0.00680508,-0.0114423,-0.000178095,0,0,0,3.255,0.2625,-1.295,-0.038186,-0.019276,-1.0126,-0.16338,-0.25298,0.34804
-0,0,0,5,5,5,5,1.16186,0.508826,27.8491,-0.00677144,-0.0111775,-0.000183131,0,0,0,3.255,0.2625,-1.295,-0.038186,-0.019276,-1.0126,-0.16338,-0.25298,0.34804
-0,0,0,5,5,5,5,1.17712,0.507443,28.3316,-0.00613987,-0.0110333,0.00313126,0,0,0,3.2725,0.105,-1.19,-0.037576,-0.019398,-1.00931,-0.16338,-0.25298,0.34804
-0,0,0,5,5,5,5,1.18846,0.504643,28.8102,-0.00584804,-0.00814876,-0.000929696,0,0,0,3.5175,0.14,-1.26,-0.037332,-0.016714,-1.01333,-0.16338,-0.25298,0.34804
-0,0,0,5,5,5,5,1.19926,0.501453,29.2855,-0.00579236,-0.0079602,-0.000933137,0,0,0,3.36,-0.0525,-1.085,-0.037332,-0.016714,-1.01333,-0.16366,-0.25508,0.35
-0,0,0,5,5,5,5,1.20833,0.499363,29.7556,-0.00441955,-0.00658077,0.00324411,0,0,0,3.325,-0.0525,-1.05,-0.03599,-0.015494,-1.00918,-0.16366,-0.25508,0.35
-0,0,0,5,5,5,5,1.21761,0.498737,30.2202,-0.00319376,-0.00629662,0.00373257,0,0,0,3.57,-0.07,-1.0675,-0.03477,-0.015372,-1.0087,-0.16366,-0.25508,0.35
-0,0,0,5,5,5,5,1.22681,0.497816,30.6798,-0.00317769,-0.0061362,0.00372928,0,0,0,3.64,-0.1925,-1.295,-0.03477,-0.015372,-1.0087,-0.16366,-0.25508,0.35
-0,0,0,5,5,5,5,1.2417,0.497999,31.1341,-0.00427425,-0.0100286,0.00753506,0,0,0,3.5175,-0.0875,-1.12,-0.035868,-0.01952,-1.00491,-0.16366,-0.25508,0.35
-0,0,0,5,5,5,5,1.25527,0.496015,31.585,-0.00557596,-0.00942555,0.00027624,0,0,0,3.5525,0,-1.155,-0.03721,-0.019154,-1.01211,-0.16366,-0.25508,0.35
-0,0,0,5,5,5,5,1.26858,0.493866,32.0312,-0.00553846,-0.00919329,0.000271448,0,0,0,3.5875,-0.035,-1.26,-0.03721,-0.019154,-1.01211,-0.16366,-0.25508,0.35
-0,0,0,5,5,5,5,1.28059,0.49026,32.4701,-0.00620444,-0.00825093,-0.000716263,0,0,0,3.7275,0,-1.295,-0.037942,-0.018422,-1.01309,-0.16282,-0.25032,0.34846
-0,0,0,5,5,5,5,1.2917,0.486754,32.9047,-0.00614324,-0.00805705,-0.000720094,0,0,0,3.3775,0.0875,-1.2425,-0.037942,-0.018422,-1.01309,-0.16282,-0.25032,0.34846
-0,0,0,5,5,5,5,1.30233,0.485016,33.3337,-0.00441212,-0.00738304,0.00333326,0,0,0,3.43,-0.0525,-1.2425,-0.036234,-0.017934,-1.00906,-0.16282,-0.25032,0.34846
-0,0,0,5,5,5,5,1.31272,0.4832,33.7583,-0.00438043,-0.00720186,0.0033294,0,0,0,3.43,-0.0525,-1.2425,-0.036234,-0.017934,-1.00906,-0.16282,-0.25032,0.34846
-0,0,0,5,5,5,5,1.32237,0.475585,34.1815,-0.00849953,-0.00703347,0.00185125,0,0,0,3.5175,-0.1225,-1.26,-0.040504,-0.017934,-1.01053,-0.16282,-0.25032,0.34846
-0,0,0,5,5,5,5,1.3364,0.480158,34.5936,-0.000439787,-0.00898693,0.000492473,0,0,0,3.675,0.0525,-1.2425,-0.03233,-0.02013,-1.01187,-0.16282,-0.25032,0.34846
-0,0,0,5,5,5,5,1.35005,0.484648,35.0013,-0.00051815,-0.00874867,0.000486226,0,0,0,3.6575,0.1575,-1.26,-0.03233,-0.02013,-1.01187,-0.16282,-0.25032,0.34846
-0,0,0,5,5,5,5,1.36635,0.484596,35.4063,-0.00476925,-0.0107847,0.00490564,0,0,0,3.5875,0.105,-1.4,-0.0366,-0.022448,-1.00748,-0.16282,-0.25032,0.34846
-0,0,0,5,5,5,5,1.38206,0.484108,35.812,-0.00476072,-0.0105106,0.00489913,0,0,0,3.465,-0.07,-1.3125,-0.0366,-0.022448,-1.00748,-0.15988,-0.25214,0.34804
-0,0,0,5,5,5,5,1.39213,0.480604,36.2159,-0.00567146,-0.00715967,0.00169874,0,0,0,3.36,0.035,-1.26,-0.037576,-0.019276,-1.01065,-0.15988,-0.25214,0.34804
-0,0,0,5,5,5,5,1.40205,0.476865,36.6155,-0.0056062,-0.00698661,0.00169506,0,0,0,3.4125,-0.0875,-1.295,-0.037576,-0.019276,-1.01065,-0.15988,-0.25214,0.34804
-0,0,0,5,5,5,5,1.41295,0.471034,37.0118,-0.00744821,-0.00765133,9.28989e-05,0,0,0,3.57,-0.07,-1.2775,-0.039528,-0.02013,-1.01223,-0.15988,-0.25214,0.34804
-0,0,0,5,5,5,5,1.42365,0.465613,37.4037,-0.0073536,-0.00746454,8.90479e-05,0,0,0,3.605,0.1575,-1.33,-0.039528,-0.02013,-1.01223,-0.15988,-0.25214,0.34804
-0,0,0,5,5,5,5,1.42805,0.459188,37.7929,-0.00651255,-0.00335754,0.00476008,0,0,0,3.465,0.1925,-1.365,-0.038796,-0.016104,-1.0076,-0.15988,-0.25214,0.34804
-0,0,0,5,5,5,5,1.43264,0.452358,38.1779,-0.00639334,-0.00327753,0.00475903,0,0,0,3.6225,-0.105,-1.3475,-0.038796,-0.016104,-1.0076,-0.15988,-0.25214,0.34804
-0,0,0,5,5,5,5,1.44316,0.451659,38.5548,-0.003344,-0.00687988,0.0021726,0,0,0,3.5875,0,-1.3475,-0.035746,-0.019886,-1.01016,-0.15988,-0.25214,0.34804
-0,0,0,5,5,5,5,1.45293,0.450647,38.929,-0.00332634,-0.00670941,0.00216843,0,0,0,3.3075,-0.14,-1.4525,-0.035746,-0.019886,-1.01016,-0.16142,-0.25438,0.34594
-0,0,0,5,5,5,5,1.46209,0.446852,39.3009,-0.00544685,-0.00630526,0.00769757,0,0,0,3.3425,-0.0525,-1.2425,-0.037942,-0.019642,-1.00467,-0.16142,-0.25438,0.34594
-0,0,0,5,5,5,5,1.47084,0.442692,39.6687,-0.00537425,-0.00615253,0.00769422,0,0,0,3.2375,-0.2625,-1.26,-0.037942,-0.019642,-1.00467,-0.16142,-0.25438,0.34594
-0,0,0,5,5,5,5,1.48151,0.44822,40.0276,0.00169693,-0.0064549,0.00449201,0,0,0,3.4825,-0.1225,-1.1725,-0.030744,-0.02013,-1.00784,-0.16142,-0.25438,0.34594
-0,0,0,5,5,5,5,1.49209,0.45399,40.3825,0.00159623,-0.00627039,0.00448643,0,0,0,3.5875,0.1575,-1.26,-0.030744,-0.02013,-1.00784,-0.16142,-0.25438,0.34594
-0,0,0,5,5,5,5,1.49627,0.452092,40.7382,-0.00274414,-0.00289998,-0.00289212,0,0,0,3.5875,0.175,-1.3125,-0.035136,-0.016836,-1.01516,-0.16142,-0.25438,0.34594
-0,0,0,5,5,5,5,1.50035,0.450196,41.09,-0.00271104,-0.00282879,-0.00289372,0,0,0,3.5875,0.175,-1.3125,-0.035136,-0.016836,-1.01516,-0.16142,-0.25438,0.34594
-0,0,0,5,5,5,5,1.50845,0.45661,41.4331,0.00276536,-0.00476368,0.00312616,0,0,0,3.4475,0.1575,-1.225,-0.029524,-0.01891,-1.00918,-0.16142,-0.25438,0.34594
-0,0,0,5,5,5,5,1.51637,0.462834,41.7722,0.00265673,-0.00462565,0.00312164,0,0,0,3.4475,0.1575,-1.225,-0.029524,-0.01891,-1.00918,-0.16492,-0.25424,0.33628
-0,0,0,5,5,5,5,1.52449,0.465044,42.1089,-0.000418982,-0.00521672,-0.000447938,0,0,0,3.43,0.07,-1.2775,-0.032574,-0.019642,-1.01272,-0.16492,-0.25424,0.33628
-0,0,0,5,5,5,5,1.5324,0.467121,42.4418,-0.000455229,-0.00507875,-0.000451914,0,0,0,3.43,0.07,-1.2775,-0.032574,-0.019642,-1.01272,-0.16492,-0.25424,0.33628
-0,0,0,5,5,5,5,1.54057,0.466234,42.7723,-0.00238353,-0.00493614,0.00175746,0,0,0,3.815,-0.1575,-1.155,-0.034526,-0.019642,-1.01053,-0.16492,-0.25424,0.33628
-0,0,0,5,5,5,5,1.54853,0.465287,43.099,-0.002367,-0.00479719,0.00175385,0,0,0,3.815,-0.1575,-1.155,-0.034526,-0.019642,-1.01053,-0.16492,-0.25424,0.33628
-0,0,0,5,5,5,5,1.5555,0.465686,43.4214,-0.00152356,-0.0043092,0.0058078,0,0,0,3.5,0.07,-1.2425,-0.033672,-0.019276,-1.0065,-0.16492,-0.25424,0.33628
-0,0,0,5,5,5,5,1.56229,0.466007,43.7401,-0.00152916,-0.00419076,0.00580453,0,0,0,3.5,0.07,-1.2425,-0.033672,-0.019276,-1.0065,-0.16492,-0.25424,0.33628
-0,0,0,5,5,5,5,1.56757,0.464244,44.0565,-0.00271325,-0.00299948,0.00678585,0,0,0,3.815,0.105,-1.2075,-0.034892,-0.018178,-1.00552,-0.16492,-0.25424,0.33628
-0,0,0,5,5,5,5,1.57152,0.466452,44.3678,0.000528327,-0.00219785,0.00457057,0,0,0,3.535,0.21,-1.155,-0.031598,-0.017446,-1.00772,-0.16492,-0.25424,0.33628
-0,0,0,5,5,5,5,1.5755,0.468885,44.6723,0.00048586,-0.00212839,0.00456832,0,0,0,3.6225,0.4025,-1.1375,-0.031598,-0.017446,-1.00772,-0.16408,-0.25284,0.3444
-0,0,0,5,5,5,5,1.57947,0.467966,44.9746,-0.00180632,-0.00266992,0.00186168,0,0,0,3.43,0.0875,-1.085,-0.033916,-0.018056,-1.0104,-0.16408,-0.25284,0.3444
-0,0,0,5,5,5,5,1.58345,0.46694,45.2734,-0.00178842,-0.00260042,0.00185991,0,0,0,3.5,0.035,-1.085,-0.033916,-0.018056,-1.0104,-0.16408,-0.25284,0.3444
-0,0,0,5,5,5,5,1.58959,0.463871,45.569,-0.00380011,-0.0040809,0.00542288,0,0,0,3.465,-0.0875,-1.05,-0.03599,-0.019642,-1.00687,-0.16408,-0.25284,0.3444
-0,0,0,5,5,5,5,1.59558,0.460938,45.8611,-0.00374892,-0.00397644,0.00542039,0,0,0,3.465,-0.0175,-1.1375,-0.03599,-0.019642,-1.00687,-0.16408,-0.25284,0.3444
-0,0,0,5,5,5,5,1.60375,0.460591,46.148,-0.00192057,-0.00493301,0.00775248,0,0,0,3.5525,-0.1925,-1.12,-0.03416,-0.02074,-1.00455,-0.16408,-0.25284,0.3444
-0,0,0,5,5,5,5,1.61146,0.460564,46.4316,-0.00192011,-0.00479853,0.00774871,0,0,0,3.4125,0.035,-1.12,-0.03416,-0.02074,-1.00455,-0.16408,-0.25284,0.3444
-0,0,0,5,5,5,5,1.61733,0.454936,46.7145,-0.0058309,-0.00420764,0.00245982,0,0,0,3.4825,-0.035,-1.1725,-0.038186,-0.020252,-1.00979,-0.16408,-0.25284,0.3444
-0,0,0,5,5,5,5,1.62321,0.449568,46.9955,-0.00573723,-0.00410495,0.00245766,0,0,0,3.57,0.07,-1.2425,-0.038186,-0.020252,-1.00979,-0.16436,-0.25242,0.3374
-0,0,0,5,5,5,5,1.62756,0.446076,47.2726,-0.00385399,-0.00305207,-0.000863627,0,0,0,3.57,0.07,-1.3125,-0.036356,-0.019276,-1.01309,-0.16436,-0.25242,0.3374
-0,0,0,5,5,5,5,1.63174,0.442502,47.5466,-0.00379162,-0.00297915,-0.000865218,0,0,0,3.535,0,-1.2775,-0.036356,-0.019276,-1.01309,-0.16436,-0.25242,0.3374
-0,0,0,5,5,5,5,1.636,0.438326,47.8172,-0.00432617,-0.00314899,-0.000743832,0,0,0,3.4825,0,-1.4175,-0.036966,-0.01952,-1.01297,-0.16436,-0.25242,0.3374
-0,0,0,5,5,5,5,1.63982,0.433902,48.0849,-0.00424895,-0.00308234,-0.000745149,0,0,0,3.29,-0.175,-1.2775,-0.036966,-0.01952,-1.01297,-0.16436,-0.25242,0.3374
-0,0,0,5,5,5,5,1.64709,0.429117,48.3488,-0.00538029,-0.00515372,0.00195671,0,0,0,3.36,-0.1225,-1.2425,-0.038186,-0.021716,-1.01028,-0.16436,-0.25242,0.3374
-0,0,0,5,5,5,5,1.65459,0.424733,48.6095,-0.00530378,-0.00502291,0.00195351,0,0,0,3.5875,0.0875,-1.26,-0.038186,-0.021716,-1.01028,-0.16436,-0.25242,0.3374
-0,0,0,5,5,5,5,1.66263,0.42313,48.8657,-0.00321055,-0.00537123,-0.00407482,0,0,0,3.535,0.1225,-1.2775,-0.036112,-0.022204,-1.01626,-0.16436,-0.25242,0.3374
-0,0,0,5,5,5,5,1.67047,0.421512,49.1232,-0.00318231,-0.00523435,-0.0040786,0,0,0,3.535,0.1225,-1.2775,-0.036112,-0.022204,-1.01626,-0.1638,-0.25578,0.33544
-0,0,0,5,5,5,5,1.671,0.413272,49.3826,-0.00692604,-0.000950697,0.00366794,0,0,0,3.5525,0.1225,-1.0675,-0.040016,-0.017934,-1.00857,-0.1638,-0.25578,0.33544
-0,0,0,5,5,5,5,1.67154,0.405213,49.6389,-0.00678539,-0.000941328,0.00366867,0,0,0,3.5525,0.1225,-1.0675,-0.040016,-0.017934,-1.00857,-0.1638,-0.25578,0.33544
-0,0,0,5,5,5,5,1.67688,0.405467,49.8871,-0.000837033,-0.00329064,0.00120694,0,0,0,3.5,-0.07,-1.2775,-0.034038,-0.020374,-1.01101,-0.1638,-0.25578,0.33544
-0,0,0,5,5,5,5,1.68208,0.40567,50.1323,-0.000840568,-0.00319995,0.00120426,0,0,0,3.5,-0.07,-1.2775,-0.034038,-0.020374,-1.01101,-0.1638,-0.25578,0.33544
-0,0,0,5,5,5,5,1.68714,0.405217,50.3752,-0.00180455,-0.00311161,0.00931632,0,0,0,3.36,0.1925,-1.1025,-0.035014,-0.020374,-1.00296,-0.1638,-0.25578,0.33544
-0,0,0,5,5,5,5,1.69029,0.404643,50.6158,-0.00130858,-0.00183544,0.000585427,0,0,0,3.675,0.1925,-1.1025,-0.034526,-0.019154,-1.01162,-0.1638,-0.25578,0.33544
-0,0,0,5,5,5,5,1.69307,0.403853,50.8534,-0.0012948,-0.00178695,0.000584092,0,0,0,3.5175,0.07,-1.2425,-0.034526,-0.019154,-1.01162,-0.1638,-0.25578,0.33544
-0,0,0,5,5,5,5,1.69342,0.39882,51.0908,-0.00412262,-0.000559521,0.000461577,0,0,0,3.605,0,-1.3825,-0.037454,-0.017934,-1.01175,-0.16212,-0.25578,0.34048
-0,0,0,5,5,5,5,1.69099,0.394288,51.3262,-0.00319312,0.0011078,-0.000520209,0,0,0,3.5175,0.035,-1.33,-0.0366,-0.016226,-1.01272,-0.16212,-0.25578,0.34048
-0,0,0,5,5,5,5,1.68879,0.390083,51.5589,-0.00311973,0.00106948,-0.000518576,0,0,0,3.605,0.1575,-1.2775,-0.0366,-0.016226,-1.01272,-0.16212,-0.25578,0.34048
-0,0,0,5,5,5,5,1.69335,0.388644,51.7857,-0.00248719,-0.0028811,-0.00285678,0,0,0,3.7275,0.3325,-1.4,-0.03599,-0.020252,-1.01504,-0.16212,-0.25578,0.34048
-0,0,0,5,5,5,5,1.69757,0.387081,52.0098,-0.0024599,-0.00280744,-0.00285877,0,0,0,3.605,0.2625,-1.3825,-0.03599,-0.020252,-1.01504,-0.16212,-0.25578,0.34048
-0,0,0,5,5,5,5,1.70103,0.384069,52.232,-0.00337922,-0.00225861,0.00254953,0,0,0,3.6225,0.175,-1.3825,-0.036966,-0.019764,-1.00967,-0.16212,-0.25578,0.34048
-0,0,0,5,5,5,5,1.70378,0.381026,52.4518,-0.00332611,-0.00221065,0.00254846,0,0,0,3.2725,0.14,-1.155,-0.036966,-0.019764,-1.00967,-0.16212,-0.25578,0.34048
-0,0,0,5,5,5,5,1.70249,0.377142,52.6702,-0.00289387,8.72067e-05,0.00107419,0,0,0,3.15,-0.0875,-1.225,-0.0366,-0.017446,-1.01114,-0.16212,-0.25578,0.34048
-0,0,0,5,5,5,5,1.70175,0.373386,52.8886,-0.00282832,7.43491e-05,0.001075,0,0,0,3.43,-0.07,-1.1725,-0.0366,-0.017446,-1.01114,-0.15988,-0.2555,0.3409
-0,0,0,5,5,5,5,1.70345,0.36771,53.1043,-0.00503748,-0.00172777,-3.17769e-05,0,0,0,3.395,0,-1.155,-0.038918,-0.019276,-1.01223,-0.15988,-0.2555,0.3409
-0,0,0,5,5,5,5,1.70523,0.362374,53.3178,-0.00494436,-0.00169684,-3.21038e-05,0,0,0,3.4475,0.14,-0.9625,-0.038918,-0.019276,-1.01223,-0.15988,-0.2555,0.3409
-0,0,0,5,5,5,5,1.70621,0.358668,53.5283,-0.00342185,-0.0008248,0.00451689,0,0,0,3.5175,0.14,-1.015,-0.037454,-0.018422,-1.00772,-0.15988,-0.2555,0.3409
-0,0,0,5,5,5,5,1.70686,0.354952,53.7362,-0.003357,-0.0008134,0.00451695,0,0,0,3.3425,0.0875,-1.12,-0.037454,-0.018422,-1.00772,-0.15988,-0.2555,0.3409
-0,0,0,5,5,5,5,1.71152,0.353637,53.9393,-0.00211918,-0.00317458,0.00119506,0,0,0,3.3425,0.0525,-1.155,-0.036234,-0.020862,-1.01101,-0.15988,-0.2555,0.3409
-0,0,0,5,5,5,5,1.71628,0.352349,54.1397,-0.00209671,-0.00309163,0.00119271,0,0,0,3.465,0.07,-1.2775,-0.036234,-0.020862,-1.01101,-0.15988,-0.2555,0.3409
-0,0,0,5,5,5,5,1.72103,0.346747,54.3394,-0.00576499,-0.00325293,0.00303505,0,0,0,3.6575,0.175,-1.26,-0.040016,-0.021106,-1.00918,-0.15988,-0.2555,0.3409
-0,0,0,5,5,5,5,1.72554,0.340902,54.5298,-0.00566298,-0.00317432,0.0030333,0,0,0,3.605,0,-1.2075,-0.040016,-0.021106,-1.00918,-0.1645,-0.25326,0.33754
-0,0,0,5,5,5,5,1.72714,0.344089,54.7154,0.00266392,-0.000337525,0.00352392,0,0,0,3.6575,-0.175,-1.3125,-0.031598,-0.0183,-1.0087,-0.1645,-0.25326,0.33754
-0,0,0,5,5,5,5,1.72837,0.347036,54.8991,0.00261249,-0.000316023,0.00352296,0,0,0,3.4825,-0.2625,-1.1375,-0.031598,-0.0183,-1.0087,-0.1645,-0.25326,0.33754
-0,0,0,5,5,5,5,1.73432,0.345336,55.0807,-0.00246025,-0.00363169,0.00388884,0,0,0,3.5875,-0.035,-1.155,-0.036722,-0.021716,-1.00833,-0.1645,-0.25326,0.33754
-0,0,0,5,5,5,5,1.74021,0.343537,55.2602,-0.00242884,-0.00352897,0.00388592,0,0,0,3.64,-0.0875,-1.1025,-0.036722,-0.021716,-1.00833,-0.1645,-0.25326,0.33754
-0,0,0,5,5,5,5,1.74264,0.34189,55.4382,-0.0016712,-0.00128825,0.00658966,0,0,0,3.64,-0.07,-1.26,-0.03599,-0.01952,-1.00565,-0.1645,-0.25326,0.33754
-0,0,0,5,5,5,5,1.74501,0.340262,55.6142,-0.00164278,-0.0012469,0.00658857,0,0,0,3.64,-0.07,-1.26,-0.03599,-0.01952,-1.00565,-0.1645,-0.25326,0.33754
-0,0,0,5,5,5,5,1.74724,0.340232,55.7876,-0.000305912,-0.00108596,-0.00042067,0,0,0,3.7625,0,-1.225,-0.034648,-0.019398,-1.0126,-0.1645,-0.25326,0.33754
-0,0,0,5,5,5,5,1.74941,0.34019,55.9699,-0.000305177,-0.00104815,-0.000421819,0,0,0,3.7625,0,-1.225,-0.034648,-0.019398,-1.0126,-0.15694,-0.25452,0.3367
-0,0,0,5,5,5,5,1.75195,0.339131,56.1501,-0.00101561,-0.0014923,0.00129821,0,0,0,3.5875,-0.1925,-1.1725,-0.03538,-0.019886,-1.01089,-0.15694,-0.25452,0.3367
-0,0,0,5,5,5,5,1.75403,0.33857,56.3275,-0.000276908,-0.00145605,-0.00226834,0,0,0,3.395,-0.385,-1.295,-0.034648,-0.019886,-1.01443,-0.15694,-0.25452,0.3367
-0,0,0,5,5,5,5,1.75599,0.338305,56.5029,-0.000272274,-0.00142186,-0.00226936,0,0,0,3.36,-0.21,-1.295,-0.034648,-0.019886,-1.01443,-0.15694,-0.25452,0.3367
-0,0,0,5,5,5,5,1.75898,0.339183,56.6755,0.000441305,-0.00161389,0.00449111,0,0,0,3.465,-0.175,-1.26,-0.033916,-0.02013,-1.00772,-0.15694,-0.25452,0.3367
-0,0,0,5,5,5,5,1.76223,0.340716,56.8457,0.00041456,-0.00155719,0.00448921,0,0,0,3.6575,0.2275,-1.4175,-0.033916,-0.02013,-1.00772,-0.15694,-0.25452,0.3367
-0,0,0,5,5,5,5,1.76296,0.340555,57.0154,-0.00031155,-0.000445405,-0.00190449,0,0,0,3.57,0.0875,-1.26,-0.034648,-0.019032,-1.01406,-0.15694,-0.25452,0.3367
-0,0,0,5,5,5,5,1.76366,0.340044,57.1827,-0.000302628,-0.000433145,-0.00190481,0,0,0,3.57,-0.1225,-1.435,-0.034648,-0.019032,-1.01406,-0.15694,-0.25452,0.3367
-0,0,0,5,5,5,5,1.76355,0.334835,57.3457,-0.00397777,-0.000312816,0.00153834,0,0,0,3.5525,-0.2275,-1.4,-0.03843,-0.01891,-1.01065,-0.15932,-0.25354,0.33768
-0,0,0,5,5,5,5,1.76432,0.331075,57.5059,-0.00281878,-0.000421655,0.00805458,0,0,0,3.605,-0.2975,-1.4,-0.037332,-0.019032,-1.00418,-0.15932,-0.25354,0.33768
-0,0,0,5,5,5,5,1.76507,0.327775,57.6643,-0.00276119,-0.000408507,0.00805451,0,0,0,3.605,-0.07,-1.33,-0.037332,-0.019032,-1.00418,-0.15932,-0.25354,0.33768
-0,0,0,5,5,5,5,1.77207,0.327085,57.8177,-0.00165577,-0.00395012,0.00952618,0,0,0,3.57,-0.1225,-1.33,-0.036234,-0.022692,-1.00272,-0.15932,-0.25354,0.33768
-0,0,0,5,5,5,5,1.77888,0.326297,57.9694,-0.00164202,-0.00383133,0.00952258,0,0,0,3.57,-0.1575,-1.26,-0.036234,-0.022692,-1.00272,-0.15932,-0.25354,0.33768
-0,0,0,5,5,5,5,1.77669,0.319642,58.1243,-0.00480598,0.000771301,-0.00461466,0,0,0,3.675,-0.21,-1.19,-0.039528,-0.018056,-1.01675,-0.15932,-0.25354,0.33768
-0,0,0,5,5,5,5,1.77449,0.313512,58.277,-0.00469899,0.000732915,-0.00461287,0,0,0,3.6225,0,-1.365,-0.039528,-0.018056,-1.01675,-0.15932,-0.25354,0.33768
-0,0,0,5,5,5,5,1.77145,0.30893,58.4278,-0.00328269,0.00165685,0.00178253,0,0,0,3.675,0.035,-1.3825,-0.038186,-0.01708,-1.0104,-0.15932,-0.25354,0.33768
-0,0,0,5,5,5,5,1.76822,0.304153,58.5701,-0.00319931,0.0016005,0.00178471,0,0,0,3.5175,-0.14,-1.1725,-0.038186,-0.01708,-1.0104,-0.16296,-0.25116,0.33992
-0,0,0,5,5,5,5,1.77255,0.301895,58.7074,-0.00255247,-0.00272042,0.000184253,0,0,0,3.6575,-0.0175,-1.1725,-0.037576,-0.021472,-1.01199,-0.16296,-0.25116,0.33992
-0,0,0,5,5,5,5,1.77677,0.299656,58.843,-0.0025134,-0.00264677,0.000182176,0,0,0,3.6575,-0.0175,-1.1725,-0.037576,-0.021472,-1.01199,-0.16296,-0.25116,0.33992
-0,0,0,5,5,5,5,1.77936,0.301924,58.9761,0.00145606,-0.00113608,0.00300838,0,0,0,3.605,0.0525,-1.2425,-0.03355,-0.020008,-1.00918,-0.16296,-0.25116,0.33992
-0,0,0,5,5,5,5,1.78187,0.304126,59.1076,0.00141762,-0.00109233,0.00300682,0,0,0,3.605,0.0525,-1.2425,-0.03355,-0.020008,-1.00918,-0.16296,-0.25116,0.33992
-0,0,0,5,5,5,5,1.78011,0.300124,59.241,-0.00337196,0.000830971,0.000918017,0,0,0,3.6575,0.2625,-1.19,-0.03843,-0.018056,-1.01126,-0.16296,-0.25116,0.33992
-0,0,0,5,5,5,5,1.77841,0.296219,59.3729,-0.0033038,0.000801341,0.000919293,0,0,0,3.6575,0.2625,-1.19,-0.03843,-0.018056,-1.01126,-0.16296,-0.25116,0.33992
-0,0,0,5,5,5,5,1.77652,0.293501,59.5025,-0.00179854,0.00101254,0.00719094,0,0,0,3.395,-0.1225,-1.19,-0.036966,-0.017812,-1.00504,-0.16296,-0.25116,0.33992
-0,0,0,5,5,5,5,1.77589,0.29223,59.6341,-0.000804472,0.000757437,0.0100192,0,0,0,3.6575,-0.07,-1.1725,-0.03599,-0.018056,-1.00223,-0.16198,-0.2534,0.3318
-0,0,0,5,5,5,5,1.77497,0.291861,59.7638,-6.91233e-05,0.000741349,0.00202808,0,0,0,3.6225,0,-1.2425,-0.035258,-0.018056,-1.01016,-0.16198,-0.2534,0.3318
-0,0,0,5,5,5,5,1.77405,0.291532,59.8922,-6.33726e-05,0.000725209,0.00202861,0,0,0,3.605,0.0175,-1.155,-0.035258,-0.018056,-1.01016,-0.16198,-0.2534,0.3318
-0,0,0,5,5,5,5,1.77571,0.287274,60.0189,-0.00387661,-0.00144398,0.00202808,0,0,0,3.465,0,-1.19,-0.039162,-0.020252,-1.01016,-0.16198,-0.2534,0.3318
-0,0,0,5,5,5,5,1.77725,0.282861,60.144,-0.00379958,-0.00141711,0.00202763,0,0,0,3.4125,-0.14,-1.2425,-0.039162,-0.020252,-1.01016,-0.16198,-0.2534,0.3318
-0,0,0,5,5,5,5,1.77915,0.28949,60.2644,0.0055606,-0.000284943,0.00780461,0,0,0,3.3775,-0.1925,-1.19,-0.029646,-0.019154,-1.00443,-0.16198,-0.2534,0.3318
-0,0,0,5,5,5,5,1.78115,0.296236,60.3833,0.00544286,-0.000249986,0.00780292,0,0,0,3.4825,-0.035,-1.2075,-0.029646,-0.019154,-1.00443,-0.16198,-0.2534,0.3318
-0,0,0,5,5,5,5,1.77877,0.293072,60.5053,-0.00227699,0.00129613,0.0030095,0,0,0,3.57,0.035,-1.12,-0.037454,-0.017568,-1.00918,-0.16198,-0.2534,0.3318
-0,0,0,5,5,5,5,1.77629,0.290027,60.6282,-0.00222385,0.00125294,0.00301112,0,0,0,3.465,0.0525,-1.12,-0.037454,-0.017568,-1.00918,-0.15946,-0.25312,0.33712
-0,0,0,5,5,5,5,1.77761,0.290491,60.747,0.000319249,-0.000678203,0.00399395,0,0,0,3.43,-0.0875,-1.2425,-0.034892,-0.01952,-1.00821,-0.15946,-0.25312,0.33712
-0,0,0,5,5,5,5,1.77888,0.291118,60.8642,0.000308309,-0.000655999,0.00399321,0,0,0,3.43,0.0175,-1.2775,-0.034892,-0.01952,-1.00821,-0.15946,-0.25312,0.33712
-0,0,0,5,5,5,5,1.77666,0.289374,60.9821,-0.00124057,0.00113726,0.00276508,0,0,0,3.395,0.0875,-1.225,-0.036478,-0.01769,-1.00943,-0.15946,-0.25312,0.33712
-0,0,0,5,5,5,5,1.77439,0.287624,61.0985,-0.00121002,0.00109763,0.00276646,0,0,0,3.325,0.0525,-1.2775,-0.036478,-0.01769,-1.00943,-0.15946,-0.25312,0.33712
-0,0,0,5,5,5,5,1.77576,0.284915,61.2125,-0.00286355,-0.00119896,0.00583967,0,0,0,3.29,0.1925,-1.2425,-0.038186,-0.020008,-1.00638,-0.15946,-0.25312,0.33712
-0,0,0,5,5,5,5,1.77734,0.282257,61.325,-0.00281716,-0.0011713,0.00583904,0,0,0,3.43,0.1925,-1.2775,-0.038186,-0.020008,-1.00638,-0.15946,-0.25312,0.33712
-0,0,0,5,5,5,5,1.78016,0.283221,61.4348,8.16664e-05,-0.00185489,-0.000309994,0,0,0,3.325,0.1925,-1.19,-0.035258,-0.02074,-1.01248,-0.15946,-0.25312,0.33712
-0,0,0,5,5,5,5,1.78332,0.283838,61.5385,7.08986e-05,-0.00179982,-0.000311761,0,0,0,3.57,0.0175,-1.1375,-0.035258,-0.02074,-1.01248,-0.15974,-0.24822,0.34314
-0,0,0,5,5,5,5,1.78471,0.285762,61.6414,0.00149516,-0.00055425,-0.00227986,0,0,0,3.64,0.035,-1.1025,-0.033794,-0.01952,-1.01443,-0.15974,-0.24822,0.34314
-0,0,0,5,5,5,5,1.78565,0.287351,61.7427,0.00146743,-0.000537872,-0.00228051,0,0,0,3.4125,-0.14,-1.33,-0.033794,-0.01952,-1.01443,-0.15974,-0.24822,0.34314
-0,0,0,5,5,5,5,1.78328,0.284221,61.8454,-0.00212252,0.00149688,0.00755693,0,0,0,3.605,-0.0875,-1.365,-0.037454,-0.017446,-1.00467,-0.15974,-0.24822,0.34314
-0,0,0,5,5,5,5,1.78104,0.281583,61.947,-0.00207649,0.00145795,0.00755837,0,0,0,3.64,0.1575,-1.26,-0.037454,-0.017446,-1.00467,-0.15974,-0.24822,0.34314
-0,0,0,5,5,5,5,1.78381,0.286118,62.0435,0.00331123,-0.000936307,0.00116316,0,0,0,3.7275,0.175,-1.365,-0.031964,-0.019886,-1.01101,-0.15974,-0.24822,0.34314
-0,0,0,5,5,5,5,1.78611,0.290116,62.1392,0.00324146,-0.000896186,0.00116155,0,0,0,3.5175,-0.07,-1.2075,-0.031964,-0.019886,-1.01101,-0.15974,-0.24822,0.34314
-0,0,0,5,5,5,5,1.78488,0.286584,62.2367,-0.00277119,0.000181374,0.00239202,0,0,0,3.2375,-0.07,-1.2075,-0.038064,-0.018788,-1.00979,-0.15974,-0.24822,0.34314
-0,0,0,5,5,5,5,1.7837,0.28314,62.3382,-0.00271108,0.000160859,0.00239296,0,0,0,3.2375,-0.07,-1.2075,-0.038064,-0.018788,-1.00979,-0.15512,-0.2464,0.34104
-0,0,0,5,5,5,5,1.77992,0.277763,62.4396,-0.00395358,0.00168261,0.00288726,0,0,0,3.3425,-0.07,-1.4875,-0.039406,-0.017202,-1.00931,-0.15512,-0.2464,0.34104
-0,0,0,5,5,5,5,1.77627,0.272519,62.5399,-0.00386205,0.0016189,0.00288968,0,0,0,3.3425,-0.07,-1.4875,-0.039406,-0.017202,-1.00931,-0.15512,-0.2464,0.34104
-0,0,0,5,5,5,5,1.77371,0.276059,62.6368,0.00372976,0.00230699,0.000800645,0,0,0,3.7625,-0.0875,-1.33,-0.03172,-0.01647,-1.01138,-0.15512,-0.2464,0.34104
-0,0,0,5,5,5,5,1.77121,0.279541,62.7326,0.00366899,0.00226338,0.0008017,0,0,0,3.7625,-0.0875,-1.33,-0.03172,-0.01647,-1.01138,-0.15512,-0.2464,0.34104
-0,0,0,5,5,5,5,1.77218,0.277397,62.8272,-0.00188194,-0.0010171,-0.0023953,0,0,0,3.3775,-0.07,-1.2775,-0.037332,-0.019764,-1.01455,-0.15512,-0.2464,0.34104
-0,0,0,5,5,5,5,1.77313,0.275292,62.9206,-0.0018452,-0.00100051,-0.00239564,0,0,0,3.3775,-0.07,-1.2775,-0.037332,-0.019764,-1.01455,-0.15512,-0.2464,0.34104
-0,0,0,5,5,5,5,1.77539,0.274272,63.0123,-0.00134145,-0.0012054,0.0038736,0,0,0,3.6575,0.1225,-1.295,-0.036844,-0.020008,-1.00833,-0.15512,-0.2464,0.34104
-0,0,0,5,5,5,5,1.77757,0.273257,63.0955,-0.00132374,-0.00116723,0.0038725,0,0,0,3.6575,0.1225,-1.295,-0.036844,-0.020008,-1.00833,-0.16324,-0.25102,0.34034
-0,0,0,5,5,5,5,1.78214,0.276858,63.1756,0.00237947,-0.00194246,0.00448447,0,0,0,3.78,0.0875,-1.295,-0.033062,-0.020862,-1.00772,-0.16324,-0.25102,0.34034
-0,0,0,5,5,5,5,1.78656,0.28036,63.2547,0.00231835,-0.0018653,0.00448176,0,0,0,3.78,0.0875,-1.295,-0.033062,-0.020862,-1.00772,-0.16324,-0.25102,0.34034
-0,0,0,5,5,5,5,1.78646,0.282561,63.3345,0.00203697,0.000575483,0.00349804,0,0,0,3.6225,-0.035,-1.4525,-0.033306,-0.018422,-1.0087,-0.16324,-0.25102,0.34034
-0,0,0,5,5,5,5,1.7877,0.28511,63.4126,0.00211397,-0.000379913,0.00177587,0,0,0,3.5175,-0.035,-1.47,-0.033184,-0.019398,-1.0104,-0.16324,-0.25102,0.34034
-0,0,0,5,5,5,5,1.78903,0.287766,63.4901,0.00206761,-0.000356855,0.00177492,0,0,0,3.5875,0.07,-1.2425,-0.033184,-0.019398,-1.0104,-0.16324,-0.25102,0.34034
-0,0,0,5,5,5,5,1.78487,0.287864,63.5693,0.000729559,0.00274592,0.0031296,0,0,0,3.57,0.035,-1.295,-0.034526,-0.016226,-1.00906,-0.16324,-0.25102,0.34034
-0,0,0,5,5,5,5,1.78027,0.288012,63.6476,0.000726978,0.00266567,0.00313209,0,0,0,3.255,0.0525,-1.2775,-0.034526,-0.016226,-1.00906,-0.16324,-0.25102,0.34034
-0,0,0,5,5,5,5,1.7813,0.29237,63.7217,0.00368806,-0.000369445,-0.000311416,0,0,0,3.29,-0.035,-1.33,-0.031476,-0.019276,-1.01248,-0.16324,-0.25102,0.34034
-0,0,0,5,5,5,5,1.78245,0.296475,63.7975,0.0036164,-0.000349453,-0.000312406,0,0,0,3.3775,-0.1225,-1.2075,-0.031476,-0.019276,-1.01248,-0.1624,-0.25242,0.3367
-0,0,0,5,5,5,5,1.7835,0.297506,63.8729,0.000804241,-0.000697482,0.00140821,0,0,0,3.29,-0.0525,-1.3125,-0.034282,-0.019642,-1.01077,-0.1624,-0.25242,0.3367
-0,0,0,5,5,5,5,1.78543,0.299198,63.9474,0.000774717,-0.000663927,0.00140701,0,0,0,3.7975,0.35,-1.3475,-0.034282,-0.019642,-1.01077,-0.1624,-0.25242,0.3367
-0,0,0,5,5,5,5,1.79016,0.295263,64.021,-0.00462347,-0.00314605,0.00251133,0,0,0,3.6575,0.3675,-1.33,-0.039772,-0.022204,-1.00967,-0.1624,-0.25242,0.3367
-0,0,0,5,5,5,5,1.79449,0.290781,64.094,-0.00454524,-0.00307052,0.00250936,0,0,0,3.5,0.0175,-1.2075,-0.039772,-0.022204,-1.00967,-0.1624,-0.25242,0.3367
-0,0,0,5,5,5,5,1.79531,0.294916,64.1653,0.00352214,0.000119211,0.00509046,0,0,0,3.4825,-0.0175,-1.2425,-0.031598,-0.019032,-1.00711,-0.1624,-0.25242,0.3367
-0,0,0,5,5,5,5,1.7957,0.29896,64.2358,0.00345155,0.000125901,0.00508988,0,0,0,3.255,-0.0175,-1.225,-0.031598,-0.019032,-1.00711,-0.1624,-0.25242,0.3367
-0,0,0,5,5,5,5,1.79363,0.297026,64.3079,-0.00161709,0.000944717,0.00287812,0,0,0,3.3425,0.1575,-1.2775,-0.036722,-0.018178,-1.00931,-0.1624,-0.25242,0.3367
-0,0,0,5,5,5,5,1.79166,0.294694,64.3811,-0.00157639,0.000910424,0.0028794,0,0,0,3.36,-0.105,-1.2425,-0.036722,-0.018178,-1.00931,-0.16114,-0.25326,0.33936
-0,0,0,5,5,5,5,1.79133,0.296673,64.452,0.00191215,0.000416107,0.00189582,0,0,0,3.4125,-0.07,-1.225,-0.033184,-0.018666,-1.01028,-0.16114,-0.25326,0.33936
-0,0,0,5,5,5,5,1.79103,0.298664,64.5223,0.0018774,0.000410913,0.0018958,0,0,0,3.43,-0.035,-1.05,-0.033184,-0.018666,-1.01028,-0.16114,-0.25326,0.33936
-0,0,0,5,5,5,5,1.79035,0.297298,64.5925,-0.00125738,0.000521154,0.00853551,0,0,0,3.5,0.1225,-1.19,-0.036356,-0.018544,-1.00369,-0.16114,-0.25326,0.33936
-0,0,0,5,5,5,5,1.7897,0.295963,64.662,-0.00123409,0.00050969,0.00853599,0,0,0,3.5,0.1225,-1.19,-0.036356,-0.018544,-1.00369,-0.16114,-0.25326,0.33936
-0,0,0,5,5,5,5,1.78691,0.296439,64.7307,0.000701386,0.00131605,0.00251299,0,0,0,3.0275,0.035,-1.12,-0.034404,-0.01769,-1.00967,-0.16114,-0.25326,0.33936
-0,0,0,5,5,5,5,1.78421,0.296918,64.7987,0.000693013,0.00126886,0.00251441,0,0,0,3.0275,0.035,-1.12,-0.034404,-0.01769,-1.00967,-0.16114,-0.25326,0.33936
-0,0,0,5,5,5,5,1.78446,0.297243,64.865,0.000201412,5.19613e-05,0.00521912,0,0,0,3.5,0.0525,-1.1375,-0.034892,-0.01891,-1.00699,-0.16114,-0.25326,0.33936
-0,0,0,5,5,5,5,1.7847,0.297559,64.9267,0.000195891,5.61798e-05,0.00521896,0,0,0,3.5,0.0525,-1.1375,-0.034892,-0.01891,-1.00699,-0.16142,-0.24822,0.33894
-0,0,0,5,5,5,5,1.78352,0.295173,64.9888,-0.0020707,0.000768295,0.0066952,0,0,0,3.605,0.14,-1.19,-0.03721,-0.018178,-1.00552,-0.16142,-0.24822,0.33894
-0,0,0,5,5,5,5,1.78238,0.292842,65.0502,-0.00203002,0.000748384,0.00669602,0,0,0,3.605,0.14,-1.19,-0.03721,-0.018178,-1.00552,-0.16142,-0.24822,0.33894
-0,0,0,5,5,5,5,1.78302,0.290814,65.1099,-0.00175165,-0.000339534,0.00411394,0,0,0,3.6225,-0.035,-1.2775,-0.036966,-0.019276,-1.00809,-0.16142,-0.24822,0.33894
-0,0,0,5,5,5,5,1.78365,0.288824,65.1689,-0.00171692,-0.000328504,0.00411377,0,0,0,3.6225,-0.035,-1.2775,-0.036966,-0.019276,-1.00809,-0.16142,-0.24822,0.33894
-0,0,0,5,5,5,5,1.7868,0.290046,65.2253,0.000569983,-0.00186116,0.000546442,0,0,0,3.43,0.0525,-1.26,-0.034648,-0.020862,-1.01162,-0.16142,-0.24822,0.33894
-0,0,0,5,5,5,5,1.78986,0.291228,65.2811,0.00054936,-0.00180781,0.000544671,0,0,0,3.43,0.0525,-1.26,-0.034648,-0.020862,-1.01162,-0.16142,-0.24822,0.33894
-0,0,0,5,5,5,5,1.79162,0.289679,65.3372,-0.00161036,-0.00104435,0.00583063,0,0,0,3.5175,0.0175,-1.3125,-0.036844,-0.02013,-1.00638,-0.16142,-0.24822,0.33894
-0,0,0,5,5,5,5,1.79334,0.288154,65.3913,-0.00158373,-0.00101442,0.00582983,0,0,0,3.5175,0.0175,-1.3125,-0.036844,-0.02013,-1.00638,-0.16422,-0.25158,0.33684
-0,0,0,5,5,5,5,1.79278,0.290282,65.445,0.00165924,0.000563433,-0.00179286,0,0,0,3.5525,0.245,-1.365,-0.03355,-0.018544,-1.01394,-0.16422,-0.25158,0.33684
-0,0,0,5,5,5,5,1.78946,0.287611,65.4999,-0.00218168,0.00172681,0.00411072,0,0,0,3.4125,0.21,-1.4175,-0.037454,-0.017324,-1.00809,-0.16422,-0.25158,0.33684
-0,0,0,5,5,5,5,1.78624,0.285103,65.5541,-0.00213791,0.00167072,0.00411269,0,0,0,3.4125,0.2625,-1.47,-0.037454,-0.017324,-1.00809,-0.16422,-0.25158,0.33684
-0,0,0,5,5,5,5,1.78497,0.285283,65.6067,0.000288665,0.00103786,0.00251503,0,0,0,3.64,0.0875,-1.26,-0.035014,-0.017934,-1.00967,-0.16422,-0.25158,0.33684
-0,0,0,5,5,5,5,1.78379,0.285498,65.6587,0.000284906,0.00101734,0.00251565,0,0,0,3.675,0.105,-1.3125,-0.035014,-0.017934,-1.00967,-0.16422,-0.25158,0.33684
-0,0,0,5,5,5,5,1.78654,0.287302,65.7081,0.000860841,-0.00125502,0.00571066,0,0,0,3.57,0.245,-1.26,-0.034404,-0.020252,-1.0065,-0.16422,-0.25158,0.33684
-0,0,0,5,5,5,5,1.78912,0.288877,65.757,0.000833358,-0.00121009,0.00570912,0,0,0,3.5175,0.14,-1.2425,-0.034404,-0.020252,-1.0065,-0.16422,-0.25158,0.33684
-0,0,0,5,5,5,5,1.79097,0.285365,65.8041,-0.00360031,-0.00154418,-7.01617e-05,0,0,0,3.535,0.1925,-1.225,-0.038918,-0.020618,-1.01223,-0.16702,-0.25438,0.34874
-0,0,0,5,5,5,5,1.79077,0.281689,65.8515,-0.00317171,-8.20834e-05,0.00312692,0,0,0,3.605,0.0175,-1.2425,-0.038552,-0.019154,-1.00906,-0.16702,-0.25438,0.34874
-0,0,0,5,5,5,5,1.79053,0.277787,65.8984,-0.0031036,-8.62597e-05,0.00312739,0,0,0,3.57,-0.1575,-1.1725,-0.038552,-0.019154,-1.00906,-0.16702,-0.25438,0.34874
-0,0,0,5,5,5,5,1.7905,0.275435,65.9445,-0.00184769,-8.68902e-05,0.00226697,0,0,0,3.5525,-0.105,-1.155,-0.037332,-0.019154,-1.00992,-0.16702,-0.25438,0.34874
-0,0,0,5,5,5,5,1.79013,0.273278,65.99,-0.00181004,-9.33362e-05,0.00226735,0,0,0,3.36,-0.0175,-1.12,-0.037332,-0.019154,-1.00992,-0.16702,-0.25438,0.34874
-0,0,0,5,5,5,5,1.7938,0.272304,66.0332,-0.00142858,-0.00247189,-0.00203777,0,0,0,3.4825,0.07,-1.155,-0.036966,-0.021594,-1.01419,-0.16702,-0.25438,0.34874
-0,0,0,5,5,5,5,1.79749,0.271389,66.0759,-0.00141262,-0.00240747,-0.00203971,0,0,0,3.5525,0.105,-1.1025,-0.036966,-0.021594,-1.01419,-0.16702,-0.25438,0.34874
-0,0,0,5,5,5,5,1.80128,0.273107,66.1173,0.000987114,-0.00197487,0.00533497,0,0,0,3.4825,0.0175,-1.12,-0.034526,-0.021228,-1.00687,-0.16702,-0.25438,0.34874
-0,0,0,5,5,5,5,1.80485,0.275081,66.1559,0.000952666,-0.00191272,0.00533285,0,0,0,3.4125,0.1925,-1.2425,-0.034526,-0.021228,-1.00687,-0.16674,-0.24976,0.33936
-0,0,0,5,5,5,5,1.80336,0.275266,66.1963,0.000220511,0.000748188,-0.00388749,0,0,0,3.4475,0.14,-1.2775,-0.035258,-0.018544,-1.01602,-0.16674,-0.24976,0.33936
-0,0,0,5,5,5,5,1.80195,0.275338,66.2361,0.00021925,0.000723566,-0.00388672,0,0,0,3.465,0.07,-1.33,-0.035258,-0.018544,-1.01602,-0.16674,-0.24976,0.33936
-0,0,0,5,5,5,5,1.8006,0.275132,66.2756,0.000101373,0.00118844,0.0101302,0,0,0,3.535,-0.0525,-1.3125,-0.03538,-0.018056,-1.00211,-0.16674,-0.24976,0.33936
-0,0,0,5,5,5,5,1.79903,0.274904,66.3146,0.000105353,0.00116114,0.010131,0,0,0,3.395,-0.07,-1.2775,-0.03538,-0.018056,-1.00211,-0.16674,-0.24976,0.33936
-0,0,0,5,5,5,5,1.79817,0.27356,66.3531,-0.00096457,0.000535436,0.0105005,0,0,0,3.325,-0.0875,-1.26,-0.036478,-0.018666,-1.00174,-0.16674,-0.24976,0.33936
-0,0,0,5,5,5,5,1.79721,0.272133,66.3909,-0.00093966,0.000518687,0.0105011,0,0,0,3.255,-0.1575,-1.3475,-0.036478,-0.018666,-1.00174,-0.16674,-0.24976,0.33936
-0,0,0,5,5,5,5,1.79848,0.272508,66.4273,0.000390135,-0.0008026,0.00336939,0,0,0,3.3075,-0.1575,-1.26,-0.035136,-0.020008,-1.00882,-0.16674,-0.24976,0.33936
-0,0,0,5,5,5,5,1.79977,0.273341,66.4722,0.000375595,-0.000780099,0.00336861,0,0,0,3.3425,0.1225,-1.1725,-0.035136,-0.020008,-1.00882,-0.16212,-0.25438,0.34622
-0,0,0,5,5,5,5,1.80074,0.274108,66.5169,0.000605187,-0.000274566,0.00631877,0,0,0,3.5175,-0.0175,-1.1725,-0.034892,-0.01952,-1.00589,-0.16212,-0.25438,0.34622
-0,0,0,5,5,5,5,1.80225,0.274882,66.561,0.00059167,-0.000248263,0.00631788,0,0,0,3.8325,0,-1.1375,-0.034892,-0.01952,-1.00589,-0.16212,-0.25438,0.34622
-0,0,0,5,5,5,5,1.80722,0.275214,66.6034,-0.000386014,-0.00235975,0.00766755,0,0,0,3.8675,0.07,-1.1025,-0.035868,-0.021716,-1.00455,-0.16212,-0.25438,0.34622
-0,0,0,5,5,5,5,1.81178,0.274959,66.6449,-0.000381552,-0.00228037,0.00766507,0,0,0,3.71,-0.2625,-1.26,-0.035868,-0.021716,-1.00455,-0.16212,-0.25438,0.34622
-0,0,0,5,5,5,5,1.81738,0.278436,66.6846,0.0025949,-0.0026712,0.00876822,0,0,0,3.535,-0.175,-1.295,-0.032818,-0.022204,-1.00345,-0.16212,-0.25438,0.34622
-0,0,0,5,5,5,5,1.82231,0.282263,66.7239,0.00252811,-0.00258521,0.00876516,0,0,0,3.255,0.0875,-1.225,-0.032818,-0.022204,-1.00345,-0.16212,-0.25438,0.34622
-0,0,0,5,5,5,5,1.82322,0.285935,66.7646,0.00294996,-0.00012665,0.00913317,0,0,0,3.255,0.0875,-1.1025,-0.03233,-0.019764,-1.00308,-0.16212,-0.25438,0.34622
-0,0,0,5,5,5,5,1.82434,0.289686,66.7959,0.0028845,-0.000107136,0.00913222,0,0,0,3.3775,0.175,-1.0675,-0.03233,-0.019764,-1.00308,-0.1673,-0.25116,0.34692
-0,0,0,5,5,5,5,1.81969,0.28603,66.8305,-0.00264004,0.00225417,0.00151232,0,0,0,3.2725,0.0175,-1.05,-0.037942,-0.017324,-1.01065,-0.1673,-0.25116,0.34692
-0,0,0,5,5,5,5,1.81533,0.282272,66.8643,-0.00257445,0.00217815,0.00151506,0,0,0,3.36,-0.105,-1.2775,-0.037942,-0.017324,-1.01065,-0.1673,-0.25116,0.34692
-0,0,0,5,5,5,5,1.81291,0.28011,66.8969,-0.00156483,0.00140323,-0.000204699,0,0,0,3.64,0.035,-1.33,-0.036966,-0.018056,-1.01236,-0.1673,-0.25116,0.34692
-0,0,0,5,5,5,5,1.8111,0.278006,66.9289,-0.0015281,0.00137164,-0.00020352,0,0,0,3.9375,0.035,-1.4,-0.036966,-0.018056,-1.01236,-0.1673,-0.25116,0.34692
-0,0,0,5,5,5,5,1.81084,0.28042,66.959,0.00219582,0.000756512,0.00262423,0,0,0,3.6925,0.0525,-1.3125,-0.033184,-0.018666,-1.00955,-0.1673,-0.25116,0.34692
-0,0,0,5,5,5,5,1.81046,0.282546,66.9889,0.00215872,0.000749816,0.00262426,0,0,0,3.6225,-0.0875,-1.26,-0.033184,-0.018666,-1.00955,-0.1673,-0.25116,0.34692
-0,0,0,5,5,5,5,1.80642,0.284208,67.0199,0.00237268,0.00299971,0.00127391,0,0,0,3.675,-0.1575,-1.365,-0.03294,-0.016348,-1.01089,-0.1673,-0.25116,0.34692
-0,0,0,5,5,5,5,1.8023,0.286,67.0506,0.00234139,0.00292782,0.00127602,0,0,0,3.57,-0.07,-1.295,-0.03294,-0.016348,-1.01089,-0.1673,-0.25116,0.34692
-0,0,0,5,5,5,5,1.79987,0.282344,67.0817,-0.00281868,0.00129793,0.00103177,0,0,0,3.6575,-0.0175,-1.1725,-0.038186,-0.017934,-1.01114,-0.1666,-0.24976,0.34636
-0,0,0,5,5,5,5,1.79849,0.282668,67.1109,0.000455779,0.00115168,-0.00081173,0,0,0,3.745,0.0875,-1.435,-0.034892,-0.018056,-1.01297,-0.1666,-0.24976,0.34636
-0,0,0,5,5,5,5,1.79668,0.282959,67.1398,0.000450711,0.00112005,-0.000810762,0,0,0,3.4825,0.07,-1.365,-0.034892,-0.018056,-1.01297,-0.1666,-0.24976,0.34636
-0,0,0,5,5,5,5,1.79388,0.277113,67.1701,-0.00467115,0.000949145,0.000543699,0,0,0,3.3775,-0.105,-1.295,-0.040138,-0.018178,-1.01162,-0.1666,-0.24976,0.34636
-0,0,0,5,5,5,5,1.79137,0.271464,67.1997,-0.00457256,0.000905364,0.000545541,0,0,0,3.4825,-0.07,-1.4525,-0.040138,-0.018178,-1.01162,-0.1666,-0.24976,0.34636
-0,0,0,5,5,5,5,1.78886,0.27089,67.2281,-6.75616e-05,0.00135012,-0.00351034,0,0,0,3.4475,-0.035,-1.435,-0.035624,-0.01769,-1.01565,-0.1666,-0.24976,0.34636
-0,0,0,5,5,5,5,1.78615,0.269938,67.2565,-5.09494e-05,0.00130277,-0.00350879,0,0,0,3.29,-0.2625,-1.225,-0.035624,-0.01769,-1.01565,-0.1666,-0.24976,0.34636
-0,0,0,5,5,5,5,1.78443,0.268585,67.2843,-0.000634769,0.00078435,-0.00252416,0,0,0,3.4125,-0.1925,-1.26,-0.036234,-0.018178,-1.01467,-0.1666,-0.24976,0.34636
-0,0,0,5,5,5,5,1.78273,0.267682,67.3135,-0.000619007,0.000754669,-0.00252316,0,0,0,3.395,0.0525,-1.2775,-0.036234,-0.018178,-1.01467,-0.16716,-0.25326,0.33754
-0,0,0,5,5,5,5,1.78146,0.265375,67.3424,-0.00191509,0.000366039,-0.0048583,0,0,0,3.5,0.0525,-1.365,-0.037576,-0.018544,-1.01699,-0.16716,-0.25326,0.33754
-0,0,0,5,5,5,5,1.78007,0.26299,67.3714,-0.00187346,0.000341873,-0.00485736,0,0,0,3.4125,-0.0175,-1.1725,-0.037576,-0.018544,-1.01699,-0.16716,-0.25326,0.33754
-0,0,0,5,5,5,5,1.78659,0.263677,67.3962,-0.000184642,-0.00345238,0.00854043,0,0,0,3.675,-0.0175,-1.225,-0.035868,-0.022448,-1.00369,-0.16716,-0.25326,0.33754
-0,0,0,5,5,5,5,1.79299,0.264411,67.4207,-0.000197468,-0.00334075,0.00853688,0,0,0,3.71,0.035,-1.2425,-0.035868,-0.022448,-1.00369,-0.16716,-0.25326,0.33754
-0,0,0,5,5,5,5,1.79833,0.265131,67.4452,-0.000453002,-0.00324765,0.00447661,0,0,0,3.3775,0.245,-1.19,-0.036112,-0.022448,-1.00772,-0.16716,-0.25326,0.33754
-0,0,0,5,5,5,5,1.80333,0.265985,67.4696,-0.000467907,-0.00316049,0.0044738,0,0,0,3.2725,0.35,-1.05,-0.036112,-0.022448,-1.00772,-0.16716,-0.25326,0.33754
-0,0,0,5,5,5,5,1.80291,0.263052,67.4964,-0.00284643,-0.000358838,0.00299888,0,0,0,3.2025,0.1575,-1.155,-0.038552,-0.019642,-1.00918,-0.16716,-0.25326,0.33754
-0,0,0,5,5,5,5,1.80233,0.260073,67.5229,-0.00279443,-0.000368971,0.00299944,0,0,0,3.0975,0.0875,-1.3825,-0.038552,-0.019642,-1.00918,-0.16744,-0.2548,0.34062
-0,0,0,5,5,5,5,1.8083,0.262984,67.5454,0.00177122,-0.00331794,0.0049631,0,0,0,3.3775,0.0175,-1.4175,-0.033916,-0.022692,-1.00723,-0.16744,-0.2548,0.34062
-0,0,0,5,5,5,5,1.81379,0.266016,67.5679,0.00171829,-0.00322231,0.00495983,0,0,0,3.2025,0.14,-1.33,-0.033916,-0.022692,-1.00723,-0.16744,-0.2548,0.34062
-0,0,0,5,5,5,5,1.81718,0.267633,67.5912,0.000596713,-0.002064,0.00594141,0,0,0,3.22,0.2275,-1.2775,-0.035014,-0.021594,-1.00626,-0.16744,-0.2548,0.34062
-0,0,0,5,5,5,5,1.82059,0.26911,67.6144,0.000570932,-0.00200443,0.0059394,0,0,0,3.29,0.175,-1.225,-0.035014,-0.021594,-1.00626,-0.16744,-0.2548,0.34062
-0,0,0,5,5,5,5,1.82108,0.270033,67.6384,0.000554816,-0.00028612,0.00249649,0,0,0,3.36,0.14,-1.3125,-0.035014,-0.019886,-1.00967,-0.16744,-0.2548,0.34062
-0,0,0,5,5,5,5,1.82174,0.270964,67.6622,0.000538569,-0.000274611,0.00249605,0,0,0,3.465,0.1575,-1.2775,-0.035014,-0.019886,-1.00967,-0.16744,-0.2548,0.34062
-0,0,0,5,5,5,5,1.82097,0.27133,67.6866,0.000167732,0.000566771,0.000898117,0,0,0,3.535,0.21,-1.2425,-0.03538,-0.019032,-1.01126,-0.16744,-0.2548,0.34062
-0,0,0,5,5,5,5,1.81929,0.273408,67.7094,0.00158929,0.00127034,-0.00217484,0,0,0,3.5875,0.385,-1.2775,-0.033916,-0.0183,-1.01431,-0.16618,-0.25032,0.34762
-0,0,0,5,5,5,5,1.81772,0.275331,67.732,0.00155572,0.00124293,-0.00217413,0,0,0,3.6225,0.315,-1.2425,-0.033916,-0.0183,-1.01431,-0.16618,-0.25032,0.34762
-0,0,0,5,5,5,5,1.8195,0.274498,67.7533,-0.00134539,-0.0010465,0.00384943,0,0,0,3.57,0.2625,-1.295,-0.036844,-0.020618,-1.00833,-0.16618,-0.25032,0.34762
-0,0,0,5,5,5,5,1.82123,0.273674,67.7743,-0.00133101,-0.00101634,0.00384854,0,0,0,3.57,0.2625,-1.295,-0.036844,-0.020618,-1.00833,-0.16618,-0.25032,0.34762
-0,0,0,5,5,5,5,1.82312,0.274616,67.7951,0.000717805,-0.000861142,-0.000824632,0,0,0,3.6925,0,-1.05,-0.03477,-0.020496,-1.01297,-0.16618,-0.25032,0.34762
-0,0,0,5,5,5,5,1.82496,0.275532,67.8157,0.000701821,-0.000829058,-0.00082573,0,0,0,3.6925,0,-1.05,-0.03477,-0.020496,-1.01297,-0.16618,-0.25032,0.34762
-0,0,0,5,5,5,5,1.82456,0.279192,67.8364,0.00318914,0.000873624,0.00458392,0,0,0,3.535,0.14,-1.0325,-0.032208,-0.018788,-1.0076,-0.16618,-0.25032,0.34762
-0,0,0,5,5,5,5,1.82415,0.282782,67.8568,0.00312649,0.000866496,0.00458384,0,0,0,3.535,0.14,-1.0325,-0.032208,-0.018788,-1.0076,-0.16618,-0.25032,0.34762
-0,0,0,5,5,5,5,1.82196,0.284616,67.8763,0.00212258,0.00180537,0.00323246,0,0,0,3.57,-0.07,-1.1375,-0.033184,-0.017812,-1.00894,-0.16772,-0.25088,0.343
-0,0,0,5,5,5,5,1.82681,0.286059,67.8925,0.00088254,-0.00275093,-0.000827656,0,0,0,3.5875,-0.0875,-1.2075,-0.034404,-0.022448,-1.01297,-0.16772,-0.25088,0.343
-0,0,0,5,5,5,5,1.83157,0.287631,67.9086,0.000855109,-0.00266779,-0.000830449,0,0,0,3.6225,0.0175,-1.1725,-0.034404,-0.022448,-1.01297,-0.16772,-0.25088,0.343
-0,0,0,5,5,5,5,1.8278,0.287426,67.9283,0.000251263,0.00239577,3.23092e-05,0,0,0,3.5525,0.0875,-1.2425,-0.035014,-0.017324,-1.01211,-0.16772,-0.25088,0.343
-0,0,0,5,5,5,5,1.82408,0.287159,67.9474,0.000255915,0.00233076,3.44052e-05,0,0,0,3.5175,0.035,-1.4,-0.035014,-0.017324,-1.01211,-0.16772,-0.25088,0.343
-0,0,0,5,5,5,5,1.82625,0.289263,67.9639,0.00143406,-0.000806698,0.00224609,0,0,0,3.71,0.175,-1.295,-0.033794,-0.020496,-1.00992,-0.16772,-0.25088,0.343
-0,0,0,5,5,5,5,1.82791,0.290747,67.9801,0.00140815,-0.000777677,0.00224503,0,0,0,3.465,-0.1575,-1.26,-0.033794,-0.020496,-1.00992,-0.16772,-0.25088,0.343
-0,0,0,5,5,5,5,1.82743,0.288885,67.9974,-0.00147501,6.88632e-05,-0.00267248,0,0,0,3.5525,-0.0525,-1.47,-0.036722,-0.019642,-1.0148,-0.16772,-0.25088,0.343
-0,0,0,5,5,5,5,1.82698,0.287065,68.0235,-0.00144324,6.10261e-05,-0.00267207,0,0,0,3.5525,-0.0525,-1.47,-0.036722,-0.019642,-1.0148,-0.1617,-0.25214,0.3367
-0,0,0,5,5,5,5,1.82578,0.284639,68.0503,-0.00176535,0.000284279,-0.00390067,0,0,0,3.4125,-0.14,-1.0675,-0.037088,-0.019398,-1.01602,-0.1617,-0.25214,0.3367
-0,0,0,5,5,5,5,1.82462,0.282265,68.0768,-0.00172392,0.000264018,-0.00389982,0,0,0,3.4125,-0.14,-1.0675,-0.037088,-0.019398,-1.01602,-0.1617,-0.25214,0.3367
-0,0,0,5,5,5,5,1.82548,0.283162,68.1015,0.000690134,-8.73834e-05,0.00249295,0,0,0,3.7275,0.07,-1.2425,-0.034648,-0.019764,-1.00967,-0.1617,-0.25214,0.3367
-0,0,0,5,5,5,5,1.82631,0.284038,68.126,0.000674846,-7.28802e-05,0.00249241,0,0,0,3.7275,0.07,-1.2425,-0.034648,-0.019764,-1.00967,-0.1617,-0.25214,0.3367
-0,0,0,5,5,5,5,1.822,0.282538,68.1527,-0.00124275,0.00241663,0.000404806,0,0,0,3.4475,0.315,-1.225,-0.0366,-0.017202,-1.01175,-0.1617,-0.25214,0.3367
-0,0,0,5,5,5,5,1.81782,0.281086,68.179,-0.00121741,0.00234367,0.000407249,0,0,0,3.4475,0.315,-1.225,-0.0366,-0.017202,-1.01175,-0.1617,-0.25214,0.3367
-0,0,0,5,5,5,5,1.81596,0.280754,68.204,3.24085e-06,0.00121223,0.00188368,0,0,0,3.5175,0,-1.155,-0.03538,-0.0183,-1.01028,-0.1617,-0.25214,0.3367
-0,0,0,5,5,5,5,1.81417,0.28044,68.2249,8.73171e-06,0.001181,0.0018847,0,0,0,3.5175,0,-1.155,-0.03538,-0.0183,-1.01028,-0.16268,-0.24836,0.34202
-0,0,0,5,5,5,5,1.80826,0.277742,68.2473,-0.00152349,0.00315406,-0.00155437,0,0,0,3.3075,-0.0875,-1.295,-0.036966,-0.016226,-1.0137,-0.16268,-0.24836,0.34202
-0,0,0,5,5,5,5,1.80253,0.27512,68.2694,-0.00147774,0.00305401,-0.00155099,0,0,0,3.3075,-0.0875,-1.295,-0.036966,-0.016226,-1.0137,-0.16268,-0.24836,0.34202
-0,0,0,5,5,5,5,1.80129,0.27378,68.2892,-0.000968416,0.000589924,0.00361363,0,0,0,3.36,-0.0525,-1.33,-0.036478,-0.018666,-1.00857,-0.16268,-0.24836,0.34202
-0,0,0,5,5,5,5,1.8001,0.272472,68.3088,-0.000945579,0.000569061,0.0036144,0,0,0,3.36,-0.0525,-1.33,-0.036478,-0.018666,-1.00857,-0.16268,-0.24836,0.34202
-0,0,0,5,5,5,5,1.79868,0.270516,68.3284,-0.00164035,0.000666569,0.00423008,0,0,0,3.395,0.035,-1.3475,-0.03721,-0.018544,-1.00796,-0.16268,-0.24836,0.34202
-0,0,0,5,5,5,5,1.79732,0.268603,68.3478,-0.00160697,0.00064276,0.00423098,0,0,0,3.395,0.035,-1.3475,-0.03721,-0.018544,-1.00796,-0.16268,-0.24836,0.34202
-0,0,0,5,5,5,5,1.79649,0.271577,68.3662,0.00235015,0.000750437,0.00373939,0,0,0,3.325,0.2975,-1.1725,-0.033184,-0.018422,-1.00845,-0.16268,-0.24836,0.34202
-0,0,0,5,5,5,5,1.79568,0.274499,68.3832,0.00229916,0.000736268,0.0037396,0,0,0,3.325,0.2975,-1.1725,-0.033184,-0.018422,-1.00845,-0.16492,-0.25116,0.34132
-0,0,0,5,5,5,5,1.79225,0.274049,68.4016,-0.000487151,0.00177565,-0.00216002,0,0,0,3.325,0.35,-1.225,-0.03599,-0.017324,-1.01431,-0.16492,-0.25116,0.34132
-0,0,0,5,5,5,5,1.78893,0.273621,68.4199,-0.000479685,0.00171758,-0.00215817,0,0,0,3.325,0.35,-1.225,-0.03599,-0.017324,-1.01431,-0.16492,-0.25116,0.34132
-0,0,0,5,5,5,5,1.78717,0.272074,68.4369,-0.00130308,0.000709886,-0.00129645,0,0,0,3.36,0.0875,-1.47,-0.036844,-0.0183,-1.01345,-0.16492,-0.25116,0.34132
-0,0,0,5,5,5,5,1.78546,0.270564,68.4538,-0.00127673,0.000680159,-0.00129539,0,0,0,3.36,0.0875,-1.47,-0.036844,-0.0183,-1.01345,-0.16492,-0.25116,0.34132
-0,0,0,5,5,5,5,1.78265,0.270179,68.4714,-0.000419614,0.00185241,0.000181547,0,0,0,3.6575,0.3325,-1.33,-0.03599,-0.01708,-1.01199,-0.16492,-0.25116,0.34132
-0,0,0,5,5,5,5,1.77992,0.269813,68.4887,-0.000413226,0.00180479,0.000183058,0,0,0,3.6575,0.3325,-1.33,-0.03599,-0.01708,-1.01199,-0.16492,-0.25116,0.34132
-0,0,0,5,5,5,5,1.77739,0.26883,68.5059,-0.000882006,0.00139422,0.000430408,0,0,0,3.4475,0.2275,-1.2075,-0.036478,-0.017446,-1.01175,-0.16492,-0.25116,0.34132
-0,0,0,5,5,5,5,1.77493,0.267874,68.5243,-0.000865331,0.00135125,0.000431819,0,0,0,3.4475,0.2275,-1.2075,-0.036478,-0.017446,-1.01175,-0.16492,-0.25326,0.33978
-0,0,0,5,5,5,5,1.77386,0.265465,68.5418,-0.00203814,0.000477729,0.00166208,0,0,0,3.535,0.0175,-1.365,-0.037698,-0.0183,-1.01053,-0.16492,-0.25326,0.33978
-0,0,0,5,5,5,5,1.77283,0.263107,68.5591,-0.00199699,0.000459764,0.00166282,0,0,0,3.535,0.0175,-1.365,-0.037698,-0.0183,-1.01053,-0.16492,-0.25326,0.33978
-0,0,0,5,5,5,5,1.77683,0.263393,68.5739,6.32742e-05,-0.00191295,0.0123572,0,0,0,3.5875,-0.1925,-1.225,-0.035624,-0.02074,-0.999912,-0.16492,-0.25326,0.33978
-0,0,0,5,5,5,5,1.78072,0.263658,68.5885,5.86554e-05,-0.00184509,0.012355,0,0,0,3.5875,-0.1925,-1.225,-0.035624,-0.02074,-0.999912,-0.16492,-0.25326,0.33978
-0,0,0,5,5,5,5,1.78282,0.263487,68.6034,-0.000424308,-0.00119785,0.00645237,0,0,0,3.43,0,-1.365,-0.036112,-0.02013,-1.00577,-0.16492,-0.25326,0.33978
-0,0,0,5,5,5,5,1.78486,0.263311,68.6181,-0.000421238,-0.00116225,0.00645128,0,0,0,3.43,0,-1.365,-0.036112,-0.02013,-1.00577,-0.16492,-0.25326,0.33978
-0,0,0,5,5,5,5,1.78313,0.266426,68.6337,0.00304749,0.00161654,0.00473069,0,0,0,3.5,0.035,-1.3825,-0.032574,-0.017324,-1.00748,-0.16492,-0.25326,0.33978
-0,0,0,5,5,5,5,1.78144,0.269487,68.6491,0.00299406,0.00158706,0.00473135,0,0,0,3.5,0.035,-1.3825,-0.032574,-0.017324,-1.00748,-0.16492,-0.25326,0.33978
-0,0,0,5,5,5,5,1.7822,0.269996,68.6625,0.000312486,-0.000231557,0.00632923,0,0,0,3.4825,0.0525,-1.1375,-0.035258,-0.019154,-1.00589,-0.16604,-0.25298,0.34062
-0,0,0,5,5,5,5,1.7821,0.269926,68.6762,-5.07388e-05,0.000133008,0.00460801,0,0,0,3.43,0.0175,-1.1025,-0.035624,-0.018788,-1.0076,-0.16604,-0.25298,0.34062
-0,0,0,5,5,5,5,1.78231,0.270011,68.6896,-5.22238e-05,0.000136681,0.00460789,0,0,0,3.605,0.105,-1.19,-0.035624,-0.018788,-1.0076,-0.16604,-0.25298,0.34062
-0,0,0,5,5,5,5,1.77762,0.266928,68.7055,-0.00218516,0.00274164,-0.00288917,0,0,0,3.71,0.0525,-1.225,-0.03782,-0.016104,-1.01504,-0.16604,-0.25298,0.34062
-0,0,0,5,5,5,5,1.77257,0.263838,68.7211,-0.00213123,0.00265357,-0.00288619,0,0,0,3.43,0,-1.295,-0.03782,-0.016104,-1.01504,-0.16604,-0.25298,0.34062
-0,0,0,5,5,5,5,1.77167,0.260805,68.7348,-0.00256424,0.000195351,6.52999e-05,0,0,0,3.4825,-0.035,-1.295,-0.038308,-0.018544,-1.01211,-0.16604,-0.25298,0.34062
-0,0,0,5,5,5,5,1.77056,0.258041,68.7484,-0.002516,0.000175947,6.61184e-05,0,0,0,3.3425,0.0875,-1.26,-0.038308,-0.018544,-1.01211,-0.16604,-0.25298,0.34062
-0,0,0,5,5,5,5,1.77647,0.261303,68.758,0.00204352,-0.00314045,0.00633304,0,0,0,3.4825,0.1225,-1.26,-0.033672,-0.02196,-1.00589,-0.16604,-0.25298,0.34062
-0,0,0,5,5,5,5,1.78196,0.264081,68.7712,0.00199505,-0.00304466,0.00632984,0,0,0,3.36,-0.105,-1.26,-0.033672,-0.02196,-1.00589,-0.16212,-0.25088,0.34524
-0,0,0,5,5,5,5,1.78223,0.265549,68.7867,0.0012405,-0.000231114,-0.00190797,0,0,0,3.3425,0.07,-1.26,-0.034404,-0.019154,-1.01406,-0.16212,-0.25088,0.34524
-0,0,0,5,5,5,5,1.78267,0.26705,68.802,0.00121431,-0.000223441,-0.00190833,0,0,0,3.4475,0.105,-1.295,-0.034404,-0.019154,-1.01406,-0.16212,-0.25088,0.34524
-0,0,0,5,5,5,5,1.78383,0.267757,68.8169,0.000351563,-0.000691659,0.000304053,0,0,0,3.465,0.1225,-1.295,-0.035258,-0.019642,-1.01187,-0.16212,-0.25088,0.34524
-0,0,0,5,5,5,5,1.78493,0.268264,68.8318,0.000342725,-0.00067251,0.000303415,0,0,0,3.4475,0.0175,-1.225,-0.035258,-0.019642,-1.01187,-0.16212,-0.25088,0.34524
-0,0,0,5,5,5,5,1.78571,0.267722,68.8468,-0.0006197,-0.00029251,0.00386854,0,0,0,3.6225,0.0525,-1.3475,-0.036234,-0.019276,-1.00833,-0.16212,-0.25088,0.34524
-0,0,0,5,5,5,5,1.7866,0.267481,68.8617,-0.000615498,-0.000277043,0.00386808,0,0,0,3.6925,0.2275,-1.26,-0.036234,-0.019276,-1.00833,-0.16212,-0.25088,0.34524
-0,0,0,5,5,5,5,1.79257,0.267933,68.8741,-0.000623382,-0.00347031,0.00632376,0,0,0,3.5525,0.1925,-1.225,-0.036234,-0.02257,-1.00589,-0.16212,-0.25088,0.34524
-0,0,0,5,5,5,5,1.79807,0.268297,68.8865,-0.000629736,-0.00337425,0.00632072,0,0,0,3.3775,0.1575,-1.19,-0.036234,-0.02257,-1.00589,-0.16268,-0.252,0.33992
-0,0,0,5,5,5,5,1.79946,0.274959,68.8994,0.00569272,0.000191661,0.0103767,0,0,0,3.4475,0.14,-1.155,-0.029768,-0.019032,-1.00186,-0.16268,-0.252,0.33992
-0,0,0,5,5,5,5,1.80082,0.280989,68.9118,0.00558748,0.000215326,0.0103754,0,0,0,3.465,-0.1575,-1.3125,-0.029768,-0.019032,-1.00186,-0.16268,-0.252,0.33992
-0,0,0,5,5,5,5,1.80315,0.280111,68.9248,-0.000714446,-0.00182015,-0.00118291,0,0,0,3.2725,-0.245,-1.295,-0.036112,-0.021106,-1.01333,-0.16268,-0.252,0.33992
-0,0,0,5,5,5,5,1.80627,0.279659,68.9375,-0.000706564,-0.00176584,-0.00118459,0,0,0,3.745,0,-1.3125,-0.036112,-0.021106,-1.01333,-0.16268,-0.252,0.33992
-0,0,0,5,5,5,5,1.80332,0.276743,68.9531,-0.0021135,0.00184662,-0.002904,0,0,0,3.85,-0.035,-1.3475,-0.037576,-0.017446,-1.01504,-0.16268,-0.252,0.33992
-0,0,0,5,5,5,5,1.79994,0.27425,68.9687,-0.00206998,0.00178764,-0.00290194,0,0,0,3.5525,0.175,-1.295,-0.037576,-0.017446,-1.01504,-0.16268,-0.252,0.33992
-0,0,0,5,5,5,5,1.79899,0.274753,68.9823,0.000472435,0.000794032,0.00250828,0,0,0,3.5525,0.105,-1.3825,-0.035014,-0.018422,-1.00967,-0.16268,-0.252,0.33992
-0,0,0,5,5,5,5,1.79782,0.275071,68.9879,0.000466881,0.000773566,0.00250889,0,0,0,3.4125,0,-1.365,-0.035014,-0.018422,-1.00967,-0.16954,-0.25382,0.33936
-0,0,0,5,5,5,5,1.79815,0.276223,68.993,0.00105421,0.000413061,0.00963962,0,0,0,3.64,0,-1.2775,-0.034404,-0.018788,-1.0026,-0.16954,-0.25382,0.33936
-0,0,0,5,5,5,5,1.79854,0.277535,68.9979,0.00103132,0.000419778,0.0096393,0,0,0,3.675,0.105,-1.3475,-0.034404,-0.018788,-1.0026,-0.16954,-0.25382,0.33936
-0,0,0,5,5,5,5,1.79722,0.2717,69.0047,-0.00530559,0.000274654,0.00091117,0,0,0,3.64,0.105,-1.33,-0.04087,-0.01891,-1.01126,-0.16954,-0.25382,0.33936
-0,0,0,5,5,5,5,1.79605,0.265753,69.0111,-0.00520179,0.000254286,0.000912296,0,0,0,3.6925,-0.035,-1.4875,-0.04087,-0.01891,-1.01126,-0.16954,-0.25382,0.33936
-0,0,0,5,5,5,5,1.7985,0.26429,69.0151,-0.00153168,-0.0012907,0.0073044,0,0,0,3.6575,-0.0525,-1.5575,-0.03721,-0.020496,-1.00491,-0.16954,-0.25382,0.33936
-0,0,0,5,5,5,5,1.8006,0.262893,69.0194,-0.00150731,-0.00125398,0.00730336,0,0,0,3.5,-0.0175,-1.33,-0.03721,-0.020496,-1.00491,-0.16954,-0.25382,0.33936
-0,0,0,5,5,5,5,1.79787,0.260647,69.0258,-0.00183257,0.0015073,0.00423132,0,0,0,3.4475,0.0875,-1.33,-0.037576,-0.01769,-1.00796,-0.16954,-0.25382,0.33936
-0,0,0,5,5,5,5,1.79534,0.258102,69.0363,-0.00178816,0.00146307,0.00423291,0,0,0,3.5,-0.1225,-1.3125,-0.037576,-0.01769,-1.00796,-0.16478,-0.25046,0.34244
-0,0,0,5,5,5,5,1.8005,0.26487,69.0418,0.00574733,-0.002355,0.0038607,0,0,0,3.43,-0.0875,-1.3475,-0.02989,-0.021594,-1.00833,-0.16478,-0.25046,0.34244
-0,0,0,5,5,5,5,1.80571,0.271459,69.0472,0.00563233,-0.00226411,0.0038573,0,0,0,3.5525,-0.105,-1.365,-0.02989,-0.021594,-1.00833,-0.16478,-0.25046,0.34244
-0,0,0,5,5,5,5,1.80672,0.266736,69.0563,-0.00436856,-0.00114725,0.00127521,0,0,0,3.5175,-0.0525,-1.26,-0.040016,-0.020496,-1.01089,-0.16478,-0.25046,0.34244
-0,0,0,5,5,5,5,1.80819,0.262195,69.0651,-0.0042893,-0.00112157,0.00127476,0,0,0,3.78,0,-1.365,-0.040016,-0.020496,-1.01089,-0.16478,-0.25046,0.34244
-0,0,0,5,5,5,5,1.80972,0.262703,69.0732,0.000196809,-0.000362214,0.00397875,0,0,0,3.8675,0.1225,-1.33,-0.035502,-0.019764,-1.00821,-0.16478,-0.25046,0.34244
-0,0,0,5,5,5,5,1.81057,0.263251,69.0812,0.000187245,-0.00034726,0.00397823,0,0,0,3.5175,0.1575,-1.26,-0.035502,-0.019764,-1.00821,-0.16478,-0.25046,0.34244
-0,0,0,5,5,5,5,1.81359,0.261822,69.0887,-0.00173158,-0.0020045,0.000780025,0,0,0,3.5525,0.0525,-1.19,-0.037454,-0.021472,-1.01138,-0.16478,-0.25046,0.34244
-0,0,0,5,5,5,5,1.81599,0.259894,69.0963,-0.00169795,-0.00196256,0.00077885,0,0,0,3.255,-0.245,-1.0675,-0.037454,-0.021472,-1.01138,-0.16478,-0.25046,0.34244
-0,0,0,5,5,5,5,1.81412,0.263273,69.1018,0.00346697,0.0014243,0.00188615,0,0,0,3.255,-0.0525,-1.015,-0.032208,-0.018056,-1.01028,-0.1673,-0.25088,0.33726
-0,0,0,5,5,5,5,1.81284,0.263341,69.1075,0.000307151,0.000913552,0.00237865,0,0,0,3.5,-0.0175,-1.225,-0.03538,-0.018544,-1.00979,-0.1673,-0.25088,0.33726
-0,0,0,5,5,5,5,1.81147,0.263696,69.1126,0.000300957,0.000889704,0.00237937,0,0,0,3.43,0.14,-1.4875,-0.03538,-0.018544,-1.00979,-0.1673,-0.25088,0.33726
-0,0,0,5,5,5,5,1.80909,0.263073,69.1184,-0.000295589,0.00158083,0.00447086,0,0,0,3.5,0.035,-1.4525,-0.03599,-0.017812,-1.00772,-0.1673,-0.25088,0.33726
-0,0,0,5,5,5,5,1.8068,0.262524,69.1243,-0.000286015,0.00154094,0.00447216,0,0,0,3.5175,0.07,-1.3475,-0.03599,-0.017812,-1.00772,-0.1673,-0.25088,0.33726
-0,0,0,5,5,5,5,1.80562,0.263829,69.1294,0.0015135,0.00115394,0.00533335,0,0,0,3.535,-0.07,-1.295,-0.03416,-0.018178,-1.00687,-0.1673,-0.25088,0.33726
-0,0,0,5,5,5,5,1.80446,0.265381,69.1346,0.00148641,0.0011338,0.00533386,0,0,0,3.535,0.0875,-1.2775,-0.03416,-0.018178,-1.00687,-0.1673,-0.25088,0.33726
-0,0,0,5,5,5,5,1.80555,0.268232,69.1386,0.00240853,5.35165e-05,0.0117264,0,0,0,3.5,0.0525,-1.155,-0.033184,-0.019276,-1.00052,-0.1673,-0.25088,0.33726
-0,0,0,5,5,5,5,1.8069,0.271558,69.1433,0.00235049,7.70479e-05,0.0117253,0,0,0,3.675,0.3675,-1.1025,-0.033184,-0.019276,-1.00052,-0.16674,-0.2506,0.34104
-0,0,0,5,5,5,5,1.80743,0.27118,69.1486,-0.000801547,-3.56733e-05,0.00373342,0,0,0,3.745,0.2975,-1.2425,-0.036356,-0.019398,-1.00845,-0.16674,-0.2506,0.34104
-0,0,0,5,5,5,5,1.80755,0.270452,69.1537,-0.000788841,-3.35875e-05,0.00373342,0,0,0,3.5175,0.0875,-1.295,-0.036356,-0.019398,-1.00845,-0.16674,-0.2506,0.34104
-0,0,0,5,5,5,5,1.80154,0.271424,69.1611,0.00162391,0.00389169,0.00164652,0,0,0,3.395,0.0525,-1.3125,-0.033916,-0.015372,-1.01053,-0.16674,-0.2506,0.34104
-0,0,0,5,5,5,5,1.79591,0.272127,69.1684,0.00161164,0.00379342,0.00164954,0,0,0,3.5175,-0.105,-1.225,-0.033916,-0.015372,-1.01053,-0.16674,-0.2506,0.34104
-0,0,0,5,5,5,5,1.79917,0.277612,69.1711,0.00479603,-0.00115695,0.011852,0,0,0,3.325,-0.1225,-1.19,-0.030622,-0.020374,-1.0004,-0.16674,-0.2506,0.34104
-0,0,0,5,5,5,5,1.8025,0.282925,69.1735,0.0047033,-0.00109878,0.0118497,0,0,0,3.43,-0.1575,-1.295,-0.030622,-0.020374,-1.0004,-0.16674,-0.2506,0.34104
-0,0,0,5,5,5,5,1.80367,0.283671,69.1775,0.000924227,-0.00034559,0.0100048,0,0,0,3.43,-0.245,-1.26,-0.034404,-0.019642,-1.00223,-0.16674,-0.2506,0.34104
-0,0,0,5,5,5,5,1.8049,0.284921,69.1829,0.000902412,-0.000324105,0.010004,0,0,0,3.4825,0.07,-0.9975,-0.034404,-0.019642,-1.00223,-0.16744,-0.25368,0.34454
-0,0,0,5,5,5,5,1.80506,0.283876,69.1889,-0.000901642,4.49838e-05,0.0079139,0,0,0,3.5,-0.035,-1.0675,-0.036234,-0.019276,-1.0043,-0.16744,-0.25368,0.34454
-0,0,0,5,5,5,5,1.80559,0.282893,69.1945,-0.000884481,5.41845e-05,0.0079137,0,0,0,3.71,-0.0175,-1.295,-0.036234,-0.019276,-1.0043,-0.16744,-0.25368,0.34454
-0,0,0,5,5,5,5,1.80477,0.28406,69.2002,0.00128189,0.00126123,0.00680751,0,0,0,3.815,0,-1.33,-0.034038,-0.018056,-1.0054,-0.16744,-0.25368,0.34454
-0,0,0,5,5,5,5,1.80369,0.284758,69.2059,0.00126971,0.00124243,0.00680804,0,0,0,3.6575,-0.2625,-1.295,-0.034038,-0.018056,-1.0054,-0.16744,-0.25368,0.34454
-0,0,0,5,5,5,5,1.80083,0.283744,69.2124,-0.000291911,0.00192527,0.00582611,0,0,0,3.5,-0.1575,-1.3475,-0.035624,-0.017324,-1.00638,-0.16744,-0.25368,0.34454
-0,0,0,5,5,5,5,1.79768,0.283048,69.2192,-0.000279756,0.00187027,0.0058279,0,0,0,3.29,0.0175,-1.1375,-0.035624,-0.017324,-1.00638,-0.16744,-0.25368,0.34454
-0,0,0,5,5,5,5,1.7977,0.282893,69.2247,-0.000155568,-8.34301e-05,0.00312304,0,0,0,3.36,0.0175,-1.1025,-0.035502,-0.019276,-1.00906,-0.16744,-0.25368,0.34454
-0,0,0,5,5,5,5,1.79781,0.282573,69.2288,-0.000149982,-8.15095e-05,0.003123,0,0,0,3.4125,-0.0875,-1.3125,-0.035502,-0.019276,-1.00906,-0.1666,-0.25032,0.34426
-0,0,0,5,5,5,5,1.79606,0.282517,69.2336,0.000458424,0.0013536,0.00570588,0,0,0,3.5175,-0.1575,-1.33,-0.034892,-0.017812,-1.0065,-0.1666,-0.25032,0.34426
-0,0,0,5,5,5,5,1.79459,0.282871,69.2389,0.000452239,0.00132788,0.00570666,0,0,0,3.64,0.0875,-1.05,-0.034892,-0.017812,-1.0065,-0.1666,-0.25032,0.34426
-0,0,0,5,5,5,5,1.79496,0.283541,69.2432,0.000562038,0.000112972,0.00668999,0,0,0,3.535,0.035,-1.085,-0.03477,-0.019032,-1.00552,-0.1666,-0.25032,0.34426
-0,0,0,5,5,5,5,1.79503,0.283782,69.2472,0.000557827,0.000114203,0.00668993,0,0,0,3.3775,-0.21,-1.155,-0.03477,-0.019032,-1.00552,-0.1666,-0.25032,0.34426
-0,0,0,5,5,5,5,1.79339,0.284665,69.2517,0.00127134,0.00142901,0.00792023,0,0,0,3.4825,-0.14,-1.2775,-0.034038,-0.01769,-1.0043,-0.1666,-0.25032,0.34426
-0,0,0,5,5,5,5,1.79142,0.28595,69.2564,0.00124891,0.00139463,0.0079212,0,0,0,3.2725,0.105,-1.19,-0.034038,-0.01769,-1.0043,-0.1666,-0.25032,0.34426
-0,0,0,5,5,5,5,1.79167,0.283948,69.2604,-0.00199626,-0.000555029,0.000175479,0,0,0,3.3775,0.07,-1.3475,-0.037332,-0.019642,-1.01199,-0.1666,-0.25032,0.34426
-0,0,0,5,5,5,5,1.79225,0.282189,69.2602,-0.00196556,-0.000544805,0.000175311,0,0,0,3.57,0.1925,-1.3475,-0.037332,-0.019642,-1.01199,-0.16884,-0.24822,0.3423
-0,0,0,5,5,5,5,1.79278,0.284402,69.2591,0.00188335,7.5018e-05,0.00423213,0,0,0,3.5,0.0875,-1.435,-0.033428,-0.019032,-1.00796,-0.16884,-0.24822,0.3423
-0,0,0,5,5,5,5,1.79363,0.286574,69.258,0.00184544,8.97954e-05,0.00423148,0,0,0,3.6925,0.0875,-1.4875,-0.033428,-0.019032,-1.00796,-0.16884,-0.24822,0.3423
-0,0,0,5,5,5,5,1.79278,0.280991,69.259,-0.0049818,-4.71502e-05,-0.00117731,0,0,0,3.6225,-0.035,-1.365,-0.040382,-0.019154,-1.01333,-0.16884,-0.24822,0.3423
-0,0,0,5,5,5,5,1.79219,0.2756,69.2602,-0.00488771,-5.73744e-05,-0.00117653,0,0,0,3.745,0.0175,-1.2425,-0.040382,-0.019154,-1.01333,-0.16884,-0.24822,0.3423
-0,0,0,5,5,5,5,1.792,0.275791,69.2603,0.000575815,0.000672052,0.00583162,0,0,0,3.745,-0.175,-1.2075,-0.034892,-0.018422,-1.00638,-0.16884,-0.24822,0.3423
-0,0,0,5,5,5,5,1.79147,0.276632,69.2605,0.000561125,0.000662815,0.00583184,0,0,0,3.5525,0.21,-1.155,-0.034892,-0.018422,-1.00638,-0.16884,-0.24822,0.3423
-0,0,0,5,5,5,5,1.79067,0.272812,69.2618,-0.00374568,0.000282574,0.00743093,0,0,0,3.5525,0.21,-1.015,-0.039284,-0.018788,-1.00479,-0.16884,-0.24822,0.3423
-0,0,0,5,5,5,5,1.7901,0.26887,69.2627,-0.00367689,0.000272569,0.00743156,0,0,0,3.6575,0.0875,-1.26,-0.039284,-0.018788,-1.00479,-0.16884,-0.24822,0.3423
-0,0,0,5,5,5,5,1.79043,0.271303,69.2647,0.00199048,0.000522637,0.00657054,0,0,0,3.71,0.1925,-1.26,-0.03355,-0.018544,-1.00565,-0.168,-0.25046,0.34622
-0,0,0,5,5,5,5,1.78707,0.267836,69.2689,-0.00256547,0.00156309,-0.00412386,0,0,0,3.43,-0.1225,-1.225,-0.038186,-0.017446,-1.01626,-0.168,-0.25046,0.34622
-0,0,0,5,5,5,5,1.78387,0.264806,69.2731,-0.00251258,0.00150731,-0.00412187,0,0,0,3.465,0.0875,-1.225,-0.038186,-0.017446,-1.01626,-0.168,-0.25046,0.34622
-0,0,0,5,5,5,5,1.78178,0.261836,69.2768,-0.00270371,0.00110447,0.00178103,0,0,0,3.5875,0.1575,-1.33,-0.03843,-0.017812,-1.0104,-0.168,-0.25046,0.34622
-0,0,0,5,5,5,5,1.77957,0.258932,69.2803,-0.00265304,0.00106592,0.00178246,0,0,0,3.4825,0.1575,-1.3825,-0.03843,-0.017812,-1.0104,-0.168,-0.25046,0.34622
-0,0,0,5,5,5,5,1.78411,0.26212,69.2798,0.00215074,-0.00264081,0.00485345,0,0,0,3.2725,0.14,-1.3125,-0.03355,-0.021594,-1.00735,-0.168,-0.25046,0.34622
-0,0,0,5,5,5,5,1.78923,0.26556,69.2794,0.00209071,-0.00255145,0.00485039,0,0,0,3.675,0.3325,-1.3125,-0.03355,-0.021594,-1.00735,-0.168,-0.25046,0.34622
-0,0,0,5,5,5,5,1.78768,0.264018,69.2826,-0.00140546,0.00120737,0.00435956,0,0,0,3.745,0.1575,-1.295,-0.037088,-0.017812,-1.00784,-0.168,-0.25046,0.34622
-0,0,0,5,5,5,5,1.78586,0.262475,69.2782,-0.00137853,0.00117555,0.00436068,0,0,0,3.57,0.14,-1.225,-0.037088,-0.017812,-1.00784,-0.17178,-0.2457,0.34272
-0,0,0,5,5,5,5,1.78408,0.263525,69.2735,0.00115435,0.00126679,0.000673103,0,0,0,3.465,0.07,-1.155,-0.034526,-0.01769,-1.0115,-0.17178,-0.2457,0.34272
-0,0,0,5,5,5,5,1.78208,0.264257,69.2689,0.00114157,0.00123178,0.000674134,0,0,0,3.3075,-0.105,-1.05,-0.034526,-0.01769,-1.0115,-0.17178,-0.2457,0.34272
-0,0,0,5,5,5,5,1.78264,0.264654,69.2633,0.00040572,-0.00034614,0.00313277,0,0,0,3.36,-0.0525,-1.12,-0.035258,-0.019276,-1.00906,-0.17178,-0.2457,0.34272
-0,0,0,5,5,5,5,1.78296,0.265218,69.2579,0.000395875,-0.000340505,0.00313255,0,0,0,3.2375,0.0525,-1.0675,-0.035258,-0.019276,-1.00906,-0.17178,-0.2457,0.34272
-0,0,0,5,5,5,5,1.78277,0.264912,69.2532,-0.000327692,0.000144708,0.00325562,0,0,0,3.465,0.07,-1.015,-0.03599,-0.018788,-1.00894,-0.17178,-0.2457,0.34272
-0,0,0,5,5,5,5,1.78221,0.264265,69.2481,-0.0003164,0.000134961,0.00325598,0,0,0,3.255,-0.14,-1.225,-0.03599,-0.018788,-1.00894,-0.17178,-0.2457,0.34272
-0,0,0,5,5,5,5,1.78261,0.264142,69.2428,5.02118e-05,-0.000346556,0.00227218,0,0,0,3.3425,-0.1225,-1.155,-0.035624,-0.019276,-1.00992,-0.17178,-0.2457,0.34272
-0,0,0,5,5,5,5,1.78303,0.264348,69.2418,4.66031e-05,-0.000339205,0.00227194,0,0,0,3.36,0.07,-1.1725,-0.035624,-0.019276,-1.00992,-0.16898,-0.24668,0.34342
-0,0,0,5,5,5,5,1.78408,0.26779,69.2397,0.0027807,-0.000443042,0.000180966,0,0,0,3.3425,0.21,-1.33,-0.032818,-0.019398,-1.01199,-0.16898,-0.24668,0.34342
-0,0,0,5,5,5,5,1.78493,0.270861,69.2377,0.00272712,-0.000428179,0.000180251,0,0,0,3.255,0.035,-1.2425,-0.032818,-0.019398,-1.01199,-0.16898,-0.24668,0.34342
-0,0,0,5,5,5,5,1.78411,0.273466,69.2368,0.00256016,0.000534401,-0.00215554,0,0,0,3.255,0.0175,-1.12,-0.03294,-0.018422,-1.01431,-0.16898,-0.24668,0.34342
-0,0,0,5,5,5,5,1.7837,0.276297,69.2358,0.00251075,0.000527259,-0.00215555,0,0,0,3.4825,0.175,-1.19,-0.03294,-0.018422,-1.01431,-0.16898,-0.24668,0.34342
-0,0,0,5,5,5,5,1.78593,0.275931,69.234,-0.000884457,-0.00138793,0.00153172,0,0,0,3.57,0.1925,-1.33,-0.036356,-0.020374,-1.01065,-0.16898,-0.24668,0.34342
-0,0,0,5,5,5,5,1.78797,0.275741,69.2322,-0.000881153,-0.00135229,0.00153063,0,0,0,3.5,0.2975,-1.3125,-0.036356,-0.020374,-1.01065,-0.16898,-0.24668,0.34342
-0,0,0,5,5,5,5,1.79259,0.276678,69.2291,-0.000168583,-0.00298144,0.00324931,0,0,0,3.36,0.28,-1.3125,-0.035624,-0.022082,-1.00894,-0.16898,-0.24668,0.34342
-0,0,0,5,5,5,5,1.79708,0.277579,69.2312,-0.000184316,-0.00290307,0.00324678,0,0,0,3.36,0.28,-1.3125,-0.035624,-0.022082,-1.00894,-0.16506,-0.2471,0.3458
-0,0,0,5,5,5,5,1.79882,0.269492,69.2346,-0.000772083,-0.00116288,0.0070579,0,0,0,3.3425,-4.3225,-1.1725,-0.036356,-0.020374,-1.00516,-0.16506,-0.2471,0.3458
-0,0,0,5,5,5,5,1.80055,0.261549,69.238,-0.000633454,-0.00113278,0.0070576,0,0,0,3.3425,-4.3225,-1.1725,-0.036356,-0.020374,-1.00516,-0.16506,-0.2471,0.3458
-0,0,0,5,5,5,5,1.79849,0.260838,69.2432,-0.000864021,0.00127392,0.00140315,0,0,0,3.535,0.315,-1.365,-0.0366,-0.017934,-1.01077,-0.16506,-0.2471,0.3458
-0,0,0,5,5,5,5,1.7965,0.260149,69.2484,-0.000851982,0.00123909,0.00140429,0,0,0,3.535,0.315,-1.365,-0.0366,-0.017934,-1.01077,-0.16506,-0.2471,0.3458
-0,0,0,5,5,5,5,1.79982,0.2608,69.2514,-0.000255917,-0.00212249,0.00189422,0,0,0,3.4475,0.2975,-1.05,-0.03599,-0.02135,-1.01028,-0.16506,-0.2471,0.3458
-0,0,0,5,5,5,5,1.80129,0.261979,69.255,0.000452414,-0.000631413,0.00312281,0,0,0,3.605,0.3325,-1.155,-0.035258,-0.019886,-1.00906,-0.16506,-0.2471,0.3458
-0,0,0,5,5,5,5,1.8028,0.262667,69.2582,0.000440399,-0.000605025,0.00312192,0,0,0,3.6575,0.0525,-1.4175,-0.035258,-0.019886,-1.00906,-0.16506,-0.2471,0.3458
-0,0,0,5,5,5,5,1.80198,0.262253,69.2661,-0.000524246,0.000724119,0.00595022,0,0,0,3.57,0.175,-1.295,-0.036234,-0.018544,-1.00626,-0.1624,-0.24724,0.3465
-0,0,0,5,5,5,5,1.80091,0.26161,69.274,-0.000513025,0.000705379,0.00595086,0,0,0,3.4125,0.035,-1.295,-0.036234,-0.018544,-1.00626,-0.1624,-0.24724,0.3465
-0,0,0,5,5,5,5,1.80463,0.25941,69.28,-0.00241841,-0.00264927,-0.000567281,0,0,0,3.535,-0.0525,-1.33,-0.038186,-0.02196,-1.01272,-0.1624,-0.24724,0.3465
-0,0,0,5,5,5,5,1.80826,0.257238,69.2859,-0.0023805,-0.00258598,-0.000569106,0,0,0,3.535,-0.0525,-1.33,-0.038186,-0.02196,-1.01272,-0.1624,-0.24724,0.3465
-0,0,0,5,5,5,5,1.80914,0.254361,69.2929,-0.00293771,-0.000982897,-0.000569369,0,0,0,3.4825,0.0875,-1.3825,-0.038796,-0.020374,-1.01272,-0.1624,-0.24724,0.3465
-0,0,0,5,5,5,5,1.8084,0.255712,69.2998,0.0012907,0.000591802,-0.00118381,0,0,0,3.4825,0.0875,-1.3825,-0.034526,-0.018788,-1.01333,-0.1624,-0.24724,0.3465
-0,0,0,5,5,5,5,1.80767,0.256919,69.3068,0.00126965,0.000579127,-0.0011835,0,0,0,3.4825,0.0175,-1.33,-0.034526,-0.018788,-1.01333,-0.1624,-0.24724,0.3465
-0,0,0,5,5,5,5,1.80753,0.255633,69.3138,-0.00113763,-3.38905e-05,0.00262808,0,0,0,3.4475,-0.0175,-1.33,-0.036966,-0.019398,-1.00955,-0.1624,-0.24724,0.3465
-0,0,0,5,5,5,5,1.8076,0.254219,69.3225,-0.00111295,-3.28291e-05,0.00262815,0,0,0,3.5525,-0.105,-1.2425,-0.036966,-0.019398,-1.00955,-0.16268,-0.2506,0.3493
-0,0,0,5,5,5,5,1.80957,0.254678,69.3297,0.000215379,-0.00121958,0.00176639,0,0,0,3.4475,0,-1.295,-0.035624,-0.020618,-1.0104,-0.16268,-0.2506,0.3493
-0,0,0,5,5,5,5,1.81125,0.25556,69.3372,0.000199992,-0.00119035,0.0017654,0,0,0,3.3075,0.2625,-1.12,-0.035624,-0.020618,-1.0104,-0.16268,-0.2506,0.3493
-0,0,0,5,5,5,5,1.81019,0.255665,69.3457,-0.000166298,0.000623142,0.00791339,0,0,0,3.255,0.2275,-1.2075,-0.03599,-0.018788,-1.0043,-0.16268,-0.2506,0.3493
-0,0,0,5,5,5,5,1.80982,0.255394,69.3538,-0.00016157,0.000616626,0.00791362,0,0,0,3.6225,0,-1.4,-0.03599,-0.018788,-1.0043,-0.16268,-0.2506,0.3493
-0,0,0,5,5,5,5,1.81148,0.257114,69.3607,0.00163069,-0.000697816,-0.00339869,0,0,0,3.71,-0.0525,-1.3475,-0.03416,-0.02013,-1.01553,-0.16268,-0.2506,0.3493
-0,0,0,5,5,5,5,1.81244,0.258758,69.3678,0.00160201,-0.00068116,-0.00339935,0,0,0,3.3425,-0.07,-1.19,-0.03416,-0.02013,-1.01553,-0.16268,-0.2506,0.3493
-0,0,0,5,5,5,5,1.80937,0.256675,69.3771,-0.0012773,0.00170795,0.00361057,0,0,0,3.3425,-0.175,-1.2075,-0.037088,-0.01769,-1.00857,-0.16268,-0.2506,0.3493
-0,0,0,5,5,5,5,1.8068,0.25506,69.3823,-0.00124912,0.00166315,0.00361211,0,0,0,3.57,0.07,-1.225,-0.037088,-0.01769,-1.00857,-0.1645,-0.24766,0.34776
-0,0,0,5,5,5,5,1.80771,0.257481,69.3852,0.0023532,-0.000275156,0.000414765,0,0,0,3.465,-0.07,-1.19,-0.033428,-0.019642,-1.01175,-0.1645,-0.24766,0.34776
-0,0,0,5,5,5,5,1.80867,0.260223,69.3877,0.00230534,-0.000258403,0.00041402,0,0,0,3.5175,0.14,-1.4,-0.033428,-0.019642,-1.01175,-0.1645,-0.24766,0.34776
-0,0,0,5,5,5,5,1.80823,0.259288,69.3913,-0.000836955,0.000344636,0.00606996,0,0,0,3.4825,0.0175,-1.4175,-0.0366,-0.019032,-1.00613,-0.1645,-0.24766,0.34776
-0,0,0,5,5,5,5,1.80784,0.258334,69.395,-0.00082032,0.000337864,0.00607025,0,0,0,3.5,0,-1.295,-0.0366,-0.019032,-1.00613,-0.1645,-0.24766,0.34776
-0,0,0,5,5,5,5,1.80819,0.256097,69.3986,-0.00211761,-0.000755141,-0.00216731,0,0,0,3.3425,-0.0175,-1.26,-0.037942,-0.02013,-1.01431,-0.1645,-0.24766,0.34776
-0,0,0,5,5,5,5,1.80917,0.253719,69.4021,-0.0020761,-0.000738138,-0.00216767,0,0,0,3.6925,-0.1225,-1.225,-0.037942,-0.02013,-1.01431,-0.1645,-0.24766,0.34776
-0,0,0,5,5,5,5,1.80919,0.251591,69.4058,-0.0016745,-4.95409e-06,0.000783249,0,0,0,3.675,-0.1575,-1.3475,-0.037576,-0.019398,-1.01138,-0.1645,-0.24766,0.34776
-0,0,0,5,5,5,5,1.80857,0.249829,69.4089,-0.00164377,-1.58588e-05,0.000783728,0,0,0,3.3075,0.035,-1.33,-0.037576,-0.019398,-1.01138,-0.16604,-0.25018,0.35084
-0,0,0,5,5,5,5,1.80791,0.251285,69.4118,0.00148946,0.000461196,0.00373474,0,0,0,3.255,-0.0175,-1.12,-0.034404,-0.01891,-1.00845,-0.16604,-0.25018,0.35084
-0,0,0,5,5,5,5,1.80727,0.252715,69.4147,0.0014645,0.00044996,0.00373499,0,0,0,3.255,-0.0175,-1.12,-0.034404,-0.01891,-1.00845,-0.16604,-0.25018,0.35084
-0,0,0,5,5,5,5,1.80673,0.252614,69.4176,0.000372889,0.000684895,0.00840733,0,0,0,3.5175,-0.2275,-1.2775,-0.035502,-0.018666,-1.00382,-0.16604,-0.25018,0.35084
-0,0,0,5,5,5,5,1.80621,0.252517,69.4205,0.000374588,0.000675832,0.00840762,0,0,0,3.5175,-0.2275,-1.2775,-0.035502,-0.018666,-1.00382,-0.16604,-0.25018,0.35084
-0,0,0,5,5,5,5,1.80715,0.254961,69.4224,0.00215422,-0.000284846,0.0022595,0,0,0,3.4475,0.0525,-1.26,-0.033672,-0.019642,-1.00992,-0.16604,-0.25018,0.35084
-0,0,0,5,5,5,5,1.80805,0.257356,69.4242,0.00211241,-0.000269098,0.00225881,0,0,0,3.4475,0.0525,-1.26,-0.033672,-0.019642,-1.00992,-0.16604,-0.25018,0.35084
-0,0,0,5,5,5,5,1.80742,0.258641,69.4265,0.00136106,0.000574691,0.00951302,0,0,0,3.22,-0.07,-1.3125,-0.034404,-0.018788,-1.00272,-0.16604,-0.25018,0.35084
-0,0,0,5,5,5,5,1.8046,0.256329,69.44,-0.00187868,0.00138049,0.00349028,0,0,0,3.255,0.0175,-1.26,-0.037698,-0.017934,-1.0087,-0.15904,-0.25116,0.35322
-0,0,0,5,5,5,5,1.80193,0.254011,69.4533,-0.00183823,0.00133393,0.00349192,0,0,0,3.29,-0.0175,-1.295,-0.037698,-0.017934,-1.0087,-0.15904,-0.25116,0.35322
-0,0,0,5,5,5,5,1.80034,0.256221,69.4655,0.00176776,0.00118394,0.0016484,0,0,0,3.395,0.35,-1.2425,-0.034038,-0.018056,-1.01053,-0.15904,-0.25116,0.35322
-0,0,0,5,5,5,5,1.79878,0.258396,69.4775,0.0017298,0.00115669,0.00164908,0,0,0,3.395,0.35,-1.2425,-0.034038,-0.018056,-1.01053,-0.15904,-0.25116,0.35322
-0,0,0,5,5,5,5,1.7973,0.258275,69.4898,3.1114e-05,0.000886694,0.00374003,0,0,0,3.3425,0.035,-1.155,-0.035746,-0.0183,-1.00845,-0.15904,-0.25116,0.35322
-0,0,0,5,5,5,5,1.7977,0.260326,69.5006,0.0018176,-0.000205473,0.00226426,0,0,0,3.2725,0.0525,-1.26,-0.033916,-0.019398,-1.00992,-0.15904,-0.25116,0.35322
-0,0,0,5,5,5,5,1.79818,0.262669,69.5112,0.00177671,-0.000197181,0.00226382,0,0,0,3.325,0.245,-1.3125,-0.033916,-0.019398,-1.00992,-0.15904,-0.25116,0.35322
-0,0,0,5,5,5,5,1.79579,0.260997,69.5236,-0.0015957,0.00134887,0.00546192,0,0,0,3.3775,0.1925,-1.26,-0.037332,-0.017812,-1.00674,-0.15904,-0.25116,0.35322
-0,0,0,5,5,5,5,1.79318,0.258725,69.5277,-0.00155605,0.00130332,0.00546352,0,0,0,3.22,-0.175,-1.155,-0.037332,-0.017812,-1.00674,-0.16506,-0.24976,0.3472
-0,0,0,5,5,5,5,1.79355,0.258242,69.5303,3.16972e-05,-0.000277913,0.00337323,0,0,0,3.36,-0.315,-1.155,-0.035746,-0.019398,-1.00882,-0.16506,-0.24976,0.3472
-0,0,0,5,5,5,5,1.79409,0.258162,69.5326,3.30918e-05,-0.000268388,0.00337294,0,0,0,3.465,-0.0875,-1.295,-0.035746,-0.019398,-1.00882,-0.16506,-0.24976,0.3472
-0,0,0,5,5,5,5,1.79326,0.255984,69.536,-0.00187267,0.000449916,0.00202113,0,0,0,3.5875,-0.0175,-1.295,-0.037698,-0.018666,-1.01016,-0.16506,-0.24976,0.3472
-0,0,0,5,5,5,5,1.79225,0.254154,69.5391,-0.00184074,0.000432153,0.00202183,0,0,0,3.465,0.1575,-1.4175,-0.037698,-0.018666,-1.01016,-0.16506,-0.24976,0.3472
-0,0,0,5,5,5,5,1.79315,0.255589,69.5406,0.00104988,-0.000651271,0.00312776,0,0,0,3.22,0.105,-1.435,-0.03477,-0.019764,-1.00906,-0.16506,-0.24976,0.3472
-0,0,0,5,5,5,5,1.7948,0.25696,69.5421,0.00102596,-0.000622442,0.00312675,0,0,0,3.6575,0.0875,-1.365,-0.03477,-0.019764,-1.00906,-0.16506,-0.24976,0.3472
-0,0,0,5,5,5,5,1.79589,0.258007,69.5438,0.000764716,-0.000359135,0.00386377,0,0,0,3.5875,0.0875,-1.4525,-0.035014,-0.01952,-1.00833,-0.16506,-0.24976,0.3472
-0,0,0,5,5,5,5,1.79663,0.25899,69.5519,0.000747545,-0.000346184,0.00386328,0,0,0,3.4125,0.07,-1.3125,-0.035014,-0.01952,-1.00833,-0.161,-0.25186,0.35294
-0,0,0,5,5,5,5,1.80001,0.261643,69.5586,0.00203758,-0.00199702,-0.000810822,0,0,0,3.43,0.07,-1.2775,-0.033672,-0.021228,-1.01297,-0.161,-0.25186,0.35294
-0,0,0,5,5,5,5,1.80351,0.264469,69.5654,0.00198828,-0.00193598,-0.000812968,0,0,0,3.5525,0.21,-1.1725,-0.033672,-0.021228,-1.01297,-0.161,-0.25186,0.35294
-0,0,0,5,5,5,5,1.80316,0.263054,69.5744,-0.00151012,0.000256217,0.00115451,0,0,0,3.6575,0.175,-1.26,-0.03721,-0.019032,-1.01101,-0.161,-0.25186,0.35294
-0,0,0,5,5,5,5,1.80267,0.261283,69.5831,-0.00147921,0.000247645,0.00115492,0,0,0,3.57,-0.0525,-1.33,-0.03721,-0.019032,-1.01101,-0.161,-0.25186,0.35294
-0,0,0,5,5,5,5,1.80582,0.262159,69.5898,0.00044928,-0.00189577,0.00447274,0,0,0,3.4125,0,-1.26,-0.035258,-0.021228,-1.00772,-0.161,-0.25186,0.35294
-0,0,0,5,5,5,5,1.80916,0.263214,69.5964,0.000430861,-0.00183752,0.00447081,0,0,0,3.57,0.1225,-1.225,-0.035258,-0.021228,-1.00772,-0.161,-0.25186,0.35294
-0,0,0,5,5,5,5,1.8065,0.264071,69.6055,0.00102333,0.00165784,-0.00536367,0,0,0,3.4825,0.14,-1.2425,-0.034648,-0.01769,-1.01748,-0.161,-0.25186,0.35294
-0,0,0,5,5,5,5,1.80357,0.264832,69.6145,0.00101004,0.00160671,-0.00536212,0,0,0,3.29,0.0875,-1.2425,-0.034648,-0.01769,-1.01748,-0.161,-0.25186,0.35294
-0,0,0,5,5,5,5,1.80433,0.264873,69.6209,-0.000327017,-0.000578376,0.00189142,0,0,0,3.395,0.175,-1.33,-0.03599,-0.019886,-1.01028,-0.1631,-0.25466,0.3479
-0,0,0,5,5,5,5,1.80367,0.263546,69.6281,-0.00176167,0.000265089,0.00287547,0,0,0,3.4825,0.3675,-1.3825,-0.037454,-0.019032,-1.00931,-0.1631,-0.25466,0.3479
-0,0,0,5,5,5,5,1.80298,0.262086,69.6355,-0.0017362,0.000252987,0.00287597,0,0,0,3.4475,0.28,-1.2075,-0.037454,-0.019032,-1.00931,-0.1631,-0.25466,0.3479
-0,0,0,5,5,5,5,1.80153,0.2575,69.6436,-0.00457181,0.000227659,0.00250829,0,0,0,3.3425,0.2275,-1.2075,-0.040382,-0.019032,-1.00967,-0.1631,-0.25466,0.3479
-0,0,0,5,5,5,5,1.80035,0.25319,69.6513,-0.0044966,0.000207077,0.00250927,0,0,0,3.465,0.3325,-1.3475,-0.040382,-0.019032,-1.00967,-0.1631,-0.25466,0.3479
-0,0,0,5,5,5,5,1.79988,0.25268,69.6582,-0.000843121,0.0004433,0.00214071,0,0,0,3.6575,0.2975,-1.365,-0.036722,-0.018788,-1.01004,-0.1631,-0.25466,0.3479
-0,0,0,5,5,5,5,1.79922,0.251734,69.6649,-0.000826611,0.000431702,0.00214115,0,0,0,3.535,0.035,-1.3825,-0.036722,-0.018788,-1.01004,-0.1631,-0.25466,0.3479
-0,0,0,5,5,5,5,1.797,0.249638,69.6725,-0.00176191,0.00124785,0.00509329,0,0,0,3.4125,0.035,-1.33,-0.037698,-0.017934,-1.00711,-0.1631,-0.25466,0.3479
-0,0,0,5,5,5,5,1.79485,0.247376,69.6784,-0.00172244,0.0012103,0.00509464,0,0,0,3.4125,-0.0875,-1.2775,-0.037698,-0.017934,-1.00711,-0.1624,-0.25018,0.34524
-0,0,0,5,5,5,5,1.79357,0.247145,69.6836,0.000346852,0.000943761,0.00497241,0,0,0,3.43,-0.2275,-1.2425,-0.035624,-0.018178,-1.00723,-0.1624,-0.25018,0.34524
-0,0,0,5,5,5,5,1.7927,0.247314,69.6887,0.000343912,0.000928607,0.00497287,0,0,0,3.64,0,-1.295,-0.035624,-0.018178,-1.00723,-0.1624,-0.25018,0.34524
-0,0,0,5,5,5,5,1.79356,0.247285,69.6931,-0.000263023,-0.000155446,0.00300522,0,0,0,3.78,0.14,-1.3125,-0.036234,-0.019276,-1.00918,-0.1624,-0.25018,0.34524
-0,0,0,5,5,5,5,1.79409,0.24714,69.6973,-0.000260484,-0.000146215,0.00300494,0,0,0,3.605,0.07,-1.4,-0.036234,-0.019276,-1.00918,-0.1624,-0.25018,0.34524
-0,0,0,5,5,5,5,1.79327,0.245933,69.7024,-0.00108983,0.000572255,0.0012842,0,0,0,3.6225,0.07,-1.3125,-0.037088,-0.018544,-1.01089,-0.1624,-0.25018,0.34524
-0,0,0,5,5,5,5,1.79217,0.244908,69.7072,-0.00107193,0.000552958,0.00128488,0,0,0,3.4475,0.1575,-1.435,-0.037088,-0.018544,-1.01089,-0.1624,-0.25018,0.34524
-0,0,0,5,5,5,5,1.79504,0.245044,69.71,-0.000223896,-0.00208368,0.002021,0,0,0,3.255,-0.0175,-1.3475,-0.036234,-0.021228,-1.01016,-0.1624,-0.25018,0.34524
-0,0,0,5,5,5,5,1.79784,0.245168,69.713,-0.000226059,-0.00203483,0.00201945,0,0,0,3.255,-0.0175,-1.3475,-0.036234,-0.021228,-1.01016,-0.16212,-0.2499,0.34258
-0,0,0,5,5,5,5,1.79714,0.248679,69.7175,0.00347871,0.000883973,0.000175346,0,0,0,3.465,0.035,-1.1025,-0.032452,-0.0183,-1.01199,-0.16212,-0.2499,0.34258
-0,0,0,5,5,5,5,1.79645,0.252129,69.722,0.0034185,0.00087185,0.000175463,0,0,0,3.465,0.035,-1.1025,-0.032452,-0.0183,-1.01199,-0.16212,-0.2499,0.34258
-0,0,0,5,5,5,5,1.79475,0.250103,69.7276,-0.0018915,0.00108648,0.00779935,0,0,0,3.5,0.1225,-1.1725,-0.03782,-0.018056,-1.00443,-0.16212,-0.2499,0.34258
-0,0,0,5,5,5,5,1.7931,0.248119,69.7332,-0.00185689,0.00105777,0.0078004,0,0,0,3.5,0.1225,-1.1725,-0.03782,-0.018056,-1.00443,-0.16212,-0.2499,0.34258
-0,0,0,5,5,5,5,1.79382,0.245997,69.7372,-0.0023058,-0.000639428,0.00374287,0,0,0,3.5,0.1225,-1.4875,-0.038308,-0.019764,-1.00845,-0.16212,-0.2499,0.34258
-0,0,0,5,5,5,5,1.79453,0.243911,69.7412,-0.00226939,-0.00062706,0.00374264,0,0,0,3.5,0.1225,-1.4875,-0.038308,-0.019764,-1.00845,-0.16212,-0.2499,0.34258
-0,0,0,5,5,5,5,1.79666,0.245753,69.7443,0.0017075,-0.00120052,-0.00080776,0,0,0,3.465,-0.0875,-1.19,-0.034282,-0.020374,-1.01297,-0.16212,-0.2499,0.34258
-0,0,0,5,5,5,5,1.79873,0.247553,69.7469,0.00167608,-0.00116442,-0.000809028,0,0,0,3.465,-0.0875,-1.19,-0.034282,-0.020374,-1.01297,-0.1624,-0.24976,0.34202
-0,0,0,5,5,5,5,1.79388,0.251427,69.7521,0.00428115,0.00339177,-0.00105257,0,0,0,3.2725,0.07,-1.1375,-0.031598,-0.015738,-1.01321,-0.1624,-0.24976,0.34202
-0,0,0,5,5,5,5,1.78915,0.255248,69.7573,0.00421447,0.00330916,-0.00105028,0,0,0,3.2725,0.07,-1.1375,-0.031598,-0.015738,-1.01321,-0.1624,-0.24976,0.34202
-0,0,0,5,5,5,5,1.78867,0.258212,69.7608,0.00294787,0.000613943,0.00214642,0,0,0,3.36,0,-1.1025,-0.032818,-0.018422,-1.01004,-0.1624,-0.24976,0.34202
-0,0,0,5,5,5,5,1.78402,0.254736,69.7669,-0.00257979,0.0024869,0.00928023,0,0,0,3.1325,-0.1225,-1.1025,-0.03843,-0.01647,-1.00296,-0.1624,-0.24976,0.34202
-0,0,0,5,5,5,5,1.77947,0.25146,69.773,-0.00252262,0.00240765,0.00928295,0,0,0,3.115,-0.0525,-1.12,-0.03843,-0.01647,-1.00296,-0.1624,-0.24976,0.34202
-0,0,0,5,5,5,5,1.78359,0.249159,69.7749,-0.00272543,-0.00289418,0.0082973,0,0,0,3.3425,-0.0175,-1.33,-0.038674,-0.021838,-1.00394,-0.1624,-0.24976,0.34202
-0,0,0,5,5,5,5,1.78782,0.247,69.777,-0.00268776,-0.00282039,0.00829516,0,0,0,3.465,0.0525,-1.2425,-0.038674,-0.021838,-1.00394,-0.1624,-0.24976,0.34202
-0,0,0,5,5,5,5,1.79397,0.245489,69.7704,-0.00205396,-0.00405647,0.00435757,0,0,0,3.5175,-0.0875,-1.19,-0.038064,-0.02318,-1.00784,-0.168,-0.24864,0.34314
-0,0,0,5,5,5,5,1.79965,0.244252,69.764,-0.00203236,-0.00395735,0.00435455,0,0,0,3.3425,0.07,-1.155,-0.038064,-0.02318,-1.00784,-0.168,-0.24864,0.34314
-0,0,0,5,5,5,5,1.79914,0.248145,69.7592,0.00360951,0.000918826,0.0039857,0,0,0,3.465,0.14,-1.33,-0.03233,-0.0183,-1.00821,-0.168,-0.24864,0.34314
-0,0,0,5,5,5,5,1.79846,0.249605,69.755,0.00151877,0.000784761,0.00792031,0,0,0,3.395,-0.0175,-1.26,-0.034404,-0.018422,-1.0043,-0.168,-0.24864,0.34314
-0,0,0,5,5,5,5,1.79772,0.250783,69.7504,0.00149821,0.000771932,0.00792062,0,0,0,3.36,-0.175,-1.47,-0.034404,-0.018422,-1.0043,-0.168,-0.24864,0.34314
-0,0,0,5,5,5,5,1.80167,0.253312,69.7437,0.00218299,-0.00209025,0.00656583,0,0,0,3.43,-0.1575,-1.47,-0.033672,-0.02135,-1.00565,-0.168,-0.24864,0.34314
-0,0,0,5,5,5,5,1.80575,0.256191,69.7373,0.00213275,-0.00201901,0.00656337,0,0,0,3.57,0.0875,-1.33,-0.033672,-0.02135,-1.00565,-0.168,-0.24864,0.34314
-0,0,0,5,5,5,5,1.80306,0.251548,69.7352,-0.00398199,0.00135351,-0.000934651,0,0,0,3.6575,-0.035,-1.3125,-0.039894,-0.017934,-1.01309,-0.168,-0.24864,0.34314
-0,0,0,5,5,5,5,1.80039,0.247269,69.7463,-0.00390731,0.00130707,-0.000932865,0,0,0,3.605,0.1225,-1.0675,-0.039894,-0.017934,-1.01309,-0.16044,-0.25438,0.34482
-0,0,0,5,5,5,5,1.80218,0.247749,69.7544,0.000336311,-0.00122641,-0.000196191,0,0,0,3.395,-0.035,-1.085,-0.035624,-0.020496,-1.01236,-0.16044,-0.25438,0.34482
-0,0,0,5,5,5,5,1.80386,0.248124,69.7624,0.000329765,-0.00119717,-0.00019714,0,0,0,3.36,-0.0875,-1.085,-0.035624,-0.020496,-1.01236,-0.16044,-0.25438,0.34482
-0,0,0,5,5,5,5,1.80556,0.248545,69.7702,0.000200938,-0.00104527,0.00484278,0,0,0,3.3775,0,-1.1375,-0.035746,-0.020374,-1.00735,-0.16044,-0.25438,0.34482
-0,0,0,5,5,5,5,1.80722,0.249222,69.7779,0.000189114,-0.00101632,0.00484181,0,0,0,3.3775,0.1575,-1.1725,-0.035746,-0.020374,-1.00735,-0.16044,-0.25438,0.34482
-0,0,0,5,5,5,5,1.80452,0.247497,69.7876,-0.00148157,0.00150119,0.00435164,0,0,0,3.3425,0.105,-1.2075,-0.037454,-0.017812,-1.00784,-0.16044,-0.25438,0.34482
-0,0,0,5,5,5,5,1.80196,0.245725,69.7972,-0.00145064,0.00145647,0.00435318,0,0,0,3.3775,0.0525,-1.2425,-0.037454,-0.017812,-1.00784,-0.16044,-0.25438,0.34482
-0,0,0,5,5,5,5,1.80133,0.246421,69.8055,0.000845433,0.000468452,-0.000441519,0,0,0,3.465,-0.0175,-1.2425,-0.035136,-0.018788,-1.0126,-0.16044,-0.25438,0.34482
-0,0,0,5,5,5,5,1.80084,0.247373,69.8084,0.000828817,0.00045998,-0.000441324,0,0,0,3.535,0.14,-1.155,-0.035136,-0.018788,-1.0126,-0.16324,-0.25102,0.34678
-0,0,0,5,5,5,5,1.79964,0.249634,69.8113,0.00224719,0.00129385,0.004723,0,0,0,3.5525,0.0875,-1.2425,-0.033672,-0.017934,-1.00748,-0.16324,-0.25102,0.34678
-0,0,0,5,5,5,5,1.79861,0.251767,69.8141,0.00220996,0.00127598,0.0047234,0,0,0,3.64,0.035,-1.225,-0.033672,-0.017934,-1.00748,-0.16324,-0.25102,0.34678
-0,0,0,5,5,5,5,1.80095,0.251495,69.8159,-0.000822438,-0.00161433,-0.000810541,0,0,0,3.5175,0.1925,-1.2075,-0.036722,-0.020862,-1.01297,-0.16324,-0.25102,0.34678
-0,0,0,5,5,5,5,1.80316,0.250953,69.8175,-0.000812979,-0.00157575,-0.000811713,0,0,0,3.4825,0.035,-1.2425,-0.036722,-0.020862,-1.01297,-0.16324,-0.25102,0.34678
-0,0,0,5,5,5,5,1.80181,0.252276,69.82,0.00135067,0.00108745,0.00681173,0,0,0,3.3425,0.0525,-1.4,-0.034526,-0.018178,-1.0054,-0.16324,-0.25102,0.34678
-0,0,0,5,5,5,5,1.80052,0.253417,69.8229,0.00133076,0.00106499,0.00681235,0,0,0,3.36,-0.035,-1.155,-0.034526,-0.018178,-1.0054,-0.16324,-0.25102,0.34678
-0,0,0,5,5,5,5,1.79947,0.250804,69.8262,-0.0023897,0.000558124,0.00730492,0,0,0,3.465,0.0175,-1.225,-0.038308,-0.018666,-1.00491,-0.16324,-0.25102,0.34678
-0,0,0,5,5,5,5,1.79848,0.248223,69.8313,-0.00234465,0.000540981,0.00730566,0,0,0,3.4825,0,-1.3825,-0.038308,-0.018666,-1.00491,-0.16156,-0.25074,0.34412
-0,0,0,5,5,5,5,1.79564,0.249405,69.8364,0.00164376,0.00207903,0.00202034,0,0,0,3.465,-0.0525,-1.4,-0.034282,-0.01708,-1.01016,-0.16156,-0.25074,0.34412
-0,0,0,5,5,5,5,1.79299,0.250806,69.8417,0.0016193,0.00203287,0.00202168,0,0,0,3.535,0.0875,-1.26,-0.034282,-0.01708,-1.01016,-0.16156,-0.25074,0.34412
-0,0,0,5,5,5,5,1.79598,0.252487,69.8445,0.00110402,-0.00157881,0.00521658,0,0,0,3.5175,0.105,-1.2425,-0.03477,-0.02074,-1.00699,-0.16156,-0.25074,0.34412
-0,0,0,5,5,5,5,1.79895,0.254536,69.8475,0.00106826,-0.00152706,0.0052148,0,0,0,3.5525,0.35,-1.085,-0.03477,-0.02074,-1.00699,-0.16156,-0.25074,0.34412
-0,0,0,5,5,5,5,1.79621,0.256454,69.8528,0.00152072,0.00208902,0.00435551,0,0,0,3.4825,0.4375,-1.19,-0.034282,-0.01708,-1.00784,-0.16156,-0.25074,0.34412
-0,0,0,5,5,5,5,1.79354,0.258347,69.858,0.00148768,0.00204245,0.00435682,0,0,0,3.4825,0.4375,-1.19,-0.034282,-0.01708,-1.00784,-0.16156,-0.25074,0.34412
-0,0,0,5,5,5,5,1.79481,0.258522,69.8617,-0.000216167,-0.00074432,0.00669213,0,0,0,3.395,0.14,-1.1025,-0.03599,-0.019886,-1.00552,-0.16156,-0.25074,0.34412
-0,0,0,5,5,5,5,1.79605,0.258689,69.8667,-0.000219078,-0.000722777,0.00669144,0,0,0,3.395,0.14,-1.1025,-0.03599,-0.019886,-1.00552,-0.1617,-0.2534,0.34944
-0,0,0,5,5,5,5,1.79296,0.26266,69.8729,0.0040851,0.00252071,0.00128308,0,0,0,3.4475,0.14,-1.0675,-0.031598,-0.016592,-1.01089,-0.1617,-0.2534,0.34944
-0,0,0,5,5,5,5,1.78993,0.26657,69.8791,0.00401686,0.00246797,0.00128442,0,0,0,3.4475,0.14,-1.0675,-0.031598,-0.016592,-1.01089,-0.1617,-0.2534,0.34944
-0,0,0,5,5,5,5,1.78992,0.264101,69.885,-0.00286474,-9.70179e-05,-0.00240383,0,0,0,3.78,0.35,-1.26,-0.038552,-0.019154,-1.01455,-0.1617,-0.2534,0.34944
-0,0,0,5,5,5,5,1.78991,0.261678,69.8908,-0.00282244,-9.71882e-05,-0.00240363,0,0,0,3.78,0.35,-1.26,-0.038552,-0.019154,-1.01455,-0.1617,-0.2534,0.34944
-0,0,0,5,5,5,5,1.79355,0.262054,69.8947,-0.000520775,-0.00198768,-0.000192574,0,0,0,3.8675,0.3325,-1.19,-0.036234,-0.021106,-1.01236,-0.1617,-0.2534,0.34944
-0,0,0,5,5,5,5,1.79709,0.26241,69.8985,-0.000526996,-0.00192584,-0.000194541,0,0,0,3.8675,0.3325,-1.19,-0.036234,-0.021106,-1.01236,-0.1617,-0.2534,0.34944
-0,0,0,5,5,5,5,1.79672,0.263582,69.9038,0.000667411,0.000265999,-0.000932123,0,0,0,3.465,0.35,-1.0675,-0.035014,-0.01891,-1.01309,-0.1617,-0.2534,0.34944
-0,0,0,5,5,5,5,1.79636,0.264734,69.9089,0.000647308,0.000259653,-0.000932017,0,0,0,3.465,0.35,-1.0675,-0.035014,-0.01891,-1.01309,-0.1617,-0.2534,0.34944
-0,0,0,5,5,5,5,1.79866,0.261125,69.9109,-0.0036632,-0.00177642,0.00755046,0,0,0,3.4475,-0.07,-1.3475,-0.039406,-0.020984,-1.00467,-0.16184,-0.2499,0.34818
-0,0,0,5,5,5,5,1.79917,0.260091,69.9133,-0.00109395,-0.00066834,-0.00228562,0,0,0,3.395,0.035,-1.33,-0.036844,-0.019886,-1.01443,-0.16184,-0.2499,0.34818
-0,0,0,5,5,5,5,1.79488,0.258412,69.918,-0.00118613,0.0025543,0.000790573,0,0,0,3.4125,0.0875,-1.2075,-0.036966,-0.016592,-1.01138,-0.16184,-0.2499,0.34818
-0,0,0,5,5,5,5,1.79068,0.256572,69.9227,-0.00115401,0.00248104,0.000793011,0,0,0,3.395,-0.035,-1.2425,-0.036966,-0.016592,-1.01138,-0.16184,-0.2499,0.34818
-0,0,0,5,5,5,5,1.78752,0.25437,69.9268,-0.00172301,0.00144886,-0.00313945,0,0,0,3.255,0,-1.2425,-0.037576,-0.017568,-1.01528,-0.16184,-0.2499,0.34818
-0,0,0,5,5,5,5,1.78492,0.252394,69.9311,-0.00168853,0.00140346,-0.00313788,0,0,0,3.5175,0.105,-1.1725,-0.037576,-0.017568,-1.01528,-0.16184,-0.2499,0.34818
-0,0,0,5,5,5,5,1.78676,0.254109,69.9326,0.00119721,-0.000762621,0.00694276,0,0,0,3.535,0.1575,-1.26,-0.034648,-0.019764,-1.00528,-0.16184,-0.2499,0.34818
-0,0,0,5,5,5,5,1.78853,0.255912,69.9342,0.00116574,-0.000731872,0.00694166,0,0,0,3.5175,0.2275,-1.365,-0.034648,-0.019764,-1.00528,-0.16338,-0.25368,0.34958
-0,0,0,5,5,5,5,1.79136,0.258142,69.9351,0.00161275,-0.00153733,0.00239085,0,0,0,3.5,0.14,-1.365,-0.03416,-0.020618,-1.00979,-0.16338,-0.25368,0.34958
-0,0,0,5,5,5,5,1.79424,0.260194,69.9362,0.00157693,-0.00148713,0.00238912,0,0,0,3.57,0.07,-1.2075,-0.03416,-0.020618,-1.00979,-0.16338,-0.25368,0.34958
-0,0,0,5,5,5,5,1.79593,0.263672,69.9376,0.00309556,-0.000114198,0.0071829,0,0,0,3.78,0.0875,-1.3475,-0.032574,-0.019276,-1.00504,-0.16338,-0.25368,0.34958
-0,0,0,5,5,5,5,1.79735,0.266872,69.9388,0.0030397,-8.94572e-05,0.00718187,0,0,0,3.6575,-0.035,-1.365,-0.032574,-0.019276,-1.00504,-0.16338,-0.25368,0.34958
-0,0,0,5,5,5,5,1.79953,0.269121,69.94,0.00202856,-0.000784147,0.00324614,0,0,0,3.71,-0.0175,-1.33,-0.03355,-0.020008,-1.00894,-0.16338,-0.25368,0.34958
-0,0,0,5,5,5,5,1.80165,0.271585,69.9413,0.00198556,-0.000747194,0.00324477,0,0,0,3.71,0.14,-1.225,-0.03355,-0.020008,-1.00894,-0.16338,-0.25368,0.34958
-0,0,0,5,5,5,5,1.79577,0.272565,69.9464,0.00136102,0.00403531,-0.000563491,0,0,0,3.535,0.2625,-1.155,-0.03416,-0.015128,-1.01272,-0.16338,-0.25368,0.34958
-0,0,0,5,5,5,5,1.78989,0.273123,69.9516,0.0013513,0.00393268,-0.000560325,0,0,0,3.4475,0.0175,-1.015,-0.03416,-0.015128,-1.01272,-0.16338,-0.25368,0.34958
-0,0,0,5,5,5,5,1.78648,0.271512,69.96,-0.00105032,0.00216347,0.00386781,0,0,0,3.465,-0.0175,-1.0325,-0.0366,-0.016836,-1.00833,-0.15848,-0.24976,0.34748
-0,0,0,5,5,5,5,1.78756,0.273901,69.9655,0.0021881,-0.000626687,-0.00412463,0,0,0,3.43,0.0525,-1.2075,-0.033306,-0.019642,-1.01626,-0.15848,-0.24976,0.34748
-0,0,0,5,5,5,5,1.78894,0.276333,69.9709,0.00214566,-0.000602568,-0.00412558,0,0,0,3.6225,0.105,-1.2075,-0.033306,-0.019642,-1.01626,-0.15848,-0.24976,0.34748
-0,0,0,5,5,5,5,1.79043,0.276902,69.9764,7.04737e-05,-0.00069865,0.00398816,0,0,0,3.605,0.21,-1.295,-0.03538,-0.019764,-1.00821,-0.15848,-0.24976,0.34748
-0,0,0,5,5,5,5,1.7917,0.277486,69.9818,6.02873e-05,-0.000676587,0.00398742,0,0,0,3.5,0.2275,-1.295,-0.03538,-0.019764,-1.00821,-0.15848,-0.24976,0.34748
-0,0,0,5,5,5,5,1.7922,0.278119,69.9875,0.000170713,-0.000179338,-0.00093085,0,0,0,3.6225,0.28,-1.33,-0.035258,-0.019276,-1.01309,-0.15848,-0.24976,0.34748
-0,0,0,5,5,5,5,1.79228,0.278594,69.9931,0.000162437,-0.000177947,-0.000930934,0,0,0,3.395,0.1925,-1.3825,-0.035258,-0.019276,-1.01309,-0.15848,-0.24976,0.34748
-0,0,0,5,5,5,5,1.79221,0.277721,69.9928,-0.000915711,6.51467e-05,0.00361827,0,0,0,3.5175,0.07,-1.3125,-0.036356,-0.019032,-1.00857,-0.16394,-0.25074,0.34636
-0,0,0,5,5,5,5,1.79219,0.273668,69.9931,-0.0038821,-0.000179524,0.0053399,0,0,0,3.6225,0,-1.26,-0.039406,-0.019276,-1.00687,-0.16394,-0.25074,0.34636
-0,0,0,5,5,5,5,1.79215,0.269955,69.9934,-0.00381731,-0.000180229,0.00534023,0,0,0,3.605,0.1575,-1.2425,-0.039406,-0.019276,-1.00687,-0.16394,-0.25074,0.34636
-0,0,0,5,5,5,5,1.79088,0.266404,69.9944,-0.00375533,0.000530371,0.000915071,0,0,0,3.64,0.315,-1.2425,-0.039406,-0.018544,-1.01126,-0.16394,-0.25074,0.34636
-0,0,0,5,5,5,5,1.7894,0.262829,69.9954,-0.00369293,0.000504656,0.000916163,0,0,0,3.5,0.2625,-1.19,-0.039406,-0.018544,-1.01126,-0.16394,-0.25074,0.34636
-0,0,0,5,5,5,5,1.79531,0.266631,69.9919,0.00280093,-0.00342255,0.00349455,0,0,0,3.43,0.105,-1.19,-0.032818,-0.02257,-1.0087,-0.16394,-0.25074,0.34636
-0,0,0,5,5,5,5,1.80101,0.270165,69.9885,0.00273926,-0.00332304,0.00349114,0,0,0,3.4125,0,-1.1725,-0.032818,-0.02257,-1.0087,-0.16394,-0.25074,0.34636
-0,0,0,5,5,5,5,1.80174,0.267655,69.9882,-0.0025623,-0.000501432,0.00816299,0,0,0,3.535,0.035,-1.2425,-0.038186,-0.019764,-1.00406,-0.16394,-0.25074,0.34636
-0,0,0,5,5,5,5,1.80239,0.265241,69.9863,-0.00252018,-0.000490077,0.00816283,0,0,0,3.5,0.07,-1.155,-0.038186,-0.019764,-1.00406,-0.1645,-0.24892,0.3437
-0,0,0,5,5,5,5,1.80035,0.262866,69.9855,-0.00199278,0.00106198,-0.000934051,0,0,0,3.5175,0,-1.2425,-0.037698,-0.018178,-1.01309,-0.1645,-0.24892,0.3437
-0,0,0,5,5,5,5,1.79824,0.260537,69.9848,-0.00195212,0.0010253,-0.000932713,0,0,0,3.4475,0,-1.1725,-0.037698,-0.018178,-1.01309,-0.1645,-0.24892,0.3437
-0,0,0,5,5,5,5,1.79902,0.258492,69.9826,-0.00191643,-0.00030457,0.00816521,0,0,0,3.6575,-0.07,-1.365,-0.037698,-0.01952,-1.00406,-0.1645,-0.24892,0.3437
-0,0,0,5,5,5,5,1.79969,0.256301,69.9805,-0.0018782,-0.000292912,0.00816502,0,0,0,3.605,-0.175,-1.3475,-0.037698,-0.01952,-1.00406,-0.1645,-0.24892,0.3437
-0,0,0,5,5,5,5,1.79677,0.252084,69.9802,-0.00362688,0.00148811,-0.000562401,0,0,0,3.57,-0.035,-1.435,-0.039528,-0.01769,-1.01272,-0.1645,-0.24892,0.3437
-0,0,0,5,5,5,5,1.79394,0.248131,69.9799,-0.0035579,0.00143882,-0.000560555,0,0,0,3.57,0.07,-1.4175,-0.039528,-0.01769,-1.01272,-0.1645,-0.24892,0.3437
-0,0,0,5,5,5,5,1.79733,0.253391,69.9755,0.00436835,-0.00143315,0.00951897,0,0,0,3.3775,0.175,-1.3125,-0.031476,-0.020618,-1.00272,-0.1645,-0.24892,0.3437
-0,0,0,5,5,5,5,1.80092,0.258717,69.9715,0.0042754,-0.00137048,0.00951658,0,0,0,3.5525,0.28,-1.1725,-0.031476,-0.020618,-1.00272,-0.1645,-0.24892,0.3437
-0,0,0,5,5,5,5,1.80366,0.261806,69.9727,0.00239921,-0.0013227,0.00349036,0,0,0,3.5175,0.1925,-1.085,-0.033306,-0.020618,-1.0087,-0.16156,-0.25046,0.34496
-0,0,0,5,5,5,5,1.7987,0.234638,69.9822,-0.0261617,5.63415e-05,0.00841307,0,0,0,3.5175,0.21,-1.1025,-0.062464,-0.019154,-1.00382,-0.16156,-0.25046,0.34496
-0,0,0,5,5,5,5,1.79406,0.208193,69.9913,-0.0257002,-2.46397e-05,0.0084174,0,0,0,3.57,0.3325,-1.2075,-0.062464,-0.019154,-1.00382,-0.16156,-0.25046,0.34496
-0,0,0,5,5,5,5,1.79778,0.209493,69.9925,0.000518057,-0.00166948,0.0102595,0,0,0,3.78,0.21,-1.225,-0.036112,-0.020862,-1.00199,-0.16156,-0.25046,0.34496
-0,0,0,5,5,5,5,1.80143,0.210819,69.9936,0.000494913,-0.00160578,0.0102574,0,0,0,3.7975,0.245,-1.26,-0.036112,-0.020862,-1.00199,-0.16156,-0.25046,0.34496
-0,0,0,5,5,5,5,1.79804,0.212978,69.9973,0.00252249,0.00273167,0.00177569,0,0,0,3.605,0.07,-1.3125,-0.034038,-0.01647,-1.0104,-0.16156,-0.25046,0.34496
-0,0,0,5,5,5,5,1.7943,0.215046,70.0011,0.0024864,0.00266635,0.00177761,0,0,0,3.36,0.035,-1.2425,-0.034038,-0.01647,-1.0104,-0.16156,-0.25046,0.34496
-0,0,0,5,5,5,5,1.79425,0.215397,70.0038,0.000293535,-0.000143422,-0.000435463,0,0,0,3.325,0.0525,-1.1025,-0.036234,-0.019276,-1.0126,-0.16156,-0.25046,0.34496
-0,0,0,5,5,5,5,1.79442,0.215535,70.0043,0.000291119,-0.000140467,-0.000435565,0,0,0,3.4475,-0.07,-1.155,-0.036234,-0.019276,-1.0126,-0.16422,-0.25284,0.34874
-0,0,0,5,5,5,5,1.79493,0.218483,70.0043,0.00291236,-9.49558e-06,-0.00166552,0,0,0,3.4825,0,-1.1025,-0.03355,-0.019154,-1.01382,-0.16422,-0.25284,0.34874
-0,0,0,5,5,5,5,1.79553,0.221574,70.0037,0.0028584,1.07917e-06,-0.00166606,0,0,0,3.5525,0.105,-1.47,-0.03355,-0.019154,-1.01382,-0.16422,-0.25284,0.34874
-0,0,0,5,5,5,5,1.79781,0.224502,70.0021,0.00256434,-0.00105835,0.0062012,0,0,0,3.395,0,-1.5575,-0.033794,-0.020252,-1.00601,-0.16422,-0.25284,0.34874
-0,0,0,5,5,5,5,1.80018,0.227502,70.0011,0.00251197,-0.0010171,0.0061997,0,0,0,3.4825,0.0875,-1.26,-0.033794,-0.020252,-1.00601,-0.16422,-0.25284,0.34874
-0,0,0,5,5,5,5,1.80114,0.227701,70.0011,7.87909e-05,-0.000878073,-0.0022843,0,0,0,3.3425,0.0175,-1.155,-0.036234,-0.02013,-1.01443,-0.16422,-0.25284,0.34874
-0,0,0,5,5,5,5,1.8023,0.228044,70.001,7.28081e-05,-0.000857823,-0.00228496,0,0,0,3.465,0.105,-1.19,-0.036234,-0.02013,-1.01443,-0.16422,-0.25284,0.34874
-0,0,0,5,5,5,5,1.80575,0.229625,69.9999,0.00077413,-0.00226322,-0.00105748,0,0,0,3.43,0.2275,-1.12,-0.035502,-0.021594,-1.01321,-0.16422,-0.25284,0.34874
-0,0,0,5,5,5,5,1.80893,0.231072,70.0009,0.000748863,-0.00220775,-0.00105933,0,0,0,3.3425,0.175,-1.155,-0.035502,-0.021594,-1.01321,-0.1617,-0.2513,0.35574
-0,0,0,5,5,5,5,1.8106,0.233676,70.0025,0.00228273,-0.00083521,0.000537898,0,0,0,3.4475,0.07,-1.155,-0.033916,-0.020252,-1.01162,-0.1617,-0.2513,0.35574
-0,0,0,5,5,5,5,1.81235,0.236379,70.0039,0.00223555,-0.000804803,0.000536743,0,0,0,3.5175,0.1575,-1.19,-0.033916,-0.020252,-1.01162,-0.1617,-0.2513,0.35574
-0,0,0,5,5,5,5,1.80919,0.234542,70.0082,-0.00161992,0.00182691,-0.00290394,0,0,0,3.535,0.175,-1.225,-0.03782,-0.017568,-1.01504,-0.1617,-0.2513,0.35574
-0,0,0,5,5,5,5,1.80606,0.232511,70.0123,-0.00158448,0.00177228,-0.00290207,0,0,0,3.5,0.035,-1.26,-0.03782,-0.017568,-1.01504,-0.1617,-0.2513,0.35574
-0,0,0,5,5,5,5,1.8049,0.227839,70.0157,-0.0044186,-7.97826e-05,-0.00117983,0,0,0,3.3075,-0.0175,-1.365,-0.040748,-0.019398,-1.01333,-0.1617,-0.2513,0.35574
-0,0,0,5,5,5,5,1.80373,0.223256,70.019,-0.00433861,-0.00010024,-0.00117887,0,0,0,3.2725,-0.0175,-1.3825,-0.040748,-0.019398,-1.01333,-0.1617,-0.2513,0.35574
-0,0,0,5,5,5,5,1.80471,0.222054,70.0209,-0.00152346,-0.00106003,0.00164848,0,0,0,3.2725,0.1225,-1.3125,-0.037942,-0.020374,-1.01053,-0.1617,-0.2513,0.35574
-0,0,0,5,5,5,5,1.80589,0.220383,70.0154,-0.00149429,-0.00103954,0.00164795,0,0,0,3.395,-0.1575,-1.2075,-0.037942,-0.020374,-1.01053,-0.16716,-0.24962,0.3486
-0,0,0,5,5,5,5,1.80878,0.221028,70.0089,0.000316744,-0.00172183,0.00558067,0,0,0,3.4475,-0.0175,-1.19,-0.036112,-0.021106,-1.00662,-0.16716,-0.24962,0.3486
-0,0,0,5,5,5,5,1.8115,0.221991,70.0021,0.000299937,-0.00167437,0.0055791,0,0,0,3.395,0.175,-1.4,-0.036112,-0.021106,-1.00662,-0.16716,-0.24962,0.3486
-0,0,0,5,5,5,5,1.81444,0.222372,69.9955,-0.000314153,-0.00186744,0.00828232,0,0,0,3.3425,0.175,-1.295,-0.036722,-0.02135,-1.00394,-0.16716,-0.24962,0.3486
-0,0,0,5,5,5,5,1.81736,0.22253,69.9889,-0.000316909,-0.00181653,0.0082807,0,0,0,3.3775,0.0525,-1.33,-0.036722,-0.02135,-1.00394,-0.16716,-0.24962,0.3486
-0,0,0,5,5,5,5,1.81886,0.225713,69.9825,0.00290766,-0.000446809,0.00422234,0,0,0,3.5,0.035,-1.3825,-0.033428,-0.020008,-1.00796,-0.16716,-0.24962,0.3486
-0,0,0,5,5,5,5,1.82023,0.228893,69.9761,0.00285216,-0.000422994,0.00422137,0,0,0,3.4475,0.07,-1.3825,-0.033428,-0.020008,-1.00796,-0.16716,-0.24962,0.3486
-0,0,0,5,5,5,5,1.81947,0.227656,69.9714,-0.00101381,0.000174392,-0.00278619,0,0,0,3.4125,-0.035,-1.33,-0.037332,-0.019398,-1.01492,-0.16716,-0.24962,0.3486
-0,0,0,5,5,5,5,1.81849,0.226354,69.969,-0.000991067,0.00015722,-0.00278556,0,0,0,3.2725,-0.0875,-1.295,-0.037332,-0.019398,-1.01492,-0.16534,-0.24934,0.34398
-0,0,0,5,5,5,5,1.8156,0.224571,69.9673,-0.00108144,0.00108391,-0.00401332,0,0,0,3.045,-0.1925,-1.2425,-0.037454,-0.018422,-1.01614,-0.16534,-0.24934,0.34398
-0,0,0,5,5,5,5,1.81327,0.222827,69.9658,-0.001051,0.00104318,-0.00401191,0,0,0,3.3075,-0.1925,-1.1725,-0.037454,-0.018422,-1.01614,-0.16534,-0.24934,0.34398
-0,0,0,5,5,5,5,1.81475,0.225273,69.9623,0.00230791,-0.000396511,0.00705247,0,0,0,3.5175,-0.035,-1.1725,-0.034038,-0.019886,-1.00516,-0.16534,-0.24934,0.34398
-0,0,0,5,5,5,5,1.81618,0.227851,69.9587,0.00226292,-0.000371504,0.0070515,0,0,0,3.5175,0.07,-1.19,-0.034038,-0.019886,-1.00516,-0.16534,-0.24934,0.34398
-0,0,0,5,5,5,5,1.81527,0.229933,69.9565,0.00222658,0.00107812,0.00201097,0,0,0,3.5875,0.0175,-1.1025,-0.034038,-0.018422,-1.01016,-0.16534,-0.24934,0.34398
-0,0,0,5,5,5,5,1.81384,0.232282,69.9542,0.00218557,0.00105324,0.00201159,0,0,0,3.29,0.1925,-1.155,-0.034038,-0.018422,-1.01016,-0.16534,-0.24934,0.34398
-0,0,0,5,5,5,5,1.81313,0.231238,69.952,-0.0011978,-5.84317e-05,-0.00192229,0,0,0,3.2375,0.1575,-1.2075,-0.037454,-0.01952,-1.01406,-0.16534,-0.24934,0.34398
-0,0,0,5,5,5,5,1.81283,0.230012,69.9496,-0.00117641,-6.35135e-05,-0.00192204,0,0,0,3.465,0.035,-1.3125,-0.037454,-0.01952,-1.01406,-0.16534,-0.24934,0.34398
-0,0,0,5,5,5,5,1.81383,0.234383,69.9483,0.00421416,0.000198057,0.0059458,0,0,0,3.57,0,-1.4,-0.031964,-0.019276,-1.00626,-0.16394,-0.25074,0.34538
-0,0,0,5,5,5,5,1.81469,0.239025,69.9472,0.00413315,0.000213047,0.00594499,0,0,0,3.5175,0.21,-1.2775,-0.031964,-0.019276,-1.00626,-0.16394,-0.25074,0.34538
-0,0,0,5,5,5,5,1.81434,0.244262,69.9466,0.00501363,0.00118396,0.00791198,0,0,0,3.5175,0.1225,-1.2075,-0.030988,-0.0183,-1.0043,-0.16394,-0.25074,0.34538
-0,0,0,5,5,5,5,1.81398,0.248935,69.9458,0.00493207,0.0011777,0.00791182,0,0,0,3.5175,-0.1575,-1.3125,-0.030988,-0.0183,-1.0043,-0.16394,-0.25074,0.34538
-0,0,0,5,5,5,5,1.81384,0.252493,69.9452,0.00377659,0.000686663,0.00373138,0,0,0,3.465,-0.1225,-1.2425,-0.032086,-0.018788,-1.00845,-0.16394,-0.25074,0.34538
-0,0,0,5,5,5,5,1.81396,0.256292,69.9444,0.00371029,0.000688876,0.00373102,0,0,0,3.6225,0.0525,-1.33,-0.032086,-0.018788,-1.00845,-0.16394,-0.25074,0.34538
-0,0,0,5,5,5,5,1.81799,0.259252,69.942,0.00232229,-0.00204982,0.00262202,0,0,0,3.6575,0.0875,-1.3825,-0.033428,-0.021594,-1.00955,-0.16394,-0.25074,0.34538
-0,0,0,5,5,5,5,1.8219,0.262146,69.9396,0.00227179,-0.00198159,0.00261962,0,0,0,3.6575,0.0875,-1.3825,-0.033428,-0.021594,-1.00955,-0.16394,-0.25074,0.34538
-0,0,0,5,5,5,5,1.82384,0.265371,69.9379,0.00245847,-0.00084857,0.00520021,0,0,0,3.43,0.28,-1.365,-0.033184,-0.020496,-1.00699,-0.16422,-0.2513,0.34538
-0,0,0,5,5,5,5,1.82272,0.264061,69.9383,-0.00140621,0.000475155,-8.58485e-05,0,0,0,3.43,0.175,-1.33,-0.037088,-0.019154,-1.01223,-0.16422,-0.2513,0.34538
-0,0,0,5,5,5,5,1.82137,0.262413,69.9389,-0.00137744,0.000451738,-8.49713e-05,0,0,0,3.29,-0.035,-1.19,-0.037088,-0.019154,-1.01223,-0.16422,-0.2513,0.34538
-0,0,0,5,5,5,5,1.82627,0.263493,69.9364,0.000425992,-0.0028824,0.00950221,0,0,0,3.4475,0,-1.2075,-0.035258,-0.02257,-1.00272,-0.16422,-0.2513,0.34538
-0,0,0,5,5,5,5,1.83085,0.264631,69.9339,0.000406135,-0.00280255,0.00949956,0,0,0,3.3425,0.0525,-1.2775,-0.035258,-0.02257,-1.00272,-0.16422,-0.2513,0.34538
-0,0,0,5,5,5,5,1.8325,0.266131,69.9326,0.00123035,-0.000575518,0.00814609,0,0,0,3.5525,0.035,-1.3475,-0.034404,-0.020374,-1.00406,-0.16422,-0.2513,0.34538
-0,0,0,5,5,5,5,1.83431,0.267957,69.9313,0.00119849,-0.000543791,0.00814493,0,0,0,3.675,0.245,-1.33,-0.034404,-0.020374,-1.00406,-0.16422,-0.2513,0.34538
-0,0,0,5,5,5,5,1.83916,0.271614,69.9285,0.00295695,-0.00253546,0.00113385,0,0,0,3.675,0.07,-1.2775,-0.032574,-0.022448,-1.01101,-0.16422,-0.2513,0.34538
-0,0,0,5,5,5,5,1.84368,0.275122,69.9279,0.00289571,-0.00245653,0.00113102,0,0,0,3.57,0.035,-1.12,-0.032574,-0.022448,-1.01101,-0.16282,-0.25172,0.3409
-0,0,0,5,5,5,5,1.84749,0.274563,69.9282,-0.00110357,-0.00226804,0.00580097,0,0,0,3.64,0.07,-1.19,-0.0366,-0.022326,-1.00638,-0.16282,-0.25172,0.3409
-0,0,0,5,5,5,5,1.85085,0.273847,69.9286,-0.00109107,-0.00220935,0.00579914,0,0,0,3.4475,-0.0175,-1.1025,-0.0366,-0.022326,-1.00638,-0.16282,-0.25172,0.3409
-0,0,0,5,5,5,5,1.84922,0.272262,69.9311,-0.00142786,0.0008154,0.00358711,0,0,0,3.3425,0.0525,-1.1725,-0.036966,-0.019276,-1.00857,-0.16282,-0.25172,0.3409
-0,0,0,5,5,5,5,1.8478,0.27062,69.9336,-0.0013992,0.000790539,0.00358805,0,0,0,3.43,0,-1.155,-0.036966,-0.019276,-1.00857,-0.16282,-0.25172,0.3409
-0,0,0,5,5,5,5,1.84657,0.270069,69.936,-0.000174733,0.00101335,0.00813788,0,0,0,3.465,-0.105,-1.085,-0.035746,-0.019032,-1.00406,-0.16282,-0.25172,0.3409
-0,0,0,5,5,5,5,1.84547,0.269831,69.9384,-0.000170574,0.000994133,0.00813852,0,0,0,3.5175,0.07,-1.085,-0.035746,-0.019032,-1.00406,-0.16282,-0.25172,0.3409
-0,0,0,5,5,5,5,1.84749,0.26758,69.9397,-0.00256099,-0.00129095,0.0054327,0,0,0,3.6575,0.0875,-1.1375,-0.038186,-0.02135,-1.00674,-0.16282,-0.25172,0.3409
-0,0,0,5,5,5,5,1.8495,0.265063,69.939,-0.00251706,-0.00125598,0.00543178,0,0,0,3.675,-0.0875,-1.1725,-0.038186,-0.02135,-1.00674,-0.16282,-0.24822,0.3388
-0,0,0,5,5,5,5,1.84972,0.26512,69.9384,0.000397586,0.000213398,0.00457101,0,0,0,3.6225,-0.175,-1.2775,-0.035258,-0.019886,-1.0076,-0.16282,-0.24822,0.3388
-0,0,0,5,5,5,5,1.84968,0.265022,69.938,0.000399297,0.000212807,0.00457104,0,0,0,3.4825,-0.2625,-1.19,-0.035258,-0.019886,-1.0076,-0.16282,-0.24822,0.3388
-0,0,0,5,5,5,5,1.84937,0.260384,69.9384,-0.0042577,-0.000158946,0.00555517,0,0,0,3.5175,-0.14,-1.2425,-0.040016,-0.020252,-1.00662,-0.16282,-0.24822,0.3388
-0,0,0,5,5,5,5,1.84915,0.256101,69.9387,-0.00418294,-0.000162818,0.00555563,0,0,0,3.5525,0.0175,-1.2775,-0.040016,-0.020252,-1.00662,-0.16282,-0.24822,0.3388
-0,0,0,5,5,5,5,1.84383,0.256527,69.9402,0.000790539,0.00377458,-0.000588836,0,0,0,3.64,0.245,-1.575,-0.035014,-0.016226,-1.01272,-0.16282,-0.24822,0.3388
-0,0,0,5,5,5,5,1.83865,0.256964,69.9416,0.000782917,0.00368417,-0.000585964,0,0,0,3.64,0.245,-1.575,-0.035014,-0.016226,-1.01272,-0.16282,-0.24822,0.3388
-0,0,0,5,5,5,5,1.83778,0.258577,69.9413,0.00184814,0.00122655,0.00261105,0,0,0,3.7625,-0.0175,-1.4175,-0.033916,-0.018666,-1.00955,-0.16282,-0.24822,0.3388
-0,0,0,5,5,5,5,1.83694,0.260165,69.9386,0.00182041,0.00121184,0.0026114,0,0,0,3.7625,-0.0175,-1.4175,-0.033916,-0.018666,-1.00955,-0.16618,-0.25144,0.34468
-0,0,0,5,5,5,5,1.83834,0.263777,69.9348,0.00357965,-0.000229303,0.0053152,0,0,0,3.5175,-0.0875,-1.225,-0.032086,-0.02013,-1.00687,-0.16618,-0.25144,0.34468
-0,0,0,5,5,5,5,1.83969,0.267321,69.931,0.00351782,-0.000205774,0.00531416,0,0,0,3.5175,-0.0875,-1.225,-0.032086,-0.02013,-1.00687,-0.16618,-0.25144,0.34468
-0,0,0,5,5,5,5,1.83639,0.265706,69.9299,-0.00119195,0.00181284,0.00199652,0,0,0,3.2725,0.0175,-1.225,-0.036844,-0.018056,-1.01016,-0.16618,-0.25144,0.34468
-0,0,0,5,5,5,5,1.83318,0.264131,69.9289,-0.00116446,0.00175688,0.00199844,0,0,0,3.2725,0.0175,-1.225,-0.036844,-0.018056,-1.01016,-0.16618,-0.25144,0.34468
-0,0,0,5,5,5,5,1.83478,0.266652,69.9249,0.00267908,-0.000535664,0.00445632,0,0,0,3.5,-0.21,-1.4,-0.03294,-0.020374,-1.00772,-0.16618,-0.25144,0.34468
-0,0,0,5,5,5,5,1.83109,0.265708,69.9241,-9.86182e-05,0.00233109,0.00298307,0,0,0,3.3425,-0.1925,-1.1725,-0.035746,-0.017446,-1.00918,-0.16618,-0.25144,0.34468
-0,0,0,5,5,5,5,1.82744,0.265272,69.9232,-9.10053e-05,0.00226743,0.00298514,0,0,0,3.3075,0.0875,-1.19,-0.035746,-0.017446,-1.00918,-0.16618,-0.25144,0.34468
-0,0,0,5,5,5,5,1.82517,0.260399,69.9239,-0.00462241,0.000762229,3.60291e-05,0,0,0,3.395,0.07,-1.155,-0.040382,-0.01891,-1.01211,-0.1652,-0.25144,0.34286
-0,0,0,5,5,5,5,1.81923,0.259172,69.9256,-0.000591968,0.00383393,0.0015148,0,0,0,3.4475,0.1225,-1.2075,-0.036356,-0.015738,-1.01065,-0.1652,-0.25144,0.34286
-0,0,0,5,5,5,5,1.81342,0.257813,69.9271,-0.000568249,0.00373252,0.00151813,0,0,0,3.43,0.0175,-1.295,-0.036356,-0.015738,-1.01065,-0.1652,-0.25144,0.34286
-0,0,0,5,5,5,5,1.81353,0.261378,69.9253,0.00398598,0.000192762,0.00114894,0,0,0,3.2375,-0.2625,-1.1375,-0.03172,-0.019276,-1.01101,-0.1652,-0.25144,0.34286
-0,0,0,5,5,5,5,1.81387,0.265086,69.9237,0.00392128,0.000198778,0.00114845,0,0,0,3.3775,-0.14,-1.085,-0.03172,-0.019276,-1.01101,-0.1652,-0.25144,0.34286
-0,0,0,5,5,5,5,1.81252,0.262622,69.9235,-0.00174555,0.000541515,0.00336247,0,0,0,3.3075,-0.2975,-1.1725,-0.037454,-0.01891,-1.00882,-0.1652,-0.25144,0.34286
-0,0,0,5,5,5,5,1.81124,0.260798,69.9235,-0.00171372,0.000519187,0.00336332,0,0,0,3.325,0.0525,-1.0675,-0.037454,-0.01891,-1.00882,-0.1652,-0.25144,0.34286
-0,0,0,5,5,5,5,1.81149,0.259638,69.9226,-0.00108604,-0.000209101,0.00434686,0,0,0,3.465,-0.035,-1.19,-0.036844,-0.019642,-1.00784,-0.1652,-0.25144,0.34286
-0,0,0,5,5,5,5,1.81187,0.258461,69.9163,-0.00106551,-0.000202591,0.00434675,0,0,0,3.535,-0.0525,-1.12,-0.036844,-0.019642,-1.00784,-0.16968,-0.2513,0.34412
-0,0,0,5,5,5,5,1.81233,0.259347,69.9098,0.000741317,-7.22909e-05,-0.000694469,0,0,0,3.6225,0.105,-1.12,-0.035014,-0.01952,-1.01284,-0.16968,-0.2513,0.34412
-0,0,0,5,5,5,5,1.81291,0.260311,69.9032,0.000724496,-6.22181e-05,-0.000694864,0,0,0,3.6925,0.1575,-1.225,-0.035014,-0.01952,-1.01284,-0.16968,-0.2513,0.34412
-0,0,0,5,5,5,5,1.81268,0.263901,69.8964,0.0035775,0.000910724,0.00323933,0,0,0,3.6225,0.0525,-1.295,-0.032086,-0.018544,-1.00894,-0.16968,-0.2513,0.34412
-0,0,0,5,5,5,5,1.81203,0.26716,69.8896,0.00352062,0.000899458,0.00323942,0,0,0,3.395,-0.105,-1.3125,-0.032086,-0.018544,-1.00894,-0.16968,-0.2513,0.34412
-0,0,0,5,5,5,5,1.81093,0.265791,69.884,-0.00131492,0.00063597,0.00250245,0,0,0,3.5,0.0875,-1.3125,-0.036966,-0.018788,-1.00967,-0.16968,-0.2513,0.34412
-0,0,0,5,5,5,5,1.81027,0.264455,69.8783,-0.0012916,0.000624381,0.00250293,0,0,0,3.7275,0.0875,-1.4,-0.036966,-0.018788,-1.00967,-0.16968,-0.2513,0.34412
-0,0,0,5,5,5,5,1.81095,0.26389,69.8719,-0.000795799,-0.000218515,0.00520746,0,0,0,3.64,0.1225,-1.365,-0.036478,-0.019642,-1.00699,-0.16968,-0.2513,0.34412
-0,0,0,5,5,5,5,1.81185,0.263037,69.8741,-0.000780908,-0.000202866,0.00520703,0,0,0,3.7625,-0.0525,-1.365,-0.036478,-0.019642,-1.00699,-0.16408,-0.25424,0.3423
-0,0,0,5,5,5,5,1.81144,0.262694,69.8769,-4.60113e-05,0.000889126,0.00877279,0,0,0,3.78,-0.0875,-1.2775,-0.035746,-0.018544,-1.00345,-0.16408,-0.25424,0.3423
-0,0,0,5,5,5,5,1.81092,0.26275,69.8796,-4.69832e-05,0.000879998,0.00877308,0,0,0,3.71,0.14,-1.33,-0.035746,-0.018544,-1.00345,-0.16408,-0.25424,0.3423
-0,0,0,5,5,5,5,1.8126,0.262839,69.8815,-0.000413002,-0.000678233,0.00373125,0,0,0,3.7975,0.2275,-1.26,-0.036112,-0.02013,-1.00845,-0.16408,-0.25424,0.3423
-0,0,0,5,5,5,5,1.81372,0.262508,69.8832,-0.000407224,-0.000658848,0.00373066,0,0,0,3.5,-0.0175,-1.3475,-0.036112,-0.02013,-1.00845,-0.16408,-0.25424,0.3423
-0,0,0,5,5,5,5,1.8127,0.260614,69.8864,-0.0017105,0.000544744,-0.00241605,0,0,0,3.64,0.035,-1.225,-0.037454,-0.01891,-1.01455,-0.16408,-0.25424,0.3423
-0,0,0,5,5,5,5,1.81175,0.258938,69.8895,-0.00168126,0.000528173,-0.00241539,0,0,0,3.6575,0.14,-1.2775,-0.037454,-0.01891,-1.01455,-0.16408,-0.25424,0.3423
-0,0,0,5,5,5,5,1.812,0.253046,69.8927,-0.00583042,-0.000688831,0.00422415,0,0,0,3.5875,0,-1.2775,-0.041724,-0.02013,-1.00796,-0.16408,-0.25424,0.3423
-0,0,0,5,5,5,5,1.81206,0.247556,69.8935,-0.0057346,-0.000687752,0.00422453,0,0,0,3.4825,0.175,-1.33,-0.041724,-0.02013,-1.00796,-0.16436,-0.25088,0.343
-0,0,0,5,5,5,5,1.80871,0.249884,69.8944,0.00272877,0.00255136,4.59518e-05,0,0,0,3.465,0.0525,-1.4175,-0.033184,-0.016836,-1.01211,-0.16436,-0.25088,0.343
-0,0,0,5,5,5,5,1.80539,0.252051,69.8956,0.00269094,0.00249335,4.76162e-05,0,0,0,3.43,-0.0175,-1.2075,-0.033184,-0.016836,-1.01211,-0.16436,-0.25088,0.343
-0,0,0,5,5,5,5,1.80692,0.253573,69.8946,0.00144952,-0.00102162,0.000784348,0,0,0,3.3075,-0.07,-1.26,-0.034404,-0.020374,-1.01138,-0.16436,-0.25088,0.343
-0,0,0,5,5,5,5,1.80853,0.255269,69.8937,0.00141992,-0.000993507,0.000783329,0,0,0,3.3775,0.0525,-1.2075,-0.034404,-0.020374,-1.01138,-0.16436,-0.25088,0.343
-0,0,0,5,5,5,5,1.80681,0.25791,69.8943,0.00295315,0.00141902,-0.00278144,0,0,0,3.465,0,-1.1375,-0.032818,-0.017934,-1.01492,-0.16436,-0.25088,0.343
-0,0,0,5,5,5,5,1.80513,0.26051,69.8949,0.00290777,0.00138962,-0.00278072,0,0,0,3.465,0,-1.1375,-0.032818,-0.017934,-1.01492,-0.16436,-0.25088,0.343
-0,0,0,5,5,5,5,1.80393,0.260996,69.8953,0.0002266,0.000635977,0.00447387,0,0,0,3.22,0.2275,-1.26,-0.035502,-0.018666,-1.00772,-0.16436,-0.25088,0.343
-0,0,0,5,5,5,5,1.80276,0.261477,69.8956,0.000218197,0.000615599,0.00447447,0,0,0,3.22,0.2275,-1.26,-0.035502,-0.018666,-1.00772,-0.16436,-0.25088,0.343
-0,0,0,5,5,5,5,1.80321,0.260079,69.8916,-0.00157968,-0.000597838,0.00176947,0,0,0,3.3775,0.0875,-1.2425,-0.037332,-0.019886,-1.0104,-0.16758,-0.25046,0.34622
-0,0,0,5,5,5,5,1.79892,0.258953,69.8896,-0.000466656,0.00286903,0.00238665,0,0,0,3.5,-0.0175,-1.2425,-0.036234,-0.016348,-1.00979,-0.16758,-0.25046,0.34622
-0,0,0,5,5,5,5,1.79475,0.257861,69.8877,-0.0004476,0.00279621,0.00238902,0,0,0,3.5,-0.0175,-1.2425,-0.036234,-0.016348,-1.00979,-0.16758,-0.25046,0.34622
-0,0,0,5,5,5,5,1.79661,0.255539,69.8834,-0.00235085,-0.00120148,0.00742907,0,0,0,3.5875,-0.0875,-1.26,-0.038186,-0.020374,-1.00479,-0.16758,-0.25046,0.34622
-0,0,0,5,5,5,5,1.79843,0.253252,69.8791,-0.00231093,-0.00116967,0.00742825,0,0,0,3.5875,-0.0875,-1.26,-0.038186,-0.020374,-1.00479,-0.16758,-0.25046,0.34622
-0,0,0,5,5,5,5,1.80149,0.252558,69.8741,-0.00096247,-0.00184914,0.00410702,0,0,0,3.64,-0.035,-1.295,-0.036844,-0.021106,-1.00809,-0.16758,-0.25046,0.34622
-0,0,0,5,5,5,5,1.80447,0.251866,69.8692,-0.00095039,-0.00179716,0.00410544,0,0,0,3.64,-0.035,-1.295,-0.036844,-0.021106,-1.00809,-0.16758,-0.25046,0.34622
-0,0,0,5,5,5,5,1.80439,0.254209,69.8705,0.00253179,0.000155536,-0.00548468,0,0,0,3.4475,-0.0525,-1.365,-0.033306,-0.019154,-1.0176,-0.16324,-0.25116,0.34314
-0,0,0,5,5,5,5,1.80397,0.254453,69.8725,0.000462274,0.000636714,0.00705627,0,0,0,3.5525,-0.07,-1.295,-0.03538,-0.018666,-1.00516,-0.16324,-0.25116,0.34314
-0,0,0,5,5,5,5,1.80356,0.254695,69.8745,0.000458061,0.00062956,0.00705648,0,0,0,3.5525,-0.07,-1.295,-0.03538,-0.018666,-1.00516,-0.16324,-0.25116,0.34314
-0,0,0,5,5,5,5,1.80641,0.252879,69.8753,-0.00218293,-0.0021296,0.00213711,0,0,0,3.4825,0.0175,-1.3125,-0.038064,-0.021472,-1.01004,-0.16324,-0.25116,0.34314
-0,0,0,5,5,5,5,1.8092,0.251086,69.8761,-0.00215163,-0.00208101,0.00213572,0,0,0,3.4825,0.0175,-1.3125,-0.038064,-0.021472,-1.01004,-0.16324,-0.25116,0.34314
-0,0,0,5,5,5,5,1.80704,0.249759,69.8792,-0.00103511,0.0014231,0.00594841,0,0,0,3.4475,0.0175,-1.19,-0.036966,-0.017934,-1.00626,-0.16324,-0.25116,0.34314
-0,0,0,5,5,5,5,1.80495,0.248463,69.8822,-0.00101249,0.00138657,0.00594966,0,0,0,3.4475,0.0175,-1.19,-0.036966,-0.017934,-1.00626,-0.16324,-0.25116,0.34314
-0,0,0,5,5,5,5,1.80449,0.250268,69.8841,0.00199315,0.000523705,-0.00241073,0,0,0,3.5175,-0.0175,-1.12,-0.033916,-0.018788,-1.01455,-0.16324,-0.25116,0.34314
-0,0,0,5,5,5,5,1.80912,0.251205,69.8855,0.000518975,-0.00293726,0.00545536,0,0,0,3.395,-0.105,-1.085,-0.03538,-0.022326,-1.00674,-0.16156,-0.25032,0.34076
-0,0,0,5,5,5,5,1.81372,0.252476,69.8866,0.000496776,-0.00285706,0.00545273,0,0,0,3.4475,0.105,-1.26,-0.03538,-0.022326,-1.00674,-0.16156,-0.25032,0.34076
-0,0,0,5,5,5,5,1.81374,0.244089,69.8897,-0.000693185,0.000196552,0.00778937,0,0,0,3.5525,-4.41,-1.3125,-0.036722,-0.019276,-1.00443,-0.16156,-0.25032,0.34076
-0,0,0,5,5,5,5,1.81379,0.235849,69.8927,-0.000549369,0.00019747,0.00778994,0,0,0,3.5525,-4.41,-1.3125,-0.036722,-0.019276,-1.00443,-0.16156,-0.25032,0.34076
-0,0,0,5,5,5,5,1.81379,0.232937,69.8966,-0.00292826,-0.000413171,0.000905035,0,0,0,3.4475,0.035,-1.155,-0.039162,-0.019886,-1.01126,-0.16156,-0.25032,0.34076
-0,0,0,5,5,5,5,1.8138,0.230076,69.9004,-0.00287833,-0.000413008,0.000905232,0,0,0,3.4475,0.035,-1.155,-0.039162,-0.019886,-1.01126,-0.16156,-0.25032,0.34076
-0,0,0,5,5,5,5,1.81353,0.232956,69.9029,0.00290273,0.000437152,0.00176582,0,0,0,3.3425,0.0175,-1.4,-0.033306,-0.019032,-1.0104,-0.16156,-0.25032,0.34076
-0,0,0,5,5,5,5,1.81326,0.235785,69.9054,0.00285334,0.000432378,0.00176577,0,0,0,3.3425,0.0175,-1.4,-0.033306,-0.019032,-1.0104,-0.16156,-0.25032,0.34076
-0,0,0,5,5,5,5,1.81442,0.239887,69.9073,0.00351067,-0.000280144,0.00250252,0,0,0,3.4475,0.28,-1.19,-0.032574,-0.019764,-1.00967,-0.16254,-0.25214,0.34426
-0,0,0,5,5,5,5,1.81515,0.242553,69.9093,0.00224928,-2.31969e-05,0.00410025,0,0,0,3.5175,0.21,-1.365,-0.033794,-0.01952,-1.00809,-0.16254,-0.25214,0.34426
-0,0,0,5,5,5,5,1.81585,0.24517,69.9112,0.00220361,-1.09827e-05,0.00409967,0,0,0,3.5175,0.21,-1.365,-0.033794,-0.01952,-1.00809,-0.16254,-0.25214,0.34426
-0,0,0,5,5,5,5,1.81429,0.24491,69.9147,0.000264375,0.00118306,0.00114979,0,0,0,3.5525,-0.14,-1.26,-0.035746,-0.0183,-1.01101,-0.16254,-0.25214,0.34426
-0,0,0,5,5,5,5,1.81277,0.24466,69.9181,0.000268742,0.00115655,0.00115065,0,0,0,3.5525,-0.14,-1.26,-0.035746,-0.0183,-1.01101,-0.16254,-0.25214,0.34426
-0,0,0,5,5,5,5,1.81153,0.246689,69.9208,0.00205562,0.00101291,0.000536433,0,0,0,3.4125,0.105,-1.365,-0.033916,-0.018422,-1.01162,-0.16254,-0.25214,0.34426
-0,0,0,5,5,5,5,1.81033,0.248686,69.9235,0.00202076,0.000991834,0.000536948,0,0,0,3.4125,0.105,-1.365,-0.033916,-0.018422,-1.01162,-0.16254,-0.25214,0.34426
-0,0,0,5,5,5,5,1.81139,0.25208,69.9254,0.00317638,-0.000333021,0.00225738,0,0,0,3.395,0.07,-1.12,-0.032696,-0.019764,-1.00992,-0.16254,-0.25214,0.34426
-0,0,0,5,5,5,5,1.81243,0.255416,69.9233,0.00311815,-0.000314917,0.00225655,0,0,0,3.395,0.07,-1.12,-0.032696,-0.019764,-1.00992,-0.16576,-0.25214,0.34258
-0,0,0,5,5,5,5,1.81256,0.257278,69.9219,0.0018708,0.000298082,0.00127274,0,0,0,3.57,0.035,-1.1375,-0.033916,-0.019154,-1.01089,-0.16576,-0.25214,0.34258
-0,0,0,5,5,5,5,1.81092,0.255854,69.9218,-0.00138446,0.000880037,-0.000570466,0,0,0,3.4825,0.14,-1.12,-0.03721,-0.018544,-1.01272,-0.16576,-0.25214,0.34258
-0,0,0,5,5,5,5,1.80935,0.254224,69.9216,-0.00135601,0.000852714,-0.000569476,0,0,0,3.5,0,-1.1725,-0.03721,-0.018544,-1.01272,-0.16576,-0.25214,0.34258
-0,0,0,5,5,5,5,1.81135,0.256098,69.9191,0.00201288,-0.000944307,0.00139645,0,0,0,3.5525,-0.1925,-1.33,-0.033794,-0.020374,-1.01077,-0.16576,-0.25214,0.34258
-0,0,0,5,5,5,5,1.81351,0.257934,69.9165,0.00198085,-0.000906621,0.00139512,0,0,0,3.675,-0.1925,-1.3475,-0.033794,-0.020374,-1.01077,-0.16576,-0.25214,0.34258
-0,0,0,5,5,5,5,1.8127,0.258097,69.9156,0.00064166,0.000788952,4.31191e-05,0,0,0,3.6225,-0.1575,-1.26,-0.035136,-0.018666,-1.01211,-0.16576,-0.25214,0.34258
