pid_x,pid_y,pid_z,front_left_speed,front_right_speed,back_left_speed,back_right_speed,orientation_x,orientation_y,orientation_z,acceleration_x,acceleration_y,acceleration_z,accel_rejected,mag_rejected,ahrs_initialized,gyro_x,gyro_y,gyro_z,accel_x,accel_y,accel_z,mag_x,mag_y,mag_z
-0.0234641,0,0,15.0235,15.0235,14.9765,14.9765,0.0167583,0.00236605,0.197685,-0.000361872,-0.0144298,0.00571748,0,0,1,3.395,0.1225,-0.7875,-0.040626,-0.002562,-1.00699,-0.2254,0.06286,0.37506
-0.0438493,0,0,15.0438,15.0438,14.9562,14.9562,0.0313158,0.00302334,0.394745,-0.00110226,-0.0123438,-0.00276607,0,0,1,3.605,0.07,-0.7175,-0.041358,-0.000732,-1.01541,-0.2254,0.06286,0.37506
-0.0634379,0,0,15.0634,15.0634,14.9366,14.9366,0.0453028,0.00346401,0.590182,-0.00110995,-0.0120997,-0.00276624,0,0,1,3.4475,-0.0175,-0.805,-0.041358,-0.000732,-1.01541,-0.2254,0.06286,0.37506
-0.0797047,0,0,15.0797,15.0797,14.9203,14.9203,0.0569158,0.0013689,0.785683,-0.00253121,-0.00994299,0.00178268,0,0,1,3.5,0.07,-0.805,-0.042822,0.00122,-1.01089,-0.2254,0.06286,0.37506
-0.0956483,0,0,15.0956,15.0956,14.9044,14.9044,0.0682968,-0.00026072,0.979667,-0.00250277,-0.00974436,0.00178246,0,0,1,3.5,0.3325,-0.84,-0.042822,0.00122,-1.01089,-0.2254,0.06286,0.37506
-0.11094,0,0,15.1109,15.1109,14.8891,14.8891,0.0792112,-0.00266517,1.17267,-0.00282526,-0.00955386,-0.00682418,0,0,1,3.43,0.1925,-0.7525,-0.043188,0.00122,-1.01943,-0.2254,0.06286,0.37506
-0.125577,0,0,15.1256,15.1256,14.8744,14.8744,0.0896563,-0.00530987,1.36423,-0.0027791,-0.00937156,-0.00682445,0,0,1,3.29,0.035,-0.7525,-0.043188,0.00122,-1.01943,-0.2254,0.06286,0.37506
-0.14378,0,0,15.1438,15.1438,14.8562,14.8562,0.102647,-0.00427726,1.55235,-0.000731867,-0.0114652,-0.000677407,0,0,1,3.29,0.0525,-0.805,-0.041114,-0.001098,-1.01333,-0.22638,0.0637,0.36722
-0.157516,0,0,15.1575,15.1575,14.8425,14.8425,0.112447,-0.0019201,1.73751,0.000563335,-0.00848528,0.00104355,0,0,1,3.43,-0.0175,-0.91,-0.039772,0.001708,-1.01162,-0.22638,0.0637,0.36722
-0.171463,0,0,15.1715,15.1715,14.8285,14.8285,0.122396,0.00036872,1.92107,0.000523388,-0.00831164,0.0010432,0,0,1,3.6225,0,-1.015,-0.039772,0.001708,-1.01162,-0.22638,0.0637,0.36722
-0.181126,0,0,15.1811,15.1811,14.8189,14.8189,0.129284,-0.00187456,2.1059,-0.00198866,-0.00574888,-0.0041209,0,0,1,3.64,-0.0175,-1.05,-0.042334,0.004148,-1.01675,-0.22638,0.0637,0.36722
-0.189897,0,0,15.1899,15.1899,14.8101,14.8101,0.135535,-0.00407968,2.28945,-0.00195017,-0.00563979,-0.00412116,0,0,1,3.36,-0.0175,-0.98,-0.042334,0.004148,-1.01675,-0.22638,0.0637,0.36722
-0.204821,0,0,15.2048,15.2048,14.7952,14.7952,0.146179,-8.20684e-05,2.46784,0.00138166,-0.00936207,0.00448478,0,0,1,3.29,0.07,-0.98,-0.038918,0.000244,-1.00821,-0.22638,0.0637,0.36722
-0.220632,0,0,15.2206,15.2206,14.7794,14.7794,0.157455,0.00349983,2.64486,0.00131914,-0.00916526,0.00448426,0,0,1,3.7625,-0.0875,-0.98,-0.038918,0.000244,-1.00821,-0.22638,0.0637,0.36722
-0.236313,0,0,15.2363,15.2363,14.7637,14.7637,0.168638,-0.000236655,2.82599,-0.00359656,-0.00921434,-0.00326205,0,0,1,3.7975,0.175,-0.805,-0.04392,0,-1.01589,-0.22638,0.0637,0.36722
-0.250862,0,0,15.2509,15.2509,14.7491,14.7491,0.179011,-0.00166788,3.00498,-0.00223524,-0.00866691,-0.00141837,0,0,1,3.675,0.315,-0.7875,-0.042578,0.000366,-1.01406,-0.2191,0.06342,0.36624
-0.263205,0,0,15.2632,15.2632,14.7368,14.7368,0.187807,-0.00300948,3.18197,-0.00184737,-0.00717,-0.000804121,0,0,1,3.7625,0.1925,-0.98,-0.042212,0.001708,-1.01345,-0.2191,0.06342,0.36624
-0.278393,0,0,15.2784,15.2784,14.7216,14.7216,0.198635,-0.00540669,3.35829,-0.00253444,-0.00881293,0.00374433,0,0,1,3.7975,0.0175,-0.98,-0.042944,-0.000122,-1.00894,-0.2191,0.06342,0.36624
-0.292317,0,0,15.2923,15.2923,14.7077,14.7077,0.208559,-0.00765666,3.53358,-0.00249517,-0.00863973,0.00374371,0,0,1,3.4125,0.0875,-0.805,-0.042944,-0.000122,-1.00894,-0.2191,0.06342,0.36624
-0.30741,0,0,15.3074,15.3074,14.6926,14.6926,0.219315,-0.0116836,3.70898,-0.00388272,-0.009429,0.00435774,0,0,1,3.3775,0.2275,-0.805,-0.044408,-0.001098,-1.00833,-0.2191,0.06342,0.36624
-0.322203,0,0,15.3222,15.3222,14.6778,14.6778,0.229858,-0.0156389,3.88308,-0.00381368,-0.00924501,0.004357,0,0,1,3.3775,0.2275,-0.805,-0.044408,-0.001098,-1.00833,-0.2191,0.06342,0.36624
-0.334181,0,0,15.3342,15.3342,14.6658,14.6658,0.238388,-0.0168039,4.05331,-0.00160661,-0.00738635,0.00103678,0,0,1,3.465,0.0525,-0.9975,-0.042212,0.00061,-1.01162,-0.2191,0.06342,0.36624
-0.343704,0,0,15.3437,15.3437,14.6563,14.6563,0.245163,-0.0166304,4.21869,-0.00063775,-0.00568045,0.000667438,0,0,1,3.5875,0.1575,-1.015,-0.041236,0.002196,-1.01199,-0.22414,0.06454,0.36834
-0.35539,0,0,15.3554,15.3554,14.6446,14.6446,0.253483,-0.0180605,4.38441,-0.00207062,-0.00724501,0.00165039,0,0,1,3.4475,0.35,-0.875,-0.0427,0.000488,-1.01101,-0.22414,0.06454,0.36834
-0.366325,0,0,15.3663,15.3663,14.6337,14.6337,0.261266,-0.0120409,4.54377,0.00280523,-0.00637642,0.00398583,0,0,1,3.605,0.315,-0.84,-0.037698,0.00122,-1.0087,-0.22414,0.06454,0.36834
-0.376344,0,0,15.3763,15.3763,14.6237,14.6237,0.268394,-0.00623992,4.70198,0.00270399,-0.00625202,0.00398527,0,0,1,3.325,0.2975,-0.805,-0.037698,0.00122,-1.0087,-0.22414,0.06454,0.36834
-0.386767,0,0,15.3868,15.3868,14.6132,14.6132,0.275809,-0.00600639,4.86273,-0.000944659,-0.00673324,-0.00228572,0,0,1,3.29,0.35,-0.7875,-0.041358,0.00061,-1.01492,-0.22414,0.06454,0.36834
-0.396984,0,0,15.397,15.397,14.603,14.603,0.283077,-0.00580411,5.02227,-0.00094819,-0.00660639,-0.00228634,0,0,1,3.29,0.35,-0.7875,-0.041358,0.00061,-1.01492,-0.22414,0.06454,0.36834
-0.402207,0,0,15.4022,15.4022,14.5978,14.5978,0.286777,-0.0107262,5.18356,-0.00353497,-0.00361077,-0.00499154,0,0,1,3.325,0.07,-0.7875,-0.044042,0.003538,-1.0176,-0.22414,0.06454,0.36834
-0.415416,0,0,15.4154,15.4154,14.5846,14.5846,0.29618,-0.00468447,5.34328,0.00291981,-0.00808748,0.00779428,0,0,1,3.3425,0,-0.805,-0.037454,-0.001098,-1.00491,-0.22372,0.06006,0.37436
-0.423165,0,0,15.4232,15.4232,14.5768,14.5768,0.301683,-0.0061424,5.50664,-0.00142823,-0.00506039,-0.00745183,0,0,1,3.36,-0.0175,-0.7875,-0.041846,0.00183,-1.02004,-0.22372,0.06006,0.37436
-0.430954,0,0,15.431,15.431,14.569,14.569,0.307213,-0.0112912,5.67116,-0.00364659,-0.00484174,0.000170446,0,0,1,3.5175,-0.1225,-0.7875,-0.044164,0.001952,-1.01248,-0.22372,0.06006,0.37436
-0.43789,0,0,15.4379,15.4379,14.5621,14.5621,0.312134,-0.0161109,5.8344,-0.00356247,-0.00475585,0.000169962,0,0,1,3.2375,0,-0.805,-0.044164,0.001952,-1.01248,-0.22372,0.06006,0.37436
-0.447131,0,0,15.4471,15.4471,14.5529,14.5529,0.318701,-0.0154177,5.9926,-0.000172972,-0.00586252,-0.00130605,0,0,1,3.36,0,-0.875,-0.040748,0.000732,-1.01394,-0.22372,0.06006,0.37436
-0.45619,0,0,15.4562,15.4562,14.5438,14.5438,0.325136,-0.014766,6.14963,-0.000184348,-0.00575019,-0.00130668,0,0,1,3.36,0,-0.875,-0.040748,0.000732,-1.01394,-0.22372,0.06006,0.37436
-0.386822,0,0,15.3868,15.3868,14.6132,14.6132,0.275559,-0.0326445,6.31761,-0.00606808,0.0416246,0.0181236,0,0,1,3.6575,0.4025,-0.665,-0.04697,0.048922,-0.994666,-0.22372,0.06006,0.37436
-0.413977,0,0,15.414,15.414,14.586,14.586,0.294923,-0.183745,6.57086,-0.101105,-0.0202,0.00385491,0,0,1,3.78,0.525,-0.7,-0.145058,-0.013176,-1.00882,-0.22022,0.06286,0.3843
-0.541253,0,0,15.5413,15.5413,14.4587,14.4587,0.385794,0.0304472,6.57263,0.125372,-0.0697851,0.0422104,0,0,1,3.675,0.1225,-0.56,0.086132,-0.064294,-0.970754,-0.22022,0.06286,0.3843
-0.600683,0,0,15.6007,15.6007,14.3993,14.3993,0.428197,0.000439222,6.73939,-0.0229246,-0.0352159,0.0446643,0,0,1,3.535,-0.035,-0.56,-0.063318,-0.0305,-0.968314,-0.22022,0.06286,0.3843
-0.657628,0,0,15.6576,15.6576,14.3424,14.3424,0.468823,-0.0280972,6.90432,-0.0224265,-0.0345069,0.0446586,0,0,1,3.01,0.4375,-0.84,-0.063318,-0.0305,-0.968314,-0.22022,0.06286,0.3843
-0.891948,0,0,15.8919,15.8919,14.1081,14.1081,0.636126,-0.0687243,7.07613,-0.0489302,-0.157011,-0.0638107,0,0,1,3.43,0.56,-0.4725,-0.090646,-0.155794,-1.07592,-0.22022,0.06286,0.3843
-0.648132,0,0,15.6481,15.6481,14.3519,14.3519,0.461922,0.0994555,7.1002,0.163407,0.193139,-0.236648,0,0,1,3.71,-0.28,-0.8225,0.125538,0.19703,-1.24745,-0.22022,0.06286,0.3843
-0.64668,0,0,15.6467,15.6467,14.3533,14.3533,0.460835,0.0999397,7.09952,0.163399,0.19312,-0.236648,1,0,1,2.905,0.42,-1.2425,0.125538,0.19703,-1.24745,-0.22022,0.06286,0.3843
-0.646409,0,0,15.6464,15.6464,14.3536,14.3536,0.460592,0.100183,7.0991,0.152582,0.230975,0.154451,1,0,1,3.3775,0.28,-1.085,0.11468,0.23485,-0.859368,-0.22204,0.06902,0.38864
-0.649543,0,0,15.6495,15.6495,14.3505,14.3505,0.462781,0.0994193,7.09754,-0.113094,-0.266531,0.169943,1,0,1,4.7425,-0.315,-1.75,-0.152134,-0.262178,-0.843996,-0.22204,0.06902,0.38864
-0.649662,0,0,15.6497,15.6497,14.3503,14.3503,0.462816,0.0996439,7.09572,0.216858,0.080798,0.344038,1,0,1,3.535,0.2625,-1.9075,0.179218,0.08479,-0.671244,-0.22204,0.06902,0.38864
-0.649387,0,0,15.6494,15.6494,14.3506,14.3506,0.462571,0.100586,7.09384,0.216841,0.0807937,0.344038,1,0,1,3.3775,0.6825,-1.9425,0.179218,0.08479,-0.671244,-0.22204,0.06902,0.38864
-0.870829,0,0,15.8708,15.8708,14.1292,14.1292,0.620677,0.19731,7.15247,0.045073,-0.128703,0.0433981,0,0,1,3.6225,0.35,-1.575,0.008418,-0.127246,-0.969534,-0.22204,0.06902,0.38864
-1.08781,0,0,16.0878,16.0878,13.9122,13.9122,0.775582,0.290931,7.21091,0.043439,-0.126,0.0433582,0,0,1,3.6225,0.35,-1.575,0.008418,-0.127246,-0.969534,-0.22204,0.06902,0.38864
-1.00979,0,0,16.0098,16.0098,13.9902,13.9902,0.719777,0.0472949,7.49857,-0.167824,0.0437595,-0.0823928,0,0,1,3.64,0.2275,-1.4,-0.20801,0.04331,-1.09434,-0.22204,0.06902,0.38864
-1.07763,0,0,16.0776,16.0776,13.9224,13.9224,0.768148,0.210224,7.50967,0.133654,-0.0499225,-0.29007,0,0,1,4.4275,-0.455,-1.505,0.0976,-0.051118,-1.3004,-0.22204,0.06902,0.38864
-1.07591,0,0,16.0759,16.0759,13.9241,13.9241,0.766841,0.209163,7.5087,0.133672,-0.0499453,-0.29007,1,0,1,2.7825,-0.49,-1.4,0.0976,-0.051118,-1.3004,-0.22554,0.07224,0.4011
-1.00607,0,0,16.0061,16.0061,13.9939,13.9939,0.716875,0.0726197,7.71655,-0.0816471,0.0372361,0.0344084,0,0,1,2.905,-0.0875,-1.0675,-0.121024,0.036844,-0.97844,-0.22554,0.07224,0.4011
-1.09505,0,0,16.0951,16.0951,13.9049,13.9049,0.780352,0.0820111,7.82384,7.03455e-05,-0.0442137,0.152178,0,0,1,3.5525,-0.21,-0.875,-0.038796,-0.045628,-0.861564,-0.22554,0.07224,0.4011
-1.09527,0,0,16.0953,16.0953,13.9047,13.9047,0.780421,0.0814152,7.82378,8.07458e-05,-0.0442125,0.152178,1,0,1,3.5525,-0.21,-0.875,-0.038796,-0.045628,-0.861564,-0.22554,0.07224,0.4011
-1.09601,0,0,16.096,16.096,13.904,13.904,0.780869,0.084672,7.82599,0.0915026,0.200659,0.247709,1,0,1,3.7625,2.065,0.42,0.05307,0.198982,-0.76677,-0.22554,0.07224,0.4011
-2.13737,0,0,17.1374,17.1374,12.8626,12.8626,1.52453,0.294728,7.75847,0.0575866,-0.58202,0.306328,0,0,1,4.76,1.1375,0.7875,0.022692,-0.595848,-0.708332,-0.22554,0.07224,0.4011
-3.16105,0,0,18.161,18.161,11.839,11.839,2.25549,0.496084,7.6971,0.0540723,-0.569271,0.305883,0,0,1,4.3575,0.4725,1.225,0.022692,-0.595848,-0.708332,-0.22554,0.07224,0.4011
-3.15666,0,0,18.1567,18.1567,11.8433,11.8433,2.25211,0.497052,7.7029,-1.26224,0.340637,-0.399593,1,0,1,1.5925,0.84,2.52,-1.29918,0.313174,-1.40837,-0.2282,0.0868,0.41314
-2.93663,0,0,17.9366,17.9366,12.0634,12.0634,2.09473,1.13069,7.35654,0.43078,0.160314,0.0847712,0,0,1,1.75,-0.245,1.7325,0.412116,0.135786,-0.927688,-0.2282,0.0868,0.41314
-2.93104,0,0,17.931,17.931,12.069,12.069,2.09051,1.128,7.36058,-0.60982,0.149249,-0.0358376,1,0,1,1.1025,-1.3475,1.575,-0.632936,0.124806,-1.04737,-0.2282,0.0868,0.41314
-2.83963,0,0,17.8396,17.8396,12.1604,12.1604,2.025,2.18733,6.69885,0.617535,0.08849,0.370383,0,0,1,2.485,-1.4175,0.5775,0.618174,0.06527,-0.643794,-0.2282,0.0868,0.41314
-2.50287,0,0,17.5029,17.5029,12.4971,12.4971,1.78427,1.20163,7.41105,-0.590209,0.17163,0.272057,0,0,1,1.0675,-0.6475,0.5775,-0.611952,0.1525,-0.742004,-0.2282,0.0868,0.41314
-2.17797,0,0,17.178,17.178,12.822,12.822,1.55202,0.23827,8.12374,-0.573397,0.167585,0.272386,0,0,1,5.215,0.5425,-0.14,-0.611952,0.1525,-0.742004,-0.2282,0.0868,0.41314
-2.18332,0,0,17.1833,17.1833,12.8167,12.8167,1.55568,0.239617,8.12369,0.766324,-0.103472,0.150788,1,0,1,5.565,0.9275,-0.8925,0.733464,-0.11834,-0.862662,-0.2282,0.0868,0.41314
-2.18877,0,0,17.1888,17.1888,12.8112,12.8112,1.55941,0.24257,8.12389,0.766272,-0.103407,0.150786,1,0,1,5.6,1.8725,-0.77,0.733464,-0.11834,-0.862662,-0.22344,0.08512,0.4165
-2.19306,0,0,17.1931,17.1931,12.8069,12.8069,1.56231,0.245491,8.122,0.135711,-0.0623222,-0.186094,1,0,1,5.145,1.82,-1.995,0.100284,-0.077348,-1.19694,-0.22344,0.08512,0.4165
-2.19473,0,0,17.1947,17.1947,12.8053,12.8053,1.56333,0.246776,8.11873,0.135688,-0.0623044,-0.186095,1,0,1,4.095,0.84,-2.765,0.100284,-0.077348,-1.19694,-0.22344,0.08512,0.4165
-2.19395,0,0,17.1939,17.1939,12.8061,12.8061,1.5626,0.24738,8.11524,-0.173625,-0.184932,-0.0856456,1,0,1,3.115,0.4375,-2.8875,-0.210328,-0.199836,-1.09727,-0.22344,0.08512,0.4165
-2.19317,0,0,17.1932,17.1932,12.8068,12.8068,1.56188,0.247984,8.11175,-0.173635,-0.184945,-0.0856453,1,0,1,3.115,0.4375,-2.8875,-0.210328,-0.199836,-1.09727,-0.22344,0.08512,0.4165
-2.19068,0,0,17.1907,17.1907,12.8093,12.8093,1.55993,0.245614,8.10773,-0.25013,-0.148829,0.211031,1,0,1,2.4325,-1.3125,-3.15,-0.287188,-0.163724,-0.802882,-0.22344,0.08512,0.4165
-2.18819,0,0,17.1882,17.1882,12.8118,12.8118,1.55799,0.243244,8.10371,-0.250089,-0.148863,0.211032,1,0,1,2.4325,-1.3125,-3.15,-0.287188,-0.163724,-0.802882,-0.22344,0.08512,0.4165
-2.38173,0,0,17.3817,17.3817,12.6183,12.6183,1.69605,1.12966,7.56302,0.587757,-0.0982201,0.163197,0,0,1,1.7675,4.2875,-3.325,0.56974,-0.115534,-0.850096,-0.22344,0.08512,0.4165
-2.5685,0,0,17.5685,17.5685,12.4315,12.4315,1.82926,1.9986,7.02018,0.572597,-0.0959099,0.162712,0,0,1,1.7675,4.2875,-3.325,0.56974,-0.115534,-0.850096,-0.22512,0.091,0.41426
-2.57188,0,0,17.5719,17.5719,12.4281,12.4281,1.83148,1.99916,7.01738,-0.363824,-0.12335,-0.0787608,1,0,1,4.8125,0.42,-2.485,-0.370636,-0.142984,-1.0897,-0.22512,0.091,0.41426
-2.57526,0,0,17.5753,17.5753,12.4247,12.4247,1.8337,1.99973,7.01458,-0.363834,-0.123311,-0.0787623,1,0,1,4.8125,0.42,-2.485,-0.370636,-0.142984,-1.0897,-0.22512,0.091,0.41426
-2.69775,0,0,17.6977,17.6977,12.3023,12.3023,1.92098,1.9976,7.06431,-0.00990925,-0.0675651,0.066883,0,0,1,5.04,1.75,-1.575,-0.01525,-0.088816,-0.945134,-0.22512,0.091,0.41426
-2.6106,0,0,17.6106,17.6106,12.3894,12.3894,1.85853,1.73623,7.29135,-0.178831,0.0522565,-0.0681758,0,0,1,5.8975,1.225,-1.47,-0.189466,0.031964,-1.07933,-0.22512,0.091,0.41426
-2.52143,0,0,17.5214,17.5214,12.4786,12.4786,1.79465,1.47953,7.51755,-0.174353,0.0511466,-0.0680147,0,0,1,4.4275,-0.07,-1.2425,-0.189466,0.031964,-1.07933,-0.22512,0.091,0.41426
-2.60552,0,0,17.6055,17.6055,12.3945,12.3945,1.85452,1.44646,7.59286,-0.02447,-0.0483192,0.0754477,0,0,1,2.7825,-0.805,-0.2625,-0.039528,-0.068442,-0.93696,-0.22512,0.091,0.41426
-2.68732,0,0,17.6873,17.6873,12.3127,12.3127,1.91274,1.41318,7.66806,-0.0238893,-0.0473035,0.0754288,0,0,1,2.5025,-1.365,0.0875,-0.039528,-0.068442,-0.93696,-0.22512,0.091,0.41426
-2.68582,0,0,17.6858,17.6858,12.3142,12.3142,1.91146,1.41186,7.66922,0.284343,0.238573,0.22555,1,0,1,2.7825,-0.6125,-0.14,0.269986,0.21716,-0.787998,-0.22386,0.0931,0.41524
-2.68757,0,0,17.6876,17.6876,12.3124,12.3124,1.91251,1.41113,7.67211,0.284356,0.238591,0.22555,1,0,1,4.06,-0.2275,0.8575,0.269986,0.21716,-0.787998,-0.22386,0.0931,0.41524
-2.80661,0,0,17.8066,17.8066,12.1934,12.1934,1.99732,1.40664,7.72572,-0.00968294,-0.0636589,0.10034,0,0,1,3.815,0.0875,0.6825,-0.025376,-0.086254,-0.912194,-0.22386,0.0931,0.41524
-2.92334,0,0,17.9233,17.9233,12.0767,12.0767,2.08048,1.4021,7.77885,-0.00960375,-0.0622088,0.10029,0,0,1,3.815,0.0875,0.6825,-0.025376,-0.086254,-0.912194,-0.22386,0.0931,0.41524
-2.92491,0,0,17.9249,17.9249,12.0751,12.0751,2.08138,1.40347,7.78088,0.0371445,0.131133,0.126231,1,0,1,3.99,0.98,0.315,0.021594,0.106872,-0.886452,-0.22386,0.0931,0.41524
-3.00049,0,0,18.0005,18.0005,11.9995,11.9995,2.13513,1.53122,7.745,0.072819,-0.0353672,0.0704439,0,0,1,5.215,0.7525,0.14,0.059658,-0.06039,-0.941718,-0.22386,0.0931,0.41524
-3.07217,0,0,18.0722,18.0722,11.9278,11.9278,2.1861,1.65572,7.70953,0.070647,-0.0344808,0.07035,0,0,1,4.3225,0.875,0.14,0.059658,-0.06039,-0.941718,-0.22386,0.0931,0.41524
-3.07426,0,0,18.0743,18.0743,11.9257,11.9257,2.18736,1.65618,7.71069,-0.336946,0.285757,-0.142844,1,0,1,4.2,0.4375,-0.175,-0.349652,0.259494,-1.15327,-0.22386,0.0931,0.41524
-3.07594,0,0,18.0759,18.0759,11.9241,11.9241,2.18833,1.65502,7.71143,-0.336925,0.285774,-0.142844,1,0,1,4.0425,-0.525,-0.385,-0.349652,0.259494,-1.15327,-0.23044,0.0987,0.42686
-3.07733,0,0,18.0773,18.0773,11.9227,11.9227,2.18908,1.65503,7.71254,-0.010858,0.0344506,0.216288,1,0,1,3.92,0.175,-0.1925,-0.022204,0.008418,-0.796904,-0.23044,0.0987,0.42686
-3.07741,0,0,18.0774,18.0774,11.9226,11.9226,2.1889,1.65467,7.71358,-0.0108516,0.0344474,0.216288,1,0,1,3.395,-0.0525,-0.2275,-0.022204,0.008418,-0.796904,-0.23044,0.0987,0.42686
-3.06775,0,0,18.0677,18.0677,11.9323,11.9323,2.18177,1.51176,7.84515,-0.0978934,-0.00341142,-0.0763783,0,0,1,2.2575,-0.175,-0.56,-0.112118,-0.02928,-1.08739,-0.23044,0.0987,0.42686
-3.06068,0,0,18.0607,18.0607,11.9393,11.9393,2.17649,1.37289,7.97582,-0.0954703,-0.00350115,-0.0763138,0,0,1,3.185,-0.035,-0.5075,-0.112118,-0.02928,-1.08739,-0.23044,0.0987,0.42686
-3.05969,0,0,18.0597,18.0597,11.9403,11.9403,2.17555,1.37343,7.97654,0.134857,0.0704912,0.187903,1,0,1,2.975,0.4725,-0.4375,0.119194,0.044652,-0.825208,-0.23044,0.0987,0.42686
-3.05662,0,0,18.0566,18.0566,11.9434,11.9434,2.17312,1.37516,7.97655,0.134827,0.0704488,0.187904,1,0,1,2.1525,1.155,-0.875,0.119194,0.044652,-0.825208,-0.23044,0.0987,0.42686
-2.77718,0,0,17.7772,17.7772,12.2228,12.2228,1.97331,1.37604,8.02286,0.012111,0.183596,-0.0196305,0,0,1,4.7075,0.56,-1.26,-0.004026,0.161162,-1.03127,-0.23044,0.0987,0.42686
-2.50137,0,0,17.5014,17.5014,12.4986,12.4986,1.77612,1.37771,8.0612,0.0120819,0.180157,-0.0195186,0,0,1,3.9025,0.07,-1.75,-0.004026,0.161162,-1.03127,-0.22554,0.10318,0.42686
-2.5059,0,0,17.5059,17.5059,12.4941,12.4941,1.77916,1.3777,8.06034,0.136605,0.135756,0.331744,1,0,1,5.2325,0.1225,-1.3475,0.121024,0.116754,-0.682712,-0.22554,0.10318,0.42686
-2.50496,0,0,17.505,17.505,12.495,12.495,1.7783,1.37761,8.05779,0.136607,0.135741,0.331744,1,0,1,3.0625,0.035,-2.3275,0.121024,0.116754,-0.682712,-0.22554,0.10318,0.42686
-2.50403,0,0,17.504,17.504,12.496,12.496,1.77744,1.37848,8.05563,-0.0737005,0.180424,0.170436,1,0,1,3.0625,0.6125,-2.1175,-0.090158,0.161406,-0.842776,-0.22554,0.10318,0.42686
-2.50564,0,0,17.5056,17.5056,12.4944,12.4944,1.7784,1.37626,8.05505,-0.0736617,0.180441,0.170436,1,0,1,4.06,-1.1725,-1.1375,-0.090158,0.161406,-0.842776,-0.22554,0.10318,0.42686
-2.13335,0,0,17.1333,17.1333,12.8667,12.8667,1.51232,1.72157,7.85969,0.249054,0.25701,0.035901,0,0,1,4.3925,-0.105,-1.96,0.239974,0.242536,-0.976244,-0.22554,0.10318,0.42686
-1.7643,0,0,16.7643,16.7643,13.2357,13.2357,1.24857,2.06074,7.66294,0.243138,0.252406,0.0358165,0,0,1,3.29,0.805,-1.89,0.239974,0.242536,-0.976244,-0.22554,0.10318,0.42686
-1.76479,0,0,16.7648,16.7648,13.2352,13.2352,1.24879,2.06153,7.66095,-0.282788,-0.0543724,-0.110739,1,0,1,3.675,0.5775,-2.0125,-0.288164,-0.063928,-1.12167,-0.22554,0.10318,0.42686
-1.76281,0,0,16.7628,16.7628,13.2372,13.2372,1.24724,2.06264,7.65935,-0.282807,-0.0543994,-0.110739,1,0,1,2.6775,0.77,-1.785,-0.288164,-0.063928,-1.12167,-0.22554,0.10318,0.42686
-1.95708,0,0,16.9571,16.9571,13.0429,13.0429,1.38586,1.48248,8.06842,-0.37765,-0.135265,0.126072,0,0,1,2.73,-0.2275,-1.015,-0.393572,-0.147132,-0.88694,-0.22722,0.10514,0.42728
-1.95702,0,0,16.957,16.957,13.043,13.043,1.38567,1.48362,8.06698,-0.284247,0.132922,0.197013,1,0,1,3.43,0.7875,-1.6975,-0.299754,0.12078,-0.816546,-0.22722,0.10514,0.42728
-1.96874,0,0,16.9687,16.9687,13.0313,13.0313,1.39389,1.4824,8.06705,-0.284226,0.133065,0.19701,1,0,1,8.12,-0.5775,-0.7875,-0.299754,0.12078,-0.816546,-0.22722,0.10514,0.42728
-1.67963,0,0,16.6796,16.6796,13.3204,13.3204,1.18726,1.56987,8.04439,0.07421,0.20066,-0.0372897,0,0,1,5.7225,-0.4375,-0.5775,0.061732,0.191906,-1.04908,-0.22722,0.10514,0.42728
-1.39383,0,0,16.3938,16.3938,13.6062,13.6062,0.983012,1.6558,8.02253,0.0727108,0.197097,-0.0372644,0,0,1,4.8825,-0.21,0,0.061732,0.191906,-1.04908,-0.22722,0.10514,0.42728
-1.29751,0,0,16.2975,16.2975,13.7025,13.7025,0.914112,2.12433,7.7268,0.320994,0.0806027,0.0511317,0,0,1,5.3375,-0.3325,0.07,0.319274,0.076738,-0.961116,-0.22722,0.10514,0.42728
-1.19086,0,0,16.1909,16.1909,13.8091,13.8091,0.83784,2.58361,7.43085,0.312985,0.0792678,0.0508229,0,0,1,1.0325,0.6825,-0.315,0.319274,0.076738,-0.961116,-0.22722,0.10514,0.42728
-1.01795,0,0,16.0179,16.0179,13.9821,13.9821,0.714259,2.98069,7.17291,0.27885,0.127914,0.0250653,0,0,1,4.6025,0.665,-0.315,0.291946,0.12749,-0.98637,-0.22722,0.10514,0.42728
-0.845799,0,0,15.8458,15.8458,14.1542,14.1542,0.591231,3.36715,6.91338,0.272115,0.125766,0.0247163,0,0,1,4.1475,0.7,-0.595,0.291946,0.12749,-0.98637,-0.22666,0.10514,0.43624
-0.841652,0,0,15.8417,15.8417,14.1583,14.1583,0.588206,3.36859,6.9133,-0.238028,-0.0606524,-0.125528,1,0,1,1.82,0.98,-0.8925,-0.220332,-0.058682,-1.13545,-0.22666,0.10514,0.43624
-0.839812,0,0,15.8398,15.8398,14.1602,14.1602,0.586829,3.36873,6.91418,-0.238031,-0.0606764,-0.125528,1,0,1,2.7125,0.2275,-0.3325,-0.220332,-0.058682,-1.13545,-0.22666,0.10514,0.43624
-0.89435,0,0,15.8944,15.8944,14.1056,14.1056,0.625718,2.98113,7.18891,-0.274403,-0.048637,-0.0207768,0,0,1,3.465,0.5075,-0.245,-0.263642,-0.047336,-1.03188,-0.22666,0.10514,0.43624
-0.959307,0,0,15.9593,15.9593,14.0407,14.0407,0.672044,2.60256,7.46176,-0.267804,-0.0478258,-0.0204641,0,0,1,8.1025,0.14,0.175,-0.263642,-0.047336,-1.03188,-0.22666,0.10514,0.43624
-0.402667,0,0,15.4027,15.4027,14.5973,14.5973,0.274414,2.77782,7.36668,0.130651,0.366456,0.0774395,0,0,1,4.935,0.1575,0.3325,0.139568,0.373442,-0.934642,-0.22666,0.10514,0.43624
0.144181,0,0,14.8558,14.8558,15.1442,15.1442,-0.116179,2.94823,7.26961,0.12768,0.359647,0.0773003,0,0,1,5.0575,-0.5425,-0.175,0.139568,0.373442,-0.934642,-0.22666,0.10514,0.43624
0.370183,0,0,14.6298,14.6298,15.3702,15.3702,-0.27758,2.46491,7.6286,-0.324446,0.13273,0.0588779,0,0,1,6.1425,-0.2625,-0.1925,-0.322934,0.149572,-0.953308,-0.22666,0.10514,0.43624
0.605087,0,0,14.3949,14.3949,15.6051,15.6051,-0.44532,2.00076,7.97958,-0.316351,0.129802,0.059175,0,0,1,0.5775,0.28,-0.5425,-0.322934,0.149572,-0.953308,-0.21672,0.11144,0.44128
0.386123,0,0,14.6139,14.6139,15.3861,15.3861,-0.288886,1.93205,8.03157,-0.0526222,-0.133584,0.0726351,0,0,1,3.5,0.245,-1.155,-0.059292,-0.116266,-0.94001,-0.21672,0.11144,0.44128
0.17305,0,0,14.827,14.827,15.173,15.173,-0.136677,1.86466,8.08236,-0.0514465,-0.130929,0.0726839,0,0,1,2.8,0.105,-1.435,-0.059292,-0.116266,-0.94001,-0.21672,0.11144,0.44128
-0.124763,0,0,15.1248,15.1248,14.8752,14.8752,0.0760385,1.73888,8.17205,-0.101491,-0.213073,-0.0606443,0,0,1,2.45,0.21,-1.1025,-0.111752,-0.202032,-1.07238,-0.21672,0.11144,0.44128
-0.419866,0,0,15.4199,15.4199,14.5801,14.5801,0.286796,1.61548,8.25946,-0.0993384,-0.209396,-0.0605929,0,0,1,3.5875,-0.105,-1.575,-0.111752,-0.202032,-1.07238,-0.21672,0.11144,0.44128
-0.349154,0,0,15.3492,15.3492,14.6508,14.6508,0.236262,1.38512,8.44101,-0.161772,0.0393499,-0.0319595,0,0,1,3.57,-0.385,-1.575,-0.178486,0.047336,-1.04408,-0.21672,0.11144,0.44128
-0.28475,0,0,15.2847,15.2847,14.7153,14.7153,0.190239,1.16059,8.62201,-0.157854,0.0385472,-0.0318695,0,0,1,5.53,-0.3325,-1.4,-0.178486,0.047336,-1.04408,-0.21672,0.11144,0.44128
-0.290342,0,0,15.2903,15.2903,14.7097,14.7097,0.194212,1.16029,8.62057,-0.0602959,0.0723235,0.220175,1,0,1,5.7575,-0.035,-1.68,-0.08052,0.081008,-0.793976,-0.21672,0.11144,0.44128
-0.292519,0,0,15.2925,15.2925,14.7075,14.7075,0.195746,1.1606,8.61893,-0.0603013,0.0723502,0.220175,1,0,1,4.3925,0.315,-1.8025,-0.08052,0.081008,-0.793976,-0.21658,0.11816,0.44338
-0.134647,0,0,15.1346,15.1346,14.8654,14.8654,0.0829716,1.14035,8.65129,-0.00989576,0.0984715,0.0510094,0,0,1,5.04,0,-2.03,-0.030256,0.109068,-0.961848,-0.21658,0.11816,0.44338
0.0215438,0,0,14.9785,14.9785,15.0215,15.0215,-0.0285903,1.12135,8.68349,-0.00956421,0.0965248,0.0510168,0,0,1,4.4975,0.385,-2.1,-0.030256,0.109068,-0.961848,-0.21658,0.11816,0.44338
-0.0115228,0,0,15.0115,15.0115,14.9885,14.9885,-0.00497069,0.70166,8.99237,-0.3113,-0.0364255,-0.0199308,0,0,1,4.5675,0.77,-2.3275,-0.340624,-0.024156,-1.03236,-0.21658,0.11816,0.44338
-0.0438699,0,0,15.0439,15.0439,14.9561,14.9561,0.0181324,0.291618,9.29915,-0.304144,-0.0360223,-0.0198688,0,0,1,4.5675,0.4725,-2.065,-0.340624,-0.024156,-1.03236,-0.21658,0.11816,0.44338
-0.0931254,0,0,15.0931,15.0931,14.9069,14.9069,0.0533092,-0.260238,9.70925,-0.419278,-0.056292,-0.000194753,0,0,1,4.0425,0.0525,-1.9775,-0.465918,-0.045018,-1.01284,-0.21658,0.11816,0.44338
-0.138113,0,0,15.1381,15.1381,14.8619,14.8619,0.0854341,-0.799334,10.1157,-0.409869,-0.0557314,-0.00028243,0,0,1,2.835,-0.0875,-1.9075,-0.465918,-0.045018,-1.01284,-0.21658,0.11816,0.44338
0.0676489,0,0,14.9324,14.9324,15.0676,15.0676,-0.0615322,-0.817801,10.1808,-0.00366317,0.132099,-0.00876989,0,0,1,2.7825,-0.2275,-1.47,-0.058316,0.14518,-1.02126,-0.21658,0.11816,0.44338
0.265368,0,0,14.7346,14.7346,15.2654,15.2654,-0.202738,-0.837752,10.2608,-0.00331499,0.129635,-0.0087806,0,0,1,4.655,-0.1575,-1.19,-0.058316,0.14518,-1.02126,-0.22386,0.10836,0.43512
0.547386,0,0,14.4526,14.4526,15.5474,15.5474,-0.404136,-1.22685,10.6071,-0.244113,0.159828,0.0888225,0,0,1,5.0575,0.0875,-1.2425,-0.306952,0.178852,-0.924272,-0.22386,0.10836,0.43512
0.825421,0,0,14.1746,14.1746,15.8254,15.8254,-0.602668,-1.60588,10.9541,-0.2375,0.156366,0.0886285,0,0,1,4.7425,0.42,-0.945,-0.306952,0.178852,-0.924272,-0.22386,0.10836,0.43512
0.769382,0,0,14.2306,14.2306,15.7694,15.7694,-0.56258,-1.81764,11.161,-0.164559,-0.0449312,-0.0609801,0,0,1,5.0925,0.105,-0.98,-0.237412,-0.022936,-1.07262,-0.22386,0.10836,0.43512
0.71564,0,0,14.2844,14.2844,15.7156,15.7156,-0.524137,-2.0239,11.3673,-0.160961,-0.0442595,-0.0610944,0,0,1,4.5675,0.28,-0.2975,-0.237412,-0.022936,-1.07262,-0.22386,0.10836,0.43512
0.71434,0,0,14.2857,14.2857,15.7143,15.7143,-0.523153,-2.02308,11.3688,0.184044,-0.0606074,-0.100068,1,0,1,4.095,0.6125,0.035,0.109068,-0.039284,-1.1113,-0.22386,0.10836,0.43512
0.713056,0,0,14.2869,14.2869,15.7131,15.7131,-0.522179,-2.02247,11.3706,0.184034,-0.0605904,-0.100068,1,0,1,4.095,0.49,0.21,0.109068,-0.039284,-1.1113,-0.22386,0.10836,0.43512
0.711641,0,0,14.2884,14.2884,15.7116,15.7116,-0.521113,-2.02262,11.3733,0.692211,-0.230939,0.0752568,1,0,1,4.165,0.035,0.735,0.619394,-0.209474,-0.937326,-0.22386,0.10836,0.43512
0.709435,0,0,14.2906,14.2906,15.7094,15.7094,-0.519481,-2.02381,11.3768,0.692232,-0.23091,0.0752563,1,0,1,4.4975,-0.5775,1.19,0.619394,-0.209474,-0.937326,-0.23492,0.1092,0.43386
0.588123,0,0,14.4119,14.4119,15.5881,15.5881,-0.432783,-2.28082,11.6082,-0.187094,-0.0891952,0.0109213,0,0,1,4.55,-0.315,0.7875,-0.268156,-0.069418,-1.00101,-0.23492,0.1092,0.43386
0.467894,0,0,14.5321,14.5321,15.4679,15.4679,-0.346869,-2.53054,11.837,-0.182739,-0.0876958,0.0107485,0,0,1,4.9525,0.28,0.735,-0.268156,-0.069418,-1.00101,-0.23492,0.1092,0.43386
0.535688,0,0,14.4643,14.4643,15.5357,15.5357,-0.395251,-2.39839,11.8246,0.0937659,0.0490968,0.0403499,0,0,1,4.9,0.28,0.63,0.011834,0.068076,-0.97173,-0.23492,0.1092,0.43386
0.604443,0,0,14.3956,14.3956,15.6044,15.6044,-0.444313,-2.26896,11.8114,0.0915087,0.0482405,0.0404356,0,0,1,4.06,0.525,0.28,0.011834,0.068076,-0.97173,-0.23492,0.1092,0.43386
0.370719,0,0,14.6293,14.6293,15.3707,15.3707,-0.277338,-2.37651,11.9279,-0.0949185,-0.161836,-0.0276127,0,0,1,3.255,0.5425,0.1225,-0.177266,-0.144692,-1.0392,-0.23492,0.1092,0.43386
0.13909,0,0,14.8609,14.8609,15.1391,15.1391,-0.111877,-2.48268,12.0425,-0.0930672,-0.158951,-0.0276814,0,0,1,4.1125,0,-0.21,-0.177266,-0.144692,-1.0392,-0.23492,0.1092,0.43386
0.136595,0,0,14.8634,14.8634,15.1366,15.1366,-0.110083,-2.48289,12.043,-0.234837,-0.0422884,-0.176203,1,0,1,4.5325,0.0175,-0.525,-0.31964,-0.028182,-1.18657,-0.23492,0.1092,0.43386
0.1341,0,0,14.8659,14.8659,15.1341,15.1341,-0.108289,-2.4831,12.0436,-0.234834,-0.0422571,-0.176203,1,0,1,4.5325,0.0175,-0.525,-0.31964,-0.028182,-1.18657,-0.23492,0.1092,0.43386
-0.11046,0,0,15.1105,15.1105,14.8895,14.8895,0.0663895,-2.41329,12.0576,0.0313391,-0.143141,0.0660583,0,0,1,3.78,0.14,-1.61,-0.051118,-0.132004,-0.946232,-0.23338,0.09618,0.41986
0.0954373,0,0,14.9046,14.9046,15.0954,15.0954,-0.0806714,-2.68464,12.3424,-0.168755,0.116135,0.0383069,0,0,1,3.36,-0.0875,-1.9775,-0.25681,0.129564,-0.97356,-0.23338,0.09618,0.41986
0.296697,0,0,14.7033,14.7033,15.2967,15.2967,-0.224404,-2.94902,12.6254,-0.164146,0.11363,0.0380735,0,0,1,3.675,-0.14,-2.4675,-0.25681,0.129564,-0.97356,-0.23338,0.09618,0.41986
0.295633,0,0,14.7044,14.7044,15.2956,15.2956,-0.22362,-2.94936,12.6224,0.0561137,0.0148427,0.126965,1,0,1,3.8675,-0.0525,-2.5725,-0.035624,0.030866,-0.885354,-0.23338,0.09618,0.41986
0.293271,0,0,14.7067,14.7067,15.2933,15.2933,-0.221909,-2.94934,12.619,0.0561134,0.0148725,0.126965,1,0,1,4.375,0.1575,-2.8175,-0.035624,0.030866,-0.885354,-0.23338,0.09618,0.41986
0.290443,0,0,14.7096,14.7096,15.2904,15.2904,-0.219866,-2.94897,12.6159,0.113205,0.227287,-0.178684,1,0,1,4.5675,0.3675,-2.695,0.021716,0.243024,-1.18865,-0.23338,0.09618,0.41986
0.290884,0,0,14.7091,14.7091,15.2909,15.2909,-0.220157,-2.94865,12.6132,0.1132,0.227281,-0.178684,1,0,1,3.2725,0.3325,-2.415,0.021716,0.243024,-1.18865,-0.23338,0.09618,0.41986
0.209284,0,0,14.7907,14.7907,15.2093,15.2093,-0.161854,-2.90428,12.6631,0.0224052,-0.0524718,-0.062086,0,0,1,3.5,0.525,-2.625,-0.068686,-0.037454,-1.07299,-0.23338,0.09618,0.41986
0.127714,0,0,14.8723,14.8723,15.1277,15.1277,-0.103579,-2.86196,12.72,0.0216675,-0.0514561,-0.0620465,0,0,1,4.2,0.2275,-2.3975,-0.068686,-0.037454,-1.07299,-0.22582,0.09268,0.43176
0.0782796,0,0,14.9217,14.9217,15.0783,15.0783,-0.0682612,-2.87758,12.8194,-0.0128051,-0.0306895,0.0231441,0,0,1,3.9725,-0.2275,-1.7325,-0.103578,-0.017324,-0.988444,-0.22582,0.09268,0.43176
0.0268944,0,0,14.9731,14.9731,15.0269,15.0269,-0.0315541,-2.89312,12.9193,-0.0125341,-0.0300496,0.023131,0,0,1,5.1625,-0.35,-0.9975,-0.103578,-0.017324,-0.988444,-0.22582,0.09268,0.43176
0.0239911,0,0,14.976,14.976,15.024,15.024,-0.0294771,-2.89363,12.9197,0.0576934,-0.075811,0.103662,1,0,1,4.69,-0.1575,-0.595,-0.033062,-0.063074,-0.908534,-0.22582,0.09268,0.43176
0.0222097,0,0,14.9778,14.9778,15.0222,15.0222,-0.0282017,-2.89312,12.9206,0.0576846,-0.0757887,0.103662,1,0,1,4.2525,0.4375,-0.35,-0.033062,-0.063074,-0.908534,-0.22582,0.09268,0.43176
0.14788,0,0,14.8521,14.8521,15.1479,15.1479,-0.117953,-2.85245,13.009,0.0376595,0.0873957,-0.0510963,0,0,1,4.3225,0.455,4.3575,-0.05246,0.101504,-1.06213,-0.22582,0.09268,0.43176
0.273271,0,0,14.7267,14.7267,15.2733,15.2733,-0.207496,-2.8133,13.0906,0.0369769,0.0858347,-0.051067,0,0,1,3.3075,0,0.6825,-0.05246,0.101504,-1.06213,-0.22582,0.09268,0.43176
0.51405,0,0,14.4859,14.4859,15.5141,15.5141,-0.379441,-3.07412,13.3893,-0.146294,0.126805,0.109869,0,0,1,2.8875,0,0.665,-0.241072,0.145424,-0.90219,-0.22582,0.09268,0.43176
0.748046,0,0,14.252,14.252,15.748,15.748,-0.546522,-3.32901,13.6901,-0.141852,0.123895,0.109597,0,0,1,3.99,0.035,0.91,-0.241072,0.145424,-0.90219,-0.22218,0.09156,0.4165
0.46635,0,0,14.5336,14.5336,15.4664,15.4664,-0.345274,-3.3027,13.743,-0.00163009,-0.170466,0.0497753,0,0,1,4.2175,0.0525,0.8225,-0.099796,-0.152134,-0.961604,-0.22218,0.09156,0.4165
0.190944,0,0,14.8091,14.8091,15.1909,15.1909,-0.148539,-3.27744,13.7962,-0.00207014,-0.167038,0.0498154,0,0,1,3.9025,0.21,1.0675,-0.099796,-0.152134,-0.961604,-0.22218,0.09156,0.4165
0.190962,0,0,14.809,14.809,15.191,15.191,-0.148536,-3.27848,13.7995,0.109229,0.156109,-0.10633,1,0,1,3.6225,-0.4725,1.1025,0.011956,0.170678,-1.11654,-0.22218,0.09156,0.4165
0.189206,0,0,14.8108,14.8108,15.1892,15.1892,-0.147266,-3.27889,13.8014,0.109236,0.156132,-0.106331,1,0,1,4.2875,-0.105,0.28,0.011956,0.170678,-1.11654,-0.22218,0.09156,0.4165
0.447742,0,0,14.5523,14.5523,15.4477,15.4477,-0.331899,-3.14191,13.8273,0.125315,0.189674,-0.0722764,0,0,1,4.5325,0.035,-4.2175,0.0305,0.2074,-1.08287,-0.22218,0.09156,0.4165
0.703586,0,0,14.2964,14.2964,15.7036,15.7036,-0.514589,-3.00722,13.8592,0.122967,0.186489,-0.0721738,0,0,1,3.92,0.245,-0.2625,0.0305,0.2074,-1.08287,-0.22218,0.09156,0.4165
0.998368,0,0,14.0016,14.0016,15.9984,15.9984,-0.72507,-3.06622,14.026,-0.0136476,0.175127,0.0665408,0,0,1,3.6575,0.14,-1.2425,-0.107726,0.199714,-0.945134,-0.22218,0.09156,0.4165
1.28982,0,0,13.7102,13.7102,16.2898,16.2898,-0.93315,-3.12571,14.2026,-0.0126109,0.171502,0.0664323,0,0,1,3.1325,0.28,-1.5575,-0.107726,0.199714,-0.945134,-0.2275,0.08372,0.40936
1.03128,0,0,13.9687,13.9687,16.0313,16.0313,-0.748401,-3.10128,14.2615,-0.00343916,-0.159295,0.0340443,0,0,1,3.605,0.21,-1.8725,-0.098088,-0.133956,-0.977342,-0.2275,0.08372,0.40936
0.776651,0,0,14.2233,14.2233,15.7767,15.7767,-0.566461,-3.07857,14.3191,-0.00383501,-0.156125,0.034102,0,0,1,4.025,-0.0525,-2.5375,-0.098088,-0.133956,-0.977342,-0.2275,0.08372,0.40936
1.02661,0,0,13.9734,13.9734,16.0266,16.0266,-0.744925,-2.77296,14.2357,0.235875,0.171969,0.0553629,0,0,1,3.9725,0.14,-2.6075,0.147986,0.196908,-0.95648,-0.2275,0.08372,0.40936
1.27265,0,0,13.7274,13.7274,16.2726,16.2726,-0.920566,-2.47312,14.151,0.230647,0.168904,0.0555578,0,0,1,3.885,0.5075,-2.695,0.147986,0.196908,-0.95648,-0.2275,0.08372,0.40936
1.27047,0,0,13.7295,13.7295,16.2705,16.2705,-0.918909,-2.47365,14.1475,-0.0273793,0.0857643,-0.13157,1,0,1,4.3575,-0.14,-2.905,-0.111142,0.113826,-1.14216,-0.2275,0.08372,0.40936
1.2692,0,0,13.7308,13.7308,16.2692,16.2692,-0.917909,-2.47395,14.144,-0.0273742,0.0857817,-0.13157,1,0,1,3.99,0,-2.87,-0.111142,0.113826,-1.14216,-0.2275,0.08372,0.40936
1.24628,0,0,13.7537,13.7537,16.2463,16.2463,-0.901436,-2.03397,13.9296,0.319934,0.00912431,0.00865225,0,0,1,3.9025,0.455,-2.4325,0.245342,0.036966,-1.00333,-0.2275,0.08372,0.40936
1.22381,0,0,13.7762,13.7762,16.2238,16.2238,-0.88529,-1.60332,13.7084,0.312421,0.00940222,0.00889515,0,0,1,4.2875,0.2275,-2.205,0.245342,0.036966,-1.00333,-0.23044,0.08862,0.41174
0.890065,0,0,14.1099,14.1099,15.8901,15.8901,-0.646834,-1.2179,13.4818,0.236328,-0.183797,0.0948115,0,0,1,4.3575,0.105,-1.54,0.17568,-0.160186,-0.918294,-0.23044,0.08862,0.41174
0.563905,0,0,14.4361,14.4361,15.5639,15.5639,-0.413818,-0.842203,13.2592,0.229772,-0.179732,0.094967,0,0,1,4.3575,0.105,-1.54,0.17568,-0.160186,-0.918294,-0.23044,0.08862,0.41174
0.467211,0,0,14.5328,14.5328,15.4672,15.4672,-0.344714,-1.00403,13.4241,-0.116918,-0.0694663,0.0325946,0,0,1,3.6575,0.21,-0.735,-0.175314,-0.05124,-0.980148,-0.23044,0.08862,0.41174
0.373061,0,0,14.6269,14.6269,15.3731,15.3731,-0.277435,-1.16165,13.5876,-0.114167,-0.068292,0.0325489,0,0,1,3.29,0.4025,-0.56,-0.175314,-0.05124,-0.980148,-0.23044,0.08862,0.41174
0.136653,0,0,14.8633,14.8633,15.1367,15.1367,-0.10856,-1.03057,13.5432,0.0723339,-0.138866,0.0598972,0,0,1,3.115,0.49,0.1575,0.014274,-0.124684,-0.953064,-0.23044,0.08862,0.41174
-0.0966869,0,0,15.0967,15.0967,14.9033,14.9033,0.0581048,-0.903219,13.4999,0.0701115,-0.135957,0.059936,0,0,1,3.8325,0.49,0.315,0.014274,-0.124684,-0.953064,-0.23044,0.08862,0.41174
-0.0980066,0,0,15.098,15.098,14.902,14.902,0.0590411,-0.90334,13.5023,0.232783,-0.0443458,-0.147724,1,0,1,4.06,0.07,0.5775,0.177632,-0.033184,-1.15912,-0.23044,0.08862,0.41174
-0.0980048,0,0,15.098,15.098,14.902,14.902,0.0590334,-0.903522,13.5053,0.232786,-0.0443459,-0.147724,1,0,1,3.535,0.035,0.8575,0.177632,-0.033184,-1.15912,-0.23044,0.08862,0.41174
-0.0997907,0,0,15.0998,15.0998,14.9002,14.9002,0.0603027,-0.904271,13.5084,0.228547,0.202983,-0.0748159,1,0,1,4.2525,-0.2975,0.9625,0.173362,0.213866,-1.08678,-0.22484,0.09002,0.40922
-0.0977236,0,0,15.0977,15.0977,14.9023,14.9023,0.0588199,-0.904573,13.5118,0.162221,-0.225464,-0.145634,1,0,1,2.7125,-0.035,1.155,0.10675,-0.21411,-1.15705,-0.22484,0.09002,0.40922
-0.0931525,0,0,15.0932,15.0932,14.9068,14.9068,0.0555489,-0.903977,13.5138,0.162211,-0.225521,-0.145634,1,0,1,1.6975,0.49,0.3325,0.10675,-0.21411,-1.15705,-0.22484,0.09002,0.40922
-0.0886327,0,0,15.0886,15.0886,14.9114,14.9114,0.0523148,-0.903768,13.5154,-0.102632,0.24168,-0.104569,1,0,1,1.715,0.2625,0.1225,-0.15921,0.252662,-1.1163,-0.22484,0.09002,0.40922
-0.0859201,0,0,15.0859,15.0859,14.9141,14.9141,0.0503718,-0.904157,13.5164,-0.102625,0.241646,-0.104569,1,0,1,2.4325,-0.0875,-0.2975,-0.15921,0.252662,-1.1163,-0.22484,0.09002,0.40922
-0.0913267,0,0,15.0913,15.0913,14.9087,14.9087,0.0542279,-0.963228,13.6164,-0.0459535,-0.00718112,-0.0677015,0,0,1,3.5525,0.14,-0.8225,-0.103334,0.004026,-1.0797,-0.22484,0.09002,0.40922
-0.0969104,0,0,15.0969,15.0969,14.9031,14.9031,0.05821,-1.02013,13.7151,-0.0449606,-0.00711165,-0.0677188,0,0,1,3.6225,0.56,-1.2075,-0.103334,0.004026,-1.0797,-0.22484,0.09002,0.40922
-0.0991425,0,0,15.0991,15.0991,14.9009,14.9009,0.0597979,-1.01971,13.714,0.279156,-0.185755,-0.052596,1,0,1,4.3925,0.385,-1.505,0.222162,-0.17446,-1.06469,-0.22484,0.09002,0.40922
-0.0982733,0,0,15.0983,15.0983,14.9017,14.9017,0.0591708,-1.01974,13.7128,0.279156,-0.185766,-0.052596,1,0,1,3.15,0.1225,-1.54,0.222162,-0.17446,-1.06469,-0.23058,0.08386,0.4011
-0.13628,0,0,15.1363,15.1363,14.8637,14.8637,0.0863094,-0.521902,13.439,0.357452,0.00180562,0.0285433,0,0,1,3.1675,-0.245,-1.75,0.309514,0.012444,-0.984296,-0.23058,0.08386,0.4011
-0.170678,0,0,15.1707,15.1707,14.8293,14.8293,0.110867,-0.0346852,13.1653,0.348949,0.0022343,0.0285839,0,0,1,2.6775,0.175,-2.485,0.309514,0.012444,-0.984296,-0.23058,0.08386,0.4011
-0.142568,0,0,15.1426,15.1426,14.8574,14.8574,0.0907789,0.333219,12.972,0.270244,0.0391323,-0.0058578,0,0,1,3.465,0.07,-2.5725,0.236924,0.049654,-1.01846,-0.23058,0.08386,0.4011
-0.116088,0,0,15.1161,15.1161,14.8839,14.8839,0.0718569,0.693173,12.7798,0.263962,0.038802,-0.0059136,0,0,1,4.34,0.42,-2.3275,0.236924,0.049654,-1.01846,-0.23058,0.08386,0.4011
-0.131414,0,0,15.1314,15.1314,14.8686,14.8686,0.082795,0.620512,12.873,-0.0522125,-0.0129109,-0.000612538,0,0,1,4.13,0.63,-2.3275,-0.081862,-0.002196,-1.01321,-0.23058,0.08386,0.4011
-0.145474,0,0,15.1455,15.1455,14.8545,14.8545,0.0928281,0.549639,12.966,-0.0509756,-0.0127358,-0.000600175,0,0,1,3.6925,0.63,-2.0825,-0.081862,-0.002196,-1.01321,-0.23058,0.08386,0.4011
-0.145465,0,0,15.1455,15.1455,14.8545,14.8545,0.092812,0.544002,13.017,-0.00495564,-0.000401306,0.0687437,0,0,1,3.395,0.6825,-1.89,-0.035746,0.010126,-0.944402,-0.23058,0.08386,0.4011
-0.145171,0,0,15.1452,15.1452,14.8548,14.8548,0.092592,0.537682,13.0764,-0.00484533,-0.000405143,0.0687448,0,0,1,3.2725,0.21,-1.1375,-0.035746,0.010126,-0.944402,-0.23422,0.07882,0.4004
-0.14344,0,0,15.1434,15.1434,14.8566,14.8566,0.0913458,0.538132,13.0759,-0.27686,0.146858,-0.128834,1,0,1,2.8175,0.4025,-1.1375,-0.308904,0.157258,-1.14046,-0.23422,0.07882,0.4004
-0.1432,0,0,15.1432,15.1432,14.8568,14.8568,0.0911642,0.538162,13.0757,-0.27686,0.146855,-0.128834,1,0,1,3.4125,0.1575,-0.9275,-0.308904,0.157258,-1.14046,-0.23422,0.07882,0.4004
0.0566154,0,0,14.9434,14.9434,15.0566,15.0566,-0.0515553,0.551815,13.1372,0.0228497,0.133006,-0.00699295,0,0,1,3.605,0.1575,-0.7525,-0.007686,0.145912,-1.01955,-0.23422,0.07882,0.4004
0.252386,0,0,14.7476,14.7476,15.2524,15.2524,-0.191371,0.56479,13.1993,0.0226233,0.130566,-0.00700033,0,0,1,3.7275,-0.2275,-0.21,-0.007686,0.145912,-1.01955,-0.23422,0.07882,0.4004
0.203255,0,0,14.7967,14.7967,15.2033,15.2033,-0.156261,0.270405,13.4477,-0.213509,-0.0478591,0.00053883,0,0,1,4.55,-0.2275,-0.28,-0.249978,-0.03294,-1.01211,-0.23422,0.07882,0.4004
0.156642,0,0,14.8434,14.8434,15.1566,15.1566,-0.122953,-0.0168666,13.6945,-0.208496,-0.0472778,0.00055134,0,0,1,3.815,-0.28,0.2275,-0.249978,-0.03294,-1.01211,-0.23422,0.07882,0.4004
0.156345,0,0,14.8437,14.8437,15.1563,15.1563,-0.122727,-0.017251,13.6959,-0.107291,-0.000621429,0.139114,1,0,1,3.64,-0.0875,0.0175,-0.148352,0.013664,-0.874618,-0.23422,0.07882,0.4004
0.154563,0,0,14.8454,14.8454,15.1546,15.1546,-0.121441,-0.0177261,13.697,-0.107283,-0.000598975,0.139114,1,0,1,4.235,-0.14,-0.245,-0.148352,0.013664,-0.874618,-0.23198,0.08078,0.40768
0.257467,0,0,14.7425,14.7425,15.2575,15.2575,-0.194924,-0.0443966,13.7833,-0.0109654,0.0635785,0.037801,0,0,1,3.885,-0.2275,-0.035,-0.052094,0.079056,-0.975146,-0.23198,0.08078,0.40768
0.361275,0,0,14.6387,14.6387,15.3613,15.3613,-0.269043,-0.0693149,13.8689,-0.0105305,0.0622848,0.0377953,0,0,1,2.73,0.315,-0.14,-0.052094,0.079056,-0.975146,-0.23198,0.08078,0.40768
0.197738,0,0,14.8023,14.8023,15.1977,15.1977,-0.152214,0.180001,13.7433,0.170505,-0.0974941,-0.0153151,0,0,1,2.555,0.245,-0.5775,0.134078,-0.082594,-1.02785,-0.23198,0.08078,0.40768
0.0365837,0,0,14.9634,14.9634,15.0366,15.0366,-0.0371004,0.422576,13.6196,0.166272,-0.0954849,-0.0153341,0,0,1,3.115,0,-0.42,0.134078,-0.082594,-1.02785,-0.23198,0.08078,0.40768
-0.140898,0,0,15.1409,15.1409,14.8591,14.8591,0.0896629,0.407705,13.6643,-0.0205568,-0.109515,0.0675341,0,0,1,3.395,-0.2275,-0.77,-0.053802,-0.09882,-0.945622,-0.23198,0.08078,0.40768
-0.31427,0,0,15.3143,15.3143,14.6857,14.6857,0.213477,0.393242,13.708,-0.0203043,-0.107355,0.0675301,0,0,1,3.08,-0.0175,-1.1375,-0.053802,-0.09882,-0.945622,-0.23198,0.08078,0.40768
-0.501498,0,0,15.5015,15.5015,14.4985,14.4985,0.347174,0.67664,13.5495,0.187228,-0.10783,0.0239488,0,0,1,2.8,0.2275,-1.2775,0.159576,-0.101626,-0.98881,-0.23198,0.08078,0.40768
-0.687928,0,0,15.6879,15.6879,14.3121,14.3121,0.480287,0.951974,13.3951,0.182423,-0.105508,0.0238637,0,0,1,4.375,0.35,-1.3475,0.159576,-0.101626,-0.98881,-0.2275,0.07966,0.40824
-0.701433,0,0,15.7014,15.7014,14.2986,14.2986,0.489881,1.12738,13.3196,0.131983,0.00151997,-0.0599212,0,0,1,4.2175,0.6475,-1.365,0.111996,0.005124,-1.07189,-0.2275,0.07966,0.40824
-0.713923,0,0,15.7139,15.7139,14.2861,14.2861,0.498749,1.29859,13.2446,0.128995,0.00167416,-0.0599858,0,0,1,4.0775,0.6825,-1.26,0.111996,0.005124,-1.07189,-0.2275,0.07966,0.40824
-0.876232,0,0,15.8762,15.8762,14.1238,14.1238,0.614618,1.17605,13.3535,-0.10139,-0.119774,-0.0575003,0,0,1,4.48,0.5775,-1.1375,-0.121512,-0.118218,-1.06945,-0.2275,0.07966,0.40824
-1.03632,0,0,16.0363,16.0363,13.9637,13.9637,0.728886,1.05585,13.461,-0.0992926,-0.117779,-0.0574828,0,0,1,4.725,0.315,-1.1375,-0.121512,-0.118218,-1.06945,-0.2275,0.07966,0.40824
-1.10508,0,0,16.1051,16.1051,13.8949,13.8949,0.777916,0.957485,13.5615,-0.073036,-0.0496317,0.00573163,0,0,1,3.955,0.105,-1.3125,-0.096868,-0.050996,-1.00674,-0.2275,0.07966,0.40824
-1.16951,0,0,16.1695,16.1695,13.8305,13.8305,0.823855,0.861877,13.661,-0.0713675,-0.0488297,0.00574692,0,0,1,2.6775,0.35,-1.3125,-0.096868,-0.050996,-1.00674,-0.2275,0.07966,0.40824
-1.2018,0,0,16.2018,16.2018,13.7982,13.7982,0.846825,0.932559,13.6519,0.046455,-0.017409,0.029082,0,0,1,2.7125,-0.3675,-1.3125,0.022692,-0.020008,-0.983564,-0.2275,0.07966,0.40824
-1.23228,0,0,16.2323,16.2323,13.7677,13.7677,0.868502,1.00249,13.6431,0.0452346,-0.0170311,0.0290557,0,0,1,2.2925,0.245,-1.2075,0.022692,-0.020008,-0.983564,-0.2275,0.07966,0.40824
-0.889304,0,0,15.8893,15.8893,14.1107,14.1107,0.623455,1.27462,13.5255,0.201455,0.233571,0.0852045,0,0,1,3.2375,0.07,-1.19,0.184342,0.234606,-0.92781,-0.23296,0.08176,0.399
-0.554227,0,0,15.5542,15.5542,14.4458,14.4458,0.384073,1.54018,13.4078,0.196821,0.229393,0.0851274,0,0,1,4.2,-0.455,-0.6125,0.184342,0.234606,-0.92781,-0.23296,0.08176,0.399
-0.557357,0,0,15.5574,15.5574,14.4426,14.4426,0.386267,1.53922,13.4078,0.119573,0.130386,0.130373,1,0,1,4.7425,-0.42,-0.7875,0.10675,0.135664,-0.882914,-0.23296,0.08176,0.399
-0.316285,0,0,15.3163,15.3163,14.6837,14.6837,0.21405,1.54838,13.4507,0.0240468,0.174523,-0.0793661,0,0,1,3.9725,-0.105,-0.9625,0.01098,0.182756,-1.09105,-0.23296,0.08176,0.399
-0.0793604,0,0,15.0794,15.0794,14.9206,14.9206,0.0448134,1.55807,13.4938,0.0238779,0.17157,-0.079364,0,0,1,3.85,0.1575,-0.7525,0.01098,0.182756,-1.09105,-0.23296,0.08176,0.399
-0.0814556,0,0,15.0815,15.0815,14.9185,14.9185,0.0463049,1.55831,13.4933,0.000426928,0.0796347,0.157066,1,0,1,4.3575,0.28,-1.1375,-0.012566,0.09089,-0.85644,-0.23296,0.08176,0.399
-0.0811297,0,0,15.0811,15.0811,14.9189,14.9189,0.0460673,1.55789,13.4935,0.000434215,0.0796305,0.157066,1,0,1,3.3775,-0.105,-0.735,-0.012566,0.09089,-0.85644,-0.23296,0.08176,0.399
-0.0824991,0,0,15.0825,15.0825,14.9175,14.9175,0.0470404,1.55717,13.4935,0.074553,0.0659693,0.168623,1,0,1,4.06,-0.28,-0.875,0.061854,0.077226,-0.844972,-0.23296,0.08176,0.399
-0.0819986,0,0,15.082,15.082,14.918,14.918,0.0466778,1.55663,13.4937,0.0745624,0.065963,0.168624,1,0,1,3.3075,-0.175,-0.735,0.061854,0.077226,-0.844972,-0.22554,0.07896,0.40124
-0.0814474,0,0,15.0814,15.0814,14.9186,14.9186,0.0462792,1.55634,13.4937,0.280972,0.0520336,-0.098912,1,0,1,3.29,-0.035,-0.84,0.269132,0.063318,-1.11044,-0.22554,0.07896,0.40124
-0.0810041,0,0,15.081,15.081,14.919,14.919,0.0459577,1.55616,13.4942,0.280975,0.052028,-0.0989119,1,0,1,3.325,0.035,-0.525,0.269132,0.063318,-1.11044,-0.22554,0.07896,0.40124
-0.154642,0,0,15.1546,15.1546,14.8454,14.8454,0.0985455,1.57705,13.5111,0.012856,-0.0512287,-0.0626533,0,0,1,3.0975,0.245,-0.8225,0.000244,-0.040748,-1.07445,-0.22554,0.07896,0.40124
-0.227553,0,0,15.2276,15.2276,14.7724,14.7724,0.150609,1.59857,13.5278,0.0124805,-0.0503204,-0.0626656,0,0,1,3.3775,0.98,-0.875,0.000244,-0.040748,-1.07445,-0.22554,0.07896,0.40124
-0.225744,0,0,15.2257,15.2257,14.7743,14.7743,0.149301,1.59994,13.5288,0.0587426,-0.102125,0.124215,1,0,1,2.765,0.945,-0.28,0.046726,-0.092476,-0.889014,-0.22554,0.07896,0.40124
-0.227973,0,0,15.228,15.228,14.772,14.772,0.150877,1.59979,13.5302,0.0587453,-0.102097,0.124215,1,0,1,4.375,0.0525,-0.0175,0.046726,-0.092476,-0.889014,-0.22554,0.07896,0.40124
-0.249454,0,0,15.2495,15.2495,14.7505,14.7505,0.166202,1.33613,13.7433,-0.200036,-0.0312405,-0.0509919,0,0,1,3.5525,0.0175,0.105,-0.21777,-0.02196,-1.06299,-0.22554,0.07896,0.40124
-0.27062,0,0,15.2706,15.2706,14.7294,14.7294,0.181302,1.07878,13.9475,-0.195545,-0.0309767,-0.0508981,0,0,1,3.5875,0.3675,-0.21,-0.21777,-0.02196,-1.06299,-0.22904,0.08246,0.40572
-0.270596,0,0,15.2706,15.2706,14.7294,14.7294,0.181265,1.07917,13.9484,-0.1308,-0.214534,-0.182576,1,0,1,3.4825,0.3675,-0.2625,-0.152744,-0.205326,-1.19365,-0.22904,0.08246,0.40572
-0.271042,0,0,15.271,15.271,14.729,14.729,0.181564,1.07976,13.949,-0.13081,-0.214529,-0.182576,1,0,1,3.675,0.49,-0.5075,-0.152744,-0.205326,-1.19365,-0.22904,0.08246,0.40572
-0.269478,0,0,15.2695,15.2695,14.7305,14.7305,0.180427,1.08048,13.9496,0.00912882,-0.045525,-0.134258,1,0,1,2.87,0.56,-0.49,-0.0122,-0.036478,-1.1457,-0.22904,0.08246,0.40572
-0.269624,0,0,15.2696,15.2696,14.7304,14.7304,0.180512,1.08039,13.9488,0.00913032,-0.0455236,-0.134258,1,0,1,3.57,0.0875,-1.33,-0.0122,-0.036478,-1.1457,-0.22904,0.08246,0.40572
-0.423577,0,0,15.4236,15.4236,14.5764,14.5764,0.290448,1.0957,13.9581,0.00145262,-0.0953869,0.0431441,0,0,1,4.305,-0.105,-1.4175,-0.019642,-0.088206,-0.969656,-0.22904,0.08246,0.40572
-0.573389,0,0,15.5734,15.5734,14.4266,14.4266,0.397414,1.11014,13.9672,0.00120053,-0.0935204,0.043128,0,0,1,3.815,-0.245,-1.575,-0.019642,-0.088206,-0.969656,-0.22904,0.08246,0.40572
-0.574313,0,0,15.5743,15.5743,14.4257,14.4257,0.398031,1.1101,13.9648,-0.226098,0.0495007,0.19042,1,0,1,3.885,0.105,-2.205,-0.247904,0.054656,-0.8235,-0.22904,0.08246,0.40572
-0.576027,0,0,15.576,15.576,14.424,14.424,0.399212,1.10943,13.9626,-0.226087,0.0495214,0.19042,1,0,1,4.2,-0.2625,-2.135,-0.247904,0.054656,-0.8235,-0.23016,0.08316,0.40432
-0.325493,0,0,15.3255,15.3255,14.6745,14.6745,0.220236,1.28427,13.8959,0.137628,0.175486,0.0329994,0,0,1,3.745,-0.28,-2.2575,0.120414,0.18361,-0.97966,-0.23016,0.08316,0.40432
-0.078238,0,0,15.0782,15.0782,14.9218,14.9218,0.0436208,1.45563,13.8284,0.134638,0.172404,0.032935,0,0,1,3.395,-0.14,-2.52,0.120414,0.18361,-0.97966,-0.23016,0.08316,0.40432
0.228254,0,0,14.7717,14.7717,15.2283,15.2283,-0.175283,1.12353,14.1034,-0.231557,0.194842,-0.0162413,0,0,1,4.2175,-0.595,-2.345,-0.25315,0.20984,-1.02858,-0.23016,0.08316,0.40432
0.528976,0,0,14.471,14.471,15.529,15.529,-0.390043,0.799305,14.3796,-0.225899,0.191094,-0.0161648,0,0,1,4.305,-0.665,-1.8375,-0.25315,0.20984,-1.02858,-0.23016,0.08316,0.40432
0.527218,0,0,14.4728,14.4728,15.5272,15.5272,-0.388745,0.798101,14.3781,0.133598,0.159607,0.127931,1,0,1,4.2525,-0.56,-1.715,0.107848,0.178364,-0.885598,-0.23016,0.08316,0.40432
0.52631,0,0,14.4737,14.4737,15.5263,15.5263,-0.388056,0.797861,14.3778,0.133603,0.15962,0.127931,1,0,1,3.9025,0,-1.015,0.107848,0.178364,-0.885598,-0.23016,0.08316,0.40432
0.36458,0,0,14.6354,14.6354,15.3646,15.3646,-0.272505,1.013,14.2534,0.159734,-0.102524,-0.0736289,0,0,1,3.7275,-0.14,-0.9625,0.13786,-0.085522,-1.08556,-0.23016,0.08316,0.40432
0.207251,0,0,14.7927,14.7927,15.2073,15.2073,-0.16011,1.22422,14.133,0.156048,-0.100562,-0.0736935,0,0,1,3.3075,0.35,-0.35,0.13786,-0.085522,-1.08556,-0.22694,0.08302,0.39046
0.209442,0,0,14.7906,14.7906,15.2094,15.2094,-0.161658,1.22515,14.1347,-0.176475,-0.0411136,0.121917,1,0,1,2.625,0.6825,0.175,-0.196054,-0.026108,-0.891454,-0.22694,0.08302,0.39046
0.207641,0,0,14.7924,14.7924,15.2076,15.2076,-0.160354,1.22576,14.137,-0.176485,-0.0410908,0.121917,1,0,1,4.2175,0.49,0.4725,-0.196054,-0.026108,-0.891454,-0.22694,0.08302,0.39046
0.207315,0,0,14.7927,14.7927,15.2073,15.2073,-0.160104,1.22639,14.1396,-0.112595,-0.234047,-0.254429,1,0,1,3.6225,0.5075,0.6825,-0.131882,-0.218868,-1.2649,-0.22694,0.08302,0.39046
0.208293,0,0,14.7917,14.7917,15.2083,15.2083,-0.160785,1.22768,14.1424,-0.112617,-0.234059,-0.254429,1,0,1,3.0975,0.8925,0.805,-0.131882,-0.218868,-1.2649,-0.22694,0.08302,0.39046
0.21084,0,0,14.7892,14.7892,15.2108,15.2108,-0.162587,1.22841,14.1454,0.0590293,-0.124542,-0.0906621,1,0,1,2.4675,0.56,0.91,0.040504,-0.109434,-1.10239,-0.22694,0.08302,0.39046
0.211817,0,0,14.7882,14.7882,15.2118,15.2118,-0.163267,1.22797,14.1483,0.0590369,-0.124554,-0.0906619,1,0,1,3.0975,-0.1225,0.84,0.040504,-0.109434,-1.10239,-0.22694,0.08302,0.39046
0.209967,0,0,14.79,14.79,15.21,15.21,-0.161929,1.22777,14.1507,-0.202518,0.064155,-0.125948,1,0,1,4.235,0.0175,0.56,-0.222162,0.079056,-1.13741,-0.22694,0.08302,0.39046
0.207354,0,0,14.7926,14.7926,15.2074,15.2074,-0.160045,1.22822,14.1523,-0.202526,0.0641878,-0.125948,1,0,1,4.55,0.4025,0.105,-0.222162,0.079056,-1.13741,-0.23002,0.084,0.39886
0.204196,0,0,14.7958,14.7958,15.2042,15.2042,-0.157772,1.2293,14.1532,0.0102979,-0.0189408,0.109867,1,0,1,4.7775,0.77,-0.3325,-0.008418,-0.004026,-0.90341,-0.23002,0.084,0.39886
0.202372,0,0,14.7976,14.7976,15.2024,15.2024,-0.156453,1.22897,14.1533,0.0103037,-0.0189178,0.109867,1,0,1,4.2525,-0.0525,-0.805,-0.008418,-0.004026,-0.90341,-0.23002,0.084,0.39886
0.429019,0,0,14.571,14.571,15.429,15.429,-0.31831,1.08561,14.2986,-0.0859625,0.133481,0.0715459,0,0,1,3.6925,0.035,-1.505,-0.107604,0.151036,-0.941474,-0.23002,0.084,0.39886
0.652461,0,0,14.3475,14.3475,15.6525,15.6525,-0.477859,0.94553,14.4426,-0.0835181,0.130696,0.0715699,0,0,1,3.2725,-0.175,-2.205,-0.107604,0.151036,-0.941474,-0.23002,0.084,0.39886
0.489813,0,0,14.5102,14.5102,15.4898,15.4898,-0.361644,0.595961,14.6916,-0.238993,-0.118491,0.126502,0,0,1,3.6925,-0.07,-2.4325,-0.269864,-0.099918,-0.887062,-0.23002,0.084,0.39886
0.327144,0,0,14.6729,14.6729,15.3271,15.3271,-0.245425,0.254757,14.9366,-0.233039,-0.116463,0.126557,0,0,1,4.7075,0.07,-2.8175,-0.269864,-0.099918,-0.887062,-0.23002,0.084,0.39886
0.324088,0,0,14.6759,14.6759,15.3241,15.3241,-0.243217,0.253848,14.9333,0.111511,-0.146345,-0.247575,1,0,1,4.76,-0.385,-2.7825,0.076128,-0.129808,-1.25831,-0.23002,0.084,0.39886
0.322211,0,0,14.6778,14.6778,15.3222,15.3222,-0.24185,0.252849,14.9301,0.111528,-0.146322,-0.247575,1,0,1,4.2875,-0.4375,-2.695,0.076128,-0.129808,-1.25831,-0.23002,0.084,0.39886
0.218225,0,0,14.7818,14.7818,15.2182,15.2182,-0.167556,-0.164393,15.2394,-0.316837,-0.0989831,0.0266104,0,0,1,3.1675,-0.56,-2.485,-0.361364,-0.083814,-0.986248,-0.22554,0.08148,0.39536
0.0314959,0,0,14.9685,14.9685,15.0315,15.0315,-0.0341745,-0.126743,15.2411,0.0146475,-0.120226,0.0162885,0,0,1,3.4125,-0.28,-2.275,-0.027816,-0.10736,-0.996496,-0.22554,0.08148,0.39536
-0.153924,0,0,15.1539,15.1539,14.8461,14.8461,0.098258,-0.0897529,15.2445,0.0140019,-0.117914,0.0162884,0,0,1,4.3225,0.07,-1.3475,-0.027816,-0.10736,-0.996496,-0.22554,0.08148,0.39536
-0.155348,0,0,15.1553,15.1553,14.8447,14.8447,0.0992641,-0.0903194,15.2444,-0.10468,-0.0735647,-0.115021,1,0,1,4.0775,-0.1925,-0.945,-0.14701,-0.063074,-1.12679,-0.22554,0.08148,0.39536
-0.156944,0,0,15.1569,15.1569,14.8431,14.8431,0.100393,-0.0905295,15.2453,-0.104676,-0.073545,-0.115021,1,0,1,4.1475,0.0175,-0.2625,-0.14701,-0.063074,-1.12679,-0.22554,0.08148,0.39536
-0.0476169,0,0,15.0476,15.0476,14.9524,14.9524,0.0223003,0.29636,15.0455,0.303445,0.102298,-0.00536129,0,0,1,3.78,0.0525,0.0175,0.26962,0.113948,-1.01797,-0.22554,0.08148,0.39536
0.0624747,0,0,14.9375,14.9375,15.0625,15.0625,-0.0563305,0.675046,14.8465,0.296836,0.100926,-0.00541773,0,0,1,3.1325,0.14,0.5075,0.26962,0.113948,-1.01797,-0.22554,0.08148,0.39536
0.063924,0,0,14.9361,14.9361,15.0639,15.0639,-0.0573596,0.675348,14.8486,0.0198434,0.0314176,0.144702,1,0,1,2.9225,0.315,0.4025,-0.00854,0.04453,-0.869006,-0.22554,0.08148,0.39536
0.0667145,0,0,14.9333,14.9333,15.0667,15.0667,-0.0593464,0.67577,14.8516,0.019836,0.0313829,0.144702,1,0,1,2.38,0.385,0.8925,-0.00854,0.04453,-0.869006,-0.22274,0.08022,0.39536
-0.137477,0,0,15.1375,15.1375,14.8625,14.8625,0.0864955,0.653064,14.8905,-0.0320066,-0.151582,-0.0820109,0,0,1,2.695,0.5075,0.735,-0.061,-0.140788,-1.09397,-0.22274,0.08022,0.39536
-0.34288,0,0,15.3429,15.3429,14.6571,14.6571,0.233187,0.629912,14.9289,-0.0316025,-0.149022,-0.0820135,0,0,1,4.6725,0.14,0.6125,-0.061,-0.140788,-1.09397,-0.22274,0.08022,0.39536
-0.345718,0,0,15.3457,15.3457,14.6543,14.6543,0.235189,0.629902,14.9315,-0.471016,-0.0340661,-0.17275,1,0,1,4.62,0.14,0.6475,-0.502274,-0.025986,-1.18401,-0.22274,0.08022,0.39536
-0.35107,0,0,15.3511,15.3511,14.6489,14.6489,0.238986,0.631123,14.9327,-0.471037,-0.0339998,-0.17275,1,0,1,5.635,0.8575,-0.14,-0.502274,-0.025986,-1.18401,-0.22274,0.08022,0.39536
-0.268365,0,0,15.2684,15.2684,14.7316,14.7316,0.179892,0.540648,15.0433,-0.0645466,0.0552206,-0.0737567,0,0,1,4.8125,0.665,-0.5425,-0.095648,0.064172,-1.0858,-0.22274,0.08022,0.39536
-0.185248,0,0,15.1852,15.1852,14.8148,14.8148,0.12051,0.451721,15.1521,-0.0629946,0.0541843,-0.0737405,0,0,1,3.99,0.2275,-1.2775,-0.095648,0.064172,-1.0858,-0.22274,0.08022,0.39536
-0.195321,0,0,15.1953,15.1953,14.8047,14.8047,0.127691,0.420277,15.2124,-0.0221125,-0.00809716,0.0806867,0,0,1,3.325,0.07,-1.925,-0.055144,0.00183,-0.932568,-0.22274,0.08022,0.39536
-0.204958,0,0,15.205,15.205,14.795,14.795,0.13456,0.388861,15.2667,-0.0215642,-0.00797727,0.0806903,0,0,1,3.22,-0.28,-2.1525,-0.055144,0.00183,-0.932568,-0.22848,0.08246,0.40418
-0.444131,0,0,15.4441,15.4441,14.5559,14.5559,0.305365,0.654858,15.0971,0.175095,-0.140069,0.0399406,0,0,1,4.0425,-0.21,-2.485,0.14701,-0.133102,-0.97295,-0.22848,0.08246,0.40418
-0.680183,0,0,15.6802,15.6802,14.3198,14.3198,0.473923,0.914107,14.9294,0.170571,-0.137128,0.0398587,0,0,1,4.9,-0.28,-2.73,0.14701,-0.133102,-0.97295,-0.22848,0.08246,0.40418
-0.896865,0,0,15.8969,15.8969,14.1031,14.1031,0.628628,0.710439,15.0682,-0.150849,-0.145785,0.0820544,0,0,1,4.725,-0.105,-2.7125,-0.17934,-0.144448,-0.931104,-0.22848,0.08246,0.40418
-1.10983,0,0,16.1098,16.1098,13.8902,13.8902,0.780665,0.510681,15.2053,-0.147363,-0.143131,0.0820589,0,0,1,4.655,-0.5075,-2.5025,-0.17934,-0.144448,-0.931104,-0.22848,0.08246,0.40418
-1.05068,0,0,16.0507,16.0507,13.9493,13.9493,0.738331,0.68781,15.124,0.144027,0.0564172,-0.0682066,0,0,1,4.6725,-0.9275,-2.1,0.116388,0.055632,-1.08019,-0.22848,0.08246,0.40418
-0.990673,0,0,15.9907,15.9907,14.0093,14.0093,0.695397,0.861855,15.0437,0.14099,0.0556675,-0.0682384,0,0,1,4.0775,-0.35,-1.6975,0.116388,0.055632,-1.08019,-0.22848,0.08246,0.40418
-0.945527,0,0,15.9455,15.9455,14.0545,14.0545,0.663079,0.774476,15.1338,-0.0581796,0.0244499,0.0366652,0,0,1,3.71,-0.1225,-1.2425,-0.085156,0.02501,-0.976122,-0.22848,0.08246,0.40418
-0.901927,0,0,15.9019,15.9019,14.0981,14.0981,0.631868,0.689311,15.227,-0.0566933,0.0239055,0.0366903,0,0,1,3.9375,-0.0525,-0.665,-0.085156,0.02501,-0.976122,-0.22582,0.08134,0.3969
-0.646287,0,0,15.6463,15.6463,14.3537,14.3537,0.44922,0.718324,15.2673,0.0399889,0.182902,-0.0423417,0,0,1,3.7275,-0.1225,-0.42,0.012444,0.187026,-1.05457,-0.22582,0.08134,0.3969
-0.394497,0,0,15.3945,15.3945,14.6055,14.6055,0.269341,0.747457,15.3079,0.0394805,0.179763,-0.0423285,0,0,1,3.43,0.14,-0.1225,0.012444,0.187026,-1.05457,-0.22582,0.08134,0.3969
-0.436669,0,0,15.4367,15.4367,14.5633,14.5633,0.299432,0.701181,15.3697,-0.0369768,-0.0328228,-0.0176083,0,0,1,2.94,0.3675,0.4375,-0.065148,-0.025864,-1.03005,-0.22582,0.08134,0.3969
-0.478376,0,0,15.4784,15.4784,14.5216,14.5216,0.329187,0.656189,15.4314,-0.0361916,-0.0323035,-0.0176018,0,0,1,3.0275,0.5075,0.6475,-0.065148,-0.025864,-1.03005,-0.22582,0.08134,0.3969
-0.736816,0,0,15.7368,15.7368,14.2632,14.2632,0.513733,1.05299,15.1755,0.258654,-0.141318,0.0929248,0,0,1,3.395,0.07,0.77,0.2379,-0.137982,-0.920246,-0.22582,0.08134,0.3969
-0.987431,0,0,15.9874,15.9874,14.0126,14.0126,0.692669,1.44144,14.9227,0.251876,-0.138198,0.0927444,0,0,1,2.6775,0.7175,0.7175,0.2379,-0.137982,-0.920246,-0.22582,0.08134,0.3969
-0.881953,0,0,15.882,15.882,14.118,14.118,0.617262,1.43368,14.9632,-0.0014077,0.0665145,0.0648535,0,0,1,3.4475,0.28,0.4725,-0.016592,0.067832,-0.94794,-0.22582,0.08134,0.3969
-0.782315,0,0,15.7823,15.7823,14.2177,14.2177,0.546033,1.42548,15.0056,-0.00126473,0.0652718,0.0648697,0,0,1,5.0575,0,-0.035,-0.016592,0.067832,-0.94794,-0.22876,0.07896,0.39606
-0.787205,0,0,15.7872,15.7872,14.2128,14.2128,0.549467,1.42583,15.0066,-0.274857,0.234844,-0.251477,1,0,1,5.425,0.35,-0.2625,-0.291336,0.237168,-1.26185,-0.22876,0.07896,0.39606
-0.790093,0,0,15.7901,15.7901,14.2099,14.2099,0.55147,1.4261,15.0065,-0.274861,0.234879,-0.251478,1,0,1,4.6375,0.2975,-0.875,-0.291336,0.237168,-1.26185,-0.22876,0.07896,0.39606
-0.793619,0,0,15.7936,15.7936,14.2064,14.2064,0.55393,1.42665,15.006,0.0313946,-0.105446,0.207611,1,0,1,4.9,0.455,-1.155,0.016226,-0.102846,-0.806298,-0.22876,0.07896,0.39606
-0.794579,0,0,15.7946,15.7946,14.2054,14.2054,0.554556,1.42666,15.0045,0.0313944,-0.105435,0.207611,1,0,1,3.885,0.14,-1.6975,0.016226,-0.102846,-0.806298,-0.22876,0.07896,0.39606
-0.794305,0,0,15.7943,15.7943,14.2057,14.2057,0.554301,1.42644,15.0028,0.200263,-0.443975,0.317281,1,0,1,3.395,0,-1.855,0.185806,-0.44103,-0.697474,-0.22876,0.07896,0.39606
-0.793942,0,0,15.7939,15.7939,14.2061,14.2061,0.553983,1.42619,15.001,0.200268,-0.44398,0.317281,1,0,1,3.36,-0.0175,-1.89,0.185806,-0.44103,-0.697474,-0.22876,0.07896,0.39606
-0.794102,0,0,15.7941,15.7941,14.2059,14.2059,0.554037,1.42606,14.9991,-0.0816983,0.122445,-0.121645,1,0,1,3.57,0.0525,-1.925,-0.097356,0.124806,-1.13301,-0.22876,0.07896,0.39606
-0.795522,0,0,15.7955,15.7955,14.2045,14.2045,0.554992,1.42578,14.9971,-0.0816934,0.122461,-0.121645,1,0,1,4.0775,-0.035,-2.03,-0.097356,0.124806,-1.13301,-0.22876,0.07896,0.39606
-0.412096,0,0,15.4121,15.4121,14.5879,14.5879,0.281086,1.32031,15.1199,-0.0576212,0.276081,-0.0564031,0,0,1,4.725,-0.3325,-1.96,-0.07503,0.28304,-1.06835,-0.23142,0.08372,0.39354
-0.0371693,0,0,15.0372,15.0372,14.9628,14.9628,0.01328,1.2169,15.2441,-0.0558168,0.271408,-0.0563511,0,0,1,5.3725,-0.735,-1.435,-0.07503,0.28304,-1.06835,-0.23142,0.08372,0.39354
-0.142749,0,0,15.1427,15.1427,14.8573,14.8573,0.0886845,1.37439,15.1506,0.111637,-0.0587282,-0.0149808,0,0,1,5.6175,-0.07,-1.155,0.095892,-0.048068,-1.02724,-0.23142,0.08372,0.39354
-0.245964,0,0,15.246,15.246,14.754,14.754,0.162392,1.52801,15.0578,0.108956,-0.0574423,-0.0150515,0,0,1,5.6175,-0.07,-1.155,0.095892,-0.048068,-1.02724,-0.23142,0.08372,0.39354
-0.246627,0,0,15.2466,15.2466,14.7534,14.7534,0.162848,1.52798,15.0583,-0.0770379,0.202329,-0.280129,1,0,1,3.7625,0.1225,-0.5775,-0.09089,0.211426,-1.29027,-0.23142,0.08372,0.39354
-0.24729,0,0,15.2473,15.2473,14.7527,14.7527,0.163305,1.52795,15.0588,-0.0770373,0.202337,-0.280129,1,0,1,3.7625,0.1225,-0.5775,-0.09089,0.211426,-1.29027,-0.23142,0.08372,0.39354
-0.145556,0,0,15.1456,15.1456,14.8544,14.8544,0.0906276,1.44148,15.1489,-0.0627725,0.0613563,-0.0057885,0,0,1,2.59,4.34,-0.385,-0.07808,0.071858,-1.01809,-0.23142,0.08372,0.39354
-0.045811,0,0,15.0458,15.0458,14.9542,14.9542,0.0193791,1.35719,15.2386,-0.0613019,0.0601132,-0.00575138,0,0,1,2.59,4.34,-0.385,-0.07808,0.071858,-1.01809,-0.23142,0.08372,0.39354
-0.0464508,0,0,15.0465,15.0465,14.9535,14.9535,0.0198339,1.35764,15.2404,-0.0483108,-0.20465,0.242727,1,0,1,3.745,0.4025,0.1925,-0.065026,-0.192638,-0.771528,-0.22652,0.07476,0.3934
0.0643293,0,0,14.9357,14.9357,15.0643,15.0643,-0.0592883,1.47446,15.2093,0.0908174,0.0801128,0.0178037,0,0,1,2.8,0.3675,0.0875,0.076738,0.093208,-0.994666,-0.22652,0.07476,0.3934
0.171277,0,0,14.8287,14.8287,15.1713,15.1713,-0.135665,1.58724,15.1773,0.0888497,0.0787803,0.0177488,0,0,1,3.64,-0.5075,-0.3675,0.076738,0.093208,-0.994666,-0.22652,0.07476,0.3934
0.270701,0,0,14.7293,14.7293,15.2707,15.2707,-0.20666,1.4837,15.2887,-0.0711629,0.0660616,-0.0440495,0,0,1,5.075,-0.1575,-0.6475,-0.085766,0.08174,-1.05603,-0.22652,0.07476,0.3934
0.36728,0,0,14.6327,14.6327,15.3673,15.3673,-0.275615,1.38328,15.3998,-0.0694107,0.0648583,-0.0440108,0,0,1,5.425,0.1575,-0.5425,-0.085766,0.08174,-1.05603,-0.22652,0.07476,0.3934
0.36136,0,0,14.6386,14.6386,15.3614,15.3614,-0.271358,1.38322,15.4,0.0078552,-0.272015,-0.0823703,1,0,1,5.8975,0.105,-0.7175,-0.008174,-0.254858,-1.0941,-0.22652,0.07476,0.3934
0.35809,0,0,14.6419,14.6419,15.3581,15.3581,-0.268993,1.38313,15.3994,0.0078568,-0.271974,-0.0823701,1,0,1,4.8475,0.0875,-1.19,-0.008174,-0.254858,-1.0941,-0.22652,0.07476,0.3934
0.582396,0,0,14.4176,14.4176,15.5824,15.5824,-0.429166,1.16688,15.6006,-0.150796,0.14437,-0.027591,0,0,1,4.0775,0.07,-0.9625,-0.171288,0.163846,-1.03981,-0.22652,0.07476,0.3934
0.802264,0,0,14.1977,14.1977,15.8023,15.8023,-0.586151,0.955896,15.7933,-0.147115,0.14163,-0.0275471,0,0,1,4.1125,-0.105,-0.7175,-0.171288,0.163846,-1.03981,-0.23212,0.07924,0.39914
0.766981,0,0,14.233,14.233,15.767,15.767,-0.56089,1.04709,15.7597,0.0662023,-0.0177929,-0.0104807,0,0,1,3.605,-0.105,-0.9975,0.04453,0.004148,-1.02285,-0.23212,0.07924,0.39914
0.732547,0,0,14.2675,14.2675,15.7325,15.7325,-0.536237,1.1365,15.7255,0.0646421,-0.0173624,-0.0105063,0,0,1,3.6225,0.14,-1.4525,0.04453,0.004148,-1.02285,-0.23212,0.07924,0.39914
0.73264,0,0,14.2674,14.2674,15.7326,15.7326,-0.536245,1.13724,15.7247,-0.152344,-0.0488713,0.154613,1,0,1,3.5175,0.5775,-1.295,-0.173362,-0.027328,-0.859002,-0.23212,0.07924,0.39914
0.731727,0,0,14.2683,14.2683,15.7317,15.7317,-0.535536,1.13741,15.7239,-0.152347,-0.0488589,0.154613,1,0,1,3.92,0.245,-1.3125,-0.173362,-0.027328,-0.859002,-0.23212,0.07924,0.39914
0.722121,0,0,14.2779,14.2779,15.7221,15.7221,-0.528618,1.29709,15.6444,0.126713,0.00768491,-0.0545801,0,0,1,5.145,-0.455,-1.015,0.109678,0.029036,-1.06652,-0.23212,0.07924,0.39914
0.713201,0,0,14.2868,14.2868,15.7132,15.7132,-0.522191,1.45375,15.5649,0.12398,0.00779765,-0.0546447,0,0,1,5.11,-0.0525,-1.19,0.109678,0.029036,-1.06652,-0.23212,0.07924,0.39914
0.630235,0,0,14.3698,14.3698,15.6302,15.6302,-0.462879,1.55712,15.5114,0.0743109,-0.0483225,-0.0276346,0,0,1,4.935,0.1575,-1.435,0.06161,-0.02806,-1.03968,-0.23212,0.07924,0.39914
0.547564,0,0,14.4524,14.4524,15.5476,15.5476,-0.403785,1.65685,15.4591,0.072571,-0.0472912,-0.0276756,0,0,1,5.4775,-0.6125,-0.7525,0.06161,-0.02806,-1.03968,-0.23254,0.07966,0.39452
0.662798,0,0,14.3372,14.3372,15.6628,15.6628,-0.486043,1.87505,15.3456,0.165589,0.0936746,0.0304735,0,0,1,4.8475,-0.385,-0.77,0.158844,0.114192,-0.981856,-0.23254,0.07966,0.39452
0.780628,0,0,14.2194,14.2194,15.7806,15.7806,-0.570147,2.08903,15.2318,0.161856,0.0922088,0.0303308,0,0,1,3.22,-0.0525,-1.015,0.158844,0.114192,-0.981856,-0.23254,0.07966,0.39452
0.636577,0,0,14.3634,14.3634,15.6366,15.6366,-0.467203,1.89471,15.3637,-0.161915,-0.122161,-0.0741642,0,0,1,2.1525,0.5075,-1.085,-0.169702,-0.101748,-1.08568,-0.23254,0.07966,0.39452
0.491049,0,0,14.509,14.509,15.491,15.491,-0.363215,1.70521,15.4935,-0.15861,-0.120348,-0.0740472,0,0,1,3.6575,0.735,-1.3125,-0.169702,-0.101748,-1.08568,-0.23254,0.07966,0.39452
0.400704,0,0,14.5993,14.5993,15.4007,15.4007,-0.298651,1.52367,15.6249,-0.131631,-0.0693942,0.0733409,0,0,1,3.3075,0.5075,-1.0675,-0.14579,-0.051972,-0.939522,-0.23254,0.07966,0.39452
0.311581,0,0,14.6884,14.6884,15.3116,15.3116,-0.234967,1.3458,15.7554,-0.128528,-0.0682834,0.0734238,0,0,1,3.3425,0.1925,-0.805,-0.14579,-0.051972,-0.939522,-0.23254,0.07966,0.39452
0.500183,0,0,14.4998,14.4998,15.5002,15.5002,-0.369642,1.0367,16.0029,-0.207202,0.101565,0.0684827,0,0,1,3.78,0,-0.9975,-0.230214,0.120048,-0.944524,-0.23254,0.07966,0.39452
0.681482,0,0,14.3185,14.3185,15.6815,15.6815,-0.499089,0.736012,16.2525,-0.201955,0.0993052,0.0685467,0,0,1,5.11,-0.0175,-1.05,-0.230214,0.120048,-0.944524,-0.22918,0.07868,0.39592
0.590512,0,0,14.4095,14.4095,15.5905,15.5905,-0.434063,0.708447,16.2949,-0.0276277,-0.0643091,-0.0788532,0,0,1,5.4425,0.4725,-0.91,-0.055632,-0.04453,-1.0908,-0.22918,0.07868,0.39592
0.501791,0,0,14.4982,14.4982,15.5018,15.5018,-0.370652,0.68067,16.3377,-0.027143,-0.0632025,-0.0788396,0,0,1,5.18,0.0525,-0.5075,-0.055632,-0.04453,-1.0908,-0.22918,0.07868,0.39592
0.498813,0,0,14.5012,14.5012,15.4988,15.4988,-0.368485,0.680465,16.3381,-0.124328,0.0864406,0.127345,1,0,1,4.725,0.0175,-0.5775,-0.153232,0.10492,-0.886208,-0.22918,0.07868,0.39592
0.494562,0,0,14.5054,14.5054,15.4946,15.4946,-0.36541,0.679903,16.339,-0.124318,0.0864943,0.127346,1,0,1,5.2325,-0.1925,-0.3675,-0.153232,0.10492,-0.886208,-0.22918,0.07868,0.39592
0.490612,0,0,14.5094,14.5094,15.4906,15.4906,-0.362549,0.678955,16.34,-0.202903,0.0053299,-0.093961,1,0,1,5.11,-0.42,-0.21,-0.232166,0.02379,-1.10581,-0.22918,0.07868,0.39592
0.489281,0,0,14.5107,14.5107,15.4893,15.4893,-0.36156,0.679352,16.3413,-0.20291,0.00534717,-0.093961,1,0,1,4.06,0.3675,-0.105,-0.232166,0.02379,-1.10581,-0.22918,0.07868,0.39592
0.489958,0,0,14.51,14.51,15.49,15.49,-0.362005,0.680078,16.3427,0.120958,0.144442,0.159067,1,0,1,3.255,0.56,-0.0525,0.093086,0.162748,-0.854732,-0.22918,0.07868,0.39592
0.491221,0,0,14.5088,14.5088,15.4912,15.4912,-0.362867,0.680231,16.343,0.120956,0.144427,0.159067,1,0,1,3.0275,0.2275,-0.63,0.093086,0.162748,-0.854732,-0.23114,0.0889,0.399
0.490466,0,0,14.5095,14.5095,15.4905,15.4905,-0.36229,0.679161,16.3438,0.108461,-0.0597591,0.132756,1,0,1,3.8325,-0.49,-0.4025,0.08052,-0.041236,-0.88084,-0.23114,0.0889,0.399
0.488316,0,0,14.5117,14.5117,15.4883,15.4883,-0.360715,0.678627,16.3443,0.108471,-0.0597317,0.132756,1,0,1,4.3925,-0.175,-0.525,0.08052,-0.041236,-0.88084,-0.23114,0.0889,0.399
0.4843,0,0,14.5157,14.5157,15.4843,15.4843,-0.357808,0.678925,16.3441,0.395901,0.0243423,-0.0910097,1,0,1,5.145,0.315,-0.98,0.369172,0.0427,-1.10288,-0.23114,0.0889,0.399
0.479496,0,0,14.5205,14.5205,15.4795,15.4795,-0.354339,0.678088,16.3439,0.395915,0.0244028,-0.0910091,1,0,1,5.46,-0.35,-0.9625,0.369172,0.0427,-1.10288,-0.23114,0.0889,0.399
0.589105,0,0,14.4109,14.4109,15.5891,15.5891,-0.432585,0.506974,16.4873,-0.111946,0.0608964,0.0764682,0,0,1,5.6,-0.14,-1.2775,-0.143838,0.08052,-0.936716,-0.23114,0.0889,0.399
0.699165,0,0,14.3008,14.3008,15.6992,15.6992,-0.511144,0.339599,16.63,-0.109025,0.0595251,0.0764785,0,0,1,4.5325,-0.3675,-1.295,-0.143838,0.08052,-0.936716,-0.23114,0.0889,0.399
0.700028,0,0,14.3,14.3,15.7,15.7,-0.511706,0.33944,16.6289,0.024005,-0.123186,-0.176058,1,0,1,3.2025,0.0525,-1.505,-0.010248,-0.101992,-1.1873,-0.23114,0.0889,0.399
0.699939,0,0,14.3001,14.3001,15.6999,15.6999,-0.511587,0.340377,16.6267,0.0239887,-0.123184,-0.176058,1,0,1,3.5875,0.7,-2.135,-0.010248,-0.101992,-1.1873,-0.23114,0.0889,0.399
0.536402,0,0,14.4636,14.4636,15.5364,15.5364,-0.394733,0.522977,16.5232,0.130503,-0.103803,-0.0415601,0,0,1,3.2375,0.6475,-1.8725,0.099918,-0.084668,-1.05384,-0.22974,0.07784,0.39228
0.537734,0,0,14.4623,14.4623,15.5377,15.5377,-0.395643,0.523836,16.522,-0.17031,-0.159142,0.222041,1,0,1,3.01,0.6475,-1.54,-0.202154,-0.139934,-0.792268,-0.22974,0.07784,0.39228
0.532949,0,0,14.4671,14.4671,15.5329,15.5329,-0.392182,0.524186,16.5208,-0.170316,-0.159082,0.222042,1,0,1,5.46,0.35,-1.5575,-0.202154,-0.139934,-0.792268,-0.22974,0.07784,0.39228
0.529548,0,0,14.4705,14.4705,15.5295,15.5295,-0.389711,0.524185,16.5205,0.281368,-0.170152,-0.164016,1,0,1,4.9,0.14,-0.9975,0.251442,-0.151036,-1.17535,-0.22974,0.07784,0.39228
0.524611,0,0,14.4754,14.4754,15.5246,15.5246,-0.386143,0.524935,16.5208,0.281354,-0.17009,-0.164016,1,0,1,5.5125,0.5775,-0.665,0.251442,-0.151036,-1.17535,-0.22974,0.07784,0.39228
0.520413,0,0,14.4796,14.4796,15.5204,15.5204,-0.383104,0.525357,16.5213,0.0698405,0.224311,0.201141,1,0,1,5.215,0.385,-0.56,0.03904,0.242902,-0.813008,-0.22974,0.07784,0.39228
0.519008,0,0,14.481,14.481,15.519,15.519,-0.382059,0.523929,16.5221,0.0698654,0.224329,0.201142,1,0,1,4.095,-0.7,-0.3675,0.03904,0.242902,-0.813008,-0.22974,0.07784,0.39228
0.32922,0,0,14.6708,14.6708,15.3292,15.3292,-0.24647,0.665248,16.4422,0.0992283,-0.123808,-0.0479647,0,0,1,4.6375,-0.6825,-0.35,0.071004,-0.107238,-1.06018,-0.22974,0.07784,0.39228
0.143985,0,0,14.856,14.856,15.144,15.144,-0.114147,0.80146,16.3576,0.0968512,-0.121499,-0.0479878,0,0,1,4.6375,-0.5775,0.0525,0.071004,-0.107238,-1.06018,-0.2261,0.08232,0.399
-0.152685,0,0,15.1527,15.1527,14.8473,14.8473,0.0977499,0.686802,16.4251,-0.11144,-0.226128,-0.0546005,0,0,1,4.27,0.0175,0.07,-0.140178,-0.215452,-1.06677,-0.2261,0.08232,0.399
-0.44268,0,0,15.4427,15.4427,14.5573,14.5573,0.304856,0.575145,16.491,-0.109491,-0.222513,-0.0545918,0,0,1,3.605,0.49,-0.1925,-0.140178,-0.215452,-1.06677,-0.2261,0.08232,0.399
-0.440831,0,0,15.4408,15.4408,14.5592,14.5592,0.303503,0.574511,16.4923,-0.0716978,0.204907,-0.247621,1,0,1,2.7475,-0.2275,-0.105,-0.102236,0.211548,-1.25831,-0.2261,0.08232,0.399
-0.440199,0,0,15.4402,15.4402,14.5598,14.5598,0.303019,0.57394,16.4931,-0.0716878,0.204899,-0.247621,1,0,1,3.2375,-0.1925,-0.35,-0.102236,0.211548,-1.25831,-0.2261,0.08232,0.399
-0.107319,0,0,15.1073,15.1073,14.8927,14.8927,0.0652403,0.404398,16.6708,-0.0946053,0.19452,0.125075,0,0,1,4.3225,-0.2275,-0.5775,-0.128222,0.205326,-0.888526,-0.2261,0.08232,0.399
0.220009,0,0,14.78,14.78,15.22,15.22,-0.168547,0.238878,16.8481,-0.0917165,0.19044,0.125087,0,0,1,4.165,-0.3325,-1.015,-0.128222,0.205326,-0.888526,-0.2261,0.08232,0.399
0.215723,0,0,14.7843,14.7843,15.2157,15.2157,-0.165468,0.0435412,17.007,-0.14577,-0.0150456,0.00595896,0,0,1,4.6725,-0.4725,-1.2775,-0.185928,0,-1.00674,-0.2261,0.08232,0.399
0.212523,0,0,14.7875,14.7875,15.2125,15.2125,-0.163165,-0.149663,17.1675,-0.142398,-0.0150054,0.00595595,0,0,1,4.4625,-0.8225,-1.2425,-0.185928,0,-1.00674,-0.23324,0.07868,0.38962
0.517158,0,0,14.4828,14.4828,15.5172,15.5172,-0.38072,0.0465742,17.1128,0.156069,0.205178,0.114136,0,0,1,4.445,-0.7175,-1.505,0.117242,0.223748,-0.899384,-0.23324,0.07868,0.38962
0.819395,0,0,14.1806,14.1806,15.8194,15.8194,-0.59654,0.240415,17.0566,0.152686,0.201412,0.114095,0,0,1,3.4475,0.105,-1.9775,0.117242,0.223748,-0.899384,-0.23324,0.07868,0.38962
0.77452,0,0,14.2255,14.2255,15.7745,15.7745,-0.564426,0.296587,17.0476,0.0389668,-0.026405,-0.0110654,0,0,1,3.675,0.2975,-1.995,0.004026,-0.004392,-1.02358,-0.23324,0.07868,0.38962
0.729559,0,0,14.2704,14.2704,15.7296,15.7296,-0.532254,0.35218,17.0389,0.0379965,-0.0258435,-0.0110655,0,0,1,4.095,0.77,-1.89,0.004026,-0.004392,-1.02358,-0.23324,0.07868,0.38962
0.727976,0,0,14.272,14.272,15.728,15.728,-0.531066,0.353009,17.038,0.016965,-0.260428,-0.143973,1,0,1,4.1825,0.63,-1.365,-0.01708,-0.238754,-1.15546,-0.23324,0.07868,0.38962
0.725212,0,0,14.2748,14.2748,15.7252,15.7252,-0.529035,0.354078,17.0372,0.0169464,-0.260393,-0.143973,1,0,1,4.655,0.77,-1.3125,-0.01708,-0.238754,-1.15546,-0.23324,0.07868,0.38962
0.724236,0,0,14.2758,14.2758,15.7242,15.7242,-0.528281,0.355748,17.0368,-0.0686087,-0.0571607,0.12467,1,0,1,3.9375,1.12,-1.05,-0.102968,-0.035746,-0.888892,-0.23324,0.07868,0.38962
0.722375,0,0,14.2776,14.2776,15.7224,15.7224,-0.526896,0.356174,17.0377,-0.0686161,-0.0571365,0.12467,1,0,1,4.2875,0.385,-0.35,-0.102968,-0.035746,-0.888892,-0.22512,0.0798,0.39298
0.830013,0,0,14.17,14.17,15.83,15.83,-0.603716,0.3049,17.1198,-0.0317615,0.0724426,-0.0180812,0,0,1,4.2,0.245,-0.595,-0.066856,0.095038,-1.03053,-0.22512,0.0798,0.39298
0.938677,0,0,14.0613,14.0613,15.9387,15.9387,-0.68126,0.253843,17.2025,-0.0308704,0.0710893,-0.018092,0,0,1,2.975,-0.42,-0.1225,-0.066856,0.095038,-1.03053,-0.22512,0.0798,0.39298
0.866692,0,0,14.1333,14.1333,15.8667,15.8667,-0.629774,0.0115499,17.3903,-0.184087,-0.0651606,0.0334435,0,0,1,4.0425,-0.28,-0.245,-0.224968,-0.041968,-0.979416,-0.22512,0.0798,0.39298
0.794691,0,0,14.2053,14.2053,15.7947,15.7947,-0.578283,-0.224936,17.5765,-0.17996,-0.0642619,0.0334452,0,0,1,4.41,-0.105,-0.0525,-0.224968,-0.041968,-0.979416,-0.22512,0.0798,0.39298
0.791586,0,0,14.2084,14.2084,15.7916,15.7916,-0.576004,-0.225517,17.5781,0.0184367,0.100038,-0.204337,1,0,1,4.795,-0.21,0.105,-0.025742,0.122122,-1.21536,-0.22512,0.0798,0.39298
0.792413,0,0,14.2076,14.2076,15.7924,15.7924,-0.576533,-0.225801,17.5795,0.0184416,0.100029,-0.204337,1,0,1,3.22,-0.035,-0.035,-0.025742,0.122122,-1.21536,-0.22512,0.0798,0.39298
0.683905,0,0,14.3161,14.3161,15.6839,15.6839,-0.498973,-0.194424,17.584,0.0154643,-0.0681292,0.0757545,0,0,1,2.695,-0.525,-0.245,-0.028182,-0.047214,-0.937448,-0.22512,0.0798,0.39298
0.576062,0,0,14.4239,14.4239,15.5761,15.5761,-0.421897,-0.164412,17.5839,0.0149405,-0.0667841,0.0757669,0,0,1,3.29,-0.665,-0.6475,-0.028182,-0.047214,-0.937448,-0.22806,0.08176,0.39648
0.576637,0,0,14.4234,14.4234,15.5766,15.5766,-0.422263,-0.164775,17.5832,0.0115452,0.0925849,0.130479,1,0,1,3.3075,-0.07,-1.225,-0.031598,0.111996,-0.883158,-0.22806,0.08176,0.39648
0.577605,0,0,14.4224,14.4224,15.5776,15.5776,-0.422909,-0.165316,17.5826,0.0115547,0.0925737,0.130479,1,0,1,3.15,-0.175,-1.225,-0.031598,0.111996,-0.883158,-0.22806,0.08176,0.39648
0.142849,0,0,14.8572,14.8572,15.1428,15.1428,-0.112357,0.000474232,17.4463,0.0977101,-0.295254,0.00940405,0,0,1,3.36,-0.315,-1.4,0.057828,-0.280844,-1.00333,-0.22806,0.08176,0.39648
-0.28271,0,0,15.2827,15.2827,14.7173,14.7173,0.191593,0.161148,17.3125,0.0949058,-0.289949,0.00939643,0,0,1,2.9925,-0.63,-1.4875,0.057828,-0.280844,-1.00333,-0.22806,0.08176,0.39648
-0.280383,0,0,15.2804,15.2804,14.7196,14.7196,0.189911,0.160377,17.311,-0.116344,0.00813254,-0.163469,1,0,1,2.5725,-0.315,-1.68,-0.15433,0.016958,-1.17486,-0.22806,0.08176,0.39648
-0.281069,0,0,15.2811,15.2811,14.7189,14.7189,0.190381,0.160295,17.309,-0.116343,0.00814074,-0.163469,1,0,1,3.78,0.0875,-1.995,-0.15433,0.016958,-1.17486,-0.22806,0.08176,0.39648
-0.566613,0,0,15.5666,15.5666,14.4334,14.4334,0.394298,0.1831,17.2828,-0.00193696,-0.195061,0.00654938,0,0,1,4.0075,-0.21,-1.6975,-0.03904,-0.189588,-1.00613,-0.22806,0.08176,0.39648
-0.850068,0,0,15.8501,15.8501,14.1499,14.1499,0.596702,0.206359,17.2569,-0.0023429,-0.191528,0.00651745,0,0,1,5.25,0.665,-1.68,-0.03904,-0.189588,-1.00613,-0.22806,0.08176,0.39648
-0.852392,0,0,15.8524,15.8524,14.1476,14.1476,0.598298,0.206967,17.256,-0.0103716,-0.0230878,-0.185405,1,0,1,4.41,0.49,-1.365,-0.047092,-0.02135,-1.19658,-0.23226,0.0791,0.38976
-0.853275,0,0,15.8533,15.8533,14.1467,14.1467,0.598865,0.208318,17.2555,-0.0103951,-0.0230779,-0.185406,1,0,1,3.8325,0.9275,-1.19,-0.047092,-0.02135,-1.19658,-0.23226,0.0791,0.38976
-0.853027,0,0,15.853,15.853,14.147,14.147,0.598623,0.209809,17.2557,-0.100078,-0.134095,0.159834,1,0,1,3.3775,1.015,-0.6825,-0.137128,-0.132248,-0.854,-0.23226,0.0791,0.38976
-0.852778,0,0,15.8528,15.8528,14.1472,14.1472,0.598382,0.2113,17.256,-0.100104,-0.1341,0.159834,1,0,1,3.3775,1.015,-0.6825,-0.137128,-0.132248,-0.854,-0.23226,0.0791,0.38976
-0.695982,0,0,15.696,15.696,14.304,14.304,0.486332,0.449914,17.1507,0.174542,0.117113,0.086059,0,0,1,2.73,0.6125,-0.2975,0.142862,0.120658,-0.9272,-0.23226,0.0791,0.38976
-0.541292,0,0,15.5413,15.5413,14.4587,14.4587,0.375799,0.683501,17.0452,0.170465,0.115184,0.0860332,0,0,1,2.73,0.6125,-0.2975,0.142862,0.120658,-0.9272,-0.23226,0.0791,0.38976
-0.542741,0,0,15.5427,15.5427,14.4573,14.4573,0.376793,0.690182,17.0469,0.0120524,0.0921195,-0.105153,1,0,1,4.06,4.06,0.105,-0.016104,0.0976,-1.11691,-0.23226,0.0791,0.38976
-0.54419,0,0,15.5442,15.5442,14.4558,14.4558,0.377788,0.696863,17.0485,0.0119358,0.0921369,-0.105155,1,0,1,4.06,4.06,0.105,-0.016104,0.0976,-1.11691,-0.23226,0.0791,0.38976
-0.546771,0,0,15.5468,15.5468,14.4532,14.4532,0.379591,0.696466,17.0499,-0.128009,0.22492,0.267133,1,0,1,4.515,-0.0875,-0.035,-0.156648,0.230214,-0.747494,-0.22652,0.08498,0.39256
-0.492277,0,0,15.4923,15.4923,14.5077,14.5077,0.34063,0.666986,17.0928,-0.0180357,0.0343331,0.0264104,0,0,1,3.3775,-0.1925,-0.07,-0.046726,0.040504,-0.98637,-0.22652,0.08498,0.39256
-0.43821,0,0,15.4382,15.4382,14.5618,14.5618,0.301979,0.638179,17.1352,-0.0175329,0.0336586,0.0264199,0,0,1,3.1325,-0.245,-0.1925,-0.046726,0.040504,-0.98637,-0.22652,0.08498,0.39256
-0.195261,0,0,15.1953,15.1953,14.8047,14.8047,0.12843,0.572878,17.2248,-0.0340087,0.16326,0.00160772,0,0,1,3.115,-0.035,-0.9975,-0.064416,0.172996,-1.01101,-0.22652,0.08498,0.39256
0.0428188,0,0,14.9572,14.9572,15.0428,15.0428,-0.0416227,0.509447,17.3141,-0.0329017,0.160292,0.00162043,0,0,1,3.3075,0.0175,-1.1025,-0.064416,0.172996,-1.01101,-0.22652,0.08498,0.39256
-0.0922708,0,0,15.0923,15.0923,14.9077,14.9077,0.054864,0.624468,17.2389,0.0806238,-0.0875293,-0.0211451,0,0,1,3.0625,-0.2625,-0.98,0.051606,-0.07625,-1.03358,-0.22652,0.08498,0.39256
-0.222349,0,0,15.2223,15.2223,14.7777,14.7777,0.147761,0.736566,17.1639,0.0786675,-0.0859081,-0.0211712,0,0,1,2.17,-0.2975,-1.3125,0.051606,-0.07625,-1.03358,-0.22652,0.08498,0.39256
-0.136818,0,0,15.1368,15.1368,14.8632,14.8632,0.0866584,0.837581,17.1218,0.0903895,0.0699583,-0.0891838,0,0,1,2.1,-0.315,-1.4875,0.065148,0.08052,-1.10105,-0.22652,0.08498,0.39256
-0.0557011,0,0,15.0557,15.0557,14.9443,14.9443,0.0287146,0.936218,17.0831,0.0886682,0.0689471,-0.0892094,0,0,1,3.4125,-0.245,-1.6975,0.065148,0.08052,-1.10105,-0.2261,0.0826,0.39326
-0.0579565,0,0,15.058,15.058,14.942,14.942,0.0303223,0.935144,17.0817,0.166559,-0.0265279,-0.091791,1,0,1,4.4275,-0.49,-1.645,0.14335,-0.014884,-1.10361,-0.2261,0.0826,0.39326
-0.0626192,0,0,15.0626,15.0626,14.9374,14.9374,0.0336492,0.935175,17.0805,0.166559,-0.0264699,-0.0917911,1,0,1,5.39,0.1575,-1.5575,0.14335,-0.014884,-1.10361,-0.2261,0.0826,0.39326
-0.0660997,0,0,15.0661,15.0661,14.9339,14.9339,0.0361314,0.935476,17.0792,-0.0492051,-0.00664203,0.195785,1,0,1,4.9175,0.315,-1.6275,-0.073322,0.00488,-0.818254,-0.2261,0.0826,0.39326
-0.0677511,0,0,15.0678,15.0678,14.9322,14.9322,0.037307,0.936134,17.0781,-0.0492166,-0.00662151,0.195785,1,0,1,4.1825,0.525,-1.47,-0.073322,0.00488,-0.818254,-0.2261,0.0826,0.39326
-0.0677523,0,0,15.0678,15.0678,14.9322,14.9322,0.0373038,0.9373,17.0775,0.0198884,0.0654332,-0.14343,1,0,1,3.5175,0.8225,-1.2075,-0.003904,0.07686,-1.15485,-0.2261,0.0826,0.39326
-0.0646948,0,0,15.0647,15.0647,14.9353,14.9353,0.0351162,0.938735,17.0769,0.0198633,0.065395,-0.14343,1,0,1,2.2925,0.98,-1.19,-0.003904,0.07686,-1.15485,-0.2261,0.0826,0.39326
-0.0618242,0,0,15.0618,15.0618,14.9382,14.9382,0.0330622,0.939483,17.0768,-0.11184,-0.124304,-0.0992921,1,0,1,2.3625,0.5775,-0.875,-0.136152,-0.112606,-1.11105,-0.2261,0.0826,0.39326
-0.0621185,0,0,15.0621,15.0621,14.9379,14.9379,0.0332688,0.939035,17.0776,-0.111832,-0.1243,-0.099292,1,0,1,3.6225,-0.1225,-0.4025,-0.136152,-0.112606,-1.11105,-0.22862,0.0798,0.3857
-0.0613223,0,0,15.0613,15.0613,14.9387,14.9387,0.0326966,0.938527,17.0784,0.0416129,-0.0804665,0.170949,1,0,1,3.185,-0.1575,-0.35,0.017934,-0.068808,-0.842898,-0.22862,0.0798,0.3857
-0.0602181,0,0,15.0602,15.0602,14.9398,14.9398,0.0319045,0.938647,17.0792,0.0416108,-0.0804803,0.170949,1,0,1,3.0625,0.21,-0.4025,0.017934,-0.068808,-0.842898,-0.22862,0.0798,0.3857
-0.0531036,0,0,15.0531,15.0531,14.9469,14.9469,0.0268198,0.810581,17.185,-0.0965917,-0.00472836,-0.015038,0,0,1,3.5875,-0.14,-0.315,-0.123098,0.006954,-1.02748,-0.22862,0.0798,0.3857
-0.0467112,0,0,15.0467,15.0467,14.9533,14.9533,0.0222514,0.68542,17.2901,-0.0944075,-0.00480807,-0.0150095,0,0,1,3.7275,-0.1925,-0.28,-0.123098,0.006954,-1.02748,-0.22862,0.0798,0.3857
0.270267,0,0,14.7297,14.7297,15.2703,15.2703,-0.20414,0.460046,17.5014,-0.137975,0.186399,0.101702,0,0,1,3.7975,-0.1225,0.1575,-0.1708,0.20191,-0.911706,-0.22862,0.0798,0.3857
0.581759,0,0,14.4182,14.4182,15.5818,15.5818,-0.426588,0.240472,17.7117,-0.134143,0.182517,0.101704,0,0,1,3.745,0.105,-0.56,-0.1708,0.20191,-0.911706,-0.22862,0.0798,0.3857
0.483548,0,0,14.5165,14.5165,15.4835,15.4835,-0.356399,0.103498,17.8179,-0.111586,-0.0790749,-0.00782779,0,0,1,3.64,-0.21,-0.56,-0.150548,-0.060634,-1.02041,-0.22862,0.0798,0.3857
0.388974,0,0,14.611,14.611,15.389,15.389,-0.288816,-0.0292715,17.926,-0.109268,-0.0778954,-0.00781965,0,0,1,2.625,0,-0.5425,-0.150548,-0.060634,-1.02041,-0.22428,0.07896,0.38864
0.574057,0,0,14.4259,14.4259,15.5741,15.5741,-0.420972,-0.229373,18.1163,-0.14781,0.115445,-0.0441116,0,0,1,1.75,0.21,-0.8225,-0.19276,0.13481,-1.0564,-0.22428,0.07896,0.38864
0.754467,0,0,14.2455,14.2455,15.7545,15.7545,-0.549778,-0.425701,18.306,-0.144383,0.113197,-0.0441503,0,0,1,2.2225,-0.4025,-0.9275,-0.19276,0.13481,-1.0564,-0.22428,0.07896,0.38864
0.914691,0,0,14.0853,14.0853,15.9147,15.9147,-0.664153,-0.459552,18.3886,-0.0124666,0.105095,0.0158229,0,0,1,2.94,-0.6825,-1.015,-0.060878,0.12871,-0.996862,-0.22428,0.07896,0.38864
1.06867,0,0,13.9313,13.9313,16.0687,16.0687,-0.774056,-0.492509,18.4703,-0.0118914,0.103177,0.0157941,0,0,1,4.27,-0.7525,-1.3825,-0.060878,0.12871,-0.996862,-0.22428,0.07896,0.38864
1.06452,0,0,13.9355,13.9355,16.0645,16.0645,-0.77101,-0.492318,18.469,0.0391293,-0.0544353,0.115752,1,0,1,5.215,0.2625,-1.645,-0.009638,-0.028792,-0.897676,-0.22428,0.07896,0.38864
1.05919,0,0,13.9408,13.9408,16.0592,16.0592,-0.767119,-0.492068,18.4675,0.0391249,-0.0543674,0.115753,1,0,1,5.6875,0.2975,-1.6975,-0.009638,-0.028792,-0.897676,-0.22428,0.07896,0.38864
1.05513,0,0,13.9449,13.9449,16.0551,16.0551,-0.764137,-0.491455,18.4663,0.119173,-0.227003,-0.0960866,1,0,1,5.18,0.5075,-1.505,0.07076,-0.2013,-1.10788,-0.22428,0.07896,0.38864
1.05526,0,0,13.9447,13.9447,16.0553,16.0553,-0.764147,-0.489774,18.4646,0.119144,-0.227003,-0.0960864,1,0,1,3.5,1.1375,-1.82,0.07076,-0.2013,-1.10788,-0.22428,0.07896,0.38864
1.05849,0,0,13.9415,13.9415,16.0585,16.0585,-0.766374,-0.488599,18.4631,-0.0463401,0.223118,-0.214978,1,0,1,2.2575,0.84,-1.7325,-0.095404,0.248392,-1.22586,-0.22694,0.07854,0.3899
0.979736,0,0,14.0203,14.0203,15.9797,15.9797,-0.710044,-0.608385,18.5696,-0.0972173,-0.0626528,0.0107482,0,0,1,3.9375,0.2975,-1.5925,-0.148596,-0.038064,-1.00186,-0.22694,0.07854,0.3899
0.900921,0,0,14.0991,14.0991,15.9009,15.9009,-0.653677,-0.725517,18.6762,-0.0951731,-0.0616688,0.0107361,0,0,1,4.4275,0.315,-1.015,-0.148596,-0.038064,-1.00186,-0.22694,0.07854,0.3899
0.600339,0,0,14.3997,14.3997,15.6003,15.6003,-0.438929,-0.480166,18.512,0.150927,-0.173331,0.107454,0,0,1,3.22,0.385,-1.155,0.102846,-0.153354,-0.905972,-0.22694,0.07854,0.3899
0.305901,0,0,14.6941,14.6941,15.3059,15.3059,-0.228591,-0.241348,18.3504,0.146759,-0.169661,0.107502,0,0,1,3.2725,0.0875,-1.05,0.102846,-0.153354,-0.905972,-0.22694,0.07854,0.3899
0.309288,0,0,14.6907,14.6907,15.3093,15.3093,-0.230986,-0.241498,18.35,-0.0303646,0.0595295,-0.233434,1,0,1,2.17,0.0525,-1.1025,-0.07503,0.07564,-1.24428,-0.22694,0.07854,0.3899
0.311761,0,0,14.6882,14.6882,15.3118,15.3118,-0.232727,-0.241945,18.3501,-0.0303568,0.0594991,-0.233434,1,0,1,2.5375,-0.1225,-0.77,-0.07503,0.07564,-1.24428,-0.22694,0.07854,0.3899
0.145752,0,0,14.8542,14.8542,15.1458,15.1458,-0.114137,-0.39816,18.4631,-0.130529,-0.125651,0.018601,0,0,1,4.0075,0,-0.4375,-0.178364,-0.111386,-0.994178,-0.22694,0.07854,0.3899
-0.0193105,0,0,15.0193,15.0193,14.9807,14.9807,0.00376415,-0.550657,18.5732,-0.127867,-0.123594,0.0185809,0,0,1,4.69,0.315,-0.455,-0.178364,-0.111386,-0.994178,-0.22806,0.07938,0.39438
-0.0231066,0,0,15.0231,15.0231,14.9769,14.9769,0.00647496,-0.550417,18.5744,0.122632,0.011648,-0.114695,1,0,1,5.04,0.28,-0.1225,0.0732,0.023668,-1.12643,-0.22806,0.07938,0.39438
-0.0235675,0,0,15.0236,15.0236,14.9764,14.9764,0.00680341,-0.551014,18.5767,0.122642,0.0116537,-0.114695,1,0,1,3.71,-0.21,0.49,0.0732,0.023668,-1.12643,-0.22806,0.07938,0.39438
-0.0193245,0,0,15.0193,15.0193,14.9807,14.9807,0.00377227,-0.551461,18.5778,0.114389,-0.0141679,0.111284,1,0,1,1.82,-0.1225,-0.21,0.064904,-0.002074,-0.90219,-0.22806,0.07938,0.39438
-0.0158705,0,0,15.0159,15.0159,14.9841,14.9841,0.001305,-0.551192,18.5787,0.114385,-0.014211,0.111284,1,0,1,2.135,0.2975,-0.3325,0.064904,-0.002074,-0.90219,-0.22806,0.07938,0.39438
-0.0141598,0,0,15.0142,15.0142,14.9858,14.9858,8.31128e-05,-0.551759,18.5799,0.3078,-0.108392,-0.0663767,1,0,1,2.835,-0.1925,-0.14,0.259128,-0.096136,-1.07848,-0.22806,0.07938,0.39438
-0.0137727,0,0,15.0138,15.0138,14.9862,14.9862,-0.000193407,-0.551997,18.5801,0.307804,-0.108397,-0.0663767,1,0,1,3.36,0,-0.6825,0.259128,-0.096136,-1.07848,-0.22806,0.07938,0.39438
-0.0150928,0,0,15.0151,15.0151,14.9849,14.9849,0.000749441,-0.552116,18.5802,-0.0136453,0.0952049,0.214069,1,0,1,4.0425,0.07,-0.805,-0.063684,0.107238,-0.800198,-0.22806,0.07938,0.39438
-0.0180843,0,0,15.0181,15.0181,14.9819,14.9819,0.00288593,-0.551727,18.5795,-0.0136521,0.0952421,0.214069,1,0,1,4.7075,0.3675,-1.26,-0.063684,0.107238,-0.800198,-0.23576,0.07896,0.3997
0.222972,0,0,14.777,14.777,15.223,15.223,-0.169279,-0.656621,18.7145,-0.0550703,0.146828,0.095031,0,0,1,5.04,0.21,-1.1725,-0.107116,0.161772,-0.918294,-0.23576,0.07896,0.3997
0.463976,0,0,14.536,14.536,15.464,15.464,-0.341388,-0.758515,18.8489,-0.0532921,0.143825,0.0949957,0,0,1,3.3075,0.3675,-1.4,-0.107116,0.161772,-0.918294,-0.23576,0.07896,0.3997
0.333276,0,0,14.6667,14.6667,15.3333,15.3333,-0.248005,-0.148121,18.4654,0.413737,-0.038591,0.190251,0,0,1,3.885,0.2975,-1.96,0.372588,-0.022082,-0.823866,-0.23576,0.07896,0.3997
0.206925,0,0,14.7931,14.7931,15.2069,15.2069,-0.157737,0.449762,18.0849,0.403302,-0.0370155,0.190229,0,0,1,4.06,0,-1.4875,0.372588,-0.022082,-0.823866,-0.23576,0.07896,0.3997
-0.0134689,0,0,15.0135,15.0135,14.9865,14.9865,-0.000312583,0.235709,18.2138,-0.165646,-0.157128,0.094109,0,0,1,4.4275,0.1575,-1.54,-0.20252,-0.144814,-0.91927,-0.23576,0.07896,0.3997
-0.228426,0,0,15.2284,15.2284,14.7716,14.7716,0.153212,0.02659,18.3404,-0.161996,-0.154448,0.0941138,0,0,1,3.5875,0.3675,-1.785,-0.20252,-0.144814,-0.91927,-0.23576,0.07896,0.3997
-0.278476,0,0,15.2785,15.2785,14.7215,14.7215,0.188941,0.0930444,18.3142,0.0496869,-0.0330411,-0.0671977,0,0,1,2.66,0.21,-1.47,0.011224,-0.024156,-1.07933,-0.23576,0.07896,0.3997
-0.326565,0,0,15.3266,15.3266,14.6734,14.6734,0.223267,0.157058,18.2887,0.0485697,-0.032442,-0.0672023,0,0,1,2.415,0.0525,-1.4525,0.011224,-0.024156,-1.07933,-0.22414,0.08092,0.39186
-0.334535,0,0,15.3345,15.3345,14.6655,14.6655,0.228935,0.0865951,18.3558,-0.0529774,-0.0137798,0.0347242,0,0,1,1.68,0.3325,-1.365,-0.091988,-0.005612,-0.978196,-0.22414,0.08092,0.39186
-0.346503,0,0,15.3465,15.3465,14.6535,14.6535,0.237458,0.0175563,18.4233,-0.0517725,-0.013631,0.0347247,0,0,1,3.2725,0.2275,-0.805,-0.091988,-0.005612,-0.978196,-0.22414,0.08092,0.39186
-0.379503,0,0,15.3795,15.3795,14.6205,14.6205,0.261002,-0.216794,18.5956,-0.195409,-0.0444846,-0.0594627,0,0,1,4.0775,0.245,-0.875,-0.24034,-0.036844,-1.07165,-0.22414,0.08092,0.39186
-0.42414,0,0,15.4241,15.4241,14.5759,14.5759,0.292854,-0.445508,18.7681,-0.191417,-0.0439288,-0.0594885,0,0,1,8.8025,0.4375,0.14,-0.24034,-0.036844,-1.07165,-0.22414,0.08092,0.39186
-0.580851,0,0,15.5809,15.5809,14.4191,14.4191,0.404747,-0.344364,18.7115,0.066797,-0.101696,-0.0190381,0,0,1,4.165,0.42,0.49,0.02074,-0.096502,-1.03151,-0.22414,0.08092,0.39186
-0.733663,0,0,15.7337,15.7337,14.2663,14.2663,0.513843,-0.246398,18.6545,0.0650872,-0.0997918,-0.0190446,0,0,1,3.85,0.07,-0.105,0.02074,-0.096502,-1.03151,-0.22414,0.08092,0.39186
-0.88643,0,0,15.8864,15.8864,14.1136,14.1136,0.622896,-0.102471,18.566,0.104974,-0.102407,-0.056801,0,0,1,2.73,-0.0525,-0.035,0.063318,-0.101016,-1.06896,-0.22414,0.08092,0.39186
-1.03525,0,0,16.0352,16.0352,13.9648,13.9648,0.729115,0.0396766,18.4808,0.102493,-0.100553,-0.0568215,0,0,1,2.2225,0.3325,-0.3675,0.063318,-0.101016,-1.06896,-0.22988,0.07798,0.39214
-1.03327,0,0,16.0333,16.0333,13.9667,13.9667,0.727624,0.0400028,18.481,-0.139148,-0.0920306,-0.0886649,1,0,1,2.6775,0.3325,-0.7,-0.17934,-0.092476,-1.10056,-0.22988,0.07798,0.39214
-1.0357,0,0,16.0357,16.0357,13.9643,13.9643,0.729285,0.0406636,18.4808,-0.13916,-0.0920016,-0.0886652,1,0,1,4.445,0.525,-0.98,-0.17934,-0.092476,-1.10056,-0.22988,0.07798,0.39214
-1.0377,0,0,16.0377,16.0377,13.9623,13.9623,0.730634,0.0420777,18.4801,0.0718364,-0.0615685,0.166944,1,0,1,4.27,0.9625,-1.2775,0.032574,-0.062098,-0.846924,-0.22988,0.07798,0.39214
-1.03747,0,0,16.0375,16.0375,13.9625,13.9625,0.730391,0.0417276,18.4795,0.0718426,-0.0615728,0.166944,1,0,1,3.3775,-0.07,-1.19,0.032574,-0.062098,-0.846924,-0.22988,0.07798,0.39214
-1.03667,0,0,16.0367,16.0367,13.9633,13.9633,0.729742,0.0416512,18.4785,0.195395,-0.0911388,-0.159115,1,0,1,3.15,0.0875,-1.4175,0.156648,-0.091622,-1.17047,-0.22988,0.07798,0.39214
-1.04933,0,0,16.0493,16.0493,13.9507,13.9507,0.738706,0.0413414,18.4771,0.1954,-0.0909823,-0.159117,1,0,1,8.54,-0.0525,-1.6625,0.156648,-0.091622,-1.17047,-0.22988,0.07798,0.39214
-0.553005,0,0,15.553,15.553,14.447,14.447,0.384146,-0.0361645,18.6172,-0.024351,0.365934,-0.0172965,0,0,1,4.2,-0.14,-1.8025,-0.065392,0.371002,-1.0298,-0.22988,0.07798,0.39214
-0.0644858,0,0,15.0645,15.0645,14.9355,14.9355,0.0352,-0.110746,18.7584,-0.0230493,0.359844,-0.0172759,0,0,1,4.025,0.28,-1.575,-0.065392,0.371002,-1.0298,-0.22988,0.07798,0.39214
-0.00468267,0,0,15.0047,15.0047,14.9953,14.9953,-0.00751571,-0.393396,18.9708,-0.218689,0.0201969,-0.0122565,0,0,1,4.5325,-0.14,-1.505,-0.266814,0.032452,-1.0248,-0.23226,0.08106,0.39774
0.057459,0,0,14.9425,14.9425,15.0575,15.0575,-0.051897,-0.669281,19.182,-0.213874,0.0194224,-0.0123016,0,0,1,3.01,0,-1.4175,-0.266814,0.032452,-1.0248,-0.23226,0.08106,0.39774
0.17014,0,0,14.8299,14.8299,15.1701,15.1701,-0.132369,-0.624639,19.1985,0.0407097,0.0754175,0.0651625,0,0,1,2.835,0.0525,-1.085,-0.01037,0.089792,-0.94794,-0.23226,0.08106,0.39774
0.280839,0,0,14.7192,14.7192,15.2808,15.2808,-0.211417,-0.581139,19.2149,0.0399505,0.0740379,0.0651663,0,0,1,2.87,-0.14,-0.9975,-0.01037,0.089792,-0.94794,-0.23226,0.08106,0.39774
-0.078893,0,0,15.0789,15.0789,14.9211,14.9211,0.0455292,-0.16114,18.9157,0.299889,-0.221543,0.051573,0,0,1,2.24,0.0875,-0.525,0.25803,-0.209962,-0.961482,-0.23226,0.08106,0.39774
-0.431842,0,0,15.4318,15.4318,14.5682,14.5682,0.297604,0.249423,18.6213,0.292723,-0.217144,0.0515543,0,0,1,2.73,0.105,-0.35,0.25803,-0.209962,-0.961482,-0.23226,0.08106,0.39774
-0.429901,0,0,15.4299,15.4299,14.5701,14.5701,0.296186,0.249053,18.6237,-0.139516,0.0842404,0.165774,1,0,1,2.7125,-0.07,0.5775,-0.176046,0.091134,-0.848144,-0.23226,0.08106,0.39774
-0.430801,0,0,15.4308,15.4308,14.5692,14.5692,0.296797,0.248712,18.6263,-0.139511,0.0842511,0.165774,1,0,1,3.85,-0.0525,0.6825,-0.176046,0.091134,-0.848144,-0.23226,0.08106,0.39774
-0.431218,0,0,15.4312,15.4312,14.5688,14.5688,0.297063,0.248612,18.6284,-0.296225,0.0235587,-0.0624188,1,0,1,3.6575,0.0875,0.3675,-0.333426,0.0305,-1.07458,-0.22722,0.07742,0.39116
-0.429404,0,0,15.4294,15.4294,14.5706,14.5706,0.295735,0.249679,18.6302,0.183139,-0.0490077,-0.166433,1,0,1,2.765,0.77,0.21,0.147986,-0.041968,-1.17779,-0.22722,0.07742,0.39116
-0.43038,0,0,15.4304,15.4304,14.5696,14.5696,0.2964,0.249706,18.6308,0.183138,-0.0489961,-0.166433,1,0,1,3.885,0.1575,-0.5075,0.147986,-0.041968,-1.17779,-0.22722,0.07742,0.39116
-0.431094,0,0,15.4311,15.4311,14.5689,14.5689,0.296878,0.249704,18.6314,-0.0284899,-0.128981,-0.097828,1,0,1,3.78,0.14,-0.4725,-0.064538,-0.121878,-1.10971,-0.22722,0.07742,0.39116
-0.431367,0,0,15.4314,15.4314,14.5686,14.5686,0.297042,0.249883,18.6315,-0.028493,-0.128978,-0.0978281,1,0,1,3.605,0.245,-0.805,-0.064538,-0.121878,-1.10971,-0.22722,0.07742,0.39116
-0.431856,0,0,15.4319,15.4319,14.5681,14.5681,0.297359,0.249707,18.6311,0.0304306,0.226661,-0.188318,1,0,1,3.6925,0.035,-1.0675,-0.005368,0.233386,-1.1995,-0.22722,0.07742,0.39116
-0.430897,0,0,15.4309,15.4309,14.5691,14.5691,0.296642,0.248699,18.6297,0.0304482,0.226648,-0.188318,1,0,1,3.115,-0.455,-1.645,-0.005368,0.233386,-1.1995,-0.22722,0.07742,0.39116
-0.176247,0,0,15.1762,15.1762,14.8238,14.8238,0.114737,0.103809,18.7801,-0.0896021,0.160212,0.0488688,0,0,1,3.64,0.0175,-2.2925,-0.128466,0.17019,-0.964166,-0.22722,0.07742,0.39116
0.0746906,0,0,14.9253,14.9253,15.0747,15.0747,-0.0644967,-0.0374169,18.9262,-0.0871372,0.157083,0.0488716,0,0,1,3.2375,-0.035,-2.415,-0.128466,0.17019,-0.964166,-0.231,0.07924,0.3948
0.117105,0,0,14.8829,14.8829,15.1171,15.1171,-0.0947826,-0.152708,19.0281,-0.0836672,0.0205057,0.0199746,0,0,1,4.1125,0.07,-2.5725,-0.127002,0.034282,-0.992836,-0.231,0.07924,0.3948
0.155507,0,0,14.8445,14.8445,15.1555,15.1555,-0.122199,-0.264831,19.1296,-0.0817103,0.0200272,0.0199666,0,0,1,5.32,0.35,-2.45,-0.127002,0.034282,-0.992836,-0.231,0.07924,0.3948
0.2536,0,0,14.7464,14.7464,15.2536,15.2536,-0.192245,-0.407114,19.2608,-0.103403,0.0588623,-0.00759179,0,0,1,4.5675,0.1225,-2.065,-0.15128,0.074298,-1.02016,-0.231,0.07924,0.3948
0.350581,0,0,14.6494,14.6494,15.3506,15.3506,-0.26149,-0.545811,19.392,-0.100982,0.0576539,-0.0076167,0,0,1,4.2175,0.245,-1.7325,-0.15128,0.074298,-1.02016,-0.231,0.07924,0.3948
0.350118,0,0,14.6499,14.6499,15.3501,15.3501,-0.261131,-0.545635,19.3911,0.249137,0.31144,-0.129213,1,0,1,3.71,0.245,-1.3475,0.200324,0.327814,-1.14082,-0.231,0.07924,0.3948
0.353338,0,0,14.6467,14.6467,15.3533,15.3533,-0.263403,-0.545993,19.3911,0.249143,0.3114,-0.129213,1,0,1,2.24,-0.07,-0.84,0.200324,0.327814,-1.14082,-0.231,0.07924,0.3948
0.607171,0,0,14.3928,14.3928,15.6072,15.6072,-0.444664,-0.641809,19.5216,-0.054114,0.164493,0.0268948,0,0,1,2.555,0.315,-0.665,-0.105896,0.18422,-0.985882,-0.231,0.07924,0.3948
0.856946,0,0,14.1431,14.1431,15.8569,15.8569,-0.623008,-0.733682,19.6486,-0.0525106,0.161381,0.0268465,0,0,1,2.1525,0.5425,-0.07,-0.105896,0.18422,-0.985882,-0.22666,0.0833,0.3899
0.858112,0,0,14.1419,14.1419,15.8581,15.8581,-0.623774,-0.733721,19.6505,0.277445,0.0123733,0.149672,1,0,1,3.0975,0.105,0.2625,0.225456,0.03538,-0.864004,-0.22666,0.0833,0.3899
0.857228,0,0,14.1428,14.1428,15.8572,15.8572,-0.623076,-0.734056,19.6526,0.277451,0.0123855,0.149672,1,0,1,3.92,-0.07,0.3675,0.225456,0.03538,-0.864004,-0.22666,0.0833,0.3899
0.891661,0,0,14.1083,14.1083,15.8917,15.8917,-0.647601,-0.715525,19.6769,0.0165409,0.0257578,-0.0176616,0,0,1,3.3775,0.4725,0.525,-0.036234,0.049166,-1.03005,-0.22666,0.0833,0.3899
0.924691,0,0,14.0753,14.0753,15.9247,15.9247,-0.671122,-0.696547,19.7007,0.0162096,0.0253473,-0.0176622,0,0,1,3.71,0.945,0.35,-0.036234,0.049166,-1.03005,-0.22666,0.0833,0.3899
0.839397,0,0,14.1606,14.1606,15.8394,15.8394,-0.610133,-0.614972,19.6635,0.0597357,-0.0552914,-0.0661987,0,0,1,3.605,0.35,0.245,0.008906,-0.032452,-1.07824,-0.22666,0.0833,0.3899
0.755938,0,0,14.2441,14.2441,15.7559,15.7559,-0.55046,-0.536636,19.6258,0.0583685,-0.0542501,-0.0661744,0,0,1,3.57,-0.385,-0.3325,0.008906,-0.032452,-1.07824,-0.22666,0.0833,0.3899
0.815882,0,0,14.1841,14.1841,15.8159,15.8159,-0.593214,-0.603369,19.7038,-0.0468883,0.0354998,0.00487079,0,0,1,3.29,-0.105,-0.595,-0.097966,0.05795,-1.00772,-0.22666,0.0833,0.3899
0.871816,0,0,14.1282,14.1282,15.8718,15.8718,-0.633099,-0.668274,19.7694,-0.0457555,0.0348039,0.00485077,0,0,1,4.3925,-0.0175,-0.56,-0.097966,0.05795,-1.00772,-0.23086,0.09044,0.3906
0.780114,0,0,14.2199,14.2199,15.7801,15.7801,-0.567536,-0.444815,19.6239,0.156506,-0.0409922,0.0792845,0,0,1,4.62,-0.35,-0.875,0.109068,-0.01891,-0.93391,-0.23086,0.09044,0.3906
0.69647,0,0,14.3035,14.3035,15.6965,15.6965,-0.507737,-0.22651,19.4783,0.152696,-0.0399488,0.0793166,0,0,1,2.345,-0.42,-1.575,0.109068,-0.01891,-0.93391,-0.23086,0.09044,0.3906
0.881477,0,0,14.1185,14.1185,15.8815,15.8815,-0.639816,-0.0785166,19.4182,0.121928,0.133731,0.0549566,0,0,1,2.03,-0.0875,-2.0125,0.080764,0.156892,-0.958066,-0.23086,0.09044,0.3906
1.06039,0,0,13.9396,13.9396,16.0604,16.0604,-0.767526,0.0665037,19.3574,0.119397,0.131502,0.0549295,0,0,1,3.3425,-0.105,-2.3275,0.080764,0.156892,-0.958066,-0.23086,0.09044,0.3906
1.05735,0,0,13.9427,13.9427,16.0573,16.0573,-0.765274,0.0656102,19.3553,0.0205232,-0.00902667,0.181198,1,0,1,4.7775,-0.3675,-2.065,-0.018544,0.01647,-0.832772,-0.23086,0.09044,0.3906
1.05383,0,0,13.9462,13.9462,16.0538,16.0538,-0.762679,0.0657913,19.3531,0.0205201,-0.00898137,0.181199,1,0,1,4.97,0.2625,-2.1,-0.018544,0.01647,-0.832772,-0.23086,0.09044,0.3906
1.05013,0,0,13.9499,13.9499,16.0501,16.0501,-0.759958,0.0667853,19.3515,-0.0679389,-0.168798,-0.238424,1,0,1,5.04,0.735,-1.82,-0.10736,-0.143228,-1.24916,-0.23086,0.09044,0.3906
1.05028,0,0,13.9497,13.9497,16.0503,16.0503,-0.759983,0.0669939,19.3514,-0.0679425,-0.168798,-0.238424,1,0,1,3.5,0.2625,-0.8925,-0.10736,-0.143228,-1.24916,-0.22778,0.08638,0.39326
0.810838,0,0,14.1892,14.1892,15.8108,15.8108,-0.588888,-0.172375,19.4831,-0.183307,-0.173262,0.125658,0,0,1,2.8175,0.0525,-0.945,-0.227408,-0.15067,-0.887916,-0.22778,0.08638,0.39326
0.57647,0,0,14.4235,14.4235,15.5765,15.5765,-0.421437,-0.405858,19.6128,-0.179232,-0.170339,0.125663,0,0,1,2.1875,0.5775,-0.8225,-0.227408,-0.15067,-0.887916,-0.22778,0.08638,0.39326
0.374188,0,0,14.6258,14.6258,15.3742,15.3742,-0.27692,-0.281204,19.5173,0.0762639,-0.12434,0.0832743,0,0,1,2.03,0.315,-0.35,0.031354,-0.107238,-0.930006,-0.22778,0.08638,0.39326
0.170932,0,0,14.8291,14.8291,15.1709,15.1709,-0.131723,-0.16044,19.4242,0.0741562,-0.121806,0.0832915,0,0,1,4.025,-0.14,0.385,0.031354,-0.107238,-0.930006,-0.22778,0.08638,0.39326
0.556117,0,0,14.4439,14.4439,15.5561,15.5561,-0.406812,-0.156842,19.4978,0.0282933,0.263099,0.0627367,0,0,1,3.4475,0.2625,0.2975,-0.01464,0.282064,-0.95038,-0.22778,0.08638,0.39326
0.934143,0,0,14.0659,14.0659,15.9341,15.9341,-0.676757,-0.151501,19.5705,0.0282001,0.258388,0.0626924,0,0,1,3.7275,1.05,-0.175,-0.01464,0.282064,-0.95038,-0.22778,0.08638,0.39326
0.901936,0,0,14.0981,14.0981,15.9019,15.9019,-0.653683,-0.0394915,19.51,0.0891747,-0.0109872,-0.0579122,0,0,1,4.865,0.945,-0.2625,0.048556,0.012566,-1.07006,-0.22778,0.08638,0.39326
0.874859,0,0,14.1251,14.1251,15.8749,15.8749,-0.634274,0.0686879,19.4503,0.0872866,-0.0106485,-0.0579088,0,0,1,3.1675,0.175,-0.0175,0.048556,0.012566,-1.07006,-0.22778,0.08638,0.39326
0.571458,0,0,14.4285,14.4285,15.5715,15.5715,-0.417514,0.153858,19.3637,0.0488685,-0.221076,-0.0523443,0,0,1,3.3775,0.14,-0.7,0.011468,-0.201422,-1.06457,-0.22834,0.08386,0.39746
0.27094,0,0,14.7291,14.7291,15.2709,15.2709,-0.202837,0.235062,19.277,0.0474512,-0.217329,-0.0523288,0,0,1,4.4625,-0.77,-1.435,0.011468,-0.201422,-1.06457,-0.22834,0.08386,0.39746
0.269088,0,0,14.7309,14.7309,15.2691,15.2691,-0.201492,0.234192,19.2759,0.395887,-0.131328,-0.213268,1,0,1,4.27,-0.3675,-1.4875,0.361364,-0.115534,-1.22427,-0.22834,0.08386,0.39746
0.267235,0,0,14.7328,14.7328,15.2672,15.2672,-0.200147,0.233323,19.2748,0.395903,-0.131305,-0.213268,1,0,1,4.27,-0.3675,-1.4875,0.361364,-0.115534,-1.22427,-0.22834,0.08386,0.39746
0.303182,0,0,14.6968,14.6968,15.3032,15.3032,-0.2258,0.384838,19.1911,0.118943,0.0365382,0.0203181,0,0,1,3.01,-0.35,-2.24,0.085888,0.052582,-0.99247,-0.22834,0.08386,0.39746
0.0337803,0,0,14.9662,14.9662,15.0338,15.0338,-0.0333661,0.522659,19.0685,0.0842229,-0.172848,0.0664123,0,0,1,1.75,-0.0875,-2.17,0.053436,-0.159942,-0.94672,-0.22834,0.08386,0.39746
-0.233566,0,0,15.2336,15.2336,14.7664,14.7664,0.157579,0.656544,18.9471,0.0818863,-0.169516,0.0663846,0,0,1,3.01,-0.35,-2.45,0.053436,-0.159942,-0.94672,-0.22834,0.08386,0.39746
-0.235711,0,0,15.2357,15.2357,14.7643,14.7643,0.159094,0.656341,18.9452,-0.158895,0.114822,-0.102915,1,0,1,4.375,0.0175,-1.9425,-0.188368,0.124074,-1.11471,-0.22834,0.08386,0.39746
-0.240323,0,0,15.2403,15.2403,14.7597,14.7597,0.16237,0.655866,18.9445,-0.158887,0.114879,-0.102916,1,0,1,5.355,-0.14,-1.2425,-0.188368,0.124074,-1.11471,-0.22862,0.08596,0.38934
-0.15569,0,0,15.1557,15.1557,14.8443,14.8443,0.101907,0.701598,18.9307,0.0429535,0.0698581,-0.0461203,0,0,1,5.25,0.4025,-1.33,0.015128,0.080154,-1.05835,-0.22862,0.08596,0.38934
-0.0691739,0,0,15.0692,15.0692,14.9308,14.9308,0.0401061,0.745888,18.9188,0.0421806,0.0687796,-0.0461288,0,0,1,3.9375,0.0875,-0.2625,0.015128,0.080154,-1.05835,-0.22862,0.08596,0.38934
-0.280944,0,0,15.2809,15.2809,14.7191,14.7191,0.19135,1.0339,18.7052,0.215981,-0.131922,-0.000475336,0,0,1,2.555,0.1575,-0.3325,0.194712,-0.122976,-1.01297,-0.22862,0.08596,0.38934
-0.48857,0,0,15.4886,15.4886,14.5114,14.5114,0.339618,1.31515,18.4945,0.211074,-0.129336,-0.000587939,0,0,1,2.7825,0.035,0.07,0.194712,-0.122976,-1.01297,-0.22862,0.08596,0.38934
-0.48468,0,0,15.4847,15.4847,14.5153,14.5153,0.336803,1.31543,18.4967,0.195154,0.0486761,-0.109274,1,0,1,1.9075,0.315,0.42,0.17873,0.0549,-1.12081,-0.22862,0.08596,0.38934
-0.482109,0,0,15.4821,15.4821,14.5179,14.5179,0.334931,1.31608,18.4991,0.195143,0.0486435,-0.109274,1,0,1,2.4325,0.525,0.5775,0.17873,0.0549,-1.12081,-0.22862,0.08596,0.38934
-0.482364,0,0,15.4824,15.4824,14.5176,14.5176,0.335077,1.31729,18.5011,-0.000956224,0.0861389,0.111172,1,0,1,3.57,0.8575,0.315,-0.018178,0.092354,-0.902068,-0.22862,0.08596,0.38934
-0.482599,0,0,15.4826,15.4826,14.5174,14.5174,0.335209,1.3186,18.5025,-0.000979031,0.0861412,0.111171,1,0,1,3.57,0.91,-0.0525,-0.018178,0.092354,-0.902068,-0.22736,0.07896,0.3878
-0.626132,0,0,15.6261,15.6261,14.3739,14.3739,0.437686,1.23993,18.5414,-0.0707971,-0.109794,-0.00622591,0,0,1,3.36,0.455,-0.035,-0.08967,-0.105164,-1.01858,-0.22736,0.07896,0.3878
-0.768369,0,0,15.7684,15.7684,14.2316,14.2316,0.539226,1.16255,18.5799,-0.0694467,-0.108022,-0.0062127,0,0,1,3.7625,0.28,-0.035,-0.08967,-0.105164,-1.01858,-0.22736,0.07896,0.3878
-0.748362,0,0,15.7484,15.7484,14.2516,14.2516,0.524879,1.3002,18.5017,0.117183,0.0303413,-0.0646625,0,0,1,5.1975,-0.2275,-0.4725,0.100162,0.033306,-1.07653,-0.22736,0.07896,0.3878
-0.728262,0,0,15.7283,15.7283,14.2717,14.2717,0.510467,1.4354,18.4227,0.114824,0.0300894,-0.0647166,0,0,1,5.1975,0.0875,-1.2075,0.100162,0.033306,-1.07653,-0.22736,0.07896,0.3878
-0.726919,0,0,15.7269,15.7269,14.2731,14.2731,0.509453,1.43523,18.4218,0.208736,0.161846,0.27622,1,0,1,2.9575,0.035,-1.3475,0.194468,0.164944,-0.738222,-0.22736,0.07896,0.3878
-0.724775,0,0,15.7248,15.7248,14.2752,14.2752,0.507867,1.4345,18.4193,0.208748,0.161819,0.27622,1,0,1,2.66,-0.2975,-2.3275,0.194468,0.164944,-0.738222,-0.22736,0.07896,0.3878
-0.721057,0,0,15.7211,15.7211,14.2789,14.2789,0.505157,1.43399,18.4167,0.175834,0.115119,0.160158,1,0,1,2.03,-0.175,-2.3275,0.161406,0.11834,-0.85339,-0.22736,0.07896,0.3878
-0.716396,0,0,15.7164,15.7164,14.2836,14.2836,0.501774,1.43369,18.4135,0.17584,0.11506,0.160158,1,0,1,1.6625,-0.0525,-2.73,0.161406,0.11834,-0.85339,-0.22624,0.08456,0.39004
-0.716907,0,0,15.7169,15.7169,14.2831,14.2831,0.502086,1.43354,18.4106,-0.218986,0.195181,-0.0956975,1,0,1,3.7275,0.035,-2.485,-0.235094,0.198372,-1.10727,-0.22624,0.08456,0.39004
-0.717465,0,0,15.7175,15.7175,14.2825,14.2825,0.50243,1.43313,18.4092,-0.218979,0.195187,-0.0956974,1,0,1,3.7275,-0.105,-1.6975,-0.235094,0.198372,-1.10727,-0.22624,0.08456,0.39004
-0.929958,0,0,15.93,15.93,14.07,14.07,0.654141,1.38992,18.4029,-0.0442575,-0.141556,0.074947,0,0,1,4.9,0.14,-1.6975,-0.06039,-0.140666,-0.937936,-0.22624,0.08456,0.39004
-1.12897,0,0,16.129,16.129,13.871,13.871,0.796204,1.34734,18.3975,-0.0435146,-0.139078,0.0749334,0,0,1,0.91,0.1225,-1.12,-0.06039,-0.140666,-0.937936,-0.22624,0.08456,0.39004
-1.12782,0,0,16.1278,16.1278,13.8722,13.8722,0.795298,1.34767,18.3972,0.145876,0.149248,-0.257273,1,0,1,3.01,0.3325,-1.0325,0.129808,0.147376,-1.26758,-0.22624,0.08456,0.39004
-1.12606,0,0,16.1261,16.1261,13.8739,13.8739,0.793961,1.34745,18.3984,0.14588,0.149224,-0.257273,1,0,1,2.7475,0.0175,-0.1225,0.129808,0.147376,-1.26758,-0.22624,0.08456,0.39004
-1.12298,0,0,16.123,16.123,13.877,13.877,0.791671,1.34661,18.4003,-0.0722941,0.0589328,0.102844,1,0,1,2.205,-0.3325,0.2625,-0.089304,0.057218,-0.910242,-0.22624,0.08456,0.39004
-1.1183,0,0,16.1183,16.1183,13.8817,13.8817,0.788245,1.34776,18.4016,-0.0723141,0.058873,0.102844,1,0,1,1.575,0.8225,-0.07,-0.089304,0.057218,-0.910242,-0.22638,0.07364,0.38514
-1.41828,0,0,16.4183,16.4183,13.5817,13.5817,1.00241,1.24447,18.4428,-0.100883,-0.22048,0.0366805,0,0,1,2.8525,0.945,-0.0175,-0.119804,-0.225578,-0.975878,-0.22638,0.07364,0.38514
-1.71406,0,0,16.7141,16.7141,13.2859,13.2859,1.21355,1.14233,18.483,-0.0991009,-0.216795,0.0366464,0,0,1,3.115,0.5425,-0.14,-0.119804,-0.225578,-0.975878,-0.22638,0.07364,0.38514
-1.71141,0,0,16.7114,16.7114,13.2886,13.2886,1.21153,1.14293,18.4846,-0.192534,0.121583,-0.219209,1,0,1,2.3625,0.5075,0.105,-0.213622,0.112484,-1.22976,-0.22638,0.07364,0.38514
-1.71289,0,0,16.7129,16.7129,13.2871,13.2871,1.21246,1.14354,18.4854,-0.192544,0.121599,-0.219209,1,0,1,4.025,0.5075,-0.3675,-0.213622,0.112484,-1.22976,-0.22638,0.07364,0.38514
-1.57833,0,0,16.5783,16.5783,13.4217,13.4217,1.11622,1.27405,18.4336,0.100996,0.102699,0.075853,0,0,1,4.41,-0.1925,-0.245,0.083448,0.095282,-0.93696,-0.22638,0.07364,0.38514
-1.4473,0,0,16.4473,16.4473,13.5527,13.5527,1.02252,1.4016,18.3814,0.0987703,0.101063,0.0758316,0,0,1,5.04,-0.3675,-0.3675,0.083448,0.095282,-0.93696,-0.22638,0.07364,0.38514
-1.45013,0,0,16.4501,16.4501,13.5499,13.5499,1.02443,1.40115,18.3814,-0.344888,-0.0079624,0.255828,1,0,1,4.585,-0.1225,-0.875,-0.362096,-0.013664,-0.758352,-0.22638,0.07364,0.38514
-1.44629,0,0,16.4463,16.4463,13.5537,13.5537,1.02158,1.40111,18.3806,-0.344887,-0.00801217,0.255829,1,0,1,1.925,0.105,-1.3125,-0.362096,-0.013664,-0.758352,-0.22638,0.07364,0.38514
-1.6796,0,0,16.6796,16.6796,13.3204,13.3204,1.1881,1.38982,18.3484,-0.0231173,-0.167658,0.0295522,0,0,1,1.6625,0.2975,-1.8025,-0.039162,-0.176046,-0.982832,-0.22876,0.08386,0.39116
-1.9119,0,0,16.9119,16.9119,13.0881,13.0881,1.35389,1.37761,18.3157,-0.0229042,-0.164766,0.0294932,0,0,1,2.87,-0.21,-2.2925,-0.039162,-0.176046,-0.982832,-0.22876,0.08386,0.39116
-1.91028,0,0,16.9103,16.9103,13.0897,13.0897,1.35258,1.37764,18.3144,0.314947,0.265464,-0.129479,1,0,1,2.8,0.14,-1.6275,0.30012,0.25376,-1.14058,-0.22876,0.08386,0.39116
-1.9136,0,0,16.9136,16.9136,13.0864,13.0864,1.35481,1.37773,18.3134,0.314945,0.265503,-0.12948,1,0,1,4.7775,0.175,-1.4175,0.30012,0.25376,-1.14058,-0.22876,0.08386,0.39116
-1.91718,0,0,16.9172,16.9172,13.0828,13.0828,1.35722,1.37752,18.3132,-0.0518163,-0.00850754,0.162399,1,0,1,4.865,0.0175,-0.9625,-0.068198,-0.020008,-0.85095,-0.22876,0.08386,0.39116
-1.91858,0,0,16.9186,16.9186,13.0814,13.0814,1.35808,1.3765,18.3136,-0.0517984,-0.00849253,0.162399,1,0,1,3.99,-0.455,-0.5775,-0.068198,-0.020008,-0.85095,-0.22876,0.08386,0.39116
-1.66363,0,0,16.6636,16.6636,13.3364,13.3364,1.17584,1.32856,18.3725,-0.0218054,0.174084,0.0410162,0,0,1,3.955,-0.14,-0.805,-0.038918,0.165554,-0.971486,-0.22876,0.08386,0.39116
-1.40936,0,0,16.4094,16.4094,13.5906,13.5906,0.994117,1.28199,18.4319,-0.0209928,0.170914,0.0410947,0,0,1,2.45,-0.105,-0.49,-0.038918,0.165554,-0.971486,-0.22876,0.08386,0.39116
-1.25843,0,0,16.2584,16.2584,13.7416,13.7416,0.886211,1.48955,18.3228,0.175716,0.128117,-0.00912494,0,0,1,2.87,-0.2975,-0.245,0.16226,0.124684,-1.02126,-0.2268,0.07952,0.38794
-1.09978,0,0,16.0998,16.0998,13.9002,13.9002,0.772808,1.08618,18.6044,-0.280836,0.0719168,0.115117,0,0,1,2.555,0.2625,-0.1925,-0.303292,0.070516,-0.898164,-0.2268,0.07952,0.38794
-0.946771,0,0,15.9468,15.9468,14.0532,14.0532,0.663445,0.69322,18.8842,-0.273978,0.0700098,0.115247,0,0,1,3.6225,1.05,-0.63,-0.303292,0.070516,-0.898164,-0.2268,0.07952,0.38794
-0.67262,0,0,15.6726,15.6726,14.3274,14.3274,0.467573,0.262175,19.2108,-0.320273,0.157454,0.0530089,0,0,1,3.2725,1.225,-0.63,-0.357338,0.161284,-0.960018,-0.2268,0.07952,0.38794
-0.401246,0,0,15.4012,15.4012,14.5988,14.5988,0.273705,-0.160576,19.5373,-0.312895,0.154071,0.0530374,0,0,1,2.5375,0.4725,-0.6125,-0.357338,0.161284,-0.960018,-0.2268,0.07952,0.38794
-0.402433,0,0,15.4024,15.4024,14.5976,14.5976,0.274524,-0.160067,19.5373,-0.077586,-0.00638931,-0.118476,1,0,1,3.9725,0.4375,-0.8225,-0.121024,0.000976,-1.13021,-0.2268,0.07952,0.38794
-0.404452,0,0,15.4045,15.4045,14.5955,14.5955,0.275936,-0.160961,19.5371,-0.0775703,-0.00636465,-0.118476,1,0,1,4.305,-0.385,-0.9975,-0.121024,0.000976,-1.13021,-0.2268,0.07952,0.38794
-0.405469,0,0,15.4055,15.4055,14.5945,14.5945,0.276633,-0.161106,19.5361,-0.0284876,0.129575,-0.213392,1,0,1,3.9025,0.0525,-1.3825,-0.071736,0.136762,-1.22439,-0.2268,0.07952,0.38794
-0.409543,0,0,15.4095,15.4095,14.5905,14.5905,0.279513,-0.161968,19.5355,-0.0284726,0.129625,-0.213393,1,0,1,5.1275,-0.3675,-1.19,-0.071736,0.136762,-1.22439,-0.22484,0.08078,0.38976
-0.410123,0,0,15.4101,15.4101,14.5899,14.5899,0.279898,-0.162888,19.5345,0.014185,0.229531,0.198116,1,0,1,3.7275,-0.4025,-1.4525,-0.028914,0.236558,-0.816058,-0.22484,0.08078,0.38976
-0.407735,0,0,15.4077,15.4077,14.5923,14.5923,0.278162,-0.163327,19.5328,0.0141926,0.229501,0.198116,1,0,1,2.5375,-0.1225,-1.855,-0.028914,0.236558,-0.816058,-0.22484,0.08078,0.38976
-0.269329,0,0,15.2693,15.2693,14.7307,14.7307,0.179281,-0.455111,19.7581,-0.221257,0.071575,0.0118285,0,0,1,2.625,-0.1925,-2.1875,-0.270474,0.08052,-1.00089,-0.22484,0.08078,0.38976
-0.134643,0,0,15.1346,15.1346,14.8654,14.8654,0.0830679,-0.740584,19.9841,-0.216274,0.0698957,0.0117804,0,0,1,3.0275,-0.385,-1.2775,-0.270474,0.08052,-1.00089,-0.22484,0.08078,0.38976
-0.136631,0,0,15.1366,15.1366,14.8634,14.8634,0.0844791,-0.740972,19.9842,0.138106,-0.0450009,-0.129856,1,0,1,4.305,-0.0875,-0.8225,0.0854,-0.034282,-1.14143,-0.22484,0.08078,0.38976
-0.139532,0,0,15.1395,15.1395,14.8605,14.8605,0.086542,-0.740942,19.9845,0.138106,-0.0449649,-0.129856,1,0,1,4.6725,0.1575,-0.6475,0.0854,-0.034282,-1.14143,-0.22484,0.08078,0.38976
-0.250536,0,0,15.2505,15.2505,14.7495,14.7495,0.165813,-0.347027,19.7396,0.308357,-0.0443141,0.0221701,0,0,1,4.095,-0.0875,-0.3675,0.263276,-0.035014,-0.99064,-0.22484,0.08078,0.38976
-0.357873,0,0,15.3579,15.3579,14.6421,14.6421,0.242456,0.0383161,19.4939,0.301632,-0.0429764,0.0221834,0,0,1,4.06,-0.0525,-0.525,0.263276,-0.035014,-0.99064,-0.22218,0.08274,0.38542
-0.358401,0,0,15.3584,15.3584,14.6416,14.6416,0.242807,0.0375346,19.4952,0.220979,-0.00511095,0.138124,1,0,1,3.71,-0.315,-0.07,0.182268,0.002806,-0.875594,-0.22218,0.08274,0.38542
-0.355695,0,0,15.3557,15.3557,14.6443,14.6443,0.240848,0.0375902,19.4964,0.220978,-0.00514513,0.138124,1,0,1,2.415,0.175,-0.175,0.182268,0.002806,-0.875594,-0.22218,0.08274,0.38542
-0.354868,0,0,15.3549,15.3549,14.6451,14.6451,0.240232,0.0372855,19.4979,0.117599,-0.00772055,0.108493,1,0,1,3.1675,-0.035,0.0875,0.078446,0.000244,-0.904996,-0.22218,0.08274,0.38542
-0.356444,0,0,15.3564,15.3564,14.6436,14.6436,0.241332,0.0379711,19.4985,0.117587,-0.00770135,0.108493,1,0,1,4.13,0.5425,-0.5425,0.078446,0.000244,-0.904996,-0.22218,0.08274,0.38542
-0.243649,0,0,15.2436,15.2436,14.7564,14.7564,0.160747,-0.0775243,19.6066,-0.0812133,0.0691754,0.0289499,0,0,1,4.025,0.7175,-0.665,-0.12322,0.078446,-0.98393,-0.22218,0.08274,0.38542
-0.131666,0,0,15.1317,15.1317,14.8683,14.8683,0.0807504,-0.189582,19.7141,-0.0792576,0.0677792,0.0289483,0,0,1,3.4825,1.1375,-0.7525,-0.12322,0.078446,-0.98393,-0.22218,0.08274,0.38542
-0.0563433,0,0,15.0563,15.0563,14.9437,14.9437,0.0269453,-0.34808,19.8477,-0.123871,0.0415599,-0.0227021,0,0,1,4.095,0.875,-0.525,-0.1708,0.053192,-1.03517,-0.22218,0.08274,0.38542
0.0191214,0,0,14.9809,14.9809,15.0191,15.0191,-0.0269551,-0.50602,19.9896,-0.121114,0.0406192,-0.0227227,0,0,1,3.7625,0.105,-1.1375,-0.1708,0.053192,-1.03517,-0.22918,0.07364,0.3801
0.227589,0,0,14.7724,14.7724,15.2276,15.2276,-0.175842,-0.441682,20.0117,0.0630286,0.140119,0.0916241,0,0,1,3.255,0,-1.2075,0.01525,0.155184,-0.92171,-0.22918,0.07364,0.3801
0.429813,0,0,14.5702,14.5702,15.4298,15.4298,-0.320253,-0.379014,20.0331,0.0619349,0.137598,0.091621,0,0,1,4.375,-0.3675,-1.4875,0.01525,0.155184,-0.92171,-0.22918,0.07364,0.3801
0.429225,0,0,14.5708,14.5708,15.4292,15.4292,-0.319799,-0.379022,20.0315,-0.157468,0.23604,-0.151571,1,0,1,3.7625,0.14,-1.7325,-0.205082,0.253516,-1.16303,-0.22918,0.07364,0.3801
0.42785,0,0,14.5722,14.5722,15.4278,15.4278,-0.318782,-0.379717,20.03,-0.157456,0.236058,-0.151571,1,0,1,4.0775,-0.2625,-1.7675,-0.205082,0.253516,-1.16303,-0.22918,0.07364,0.3801
0.510377,0,0,14.4896,14.4896,15.5104,15.5104,-0.37769,-0.477035,20.1342,-0.0761844,0.0552595,-0.0886404,0,0,1,3.78,-0.3325,-1.925,-0.125172,0.073932,-1.10056,-0.22918,0.07364,0.3801
0.592553,0,0,14.4074,14.4074,15.5926,15.5926,-0.436341,-0.57192,20.2396,-0.0745284,0.0542361,-0.0886628,0,0,1,3.2725,-0.2625,-0.945,-0.125172,0.073932,-1.10056,-0.22918,0.07364,0.3801
0.591249,0,0,14.4088,14.4088,15.5912,15.5912,-0.435362,-0.572102,20.2393,0.250327,-0.0182902,0.217848,1,0,1,4.06,0.035,-1.0675,0.201056,0.001464,-0.796416,-0.22918,0.07364,0.3801
0.589088,0,0,14.4109,14.4109,15.5891,15.5891,-0.433772,-0.572422,20.2402,0.250333,-0.0182624,0.217848,1,0,1,4.41,-0.0525,-0.2975,0.201056,0.001464,-0.796416,-0.2275,0.07714,0.37492
0.587634,0,0,14.4124,14.4124,15.5876,15.5876,-0.432687,-0.572829,20.2416,0.0422352,-0.176886,0.131661,1,0,1,4.13,-0.105,0,-0.00793,-0.157014,-0.881938,-0.2275,0.07714,0.37492
0.587398,0,0,14.4126,14.4126,15.5874,15.5874,-0.432473,-0.573298,20.2427,0.0422434,-0.176882,0.131661,1,0,1,3.64,-0.14,-0.21,-0.00793,-0.157014,-0.881938,-0.2275,0.07714,0.37492
0.948916,0,0,14.0511,14.0511,15.9489,15.9489,-0.690626,-0.357555,20.19,0.203456,0.278786,0.0475508,0,0,1,3.535,-0.49,-0.0875,0.157746,0.302682,-0.965386,-0.2275,0.07714,0.37492
1.30672,0,0,13.6933,13.6933,16.3067,16.3067,-0.9461,-0.144635,20.1363,0.19974,0.274327,0.0475034,0,0,1,2.835,0.0525,-0.0875,0.157746,0.302682,-0.965386,-0.2275,0.07714,0.37492
1.41834,0,0,13.5817,13.5817,16.4183,16.4183,-1.02571,0.0751112,20.0386,0.190316,0.102937,-0.0154678,0,0,1,3.7625,-0.0875,0,0.152134,0.132858,-1.02785,-0.2275,0.07714,0.37492
1.52756,0,0,13.4724,13.4724,16.5276,16.5276,-1.10362,0.291392,19.94,0.186541,0.101578,-0.0155051,0,0,1,4.2,0.4725,-0.4725,0.152134,0.132858,-1.02785,-0.2275,0.07714,0.37492
1.52667,0,0,13.4733,13.4733,16.5267,16.5267,-1.10286,0.0456668,20.1211,-0.180795,-0.0218791,0.0893828,0,0,1,3.99,0.21,-0.8225,-0.221064,0.009516,-0.923784,-0.2275,0.07714,0.37492
1.52596,0,0,13.474,13.474,16.526,16.526,-1.10224,-0.193766,20.2995,-0.176616,-0.0218681,0.0893776,0,0,1,3.745,0.735,-1.5925,-0.221064,0.009516,-0.923784,-0.2275,0.07714,0.37492
1.60628,0,0,13.3937,13.3937,16.6063,16.6063,-1.15948,-0.577531,20.5862,-0.291282,0.0208553,0.0701329,0,0,1,4.1825,0.63,-1.19,-0.342942,0.053192,-0.942816,-0.23254,0.07532,0.38206
1.60498,0,0,13.395,13.395,16.605,16.605,-1.15843,-0.576756,20.5846,0.0814221,0.0283234,-0.127445,1,0,1,4.095,0.6125,-1.785,0.031354,0.060634,-1.13887,-0.23254,0.07532,0.38206
1.60403,0,0,13.396,13.396,16.604,16.604,-1.15763,-0.577473,20.5831,0.0814346,0.0283374,-0.127445,1,0,1,3.955,-0.2625,-1.715,0.031354,0.060634,-1.13887,-0.23254,0.07532,0.38206
1.60544,0,0,13.3946,13.3946,16.6054,16.6054,-1.15851,-0.578009,20.5817,-0.174648,-0.00172122,0.192098,1,0,1,3.01,-0.1575,-1.68,-0.225822,0.030622,-0.821792,-0.23254,0.07532,0.38206
1.60619,0,0,13.3938,13.3938,16.6062,16.6062,-1.15892,-0.578821,20.5799,-0.174634,-0.00172841,0.192098,1,0,1,3.2725,-0.315,-1.89,-0.225822,0.030622,-0.821792,-0.23254,0.07532,0.38206
1.39052,0,0,13.6095,13.6095,16.3905,16.3905,-1.00477,-0.396707,20.4567,0.121164,-0.130569,0.064678,0,0,1,3.5,-0.2625,-2.1175,0.07442,-0.100772,-0.948306,-0.23254,0.07532,0.38206
1.17926,0,0,13.8207,13.8207,16.1793,16.1793,-0.853769,-0.218833,20.3366,0.11806,-0.127935,0.0647374,0,0,1,3.5175,-0.2275,-1.1725,0.07442,-0.100772,-0.948306,-0.23254,0.07532,0.38206
1.1785,0,0,13.8215,13.8215,16.1785,16.1785,-0.853138,-0.219755,20.3368,0.114674,-0.169935,-0.250134,1,0,1,3.8675,-0.4025,-0.7175,0.071004,-0.14274,-1.26075,-0.23254,0.07532,0.38206
1.17723,0,0,13.8228,13.8228,16.1772,16.1772,-0.852136,-0.219353,20.3376,0.114667,-0.169918,-0.250133,1,0,1,4.0775,0.3675,-0.3675,0.071004,-0.14274,-1.26075,-0.2254,0.08022,0.38878
0.867921,0,0,14.1321,14.1321,15.8679,15.8679,-0.631136,0.0568,20.1306,0.193673,-0.194639,0.0493031,0,0,1,3.4125,0.42,-0.1575,0.155184,-0.171288,-0.963678,-0.2254,0.08022,0.38878
0.564784,0,0,14.4352,14.4352,15.5648,15.5648,-0.414565,0.32682,19.9273,0.18896,-0.190859,0.0493218,0,0,1,3.4825,0.525,0.4375,0.155184,-0.171288,-0.963678,-0.2254,0.08022,0.38878
0.435471,0,0,14.5645,14.5645,15.4355,15.4355,-0.322165,0.402584,19.8743,0.0550967,-0.0913006,-0.06342,0,0,1,3.4125,-0.1225,0.5425,0.022082,-0.073444,-1.07555,-0.2254,0.08022,0.38878
0.310998,0,0,14.689,14.689,15.311,15.311,-0.23323,0.476655,19.8214,0.053804,-0.0897484,-0.0634224,0,0,1,2.4675,-0.0175,0.2975,0.022082,-0.073444,-1.07555,-0.2254,0.08022,0.38878
0.313103,0,0,14.6869,14.6869,15.3131,15.3131,-0.234708,0.476871,19.823,-0.286846,0.0161097,-0.098094,1,0,1,2.6775,0.2625,0.07,-0.320006,0.03233,-1.10996,-0.2254,0.08022,0.38878
0.313069,0,0,14.6869,14.6869,15.3131,15.3131,-0.234659,0.47622,19.8243,-0.286834,0.0161105,-0.0980939,1,0,1,3.535,-0.245,-0.0875,-0.320006,0.03233,-1.10996,-0.2254,0.08022,0.38878
0.312382,0,0,14.6876,14.6876,15.3124,15.3124,-0.234143,0.475777,19.8255,0.169231,-0.117121,-0.222149,1,0,1,3.7975,-0.1225,-0.1575,0.137982,-0.100772,-1.23305,-0.2254,0.08022,0.38878
0.313767,0,0,14.6862,14.6862,15.3138,15.3138,-0.235108,0.475626,19.825,0.169233,-0.117138,-0.222149,1,0,1,2.975,0.0525,-1.12,0.137982,-0.100772,-1.23305,-0.22806,0.07532,0.38038
0.212119,0,0,14.7879,14.7879,15.2121,15.2121,-0.162484,0.741758,19.656,0.186456,-0.0472347,0.0926772,0,0,1,2.765,0.2275,-1.26,0.159942,-0.032208,-0.920612,-0.22806,0.07532,0.38038
0.109729,0,0,14.8903,14.8903,15.1097,15.1097,-0.0893391,1.00169,19.487,0.18192,-0.0459581,0.092611,0,0,1,4.1475,0,-2.0125,0.159942,-0.032208,-0.920612,-0.22806,0.07532,0.38038
0.107176,0,0,14.8928,14.8928,15.1072,15.1072,-0.0875058,1.001,19.4843,-0.060189,-0.0719391,0.119168,1,0,1,4.5675,-0.2625,-2.3975,-0.083204,-0.058194,-0.89426,-0.22806,0.07532,0.38038
0.107383,0,0,14.8926,14.8926,15.1074,15.1074,-0.0876447,1.00076,19.4813,-0.0601847,-0.0719415,0.119168,1,0,1,3.465,0,-2.59,-0.083204,-0.058194,-0.89426,-0.22806,0.07532,0.38038
0.28745,0,0,14.7125,14.7125,15.2875,15.2875,-0.216241,0.672653,19.7264,-0.255396,0.102409,-0.00382555,0,0,1,3.325,0.3325,-2.59,-0.284992,0.118218,-1.01638,-0.22806,0.07532,0.38038
0.464254,0,0,14.5357,14.5357,15.4643,15.4643,-0.342492,0.351034,19.9713,-0.249783,0.100206,-0.00378615,0,0,1,3.2725,-0.175,-2.275,-0.284992,0.118218,-1.01638,-0.22806,0.07532,0.38038
0.46567,0,0,14.5343,14.5343,15.4657,15.4657,-0.343467,0.350394,19.9689,0.0539423,-0.103274,0.125802,1,0,1,2.975,-0.2275,-2.205,0.020008,-0.085034,-0.887794,-0.22806,0.07532,0.38038
0.467512,0,0,14.5325,14.5325,15.4675,15.4675,-0.344746,0.349971,19.968,0.0539497,-0.103297,0.125801,1,0,1,2.8,-0.105,-1.4,0.020008,-0.085034,-0.887794,-0.22652,0.0819,0.38332
0.468384,0,0,14.5316,14.5316,15.4684,15.4684,-0.345331,0.349464,19.968,0.0636774,-0.111123,-0.111489,1,0,1,3.185,-0.1575,-0.805,0.029768,-0.092842,-1.12325,-0.22652,0.0819,0.38332
0.466232,0,0,14.5338,14.5338,15.4662,15.4662,-0.343758,0.349172,19.969,0.0636825,-0.111096,-0.111489,1,0,1,4.3925,-0.035,-0.2975,0.029768,-0.092842,-1.12325,-0.22652,0.0819,0.38332
0.484038,0,0,14.516,14.516,15.484,15.484,-0.356438,0.374177,19.9681,0.021455,0.0149621,-0.035265,0,0,1,3.15,0.4725,0.245,-0.0122,0.033306,-1.04761,-0.22652,0.0819,0.38332
0.503863,0,0,14.4961,14.4961,15.5039,15.5039,-0.370559,0.398878,19.9683,0.0210239,0.0147157,-0.0352695,0,0,1,2.24,0.595,0.8925,-0.0122,0.033306,-1.04761,-0.22652,0.0819,0.38332
