pid_x,pid_y,pid_z,front_left_speed,front_right_speed,back_left_speed,back_right_speed,orientation_x,orientation_y,orientation_z,acceleration_x,acceleration_y,acceleration_z,gyro_x,gyro_y,gyro_z,accel_x,accel_y,accel_z,mag_x,mag_y,mag_z
-0.298156,0,0,5.29816,5.29816,5,5,0.496926,-0.0371576,-0.212787,0.0359233,-0.426532,0.0958009,3.6925,-0.105,-0.49,-0.00488,-0.422608,-0.917562,-0.07238,0.2408,0.35182
-0.591464,0,0,5.59146,5.59146,5,5,0.985773,-0.0721646,-0.42326,0.0359268,-0.419955,0.0928622,3.8675,0.0525,-0.4725,-0.00549,-0.42456,-0.920368,-0.07238,0.2408,0.35182
-0.879384,0,0,5.87938,5.87938,5,5,1.46564,-0.104534,-0.632124,0.0364918,-0.411581,0.0926821,3.745,-0.0525,-0.3675,-0.00549,-0.42456,-0.920368,-0.07238,0.2408,0.35182
-1.15935,0,0,6.15935,6.15935,5,5,1.93226,-0.130699,-0.842226,0.0393781,-0.402952,0.0839563,3.605,-0.0875,-0.385,-0.00305,-0.424072,-0.928786,-0.07238,0.2408,0.35182
-1.43406,0,0,6.43406,6.43406,5,5,2.39011,-0.154277,-1.05102,0.0397897,-0.394967,0.0836539,3.43,-0.0525,-0.5425,-0.00305,-0.424072,-0.928786,-0.07238,0.2408,0.35182
-1.70748,0,0,6.70748,6.70748,5,5,2.8458,-0.177274,-1.2578,0.0395836,-0.388732,0.0934942,3.43,-0.0525,-0.5425,-0.00366,-0.42578,-0.91866,-0.06944,0.2415,0.357
-1.97501,0,0,6.97501,6.97501,5,5,3.29168,-0.200462,-1.46089,0.037923,-0.378641,0.0939369,3.605,-0.175,-0.525,-0.005734,-0.423462,-0.917806,-0.06944,0.2415,0.357
-2.23451,0,0,7.23451,7.23451,5,5,3.72418,-0.220494,-1.66266,0.0382727,-0.37013,0.0838838,3.675,0,-0.6125,-0.005734,-0.422486,-0.927322,-0.06944,0.2415,0.357
-2.48916,0,0,7.48916,7.48916,5,5,4.14861,-0.238863,-1.8626,0.0385933,-0.36274,0.083374,3.6225,-0.315,-0.4725,-0.005734,-0.422486,-0.927322,-0.06944,0.2415,0.357
-2.74186,0,0,7.74186,7.74186,5,5,4.56976,-0.255377,-2.06083,0.039003,-0.356265,0.0909287,3.6925,-0.3325,-0.455,-0.005612,-0.42334,-0.91927,-0.06944,0.2415,0.357
-2.98971,0,0,7.98971,7.98971,5,5,4.98284,-0.269665,-2.25734,0.0392523,-0.349081,0.0903272,3.57,-0.245,-0.4375,-0.005612,-0.42334,-0.91927,-0.06944,0.2415,0.357
-3.23092,0,0,8.23092,8.23092,5,5,5.38486,-0.283047,-2.45081,0.0381496,-0.341361,0.0837906,3.605,0,-0.455,-0.006954,-0.422608,-0.925126,-0.06944,0.2415,0.357
-3.46629,0,0,8.46629,8.46629,5,5,5.77716,-0.292144,-2.64447,0.0398876,-0.333569,0.0804191,3.64,-0.035,-0.49,-0.005368,-0.421632,-0.92781,-0.06944,0.2415,0.357
-3.69725,0,0,8.69725,8.69725,5,5,6.16209,-0.303114,-2.84643,0.0400791,-0.326888,0.0797194,3.57,0,-0.4725,-0.005368,-0.421632,-0.92781,-0.06622,0.24556,0.35364
-3.92405,0,0,8.92405,8.92405,5,5,6.54008,-0.311772,-3.04631,0.0403517,-0.322285,0.076161,3.43,0.3325,-0.385,-0.005246,-0.423584,-0.930616,-0.06622,0.24556,0.35364
-4.14956,0,0,9.14956,9.14956,5,5,6.91594,-0.320268,-3.24356,0.0396496,-0.315282,0.0868259,3.535,0.2625,-0.5075,-0.0061,-0.423096,-0.91927,-0.06622,0.24556,0.35364
-4.37088,0,0,9.37088,9.37088,5,5,7.2848,-0.327063,-3.43911,0.0397682,-0.308894,0.0860294,3.5875,0.2275,-0.56,-0.0061,-0.423096,-0.91927,-0.06622,0.24556,0.35364
-4.58547,0,0,9.58547,9.58547,5,5,7.64245,-0.329772,-3.63435,0.0411518,-0.301728,0.0783332,3.605,0.2975,-0.5075,-0.004758,-0.42212,-0.926102,-0.06622,0.24556,0.35364
-4.79595,0,0,9.79595,9.79595,5,5,7.99325,-0.331045,-3.8278,0.041174,-0.295662,0.0775003,3.5875,0.245,-0.5425,-0.004758,-0.42212,-0.926102,-0.06622,0.24556,0.35364
-5.00731,0,0,10.0073,10.0073,5,5,8.34551,-0.326232,-4.02292,0.0452205,-0.29324,0.086586,3.6225,0.1575,-0.4025,-0.00061,-0.42578,-0.91622,-0.06622,0.24556,0.35364
-5.21045,0,0,10.2105,10.2105,5,5,8.68409,-0.322369,-4.20075,0.0402937,-0.284465,0.0778427,3.5,0.42,-0.4725,-0.00549,-0.422852,-0.924028,-0.06944,0.2415,0.35812
-5.41027,0,0,10.4103,10.4103,5,5,9.01712,-0.307972,-4.38383,0.0468456,-0.280065,0.0767039,3.5175,0.35,-0.49,0.001342,-0.424194,-0.924272,-0.06944,0.2415,0.35812
-5.60636,0,0,10.6064,10.6064,5,5,9.34393,-0.29317,-4.56518,0.0465873,-0.274434,0.0757952,3.605,0.0525,-0.56,0.001342,-0.424194,-0.924272,-0.06944,0.2415,0.35812
-5.7996,0,0,10.7996,10.7996,5,5,9.666,-0.284902,-4.73966,0.041705,-0.269867,0.0759742,3.5525,-0.175,-0.6125,-0.003416,-0.42517,-0.923174,-0.06944,0.2415,0.35812
-5.98921,0,0,10.9892,10.9892,5,5,9.98201,-0.275023,-4.91203,0.0415326,-0.264432,0.075034,3.64,0.21,-0.49,-0.003416,-0.42517,-0.923174,-0.06944,0.2415,0.35812
-6.17449,0,0,11.1745,11.1745,5,5,10.2908,-0.260908,-5.08493,0.043473,-0.258272,0.0743325,3.5,0.21,-0.4725,-0.00122,-0.424316,-0.92293,-0.06944,0.2415,0.35812
-6.35619,0,0,11.3562,11.3562,5,5,10.5937,-0.246423,-5.25622,0.0432202,-0.253074,0.0733757,3.5175,-0.0525,-0.56,-0.00122,-0.424316,-0.92293,-0.06944,0.2415,0.35812
-6.5374,0,0,11.5374,11.5374,5,5,10.8957,-0.23069,-5.42575,0.0434315,-0.248628,0.0814923,3.535,0.0525,-0.5075,-0.000732,-0.425048,-0.913902,-0.06944,0.2415,0.35812
-6.71247,0,0,11.7125,11.7125,5,5,11.1875,-0.222978,-5.5926,0.0378301,-0.243141,0.0719111,3.5175,0.105,-0.5425,-0.006222,-0.42456,-0.922442,-0.0714,0.24388,0.35532
-6.88177,0,0,11.8818,11.8818,5,5,11.4696,-0.212418,-5.75928,0.0387391,-0.235014,0.0692231,3.64,-0.0875,-0.49,-0.005124,-0.421266,-0.92415,-0.0714,0.24388,0.35532
-7.04779,0,0,12.0478,12.0478,5,5,11.7463,-0.200948,-5.92416,0.038539,-0.230284,0.0682521,3.6575,-0.0175,-0.49,-0.005124,-0.421266,-0.92415,-0.0714,0.24388,0.35532
-7.20948,0,0,12.2095,12.2095,5,5,12.0158,-0.189453,-6.08691,0.0378524,-0.225559,0.0644566,3.465,-0.0875,-0.5075,-0.005612,-0.421144,-0.926956,-0.0714,0.24388,0.35532
-7.36789,0,0,12.3679,12.3679,5,5,12.2798,-0.177344,-6.24804,0.0376411,-0.221054,0.0634876,3.3425,-0.1575,-0.56,-0.005612,-0.421144,-0.926956,-0.0714,0.24388,0.35532
-7.52504,0,0,12.525,12.525,5,5,12.5417,-0.163117,-6.40839,0.0386076,-0.217811,0.0665632,3.3425,-0.1575,-0.56,-0.004392,-0.422364,-0.92293,-0.0714,0.24388,0.35532
-7.6794,0,0,12.6794,12.6794,5,5,12.799,-0.155684,-6.5616,0.0336184,-0.215872,0.0609066,3.36,-0.0525,-0.455,-0.009272,-0.424804,-0.927566,-0.0714,0.24388,0.35532
-7.80115,0,0,12.8011,12.8011,5,5,13.0019,-0.179363,-6.69733,0.00742635,-0.161494,0.0625737,3.6225,-0.0875,-0.42,-0.03599,-0.37393,-0.925126,-0.06762,0.24472,0.35224
-8.05337,0,0,13.0534,13.0534,5,5,13.4223,-0.00668352,-6.95745,0.179959,-0.409106,0.0615164,3.6575,-0.1925,-0.4025,0.1403,-0.628422,-0.924516,-0.06762,0.24472,0.35224
-8.30061,0,0,13.3006,13.3006,5,5,13.8344,0.163483,-7.21285,0.176989,-0.402118,0.0598178,3.3075,0,-0.455,0.1403,-0.628422,-0.924516,-0.06762,0.24472,0.35224
-8.40712,0,0,13.4071,13.4071,5,5,14.0119,-0.0532645,-7.21397,-0.111279,-0.111868,0.114772,3.3075,0,-0.455,-0.152988,-0.341478,-0.86925,-0.06762,0.24472,0.35224
-8.51203,0,0,13.512,13.512,5,5,14.1867,-0.263231,-7.21645,-0.107615,-0.10891,0.114018,3.92,0.0875,-0.7875,-0.152988,-0.341478,-0.86925,-0.06762,0.24472,0.35224
-8.64999,0,0,13.65,13.65,5,5,14.4166,-0.131182,-7.4436,0.122726,-0.240703,-0.0330281,3.92,0.0875,-0.7875,0.080642,-0.47702,-1.01419,-0.06762,0.24472,0.35224
-8.78503,0,0,13.785,13.785,5,5,14.6417,-0.00215419,-7.66798,0.120474,-0.236899,-0.034011,3.6925,-0.1225,-0.945,0.080642,-0.47702,-1.01419,-0.06762,0.24472,0.35224
-8.86952,0,0,13.8695,13.8695,5,5,14.7825,0.0406095,-7.83675,0.050845,-0.182252,-0.128814,3.955,-0.1575,-0.91,0.011468,-0.424804,-1.10764,-0.06762,0.24472,0.35224
-8.95201,0,0,13.952,13.952,5,5,14.92,0.0821808,-8.00368,0.0501195,-0.179933,-0.12943,3.6575,-0.455,-0.805,0.011468,-0.424804,-1.10764,-0.06762,0.24472,0.35224
-9.16843,0,0,14.1684,14.1684,5,5,15.2807,0.108249,-8.14981,0.0529446,-0.246154,0.190563,3.6575,-0.455,-0.805,0.014762,-0.497028,-0.788486,-0.06762,0.24472,0.35224
-9.32885,0,0,14.3288,14.3288,5,5,15.5481,0.209124,-8.35172,0.101844,-0.25277,0.0266568,3.3775,0.4375,-0.875,0.065636,-0.50813,-0.949892,-0.06706,0.25004,0.36582
-9.48567,0,0,14.4857,14.4857,5,5,15.8095,0.30816,-8.55008,0.100115,-0.24838,0.0254165,2.905,0.4725,-0.4725,0.065636,-0.50813,-0.949892,-0.06706,0.25004,0.36582
-9.54013,0,0,14.5401,14.5401,5,5,15.9002,0.31895,-8.69685,0.0195032,-0.114838,-0.0817365,2.905,0.4725,-0.4725,-0.015128,-0.376248,-1.05579,-0.06706,0.25004,0.36582
-9.72718,0,0,14.7272,14.7272,5,5,16.212,0.205668,-8.75193,-0.0336741,-0.204865,0.170041,3.115,0.2275,-0.2625,-0.070516,-0.471408,-0.804468,-0.06706,0.25004,0.36582
-9.91036,0,0,14.9104,14.9104,5,5,16.5173,0.0964721,-8.80725,-0.0317683,-0.199751,0.168545,2.9925,0.07,-0.1925,-0.070516,-0.471408,-0.804468,-0.06706,0.25004,0.36582
-10.0186,0,0,15.0186,15.0186,5,5,16.6976,0.0926375,-8.93327,0.0221168,-0.235449,-0.131857,2.9925,0.07,-0.1925,-0.01647,-0.510082,-1.10166,-0.06706,0.25004,0.36582
-10.126,0,0,15.126,15.126,5,5,16.8767,0.0893275,-9.05737,0.0221745,-0.232457,-0.13276,4.2525,0.0175,0.1925,-0.01647,-0.510082,-1.10166,-0.06706,0.25004,0.36582
-10.2109,0,0,15.2109,15.2109,5,5,17.0181,0.131306,-9.2099,0.0425804,-0.11664,0.0377864,4.2525,0.0175,0.1925,0.004758,-0.396744,-0.931714,-0.06706,0.25004,0.36582
-10.2715,0,0,15.2715,15.2715,5,5,17.1192,-0.379306,-9.00494,-0.274454,-0.00907574,0.167944,4.725,-0.0175,0.49,-0.322568,-0.29097,-0.802028,-0.06706,0.25004,0.36582
-10.3293,0,0,15.3293,15.3293,5,5,17.2155,-0.876969,-8.80189,-0.265769,-0.00749758,0.167357,3.7975,-0.28,0.9975,-0.322568,-0.29097,-0.802028,-0.06706,0.25004,0.36582
-9.80084,0,0,14.8008,14.8008,5,5,16.3347,-1.16831,-8.69147,-0.182448,0.69098,0.428423,3.7975,-0.28,0.9975,-0.244,0.42151,-0.547292,-0.0679,0.25466,0.37646
-9.68901,0,0,14.689,14.689,5,5,16.1483,-0.505592,-9.22832,0.655779,0.0745842,-0.534913,4.2525,0.7,0.9275,0.60939,-0.191174,-1.50426,-0.0679,0.25466,0.37646
-9.57859,0,0,14.5786,14.5786,5,5,15.9643,0.140295,-9.76431,0.644507,0.0715076,-0.53399,4.2525,0.7,0.9275,0.60939,-0.191174,-1.50426,-0.0679,0.25466,0.37646
-9.57733,0,0,14.5773,14.5773,5,5,15.9622,0.141211,-9.7621,-0.318041,-0.594363,0.245636,2.415,0.84,0.6125,-0.357216,-0.856318,-0.730658,-0.0679,0.25466,0.37646
-9.57693,0,0,14.5769,14.5769,5,5,15.9616,0.140756,-9.75987,0.488389,-0.562621,-0.236811,3.22,0.07,0.84,0.45262,-0.824598,-1.20939,-0.0679,0.25466,0.37646
-9.57719,0,0,14.5772,14.5772,5,5,15.962,0.140219,-9.75845,0.488399,-0.562614,-0.236813,3.8325,-0.105,0.4025,0.45262,-0.824598,-1.20939,-0.0679,0.25466,0.37646
-9.55993,0,0,14.5599,14.5599,5,5,15.9332,-0.75474,-9.28549,-0.603324,0.101372,0.131721,3.8325,-0.105,0.4025,-0.65941,-0.160796,-0.843752,-0.0679,0.25466,0.37646
-9.54278,0,0,14.5428,14.5428,5,5,15.9046,-1.6303,-8.8136,-0.588046,0.100805,0.131552,5.145,0.245,0.0525,-0.65941,-0.160796,-0.843752,-0.0679,0.25466,0.37646
-9.88623,0,0,14.8862,14.8862,5,5,16.477,-1.11292,-9.2259,0.505531,-0.643431,0.184056,5.145,0.245,0.0525,0.447862,-0.913902,-0.789096,-0.0679,0.25466,0.37646
-10.0287,0,0,15.0287,15.0287,5,5,16.7145,-1.21058,-9.27032,-0.0367778,-0.187358,0.0697271,5.3725,-0.525,0.4725,-0.098454,-0.462258,-0.901336,-0.0679,0.25466,0.37646
-10.1681,0,0,15.1681,15.1681,5,5,16.9468,-1.30652,-9.32217,-0.0351037,-0.183488,0.0685181,5.11,-0.98,0.035,-0.098454,-0.462258,-0.901336,-0.06818,0.25774,0.37408
-10.3542,0,0,15.3542,15.3542,5,5,17.2569,-0.999829,-9.62024,0.317684,-0.479937,-0.201736,4.165,-0.5425,-0.49,0.261202,-0.763598,-1.16803,-0.06818,0.25774,0.37408
-10.5344,0,0,15.5344,15.5344,5,5,17.5573,-0.698317,-9.91259,0.312423,-0.474912,-0.203229,1.8725,0.5425,-0.9625,0.261202,-0.763598,-1.16803,-0.06818,0.25774,0.37408
-10.5704,0,0,15.5704,15.5704,5,5,17.6174,-1.0207,-9.8248,-0.200574,-0.0383112,0.0158361,1.8725,0.5425,-0.9625,-0.259616,-0.328424,-0.950258,-0.06818,0.25774,0.37408
-10.6051,0,0,15.6051,15.6051,5,5,17.6752,-1.3349,-9.739,-0.195091,-0.0373843,0.0154229,1.54,-0.0175,-1.3475,-0.259616,-0.328424,-0.950258,-0.06818,0.25774,0.37408
-10.7036,0,0,15.7036,15.7036,5,5,17.8393,-0.673143,-10.2472,0.503323,-0.204107,0.0326926,1.54,-0.0175,-1.3475,0.453352,-0.49776,-0.932446,-0.06818,0.25774,0.37408
-10.8012,0,0,15.8012,15.8012,5,5,18.002,-0.0272623,-10.7483,0.492051,-0.201384,0.0318845,2.625,0.105,-2.3975,0.453352,-0.49776,-0.932446,-0.06818,0.25774,0.37408
-10.8295,0,0,15.8295,15.8295,5,5,18.0491,-0.368524,-10.6561,-0.206003,-0.0121675,0.0445203,2.625,0.105,-2.3975,-0.253638,-0.309514,-0.919636,-0.06818,0.25774,0.37408
-10.8799,0,0,15.8799,15.8799,5,5,18.1332,-0.179583,-10.8877,0.143008,-0.123734,-0.0804674,3.2375,0.14,-2.695,0.100162,-0.422364,-1.04322,-0.06818,0.25774,0.37408
-10.9309,0,0,15.9309,15.9309,5,5,18.2182,0.00299703,-11.1256,0.139822,-0.122323,-0.0809256,4.4625,0.49,-1.9775,0.100162,-0.422364,-1.04322,-0.0651,0.26306,0.37716
-11.0141,0,0,16.0141,16.0141,5,5,18.3569,-0.273628,-11.0758,-0.137805,-0.0406468,0.163095,5.1625,0.1575,-1.505,-0.183488,-0.343064,-0.80032,-0.0651,0.26306,0.37716
-11.0953,0,0,16.0953,16.0953,5,5,18.4922,-0.542213,-11.0272,-0.133117,-0.0384166,0.162317,5.145,0.14,-1.47,-0.183488,-0.343064,-0.80032,-0.0651,0.26306,0.37716
-11.1086,0,0,16.1086,16.1086,5,5,18.5144,-0.15677,-11.3814,0.265797,-0.0556227,-0.0403864,5.145,0.14,-1.47,0.22387,-0.360632,-1.00138,-0.0651,0.26306,0.37716
-11.1192,0,0,16.1192,16.1192,5,5,18.532,0.217255,-11.7323,0.259269,-0.0553321,-0.0404874,2.835,-0.455,-1.5575,0.22387,-0.360632,-1.00138,-0.0651,0.26306,0.37716
-11.222,0,0,16.222,16.222,5,5,18.7033,-0.10163,-11.6518,-0.19426,-0.152152,-0.00578171,2.835,-0.455,-1.5575,-0.237168,-0.460184,-0.965996,-0.0651,0.26306,0.37716
-11.3209,0,0,16.3209,16.3209,5,5,18.8682,-0.411791,-11.5725,-0.188847,-0.149435,-0.00673143,1.5225,-0.665,-0.9975,-0.237168,-0.460184,-0.965996,-0.0651,0.26306,0.37716
-11.4295,0,0,16.4295,16.4295,5,5,19.0492,-0.296571,-11.7484,0.100829,-0.18467,0.00700813,1.5225,-0.665,-0.9975,0.055754,-0.49837,-0.951356,-0.0651,0.26306,0.37716
-11.4538,0,0,16.4538,16.4538,5,5,19.0897,-0.187132,-11.9279,0.0752295,-0.0500267,-0.010059,2.2925,0.28,-0.7875,0.031964,-0.364536,-0.96807,-0.0651,0.26306,0.37716
-11.4772,0,0,16.4772,16.4772,5,5,19.1287,-0.0808148,-12.1058,0.0733739,-0.0493813,-0.010278,1.89,0.0875,-0.98,0.031964,-0.364536,-0.96807,-0.0651,0.26306,0.37716
-11.6746,0,0,16.6746,16.6746,5,5,19.4576,0.121375,-12.3156,0.171772,-0.280279,0.127863,1.89,0.0875,-0.98,0.134322,-0.600606,-0.829112,-0.0651,0.26306,0.37716
-11.8687,0,0,16.8687,16.8687,5,5,19.7812,0.319383,-12.5177,0.168316,-0.274964,0.125954,2.3975,-0.1225,-0.385,0.134322,-0.600606,-0.829112,-0.06552,0.2632,0.38486
-12.0884,0,0,17.0884,17.0884,5,5,20.1473,0.276259,-12.5723,0.0172112,-0.25711,0.176644,4.0075,-0.77,0.315,-0.018178,-0.588772,-0.776652,-0.06552,0.2632,0.38486
-12.3038,0,0,17.3038,17.3038,5,5,20.5063,0.235915,-12.6268,0.0179153,-0.251234,0.17447,4.0075,-0.77,0.315,-0.018178,-0.588772,-0.776652,-0.06552,0.2632,0.38486
-12.2676,0,0,17.2676,17.2676,5,5,20.4459,0.166023,-12.6974,-0.0550926,0.0322138,-0.0993326,6.055,0.2275,0.28,-0.09272,-0.304634,-1.04871,-0.06552,0.2632,0.38486
-12.371,0,0,17.371,17.371,5,5,20.6184,0.313669,-12.874,0.104635,-0.110058,0.119065,5.9325,0.595,0.315,0.070272,-0.44957,-0.830942,-0.06552,0.2632,0.38486
-12.4715,0,0,17.4715,17.4715,5,5,20.7858,0.456425,-13.0479,0.102144,-0.10733,0.118016,4.935,-0.1575,0.6125,0.070272,-0.44957,-0.830942,-0.06552,0.2632,0.38486
-12.3973,0,0,17.3973,17.3973,5,5,20.6622,0.449462,-13.1599,-0.0203137,0.0724987,-0.153673,4.935,-0.1575,0.6125,-0.052826,-0.267912,-1.10129,-0.06552,0.2632,0.38486
-12.3224,0,0,17.3224,17.3224,5,5,20.5373,0.440974,-13.2709,-0.0201655,0.0704583,-0.152905,2.8175,-0.84,0.91,-0.052826,-0.267912,-1.10129,-0.06552,0.2632,0.38486
-12.327,0,0,17.327,17.327,5,5,20.545,0.341587,-13.3168,-0.0693334,-0.0669267,-0.172859,2.8175,-0.84,0.91,-0.103944,-0.405284,-1.12106,-0.06552,0.2632,0.38486
-12.3247,0,0,17.3247,17.3247,5,5,20.5412,0.341184,-13.3154,-0.0693264,-0.0669885,-0.172836,1.47,0.035,0.3675,-0.103944,-0.405284,-1.12106,-0.06552,0.2632,0.38486
-12.4273,0,0,17.4273,17.4273,5,5,20.7122,0.390142,-13.4221,0.0539775,-0.16605,0.0187679,1.47,0.035,0.3675,0.02074,-0.507032,-0.929884,-0.0686,0.2597,0.3801
-12.5731,0,0,17.5731,17.5731,5,5,20.9551,0.676108,-13.6537,0.259643,-0.337113,-0.0709371,1.26,0.315,0.245,0.232288,-0.681858,-1.01736,-0.0686,0.2597,0.3801
-12.7162,0,0,17.7162,17.7162,5,5,21.1937,0.954981,-13.8806,0.254776,-0.333252,-0.0724992,1.26,0.315,0.245,0.232288,-0.681858,-1.01736,-0.0686,0.2597,0.3801
-12.8115,0,0,17.8115,17.8115,5,5,21.3525,0.550158,-13.7271,-0.166396,0.0409956,0.319402,3.3425,-0.0875,0.28,-0.197762,-0.310612,-0.627568,-0.0686,0.2597,0.3801
-12.8125,0,0,17.8125,17.8125,5,5,21.3542,0.550764,-13.7262,0.190883,-0.265027,0.0255448,4.5325,0.49,-0.1225,0.16104,-0.616344,-0.919148,-0.0686,0.2597,0.3801
-12.8141,0,0,17.8141,17.8141,5,5,21.3568,0.551824,-13.7255,0.190864,-0.264985,0.0255282,5.04,0.7,-0.315,0.16104,-0.616344,-0.919148,-0.0686,0.2597,0.3801
-12.8972,0,0,17.8972,17.8972,5,5,21.4953,0.673997,-13.872,0.0906931,-0.113137,0.0551149,5.04,0.7,-0.315,0.062586,-0.466894,-0.888892,-0.0686,0.2597,0.3801
-12.964,0,0,17.964,17.964,5,5,21.6067,0.595431,-13.9088,-0.0382899,-0.127689,-0.0582056,5.145,-0.07,-0.56,-0.06832,-0.483242,-1.00064,-0.0686,0.2597,0.3801
-13.0283,0,0,18.0283,18.0283,5,5,21.7138,0.519647,-13.9462,-0.0369673,-0.125946,-0.0588842,4.1825,-0.1925,-1.0325,-0.06832,-0.483242,-1.00064,-0.0686,0.2597,0.3801
-13.0124,0,0,18.0124,18.0124,5,5,21.6874,0.724753,-14.1517,0.139616,-0.0323518,-0.109896,4.1825,-0.1925,-1.0325,0.112606,-0.389302,-1.0514,-0.06986,0.25942,0.38346
-13.012,0,0,18.012,18.012,5,5,21.6867,0.724803,-14.1527,-0.20346,0.105518,-0.164481,3.22,-0.2275,-1.05,-0.231922,-0.251564,-1.10556,-0.06986,0.25942,0.38346
-13.0106,0,0,18.0106,18.0106,5,5,21.6844,0.726446,-14.1536,-0.203489,0.105481,-0.164466,2.31,0.665,-1.33,-0.231922,-0.251564,-1.10556,-0.06986,0.25942,0.38346
-13.0092,0,0,18.0092,18.0092,5,5,21.6821,0.728089,-14.1545,0.0236609,-0.231627,0.29722,2.31,0.665,-1.33,-0.003782,-0.588284,-0.647454,-0.06986,0.25942,0.38346
-13.0077,0,0,18.0077,18.0077,5,5,21.6795,0.72941,-14.1557,0.0236378,-0.231668,0.297236,2.1875,0.42,-1.435,-0.003782,-0.588284,-0.647454,-0.06986,0.25942,0.38346
-13.0062,0,0,18.0062,18.0062,5,5,21.677,0.730731,-14.157,0.0064853,-0.132786,-0.341711,2.1875,0.42,-1.435,-0.020984,-0.489464,-1.28149,-0.06986,0.25942,0.38346
-13.0059,0,0,18.0059,18.0059,5,5,21.6765,0.730037,-14.1584,-0.00467928,0.0422125,0.293567,3.29,-0.7175,-1.1025,-0.032208,-0.314638,-0.651114,-0.06986,0.25942,0.38346
-13.0057,0,0,18.0057,18.0057,5,5,21.6762,0.731653,-14.1593,-0.00470747,0.0422084,0.293568,3.465,0.6475,-1.33,-0.032208,-0.314638,-0.651114,-0.06986,0.25942,0.38346
-13.2291,0,0,18.2291,18.2291,5,5,22.0484,0.728054,-14.1994,0.0353241,-0.22264,0.233979,3.465,0.6475,-1.33,0.00793,-0.585234,-0.707844,-0.06986,0.25942,0.38346
-13.4484,0,0,18.4484,18.4484,5,5,22.414,0.723831,-14.239,0.0353978,-0.216734,0.231567,3.7625,-0.525,-0.6825,0.00793,-0.585234,-0.707844,-0.06986,0.25942,0.38346
-13.3329,0,0,18.3329,18.3329,5,5,22.2216,1.145,-14.5768,0.262758,0.116451,-0.110173,3.7625,-0.525,-0.6825,0.243634,-0.249246,-1.0481,-0.06986,0.25942,0.38346
-13.2204,0,0,18.2204,18.2204,5,5,22.0341,1.55158,-14.9228,0.255664,0.113358,-0.109095,4.235,-1.1725,-0.6825,0.243634,-0.249246,-1.0481,-0.06552,0.26446,0.3934
-13.1804,0,0,18.1804,18.1804,5,5,21.9673,2.05315,-15.3097,0.329646,0.0130079,-0.025432,3.92,-0.49,-0.525,0.326716,-0.34831,-0.965264,-0.06552,0.26446,0.3934
-13.1412,0,0,18.1412,18.1412,5,5,21.902,2.54068,-15.693,0.321144,0.0118235,-0.0253227,3.92,-0.49,-0.525,0.326716,-0.34831,-0.965264,-0.06552,0.26446,0.3934
-13.149,0,0,18.149,18.149,5,5,21.9149,2.50747,-15.7821,-0.0146707,-0.0651416,-0.137143,3.955,-0.525,-0.35,-0.011102,-0.425414,-1.07616,-0.06552,0.26446,0.3934
-13.1558,0,0,18.1558,18.1558,5,5,21.9264,2.47474,-15.8696,-0.0140999,-0.0649473,-0.137195,3.2725,-0.6475,0.1575,-0.011102,-0.425414,-1.07616,-0.06552,0.26446,0.3934
-13.2878,0,0,18.2878,18.2878,5,5,22.1464,1.99485,-15.6709,-0.263402,-0.111462,0.119122,3.2725,-0.6475,0.1575,-0.269864,-0.475556,-0.820694,-0.06552,0.26446,0.3934
-13.4168,0,0,18.4168,18.4168,5,5,22.3613,1.52918,-15.4762,-0.255278,-0.107897,0.117933,3.885,-0.2975,0.175,-0.269864,-0.475556,-0.820694,-0.06552,0.26446,0.3934
-13.67,0,0,18.67,18.67,5,5,22.7834,1.2772,-15.3672,-0.12235,-0.441423,0.0304948,4.235,-0.035,0.1575,-0.140788,-0.81557,-0.904752,-0.06552,0.26446,0.3934
-13.9176,0,0,18.9176,18.9176,5,5,23.196,1.0339,-15.2617,-0.118104,-0.434761,0.0277613,4.0775,0.07,0.5075,-0.140788,-0.81557,-0.904752,-0.06552,0.26446,0.3934
-13.9182,0,0,18.9182,18.9182,5,5,23.1969,1.03339,-15.2601,0.358493,0.135464,-0.13761,4.0775,0.07,0.5075,0.337818,-0.245952,-1.06884,-0.06552,0.26446,0.3934
-13.9193,0,0,18.9193,18.9193,5,5,23.1988,1.03993,-15.256,0.358379,0.135493,-0.137625,4.6025,4.4275,0.1925,0.337818,-0.245952,-1.06884,-0.06552,0.26446,0.3934
-13.9969,0,0,18.9969,18.9969,5,5,23.3282,1.39198,-15.5057,0.243871,-0.142887,0.0374254,4.6025,4.4275,0.1925,0.228994,-0.526064,-0.894138,-0.06552,0.26446,0.3934
-14.0722,0,0,19.0722,19.0722,5,5,23.4537,1.72793,-15.7534,0.238009,-0.140942,0.0364099,3.5,0.315,0.3675,0.228994,-0.526064,-0.894138,-0.06552,0.26446,0.3934
-14.1567,0,0,19.1567,19.1567,5,5,23.5946,1.96575,-15.9517,0.218675,-0.259525,-0.147026,3.5175,0.0525,0.35,0.213744,-0.646722,-1.07506,-0.06454,0.26488,0.3857
-14.2394,0,0,19.2394,19.2394,5,5,23.7323,2.19651,-16.1471,0.21465,-0.257383,-0.148124,3.0625,-0.525,0.2625,0.213744,-0.646722,-1.07506,-0.06454,0.26488,0.3857
-14.07,0,0,19.07,19.07,5,5,23.45,2.2144,-16.2886,-0.0264465,0.233691,-0.0540768,3.0625,-0.525,0.2625,-0.02806,-0.151646,-0.983686,-0.06454,0.26488,0.3857
-13.9034,0,0,18.9034,18.9034,5,5,23.1723,2.23113,-16.4294,-0.0267383,0.229239,-0.0521709,2.555,-0.3325,0.14,-0.02806,-0.151646,-0.983686,-0.06454,0.26488,0.3857
-14.1294,0,0,19.1294,19.1294,5,5,23.549,2.1117,-16.3973,-0.0216182,-0.463996,-0.0459741,2.555,-0.3325,0.14,-0.02501,-0.850218,-0.975024,-0.06454,0.26488,0.3857
-14.3508,0,0,19.3508,19.3508,5,5,23.9181,1.99669,-16.3674,-0.0196122,-0.458075,-0.0484989,2.6775,-0.7875,0.035,-0.02501,-0.850218,-0.975024,-0.06454,0.26488,0.3857
-14.3123,0,0,19.3123,19.3123,5,5,23.8538,1.67615,-16.2894,-0.209613,0.0745438,-0.0352172,3.0975,-0.035,0.0875,-0.22143,-0.3172,-0.962458,-0.06454,0.26488,0.3857
-14.274,0,0,19.274,19.274,5,5,23.79,1.36475,-16.212,-0.20418,0.0735844,-0.0346359,3.1675,0.21,-0.455,-0.22143,-0.3172,-0.962458,-0.06454,0.26488,0.3857
-14.5158,0,0,19.5158,19.5158,5,5,24.1929,0.793085,-15.9219,-0.152656,0.0984033,0.573608,3.1675,0.21,-0.455,-0.179706,-0.2989,-0.35624,-0.06454,0.26488,0.3857
-14.7528,0,0,19.7528,19.7528,5,5,24.5881,0.238122,-15.6405,-0.14297,0.10472,0.57084,4.515,0.2975,-0.4725,-0.179706,-0.2989,-0.35624,-0.06454,0.26488,0.3857
-14.7538,0,0,19.7538,19.7538,5,5,24.5897,0.238628,-15.6402,0.204348,-0.380342,-0.211862,4.515,0.2975,-0.4725,0.169092,-0.783484,-1.13289,-0.06454,0.26488,0.3857
-14.7556,0,0,19.7556,19.7556,5,5,24.5927,0.238715,-15.6405,0.204347,-0.380294,-0.211884,5.285,-0.0525,-0.6475,0.169092,-0.783484,-1.13289,-0.06454,0.26488,0.3857
-14.6191,0,0,19.6191,19.6191,5,5,24.3651,0.178233,-15.6933,-0.0675758,0.181783,-0.128351,5.25,0.56,-0.6125,-0.105042,-0.21838,-1.05164,-0.06678,0.26446,0.39592
-14.4852,0,0,19.4852,19.4852,5,5,24.142,0.118329,-15.7461,-0.0665302,0.178234,-0.126749,5.355,0.2275,-0.875,-0.105042,-0.21838,-1.05164,-0.06678,0.26446,0.39592
-14.3446,0,0,19.3446,19.3446,5,5,23.9077,0.0959041,-15.82,-0.0400194,0.203322,-0.0435686,5.355,0.2275,-0.875,-0.078812,-0.189588,-0.970754,-0.06678,0.26446,0.39592
-14.2013,0,0,19.2013,19.2013,5,5,23.6689,0.0721255,-15.8936,-0.0396044,0.199507,-0.0418866,0.245,-0.49,-0.735,-0.078812,-0.189588,-0.970754,-0.06678,0.26446,0.39592
-14.1361,0,0,19.1361,19.1361,5,5,23.5602,-0.327563,-15.7454,-0.245107,0.14012,0.0328736,0.245,-0.49,-0.735,-0.29219,-0.247172,-0.89731,-0.06678,0.26446,0.39592
-14.0754,0,0,19.0754,19.0754,5,5,23.459,-0.717061,-15.5977,-0.238309,0.138476,0.0335214,3.8675,-0.5775,-1.1375,-0.29219,-0.247172,-0.89731,-0.06678,0.26446,0.39592
-14.1639,0,0,19.1639,19.1639,5,5,23.6065,-0.423575,-15.7893,0.240203,-0.250316,-0.103441,3.2025,-0.035,-1.1375,0.193492,-0.637938,-1.03224,-0.06678,0.26446,0.39592
-14.2505,0,0,19.2505,19.2505,5,5,23.7509,-0.138634,-15.9774,0.23523,-0.247999,-0.10443,2.7825,-0.42,-1.015,0.193492,-0.637938,-1.03224,-0.06678,0.26446,0.39592
-14.3688,0,0,19.3688,19.3688,5,5,23.9479,-0.738192,-15.6796,-0.337073,-0.0719545,0.138651,2.7825,-0.42,-1.015,-0.391742,-0.465186,-0.789584,-0.06678,0.26446,0.39592
-14.483,0,0,19.483,19.483,5,5,24.1383,-1.32045,-15.3859,-0.326912,-0.0689957,0.137131,2.4675,0.3675,-0.8225,-0.391742,-0.465186,-0.789584,-0.06678,0.26446,0.39592
-14.3814,0,0,19.3814,19.3814,5,5,23.969,-0.691239,-15.7808,0.296263,0.174349,0.207976,2.4675,0.3675,-0.8225,0.245098,-0.219478,-0.720654,-0.06678,0.26446,0.39592
-14.2433,0,0,19.2433,19.2433,5,5,23.7388,-0.177271,-16.1296,0.284013,0.172656,0.0122083,3.465,0.245,-0.8225,0.241804,-0.217526,-0.916586,-0.06678,0.26446,0.39592
-14.1087,0,0,19.1087,19.1087,5,5,23.5146,0.318424,-16.471,0.275361,0.169066,0.0137669,3.85,-0.4025,-0.6825,0.241804,-0.217526,-0.916586,-0.0651,0.26012,0.40432
-14.1445,0,0,19.1445,19.1445,5,5,23.5742,0.496581,-16.6075,0.135216,-0.123092,-0.0917903,3.85,-0.4025,-0.6825,0.104188,-0.510326,-1.0209,-0.0651,0.26012,0.40432
-14.1817,0,0,19.1817,19.1817,5,5,23.6361,0.669624,-16.7422,0.132196,-0.122115,-0.0922508,5.5475,-0.5425,-0.63,0.104188,-0.510326,-1.0209,-0.0651,0.26012,0.40432
-14.0992,0,0,19.0992,19.0992,5,5,23.4987,0.384306,-16.6571,-0.176136,0.167711,0.0512469,5.5475,-0.5425,-0.63,-0.21045,-0.218624,-0.879498,-0.0651,0.26012,0.40432
-14.0179,0,0,19.0179,19.0179,5,5,23.3631,0.105517,-16.5714,-0.17127,0.165548,0.0522073,5.425,-0.77,-0.42,-0.21045,-0.218624,-0.879498,-0.0651,0.26012,0.40432
-14.2445,0,0,19.2445,19.2445,5,5,23.7408,0.231366,-16.6295,0.0911291,-0.124569,0.361119,5.53,-1.1025,-0.42,0.055266,-0.514474,-0.57035,-0.0651,0.26012,0.40432
-14.4664,0,0,19.4664,19.4664,5,5,24.1106,0.355747,-16.686,0.0889583,-0.118675,0.358491,4.9,-0.805,-0.6125,0.055266,-0.514474,-0.57035,-0.0651,0.26012,0.40432
-14.4678,0,0,19.4678,19.4678,5,5,24.1129,0.354635,-16.6867,0.0938371,0.250307,-0.266964,4.9,-0.805,-0.6125,0.060146,-0.145912,-1.19096,-0.0651,0.26012,0.40432
-14.4685,0,0,19.4685,19.4685,5,5,24.1142,0.353846,-16.6878,0.0938509,0.250327,-0.266973,4.305,-0.7,-0.84,0.060146,-0.145912,-1.19096,-0.0651,0.26012,0.40432
-14.4693,0,0,19.4693,19.4693,5,5,24.1154,0.353056,-16.6888,-0.43472,0.13677,0.477348,4.305,-0.7,-0.84,-0.470676,-0.259372,-0.452376,-0.0651,0.26012,0.40432
-14.4698,0,0,19.4698,19.4698,5,5,24.1164,0.352812,-16.6902,-0.434715,0.136785,0.477341,4.13,-0.5075,-1.19,-0.470676,-0.259372,-0.452376,-0.0651,0.26012,0.40432
-14.4699,0,0,19.4699,19.4699,5,5,24.1164,0.352741,-16.691,0.238074,-0.187705,-0.231088,3.6225,-0.2625,-0.8925,0.20496,-0.583526,-1.15534,-0.0651,0.26012,0.40432
-14.4701,0,0,19.4701,19.4701,5,5,24.1169,0.352338,-16.6921,0.238081,-0.187698,-0.231091,3.85,-0.5075,-0.9625,0.20496,-0.583526,-1.15534,-0.06972,0.2674,0.4053
-14.4581,0,0,19.4581,19.4581,5,5,24.0968,0.28915,-16.7142,-0.0438781,-0.00909952,-0.0818061,3.85,-0.5075,-0.9625,-0.0793,-0.404796,-1.00735,-0.06972,0.2674,0.4053
-14.4465,0,0,19.4465,19.4465,5,5,24.0776,0.228239,-16.7354,-0.0428151,-0.00940416,-0.0816647,4.165,-0.07,-0.805,-0.0793,-0.404796,-1.00735,-0.06972,0.2674,0.4053
-14.535,0,0,19.535,19.535,5,5,24.2251,0.39449,-16.8524,0.127522,-0.158499,0.0173477,4.165,-0.07,-0.805,0.094672,-0.556076,-0.908046,-0.06972,0.2674,0.4053
-14.622,0,0,19.622,19.622,5,5,24.37,0.549329,-16.9696,0.12482,-0.156203,0.016287,4.1125,-4.4625,-0.28,0.094672,-0.556076,-0.908046,-0.06972,0.2674,0.4053
-14.6487,0,0,19.6487,19.6487,5,5,24.4145,0.664185,-17.0806,0.0613433,0.0512563,0.20664,4.1125,-4.4625,-0.28,0.03294,-0.34953,-0.718824,-0.06972,0.2674,0.4053
-14.6104,0,0,19.6104,19.6104,5,5,24.3507,1.24137,-17.4417,0.370049,0.00889422,0.0118276,3.85,-0.1575,-0.28,0.353068,-0.390766,-0.912438,-0.06972,0.2674,0.4053
-14.5736,0,0,19.5736,19.5736,5,5,24.2894,1.80188,-17.7989,0.36027,0.00781216,0.0120316,4.27,-0.4375,-0.175,0.353068,-0.390766,-0.912438,-0.06972,0.2674,0.4053
-14.598,0,0,19.598,19.598,5,5,24.33,1.24999,-17.5614,-0.440896,-0.0877943,-0.244005,4.27,-0.4375,-0.175,-0.46116,-0.487024,-1.16644,-0.06972,0.2674,0.4053
-14.6203,0,0,19.6203,19.6203,5,5,24.3672,0.712839,-17.326,-0.431523,-0.0871364,-0.244127,3.9725,-0.2275,-0.4375,-0.46116,-0.487024,-1.16644,-0.06972,0.2674,0.4053
-14.6207,0,0,19.6207,19.6207,5,5,24.3679,0.712504,-17.326,-0.00898974,0.111452,0.248277,3.9725,-0.2275,-0.4375,-0.036844,-0.288652,-0.677832,-0.06972,0.2674,0.4053
-14.567,0,0,19.567,19.567,5,5,24.2783,0.494042,-17.2725,-0.154483,0.0742613,-0.08829,3.7275,0.035,-0.2625,-0.186782,-0.324398,-1.01248,-0.06972,0.2674,0.4053
-14.5147,0,0,19.5147,19.5147,5,5,24.1911,0.2814,-17.2188,-0.150772,0.0728837,-0.0876423,4.3925,0.21,-0.1925,-0.186782,-0.324398,-1.01248,-0.06972,0.2674,0.4053
-14.7726,0,0,19.7726,19.7726,5,5,24.6211,0.329115,-17.227,0.0874793,-0.385099,0.158715,4.3925,0.21,-0.1925,0.053314,-0.78873,-0.76494,-0.06902,0.2681,0.39676
-14.7315,0,0,19.7315,19.7315,5,5,24.5525,-0.0945645,-17.059,-0.254883,0.125163,0.0490654,4.585,0.7525,-0.4025,-0.297924,-0.277916,-0.874252,-0.06902,0.2681,0.39676
-14.6903,0,0,19.6903,19.6903,5,5,24.4838,-0.507521,-16.8913,-0.247676,0.124057,0.0495282,4.585,0.7525,-0.4025,-0.297924,-0.277916,-0.874252,-0.06902,0.2681,0.39676
-14.6689,0,0,19.6689,19.6689,5,5,24.4482,-0.493354,-16.9406,0.00343055,0.0156548,-0.0438992,4.4625,1.155,-0.2275,-0.045506,-0.385642,-0.967216,-0.06902,0.2681,0.39676
-14.6478,0,0,19.6478,19.6478,5,5,24.4131,-0.481178,-16.9901,0.00321804,0.0150973,-0.043644,4.305,0.1925,-0.2625,-0.045506,-0.385642,-0.967216,-0.06902,0.2681,0.39676
-14.7146,0,0,19.7146,19.7146,5,5,24.5243,-0.996051,-16.7402,-0.265391,0.029639,0.17368,4.305,0.1925,-0.2625,-0.324276,-0.372832,-0.750666,-0.06902,0.2681,0.39676
-14.779,0,0,19.779,19.779,5,5,24.6316,-1.49757,-16.4936,-0.25664,0.0312627,0.172728,4.445,-0.1225,-0.28,-0.324276,-0.372832,-0.750666,-0.06902,0.2681,0.39676
-14.6635,0,0,19.6635,19.6635,5,5,24.4392,-1.17928,-16.7116,0.171753,0.147337,-0.00760086,4.445,-0.1225,-0.28,0.111508,-0.253882,-0.931104,-0.06902,0.2681,0.39676
-14.5505,0,0,19.5505,19.5505,5,5,24.2509,-0.871367,-16.9293,0.16638,0.144382,-0.00615839,4.3575,-0.7525,-0.14,0.111508,-0.253882,-0.931104,-0.06902,0.2681,0.39676
-14.5297,0,0,19.5297,19.5297,5,5,24.2162,-1.04011,-16.8789,-0.101103,0.0634498,0.0335122,4.3575,-0.7525,-0.14,-0.160064,-0.334158,-0.891942,-0.06902,0.2681,0.39676
-14.7689,0,0,19.7689,19.7689,5,5,24.6149,-1.51592,-16.6072,-0.301391,-0.36836,0.0766962,4.13,-0.2975,-0.0525,-0.369538,-0.771772,-0.84607,-0.06902,0.2681,0.39676
-15.0033,0,0,20.0033,20.0033,5,5,25.0055,-1.97731,-16.3438,-0.293342,-0.362278,0.0736141,4.8475,-0.2625,-0.5775,-0.369538,-0.771772,-0.84607,-0.06902,0.2681,0.39676
-15.0047,0,0,20.0047,20.0047,5,5,25.0078,-1.9776,-16.3441,0.0719703,0.12199,-0.298199,4.8475,-0.2625,-0.5775,-0.002684,-0.288042,-1.215,-0.0721,0.26264,0.38318
-15.2164,0,0,20.2164,20.2164,5,5,25.3606,-1.37285,-16.6287,0.381656,-0.218904,0.332154,4.935,-0.0525,-0.7175,0.318908,-0.634278,-0.587186,-0.0721,0.26264,0.38318
-15.4251,0,0,20.4251,20.4251,5,5,25.7085,-0.782953,-16.9036,0.371362,-0.213343,0.329712,4.935,-0.0525,-0.7175,0.318908,-0.634278,-0.587186,-0.0721,0.26264,0.38318
-15.5474,0,0,20.5474,20.5474,5,5,25.9123,-1.16755,-16.7029,-0.235672,-0.165858,0.0168777,4.7425,0.56,-0.8575,-0.297436,-0.589992,-0.895968,-0.0721,0.26264,0.38318
-15.6659,0,0,20.6659,20.6659,5,5,26.1099,-1.54109,-16.5068,-0.229154,-0.162827,0.0152274,4.305,0.2275,-1.1725,-0.297436,-0.589992,-0.895968,-0.0721,0.26264,0.38318
-15.9035,0,0,20.9035,20.9035,5,5,26.5059,-1.29097,-16.5991,0.176375,-0.227176,0.301191,4.305,0.2275,-1.1725,0.114192,-0.660508,-0.609268,-0.0721,0.26264,0.38318
-16.1374,0,0,21.1374,21.1374,5,5,26.8956,-1.04717,-16.6888,0.17212,-0.221061,0.298213,4.48,-0.3675,-1.47,0.114192,-0.660508,-0.609268,-0.0721,0.26264,0.38318
-15.8527,0,0,20.8527,20.8527,5,5,26.4211,-0.828772,-16.8731,0.0871566,0.394047,-0.129074,4.48,-0.3675,-1.47,0.032696,-0.038674,-1.037,-0.0721,0.26264,0.38318
-15.5724,0,0,20.5724,20.5724,5,5,25.9541,-0.616472,-17.0587,0.0834516,0.386753,-0.125435,3.7625,0.0175,-1.26,0.032696,-0.038674,-1.037,-0.0721,0.26264,0.38318
-15.5873,0,0,20.5873,20.5873,5,5,25.9788,-0.609509,-17.0827,0.00679408,-0.0207607,0.0042108,4.865,-0.6125,-1.19,-0.044164,-0.446154,-0.908168,-0.0721,0.26264,0.38318
-15.6018,0,0,20.6018,20.6018,5,5,26.0029,-0.60278,-17.1061,0.00667663,-0.020382,0.00402757,4.76,-0.595,-0.9975,-0.044164,-0.446154,-0.908168,-0.0721,0.26264,0.38318
-15.5137,0,0,20.5137,20.5137,5,5,25.8562,-0.640673,-17.1294,-0.0559561,0.0139499,-0.389647,4.76,-0.595,-0.9975,-0.107726,-0.409554,-1.29991,-0.0721,0.26264,0.38318
-15.5149,0,0,20.5149,20.5149,5,5,25.8582,-0.64082,-17.1308,0.0736717,0.276186,0.0608218,4.6725,-0.4725,-1.19,0.022448,-0.14762,-0.852902,-0.0721,0.26264,0.38318
-15.5159,0,0,20.5159,20.5159,5,5,25.8599,-0.641833,-17.132,0.0736894,0.276213,0.0608085,4.55,-0.875,-0.8575,0.022448,-0.14762,-0.852902,-0.06776,0.26306,0.38836
-15.517,0,0,20.517,20.517,5,5,25.8616,-0.642847,-17.1332,-0.168171,0.0373602,0.120056,4.55,-0.875,-0.8575,-0.220454,-0.386252,-0.794098,-0.06776,0.26306,0.38836
-15.5181,0,0,20.5181,20.5181,5,5,25.8635,-0.643866,-17.1338,-0.168153,0.0373899,0.120042,4.655,-0.7,-0.49,-0.220454,-0.386252,-0.794098,-0.06776,0.26306,0.38836
-15.5192,0,0,20.5192,20.5192,5,5,25.8654,-0.644885,-17.1343,0.234225,0.000415202,-0.203942,4.655,-0.7,-0.49,0.18361,-0.423218,-1.11557,-0.06776,0.26306,0.38836
-15.5201,0,0,20.5201,20.5201,5,5,25.8668,-0.645001,-17.1341,0.234227,0.000437498,-0.203953,4.3925,-0.0525,-0.3675,0.18361,-0.423218,-1.11557,-0.06776,0.26306,0.38836
-15.5209,0,0,20.5209,20.5209,5,5,25.8682,-0.645117,-17.1339,-0.181616,-0.246603,0.0548428,4.3925,-0.0525,-0.3675,-0.233996,-0.670024,-0.858758,-0.06776,0.26306,0.38836
-15.5226,0,0,20.5226,20.5226,5,5,25.871,-0.645282,-17.1333,-0.181613,-0.246559,0.0548216,5.1625,0.0525,-0.0875,-0.233996,-0.670024,-0.858758,-0.06776,0.26306,0.38836
-15.5243,0,0,20.5243,20.5243,5,5,25.8738,-0.645446,-17.1326,0.20933,0.196072,-0.230194,5.1625,0.0525,-0.0875,0.1586,-0.227896,-1.14155,-0.06776,0.26306,0.38836
-15.5267,0,0,20.5267,20.5267,5,5,25.8778,-0.646353,-17.1313,0.209346,0.196134,-0.230225,5.8275,-0.175,0.4375,0.1586,-0.227896,-1.14155,-0.06776,0.26306,0.38836
-15.54,0,0,20.54,20.54,5,5,25.9001,-0.666352,-17.1408,-0.00897891,0.00327857,0.0383671,5.8275,-0.175,0.4375,-0.061,-0.4209,-0.874862,-0.06776,0.26306,0.38836
-15.5531,0,0,20.5531,20.5531,5,5,25.9218,-0.685717,-17.1496,-0.00864096,0.00361814,0.0381977,5.7925,-0.035,0.735,-0.061,-0.4209,-0.874862,-0.06776,0.26306,0.38836
-15.4704,0,0,20.4704,20.4704,5,5,25.7841,-0.478251,-17.2954,0.127447,0.0534966,-0.164692,5.7925,-0.035,0.735,0.0793,-0.368928,-1.07726,-0.06776,0.26306,0.38836
-15.4718,0,0,20.4718,20.4718,5,5,25.7863,-0.479719,-17.2932,0.127472,0.0535323,-0.16471,4.8825,-0.245,1.05,0.0793,-0.368928,-1.07726,-0.0693,0.26152,0.37842
-15.4732,0,0,20.4732,20.4732,5,5,25.7886,-0.481188,-17.291,-0.320055,0.0771385,-0.167186,4.8825,-0.245,1.05,-0.370148,-0.345382,-1.0797,-0.0693,0.26152,0.37842
-15.4736,0,0,20.4736,20.4736,5,5,25.7893,-0.482445,-17.2889,-0.320033,0.0771497,-0.167192,4.0075,-0.175,0.91,-0.370148,-0.345382,-1.0797,-0.0693,0.26152,0.37842
-15.4952,0,0,20.4952,20.4952,5,5,25.8253,-0.433921,-17.3309,0.0322788,0.0037087,0.0834789,4.0075,-0.175,0.91,-0.015494,-0.419314,-0.830698,-0.0693,0.26152,0.37842
-15.5165,0,0,20.5165,20.5165,5,5,25.8608,-0.385946,-17.3726,0.0314415,0.00426987,0.0832137,4.1125,0.1575,0.63,-0.015494,-0.419314,-0.830698,-0.0693,0.26152,0.37842
-15.6457,0,0,20.6457,20.6457,5,5,26.0762,-0.0706914,-17.5229,0.201243,-0.131077,0.195069,4.1125,0.1575,0.63,0.160552,-0.557906,-0.718092,-0.0693,0.26152,0.37842
-15.774,0,0,20.774,20.774,5,5,26.29,0.237697,-17.6695,0.195861,-0.127732,0.193416,5.075,0.8575,0.245,0.160552,-0.557906,-0.718092,-0.0693,0.26152,0.37842
-16.0335,0,0,21.0335,21.0335,5,5,26.7226,0.326805,-17.6727,0.111209,-0.373904,0.193728,5.075,0.8575,0.245,0.077104,-0.810568,-0.714432,-0.0693,0.26152,0.37842
-16.2889,0,0,21.2889,21.2889,5,5,27.1482,0.415958,-17.676,0.109653,-0.367287,0.190354,5.5125,1.155,-0.28,0.077104,-0.810568,-0.714432,-0.0693,0.26152,0.37842
-16.1946,0,0,21.1946,21.1946,5,5,26.9909,0.892888,-17.9584,0.221115,0.165142,0.153404,5.5125,1.155,-0.28,0.197396,-0.276208,-0.752252,-0.0693,0.26152,0.37842
-16.1977,0,0,21.1977,21.1977,5,5,26.9962,0.893688,-17.9594,0.221101,0.165224,0.153362,6.5625,0.1225,-1.2075,0.197396,-0.276208,-0.752252,-0.0693,0.26152,0.37842
-16.3373,0,0,21.3373,21.3373,5,5,27.2289,0.735775,-17.8767,-0.0698957,-0.148552,0.109375,6.5625,0.1225,-1.2075,-0.0976,-0.593286,-0.794098,-0.0693,0.26152,0.37842
-16.4734,0,0,21.4734,21.4734,5,5,27.4557,0.581674,-17.8035,-0.0672063,-0.145021,0.107585,6.09,-0.595,-1.61,-0.0976,-0.593286,-0.794098,-0.0686,0.26614,0.38458
-16.372,0,0,21.372,21.372,5,5,27.2866,0.831018,-17.9852,0.10241,0.187327,0.140737,5.495,-0.035,-1.8375,0.077104,-0.25864,-0.7625,-0.0686,0.26614,0.38458
-16.3738,0,0,21.3738,21.3738,5,5,27.2896,0.832515,-17.9877,0.102384,0.187373,0.140713,5.3025,0.0525,-2.2225,0.077104,-0.25864,-0.7625,-0.0686,0.26614,0.38458
-16.2976,0,0,21.2976,21.2976,5,5,27.1626,0.959468,-18.1066,0.0610496,0.0941585,-0.0391612,5.3025,0.0525,-2.2225,0.03782,-0.349774,-0.941962,-0.0686,0.26614,0.38458
-16.2225,0,0,21.2225,21.2225,5,5,27.0376,1.0817,-18.2247,0.0589166,0.0921988,-0.0382011,4.83,-0.315,-2.0825,0.03782,-0.349774,-0.941962,-0.0686,0.26614,0.38458
-16.2359,0,0,21.2359,21.2359,5,5,27.0598,0.683852,-18.0641,-0.153787,0.194325,0.350604,4.83,-0.315,-2.0825,-0.182756,-0.248148,-0.556076,-0.0686,0.26614,0.38458
-16.2375,0,0,21.2375,21.2375,5,5,27.0624,0.684617,-18.0668,-0.1538,0.194365,0.350583,5.0925,-0.35,-2.0825,-0.182756,-0.248148,-0.556076,-0.0686,0.26614,0.38458
-16.2391,0,0,21.2391,21.2391,5,5,27.0651,0.685382,-18.0695,-0.0458125,0.295283,0.389045,5.0925,-0.35,-2.0825,-0.074298,-0.147376,-0.51789,-0.0686,0.26614,0.38458
-16.2408,0,0,21.2408,21.2408,5,5,27.068,0.685733,-18.0721,-0.0458186,0.295328,0.389022,5.2325,-0.56,-1.96,-0.074298,-0.147376,-0.51789,-0.0686,0.26614,0.38458
-16.2414,0,0,21.2414,21.2414,5,5,27.0689,1.1069,-18.3133,0.239977,0.0106133,0.105638,5.2325,-0.56,-1.96,0.220088,-0.431758,-0.798978,-0.0686,0.26614,0.38458
-16.2426,0,0,21.2426,21.2426,5,5,27.0711,1.51558,-18.5505,0.232846,0.0105721,0.105476,5.425,-0.63,-1.4875,0.220088,-0.431758,-0.798978,-0.0686,0.26614,0.38458
-16.0879,0,0,21.0879,21.0879,5,5,26.8132,1.81455,-18.7819,0.102378,0.261494,0.194795,5.425,-0.63,-1.4875,0.094306,-0.177022,-0.712236,-0.0686,0.26614,0.38458
-16.09,0,0,21.09,21.09,5,5,26.8167,1.81446,-18.7823,0.10238,0.261548,0.194768,5.565,-0.175,-0.6475,0.094306,-0.177022,-0.712236,-0.07,0.25662,0.37338
-16.1393,0,0,21.1393,21.1393,5,5,26.8988,1.87,-18.8236,0.0488074,-0.101126,-0.0222961,5.565,-0.175,-0.6475,0.04148,-0.540582,-0.926956,-0.07,0.25662,0.37338
-16.1876,0,0,21.1876,21.1876,5,5,26.9794,1.92378,-18.8626,0.0478692,-0.0998866,-0.022961,5.5475,0.0175,0.35,0.04148,-0.540582,-0.926956,-0.07,0.25662,0.37338
-16.3102,0,0,21.3102,21.3102,5,5,27.1837,1.46075,-18.6276,-0.354431,-0.319487,-0.227359,5.5475,0.0175,0.35,-0.370636,-0.763232,-1.12838,-0.07,0.25662,0.37338
-16.3124,0,0,21.3124,21.3124,5,5,27.1873,1.45867,-18.6257,-0.354395,-0.319429,-0.227387,5.6175,-0.6125,1.05,-0.370636,-0.763232,-1.12838,-0.07,0.25662,0.37338
-16.4194,0,0,21.4194,21.4194,5,5,27.3656,1.06877,-18.428,-0.224284,-0.10837,0.0475862,5.6175,-0.6125,1.05,-0.246806,-0.555222,-0.854244,-0.07,0.25662,0.37338
-16.5235,0,0,21.5235,21.5235,5,5,27.5391,0.689626,-18.2332,-0.217667,-0.105636,0.0462803,5.8975,-0.735,1.54,-0.246806,-0.555222,-0.854244,-0.07,0.25662,0.37338
-16.6307,0,0,21.6307,21.6307,5,5,27.7178,0.375177,-18.0662,-0.185939,-0.151945,-0.000488413,5.8975,-0.735,1.54,-0.220454,-0.604266,-0.899262,-0.07,0.25662,0.37338
-16.7349,0,0,21.7349,21.7349,5,5,27.8915,0.0708979,-17.902,-0.180628,-0.149253,-0.00188464,5.88,-0.2625,1.4875,-0.220454,-0.604266,-0.899262,-0.07,0.25662,0.37338
-16.7359,0,0,21.7359,21.7359,5,5,27.8932,0.57876,-18.1526,0.341279,-0.0693797,-0.0116556,5.88,-0.2625,1.4875,0.312564,-0.524478,-0.9089,-0.07,0.25662,0.37338
-16.7384,0,0,21.7384,21.7384,5,5,27.8974,0.577326,-18.1502,0.341304,-0.0693149,-0.0116897,5.9325,-0.1225,1.1375,0.312564,-0.524478,-0.9089,-0.07,0.25662,0.37338
-16.7409,0,0,21.7409,21.7409,5,5,27.9016,0.575891,-18.1479,0.13201,0.0967201,-0.205368,5.9325,-0.1225,1.1375,0.102358,-0.35868,-1.10105,-0.07,0.25662,0.37338
-16.7433,0,0,21.7433,21.7433,5,5,27.9054,0.575421,-18.1455,0.132018,0.09678,-0.205399,5.7575,0.3675,0.8575,0.102358,-0.35868,-1.10105,-0.06888,0.25382,0.3724
-16.7638,0,0,21.7638,21.7638,5,5,27.9397,0.701936,-18.2084,0.0893551,-0.0818627,-0.0613596,5.985,0.28,0.5075,0.061732,-0.537654,-0.957822,-0.06888,0.25382,0.3724
-16.7843,0,0,21.7843,21.7843,5,5,27.9738,0.824872,-18.2711,0.0872097,-0.0813518,-0.0616632,6.0025,0.0525,0.1225,0.061732,-0.537654,-0.957822,-0.06888,0.25382,0.3724
-16.7535,0,0,21.7535,21.7535,5,5,27.9226,0.775214,-18.2661,-0.0385118,0.00372002,-0.121602,6.0025,0.0525,0.1225,-0.065392,-0.451888,-1.01772,-0.06888,0.25382,0.3724
-16.7559,0,0,21.7559,21.7559,5,5,27.9265,0.774642,-18.2661,-0.0385018,0.003781,-0.121634,5.81,-0.3325,-0.3325,-0.065392,-0.451888,-1.01772,-0.06888,0.25382,0.3724
-16.7583,0,0,21.7583,21.7583,5,5,27.9305,0.77407,-18.2662,-0.304667,0.208649,0.166771,5.81,-0.3325,-0.3325,-0.332694,-0.247294,-0.731512,-0.06888,0.25382,0.3724
-16.7605,0,0,21.7605,21.7605,5,5,27.9342,0.774058,-18.2672,-0.304667,0.208705,0.166741,5.67,-0.315,-0.9975,-0.332694,-0.247294,-0.731512,-0.06888,0.25382,0.3724
-16.7627,0,0,21.7627,21.7627,5,5,27.9378,0.774046,-18.2682,-0.0165025,-0.169342,-0.0743911,5.67,-0.315,-0.9975,-0.04331,-0.625006,-0.970754,-0.06888,0.25382,0.3724
-16.653,0,0,21.653,21.653,5,5,27.755,1.13405,-18.4836,0.196375,0.132127,-0.0223381,6.195,-0.2275,-1.085,0.176778,-0.320982,-0.92049,-0.06888,0.25382,0.3724
-16.5455,0,0,21.5455,21.5455,5,5,27.5758,1.4841,-18.6987,0.190267,0.129293,-0.0210101,5.985,-0.035,-1.5925,0.176778,-0.320982,-0.92049,-0.06888,0.25382,0.3724
-16.4486,0,0,21.4486,21.4486,5,5,27.4144,1.37516,-18.6939,-0.0819036,0.171149,0.0126674,5.985,-0.035,-1.5925,-0.098454,-0.276696,-0.888404,-0.06888,0.25382,0.3724
-16.3539,0,0,21.3539,21.3539,5,5,27.2565,1.26792,-18.6839,-0.0800324,0.168722,0.0139709,6.16,-0.105,-1.9775,-0.098454,-0.276696,-0.888404,-0.07196,0.25452,0.3878
-16.424,0,0,21.424,21.424,5,5,27.3734,1.55978,-18.8166,0.254792,-0.266127,-0.145434,5.9675,-0.63,-1.7675,0.242902,-0.712846,-1.04554,-0.07196,0.25452,0.3878
-16.4264,0,0,21.4264,21.4264,5,5,27.3773,1.56039,-18.8187,0.254782,-0.266067,-0.145466,5.81,-0.28,-1.7325,0.242902,-0.712846,-1.04554,-0.07196,0.25452,0.3878
-16.4287,0,0,21.4287,21.4287,5,5,27.3812,1.561,-18.8208,-0.0949864,-0.0917316,-0.134678,5.81,-0.28,-1.7325,-0.108336,-0.538752,-1.0348,-0.07196,0.25452,0.3878
-16.4316,0,0,21.4316,21.4316,5,5,27.386,1.56206,-18.8215,-0.0950048,-0.0916579,-0.134717,6.2825,0.315,-1.155,-0.108336,-0.538752,-1.0348,-0.07196,0.25452,0.3878
-16.4344,0,0,21.4344,21.4344,5,5,27.3907,1.56312,-18.8223,-0.0442422,0.180026,0.199665,6.2825,0.315,-1.155,-0.05734,-0.267424,-0.702964,-0.07196,0.25452,0.3878
-16.4367,0,0,21.4367,21.4367,5,5,27.3945,1.56366,-18.8227,-0.0442517,0.180084,0.199634,5.705,0.14,-0.84,-0.05734,-0.267424,-0.702964,-0.07196,0.25452,0.3878
-16.4389,0,0,21.4389,21.4389,5,5,27.3982,1.5642,-18.8231,-0.435567,-0.23802,-0.459031,5.705,0.14,-0.84,-0.450302,-0.685152,-1.35652,-0.07196,0.25452,0.3878
-16.4135,0,0,21.4135,21.4135,5,5,27.3558,2.26274,-19.1788,0.39378,0.046057,0.161715,5.4425,0.1925,-0.7,0.394792,-0.400526,-0.74054,-0.07196,0.25452,0.3878
-16.3895,0,0,21.3895,21.3895,5,5,27.3158,2.94159,-19.5291,0.381944,0.0451895,0.161557,5.81,0.0525,-0.2975,0.394792,-0.400526,-0.74054,-0.07196,0.25452,0.3878
-16.3683,0,0,21.3683,21.3683,5,5,27.2805,2.26993,-19.2372,-0.535833,0.0384147,-0.226204,5.81,0.0525,-0.2975,-0.53863,-0.406992,-1.12606,-0.07196,0.25452,0.3878
-16.371,0,0,21.371,21.371,5,5,27.2849,2.26897,-19.2367,-0.535816,0.0384838,-0.226239,6.0725,-0.385,0.0525,-0.53863,-0.406992,-1.12606,-0.07224,0.25326,0.3885
-16.3741,0,0,21.3741,21.3741,5,5,27.2902,2.26761,-19.2365,-0.330724,-0.111895,-0.158167,6.5275,-0.6825,0,-0.332694,-0.557296,-1.05847,-0.07224,0.25326,0.3885
-16.3777,0,0,21.3777,21.3777,5,5,27.2961,2.26635,-19.2362,-0.330702,-0.111802,-0.158213,6.9125,-0.6125,0,-0.332694,-0.557296,-1.05847,-0.07224,0.25326,0.3885
-16.3812,0,0,21.3812,21.3812,5,5,27.302,2.26509,-19.2359,0.106061,-0.0147415,-0.160719,6.9125,-0.6125,0,0.105896,-0.460428,-1.06091,-0.07224,0.25326,0.3885
-16.3847,0,0,21.3847,21.3847,5,5,27.3078,2.26439,-19.2351,0.106073,-0.0146515,-0.160765,6.825,-0.175,0.14,0.105896,-0.460428,-1.06091,-0.07224,0.25326,0.3885
-16.3882,0,0,21.3882,21.3882,5,5,27.3136,2.26368,-19.2342,-0.282669,0.287946,0.0791847,6.825,-0.175,0.14,-0.284504,-0.158234,-0.822768,-0.07224,0.25326,0.3885
-16.3916,0,0,21.3916,21.3916,5,5,27.3193,2.26317,-19.2332,-0.28266,0.288035,0.0791396,6.755,-0.0175,0.1925,-0.284504,-0.158234,-0.822768,-0.07224,0.25326,0.3885
-16.395,0,0,21.395,21.395,5,5,27.325,2.26267,-19.2322,-0.142214,-0.0953553,-0.167909,6.755,-0.0175,0.1925,-0.143472,-0.541314,-1.06787,-0.07224,0.25326,0.3885
-16.398,0,0,21.398,21.398,5,5,27.3299,2.26127,-19.2316,-0.233425,0.308717,0.151595,6.37,-0.595,0.21,-0.235094,-0.137738,-0.750788,-0.07224,0.25326,0.3885
-16.4008,0,0,21.4008,21.4008,5,5,27.3346,2.25978,-19.2312,-0.233399,0.30879,0.151559,6.2125,-0.7175,0.0875,-0.235094,-0.137738,-0.750788,-0.07224,0.25326,0.3885
-16.4036,0,0,21.4036,21.4036,5,5,27.3393,2.2583,-19.2309,0.0419133,-0.288458,-0.196545,6.2125,-0.7175,0.0875,0.041358,-0.73444,-1.09617,-0.07224,0.25326,0.3885
-16.4066,0,0,21.4066,21.4066,5,5,27.3443,2.25658,-19.2304,0.0419433,-0.28838,-0.196584,6.405,-0.7875,0.245,0.041358,-0.73444,-1.09617,-0.07224,0.25326,0.3885
-16.4005,0,0,21.4005,21.4005,5,5,27.3341,1.53062,-18.8985,-0.465231,0.116626,0.0224717,6.405,-0.7875,0.245,-0.48068,-0.329888,-0.879254,-0.07294,0.25256,0.38528
-16.4723,0,0,21.4723,21.4723,5,5,27.4538,1.55926,-18.8983,0.0267727,-0.0543359,0.10744,6.895,-0.14,-0.105,0.013908,-0.502518,-0.793976,-0.07294,0.25256,0.38528
-16.5431,0,0,21.5431,21.5431,5,5,27.5719,1.5869,-18.8987,0.0262905,-0.0525138,0.106476,7.3325,-0.6475,-0.315,0.013908,-0.502518,-0.793976,-0.07294,0.25256,0.38528
-16.561,0,0,21.561,21.561,5,5,27.6016,1.78603,-18.9974,0.13592,-0.0644367,-0.0261469,7.3325,-0.6475,-0.315,0.12749,-0.51484,-0.925248,-0.07294,0.25256,0.38528
-16.5788,0,0,21.5788,21.5788,5,5,27.6314,1.98068,-19.0939,0.132524,-0.064028,-0.0264867,7.3675,0.14,-0.2275,0.12749,-0.51484,-0.925248,-0.07294,0.25256,0.38528
-16.5485,0,0,21.5485,21.5485,5,5,27.5809,2.27718,-19.2559,0.20559,-0.0341219,-0.110714,7.3675,0.14,-0.2275,0.206058,-0.484096,-1.00906,-0.07294,0.25256,0.38528
-16.5526,0,0,21.5526,21.5526,5,5,27.5876,2.27754,-19.2557,0.205583,-0.0340174,-0.110769,7.385,0.1925,-0.5075,0.206058,-0.484096,-1.00906,-0.07294,0.25256,0.38528
-16.5842,0,0,21.5842,21.5842,5,5,27.6403,2.29656,-19.2681,0.0173134,-0.0415145,0.013709,7.385,0.1925,-0.5075,0.017324,-0.492392,-0.88511,-0.07294,0.25256,0.38528
-16.6146,0,0,21.6146,21.6146,5,5,27.6911,2.31521,-19.2801,0.0169881,-0.0407367,0.0132865,6.86,0.2625,-0.35,0.017324,-0.492392,-0.88511,-0.07294,0.25256,0.38528
-16.4915,0,0,21.4915,21.4915,5,5,27.4859,2.32145,-19.337,-0.0185946,0.12609,-0.231203,6.86,0.2625,-0.35,-0.0183,-0.322568,-1.12935,-0.07294,0.25256,0.38528
-16.4952,0,0,21.4952,21.4952,5,5,27.4919,2.3217,-19.3371,-0.0185989,0.126184,-0.231252,7,0.07,-0.595,-0.0183,-0.322568,-1.12935,-0.07294,0.25256,0.38528
-16.4988,0,0,21.4988,21.4988,5,5,27.4981,2.32191,-19.3372,0.48119,-0.00964815,-0.0575755,7.035,0.035,-0.6125,0.483608,-0.458354,-0.956968,-0.07028,0.252,0.37478
-16.5032,0,0,21.5032,21.5032,5,5,27.5053,2.32305,-19.3374,-0.0166786,0.259874,0.0783469,7.63,0.525,-0.8575,-0.016348,-0.189222,-0.822036,-0.07028,0.252,0.37478
-16.507,0,0,21.507,21.507,5,5,27.5117,2.32431,-19.3376,-0.0167007,0.259973,0.0782945,7.1925,0.56,-0.945,-0.016348,-0.189222,-0.822036,-0.07028,0.252,0.37478
-16.5108,0,0,21.5108,21.5108,5,5,27.5181,2.32557,-19.3379,0.31955,-0.20572,-0.083804,7.1925,0.56,-0.945,0.321348,-0.65453,-0.982832,-0.07028,0.252,0.37478
-16.5148,0,0,21.5148,21.5148,5,5,27.5246,2.32596,-19.3386,0.319543,-0.205619,-0.0838567,7.2625,-0.035,-0.98,0.321348,-0.65453,-0.982832,-0.07028,0.252,0.37478
-16.5187,0,0,21.5187,21.5187,5,5,27.5311,2.32636,-19.3394,-0.216702,0.383254,0.08453,7.2625,-0.035,-0.98,-0.21716,-0.066368,-0.815692,-0.07028,0.252,0.37478
-16.5226,0,0,21.5226,21.5226,5,5,27.5377,2.32625,-19.34,0.366067,-0.298599,-0.061463,7.315,-0.2625,-0.7875,0.368074,-0.747616,-0.960506,-0.07028,0.252,0.37478
-16.5272,0,0,21.5272,21.5272,5,5,27.5453,2.32589,-19.3404,0.366073,-0.298482,-0.061524,7.8575,-0.3325,-0.595,0.368074,-0.747616,-0.960506,-0.07028,0.252,0.37478
-16.6239,0,0,21.6239,21.6239,5,5,27.7065,2.5183,-19.4178,0.121204,-0.0757395,0.166099,8.1025,-0.14,-0.4375,0.125538,-0.527528,-0.73322,-0.07028,0.252,0.37478
-16.5926,0,0,21.5926,21.5926,5,5,27.6544,2.13125,-19.2717,-0.226055,0.139991,0.0813153,9.03,-0.315,-0.5425,-0.22997,-0.311344,-0.81801,-0.06622,0.25564,0.37366
-16.5966,0,0,21.5966,21.5966,5,5,27.661,2.13031,-19.2712,0.199161,-0.0827882,-0.113365,7.28,-0.4025,0,0.19703,-0.533994,-1.01114,-0.06622,0.25564,0.37366
-16.5997,0,0,21.5997,21.5997,5,5,27.6662,2.12898,-19.2707,-0.130285,-0.0159043,-0.132217,6.4925,-0.5775,0.1575,-0.133834,-0.46726,-1.0298,-0.06622,0.25564,0.37366
-16.7201,0,0,21.7201,21.7201,5,5,27.8668,2.26905,-19.3237,0.113159,-0.162334,0.100163,8.225,-0.4375,0.1575,0.113094,-0.616588,-0.797514,-0.06622,0.25564,0.37366
-16.6865,0,0,21.6865,21.6865,5,5,27.8109,2.33763,-19.3889,0.0353059,0.0456173,-0.018192,7.665,-0.4025,-0.1575,0.036112,-0.407968,-0.915366,-0.06804,0.2548,0.37814
-16.7287,0,0,21.7287,21.7287,5,5,27.8811,2.4585,-19.4545,0.0715877,-0.0093979,0.118861,7.21,-0.4025,-0.35,0.074664,-0.463966,-0.778726,-0.06804,0.2548,0.37814
-16.7693,0,0,21.7693,21.7693,5,5,27.9488,2.57781,-19.5188,0.0695073,-0.00839729,0.118227,6.37,0.5425,-0.595,0.074664,-0.463966,-0.778726,-0.06804,0.2548,0.37814
-16.6533,0,0,21.6533,21.6533,5,5,27.7555,2.58584,-19.5832,-0.0189528,0.140179,-0.141101,6.37,0.5425,-0.595,-0.01403,-0.312564,-1.03761,-0.06804,0.2548,0.37814
-16.5845,0,0,21.5845,21.5845,5,5,27.6409,2.59514,-19.6345,-0.00563011,0.05707,-0.146449,6.965,-0.0525,-0.8225,-0.000488,-0.393816,-1.04383,-0.06804,0.2548,0.37814
-16.5887,0,0,21.5887,21.5887,5,5,27.6479,2.59525,-19.6349,-0.00563193,0.057178,-0.146505,7.525,-0.0875,-0.7175,-0.000488,-0.393816,-1.04383,-0.06804,0.2548,0.37814
-16.4628,0,0,21.4628,21.4628,5,5,27.4379,2.67491,-19.7395,0.0159399,0.198501,0.0166849,7.525,-0.0875,-0.7175,0.02257,-0.249368,-0.883524,-0.06804,0.2548,0.37814
-16.3402,0,0,21.3402,21.3402,5,5,27.2337,2.75115,-19.8432,0.0146107,0.195309,0.0182637,8.4,-0.28,-0.42,0.02257,-0.249368,-0.883524,-0.06804,0.2548,0.37814
-16.3423,0,0,21.3423,21.3423,5,5,27.2372,2.6916,-19.8403,-0.0378047,0.00987593,-0.00544954,8.4,-0.28,-0.42,-0.03111,-0.434686,-0.90707,-0.06804,0.2548,0.37814
-16.3436,0,0,21.3436,21.3436,5,5,27.2394,2.63388,-19.83,-0.0367984,0.00992992,-0.0054247,7.7175,0,-0.2975,-0.03111,-0.434686,-0.90707,-0.0693,0.25088,0.37618
-16.4273,0,0,21.4273,21.4273,5,5,27.3789,2.37847,-19.6955,-0.158326,-0.148293,-0.0642765,7.5775,-0.035,-0.1225,-0.157624,-0.594994,-0.964532,-0.0693,0.25088,0.37618
-16.4308,0,0,21.4308,21.4308,5,5,27.3846,2.37861,-19.6945,-0.158328,-0.148205,-0.0643223,6.7725,0.2975,-0.0175,-0.157624,-0.594994,-0.964532,-0.0693,0.25088,0.37618
-16.4342,0,0,21.4342,21.4342,5,5,27.3903,2.37874,-19.6935,0.16798,0.273953,-0.191743,6.7725,0.2975,-0.0175,0.170068,-0.173362,-1.09092,-0.0693,0.25088,0.37618
-16.4376,0,0,21.4376,21.4376,5,5,27.396,2.37862,-19.6924,0.167982,0.274042,-0.191789,6.79,0.21,0.14,0.170068,-0.173362,-1.09092,-0.0693,0.25088,0.37618
-16.4609,0,0,21.4609,21.4609,5,5,27.4348,2.38436,-19.7001,0.0121377,-0.0713451,-0.0659584,6.79,0.21,0.14,0.013664,-0.518988,-0.965752,-0.0693,0.25088,0.37618
-16.4841,0,0,21.4841,21.4841,5,5,27.4735,2.39032,-19.7079,0.0120337,-0.0707476,-0.0662737,7.21,0.315,0.035,0.013664,-0.518988,-0.965752,-0.0693,0.25088,0.37618
-16.4242,0,0,21.4242,21.4242,5,5,27.3737,2.56022,-19.8223,0.124847,-0.0151958,-0.232919,7.21,0.315,0.035,0.12993,-0.461892,-1.13179,-0.0693,0.25088,0.37618
-16.4293,0,0,21.4293,21.4293,5,5,27.3821,2.55983,-19.8216,0.124854,-0.0150659,-0.232986,8.2775,-0.07,-0.0525,0.12993,-0.461892,-1.13179,-0.0693,0.25088,0.37618
-16.4343,0,0,21.4343,21.4343,5,5,27.3905,2.55943,-19.821,-0.305685,-0.126194,-0.176128,8.2775,-0.07,-0.0525,-0.302438,-0.573034,-1.07531,-0.0693,0.25088,0.37618
-16.4393,0,0,21.4393,21.4393,5,5,27.3988,2.55958,-19.8201,-0.305687,-0.126064,-0.176195,8.26,0.2975,-0.035,-0.302438,-0.573034,-1.07531,-0.0693,0.25088,0.37618
-16.4091,0,0,21.4091,21.4091,5,5,27.3486,2.49857,-19.8223,-0.0453729,0.0892214,0.055639,7.8925,0.035,-0.3675,-0.04209,-0.357216,-0.845704,-0.0728,0.25564,0.37478
-16.4784,0,0,21.4784,21.4784,5,5,27.4639,2.1262,-19.6426,-0.247106,-0.113434,-0.0782074,6.7725,0.0175,-0.84,-0.251198,-0.561566,-0.97783,-0.0728,0.25564,0.37478
-16.4806,0,0,21.4806,21.4806,5,5,27.4676,2.12006,-19.6468,-0.246998,-0.113376,-0.0782334,5.74,-4.34,-0.9625,-0.251198,-0.561566,-0.97783,-0.0728,0.25564,0.37478
-16.4828,0,0,21.4828,21.4828,5,5,27.4713,2.11391,-19.6509,-0.104389,0.0239535,0.134073,5.74,-4.34,-0.9625,-0.108092,-0.424438,-0.767136,-0.0728,0.25564,0.37478
-16.4859,0,0,21.4859,21.4859,5,5,27.4764,2.11326,-19.6518,-0.104377,0.0240336,0.134031,6.51,-0.6125,-0.77,-0.108092,-0.424438,-0.767136,-0.0728,0.25564,0.37478
-16.378,0,0,21.378,21.378,5,5,27.2967,2.30598,-19.7958,0.110693,0.108022,-0.133776,6.51,-0.6125,-0.77,0.111264,-0.337696,-1.03419,-0.0728,0.25564,0.37478
-16.2736,0,0,21.2736,21.2736,5,5,27.1226,2.49264,-19.9398,0.107438,0.10526,-0.132509,7.56,-0.875,-1.085,0.111264,-0.337696,-1.03419,-0.0728,0.25564,0.37478
-16.1414,0,0,21.1414,21.1414,5,5,26.9023,2.39297,-19.9592,-0.0951628,0.185528,-0.143731,7.56,-0.875,-1.085,-0.09394,-0.254126,-1.04713,-0.0728,0.25564,0.37478
-16.0122,0,0,21.0122,21.0122,5,5,26.6869,2.29575,-19.9769,-0.0934674,0.182207,-0.141976,8.0675,-0.245,-0.6475,-0.09394,-0.254126,-1.04713,-0.0728,0.25564,0.37478
-15.9128,0,0,20.9128,20.9128,5,5,26.5213,2.33831,-20.0513,0.0013995,0.165444,0.0204766,8.0675,-0.245,-0.6475,0.002074,-0.268278,-0.887184,-0.0728,0.25564,0.37478
-16.1602,0,0,21.1602,21.1602,5,5,26.9336,2.01924,-19.8327,-0.146837,-0.223973,0.243902,7.4725,-0.21,-0.245,-0.152378,-0.663802,-0.66246,-0.0728,0.25564,0.37478
-16.4002,0,0,21.4002,21.4002,5,5,27.3336,1.71203,-19.6143,-0.141478,-0.217683,0.240875,6.2475,-0.035,0,-0.152378,-0.663802,-0.66246,-0.07238,0.25172,0.37254
-16.4011,0,0,21.4011,21.4011,5,5,27.3351,1.55128,-19.5424,-0.115955,-0.0682619,-0.186066,6.0025,0.07,-0.035,-0.129564,-0.514596,-1.08617,-0.07238,0.25172,0.37254
-16.4043,0,0,21.4043,21.4043,5,5,27.3406,1.55069,-19.5409,-0.115945,-0.0681777,-0.186109,6.615,0.0525,0.4375,-0.129564,-0.514596,-1.08617,-0.07238,0.25172,0.37254
-16.2925,0,0,21.2925,21.2925,5,5,27.1542,1.39031,-19.5035,-0.114362,0.20497,0.0163415,6.615,0.0525,0.4375,-0.130784,-0.238876,-0.886818,-0.07238,0.25172,0.37254
-16.1837,0,0,21.1837,21.1837,5,5,26.9729,1.23284,-19.4659,-0.111614,0.202182,0.0178365,7.77,-0.3675,0.5075,-0.130784,-0.238876,-0.886818,-0.07238,0.25172,0.37254
-16.1872,0,0,21.1872,21.1872,5,5,26.9786,1.34591,-19.5216,0.0659689,0.0197936,0.0618904,7.77,-0.3675,0.5075,0.049532,-0.421144,-0.84302,-0.07238,0.25172,0.37254
-16.1708,0,0,21.1708,21.1708,5,5,26.9513,1.58444,-19.6453,0.156566,-0.0142637,-0.0383147,7.735,-0.4725,0.21,0.144692,-0.454694,-0.942572,-0.07238,0.25172,0.37254
-16.1764,0,0,21.1764,21.1764,5,5,26.9606,1.68728,-19.6978,0.0754417,-0.0609175,-0.0866294,7.525,0.1925,0.1575,0.065026,-0.50142,-0.990396,-0.07238,0.25172,0.37254
-16.1795,0,0,21.1795,21.1795,5,5,26.9658,1.68755,-19.6971,-0.206288,-0.0449609,-0.125276,6.475,0.315,-0.14,-0.217892,-0.48556,-1.0287,-0.07238,0.25172,0.37254
-16.1816,0,0,21.1816,21.1816,5,5,26.9694,1.68875,-19.6971,-0.206309,-0.0449051,-0.125305,5.6175,0.595,-0.805,-0.217892,-0.48556,-1.0287,-0.06972,0.25396,0.3738
-16.1481,0,0,21.1481,21.1481,5,5,26.9134,1.95101,-19.8454,0.142882,0.0616308,0.0728314,5.32,0.84,-1.05,0.137372,-0.3782,-0.832406,-0.06972,0.25396,0.3738
-16.117,0,0,21.117,21.117,5,5,26.8616,2.20438,-19.9933,0.138463,0.0607524,0.073097,6.685,-0.1925,-1.2425,0.137372,-0.3782,-0.832406,-0.06972,0.25396,0.3738
-16.0541,0,0,21.0541,21.0541,5,5,26.7569,1.78989,-19.8317,-0.267359,0.163166,0.0137781,6.685,-0.1925,-1.2425,-0.277428,-0.274378,-0.892308,-0.06972,0.25396,0.3738
-15.9929,0,0,20.9929,20.9929,5,5,26.6548,1.38518,-19.6701,-0.260298,0.161662,0.0147535,7.8575,-0.315,-1.295,-0.277428,-0.274378,-0.892308,-0.06972,0.25396,0.3738
-16.0883,0,0,21.0883,21.0883,5,5,26.8139,1.40667,-19.6612,0.0373315,-0.184779,-0.0209289,7.8575,-0.315,-1.295,0.021838,-0.622932,-0.926468,-0.06972,0.25396,0.3738
-16.0936,0,0,21.0936,21.0936,5,5,26.8227,1.4069,-19.6622,0.0373276,-0.184642,-0.0209984,8.5575,-0.175,-1.05,0.021838,-0.622932,-0.926468,-0.06972,0.25396,0.3738
-16.0981,0,0,21.0981,21.0981,5,5,26.8302,1.40696,-19.6629,0.129048,-0.0919523,-0.0822861,7.8225,-0.1925,-0.875,0.113948,-0.530456,-0.987224,-0.06972,0.25396,0.3738
-15.9988,0,0,20.9988,20.9988,5,5,26.6647,1.37949,-19.6905,-0.0371509,0.160963,-0.0153212,6.58,0.07,-0.42,-0.053436,-0.275232,-0.922076,-0.06972,0.25396,0.3738
-16.042,0,0,21.042,21.042,5,5,26.7366,1.4108,-19.6974,0.0306993,-0.0864502,-0.0172493,5.46,0.1925,-0.1925,0.01525,-0.523502,-0.923418,-0.0658,0.25228,0.38444
-16.1527,0,0,21.1527,21.1527,5,5,26.9211,1.36339,-19.6419,-0.0119653,-0.0454652,0.208893,4.9875,0.595,0.42,-0.028426,-0.485438,-0.697596,-0.0658,0.25228,0.38444
-16.1552,0,0,21.1552,21.1552,5,5,26.9254,1.36281,-19.64,-0.0119553,-0.0453981,0.20886,5.985,0.175,0.665,-0.028426,-0.485438,-0.697596,-0.0658,0.25228,0.38444
-16.1578,0,0,21.1578,21.1578,5,5,26.9297,1.36224,-19.6381,-0.0325979,0.147385,0.119073,5.985,0.175,0.665,-0.049166,-0.292922,-0.786656,-0.0658,0.25228,0.38444
-16.1617,0,0,21.1617,21.1617,5,5,26.9362,1.36097,-19.6368,-0.0325758,0.147486,0.119023,7.1925,-0.3325,0.56,-0.049166,-0.292922,-0.786656,-0.0658,0.25228,0.38444
-16.0974,0,0,21.0974,21.0974,5,5,26.8291,1.84345,-19.899,0.289691,0.0736578,0.0399871,7.1925,-0.3325,0.56,0.282918,-0.364902,-0.865712,-0.0658,0.25228,0.38444
-16.0355,0,0,21.0355,21.0355,5,5,26.7258,2.31253,-20.1597,0.281509,0.0719165,0.0405333,7.805,-0.525,0.28,0.282918,-0.364902,-0.865712,-0.0658,0.25228,0.38444
-15.9316,0,0,20.9316,20.9316,5,5,26.5526,1.75281,-19.9357,-0.396216,0.236563,-0.0512432,7.805,-0.525,0.28,-0.40748,-0.197884,-0.958432,-0.0658,0.25228,0.38444
-15.8269,0,0,20.8269,20.8269,5,5,26.3782,1.20632,-19.7098,-0.386681,0.233949,-0.0496669,6.4925,0.14,0.07,-0.40748,-0.197884,-0.958432,-0.0658,0.25228,0.38444
-15.8754,0,0,20.8754,20.8754,5,5,26.4591,1.42724,-19.8077,0.157122,-0.0965235,0.0245019,6.4925,0.14,0.07,0.142496,-0.529236,-0.884134,-0.0658,0.25228,0.38444
-15.9219,0,0,20.9219,20.9219,5,5,26.5365,1.64189,-19.9052,0.153377,-0.0953594,0.0238095,5.0925,-0.4025,-0.4375,0.142496,-0.529236,-0.884134,-0.0658,0.25228,0.38444
-16.0248,0,0,21.0248,21.0248,5,5,26.708,1.14005,-19.6252,-0.36475,-0.180763,-0.0920528,5.0925,-0.4025,-0.4375,-0.386618,-0.61732,-0.99796,-0.06678,0.24822,0.38528
-15.8388,0,0,20.8388,20.8388,5,5,26.398,1.47861,-19.8508,0.20069,0.226515,-0.151598,5.1625,-0.2625,-0.9975,0.187148,-0.20557,-1.05933,-0.06678,0.24822,0.38528
-15.8273,0,0,20.8273,20.8273,5,5,26.3788,1.2771,-19.7569,-0.118947,0.0893483,0.0932937,5.915,-0.525,-1.2075,-0.137372,-0.342332,-0.816546,-0.06678,0.24822,0.38528
-15.8302,0,0,20.8302,20.8302,5,5,26.3836,1.27726,-19.7581,-0.118949,0.0894238,0.0932562,6.3175,-0.2625,-1.155,-0.137372,-0.342332,-0.816546,-0.06678,0.24822,0.38528
-15.8331,0,0,20.8331,20.8331,5,5,26.3885,1.27742,-19.7594,-0.146894,-0.016751,-0.258537,6.3175,-0.2625,-1.155,-0.165432,-0.448472,-1.16559,-0.06678,0.24822,0.38528
-15.8372,0,0,20.8372,20.8372,5,5,26.3953,1.27663,-19.7608,0.0586737,-0.0247051,-0.097035,7.42,-0.8225,-1.0325,0.040992,-0.456524,-1.00528,-0.06678,0.24822,0.38528
-15.8413,0,0,20.8413,20.8413,5,5,26.4021,1.2765,-19.7622,0.058676,-0.024598,-0.0970881,7.455,-0.4725,-1.19,0.040992,-0.456524,-1.00528,-0.06678,0.24822,0.38528
-15.919,0,0,20.919,20.919,5,5,26.5317,1.34912,-19.7716,0.064941,-0.138118,0.0105642,7.105,-0.175,-1.295,0.048556,-0.571936,-0.897432,-0.06678,0.24822,0.38528
-15.9945,0,0,20.9945,20.9945,5,5,26.6576,1.42035,-19.7797,0.0636983,-0.136168,0.00955451,6.2125,0.1925,-0.7875,0.048556,-0.571936,-0.897432,-0.06678,0.24822,0.38528
-16.0504,0,0,21.0504,21.0504,5,5,26.7507,1.55167,-19.8243,0.108543,-0.145735,-0.0477848,5.39,-0.28,-0.7875,0.095892,-0.582916,-0.953552,-0.06678,0.24822,0.38528
-16.0517,0,0,21.0517,21.0517,5,5,26.7528,1.55115,-19.8241,0.108552,-0.145702,-0.0478012,4.7775,-0.245,-0.2275,0.095892,-0.582916,-0.953552,-0.06678,0.24822,0.38528
-15.8271,0,0,20.8271,20.8271,5,5,26.3786,1.51677,-19.8828,-0.0671234,0.33514,-0.139045,4.7775,-0.245,-0.2275,-0.08113,-0.096746,-1.047,-0.06678,0.24822,0.38528
-15.606,0,0,20.606,20.606,5,5,26.0101,1.47862,-19.9495,-0.0664578,0.329379,-0.136192,4.8825,-4.2,0.1925,-0.08113,-0.096746,-1.047,-0.07182,0.25438,0.38276
-15.7032,0,0,20.7032,20.7032,5,5,26.1719,1.66571,-20.0213,0.12016,-0.0617385,0.204282,4.8825,-4.2,0.1925,0.109556,-0.489952,-0.707844,-0.07182,0.25438,0.38276
-15.7068,0,0,20.7068,20.7068,5,5,26.178,1.66579,-20.0195,0.120159,-0.061644,0.204236,6.9475,0.49,0.4725,0.109556,-0.489952,-0.707844,-0.07182,0.25438,0.38276
-15.7104,0,0,20.7104,20.7104,5,5,26.184,1.66587,-20.0176,-0.054296,-0.0251558,-0.223425,6.9475,0.49,0.4725,-0.065636,-0.453596,-1.13216,-0.07182,0.25438,0.38276
-15.7142,0,0,20.7142,20.7142,5,5,26.1904,1.66476,-20.0167,-0.0542765,-0.0250557,-0.223474,7.1575,-0.385,0.28,-0.065636,-0.453596,-1.13216,-0.07182,0.25438,0.38276
-15.583,0,0,20.583,20.583,5,5,25.9717,1.62512,-20.0504,-0.0527347,0.191477,-0.100429,7.4025,-0.42,0.28,-0.064782,-0.233874,-1.01175,-0.07182,0.25438,0.38276
-15.4535,0,0,20.4535,20.4535,5,5,25.7559,1.58675,-20.083,-0.0520653,0.188096,-0.0987692,6.72,0.2625,0.4375,-0.064782,-0.233874,-1.01175,-0.07182,0.25438,0.38276
-15.6383,0,0,20.6383,20.6383,5,5,26.0638,1.84501,-20.1544,0.211062,-0.272189,0.170232,6.72,0.2625,0.4375,0.203984,-0.69845,-0.74237,-0.07182,0.25438,0.38276
-15.819,0,0,20.819,20.819,5,5,26.365,2.09745,-20.2237,0.206659,-0.267543,0.167776,5.5125,0.105,0.0875,0.203984,-0.69845,-0.74237,-0.07182,0.25438,0.38276
-15.695,0,0,20.695,20.695,5,5,26.1583,1.92282,-20.1923,-0.111382,0.264308,0.183729,5.5125,0.1575,-0.0175,-0.118462,-0.163968,-0.728218,-0.07182,0.25438,0.38276
-15.6965,0,0,20.6965,20.6965,5,5,26.1608,1.92374,-20.1923,-0.111398,0.264347,0.183709,4.9875,0.455,-0.7175,-0.118462,-0.163968,-0.728218,-0.07182,0.25438,0.38276
-15.7587,0,0,20.7587,20.7587,5,5,26.2645,1.58909,-20.0176,-0.193515,-0.0115446,0.0915971,4.9875,0.455,-0.7175,-0.20679,-0.441274,-0.818986,-0.07182,0.25438,0.38276
-15.7402,0,0,20.7402,20.7402,5,5,26.2337,1.48689,-19.9797,-0.0769282,-0.022509,-0.155617,5.04,0.2275,-0.84,-0.0915,-0.451766,-1.06457,-0.06902,0.25214,0.38108
-15.7428,0,0,20.7428,20.7428,5,5,26.238,1.48731,-19.9807,-0.0769357,-0.0224408,-0.155651,6.055,-0.07,-1.12,-0.0915,-0.451766,-1.06457,-0.06902,0.25214,0.38108
-15.7454,0,0,20.7454,20.7454,5,5,26.2424,1.48774,-19.9817,0.0123489,0.13456,0.144678,6.055,-0.07,-1.12,-0.00183,-0.294996,-0.766526,-0.06902,0.25214,0.38108
-15.7479,0,0,20.7479,20.7479,5,5,26.2465,1.48816,-19.9834,0.0123415,0.134625,0.144646,5.95,-0.245,-1.47,-0.00183,-0.294996,-0.766526,-0.06902,0.25214,0.38108
-15.7506,0,0,20.7506,20.7506,5,5,26.2511,1.48782,-19.9856,0.257263,0.104287,-0.150588,6.1775,-0.77,-1.5225,0.244122,-0.325374,-1.05945,-0.06902,0.25214,0.38108
-15.7539,0,0,20.7539,20.7539,5,5,26.2565,1.48761,-19.9876,0.257266,0.104371,-0.15063,6.65,-0.665,-1.4875,0.244122,-0.325374,-1.05945,-0.06902,0.25214,0.38108
-15.8466,0,0,20.8466,20.8466,5,5,26.4111,1.40596,-19.9226,-0.0353046,-0.0971469,0.0846358,6.1775,-0.1225,-1.1375,-0.051118,-0.529114,-0.824842,-0.06902,0.25214,0.38108
-15.9366,0,0,20.9366,20.9366,5,5,26.5611,1.32728,-19.8583,-0.0339318,-0.0947898,0.0834979,5.4425,0.1225,-0.9275,-0.051118,-0.529114,-0.824842,-0.06902,0.25214,0.38108
-15.8659,0,0,20.8659,20.8659,5,5,26.4432,1.82556,-20.1283,0.35026,0.0246573,-0.086943,5.5825,0.035,-0.8575,0.34343,-0.407846,-0.994666,-0.06902,0.25214,0.38108
-15.8676,0,0,20.8676,20.8676,5,5,26.4461,1.82515,-20.1278,0.350267,0.0247018,-0.0869649,5.18,-0.1225,-0.1225,0.34343,-0.407846,-0.994666,-0.06902,0.25214,0.38108
-15.8937,0,0,20.8937,20.8937,5,5,26.4895,1.653,-20.0418,-0.108375,-0.028804,-0.0175089,5.18,-0.1225,-0.1225,-0.12017,-0.462014,-0.925492,-0.06902,0.25214,0.38108
-15.8692,0,0,20.8692,20.8692,5,5,26.4486,1.48136,-19.9708,-0.103194,0.109575,0.10583,4.9875,0.105,0.105,-0.117974,-0.323178,-0.803492,-0.06902,0.25214,0.38108
-15.8714,0,0,20.8714,20.8714,5,5,26.4523,1.48101,-19.9688,-0.103188,0.109633,0.105802,5.6175,0.2975,0.6475,-0.117974,-0.323178,-0.803492,-0.06888,0.24864,0.38444
-15.8736,0,0,20.8736,20.8736,5,5,26.456,1.48065,-19.9669,0.226773,-0.262919,-0.160041,5.6175,0.2975,0.6475,0.213378,-0.6954,-1.06726,-0.06888,0.24864,0.38444
-15.8762,0,0,20.8762,20.8762,5,5,26.4603,1.48001,-19.9646,0.226784,-0.262851,-0.160075,6.0025,0.21,0.84,0.213378,-0.6954,-1.06726,-0.06888,0.24864,0.38444
-15.8788,0,0,20.8788,20.8788,5,5,26.4647,1.47937,-19.9624,-0.0786194,-0.042344,-0.127527,6.0025,0.21,0.84,-0.09333,-0.47519,-1.03493,-0.06888,0.24864,0.38444
-15.8811,0,0,20.8811,20.8811,5,5,26.4685,1.47816,-19.9609,0.193165,-0.0332464,-0.110097,5.7225,-0.2625,0.6475,0.179584,-0.466162,-1.0176,-0.06888,0.24864,0.38444
-15.8835,0,0,20.8835,20.8835,5,5,26.4724,1.47693,-19.9592,0.193187,-0.0331848,-0.110127,5.775,-0.245,0.7,0.179584,-0.466162,-1.0176,-0.06888,0.24864,0.38444
-15.8855,0,0,20.8855,20.8855,5,5,26.4758,1.47602,-19.9574,0.131002,0.235302,0.0795565,5.4425,-0.035,0.7,0.11712,-0.198006,-0.829356,-0.06888,0.24864,0.38444
-15.887,0,0,20.887,20.887,5,5,26.4783,1.47659,-19.9552,0.130992,0.235342,0.0795365,4.9875,0.8575,0.56,0.11712,-0.198006,-0.829356,-0.06888,0.24864,0.38444
-15.8886,0,0,20.8886,20.8886,5,5,26.481,1.47711,-19.9533,0.134992,0.0397361,0.122302,5.0575,0.7175,0.3325,0.121146,-0.39345,-0.7869,-0.06888,0.24864,0.38444
-15.8905,0,0,20.8905,20.8905,5,5,26.4842,1.47067,-19.957,0.135104,0.0397873,0.122279,5.4425,-4.3575,-0.7,0.121146,-0.39345,-0.7869,-0.06888,0.24864,0.38444
-15.8924,0,0,20.8924,20.8924,5,5,26.4874,1.46423,-19.9606,0.0205341,0.103222,0.174756,5.4425,-4.3575,-0.7,0.005978,-0.330132,-0.734806,-0.06888,0.24864,0.38444
-15.8946,0,0,20.8946,20.8946,5,5,26.491,1.46438,-19.9614,0.111889,0.396749,-0.20383,5.6175,-0.175,-0.9625,0.097722,-0.036966,-1.11044,-0.06888,0.24864,0.38444
-15.8967,0,0,20.8967,20.8967,5,5,26.4945,1.46472,-19.9627,0.111883,0.396805,-0.203858,5.6175,-0.175,-1.2075,0.097722,-0.036966,-1.11044,-0.06888,0.24864,0.38444
-16.0013,0,0,21.0013,21.0013,5,5,26.6689,1.41054,-19.8953,-0.0169186,-0.13831,0.0646734,5.9325,0.21,-1.2775,-0.032574,-0.574254,-0.842654,-0.06776,0.2464,0.38514
-16.1039,0,0,21.1039,21.1039,5,5,26.8398,1.35758,-19.8296,-0.0159946,-0.135637,0.0633507,6.0025,-0.4025,-1.4175,-0.032574,-0.574254,-0.842654,-0.06776,0.2464,0.38514
-16.1065,0,0,21.1065,21.1065,5,5,26.8441,1.35775,-19.8314,0.17267,-0.00892511,-0.208891,6.0025,-0.4025,-1.4175,0.156892,-0.44774,-1.11276,-0.06776,0.2464,0.38514
-16.1089,0,0,21.1089,21.1089,5,5,26.8481,1.35764,-19.8332,-0.0187897,-0.137706,-0.17671,5.8625,-0.56,-1.3825,-0.03538,-0.57645,-1.0808,-0.06776,0.2464,0.38514
-16.1109,0,0,21.1109,21.1109,5,5,26.8514,1.35764,-19.835,-0.0187898,-0.137654,-0.176736,5.495,-0.525,-1.4525,-0.03538,-0.57645,-1.0808,-0.06776,0.2464,0.38514
-16.0977,0,0,21.0977,21.0977,5,5,26.8295,1.26012,-19.785,-0.0628882,0.0598665,0.049205,4.865,0.0175,-1.33,-0.081374,-0.37881,-0.856806,-0.06776,0.2464,0.38514
-16.0843,0,0,21.0843,21.0843,5,5,26.8072,1.16508,-19.7346,-0.0612298,0.0595351,0.0494119,4.62,0.1925,-0.9275,-0.081374,-0.37881,-0.856806,-0.06776,0.2464,0.38514
-16.0862,0,0,21.0862,21.0862,5,5,26.8104,1.16574,-19.7351,0.0433578,-0.140214,-0.0563494,5.4075,0.175,-0.9275,0.023668,-0.578402,-0.961726,-0.06776,0.2464,0.38514
-16.0886,0,0,21.0886,21.0886,5,5,26.8143,1.16542,-19.7349,0.0433634,-0.140154,-0.0563797,5.7575,-0.1575,-0.315,0.023668,-0.578402,-0.961726,-0.06776,0.2464,0.38514
-16.0837,0,0,21.0837,21.0837,5,5,26.8062,1.44601,-19.8648,0.180727,-0.0128293,0.0221481,5.7575,-0.1575,-0.315,0.16653,-0.451034,-0.883768,-0.06776,0.2464,0.38514
-16.0507,0,0,21.0507,21.0507,5,5,26.7512,1.43772,-19.8652,-0.0109541,0.0378526,-0.0487261,5.145,-0.21,-0.0175,-0.026108,-0.39955,-0.954528,-0.06776,0.2464,0.38514
-16.0184,0,0,21.0184,21.0184,5,5,26.6973,1.43087,-19.8647,-0.0108346,0.037014,-0.0483006,5.1975,0.7525,0.0875,-0.026108,-0.39955,-0.954528,-0.06776,0.2464,0.38514
-16.1608,0,0,21.1608,21.1608,5,5,26.9347,1.72147,-19.9537,0.219049,-0.213132,0.146178,5.6,1.015,0.1225,0.20984,-0.653066,-0.759572,-0.06482,0.2464,0.37968
-16.3009,0,0,21.3009,21.3009,5,5,27.1681,2.00342,-20.0402,0.21413,-0.209579,0.144184,5.2325,0.105,0.385,0.20984,-0.653066,-0.759572,-0.06482,0.2464,0.37968
-16.2867,0,0,21.2867,21.2867,5,5,27.1444,2.13292,-20.1079,0.0731349,0.0396442,0.0579899,5.2325,0.105,0.385,0.070516,-0.403698,-0.845216,-0.06482,0.2464,0.37968
-16.2736,0,0,21.2736,21.2736,5,5,27.1226,2.25819,-20.1748,0.0709503,0.0392675,0.0580888,5.7925,-0.2275,0.56,0.070516,-0.403698,-0.845216,-0.06482,0.2464,0.37968
-16.2763,0,0,21.2763,21.2763,5,5,27.1271,2.25692,-20.1735,-0.147216,0.101134,0.0826435,6.09,-0.35,0.525,-0.148596,-0.341966,-0.820816,-0.06482,0.2464,0.37968
-16.2788,0,0,21.2788,21.2788,5,5,27.1314,2.25632,-20.1722,-0.147205,0.1012,0.0826098,5.9675,0,0.35,-0.148596,-0.341966,-0.820816,-0.06482,0.2464,0.37968
-16.281,0,0,21.281,21.281,5,5,27.135,2.25643,-20.1711,-0.0694565,0.108461,-0.334337,5.565,0.315,0.0525,-0.070516,-0.334768,-1.23452,-0.06482,0.2464,0.37968
-16.2833,0,0,21.2833,21.2833,5,5,27.1388,2.25744,-20.1709,-0.0694742,0.108521,-0.334368,5.7575,0.5425,-0.665,-0.070516,-0.334768,-1.23452,-0.06482,0.2464,0.37968
-16.2856,0,0,21.2856,21.2856,5,5,27.1427,2.25846,-20.1708,0.224989,-0.100745,-0.0714127,5.7575,0.5425,-0.665,0.225212,-0.543876,-0.97356,-0.06482,0.2464,0.37968
-16.2877,0,0,21.2877,21.2877,5,5,27.1462,2.25816,-20.1714,-0.166918,0.517638,0.0180657,5.6,-0.3675,-0.7525,-0.16836,0.07381,-0.884744,-0.06482,0.2464,0.37968
-16.2894,0,0,21.2894,21.2894,5,5,27.149,2.25846,-20.1716,-0.166923,0.517681,0.0180436,5.145,0.07,-0.665,-0.16836,0.07381,-0.884744,-0.06482,0.2464,0.37968
-16.215,0,0,21.215,21.215,5,5,27.025,2.3477,-20.2458,0.03756,0.119425,0.0147925,4.9875,-0.2625,-0.9975,0.038552,-0.32208,-0.888892,-0.06482,0.2464,0.37968
-16.1423,0,0,21.1423,21.1423,5,5,26.9038,2.43456,-20.3195,0.0360454,0.117513,0.0156944,5.145,-0.0875,-1.1725,0.038552,-0.32208,-0.888892,-0.06482,0.2464,0.37968
-16.064,0,0,21.064,21.064,5,5,26.7733,2.25286,-20.2671,-0.134025,0.139111,-0.0405793,5.4425,-0.07,-1.12,-0.13542,-0.298534,-0.945866,-0.0637,0.24584,0.37422
-16.0658,0,0,21.0658,21.0658,5,5,26.7763,2.25295,-20.2683,0.12814,0.191184,-0.269041,5.32,-0.2975,-1.12,0.127856,-0.246562,-1.17254,-0.0637,0.24584,0.37422
-16.0676,0,0,21.0676,21.0676,5,5,26.7793,2.25304,-20.2694,0.128138,0.191232,-0.269065,5.32,-0.2975,-1.12,0.127856,-0.246562,-1.17254,-0.0637,0.24584,0.37422
-16.0701,0,0,21.0701,21.0701,5,5,26.7835,2.25322,-20.2705,-0.234014,-0.0838553,-0.128691,5.95,-0.21,-1.0675,-0.235826,-0.521428,-1.03322,-0.0637,0.24584,0.37422
-16.0725,0,0,21.0725,21.0725,5,5,26.7876,2.25406,-20.2711,-0.234028,-0.083792,-0.128724,5.8975,0.2275,-1.05,-0.235826,-0.521428,-1.03322,-0.0637,0.24584,0.37422
-16.1625,0,0,21.1625,21.1625,5,5,26.9375,2.5452,-20.3859,0.186216,-0.086075,0.175433,5.565,-0.035,-0.735,0.191296,-0.525942,-0.730048,-0.0637,0.24584,0.37422
-16.2513,0,0,21.2513,21.2513,5,5,27.0856,2.82857,-20.4972,0.181276,-0.0838803,0.174054,5.5475,-0.0175,-0.175,0.191296,-0.525942,-0.730048,-0.0637,0.24584,0.37422
-16.2317,0,0,21.2317,21.2317,5,5,27.0529,2.87804,-20.5375,0.0325655,-0.000871789,-0.0655984,5.5475,-0.0175,-0.175,0.042822,-0.442494,-0.96807,-0.0637,0.24584,0.37422
-16.3473,0,0,21.3473,21.3473,5,5,27.2455,2.65087,-20.395,-0.121284,-0.109544,0.103078,4.6375,-1.085,0.0875,-0.115656,-0.554124,-0.799344,-0.0637,0.24584,0.37422
-16.4594,0,0,21.4594,21.4594,5,5,27.4324,2.432,-20.2539,-0.117468,-0.106571,0.101732,4.095,0.0875,0.2975,-0.115656,-0.554124,-0.799344,-0.0637,0.24584,0.37422
-16.4606,0,0,21.4606,21.4606,5,5,27.4344,2.43241,-20.2523,-0.134726,0.0887405,0.167247,4.6725,0.6125,0.245,-0.13298,-0.359046,-0.734318,-0.0637,0.24584,0.37422
-16.462,0,0,21.462,21.462,5,5,27.4367,2.43322,-20.2504,-0.13474,0.0887761,0.167228,4.8475,0.91,0.2975,-0.13298,-0.359046,-0.734318,-0.0637,0.24584,0.37422
-16.4633,0,0,21.4633,21.4633,5,5,27.4388,2.43308,-20.2484,0.0472478,0.0470418,-0.132907,4.7425,0.4375,0.595,0.049776,-0.40077,-1.03212,-0.06944,0.24654,0.3766
-16.4657,0,0,21.4657,21.4657,5,5,27.4428,2.43134,-20.2473,-0.0595078,-0.0872362,0.220909,5.775,-0.6475,0.5425,-0.057462,-0.53497,-0.681004,-0.06944,0.24654,0.3766
-16.468,0,0,21.468,21.468,5,5,27.4467,2.4296,-20.2462,-0.0594774,-0.0871747,0.220878,5.775,-0.6475,0.5425,-0.057462,-0.53497,-0.681004,-0.06944,0.24654,0.3766
-16.4705,0,0,21.4705,21.4705,5,5,27.4509,2.42857,-20.2453,0.0322622,-0.242577,-0.19927,5.9325,-0.315,0.28,0.034648,-0.690276,-1.09788,-0.06944,0.24654,0.3766
-16.4733,0,0,21.4733,21.4733,5,5,27.4555,2.42828,-20.2452,0.0322673,-0.242506,-0.199307,6.16,-0.1575,-0.35,0.034648,-0.690276,-1.09788,-0.06944,0.24654,0.3766
-16.476,0,0,21.476,21.476,5,5,27.46,2.42879,-20.2455,-0.0405116,0.0465167,-0.337169,6.16,0.1575,-0.77,-0.03843,-0.401624,-1.23464,-0.06944,0.24654,0.3766
-16.4788,0,0,21.4788,21.4788,5,5,27.4646,2.42931,-20.2458,-0.0405206,0.0465871,-0.337206,6.16,0.1575,-0.77,-0.03843,-0.401624,-1.23464,-0.06944,0.24654,0.3766
-16.4809,0,0,21.4809,21.4809,5,5,27.4681,2.42913,-20.2467,0.00868432,0.100988,0.254025,5.5825,-0.3675,-0.8925,0.01098,-0.347334,-0.647942,-0.06944,0.24654,0.3766
-16.4827,0,0,21.4827,21.4827,5,5,27.4712,2.42852,-20.2486,0.0086949,0.101036,0.254001,5.39,-0.8575,-1.295,0.01098,-0.347334,-0.647942,-0.06944,0.24654,0.3766
-16.638,0,0,21.638,21.638,5,5,27.7301,2.30707,-20.1375,-0.0487152,-0.171174,0.139735,5.9325,-0.665,-1.365,-0.0488,-0.623298,-0.759328,-0.06944,0.24654,0.3766
-16.789,0,0,21.789,21.789,5,5,27.9816,2.19066,-20.0286,-0.046685,-0.167258,0.137756,4.9,-0.175,-1.505,-0.0488,-0.623298,-0.759328,-0.06944,0.24654,0.3766
-16.82,0,0,21.82,21.82,5,5,28.0333,2.29354,-20.064,0.063652,-0.0126148,0.0911645,4.9,-0.175,-1.505,0.063806,-0.469578,-0.805078,-0.06944,0.24654,0.3766
-16.8515,0,0,21.8515,21.8515,5,5,28.0859,2.39243,-20.1087,0.0619275,-0.0118397,0.0906714,5.5475,-0.49,-1.5575,0.063806,-0.469578,-0.805078,-0.0644,0.2499,0.3766
-16.8534,0,0,21.8534,21.8534,5,5,28.0889,2.39257,-20.1103,0.445577,0.00200781,-0.20443,5.355,-0.4025,-1.3475,0.449082,-0.455792,-1.09788,-0.0644,0.2499,0.3766
-16.8547,0,0,21.8547,21.8547,5,5,28.0912,2.39219,-20.1113,0.445584,0.0020431,-0.204449,4.9,-0.5075,-0.8925,0.449082,-0.455792,-1.09788,-0.0644,0.2499,0.3766
-16.5698,0,0,21.5698,21.5698,5,5,27.6164,2.5303,-20.2859,0.0283017,0.420775,-0.124198,4.9,-0.5075,-0.8925,0.032452,-0.030134,-1.02199,-0.0644,0.2499,0.3766
-16.2901,0,0,21.2901,21.2901,5,5,27.1502,2.66395,-20.4606,0.0259713,0.413508,-0.120553,5.18,-0.245,-0.5425,0.032452,-0.030134,-1.02199,-0.0644,0.2499,0.3766
-16.2918,0,0,21.2918,21.2918,5,5,27.153,2.66368,-20.4608,0.290815,0.116173,-0.191271,5.18,-0.245,-0.5425,0.298412,-0.327204,-1.09214,-0.0644,0.2499,0.3766
-16.2941,0,0,21.2941,21.2941,5,5,27.1568,2.66358,-20.46,0.290817,0.116233,-0.191301,5.74,0.14,-0.0175,0.298412,-0.327204,-1.09214,-0.0644,0.2499,0.3766
-16.2964,0,0,21.2964,21.2964,5,5,27.1607,2.66348,-20.4591,0.0998429,0.204591,0.0650155,5.74,0.14,-0.0175,0.106628,-0.238998,-0.837774,-0.0644,0.2499,0.3766
-16.2985,0,0,21.2985,21.2985,5,5,27.1642,2.66465,-20.4571,0.0998226,0.204645,0.0649867,5.5125,1.12,0.2625,0.106628,-0.238998,-0.837774,-0.0644,0.2499,0.3766
-16.3014,0,0,21.3014,21.3014,5,5,27.169,2.66514,-20.4551,-0.049978,-0.285987,0.00605636,6.195,0.77,0.4375,-0.043798,-0.729194,-0.896212,-0.0644,0.2499,0.3766
-16.3034,0,0,21.3034,21.3034,5,5,27.1724,2.66415,-20.4536,-0.0499607,-0.285934,0.00603003,5.46,-0.14,0.5775,-0.043798,-0.729194,-0.896212,-0.0644,0.2499,0.3766
-16.1878,0,0,21.1878,21.1878,5,5,26.9796,3.11211,-20.7228,0.285064,0.120997,-0.0584462,5.46,-0.14,0.5775,0.300486,-0.319518,-0.96136,-0.0672,0.25214,0.3766
-16.0141,0,0,21.0141,21.0141,5,5,26.6901,3.04502,-20.7728,-0.08442,0.262587,-0.112177,6.09,-0.2625,0.4725,-0.071736,-0.173606,-1.01699,-0.0672,0.25214,0.3766
-15.8429,0,0,20.8429,20.8429,5,5,26.4049,2.97908,-20.8221,-0.0832708,0.258166,-0.109901,5.635,0,0.385,-0.071736,-0.173606,-1.01699,-0.0672,0.25214,0.3766
-15.932,0,0,20.932,20.932,5,5,26.5534,3.36986,-20.9935,0.303897,-0.184349,0.0733988,5.74,0.4025,-0.07,0.32391,-0.617808,-0.833626,-0.0672,0.25214,0.3766
-16.0203,0,0,21.0203,21.0203,5,5,26.7004,3.7508,-21.1611,0.297262,-0.182244,0.0718816,5.74,0.4025,-0.07,0.32391,-0.617808,-0.833626,-0.0672,0.25214,0.3766
-16.0229,0,0,21.0229,21.0229,5,5,26.7048,3.74983,-21.1618,-0.306384,-0.0722613,-0.306587,6.0725,-0.7175,-0.5775,-0.282308,-0.508008,-1.20914,-0.0672,0.25214,0.3766
-16.0255,0,0,21.0255,21.0255,5,5,26.7092,3.74886,-21.1625,-0.306367,-0.0721928,-0.30662,6.0725,-0.7175,-0.5775,-0.282308,-0.508008,-1.20914,-0.0672,0.25214,0.3766
-16.1121,0,0,21.1121,21.1121,5,5,26.8535,3.7634,-21.1539,0.0232134,-0.109892,0.0691924,5.88,3.9025,-1.4175,0.048922,-0.547902,-0.83509,-0.0672,0.25214,0.3766
-16.1971,0,0,21.1971,21.1971,5,5,26.9951,3.7781,-21.1455,0.0229575,-0.1077,0.0680605,5.88,3.9025,-1.4175,0.048922,-0.547902,-0.83509,-0.0672,0.25214,0.3766
-16.1906,0,0,21.1906,21.1906,5,5,26.9844,3.89167,-21.2249,0.0597336,0.0413111,0.0815519,5.8625,0.2975,-1.1725,0.08784,-0.398818,-0.82167,-0.0672,0.25214,0.3766
-16.1845,0,0,21.1845,21.1845,5,5,26.9741,4.00215,-21.3035,0.0578099,0.0410924,0.0815143,5.8625,0.2975,-1.1725,0.08784,-0.398818,-0.82167,-0.0672,0.25214,0.3766
-16.1868,0,0,21.1868,21.1868,5,5,26.9781,4.00261,-21.3042,-0.163059,-0.111872,0.225578,5.8275,0.035,-0.945,-0.133956,-0.551684,-0.678686,-0.0672,0.25214,0.3766
-16.1887,0,0,21.1887,21.1887,5,5,26.9812,4.00227,-21.3048,-0.163053,-0.111823,0.225554,5.3725,-0.3675,-0.7,-0.133956,-0.551684,-0.678686,-0.06482,0.23898,0.38318
-16.1905,0,0,21.1905,21.1905,5,5,26.9842,4.00132,-21.3051,-0.0286733,0.147255,-0.189051,5.285,-0.6125,-0.385,0.000976,-0.292922,-1.09007,-0.06482,0.23898,0.38318
-16.1924,0,0,21.1924,21.1924,5,5,26.9873,4.00062,-21.3048,-0.0286612,0.147303,-0.189074,5.3025,-0.315,-0.14,0.000976,-0.292922,-1.09007,-0.06482,0.23898,0.38318
-16.2213,0,0,21.2213,21.2213,5,5,27.0356,3.44533,-21.0296,-0.37057,0.0329283,0.00733004,5.3025,-0.315,-0.14,-0.352092,-0.408212,-0.895358,-0.06482,0.23898,0.38318
-16.2489,0,0,21.2489,21.2489,5,5,27.0815,2.904,-20.7557,-0.361136,0.033879,0.00743192,5.8275,0.315,0.105,-0.352092,-0.408212,-0.895358,-0.06482,0.23898,0.38318
-16.2513,0,0,21.2513,21.2513,5,5,27.0855,2.90407,-20.7545,0.169633,-0.0657137,0.336656,5.8275,0.315,0.105,0.180926,-0.507764,-0.568642,-0.06482,0.23898,0.38318
-16.2534,0,0,21.2534,21.2534,5,5,27.089,2.90468,-20.7523,0.169623,-0.0656606,0.336628,5.46,0.875,0.5075,0.180926,-0.507764,-0.568642,-0.06482,0.23898,0.38318
-16.3255,0,0,21.3255,21.3255,5,5,27.2091,2.6566,-20.5958,-0.15868,-0.111452,-0.0299127,5.46,0.875,0.5075,-0.15311,-0.555466,-0.931592,-0.06482,0.23898,0.38318
-16.3965,0,0,21.3965,21.3965,5,5,27.3275,2.41424,-20.442,-0.154454,-0.109533,-0.0306916,6.3175,0.1925,0.595,-0.15311,-0.555466,-0.931592,-0.06482,0.23898,0.38318
-16.1979,0,0,21.1979,21.1979,5,5,26.9965,2.76288,-20.675,0.205989,0.257328,-0.136743,6.3175,0.1925,0.595,0.214964,-0.183732,-1.0392,-0.06482,0.23898,0.38318
-16.0024,0,0,21.0024,21.0024,5,5,26.6707,3.10104,-20.9096,0.200095,0.252124,-0.134448,5.74,-0.49,0.3325,0.214964,-0.183732,-1.0392,-0.06482,0.23898,0.38318
-15.9713,0,0,20.9713,20.9713,5,5,26.6188,2.5978,-20.6829,-0.32324,0.141109,0.046836,5.74,-0.49,0.3325,-0.319396,-0.29402,-0.8601,-0.06608,0.24304,0.3738
-15.9398,0,0,20.9398,20.9398,5,5,26.5664,2.10703,-20.4567,-0.314682,0.140449,0.0475597,5.985,-0.035,0.07,-0.319396,-0.29402,-0.8601,-0.06608,0.24304,0.3738
-15.9424,0,0,20.9424,20.9424,5,5,26.5707,2.1066,-20.4558,0.413632,-0.0561083,0.362152,5.985,-0.035,0.07,0.411994,-0.49044,-0.547902,-0.06608,0.24304,0.3738
-15.9457,0,0,20.9457,20.9457,5,5,26.5761,2.10592,-20.4561,0.413644,-0.0560228,0.362109,6.6675,-0.4725,-0.4725,0.411994,-0.49044,-0.547902,-0.06608,0.24304,0.3738
-15.878,0,0,20.878,20.878,5,5,26.4633,1.62401,-20.2435,-0.347683,0.16351,-0.0646276,6.6675,-0.4725,-0.4725,-0.360998,-0.269498,-0.972462,-0.06608,0.24304,0.3738
-15.8096,0,0,20.8096,20.8096,5,5,26.3494,1.15332,-20.0313,-0.33947,0.161818,-0.0635651,5.8975,-0.49,-1.085,-0.360998,-0.269498,-0.972462,-0.06608,0.24304,0.3738
-15.8121,0,0,20.8121,20.8121,5,5,26.3534,1.15307,-20.0326,0.240629,0.112909,-0.207323,5.8975,-0.49,-1.085,0.221552,-0.31842,-1.11508,-0.06608,0.24304,0.3738
-15.8157,0,0,20.8157,20.8157,5,5,26.3594,1.15265,-20.0343,0.240636,0.113003,-0.20737,6.9825,-0.7,-1.26,0.221552,-0.31842,-1.11508,-0.06608,0.24304,0.3738
-15.7584,0,0,20.7584,20.7584,5,5,26.2641,0.805222,-19.8742,-0.24714,0.126823,-0.0581405,6.9825,-0.7,-1.26,-0.274378,-0.30317,-0.967826,-0.06608,0.24304,0.3738
-15.7004,0,0,20.7004,20.7004,5,5,26.1673,0.466331,-19.7134,-0.241226,0.125336,-0.0573354,5.88,-0.315,-0.98,-0.274378,-0.30317,-0.967826,-0.06608,0.24304,0.3738
-15.7028,0,0,20.7028,20.7028,5,5,26.1713,0.466275,-19.7144,0.373371,-0.280671,-0.00203987,5.88,-0.315,-0.98,0.34282,-0.70882,-0.912926,-0.06608,0.24304,0.3738
-15.7056,0,0,20.7056,20.7056,5,5,26.176,0.465522,-19.7156,0.373384,-0.280598,-0.00207588,6.23,-0.735,-0.91,0.34282,-0.70882,-0.912926,-0.06608,0.24304,0.3738
-15.7084,0,0,20.7084,20.7084,5,5,26.1807,0.46477,-19.7168,0.0118559,0.258787,-0.22305,6.23,-0.735,-0.91,-0.020252,-0.170068,-1.13216,-0.06524,0.2471,0.37786
-15.5227,0,0,20.5227,20.5227,5,5,25.8712,0.877043,-19.9739,0.2548,0.238875,-0.113545,6.475,-0.035,-0.5775,0.230946,-0.185074,-1.02578,-0.06524,0.2471,0.37786
-15.3414,0,0,20.3414,20.3414,5,5,25.569,1.2783,-20.2308,0.247798,0.234066,-0.111375,7.3325,0.1925,-0.035,0.230946,-0.185074,-1.02578,-0.06524,0.2471,0.37786
-15.2465,0,0,20.2465,20.2465,5,5,25.4108,1.10887,-20.1773,-0.14043,0.146723,-0.126729,7.3325,0.1925,-0.035,-0.161894,-0.269864,-1.04225,-0.06524,0.2471,0.37786
-15.152,0,0,20.152,20.152,5,5,25.2533,0.944423,-20.1229,-0.13756,0.14426,-0.125507,6.3525,1.0325,0.0175,-0.161894,-0.269864,-1.04225,-0.06524,0.2471,0.37786
-15.202,0,0,20.202,20.202,5,5,25.3366,1.11355,-20.1866,0.118618,-0.0715889,0.062673,6.3525,1.0325,0.0175,0.098332,-0.48678,-0.854854,-0.06524,0.2471,0.37786
-15.2509,0,0,20.2509,20.2509,5,5,25.4182,1.27689,-20.2495,0.115768,-0.0703279,0.0620091,5.9675,0.105,0.1925,0.098332,-0.48678,-0.854854,-0.06524,0.2471,0.37786
-15.1064,0,0,20.1064,20.1064,5,5,25.1774,1.30315,-20.3118,-0.0114003,0.22459,-0.0327191,5.9675,0.105,0.1925,-0.028914,-0.188368,-0.950624,-0.06524,0.2471,0.37786
-14.9647,0,0,19.9647,19.9647,5,5,24.9412,1.32763,-20.3738,-0.0118275,0.220853,-0.0309823,6.09,-0.105,0.385,-0.028914,-0.188368,-0.950624,-0.06524,0.2471,0.37786
-15.0086,0,0,20.0086,20.0086,5,5,25.0144,1.50098,-20.447,0.138706,-0.118021,-0.0340485,6.09,-0.105,0.385,0.125294,-0.528016,-0.953064,-0.06524,0.2471,0.37786
-15.0531,0,0,20.0531,20.0531,5,5,25.0885,1.66968,-20.5195,0.135763,-0.116885,-0.0346695,7.035,-0.35,0.28,0.125294,-0.528016,-0.953064,-0.06524,0.2471,0.37786
-15.014,0,0,20.014,20.014,5,5,25.0234,2.08148,-20.7456,0.289912,0.00667785,-0.0316968,7.035,-0.35,0.28,0.28731,-0.403454,-0.95038,-0.06524,0.2471,0.37786
-14.9755,0,0,19.9755,19.9755,5,5,24.9592,2.48464,-20.9776,0.282881,0.00554513,-0.0314781,6.6675,0.105,-0.77,0.28731,-0.403454,-0.95038,-0.0672,0.25298,0.37702
-14.9713,0,0,19.9713,19.9713,5,5,24.9522,2.27967,-20.8966,-0.149678,-0.00329497,-0.10002,6.6675,0.105,-0.77,-0.15067,-0.412238,-1.01858,-0.0672,0.25298,0.37702
-14.9669,0,0,19.9669,19.9669,5,5,24.9448,2.08001,-20.8165,-0.146196,-0.00335647,-0.0998457,6.72,0.1225,-0.9625,-0.15067,-0.412238,-1.01858,-0.0672,0.25298,0.37702
-14.9712,0,0,19.9712,19.9712,5,5,24.952,2.23689,-20.9102,0.094647,0.0167429,0.0803732,6.58,0.0875,-1.12,0.09394,-0.39223,-0.839604,-0.0672,0.25298,0.37702
-14.9763,0,0,19.9763,19.9763,5,5,24.9604,2.3881,-21.0033,0.09201,0.0168308,0.0802148,7.0875,-0.8925,-1.0675,0.09394,-0.39223,-0.839604,-0.0672,0.25298,0.37702
-14.98,0,0,19.98,19.98,5,5,24.9666,2.38719,-21.0049,0.0487769,0.183387,0.0655392,7.0875,-0.8925,-1.0675,0.050508,-0.225944,-0.854122,-0.0672,0.25298,0.37702
-14.9832,0,0,19.9832,19.9832,5,5,24.972,2.38701,-21.0061,0.04878,0.183472,0.0654998,6.6325,-0.4375,-1.1025,0.050508,-0.225944,-0.854122,-0.0672,0.25298,0.37702
-14.9194,0,0,19.9194,19.9194,5,5,24.8656,2.32428,-21.0181,-0.0554541,0.129172,0.0352162,6.6325,-0.4375,-1.1025,-0.055266,-0.278526,-0.884988,-0.0672,0.25298,0.37702
-14.8569,0,0,19.8569,19.8569,5,5,24.7615,2.26251,-21.029,-0.0543768,0.127543,0.036017,6.8775,-0.42,-0.6825,-0.055266,-0.278526,-0.884988,-0.0672,0.25298,0.37702
-14.8604,0,0,19.8604,19.8604,5,5,24.7674,2.26205,-21.0296,0.299033,0.113225,-0.190128,6.8775,-0.42,-0.6825,0.299632,-0.292922,-1.10935,-0.0672,0.25298,0.37702
-14.8626,0,0,19.8626,19.8626,5,5,24.7711,2.26092,-21.0298,0.299053,0.113283,-0.190154,5.67,-0.6825,-0.315,0.299632,-0.292922,-1.10935,-0.0672,0.25298,0.37702
-15.0906,0,0,20.0906,20.0906,5,5,25.151,2.09103,-20.8777,-0.0662074,-0.247897,0.218661,6.16,-0.7,-0.2625,-0.07015,-0.659776,-0.701012,-0.0672,0.25298,0.37702
-15.3136,0,0,20.3136,20.3136,5,5,25.5227,1.92916,-20.7241,-0.063384,-0.241995,0.215975,6.265,0,0.1225,-0.07015,-0.659776,-0.701012,-0.0665,0.25046,0.3794
-15.3725,0,0,20.3725,20.3725,5,5,25.6208,2.01059,-20.7498,0.0620268,-0.064121,0.0817937,6.3,0.105,0.1575,0.057218,-0.483608,-0.833382,-0.0665,0.25046,0.3794
-15.4304,0,0,20.4304,20.4304,5,5,25.7173,2.09001,-20.7747,0.0606415,-0.0626252,0.0810198,6.2825,0.07,0.3325,0.057218,-0.483608,-0.833382,-0.0665,0.25046,0.3794
-15.4333,0,0,20.4333,20.4333,5,5,25.7222,2.08956,-20.7734,0.178369,-0.230107,-0.377123,6.2825,0.07,0.3325,0.175436,-0.650992,-1.28795,-0.0665,0.25046,0.3794
-15.4378,0,0,20.4378,20.4378,5,5,25.7297,2.08999,-20.7715,0.178362,-0.229989,-0.37718,7.77,0.665,0.385,0.175436,-0.650992,-1.28795,-0.0665,0.25046,0.3794
-15.3344,0,0,20.3344,20.3344,5,5,25.5573,2.16928,-20.8554,0.0245139,0.172494,0.0223055,7.77,0.665,0.385,0.022326,-0.246196,-0.892796,-0.0665,0.25046,0.3794
-15.2334,0,0,20.2334,20.2334,5,5,25.389,2.24445,-20.9402,0.023203,0.169823,0.023522,8.2425,-0.4725,0.14,0.022326,-0.246196,-0.892796,-0.0665,0.25046,0.3794
-15.1675,0,0,20.1675,20.1675,5,5,25.2792,2.24703,-20.9772,-0.010858,0.0821146,-0.0994694,8.2425,-0.4725,0.14,-0.011834,-0.332084,-1.01565,-0.0665,0.25046,0.3794
-15.1027,0,0,20.1027,20.1027,5,5,25.1711,2.24846,-21.0147,-0.0108829,0.0804086,-0.0986669,8.05,-1.05,-0.0875,-0.011834,-0.332084,-1.01565,-0.0665,0.25046,0.3794
-15.1171,0,0,20.1171,20.1171,5,5,25.1951,1.96557,-20.8808,-0.191093,0.012108,-0.0181497,8.05,-1.05,-0.0875,-0.197762,-0.40077,-0.93574,-0.0665,0.25046,0.3794
-15.1294,0,0,20.1294,20.1294,5,5,25.2156,1.69131,-20.7482,-0.186309,0.0124959,-0.0181635,6.8775,-0.2625,-0.525,-0.197762,-0.40077,-0.93574,-0.0665,0.25046,0.3794
-15.1329,0,0,20.1329,20.1329,5,5,25.2214,1.69099,-20.7484,0.0171853,-0.0384607,0.355925,6.8775,-0.2625,-0.525,0.006588,-0.451766,-0.564494,-0.06706,0.24514,0.37758
-15.1363,0,0,20.1363,20.1363,5,5,25.2271,1.69196,-20.7491,0.129786,0.479202,-0.185705,6.79,0.315,-1.0675,0.119682,0.06527,-1.1019,-0.06706,0.24514,0.37758
-15.1409,0,0,20.1409,20.1409,5,5,25.2349,1.69206,-20.7506,0.0595652,-0.213989,-0.00404512,7.9625,-0.3675,-1.33,0.049166,-0.627324,-0.921588,-0.06706,0.24514,0.37758
-15.1462,0,0,20.1462,20.1462,5,5,25.2436,1.69215,-20.7518,0.0595635,-0.213851,-0.00411051,8.54,-0.28,-1.1375,0.049166,-0.627324,-0.921588,-0.06706,0.24514,0.37758
-15.1515,0,0,20.1515,20.1515,5,5,25.2524,1.69225,-20.753,0.20984,0.0701102,0.19623,8.54,-0.28,-1.1375,0.20008,-0.343796,-0.722728,-0.06706,0.24514,0.37758
-15.1561,0,0,20.1561,20.1561,5,5,25.2602,1.69172,-20.7536,0.209849,0.0702335,0.196172,7.98,-0.455,-0.6475,0.20008,-0.343796,-0.722728,-0.06706,0.24514,0.37758
-15.1608,0,0,20.1608,20.1608,5,5,25.268,1.69119,-20.7541,0.281899,-0.157776,-0.296048,7.98,-0.455,-0.6475,0.272426,-0.571692,-1.21109,-0.06706,0.24514,0.37758
-15.166,0,0,20.166,20.166,5,5,25.2767,1.6899,-20.7544,0.281922,-0.157639,-0.296113,8.47,-0.7875,-0.315,0.272426,-0.571692,-1.21109,-0.06706,0.24514,0.37758
-15.1655,0,0,20.1655,20.1655,5,5,25.2758,1.74072,-20.7779,0.0288308,0.0370059,0.0762811,7.315,-0.77,-0.0175,0.019154,-0.377224,-0.841556,-0.06706,0.24514,0.37758
-15.1644,0,0,20.1644,20.1644,5,5,25.274,1.79786,-20.7972,0.027834,0.0369646,0.0762666,6.65,4.27,0.1575,0.019154,-0.377224,-0.841556,-0.06706,0.24514,0.37758
-15.1678,0,0,20.1678,20.1678,5,5,25.2796,1.80403,-20.7931,-0.192284,-0.052712,0.196834,6.65,4.27,0.1575,-0.201788,-0.466894,-0.721874,-0.06706,0.24514,0.37758
-15.1709,0,0,20.1709,20.1709,5,5,25.2848,1.80487,-20.7913,0.218201,0.166831,-0.209304,6.475,0.8575,0.245,0.21045,-0.24766,-1.12484,-0.07,0.24584,0.37324
-15.1744,0,0,20.1744,20.1744,5,5,25.2906,1.80429,-20.7899,0.218211,0.166923,-0.209346,6.825,0.0175,0.42,0.21045,-0.24766,-1.12484,-0.07,0.24584,0.37324
-15.301,0,0,20.301,20.301,5,5,25.5016,1.3623,-20.5225,-0.255647,-0.0730584,0.15258,6.825,0.0175,0.42,-0.273158,-0.490806,-0.76433,-0.07,0.24584,0.37324
-15.4248,0,0,20.4248,20.4248,5,5,25.7081,0.931684,-20.2589,-0.248133,-0.0697448,0.151159,7.5775,0.14,0.7175,-0.273158,-0.490806,-0.76433,-0.07,0.24584,0.37324
-15.4291,0,0,20.4291,20.4291,5,5,25.7152,0.931057,-20.257,0.124354,0.0570129,0.342659,7.5775,0.14,0.7175,0.100894,-0.364292,-0.574254,-0.07,0.24584,0.37324
-15.4348,0,0,20.4348,20.4348,5,5,25.7246,0.931444,-20.2552,0.124347,0.0571603,0.342588,8.8375,0.6125,0.3325,0.100894,-0.364292,-0.574254,-0.07,0.24584,0.37324
-15.4404,0,0,20.4404,20.4404,5,5,25.734,0.93183,-20.2535,0.270123,0.300584,-0.207555,8.8375,0.6125,0.3325,0.247294,-0.121268,-1.12008,-0.07,0.24584,0.37324
-15.4461,0,0,20.4461,20.4461,5,5,25.7436,0.930334,-20.2525,0.270149,0.300735,-0.207627,8.96,-0.56,0.4375,0.247294,-0.121268,-1.12008,-0.07,0.24584,0.37324
-15.4405,0,0,20.4405,20.4405,5,5,25.7342,0.809522,-20.1844,-0.0795653,0.0419381,0.0152548,8.96,-0.56,0.4375,-0.106018,-0.379664,-0.899018,-0.07,0.24584,0.37324
-15.4572,0,0,20.4572,20.4572,5,5,25.7619,0.698608,-20.1134,-0.0755644,-0.0434707,-0.0767747,8.3125,-1.015,0.21,-0.103944,-0.46543,-0.990152,-0.07,0.24584,0.37324
-15.4733,0,0,20.4733,20.4733,5,5,25.7888,0.593056,-20.0435,-0.0737222,-0.0430388,-0.0769603,8.3825,0.1575,-0.6125,-0.103944,-0.46543,-0.990152,-0.07,0.24584,0.37324
-15.4784,0,0,20.4784,20.4784,5,5,25.7974,0.593445,-20.0436,-0.0655895,0.318957,0.0213336,8.3825,0.1575,-0.6125,-0.09577,-0.103944,-0.892552,-0.07,0.24584,0.37324
-15.482,0,0,20.482,20.482,5,5,25.8033,0.594971,-20.0437,0.0785874,0.0991,-0.242313,6.93,0.7525,-0.91,0.049044,-0.323666,-1.15412,-0.07,0.24584,0.37324
-15.4856,0,0,20.4856,20.4856,5,5,25.8093,0.593803,-20.0454,0.0786078,0.0991947,-0.242359,6.9825,-1.1025,-1.12,0.049044,-0.323666,-1.15412,-0.06272,0.2415,0.37828
-15.5147,0,0,20.5147,20.5147,5,5,25.8578,0.177197,-19.8127,-0.281737,0.0108241,0.00530395,6.9825,-1.1025,-1.12,-0.320128,-0.412726,-0.908046,-0.06272,0.2415,0.37828
-15.5443,0,0,20.5443,20.5443,5,5,25.9071,-0.22827,-19.5814,-0.27466,0.0115979,0.00492502,8.925,-0.4725,-1.1725,-0.320128,-0.412726,-0.908046,-0.06272,0.2415,0.37828
-15.55,0,0,20.55,20.55,5,5,25.9166,-0.228428,-19.5828,0.121386,0.171,0.246569,8.925,-0.4725,-1.1725,0.077592,-0.253638,-0.668194,-0.06272,0.2415,0.37828
-15.5553,0,0,20.5553,20.5553,5,5,25.9255,-0.229562,-19.5842,0.121406,0.171139,0.246502,8.5575,-0.9975,-0.945,0.077592,-0.253638,-0.668194,-0.06272,0.2415,0.37828
-15.5606,0,0,20.5606,20.5606,5,5,25.9344,-0.230697,-19.5856,0.0124528,-0.388062,-0.116879,8.5575,-0.9975,-0.945,-0.031842,-0.812398,-1.0287,-0.06272,0.2415,0.37828
-15.5659,0,0,20.5659,20.5659,5,5,25.9432,-0.233069,-19.5865,0.0124942,-0.387924,-0.116946,8.5225,-1.505,-0.3325,-0.031842,-0.812398,-1.0287,-0.06272,0.2415,0.37828
-15.5598,0,0,20.5598,20.5598,5,5,25.9331,-0.231564,-19.5678,0.00104828,0.0503525,0.0663242,8.5225,-1.505,-0.3325,-0.04331,-0.374418,-0.846924,-0.06272,0.2415,0.37828
-15.553,0,0,20.553,20.553,5,5,25.9217,-0.227872,-19.5487,0.000983847,0.0501737,0.0664115,7.6825,-0.175,-0.6125,-0.04331,-0.374418,-0.846924,-0.06272,0.2415,0.37828
-15.5572,0,0,20.5572,20.5572,5,5,25.9286,-0.227144,-19.5483,0.371138,0.079471,-0.200194,7.49,0.4375,-0.49,0.328424,-0.34526,-1.11142,-0.06272,0.2415,0.37828
-15.561,0,0,20.561,20.561,5,5,25.935,-0.226282,-19.5465,0.371123,0.0795722,-0.200243,7.21,0.8925,0.2625,0.328424,-0.34526,-1.11142,-0.06272,0.2415,0.37828
-15.4861,0,0,20.4861,20.4861,5,5,25.8101,0.217997,-19.7705,0.311859,0.052208,-0.0790472,7.21,0.8925,0.2625,0.276696,-0.370636,-0.992104,-0.06272,0.2415,0.37828
-15.4901,0,0,20.4901,20.4901,5,5,25.8168,0.216635,-19.7695,-0.101412,0.101896,-0.24348,7.3325,-0.49,0.4025,-0.138348,-0.321104,-1.15522,-0.0644,0.24626,0.38318
-15.4957,0,0,20.4957,20.4957,5,5,25.8261,0.21698,-19.7687,-0.101418,0.102043,-0.243551,8.82,0.35,-0.1575,-0.138348,-0.321104,-1.15522,-0.0644,0.24626,0.38318
-15.4177,0,0,20.4177,20.4177,5,5,25.6961,0.414796,-19.8798,0.109188,0.127226,0.0281505,8.82,0.35,-0.1575,0.076616,-0.293898,-0.886574,-0.0644,0.24626,0.38318
-15.342,0,0,20.342,20.342,5,5,25.57,0.607278,-19.9905,0.105828,0.125228,0.0290756,9.415,0.35,-0.245,0.076616,-0.293898,-0.886574,-0.0644,0.24626,0.38318
-15.3482,0,0,20.3482,20.3482,5,5,25.5804,0.607692,-19.9899,0.117605,0.0632294,0.226207,9.415,0.35,-0.245,0.08845,-0.355996,-0.690886,-0.0644,0.24626,0.38318
-15.3541,0,0,20.3541,20.3541,5,5,25.5902,0.605296,-19.9902,0.117647,0.0633836,0.226133,9.0825,-1.3825,-0.0525,0.08845,-0.355996,-0.690886,-0.0644,0.24626,0.38318
-15.36,0,0,20.36,20.36,5,5,25.6,0.6029,-19.9905,-0.0839774,0.315363,0.061309,9.0825,-1.3825,-0.0525,-0.11407,-0.104432,-0.854366,-0.0644,0.24626,0.38318
-15.3652,0,0,20.3652,20.3652,5,5,25.6087,0.60081,-19.9919,-0.0839409,0.3155,0.0612436,8.4875,-1.47,-0.6475,-0.11407,-0.104432,-0.854366,-0.0644,0.24626,0.38318
-15.3704,0,0,20.3704,20.3704,5,5,25.6174,0.59872,-19.9932,-0.148413,-0.0349882,0.220274,8.4875,-1.47,-0.6475,-0.178852,-0.454694,-0.696498,-0.0644,0.24626,0.38318
-15.2521,0,0,20.2521,20.2521,5,5,25.4202,0.60176,-20.0241,-0.0219998,0.166712,-0.130123,7.1575,0.7525,-0.8925,-0.05185,-0.2501,-1.04566,-0.0644,0.24626,0.38318
-15.1354,0,0,20.1354,20.1354,5,5,25.2257,0.602692,-20.0557,-0.022016,0.163645,-0.128671,6.7375,-0.245,-0.91,-0.05185,-0.2501,-1.04566,-0.0644,0.24626,0.38318
-15.1388,0,0,20.1388,20.1388,5,5,25.2313,0.602677,-20.0565,0.0735935,-0.00577905,0.385826,6.7375,-0.245,-0.91,0.044164,-0.419436,-0.535092,-0.0644,0.24626,0.38318
-15.1446,0,0,20.1446,20.1446,5,5,25.2409,0.60131,-20.058,0.0736173,-0.00562713,0.385755,8.995,-1.12,-0.91,0.044164,-0.419436,-0.535092,-0.06566,0.24892,0.38192
-14.9973,0,0,19.9973,19.9973,5,5,24.9955,1.07841,-20.3465,0.314215,0.18377,-0.0798646,9.59,-0.035,-0.8575,0.294142,-0.22631,-0.998814,-0.06566,0.24892,0.38192
-14.8528,0,0,19.8528,19.8528,5,5,24.7547,1.54323,-20.6349,0.306105,0.17988,-0.0782655,9.59,-0.035,-0.8575,0.294142,-0.22631,-0.998814,-0.06566,0.24892,0.38192
-14.8593,0,0,19.8593,19.8593,5,5,24.7655,1.54341,-20.6358,-0.0650369,0.0468109,-0.191211,9.6775,-0.1575,-0.9975,-0.078568,-0.359412,-1.11081,-0.06566,0.24892,0.38192
-14.8641,0,0,19.8641,19.8641,5,5,24.7734,1.542,-20.6361,-0.0650123,0.0469364,-0.191269,8.0325,-0.8575,-0.2975,-0.078568,-0.359412,-1.11081,-0.06566,0.24892,0.38192
-14.8047,0,0,19.8047,19.8047,5,5,24.6744,1.52501,-20.6553,-0.0236538,0.110464,0.00458033,8.0325,-0.8575,-0.2975,-0.037332,-0.294386,-0.917196,-0.06566,0.24892,0.38192
-14.7455,0,0,19.7455,19.7455,5,5,24.5759,1.50962,-20.6734,-0.0233852,0.108905,0.00530299,7.2975,0.1575,-0.14,-0.037332,-0.294386,-0.917196,-0.06566,0.24892,0.38192
-14.8253,0,0,19.8253,19.8253,5,5,24.7089,1.03863,-20.4098,-0.280613,0.0010531,0.144663,7.2975,0.1575,-0.14,-0.303902,-0.404308,-0.778116,-0.06566,0.24892,0.38192
-14.9024,0,0,19.9024,19.9024,5,5,24.8374,0.579825,-20.1485,-0.272606,0.0031374,0.143826,7.2975,0.735,0.105,-0.303902,-0.404308,-0.778116,-0.06566,0.24892,0.38192
-14.9064,0,0,19.9064,19.9064,5,5,24.844,0.580591,-20.147,0.209678,0.269601,0.192219,7.2975,0.735,0.105,0.180438,-0.138226,-0.730048,-0.06566,0.24892,0.38192
-14.8619,0,0,19.8619,19.8619,5,5,24.7699,0.373264,-20.0502,-0.155777,0.0861033,-0.0638042,7.455,0.7175,0.35,-0.190198,-0.320372,-0.984662,-0.06566,0.24892,0.38192
-14.8192,0,0,19.8192,19.8192,5,5,24.6986,0.169307,-19.9541,-0.152217,0.084981,-0.0632686,8.6975,-0.175,0.49,-0.190198,-0.320372,-0.984662,-0.06566,0.24892,0.38192
-14.8246,0,0,19.8246,19.8246,5,5,24.7077,0.16839,-19.9527,-0.163985,-0.00463781,-0.107228,8.6975,-0.175,0.49,-0.202032,-0.410042,-1.02822,-0.06566,0.24892,0.38192
-14.8319,0,0,19.8319,19.8319,5,5,24.7198,0.168337,-19.951,-0.0670386,-0.328571,-0.0115388,10.36,0.35,0.42,-0.104676,-0.73383,-0.933178,-0.06734,0.24332,0.38612
-14.8397,0,0,19.8397,19.8397,5,5,24.7329,0.167557,-19.9499,-0.067025,-0.328364,-0.0116342,10.92,-0.175,0.2975,-0.104676,-0.73383,-0.933178,-0.06734,0.24332,0.38612
-14.8352,0,0,19.8352,19.8352,5,5,24.7253,0.541138,-20.1257,0.244626,0.00417312,0.0639976,10.92,-0.175,0.2975,0.214842,-0.401502,-0.858148,-0.06734,0.24332,0.38612
-14.8291,0,0,19.8291,19.8291,5,5,24.7152,0.904221,-20.3002,0.238289,0.00397957,0.0639987,8.96,-0.8225,0.175,0.214842,-0.401502,-0.858148,-0.06734,0.24332,0.38612
-14.6746,0,0,19.6746,19.6746,5,5,24.4576,0.905562,-20.3459,-0.0273016,0.245122,-0.0778579,8.96,-0.8225,0.175,-0.05185,-0.156526,-1.00077,-0.06734,0.24332,0.38612
-14.5205,0,0,19.5205,19.5205,5,5,24.2008,0.907943,-20.3915,-0.0273432,0.241038,-0.0760124,6.8775,0.0525,-0.315,-0.05185,-0.156526,-1.00077,-0.06734,0.24332,0.38612
-14.524,0,0,19.524,19.524,5,5,24.2067,0.907958,-20.3912,0.0436042,0.449846,0.165294,6.8775,0.0525,-0.315,0.019398,0.051972,-0.76128,-0.06734,0.24332,0.38612
-14.5276,0,0,19.5276,19.5276,5,5,24.2127,0.909198,-20.39,0.0435826,0.449942,0.16525,6.9475,0.91,-0.1575,0.019398,0.051972,-0.76128,-0.06734,0.24332,0.38612
-14.5312,0,0,19.5312,19.5312,5,5,24.2187,0.910437,-20.3888,-0.00977129,-0.425978,-0.0286827,6.9475,0.91,-0.1575,-0.03416,-0.823134,-0.953674,-0.06734,0.24332,0.38612
-14.5368,0,0,19.5368,19.5368,5,5,24.228,0.909229,-20.3886,-0.159421,0.263331,0.207681,8.8025,-0.63,-0.0875,-0.184464,-0.134688,-0.719068,-0.06734,0.24332,0.38612
-14.5437,0,0,19.5437,19.5437,5,5,24.2395,0.908318,-20.3898,-0.159405,0.263514,0.207599,10.0625,-0.7875,-0.8575,-0.184464,-0.134688,-0.719068,-0.06734,0.24332,0.38612
-14.6037,0,0,19.6037,19.6037,5,5,24.3395,0.845172,-20.3293,-0.0324435,-0.057547,0.0553009,10.0625,-0.7875,-0.8575,-0.058072,-0.457012,-0.869494,-0.06734,0.24332,0.38612
-14.6291,0,0,19.6291,19.6291,5,5,24.3819,1.11502,-20.4503,0.195735,-0.0648439,0.00537382,11.3925,0.105,-0.875,0.175802,-0.464942,-0.91866,-0.06874,0.24402,0.38556
-14.6534,0,0,19.6534,19.6534,5,5,24.4224,1.37681,-20.5691,0.191167,-0.0642414,0.00499135,10.3425,-0.4025,-0.245,0.175802,-0.464942,-0.91866,-0.06874,0.24402,0.38556
-14.6607,0,0,19.6607,19.6607,5,5,24.4345,1.37607,-20.569,-0.0338111,-0.145386,-0.114478,10.3425,-0.4025,-0.245,-0.050142,-0.546194,-1.03712,-0.06874,0.24402,0.38556
-14.6663,0,0,19.6663,19.6663,5,5,24.4439,1.37367,-20.5693,-0.0337692,-0.145236,-0.114545,8.89,-1.4,-0.0875,-0.050142,-0.546194,-1.03712,-0.06874,0.24402,0.38556
-14.5886,0,0,19.5886,19.5886,5,5,24.3143,1.22422,-20.5182,-0.11851,0.137161,-0.0686818,8.89,-1.4,-0.0875,-0.13786,-0.262056,-0.992592,-0.06874,0.24402,0.38556
-14.5098,0,0,19.5098,19.5098,5,5,24.183,1.08167,-20.4657,-0.116022,0.135093,-0.0676952,6.86,0.8225,-0.3325,-0.13786,-0.262056,-0.992592,-0.06874,0.24402,0.38556
-14.5133,0,0,19.5133,19.5133,5,5,24.1888,1.08289,-20.4649,0.329687,0.236551,0.255248,6.86,0.8225,-0.3325,0.309758,-0.160796,-0.672098,-0.06874,0.24402,0.38556
-14.5168,0,0,19.5168,19.5168,5,5,24.1946,1.08429,-20.4632,0.329663,0.236643,0.255207,6.825,1.12,0.0875,0.309758,-0.160796,-0.672098,-0.06874,0.24402,0.38556
-14.5202,0,0,19.5202,19.5202,5,5,24.2004,1.08568,-20.4615,0.138299,-0.226125,-0.238351,6.825,1.12,0.0875,0.117608,-0.623176,-1.16181,-0.06874,0.24402,0.38556
-14.5259,0,0,19.5259,19.5259,5,5,24.2098,1.08471,-20.4606,-0.0905634,0.0160801,0.115305,8.8725,-0.35,0.1925,-0.11224,-0.381372,-0.810812,-0.06874,0.24402,0.38556
-14.5327,0,0,19.5327,19.5327,5,5,24.2212,1.08479,-20.4602,-0.0905647,0.0162609,0.115224,9.9575,0.1225,-0.245,-0.11224,-0.381372,-0.810812,-0.06874,0.24402,0.38556
-14.5395,0,0,19.5395,19.5395,5,5,24.2325,1.08486,-20.4597,-0.105752,-0.374486,-0.0800998,9.9575,0.1225,-0.245,-0.12749,-0.771894,-1.00455,-0.06874,0.24402,0.38556
-14.4513,0,0,19.4513,19.4513,5,5,24.0855,1.57711,-20.7376,0.320214,0.11233,0.0158077,11.305,0.1575,-0.455,0.308904,-0.283162,-0.910242,-0.06734,0.2415,0.3801
-14.3632,0,0,19.3632,19.3632,5,5,23.9387,2.05572,-21.0141,0.311864,0.109884,0.0166078,9.7125,-0.4375,-0.175,0.308904,-0.283162,-0.910242,-0.06734,0.2415,0.3801
-14.4685,0,0,19.4685,19.4685,5,5,24.1141,1.92609,-20.909,-0.0706196,-0.141557,0.040269,9.7125,-0.4375,-0.175,-0.07747,-0.537166,-0.885598,-0.06734,0.2415,0.3801
-14.5704,0,0,19.5704,19.5704,5,5,24.2839,1.80058,-20.8063,-0.0684301,-0.138826,0.0391199,8.645,-0.4375,-0.595,-0.07747,-0.537166,-0.885598,-0.06734,0.2415,0.3801
-14.5757,0,0,19.5757,19.5757,5,5,24.2929,1.80003,-20.8067,-0.247126,-0.202433,-0.00569756,8.645,-0.4375,-0.595,-0.256932,-0.60085,-0.930006,-0.06734,0.2415,0.3801
-14.5799,0,0,19.5799,19.5799,5,5,24.2999,1.80068,-20.8066,-0.247137,-0.202322,-0.00574801,7.5075,0.35,-0.56,-0.256932,-0.60085,-0.930006,-0.06734,0.2415,0.3801
-14.5841,0,0,19.5841,19.5841,5,5,24.3069,1.80133,-20.8064,0.356514,-0.212226,-0.344276,7.5075,0.35,-0.56,0.349286,-0.610854,-1.26587,-0.06734,0.2415,0.3801
-14.5903,0,0,19.5903,19.5903,5,5,24.3171,1.80048,-20.8071,0.356529,-0.212063,-0.344349,9.345,-0.6475,-0.63,0.349286,-0.610854,-1.26587,-0.06734,0.2415,0.3801
-14.549,0,0,19.549,19.549,5,5,24.2483,1.04031,-20.434,-0.567592,0.202208,0.0256593,9.345,-0.6475,-0.63,-0.592066,-0.196054,-0.899506,-0.06734,0.2415,0.3801
-14.5076,0,0,19.5076,19.5076,5,5,24.1793,0.293877,-20.0604,-0.554565,0.201173,0.0262911,10.3075,-1.05,-0.9625,-0.592066,-0.196054,-0.899506,-0.06734,0.2415,0.3801
-14.4808,0,0,19.4808,19.4808,5,5,24.1346,0.464559,-20.1451,0.10188,0.0656252,0.068395,10.3075,-1.05,-0.9625,0.07015,-0.330742,-0.858026,-0.06734,0.2415,0.3801
-14.3851,0,0,19.3851,19.3851,5,5,23.9752,0.624004,-20.2486,0.0856128,0.155524,0.00458783,11.2875,-0.07,-0.735,0.056608,-0.238388,-0.922442,-0.06734,0.2415,0.3801
-14.2903,0,0,19.2903,19.2903,5,5,23.8172,0.778941,-20.3515,0.0829089,0.15299,0.00567459,10.2725,-0.0525,-0.455,0.056608,-0.238388,-0.922442,-0.06734,0.2415,0.3801
-14.2975,0,0,19.2975,19.2975,5,5,23.8291,0.778891,-20.3515,-0.426723,0.165148,0.259233,10.2725,-0.0525,-0.455,-0.455182,-0.226432,-0.670756,-0.0609,0.24024,0.37562
-14.0574,0,0,19.0574,19.0574,5,5,23.4291,1.48443,-20.806,0.484014,0.347463,-0.0410135,7.805,-0.7175,-0.35,0.471774,-0.03782,-0.971242,-0.0609,0.24024,0.37562
-13.8207,0,0,18.8207,18.8207,5,5,23.0345,2.17396,-21.2634,0.471986,0.340987,-0.0386516,7.805,-0.7175,-0.35,0.471774,-0.03782,-0.971242,-0.0609,0.24024,0.37562
-13.8242,0,0,18.8242,18.8242,5,5,23.0404,2.17372,-21.2629,-0.446807,0.18427,-0.106682,6.86,-0.035,-0.14,-0.450912,-0.194468,-1.03871,-0.0609,0.24024,0.37562
-13.829,0,0,18.829,18.829,5,5,23.0484,2.17439,-21.2615,-0.446818,0.184399,-0.106737,8.0675,0.6475,0.1225,-0.450912,-0.194468,-1.03871,-0.0609,0.24024,0.37562
-13.8339,0,0,18.8339,18.8339,5,5,23.0564,2.17505,-21.2601,0.277468,-0.165732,-0.179086,8.0675,0.6475,0.1225,0.276452,-0.544364,-1.11044,-0.0609,0.24024,0.37562
-13.8409,0,0,18.8409,18.8409,5,5,23.0682,2.17376,-21.2589,0.277491,-0.165543,-0.179165,10.15,-0.455,0.455,0.276452,-0.544364,-1.11044,-0.0609,0.24024,0.37562
-13.8844,0,0,18.8844,18.8844,5,5,23.1406,1.98338,-21.1512,-0.118026,0.00224783,0.0890917,10.15,-0.455,0.455,-0.124074,-0.377956,-0.843874,-0.0609,0.24024,0.37562
-13.9279,0,0,18.9279,18.9279,5,5,23.2131,1.79877,-21.0452,-0.114806,0.00345219,0.0886918,11.2875,-0.07,0,-0.124074,-0.377956,-0.843874,-0.0609,0.24024,0.37562
-14.0145,0,0,19.0145,19.0145,5,5,23.3575,1.63885,-20.9339,-0.097438,-0.103626,0.0326919,11.2875,-0.07,0,-0.109434,-0.487268,-0.89853,-0.0609,0.24024,0.37562
-14.0299,0,0,19.0299,19.0299,5,5,23.3831,1.78973,-21.0118,0.103904,-0.0147062,0.0351475,11.69,0.0875,-0.28,0.095404,-0.398818,-0.895846,-0.0609,0.24024,0.37562
-14.0441,0,0,19.0441,19.0441,5,5,23.4069,1.92992,-21.0918,0.101459,-0.0143574,0.0349101,10.7625,-4.3225,-0.1925,0.095404,-0.398818,-0.895846,-0.0609,0.24024,0.37562
-14.1908,0,0,19.1908,19.1908,5,5,23.6514,1.56323,-20.8544,-0.219427,-0.142509,0.115024,10.7625,-4.3225,-0.1925,-0.233264,-0.530822,-0.814838,-0.0714,0.24122,0.37324
-14.2137,0,0,19.2137,19.2137,5,5,23.6895,1.55226,-20.8357,-0.00201888,-0.0609281,-0.0652352,8.155,-0.175,-0.49,-0.015128,-0.449936,-0.993446,-0.0714,0.24122,0.37324
-14.1243,0,0,19.1243,19.1243,5,5,23.5405,1.47356,-20.8238,-0.0692851,0.169966,0.0216579,7.6475,0.21,-0.6825,-0.084058,-0.216916,-0.90829,-0.0714,0.24122,0.37324
-14.1292,0,0,19.1292,19.1292,5,5,23.5487,1.47439,-20.824,0.168326,0.0649467,-0.302615,8.2425,0.3675,-0.7875,0.154574,-0.321958,-1.23,-0.0714,0.24122,0.37324
-14.1372,0,0,19.1372,19.1372,5,5,23.5619,1.47292,-20.8249,0.168352,0.0651581,-0.302707,11.0075,-1.015,-0.5775,0.154574,-0.321958,-1.23,-0.0714,0.24122,0.37324
-14.0158,0,0,19.0158,19.0158,5,5,23.3597,1.14634,-20.7001,-0.241674,0.253589,-0.00758117,11.0075,-1.015,-0.5775,-0.26291,-0.13054,-0.938668,-0.0714,0.24122,0.37324
-13.8966,0,0,18.8966,18.8966,5,5,23.1611,0.827346,-20.5736,-0.236107,0.250443,-0.00612441,11.6025,-0.4025,-0.4725,-0.26291,-0.13054,-0.938668,-0.0714,0.24122,0.37324
-14.1054,0,0,19.1054,19.1054,5,5,23.509,0.869997,-20.5134,0.0725728,-0.334957,0.118343,11.6025,-0.4025,-0.4725,0.047824,-0.720898,-0.812764,-0.0714,0.24122,0.37324
-14.3117,0,0,19.3117,19.3117,5,5,23.8528,0.911985,-20.454,0.0718401,-0.329468,0.115923,12.6,-0.7525,-0.315,0.047824,-0.720898,-0.812764,-0.0714,0.24122,0.37324
-14.2831,0,0,19.2831,19.2831,5,5,23.8052,1.20981,-20.6086,0.189708,0.0478381,0.0467048,12.6,-0.7525,-0.315,0.17141,-0.343186,-0.881694,-0.0714,0.24122,0.37324
-14.6078,0,0,19.6078,19.6078,5,5,24.3463,0.783643,-20.2696,-0.230849,-0.348705,0.329072,9.5725,-0.875,-0.3675,-0.258396,-0.747982,-0.5978,-0.0714,0.24122,0.37324
-14.924,0,0,19.924,19.924,5,5,24.8733,0.371987,-19.9364,-0.223665,-0.340312,0.325307,8.785,-1.2075,-0.1225,-0.258396,-0.747982,-0.5978,-0.06594,0.23884,0.3808
-14.9296,0,0,19.9296,19.9296,5,5,24.8826,0.369909,-19.9367,-0.198846,0.0524723,-0.302535,8.785,-1.2075,-0.1225,-0.233508,-0.355752,-1.22073,-0.06594,0.23884,0.3808
-14.9332,0,0,19.9332,19.9332,5,5,24.8886,0.370526,-19.9352,-0.198856,0.0525676,-0.30258,6.965,0.6475,0.1225,-0.233508,-0.355752,-1.22073,-0.06594,0.23884,0.3808
-15.042,0,0,20.042,20.042,5,5,25.07,0.423009,-19.9028,0.0589922,-0.207871,0.00996558,6.965,0.6475,0.1225,0.026352,-0.618784,-0.909266,-0.06594,0.23884,0.3808
-15.1511,0,0,20.1511,20.1511,5,5,25.2519,0.474342,-19.8708,0.0580963,-0.205001,0.00860957,8.995,0.4375,0.0875,0.026352,-0.618784,-0.909266,-0.06594,0.23884,0.3808
-14.9949,0,0,19.9949,19.9949,5,5,24.9914,0.375481,-19.8544,-0.0977452,0.263153,-0.104037,10.29,0.175,0.0875,-0.131882,-0.14701,-1.02297,-0.06594,0.23884,0.3808
-14.843,0,0,19.843,19.843,5,5,24.7384,0.277851,-19.8375,-0.0960413,0.259151,-0.102171,12.0575,-0.07,0.245,-0.131882,-0.14701,-1.02297,-0.06594,0.23884,0.3808
-14.9925,0,0,19.9925,19.9925,5,5,24.9875,-0.146915,-19.5519,-0.260651,-0.127585,0.139938,12.0575,-0.07,0.245,-0.304634,-0.537288,-0.780922,-0.06594,0.23884,0.3808
-15.14,0,0,20.14,20.14,5,5,25.2333,-0.560936,-19.2711,-0.253426,-0.12372,0.138077,13.7025,-0.0525,0.2275,-0.304634,-0.537288,-0.780922,-0.06594,0.23884,0.3808
-15.0925,0,0,20.0925,20.0925,5,5,25.1542,-0.387122,-19.3476,0.117352,0.0438219,-0.0957754,13.7025,-0.0525,0.2275,0.07076,-0.368684,-1.01358,-0.06594,0.23884,0.3808
-15.2551,0,0,20.2551,20.2551,5,5,25.4251,-0.799467,-19.062,-0.275625,-0.204616,0.0804129,11.5325,-0.105,0.14,-0.331108,-0.621102,-0.836676,-0.06594,0.23884,0.3808
-15.413,0,0,20.413,20.413,5,5,25.6884,-1.19428,-18.7787,-0.268735,-0.200523,0.0783229,10.92,4.27,-0.1925,-0.331108,-0.621102,-0.836676,-0.06594,0.23884,0.3808
-15.4208,0,0,20.4208,20.4208,5,5,25.7014,-1.18788,-18.7751,0.300192,0.00314559,0.24642,10.92,4.27,-0.1925,0.24034,-0.41785,-0.66978,-0.06594,0.23884,0.3808
-15.1728,0,0,20.1728,20.1728,5,5,25.288,-0.922702,-18.9479,0.138483,0.38308,-0.0388349,8.1375,0.035,-0.2625,0.082594,-0.031842,-0.955992,-0.06874,0.23842,0.38416
-14.9294,0,0,19.9294,19.9294,5,5,24.8823,-0.664115,-19.1234,0.133971,0.376695,-0.035777,8.575,-0.175,-0.665,0.082594,-0.031842,-0.955992,-0.06874,0.23842,0.38416
-14.9347,0,0,19.9347,19.9347,5,5,24.8912,-0.664204,-19.1238,0.221563,-0.10239,-0.223339,8.575,-0.175,-0.665,0.170556,-0.51057,-1.14204,-0.06874,0.23842,0.38416
-14.9419,0,0,19.9419,19.9419,5,5,24.9032,-0.66469,-19.1246,0.221572,-0.1022,-0.223427,10.325,-0.4725,-0.7525,0.170556,-0.51057,-1.14204,-0.06874,0.23842,0.38416
-14.9508,0,0,19.9508,19.9508,5,5,24.9179,-1.00686,-18.9183,-0.229121,0.0493115,0.0227745,10.325,-0.4725,-0.7525,-0.288042,-0.359412,-0.897554,-0.06874,0.23842,0.38416
-14.9654,0,0,19.9654,19.9654,5,5,24.9423,-1.34119,-18.7134,-0.223288,0.0496469,0.0224868,16.59,-0.6125,-0.6125,-0.288042,-0.359412,-0.897554,-0.06874,0.23842,0.38416
-14.9793,0,0,19.9793,19.9793,5,5,24.9655,-1.34199,-18.714,0.185647,0.0900713,0.180919,16.59,-0.6125,-0.6125,0.12261,-0.319396,-0.740174,-0.06874,0.23842,0.38416
-14.9896,0,0,19.9896,19.9896,5,5,24.9826,-1.34255,-18.7146,0.185657,0.0903422,0.180793,13.195,-0.4725,-0.6475,0.12261,-0.319396,-0.740174,-0.06874,0.23842,0.38416
-15.0446,0,0,20.0446,20.0446,5,5,25.0743,-1.12264,-18.7773,0.156915,-0.0857454,0.0514637,12.0575,-0.315,-0.315,0.0976,-0.496784,-0.867908,-0.06874,0.23842,0.38416
-15.098,0,0,20.098,20.098,5,5,25.1634,-0.908638,-18.8387,0.153181,-0.0843097,0.0508637,11.1825,-0.49,-0.07,0.0976,-0.496784,-0.867908,-0.06874,0.23842,0.38416
-15.1062,0,0,20.1062,20.1062,5,5,25.1769,-0.909645,-18.8384,-0.056243,-0.234801,-0.123578,11.1825,-0.49,-0.07,-0.112728,-0.647332,-1.0409,-0.06874,0.23842,0.38416
-15.1111,0,0,20.1111,20.1111,5,5,25.1851,-0.909965,-18.8379,-0.0562374,-0.234671,-0.123639,8.19,-0.07,-0.1225,-0.112728,-0.647332,-1.0409,-0.06874,0.23842,0.38416
-15.1147,0,0,20.1147,20.1147,5,5,25.1912,-0.910754,-18.8374,0.23194,0.0148077,-0.180609,7.0175,-0.3325,-0.035,0.176656,-0.398208,-1.09739,-0.06244,0.2338,0.38262
-15.1199,0,0,20.1199,20.1199,5,5,25.1998,-0.911116,-18.8364,0.231947,0.0149427,-0.180673,8.4,0.035,0.1575,0.176656,-0.398208,-1.09739,-0.06244,0.2338,0.38262
-15.125,0,0,20.125,20.125,5,5,25.2083,-0.911479,-18.8353,0.146063,0.197779,0.12061,8.4,0.035,0.1575,0.090402,-0.215696,-0.798368,-0.06244,0.2338,0.38262
-15.1326,0,0,20.1326,20.1326,5,5,25.221,-0.91108,-18.8344,0.146056,0.197979,0.120516,10.71,0.42,-0.07,0.090402,-0.215696,-0.798368,-0.06244,0.2338,0.38262
-15.0679,0,0,20.0679,20.0679,5,5,25.1132,-0.951711,-18.7977,-0.0391083,0.109439,-0.0601661,10.71,0.42,-0.07,-0.096258,-0.302438,-0.97844,-0.06244,0.2338,0.38262
-15.0056,0,0,20.0056,20.0056,5,5,25.0093,-0.992322,-18.7619,-0.0383996,0.107793,-0.0594095,11.9525,-0.14,-0.21,-0.096258,-0.302438,-0.97844,-0.06244,0.2338,0.38262
-15.0249,0,0,20.0249,20.0249,5,5,25.0416,-0.926862,-18.7565,0.0480492,-0.045081,-0.0370075,11.9525,-0.14,-0.21,-0.008296,-0.45567,-0.955992,-0.06244,0.2338,0.38262
-15.0451,0,0,20.0451,20.0451,5,5,25.0752,-0.863498,-18.7511,0.0469435,-0.044541,-0.0372409,13.0025,-0.385,-0.035,-0.008296,-0.45567,-0.955992,-0.06244,0.2338,0.38262
-15.0545,0,0,20.0545,20.0545,5,5,25.0908,-0.864344,-18.7508,0.0968888,-0.25472,0.0255934,12.32,-0.4025,-0.105,0.041846,-0.665876,-0.893528,-0.06244,0.2338,0.38262
-15.0631,0,0,20.0631,20.0631,5,5,25.1051,-0.86565,-18.7507,0.0969116,-0.254494,0.0254874,11.6025,-0.7,-0.105,0.041846,-0.665876,-0.893528,-0.06244,0.2338,0.38262
-15.0716,0,0,20.0716,20.0716,5,5,25.1194,-0.866956,-18.7506,0.128156,0.0704665,-0.158304,11.6025,-0.7,-0.105,0.0732,-0.341478,-1.0758,-0.06244,0.2338,0.38262
-15.0775,0,0,20.0775,20.0775,5,5,25.1292,-0.868306,-18.7506,0.135347,0.243064,0.136823,9.0825,-0.77,-0.1925,0.080398,-0.169214,-0.782874,-0.06244,0.2338,0.38262
-15.0829,0,0,20.0829,20.0829,5,5,25.1381,-0.868729,-18.7505,0.135355,0.243206,0.136756,8.6275,-0.2275,-0.315,0.080398,-0.169214,-0.782874,-0.06496,0.2352,0.38038
-15.0852,0,0,20.0852,20.0852,5,5,25.142,-0.675261,-18.8178,0.134044,-0.0201409,-0.00339278,8.6275,-0.2275,-0.315,0.082472,-0.432368,-0.921954,-0.06496,0.2352,0.38038
-15.0894,0,0,20.0894,20.0894,5,5,25.149,-0.486547,-18.8847,0.13075,-0.0200157,-0.00341467,10.15,-0.245,-0.595,0.082472,-0.432368,-0.921954,-0.06496,0.2352,0.38038
-15.0964,0,0,20.0964,20.0964,5,5,25.1607,-0.486792,-18.885,0.0508169,-0.0785739,-0.225669,10.15,-0.245,-0.595,0.002196,-0.49105,-1.14241,-0.06496,0.2352,0.38038
-15.1051,0,0,20.1051,20.1051,5,5,25.1752,-0.487337,-18.8856,0.0508264,-0.0783448,-0.225777,11.725,-0.455,-0.63,0.002196,-0.49105,-1.14241,-0.06496,0.2352,0.38038
-15.1139,0,0,20.1139,20.1139,5,5,25.1898,-0.487882,-18.8861,0.247521,-0.094725,-0.285023,11.725,-0.455,-0.63,0.199714,-0.507642,-1.20109,-0.06496,0.2352,0.38038
-15.1235,0,0,20.1235,20.1235,5,5,25.2058,-0.488504,-18.8866,0.247532,-0.0944713,-0.285143,12.6,-0.4725,-0.56,0.199714,-0.507642,-1.20109,-0.06496,0.2352,0.38038
-15.1326,0,0,20.1326,20.1326,5,5,25.221,-0.488757,-18.8866,-0.224314,0.128527,0.252398,12.0925,-0.175,-0.4375,-0.274134,-0.285114,-0.667584,-0.06496,0.2352,0.38038
-15.1406,0,0,20.1406,20.1406,5,5,25.2344,-0.488763,-18.8864,-0.224314,0.128739,0.252298,11.13,0.0175,-0.3675,-0.274134,-0.285114,-0.667584,-0.06496,0.2352,0.38038
-15.1487,0,0,20.1487,20.1487,5,5,25.2479,-0.48877,-18.8862,0.0749056,-0.0442243,0.279985,11.13,0.0175,-0.3675,0.026352,-0.45811,-0.640012,-0.06496,0.2352,0.38038
-15.1032,0,0,20.1032,20.1032,5,5,25.172,-0.629843,-18.7992,-0.0958709,0.118218,0.0324166,9.3975,-0.1225,-0.28,-0.14762,-0.29463,-0.886208,-0.06496,0.2352,0.38038
-15.0574,0,0,20.0574,20.0574,5,5,25.0956,-0.76761,-18.7119,-0.0934666,0.116998,0.0329566,8.54,0.07,0.0875,-0.14762,-0.29463,-0.886208,-0.06496,0.2352,0.38038
-15.0947,0,0,20.0947,20.0947,5,5,25.1579,-0.758958,-18.6739,0.0107386,-0.0705811,-0.0191412,8.54,0.07,0.0875,-0.042822,-0.482998,-0.937448,-0.06496,0.2352,0.38038
-15.133,0,0,20.133,20.133,5,5,25.2217,-0.750427,-18.636,0.0105897,-0.0695724,-0.0196135,10.0275,0.1225,0.21,-0.042822,-0.482998,-0.937448,-0.06972,0.23772,0.38416
-15.1426,0,0,20.1426,20.1426,5,5,25.2377,-0.805519,-18.5743,-0.033763,0.0344831,0.0641062,11.3225,0.4725,0.0875,-0.088328,-0.379298,-0.854244,-0.06972,0.23772,0.38416
-15.152,0,0,20.152,20.152,5,5,25.2533,-0.85919,-18.5132,-0.0328264,0.0347233,0.0639779,11.3225,0.4725,0.0875,-0.088328,-0.379298,-0.854244,-0.06972,0.23772,0.38416
-15.2516,0,0,20.2516,20.2516,5,5,25.4193,-0.699856,-18.5361,0.126941,-0.166594,0.0510925,12.355,0.035,-0.1575,0.074908,-0.583038,-0.865834,-0.06972,0.23772,0.38416
-15.3497,0,0,20.3497,20.3497,5,5,25.5828,-0.544215,-18.5581,0.124225,-0.164006,0.0498905,12.355,0.035,-0.1575,0.074908,-0.583038,-0.865834,-0.06972,0.23772,0.38416
-15.3263,0,0,20.3263,20.3263,5,5,25.5438,-0.497555,-18.5613,0.028044,0.0160086,-0.0866507,12.215,0.035,-0.1925,-0.020862,-0.4026,-1.00162,-0.06972,0.23772,0.38416
-15.3015,0,0,20.3015,20.3015,5,5,25.5026,-0.452855,-18.565,0.0272638,0.0153625,-0.0863351,10.5175,-0.455,-0.28,-0.020862,-0.4026,-1.00162,-0.06972,0.23772,0.38416
-15.309,0,0,20.309,20.309,5,5,25.5149,-0.453654,-18.565,0.210478,0.176398,0.13242,10.5175,-0.455,-0.28,0.163114,-0.241926,-0.78446,-0.06972,0.23772,0.38416
-15.3157,0,0,20.3157,20.3157,5,5,25.5262,-0.455754,-18.5652,0.210515,0.176576,0.132335,9.94,-1.19,-0.0525,0.163114,-0.241926,-0.78446,-0.06972,0.23772,0.38416
-15.3225,0,0,20.3225,20.3225,5,5,25.5376,-0.457854,-18.5654,0.269837,0.547897,0.343721,9.94,-1.19,-0.0525,0.22265,0.128832,-0.57462,-0.06972,0.23772,0.38416
-15.3285,0,0,20.3285,20.3285,5,5,25.5475,-0.459632,-18.5655,-0.110747,-0.220367,-0.380644,9.1875,-0.9975,-0.0875,-0.159576,-0.638792,-1.29332,-0.06972,0.23772,0.38416
-15.3362,0,0,20.3362,20.3362,5,5,25.5603,-0.460444,-18.5654,-0.110733,-0.220166,-0.38074,10.7625,-0.4375,-0.2275,-0.159576,-0.638792,-1.29332,-0.06972,0.23772,0.38416
-15.3209,0,0,20.3209,20.3209,5,5,25.5349,0.0660077,-18.8218,0.385338,-0.0252727,0.00184981,10.7625,-0.4375,-0.2275,0.347822,-0.443714,-0.913902,-0.06566,0.2408,0.38794
-15.3085,0,0,20.3085,20.3085,5,5,25.5142,0.578906,-19.0754,0.376386,-0.0256201,0.00195987,12.775,-0.7,-0.14,0.347822,-0.443714,-0.913902,-0.06566,0.2408,0.38794
-15.3183,0,0,20.3183,20.3183,5,5,25.5306,0.577625,-19.0753,-0.25641,-0.176067,0.327282,12.775,-0.7,-0.14,-0.287676,-0.594262,-0.590968,-0.06566,0.2408,0.38794
-15.3293,0,0,20.3293,20.3293,5,5,25.5488,0.576029,-19.0757,-0.256383,-0.175779,0.327145,13.825,-0.98,-0.2975,-0.287676,-0.594262,-0.590968,-0.06566,0.2408,0.38794
-15.364,0,0,20.364,20.364,5,5,25.6067,0.80296,-19.1723,0.172268,-0.083782,-0.0155002,13.825,-0.98,-0.2975,0.146766,-0.50325,-0.930494,-0.06566,0.2408,0.38794
-15.3967,0,0,20.3967,20.3967,5,5,25.6611,1.02428,-19.2676,0.168405,-0.0829523,-0.0159666,12.145,-0.9975,-0.385,0.146766,-0.50325,-0.930494,-0.06566,0.2408,0.38794
-15.4041,0,0,20.4041,20.4041,5,5,25.6735,1.02347,-19.2679,0.0213004,0.240147,0.196026,10.57,-0.525,-0.4025,-0.000976,-0.180682,-0.720044,-0.06566,0.2408,0.38794
-15.4112,0,0,20.4112,20.4112,5,5,25.6853,1.02318,-19.2674,0.0213053,0.240331,0.195937,10.1675,-0.07,-0.175,-0.000976,-0.180682,-0.720044,-0.06566,0.2408,0.38794
-15.4182,0,0,20.4182,20.4182,5,5,25.697,1.0229,-19.267,-0.148162,0.343102,-0.244676,10.1675,-0.07,-0.175,-0.171166,-0.078202,-1.15717,-0.06566,0.2408,0.38794
-15.4236,0,0,20.4236,20.4236,5,5,25.7061,1.02261,-19.2663,0.0781706,0.149307,0.0870936,8.6625,0,-0.035,0.05612,-0.271938,-0.827892,-0.06566,0.2408,0.38794
-15.4298,0,0,20.4298,20.4298,5,5,25.7163,1.02279,-19.2655,0.0781675,0.149468,0.087016,9.3275,0.2625,-0.105,0.05612,-0.271938,-0.827892,-0.06566,0.2408,0.38794
-15.2246,0,0,20.2246,20.2246,5,5,25.3744,1.18275,-19.408,0.0623772,0.328474,0.00114019,9.3275,0.2625,-0.105,0.043066,-0.087718,-0.91561,-0.06566,0.2408,0.38794
-15.0263,0,0,20.0263,20.0263,5,5,25.0438,1.33886,-19.5506,0.0596532,0.323228,0.00354329,12.32,0.7175,0.035,0.043066,-0.087718,-0.91561,-0.06566,0.2408,0.38794
-14.8876,0,0,19.8876,19.8876,5,5,24.8127,1.22259,-19.5296,-0.0995294,0.262558,0.0162263,12.67,0.4025,0.2975,-0.118828,-0.144692,-0.904752,-0.06328,0.23352,0.38248
-14.7525,0,0,19.7525,19.7525,5,5,24.5875,1.10807,-19.5091,-0.0975312,0.259004,0.0179054,13.895,-0.035,-0.1225,-0.118828,-0.144692,-0.904752,-0.06328,0.23352,0.38248
-14.7635,0,0,19.7635,19.7635,5,5,24.6059,1.10781,-19.5085,0.0713385,-0.376618,-0.20747,13.895,-0.035,-0.1225,0.050752,-0.779946,-1.12826,-0.06328,0.23352,0.38248
-14.7713,0,0,19.7713,19.7713,5,5,24.6189,1.10775,-19.5086,0.0713396,-0.376412,-0.207564,10.885,-0.07,-0.4725,0.050752,-0.779946,-1.12826,-0.06328,0.23352,0.38248
