pid_x,pid_y,pid_z,front_left_speed,front_right_speed,back_left_speed,back_right_speed,orientation_x,orientation_y,orientation_z,acceleration_x,acceleration_y,acceleration_z,accel_rejected,mag_rejected,gyro_x,gyro_y,gyro_z,accel_x,accel_y,accel_z,mag_x,mag_y,mag_z
-0.19741,0,0,15.1974,15.1974,14.8026,14.8026,0.493156,-0.0536598,-0.251786,0.0376691,-0.427452,0.0854736,0,0,3.6225,-0.035,-0.42,-0.003416,-0.423462,-0.92781,-0.05866,0.25536,0.33474
-0.392486,0,0,15.3925,15.3925,14.6075,14.6075,0.980109,-0.106711,-0.499814,0.0362868,-0.418344,0.0917564,0,0,3.78,-0.0175,-0.56,-0.005734,-0.422852,-0.921466,-0.05866,0.25536,0.33474
-0.582168,0,0,15.5822,15.5822,14.4178,14.4178,1.45323,-0.156032,-0.745913,0.0366617,-0.409722,0.0813743,0,0,3.605,0.0525,-0.525,-0.006222,-0.422486,-0.931592,-0.05866,0.25536,0.33474
-0.768548,0,0,15.7685,15.7685,14.2315,14.2315,1.91774,-0.20209,-0.990272,0.0374655,-0.401618,0.0811334,0,0,3.5,-0.07,-0.385,-0.006222,-0.422486,-0.931592,-0.05866,0.25536,0.33474
-0.95141,0,0,15.9514,15.9514,14.0486,14.0486,2.37311,-0.245156,-1.23252,0.0376097,-0.393188,0.08071,0,0,3.3775,0.105,-0.455,-0.006832,-0.421998,-0.931714,-0.05866,0.25536,0.33474
-1.13113,0,0,16.1311,16.1311,13.8689,13.8689,2.8203,-0.2852,-1.47305,0.0383086,-0.385391,0.0803531,0,0,3.3775,-0.0175,-0.385,-0.006832,-0.421998,-0.931714,-0.05866,0.25536,0.33474
-1.31045,0,0,16.3104,16.3104,13.6896,13.6896,3.26614,-0.323811,-1.7133,0.039104,-0.380674,0.0892806,0,0,3.255,-0.07,-0.4725,-0.00671,-0.425048,-0.922442,-0.05852,0.2555,0.33166
-1.48673,0,0,16.4867,16.4867,13.5133,13.5133,3.70406,-0.355886,-1.95441,0.0420935,-0.37158,0.0911486,0,0,3.605,-0.0525,-0.385,-0.00427,-0.423584,-0.920124,-0.05852,0.2555,0.33166
-1.65926,0,0,16.6593,16.6593,13.3407,13.3407,4.13229,-0.385173,-2.19328,0.0419972,-0.361071,0.0932166,0,0,3.64,0.0525,-0.35,-0.00488,-0.420534,-0.917562,-0.05852,0.2555,0.33166
-1.82867,0,0,16.8287,16.8287,13.1713,13.1713,4.55241,-0.411752,-2.43055,0.0424611,-0.35376,0.0926582,0,0,3.4825,0,-0.49,-0.00488,-0.420534,-0.917562,-0.05852,0.2555,0.33166
-1.99542,0,0,16.9954,16.9954,13.0046,13.0046,4.96555,-0.442816,-2.66013,0.0380223,-0.35207,0.0822201,0,0,3.4475,0.105,-0.525,-0.009882,-0.426024,-0.927322,-0.05852,0.2555,0.33166
-2.1594,0,0,17.1594,17.1594,12.8406,12.8406,5.37147,-0.471161,-2.88771,0.038517,-0.345015,0.0815779,0,0,3.675,0.105,-0.4025,-0.009882,-0.426024,-0.927322,-0.05852,0.2555,0.33166
-2.31964,0,0,17.3196,17.3196,12.6804,12.6804,5.76776,-0.490105,-3.11875,0.0433426,-0.335078,0.0828711,0,0,3.745,0.175,-0.525,-0.005368,-0.422974,-0.92537,-0.05852,0.2555,0.33166
-2.47705,0,0,17.4771,17.4771,12.5229,12.5229,6.15666,-0.507025,-3.34756,0.0436379,-0.328328,0.0821635,0,0,3.7275,0,-0.35,-0.005368,-0.422974,-0.92537,-0.05852,0.2555,0.33166
-2.63168,0,0,17.6317,17.6317,12.3683,12.3683,6.53833,-0.519706,-3.58071,0.0461675,-0.321586,0.0825316,0,0,3.5875,0.1575,-0.4025,-0.00305,-0.422852,-0.924272,-0.0574,0.25844,0.33684
-2.78306,0,0,17.7831,17.7831,12.2169,12.2169,6.91161,-0.533639,-3.80925,0.0438594,-0.314139,0.0810288,0,0,3.605,0.07,-0.42,-0.005612,-0.421876,-0.925004,-0.0574,0.25844,0.33684
-2.93206,0,0,17.9321,17.9321,12.0679,12.0679,7.27864,-0.5473,-4.03407,0.0427615,-0.308271,0.0815878,0,0,3.4125,0.175,-0.3325,-0.006954,-0.422364,-0.923662,-0.0574,0.25844,0.33684
-3.07853,0,0,18.0785,18.0785,11.9215,11.9215,7.63908,-0.55878,-4.25691,0.0429619,-0.302034,0.0807693,0,0,3.5875,0.2275,-0.35,-0.006954,-0.422364,-0.923662,-0.0574,0.25844,0.33684
-3.22214,0,0,18.2221,18.2221,11.7779,11.7779,7.9921,-0.564938,-4.48038,0.0453776,-0.294343,0.0818976,0,0,3.6925,0.14,-0.385,-0.004636,-0.420778,-0.92171,-0.0574,0.25844,0.33684
-3.36314,0,0,18.3631,18.3631,11.6369,11.6369,8.33835,-0.569438,-4.70189,0.0454561,-0.288361,0.0810386,0,0,3.64,0.035,-0.4375,-0.004636,-0.420778,-0.92171,-0.0574,0.25844,0.33684
-3.50091,0,0,18.5009,18.5009,11.4991,11.4991,8.67629,-0.570377,-4.92257,0.0466873,-0.283628,0.0748791,0,0,3.5175,0.0875,-0.4725,-0.003416,-0.421876,-0.926956,-0.0574,0.25844,0.33684
-3.63626,0,0,18.6363,18.6363,11.3637,11.3637,9.00791,-0.569655,-5.14164,0.0466748,-0.277909,0.0739897,0,0,3.605,0.1925,-0.4025,-0.003416,-0.421876,-0.926956,-0.0602,0.26026,0.3402
-3.77064,0,0,18.7706,18.7706,11.2294,11.2294,9.33684,-0.57726,-5.35178,0.0404902,-0.273219,0.0786059,0,0,3.535,-0.0525,-0.4375,-0.00976,-0.422852,-0.921466,-0.0602,0.26026,0.3402
-3.90261,0,0,18.9026,18.9026,11.0974,11.0974,9.65952,-0.583131,-5.55995,0.0405927,-0.267665,0.0776756,0,0,3.535,-0.0525,-0.4375,-0.00976,-0.422852,-0.921466,-0.0602,0.26026,0.3402
-4.03046,0,0,19.0305,19.0305,10.9695,10.9695,9.97167,-0.582606,-5.7695,0.0437422,-0.261564,0.0692471,0,0,3.64,-0.2275,-0.315,-0.006588,-0.42212,-0.928908,-0.0602,0.26026,0.3402
-4.15602,0,0,19.156,19.156,10.844,10.844,10.2779,-0.580646,-5.97702,0.0437079,-0.256303,0.0683081,0,0,3.64,-0.2275,-0.315,-0.006588,-0.42212,-0.928908,-0.0602,0.26026,0.3402
-4.28003,0,0,19.28,19.28,10.72,10.72,10.58,-0.575846,-6.18303,0.0442316,-0.249164,0.0752233,0,0,3.745,0.105,-0.35,-0.005978,-0.420168,-0.9211,-0.0602,0.26026,0.3402
-4.40181,0,0,19.4018,19.4018,10.5982,10.5982,10.8763,-0.569778,-6.38698,0.0441257,-0.244083,0.0742617,0,0,3.745,0.105,-0.35,-0.005978,-0.420168,-0.9211,-0.0602,0.26026,0.3402
-4.52103,0,0,19.521,19.521,10.479,10.479,11.1659,-0.564154,-6.58827,0.0434201,-0.242174,0.0655504,0,0,3.64,-0.21,-0.4725,-0.006588,-0.423218,-0.928786,-0.0602,0.26026,0.3402
-4.63938,0,0,19.6394,19.6394,10.3606,10.3606,11.4532,-0.54968,-6.79007,0.0481484,-0.238234,0.0701023,0,0,3.64,-0.035,-0.525,-0.001586,-0.424194,-0.923296,-0.06132,0.2583,0.33502
-4.75592,0,0,19.7559,19.7559,10.2441,10.2441,11.7358,-0.536943,-6.98788,0.0462253,-0.232548,0.0732935,0,0,3.4475,-0.1225,-0.455,-0.003294,-0.42334,-0.919148,-0.06132,0.2583,0.33502
-4.87036,0,0,19.8704,19.8704,10.1296,10.1296,12.0128,-0.523184,-7.18366,0.0459852,-0.227815,0.0723006,0,0,3.465,-0.0875,-0.5075,-0.003294,-0.42334,-0.919148,-0.06132,0.2583,0.33502
-4.9824,0,0,19.9824,19.9824,10.0176,10.0176,12.2837,-0.510874,-7.37566,0.0440696,-0.224048,0.0672503,0,0,3.605,0,-0.56,-0.005002,-0.424194,-0.923174,-0.06132,0.2583,0.33502
-5.09236,0,0,20.0924,20.0924,9.90764,9.90764,12.5492,-0.49748,-7.56551,0.0438358,-0.219522,0.0662561,0,0,3.5525,0.1225,-0.525,-0.005002,-0.424194,-0.923174,-0.06132,0.2583,0.33502
-5.21163,0,0,20.2116,20.2116,9.78837,9.78837,12.8378,-0.53832,-7.7152,0.0110185,-0.247341,0.0532172,0,0,3.5525,-0.035,-0.4725,-0.038674,-0.45689,-0.935008,-0.06132,0.2583,0.33502
-5.32886,0,0,20.3289,20.3289,9.67114,9.67114,13.121,-0.576565,-7.86357,0.011686,-0.242526,0.0521007,0,0,3.745,0.0875,-0.4725,-0.038674,-0.45689,-0.935008,-0.06132,0.2583,0.33502
-5.43858,0,0,20.4386,20.4386,9.56142,9.56142,13.3853,-0.618607,-8.00658,0.00646692,-0.206896,0.0857073,0,0,3.78,0.175,-0.5075,-0.044652,-0.42578,-0.900604,-0.06132,0.2583,0.33502
-5.54628,0,0,20.5463,20.5463,9.45372,9.45372,13.6443,-0.659371,-8.1541,0.00717833,-0.202502,0.0846433,0,0,3.675,0.28,-0.42,-0.044652,-0.42578,-0.900604,-0.05754,0.26026,0.33516
-5.62105,0,0,20.6211,20.6211,9.37895,9.37895,13.8209,-0.659893,-8.32706,0.0227376,-0.15078,0.0284618,0,0,3.605,0.2275,-0.4025,-0.029036,-0.377102,-0.955626,-0.05754,0.26026,0.33516
-5.69455,0,0,20.6946,20.6946,9.30545,9.30545,13.9941,-0.660226,-8.4983,0.0227434,-0.147845,0.0277351,0,0,3.71,-0.105,-0.2975,-0.029036,-0.377102,-0.955626,-0.05754,0.26026,0.33516
-5.83462,0,0,20.8346,20.8346,9.16538,9.16538,14.3335,-0.522313,-8.75521,0.138542,-0.287671,0.097251,0,0,3.745,-0.175,-0.2625,0.08967,-0.522526,-0.885232,-0.05754,0.26026,0.33516
-5.97208,0,0,20.9721,20.9721,9.02792,9.02792,14.6662,-0.386458,-9.00771,0.136171,-0.282046,0.0958156,0,0,3.5525,-0.0875,-0.035,0.08967,-0.522526,-0.885232,-0.05754,0.26026,0.33516
-6.06544,0,0,21.0654,21.0654,8.93456,8.93456,14.8884,-0.442291,-9.13553,-0.00815139,-0.216623,-0.0176784,0,0,3.255,0.0175,-0.245,-0.056242,-0.460916,-0.996862,-0.05754,0.26026,0.33516
-6.15707,0,0,21.1571,21.1571,8.84293,8.84293,15.1062,-0.495421,-9.26246,-0.00722413,-0.212954,-0.0186692,0,0,3.255,0.105,-0.35,-0.056242,-0.460916,-0.996862,-0.05754,0.26026,0.33516
-6.2223,0,0,21.2223,21.2223,8.7777,8.7777,15.2578,-1.56135,-8.67231,-0.571147,0.0209421,0.390718,0,0,3.255,0.4025,-0.385,-0.641232,-0.229726,-0.589626,-0.05754,0.26026,0.33516
-6.22741,0,0,21.2274,21.2274,8.77259,8.77259,15.2591,-1.56181,-8.67247,-0.571139,0.0209647,0.390711,1,0,4.2875,-0.2625,-0.455,-0.641232,-0.229726,-0.589626,-0.0525,0.26726,0.35574
-6.35821,0,0,21.3582,21.3582,8.64179,8.64179,15.5744,-1.48698,-8.87787,0.0891662,-0.252416,0.107362,0,0,4.2525,-0.455,-0.3675,0.02318,-0.50813,-0.869372,-0.0525,0.26726,0.35574
-6.48642,0,0,21.4864,21.4864,8.51358,8.51358,15.883,-1.41118,-9.08172,0.0878437,-0.247224,0.105934,0,0,3.885,0.2275,-1.3475,0.02318,-0.50813,-0.869372,-0.0525,0.26726,0.35574
-6.63327,0,0,21.6333,21.6333,8.36673,8.36673,16.238,-1.14037,-9.40678,0.266076,-0.40819,-0.0271102,0,0,4.1125,-0.0175,-1.155,0.206912,-0.674904,-0.99979,-0.0525,0.26726,0.35574
-6.63826,0,0,21.6383,21.6383,8.36174,8.36174,16.2383,-1.13956,-9.40789,0.266062,-0.408185,-0.0271114,1,0,3.6925,0.2975,-1.19,0.206912,-0.674904,-0.99979,-0.0525,0.26726,0.35574
-6.80259,0,0,21.8026,21.8026,8.19741,8.19741,16.6366,-1.33529,-9.42591,-0.0766358,-0.307746,0.144577,0,0,3.9025,0.42,-1.3825,-0.140666,-0.581208,-0.827404,-0.0525,0.26726,0.35574
-6.96352,0,0,21.9635,21.9635,8.03648,8.03648,17.0262,-1.52405,-9.44549,-0.0733422,-0.301264,0.14253,0,0,3.4125,0.385,-1.295,-0.140666,-0.581208,-0.827404,-0.0525,0.26726,0.35574
-6.96969,0,0,21.9697,21.9697,8.03031,8.03031,17.0288,-1.71759,-9.46421,-0.130344,-0.00447986,-0.0309318,0,0,3.01,0.3675,-1.1725,-0.2013,-0.284748,-0.999424,-0.0525,0.26726,0.35574
-6.97576,0,0,21.9758,21.9758,8.02424,8.02424,17.0312,-1.90595,-9.48276,-0.127058,-0.00447037,-0.0310435,0,0,3.01,0.3675,-1.1725,-0.2013,-0.284748,-0.999424,-0.0525,0.26726,0.35574
-7.10011,0,0,22.1001,22.1001,7.89989,7.89989,17.3291,-1.93493,-9.59897,0.0133988,-0.359785,-0.093331,0,0,2.66,0.5775,-0.6825,-0.060756,-0.644648,-1.05969,-0.05796,0.26992,0.3598
-7.15901,0,0,22.159,22.159,7.84099,7.84099,17.4633,-2.49585,-9.36853,-0.351724,-0.0821478,0.069007,0,0,2.2225,-0.945,-0.3675,-0.437248,-0.369416,-0.897554,-0.05796,0.26992,0.3598
-7.2175,0,0,22.2175,22.2175,7.7825,7.7825,17.5963,-3.04175,-9.14038,-0.342207,-0.0800748,0.0678695,0,0,3.745,-0.6475,0.14,-0.437248,-0.369416,-0.897554,-0.05796,0.26992,0.3598
-7.22611,0,0,22.2261,22.2261,7.77389,7.77389,17.6046,-2.10542,-9.83598,1.06965,-0.233472,-0.4454,0,0,4.06,-0.4375,0.35,0.996984,-0.523014,-1.40751,-0.05796,0.26992,0.3598
-7.23242,0,0,22.2324,22.2324,7.76758,7.76758,17.6072,-2.10559,-9.83467,1.06966,-0.23343,-0.445413,1,0,5.005,0.1575,0.315,0.996984,-0.523014,-1.40751,-0.05796,0.26992,0.3598
-7.19947,0,0,22.1995,22.1995,7.80053,7.80053,17.5117,-2.00965,-10.0227,0.0493256,0.0842396,0.00772007,0,0,5.3725,0.5075,1.435,-0.025986,-0.204106,-0.958432,-0.05796,0.26992,0.3598
-7.16727,0,0,22.1673,22.1673,7.83273,7.83273,17.4181,-1.91661,-10.2096,0.0477026,0.0826993,0.008263,0,0,5.3725,0.5075,1.435,-0.025986,-0.204106,-0.958432,-0.05796,0.26992,0.3598
-7.31565,0,0,22.3157,22.3157,7.68435,7.68435,17.7757,-1.84375,-10.3803,0.0969697,-0.327183,0.0771122,0,0,3.605,-0.28,1.785,0.024766,-0.619516,-0.888282,-0.05488,0.27132,0.3598
-7.32064,0,0,22.3206,22.3206,7.67936,7.67936,17.7749,-1.84357,-10.3767,-0.101784,0.133587,0.172156,1,0,3.115,0.77,1.54,-0.174826,-0.15921,-0.793976,-0.05488,0.27132,0.3598
-7.32481,0,0,22.3248,22.3248,7.67519,7.67519,17.772,-1.84421,-10.3739,-0.101773,0.133538,0.172171,1,0,1.96,0.175,1.26,-0.174826,-0.15921,-0.793976,-0.05488,0.27132,0.3598
-7.32973,0,0,22.3297,22.3297,7.67027,7.67027,17.7709,-1.84649,-10.3721,-0.00405855,0.0845481,0.329795,1,0,2.9925,-0.945,0.9275,-0.076738,-0.208132,-0.637572,-0.05488,0.27132,0.3598
-7.33423,0,0,22.3342,22.3342,7.66577,7.66577,17.7689,-1.84806,-10.3711,-0.00403126,0.0845136,0.329806,1,0,2.3975,-0.665,0.42,-0.076738,-0.208132,-0.637572,-0.05488,0.27132,0.3598
-7.51978,0,0,22.5198,22.5198,7.48022,7.48022,18.2191,-2.18672,-10.2764,-0.151439,-0.304506,0.227471,0,0,3.5525,-0.7,-0.2625,-0.230702,-0.604144,-0.736514,-0.05488,0.27132,0.3598
-7.70185,0,0,22.7019,22.7019,7.29815,7.29815,18.6603,-2.51449,-10.1865,-0.145723,-0.297281,0.224814,0,0,3.5525,-0.7,-0.2625,-0.230702,-0.604144,-0.736514,-0.05488,0.27132,0.3598
-7.73599,0,0,22.736,22.736,7.26401,7.26401,18.7316,-2.63351,-10.2335,-0.0656542,-0.0457736,0.0364623,0,0,3.605,0.0525,-0.98,-0.152378,-0.354044,-0.92293,-0.05488,0.27132,0.3598
-7.76957,0,0,22.7696,22.7696,7.23043,7.23043,18.8014,-2.74942,-10.3019,-0.0636334,-0.0446514,0.0359807,0,0,3.605,0.0525,-0.98,-0.152378,-0.354044,-0.92293,-0.05026,0.2828,0.36512
-7.77577,0,0,22.7758,22.7758,7.22423,7.22423,18.8028,-2.74715,-10.3036,0.302485,0.21306,0.233799,1,0,4.27,0.9625,-1.8025,0.21533,-0.096624,-0.726632,-0.05026,0.2828,0.36512
-7.78196,0,0,22.782,22.782,7.21804,7.21804,18.8042,-2.74487,-10.3053,0.302445,0.213083,0.233793,1,0,4.27,0.9625,-1.8025,0.21533,-0.096624,-0.726632,-0.05026,0.2828,0.36512
-7.78733,0,0,22.7873,22.7873,7.21267,7.21267,18.8035,-2.74228,-10.3077,0.209828,0.297218,0.216586,1,0,3.08,0.9975,-2.275,0.122366,-0.012566,-0.743712,-0.05026,0.2828,0.36512
-7.79269,0,0,22.7927,22.7927,7.20731,7.20731,18.8028,-2.73969,-10.3102,0.209783,0.297207,0.216592,1,0,3.08,0.9975,-2.275,0.122366,-0.012566,-0.743712,-0.05026,0.2828,0.36512
-7.79845,0,0,22.7985,22.7985,7.20155,7.20155,18.8031,-2.39248,-10.6671,0.235315,-0.0368393,-0.0449104,0,0,1.995,-0.385,-2.275,0.154086,-0.346358,-1.00345,-0.05026,0.2828,0.36512
-7.8034,0,0,22.8034,22.8034,7.1966,7.1966,18.8014,-2.39363,-10.6706,0.315273,0.0473994,-0.246537,1,0,2.485,-1.2775,-2.1525,0.234362,-0.262178,-1.20353,-0.05026,0.2828,0.36512
-7.81203,0,0,22.812,22.812,7.18797,7.18797,18.8088,-2.39489,-10.6741,0.315295,0.047522,-0.24658,1,0,7.63,-1.33,-2.1175,0.234362,-0.262178,-1.20353,-0.05026,0.2828,0.36512
-7.819,0,0,22.819,22.819,7.181,7.181,18.8121,-2.39455,-10.6765,0.351006,-0.430305,-0.514257,1,0,5.3375,-0.245,-1.8375,0.27023,-0.739564,-1.46912,-0.05264,0.2765,0.36876
-7.8256,0,0,22.8256,22.8256,7.1744,7.1744,18.8145,-2.39467,-10.6779,0.351008,-0.430266,-0.514271,1,0,4.8475,-0.315,-1.19,0.27023,-0.739564,-1.46912,-0.05264,0.2765,0.36876
-7.83204,0,0,22.832,22.832,7.16796,7.16796,18.8165,-2.39518,-10.6798,-0.525989,-0.309205,0.206073,1,0,4.6025,-0.6125,-1.3825,-0.610488,-0.618662,-0.754326,-0.05264,0.2765,0.36876
-8.02432,0,0,23.0243,23.0243,6.97568,6.97568,19.2828,-1.72269,-11.1925,0.538645,-0.403845,0.303037,0,0,3.6225,-0.4025,-1.225,0.470432,-0.72102,-0.655872,-0.05264,0.2765,0.36876
-8.21374,0,0,23.2137,23.2137,6.78626,6.78626,19.7415,-1.06298,-11.6887,0.527134,-0.396208,0.300627,0,0,3.6225,0.56,-0.35,0.470432,-0.72102,-0.655872,-0.05264,0.2765,0.36876
-8.21812,0,0,23.2181,23.2181,6.78188,6.78188,19.7377,-1.06122,-11.6872,0.721845,-0.201234,0.192948,1,0,1.4,1.2775,0,0.665998,-0.526186,-0.762744,-0.05264,0.2765,0.36876
-8.22762,0,0,23.2276,23.2276,6.77238,6.77238,19.7466,-1.06622,-11.6864,0.721932,-0.201088,0.192893,1,0,8.5575,-2.5725,0.9975,0.665998,-0.526186,-0.762744,-0.05264,0.2765,0.36876
-8.23353,0,0,23.2335,23.2335,6.76647,6.76647,19.7466,-1.0711,-11.6852,-0.062051,-0.97525,-0.262263,1,0,3.5175,-2.4325,1.19,-0.12139,-1.29954,-1.21439,-0.05264,0.2765,0.36876
-8.24012,0,0,23.2401,23.2401,6.75988,6.75988,19.7482,-1.07415,-11.6831,-0.0619977,-0.975223,-0.262274,1,0,4.4975,-1.2425,1.33,-0.12139,-1.29954,-1.21439,-0.05334,0.2835,0.38262
-8.24595,0,0,23.2459,23.2459,6.75405,6.75405,19.748,-1.07569,-11.6801,-0.102304,-0.29547,-0.115718,1,0,3.43,-0.245,1.47,-0.161894,-0.620492,-1.06896,-0.05334,0.2835,0.38262
-8.25111,0,0,23.2511,23.2511,6.74889,6.74889,19.7461,-1.07486,-11.6752,-0.102319,-0.295501,-0.115707,1,0,2.52,1.4525,2.1,-0.161894,-0.620492,-1.06896,-0.05334,0.2835,0.38262
-8.21762,0,0,23.2176,23.2176,6.78238,6.78238,19.6476,-0.80163,-11.9808,0.155079,0.0793021,0.0319922,0,0,1.715,0.9625,2.4675,0.101382,-0.244488,-0.923052,-0.05334,0.2835,0.38262
-8.18482,0,0,23.1848,23.1848,6.81518,6.81518,19.551,-0.536961,-12.2861,0.15046,0.077731,0.0326089,0,0,1.5925,0.2275,1.75,0.101382,-0.244488,-0.923052,-0.05334,0.2835,0.38262
-8.18961,0,0,23.1896,23.1896,6.81039,6.81039,19.5483,-0.536437,-12.2825,0.122145,0.0631537,0.439461,1,0,2.0475,1.015,1.435,0.072956,-0.259006,-0.519354,-0.05334,0.2835,0.38262
-8.19613,0,0,23.1961,23.1961,6.80387,6.80387,19.5499,-0.534323,-12.2803,0.122108,0.0631807,0.439452,1,0,4.4625,1.61,0.3325,0.072956,-0.259006,-0.519354,-0.05334,0.2835,0.38262
-8.20342,0,0,23.2034,23.2034,6.79658,6.79658,19.5535,-0.533522,-12.2782,0.497485,0.0466302,-0.242072,1,0,5.5475,0.875,0.56,0.449936,-0.275598,-1.1956,-0.05334,0.2835,0.38262
-8.21044,0,0,23.2104,23.2104,6.78956,6.78956,19.5564,-0.534173,-12.2767,0.497496,0.0466776,-0.242089,1,0,5.1625,-0.0525,0.49,0.449936,-0.275598,-1.1956,-0.05852,0.28406,0.37226
-8.21774,0,0,23.2177,23.2177,6.78226,6.78226,19.5599,-0.534334,-12.2766,-0.0460278,0.06017,-0.383747,1,0,5.53,-0.035,-0.315,-0.095892,-0.262178,-1.33614,-0.05852,0.28406,0.37226
-8.2243,0,0,23.2243,23.2243,6.7757,6.7757,19.5617,-0.535378,-12.2771,-0.0460096,0.0601988,-0.383757,1,0,4.515,-0.665,-0.5425,-0.095892,-0.262178,-1.33614,-0.05852,0.28406,0.37226
-8.26485,0,0,23.2648,23.2648,6.73515,6.73515,19.6483,-0.677646,-12.3428,-0.075113,-0.0661305,0.0168919,0,0,3.395,-4.27,-1.12,-0.127612,-0.38979,-0.938058,-0.05852,0.28406,0.37226
-8.30464,0,0,23.3046,23.3046,6.69536,6.69536,19.733,-0.815617,-12.408,-0.0727051,-0.0647497,0.0163644,0,0,3.395,-4.27,-1.12,-0.127612,-0.38979,-0.938058,-0.05852,0.28406,0.37226
-8.30901,0,0,23.309,23.309,6.69099,6.69099,19.7291,-0.812279,-12.4096,-0.164607,-0.312486,0.498223,1,0,1.3475,1.5575,-1.9425,-0.219844,-0.637206,-0.45994,-0.05852,0.28406,0.37226
-8.31337,0,0,23.3134,23.3134,6.68663,6.68663,19.7252,-0.80894,-12.4111,-0.164665,-0.31255,0.498247,1,0,1.3475,1.5575,-1.9425,-0.219844,-0.637206,-0.45994,-0.05852,0.28406,0.37226
-8.46989,0,0,23.4699,23.4699,6.53011,6.53011,20.1014,-1.42868,-12.1522,-0.321865,-0.20887,0.248317,0,0,0.315,0.2625,-2.31,-0.38857,-0.539728,-0.705526,-0.05852,0.28406,0.37226
-8.476,0,0,23.476,23.476,6.524,6.524,20.1016,-1.42814,-12.1555,0.348605,0.0732463,0.201596,1,0,3.605,-0.35,-2.3625,0.284748,-0.257908,-0.751886,-0.05852,0.28406,0.37226
-8.48331,0,0,23.4833,23.4833,6.51669,6.51669,20.1048,-1.42879,-12.1594,0.348616,0.0732985,0.201576,1,0,5.2675,-1.12,-2.4325,0.284748,-0.257908,-0.751886,-0.05124,0.28364,0.3689
-8.49176,0,0,23.4918,23.4918,6.50824,6.50824,20.1109,-1.42998,-12.1624,0.0337462,0.0672908,-0.186978,1,0,6.8775,-1.2425,-1.855,-0.031476,-0.264008,-1.13741,-0.05124,0.28364,0.3689
-8.49939,0,0,23.4994,23.4994,6.50061,6.50061,20.1149,-1.4315,-12.1652,0.0337727,0.0673562,-0.187002,1,0,5.74,-1.3825,-1.68,-0.031476,-0.264008,-1.13741,-0.05124,0.28364,0.3689
-8.50673,0,0,23.5067,23.5067,6.49327,6.49327,20.1181,-1.4344,-12.168,-0.0300782,0.209687,-0.242104,1,0,5.32,-2.135,-1.3825,-0.095648,-0.121878,-1.19206,-0.05124,0.28364,0.3689
-8.51252,0,0,23.5125,23.5125,6.48748,6.48748,20.1175,-1.43558,-12.1696,-0.0300577,0.209676,-0.242101,1,0,3.1675,-0.945,-1.0675,-0.095648,-0.121878,-1.19206,-0.05124,0.28364,0.3689
-8.51756,0,0,23.5176,23.5176,6.48244,6.48244,20.115,-1.43667,-12.1704,0.0387224,0.0351165,0.154545,1,0,2.135,-0.7525,-0.6825,-0.026596,-0.296216,-0.79849,-0.05124,0.28364,0.3689
-8.52206,0,0,23.5221,23.5221,6.47794,6.47794,20.1112,-1.4371,-12.1707,0.0387298,0.0350537,0.154568,1,0,1.3825,-0.2625,-0.49,-0.026596,-0.296216,-0.79849,-0.05124,0.28364,0.3689
-8.70641,0,0,23.7064,23.7064,6.29359,6.29359,20.5567,-1.08612,-12.4886,0.266465,-0.283812,0.31822,0,0,1.575,-0.6125,-0.2975,0.208254,-0.622078,-0.633546,-0.05124,0.28364,0.3689
-8.88881,0,0,23.8888,23.8888,6.11119,6.11119,20.9969,-0.744382,-12.8023,0.260502,-0.276595,0.315584,0,0,2.555,-0.28,-0.07,0.208254,-0.622078,-0.633546,-0.049,0.28448,0.3647
-8.89483,0,0,23.8948,23.8948,6.10517,6.10517,20.9962,-0.744071,-12.8014,0.474797,-0.171699,-0.285384,1,0,3.15,0.385,0,0.423462,-0.51728,-1.22988,-0.049,0.28448,0.3647
-8.90159,0,0,23.9016,23.9016,6.09841,6.09841,20.9974,-0.744387,-12.8,0.474803,-0.17168,-0.285391,1,0,4.2,0.14,0.385,0.423462,-0.51728,-1.22988,-0.049,0.28448,0.3647
-8.90838,0,0,23.9084,23.9084,6.09162,6.09162,20.9986,-0.745049,-12.7983,-0.0943463,0.0595256,-0.153352,1,0,4.235,0.0175,0.63,-0.148108,-0.286334,-1.09885,-0.049,0.28448,0.3647
-8.91513,0,0,23.9151,23.9151,6.08487,6.08487,20.9997,-0.747221,-12.7971,-0.0943084,0.0595435,-0.15336,1,0,4.165,-0.91,0.6825,-0.148108,-0.286334,-1.09885,-0.049,0.28448,0.3647
-8.92137,0,0,23.9214,23.9214,6.07863,6.07863,20.9996,-0.749535,-12.7957,0.0985298,-0.187766,-0.0435664,1,0,3.465,-0.945,0.8225,0.045506,-0.533384,-0.989908,-0.049,0.28448,0.3647
-8.92746,0,0,23.9275,23.9275,6.07254,6.07254,20.999,-0.750062,-12.7934,0.098539,-0.187774,-0.0435632,1,0,3.255,0.21,0.91,0.045506,-0.533384,-0.989908,-0.049,0.28448,0.3647
-8.93303,0,0,23.933,23.933,6.06697,6.06697,20.9972,-0.7509,-12.7915,-0.29834,0.0573045,0.248819,1,0,2.5375,-0.0525,0.735,-0.353068,-0.28853,-0.699792,-0.049,0.28448,0.3647
-8.93881,0,0,23.9388,23.9388,6.06119,6.06119,20.9959,-0.749543,-12.7895,-0.298364,0.0572833,0.248828,1,0,2.8175,1.19,0.385,-0.353068,-0.28853,-0.699792,-0.06062,0.28728,0.36862
-8.94507,0,0,23.9451,23.9451,6.05493,6.05493,20.9958,-0.747812,-12.7878,0.163981,0.120666,0.18342,1,0,3.5,1.33,0.14,0.111264,-0.225212,-0.764696,-0.06062,0.28728,0.36862
-8.95181,0,0,23.9518,23.9518,6.04819,6.04819,20.9969,-0.745389,-12.7853,0.163938,0.120684,0.183414,1,0,4.165,1.8725,0.42,0.111264,-0.225212,-0.764696,-0.06062,0.28728,0.36862
-8.95897,0,0,23.959,23.959,6.04103,6.04103,20.9991,-0.743763,-12.7831,-0.136646,-0.260316,-0.060652,1,0,4.76,1.365,0.4025,-0.190564,-0.605852,-1.00687,-0.06062,0.28728,0.36862
-8.96606,0,0,23.9661,23.9661,6.03394,6.03394,21.0011,-0.742361,-12.7819,-0.13667,-0.260284,-0.060664,1,0,4.655,1.05,-0.0525,-0.190564,-0.605852,-1.00687,-0.06062,0.28728,0.36862
-8.98584,0,0,23.9858,23.9858,6.01416,6.01416,21.0347,-0.692708,-12.9488,0.0370382,-0.0530934,-0.0469714,0,0,4.515,0.2975,-0.49,-0.01525,-0.399428,-0.99308,-0.06062,0.28728,0.36862
-9.0049,0,0,24.0049,24.0049,5.9951,5.9951,21.0666,-0.645942,-13.1149,0.036222,-0.0525708,-0.0471623,0,0,3.85,-0.7875,-0.6125,-0.01525,-0.399428,-0.99308,-0.06062,0.28728,0.36862
-9.01057,0,0,24.0106,24.0106,5.98943,5.98943,21.0649,-0.647219,-13.1159,0.47906,-0.269739,0.0760422,1,0,2.6075,-0.875,-0.6825,0.42944,-0.616344,-0.870836,-0.06062,0.28728,0.36862
-9.01623,0,0,24.0162,24.0162,5.98377,5.98377,21.0633,-0.648496,-13.1168,0.479082,-0.269766,0.0760523,1,0,2.6075,-0.875,-0.6825,0.42944,-0.616344,-0.870836,-0.05026,0.29512,0.37072
-9.022,0,0,24.022,24.022,5.978,5.978,21.0619,-0.649037,-13.1179,-0.357095,0.196736,0.196427,1,0,2.765,-0.5075,-0.9275,-0.410286,-0.150304,-0.751398,-0.05026,0.29512,0.37072
-9.02777,0,0,24.0278,24.0278,5.97223,5.97223,21.0606,-0.649578,-13.119,-0.357085,0.196714,0.196436,1,0,2.765,-0.5075,-0.9275,-0.410286,-0.150304,-0.751398,-0.05026,0.29512,0.37072
-9.09176,0,0,24.0918,24.0918,5.90824,5.90824,21.2046,-0.591312,-13.3046,0.0593228,-0.121764,0.0406244,0,0,4.97,-0.0525,-1.05,0.008906,-0.470798,-0.905118,-0.05026,0.29512,0.37072
-9.15469,0,0,24.1547,24.1547,5.84531,5.84531,21.3459,-0.53393,-13.4879,0.0583213,-0.119462,0.0397388,0,0,4.97,-0.0525,-1.05,0.008906,-0.470798,-0.905118,-0.05026,0.29512,0.37072
-9.16242,0,0,24.1624,24.1624,5.83758,5.83758,21.3492,-0.532767,-13.4889,0.130949,0.00992372,-0.187368,1,0,5.39,0.4375,-1.2425,0.081862,-0.3416,-1.13045,-0.05026,0.29512,0.37072
-9.17015,0,0,24.1701,24.1701,5.82985,5.82985,21.3526,-0.531603,-13.4899,0.130929,0.0099777,-0.187389,1,0,5.39,0.4375,-1.2425,0.081862,-0.3416,-1.13045,-0.05026,0.29512,0.37072
-9.176,0,0,24.176,24.176,5.824,5.824,21.3512,-0.5323,-13.4912,-0.0178787,-0.122919,0.404002,1,0,2.7475,-0.63,-0.98,-0.067588,-0.474336,-0.543632,-0.05026,0.29512,0.37072
-9.18184,0,0,24.1818,24.1818,5.81816,5.81816,21.3498,-0.532998,-13.4925,-0.0178665,-0.122942,0.404011,1,0,2.7475,-0.63,-0.98,-0.067588,-0.474336,-0.543632,-0.04844,0.2926,0.37562
-9.4766,0,0,24.4766,24.4766,5.5234,5.5234,22.0701,-1.30633,-13.1119,-0.377575,-0.419102,0.503297,0,0,1.995,-1.54,-0.595,-0.442372,-0.781776,-0.440298,-0.04844,0.2926,0.37562
-9.76613,0,0,24.7661,24.7661,5.23387,5.23387,22.7769,-2.06011,-12.7495,-0.364425,-0.407853,0.498237,0,0,1.995,-1.54,-0.595,-0.442372,-0.781776,-0.440298,-0.04844,0.2926,0.37562
-9.7735,0,0,24.7735,24.7735,5.2265,5.2265,22.7782,-2.061,-12.7494,0.270961,0.0422055,0.278764,1,0,4.2875,-0.4375,-0.1925,0.195688,-0.332206,-0.658068,-0.04844,0.2926,0.37562
-9.78219,0,0,24.7822,24.7822,5.21781,5.21781,22.7828,-2.06209,-12.7489,0.0502402,-0.14091,-0.318183,1,0,6.1425,-0.4725,0.035,-0.025986,-0.515206,-1.25038,-0.04844,0.2926,0.37562
-9.79039,0,0,24.7904,24.7904,5.20961,5.20961,22.7862,-2.06171,-12.7482,0.0502336,-0.140855,-0.318205,1,0,5.46,0.385,-0.14,-0.025986,-0.515206,-1.25038,-0.04844,0.2926,0.37562
-9.79807,0,0,24.7981,24.7981,5.20193,5.20193,22.7884,-2.06128,-12.7476,0.138182,-0.362481,-0.436004,1,0,4.7425,0.4025,-0.1925,0.062342,-0.736636,-1.36725,-0.04844,0.2926,0.37562
-9.80452,0,0,24.8045,24.8045,5.19548,5.19548,22.7874,-2.06042,-12.7463,0.138167,-0.362497,-0.435997,1,0,3.01,0.77,0.0525,0.062342,-0.736636,-1.36725,-0.04844,0.2926,0.37562
-9.71836,0,0,24.7184,24.7184,5.28164,5.28164,22.5551,-2.02779,-12.8971,-0.0145025,0.174427,-0.151143,0,0,2.6775,0.49,0.035,-0.090402,-0.196542,-1.08617,-0.05068,0.29722,0.38094
-9.63445,0,0,24.6344,24.6344,5.36555,5.36555,22.3285,-1.99819,-13.0475,-0.0150188,0.170782,-0.149618,0,0,3.4125,-0.2625,0.315,-0.090402,-0.196542,-1.08617,-0.05068,0.29722,0.38094
-9.75155,0,0,24.7515,24.7515,5.24845,5.24845,22.6043,-2.2355,-13.0284,-0.0971346,-0.141261,0.195855,0,0,3.465,-0.63,-0.3325,-0.177022,-0.512644,-0.741394,-0.05068,0.29722,0.38094
-9.86733,0,0,24.8673,24.8673,5.13267,5.13267,22.8766,-2.46444,-13.0105,-0.0931422,-0.136945,0.193868,0,0,4.795,-0.1925,-0.175,-0.177022,-0.512644,-0.741394,-0.05068,0.29722,0.38094
-9.87533,0,0,24.8753,24.8753,5.12467,5.12467,22.8795,-2.46493,-13.0102,-0.128486,0.246578,0.332781,1,0,5.1275,-0.1925,-0.21,-0.212524,-0.129564,-0.603534,-0.05068,0.29722,0.38094
-9.8833,0,0,24.8833,24.8833,5.1167,5.1167,22.8822,-2.46403,-13.0095,-0.128502,0.246623,0.332762,1,0,5.11,0.6825,-0.2275,-0.212524,-0.129564,-0.603534,-0.05068,0.29722,0.38094
-9.87714,0,0,24.8771,24.8771,5.12286,5.12286,22.8497,-2.68693,-13.0002,-0.129475,0.0779857,0.0779494,0,0,5.2325,0.56,-0.56,-0.217404,-0.297436,-0.85644,-0.05068,0.29722,0.38094
-9.87104,0,0,24.871,24.871,5.12896,5.12896,22.8174,-2.90352,-12.9908,-0.125699,0.0773944,0.0779984,0,0,5.215,0.84,-0.63,-0.217404,-0.297436,-0.85644,-0.05068,0.29722,0.38094
-9.89197,0,0,24.892,24.892,5.10803,5.10803,22.8525,-2.62405,-13.2619,0.188572,-0.0587311,-0.0141112,0,0,5.0925,0.5075,-0.7,0.10309,-0.434076,-0.947818,-0.04592,0.2954,0.38766
-9.89984,0,0,24.8998,24.8998,5.10016,5.10016,22.8551,-2.62263,-13.2617,-0.114074,-0.00275616,0.170418,1,0,4.9525,0.8225,-0.6825,-0.200812,-0.3782,-0.764696,-0.04592,0.2954,0.38766
-9.90758,0,0,24.9076,24.9076,5.09242,5.09242,22.8573,-2.62144,-13.2616,-0.114095,-0.00272031,0.170404,1,0,4.7775,0.7,-0.63,-0.200812,-0.3782,-0.764696,-0.04592,0.2954,0.38766
-9.91546,0,0,24.9155,24.9155,5.08454,5.08454,22.8598,-2.62105,-13.262,0.454695,-0.0119604,-0.189729,1,0,4.97,0.14,-0.735,0.370392,-0.387472,-1.12203,-0.04592,0.2954,0.38766
-9.92295,0,0,24.923,24.923,5.07705,5.07705,22.8614,-2.62189,-13.2629,0.454709,-0.0119354,-0.18974,1,0,4.3925,-0.6475,-0.7525,0.370392,-0.387472,-1.12203,-0.04592,0.2954,0.38766
-9.93084,0,0,24.9308,24.9308,5.06916,5.06916,22.864,-2.62312,-13.264,0.150166,-0.304876,-0.0127128,1,0,4.9525,-0.8925,-0.7525,0.064538,-0.68015,-0.946354,-0.04592,0.2954,0.38766
-9.93935,0,0,24.9393,24.9393,5.06065,5.06065,22.8681,-2.62409,-13.2652,0.150183,-0.304811,-0.0127413,1,0,5.81,-0.77,-0.8575,0.064538,-0.68015,-0.946354,-0.04592,0.2954,0.38766
-9.94818,0,0,24.9482,24.9482,5.05182,5.05182,22.873,-2.62509,-13.2663,0.121287,-0.263575,-0.222403,1,0,6.265,-0.77,-0.805,0.035502,-0.639036,-1.15436,-0.04592,0.2954,0.38766
-9.95717,0,0,24.9572,24.9572,5.04283,5.04283,22.8783,-2.62458,-13.2666,0.121278,-0.26349,-0.222438,1,0,6.51,0.2275,-0.7175,0.035502,-0.639036,-1.15436,-0.04592,0.2954,0.38766
-10.0273,0,0,25.0273,25.0273,5,5,23.0365,-2.40573,-13.4866,0.157431,-0.123492,0.0883149,0,0,5.81,-0.1225,-0.455,0.07564,-0.501786,-0.845094,-0.0504,0.29064,0.38766
-10.0958,0,0,25.0958,25.0958,5,5,23.1902,-2.19221,-13.7026,0.153707,-0.120969,0.0874004,0,0,4.8825,0.07,-0.1225,0.07564,-0.501786,-0.845094,-0.0504,0.29064,0.38766
-10.1661,0,0,25.1661,25.1661,5,5,23.3486,-2.36147,-13.7013,-0.0836397,-0.0975938,0.0839881,0,0,5.04,-0.4725,-0.315,-0.165676,-0.480924,-0.84729,-0.0504,0.29064,0.38766
-10.2355,0,0,25.2355,25.2355,5,5,23.5043,-2.5268,-13.7005,-0.0807567,-0.095151,0.0827956,0,0,5.4775,-1.2075,0.035,-0.165676,-0.480924,-0.84729,-0.0504,0.29064,0.38766
-10.2745,0,0,25.2745,25.2745,5,5,23.5843,-2.38859,-13.8737,0.0994263,-0.0740468,0.0233181,0,0,6.0725,-1.4,-0.105,0.01769,-0.46116,-0.90585,-0.0504,0.29064,0.38766
-10.3138,0,0,25.3138,25.3138,5,5,23.6646,-2.25416,-14.045,0.097082,-0.0727256,0.0228439,0,0,7.035,-1.575,-0.14,0.01769,-0.46116,-0.90585,-0.0504,0.29064,0.38766
-10.3231,0,0,25.3231,25.3231,5,5,23.6703,-2.25574,-14.045,-0.169187,0.215828,0.366198,1,0,6.72,-0.8225,-0.07,-0.249734,-0.172996,-0.565104,-0.0504,0.29064,0.38766
-10.3321,0,0,25.3321,25.3321,5,5,23.6749,-2.25629,-14.0443,-0.169178,0.215902,0.366165,1,0,6.16,-0.1225,0.035,-0.249734,-0.172996,-0.565104,-0.0504,0.29064,0.38766
-10.3407,0,0,25.3407,25.3407,5,5,23.6787,-2.25747,-14.0438,0.00845509,0.024834,-0.394421,1,0,5.67,-0.4725,0.1575,-0.07137,-0.363926,-1.3198,-0.05614,0.29428,0.37884
-10.349,0,0,25.349,25.349,5,5,23.6817,-2.25725,-14.0436,0.00845132,0.0248813,-0.394442,1,0,5.1975,0.175,-0.4025,-0.07137,-0.363926,-1.3198,-0.05614,0.29428,0.37884
-10.3576,0,0,25.3576,25.3576,5,5,23.6853,-2.25661,-14.0445,0.255056,0.306931,0.531704,1,0,5.565,0.1575,-1.0675,0.17629,-0.082228,-0.40077,-0.05614,0.29428,0.37884
-10.3666,0,0,25.3666,25.3666,5,5,23.6902,-2.25627,-14.0455,0.25505,0.307008,0.53167,1,0,6.23,-0.035,-1.05,0.17629,-0.082228,-0.40077,-0.05614,0.29428,0.37884
-10.3759,0,0,25.3759,25.3759,5,5,23.6957,-2.25605,-14.0462,-0.0308096,-0.20718,0.000863269,1,0,6.5975,-0.035,-0.8925,-0.110776,-0.59597,-0.927444,-0.05614,0.29428,0.37884
-10.386,0,0,25.386,25.386,5,5,23.703,-2.25647,-14.0473,-0.0308023,-0.207063,0.000811519,1,0,7.63,-0.455,-0.91,-0.110776,-0.59597,-0.927444,-0.05614,0.29428,0.37884
-10.3963,0,0,25.3963,25.3963,5,5,23.7109,-2.2562,-14.0483,0.165757,-0.253711,-0.181208,1,0,7.9625,-0.07,-1.0325,0.08662,-0.642696,-1.108,-0.05614,0.29428,0.37884
-10.4065,0,0,25.4065,25.4065,5,5,23.7187,-2.25561,-14.0496,0.165747,-0.253587,-0.181262,1,0,7.84,0.035,-1.26,0.08662,-0.642696,-1.108,-0.05614,0.29428,0.37884
-10.4163,0,0,25.4163,25.4163,5,5,23.7255,-2.25518,-14.0505,0.000154168,-0.17666,-0.0878682,1,0,7.3325,0.035,-1.0325,-0.079666,-0.565958,-1.01528,-0.05208,0.28672,0.37814
-10.4257,0,0,25.4257,25.4257,5,5,23.7312,-2.25505,-14.0508,0.000151962,-0.176569,-0.0879085,1,0,6.755,0.0175,-0.63,-0.079666,-0.565958,-1.01528,-0.05208,0.28672,0.37814
-10.4352,0,0,25.4352,25.4352,5,5,23.7371,-2.25491,-14.0504,-0.00422408,-0.020275,-0.183603,1,0,6.825,0.1925,-0.2625,-0.084058,-0.40992,-1.1102,-0.05208,0.28672,0.37814
-10.445,0,0,25.445,25.445,5,5,23.7439,-2.25427,-14.0493,-0.00423518,-0.0201659,-0.183651,1,0,7.385,0.63,0.0175,-0.084058,-0.40992,-1.1102,-0.05208,0.28672,0.37814
-10.4552,0,0,25.4552,25.4552,5,5,23.7514,-2.25394,-14.0473,0.00499199,-0.179421,-0.0852217,1,0,7.7875,0.665,0.5425,-0.074786,-0.56913,-1.01248,-0.05208,0.28672,0.37814
-10.4659,0,0,25.4659,25.4659,5,5,23.7604,-2.25418,-14.0449,0.00499619,-0.179277,-0.0852852,1,0,8.645,0.455,0.8925,-0.074786,-0.56913,-1.01248,-0.05208,0.28672,0.37814
-10.4763,0,0,25.4763,25.4763,5,5,23.7686,-2.25463,-14.0418,0.00111648,-0.0750956,0.234323,1,0,8.1725,0.5075,1.3125,-0.07869,-0.465186,-0.695278,-0.05208,0.28672,0.37814
-10.4867,0,0,25.4867,25.4867,5,5,23.7767,-2.25611,-14.0388,0.00114232,-0.0749664,0.234265,1,0,8.155,-0.0525,1.54,-0.07869,-0.465186,-0.695278,-0.05208,0.28672,0.37814
-10.497,0,0,25.497,25.497,5,5,23.7846,-2.2587,-14.0362,-0.114102,0.213623,-0.331109,1,0,8.05,-0.7525,1.5575,-0.194468,-0.177022,-1.25623,-0.04788,0.2863,0.38164
-10.6258,0,0,25.6258,25.6258,5,5,24.0885,-2.0168,-14.2434,0.205924,-0.277548,0.111343,0,0,8.61,-0.8225,1.75,0.13115,-0.672586,-0.815204,-0.04788,0.2863,0.38164
-10.6372,0,0,25.6372,25.6372,5,5,24.0989,-2.01815,-14.2411,0.406034,0.145421,-0.162169,1,0,9.4325,-0.1575,1.1025,0.332084,-0.250222,-1.08653,-0.04788,0.2863,0.38164
-10.6489,0,0,25.6489,25.6489,5,5,24.1101,-2.01956,-14.2398,-0.187399,-0.238368,0.0498363,1,0,9.835,-0.42,0.595,-0.263886,-0.63379,-0.876082,-0.04788,0.2863,0.38164
-10.6605,0,0,25.6605,25.6605,5,5,24.121,-2.02051,-14.24,-0.156039,0.299895,0.046193,1,0,9.6075,-0.525,-0.2975,-0.23241,-0.096258,-0.87962,-0.04788,0.2863,0.38164
-10.6665,0,0,25.6665,25.6665,5,5,24.118,-1.76025,-14.4801,0.161601,0.00753667,0.0370071,0,0,8.575,-0.5425,-0.49,0.091134,-0.388326,-0.888892,-0.04788,0.2863,0.38164
-10.7255,0,0,25.7255,25.7255,5,5,24.2473,-2.11596,-14.3677,-0.19495,-0.0310371,0.116423,0,0,8.54,-0.63,-1.33,-0.273158,-0.42883,-0.808982,-0.04788,0.2863,0.38164
-10.5818,0,0,25.5818,25.5818,5,5,23.8701,-1.58597,-14.7729,0.31139,0.305764,-0.109429,0,0,8.435,-0.3675,-1.54,0.24461,-0.086498,-1.03602,-0.04788,0.2863,0.38164
-10.5789,0,0,25.5789,25.5789,5,5,23.845,-1.29942,-15.0381,0.195231,-0.0239607,-0.0834411,0,0,9.87,-0.595,-1.995,0.13298,-0.415532,-1.01053,-0.04578,0.28616,0.37506
-10.5913,0,0,25.5913,25.5913,5,5,23.8583,-1.29991,-15.0414,0.170092,0.154799,-0.483609,1,0,10.9025,-1.015,-2.065,0.107726,-0.237168,-1.40751,-0.04578,0.28616,0.37506
-10.6043,0,0,25.6043,25.6043,5,5,23.8726,-1.3001,-15.0449,0.170095,0.155029,-0.48371,1,0,11.55,-0.91,-2.2575,0.107726,-0.237168,-1.40751,-0.04578,0.28616,0.37506
-10.6167,0,0,25.6167,25.6167,5,5,23.8858,-1.30007,-15.0481,0.0239472,0.183084,-0.188481,1,0,10.885,-0.735,-2.1875,-0.03904,-0.209352,-1.11447,-0.04578,0.28616,0.37506
-10.6287,0,0,25.6287,25.6287,5,5,23.8978,-1.30108,-15.0508,0.0239649,0.183274,-0.188566,1,0,10.2025,-1.155,-1.6275,-0.03904,-0.209352,-1.11447,-0.04578,0.28616,0.37506
-10.6407,0,0,25.6407,25.6407,5,5,23.9101,-1.3023,-15.0526,-0.119124,-0.400295,0.0563828,1,0,10.4125,-1.0675,-1.12,-0.182756,-0.792512,-0.871324,-0.04578,0.28616,0.37506
-10.6533,0,0,25.6533,25.6533,5,5,23.9235,-1.30219,-15.0526,-0.119126,-0.400081,0.0562879,1,0,11.06,0.0875,-0.455,-0.182756,-0.792512,-0.871324,-0.04578,0.28616,0.37506
-10.6664,0,0,25.6664,25.6664,5,5,23.9382,-1.30254,-15.052,0.127496,0.0177048,-0.352497,1,0,11.795,-0.0175,-0.0175,0.064904,-0.375394,-1.27685,-0.04578,0.28616,0.37506
-10.6798,0,0,25.6798,25.6798,5,5,23.9538,-1.30286,-15.0501,0.127502,0.017953,-0.352608,1,0,12.285,0.2975,0.6475,0.064904,-0.375394,-1.27685,-0.04788,0.27832,0.37324
-10.8412,0,0,25.8412,25.8412,5,5,24.339,-1.39203,-15.0516,-0.00700638,-0.244974,0.210296,0,0,12.4075,-0.0525,0.735,-0.071736,-0.64416,-0.71553,-0.04788,0.27832,0.37324
-10.9997,0,0,25.9997,25.9997,5,5,24.7168,-1.47661,-15.0536,-0.0055306,-0.238991,0.207525,0,0,12.495,0.3325,0.8925,-0.071736,-0.64416,-0.71553,-0.04788,0.27832,0.37324
-11.0553,0,0,26.0553,26.0553,5,5,24.8372,-1.61345,-15.048,-0.0717826,-0.0628371,0.0583107,0,0,12.04,0.5425,1.085,-0.140666,-0.470066,-0.862662,-0.04788,0.27832,0.37324
-11.1098,0,0,26.1098,26.1098,5,5,24.9546,-1.7475,-15.0433,-0.069444,-0.061008,0.0573862,0,0,11.8825,-0.3675,1.085,-0.140666,-0.470066,-0.862662,-0.04788,0.27832,0.37324
-11.1233,0,0,26.1233,26.1233,5,5,24.9698,-1.74946,-15.0423,0.160077,0.151243,-0.201041,1,0,12.04,-0.7875,0.5425,0.089792,-0.258274,-1.11898,-0.04788,0.27832,0.37324
-11.1372,0,0,26.1372,26.1372,5,5,24.9857,-1.75164,-15.0423,0.160115,0.151495,-0.20116,1,0,12.495,-1.12,0.14,0.089792,-0.258274,-1.11898,-0.04788,0.27832,0.37324
-11.1684,0,0,26.1684,26.1684,5,5,25.045,-1.72135,-15.1325,0.0258307,-0.0377128,0.0149301,0,0,12.845,-1.0325,0.14,-0.04453,-0.448228,-0.904142,-0.04788,0.27832,0.37324
-11.1997,0,0,26.1997,26.1997,5,5,25.1044,-1.69046,-15.222,0.0252918,-0.0367674,0.0145054,0,0,13.545,-0.4725,-0.3325,-0.04453,-0.448228,-0.904142,-0.04788,0.27832,0.37324
-11.2146,0,0,26.2146,26.2146,5,5,25.1227,-1.69076,-15.2222,0.143259,-0.217714,0.00502554,1,0,13.8075,-0.175,-0.455,0.073932,-0.629276,-0.913414,-0.0511,0.28014,0.37534
-11.2289,0,0,26.2289,26.2289,5,5,25.1396,-1.69064,-15.2226,0.00597856,0.0833515,0.172725,1,0,13.02,-0.0175,-0.6825,-0.063928,-0.32879,-0.746884,-0.0511,0.28014,0.37534
-11.2426,0,0,26.2426,26.2426,5,5,25.1551,-1.6908,-15.2232,0.00598147,0.0835962,0.17261,1,0,12.215,-0.21,-0.7,-0.063928,-0.32879,-0.746884,-0.0511,0.28014,0.37534
-11.2995,0,0,26.2995,26.2995,5,5,25.2783,-1.20184,-15.5503,0.330564,-0.106351,0.098735,0,0,12.3725,-0.63,-0.455,0.270596,-0.520574,-0.819474,-0.0511,0.28014,0.37534
-11.356,0,0,26.356,26.356,5,5,25.4007,-0.725681,-15.8708,0.322255,-0.104361,0.0979472,0,0,12.9675,-0.4375,0.07,0.270596,-0.520574,-0.819474,-0.0511,0.28014,0.37534
-11.4712,0,0,26.4712,26.4712,5,5,25.6694,-0.546354,-16.0204,0.140177,-0.162643,0.180914,0,0,13.965,-0.455,0.28,0.09089,-0.583038,-0.735172,-0.0511,0.28014,0.37534
-11.585,0,0,26.585,26.585,5,5,25.9344,-0.370859,-16.1662,0.137114,-0.158468,0.178923,0,0,14.5075,-0.2625,0.7525,0.09089,-0.583038,-0.735172,-0.0511,0.28014,0.37534
-11.6165,0,0,26.6165,26.6165,5,5,25.9937,-0.107975,-16.3693,0.18197,-0.0717976,-0.00765622,0,0,14.735,-0.35,0.9625,0.140544,-0.497394,-0.91988,-0.05152,0.27356,0.37338
-11.4995,0,0,26.4995,26.4995,5,5,25.6818,0.404707,-16.7449,0.280173,0.260119,-0.0273128,0,0,14.1575,-0.315,1.0325,0.248148,-0.160918,-0.941718,-0.05152,0.27356,0.37338
-11.3843,0,0,26.3843,26.3843,5,5,25.3749,0.903994,-17.1215,0.271459,0.255243,-0.0250941,0,0,13.825,-0.07,0.7525,0.248148,-0.160918,-0.941718,-0.05152,0.27356,0.37338
-11.4779,0,0,26.4779,26.4779,5,5,25.5897,0.805519,-17.124,-0.0341812,-0.116413,0.120362,0,0,14.5775,-0.56,0.735,-0.060512,-0.53558,-0.795806,-0.05152,0.27356,0.37338
-11.5699,0,0,26.5699,26.5699,5,5,25.8002,0.711092,-17.1277,-0.0325333,-0.113093,0.118789,0,0,14.665,-0.525,0.2625,-0.060512,-0.53558,-0.795806,-0.05152,0.27356,0.37338
-11.5863,0,0,26.5863,26.5863,5,5,25.8218,0.709022,-17.1281,0.187756,-0.48756,-0.064445,1,0,15.6625,-1.1725,-0.1225,0.160674,-0.909998,-0.977464,-0.05152,0.27356,0.37338
-11.6026,0,0,26.6026,26.6026,5,5,25.8433,0.708046,-17.1287,0.187773,-0.487223,-0.0646078,1,0,15.5575,-0.665,-0.5425,0.160674,-0.909998,-0.977464,-0.05152,0.27356,0.37338
-11.6188,0,0,26.6188,26.6188,5,5,25.8645,0.707025,-17.1299,-0.162816,-0.308707,-0.284847,1,0,15.435,-0.805,-0.77,-0.191418,-0.732,-1.19584,-0.05152,0.27356,0.37338
-11.6348,0,0,26.6348,26.6348,5,5,25.885,0.706561,-17.1315,-0.162808,-0.308385,-0.285003,1,0,15.05,-0.63,-1.155,-0.191418,-0.732,-1.19584,-0.05096,0.27356,0.37884
-11.6501,0,0,26.6501,26.6501,5,5,25.9037,0.706189,-17.1332,-0.0799487,0.426867,0.01448,1,0,14.035,-0.6125,-1.2425,-0.108214,0.002196,-0.89853,-0.05096,0.27356,0.37884
-11.6661,0,0,26.6661,26.6661,5,5,25.9244,0.705143,-17.1343,-0.0799304,0.427193,0.014322,1,0,15.1725,-0.8225,-0.77,-0.108214,0.002196,-0.89853,-0.05096,0.27356,0.37884
-11.7407,0,0,26.7407,26.7407,5,5,26.0912,0.333328,-16.9945,-0.23684,-0.121324,-0.011245,0,0,16.0825,-0.8575,-0.5775,-0.272304,-0.54839,-0.922686,-0.05096,0.27356,0.37884
-11.814,0,0,26.814,26.814,5,5,26.2548,-0.0269324,-16.8564,-0.230552,-0.118753,-0.0124896,0,0,16.8525,-0.0525,-0.42,-0.272304,-0.54839,-0.922686,-0.05096,0.27356,0.37884
-11.8317,0,0,26.8317,26.8317,5,5,26.2793,-0.0279931,-16.8559,-0.00760709,0.0130376,-0.197962,1,0,17.2375,-0.42,0.07,-0.048434,-0.417118,-1.10654,-0.05096,0.27356,0.37884
-11.8493,0,0,26.8493,26.8493,5,5,26.3037,-0.0290541,-16.8555,-0.00758857,0.01342,-0.198151,1,0,17.2375,-0.42,0.07,-0.048434,-0.417118,-1.10654,-0.05096,0.27356,0.37884
-11.8653,0,0,26.8653,26.8653,5,5,26.324,-0.0305658,-16.8536,0.120484,-0.11242,-0.21884,1,0,14.91,-0.28,0.945,0.080154,-0.543144,-1.12691,-0.05096,0.27356,0.37884
-11.8813,0,0,26.8813,26.8813,5,5,26.3443,-0.0320781,-16.8517,0.12051,-0.112102,-0.218997,1,0,14.91,-0.28,0.945,0.080154,-0.543144,-1.12691,-0.05124,0.26992,0.3787
-11.898,0,0,26.898,26.898,5,5,26.3661,-0.0330022,-16.8495,0.0181138,-0.226438,-0.208962,1,0,15.785,0.105,0.945,-0.022692,-0.657702,-1.11679,-0.05124,0.26992,0.3787
-11.9147,0,0,26.9147,26.9147,5,5,26.388,-0.0339272,-16.8473,0.01813,-0.226096,-0.209131,1,0,15.785,0.105,0.945,-0.022692,-0.657702,-1.11679,-0.05124,0.26992,0.3787
-11.9081,0,0,26.9081,26.9081,5,5,26.3518,0.263475,-17.067,0.177674,0.0426227,0.0227752,0,0,18.1475,0.035,0.56,0.14274,-0.388692,-0.88694,-0.05124,0.26992,0.3787
-11.9019,0,0,26.9019,26.9019,5,5,26.3167,0.552658,-17.2846,0.172627,0.0420581,0.0230146,0,0,18.1475,0.035,0.56,0.14274,-0.388692,-0.88694,-0.05124,0.26992,0.3787
-11.9702,0,0,26.9702,26.9702,5,5,26.4676,0.0333988,-17.0574,-0.295142,-0.00673338,0.124424,0,0,17.535,-0.805,0.28,-0.33611,-0.43981,-0.785192,-0.05124,0.26992,0.3787
-12.0367,0,0,27.0367,27.0367,5,5,26.6137,-0.472276,-16.8335,-0.286316,-0.00446678,0.123255,0,0,17.535,-0.805,0.28,-0.33611,-0.43981,-0.785192,-0.05124,0.26992,0.3787
-11.9721,0,0,26.9721,26.9721,5,5,26.4324,-0.208162,-17.0469,0.142414,0.155876,-0.0420261,0,0,16.485,-0.4025,-0.21,0.099064,-0.276818,-0.950624,-0.05124,0.26992,0.3787
-11.9089,0,0,26.9089,26.9089,5,5,26.2548,0.04837,-17.2596,0.137936,0.153101,-0.040645,0,0,16.485,-0.4025,-0.21,0.099064,-0.276818,-0.950624,-0.05124,0.26992,0.3787
-11.9269,0,0,26.9269,26.9269,5,5,26.28,0.0483927,-17.259,0.243264,0.02917,-0.146698,1,0,17.6575,0.1925,-0.1225,0.204838,-0.401014,-1.05567,-0.0504,0.2702,0.37352
-11.9699,0,0,26.9699,26.9699,5,5,26.3677,-0.377257,-17.0856,-0.25493,0.0178312,0.0681326,0,0,18.9,-0.0175,-0.1575,-0.302926,-0.413702,-0.8418,-0.0504,0.2702,0.37352
-12.0117,0,0,27.0117,27.0117,5,5,26.4523,-0.79177,-16.914,-0.247696,0.0191208,0.0674098,0,0,18.9,-0.0175,-0.1575,-0.302926,-0.413702,-0.8418,-0.0504,0.2702,0.37352
-11.9789,0,0,26.9789,26.9789,5,5,26.3507,-1.15891,-16.7851,-0.231206,0.171608,0.0306013,0,0,18.235,-1.3125,0.35,-0.2928,-0.259738,-0.87901,-0.0504,0.2702,0.37352
-11.9465,0,0,26.9465,26.9465,5,5,26.2499,-1.5173,-16.6558,-0.224953,0.169967,0.0312495,0,0,18.235,-1.3125,0.35,-0.2928,-0.259738,-0.87901,-0.0504,0.2702,0.37352
-11.8228,0,0,26.8228,26.8228,5,5,25.9213,-0.981046,-17.0159,0.328047,0.266761,-0.12342,0,0,18.13,0.105,0.49,0.271938,-0.15799,-1.03517,-0.0504,0.2702,0.37352
-11.7014,0,0,26.7014,26.7014,5,5,25.5985,-0.458789,-17.3777,0.318933,0.261737,-0.120869,0,0,18.13,0.105,0.49,0.271938,-0.15799,-1.03517,-0.0504,0.2702,0.37352
-11.7214,0,0,26.7214,26.7214,5,5,25.6295,-0.459062,-17.3767,-0.123878,-0.196728,-0.287206,1,0,20.9125,0.105,0.105,-0.172752,-0.616466,-1.19999,-0.0504,0.2702,0.37352
-11.7421,0,0,26.7421,26.7421,5,5,25.6619,-0.459773,-17.3765,0.0283565,-0.321764,-0.107946,1,0,21.735,-0.28,-0.105,-0.019886,-0.741882,-1.02187,-0.04704,0.26642,0.37422
-11.7631,0,0,26.7631,26.7631,5,5,25.6951,-0.460668,-17.3769,0.0283721,-0.321243,-0.108197,1,0,22.1025,-0.56,-0.4375,-0.019886,-0.741882,-1.02187,-0.04704,0.26642,0.37422
-11.8715,0,0,26.8715,26.8715,5,5,25.9467,-0.542228,-17.3545,-0.0263309,-0.215931,0.0332373,0,0,20.405,-1.8025,-0.14,-0.07625,-0.640622,-0.87962,-0.04704,0.26642,0.37422
-11.978,0,0,26.978,26.978,5,5,26.1932,-0.620609,-17.3329,-0.0249629,-0.212072,0.031334,0,0,20.405,-1.8025,-0.14,-0.07625,-0.640622,-0.87962,-0.04704,0.26642,0.37422
-11.9961,0,0,26.9961,26.9961,5,5,26.2189,-0.622641,-17.3345,0.258013,0.211622,-0.328243,1,0,17.955,-1.4525,-0.735,0.207888,-0.21777,-1.23623,-0.04704,0.26642,0.37422
-12.0143,0,0,27.0143,27.0143,5,5,26.2447,-0.624673,-17.3361,0.258048,0.212025,-0.328442,1,0,17.955,-1.4525,-0.735,0.207888,-0.21777,-1.23623,-0.04704,0.26642,0.37422
-11.9135,0,0,26.9135,26.9135,5,5,25.9732,-0.320646,-17.5795,0.173533,0.22269,-0.151362,0,0,21.105,-0.35,-0.665,0.128344,-0.202886,-1.06262,-0.04704,0.26642,0.37422
-11.8146,0,0,26.8146,26.8146,5,5,25.7066,-0.0238686,-17.8225,0.168354,0.218508,-0.14932,0,0,21.105,-0.35,-0.665,0.128344,-0.202886,-1.06262,-0.05026,0.26726,0.37128
-11.8378,0,0,26.8378,26.8378,5,5,25.7453,-0.0243774,-17.822,0.494552,0.0668249,0.26583,1,0,25.235,-0.14,-0.0875,0.455914,-0.35502,-0.650382,-0.05026,0.26726,0.37128
-11.8592,0,0,26.8592,26.8592,5,5,25.7796,-0.0264881,-17.8214,-0.0787025,-0.246014,-0.278723,1,0,22.75,-0.9275,0.4375,-0.119804,-0.668072,-1.19048,-0.05026,0.26726,0.37128
-11.8797,0,0,26.8797,26.8797,5,5,25.8114,-0.0289187,-17.8206,-0.0786601,-0.245514,-0.278965,1,0,21.3675,-1.0675,0.5775,-0.119804,-0.668072,-1.19048,-0.05026,0.26726,0.37128
-11.9303,0,0,26.9303,26.9303,5,5,25.9185,-0.236579,-17.7498,-0.133835,-0.0790856,-0.0396698,0,0,20.195,-0.2625,0.4375,-0.178852,-0.503494,-0.95221,-0.05026,0.26726,0.37128
-11.9811,0,0,26.9811,26.9811,5,5,26.0258,-0.437942,-17.679,-0.13032,-0.077411,-0.0405086,0,0,21.805,0.2275,0.8925,-0.178852,-0.503494,-0.95221,-0.05026,0.26726,0.37128
-12.003,0,0,27.003,27.003,5,5,26.0611,-0.438736,-17.6771,-0.00456886,0.119766,0.0804484,1,0,23.31,0.0875,0.7525,-0.052582,-0.307074,-0.831918,-0.05026,0.26726,0.37128
-12.0283,0,0,27.0283,27.0283,5,5,26.1047,-0.43948,-17.6755,-0.00455588,0.12045,0.0801135,1,0,28,0.0525,0.6125,-0.052582,-0.307074,-0.831918,-0.05026,0.26726,0.37128
-12.1697,0,0,27.1697,27.1697,5,5,26.4384,-0.102313,-17.8509,0.260351,-0.246924,0.181944,0,0,28.6825,-0.105,0.735,0.219356,-0.679296,-0.72834,-0.05026,0.26726,0.37128
-12.3076,0,0,27.3076,27.3076,5,5,26.7632,0.226124,-18.0214,0.254619,-0.241859,0.1794,0,0,26.8625,-1.61,0.945,0.219356,-0.679296,-0.72834,-0.05656,0.2702,0.37184
-12.3313,0,0,27.3313,27.3313,5,5,26.8022,0.223066,-18.0207,-0.00652203,0.0671194,0.199257,1,0,25.4275,-1.3825,0.7525,-0.042944,-0.371246,-0.708332,-0.05656,0.2702,0.37184
-12.3528,0,0,27.3528,27.3528,5,5,26.8359,0.220648,-18.0198,-0.00647983,0.0676441,0.198992,1,0,22.4175,-1.015,0.6475,-0.042944,-0.371246,-0.708332,-0.05656,0.2702,0.37184
-12.3738,0,0,27.3738,27.3738,5,5,26.8683,0.218816,-18.0187,-0.022241,0.114557,0.189761,1,0,21.7175,-0.63,0.6475,-0.058804,-0.324886,-0.717238,-0.05656,0.2702,0.37184
-12.3969,0,0,27.3969,27.3969,5,5,26.9058,0.214809,-18.0183,-0.0221711,0.115141,0.189465,1,0,24.5525,-1.9775,0.805,-0.058804,-0.324886,-0.717238,-0.05656,0.2702,0.37184
-12.422,0,0,27.422,27.422,5,5,26.9484,0.212016,-18.0176,-0.250272,-0.0496781,0.558835,1,0,27.405,-1.2425,0.6825,-0.28792,-0.490196,-0.350384,-0.05656,0.2702,0.37184
-12.4494,0,0,27.4494,27.4494,5,5,26.9966,0.211157,-18.0163,-0.250257,-0.0489279,0.558454,1,0,30.5725,-0.0875,0.455,-0.28792,-0.490196,-0.350384,-0.05656,0.2702,0.37184
-12.4772,0,0,27.4772,27.4772,5,5,27.0458,0.54432,-18.2287,0.209947,-0.0101993,0.0532029,0,0,30.8,-0.735,0.42,0.180072,-0.452254,-0.851316,-0.05656,0.2702,0.37184
-12.5022,0,0,27.5022,27.5022,5,5,27.088,0.86723,-18.4349,0.204312,-0.00957532,0.0528061,0,0,26.8975,-1.015,0.5425,0.180072,-0.452254,-0.851316,-0.05362,0.26754,0.37828
-12.5266,0,0,27.5266,27.5266,5,5,27.1288,0.864705,-18.4345,0.48438,0.0621366,-0.181981,1,0,26.4075,-1.1725,0.4725,0.461282,-0.38125,-1.08397,-0.05362,0.26754,0.37828
-12.5511,0,0,27.5511,27.5511,5,5,27.1696,0.86218,-18.434,0.484424,0.0627705,-0.182305,1,0,26.4075,-1.1725,0.4725,0.461282,-0.38125,-1.08397,-0.05362,0.26754,0.37828
-12.5753,0,0,27.5753,27.5753,5,5,27.2096,0.85953,-18.4332,-0.0594209,0.2522,0.174173,1,0,25.9525,-1.155,0.665,-0.084912,-0.192638,-0.729926,-0.05362,0.26754,0.37828
-12.5994,0,0,27.5994,27.5994,5,5,27.2496,0.85688,-18.4325,-0.0593747,0.252821,0.173855,1,0,25.9525,-1.155,0.665,-0.084912,-0.192638,-0.729926,-0.05362,0.26754,0.37828
-12.7569,0,0,27.7569,27.7569,5,5,27.6224,0.392087,-18.1915,-0.23823,-0.136078,0.220115,0,0,34.405,-0.0175,0.0875,-0.27267,-0.586942,-0.681126,-0.05362,0.26754,0.37828
-12.9108,0,0,27.9108,27.9108,5,5,27.9863,-0.0595724,-17.9566,-0.230347,-0.13045,0.217173,0,0,34.405,-0.0175,0.0875,-0.27267,-0.586942,-0.681126,-0.05362,0.26754,0.37828
-12.9392,0,0,27.9392,27.9392,5,5,28.0363,-0.0634966,-17.9571,-0.236717,0.480222,0.162419,1,0,31.57,-2.1525,0.3675,-0.279136,0.022326,-0.73505,-0.05362,0.26754,0.37828
-12.9676,0,0,27.9676,27.9676,5,5,28.0863,-0.0674204,-17.9576,-0.236648,0.480992,0.162009,1,0,31.57,-2.1525,0.3675,-0.279136,0.022326,-0.73505,-0.05432,0.26068,0.37478
-12.77,0,0,27.77,27.77,5,5,27.5714,-0.177245,-18.0047,-0.141674,0.536549,-0.176088,0,0,25.305,-1.3475,0.175,-0.185684,0.085766,-1.0747,-0.05432,0.26068,0.37478
-12.5753,0,0,27.5753,27.5753,5,5,27.0645,-0.285836,-18.051,-0.139778,0.528686,-0.172035,0,0,25.305,-1.3475,0.175,-0.185684,0.085766,-1.0747,-0.05432,0.26068,0.37478
-12.6039,0,0,27.6039,27.6039,5,5,27.1156,-0.288581,-18.0512,0.0636367,0.687633,-0.665465,1,0,32.165,-1.47,0.175,0.018544,0.243756,-1.56392,-0.05432,0.26068,0.37478
-12.6325,0,0,27.6325,27.6325,5,5,27.1667,-0.291326,-18.0514,0.0636846,0.688426,-0.665872,1,0,32.165,-1.47,0.175,0.018544,0.243756,-1.56392,-0.05432,0.26068,0.37478
-12.6655,0,0,27.6655,27.6655,5,5,27.2287,-0.29318,-18.0523,-0.350549,0.00706697,-0.347069,1,0,38.3075,-1.1725,-0.385,-0.397476,-0.437858,-1.24708,-0.05432,0.26068,0.37478
-12.6943,0,0,27.6943,27.6943,5,5,27.2802,-0.296947,-18.053,0.510607,-0.250676,0.163615,1,0,32.4275,-2.135,0.1925,0.46726,-0.696132,-0.73993,-0.05432,0.26068,0.37478
-12.7193,0,0,27.7193,27.7193,5,5,27.3223,-0.299806,-18.0526,0.510657,-0.250024,0.163279,1,0,27.09,-1.365,0.525,0.46726,-0.696132,-0.73993,-0.05432,0.26068,0.37478
-12.7454,0,0,27.7454,27.7454,5,5,27.3671,-0.302694,-18.0522,0.357757,0.621678,-0.15687,1,0,28.665,-1.365,0.56,0.313662,0.173972,-1.05725,-0.05152,0.26096,0.37842
-12.7749,0,0,27.7749,27.7749,5,5,27.4203,-0.305109,-18.0504,0.357799,0.622502,-0.157297,1,0,33.355,-0.7525,1.1375,0.313662,0.173972,-1.05725,-0.05152,0.26096,0.37842
-12.7565,0,0,27.7565,27.7565,5,5,27.3538,-1.09813,-17.684,-0.478275,0.271013,0.133244,0,0,36.96,-1.225,1.3475,-0.53985,-0.176046,-0.769332,-0.05152,0.26096,0.37842
-12.7374,0,0,27.7374,27.7374,5,5,27.2856,-1.8757,-17.3156,-0.464709,0.269794,0.133478,0,0,36.96,-1.225,1.3475,-0.53985,-0.176046,-0.769332,-0.05152,0.26096,0.37842
-12.7719,0,0,27.7719,27.7719,5,5,27.3513,-1.87969,-17.3149,-0.331005,0.379626,0.175859,1,0,40.39,-1.855,1.015,-0.40565,-0.067344,-0.726754,-0.05152,0.26096,0.37842
-12.8031,0,0,27.8031,27.8031,5,5,27.4088,-1.88463,-17.3137,0.143726,-0.644373,0.154986,1,0,35.7875,-2.2225,1.5225,0.071004,-1.09117,-0.747006,-0.05152,0.26096,0.37842
-12.8335,0,0,27.8335,27.8335,5,5,27.4642,-1.88733,-17.3112,0.143773,-0.643516,0.154539,1,0,34.6325,-0.7175,1.5575,0.071004,-1.09117,-0.747006,-0.05152,0.26096,0.37842
-12.8622,0,0,27.8622,27.8622,5,5,27.5152,-1.89106,-17.3098,0.558104,0.0729353,-0.0847626,1,0,32.165,-1.54,1.295,0.487024,-0.376248,-0.984052,-0.05152,0.26096,0.37842
-12.8954,0,0,27.8954,27.8954,5,5,27.5775,-1.89588,-17.3087,0.558188,0.0738975,-0.0852676,1,0,38.4825,-2.17,1.4525,0.487024,-0.376248,-0.984052,-0.04732,0.2611,0.38472
-12.9296,0,0,27.9296,27.9296,5,5,27.6424,-1.90164,-17.3081,0.0184065,-0.0750719,0.346491,1,0,39.9525,-2.835,1.3825,-0.055144,-0.526064,-0.5551,-0.04732,0.2611,0.38472
-12.9664,0,0,27.9664,27.9664,5,5,27.7136,-1.90264,-17.308,0.0184239,-0.0739719,0.345914,1,0,43.47,-0.455,-0.0875,-0.055144,-0.526064,-0.5551,-0.04732,0.2611,0.38472
-13.0018,0,0,28.0018,28.0018,5,5,27.7813,-1.90374,-17.308,-0.168037,0.0546945,0.234341,1,0,41.4575,-0.56,-0.1575,-0.242414,-0.398574,-0.665266,-0.04732,0.2611,0.38472
-13.0354,0,0,28.0354,28.0354,5,5,27.8443,-1.90691,-17.3066,-0.167982,0.0556667,0.233826,1,0,38.92,-1.2425,1.1375,-0.242414,-0.398574,-0.665266,-0.04732,0.2611,0.38472
-13.0685,0,0,28.0685,28.0685,5,5,27.9062,-1.90923,-17.3055,-0.224918,0.0425753,0.210329,1,0,38.2375,-0.8575,0.805,-0.299632,-0.412604,-0.68808,-0.04732,0.2611,0.38472
-13.1025,0,0,28.1025,28.1025,5,5,27.9702,-1.91221,-17.304,-0.224867,0.0435603,0.209805,1,0,39.4275,-1.12,1.12,-0.299632,-0.412604,-0.68808,-0.04732,0.2611,0.38472
-13.1379,0,0,28.1379,28.1379,5,5,28.0377,-1.91554,-17.3022,0.187149,0.165383,-0.325453,1,0,41.44,-1.2075,1.4,0.11407,-0.291946,-1.21866,-0.04732,0.2611,0.38472
-13.1767,0,0,28.1767,28.1767,5,5,28.1135,-1.91903,-17.3015,0.18721,0.166549,-0.326077,1,0,46.06,-1.5925,0.875,0.11407,-0.291946,-1.21866,-0.05068,0.25914,0.38234
-13.2164,0,0,28.2164,28.2164,5,5,28.1916,-1.92043,-17.3005,0.489977,-0.461569,-0.137503,1,0,47.3375,-0.42,0.4725,0.418094,-0.920612,-1.0309,-0.05068,0.25914,0.38234
-13.2534,0,0,28.2534,28.2534,5,5,28.263,-1.9249,-17.2986,0.490055,-0.460473,-0.138094,1,0,43.61,-1.7675,1.7675,0.418094,-0.920612,-1.0309,-0.05068,0.25914,0.38234
-13.3832,0,0,28.3832,28.3832,5,5,28.5661,-1.85146,-17.3074,0.0717137,-0.136076,0.182167,0,0,42.875,-2.6425,2.0125,-0.000732,-0.601216,-0.71065,-0.05068,0.25914,0.38234
-13.5093,0,0,28.5093,28.5093,5,5,28.8596,-1.77736,-17.3163,0.070421,-0.131565,0.179743,0,0,40.5825,-1.96,1.2425,-0.000732,-0.601216,-0.71065,-0.05068,0.25914,0.38234
-13.5167,0,0,28.5167,28.5167,5,5,28.8565,-1.31186,-17.5569,0.316933,-0.00767114,-0.0549932,0,0,41.2825,-1.855,1.015,0.25498,-0.477508,-0.943792,-0.05068,0.25914,0.38234
-13.5244,0,0,28.5244,28.5244,5,5,28.854,-0.858635,-17.795,0.309025,-0.00763636,-0.0548413,0,0,41.2825,-1.855,1.015,0.25498,-0.477508,-0.943792,-0.05068,0.25914,0.38234
-13.564,0,0,28.564,28.564,5,5,28.9315,-0.862787,-17.797,0.376522,-0.0864462,-0.290081,1,0,46.9525,-2.66,-0.2625,0.32269,-0.557418,-1.17657,-0.05068,0.25914,0.38234
-13.6037,0,0,28.6037,28.6037,5,5,29.009,-0.866937,-17.7989,0.376594,-0.085264,-0.290737,1,0,46.9525,-2.66,-0.2625,0.32269,-0.557418,-1.17657,-0.0525,0.25788,0.38892
-13.6434,0,0,28.6434,28.6434,5,5,29.0863,-0.870322,-17.7979,0.00757969,-0.00115961,-0.115085,1,0,46.935,-1.4175,1.05,-0.047946,-0.47458,-1.00162,-0.0525,0.25788,0.38892
-13.6831,0,0,28.6831,28.6831,5,5,29.1637,-0.873709,-17.7968,0.00763879,1.97964e-05,-0.115744,1,0,46.935,-1.4175,1.05,-0.047946,-0.47458,-1.00162,-0.0525,0.25788,0.38892
-13.5993,0,0,28.5993,28.5993,5,5,28.9326,-1.01277,-17.7727,-0.130008,0.273457,-0.18722,0,0,47.1975,-1.3825,0.91,-0.188612,-0.197884,-1.07445,-0.0525,0.25788,0.38892
-13.6403,0,0,28.6403,28.6403,5,5,29.0131,-1.01538,-17.7703,0.214693,0.281159,0.0899619,1,0,48.72,-0.63,1.54,0.157502,-0.191418,-0.798734,-0.0525,0.25788,0.38892
-13.6819,0,0,28.6819,28.6819,5,5,29.0955,-1.01977,-17.7687,0.21477,0.282415,0.0892629,1,0,49.7175,-1.7675,1.6275,0.157502,-0.191418,-0.798734,-0.0525,0.25788,0.38892
-13.5753,0,0,28.5753,28.5753,5,5,28.8074,-0.271249,-18.1908,0.473713,0.292987,-0.0670244,0,0,53.13,-1.8725,1.645,0.43066,-0.176534,-0.956358,-0.0525,0.25788,0.38892
-13.4702,0,0,28.4702,28.4702,5,5,28.5231,0.459033,-18.614,0.460967,0.288623,-0.0646625,0,0,52.815,-1.8375,2.1875,0.43066,-0.176534,-0.956358,-0.0525,0.25788,0.38892
-13.5125,0,0,28.5125,28.5125,5,5,28.6074,0.453345,-18.6104,-0.0776012,0.490203,-0.410481,1,0,50.7675,-1.9075,2.975,-0.110288,0.023546,-1.29881,-0.05096,0.25494,0.39046
-13.5549,0,0,28.5549,28.5549,5,5,28.692,0.449618,-18.6072,-0.0775361,0.491499,-0.411189,1,0,50.96,-0.9975,2.24,-0.110288,0.023546,-1.29881,-0.05096,0.25494,0.39046
-13.5974,0,0,28.5974,28.5974,5,5,28.7767,0.446741,-18.6047,0.0446072,-0.0230679,-0.295959,1,0,51.0125,-0.735,1.68,0.012322,-0.491782,-1.18377,-0.05096,0.25494,0.39046
-13.64,0,0,28.64,28.64,5,5,28.8614,0.443861,-18.6021,0.0446575,-0.0217725,-0.296671,1,0,51.0125,-0.735,1.68,0.012322,-0.491782,-1.18377,-0.05096,0.25494,0.39046
-13.6845,0,0,28.6845,28.6845,5,5,28.9509,0.438411,-18.6034,-0.060697,-0.210434,-0.036529,1,0,53.725,-3.15,0.42,-0.093574,-0.681614,-0.924882,-0.05096,0.25494,0.39046
-13.7305,0,0,28.7305,28.7305,5,5,29.0443,0.434499,-18.6041,0.449976,0.227473,-0.164079,1,0,55.895,-2.17,0.3325,0.419192,-0.245586,-1.05066,-0.05096,0.25494,0.39046
-13.7757,0,0,28.7757,28.7757,5,5,29.1355,0.43002,-18.6037,0.450054,0.228864,-0.164852,1,0,54.6525,-2.17,1.015,0.419192,-0.245586,-1.05066,-0.05096,0.25494,0.39046
-13.8213,0,0,28.8213,28.8213,5,5,29.2274,0.425534,-18.6032,-0.0270637,0.270079,-0.329032,1,0,55.09,-2.135,1.085,-0.060024,-0.205814,-1.2128,-0.05096,0.25494,0.39046
-13.8681,0,0,28.8681,28.8681,5,5,29.3225,0.422293,-18.6022,-0.0270071,0.271526,-0.329843,1,0,56.8225,-1.3475,0.9975,-0.060024,-0.205814,-1.2128,-0.05474,0.24108,0.3969
-13.9153,0,0,28.9153,28.9153,5,5,29.4185,0.418245,-18.6012,-0.242209,0.435537,0.410223,1,0,57.365,-1.75,1.2425,-0.276208,-0.043432,-0.47763,-0.05474,0.24108,0.3969
-13.9641,0,0,28.9641,28.9641,5,5,29.5183,0.413877,-18.6002,-0.242133,0.437054,0.409367,1,0,59.465,-1.925,1.3125,-0.276208,-0.043432,-0.47763,-0.05474,0.24108,0.3969
-14.0143,0,0,29.0143,29.0143,5,5,29.6215,0.408282,-18.5999,-0.0773007,-0.569169,0.21926,1,0,61.425,-2.73,1.3475,-0.110776,-1.05018,-0.665388,-0.05474,0.24108,0.3969
-14.0633,0,0,29.0633,29.0633,5,5,29.7217,0.405449,-18.5962,-0.0772512,-0.56765,0.218396,1,0,59.6575,-0.3675,2.2225,-0.110776,-1.05018,-0.665388,-0.05474,0.24108,0.3969
-14.0778,0,0,29.0778,29.0778,5,5,29.7356,0.245527,-18.5093,-0.106775,0.0875351,-0.0434687,0,0,58.45,-1.435,2.6775,-0.143228,-0.39589,-0.925126,-0.05474,0.24108,0.3969
-14.0934,0,0,29.0934,29.0934,5,5,29.7523,0.0896698,-18.4236,-0.104055,0.0877914,-0.0436059,0,0,60.375,-1.68,2.3275,-0.143228,-0.39589,-0.925126,-0.05474,0.24108,0.3969
-14.1427,0,0,29.1427,29.1427,5,5,29.8533,0.0847139,-18.4228,0.201568,-0.0770149,-0.481564,1,0,60.1825,-2.2575,1.4175,0.163602,-0.562054,-1.35884,-0.05474,0.24108,0.3969
-14.192,0,0,29.192,29.192,5,5,29.954,0.0807052,-18.4226,0.201638,-0.0754919,-0.48244,1,0,59.9725,-1.96,0.8225,0.163602,-0.562054,-1.35884,-0.0532,0.2387,0.39844
-14.2914,0,0,29.2914,29.2914,5,5,30.1799,0.124486,-18.3937,0.046344,-0.152318,-0.00958933,0,0,62.7725,-2.7475,0.9975,0.008418,-0.642208,-0.887672,-0.0532,0.2387,0.39844
-14.3896,0,0,29.3896,29.3896,5,5,30.4027,0.168535,-18.3638,0.0455752,-0.148961,-0.0115525,0,0,63.3325,-1.96,1.4,0.008418,-0.642208,-0.887672,-0.0532,0.2387,0.39844
-14.441,0,0,29.441,29.441,5,5,30.5082,0.163094,-18.3629,-0.44416,0.068547,-0.0467885,1,0,62.7025,-2.4675,1.61,-0.483486,-0.426512,-0.92171,-0.0532,0.2387,0.39844
-14.4935,0,0,29.4935,29.4935,5,5,30.6165,0.158715,-18.3606,-0.444084,0.0701745,-0.0477493,1,0,64.2425,-1.505,2.0125,-0.483486,-0.426512,-0.92171,-0.0532,0.2387,0.39844
-14.5519,0,0,29.5519,29.5519,5,5,30.7394,-0.607297,-17.9662,-0.435817,0.162733,0.145001,0,0,65.17,-0.5775,2.3275,-0.48861,-0.335866,-0.729316,-0.0532,0.2387,0.39844
-14.6092,0,0,29.6092,29.6092,5,5,30.8594,-1.35731,-17.574,-0.422729,0.164417,0.143736,0,0,66.57,-0.945,2.3975,-0.48861,-0.335866,-0.729316,-0.0532,0.2387,0.39844
-14.6634,0,0,29.6634,29.6634,5,5,30.9718,-1.3634,-17.5714,0.584494,0.775877,-0.848362,1,0,66.5875,-2.275,2.66,0.52277,0.27328,-1.71276,-0.0532,0.2387,0.39844
-14.7213,0,0,29.7213,29.7213,5,5,31.0933,-1.37319,-17.5701,0.584665,0.777691,-0.849458,1,0,71.6275,-4.48,3.185,0.52277,0.27328,-1.71276,-0.0532,0.2387,0.39844
-14.4932,0,0,29.4932,29.4932,5,5,30.5001,-1.24455,-17.7001,0.0384072,0.680529,-0.0322857,0,0,70.2275,-3.045,3.255,-0.023546,0.185074,-0.907192,-0.05446,0.23282,0.40488
-14.2669,0,0,29.2669,29.2669,5,5,29.912,-1.11839,-17.8327,0.0362058,0.671683,-0.0270835,0,0,68.53,-2.94,3.29,-0.023546,0.185074,-0.907192,-0.05446,0.23282,0.40488
-14.3228,0,0,29.3228,29.3228,5,5,30.0293,-1.12364,-17.83,-0.525938,-0.0946004,0.0701287,1,0,69.3,-1.8375,2.485,-0.588162,-0.582184,-0.809714,-0.05446,0.23282,0.40488
-14.3788,0,0,29.3788,29.3788,5,5,30.1465,-1.1289,-17.8272,-0.525847,-0.0928311,0.0691014,1,0,69.3,-1.8375,2.485,-0.588162,-0.582184,-0.809714,-0.05446,0.23282,0.40488
-14.5709,0,0,29.5709,29.5709,5,5,30.6039,-0.98398,-17.8014,0.134329,-0.307094,0.189407,0,0,67.76,-8.4,0.875,0.077348,-0.803126,-0.686372,-0.05446,0.23282,0.40488
-14.7601,0,0,29.7601,29.7601,5,5,31.0537,-0.841639,-17.775,0.131845,-0.300333,0.185418,0,0,67.76,-8.4,0.875,0.077348,-0.803126,-0.686372,-0.05446,0.23282,0.40488
-14.8214,0,0,29.8214,29.8214,5,5,31.1835,-0.158641,-18.0497,0.437731,-0.0207445,0.114747,0,0,75.74,-2.1525,0.595,0.3965,-0.52582,-0.755424,-0.05446,0.23282,0.40488
-14.8823,0,0,29.8823,29.8823,5,5,31.3121,0.507387,-18.3196,0.426107,-0.0188442,0.113553,0,0,75.74,-2.1525,0.595,0.3965,-0.52582,-0.755424,-0.05446,0.23282,0.40488
-15.1148,0,0,30.1148,30.1148,5,5,31.8695,0.156897,-18.0353,-0.172046,-0.216933,0.300532,0,0,75.4425,-0.14,2.135,-0.210328,-0.732,-0.56486,-0.0434,0.23002,0.40712
-15.3012,0,0,30.3012,30.3012,5,5,32.3112,-0.739132,-17.5249,-0.517706,-0.053023,0.280878,0,0,75.0925,-2.345,1.7675,-0.573156,-0.574742,-0.580232,-0.0434,0.23002,0.40712
-15.4832,0,0,30.4832,30.4832,5,5,32.7419,-1.61631,-17.026,-0.502399,-0.0468567,0.276572,0,0,75.285,-3.045,1.3125,-0.573156,-0.574742,-0.580232,-0.0434,0.23002,0.40712
-15.6518,0,0,30.6518,30.6518,5,5,33.1385,-1.34232,-17.0601,0.208735,-0.264596,0.141359,0,0,79.6775,-3.08,1.9775,0.14579,-0.798124,-0.710772,-0.0434,0.23002,0.40712
-15.8201,0,0,30.8201,30.8201,5,5,33.5341,-1.07268,-17.0873,0.20403,-0.258774,0.137648,0,0,82.6525,-0.595,3.57,0.14579,-0.798124,-0.710772,-0.0434,0.23002,0.40712
-15.8864,0,0,30.8864,30.8864,5,5,33.6745,-1.07865,-17.082,0.269615,0.261326,0.0686687,1,0,82.285,-1.1725,4.06,0.211548,-0.2806,-0.777872,-0.0434,0.23002,0.40712
-15.95,0,0,30.95,30.95,5,5,33.8082,-1.08633,-17.078,0.269749,0.263265,0.0673704,1,0,78.5575,-2.3975,4.025,0.211548,-0.2806,-0.777872,-0.0434,0.23002,0.40712
-16.0118,0,0,31.0118,31.0118,5,5,33.9372,-1.09284,-17.0747,-0.0718763,0.214695,-0.781739,1,0,75.915,-2.1,3.2375,-0.131638,-0.330986,-1.61918,-0.0434,0.23002,0.40712
-16.0733,0,0,31.0733,31.0733,5,5,34.0653,-1.09594,-17.0741,-0.0718223,0.216547,-0.78299,1,0,75.3375,-1.2775,0.875,-0.131638,-0.330986,-1.61918,-0.04802,0.2254,0.41132
-16.1366,0,0,31.1366,31.1366,5,5,34.1979,-1.09965,-17.0739,-0.200532,-0.372142,-0.320897,1,0,77.91,-1.6975,0.8925,-0.260958,-0.920978,-1.15937,-0.04802,0.2254,0.41132
-16.2055,0,0,31.2055,31.2055,5,5,34.3444,-1.10918,-17.0744,-0.200366,-0.370031,-0.322339,1,0,85.6625,-4.76,2.45,-0.260958,-0.920978,-1.15937,-0.04802,0.2254,0.41132
-16.2755,0,0,31.2755,31.2755,5,5,34.4935,-1.11941,-17.0757,0.124544,-0.455208,0.307405,1,0,87.0975,-5.355,2.31,0.065148,-1.00821,-0.533018,-0.04802,0.2254,0.41132
-16.346,0,0,31.346,31.346,5,5,34.6438,-1.12805,-17.0757,0.124694,-0.453051,0.305915,1,0,87.78,-4.1475,2.415,0.065148,-1.00821,-0.533018,-0.04802,0.2254,0.41132
-16.4144,0,0,31.4144,31.4144,5,5,34.7887,-1.13526,-17.0744,-0.237936,0.581609,0.14968,1,0,84.8225,-3.0275,2.5725,-0.299144,0.023302,-0.686616,-0.04802,0.2254,0.41132
-16.4837,0,0,31.4837,31.4837,5,5,34.9357,-1.14027,-17.0728,-0.237849,0.583712,0.148213,1,0,85.96,-1.8375,2.0125,-0.299144,0.023302,-0.686616,-0.04802,0.2254,0.41132
-16.2983,0,0,31.2983,31.2983,5,5,34.4464,-0.767654,-17.2784,0.208912,0.579928,-0.241872,0,0,85.8025,-2.8875,2.24,0.156038,0.026474,-1.0786,-0.04802,0.2254,0.41132
-16.1193,0,0,31.1193,31.1193,5,5,33.9734,-0.409334,-17.4826,0.202659,0.573138,-0.237178,0,0,90.8775,-5.88,4.48,0.156038,0.026474,-1.0786,-0.05418,0.22512,0.41524
-15.9713,0,0,30.9713,30.9713,5,5,33.5784,-1.36707,-17.1219,-0.567734,0.82837,0.175612,0,0,93.7125,-6.3525,4.2175,-0.6344,0.28731,-0.672586,-0.05418,0.22512,0.41524
-15.8249,0,0,30.8249,30.8249,5,5,33.1875,-2.31136,-16.7439,-0.551261,0.822386,0.178923,0,0,95.48,-2.1175,2.975,-0.6344,0.28731,-0.672586,-0.05418,0.22512,0.41524
-15.7831,0,0,30.7831,30.7831,5,5,33.0582,-2.43613,-16.6442,-0.0751702,0.299578,-0.0225406,0,0,93.0475,-0.91,3.3075,-0.158478,-0.23302,-0.873642,-0.05418,0.22512,0.41524
-15.7383,0,0,30.7383,30.7383,5,5,32.9215,-2.55811,-16.5463,-0.0730432,0.297528,-0.0213203,0,0,87.7275,-1.54,2.3975,-0.158478,-0.23302,-0.873642,-0.05418,0.22512,0.41524
-15.8085,0,0,30.8085,30.8085,5,5,33.0722,-2.56577,-16.5479,0.927282,0.483529,-0.88315,1,0,87.9725,-4.27,1.19,0.845948,-0.04941,-1.7274,-0.05418,0.22512,0.41524
-15.8827,0,0,30.8827,30.8827,5,5,33.2328,-2.57806,-16.5512,0.927496,0.485868,-0.884689,1,0,93.485,-7.0525,1.89,0.845948,-0.04941,-1.7274,-0.05418,0.22512,0.41524
-15.958,0,0,30.958,30.958,5,5,33.3959,-2.58808,-16.5529,0.177497,-0.0380039,-1.194,1,0,94.9375,-5.4425,1.925,0.092598,-0.575108,-2.03276,-0.05418,0.22512,0.41524
-16.0407,0,0,31.0407,31.0407,5,5,33.5774,-2.59185,-16.5509,0.177563,-0.0353661,-1.19575,1,0,105.35,-1.155,1.785,0.092598,-0.575108,-2.03276,-0.05138,0.20818,0.42028
-16.1209,0,0,31.1209,31.1209,5,5,33.7526,-2.59371,-16.5444,-0.317338,0.378743,-0.417087,1,0,101.955,1.2075,3.29,-0.40443,-0.163968,-1.25843,-0.05138,0.20818,0.42028
-16.195,0,0,31.195,31.195,5,5,33.9125,-2.59921,-16.5409,-0.317242,0.381056,-0.418643,1,0,93.2575,-1.505,3.0625,-0.40443,-0.163968,-1.25843,-0.05138,0.20818,0.42028
-16.3199,0,0,31.3199,31.3199,5,5,34.1991,-2.70384,-16.3617,-0.0502142,-0.0573161,0.104586,0,0,91.98,-2.1525,2.38,-0.138104,-0.605974,-0.736392,-0.05138,0.20818,0.42028
-16.448,0,0,31.448,31.448,5,5,34.4936,-2.80914,-16.1827,-0.0483786,-0.0531278,0.101617,0,0,99.5225,-3.22,4.76,-0.138104,-0.605974,-0.736392,-0.05138,0.20818,0.42028
-16.5267,0,0,31.5267,31.5267,5,5,34.6643,-2.81796,-16.1754,1.03591,1.63076,-0.429003,1,0,99.435,-1.8375,5.95,0.950624,1.07372,-1.26124,-0.05138,0.20818,0.42028
-16.6054,0,0,31.6054,31.6054,5,5,34.835,-2.82681,-16.1683,1.03607,1.6332,-0.430705,1,0,99.435,-1.8375,5.95,0.950624,1.07372,-1.26124,-0.05138,0.20818,0.42028
-16.6903,0,0,31.6903,31.6903,5,5,35.0208,-2.83526,-16.1623,0.473493,0.204526,0.767903,1,0,107.888,-2.03,5.25,0.38552,-0.356118,-0.070028,-0.05138,0.20818,0.42028
-16.7674,0,0,31.7674,31.7674,5,5,35.1873,-2.84838,-16.1608,0.473722,0.206894,0.766225,1,0,96.9325,-5.7925,4.6375,0.38552,-0.356118,-0.070028,-0.04578,0.20608,0.43652
-16.8458,0,0,31.8458,31.8458,5,5,35.3566,-2.85661,-16.1593,-0.371553,0.0610367,0.706852,1,0,98.4725,-3.395,3.0625,-0.463478,-0.504226,-0.127246,-0.04578,0.20608,0.43652
-16.9317,0,0,31.9317,31.9317,5,5,35.5449,-2.87152,-16.1602,-0.371294,0.063703,0.704938,1,0,109.078,-7.385,4.2,-0.463478,-0.504226,-0.127246,-0.04578,0.20608,0.43652
-17.0182,0,0,32.0182,32.0182,5,5,35.7341,-2.88618,-16.1599,-0.544398,1.73096,-0.265091,1,0,109.655,-6.86,4.69,-0.637572,1.15863,-1.08787,-0.04578,0.20608,0.43652
-17.1101,0,0,32.1101,32.1101,5,5,35.9371,-2.9013,-16.1635,-0.544135,1.73382,-0.267174,1,0,117.233,-8.4,3.01,-0.637572,1.15863,-1.08787,-0.04578,0.20608,0.43652
-17.2021,0,0,32.2021,32.2021,5,5,36.14,-2.90832,-16.1632,0.430911,-0.598627,0.740394,1,0,117.303,-3.2025,2.1175,0.341478,-1.17425,-0.08601,-0.04578,0.20608,0.43652
-17.2865,0,0,32.2865,32.2865,5,5,36.3236,-2.91413,-16.1605,0.431012,-0.596049,0.738498,1,0,106.523,-1.785,2.835,0.341478,-1.17425,-0.08601,-0.04578,0.20608,0.43652
-17.3679,0,0,32.3679,32.3679,5,5,36.4999,-2.91765,-16.1554,-0.601555,0.226504,-0.137861,1,0,102.533,0.1225,3.1675,-0.695522,-0.35502,-0.953796,-0.04578,0.20608,0.43652
-17.4591,0,0,32.4591,32.4591,5,5,36.7003,-2.93035,-16.1546,-0.601334,0.229302,-0.139953,1,0,115.92,-5.67,4.3575,-0.695522,-0.35502,-0.953796,-0.04578,0.20608,0.43652
-17.5505,0,0,32.5505,32.5505,5,5,36.9011,-2.94493,-16.1491,-0.580063,1.49025,-0.432956,1,0,116.288,-4.9,7.21,-0.674416,0.901824,-1.24245,-0.0427,0.1911,0.44128
-17.6448,0,0,32.6448,32.6448,5,5,37.1089,-2.96345,-16.1489,0.284388,-1.98553,0.406925,1,0,120.033,-8.5575,6.1775,0.19337,-2.57322,-0.40687,-0.0427,0.1911,0.44128
-17.7438,0,0,32.7438,32.7438,5,5,37.3284,-2.96876,-16.1448,0.28448,-1.98249,0.404607,1,0,126.718,-1.015,3.325,0.19337,-2.57322,-0.40687,-0.0427,0.1911,0.44128
-17.5387,0,0,32.5387,32.5387,5,5,36.7881,-3.17266,-16.0675,-0.124896,0.836263,-0.233874,0,0,117.408,-2.2925,3.7625,-0.221308,0.250222,-1.04591,-0.0427,0.1911,0.44128
-17.3303,0,0,32.3303,32.3303,5,5,36.2399,-3.37199,-15.9871,-0.121422,0.828469,-0.228351,0,0,109.795,-1.54,3.1675,-0.221308,0.250222,-1.04591,-0.0427,0.1911,0.44128
-17.4236,0,0,32.4236,32.4236,5,5,36.446,-3.38579,-15.9889,1.32875,-1.24358,-1.81185,1,0,119,-7.105,3.5,1.23476,-1.82256,-2.61507,-0.0427,0.1911,0.44128
-17.514,0,0,32.514,32.514,5,5,36.6444,-3.40122,-15.9884,1.32902,-1.24081,-1.81392,1,0,114.783,-7.0525,5.18,1.23476,-1.82256,-2.61507,-0.0427,0.1911,0.44128
-17.6062,0,0,32.6062,32.6062,5,5,36.8472,-3.41996,-15.9935,1.24491,-1.19891,-0.875376,1,0,117.093,-10.57,3.71,1.14997,-1.78352,-1.68165,-0.0427,0.1911,0.44128
-17.7107,0,0,32.7107,32.7107,5,5,37.0807,-3.41823,-15.991,1.24488,-1.19566,-0.87782,1,0,134.488,1.715,0.1225,1.14997,-1.78352,-1.68165,-0.0427,0.1834,0.44856
-17.8075,0,0,32.8075,32.8075,5,5,37.2947,-3.42053,-15.9871,0.112068,1.29588,-0.77643,1,0,123.673,0.3325,2.1875,0.012322,0.702476,-1.5788,-0.0427,0.1834,0.44856
-17.8987,0,0,32.8987,32.8987,5,5,37.4946,-3.42494,-15.9826,0.112145,1.29865,-0.778548,1,0,115.745,-0.4375,3.2025,0.012322,0.702476,-1.5788,-0.0427,0.1834,0.44856
-17.9968,0,0,32.9968,32.9968,5,5,37.7117,-3.43891,-15.9827,1.32324,-1.60913,-1.24979,1,0,125.23,-6.51,4.48,1.2283,-2.20527,-2.04411,-0.0427,0.1834,0.44856
-18.0931,0,0,33.0931,33.0931,5,5,37.924,-3.45507,-15.9802,1.32352,-1.60622,-1.25207,1,0,122.658,-6.545,6.51,1.2283,-2.20527,-2.04411,-0.0427,0.1834,0.44856
-18.1883,0,0,33.1883,33.1883,5,5,38.1334,-3.47548,-15.9797,-0.421147,2.06423,-0.944263,1,0,120.943,-9.2225,7.1225,-0.524112,1.45851,-1.73643,-0.0427,0.1834,0.44856
-18.3035,0,0,33.3035,33.3035,5,5,38.3926,-3.48124,-15.9745,-0.421047,2.06777,-0.947064,1,0,149.065,-0.7525,4.0075,-0.524112,1.45851,-1.73643,-0.0427,0.1834,0.44856
-18.4119,0,0,33.4119,33.4119,5,5,38.6346,-3.489,-15.9704,0.790058,0.423572,-0.273356,1,0,139.353,-2.03,4.27,0.691984,-0.18727,-1.0653,-0.0427,0.1834,0.44856
-18.5095,0,0,33.5095,33.5095,5,5,38.8494,-3.49638,-15.9673,0.790186,0.426485,-0.275704,1,0,124.04,-2.2225,3.6575,0.691984,-0.18727,-1.0653,-0.05152,0.18326,0.4627
-18.6144,0,0,33.6144,33.6144,5,5,39.0824,-3.50964,-15.9678,0.700154,-1.96869,0.845974,1,0,134.155,-6.23,4.165,0.601338,-2.58311,0.050264,-0.05152,0.18326,0.4627
-18.7215,0,0,33.7215,33.7215,5,5,39.3206,-3.51817,-15.9657,0.700302,-1.96548,0.843344,1,0,137.148,-3.045,3.6925,0.601338,-2.58311,0.050264,-0.05152,0.18326,0.4627
-18.8252,0,0,33.8252,33.8252,5,5,39.5503,-3.53766,-15.9672,-1.49157,2.51342,-0.485706,1,0,132.282,-9.3625,6.1075,-1.60015,1.88807,-1.26599,-0.05152,0.18326,0.4627
-18.9453,0,0,33.9453,33.9453,5,5,39.8206,-3.54488,-15.9656,-1.49144,2.51704,-0.488719,1,0,155.155,-2.6425,2.9575,-1.60015,1.88807,-1.26599,-0.05152,0.18326,0.4627
-19.0596,0,0,34.0596,34.0596,5,5,40.0764,-3.55136,-15.9668,0.634185,-0.480817,0.480201,1,0,146.86,-3.3425,1.4525,0.53436,-1.11008,-0.301706,-0.05152,0.18326,0.4627
-19.1602,0,0,34.1602,34.1602,5,5,40.2975,-3.55519,-15.9642,0.634251,-0.477877,0.477711,1,0,127.628,-0.7,2.17,0.53436,-1.11008,-0.301706,-0.05152,0.18326,0.4627
-19.2675,0,0,34.2675,34.2675,5,5,40.5354,-3.56912,-15.962,0.212331,-1.4239,1.8706,1,0,136.955,-5.3725,5.7925,0.11041,-2.05826,1.08312,-0.05152,0.18326,0.4627
-19.3836,0,0,34.3836,34.3836,5,5,40.795,-3.58567,-15.9582,0.21262,-1.42048,1.86764,1,0,149.223,-5.8625,7.56,0.11041,-2.05826,1.08312,-0.0476,0.16142,0.46844
-19.4936,0,0,34.4936,34.4936,5,5,41.0394,-3.61125,-15.9618,-1.02973,1.79257,0.295518,1,0,140.42,-12.6875,7.7525,-1.13765,1.14826,-0.474092,-0.0476,0.16142,0.46844
-19.6215,0,0,34.6215,34.6215,5,5,41.3279,-3.62425,-15.9609,-1.02951,1.79635,0.292197,1,0,165.34,-5.3725,4.935,-1.13765,1.14826,-0.474092,-0.0476,0.16142,0.46844
-19.7437,0,0,34.7437,34.7437,5,5,41.6022,-3.63539,-15.9613,-0.0382328,0.964694,0.433857,1,0,157.325,-5.0225,3.6925,-0.142374,0.313906,-0.330376,-0.0476,0.16142,0.46844
-19.8487,0,0,34.8487,34.8487,5,5,41.8335,-3.64136,-15.953,-0.0381288,0.967696,0.431172,1,0,133.49,0.63,5.4775,-0.142374,0.313906,-0.330376,-0.0476,0.16142,0.46844
-19.9593,0,0,34.9593,34.9593,5,5,42.0785,-3.65544,-15.9481,0.263279,-1.68662,2.28434,1,0,141.05,-4.1825,7.1925,0.160064,-2.34081,1.51134,-0.0476,0.16142,0.46844
-20.08,0,0,35.08,35.08,5,5,42.3483,-3.66811,-15.9466,0.2635,-1.68315,2.28117,1,0,154.858,-4.9,5.1625,0.160064,-2.34081,1.51134,-0.0476,0.16142,0.46844
-20.1912,0,0,35.1912,35.1912,5,5,42.5945,-3.68266,-15.9456,-1.9858,2.90086,-0.98516,1,0,141.628,-5.8625,5.74,-2.09901,2.23528,-1.72691,-0.0476,0.16142,0.46844
-20.3242,0,0,35.3242,35.3242,5,5,42.8948,-3.6949,-15.9409,-1.98558,2.90469,-0.98872,1,0,172.06,-3.3775,6.4225,-2.09901,2.23528,-1.72691,-0.0448,0.14812,0.47306
-20.3001,0,0,35.3001,35.3001,5,5,42.8025,-5.11433,-15.4868,-0.721608,1.17205,0.456114,0,0,170.713,-0.175,3.5,-0.854488,0.50691,-0.292922,-0.0448,0.14812,0.47306
-20.2563,0,0,35.2563,35.2563,5,5,42.6609,-6.5492,-15.0118,-0.696695,1.16851,0.455914,0,0,145.023,-1.295,5.145,-0.854488,0.50691,-0.292922,-0.0448,0.14812,0.47306
-20.3741,0,0,35.3741,35.3741,5,5,42.9233,-6.56571,-15.0067,-0.100886,-0.882341,0.977543,1,0,150.99,-5.0575,8.2775,-0.256444,-1.54513,0.227774,-0.0448,0.14812,0.47306
-20.5048,0,0,35.5048,35.5048,5,5,43.2175,-6.57878,-15.0001,-0.10066,-0.878632,0.97404,1,0,168.928,-2.94,7.5775,-0.256444,-1.54513,0.227774,-0.0448,0.14812,0.47306
-20.6294,0,0,35.6294,35.6294,5,5,43.4963,-6.5989,-14.9977,-0.166277,3.57967,-0.676081,1,0,160.003,-7.5775,8.645,-0.32269,2.90506,-1.40629,-0.0448,0.14812,0.47306
-20.7697,0,0,35.7697,35.7697,5,5,43.8142,-6.61947,-14.9943,-0.165921,3.58363,-0.679915,1,0,181.965,-7.3325,9.275,-0.32269,2.90506,-1.40629,-0.0448,0.14812,0.47306
-20.9087,0,0,35.9087,35.9087,5,5,44.1287,-6.63564,-14.9952,-0.0211939,2.10833,0.581294,1,0,179.778,-7.175,5.7225,-0.177632,1.4274,-0.151036,-0.0448,0.14812,0.47306
-21.0275,0,0,36.0275,36.0275,5,5,44.3925,-6.64701,-14.9927,-0.0209969,2.11159,0.578085,1,0,151.62,-3.71,5.25,-0.177632,1.4274,-0.151036,-0.0448,0.14812,0.47306
-21.1542,0,0,36.1542,36.1542,5,5,44.6756,-6.66094,-14.989,0.508679,-1.51038,1.35756,1,0,162.488,-4.305,6.7725,0.354044,-2.19429,0.62586,-0.04382,0.13426,0.48062
-21.2934,0,0,36.2934,36.2934,5,5,44.99,-6.67527,-14.9902,0.787494,2.45916,0.553547,1,0,179.743,-6.4225,4.97,0.63379,1.76729,-0.168116,-0.04382,0.13426,0.48062
-21.4341,0,0,36.4341,36.4341,5,5,45.3077,-6.69722,-14.9955,0.787875,2.46301,0.549612,1,0,181.265,-11.2525,6.4575,0.63379,1.76729,-0.168116,-0.04382,0.13426,0.48062
-21.5805,0,0,36.5805,36.5805,5,5,45.6395,-6.71078,-15.0011,1.68407,-1.04644,0.439142,1,0,189.21,-7.84,2.9575,1.53354,-1.74253,-0.273646,-0.04382,0.13426,0.48062
-21.7105,0,0,36.7105,36.7105,5,5,45.93,-6.72322,-15.0058,1.68428,-1.04294,0.435514,1,0,166.128,-7.0525,2.835,1.53354,-1.74253,-0.273646,-0.04382,0.13426,0.48062
-21.8351,0,0,36.8351,36.8351,5,5,46.2068,-6.73535,-15.0058,-0.617054,0.612009,-0.48417,1,0,158.69,-4.9175,4.655,-0.77775,-0.092598,-1.18279,-0.04382,0.13426,0.48062
-21.9816,0,0,36.9816,36.9816,5,5,46.5383,-6.7549,-15.0057,-0.616715,0.615944,-0.488356,1,0,189.385,-7.8225,7.875,-0.77775,-0.092598,-1.18279,-0.04382,0.13426,0.48062
-22.1281,0,0,37.1281,37.1281,5,5,46.8694,-6.77474,-15.0087,0.816796,1.95079,1.29671,1,0,188.983,-9.205,6.8075,0.661484,1.23696,0.592676,-0.04382,0.13426,0.48062
-22.2775,0,0,37.2775,37.2775,5,5,47.2074,-6.79117,-15.0056,0.81708,1.95475,1.2924,1,0,193.235,-5.25,7.77,0.661484,1.23696,0.592676,-0.03794,0.11802,0.4914
-22.4303,0,0,37.4303,37.4303,5,5,47.5538,-6.80452,-15.0036,0.000806591,-0.78148,0.300193,1,0,197.908,-4.41,6.09,-0.158478,-1.50048,-0.387472,-0.03794,0.11802,0.4914
-22.5656,0,0,37.5656,37.5656,5,5,47.8562,-6.81754,-15.005,0.00103212,-0.777974,0.296299,1,0,172.953,-5.6875,4.655,-0.158478,-1.50048,-0.387472,-0.03794,0.11802,0.4914
-22.4625,0,0,37.4625,37.4625,5,5,47.5626,-7.76728,-14.5892,-0.45061,0.893972,-0.200036,0,0,170.958,-3.885,6.2125,-0.628544,0.174704,-0.882304,-0.03794,0.11802,0.4914
-22.3797,0,0,37.3797,37.3797,5,5,47.3202,-8.7066,-14.1564,-0.434385,0.88941,-0.198541,0,0,201.215,-2.275,6.335,-0.628544,0.174704,-0.882304,-0.03794,0.11802,0.4914
-22.5327,0,0,37.5327,37.5327,5,5,47.6671,-8.72064,-14.1567,1.19097,3.32167,-0.0128985,1,0,197.96,-5.67,5.4775,1.00345,2.60043,-0.693692,-0.03794,0.11802,0.4914
-22.6924,0,0,37.6924,37.6924,5,5,48.0302,-8.73652,-14.1566,1.19124,3.32584,-0.0175714,1,0,207.148,-6.1775,6.475,1.00345,2.60043,-0.693692,-0.03794,0.11802,0.4914
-22.8594,0,0,37.8594,37.8594,5,5,48.4112,-8.75214,-14.1609,-0.190143,-1.16163,0.21602,1,0,216.79,-7.9275,4.7075,-0.384056,-1.88673,-0.457012,-0.03794,0.11802,0.4914
-23,0,0,38,38,5,5,48.7263,-8.76804,-14.165,-0.189868,-1.15806,0.211917,1,0,179.795,-7.9625,4.9175,-0.384056,-1.88673,-0.457012,-0.0483,0.10318,0.50162
-23.1407,0,0,38.1407,38.1407,5,5,49.0412,-8.78668,-14.164,-0.866587,1.01652,-0.636987,1,0,180.198,-6.72,8.1375,-1.06396,0.282064,-1.29527,-0.0483,0.10318,0.50162
-23.3015,0,0,38.3015,38.3015,5,5,49.4062,-8.80803,-14.1613,-0.866218,1.02059,-0.641792,1,0,208.425,-6.9475,10.0275,-1.06396,0.282064,-1.29527,-0.0483,0.10318,0.50162
-23.4606,0,0,38.4606,38.4606,5,5,49.7667,-8.83139,-14.166,0.501385,2.951,0.327924,1,0,205.223,-10.92,8.19,0.309026,2.20649,-0.328302,-0.0483,0.10318,0.50162
-23.6313,0,0,38.6313,38.6313,5,5,50.1558,-8.85372,-14.169,0.50177,2.95527,0.322748,1,0,221.41,-9.73,8.4175,0.309026,2.20649,-0.328302,-0.0483,0.10318,0.50162
-23.802,0,0,38.802,38.802,5,5,50.5445,-8.87721,-14.1795,-0.0640701,0.441731,0.533075,1,0,220.57,-13.4225,6.265,-0.259616,-0.30866,-0.114436,-0.0483,0.10318,0.50162
-23.9494,0,0,38.9494,38.9494,5,5,50.8751,-8.8954,-14.1765,-0.0637563,0.445303,0.528632,1,0,189.123,-5.4075,8.855,-0.259616,-0.30866,-0.114436,-0.0483,0.10318,0.50162
-24.1032,0,0,39.1032,39.1032,5,5,51.2211,-8.91353,-14.1741,0.322516,-1.69309,0.15905,1,0,197.75,-5.5475,8.68,0.127978,-2.44854,-0.476532,-0.0483,0.10318,0.50162
-24.2752,0,0,39.2752,39.2752,5,5,51.6125,-8.93035,-14.1765,0.322806,-1.68891,0.153747,1,0,222.74,-7.21,6.37,0.127978,-2.44854,-0.476532,-0.04074,0.07854,0.5152
-24.4424,0,0,39.4424,39.4424,5,5,51.9912,-8.95018,-14.183,1.18217,2.99705,0.209564,1,0,215.32,-10.15,6.3175,0.99064,2.22857,-0.41602,-0.04074,0.07854,0.5152
-24.6236,0,0,39.6236,39.6236,5,5,52.405,-8.96911,-14.1915,1.1825,3.00139,0.203896,1,0,234.798,-10.64,5.3025,0.99064,2.22857,-0.41602,-0.04074,0.07854,0.5152
-24.8012,0,0,39.8012,39.8012,5,5,52.8094,-8.98651,-14.2019,0.665271,2.82276,0.388653,1,0,229.338,-10.9725,3.9725,0.47092,2.04594,-0.227164,-0.04074,0.07854,0.5152
-24.9627,0,0,39.9627,39.9627,5,5,53.1734,-9.00772,-14.1995,0.665636,2.82649,0.383607,1,0,207.813,-6.3525,10.2725,0.47092,2.04594,-0.227164,-0.04074,0.07854,0.5152
-25.1302,0,0,40.1302,40.1302,5,5,53.552,-9.02825,-14.1913,0.491172,-0.800978,-0.0662441,1,0,216.493,-3.36,11.9875,0.295362,-1.58161,-0.668316,-0.04074,0.07854,0.5152
-25.3109,0,0,40.3109,40.3109,5,5,53.9631,-9.04591,-14.1871,0.491477,-0.796828,-0.0719883,1,0,234.413,-4.13,9.31,0.295362,-1.58161,-0.668316,-0.04074,0.07854,0.5152
-25.7599,0,0,40.7599,40.7599,5,5,55.0443,-8.13352,-14.2535,0.491767,0.0260088,0.927175,0,0,230.02,-3.535,9.9225,0.311466,-0.772382,0.336842,-0.04074,0.07854,0.5152
-26.2052,0,0,41.2052,41.2052,5,5,56.1155,-7.2164,-14.3,0.475904,0.0382454,0.913099,0,0,231.105,-11.375,6.86,0.311466,-0.772382,0.336842,-0.0371,0.05488,0.52248
-26.3769,0,0,41.3769,41.3769,5,5,56.5025,-7.23735,-14.3085,-0.897372,1.52112,-1.20955,1,0,219.905,-10.9025,7,-1.06799,0.705282,-1.76388,-0.0371,0.05488,0.52248
-26.5502,0,0,41.5502,41.5502,5,5,56.8929,-7.25962,-14.3027,-0.896986,1.52479,-1.21523,1,0,222.845,-4.305,12.285,-1.06799,0.705282,-1.76388,-0.0371,0.05488,0.52248
-26.7335,0,0,41.7335,41.7335,5,5,57.3083,-7.28409,-14.303,-2.13912,0.351352,-0.617126,1,0,236.355,-7.9275,11.445,-2.3158,-0.470798,-1.16437,-0.0371,0.05488,0.52248
-26.9154,0,0,41.9154,41.9154,5,5,57.7198,-7.30155,-14.3094,-2.13882,0.355146,-0.623157,1,0,233.818,-8.5925,6.1775,-2.3158,-0.470798,-1.16437,-0.0371,0.05488,0.52248
-27.1051,0,0,42.1051,42.1051,5,5,58.1504,-7.3189,-14.3159,0.494808,0.191024,1.76222,1,0,244.475,-8.575,6.1425,0.328668,-0.63867,1.2089,-0.0371,0.05488,0.52248
-27.2947,0,0,42.2947,42.2947,5,5,58.5803,-7.34226,-14.3353,0.495213,0.194884,1.75586,1,0,243.198,-16.7475,5.285,0.328668,-0.63867,1.2089,-0.0371,0.05488,0.52248
-27.4707,0,0,42.4707,42.4707,5,5,58.9762,-7.36439,-14.3404,1.29935,-0.283519,-0.0240501,1,0,225.103,-9.275,9.0475,1.13582,-1.12008,-0.55144,-0.0371,0.05488,0.52248
-27.6588,0,0,42.6588,42.6588,5,5,59.402,-7.39331,-14.3376,1.29985,-0.2798,-0.0304127,1,0,242.445,-7.245,14.8925,1.13582,-1.12008,-0.55144,-0.0371,0.05488,0.52248
-27.8571,0,0,42.8571,42.8571,5,5,59.8529,-7.41788,-14.3425,-1.48989,2.21609,-1.46817,1,0,255.99,-9.7125,10.5,-1.66615,1.36933,-1.9714,-0.04018,0.02898,0.53158
-28.0512,0,0,43.0512,43.0512,5,5,60.2928,-7.43775,-14.3473,-1.48955,2.21985,-1.47479,1,0,249.848,-8.2075,8.225,-1.66615,1.36933,-1.9714,-0.04018,0.02898,0.53158
-28.2547,0,0,43.2547,43.2547,5,5,60.7561,-7.45779,-14.3577,-0.502493,-2.12908,-1.10496,1,0,262.5,-10.99,6.79,-0.67527,-2.979,-1.59747,-0.04018,0.02898,0.53158
-28.4584,0,0,43.4584,43.4584,5,5,61.2193,-7.47773,-14.3682,-0.502148,-2.12523,-1.11199,1,0,262.5,-10.99,6.79,-0.67527,-2.979,-1.59747,-0.04018,0.02898,0.53158
-28.6475,0,0,43.6475,43.6475,5,5,61.646,-7.50574,-14.3692,-0.372767,0.706941,-1.11395,1,0,242.638,-8.3475,13.6325,-0.545828,-0.153232,-1.59295,-0.04018,0.02898,0.53158
-28.8368,0,0,43.8368,43.8368,5,5,62.0726,-7.53374,-14.3704,-0.372283,0.710366,-1.12049,1,0,242.638,-8.3475,13.6325,-0.545828,-0.153232,-1.59295,-0.04018,0.02898,0.53158
-29.0457,0,0,44.0457,44.0457,5,5,62.548,-7.55018,-14.3785,0.193396,4.86891,-0.646575,1,0,269.465,-8.61,5.88,0.02196,3.99721,-1.11545,-0.04018,0.02898,0.53158
-29.2548,0,0,44.2548,44.2548,5,5,63.0234,-7.56654,-14.3867,0.193679,4.87263,-0.653907,1,0,269.465,-8.61,5.88,0.02196,3.99721,-1.11545,-0.04018,0.02898,0.53158
-29.4728,0,0,44.4728,44.4728,5,5,63.5207,-7.58895,-14.4054,0.0304256,2.79542,-0.896446,1,1,280.98,-15.5575,6.3875,-0.142374,1.91833,-1.34847,-0.0322,0.00644,0.54992
-29.6713,0,0,44.6713,44.6713,5,5,63.969,-7.61728,-14.4103,3.36108,3.29792,-0.437825,1,1,254.52,-9.8525,13.1425,3.20189,2.41694,-0.886452,-0.0322,0.00644,0.54992
-29.8819,0,0,44.8819,44.8819,5,5,64.4471,-7.64777,-14.4078,3.36161,3.30146,-0.445301,1,1,271.74,-6.4575,16.205,3.20189,2.41694,-0.886452,-0.0322,0.00644,0.54992
-30.0969,0,0,45.0969,45.0969,5,5,64.9359,-7.66696,-14.4055,1.63514,3.72148,-3.16312,1,1,277.76,-3.57,10.255,1.46778,2.83296,-3.5757,-0.0322,0.00644,0.54992
-30.3062,0,0,45.3062,45.3062,5,5,65.4101,-7.68344,-14.4122,1.63543,3.72489,-3.17058,1,1,268.888,-7.56,6.6675,1.46778,2.83296,-3.5757,-0.0322,0.00644,0.54992
-30.5263,0,0,45.5263,45.5263,5,5,65.911,-7.70532,-14.4353,-0.375024,-2.10765,-2.46478,1,1,282.625,-17.4825,5.6875,-0.551562,-2.99705,-2.86749,-0.0322,0.00644,0.54992
-30.7324,0,0,45.7324,45.7324,5,5,66.3765,-7.73113,-14.4347,-0.374578,-2.10445,-2.47216,1,1,264.583,-5.775,13.475,-0.551562,-2.99705,-2.86749,-0.0322,0.00644,0.54992
-30.9464,0,0,45.9464,45.9464,5,5,66.8612,-7.76159,-14.433,-0.643021,0.751689,0.646815,1,1,275.433,-6.1775,16.2575,-0.82167,-0.147132,0.235094,-0.0322,0.00644,0.54992
-31.1716,0,0,46.1716,46.1716,5,5,67.3737,-7.77693,-14.4425,-0.642755,0.755102,0.638637,1,1,290.133,-8.5575,5.67,-0.82167,-0.147132,0.235094,-0.0357,-0.02716,0.5558
-31.3914,0,0,46.3914,46.3914,5,5,67.8723,-7.79058,-14.4573,2.31699,3.93023,1.11814,1,1,281.925,-10.955,3.675,2.15037,3.02145,0.718824,-0.0357,-0.02716,0.5558
-31.6213,0,0,46.6213,46.6213,5,5,68.3957,-7.81019,-14.4777,2.31733,3.93356,1.10973,1,1,295.47,-15.2425,5.7925,2.15037,3.02145,0.718824,-0.0357,-0.02716,0.5558
-31.8387,0,0,46.8387,46.8387,5,5,68.8876,-7.83379,-14.4871,1.09608,1.90991,1.18207,1,1,278.565,-10.08,10.4125,0.92354,0.996862,0.79849,-0.0357,-0.02716,0.5558
-32.0554,0,0,47.0554,47.0554,5,5,69.3773,-7.85994,-14.4775,1.09653,1.91287,1.17414,1,1,278.828,-0.2625,15.785,0.92354,0.996862,0.79849,-0.0357,-0.02716,0.5558
-32.2835,0,0,47.2835,47.2835,5,5,69.8953,-7.88867,-14.4758,0.643159,-2.20476,-1.14793,1,1,294.088,-4.8825,15.6275,0.467748,-3.11954,-1.49731,-0.0357,-0.02716,0.5558
-32.5047,0,0,47.5047,47.5047,5,5,70.3955,-7.89183,-14.4849,0.643214,-2.20183,-1.15606,1,1,283.273,-5.5825,-0.49,0.467748,-3.11954,-1.49731,-0.0357,-0.02716,0.5558
-32.7242,0,0,47.7242,47.7242,5,5,70.8909,-7.90799,-14.4939,-0.415255,-2.06994,0.979573,1,1,280.578,-8.0325,6.7375,-0.595482,-2.99059,0.629886,-0.0357,-0.02716,0.5558
-32.9528,0,0,47.9528,47.9528,5,5,71.4088,-7.93731,-14.521,-0.414748,-2.06711,0.971077,1,1,291.812,-20.405,10.6925,-0.595482,-2.99059,0.629886,-0.03444,-0.05726,0.55524
-33.1598,0,0,48.1598,48.1598,5,5,71.8726,-7.96449,-14.5382,0.492248,-2.63095,-0.21194,1,1,262.238,-14.49,11.48,0.314882,-3.5563,-0.536434,-0.03444,-0.05726,0.55524
-33.3902,0,0,48.3902,48.3902,5,5,72.3941,-7.98912,-14.5466,0.492674,-2.62824,-0.220538,1,1,295.26,-9.065,11.7425,0.314882,-3.5563,-0.536434,-0.03444,-0.05726,0.55524
-33.6154,0,0,48.6154,48.6154,5,5,72.9025,-7.99219,-14.5513,-2.47092,3.27407,-3.16051,1,1,288.208,-3.08,0.4725,-2.66131,2.33728,-3.4454,-0.03444,-0.05726,0.55524
-33.8342,0,0,48.8342,48.8342,5,5,73.3945,-7.99198,-14.5625,-2.47092,3.27653,-3.16865,1,1,278.478,-6.16,-2.4325,-2.66131,2.33728,-3.4454,-0.03444,-0.05726,0.55524
-34.0625,0,0,49.0625,49.0625,5,5,73.9097,-7.99301,-14.5771,0.0055834,-0.573205,-3.73329,1,1,291.288,-8.295,-2.24,-0.174338,-1.51097,-3.99721,-0.03444,-0.05726,0.55524
-34.2739,0,0,49.2739,49.2739,5,5,74.3825,-8.01853,-14.5906,0.00602449,-0.571033,-3.74117,1,1,267.54,-11.585,11.76,-0.174338,-1.51097,-3.99721,-0.03444,-0.05726,0.55524
-34.483,0,0,49.483,49.483,5,5,74.8492,-8.04076,-14.5929,-1.73132,0.056832,0.444199,1,1,265.002,-4.7425,11.7075,-1.91943,-0.885842,0.163602,-0.03444,-0.05726,0.55524
-34.6864,0,0,49.6864,49.6864,5,5,75.3011,-8.02512,-14.5639,-1.73159,0.0588803,0.436663,1,1,259.175,18.655,-4.935,-1.91943,-0.885842,0.163602,-0.02954,-0.09492,0.5537
-34.8795,0,0,49.8795,49.8795,5,5,75.7272,-8.00213,-14.5399,1.90894,0.986497,3.58342,1,1,244.3,16.87,-9.9575,1.73691,0.038918,3.29315,-0.02954,-0.09492,0.5537
-35.0869,0,0,50.0869,50.0869,5,5,76.1885,-7.9987,-14.548,1.90888,0.98844,3.57569,1,1,261.502,-4.06,-3.5175,1.73691,0.038918,3.29315,-0.02954,-0.09492,0.5537
-35.2836,0,0,50.2836,50.2836,5,5,76.6228,-8.00605,-14.5659,-1.06509,1.61108,3.04278,1,1,245.648,-11.095,1.295,-1.24977,0.659166,2.7716,-0.02954,-0.09492,0.5537
-35.4848,0,0,50.4848,50.4848,5,5,77.068,-8.00281,-14.5597,-1.06514,1.61284,3.03529,1,1,253.628,3.9375,-1.47,-1.24977,0.659166,2.7716,-0.02954,-0.09492,0.5537
-35.6821,0,0,50.6821,50.6821,5,5,77.503,-7.98736,-14.5396,-0.379867,3.02375,-3.47392,1,1,248.99,13.4225,-6.6675,-0.561322,2.06692,-3.68013,-0.02954,-0.09492,0.5537
-35.8505,0,0,50.8505,50.8505,5,5,77.8657,-7.96153,-14.5273,-0.380313,3.02515,-3.48003,1,1,207.848,10.22,-13.65,-0.561322,2.06692,-3.68013,-0.02954,-0.09492,0.5537
-36.0266,0,0,51.0266,51.0266,5,5,78.2472,-7.94848,-14.5191,3.03868,-2.74065,0.583121,1,1,218.033,6.23,-6.9125,2.87237,-3.69428,0.35807,-0.02954,-0.09492,0.5537
-36.19,0,0,51.19,51.19,5,5,78.5968,-7.95018,-14.5343,3.03871,-2.73944,0.5772,1,1,198.38,-8.785,-1.225,2.87237,-3.69428,0.35807,-0.03164,-0.12194,0.54572
-36.3478,0,0,51.3478,51.3478,5,5,78.932,-7.9551,-14.5231,0.0603257,-2.48015,-0.118104,1,1,192.343,5.8275,3.64,-0.118706,-3.43637,-0.326228,-0.03164,-0.12194,0.54572
-36.5112,0,0,51.5112,51.5112,5,5,79.2811,-7.92803,-14.4796,0.0598577,-2.47894,-0.124018,1,1,202.633,27.8075,-11.2,-0.118706,-3.43637,-0.326228,-0.03164,-0.12194,0.54572
-36.6479,0,0,51.6479,51.6479,5,5,79.5632,-7.8881,-14.4336,-1.71768,4.31742,-0.389936,1,1,165.218,30.555,-18.4625,-1.90308,3.35195,-0.585356,-0.03164,-0.12194,0.54572
-36.7817,0,0,51.7817,51.7817,5,5,79.8377,-7.87548,-14.4193,-1.7179,4.3183,-0.3946,1,1,158.533,9.4675,-6.2125,-1.90308,3.35195,-0.585356,-0.03164,-0.12194,0.54572
-36.9152,0,0,51.9152,51.9152,5,5,80.1115,-7.87306,-14.4255,-0.406626,2.21135,-0.639993,1,1,156.555,-3.2375,-2.45,-0.58621,1.24635,-0.824232,-0.03164,-0.12194,0.54572
-37.0401,0,0,52.0401,52.0401,5,5,80.3635,-7.8762,-14.4245,-0.406571,2.21208,-0.644288,1,1,144.918,0.28,1.47,-0.58621,1.24635,-0.824232,-0.03164,-0.12194,0.54572
-37.1599,0,0,52.1599,52.1599,5,5,80.6025,-7.84916,-14.3918,1.97833,3.85054,-3.26285,1,1,140.035,21.35,-12.88,1.80926,2.88237,-3.41856,-0.03164,-0.12194,0.54572
-37.2531,0,0,52.2531,52.2531,5,5,80.775,-7.839,-14.3874,1.97816,3.85105,-3.26579,1,1,100.555,3.4825,-5.88,1.80926,2.88237,-3.41856,-0.03164,-0.12194,0.54572
-37.3532,0,0,52.3532,52.3532,5,5,80.9644,-7.84429,-14.3756,3.06579,1.4961,1.81096,1,1,110.653,6.3,3.6925,2.9014,0.529358,1.62223,-0.03122,-0.13384,0.54894
-37.4527,0,0,52.4527,52.4527,5,5,81.1524,-7.85657,-14.3983,-2.34449,3.60277,-1.04085,1,1,107.205,-14.105,4.6025,-2.53199,2.63337,-1.20438,-0.03122,-0.13384,0.54894
-37.5337,0,0,52.5337,52.5337,5,5,81.2939,-7.86852,-14.3758,-2.34428,3.60312,-1.04327,1,1,84.5775,11.83,8.435,-2.53199,2.63337,-1.20438,-0.03122,-0.13384,0.54894
-37.6068,0,0,52.6068,52.6068,5,5,81.4156,-7.87563,-14.3554,0.217126,3.86819,-2.11538,1,1,73.3425,11.1475,5.4425,0.040138,2.89787,-2.26615,-0.03122,-0.13384,0.54894
-37.6667,0,0,52.6667,52.6667,5,5,81.5041,-7.89443,-14.3577,0.217451,3.86837,-2.1169,1,1,52.9725,-2.975,10.2025,0.040138,2.89787,-2.26615,-0.03122,-0.13384,0.54894
-37.7298,0,0,52.7298,52.7298,5,5,81.6009,-7.91581,-14.3609,0.108362,2.84307,-1.23062,1,1,57.5225,-3.64,11.6375,-0.069784,1.87343,-1.38507,-0.03122,-0.13384,0.54894
-37.7818,0,0,52.7818,52.7818,5,5,81.6695,-7.94084,-14.3542,0.108795,2.84318,-1.23181,1,1,42.56,1.75,14.5775,-0.069784,1.87343,-1.38507,-0.03122,-0.13384,0.54894
-37.8327,0,0,52.8327,52.8327,5,5,81.7354,-7.95525,-14.3351,1.32949,2.68272,-0.405986,1,1,41.93,9.7475,9.4675,1.15583,1.713,-0.564494,-0.03542,-0.14434,0.54516
-37.8753,0,0,52.8753,52.8753,5,5,81.7806,-7.97738,-14.3456,0.0782047,3.99124,-0.631887,1,1,28.0875,-7.84,11.48,-0.101138,3.02011,-0.787876,-0.03542,-0.14434,0.54516
-37.9148,0,0,52.9148,52.9148,5,5,81.818,-8.00075,-14.3624,0.0786086,3.99128,-0.632534,1,1,23.1875,-11.585,11.6725,-0.101138,3.02011,-0.787876,-0.03542,-0.14434,0.54516
-37.9556,0,0,52.9556,52.9556,5,5,81.8585,-8.0229,-14.3714,-1.74913,3.71153,-0.0820566,1,1,25.5325,-6.9825,11.62,-1.93699,2.74061,-0.24095,-0.03542,-0.14434,0.54516
-37.9949,0,0,52.9949,52.9949,5,5,81.8954,-8.04134,-14.3509,-1.74881,3.71158,-0.0826944,1,1,25.83,10.2375,11.8825,-1.93699,2.74061,-0.24095,-0.03542,-0.14434,0.54516
-38.0288,0,0,53.0288,53.0288,5,5,81.9187,-8.05425,-14.3374,0.489183,4.37218,-0.383952,1,1,17.64,6.7375,8.12,0.310246,3.40051,-0.539484,-0.03542,-0.14434,0.54516
-38.0627,0,0,53.0627,53.0627,5,5,81.9419,-8.06716,-14.3238,0.489406,4.37221,-0.384354,1,1,17.64,6.7375,8.12,0.310246,3.40051,-0.539484,-0.03542,-0.14434,0.54516
-38.0834,0,0,53.0834,53.0834,5,5,81.9322,-8.07321,-14.3303,0.612697,4.04243,-0.229275,1,1,-2.3975,-4.165,2.5375,0.433954,3.07111,-0.385764,-0.03542,-0.14434,0.54516
-38.1041,0,0,53.1041,53.1041,5,5,81.9226,-8.07927,-14.3367,0.612802,4.04239,-0.229112,1,1,-2.3975,-4.165,2.5375,0.433954,3.07111,-0.385764,-0.03738,-0.14588,0.54292
-38.1263,0,0,53.1263,53.1263,5,5,81.9168,-8.07196,-14.3239,1.33309,2.41176,-0.520522,1,1,1.3125,7.9625,-3.6225,1.15741,1.44216,-0.675026,-0.03738,-0.14588,0.54292
-38.1486,0,0,53.1486,53.1486,5,5,81.911,-8.06465,-14.3111,1.33296,2.41176,-0.520421,1,1,1.3125,7.9625,-3.6225,1.15741,1.44216,-0.675026,-0.03738,-0.14588,0.54292
-38.1568,0,0,53.1568,53.1568,5,5,81.8701,-8.05065,-14.31,0.454619,1.60981,0.336375,1,1,-19.32,1.8025,-8.435,0.275598,0.64111,0.17446,-0.03738,-0.14588,0.54292
-38.1628,0,0,53.1628,53.1628,5,5,81.8238,-8.03664,-14.3054,0.685928,4.40265,0.719787,1,1,-22.0675,3.8325,-8.155,0.50813,3.43113,0.554124,-0.03738,-0.14588,0.54292
-38.1635,0,0,53.1635,53.1635,5,5,81.7642,-8.01753,-14.2887,0.685598,4.40255,0.720813,1,1,-28.56,11.2175,-10.0975,0.50813,3.43113,0.554124,-0.03738,-0.14588,0.54292
-38.1691,0,0,53.1691,53.1691,5,5,81.7169,-7.99547,-14.2762,0.637594,2.5773,0.334343,1,1,-22.0325,9.0475,-12.145,0.460306,1.60784,0.169824,-0.03738,-0.14588,0.54292
-38.1728,0,0,53.1728,53.1728,5,5,81.6649,-7.97845,-14.2709,0.6373,2.57721,0.335239,1,1,-25.2175,4.515,-9.8175,0.460306,1.60784,0.169824,-0.03738,-0.14588,0.54292
-38.1679,0,0,53.1679,53.1679,5,5,81.5916,-7.96286,-14.2675,0.179637,1.44348,-0.479266,1,1,-37.2925,3.3075,-9.1525,0.000976,0.475434,-0.639646,-0.03738,-0.14588,0.54292
-38.1465,0,0,53.1465,53.1465,5,5,81.4767,-7.9444,-14.2568,0.179318,1.44323,-0.477296,1,1,-60.025,7.735,-10.185,0.000976,0.475434,-0.639646,-0.03486,-0.15386,0.54978
-38.1153,0,0,53.1153,53.1153,5,5,81.3379,-8.58768,-14.2387,-0.701641,0.303059,0.0321191,0,1,-65.17,10.5875,-10.78,-0.89487,-0.661606,-0.136274,-0.03486,-0.15386,0.54978
-38.0863,0,0,53.0863,53.0863,5,5,81.2044,-9.2213,-14.2289,-0.690715,0.301018,0.0341346,0,1,-63.63,6.0725,-12.39,-0.89487,-0.661606,-0.136274,-0.03486,-0.15386,0.54978
-38.0587,0,0,53.0587,53.0587,5,5,81.0746,-9.20466,-14.2253,-0.44718,1.42062,-0.299052,1,1,-68.915,3.605,-9.7125,-0.650016,0.457134,-0.46909,-0.03486,-0.15386,0.54978
-38.0317,0,0,53.0317,53.0317,5,5,80.9463,-9.19801,-14.2309,-0.447295,1.42029,-0.296866,1,1,-68.88,-2.59,-4.7775,-0.650016,0.457134,-0.46909,-0.03486,-0.15386,0.54978
-38.0008,0,0,53.0008,53.0008,5,5,80.8086,-9.1908,-14.2278,-0.551532,2.74379,-1.10008,1,1,-73.4125,2.485,-4.305,-0.75457,1.77961,-1.26843,-0.03486,-0.15386,0.54978
-37.9643,0,0,52.9643,52.9643,5,5,80.6568,-9.17987,-14.2114,-0.551721,2.7434,-1.09749,1,1,-80.115,10.4125,-5.215,-0.75457,1.77961,-1.26843,-0.03486,-0.15386,0.54978
-37.9269,0,0,52.9269,52.9269,5,5,80.5028,-9.16664,-14.1959,0.45942,3.22992,-2.01317,1,1,-81.3925,10.08,-6.5975,0.26108,2.26603,-2.17965,-0.03486,-0.15386,0.54978
-37.8899,0,0,52.8899,52.8899,5,5,80.3501,-9.16701,-14.1967,0.459426,3.22948,-2.01058,1,1,-82.145,-0.4375,-0.2975,0.26108,2.26603,-2.17965,-0.03584,-0.14532,0.5572
-37.8549,0,0,52.8549,52.8549,5,5,80.2026,-9.17252,-14.1992,-0.284457,1.63822,-1.90775,1,1,-79.38,-1.9425,2.485,-0.486048,0.676856,-2.0801,-0.03584,-0.14532,0.5572
-37.8029,0,0,52.8029,52.8029,5,5,80.0124,-9.17175,-14.1947,-0.28447,1.63766,-1.90452,1,1,-102.708,2.625,-0.4375,-0.486048,0.676856,-2.0801,-0.03584,-0.14532,0.5572
-37.7477,0,0,52.7477,52.7477,5,5,79.8146,-9.16371,-14.1838,-0.151218,-2.89626,1.90532,1,1,-106.383,7.0875,-3.955,-0.352092,-3.85178,1.69702,-0.03584,-0.14532,0.5572
-37.6871,0,0,52.6871,52.6871,5,5,79.6033,-9.15046,-14.1682,-0.151446,-2.89688,1.90891,1,1,-113.523,10.29,-6.44,-0.352092,-3.85178,1.69702,-0.03584,-0.14532,0.5572
-37.6242,0,0,52.6242,52.6242,5,5,79.3867,-9.14773,-14.1681,0.711784,-0.202825,-0.00123075,1,1,-117.933,0.35,-1.995,0.51484,-1.15985,-0.202032,-0.03584,-0.14532,0.5572
-37.5782,0,0,52.5782,52.5782,5,5,79.2122,-9.14605,-14.1705,0.711755,-0.203378,0.00172492,1,1,-94.5175,-1.155,-1.6625,0.51484,-1.15985,-0.202032,-0.03584,-0.14532,0.5572
-37.5253,0,0,52.5253,52.5253,5,5,79.0207,-9.13913,-14.1711,0.556013,2.33039,-0.438753,1,1,-103.863,0.4725,-4.4625,0.358558,1.37189,-0.64233,-0.03584,-0.14532,0.5572
-37.4646,0,0,52.4646,52.4646,5,5,78.8098,-9.11916,-14.1587,0.555669,2.32975,-0.435176,1,1,-113.575,9.31,-10.5,0.358558,1.37189,-0.64233,-0.03626,-0.1253,0.5502
-37.394,0,0,52.394,52.394,5,5,78.5744,-9.09666,-14.1503,-0.598347,2.10308,-1.40838,1,1,-127.733,7.315,-12.3725,-0.799954,1.14619,-1.61199,-0.03626,-0.1253,0.5502
-37.333,0,0,52.333,52.333,5,5,78.3633,-9.08888,-14.1666,-0.598481,2.10237,-1.40481,1,1,-116.253,-8.26,-6.755,-0.799954,1.14619,-1.61199,-0.03626,-0.1253,0.5502
-37.2759,0,0,52.2759,52.2759,5,5,78.1619,-9.07854,-14.1806,-1.2548,2.87231,-3.16363,1,1,-110.618,-6.7025,-7.9975,-1.45888,1.91601,-3.36061,-0.03626,-0.1253,0.5502
-37.2059,0,0,52.2059,52.2059,5,5,77.9283,-9.06648,-14.1828,-1.25501,2.87151,-3.15968,1,1,-127.61,0.2625,-7.5775,-1.45888,1.91601,-3.36061,-0.03626,-0.1253,0.5502
-37.1367,0,0,52.1367,52.1367,5,5,77.6971,-9.03464,-14.1729,1.99187,0.218163,-0.37578,1,1,-125.23,9.555,-17.395,1.80231,-0.73383,-0.60207,-0.03626,-0.1253,0.5502
-37.0642,0,0,52.0642,52.0642,5,5,77.4578,-9.00979,-14.1838,1.99145,0.217342,-0.371737,1,1,-131.583,-3.0275,-15.96,1.80231,-0.73383,-0.60207,-0.03626,-0.1253,0.5502
-36.999,0,0,51.999,51.999,5,5,77.2368,-9.00709,-14.2107,1.26504,-0.944544,-1.3864,1,1,-122.745,-14.84,-5.3725,1.07287,-1.89368,-1.6126,-0.03626,-0.1253,0.5502
-36.9363,0,0,51.9363,51.9363,5,5,77.0223,-8.99746,-14.2318,1.26487,-0.945342,-1.38279,1,1,-118.58,-10.6225,-8.6275,1.07287,-1.89368,-1.6126,-0.03388,-0.1078,0.55538
-36.8744,0,0,51.8744,51.8744,5,5,76.8099,-8.98158,-14.2458,-1.32949,-1.17463,0.496857,1,1,-116.743,-5.74,-11.2875,-1.5322,-2.12195,0.249002,-0.03388,-0.1078,0.55538
-36.8124,0,0,51.8124,51.8124,5,5,76.5976,-8.96575,-14.2598,-1.32976,-1.17543,0.50043,1,1,-116.743,-5.74,-11.2875,-1.5322,-2.12195,0.249002,-0.03388,-0.1078,0.55538
-36.7448,0,0,51.7448,51.7448,5,5,76.3713,-8.95542,-14.2745,-1.33419,1.95258,1.36229,1,1,-124.6,-6.825,-8.2775,-1.53647,1.00369,1.10044,-0.03388,-0.1078,0.55538
-36.6772,0,0,51.6772,51.6772,5,5,76.145,-8.94514,-14.2892,-1.33437,1.95168,1.36608,1,1,-124.6,-6.825,-8.2775,-1.53647,1.00369,1.10044,-0.03388,-0.1078,0.55538
-36.6229,0,0,51.6229,51.6229,5,5,75.9525,-8.94411,-14.3015,-0.458231,4.3089,-0.682951,1,1,-105.508,-6.7375,-2.73,-0.656604,3.35927,-0.935984,-0.03388,-0.1078,0.55538
-36.5686,0,0,51.5686,51.5686,5,5,75.7599,-8.94313,-14.3138,-0.458248,4.30809,-0.679731,1,1,-105.508,-6.7375,-2.73,-0.656604,3.35927,-0.935984,-0.03388,-0.1078,0.55538
-36.5157,0,0,51.5157,51.5157,5,5,75.571,-8.93139,-14.3247,2.76214,2.16485,-1.07431,1,1,-103.32,-4.3925,-8.6275,2.57762,1.21902,-1.33065,-0.03388,-0.1078,0.55538
-36.4628,0,0,51.4628,51.4628,5,5,75.3821,-8.9197,-14.3357,2.76193,2.16406,-1.07114,1,1,-103.32,-4.3925,-8.6275,2.57762,1.21902,-1.33065,-0.0357,-0.09716,0.56098
-36.4194,0,0,51.4194,51.4194,5,5,75.2171,-8.93353,-14.3542,1.01582,1.74221,-0.896152,1,1,-90.58,-12.425,4.655,0.823866,0.798368,-1.15973,-0.0357,-0.09716,0.56098
-36.3759,0,0,51.3759,51.3759,5,5,75.0521,-8.94742,-14.3727,1.01606,1.74144,-0.893412,1,1,-90.58,-12.425,4.655,0.823866,0.798368,-1.15973,-0.0357,-0.09716,0.56098
-36.3258,0,0,51.3258,51.3258,5,5,74.8707,-8.94072,-14.3639,0.269167,-1.14985,2.22439,1,1,-97.405,6.0025,-2.8875,0.073932,-2.08913,1.93102,-0.0357,-0.09716,0.56098
-36.2744,0,0,51.2744,51.2744,5,5,74.6863,-8.93107,-14.3604,1.07785,3.63781,-1.14661,1,1,-99.5575,3.4125,-5.355,0.886208,2.69437,-1.41703,-0.0357,-0.09716,0.56098
-36.234,0,0,51.234,51.234,5,5,74.5293,-8.95859,-14.3914,1.07833,3.63702,-1.14402,1,1,-87.1675,-21.5425,10.3075,0.886208,2.69437,-1.41703,-0.0357,-0.09716,0.56098
-36.1974,0,0,51.1974,51.1974,5,5,74.3819,-8.98125,-14.4041,-0.931263,3.35905,-0.0131684,1,1,-80.185,-10.605,10.3425,-1.13228,2.41743,-0.297314,-0.0357,-0.09716,0.56098
-36.1562,0,0,51.1562,51.1562,5,5,74.2233,-8.9905,-14.3955,-0.931104,3.35829,-0.0105432,1,1,-84.63,3.325,6.09,-1.13228,2.41743,-0.297314,-0.0357,-0.09716,0.56098
-36.1166,0,0,51.1166,51.1166,5,5,74.0688,-8.99009,-14.3735,1.57162,-1.1058,-1.24607,1,1,-81.165,12.355,2.8,1.38104,-2.0413,-1.52585,-0.0392,-0.08176,0.55608
-36.0789,0,0,51.0789,51.0789,5,5,73.9193,-8.99732,-14.3878,0.977675,0.431287,-0.370788,1,1,-81.5675,-9.1,1.3475,0.78446,-0.50508,-0.659776,-0.0392,-0.08176,0.55608
-36.0521,0,0,51.0521,51.0521,5,5,73.7968,-9.01857,-14.4045,0.978042,0.430645,-0.368776,1,1,-66.57,-12.705,8.8025,0.78446,-0.50508,-0.659776,-0.0392,-0.08176,0.55608
-36.0248,0,0,51.0248,51.0248,5,5,73.6733,-9.03273,-14.4098,-0.463749,1.97919,-0.937102,1,1,-66.1675,-5.2675,6.6325,-0.66368,1.04249,-1.22573,-0.0392,-0.08176,0.55608
-36.0024,0,0,51.0024,51.0024,5,5,73.562,-9.03655,-14.3941,-0.463684,1.97864,-0.935264,1,1,-57.4875,8.12,4.2525,-0.66368,1.04249,-1.22573,-0.0392,-0.08176,0.55608
-35.9743,0,0,50.9743,50.9743,5,5,73.4369,-9.03583,-14.3793,1.03374,3.08877,-1.39659,1,1,-65.31,8.33,1.575,0.840092,2.15208,-1.68555,-0.0392,-0.08176,0.55608
-35.9562,0,0,50.9562,50.9562,5,5,73.3367,-9.05559,-14.4063,1.03408,3.08822,-1.39495,1,1,-55.055,-18.27,6.16,0.840092,2.15208,-1.68555,-0.0392,-0.08176,0.55608
-35.9445,0,0,50.9445,50.9445,5,5,73.2524,-9.07958,-14.4313,0.283345,0.442234,-1.81861,1,1,-45.9025,-17.8325,8.8375,0.085766,-0.490684,-2.10731,-0.0392,-0.08176,0.55608
-35.9277,0,0,50.9277,50.9277,5,5,73.1555,-9.08401,-14.4326,0.283421,0.441739,-1.81701,1,1,-50.925,-1.4525,1.82,0.085766,-0.490684,-2.10731,-0.03416,-0.07532,0.55762
-35.9133,0,0,50.9133,50.9133,5,5,73.0647,-9.08398,-14.4195,0.25718,-0.133077,-1.35962,1,1,-46.2175,7.2625,1.7325,0.059414,-1.06445,-1.65493,-0.03416,-0.07532,0.55762
-35.9006,0,0,50.9006,50.9006,5,5,72.9782,-9.08346,-14.4227,0.257171,-0.133511,-1.3582,1,1,-45.22,-1.645,-1.26,0.059414,-1.06445,-1.65493,-0.03416,-0.07532,0.55762
-35.8919,0,0,50.8919,50.8919,5,5,72.9017,-9.08851,-14.4385,-0.48016,2.15255,-1.10072,1,1,-40.7575,-9.6075,-0.2975,-0.681126,1.21963,-1.40068,-0.03416,-0.07532,0.55762
-35.8912,0,0,50.8912,50.8912,5,5,72.8455,-9.09234,-14.4549,-0.480094,2.15225,-1.09979,1,1,-29.435,-9.695,-1.085,-0.681126,1.21963,-1.40068,-0.03416,-0.07532,0.55762
-35.8933,0,0,50.8933,50.8933,5,5,72.7961,-9.09241,-14.4631,0.51451,0.973354,-0.406536,1,1,-24.85,-4.55,-1.8025,0.317688,0.042212,-0.713578,-0.03416,-0.07532,0.55762
-35.8929,0,0,50.8929,50.8929,5,5,72.7405,-9.08206,-14.4584,0.514332,0.973097,-0.405611,1,1,-27.2475,4.4625,-5.39,0.317688,0.042212,-0.713578,-0.03416,-0.07532,0.55762
-35.8927,0,0,50.8927,50.8927,5,5,72.6854,-9.07302,-14.4631,0.710618,0.54686,-0.000196173,1,1,-27.7725,-1.015,-6.2825,0.514962,-0.383324,-0.312198,-0.03416,-0.07532,0.55762
-35.9003,0,0,50.9003,50.9003,5,5,72.65,-9.0697,-14.4832,0.710561,0.546687,0.000388655,1,1,-18.0775,-10.5,-5.74,0.514962,-0.383324,-0.312198,-0.02842,-0.07308,0.54754
-35.9088,0,0,50.9088,50.9088,5,5,72.6169,-9.06644,-14.5027,0.72156,2.37513,-0.809417,1,1,-16.765,-10.2025,-5.6175,0.526064,1.44338,-1.1163,-0.02842,-0.07308,0.54754
-35.9187,0,0,50.9187,50.9187,5,5,72.587,-9.05588,-14.5073,0.721378,2.375,-0.808917,1,1,-13.6325,-0.6475,-7.105,0.526064,1.44338,-1.1163,-0.02842,-0.07308,0.54754
-35.9311,0,0,50.9311,50.9311,5,5,72.5636,-9.04007,-14.5064,0.18669,0.818296,-0.920157,1,1,-9.485,3.3075,-9.0825,-0.010614,-0.11163,-1.22708,-0.02842,-0.07308,0.54754
-35.9482,0,0,50.9482,50.9482,5,5,72.552,-9.02999,-14.5197,0.186516,0.818262,-0.919957,1,1,-4.1475,-5.5475,-8.3475,-0.010614,-0.11163,-1.22708,-0.02842,-0.07308,0.54754
-35.6306,0,0,50.6306,50.6306,5,5,71.7042,-9.41056,-14.3955,-0.161666,1.46944,-0.349795,0,1,0,-4.55,-7.1225,-0.366854,0.544364,-0.674782,-0.02842,-0.07308,0.54754
-35.3119,0,0,50.3119,50.3119,5,5,70.8544,-9.78953,-14.264,-0.155144,1.4637,-0.336299,0,1,2.135,-3.6575,-7.7,-0.366854,0.544364,-0.674782,-0.02842,-0.07308,0.54754
-35.3318,0,0,50.3318,50.3318,5,5,70.851,-9.77784,-14.2665,0.26949,0.642782,0.283304,1,1,1.4175,0.875,-7.3675,0.05978,-0.27572,-0.060024,-0.02842,-0.07308,0.54754
-35.3539,0,0,50.3539,50.3539,5,5,70.8531,-9.77016,-14.2722,0.269358,0.642816,0.283277,1,1,4.165,-1.5925,-5.74,0.05978,-0.27572,-0.060024,-0.02842,-0.07308,0.54754
-35.3775,0,0,50.3775,50.3775,5,5,70.8589,-9.76627,-14.2807,-0.291365,1.01254,-0.0509862,1,1,5.95,-3.8675,-4.1825,-0.50325,0.093574,-0.39162,-0.02996,-0.07938,0.54964
-35.4068,0,0,50.4068,50.4068,5,5,70.879,-9.76182,-14.2845,-0.72879,0.562748,-0.223068,1,1,14.455,-1.225,-3.6225,-0.94245,-0.355874,-0.562054,-0.02996,-0.07938,0.54964
-35.4346,0,0,50.4346,50.4346,5,5,70.8953,-9.7578,-14.2836,-0.728859,0.562851,-0.22333,1,1,12.775,1.2775,-2.485,-0.94245,-0.355874,-0.562054,-0.02996,-0.07938,0.54964
-35.4648,0,0,50.4648,50.4648,5,5,70.9177,-9.75311,-14.2813,-0.567121,0.654951,-0.710442,1,1,16.2925,2.1875,-2.59,-0.779946,-0.264008,-1.04505,-0.02996,-0.07938,0.54964
-35.4995,0,0,50.4995,50.4995,5,5,70.9513,-9.75293,-14.2812,-0.567124,0.65514,-0.710987,1,1,22.365,0.14,-0.5075,-0.779946,-0.264008,-1.04505,-0.02996,-0.07938,0.54964
-35.5353,0,0,50.5353,50.5353,5,5,70.9875,-9.75442,-14.2824,0.3551,1.15349,-0.767519,1,1,23.73,-0.9275,0.1575,0.146156,0.23363,-1.10056,-0.02996,-0.07938,0.54964
-35.5719,0,0,50.5719,50.5719,5,5,71.0256,-9.7577,-14.2832,0.355156,1.1537,-0.768142,1,1,24.815,-1.0675,1.2075,0.146156,0.23363,-1.10056,-0.02996,-0.07938,0.54964
-35.3858,0,0,50.3858,50.3858,5,5,70.5075,-9.04368,-14.19,0.857353,0.690676,-0.37717,0,1,26.075,0.42,1.575,0.662826,-0.227896,-0.72163,-0.03136,-0.07364,0.55986
-35.4239,0,0,50.4239,50.4239,5,5,70.5499,-9.05133,-14.1891,0.231105,1.10418,-0.951421,1,1,27.405,-0.9625,3.955,0.033794,0.184952,-1.29076,-0.03136,-0.07364,0.55986
-35.4633,0,0,50.4633,50.4633,5,5,70.5954,-9.06082,-14.1894,0.231269,1.10441,-0.95217,1,1,29.0325,-1.995,4.725,0.033794,0.184952,-1.29076,-0.03136,-0.07364,0.55986
-35.5036,0,0,50.5036,50.5036,5,5,70.6432,-9.07031,-14.1895,0.638409,0.56132,-0.944596,1,1,30.345,-1.89,4.76,0.442494,-0.357826,-1.28246,-0.03136,-0.07364,0.55986
-35.544,0,0,50.544,50.544,5,5,70.6911,-9.0798,-14.1897,0.638573,0.561569,-0.945382,1,1,30.345,-1.89,4.76,0.442494,-0.357826,-1.28246,-0.03136,-0.07364,0.55986
-35.5855,0,0,50.5855,50.5855,5,5,70.742,-9.08938,-14.1889,0.261768,0.883393,-1.05958,1,1,32.13,-1.4175,4.9875,0.063928,-0.0366,-1.39495,-0.03136,-0.07364,0.55986
-35.6271,0,0,50.6271,50.6271,5,5,70.7929,-9.09897,-14.1881,0.261933,0.883657,-1.06041,1,1,32.13,-1.4175,4.9875,0.063928,-0.0366,-1.39495,-0.03136,-0.07364,0.55986
-35.6728,0,0,50.6728,50.6728,5,5,70.8538,-9.10771,-14.1871,0.936937,1.10417,-1.08477,1,1,37.8,-1.0675,4.585,0.741638,0.183366,-1.41813,-0.03136,-0.07364,0.55986
-35.7184,0,0,50.7184,50.7184,5,5,70.9147,-9.11646,-14.186,0.937087,1.10449,-1.08577,1,1,37.8,-1.0675,4.585,0.741638,0.183366,-1.41813,-0.03038,-0.07686,0.55748
-35.539,0,0,50.539,50.539,5,5,70.4133,-8.88551,-14.0971,0.28085,0.350537,-0.494264,0,1,36.82,-0.9625,4.27,0.08662,-0.567544,-0.839482,-0.03038,-0.07686,0.55748
-35.3622,0,0,50.3622,50.3622,5,5,69.919,-8.65683,-14.0114,0.276905,0.348217,-0.486038,0,1,36.82,-0.9625,4.27,0.08662,-0.567544,-0.839482,-0.03038,-0.07686,0.55748
-35.4071,0,0,50.4071,50.4071,5,5,69.9787,-8.66324,-14.0073,0.368494,1.07277,-0.790571,1,1,37.345,0.9625,3.885,0.178486,0.155916,-1.1407,-0.03038,-0.07686,0.55748
-35.453,0,0,50.453,50.453,5,5,70.041,-8.66801,-14.0029,0.30346,1.03954,0.115898,1,1,38.7975,1.505,3.0625,0.113094,0.122366,-0.240218,-0.03038,-0.07686,0.55748
-35.5026,0,0,50.5026,50.5026,5,5,70.1122,-8.67145,-13.9994,0.30352,1.03995,0.114739,1,1,43.8025,1.2425,2.135,0.113094,0.122366,-0.240218,-0.03038,-0.07686,0.55748
-35.5512,0,0,50.5512,50.5512,5,5,70.1812,-8.67369,-13.9958,0.368918,1.1698,-1.13874,1,1,42.49,1.505,1.4875,0.17873,0.251686,-1.48291,-0.03038,-0.07686,0.55748
-35.6008,0,0,50.6008,50.6008,5,5,70.2524,-8.67387,-13.9919,0.368921,1.17022,-1.13989,1,1,43.8025,2.1175,0.42,0.17873,0.251686,-1.48291,-0.03038,-0.07686,0.55748
-35.6513,0,0,50.6513,50.6513,5,5,70.326,-8.67268,-13.985,0.752188,1.28276,-0.700685,1,1,45.3775,4.0425,0.2625,0.56364,0.363682,-1.04591,-0.03318,-0.08232,0.55468
-35.7007,0,0,50.7007,50.7007,5,5,70.3968,-8.6701,-13.9799,0.338727,0.719317,-0.18963,1,1,43.6625,3.29,-0.875,0.148474,-0.199592,-0.537654,-0.03318,-0.08232,0.55468
-35.7505,0,0,50.7505,50.7505,5,5,70.4684,-8.66627,-13.9778,0.338661,0.71974,-0.19079,1,1,43.855,1.9425,-2.135,0.148474,-0.199592,-0.537654,-0.03318,-0.08232,0.55468
-35.8006,0,0,50.8006,50.8006,5,5,70.5408,-8.6636,-13.9746,0.322822,1.56846,-0.74388,1,1,44.3625,2.275,-1.295,0.132614,0.64782,-1.08531,-0.03318,-0.08232,0.55468
-35.8533,0,0,50.8533,50.8533,5,5,70.6196,-8.66142,-13.9667,0.322784,1.56891,-0.745162,1,1,48.4225,4.76,-0.1225,0.132614,0.64782,-1.08531,-0.03318,-0.08232,0.55468
-35.9041,0,0,50.9041,50.9041,5,5,70.6935,-8.65882,-13.9575,-0.0402599,0.974463,-0.162479,1,1,45.71,5.53,-0.1225,-0.231922,0.053558,-0.505934,-0.03318,-0.08232,0.55468
-35.9541,0,0,50.9541,50.9541,5,5,70.7654,-8.6563,-13.9485,-0.0403033,0.974879,-0.163649,1,1,44.6425,5.4425,-0.105,-0.231922,0.053558,-0.505934,-0.03318,-0.08232,0.55468
-36.0055,0,0,51.0055,51.0055,5,5,70.8408,-8.65475,-13.9409,0.074717,1.31739,-0.885232,1,1,46.445,4.4975,0.1575,-0.116388,0.39528,-1.22073,-0.03318,-0.08232,0.55468
-36.0583,0,0,51.0583,51.0583,5,5,70.9196,-8.65689,-13.9312,0.0747539,1.31783,-0.886518,1,1,48.545,4.9175,2.5725,-0.116388,0.39528,-1.22073,-0.03108,-0.09002,0.5523
-36.1134,0,0,51.1134,51.1134,5,5,71.0042,-8.65832,-13.9203,0.742828,1.32416,-0.909906,1,1,51.835,5.705,2.3975,0.55449,0.401136,-1.24257,-0.03108,-0.09002,0.5523
-36.1678,0,0,51.1678,51.1678,5,5,71.0868,-8.65951,-13.907,0.742849,1.32462,-0.911255,1,1,50.9775,7.0875,2.7125,0.55449,0.401136,-1.24257,-0.03108,-0.09002,0.5523
-36.2221,0,0,51.2221,51.2221,5,5,71.1692,-8.66139,-13.894,0.913447,0.921693,-0.620601,1,1,50.8725,6.79,3.0275,0.725778,-0.00183,-0.95282,-0.03108,-0.09002,0.5523
-36.278,0,0,51.278,51.278,5,5,71.2555,-8.66792,-13.8826,0.91356,0.922156,-0.622015,1,1,52.85,5.04,5.285,0.725778,-0.00183,-0.95282,-0.03108,-0.09002,0.5523
-36.3344,0,0,51.3344,51.3344,5,5,71.3429,-8.67629,-13.8691,0.383298,1.04536,-0.837627,1,1,53.6725,5.81,6.6675,0.193126,0.12078,-1.16534,-0.03108,-0.09002,0.5523
-36.3907,0,0,51.3907,51.3907,5,5,71.43,-8.68247,-13.8489,0.383404,1.04582,-0.839057,1,1,54.11,9.9575,6.7025,0.193126,0.12078,-1.16534,-0.03108,-0.09002,0.5523
-36.4457,0,0,51.4457,51.4457,5,5,71.514,-8.68895,-13.8298,0.198129,0.671091,-0.329831,1,1,52.22,9.31,6.65,0.006954,-0.254004,-0.658678,-0.03108,-0.09002,0.5523
-36.5034,0,0,51.5034,51.5034,5,5,71.6045,-8.69739,-13.8171,0.198275,0.671564,-0.331318,1,1,55.335,5.425,6.545,0.006954,-0.254004,-0.658678,-0.03108,-0.09002,0.5523
-36.5614,0,0,51.5614,51.5614,5,5,71.6957,-8.70957,-13.8081,0.267732,1.58651,-0.640685,1,1,55.44,2.73,7.945,0.076494,0.659532,-0.964166,-0.03696,-0.0945,0.5446
-36.6218,0,0,51.6218,51.6218,5,5,71.793,-8.72079,-13.7958,0.507738,1.51435,-1.08785,1,1,59.1325,4.76,8.015,0.317322,0.586942,-1.40629,-0.03696,-0.0945,0.5446
-36.6788,0,0,51.6788,51.6788,5,5,71.8815,-8.72859,-13.7813,0.507872,1.5148,-1.08931,1,1,54.39,6.5275,6.475,0.317322,0.586942,-1.40629,-0.03696,-0.0945,0.5446
-36.737,0,0,51.737,51.737,5,5,71.9731,-8.73485,-13.768,0.569817,0.776654,-0.724186,1,1,56,6.23,5.425,0.37942,-0.150914,-1.04249,-0.03696,-0.0945,0.5446
-36.7956,0,0,51.7956,51.7956,5,5,72.0654,-8.74685,-13.7621,0.570024,0.777115,-0.72571,1,1,55.8075,1.12,7.28,0.37942,-0.150914,-1.04249,-0.03696,-0.0945,0.5446
-36.5307,0,0,51.5307,51.5307,5,5,71.3498,-8.61657,-13.6338,0.376558,1.66143,-0.322658,0,1,53.7425,1.3825,8.12,0.187392,0.736026,-0.654286,-0.03696,-0.0945,0.5446
-36.2647,0,0,51.2647,51.2647,5,5,70.6317,-8.47727,-13.5004,0.374153,1.65773,-0.310823,0,1,55.93,5.8275,5.74,0.187392,0.736026,-0.654286,-0.03696,-0.0945,0.5446
-36.3215,0,0,51.3215,51.3215,5,5,70.7207,-8.48238,-13.4888,1.0101,1.08093,0.269516,1,1,54.355,5.4075,4.6025,0.82594,0.159332,-0.076982,-0.0385,-0.09576,0.55272
-36.377,0,0,51.377,51.377,5,5,70.8062,-8.4907,-13.4833,-0.427421,2.13902,-1.01375,1,1,51.9575,1.4,5.18,-0.617808,1.21585,-1.34895,-0.0385,-0.09576,0.55272
-36.4354,0,0,51.4354,51.4354,5,5,70.8992,-8.50058,-13.4784,-0.42725,2.13952,-1.01527,1,1,56.0525,0.7875,5.9325,-0.617808,1.21585,-1.34895,-0.0385,-0.09576,0.55272
-36.496,0,0,51.496,51.496,5,5,70.9975,-8.50614,-13.4685,0.402229,1.43417,-0.856186,1,1,59.5,4.3925,4.4975,0.215086,0.510692,-1.1895,-0.0385,-0.09576,0.55272
-36.5499,0,0,51.5499,51.5499,5,5,71.0789,-8.50942,-13.4603,0.402285,1.43462,-0.857518,1,1,49.8575,3.885,2.905,0.215086,0.510692,-1.1895,-0.0385,-0.09576,0.55272
-36.6042,0,0,51.6042,51.6042,5,5,71.1613,-8.51368,-13.4541,0.194497,1.05232,-0.912226,1,1,50.225,2.625,3.08,0.006344,0.128344,-1.24245,-0.0385,-0.09576,0.55272
-36.6596,0,0,51.6596,51.6596,5,5,71.2463,-8.52106,-13.4534,0.194624,1.05278,-0.913621,1,1,51.2225,-0.9975,3.7625,0.006344,0.128344,-1.24245,-0.0385,-0.09576,0.55272
-36.714,0,0,51.714,51.714,5,5,71.3288,-8.52813,-13.449,0.383292,1.17314,-0.769159,1,1,50.1725,1.12,4.2875,0.195688,0.248148,-1.09776,-0.0385,-0.09576,0.55272
-36.7656,0,0,51.7656,51.7656,5,5,71.4043,-8.53301,-13.4438,0.383376,1.17355,-0.770397,1,1,46.2875,1.96,3.22,0.195688,0.248148,-1.09776,-0.0385,-0.10094,0.54614
-36.8153,0,0,51.8153,51.8153,5,5,71.475,-8.53742,-13.4379,-0.325538,0.933093,-0.323534,1,1,43.68,2.4325,3.08,-0.516304,0.007564,-0.653188,-0.0385,-0.10094,0.54614
-36.8654,0,0,51.8654,51.8654,5,5,71.5464,-8.54203,-13.4379,-0.325458,0.933472,-0.324706,1,1,43.5575,-0.8225,2.1175,-0.516304,0.007564,-0.653188,-0.0385,-0.10094,0.54614
-36.9149,0,0,51.9149,51.9149,5,5,71.6166,-8.54851,-13.4395,0.407212,2.0999,-0.618724,1,1,42.7525,-2.065,2.8525,0.219356,1.17242,-0.943792,-0.0385,-0.10094,0.54614
-36.9671,0,0,51.9671,51.9671,5,5,71.6932,-8.55216,-13.4369,0.407275,2.10031,-0.619983,1,1,46.725,0.7525,2.0475,0.219356,1.17242,-0.943792,-0.0385,-0.10094,0.54614
-37.0176,0,0,52.0176,52.0176,5,5,71.7657,-8.55448,-13.4324,0.612626,1.82139,-1.09686,1,1,44.5375,2.1175,1.68,0.425536,0.893406,-1.41581,-0.0385,-0.10094,0.54614
-37.0643,0,0,52.0643,52.0643,5,5,71.8286,-8.55624,-13.4294,0.612656,1.82173,-1.09789,1,1,39.06,1.33,1.0675,0.425536,0.893406,-1.41581,-0.0385,-0.10094,0.54614
-37.1111,0,0,52.1111,52.1111,5,5,71.8917,-8.5596,-13.4294,0.0417316,2.17366,-0.53558,1,1,38.885,-0.6125,1.4175,-0.147864,1.24464,-0.856806,-0.0385,-0.10094,0.54614
-37.1579,0,0,52.1579,52.1579,5,5,71.9547,-8.56296,-13.4295,0.0417895,2.17399,-0.536617,1,1,38.885,-0.6125,1.4175,-0.147864,1.24464,-0.856806,-0.03766,-0.1099,0.5523
-36.8532,0,0,51.8532,51.8532,5,5,71.1395,-8.79978,-13.2946,-0.0524064,1.58616,-0.461385,0,1,35.525,1.68,0.84,-0.246562,0.66246,-0.795196,-0.03766,-0.1099,0.5523
-36.5461,0,0,51.5461,51.5461,5,5,70.319,-9.03591,-13.1553,-0.048335,1.58089,-0.44824,0,1,35.525,1.68,0.84,-0.246562,0.66246,-0.795196,-0.03766,-0.1099,0.5523
-36.5866,0,0,51.5866,51.5866,5,5,70.3676,-9.03903,-13.1597,-0.324661,1.02561,-0.0650633,1,1,30.3975,-2.9575,0.4375,-0.524112,0.107482,-0.41419,-0.03766,-0.1099,0.5523
-36.6272,0,0,51.6272,51.6272,5,5,70.4162,-9.04215,-13.164,-0.324607,1.02588,-0.0658552,1,1,30.3975,-2.9575,0.4375,-0.524112,0.107482,-0.41419,-0.03766,-0.1099,0.5523
-36.6667,0,0,51.6667,51.6667,5,5,70.4621,-9.04093,-13.1621,0.0817412,1.35357,-0.128935,1,1,29.4525,1.2775,-0.7525,-0.116022,0.434564,-0.476044,-0.03766,-0.1099,0.5523
-36.7062,0,0,51.7062,51.7062,5,5,70.508,-9.0397,-13.1603,0.0817201,1.35384,-0.12968,1,1,29.4525,1.2775,-0.7525,-0.116022,0.434564,-0.476044,-0.03766,-0.1099,0.5523
-36.7411,0,0,51.7411,51.7411,5,5,70.5423,-9.03697,-13.1573,0.0870185,1.45932,-0.0104832,1,1,23.03,2.1875,-1.365,-0.110654,0.539728,-0.357216,-0.03766,-0.1099,0.5523
-36.7752,0,0,51.7752,51.7752,5,5,70.5747,-9.03476,-13.1582,0.121847,2.17151,-0.328584,1,1,21.6125,-0.0525,-1.8375,-0.07564,1.25099,-0.672342,-0.03766,-0.1099,0.5523
-36.8038,0,0,51.8038,51.8038,5,5,70.5933,-9.03457,-13.1576,0.121843,2.17161,-0.328886,1,1,14.035,0.4025,-0.42,-0.07564,1.25099,-0.672342,-0.03934,-0.10738,0.5523
-36.8353,0,0,51.8353,51.8353,5,5,70.619,-9.03411,-13.1578,0.254255,1.64002,-0.543603,1,1,17.92,-0.0175,-0.735,0.05734,0.7198,-0.884988,-0.03934,-0.10738,0.5523
-36.8634,0,0,51.8634,51.8634,5,5,70.6364,-9.03284,-13.158,0.254233,1.64012,-0.543884,1,1,13.265,0.175,-1.1725,0.05734,0.7198,-0.884988,-0.03934,-0.10738,0.5523
-36.5753,0,0,51.5753,51.5753,5,5,69.8637,-9.56627,-13.0322,-0.43415,1.35283,-0.454532,0,1,11.865,-0.4025,-1.82,-0.643184,0.438712,-0.80825,-0.03934,-0.10738,0.5523
-36.2833,0,0,51.2833,51.2833,5,5,69.0818,-10.0997,-12.9002,-0.424977,1.34663,-0.442496,0,1,8.085,-1.47,-1.295,-0.643184,0.438712,-0.80825,-0.03934,-0.10738,0.5523
-36.3073,0,0,51.3073,51.3073,5,5,69.09,-10.0996,-12.9022,0.30758,1.31468,-0.0633328,1,1,7.9625,-1.0675,-0.8925,0.092476,0.406748,-0.43188,-0.03934,-0.10738,0.5523
-36.3305,0,0,51.3305,51.3305,5,5,69.0962,-10.0985,-12.9053,0.307561,1.31472,-0.0634313,1,1,6.72,-1.3825,-1.68,0.092476,0.406748,-0.43188,-0.03934,-0.10738,0.5523
-36.3525,0,0,51.3525,51.3525,5,5,69.0994,-10.0978,-12.9092,0.15557,2.41779,0.0889744,1,1,4.935,-1.96,-1.645,-0.060146,1.50865,-0.2806,-0.03934,-0.10738,0.5523
-36.373,0,0,51.373,51.373,5,5,69.0988,-10.0972,-12.9124,0.15556,2.41779,0.0889853,1,1,2.87,-1.5575,-1.4,-0.060146,1.50865,-0.2806,-0.03094,-0.10892,0.54964
-36.3918,0,0,51.3918,51.3918,5,5,69.094,-10.0967,-12.9147,0.148991,1.65178,0.263035,1,1,0.6125,-1.1025,-1.19,-0.066734,0.743468,-0.10797,-0.03094,-0.10892,0.54964
-36.4092,0,0,51.4092,51.4092,5,5,69.0856,-10.0961,-12.9179,0.148981,1.65173,0.26317,1,1,-1.4875,-1.6275,-1.4175,-0.066734,0.743468,-0.10797,-0.03094,-0.10892,0.54964
-36.425,0,0,51.425,51.425,5,5,69.0733,-10.0971,-12.9218,0.165763,1.91984,-0.435227,1,1,-3.7275,-2.275,-0.7,-0.049898,1.01138,-0.801174,-0.03094,-0.10892,0.54964
-36.4387,0,0,51.4387,51.4387,5,5,69.0558,-10.0979,-12.9254,0.165778,1.91973,-0.434947,1,1,-6.6325,-2.0825,-0.7,-0.049898,1.01138,-0.801174,-0.03094,-0.10892,0.54964
-36.4509,0,0,51.4509,51.4509,5,5,69.0346,-10.0978,-12.9302,0.208296,1.73983,-0.698208,1,1,-8.8375,-2.52,-1.4875,-0.007198,0.831796,-1.06274,-0.03094,-0.10892,0.54964
-36.4617,0,0,51.4617,51.4617,5,5,69.0097,-10.0969,-12.9335,0.208279,1.73968,-0.697808,1,1,-10.71,-1.575,-1.645,-0.007198,0.831796,-1.06274,-0.03094,-0.10892,0.54964
-36.4754,0,0,51.4754,51.4754,5,5,68.9923,-10.0967,-12.9397,0.393299,1.57678,-0.154465,1,1,-6.8425,-3.2725,-1.785,0.178608,0.66917,-0.523868,-0.03094,-0.10892,0.54964
-36.4867,0,0,51.4867,51.4867,5,5,68.9689,-10.0975,-12.9451,0.393314,1.57664,-0.154091,1,1,-10.115,-3.0975,-1.12,0.178608,0.66917,-0.523868,-0.03206,-0.10696,0.55146
-36.4957,0,0,51.4957,51.4957,5,5,68.9396,-10.0974,-12.9492,-0.590237,1.60308,-0.31542,1,1,-13.3175,-2.135,-1.3475,-0.809104,0.695766,-0.68442,-0.03206,-0.10696,0.55146
-36.5021,0,0,51.5021,51.5021,5,5,68.9038,-10.0953,-12.954,-0.590273,1.60286,-0.314845,1,1,-16.975,-2.135,-2.5725,-0.809104,0.695766,-0.68442,-0.03206,-0.10696,0.55146
-36.5083,0,0,51.5083,51.5083,5,5,68.8678,-10.0944,-12.9616,0.0376717,1.54927,-0.558073,1,1,-17.4125,-3.8675,-2.485,-0.178486,0.642452,-0.926346,-0.03206,-0.10696,0.55146
-36.5153,0,0,51.5153,51.5153,5,5,68.8338,-10.0959,-12.9678,0.0376977,1.54906,-0.55753,1,1,-16.1525,-3.6575,-0.91,-0.178486,0.642452,-0.926346,-0.03206,-0.10696,0.55146
-36.5217,0,0,51.5217,51.5217,5,5,68.7981,-10.0959,-12.9729,0.225999,1.37273,-0.83937,1,1,-16.975,-2.6775,-1.5225,0.010614,0.466528,-1.20658,-0.03206,-0.10696,0.55146
-36.5244,0,0,51.5244,51.5244,5,5,68.7532,-10.0938,-12.9751,0.225964,1.37246,-0.838649,1,1,-21.84,-0.7175,-1.995,0.010614,0.466528,-1.20658,-0.03206,-0.10696,0.55146
-36.1721,0,0,51.1721,51.1721,5,5,67.8216,-10.2682,-12.821,-0.0781564,0.990131,-0.652345,0,1,-20.72,-1.1025,-2.555,-0.297802,0.091012,-1.03627,-0.03206,-0.10696,0.55146
-35.8212,0,0,50.8212,50.8212,5,5,66.8942,-10.4391,-12.6652,-0.0752218,0.983507,-0.637856,0,1,-20.72,-1.1025,-2.555,-0.297802,0.091012,-1.03627,-0.03346,-0.10472,0.54432
-35.8289,0,0,50.8289,50.8289,5,5,66.8633,-10.4399,-12.6711,0.752594,1.69566,-0.674867,1,1,-14.42,-3.29,-1.3825,0.533506,0.802638,-1.07348,-0.03346,-0.10472,0.54432
-35.8366,0,0,50.8366,50.8366,5,5,66.8323,-10.4406,-12.677,0.752607,1.69545,-0.67438,1,1,-14.42,-3.29,-1.3825,0.533506,0.802638,-1.07348,-0.03346,-0.10472,0.54432
-35.8409,0,0,50.8409,50.8409,5,5,66.793,-10.4378,-12.6809,-0.0534976,1.6003,-1.03104,1,1,-18.9,-1.4,-2.7825,-0.275964,0.707844,-1.42801,-0.03346,-0.10472,0.54432
-35.844,0,0,50.844,50.844,5,5,66.7508,-10.4374,-12.688,0.719994,1.33024,-0.729646,1,1,-20.8425,-3.6225,-2.275,0.50081,0.438346,-1.1296,-0.03346,-0.10472,0.54432
-35.8498,0,0,50.8498,50.8498,5,5,66.7153,-10.4397,-12.6954,0.720034,1.32999,-0.72909,1,1,-17.115,-4.445,-0.8925,0.50081,0.438346,-1.1296,-0.03346,-0.10472,0.54432
-35.855,0,0,50.855,50.855,5,5,66.6783,-10.4405,-12.7019,-0.149912,1.31533,-0.612198,1,1,-17.8675,-3.6225,-1.505,-0.372832,0.42395,-1.01419,-0.03346,-0.10472,0.54432
-35.8574,0,0,50.8574,50.8574,5,5,66.6343,-10.4369,-12.7056,-0.149973,1.31504,-0.611499,1,1,-21.5425,-1.085,-3.1675,-0.372832,0.42395,-1.01419,-0.03346,-0.10472,0.54432
-35.8605,0,0,50.8605,50.8605,5,5,66.592,-10.4331,-12.7099,0.101801,1.16027,-0.918569,1,1,-20.58,-1.3825,-3.4825,-0.119926,0.26962,-1.31955,-0.0371,-0.10822,0.5502
