pid_x,pid_y,pid_z,front_left_speed,front_right_speed,back_left_speed,back_right_speed,orientation_x,orientation_y,orientation_z,acceleration_x,acceleration_y,acceleration_z,accel_rejected,mag_rejected,gyro_x,gyro_y,gyro_z,accel_x,accel_y,accel_z,mag_x,mag_y,mag_z
-0.038097,0,0,15.0381,15.0381,14.9619,14.9619,0.0152388,0.062679,0.0265175,0.0480301,-0.0129908,-0.00252066,0,0,3.5,-0.0175,-0.77,0.009028,-0.001098,-1.01516,-0.07616,0.10584,0.4585
-0.0728615,0,0,15.0729,15.0729,14.9271,14.9271,0.0291446,0.126207,0.0508622,0.0486222,-0.0117711,-0.000309509,0,0,3.535,0.035,-0.805,0.010736,-0.000122,-1.01297,-0.07616,0.10584,0.4585
-0.101574,0,0,15.1016,15.1016,14.8984,14.8984,0.0406298,0.18431,0.078748,0.0445709,-0.00949448,-0.00191071,0,0,3.675,0.0875,-0.77,0.007686,0.001952,-1.01455,-0.07616,0.10584,0.4585
-0.129554,0,0,15.1296,15.1296,14.8704,14.8704,0.0518214,0.241072,0.106455,0.0435803,-0.00929915,-0.00191454,0,0,3.64,0.07,-0.84,0.007686,0.001952,-1.01455,-0.07616,0.10584,0.4585
-0.153104,0,0,15.1531,15.1531,14.8469,14.8469,0.0612414,0.287479,0.135184,0.0417984,-0.00779135,-0.00302498,0,0,3.64,-4.4275,-0.875,0.00671,0.003294,-1.01565,-0.07616,0.10584,0.4585
-0.178518,0,0,15.1785,15.1785,14.8215,14.8215,0.0714073,0.345072,0.159644,0.0441949,-0.0083467,0.00336259,0,0,3.6575,-0.0175,-0.875,0.010126,0.002562,-1.00931,-0.07616,0.10584,0.4585
-0.202795,0,0,15.2028,15.2028,14.7972,14.7972,0.081118,0.401608,0.183842,0.0432081,-0.00817722,0.00335593,0,0,3.5175,0.1225,-0.9975,0.010126,0.002562,-1.00931,-0.07616,0.10584,0.4585
-0.24107,0,0,15.2411,15.2411,14.7589,14.7589,0.096428,0.461434,0.203913,0.0453226,-0.0127951,0.00666727,0,0,3.605,0.1225,-1.12,0.013298,-0.002318,-1.00601,-0.07686,0.10584,0.46116
-0.268985,0,0,15.269,15.269,14.731,14.731,0.107594,0.518276,0.225479,0.0436017,-0.00954707,0.00260114,0,0,3.4475,0,-0.84,0.012566,0.000732,-1.01004,-0.07686,0.10584,0.46116
-0.291986,0,0,15.292,15.292,14.708,14.708,0.116795,0.566856,0.253179,0.0381374,-0.00804312,-0.0128987,0,0,3.43,-0.0875,-0.77,0.00793,0.002074,-1.02541,-0.07686,0.10584,0.46116
-0.314298,0,0,15.3143,15.3143,14.6857,14.6857,0.125719,0.614462,0.280996,0.0373066,-0.00788739,-0.0129076,0,0,3.3775,-0.0175,-0.665,0.00793,0.002074,-1.02541,-0.07686,0.10584,0.46116
-0.340823,0,0,15.3408,15.3408,14.6592,14.6592,0.136329,0.669023,0.308394,0.0359899,-0.00904564,0.000113839,0,0,3.4825,4.445,-0.7175,0.007564,0.000732,-1.01248,-0.07686,0.10584,0.46116
-0.364974,0,0,15.365,15.365,14.635,14.635,0.14599,0.71485,0.33547,0.0354331,-0.00838856,-0.00395354,0,0,3.4125,0.035,-0.8225,0.007808,0.00122,-1.0165,-0.07686,0.10584,0.46116
-0.389255,0,0,15.3893,15.3893,14.6107,14.6107,0.155702,0.759826,0.362155,0.0346482,-0.00821909,-0.00396408,0,0,3.5525,0.14,-1.015,0.007808,0.00122,-1.0165,-0.07686,0.10584,0.46116
-0.423936,0,0,15.4239,15.4239,14.5761,14.5761,0.169574,0.806904,0.389292,0.0362563,-0.0120072,-0.00151703,0,0,3.4125,0.0175,-0.9625,0.010248,-0.002806,-1.01406,-0.0742,0.10388,0.45738
-0.448586,0,0,15.4486,15.4486,14.5514,14.5514,0.179435,0.854706,0.414463,0.0368799,-0.008782,0.00400303,0,0,3.22,-0.0875,-0.91,0.011712,0.000244,-1.00857,-0.0742,0.10388,0.45738
-0.469683,0,0,15.4697,15.4697,14.5303,14.5303,0.187873,0.898896,0.442284,0.0340435,-0.00753564,-0.00117308,0,0,3.2725,0.175,-0.8575,0.009638,0.001342,-1.0137,-0.0742,0.10388,0.45738
-0.490369,0,0,15.4904,15.4904,14.5096,14.5096,0.196147,0.941947,0.470341,0.0332922,-0.00739128,-0.00118564,0,0,3.2725,0.0875,-0.6825,0.009638,0.001342,-1.0137,-0.0742,0.10388,0.45738
-0.510064,0,0,15.5101,15.5101,14.4899,14.4899,0.204026,0.986967,0.495228,0.0350577,-0.0070096,-0.00451895,0,0,3.325,0.0875,-0.9275,0.0122,0.001586,-1.01699,-0.0742,0.10388,0.45738
-0.538945,0,0,15.5389,15.5389,14.4611,14.4611,0.215578,1.03366,0.517588,0.0363082,-0.00961697,-0.00404227,0,0,3.6925,0.035,-1.015,0.014274,-0.00122,-1.0165,-0.0742,0.10388,0.45738
-0.565855,0,0,15.5659,15.5659,14.4341,14.4341,0.226342,1.07897,0.540197,0.0355174,-0.00942919,-0.00405757,0,0,3.3775,-0.1575,-0.84,0.014274,-0.00122,-1.0165,-0.0742,0.10388,0.45738
-0.585577,0,0,15.5856,15.5856,14.4144,14.4144,0.234231,1.11827,0.565313,0.0300939,-0.00697117,0.00539576,0,0,3.29,0.0175,-0.77,0.009516,0.001098,-1.00711,-0.077,0.10542,0.45878
-0.602149,0,0,15.6021,15.6021,14.3979,14.3979,0.240859,1.15829,0.588846,0.0312176,-0.00600068,-0.00310204,0,0,3.2725,-0.0175,-0.735,0.011346,0.001952,-1.01553,-0.077,0.10542,0.45878
-0.620271,0,0,15.6203,15.6203,14.3797,14.3797,0.248108,1.19529,0.614123,0.0287498,-0.00648488,-0.0025011,0,0,3.3075,0.0175,-0.8575,0.009516,0.001342,-1.01492,-0.077,0.10542,0.45878
-0.637726,0,0,15.6377,15.6377,14.3623,14.3623,0.25509,1.23113,0.639488,0.0281244,-0.00636311,-0.00251488,0,0,3.2375,-0.175,-0.77,0.009516,0.001342,-1.01492,-0.077,0.10542,0.45878
-0.648899,0,0,15.6489,15.6489,14.3511,14.3511,0.259559,1.26211,0.668186,0.0245466,-0.00396477,-0.00535481,0,0,3.395,-0.1575,-0.84,0.006466,0.00366,-1.01772,-0.077,0.10542,0.45878
-0.675322,0,0,15.6753,15.6753,14.3247,14.3247,0.270129,1.29583,0.69407,0.0261451,-0.00903186,0.00237696,0,0,3.4825,-0.1925,-0.805,0.008662,-0.001586,-1.01004,-0.077,0.10542,0.45878
-0.701919,0,0,15.7019,15.7019,14.2981,14.2981,0.280768,1.32896,0.719891,0.025567,-0.00884629,0.00236282,0,0,3.64,-0.0875,-0.805,0.008662,-0.001586,-1.01004,-0.077,0.10542,0.45878
-0.72269,0,0,15.7227,15.7227,14.2773,14.2773,0.289076,1.36077,0.744015,0.0248905,-0.00699162,0.000996637,0,0,3.5525,-0.1575,-0.8225,0.00854,0.000122,-1.01138,-0.07476,0.10612,0.4606
-0.742433,0,0,15.7424,15.7424,14.2576,14.2576,0.296973,1.39421,0.766373,0.0257649,-0.00709815,-0.00037053,0,0,3.2725,0.1925,-0.91,0.010004,-0.000122,-1.01272,-0.07476,0.10612,0.4606
-0.749945,0,0,15.7499,15.7499,14.2501,14.2501,0.299978,1.42581,0.789304,0.024363,-0.00264923,0.00441061,0,0,3.3775,0.14,-0.91,0.00915,0.00427,-1.00796,-0.07476,0.10612,0.4606
-0.758017,0,0,15.758,15.758,14.242,14.242,0.303207,1.45625,0.812329,0.023832,-0.00259297,0.00439696,0,0,3.535,-0.14,-0.8225,0.00915,0.00427,-1.00796,-0.07476,0.10612,0.4606
-0.781022,0,0,15.781,15.781,14.219,14.219,0.312409,1.48654,0.834923,0.0240323,-0.0079282,-0.00397798,0,0,3.5,-0.21,-0.875,0.009882,-0.00122,-1.01626,-0.07476,0.10612,0.4606
-0.799599,0,0,15.7996,15.7996,14.2004,14.2004,0.31984,1.51801,0.855916,0.0246982,-0.00621098,-0.00522258,0,0,3.6225,0.0875,-1.015,0.011102,0.000366,-1.01748,-0.07476,0.10612,0.4606
-0.816964,0,0,15.817,15.817,14.183,14.183,0.326786,1.54836,0.877125,0.0241687,-0.00608987,-0.00523743,0,0,3.43,-0.1575,-0.8575,0.011102,0.000366,-1.01748,-0.07476,0.10612,0.4606
-0.836862,0,0,15.8369,15.8369,14.1631,14.1631,0.334745,1.58116,0.895647,0.0259046,-0.00705025,-0.00439323,0,0,3.3775,-0.0525,-0.875,0.01342,-0.000732,-1.01663,-0.07476,0.10612,0.4606
-0.856819,0,0,15.8568,15.8568,14.1432,14.1432,0.342728,1.6132,0.901649,0.0253456,-0.00691107,-0.00440964,0,0,3.4825,-0.0525,-0.8575,0.01342,-0.000732,-1.01663,-0.07616,0.11326,0.4655
-0.867229,0,0,15.8672,15.8672,14.1328,14.1328,0.346891,1.63744,0.913978,0.0192129,-0.00341895,-0.00749579,0,0,3.605,0.105,-0.9275,0.007686,0.002684,-1.01968,-0.07616,0.11326,0.4655
-0.882508,0,0,15.8825,15.8825,14.1175,14.1175,0.353003,1.65899,0.928557,0.0167717,-0.00514429,-0.0038188,0,0,3.57,0.175,-0.84,0.005612,0.000854,-1.01602,-0.07616,0.11326,0.4655
-0.899757,0,0,15.8998,15.8998,14.1002,14.1002,0.359903,1.68943,0.934129,0.0238943,-0.00600103,0.00255825,0,0,3.4125,-0.14,-0.8925,0.013298,-0.000122,-1.00967,-0.07616,0.11326,0.4655
-0.915584,0,0,15.9156,15.9156,14.0844,14.0844,0.366233,1.7191,0.939898,0.0233766,-0.00589069,0.00254215,0,0,3.1675,-0.1925,-0.77,0.013298,-0.000122,-1.00967,-0.07616,0.11326,0.4655
-0.894841,0,0,15.8948,15.8948,14.1052,14.1052,0.357937,1.76875,0.926446,0.0390325,0.00666558,0.00878707,0,0,3.045,-0.175,-0.805,0.02989,0.012566,-1.00345,-0.07616,0.11326,0.4655
-0.876285,0,0,15.8763,15.8763,14.1237,14.1237,0.350514,1.81732,0.912842,0.0381852,0.00653594,0.00876134,0,0,3.4475,-0.175,-0.91,0.02989,0.012566,-1.00345,-0.07616,0.11326,0.4655
-0.883654,0,0,15.8837,15.8837,14.1163,14.1163,0.353462,1.84258,0.934539,0.0192788,-0.00220586,0.0199353,0,0,3.5525,-0.245,-0.91,0.011346,0.003782,-0.992348,-0.07168,0.10444,0.45836
-0.918088,0,0,15.9181,15.9181,14.0819,14.0819,0.367235,1.85024,0.972525,0.00614627,-0.0121021,-0.0050291,0,0,3.4475,-0.2275,-0.735,-0.001708,-0.006344,-1.01711,-0.07168,0.10444,0.45836
-0.587085,0,0,15.5871,15.5871,14.4129,14.4129,0.234834,1.98893,0.882859,0.114279,0.115653,0.0172786,0,0,3.395,-0.1575,-0.9625,0.109312,0.123586,-0.99491,-0.07168,0.10444,0.45836
-0.781273,0,0,15.7813,15.7813,14.2187,14.2187,0.312509,1.86357,1.04178,-0.114722,-0.0813257,-0.174577,0,0,3.4825,-0.14,-0.7875,-0.122854,-0.074542,-1.18535,-0.07168,0.10444,0.45836
-0.779035,0,0,15.779,15.779,14.221,14.221,0.311614,1.86386,1.04122,-0.114727,-0.0813413,-0.174577,1,0,2.9575,0.175,-1.155,-0.122854,-0.074542,-1.18535,-0.07168,0.10444,0.45836
-0.882901,0,0,15.8829,15.8829,14.1171,14.1171,0.35316,2.01661,0.9487,0.109544,-0.0333541,0.0767582,0,0,3.465,0.14,-0.7875,0.105042,-0.027328,-0.935862,-0.07168,0.10444,0.45836
-0.983484,0,0,15.9835,15.9835,14.0165,14.0165,0.393394,2.16524,0.856356,0.106952,-0.032653,0.076659,0,0,3.2025,-0.315,-0.8925,0.105042,-0.027328,-0.935862,-0.07168,0.10444,0.45836
-0.888819,0,0,15.8888,15.8888,14.1112,14.1112,0.355528,2.23117,0.814238,0.0523482,0.0328791,0.00764504,0,0,3.3075,0,-1.2075,0.051362,0.038796,-1.0043,-0.07434,0.11536,0.46046
-1.29671,0,0,16.2967,16.2967,13.7033,13.7033,0.518685,2.18591,0.879088,-0.0384626,-0.146366,-0.0160753,0,0,3.85,-0.0875,-1.0675,-0.040626,-0.143106,-1.02785,-0.07434,0.11536,0.46046
-1.24562,0,0,16.2456,16.2456,13.7544,13.7544,0.498249,2.30151,0.792791,0.0845301,0.0179035,0.0606917,0,0,3.6925,0.0175,-1.1025,0.084912,0.02135,-0.9516,-0.07434,0.11536,0.46046
-1.31294,0,0,16.3129,16.3129,13.6871,13.6871,0.525175,2.28339,0.827059,-0.012707,-0.0269358,-0.0734367,0,0,2.9225,-0.105,-0.7875,-0.013054,-0.023912,-1.0847,-0.07434,0.11536,0.46046
-1.38099,0,0,16.381,16.381,13.619,13.619,0.552397,2.26566,0.861681,-0.0123978,-0.026461,-0.0734288,0,0,3.3775,-0.105,-0.5075,-0.013054,-0.023912,-1.0847,-0.07434,0.11536,0.46046
-1.14857,0,0,16.1486,16.1486,13.8514,13.8514,0.459427,2.10617,1.0194,-0.123813,0.0795122,0.0248045,0,0,3.2375,0.0175,-0.4725,-0.127734,0.08357,-0.987346,-0.07434,0.11536,0.46046
-0.925929,0,0,15.9259,15.9259,14.0741,14.0741,0.370371,1.94999,1.17799,-0.121089,0.0779596,0.0249123,0,0,4.41,-0.0525,-0.0875,-0.127734,0.08357,-0.987346,-0.07434,0.11536,0.46046
-1.22884,0,0,16.2288,16.2288,13.7712,13.7712,0.491536,2.01555,1.14678,0.0569593,-0.115086,-0.073502,0,0,3.8675,-0.1575,-0.175,0.052216,-0.111386,-1.08495,-0.07434,0.11536,0.46046
-1.50553,0,0,16.5055,16.5055,13.4945,13.4945,0.602212,2.05826,1.11917,0.0316743,-0.0948367,0.0243201,0,0,3.7275,0,-0.5075,0.027572,-0.093086,-0.987834,-0.0756,0.12348,0.46844
-1.49064,0,0,16.4906,16.4906,13.5094,13.5094,0.596256,2.04721,1.13664,-0.00712988,0.00349363,-0.0653014,0,0,2.625,0.1225,-0.4375,-0.01159,0.005246,-1.07677,-0.0756,0.12348,0.46844
-1.29439,0,0,16.2944,16.2944,13.7056,13.7056,0.517755,2.04555,1.14412,-0.00272746,0.0656304,0.049178,0,0,3.0625,0.1575,-0.4725,-0.007198,0.068686,-0.96319,-0.0756,0.12348,0.46844
-1.10657,0,0,16.1066,16.1066,13.8934,13.8934,0.442628,2.04301,1.15122,-0.00268322,0.06432,0.0491906,0,0,4.095,-0.385,-0.7175,-0.007198,0.068686,-0.96319,-0.0756,0.12348,0.46844
-1.03945,0,0,16.0395,16.0395,13.9605,13.9605,0.415781,2.15131,1.05947,0.0886074,0.0257478,-0.00767731,0,0,4.4975,-0.455,-0.84,0.086376,0.030622,-1.01955,-0.0756,0.12348,0.46844
-0.97269,0,0,15.9727,15.9727,14.0273,14.0273,0.389076,2.25878,0.967337,0.0867331,0.0252815,-0.0077462,0,0,4.305,0.42,-1.1375,0.086376,0.030622,-1.01955,-0.0756,0.12348,0.46844
-1.00687,0,0,16.0069,16.0069,13.9931,13.9931,0.40275,2.40204,0.84237,0.0990561,-0.00977537,0.0973944,0,0,3.7975,0.8225,-1.4,0.10126,-0.004636,-0.915122,-0.0756,0.12348,0.46844
-1.03644,0,0,16.0364,16.0364,13.9636,13.9636,0.414576,2.54154,0.73955,0.0966237,-0.00956991,0.0972879,0,0,2.905,0.0875,-1.295,0.10126,-0.004636,-0.915122,-0.07826,0.11102,0.46802
-0.801147,0,0,15.8011,15.8011,14.1989,14.1989,0.320459,2.54724,0.748227,0.00273718,0.0763539,0.0719666,0,0,2.625,-0.2975,-1.505,0.007076,0.082838,-0.940254,-0.07826,0.11102,0.46802
-0.572718,0,0,15.5727,15.5727,14.4273,14.4273,0.229087,2.5527,0.756879,0.00264199,0.0747608,0.07197,0,0,3.1325,-0.385,-1.5575,0.007076,0.082838,-0.940254,-0.07826,0.11102,0.46802
-0.402855,0,0,15.4029,15.4029,14.5971,14.5971,0.161142,2.73423,0.608216,0.148176,0.0609966,0.00580461,0,0,3.605,-0.2275,-1.4,0.156404,0.070272,-1.00577,-0.07826,0.11102,0.46802
-0.236974,0,0,15.237,15.237,14.763,14.763,0.0947897,2.91281,0.459423,0.145063,0.0598396,0.00565366,0,0,3.7975,0.2975,-1.47,0.156404,0.070272,-1.00577,-0.07826,0.11102,0.46802
-0.219437,0,0,15.2194,15.2194,14.7806,14.7806,0.0877747,3.05128,0.347067,0.120296,0.00695841,-0.053856,0,0,3.7625,0.665,-1.645,0.133956,0.017568,-1.06469,-0.07826,0.11102,0.46802
-0.203108,0,0,15.2031,15.2031,14.7969,14.7969,0.0812432,3.18603,0.236076,0.117947,0.00684439,-0.0539838,0,0,3.9375,0.2275,-0.98,0.133956,0.017568,-1.06469,-0.07826,0.11102,0.46802
0.314328,0,0,14.6857,14.6857,15.3143,15.3143,-0.125731,3.09043,0.319142,-0.0779223,0.194976,-0.0483611,0,0,3.535,0.105,-0.77,-0.064416,0.209108,-1.0592,-0.07826,0.11102,0.46802
0.822696,0,0,14.1773,14.1773,15.8227,15.8227,-0.329078,2.9964,0.404636,-0.0762835,0.191432,-0.0482881,0,0,3.325,-0.1575,-0.9975,-0.064416,0.209108,-1.0592,-0.07546,0.10934,0.47096
0.796295,0,0,14.2037,14.2037,15.7963,15.7963,-0.318518,2.92226,0.486494,-0.0598055,-0.00903856,-0.0161307,0,0,3.71,-0.3675,-0.7525,-0.049166,0.008662,-1.02736,-0.07546,0.10934,0.47096
0.773458,0,0,14.2265,14.2265,15.7735,15.7735,-0.309383,2.85005,0.568266,-0.0585468,-0.00887968,-0.0160664,0,0,3.0275,-0.1575,-0.6825,-0.049166,0.008662,-1.02736,-0.07546,0.10934,0.47096
0.517393,0,0,14.4826,14.4826,15.5174,15.5174,-0.206957,2.75811,0.673891,-0.0766248,-0.0925832,-0.0189306,0,0,3.5175,-0.035,-0.875,-0.06893,-0.076738,-1.03029,-0.07546,0.10934,0.47096
0.265891,0,0,14.7341,14.7341,15.2659,15.2659,-0.106357,2.66843,0.779583,-0.0750613,-0.0908296,-0.0188517,0,0,3.605,0.1575,-0.455,-0.06893,-0.076738,-1.03029,-0.07546,0.10934,0.47096
0.434924,0,0,14.5651,14.5651,15.4349,15.4349,-0.173969,2.60873,0.851226,-0.0475366,0.0606499,0.00221759,0,0,4.025,0.1575,-0.2975,-0.042334,0.075762,-1.00943,-0.07546,0.10934,0.47096
0.60342,0,0,14.3966,14.3966,15.6034,15.6034,-0.241368,2.54994,0.922638,-0.0465115,0.0594746,0.00225951,0,0,3.4125,-0.07,-0.4725,-0.042334,0.075762,-1.00943,-0.07546,0.10934,0.47096
0.0299846,0,0,14.97,14.97,15.03,15.03,-0.0119938,2.43056,1.06268,-0.100313,-0.201053,0.0327272,0,0,3.605,-0.5075,-0.5425,-0.098454,-0.18849,-0.979294,-0.07546,0.10934,0.47096
-0.530586,0,0,15.5306,15.5306,14.4694,14.4694,0.212234,2.31173,1.18969,-0.0982412,-0.197142,0.0328061,0,0,3.2375,0.07,-0.63,-0.098454,-0.18849,-0.979294,-0.07728,0.11662,0.46522
-0.528981,0,0,15.529,15.529,14.471,14.471,0.211592,2.31199,1.1901,0.175219,0.118056,-0.0823968,1,0,3.08,0.1575,-0.595,0.176168,0.126392,-1.09361,-0.07728,0.11662,0.46522
-0.530578,0,0,15.5306,15.5306,14.4694,14.4694,0.212231,2.31258,1.19053,0.175208,0.118067,-0.0823972,1,0,3.7975,0.35,-0.5775,0.176168,0.126392,-1.09361,-0.07728,0.11662,0.46522
-0.379114,0,0,15.3791,15.3791,14.6209,14.6209,0.151645,2.30051,1.21459,-0.00814605,0.0565575,-0.0457467,0,0,3.675,0.4025,-0.42,-0.008174,0.066002,-1.05725,-0.07728,0.11662,0.46522
-0.231224,0,0,15.2312,15.2312,14.7688,14.7688,0.0924898,2.28809,1.23784,-0.0079294,0.0555259,-0.0457358,0,0,3.8325,0.035,-0.91,-0.008174,0.066002,-1.05725,-0.07728,0.11662,0.46522
-0.257144,0,0,15.2571,15.2571,14.7429,14.7429,0.102858,2.31601,1.22702,0.0275433,-0.00975325,-0.0777223,0,0,3.605,-0.1575,-0.8225,0.027938,0.00061,-1.08897,-0.07728,0.11662,0.46522
-0.281319,0,0,15.2813,15.2813,14.7187,14.7187,0.112528,2.34331,1.21635,0.0270673,-0.00958466,-0.077742,0,0,3.325,-0.175,-0.7525,0.027938,0.00061,-1.08897,-0.07728,0.11662,0.46522
-0.254929,0,0,15.2549,15.2549,14.7451,14.7451,0.101972,2.24382,1.31849,-0.0824786,0.00867252,-0.0627954,0,0,2.9225,-0.14,-0.9975,-0.083814,0.019032,-1.07421,-0.07728,0.11662,0.46522
-0.23094,0,0,15.2309,15.2309,14.7691,14.7691,0.092376,2.14719,1.42,-0.0807932,0.00850528,-0.0627305,0,0,3.36,0.28,-1.26,-0.083814,0.019032,-1.07421,-0.07728,0.11662,0.46522
-0.0632253,0,0,15.0632,15.0632,14.9368,14.9368,0.0252901,2.31485,1.27662,0.124145,0.0565523,0.0808836,0,0,3.8325,-0.1925,-1.2775,0.124928,0.068198,-0.931592,-0.077,0.12012,0.4613
-0.0642482,0,0,15.0642,15.0642,14.9358,14.9358,0.0256993,2.3146,1.276,-0.0443516,-0.0219681,0.119613,1,0,3.6925,-0.14,-1.19,-0.044286,-0.010248,-0.893162,-0.077,0.12012,0.4613
-0.0655864,0,0,15.0656,15.0656,14.9344,14.9344,0.0262345,2.31388,1.27542,-0.0443389,-0.0219588,0.119613,1,0,3.7625,-0.42,-1.1725,-0.044286,-0.010248,-0.893162,-0.077,0.12012,0.4613
-0.0462198,0,0,15.0462,15.0462,14.9538,14.9538,0.0184879,2.12897,1.44872,-0.144377,0.00611746,0.0469526,0,0,3.5,-0.455,-1.1375,-0.147986,0.017934,-0.965386,-0.077,0.12012,0.4613
-0.0236073,0,0,15.0236,15.0236,14.9764,14.9764,0.00944292,1.94891,1.62136,-0.141236,0.00595972,0.0470645,0,0,2.7125,0.0875,-1.33,-0.147986,0.017934,-0.965386,-0.077,0.12012,0.4613
0.355255,0,0,14.6447,14.6447,15.3553,15.3553,-0.142102,1.98496,1.59934,0.0368403,0.147792,-0.0843921,0,0,3.08,0.175,-1.225,0.031476,0.16226,-1.0958,-0.077,0.12012,0.4613
0.726787,0,0,14.2732,14.2732,15.7268,15.7268,-0.290715,2.01996,1.57788,0.0362299,0.1452,-0.0844232,0,0,3.08,-0.0175,-0.8925,0.031476,0.16226,-1.0958,-0.077,0.12012,0.4613
0.711639,0,0,14.2884,14.2884,15.7116,15.7116,-0.284656,1.96397,1.64139,-0.0455253,-0.0053987,-0.00914426,0,0,3.5525,-0.1225,-0.98,-0.051606,0.011712,-1.02114,-0.077,0.12012,0.4613
0.696461,0,0,14.3035,14.3035,15.6965,15.6965,-0.278584,1.90906,1.71419,-0.0445675,-0.00529296,-0.00911135,0,0,3.6225,-0.3675,-0.9275,-0.051606,0.011712,-1.02114,-0.07392,0.11438,0.46032
0.396299,0,0,14.6037,14.6037,15.3963,15.3963,-0.15852,1.89586,1.75276,-0.0132369,-0.104808,0.0253299,0,0,3.64,-0.42,-0.8225,-0.020374,-0.089792,-0.98698,-0.07392,0.11438,0.46032
0.102928,0,0,14.8971,14.8971,15.1029,15.1029,-0.0411713,1.88359,1.79139,-0.0130229,-0.102761,0.0253405,0,0,3.4125,0,-0.6475,-0.020374,-0.089792,-0.98698,-0.07392,0.11438,0.46032
-0.121113,0,0,15.1211,15.1211,14.8789,14.8789,0.048445,2.0815,1.63876,0.170856,-0.0847108,-0.0390812,0,0,3.5175,0,-0.5075,0.16775,-0.073322,-1.05079,-0.07392,0.11438,0.46032
-0.339622,0,0,15.3396,15.3396,14.6604,14.6604,0.135849,2.27517,1.48697,0.167478,-0.0831867,-0.0392121,0,0,3.255,-0.0175,-0.49,0.16775,-0.073322,-1.05079,-0.07392,0.11438,0.46032
-0.342309,0,0,15.3423,15.3423,14.6577,14.6577,0.136924,2.28733,1.49427,0.00544724,-0.000854513,0.0832361,0,0,3.3075,0.2275,-0.56,0.005246,0.008906,-0.929274,-0.07392,0.11438,0.46032
-0.345027,0,0,15.345,15.345,14.655,14.655,0.138011,2.29839,1.50162,0.00525426,-0.000835575,0.0832283,0,0,3.325,-0.2625,-0.525,0.005246,0.008906,-0.929274,-0.07392,0.11438,0.46032
-0.239916,0,0,15.2399,15.2399,14.7601,14.7601,0.0959662,2.0203,1.76963,-0.217438,0.0350695,0.0664458,0,0,3.6225,0.0525,-0.385,-0.22326,0.045506,-0.94611,-0.07392,0.11438,0.46032
-0.133757,0,0,15.1338,15.1338,14.8662,14.8662,0.0535029,1.74507,2.04486,-0.212637,0.034329,0.0666046,0,0,3.0625,0.175,-0.6475,-0.22326,0.045506,-0.94611,-0.0819,0.11004,0.46158
-0.134866,0,0,15.1349,15.1349,14.8651,14.8651,0.0539465,1.7453,2.04517,0.035554,0.0903929,-0.118064,1,0,3.6925,0.14,-0.6475,0.025986,0.101504,-1.12935,-0.0819,0.11004,0.46158
-0.135822,0,0,15.1358,15.1358,14.8642,14.8642,0.0543287,1.74547,2.04551,0.0355511,0.0903996,-0.118064,1,0,3.6575,0.105,-0.63,0.025986,0.101504,-1.12935,-0.0819,0.11004,0.46158
0.166756,0,0,14.8332,14.8332,15.1668,15.1668,-0.0667026,1.9424,1.89982,0.170488,0.113569,-0.0163737,0,0,3.4825,-0.0525,-0.665,0.164944,0.126758,-1.02834,-0.0819,0.11004,0.46158
0.466415,0,0,14.5336,14.5336,15.4664,15.4664,-0.186566,2.13498,1.75384,0.167129,0.111478,-0.0164979,0,0,2.8875,-0.245,-0.63,0.164944,0.126758,-1.02834,-0.0819,0.11004,0.46158
0.75079,0,0,14.2492,14.2492,15.7508,15.7508,-0.300316,2.1889,1.72936,0.052235,0.108884,-0.0610492,0,0,3.0275,-0.0525,-0.8575,0.050508,0.126148,-1.0725,-0.0819,0.11004,0.46158
1.02841,0,0,13.9716,13.9716,16.0284,16.0284,-0.411364,2.24201,1.70474,0.0513087,0.106947,-0.0610971,0,0,3.325,0.105,-0.9275,0.050508,0.126148,-1.0725,-0.0819,0.11004,0.46158
0.632145,0,0,14.3679,14.3679,15.6321,15.6321,-0.252858,2.24672,1.73156,0.00360417,-0.154571,-0.080756,0,0,3.605,-0.0875,-0.9275,0.002684,-0.13786,-1.09202,-0.0819,0.11004,0.46158
0.241722,0,0,14.7583,14.7583,15.2417,15.2417,-0.096689,2.25023,1.74591,0.00354301,-0.151847,-0.0807501,0,0,4.0425,0.315,-1.2075,0.002684,-0.13786,-1.09202,-0.08162,0.1169,0.46802
0.136029,0,0,14.864,14.864,15.136,15.136,-0.0544117,2.37949,1.64481,0.09787,-0.0364327,0.0485015,0,0,3.395,0.4375,-1.1025,0.099674,-0.023302,-0.963678,-0.08162,0.1169,0.46802
0.0326607,0,0,14.9673,14.9673,15.0327,15.0327,-0.0130643,2.50554,1.54399,0.095672,-0.0357116,0.0484082,0,0,3.3425,0.175,-1.155,0.099674,-0.023302,-0.963678,-0.08162,0.1169,0.46802
0.0339774,0,0,14.966,14.966,15.034,15.034,-0.013591,2.50565,1.54343,-0.111706,-0.0514752,-0.156178,1,0,3.1675,0.07,-1.155,-0.10858,-0.03904,-1.16669,-0.08162,0.1169,0.46802
0.0359997,0,0,14.964,14.964,15.036,15.036,-0.0143999,2.5057,1.54284,-0.111707,-0.0514893,-0.156178,1,0,3.01,0.035,-1.1725,-0.10858,-0.03904,-1.16669,-0.08162,0.1169,0.46802
-0.0237741,0,0,15.0238,15.0238,14.9762,14.9762,0.00950966,2.36744,1.67637,-0.112698,-0.0217619,6.8982e-05,0,0,3.6225,-0.105,-1.155,-0.111996,-0.00976,-1.01175,-0.08162,0.1169,0.46802
-0.0825079,0,0,15.0825,15.0825,14.9175,14.9175,0.0330032,2.23262,1.80945,-0.110346,-0.0213522,0.000163266,0,0,3.6575,0.1925,-1.155,-0.111996,-0.00976,-1.01175,-0.08162,0.1169,0.46802
-0.601543,0,0,15.6015,15.6015,14.3985,14.3985,0.240617,2.30897,1.75927,0.0571872,-0.184435,0.0310848,0,0,3.7975,0.1925,-1.1725,0.057584,-0.17629,-0.981002,-0.08162,0.1169,0.46802
-1.10847,0,0,16.1085,16.1085,13.8915,13.8915,0.443387,2.3827,1.70988,0.0559015,-0.180899,0.0310111,0,0,3.29,-0.1225,-1.05,0.057584,-0.17629,-0.981002,-0.07714,0.11662,0.4613
-0.808122,0,0,15.8081,15.8081,14.1919,14.1919,0.323249,2.27394,1.8153,-0.0885921,0.110721,-0.0250853,0,0,3.2725,-0.1575,-1.05,-0.089426,0.11712,-1.03676,-0.07714,0.11662,0.4613
-0.512439,0,0,15.5124,15.5124,14.4876,14.4876,0.204975,2.16768,1.9212,-0.0867389,0.108659,-0.0250039,0,0,3.0275,-0.035,-0.945,-0.089426,0.11712,-1.03676,-0.07714,0.11662,0.4613
-0.628426,0,0,15.6284,15.6284,14.3716,14.3716,0.25137,2.13053,1.97045,-0.0309365,-0.0405034,0.0260408,0,0,3.605,-0.14,-0.805,-0.034038,-0.032696,-0.986126,-0.07714,0.11662,0.4613
-0.742391,0,0,15.7424,15.7424,14.2576,14.2576,0.296956,2.09454,2.01922,-0.0303088,-0.0397082,0.0260602,0,0,3.6575,0.0875,-0.9625,-0.034038,-0.032696,-0.986126,-0.07714,0.11662,0.4613
-0.744043,0,0,15.744,15.744,14.256,14.256,0.297617,2.09438,2.01944,-0.1835,-0.195653,-0.16328,1,0,3.815,-0.0875,-0.7,-0.18788,-0.18849,-1.17401,-0.07714,0.11662,0.4613
-0.744471,0,0,15.7445,15.7445,14.2555,14.2555,0.297788,2.09419,2.01993,-0.183496,-0.19565,-0.16328,1,0,3.535,-0.105,-0.5425,-0.18788,-0.18849,-1.17401,-0.07714,0.11662,0.4613
-0.762121,0,0,15.7621,15.7621,14.2379,14.2379,0.304849,1.81864,2.28382,-0.229835,-0.00781673,-0.00365263,0,0,3.5525,-0.1225,-0.4025,-0.239242,-0.000976,-1.01577,-0.07714,0.11662,0.4613
-0.779605,0,0,15.7796,15.7796,14.2204,14.2204,0.311842,1.54856,2.547,-0.225124,-0.00769398,-0.0035148,0,0,3.64,-0.2625,-0.4025,-0.239242,-0.000976,-1.01577,-0.07714,0.11662,0.4613
-1.07857,0,0,16.0786,16.0786,13.9214,13.9214,0.431426,1.60244,2.53456,0.0410836,-0.109538,-0.00527546,0,0,3.325,-0.07,-0.6125,0.029036,-0.104798,-1.01748,-0.08036,0.11172,0.4648
-1.24849,0,0,16.2485,16.2485,13.7515,13.7515,0.499397,1.49061,2.66807,-0.0913286,-0.0604778,0.0262424,0,0,3.395,-0.0525,-0.5775,-0.105896,-0.056974,-0.986248,-0.08036,0.11172,0.4648
-1.41515,0,0,16.4152,16.4152,13.5848,13.5848,0.566062,1.38112,2.80093,-0.0894182,-0.0593142,0.0262795,0,0,3.395,-0.0525,-0.5775,-0.105896,-0.056974,-0.986248,-0.08036,0.11172,0.4648
-1.41537,0,0,16.4154,16.4154,13.5846,13.5846,0.56615,1.38159,2.8008,0.122202,-0.0854478,0.133244,1,0,3.5,0.28,-0.91,0.106628,-0.083082,-0.880108,-0.08036,0.11172,0.4648
-1.17348,0,0,16.1735,16.1735,13.8265,13.8265,0.46939,1.2679,2.93666,-0.0861062,0.0833533,0.0532661,0,0,3.6225,-0.0175,-0.9975,-0.104554,0.08723,-0.95953,-0.08036,0.11172,0.4648
-0.937245,0,0,15.9372,15.9372,14.0628,14.0628,0.374898,1.1565,3.07271,-0.0841624,0.0817048,0.0533194,0,0,3.8675,-0.105,-0.9625,-0.104554,0.08723,-0.95953,-0.08036,0.11172,0.4648
-0.938001,0,0,15.938,15.938,14.062,14.062,0.3752,1.15628,3.07236,0.148851,-0.259878,-0.159873,1,0,3.6225,-0.1225,-1.0325,0.129442,-0.254004,-1.17108,-0.08036,0.11172,0.4648
-0.940209,0,0,15.9402,15.9402,14.0598,14.0598,0.376084,1.15652,3.07141,0.148847,-0.259863,-0.159873,1,0,3.955,0.14,-1.3825,0.129442,-0.254004,-1.17108,-0.08106,0.11452,0.46592
-0.93843,0,0,15.9384,15.9384,14.0616,14.0616,0.375372,1.15676,3.07032,0.232182,0.00880342,-0.189258,1,0,3.0625,0.14,-1.47,0.213134,0.014396,-1.20024,-0.08106,0.11452,0.46592
-0.939383,0,0,15.9394,15.9394,14.0606,14.0606,0.375753,1.15684,3.06925,0.23218,0.00881008,-0.189258,1,0,3.675,0.0525,-1.4525,0.213134,0.014396,-1.20024,-0.08106,0.11452,0.46592
-0.938985,0,0,15.939,15.939,14.061,14.061,0.375594,0.833112,3.39054,-0.283587,-0.00303835,-0.0417448,0,0,3.3075,0.07,-1.575,-0.31049,0.002562,-1.05396,-0.08106,0.11452,0.46592
-0.940572,0,0,15.9406,15.9406,14.0594,14.0594,0.376229,0.51567,3.71107,-0.278047,-0.00302685,-0.0416797,0,0,3.815,-0.14,-1.505,-0.31049,0.002562,-1.05396,-0.08106,0.11452,0.46592
-0.246437,0,0,15.2464,15.2464,14.7536,14.7536,0.0985747,0.300048,3.94927,-0.173815,0.263249,-0.00696136,0,0,3.29,-0.105,-1.575,-0.209596,0.273402,-1.01955,-0.08106,0.11452,0.46592
0.434637,0,0,14.5654,14.5654,15.4346,15.4346,-0.173855,0.088991,4.18965,-0.170131,0.258494,-0.00695198,0,0,3.43,-0.035,-1.3125,-0.209596,0.273402,-1.01955,-0.08106,0.11452,0.46592
0.435193,0,0,14.5648,14.5648,15.4352,15.4352,-0.174077,0.0892187,4.18885,0.212666,-0.00518145,-0.218792,1,0,3.325,0.14,-1.295,0.174826,0.010004,-1.22976,-0.08106,0.11452,0.46592
0.437308,0,0,14.5627,14.5627,15.4373,15.4373,-0.174923,0.0893885,4.18868,0.212663,-0.00519621,-0.218792,1,0,2.975,0.105,-0.9275,0.174826,0.010004,-1.22976,-0.084,0.11354,0.4627
-0.0828578,0,0,15.0829,15.0829,14.9171,14.9171,0.0331431,0.282997,4.06672,0.149392,-0.189518,0.0219344,0,0,3.2375,0.1225,-0.595,0.11468,-0.177754,-0.990884,-0.084,0.11354,0.4627
-0.593193,0,0,15.5932,15.5932,14.4068,14.4068,0.237277,0.472325,3.94622,0.146087,-0.185955,0.0219042,0,0,3.2375,0.1225,-0.595,0.11468,-0.177754,-0.990884,-0.084,0.11354,0.4627
-0.861868,0,0,15.8619,15.8619,14.1381,14.1381,0.344747,0.238363,4.19977,-0.20311,-0.103964,-0.0147187,0,0,3.2725,-0.035,-0.315,-0.240096,-0.097722,-1.02724,-0.084,0.11354,0.4627
-0.469624,0,0,15.4696,15.4696,14.5304,14.5304,0.18785,0.419043,4.09391,0.160259,0.148786,-0.0117733,0,0,3.5,0.07,-0.245,0.127978,0.157502,-1.02431,-0.084,0.11354,0.4627
-0.0823346,0,0,15.0823,15.0823,14.9177,14.9177,0.0329338,0.596052,3.98764,0.15717,0.146083,-0.0117954,0,0,2.9925,0,-0.1575,0.127978,0.157502,-1.02431,-0.084,0.11354,0.4627
-0.0836911,0,0,15.0837,15.0837,14.9163,14.9163,0.0334765,0.595833,3.98907,-0.0357457,0.255762,-0.151342,1,0,3.745,-0.1225,0,-0.065758,0.267058,-1.16278,-0.084,0.11354,0.4627
-0.0826208,0,0,15.0826,15.0826,14.9174,14.9174,0.0330483,0.595435,3.99019,-0.0357387,0.255755,-0.151342,1,0,3.2025,-0.2275,-0.175,-0.065758,0.267058,-1.16278,-0.084,0.11354,0.4627
-0.0839617,0,0,15.084,15.084,14.916,14.916,0.0335847,0.595067,3.99101,-0.0429,0.185785,-0.0876545,1,0,3.745,-0.21,-0.35,-0.072956,0.197152,-1.09959,-0.08162,0.11662,0.46032
-0.137166,0,0,15.1372,15.1372,14.8628,14.8628,0.0548665,0.643933,3.98783,0.0361848,-0.0175507,0.0710625,0,0,3.5175,-0.2625,-0.49,0.00732,-0.006344,-0.942084,-0.08162,0.11662,0.46032
-0.189319,0,0,15.1893,15.1893,14.8107,14.8107,0.0757278,0.69217,3.98393,0.0353429,-0.0171866,0.0710523,0,0,3.5175,-0.0175,-0.9275,0.00732,-0.006344,-0.942084,-0.08162,0.11662,0.46032
-0.189693,0,0,15.1897,15.1897,14.8103,14.8103,0.0758772,0.691714,3.98361,0.141286,-0.0622488,0.117281,1,0,3.535,-0.2625,-1.015,0.113704,-0.051362,-0.896212,-0.08162,0.11662,0.46032
-0.18934,0,0,15.1893,15.1893,14.8107,14.8107,0.0757359,0.691647,3.98248,0.141288,-0.0622512,0.117281,1,0,3.3775,-0.035,-1.4875,0.113704,-0.051362,-0.896212,-0.08162,0.11662,0.46032
-0.189291,0,0,15.1893,15.1893,14.8107,14.8107,0.0757166,0.69155,3.98111,0.236534,0.000521567,0.167936,1,0,3.4475,-0.0525,-1.6275,0.209352,0.011346,-0.845948,-0.08162,0.11662,0.46032
-0.188378,0,0,15.1884,15.1884,14.8116,14.8116,0.075351,0.691125,3.9795,0.236541,0.000515187,0.167936,1,0,3.255,-0.245,-1.7675,0.209352,0.011346,-0.845948,-0.08162,0.11662,0.46032
-0.758918,0,0,15.7589,15.7589,14.2411,14.2411,0.303567,0.788016,3.92526,0.0754613,-0.218628,-0.0215627,0,0,3.15,-0.1925,-1.715,0.049288,-0.211548,-1.03395,-0.08162,0.11662,0.46032
-1.32011,0,0,16.3201,16.3201,13.6799,13.6799,0.528045,0.884462,3.88036,0.0737782,-0.214711,-0.0216157,0,0,3.395,0.035,-1.4875,0.049288,-0.211548,-1.03395,-0.0798,0.11144,0.46102
-1.3196,0,0,16.3196,16.3196,13.6804,13.6804,0.527839,0.884732,3.87933,0.153954,0.0576285,-0.0993192,1,0,3.3425,0.1575,-1.435,0.129808,0.060512,-1.11105,-0.0798,0.11144,0.46102
-1.32112,0,0,16.3211,16.3211,13.6789,13.6789,0.528449,0.8847,3.87862,0.153955,0.0576392,-0.0993193,1,0,3.7975,-0.0175,-1.2425,0.129808,0.060512,-1.11105,-0.0798,0.11144,0.46102
-1.77931,0,0,16.7793,16.7793,13.2207,13.2207,0.711723,0.803349,3.99098,-0.0703461,-0.155449,0.0860734,0,0,3.3775,0.175,-1.295,-0.096868,-0.15555,-0.927078,-0.0798,0.11144,0.46102
-2.2317,0,0,17.2317,17.2317,12.7683,12.7683,0.89268,0.723364,4.10287,-0.0689502,-0.152291,0.0860477,0,0,3.99,0.0875,-1.0325,-0.096868,-0.15555,-0.927078,-0.0798,0.11144,0.46102
-2.14739,0,0,17.1474,17.1474,12.8526,12.8526,0.858957,1.10508,3.80913,0.333309,0.0347057,-0.00343312,0,0,3.465,0.28,-0.9625,0.313784,0.031842,-1.01577,-0.0798,0.11144,0.46102
-2.06605,0,0,17.0661,17.0661,12.9339,12.9339,0.82642,1.47907,3.51596,0.326784,0.0341359,-0.00357193,0,0,3.92,0.1925,-0.7175,0.313784,0.031842,-1.01577,-0.0798,0.11144,0.46102
-2.06569,0,0,17.0657,17.0657,12.9343,12.9343,0.826274,1.47959,3.51646,-0.132077,-0.0374329,-0.19488,1,0,3.36,0.315,-0.5425,-0.14701,-0.03965,-1.2056,-0.0798,0.11144,0.46102
-2.0666,0,0,17.0666,17.0666,12.9334,12.9334,0.826641,1.47965,3.51746,-0.132078,-0.0374265,-0.19488,1,0,3.64,0.0525,-0.245,-0.14701,-0.03965,-1.2056,-0.0777,0.11858,0.46802
-2.06631,0,0,17.0663,17.0663,12.9337,12.9337,0.826526,1.47964,3.51796,0.00167796,0.0413432,0.13536,1,0,3.3775,0,-0.5425,-0.012688,0.03904,-0.877912,-0.0777,0.11858,0.46802
-2.06603,0,0,17.066,17.066,12.934,12.934,0.826411,1.47962,3.51845,0.00167824,0.0413412,0.13536,1,0,3.3775,0,-0.5425,-0.012688,0.03904,-0.877912,-0.0777,0.11858,0.46802
-1.94656,0,0,16.9466,16.9466,13.0534,13.0534,0.778623,1.46716,3.55119,-0.00843056,0.044782,-0.0352756,0,0,3.4125,-0.14,-0.2625,-0.023058,0.04331,-1.04725,-0.0777,0.11858,0.46802
-1.82933,0,0,16.8293,16.8293,13.1707,13.1707,0.731733,1.45497,3.58392,-0.00821798,0.0439641,-0.0352594,0,0,3.4125,-0.14,-0.2625,-0.023058,0.04331,-1.04725,-0.0777,0.11858,0.46802
-1.644,0,0,16.644,16.644,13.356,13.356,0.657599,1.66712,3.41595,0.168608,0.0667285,0.0596946,0,0,3.22,-0.28,-0.7,0.158234,0.067344,-0.952942,-0.0777,0.11858,0.46802
-1.46186,0,0,16.4619,16.4619,13.5381,13.5381,0.584742,1.87499,3.24785,0.164982,0.0654564,0.0595963,0,0,3.22,-0.28,-0.7,0.158234,0.067344,-0.952942,-0.0777,0.11858,0.46802
-1.32624,0,0,16.3262,16.3262,13.6738,13.6738,0.530494,1.68896,3.4288,-0.162821,0.050955,-0.0685289,0,0,3.0275,-0.0175,-0.4025,-0.174216,0.053802,-1.08019,-0.0777,0.11858,0.46802
-1.19291,0,0,16.1929,16.1929,13.8071,13.8071,0.477164,1.50581,3.61405,-0.159626,0.0500254,-0.0684316,0,0,3.0275,-0.0175,-0.4025,-0.174216,0.053802,-1.08019,-0.0805,0.11606,0.46452
-1.04048,0,0,16.0405,16.0405,13.9595,13.9595,0.41619,1.6115,3.5444,0.0802868,0.0528693,0.07845,0,0,3.29,-0.0175,-1.085,0.068564,0.057706,-0.934398,-0.0805,0.11606,0.46452
-1.04144,0,0,16.0414,16.0414,13.9586,13.9586,0.416574,1.61153,3.54372,0.0366729,0.426217,-0.139784,1,0,3.675,0.0175,-1.225,0.024766,0.43066,-1.15095,-0.0805,0.11606,0.46452
-1.0407,0,0,16.0407,16.0407,13.9593,13.9593,0.416279,1.61144,3.54331,0.0366746,0.426212,-0.139784,1,0,3.29,-0.0525,-1.0675,0.024766,0.43066,-1.15095,-0.0805,0.11606,0.46452
0.0594131,0,0,14.9406,14.9406,15.0594,15.0594,-0.0237652,1.76476,3.42944,0.144552,0.431114,0.0476604,0,0,3.8325,0.07,-1.05,0.135786,0.443226,-0.964898,-0.0805,0.11606,0.46452
1.14234,0,0,13.8577,13.8577,16.1423,16.1423,-0.456936,1.91551,3.31329,0.141922,0.423558,0.0475442,0,0,3.5525,0.175,-1.4875,0.135786,0.443226,-0.964898,-0.0805,0.11606,0.46452
1.48908,0,0,13.5109,13.5109,16.4891,16.4891,-0.595632,1.7755,3.45819,-0.107961,0.114722,0.10219,0,0,3.7625,0.245,-1.505,-0.117608,0.137128,-0.91073,-0.0805,0.11606,0.46452
1.82879,0,0,13.1712,13.1712,16.8288,16.8288,-0.731516,1.63827,3.6042,-0.105567,0.112351,0.102234,0,0,3.885,0.1925,-1.1375,-0.117608,0.137128,-0.91073,-0.0805,0.11606,0.46452
1.82749,0,0,13.1725,13.1725,16.8275,16.8275,-0.730997,1.63829,3.60391,-0.0710657,0.326815,-0.143663,1,0,3.745,0.0175,-0.9975,-0.08296,0.35136,-1.15473,-0.0805,0.11606,0.46452
1.82544,0,0,13.1746,13.1746,16.8254,16.8254,-0.730176,1.63869,3.60323,-0.0710727,0.326829,-0.143663,1,0,3.92,0.245,-1.225,-0.08296,0.35136,-1.15473,-0.07938,0.11508,0.45934
1.82385,0,0,13.1761,13.1761,16.8239,16.8239,-0.72954,1.63876,3.60264,-0.110071,0.310719,-0.157679,1,0,3.815,0.0525,-1.1725,-0.122122,0.335256,-1.16864,-0.07938,0.11508,0.45934
1.82367,0,0,13.1763,13.1763,16.8237,16.8237,-0.72947,1.63901,3.60193,-0.110075,0.310721,-0.157679,1,0,3.5,0.1575,-1.2425,-0.122122,0.335256,-1.16864,-0.07938,0.11508,0.45934
1.82382,0,0,13.1762,13.1762,16.8238,16.8238,-0.729528,1.63887,3.6011,-0.307244,-0.116113,0.224199,1,0,3.43,-0.07,-1.3125,-0.320128,-0.091134,-0.789706,-0.07938,0.11508,0.45934
1.82468,0,0,13.1753,13.1753,16.8247,16.8247,-0.729873,1.63877,3.60111,-0.307242,-0.116119,0.224199,1,0,3.255,-0.0525,-0.8225,-0.320128,-0.091134,-0.789706,-0.07938,0.11508,0.45934
1.82453,0,0,13.1755,13.1755,16.8245,16.8245,-0.729813,1.63868,3.60112,-0.259618,0.16917,-0.104443,1,0,3.4825,-0.0525,-0.8225,-0.272304,0.193858,-1.11581,-0.07938,0.11508,0.45934
1.82586,0,0,13.1741,13.1741,16.8259,16.8259,-0.730345,1.63879,3.60119,-0.25962,0.16916,-0.104443,1,0,3.15,0.07,-0.7875,-0.272304,0.193858,-1.11581,-0.07938,0.11508,0.45934
1.46034,0,0,13.5397,13.5397,16.4603,16.4603,-0.584137,1.96157,3.33129,0.237578,-0.122735,0.147577,0,0,3.2725,0.1225,-0.8225,0.232654,-0.100284,-0.86559,-0.07938,0.11508,0.45934
1.1024,0,0,13.8976,13.8976,16.1024,16.1024,-0.440959,2.27582,3.05292,0.232097,-0.120236,0.147396,0,0,3.185,0,-0.8575,0.232654,-0.100284,-0.86559,-0.07812,0.12152,0.45976
0.776644,0,0,14.2234,14.2234,15.7766,15.7766,-0.310658,2.50563,2.84702,0.20768,-0.12871,-0.0317689,0,0,3.0275,-0.0875,-0.9275,0.212158,-0.11102,-1.04322,-0.07812,0.12152,0.45976
0.455501,0,0,14.5445,14.5445,15.4555,15.4555,-0.1822,2.7306,2.64281,0.203758,-0.126469,-0.0319387,0,0,3.3425,-0.1925,-0.7,0.212158,-0.11102,-1.04322,-0.07812,0.12152,0.45976
0.0785565,0,0,14.9214,14.9214,15.0786,15.0786,-0.0314226,2.99208,2.40373,0.227385,-0.144358,0.0119769,0,0,3.255,-0.175,-0.315,0.240462,-0.131516,-0.999424,-0.07812,0.12152,0.45976
-0.293614,0,0,15.2936,15.2936,14.7064,14.7064,0.117446,3.24828,2.16595,0.22292,-0.141764,0.0117316,0,0,3.745,-0.175,-0.5425,0.240462,-0.131516,-0.999424,-0.07812,0.12152,0.45976
-1.90902,0,0,16.909,16.909,13.091,13.091,0.763607,3.24238,2.16855,-0.0118093,-0.599838,0.205664,0,0,3.3775,0.035,-0.5075,0.004636,-0.600362,-0.806908,-0.07812,0.12152,0.45976
-3.50097,0,0,18.501,18.501,11.499,11.499,1.40039,3.23635,2.17133,-0.0117043,-0.588743,0.20546,0,0,3.5175,0.07,-0.2625,0.004636,-0.600362,-0.806908,-0.07812,0.12152,0.45976
-3.50043,0,0,18.5004,18.5004,11.4996,11.4996,1.40017,3.23638,2.17201,0.287636,0.0957733,-0.169902,1,0,3.3075,0.035,-0.4375,0.305244,0.083448,-1.17937,-0.07812,0.12152,0.45976
-3.50043,0,0,18.5004,18.5004,11.4996,11.4996,1.40017,3.23648,2.17259,0.287634,0.0957733,-0.169902,1,0,3.43,0.07,-0.49,0.305244,0.083448,-1.17937,-0.08078,0.11522,0.46606
-3.49939,0,0,18.4994,18.4994,11.5006,11.5006,1.39976,3.23637,2.17305,-0.0183864,-0.211383,-0.132894,1,0,3.2025,-0.0525,-0.56,-0.002074,-0.223382,-1.14265,-0.08078,0.11522,0.46606
-3.4978,0,0,18.4978,18.4978,11.5022,11.5022,1.39912,3.23632,2.17339,-0.0183856,-0.211394,-0.132894,1,0,3.08,-0.0175,-0.63,-0.002074,-0.223382,-1.14265,-0.08078,0.11522,0.46606
-3.49695,0,0,18.497,18.497,11.503,11.503,1.39878,3.23612,2.173,0.124485,0.3858,-0.19031,1,0,3.2725,-0.1225,-1.05,0.141398,0.373198,-1.19963,-0.08078,0.11522,0.46606
-3.49693,0,0,18.4969,18.4969,11.5031,11.5031,1.39877,3.23627,2.17233,0.124482,0.3858,-0.19031,1,0,3.465,0.0875,-1.225,0.141398,0.373198,-1.19963,-0.08078,0.11522,0.46606
-3.26936,0,0,18.2694,18.2694,11.7306,11.7306,1.30774,3.07355,2.30911,-0.135334,0.0843965,-0.0122102,0,0,3.3075,0,-1.33,-0.122366,0.073688,-1.02309,-0.08078,0.11522,0.46606
-3.04837,0,0,18.0484,18.0484,11.9516,11.9516,1.21935,2.91388,2.44583,-0.132551,0.0828594,-0.0120308,0,0,3.85,-0.175,-1.4875,-0.122366,0.073688,-1.02309,-0.08078,0.11522,0.46606
-2.48421,0,0,17.4842,17.4842,12.5158,12.5158,0.993684,2.88536,2.46776,-0.0241745,0.20545,0.0432742,0,0,3.8675,0.0875,-1.9075,-0.01403,0.20008,-0.968314,-0.08078,0.11522,0.46606
-1.92919,0,0,16.9292,16.9292,13.0708,13.0708,0.771675,2.85791,2.4896,-0.0236959,0.201581,0.0433579,0,0,3.57,0.07,-1.7325,-0.01403,0.20008,-0.968314,-0.07294,0.11522,0.46312
-1.93074,0,0,16.9307,16.9307,13.0693,13.0693,0.772296,2.85786,2.48835,0.181251,0.42484,-0.0467635,1,0,3.8325,-0.035,-1.5575,0.191784,0.423096,-1.05774,-0.07294,0.11522,0.46312
-1.93144,0,0,16.9314,16.9314,13.0686,13.0686,0.772576,2.85786,2.48713,0.181251,0.424845,-0.0467636,1,0,3.64,0,-1.54,0.191784,0.423096,-1.05774,-0.07294,0.11522,0.46312
-1.93263,0,0,16.9326,16.9326,13.0674,13.0674,0.773051,2.85799,2.48606,-0.566617,-0.173446,0.395605,1,0,3.745,0.07,-1.4525,-0.559248,-0.174582,-0.618784,-0.07294,0.11522,0.46312
-1.93292,0,0,16.9329,16.9329,13.0671,13.0671,0.773169,2.85825,2.48598,-0.566621,-0.173444,0.395605,1,0,3.5175,0.1575,-0.875,-0.559248,-0.174582,-0.618784,-0.07294,0.11522,0.46312
-1.93428,0,0,16.9343,16.9343,13.0657,13.0657,0.773714,2.858,2.48632,-0.230223,0.142385,0.156224,1,0,3.745,-0.14,-0.63,-0.22143,0.14091,-0.856318,-0.07294,0.11522,0.46312
-1.93366,0,0,16.9337,16.9337,13.0663,13.0663,0.773465,2.85804,2.48703,-0.230224,0.142381,0.156224,1,0,3.29,0.035,-0.42,-0.22143,0.14091,-0.856318,-0.07294,0.11522,0.46312
-1.93305,0,0,16.9331,16.9331,13.0669,13.0669,0.77322,2.85736,2.48781,-0.172628,-0.191884,0.147372,1,0,3.29,-0.385,-0.3675,-0.163602,-0.193004,-0.865102,-0.07294,0.11522,0.46312
-1.93406,0,0,16.9341,16.9341,13.0659,13.0659,0.773626,2.85713,2.48911,-0.172624,-0.191877,0.147373,1,0,3.64,-0.1225,-0.07,-0.163602,-0.193004,-0.865102,-0.07294,0.11522,0.46312
-2.3972,0,0,17.3972,17.3972,12.6028,12.6028,0.95888,3.11452,2.25796,0.217232,-0.17473,0.0355754,0,0,3.465,-0.1575,-0.175,0.23241,-0.179096,-0.975756,-0.07812,0.12054,0.45794
-2.8116,0,0,17.8116,17.8116,12.1884,12.1884,1.12464,2.86988,2.46711,-0.210871,-0.163899,-0.0190893,0,0,3.29,-0.2275,-0.105,-0.201788,-0.171166,-1.03017,-0.07812,0.12054,0.45794
-3.21759,0,0,18.2176,18.2176,11.7824,11.7824,1.28704,2.63052,2.67402,-0.206698,-0.161064,-0.0189484,0,0,3.15,-0.07,-0.245,-0.201788,-0.171166,-1.03017,-0.07812,0.12054,0.45794
-3.53603,0,0,18.536,18.536,11.464,11.464,1.41441,2.28339,2.97703,-0.269892,-0.108888,0.115887,0,0,3.675,-0.175,-0.6825,-0.271328,-0.121268,-0.896578,-0.07812,0.12054,0.45794
-3.84835,0,0,18.8484,18.8484,11.1516,11.1516,1.53934,1.94318,3.27739,-0.263958,-0.106704,0.11605,0,0,3.675,-0.21,-0.8225,-0.271328,-0.121268,-0.896578,-0.07812,0.12054,0.45794
-3.84686,0,0,18.8469,18.8469,11.1531,11.1531,1.53874,1.9427,3.27736,-0.173079,0.322683,-0.348818,1,0,3.115,-0.28,-0.84,-0.180072,0.307684,-1.35786,-0.07812,0.12054,0.45794
-3.84645,0,0,18.8464,18.8464,11.1536,11.1536,1.53858,1.94296,3.27716,-0.173083,0.322681,-0.348818,1,0,3.36,0.1575,-0.945,-0.180072,0.307684,-1.35786,-0.07812,0.12054,0.45794
-3.04639,0,0,18.0464,18.0464,11.9536,11.9536,1.21856,1.97345,3.26061,0.0324246,0.319054,-0.0257158,0,0,3.1325,-0.21,-1.12,0.02684,0.309636,-1.03737,-0.07812,0.12054,0.45794
-2.26025,0,0,17.2602,17.2602,12.7398,12.7398,0.904099,1.99984,3.25681,0.0319644,0.313569,-0.0256301,0,0,3.2025,0.0875,-1.2425,0.02684,0.309636,-1.03737,-0.07896,0.11214,0.4627
-1.93144,0,0,16.9314,16.9314,13.0686,13.0686,0.772576,2.10342,3.18548,0.0763223,0.112819,0.111672,0,0,3.605,0.21,-1.33,0.0732,0.111386,-0.901092,-0.07896,0.11214,0.4627
-1.60813,0,0,16.6081,16.6081,13.3919,13.3919,0.643251,2.20432,3.11425,0.0745624,0.110562,0.111634,0,0,3.5,-0.1575,-1.1725,0.0732,0.111386,-0.901092,-0.07896,0.11214,0.4627
-1.6097,0,0,16.6097,16.6097,13.3903,13.3903,0.64388,2.20417,3.11363,-0.134876,0.0662414,0.164748,1,0,3.815,-0.0875,-1.19,-0.137128,0.0671,-0.848388,-0.07896,0.11214,0.4627
-1.61094,0,0,16.6109,16.6109,13.3891,13.3891,0.644375,2.20396,3.11277,-0.134873,0.06625,0.164748,1,0,3.745,-0.1225,-1.33,-0.137128,0.0671,-0.848388,-0.07896,0.11214,0.4627
-2.22257,0,0,17.2226,17.2226,12.7774,12.7774,0.88903,1.77101,3.51367,-0.396169,-0.249207,0.0260208,0,0,3.6575,-0.0525,-1.2425,-0.407114,-0.252296,-0.986248,-0.07896,0.11214,0.4627
-2.82148,0,0,17.8215,17.8215,12.1785,12.1785,1.12859,1.34668,3.91,-0.388765,-0.245025,0.0261486,0,0,3.2375,0.245,-1.12,-0.407114,-0.252296,-0.986248,-0.07896,0.11214,0.4627
-3.03408,0,0,18.0341,18.0341,11.9659,11.9659,1.21363,1.30342,3.97854,-0.0400756,-0.0857531,-0.053289,0,0,3.4125,0.14,-1.19,-0.057706,-0.094672,-1.06506,-0.07896,0.11214,0.4627
-3.24396,0,0,18.244,18.244,11.756,11.756,1.29759,1.26011,4.03659,-0.0393199,-0.0842882,-0.0533042,0,0,3.71,0.0175,-1.19,-0.057706,-0.094672,-1.06506,-0.07602,0.1183,0.46256
-3.24261,0,0,18.2426,18.2426,11.7574,11.7574,1.29704,1.2597,4.03623,0.291979,0.220164,-0.0510907,1,0,3.15,-0.245,-1.0325,0.274988,0.209474,-1.06286,-0.07602,0.1183,0.46256
-3.24203,0,0,18.242,18.242,11.758,11.758,1.29681,1.25943,4.03579,0.291984,0.22016,-0.0510905,1,0,3.325,-0.1575,-1.085,0.274988,0.209474,-1.06286,-0.07602,0.1183,0.46256
-2.37768,0,0,17.3777,17.3777,12.6223,12.6223,0.951071,1.12932,4.17941,-0.0940144,0.295832,0.136695,0,0,3.0975,-0.0875,-1.05,-0.114924,0.291092,-0.876692,-0.07602,0.1183,0.46256
-1.52866,0,0,16.5287,16.5287,13.4713,13.4713,0.611465,1.00201,4.32488,-0.0917928,0.289907,0.136817,0,0,3.1675,0.07,-0.875,-0.114924,0.291092,-0.876692,-0.07602,0.1183,0.46256
-1.52858,0,0,16.5286,16.5286,13.4714,13.4714,0.611432,1.00218,4.32493,-0.297714,-0.0725657,0.240954,1,0,3.43,0.105,-0.805,-0.321714,-0.071004,-0.773358,-0.07602,0.1183,0.46256
-1.5285,0,0,16.5285,16.5285,13.4715,13.4715,0.611401,1.0024,4.32512,-0.297718,-0.0725663,0.240954,1,0,3.43,0.14,-0.7175,-0.321714,-0.071004,-0.773358,-0.07602,0.1183,0.46256
-1.61112,0,0,16.6111,16.6111,13.3889,13.3889,0.644449,1.06889,4.29272,0.0485709,-0.0268029,0.0952327,0,0,3.3425,-0.14,-0.56,0.027206,-0.025864,-0.917928,-0.07602,0.1183,0.46256
-1.69278,0,0,16.6928,16.6928,13.3072,13.3072,0.67711,1.13451,4.2692,0.0474259,-0.0262333,0.0952041,0,0,3.465,0.105,-0.315,0.027206,-0.025864,-0.917928,-0.07518,0.11298,0.46676
-1.69311,0,0,16.6931,16.6931,13.3069,13.3069,0.677245,1.13434,4.26984,0.502514,-0.134924,-0.190282,1,0,3.5175,-0.0875,-0.455,0.484218,-0.134444,-1.20121,-0.07518,0.11298,0.46676
-1.69432,0,0,16.6943,16.6943,13.3057,13.3057,0.677728,1.13411,4.27072,0.502518,-0.134915,-0.190282,1,0,3.71,-0.1225,-0.315,0.484218,-0.134444,-1.20121,-0.07518,0.11298,0.46676
-1.4645,0,0,16.4645,16.4645,13.5355,13.5355,0.5858,1.30869,4.14964,0.153481,0.0886817,0.00454379,0,0,3.5,-0.105,-0.455,0.136762,0.090524,-1.00784,-0.07518,0.11298,0.46676
-1.24059,0,0,16.2406,16.2406,13.7594,13.7594,0.496238,1.48021,4.02845,0.150488,0.0871184,0.0044857,0,0,3.92,0.105,-0.4025,0.136762,0.090524,-1.00784,-0.07518,0.11298,0.46676
-1.24039,0,0,16.2404,16.2404,13.7596,13.7596,0.496154,1.48047,4.02894,-0.451843,0.26359,-0.149815,1,0,3.395,0.1575,-0.5425,-0.468114,0.266814,-1.16095,-0.07518,0.11298,0.46676
-1.23947,0,0,16.2395,16.2395,13.7605,13.7605,0.495788,1.48072,4.02937,-0.451847,0.263584,-0.149815,1,0,3.2375,0.1575,-0.5775,-0.468114,0.266814,-1.16095,-0.07518,0.11298,0.46676
-1.30095,0,0,16.3009,16.3009,13.6991,13.6991,0.520379,1.59344,3.95598,0.0892275,-0.0207873,0.0538543,0,0,3.535,0.07,-0.805,0.077226,-0.01769,-0.958798,-0.07518,0.11298,0.46676
-1.36054,0,0,16.3605,16.3605,13.6395,13.6395,0.544216,1.70433,3.87362,0.0872928,-0.020372,0.0537947,0,0,3.3775,0.175,-0.945,0.077226,-0.01769,-0.958798,-0.07868,0.11872,0.47054
-1.89275,0,0,16.8928,16.8928,13.1072,13.1072,0.757101,1.99821,3.62334,0.232444,-0.191058,0.0960041,0,0,3.325,0.2275,-0.8575,0.22814,-0.191906,-0.916708,-0.07868,0.11872,0.47054
-2.41751,0,0,17.4175,17.4175,12.5825,12.5825,0.967005,2.28621,3.37461,0.227421,-0.1874,0.0957611,0,0,3.815,0.245,-1.4,0.22814,-0.191906,-0.916708,-0.07868,0.11872,0.47054
-2.16751,0,0,17.1675,17.1675,12.8325,12.8325,0.867003,2.43172,3.25063,0.131097,0.0995625,-0.0336573,0,0,3.64,0.175,-1.47,0.133956,0.096502,-1.04505,-0.07868,0.11872,0.47054
-1.92123,0,0,16.9212,16.9212,13.0788,13.0788,0.768492,2.57399,3.1263,0.128616,0.0978434,-0.0337412,0,0,3.5,-0.0175,-1.5925,0.133956,0.096502,-1.04505,-0.07868,0.11872,0.47054
-1.92229,0,0,16.9223,16.9223,13.0777,13.0777,0.768917,2.57385,3.12472,-0.48124,0.0284828,-0.177468,1,0,3.7275,-0.0875,-1.75,-0.478484,0.027206,-1.18767,-0.07868,0.11872,0.47054
-1.92117,0,0,16.9212,16.9212,13.0788,13.0788,0.768468,2.57425,3.12312,-0.481247,0.028475,-0.177468,1,0,3.2375,0.2275,-1.7675,-0.478484,0.027206,-1.18767,-0.07868,0.11872,0.47054
-1.61821,0,0,16.6182,16.6182,13.3818,13.3818,0.647283,2.65237,3.05323,0.0717305,0.119178,-0.0361135,0,0,3.1675,-0.035,-1.6275,0.078202,0.119926,-1.04737,-0.07868,0.11872,0.47054
-1.32253,0,0,16.3225,16.3225,13.6775,13.6775,0.529012,2.72763,2.99352,0.0704184,0.117115,-0.036154,0,0,3.605,-0.105,-1.5575,0.078202,0.119926,-1.04737,-0.0784,0.11242,0.46564
-1.32202,0,0,16.322,16.322,13.678,13.678,0.528809,2.72784,2.9926,-0.0203351,0.251085,0.136097,1,0,3.36,0.1225,-1.365,-0.012932,0.25376,-0.876448,-0.0784,0.11242,0.46564
-1.32183,0,0,16.3218,16.3218,13.6782,13.6782,0.528732,2.7278,2.99234,-0.0203344,0.251084,0.136097,1,0,3.4125,-0.0175,-0.98,-0.012932,0.25376,-0.876448,-0.0784,0.11242,0.46564
-1.62024,0,0,16.6202,16.6202,13.3798,13.3798,0.648097,2.69684,3.02973,-0.0299996,-0.101125,0.101675,0,0,3.325,0.105,-0.84,-0.02318,-0.100162,-0.910608,-0.0784,0.11242,0.46564
-1.91338,0,0,16.9134,16.9134,13.0866,13.0866,0.765354,2.66623,3.06696,-0.0294659,-0.0990806,0.101675,0,0,3.36,-0.035,-0.7525,-0.02318,-0.100162,-0.910608,-0.0784,0.11242,0.46564
-1.91352,0,0,16.9135,16.9135,13.0865,13.0865,0.765409,2.66634,3.06755,-0.0879023,-0.0132245,-0.129099,1,0,3.465,0.07,-0.49,-0.081862,-0.014396,-1.1396,-0.0784,0.11242,0.46564
-1.91388,0,0,16.9139,16.9139,13.0861,13.0861,0.765553,2.66661,3.06867,-0.0879071,-0.013222,-0.1291,1,0,3.5,0.175,-0.175,-0.081862,-0.014396,-1.1396,-0.0784,0.11242,0.46564
-1.50433,0,0,16.5043,16.5043,13.4957,13.4957,0.60173,2.49631,3.22966,-0.146653,0.159053,-0.0199992,0,0,3.4825,-0.0875,-0.1575,-0.143838,0.160552,-1.03151,-0.0784,0.11242,0.46564
-1.10037,0,0,16.1004,16.1004,13.8996,13.8996,0.44015,2.32887,3.39122,-0.143733,0.156237,-0.0198506,0,0,3.0975,-0.385,-0.245,-0.143838,0.160552,-1.03151,-0.0784,0.11242,0.46564
-1.09893,0,0,16.0989,16.0989,13.9011,13.9011,0.439571,2.32775,3.39242,0.0364501,-0.0964535,0.287645,1,0,3.0975,-0.6475,-0.1225,0.037088,-0.091866,-0.726388,-0.07952,0.1176,0.46648
-1.09916,0,0,16.0992,16.0992,13.9008,13.9008,0.439664,2.32663,3.39323,-0.00106942,0.0739149,0.176623,1,0,3.4825,-0.6475,-0.35,-0.00061,0.078324,-0.836554,-0.07952,0.1176,0.46648
-1.09898,0,0,16.099,16.099,13.901,13.901,0.439592,2.32652,3.39384,-0.00106762,0.0739137,0.176623,1,0,3.395,-0.0525,-0.4725,-0.00061,0.078324,-0.836554,-0.07952,0.1176,0.46648
-1.09992,0,0,16.0999,16.0999,13.9001,13.9001,0.439967,2.32687,3.39392,-0.0937673,-0.365858,0.224204,1,0,3.6575,0.21,-0.7875,-0.093696,-0.360998,-0.78934,-0.07952,0.1176,0.46648
-1.09873,0,0,16.0987,16.0987,13.9013,13.9013,0.439492,2.32648,3.39381,-0.0937604,-0.365866,0.224204,1,0,3.185,-0.2275,-0.8925,-0.093696,-0.360998,-0.78934,-0.07952,0.1176,0.46648
-1.098,0,0,16.098,16.098,13.902,13.902,0.439198,2.32599,3.39357,0.089084,-0.144578,-0.170337,1,0,3.29,-0.28,-0.9625,0.089914,-0.139934,-1.18084,-0.07952,0.1176,0.46648
-1.09776,0,0,16.0978,16.0978,13.9022,13.9022,0.439103,2.32554,3.39283,0.0890919,-0.14458,-0.170337,1,0,3.4125,-0.2625,-1.26,0.089914,-0.139934,-1.18084,-0.07952,0.1176,0.46648
-1.09771,0,0,16.0977,16.0977,13.9023,13.9023,0.439082,2.32515,3.39239,0.102098,0.191269,-0.178574,1,0,3.4475,-0.2275,-1.085,0.102968,0.195566,-1.18901,-0.07952,0.1176,0.46648
-1.09817,0,0,16.0982,16.0982,13.9018,13.9018,0.439266,2.32556,3.39237,0.102091,0.191272,-0.178575,1,0,3.5525,0.245,-0.84,0.102968,0.195566,-1.18901,-0.08008,0.11676,0.4634
-1.09827,0,0,16.0983,16.0983,13.9017,13.9017,0.439307,2.32609,3.39191,-0.0232919,-0.221272,0.193713,1,0,3.4825,0.315,-1.1025,-0.022936,-0.21655,-0.819596,-0.08008,0.11676,0.4634
-1.09837,0,0,16.0984,16.0984,13.9016,13.9016,0.439348,2.32662,3.39144,-0.0233012,-0.221271,0.193713,1,0,3.4825,0.315,-1.1025,-0.022936,-0.21655,-0.819596,-0.08008,0.11676,0.4634
-1.0994,0,0,16.0994,16.0994,13.9006,13.9006,0.43976,2.3265,3.39091,0.245184,-0.124295,-0.0835361,1,0,3.6925,-0.07,-1.1375,0.246684,-0.119682,-1.09471,-0.08008,0.11676,0.4634
-1.73884,0,0,16.7388,16.7388,13.2612,13.2612,0.695534,2.05796,3.63547,-0.245794,-0.259057,-0.000779681,0,0,3.5875,0.14,-1.1725,-0.251076,-0.258762,-1.01272,-0.08008,0.11676,0.4634
-2.36511,0,0,17.3651,17.3651,12.6349,12.6349,0.946045,1.79434,3.87697,-0.241195,-0.254686,-0.000687646,0,0,3.1675,0,-1.1725,-0.251076,-0.258762,-1.01272,-0.08008,0.11676,0.4634
-2.36418,0,0,17.3642,17.3642,12.6358,12.6358,0.945673,1.79441,3.87617,0.187405,0.266056,-0.269822,1,0,3.255,0.035,-1.295,0.17934,0.261446,-1.27978,-0.08008,0.11676,0.4634
-2.3651,0,0,17.3651,17.3651,12.6349,12.6349,0.94604,1.79495,3.87502,0.187395,0.266063,-0.269822,1,0,3.675,0.315,-1.505,0.17934,0.261446,-1.27978,-0.08008,0.11676,0.4634
-2.3658,0,0,17.3658,17.3658,12.6342,12.6342,0.946321,1.79499,3.87411,-0.0617724,0.0238902,0.133818,1,0,3.6225,0.0175,-1.365,-0.070882,0.01952,-0.879254,-0.07588,0.11928,0.47124
-2.64294,0,0,17.6429,17.6429,12.3571,12.3571,1.05717,1.59356,4.06142,-0.164194,-0.0984994,0.0838477,0,0,3.4125,-0.175,-1.225,-0.177266,-0.104676,-0.928908,-0.07588,0.11928,0.47124
-2.91232,0,0,17.9123,17.9123,12.0877,12.0877,1.16493,1.39553,4.24785,-0.160739,-0.0966179,0.0839013,0,0,2.8,-0.525,-0.98,-0.177266,-0.104676,-0.928908,-0.07588,0.11928,0.47124
-2.82383,0,0,17.8238,17.8238,12.1762,12.1762,1.12953,1.50314,4.17032,0.089831,0.0334392,0.0349327,0,0,3.0275,-0.6475,-0.735,0.07625,0.025864,-0.977464,-0.07588,0.11928,0.47124
-2.73682,0,0,17.7368,17.7368,12.2632,12.2632,1.09473,1.60921,4.09361,0.0879804,0.0328312,0.0348942,0,0,3.01,-0.28,-0.2975,0.07625,0.025864,-0.977464,-0.07588,0.11928,0.47124
-2.73628,0,0,17.7363,17.7363,12.2637,12.2637,1.09451,1.60885,4.09479,-0.154863,-0.317676,-0.133914,1,0,3.3075,-0.1925,-0.14,-0.167628,-0.324276,-1.14497,-0.07588,0.11928,0.47124
-2.73697,0,0,17.737,17.737,12.263,12.263,1.09479,1.60924,4.09595,-0.15487,-0.317672,-0.133914,1,0,3.5875,0.245,-0.1575,-0.167628,-0.324276,-1.14497,-0.07588,0.11928,0.47124
-2.73689,0,0,17.7369,17.7369,12.2631,12.2631,1.09475,1.60912,4.09701,0.338607,0.135296,-0.105021,1,0,3.4125,-0.0525,-0.21,0.327936,0.128222,-1.1163,-0.08204,0.11536,0.4634
-2.80085,0,0,17.8009,17.8009,12.1991,12.1991,1.12034,0.983894,4.66405,-0.559197,-0.0314444,0.101402,0,0,3.71,-0.2275,0.1225,-0.584624,-0.038796,-0.911706,-0.08204,0.11536,0.4634
-2.86169,0,0,17.8617,17.8617,12.1383,12.1383,1.14468,0.370565,5.22803,-0.548493,-0.0310173,0.10152,0,0,3.535,0.315,-0.315,-0.584624,-0.038796,-0.911706,-0.08204,0.11536,0.4634
-2.86278,0,0,17.8628,17.8628,12.1372,12.1372,1.14511,0.371063,5.22811,0.273106,-0.032231,0.277336,1,0,3.6925,0.2975,-0.7875,0.240462,-0.040016,-0.737246,-0.08204,0.11536,0.4634
-2.86004,0,0,17.86,17.86,12.14,12.14,1.14402,0.371138,5.22836,0.273105,-0.0322501,0.277336,1,0,2.835,0.0525,-0.6825,0.240462,-0.040016,-0.737246,-0.08204,0.11536,0.4634
-2.85981,0,0,17.8598,17.8598,12.1402,12.1402,1.14392,0.371481,5.22874,0.0964587,0.223848,-0.181385,1,0,3.395,0.21,-0.6125,0.063074,0.215818,-1.19243,-0.08204,0.11536,0.4634
-2.85729,0,0,17.8573,17.8573,12.1427,12.1427,1.14292,0.371786,5.22798,0.0964534,0.223831,-0.181384,1,0,2.8875,0.175,-1.2775,0.063074,0.215818,-1.19243,-0.08204,0.11536,0.4634
-2.8568,0,0,17.8568,17.8568,12.1432,12.1432,1.14272,0.372274,5.22704,0.00618104,0.150551,-0.100976,1,0,3.3425,0.28,-1.3825,-0.027572,0.142618,-1.11264,-0.08204,0.11536,0.4634
-2.85694,0,0,17.8569,17.8569,12.1431,12.1431,1.14278,0.372728,5.22631,0.00617311,0.150552,-0.100976,1,0,3.4825,0.2625,-1.26,-0.027572,0.142618,-1.11264,-0.07742,0.1176,0.46508
-2.5947,0,0,17.5947,17.5947,12.4053,12.4053,1.03788,0.346309,5.29023,-0.0179059,0.0957186,0.0556982,0,0,3.5875,0.14,-1.19,-0.052216,0.08967,-0.957212,-0.07742,0.1176,0.46508
-2.33969,0,0,17.3397,17.3397,12.6603,12.6603,0.935876,0.320612,5.35427,-0.0174574,0.0939387,0.0557315,0,0,4.1475,0.21,-1.1375,-0.052216,0.08967,-0.957212,-0.07742,0.1176,0.46508
-2.94731,0,0,17.9473,17.9473,12.0527,12.0527,1.17892,0.0143576,5.64752,-0.262737,-0.224234,0.105586,0,0,3.9025,0.4025,-1.47,-0.303902,-0.23241,-0.90768,-0.07742,0.1176,0.46508
-3.54396,0,0,18.544,18.544,11.456,11.456,1.41758,-0.286356,5.93675,-0.257489,-0.22007,0.105479,0,0,3.7625,0.2975,-1.8375,-0.303902,-0.23241,-0.90768,-0.07742,0.1176,0.46508
-3.54436,0,0,18.5444,18.5444,11.4556,11.4556,1.41774,-0.286056,5.93512,0.329039,0.348677,-0.0957877,1,0,3.535,0.1575,-1.785,0.285114,0.335744,-1.10739,-0.07742,0.1176,0.46508
-3.54615,0,0,18.5461,18.5461,11.4539,11.4539,1.41846,-0.28579,5.9349,0.329034,0.348689,-0.095788,1,0,3.85,0.1575,-0.9625,0.285114,0.335744,-1.10739,-0.07742,0.1176,0.46508
-3.39125,0,0,18.3913,18.3913,11.6087,11.6087,1.3565,-0.0883166,5.8104,0.182113,0.0652513,-0.0503825,0,0,4.1475,0.28,-1.33,0.141032,0.05368,-1.06238,-0.07742,0.1176,0.46508
-3.23916,0,0,18.2392,18.2392,11.7608,11.7608,1.29566,0.106257,5.68443,0.178717,0.0641897,-0.0503585,0,0,4.1475,0.28,-1.33,0.141032,0.05368,-1.06238,-0.08092,0.11858,0.4662
-2.93296,0,0,17.933,17.933,12.067,12.067,1.17318,0.30376,5.55603,0.190334,0.129344,-0.0730702,0,0,3.6925,-0.0875,-0.525,0.15616,0.120902,-1.08495,-0.08092,0.11858,0.4662
-2.63198,0,0,17.632,17.632,12.368,12.368,1.05279,0.497503,5.42719,0.186953,0.127243,-0.0730531,0,0,3.6925,-0.0875,-0.525,0.15616,0.120902,-1.08495,-0.08092,0.11858,0.4662
-2.77704,0,0,17.777,17.777,12.223,12.223,1.11082,0.162104,5.74967,-0.28937,-0.0593306,0.0395823,0,0,3.4825,-0.315,-0.525,-0.328058,-0.06649,-0.973194,-0.08092,0.11858,0.4662
-2.91936,0,0,17.9194,17.9194,12.0806,12.0806,1.16774,-0.166791,6.07051,-0.28363,-0.0583372,0.0395623,0,0,3.4825,-0.315,-0.525,-0.328058,-0.06649,-0.973194,-0.08092,0.11858,0.4662
-3.14904,0,0,18.149,18.149,11.851,11.851,1.25961,-0.438951,6.34329,-0.254097,-0.0998454,-0.0401674,0,0,3.3775,-0.6825,-0.5075,-0.30317,-0.109556,-1.05225,-0.08092,0.11858,0.4662
-3.37462,0,0,18.3746,18.3746,11.6254,11.6254,1.34985,-0.705803,6.61438,-0.24944,-0.0982721,-0.0402497,0,0,3.3775,-0.6825,-0.5075,-0.30317,-0.109556,-1.05225,-0.08092,0.11858,0.4662
-3.37296,0,0,18.373,18.373,11.627,11.627,1.34918,-0.70636,6.61483,0.458103,0.214483,-0.0610279,1,0,3.08,-0.315,-0.56,0.407358,0.202886,-1.07287,-0.08092,0.11858,0.4662
-3.3713,0,0,18.3713,18.3713,11.6287,11.6287,1.34852,-0.706917,6.61527,0.458113,0.214471,-0.0610277,1,0,3.08,-0.315,-0.56,0.407358,0.202886,-1.07287,-0.08092,0.11858,0.4662
-4.07942,0,0,19.0794,19.0794,10.9206,10.9206,1.63177,-0.757917,6.68664,-0.0637503,-0.293764,-0.0230536,0,0,2.7475,0.1575,-0.7175,-0.117608,-0.309758,-1.03505,-0.08036,0.11942,0.46788
-3.97846,0,0,18.9785,18.9785,11.0215,11.0215,1.59138,-0.378497,6.40707,0.321419,0.044435,0.0610057,0,0,3.675,0.105,-0.7875,0.275842,0.028792,-0.951722,-0.08036,0.11942,0.46788
-3.87839,0,0,18.8784,18.8784,11.1216,11.1216,1.55136,-0.00646293,6.12738,0.314926,0.0437373,0.0610466,0,0,3.64,-0.0175,-0.84,0.275842,0.028792,-0.951722,-0.08036,0.11942,0.46788
-4.40446,0,0,19.4045,19.4045,10.5955,10.5955,1.76178,-0.25868,6.36856,-0.231609,-0.212111,0.0175295,0,0,3.78,-0.1225,-0.77,-0.277428,-0.230458,-0.994788,-0.08036,0.11942,0.46788
-4.92101,0,0,19.921,19.921,10.079,10.079,1.9684,-0.505472,6.60674,-0.227302,-0.208508,0.0173834,0,0,3.675,0.2275,-1.0325,-0.277428,-0.230458,-0.994788,-0.08036,0.11942,0.46788
-4.92086,0,0,19.9209,19.9209,10.0791,10.0791,1.96834,-0.505228,6.60634,0.18781,0.09119,-0.240071,1,0,3.4125,0.14,-1.0675,0.139446,0.06893,-1.25026,-0.08036,0.11942,0.46788
-4.9214,0,0,19.9214,19.9214,10.0786,10.0786,1.96856,-0.504749,6.60604,0.187802,0.0911938,-0.240071,1,0,3.57,0.28,-1.015,0.139446,0.06893,-1.25026,-0.08036,0.11942,0.46788
-4.92179,0,0,19.9218,19.9218,10.0782,10.0782,1.96872,-0.5046,6.60581,-0.380511,0.0357509,-0.151425,1,0,3.535,0.0875,-0.9625,-0.43127,0.013542,-1.16229,-0.08036,0.11942,0.46788
-4.92234,0,0,19.9223,19.9223,10.0777,10.0777,1.96894,-0.504776,6.60546,-0.380508,0.0357548,-0.151425,1,0,3.57,-0.105,-1.0325,-0.43127,0.013542,-1.16229,-0.07742,0.11298,0.46718
-5.82525,0,0,20.8252,20.8252,9.17475,9.17475,2.3301,-0.425905,6.56426,0.0457453,-0.335196,0.093386,0,0,3.325,-0.2625,-1.3825,-0.00183,-0.363316,-0.919148,-0.07742,0.11298,0.46718
-6.71358,0,0,21.7136,21.7136,8.28642,8.28642,2.68543,-0.34827,6.52393,0.0443903,-0.328999,0.0931238,0,0,3.535,0.2275,-1.505,-0.00183,-0.363316,-0.919148,-0.07742,0.11298,0.46718
-6.71328,0,0,21.7133,21.7133,8.28672,8.28672,2.68531,-0.347561,6.52265,0.680598,0.313385,-0.120438,1,0,3.3775,0.385,-1.5925,0.637084,0.278404,-1.13106,-0.07742,0.11298,0.46718
-6.71594,0,0,21.7159,21.7159,8.28406,8.28406,2.68638,-0.347124,6.52205,0.680591,0.313404,-0.120438,1,0,4.0425,0.245,-1.19,0.637084,0.278404,-1.13106,-0.07742,0.11298,0.46718
-6.71852,0,0,21.7185,21.7185,8.28148,8.28148,2.68741,-0.34688,6.52114,-0.142843,0.180792,0.125458,1,0,4.025,0.1225,-1.365,-0.189832,0.145912,-0.887062,-0.07742,0.11298,0.46718
-6.71883,0,0,21.7188,21.7188,8.28117,8.28117,2.68753,-0.346923,6.52058,-0.142843,0.180794,0.125458,1,0,3.5175,-0.035,-1.155,-0.189832,0.145912,-0.887062,-0.07742,0.11298,0.46718
-6.71898,0,0,21.719,21.719,8.28102,8.28102,2.68759,-0.346959,6.52053,-0.0908462,0.00652039,0.16308,1,0,3.4825,-0.0175,-0.8575,-0.137616,-0.028182,-0.84973,-0.07742,0.11298,0.46718
-6.71866,0,0,21.7187,21.7187,8.28134,8.28134,2.68746,-0.347186,6.52071,-0.0908422,0.00651814,0.16308,1,0,3.3775,-0.1225,-0.7175,-0.137616,-0.028182,-0.84973,-0.08078,0.11662,0.46494
-6.32408,0,0,21.3241,21.3241,8.67592,8.67592,2.52963,-0.292512,6.5288,0.0560517,0.157036,-0.0306791,0,0,3.5875,-0.105,-0.525,0.010858,0.124928,-1.04212,-0.08078,0.11662,0.46494
-5.93727,0,0,20.9373,20.9373,9.06273,9.06273,2.37491,-0.238374,6.53695,0.0551068,0.154338,-0.0305592,0,0,3.7625,0.14,-0.4025,0.010858,0.124928,-1.04212,-0.08078,0.11662,0.46494
-5.93905,0,0,20.939,20.939,9.06095,9.06095,2.37562,-0.237973,6.53788,0.180959,-0.0198024,0.210296,1,0,3.85,0.2625,-0.2975,0.13725,-0.049044,-0.803126,-0.08078,0.11662,0.46494
-5.93997,0,0,20.94,20.94,9.06003,9.06003,2.37599,-0.238121,6.53905,0.180962,-0.019796,0.210296,1,0,3.6575,-0.0525,-0.14,0.13725,-0.049044,-0.803126,-0.08078,0.11662,0.46494
-6.1191,0,0,21.1191,21.1191,8.8809,8.8809,2.44764,-0.126157,6.48262,0.089594,-0.0644659,0.0248434,0,0,3.9025,-0.175,-0.07,0.047458,-0.094916,-0.987102,-0.08078,0.11662,0.46494
-6.29304,0,0,21.293,21.293,8.70696,8.70696,2.51721,-0.016142,6.42571,0.0876738,-0.0632527,0.0247932,0,0,3.4825,0.0525,-0.5775,0.047458,-0.094916,-0.987102,-0.08078,0.11662,0.46494
-6.40523,0,0,21.4052,21.4052,8.59477,8.59477,2.56209,-0.0459195,6.48805,-0.0298906,-0.0518452,-0.0957314,0,0,3.675,0.0175,-0.525,-0.071126,-0.084302,-1.10666,-0.08078,0.11662,0.46494
-6.51482,0,0,21.5148,21.5148,8.48518,8.48518,2.60593,-0.074851,6.54778,-0.0293856,-0.0510809,-0.0957664,0,0,3.535,0.105,-0.8575,-0.071126,-0.084302,-1.10666,-0.0756,0.11774,0.46704
-6.51403,0,0,21.514,21.514,8.48597,8.48597,2.60561,-0.0750692,6.54778,-0.0636408,-0.011151,0.134516,1,0,3.2725,-0.1225,-0.8225,-0.10553,-0.044408,-0.878156,-0.0756,0.11774,0.46704
-6.51207,0,0,21.5121,21.5121,8.48793,8.48793,2.60483,-0.0749442,6.54747,-0.0636429,-0.0111646,0.134517,1,0,3.01,0.07,-1.015,-0.10553,-0.044408,-0.878156,-0.0756,0.11774,0.46704
-6.50973,0,0,21.5097,21.5097,8.49027,8.49027,2.60389,-0.0746916,6.54698,0.08578,0.482944,-0.222525,1,0,2.9225,0.14,-1.12,0.04453,0.449204,-1.23244,-0.0756,0.11774,0.46704
-6.50855,0,0,21.5086,21.5086,8.49145,8.49145,2.60342,-0.0749288,6.54674,0.0857842,0.482936,-0.222524,1,0,3.185,-0.14,-0.9625,0.04453,0.449204,-1.23244,-0.0756,0.11774,0.46704
-7.32344,0,0,22.3234,22.3234,7.67656,7.67656,2.92938,-0.28139,6.73564,-0.178002,-0.292139,0.141732,0,0,3.4475,0.0525,-1.19,-0.223992,-0.330742,-0.870714,-0.0756,0.11774,0.46704
-8.12454,0,0,23.1245,23.1245,6.87546,6.87546,3.24981,-0.483517,6.92139,-0.174475,-0.286556,0.141407,0,0,3.3775,0.4025,-1.4,-0.223992,-0.330742,-0.870714,-0.0756,0.11774,0.46704
-8.12447,0,0,23.1245,23.1245,6.87553,6.87553,3.24979,-0.482774,6.92027,0.303559,-0.0552481,-0.111744,1,0,3.43,0.4025,-1.505,0.256078,-0.099674,-1.12191,-0.0756,0.11774,0.46704
-8.12526,0,0,23.1253,23.1253,6.87474,6.87474,3.2501,-0.482342,6.91989,0.303551,-0.0552426,-0.111744,1,0,3.6225,0.245,-1.0675,0.256078,-0.099674,-1.12191,-0.07462,0.11942,0.46284
-8.12619,0,0,23.1262,23.1262,6.87381,6.87381,3.25048,-0.481942,6.91953,0.32201,0.323235,-0.21834,1,0,3.6575,0.2275,-1.05,0.274622,0.278404,-1.22769,-0.07462,0.11942,0.46284
-8.12486,0,0,23.1249,23.1249,6.87514,6.87514,3.24995,-0.481848,6.91931,0.322008,0.323225,-0.21834,1,0,3.15,0.0525,-0.9625,0.274622,0.278404,-1.22769,-0.07462,0.11942,0.46284
-8.12517,0,0,23.1252,23.1252,6.87483,6.87483,3.25007,-0.481858,6.91932,-0.0118343,-0.302061,0.175587,1,0,3.5175,0,-0.8225,-0.060634,-0.346236,-0.836798,-0.07462,0.11942,0.46284
-8.12368,0,0,23.1237,23.1237,6.87632,6.87632,3.24947,-0.482255,6.91931,-0.0118274,-0.302072,0.175588,1,0,3.115,-0.2275,-0.8225,-0.060634,-0.346236,-0.836798,-0.07462,0.11942,0.46284
-8.12219,0,0,23.1222,23.1222,6.87781,6.87781,3.24888,-0.482642,6.91912,0.0221954,0.115225,-0.121947,1,0,3.115,-0.2275,-0.9275,-0.026474,0.070638,-1.13204,-0.07462,0.11942,0.46284
-8.12055,0,0,23.1206,23.1206,6.87945,6.87945,3.24822,-0.482846,6.91887,0.0221989,0.115214,-0.121947,1,0,3.08,-0.1225,-0.9625,-0.026474,0.070638,-1.13204,-0.07462,0.11942,0.46284
-8.11922,0,0,23.1192,23.1192,6.88078,6.88078,3.24769,-0.483252,6.91901,0.200547,0.0674527,-0.109405,1,0,3.15,-0.2275,-0.735,0.152622,0.022936,-1.11959,-0.07462,0.11942,0.46284
-8.11765,0,0,23.1177,23.1177,6.88235,6.88235,3.24706,-0.483606,6.91876,0.200553,0.0674418,-0.109405,1,0,3.0975,-0.21,-0.9625,0.152622,0.022936,-1.11959,-0.07462,0.11942,0.46284
-8.11671,0,0,23.1167,23.1167,6.88329,6.88329,3.24668,-0.48421,6.91871,0.16023,-0.221883,0.175713,1,0,3.2375,-0.35,-0.84,0.112118,-0.266082,-0.836676,-0.07448,0.11718,0.46466
-8.11537,0,0,23.1154,23.1154,6.88463,6.88463,3.24615,-0.484473,6.91898,-0.0313479,0.0268798,-0.135838,1,0,3.15,-0.14,-0.665,-0.080276,-0.017568,-1.14582,-0.07448,0.11718,0.46466
-7.36463,0,0,22.3646,22.3646,7.63537,7.63537,2.94585,-0.546126,7.03575,-0.0379255,0.301805,-0.0172882,0,0,3.045,-0.2275,-0.5425,-0.087962,0.2623,-1.02846,-0.07448,0.11718,0.46466
-6.97801,0,0,21.978,21.978,8.02199,8.02199,2.7912,-0.50119,7.05357,0.0492459,0.157931,-0.0676778,0,0,3.43,-0.0175,-0.7525,0.000366,0.121268,-1.0786,-0.07448,0.11718,0.46466
-6.97831,0,0,21.9783,21.9783,8.02169,8.02169,2.79133,-0.501173,7.05364,0.318093,0.0400807,0.224079,1,0,3.5175,0.0175,-0.7875,0.270352,0.003538,-0.789096,-0.07448,0.11718,0.46466
-7.83269,0,0,22.8327,22.8327,7.16731,7.16731,3.13308,-0.530513,7.09452,-0.0448797,-0.344036,0.035163,0,0,3.605,0.1225,-0.6825,-0.094672,-0.38613,-0.976244,-0.07448,0.11718,0.46466
-7.83315,0,0,22.8332,22.8332,7.16685,7.16685,3.13326,-0.530427,7.09442,-0.160293,-0.431475,-0.0783186,1,0,3.5525,0.0525,-0.8925,-0.210572,-0.473482,-1.08885,-0.07448,0.11718,0.46466
-7.8337,0,0,22.8337,22.8337,7.1663,7.1663,3.13348,-0.530337,7.09425,0.22761,0.167194,-0.25893,1,0,3.57,0.0525,-0.9275,0.178974,0.124562,-1.26807,-0.07448,0.11718,0.46466
-7.83431,0,0,22.8343,22.8343,7.16569,7.16569,3.13372,-0.530323,7.09438,-0.354307,0.485949,-0.0603685,1,0,3.5875,0.0175,-0.7525,-0.405406,0.442982,-1.07104,-0.07896,0.11676,0.46634
-7.17124,0,0,22.1712,22.1712,7.82876,7.82876,2.8685,-0.238662,6.90907,0.262609,0.26553,0.049578,0,0,3.2025,0.0175,-0.455,0.219234,0.227408,-0.962214,-0.07896,0.11676,0.46634
-6.51988,0,0,21.5199,21.5199,8.48012,8.48012,2.60795,0.048225,6.72106,0.257602,0.260988,0.0498035,0,0,3.43,0.21,-0.9275,0.219234,0.227408,-0.962214,-0.07896,0.11676,0.46634
-6.52112,0,0,21.5211,21.5211,8.47888,8.47888,2.60845,0.0485102,6.72052,0.222123,-0.129564,0.148162,1,0,3.7275,0.1575,-1.155,0.18361,-0.162748,-0.864614,-0.07896,0.11676,0.46634
-6.5226,0,0,21.5226,21.5226,8.4774,8.4774,2.60904,0.0485621,6.71984,0.222123,-0.129554,0.148161,1,0,3.78,0.0175,-1.225,0.18361,-0.162748,-0.864614,-0.07896,0.11676,0.46634
-6.79618,0,0,21.7962,21.7962,8.20382,8.20382,2.71847,-0.221491,6.9774,-0.211727,-0.0939396,0.129992,0,0,3.7275,-0.07,-1.0325,-0.25681,-0.129076,-0.882548,-0.07896,0.11676,0.46634
-7.06461,0,0,22.0646,22.0646,7.93539,7.93539,2.82585,-0.485815,7.23222,-0.207114,-0.0920692,0.129873,0,0,3.64,0.1575,-1.5225,-0.25681,-0.129076,-0.882548,-0.07896,0.11676,0.46634
-6.0541,0,0,21.0541,21.0541,8.9459,8.9459,2.42164,-0.0521444,6.92821,0.425668,0.437877,0.0779784,0,0,3.395,0.1575,-1.6975,0.386252,0.407358,-0.934398,-0.07896,0.11676,0.46634
-5.05953,0,0,20.0595,20.0595,9.94047,9.94047,2.02381,0.375522,6.61618,0.418204,0.430938,0.0782267,0,0,3.71,0.21,-1.505,0.386252,0.407358,-0.934398,-0.07714,0.11928,0.4676
-5.59657,0,0,20.5966,20.5966,9.40343,9.40343,2.23863,0.15162,6.82136,-0.193456,-0.200496,0.0878181,0,0,3.71,0.35,-1.3125,-0.231922,-0.227164,-0.92476,-0.07714,0.11928,0.4676
-6.12341,0,0,21.1234,21.1234,8.87659,8.87659,2.44936,-0.0681061,7.0243,-0.189621,-0.196821,0.0876705,0,0,3.465,0.315,-1.295,-0.231922,-0.227164,-0.92476,-0.07714,0.11928,0.4676
-6.12481,0,0,21.1248,21.1248,8.87519,8.87519,2.44992,-0.0678979,7.02342,-0.0738492,0.131343,-0.230152,1,0,3.7625,0.105,-1.3475,-0.115656,0.10065,-1.24013,-0.07714,0.11928,0.4676
-6.12605,0,0,21.126,21.126,8.87395,8.87395,2.45042,-0.0680006,7.02352,-0.0738474,0.131352,-0.230152,1,0,3.7275,-0.0525,-0.77,-0.115656,0.10065,-1.24013,-0.07714,0.11928,0.4676
-6.12893,0,0,21.1289,21.1289,8.87107,8.87107,2.45157,-0.068343,7.02433,0.0488591,0.216006,-0.109049,1,0,4.095,-0.175,-0.35,0.007564,0.185196,-1.11996,-0.07714,0.11928,0.4676
-6.12962,0,0,21.1296,21.1296,8.87038,8.87038,2.45185,-0.068213,7.02527,0.0488568,0.21601,-0.109049,1,0,3.605,0.105,-0.28,0.007564,0.185196,-1.11996,-0.07714,0.11928,0.4676
-6.13234,0,0,21.1323,21.1323,8.86766,8.86766,2.45294,-0.0682258,7.02607,-0.0127362,0.0250233,0.210862,1,0,4.06,0.0175,-0.3675,-0.05429,-0.005612,-0.802516,-0.07714,0.11928,0.4676
-6.13202,0,0,21.132,21.132,8.86798,8.86798,2.45281,-0.0687174,7.02687,-0.0127276,0.025021,0.210862,1,0,3.3775,-0.2625,-0.35,-0.05429,-0.005612,-0.802516,-0.08232,0.11858,0.46144
-6.90601,0,0,21.906,21.906,8.09399,8.09399,2.76241,-0.141519,7.09874,-0.0720784,-0.285035,0.104264,0,0,3.465,-0.315,-0.35,-0.115168,-0.320738,-0.908046,-0.08232,0.11858,0.46144
-7.66495,0,0,22.665,22.665,7.33505,7.33505,3.06598,-0.213077,7.16941,-0.0708295,-0.279743,0.10399,0,0,3.01,-0.245,-0.5075,-0.115168,-0.320738,-0.908046,-0.08232,0.11858,0.46144
-7.6637,0,0,22.6637,22.6637,7.3363,7.3363,3.06548,-0.213391,7.16953,0.420343,0.319158,-0.065678,1,0,3.1675,-0.175,-0.7525,0.378078,0.27755,-1.07641,-0.08232,0.11858,0.46144
-7.66244,0,0,22.6624,22.6624,7.33756,7.33756,3.06498,-0.213705,7.16964,0.420348,0.319149,-0.0656776,1,0,3.1675,-0.175,-0.7525,0.378078,0.27755,-1.07641,-0.08232,0.11858,0.46144
-8.06731,0,0,23.0673,23.0673,6.93269,6.93269,3.22692,-0.18387,7.16789,0.0168594,-0.151881,0.0448228,0,0,3.01,0.14,-0.6125,-0.026596,-0.19581,-0.966606,-0.08232,0.11858,0.46144
-8.46505,0,0,23.4651,23.4651,6.53495,6.53495,3.38602,-0.154827,7.16627,0.0163525,-0.149108,0.0446641,0,0,3.01,0.14,-0.6125,-0.026596,-0.19581,-0.966606,-0.08232,0.11858,0.46144
-9.18167,0,0,24.1817,24.1817,5.81833,5.81833,3.67267,-0.0060854,7.05146,0.102198,-0.246457,0.139768,0,0,3.08,-0.1225,-1.3825,0.06222,-0.298046,-0.871934,-0.08232,0.11858,0.46144
-9.88613,0,0,24.8861,24.8861,5.11387,5.11387,3.95445,0.140386,6.94483,0.0996417,-0.24155,0.139438,0,0,3.08,-0.1225,-1.3825,0.06222,-0.298046,-0.871934,-0.07952,0.1141,0.46634
-9.72732,0,0,24.7273,24.7273,5.27268,5.27268,3.89093,0.573373,6.62146,0.378062,0.0732825,0.0369275,0,0,3.3075,0.245,-0.7875,0.349408,0.017568,-0.973682,-0.07952,0.1141,0.46634
-9.56999,0,0,24.57,24.57,5.43001,5.43001,3.82799,0.998305,6.29783,0.370646,0.0721799,0.0369,0,0,3.3075,0.245,-0.7875,0.349408,0.017568,-0.973682,-0.07952,0.1141,0.46634
-9.57245,0,0,24.5724,24.5724,5.42755,5.42755,3.82898,0.999327,6.29719,0.0166192,0.372751,-0.226334,1,0,4.0075,0.5775,-1.2425,-0.0061,0.31781,-1.23488,-0.07952,0.1141,0.46634
-9.57491,0,0,24.5749,24.5749,5.42509,5.42509,3.82996,1.00035,6.29654,0.0166014,0.372768,-0.226336,1,0,4.0075,0.5775,-1.2425,-0.0061,0.31781,-1.23488,-0.07952,0.1141,0.46634
-9.57537,0,0,24.5754,24.5754,5.42463,5.42463,3.83015,1.00046,6.29647,-0.257351,-0.259967,-0.134616,1,0,3.5525,0.07,-0.875,-0.28121,-0.314272,-1.14387,-0.07952,0.1141,0.46634
-9.57583,0,0,24.5758,24.5758,5.42417,5.42417,3.83033,1.00058,6.2964,-0.257353,-0.259964,-0.134617,1,0,3.5525,0.07,-0.875,-0.28121,-0.314272,-1.14387,-0.07952,0.1141,0.46634
-9.64731,0,0,24.6473,24.6473,5.35269,5.35269,3.85892,1.36019,6.01518,0.314522,-0.0231598,0.010669,0,0,3.6925,0.07,-1.4525,0.299388,-0.078202,-0.999546,-0.07952,0.1141,0.46634
-8.92464,0,0,23.9246,23.9246,6.07536,6.07536,3.56985,1.22779,6.14943,-0.115292,0.304239,-0.068008,0,0,3.115,0.245,-1.33,-0.134566,0.253882,-1.07799,-0.07728,0.12152,0.46158
-8.21442,0,0,23.2144,23.2144,6.78558,6.78558,3.28577,1.09771,6.28577,-0.113022,0.299294,-0.0676656,0,0,3.1675,0.14,-0.7525,-0.134566,0.253882,-1.07799,-0.07728,0.12152,0.46158
-8.13259,0,0,23.1326,23.1326,6.86741,6.86741,3.25304,1.29404,6.13236,0.156044,0.0360248,0.0713503,0,0,2.9225,0.0875,-0.9625,0.13908,-0.00854,-0.94001,-0.07728,0.12152,0.46158
-8.05188,0,0,23.0519,23.0519,6.94812,6.94812,3.22075,1.48649,5.97913,0.152687,0.0354577,0.0713007,0,0,2.9225,0.0875,-0.9625,0.13908,-0.00854,-0.94001,-0.07728,0.12152,0.46158
-9.20068,0,0,24.2007,24.2007,5.79932,5.79932,3.68027,1.6191,5.8455,0.0897517,-0.400352,0.215835,0,0,2.94,-0.1225,-0.77,0.078202,-0.451888,-0.79605,-0.07728,0.12152,0.46158
-10.3314,0,0,25.3314,25.3314,5,5,4.13258,1.74885,5.71441,0.0874881,-0.392484,0.215231,0,0,2.94,-0.1225,-0.77,0.078202,-0.451888,-0.79605,-0.07728,0.12152,0.46158
-9.62614,0,0,24.6261,24.6261,5.37386,5.37386,3.85046,1.57071,5.87878,-0.152375,0.287865,-0.0229797,0,0,3.6225,-0.2975,-0.6125,-0.165798,0.232654,-1.03285,-0.07728,0.12152,0.46158
-9.09523,0,0,24.0952,24.0952,5.90477,5.90477,3.63809,1.75517,5.73821,0.169381,0.222122,-0.0286096,0,0,3.57,-0.4025,-0.6125,0.160552,0.170678,-1.03859,-0.07728,0.12152,0.46158
-8.57127,0,0,23.5713,23.5713,6.42873,6.42873,3.42851,1.93569,5.60364,0.166232,0.218467,-0.0284856,0,0,3.2025,-0.1575,-0.2975,0.160552,0.170678,-1.03859,-0.08036,0.11746,0.46354
-8.57231,0,0,23.5723,23.5723,6.42769,6.42769,3.42892,1.9354,5.6049,-0.0774636,-0.0401906,-0.117869,1,0,3.6575,-0.1225,-0.0875,-0.08418,-0.087718,-1.12728,-0.08036,0.11746,0.46354
-8.5721,0,0,23.5721,23.5721,6.4279,6.4279,3.42884,1.93554,5.60534,-0.0774661,-0.040192,-0.117869,1,0,3.395,0.105,-0.5775,-0.08418,-0.087718,-1.12728,-0.08036,0.11746,0.46354
-8.5718,0,0,23.5718,23.5718,6.4282,6.4282,3.42872,1.93538,5.60549,-0.0637353,-0.127515,-0.0879927,1,0,3.3775,-0.0875,-0.735,-0.070394,-0.174948,-1.09763,-0.08036,0.11746,0.46354
-8.5715,0,0,23.5715,23.5715,6.4285,6.4285,3.4286,1.93547,5.60572,-0.063737,-0.127517,-0.0879926,1,0,3.3775,0.07,-0.7,-0.070394,-0.174948,-1.09763,-0.08036,0.11746,0.46354
-8.56983,0,0,23.5698,23.5698,6.43017,6.43017,3.42793,1.93546,5.60636,0.144004,0.0424719,-0.138524,1,0,3.0625,0.0175,-0.455,0.138226,-0.005124,-1.14778,-0.08036,0.11746,0.46354
-8.56933,0,0,23.5693,23.5693,6.43067,6.43067,3.42773,1.93585,5.60615,0.143997,0.0424685,-0.138524,1,0,3.3425,0.2275,-0.9625,0.138226,-0.005124,-1.14778,-0.08036,0.11746,0.46354
-8.56724,0,0,23.5672,23.5672,6.43276,6.43276,3.4269,1.93615,5.60549,-0.476436,0.0401335,-0.0159434,1,0,2.9925,0.1575,-1.225,-0.484828,-0.007442,-1.02614,-0.08036,0.11746,0.46354
-8.56752,0,0,23.5675,23.5675,6.43248,6.43248,3.42701,1.93619,5.60514,-0.476436,0.0401354,-0.0159435,1,0,3.5175,0.0175,-1.0325,-0.484828,-0.007442,-1.02614,-0.07644,0.1162,0.4683
-8.559,0,0,23.559,23.559,6.441,6.441,3.4236,2.06389,5.50303,0.121354,0.000380278,-0.0813033,0,0,3.3775,0.1575,-1.12,0.11773,-0.047092,-1.09092,-0.07644,0.1162,0.4683
-8.55167,0,0,23.5517,23.5517,6.44833,6.44833,3.42067,2.18908,5.40059,0.11917,0.000324401,-0.0813812,0,0,3.6575,0.175,-1.47,0.11773,-0.047092,-1.09092,-0.07644,0.1162,0.4683
-8.55208,0,0,23.5521,23.5521,6.44792,6.44792,3.42083,2.1899,5.39923,0.211121,-0.070262,0.227588,1,0,3.57,0.4375,-1.645,0.210084,-0.117608,-0.784338,-0.07644,0.1162,0.4683
-8.55341,0,0,23.5534,23.5534,6.44659,6.44659,3.42136,2.19009,5.39844,0.211118,-0.0702528,0.227587,1,0,3.7625,0.0875,-1.295,0.210084,-0.117608,-0.784338,-0.07644,0.1162,0.4683
-8.55331,0,0,23.5533,23.5533,6.44669,6.44669,3.42133,2.19056,5.39755,-0.0798488,0.110494,-0.206176,1,0,3.4475,0.245,-1.365,-0.082106,0.062952,-1.21475,-0.07644,0.1162,0.4683
-8.55519,0,0,23.5552,23.5552,6.44481,6.44481,3.42208,2.19056,5.39684,-0.0798489,0.110507,-0.206176,1,0,3.885,-0.0175,-1.2425,-0.082106,0.062952,-1.21475,-0.07644,0.1162,0.4683
-8.29724,0,0,23.2972,23.2972,6.70276,6.70276,3.31889,2.52216,5.12084,0.2555,0.104789,0.130079,0,0,3.6925,0,-1.2075,0.26047,0.059048,-0.880962,-0.07644,0.1162,0.4683
-8.04355,0,0,23.0435,23.0435,6.95645,6.95645,3.21742,2.8474,4.84533,0.24983,0.103007,0.129914,0,0,3.8325,-0.035,-0.63,0.26047,0.059048,-0.880962,-0.07644,0.1162,0.4683
-7.9934,0,0,22.9934,22.9934,7.0066,7.0066,3.19736,2.77671,4.90278,-0.0603055,0.0185164,-0.0295928,0,0,3.815,0.0175,-0.595,-0.052216,-0.02501,-1.03932,-0.07896,0.11424,0.46102
-7.99496,0,0,22.995,22.995,7.00504,7.00504,3.19798,2.77627,4.90343,0.177936,0.271818,-0.207499,1,0,3.78,-0.2275,-0.4375,0.187026,0.228018,-1.21585,-0.07896,0.11424,0.46102
-7.99483,0,0,22.9948,22.9948,7.00517,7.00517,3.19793,2.7758,4.90368,0.177944,0.271817,-0.207499,1,0,3.4125,-0.2625,-0.665,0.187026,0.228018,-1.21585,-0.07896,0.11424,0.46102
-7.3733,0,0,22.3733,22.3733,7.6267,7.6267,2.94932,2.74081,4.93792,-0.0279718,0.25308,-0.0191261,0,0,3.255,-0.175,-0.56,-0.020374,0.213622,-1.02919,-0.07896,0.11424,0.46102
-6.76217,0,0,21.7622,21.7622,8.23783,8.23783,2.70487,2.706,4.97233,-0.027365,0.248825,-0.0188871,0,0,3.22,-0.455,-0.7,-0.020374,0.213622,-1.02919,-0.07896,0.11424,0.46102
-7.44021,0,0,22.4402,22.4402,7.55979,7.55979,2.97608,2.48735,5.14997,-0.194119,-0.272688,0.0501483,0,0,3.1325,-0.385,-0.6825,-0.191662,-0.312076,-0.960628,-0.07896,0.11424,0.46102
-8.10901,0,0,23.109,23.109,6.89099,6.89099,3.2436,2.27357,5.32431,-0.190391,-0.268021,0.05005,0,0,3.64,0,-1.1025,-0.191662,-0.312076,-0.960628,-0.07896,0.11424,0.46102
-8.16389,0,0,23.1639,23.1639,6.83611,6.83611,3.26556,2.32884,5.28133,0.0470004,-0.0215556,-0.000911072,0,0,3.255,0.035,-1.085,0.047702,-0.066246,-1.01114,-0.07896,0.11424,0.46102
-8.21907,0,0,23.2191,23.2191,6.78093,6.78093,3.28763,2.38261,5.23862,0.0460627,-0.0211735,-0.000971587,0,0,3.5525,-0.0525,-0.875,0.047702,-0.066246,-1.01114,-0.07672,0.11424,0.46382
-8.21875,0,0,23.2187,23.2187,6.78125,6.78125,3.2875,2.38242,5.23856,0.0819042,0.275592,-0.18023,1,0,3.3775,-0.105,-0.8575,0.083692,0.230214,-1.18901,-0.07672,0.11424,0.46382
-8.21771,0,0,23.2177,23.2177,6.78229,6.78229,3.28708,2.38228,5.23838,0.0819068,0.275585,-0.18023,1,0,3.22,-0.0875,-0.9275,0.083692,0.230214,-1.18901,-0.07672,0.11424,0.46382
-8.25092,0,0,23.2509,23.2509,6.74908,6.74908,3.30037,2.13021,5.45502,-0.214739,-0.0144691,0.027467,0,0,3.7625,0.1225,-0.98,-0.218624,-0.05978,-0.983076,-0.07672,0.11424,0.46382
-8.28375,0,0,23.2838,23.2838,6.71625,6.71625,3.3135,1.88346,5.67093,-0.210435,-0.0142317,0.0276043,0,0,3.8325,0.315,-0.9275,-0.218624,-0.05978,-0.983076,-0.07672,0.11424,0.46382
-8.28704,0,0,23.287,23.287,6.71296,6.71296,3.31482,1.88383,5.6712,0.171874,-0.238067,0.185592,1,0,4.1825,0.2275,-0.6825,0.16531,-0.283406,-0.826306,-0.07672,0.11424,0.46382
-8.28822,0,0,23.2882,23.2882,6.71178,6.71178,3.31529,1.88402,5.67134,0.171871,-0.238059,0.185591,1,0,3.71,0.1225,-0.7525,0.16531,-0.283406,-0.826306,-0.07672,0.11424,0.46382
-7.8426,0,0,22.8426,22.8426,7.1574,7.1574,3.13704,1.71645,5.83198,-0.138396,0.172729,0.0351229,0,0,3.9375,0.455,-1.05,-0.149206,0.130052,-0.975878,-0.07672,0.11424,0.46382
-7.40135,0,0,22.4014,22.4014,7.59865,7.59865,2.96054,1.55213,5.98806,-0.135529,0.169659,0.0353683,0,0,3.185,0.2625,-0.9275,-0.149206,0.130052,-0.975878,-0.07924,0.11788,0.46326
-7.40069,0,0,22.4007,22.4007,7.59931,7.59931,2.96028,1.55259,5.98759,-0.00943525,0.28482,-0.257249,1,0,3.3075,0.2625,-1.12,-0.02257,0.245098,-1.26624,-0.07924,0.11788,0.46326
-7.40003,0,0,22.4,22.4,7.59997,7.59997,2.96001,1.55306,5.98711,-0.00944335,0.284815,-0.257249,1,0,3.3075,0.2625,-1.12,-0.02257,0.245098,-1.26624,-0.07924,0.11788,0.46326
-8.69597,0,0,23.696,23.696,6.30403,6.30403,3.47839,1.80605,5.75497,0.221704,-0.556409,0.123992,0,0,3.2025,0.3675,-1.19,0.213988,-0.604266,-0.887306,-0.07924,0.11788,0.46326
-9.97278,0,0,24.9728,24.9728,5.02722,5.02722,3.98911,2.05406,5.52789,0.217378,-0.547529,0.123266,0,0,3.2025,0.3675,-1.19,0.213988,-0.604266,-0.887306,-0.07924,0.11788,0.46326
-9.13324,0,0,24.1332,24.1332,5.86676,5.86676,3.65329,2.17879,5.43858,0.108538,0.338269,0.0451353,0,0,3.045,0.035,-1.155,0.106872,0.286456,-0.965142,-0.07924,0.11788,0.46326
-8.30711,0,0,23.3071,23.3071,6.69289,6.69289,3.32284,2.30124,5.34843,0.106402,0.332511,0.0454025,0,0,3.045,0.035,-1.155,0.106872,0.286456,-0.965142,-0.07924,0.11788,0.46326
-8.30728,0,0,23.3073,23.3073,6.69272,6.69272,3.32291,2.30167,5.34865,-0.0385377,0.165809,-0.150332,1,0,3.4825,0.2625,-0.7175,-0.038674,0.119926,-1.15937,-0.07924,0.11788,0.46326
-8.30745,0,0,23.3074,23.3074,6.69255,6.69255,3.32298,2.3021,5.34887,-0.0385452,0.165811,-0.150332,1,0,3.4825,0.2625,-0.7175,-0.038674,0.119926,-1.15937,-0.07812,0.11424,0.45696
-8.30835,0,0,23.3084,23.3084,6.69165,6.69165,3.32334,2.30212,5.34939,0.270271,0.0413697,0.177817,1,0,3.64,0.035,-0.525,0.27145,-0.004392,-0.833748,-0.07812,0.11424,0.45696
-8.10787,0,0,23.1079,23.1079,6.89213,6.89213,3.24315,2.28413,5.3727,-0.011505,0.0814973,-0.100692,0,0,3.3775,-0.035,-0.2625,-0.011834,0.037088,-1.1102,-0.07812,0.11424,0.45696
-7.90948,0,0,22.9095,22.9095,7.09052,7.09052,3.16379,2.26686,5.39534,-0.0112038,0.0801162,-0.100602,0,0,3.08,0.14,-0.6825,-0.011834,0.037088,-1.1102,-0.07812,0.11424,0.45696
-8.44494,0,0,23.4449,23.4449,6.55506,6.55506,3.37797,2.56124,5.1437,0.243521,-0.202677,0.0847436,0,0,3.7975,0.035,-0.7875,0.249124,-0.249124,-0.925858,-0.07812,0.11424,0.45696
-8.96818,0,0,23.9682,23.9682,6.03182,6.03182,3.58727,2.84927,4.89456,0.238499,-0.199049,0.0842851,0,0,3.1325,-0.2625,-0.8225,0.249124,-0.249124,-0.925858,-0.07812,0.11424,0.45696
-8.96945,0,0,23.9694,23.9694,6.03055,6.03055,3.58778,2.84913,4.89477,0.066721,0.290322,-0.0847695,1,0,3.7275,-0.07,-0.7,0.076616,0.23973,-1.09361,-0.07812,0.11424,0.45696
-8.96851,0,0,23.9685,23.9685,6.03149,6.03149,3.58741,2.84924,4.89485,0.0667191,0.290315,-0.0847692,1,0,3.2375,0.07,-0.7875,0.076616,0.23973,-1.09361,-0.07812,0.11424,0.45696
-9.70112,0,0,24.7011,24.7011,5.29888,5.29888,3.88045,3.07313,4.68669,0.194993,-0.29484,0.0633415,0,0,3.4825,-0.21,-0.84,0.209352,-0.349896,-0.94611,-0.0749,0.11816,0.46298
-9.69991,0,0,24.6999,24.6999,5.30009,5.30009,3.87996,3.07336,4.68587,-0.397375,0.0891184,-0.131163,1,0,3.2025,0.105,-1.3125,-0.38552,0.033672,-1.13911,-0.0749,0.11816,0.46298
-9.69962,0,0,24.6996,24.6996,5.30038,5.30038,3.87985,3.07391,4.68553,-0.397385,0.0891164,-0.131163,1,0,3.395,0.315,-1.05,-0.38552,0.033672,-1.13911,-0.0749,0.11816,0.46298
-9.70011,0,0,24.7001,24.7001,5.29989,5.29989,3.88004,3.07435,4.68515,0.00764095,0.354501,-0.186368,1,0,3.57,0.245,-1.0675,0.021228,0.298778,-1.19389,-0.0749,0.11816,0.46298
-9.7007,0,0,24.7007,24.7007,5.2993,5.2993,3.88028,3.07496,4.68433,0.00763023,0.354505,-0.186368,1,0,3.605,0.3325,-1.33,0.021228,0.298778,-1.19389,-0.0749,0.11816,0.46298
-9.7007,0,0,24.7007,24.7007,5.2993,5.2993,3.88028,3.07526,4.68328,-0.0214101,0.154217,-0.243786,1,0,3.4825,0.14,-1.4525,-0.00793,0.098698,-1.25087,-0.0749,0.11816,0.46298
-9.70039,0,0,24.7004,24.7004,5.29961,5.29961,3.88016,3.07547,4.68276,-0.0214137,0.154215,-0.243786,1,0,3.395,0.105,-1.1375,-0.00793,0.098698,-1.25087,-0.0749,0.11816,0.46298
-9.3686,0,0,24.3686,24.3686,5.6314,5.6314,3.74744,2.93533,4.79123,-0.126608,0.136528,-0.076171,0,0,3.7975,0.35,-1.12,-0.116022,0.083326,-1.08482,-0.0749,0.11816,0.46298
-9.0413,0,0,24.0413,24.0413,5.9587,5.9587,3.61652,2.7985,4.90004,-0.124222,0.134258,-0.0759052,0,0,3.4825,0.385,-0.9625,-0.116022,0.083326,-1.08482,-0.07252,0.1183,0.46368
-9.04368,0,0,24.0437,24.0437,5.95632,5.95632,3.61747,2.79868,4.89976,0.0284819,-0.0144758,0.15327,1,0,3.99,0.105,-0.9975,0.037332,-0.06527,-0.857416,-0.07252,0.1183,0.46368
-9.04339,0,0,24.0434,24.0434,5.95661,5.95661,3.61735,2.79878,4.89996,0.0284802,-0.0144779,0.15327,1,0,3.3775,0.07,-0.7175,0.037332,-0.06527,-0.857416,-0.07252,0.1183,0.46368
-9.04387,0,0,24.0439,24.0439,5.95613,5.95613,3.61755,2.79887,4.90079,-0.198578,0.208773,-0.131725,1,0,3.535,0.0875,-0.35,-0.190686,0.157746,-1.14021,-0.07252,0.1183,0.46368
-9.04476,0,0,24.0448,24.0448,5.95524,5.95524,3.61791,2.79895,4.90177,-0.198579,0.208779,-0.131726,1,0,3.6225,0.0875,-0.2625,-0.190686,0.157746,-1.14021,-0.07252,0.1183,0.46368
-9.36197,0,0,24.362,24.362,5.63803,5.63803,3.74479,2.52309,5.12264,-0.224749,-0.113245,0.10749,0,0,3.78,-0.0175,-0.5075,-0.221796,-0.166164,-0.902922,-0.07252,0.1183,0.46368
-9.67196,0,0,24.672,24.672,5.32804,5.32804,3.86878,2.25248,5.34133,-0.22003,-0.111075,0.107543,0,0,3.4125,-0.1225,-0.6475,-0.221796,-0.166164,-0.902922,-0.07252,0.1183,0.46368
-9.67155,0,0,24.6715,24.6715,5.32845,5.32845,3.86862,2.25203,5.34119,0.205785,-0.114619,0.216722,1,0,3.36,-0.2625,-0.8925,0.205814,-0.169702,-0.794586,-0.07252,0.1183,0.46368
-9.66896,0,0,24.669,24.669,5.33104,5.33104,3.86758,2.25172,5.34112,0.205791,-0.114637,0.216723,1,0,2.87,-0.175,-0.8575,0.205814,-0.169702,-0.794586,-0.07658,0.11606,0.46452
-10.1017,0,0,25.1017,25.1017,5,5,4.04069,2.35148,5.25193,0.0930131,-0.192356,-0.053058,0,0,2.8525,-0.0525,-0.91,0.094306,-0.250344,-1.06201,-0.07658,0.11606,0.46452
-10.5285,0,0,25.5285,25.5285,5,5,4.2114,2.44937,5.16326,0.0913061,-0.189392,-0.0533435,0,0,3.185,0.07,-1.0675,0.094306,-0.250344,-1.06201,-0.07658,0.11606,0.46452
-10.6814,0,0,25.6814,25.6814,5,5,4.27257,2.48335,5.13122,0.0331293,-0.0715772,-0.0690623,0,0,2.9925,0.315,-0.8575,0.036478,-0.133712,-1.0775,-0.07658,0.11606,0.46452
-10.8352,0,0,25.8352,25.8352,5,5,4.33406,2.51593,5.09972,0.0325612,-0.0705098,-0.0691675,0,0,3.7625,-0.07,-0.595,0.036478,-0.133712,-1.0775,-0.07658,0.11606,0.46452
-10.8353,0,0,25.8353,25.8353,5,5,4.33411,2.51605,5.10007,0.41694,-0.0686772,-0.107528,1,0,3.465,0.0875,-0.63,0.422486,-0.131882,-1.11557,-0.07658,0.11606,0.46452
-10.8367,0,0,25.8367,25.8367,5,5,4.33467,2.51609,5.10017,0.416939,-0.0686674,-0.107528,1,0,3.7625,0.035,-0.77,0.422486,-0.131882,-1.11557,-0.07658,0.11606,0.46452
-10.6137,0,0,25.6137,25.6137,5,5,4.24547,2.4009,5.19646,-0.0973665,0.0876978,-0.00195915,0,0,3.5175,0.0175,-0.7875,-0.096014,0.025864,-1.01101,-0.07658,0.11606,0.46452
-10.3974,0,0,25.3974,25.3974,5,5,4.15895,2.28731,5.30048,-0.0953855,0.0861991,-0.00176773,0,0,4.2,0.1575,-0.56,-0.096014,0.025864,-1.01101,-0.07854,0.1113,0.46256
-10.3994,0,0,25.3994,25.3994,5,5,4.15977,2.28785,5.30068,0.0302212,0.128591,0.132122,1,0,3.9025,0.3325,-0.735,0.030134,0.068198,-0.878156,-0.07854,0.1113,0.46256
-10.4022,0,0,25.4022,25.4022,5,5,4.1609,2.28831,5.30006,0.0302132,0.128611,0.13212,1,0,4.095,0.245,-1.2075,0.030134,0.068198,-0.878156,-0.07854,0.1113,0.46256
-10.0353,0,0,25.0353,25.0353,5,5,4.01413,2.37445,5.23998,0.0681938,0.143762,0.0673246,0,0,3.43,0.2975,-1.2425,0.069784,0.085888,-0.942572,-0.07854,0.1113,0.46256
-9.67417,0,0,24.6742,24.6742,5.32583,5.32583,3.86967,2.45857,5.17966,0.066727,0.141245,0.0674361,0,0,3.3425,0.07,-1.295,0.069784,0.085888,-0.942572,-0.07854,0.1113,0.46256
-9.67289,0,0,24.6729,24.6729,5.32711,5.32711,3.86915,2.45899,5.17868,-0.193746,0.452903,-0.135429,1,0,3.185,0.21,-1.4175,-0.191784,0.397232,-1.14387,-0.07854,0.1113,0.46256
-9.67278,0,0,24.6728,24.6728,5.32722,5.32722,3.86911,2.45964,5.17777,-0.193757,0.452902,-0.135429,1,0,3.4475,0.35,-1.3825,-0.191784,0.397232,-1.14387,-0.07854,0.1113,0.46256
-9.67328,0,0,24.6733,24.6733,5.32672,5.32672,3.86931,2.46033,5.17665,0.348422,-0.0198469,0.195916,1,0,3.5875,0.3675,-1.505,0.352702,-0.07503,-0.815082,-0.07854,0.1113,0.46256
-9.67378,0,0,24.6738,24.6738,5.32622,5.32622,3.86951,2.46103,5.17554,0.348409,-0.0198434,0.195916,1,0,3.5875,0.3675,-1.505,0.352702,-0.07503,-0.815082,-0.0728,0.1155,0.46368
-10.5821,0,0,25.5821,25.5821,5,5,4.23285,2.2048,5.37798,-0.224301,-0.349115,0.138356,0,0,3.64,0.2275,-0.7525,-0.22692,-0.410286,-0.871934,-0.0728,0.1155,0.46368
-11.4761,0,0,26.4761,26.4761,5,5,4.59042,1.95323,5.57667,-0.219913,-0.342884,0.138035,0,0,3.64,0.2275,-0.7525,-0.22692,-0.410286,-0.871934,-0.0728,0.1155,0.46368
-11.4774,0,0,26.4774,26.4774,5,5,4.59095,1.9537,5.57674,0.115015,0.18056,-0.25577,1,0,3.745,0.28,-0.805,0.109434,0.112606,-1.2627,-0.0728,0.1155,0.46368
-11.4787,0,0,26.4787,26.4787,5,5,4.59148,1.95416,5.57682,0.115007,0.18057,-0.255771,1,0,3.745,0.28,-0.805,0.109434,0.112606,-1.2627,-0.0728,0.1155,0.46368
-11.4806,0,0,26.4806,26.4806,5,5,4.59224,1.94646,5.57712,0.0137007,0.216977,-0.121631,1,0,3.8675,-4.48,-0.2975,0.007564,0.148962,-1.1296,-0.0728,0.1155,0.46368
-11.4825,0,0,26.4825,26.4825,5,5,4.59299,1.93875,5.57741,0.0138351,0.21699,-0.121628,1,0,3.8675,-4.48,-0.2975,0.007564,0.148962,-1.1296,-0.0728,0.1155,0.46368
-11.4822,0,0,26.4822,26.4822,5,5,4.59288,1.93851,5.5778,0.103617,0.0687265,-0.134537,1,0,3.3775,-0.1225,-0.595,0.097722,0.000854,-1.14241,-0.0728,0.1155,0.46368
-11.4819,0,0,26.4819,26.4819,5,5,4.59277,1.93826,5.57818,0.103622,0.0687245,-0.134537,1,0,3.3775,-0.1225,-0.595,0.097722,0.000854,-1.14241,-0.0728,0.1155,0.46368
-11.6628,0,0,26.6628,26.6628,5,5,4.66512,2.15329,5.40264,0.1775,-0.0652228,0.0460852,0,0,3.3425,-0.2975,-0.7875,0.17568,-0.1342,-0.962946,-0.077,0.11536,0.4599
-11.6619,0,0,26.6619,26.6619,5,5,4.66477,2.15298,5.40269,-0.411457,0.239111,-0.131821,1,0,3.255,-0.175,-0.7875,-0.415776,0.169824,-1.13948,-0.077,0.11536,0.4599
-11.6611,0,0,26.6611,26.6611,5,5,4.66443,2.15266,5.40274,-0.411451,0.239105,-0.13182,1,0,3.255,-0.175,-0.7875,-0.415776,0.169824,-1.13948,-0.077,0.11536,0.4599
-11.6597,0,0,26.6597,26.6597,5,5,4.66387,2.1531,5.402,0.483405,0.398104,-0.0907545,1,0,3.15,0.2275,-1.2775,0.482876,0.328668,-1.09873,-0.077,0.11536,0.4599
-11.6583,0,0,26.6583,26.6583,5,5,4.6633,2.15354,5.40126,0.483397,0.398095,-0.090754,1,0,3.15,0.2275,-1.2775,0.482876,0.328668,-1.09873,-0.077,0.11536,0.4599
-12.1491,0,0,27.1491,27.1491,5,5,4.85964,2.05139,5.48083,-0.094794,-0.213762,-0.0239662,0,0,3.71,0.1925,-1.0325,-0.099552,-0.285968,-1.03224,-0.077,0.11536,0.4599
-12.6317,0,0,27.6317,27.6317,5,5,5.05268,1.95121,5.55941,-0.0930466,-0.210402,-0.0241962,0,0,3.71,0.1925,-1.0325,-0.099552,-0.285968,-1.03224,-0.077,0.11536,0.4599
-11.9386,0,0,26.9386,26.9386,5,5,4.77543,2.00541,5.53035,0.0525197,0.28855,-0.0088148,0,0,3.8675,-0.0525,-1.2775,0.04758,0.217282,-1.01736,-0.077,0.11536,0.4599
-11.257,0,0,26.257,26.257,5,5,4.50281,2.05946,5.49742,0.0515769,0.283807,-0.00846355,0,0,3.8675,-0.0525,-1.2775,0.04758,0.217282,-1.01736,-0.07112,0.1176,0.4669
-12.1663,0,0,27.1663,27.1663,5,5,4.86651,2.11492,5.44246,0.0333586,-0.360076,0.0959812,0,0,3.745,4.4625,-0.9275,0.030256,-0.432246,-0.91317,-0.07112,0.1176,0.4669
-12.1655,0,0,27.1655,27.1655,5,5,4.86621,2.11532,5.44227,-0.219582,-0.0678318,-0.15385,1,0,3.29,0.2275,-0.9625,-0.223748,-0.1403,-1.16107,-0.07112,0.1176,0.4669
-12.1668,0,0,27.1668,27.1668,5,5,4.86674,2.11541,5.44216,-0.219583,-0.0678227,-0.153851,1,0,3.745,0.0525,-0.8925,-0.223748,-0.1403,-1.16107,-0.07112,0.1176,0.4669
-12.1658,0,0,27.1658,27.1658,5,5,4.86634,2.11569,5.44235,0.156653,0.178378,-0.134424,1,0,3.22,0.175,-0.735,0.154086,0.105652,-1.1418,-0.07112,0.1176,0.4669
-12.1665,0,0,27.1665,27.1665,5,5,4.86659,2.11592,5.44262,0.156649,0.178382,-0.134425,1,0,3.5875,0.1575,-0.6825,0.154086,0.105652,-1.1418,-0.07112,0.1176,0.4669
-12.1667,0,0,27.1667,27.1667,5,5,4.86666,2.11605,5.44282,-0.45394,0.207327,-0.119303,1,0,3.4825,0.0875,-0.7175,-0.459086,0.134566,-1.12679,-0.07112,0.1176,0.4669
-12.1664,0,0,27.1664,27.1664,5,5,4.86657,2.11642,5.44287,-0.453947,0.207326,-0.119303,1,0,3.395,0.2275,-0.8225,-0.459086,0.134566,-1.12679,-0.07112,0.1176,0.4669
-11.3138,0,0,26.3138,26.3138,5,5,4.5255,2.34921,5.26266,0.20652,0.361249,0.0422121,0,0,4.1125,-0.0175,-0.7175,0.208254,0.294264,-0.96685,-0.07406,0.11774,0.46536
-10.4714,0,0,25.4714,25.4714,5,5,4.18855,2.57806,5.08014,0.20253,0.355377,0.0424872,0,0,3.5525,0.0525,-0.9625,0.208254,0.294264,-0.96685,-0.07406,0.11774,0.46536
-10.4711,0,0,25.4711,25.4711,5,5,4.18844,2.57827,5.07995,-0.354486,-0.160366,0.356129,1,0,3.395,0.1225,-0.945,-0.351116,-0.220942,-0.655628,-0.07406,0.11774,0.46536
-10.4708,0,0,25.4708,25.4708,5,5,4.18834,2.57849,5.07977,-0.35449,-0.160368,0.356129,1,0,3.395,0.1225,-0.945,-0.351116,-0.220942,-0.655628,-0.07406,0.11774,0.46536
-10.4696,0,0,25.4696,25.4696,5,5,4.18785,2.5782,5.07946,-0.454589,0.265968,-0.0969356,1,0,3.185,-0.175,-0.9975,-0.451644,0.20496,-1.1052,-0.07406,0.11774,0.46536
-10.4684,0,0,25.4684,25.4684,5,5,4.18737,2.57792,5.07915,-0.454584,0.26596,-0.0969347,1,0,3.185,-0.175,-0.9975,-0.451644,0.20496,-1.1052,-0.07406,0.11774,0.46536
-10.3531,0,0,25.3531,25.3531,5,5,4.14124,2.86115,4.83664,0.265019,0.0511745,-0.030964,0,0,3.4125,-0.14,-0.5075,0.275964,-0.008784,-1.03956,-0.07406,0.11774,0.46536
-10.2391,0,0,25.2391,25.2391,5,5,4.09563,3.13898,4.59428,0.260177,0.0503634,-0.03116,0,0,3.4125,-0.14,-0.5075,0.275964,-0.008784,-1.03956,-0.07406,0.11774,0.46536
-10.2406,0,0,25.2406,25.2406,5,5,4.09623,3.13922,4.59455,-0.315791,-0.0320616,-0.069398,1,0,3.78,0.1575,-0.6825,-0.302438,-0.091134,-1.0775,-0.07784,0.12292,0.46816
-9.93619,0,0,24.9362,24.9362,5.06381,5.06381,3.97447,3.42999,4.33393,0.242836,0.129085,0.0568523,0,0,3.6925,0.175,-0.665,0.263642,0.07198,-0.952088,-0.07784,0.12292,0.46816
-9.63601,0,0,24.636,24.636,5.36399,5.36399,3.8544,3.71528,4.07279,0.237866,0.126977,0.0566856,0,0,3.6925,0.175,-0.665,0.263642,0.07198,-0.952088,-0.07784,0.12292,0.46816
-9.6365,0,0,24.6365,24.6365,5.3635,5.3635,3.8546,3.71544,4.07254,-0.399815,-0.239277,-0.0791729,1,0,3.57,0.0875,-0.98,-0.376736,-0.293898,-1.0869,-0.07784,0.12292,0.46816
-9.637,0,0,24.637,24.637,5.363,5.363,3.8548,3.7156,4.07229,-0.399818,-0.239274,-0.0791734,1,0,3.57,0.0875,-0.98,-0.376736,-0.293898,-1.0869,-0.07784,0.12292,0.46816
-9.33046,0,0,24.3305,24.3305,5.66954,5.66954,3.73218,3.64065,4.10765,-0.0669778,0.122294,0.00305832,0,0,3.1675,-0.1925,-1.19,-0.043798,0.069418,-1.00552,-0.07784,0.12292,0.46816
-9.02915,0,0,24.0292,24.0292,5.97085,5.97085,3.61166,3.56711,4.14327,-0.0656968,0.120204,0.00327329,0,0,3.1675,-0.1925,-1.19,-0.043798,0.069418,-1.00552,-0.07784,0.12292,0.46816
-8.68567,0,0,23.6857,23.6857,6.31433,6.31433,3.47427,3.73868,3.97316,0.150718,0.143084,-0.00107244,0,0,3.01,-0.2975,-1.3125,0.176534,0.094672,-1.00979,-0.07784,0.12292,0.46816
-8.34016,0,0,23.3402,23.3402,6.65984,6.65984,3.33606,3.62349,4.05059,-0.101545,0.136048,0.0252645,0,0,3.115,-0.2275,-1.365,-0.078812,0.090036,-0.98393,-0.07448,0.1176,0.46676
-8.00246,0,0,23.0025,23.0025,6.99754,6.99754,3.20098,3.51098,4.12867,-0.0995855,0.133706,0.0255206,0,0,3.535,0.0875,-1.2425,-0.078812,0.090036,-0.98393,-0.07448,0.1176,0.46676
-7.76726,0,0,22.7673,22.7673,7.23274,7.23274,3.1069,3.55487,4.07507,0.0457974,0.099581,-0.0857047,0,0,3.5,0.2975,-0.8225,0.067954,0.057584,-1.09434,-0.07448,0.1176,0.46676
-7.7682,0,0,22.7682,22.7682,7.2318,7.2318,3.10728,3.55486,4.07562,0.103139,0.23698,-0.133163,1,0,3.64,0.0175,-0.5075,0.125538,0.194834,-1.14143,-0.07448,0.1176,0.46676
-7.77037,0,0,22.7704,22.7704,7.22963,7.22963,3.10815,3.55515,4.0761,0.103134,0.236995,-0.133164,1,0,3.92,0.1925,-0.56,0.125538,0.194834,-1.14143,-0.07448,0.1176,0.46676
-7.77376,0,0,22.7738,22.7738,7.22624,7.22624,3.1095,3.55543,4.07688,-0.284411,-0.127041,0.149247,1,0,4.1825,0.1925,-0.385,-0.263642,-0.168848,-0.861198,-0.07448,0.1176,0.46676
-7.77533,0,0,22.7753,22.7753,7.22467,7.22467,3.11013,3.55581,4.07745,-0.284417,-0.12703,0.149246,1,0,3.78,0.245,-0.5075,-0.263642,-0.168848,-0.861198,-0.07448,0.1176,0.46676
-7.73409,0,0,22.7341,22.7341,7.26591,7.26591,3.09364,3.49175,4.10852,-0.0562446,0.0174069,0.0390451,0,0,3.36,-0.2625,-0.5075,-0.035624,-0.024278,-0.970632,-0.07364,0.12152,0.4571
-7.73374,0,0,22.7337,22.7337,7.26626,7.26626,3.0935,3.49167,4.10886,-0.00947105,-0.0934866,0.173059,1,0,3.36,-0.035,-0.63,0.011346,-0.135054,-0.837652,-0.07364,0.12152,0.4571
-7.73144,0,0,22.7314,22.7314,7.26856,7.26856,3.09258,3.49101,4.10916,-0.00945966,-0.0935026,0.173061,1,0,2.9225,-0.3675,-0.63,0.011346,-0.135054,-0.837652,-0.07364,0.12152,0.4571
-7.731,0,0,22.731,22.731,7.269,7.269,3.0924,3.49042,4.1089,-0.0173459,0.308291,-0.100253,1,0,3.36,-0.35,-0.9625,0.003416,0.266326,-1.10886,-0.07364,0.12152,0.4571
-7.72819,0,0,22.7282,22.7282,7.27181,7.27181,3.09128,3.48963,4.10839,-0.0173322,0.308272,-0.100251,1,0,2.835,-0.4725,-1.1025,0.003416,0.266326,-1.10886,-0.07364,0.12152,0.4571
-7.27476,0,0,22.2748,22.2748,7.72524,7.72524,2.9099,3.87853,3.7559,0.324315,0.187608,0.117098,0,0,3.43,-0.4025,-0.8925,0.353312,0.148962,-0.892918,-0.07364,0.12152,0.4571
-6.82612,0,0,21.8261,21.8261,8.17388,8.17388,2.73045,4.26103,3.40122,0.317656,0.184465,0.116778,0,0,3.22,-0.14,-1.2425,0.353312,0.148962,-0.892918,-0.07364,0.12152,0.4571
-7.28043,0,0,22.2804,22.2804,7.71957,7.71957,2.91217,3.89591,3.68106,-0.310872,-0.174825,0.1006,0,0,3.4475,-0.35,-1.2425,-0.28426,-0.213134,-0.909266,-0.07364,0.12152,0.4571
-7.72659,0,0,22.7266,22.7266,7.27341,7.27341,3.09063,3.53835,3.96852,-0.304644,-0.1717,0.100841,0,0,3.395,0.0175,-0.9625,-0.28426,-0.213134,-0.909266,-0.07854,0.11438,0.45626
-7.72677,0,0,22.7268,22.7268,7.27323,7.27323,3.09071,3.5379,3.96827,-0.065674,0.24512,-0.107679,1,0,3.5,-0.2625,-0.9625,-0.044286,0.203252,-1.11618,-0.07854,0.11438,0.45626
-7.72748,0,0,22.7275,22.7275,7.27252,7.27252,3.09099,3.53771,3.96785,-0.0656706,0.245125,-0.107679,1,0,3.6225,-0.1225,-1.0675,-0.044286,0.203252,-1.11618,-0.07854,0.11438,0.45626
-7.73815,0,0,22.7382,22.7382,7.26185,7.26185,3.09526,3.06721,4.35619,-0.425574,-0.00867709,0.043893,0,0,3.3425,-0.21,-0.9625,-0.413946,-0.050386,-0.96624,-0.07854,0.11438,0.45626
-7.74854,0,0,22.7485,22.7485,7.25146,7.25146,3.09942,2.60545,4.74344,-0.417525,-0.00858321,0.0442873,0,0,3.4825,-0.07,-0.8225,-0.413946,-0.050386,-0.96624,-0.07854,0.11438,0.45626
-7.74721,0,0,22.7472,22.7472,7.25279,7.25279,3.09889,2.60523,4.74347,-0.0155248,0.252148,-0.224723,1,0,3.15,-0.1225,-0.805,-0.010248,0.210084,-1.23318,-0.07854,0.11438,0.45626
-7.74736,0,0,22.7474,22.7474,7.25264,7.25264,3.09895,2.60528,4.74348,-0.0155257,0.252149,-0.224723,1,0,3.4825,0.035,-0.8225,-0.010248,0.210084,-1.23318,-0.07854,0.11438,0.45626
-8.29889,0,0,23.2989,23.2989,6.70111,6.70111,3.31956,2.75468,4.61313,0.129718,-0.225563,0.0323937,0,0,3.43,0.1225,-0.6825,0.138226,-0.270962,-0.977708,-0.07854,0.11438,0.45626
-8.84203,0,0,23.842,23.842,6.15797,6.15797,3.53681,2.90116,4.48411,0.127164,-0.22179,0.0320413,0,0,3.605,0.175,-0.7,0.138226,-0.270962,-0.977708,-0.07854,0.11438,0.45626
-8.70425,0,0,23.7042,23.7042,6.29575,6.29575,3.4817,2.65629,4.6825,-0.215166,0.0536361,0.0114057,0,0,3.4825,0.07,-1.0325,-0.20984,0.005124,-0.998448,-0.07672,0.11872,0.46676
-8.7047,0,0,23.7047,23.7047,6.2953,6.2953,3.48188,2.65628,4.68245,0.0264695,-0.159105,0.163247,1,0,3.5525,0,-0.8575,0.032818,-0.2074,-0.847778,-0.07672,0.11872,0.46676
-8.70547,0,0,23.7055,23.7055,6.29453,6.29453,3.48219,2.65609,4.68245,0.0264728,-0.1591,0.163247,1,0,3.6225,-0.105,-0.8225,0.032818,-0.2074,-0.847778,-0.07672,0.11872,0.46676
-8.42482,0,0,23.4248,23.4248,6.57518,6.57518,3.36993,2.39932,4.89683,-0.222105,0.111178,0.0348339,0,0,3.71,0,-0.9275,-0.221308,0.064538,-0.975512,-0.07672,0.11872,0.46676
-8.147,0,0,23.147,23.147,6.853,6.853,3.2588,2.14721,5.11169,-0.217708,0.109254,0.0351202,0,0,3.325,-0.105,-0.8575,-0.221308,0.064538,-0.975512,-0.07672,0.11872,0.46676
-7.79171,0,0,22.7917,22.7917,7.20829,7.20829,3.11668,2.01127,5.23316,-0.117541,0.142689,0.00866415,0,0,3.395,-0.3325,-0.735,-0.123098,0.100406,-1.00199,-0.07672,0.11872,0.46676
-7.44043,0,0,22.4404,22.4404,7.55957,7.55957,2.97617,1.87837,5.35516,-0.115223,0.140245,0.00887301,0,0,2.9575,-0.07,-0.665,-0.123098,0.100406,-1.00199,-0.07672,0.11872,0.46676
-8.23414,0,0,23.2341,23.2341,6.76586,6.76586,3.29366,2.09062,5.1704,0.177379,-0.31526,0.0972109,0,0,3.15,-0.245,-0.49,0.17446,-0.360144,-0.913902,-0.07868,0.11662,0.46326
-8.23366,0,0,23.2337,23.2337,6.76634,6.76634,3.29346,2.09021,5.17114,0.17447,-0.0684457,0.139997,1,0,3.325,-0.21,-0.385,0.171532,-0.113582,-0.871446,-0.07868,0.11662,0.46326
-8.23711,0,0,23.2371,23.2371,6.76289,6.76289,3.29484,2.08995,5.17144,0.174475,-0.0684217,0.139996,1,0,4.2175,-0.14,-0.6475,0.171532,-0.113582,-0.871446,-0.07868,0.11662,0.46326
-8.23753,0,0,23.2375,23.2375,6.76247,6.76247,3.29501,2.08986,5.17183,-0.231286,0.269262,-0.198235,1,0,3.535,-0.035,-0.595,-0.235948,0.223748,-1.20707,-0.07868,0.11662,0.46326
-8.24088,0,0,23.2409,23.2409,6.75912,6.75912,3.29635,2.08988,5.17181,-0.231286,0.269285,-0.198237,1,0,4.2,0.0175,-0.84,-0.235948,0.223748,-1.20707,-0.07868,0.11662,0.46326
-8.24286,0,0,23.2429,23.2429,6.75714,6.75714,3.29714,2.0901,5.17139,0.126242,0.164758,-0.194057,1,0,3.9025,0.1225,-1.085,0.123098,0.119316,-1.20292,-0.07868,0.11662,0.46326
-8.24499,0,0,23.245,23.245,6.75501,6.75501,3.298,2.09001,5.17085,0.126244,0.164773,-0.194058,1,0,3.9375,-0.07,-1.1375,0.123098,0.119316,-1.20292,-0.07868,0.11662,0.46326
-8.31811,0,0,23.3181,23.3181,6.68189,6.68189,3.32724,2.31573,4.98263,0.174424,-0.0169395,0.119649,0,0,3.9725,0.0525,-1.225,0.175436,-0.062708,-0.891454,-0.07868,0.11662,0.46326
-8.38492,0,0,23.3849,23.3849,6.61508,6.61508,3.35397,2.53537,4.79394,0.170594,-0.0164837,0.11946,0,0,2.9925,-0.1225,-1.47,0.175436,-0.062708,-0.891454,-0.07364,0.11676,0.46298
-8.38519,0,0,23.3852,23.3852,6.61481,6.61481,3.35408,2.53552,4.79288,0.273733,0.304589,-0.101356,1,0,3.535,0.0525,-1.4525,0.279014,0.25803,-1.11057,-0.07364,0.11676,0.46298
-8.38197,0,0,23.382,23.382,6.61803,6.61803,3.35279,2.53543,4.79207,0.273735,0.304567,-0.101355,1,0,2.7475,-0.07,-1.295,0.279014,0.25803,-1.11057,-0.07364,0.11676,0.46298
-8.66181,0,0,23.6618,23.6618,6.33819,6.33819,3.46472,2.93569,4.44511,0.309641,-0.0894398,0.18233,0,0,3.36,0.0875,-1.2775,0.32208,-0.137494,-0.828624,-0.07364,0.11676,0.46298
-8.93639,0,0,23.9364,23.9364,6.06361,6.06361,3.57456,3.32854,4.10035,0.302795,-0.0875523,0.181839,0,0,3.3425,0.0525,-1.225,0.32208,-0.137494,-0.828624,-0.07364,0.11676,0.46298
-8.93769,0,0,23.9377,23.9377,6.06231,6.06231,3.57508,3.3286,4.10022,-0.345575,0.190661,-0.0692224,1,0,3.745,0.035,-0.91,-0.329034,0.140422,-1.07775,-0.07364,0.11676,0.46298
-8.93806,0,0,23.9381,23.9381,6.06194,6.06194,3.57522,3.3288,4.10066,-0.345579,0.190664,-0.0692228,1,0,3.5175,0.14,-0.5775,-0.329034,0.140422,-1.07775,-0.07364,0.11676,0.46298
-8.94013,0,0,23.9401,23.9401,6.05987,6.05987,3.57605,3.32892,4.10101,0.0756102,0.280686,-0.238893,1,0,3.9025,0.0875,-0.63,0.09394,0.230336,-1.24611,-0.07364,0.11676,0.46298
-8.94213,0,0,23.9421,23.9421,6.05787,6.05787,3.57685,3.32907,4.10136,0.0756076,0.2807,-0.238894,1,0,3.885,0.105,-0.63,0.09394,0.230336,-1.24611,-0.07364,0.11676,0.46298
-9.23545,0,0,24.2355,24.2355,5.76455,5.76455,3.69418,3.47808,3.96515,0.146875,-0.132745,-0.061271,0,0,3.9725,0.2975,-0.49,0.168116,-0.184708,-1.06957,-0.07826,0.11438,0.46872
-9.66564,0,0,24.6656,24.6656,5.33436,5.33436,3.86626,3.59695,3.85167,0.0875843,-0.150036,0.127498,0,0,3.4825,-0.175,-0.5075,0.110654,-0.20496,-0.881938,-0.07826,0.11438,0.46872
-10.0903,0,0,25.0903,25.0903,5,5,4.03611,3.71338,3.73888,0.0855564,-0.147093,0.127165,0,0,3.85,-0.2275,-0.63,0.110654,-0.20496,-0.881938,-0.07826,0.11438,0.46872
-10.7816,0,0,25.7816,25.7816,5,5,4.31263,3.66974,3.75891,-0.0399073,-0.268565,0.0904709,0,0,2.9575,-0.1225,-0.7175,-0.016104,-0.331108,-0.91805,-0.07826,0.11438,0.46872
-11.4643,0,0,26.4643,26.4643,5,5,4.58574,3.62676,3.77834,-0.0391587,-0.263819,0.0901495,0,0,3.57,-0.21,-0.735,-0.016104,-0.331108,-0.91805,-0.07826,0.11438,0.46872
-11.463,0,0,26.463,26.463,5,5,4.58522,3.62642,3.77802,-0.344325,0.209047,-0.179721,1,0,3.1675,-0.21,-0.9975,-0.322568,0.141276,-1.18584,-0.07826,0.11438,0.46872
-11.4624,0,0,26.4624,26.4624,5,5,4.58496,3.62602,3.77839,-0.344318,0.209042,-0.179721,1,0,3.29,-0.21,-0.595,-0.322568,0.141276,-1.18584,-0.07826,0.11438,0.46872
-10.8032,0,0,25.8032,25.8032,5,5,4.32127,3.72505,3.68756,0.0830448,0.272235,0.0288003,0,0,3.29,0.1925,-0.6125,0.108336,0.208986,-0.979172,-0.07644,0.11004,0.46424
-10.5663,0,0,25.5663,25.5663,5,5,4.2265,3.60482,3.77817,-0.107051,0.0968128,-0.0501217,0,0,3.6225,0.035,-0.9975,-0.084668,0.03538,-1.05774,-0.07644,0.11004,0.46424
-10.333,0,0,25.333,25.333,5,5,4.13321,3.48689,3.8688,-0.104997,0.0952013,-0.0498763,0,0,3.5525,0.0175,-1.085,-0.084668,0.03538,-1.05774,-0.07644,0.11004,0.46424
-10.3348,0,0,25.3348,25.3348,5,5,4.13391,3.4869,3.86851,0.276954,0.0445308,-0.0517214,1,0,3.85,0,-0.9975,0.2989,-0.01525,-1.05957,-0.07644,0.11004,0.46424
-10.3353,0,0,25.3353,25.3353,5,5,4.13414,3.48696,3.86829,0.276953,0.0445348,-0.0517218,1,0,3.5875,0.035,-0.9625,0.2989,-0.01525,-1.05957,-0.07644,0.11004,0.46424
-10.3339,0,0,25.3339,25.3339,5,5,4.13356,3.24485,4.06556,-0.219229,-0.00443014,-0.0324166,0,0,3.6225,0.035,-0.805,-0.203618,-0.064172,-1.04066,-0.07644,0.11004,0.46424
-10.3307,0,0,25.3307,25.3307,5,5,4.13226,3.00748,4.26189,-0.215092,-0.00443648,-0.0321896,0,0,3.255,0.0525,-0.98,-0.203618,-0.064172,-1.04066,-0.07644,0.11004,0.46424
-10.33,0,0,25.33,25.33,5,5,4.13202,3.00784,4.26145,-0.0135532,0.0484401,-0.11518,1,0,3.325,0.1925,-1.1025,-0.00122,-0.011346,-1.12301,-0.07644,0.11004,0.46424
-10.3295,0,0,25.3295,25.3295,5,5,4.1318,3.00753,4.26101,-0.0135479,0.0484364,-0.115179,1,0,3.3425,-0.1925,-1.0675,-0.00122,-0.011346,-1.12301,-0.07364,0.1176,0.46914
-10.2061,0,0,25.2061,25.2061,5,5,4.08246,2.82498,4.4047,-0.165382,0.047468,-0.0446295,0,0,3.43,-0.3325,-0.77,-0.156892,-0.011468,-1.05323,-0.07364,0.1176,0.46914
-10.0838,0,0,25.0838,25.0838,5,5,4.03352,2.64637,4.54782,-0.162268,0.0466276,-0.0444207,0,0,3.22,-0.105,-1.05,-0.156892,-0.011468,-1.05323,-0.07364,0.1176,0.46914
-10.084,0,0,25.084,25.084,5,5,4.03359,2.64612,4.54736,-0.333194,0.101219,-0.181139,1,0,3.5,-0.1575,-1.085,-0.328546,0.043066,-1.18889,-0.07364,0.1176,0.46914
-10.0842,0,0,25.0842,25.0842,5,5,4.03366,2.64587,4.54691,-0.33319,0.101221,-0.181139,1,0,3.5,-0.1575,-1.085,-0.328546,0.043066,-1.18889,-0.07364,0.1176,0.46914
-9.88803,0,0,24.888,24.888,5.11197,5.11197,3.95521,2.87669,4.34744,0.22235,0.086531,-0.0482073,0,0,3.675,-0.1225,-1.1725,0.233386,0.029768,-1.05689,-0.07364,0.1176,0.46914
-9.69467,0,0,24.6947,24.6947,5.30533,5.30533,3.87787,3.10317,4.14787,0.218402,0.085172,-0.0483209,0,0,3.675,-0.1225,-1.1725,0.233386,0.029768,-1.05689,-0.07364,0.1176,0.46914
-9.92974,0,0,24.9297,24.9297,5.07026,5.07026,3.97189,3.01609,4.20812,-0.077477,-0.0999193,-0.00409068,0,0,3.0975,0.1225,-0.805,-0.06527,-0.15677,-1.01297,-0.07364,0.1176,0.46914
-10.1609,0,0,25.1609,25.1609,5,5,4.06434,2.93082,4.27412,-0.0759908,-0.0983065,-0.00412658,0,0,3.0975,0.1225,-0.805,-0.06527,-0.15677,-1.01297,-0.07812,0.11368,0.46158
-9.30292,0,0,24.3029,24.3029,5.69708,5.69708,3.72117,2.80751,4.38021,-0.111381,0.366287,-0.00385889,0,0,2.905,0,-0.5775,-0.102968,0.313296,-1.01321,-0.07812,0.11368,0.46158
-8.88135,0,0,23.8814,23.8814,6.11865,6.11865,3.55254,2.59738,4.55946,-0.191907,0.177121,-0.0433352,0,0,3.2725,-0.2275,-0.525,-0.187514,0.127246,-1.05274,-0.07812,0.11368,0.46158
-8.46757,0,0,23.4676,23.4676,6.53243,6.53243,3.38703,2.39114,4.74003,-0.188311,0.17425,-0.0430041,0,0,3.465,-0.2275,-0.21,-0.187514,0.127246,-1.05274,-0.07812,0.11368,0.46158
-8.46837,0,0,23.4684,23.4684,6.53163,6.53163,3.38735,2.3905,4.74102,0.459098,0.305786,-0.128699,1,0,3.605,-0.3325,-0.2275,0.462624,0.25864,-1.13777,-0.07812,0.11368,0.46158
-8.46859,0,0,23.4686,23.4686,6.53141,6.53141,3.38744,2.39004,4.7417,0.459106,0.305787,-0.128699,1,0,3.4825,-0.245,-0.42,0.462624,0.25864,-1.13777,-0.07812,0.11368,0.46158
-8.86981,0,0,23.8698,23.8698,6.13019,6.13019,3.54792,2.14355,4.95122,-0.21728,-0.160131,0.0623637,0,0,3.745,-0.105,-0.4725,-0.220942,-0.209596,-0.948184,-0.07812,0.11368,0.46158
-9.26411,0,0,24.2641,24.2641,5.73589,5.73589,3.70564,1.90157,5.15822,-0.213059,-0.157376,0.0623384,0,0,3.71,-0.21,-0.735,-0.220942,-0.209596,-0.948184,-0.07812,0.11368,0.46158
-8.64685,0,0,23.6469,23.6469,6.35315,6.35315,3.45874,2.10187,5.00754,0.193583,0.270769,-0.0152178,0,0,3.5875,-0.0525,-0.98,0.19093,0.222406,-1.02529,-0.07812,0.11368,0.46158
-8.039,0,0,23.039,23.039,6.961,6.961,3.2156,2.29806,4.85775,0.190161,0.266528,-0.0151022,0,0,3.5875,-0.105,-1.155,0.19093,0.222406,-1.02529,-0.07868,0.11214,0.46102
-8.10473,0,0,23.1047,23.1047,6.89527,6.89527,3.24189,2.25835,4.89892,-0.0360814,-0.0196444,0.100225,0,0,3.1325,-0.0175,-1.19,-0.036966,-0.063928,-0.910852,-0.07868,0.11214,0.46102
-8.17074,0,0,23.1707,23.1707,6.82926,6.82926,3.2683,2.21954,4.93954,-0.0354047,-0.0191832,0.100225,0,0,3.4475,0.0525,-1.4175,-0.036966,-0.063928,-0.910852,-0.07868,0.11214,0.46102
-8.08837,0,0,23.0884,23.0884,6.91163,6.91163,3.23535,2.22451,4.94465,0.0072716,0.0316583,-0.0541686,0,0,2.975,0.035,-1.6275,0.005978,-0.012566,-1.06408,-0.07868,0.11214,0.46102
-8.00903,0,0,23.009,23.009,6.99097,6.99097,3.20361,2.22944,4.95071,0.00718575,0.0311055,-0.0541409,0,0,3.325,0.0875,-1.085,0.005978,-0.012566,-1.06408,-0.07868,0.11214,0.46102
-8.00752,0,0,23.0075,23.0075,6.99248,6.99248,3.20301,2.22962,4.95046,0.267283,0.157008,-0.0712303,1,0,3.115,0.105,-0.98,0.26718,0.113216,-1.08104,-0.07868,0.11214,0.46102
-8.00802,0,0,23.008,23.008,6.99198,6.99198,3.20321,2.22973,4.95006,0.267282,0.157011,-0.0712305,1,0,3.57,0.0525,-1.0675,0.26718,0.113216,-1.08104,-0.07868,0.11214,0.46102
-8.00911,0,0,23.0091,23.0091,6.99089,6.99089,3.20364,2.23008,4.95006,-0.255234,-0.138162,-0.139591,1,0,3.6925,0.21,-0.84,-0.257542,-0.181658,-1.14887,-0.07868,0.11214,0.46102
-8.01202,0,0,23.012,23.012,6.98798,6.98798,3.20481,2.23056,4.9504,-0.255243,-0.138141,-0.139592,1,0,4.095,0.2975,-0.6475,-0.257542,-0.181658,-1.14887,-0.07714,0.11564,0.46592
-8.01492,0,0,23.0149,23.0149,6.98508,6.98508,3.20597,2.23107,4.95065,-0.11117,0.49474,-0.0420953,1,0,4.095,0.315,-0.7,-0.11285,0.450546,-1.05213,-0.07714,0.11564,0.46592
-8.01859,0,0,23.0186,23.0186,6.98141,6.98141,3.20744,2.23154,4.95071,-0.111178,0.494765,-0.0420971,1,0,4.27,0.28,-0.805,-0.11285,0.450546,-1.05213,-0.07714,0.11564,0.46592
-7.64039,0,0,22.6404,22.6404,7.35961,7.35961,3.05616,2.16747,5.01448,-0.0547846,0.152499,0.0384982,0,0,4.025,0.1925,-0.8575,-0.05734,0.111264,-0.97234,-0.07714,0.11564,0.46592
-7.26684,0,0,22.2668,22.2668,7.73316,7.73316,2.90674,2.10431,5.07845,-0.053683,0.149898,0.0386748,0,0,3.6575,0,-0.8925,-0.05734,0.111264,-0.97234,-0.07714,0.11564,0.46592
-6.82711,0,0,21.8271,21.8271,8.17289,8.17289,2.73085,2.13212,5.06625,0.0286852,0.183715,-0.00385538,0,0,3.5,-0.2625,-0.875,0.025864,0.148108,-1.01467,-0.07714,0.11564,0.46592
-6.39346,0,0,21.3935,21.3935,8.60654,8.60654,2.55738,2.15938,5.05413,0.0282098,0.180692,-0.00373361,0,0,3.2375,-0.2975,-0.84,0.025864,0.148108,-1.01467,-0.07714,0.11564,0.46592
-6.39317,0,0,21.3932,21.3932,8.60683,8.60683,2.55727,2.15876,5.05363,0.0197165,0.152235,0.144666,1,0,3.395,-0.3675,-1.1025,0.017324,0.119682,-0.86742,-0.07714,0.11564,0.46592
-6.39186,0,0,21.3919,21.3919,8.60814,8.60814,2.55674,2.15827,5.05305,0.0197251,0.152226,0.144666,1,0,3.1675,-0.2975,-1.155,0.017324,0.119682,-0.86742,-0.07616,0.11284,0.46928
-6.49331,0,0,21.4933,21.4933,8.50669,8.50669,2.59732,1.73558,5.42474,-0.397494,-0.048687,0.0317724,0,0,3.36,-0.315,-0.8925,-0.409066,-0.08174,-0.97966,-0.07616,0.11284,0.46928
-6.59147,0,0,21.5915,21.5915,8.40853,8.40853,2.63659,1.32095,5.79472,-0.39026,-0.0479939,0.0319339,0,0,3.0975,-0.0175,-0.875,-0.409066,-0.08174,-0.97966,-0.07616,0.11284,0.46928
-6.59183,0,0,21.5918,21.5918,8.40817,8.40817,2.63673,1.32051,5.79441,0.31157,0.265264,-0.0510563,1,0,3.535,-0.2625,-0.9975,0.295728,0.23119,-1.06201,-0.07616,0.11284,0.46928
-6.5922,0,0,21.5922,21.5922,8.4078,8.4078,2.63688,1.32007,5.7941,0.311578,0.265266,-0.0510562,1,0,3.535,-0.2625,-0.9975,0.295728,0.23119,-1.06201,-0.07616,0.11284,0.46928
-6.83904,0,0,21.839,21.839,8.16096,8.16096,2.73561,0.825691,6.23353,-0.478442,-0.113674,0.0567273,0,0,3.8675,0.0525,-0.7525,-0.5063,-0.149084,-0.955138,-0.07616,0.11284,0.46928
-7.08147,0,0,22.0815,22.0815,7.91853,7.91853,2.83259,0.33982,6.66983,-0.469962,-0.11198,0.0567313,0,0,3.8675,0.0525,-0.7525,-0.5063,-0.149084,-0.955138,-0.07616,0.11284,0.46928
-7.08302,0,0,22.083,22.083,7.91698,7.91698,2.83321,0.34023,6.66983,0.179614,0.35541,-0.0571196,1,0,3.7975,0.245,-0.84,0.146034,0.31781,-1.06811,-0.07616,0.11284,0.46928
-7.08457,0,0,22.0846,22.0846,7.91543,7.91543,2.83383,0.34064,6.66983,0.179607,0.355421,-0.0571202,1,0,3.7975,0.245,-0.84,0.146034,0.31781,-1.06811,-0.07798,0.11564,0.46914
-7.08316,0,0,22.0832,22.0832,7.91684,7.91684,2.83326,0.34116,6.66942,0.0909137,-0.324102,-0.0807259,1,0,3.1325,0.2975,-1.085,0.056974,-0.360998,-1.09153,-0.07798,0.11564,0.46914
-7.08174,0,0,22.0817,22.0817,7.91826,7.91826,2.8327,0.34168,6.669,0.0909046,-0.324112,-0.0807254,1,0,3.1325,0.2975,-1.085,0.056974,-0.360998,-1.09153,-0.07798,0.11564,0.46914
-7.36983,0,0,22.3698,22.3698,7.63017,7.63017,2.94793,0.308031,6.7208,-0.037526,-0.128044,-0.0403735,0,0,3.29,0.245,-1.12,-0.07259,-0.16714,-1.0514,-0.07798,0.11564,0.46914
-7.65315,0,0,22.6532,22.6532,7.34685,7.34685,3.06126,0.274926,6.77229,-0.0369482,-0.126068,-0.0404742,0,0,3.29,0.245,-1.12,-0.07259,-0.16714,-1.0514,-0.07798,0.11564,0.46914
-7.65361,0,0,22.6536,22.6536,7.34639,7.34639,3.06144,0.27529,6.77202,0.317541,0.321896,-0.146825,1,0,3.5525,0.21,-0.9975,0.283406,0.280356,-1.15693,-0.07798,0.11564,0.46914
-7.65407,0,0,22.6541,22.6541,7.34593,7.34593,3.06163,0.275655,6.77175,0.317534,0.321899,-0.146825,1,0,3.5525,0.21,-0.9975,0.283406,0.280356,-1.15693,-0.07798,0.11564,0.46914
-8.04621,0,0,23.0462,23.0462,6.95379,6.95379,3.21849,0.0875645,6.95069,-0.177031,-0.16424,0.0300812,0,0,3.675,0.0175,-0.9625,-0.21655,-0.20801,-0.981246,-0.07798,0.11564,0.46914
-8.43176,0,0,23.4318,23.4318,6.56824,6.56824,3.3727,-0.0978638,7.12354,-0.173795,-0.161553,0.0299262,0,0,3.675,0.0175,-0.9625,-0.21655,-0.20801,-0.981246,-0.07784,0.11886,0.46858
-8.43175,0,0,23.4318,23.4318,6.56825,6.56825,3.3727,-0.0978803,7.12368,-0.0123401,-0.0157337,0.163448,1,0,3.4475,0,-0.7525,-0.054412,-0.062342,-0.848754,-0.07784,0.11886,0.46858
-8.43175,0,0,23.4317,23.4317,6.56825,6.56825,3.3727,-0.0978969,7.12381,-0.0123398,-0.0157338,0.163448,1,0,3.4475,0,-0.7525,-0.054412,-0.062342,-0.848754,-0.07784,0.11886,0.46858
-8.61023,0,0,23.6102,23.6102,6.38977,6.38977,3.44409,0.141872,6.94692,0.217578,-0.0733551,-0.00482099,0,0,2.975,0.1225,-0.735,0.180682,-0.121146,-1.01565,-0.07784,0.11886,0.46858
-8.78536,0,0,23.7854,23.7854,6.21464,6.21464,3.51414,0.377049,6.77096,0.213474,-0.0721359,-0.00491373,0,0,2.975,0.1225,-0.735,0.180682,-0.121146,-1.01565,-0.07784,0.11886,0.46858
-8.78395,0,0,23.784,23.784,6.21605,6.21605,3.51358,0.377312,6.77141,-0.263848,0.114464,-0.0903624,1,0,3.1325,0.175,-0.5775,-0.298656,0.06527,-1.10044,-0.07784,0.11886,0.46858
-8.78255,0,0,23.7825,23.7825,6.21745,6.21745,3.51302,0.377575,6.77186,-0.263853,0.114454,-0.0903618,1,0,3.1325,0.175,-0.5775,-0.298656,0.06527,-1.10044,-0.07784,0.11886,0.46858
-8.26253,0,0,23.2625,23.2625,6.73747,6.73747,3.30501,0.645019,6.58406,0.266624,0.234786,-0.0289592,0,0,3.57,-0.0175,-0.5075,0.238754,0.1891,-1.03968,-0.07784,0.11886,0.46858
-7.7503,0,0,22.7503,22.7503,7.2497,7.2497,3.10012,0.907858,6.39496,0.262037,0.231213,-0.0288215,0,0,3.57,-0.0175,-0.5075,0.238754,0.1891,-1.03968,-0.07784,0.11886,0.46858
-7.75185,0,0,22.7519,22.7519,7.24815,7.24815,3.10074,0.907847,6.395,-0.219046,-0.0767799,-0.122263,1,0,3.7975,0,-0.805,-0.244366,-0.118584,-1.1324,-0.07056,0.11648,0.46564
-7.75216,0,0,22.7522,22.7522,7.24784,7.24784,3.10086,0.907747,6.39503,0.375628,-0.0110736,-0.0405022,1,0,3.5175,-0.0525,-0.805,0.352824,-0.052948,-1.05127,-0.07056,0.11648,0.46564
-7.75274,0,0,22.7527,22.7527,7.24726,7.24726,3.10109,0.90794,6.39406,0.375625,-0.0110695,-0.0405025,1,0,3.5875,0.0875,-1.4,0.352824,-0.052948,-1.05127,-0.07056,0.11648,0.46564
-8.0741,0,0,23.0741,23.0741,6.9259,6.9259,3.22964,1.0614,6.27433,0.132041,-0.127906,0.0374,0,0,3.15,0.1225,-1.435,0.110898,-0.171898,-0.973804,-0.07056,0.11648,0.46564
-8.38999,0,0,23.39,23.39,6.61001,6.61001,3.35599,1.21184,6.15569,0.129416,-0.125708,0.0372213,0,0,3.15,0.1225,-1.3125,0.110898,-0.171898,-0.973804,-0.07056,0.11648,0.46564
-7.9299,0,0,22.9299,22.9299,7.0701,7.0701,3.17196,1.25391,6.14538,0.0433985,0.192279,-0.000725655,0,0,3.115,0.1575,-1.1725,0.025254,0.148962,-1.01162,-0.07056,0.11648,0.46564
-7.47593,0,0,22.4759,22.4759,7.52407,7.52407,2.99037,1.29509,6.13526,0.04268,0.189114,-0.000571307,0,0,2.8,0.0525,-1.015,0.025254,0.148962,-1.01162,-0.07056,0.11648,0.46564
-7.20107,0,0,22.2011,22.2011,7.79893,7.79893,2.88043,1.18638,6.25019,-0.0895433,0.106597,0.0861237,0,0,3.1675,0.07,-0.9625,-0.109434,0.068442,-0.925736,-0.07056,0.11648,0.46564
-6.93184,0,0,21.9318,21.9318,8.06816,8.06816,2.77274,1.07784,6.37637,-0.0876493,0.104721,0.0862538,0,0,3.5175,0.0175,-0.6825,-0.109434,0.068442,-0.925736,-0.07448,0.1092,0.46144
-6.70694,0,0,21.7069,21.7069,8.29306,8.29306,2.68278,1.0065,6.47174,-0.0649013,0.096926,-0.0914324,0,0,3.9025,0.0525,-0.7875,-0.08784,0.06222,-1.10215,-0.07448,0.1092,0.46144
-6.48641,0,0,21.4864,21.4864,8.51359,8.51359,2.59456,0.936672,6.5671,-0.0636828,0.0953892,-0.0913409,0,0,4.0425,0.1225,-0.8225,-0.08784,0.06222,-1.10215,-0.07448,0.1092,0.46144
-6.40556,0,0,21.4056,21.4056,8.59444,8.59444,2.56222,1.42827,6.17422,0.465921,0.0448676,0.0782995,0,0,3.7975,0.2275,-0.7175,0.45262,0.012322,-0.933666,-0.07448,0.1092,0.46144
-6.32491,0,0,21.3249,21.3249,8.67509,8.67509,2.52996,1.91103,5.7808,0.457499,0.0442944,0.0780792,0,0,3.85,-0.175,-0.98,0.45262,0.012322,-0.933666,-0.07448,0.1092,0.46144
-6.32614,0,0,21.3261,21.3261,8.67386,8.67386,2.53046,1.91105,5.78072,0.0858734,0.07801,-0.100688,1,0,3.7275,0.0175,-0.875,0.079422,0.045994,-1.11105,-0.07448,0.1092,0.46144
-6.32555,0,0,21.3256,21.3256,8.67445,8.67445,2.53022,1.91103,5.78028,0.0858737,0.0780059,-0.100688,1,0,3.325,-0.0175,-1.085,0.079422,0.045994,-1.11105,-0.07448,0.1092,0.46144
-6.76293,0,0,21.7629,21.7629,8.23707,8.23707,2.70517,2.35409,5.4076,0.363273,-0.15674,0.184494,0,0,3.185,-0.035,-1.1725,0.365756,-0.19154,-0.827648,-0.07448,0.1092,0.46144
-7.19113,0,0,22.1911,22.1911,7.80887,7.80887,2.87645,2.78643,5.02795,0.355735,-0.153773,0.184011,0,0,2.9575,-0.1575,-1.05,0.365756,-0.19154,-0.827648,-0.07364,0.11662,0.46886
-6.74652,0,0,21.7465,21.7465,8.25348,8.25348,2.69861,2.68528,5.11426,-0.0935779,0.190096,-0.0437005,0,0,3.08,-0.28,-0.9625,-0.08723,0.155062,-1.05384,-0.07364,0.11662,0.46886
-6.30956,0,0,21.3096,21.3096,8.69044,8.69044,2.52383,2.58562,5.20145,-0.0918403,0.187055,-0.0434818,0,0,3.15,-0.4725,-0.7525,-0.08723,0.155062,-1.05384,-0.07364,0.11662,0.46886
-6.10339,0,0,21.1034,21.1034,8.89661,8.89661,2.44136,2.96543,4.87178,0.38165,0.0965748,-0.0077163,0,0,3.1675,-0.14,-0.8925,0.394914,0.066124,-1.01809,-0.07364,0.11662,0.46886
-5.90103,0,0,20.901,20.901,9.09897,9.09897,2.36041,3.33857,4.54177,0.375147,0.0951505,-0.00801498,0,0,3.5,-0.1925,-0.805,0.394914,0.066124,-1.01809,-0.07364,0.11662,0.46886
-6.59913,0,0,21.5991,21.5991,8.40087,8.40087,2.63965,3.77757,4.14448,0.360575,-0.257476,0.226744,0,0,3.4825,0.1575,-0.4375,0.38796,-0.29097,-0.78446,-0.07364,0.11662,0.46886
-7.28656,0,0,22.2866,22.2866,7.71344,7.71344,2.91462,4.20861,3.75171,0.353071,-0.252719,0.225989,0,0,3.43,-0.1225,-0.5075,0.38796,-0.29097,-0.78446,-0.07364,0.11662,0.46886
-7.28748,0,0,22.2875,22.2875,7.71252,7.71252,2.91499,4.20879,3.75209,-0.0723754,0.14652,-0.230028,1,0,3.64,0.1225,-0.6125,-0.039284,0.107848,-1.23696,-0.07364,0.11662,0.46886
-7.28817,0,0,22.2882,22.2882,7.71183,7.71183,2.91527,4.20884,3.75207,-0.0723763,0.146524,-0.230028,1,0,3.605,0.035,-0.84,-0.039284,0.107848,-1.23696,-0.0756,0.1169,0.46746
-7.17329,0,0,22.1733,22.1733,7.82671,7.82671,2.86932,4.376,3.58235,0.171087,0.0504557,-0.074061,0,0,3.6225,-0.0525,-0.7525,0.208132,0.012688,-1.08202,-0.0756,0.1169,0.46746
-7.05807,0,0,22.0581,22.0581,7.94193,7.94193,2.82323,4.53981,3.41225,0.168237,0.0496437,-0.0742432,0,0,3.2025,-0.1925,-1.05,0.208132,0.012688,-1.08202,-0.0756,0.1169,0.46746
-6.48033,0,0,21.4803,21.4803,8.51967,8.51967,2.59213,4.67495,3.2645,0.124338,0.25299,-0.0143666,0,0,3.5175,-0.175,-1.26,0.166408,0.219844,-1.0226,-0.0756,0.1169,0.46746
-5.90879,0,0,20.9088,20.9088,9.09121,9.09121,2.36352,4.80747,3.11621,0.122033,0.249009,-0.0143857,0,0,2.9225,-0.21,-1.26,0.166408,0.219844,-1.0226,-0.0756,0.1169,0.46746
-5.85979,0,0,20.8598,20.8598,9.14021,9.14021,2.34392,5.19202,2.74896,0.377391,0.024542,0.0235268,0,0,3.535,-0.0875,-1.33,0.429562,-0.004026,-0.984418,-0.0756,0.1169,0.46746
-5.81035,0,0,20.8103,20.8103,9.18965,9.18965,2.32414,5.56996,2.38204,0.370824,0.0241735,0.0229227,0,0,3.465,0,-1.3825,0.429562,-0.004026,-0.984418,-0.0756,0.1169,0.46746
-6.73897,0,0,21.739,21.739,8.26103,8.26103,2.69559,5.59298,2.32722,0.0181159,-0.349563,0.164975,0,0,3.64,0.0175,-1.2425,0.075762,-0.383812,-0.843142,-0.0756,0.1169,0.46746
-7.65244,0,0,22.6524,22.6524,7.34756,7.34756,3.06098,5.61764,2.27803,0.0176875,-0.343226,0.164615,0,0,3.36,0,-1.225,0.075762,-0.383812,-0.843142,-0.07238,0.11284,0.46158
-7.65196,0,0,22.652,22.652,7.34804,7.34804,3.06078,5.61752,2.27737,-0.120926,0.153094,-0.399718,1,0,3.3775,-0.0875,-1.2075,-0.06344,0.111996,-1.40312,-0.07238,0.11284,0.46158
-7.65261,0,0,22.6526,22.6526,7.34739,7.34739,3.06105,5.6174,2.27719,-0.120923,0.153098,-0.399718,1,0,3.605,-0.07,-0.9275,-0.06344,0.111996,-1.40312,-0.07238,0.11284,0.46158
-7.66567,0,0,22.6657,22.6657,7.33433,7.33433,3.06627,5.45703,2.37557,-0.148752,-0.0115458,-0.07155,0,0,3.0275,-0.07,-0.7525,-0.094184,-0.052582,-1.07775,-0.07238,0.11284,0.46158
-7.68057,0,0,22.6806,22.6806,7.31943,7.31943,3.07223,5.29991,2.47333,-0.146022,-0.0114286,-0.0712989,0,0,3.5175,0.0525,-0.945,-0.094184,-0.052582,-1.07775,-0.07238,0.11284,0.46158
