pid_x,pid_y,pid_z,front_left_speed,front_right_speed,back_left_speed,back_right_speed,orientation_x,orientation_y,orientation_z,acceleration_x,acceleration_y,acceleration_z,accel_rejected,mag_rejected,gyro_x,gyro_y,gyro_z,accel_x,accel_y,accel_z,mag_x,mag_y,mag_z
-0.00458395,0,0,15.0046,15.0046,14.9954,14.9954,0.0152798,0.0622482,0.0496314,0.0494955,-0.0132343,0.000676009,0,0,3.4125,0.245,-0.42,0.010492,-0.001342,-1.01199,-0.04284,0.0889,0.44492
-0.0105796,0,0,15.0106,15.0106,14.9894,14.9894,0.0352653,0.11913,0.1032,0.0452226,-0.0169157,-0.00264533,0,0,3.675,0.07,-0.3675,0.007198,-0.005368,-1.01528,-0.04284,0.0889,0.44492
-0.016295,0,0,15.0163,15.0163,14.9837,14.9837,0.0543168,0.174852,0.156518,0.0442501,-0.0165832,-0.00264808,0,0,3.3775,0.1225,-0.4725,0.007198,-0.005368,-1.01528,-0.04284,0.0889,0.44492
-0.0209255,0,0,15.0209,15.0209,14.9791,14.9791,0.0697517,0.231165,0.207795,0.0447251,-0.0133828,0.00226608,0,0,3.395,0.175,-0.49,0.008662,-0.00244,-1.0104,-0.04284,0.0889,0.44492
-0.0252833,0,0,15.0253,15.0253,14.9747,14.9747,0.0842777,0.289146,0.256561,0.0460213,-0.0123965,-7.48721e-05,0,0,3.5525,0.385,-0.455,0.01098,-0.001708,-1.01272,-0.04284,0.0889,0.44492
-0.0295068,0,0,15.0295,15.0295,14.9705,14.9705,0.0983562,0.345719,0.305383,0.045034,-0.0121508,-8.0734e-05,0,0,3.465,0.2975,-0.385,0.01098,-0.001708,-1.01272,-0.04284,0.0889,0.44492
-0.0341091,0,0,15.0341,15.0341,14.9659,14.9659,0.113697,0.401069,0.354148,0.0443109,-0.0132265,-0.00463662,0,0,3.5175,0.2275,-0.3675,0.011224,-0.00305,-1.01724,-0.04284,0.0889,0.44492
-0.03877,0,0,15.0388,15.0388,14.9612,14.9612,0.129233,0.451112,0.40443,0.0399145,-0.0130774,0.00236437,0,0,3.6575,0.2275,-0.385,0.007686,-0.003172,-1.01028,-0.03892,0.08946,0.44646
-0.0432704,0,0,15.0433,15.0433,14.9567,14.9567,0.144235,0.506807,0.448262,0.0447737,-0.0128157,-0.00293116,0,0,3.5875,0.315,-0.42,0.013542,-0.003172,-1.01553,-0.03892,0.08946,0.44646
-0.0474477,0,0,15.0474,15.0474,14.9526,14.9526,0.158159,0.553847,0.499122,0.0378785,-0.0122063,-0.00576722,0,0,3.4125,0.28,-0.385,0.007442,-0.002806,-1.01833,-0.03892,0.08946,0.44646
-0.0516531,0,0,15.0517,15.0517,14.9483,14.9483,0.172177,0.599573,0.549827,0.0370805,-0.0119617,-0.00577595,0,0,3.6225,0.105,-0.4375,0.007442,-0.002806,-1.01833,-0.03892,0.08946,0.44646
-0.0568255,0,0,15.0568,15.0568,14.9432,14.9432,0.189418,0.654024,0.591292,0.0440267,-0.014714,-0.00160705,0,0,3.605,0.0175,-0.4375,0.015372,-0.005856,-1.01419,-0.03892,0.08946,0.44646
-0.0602511,0,0,15.0603,15.0603,14.9397,14.9397,0.200837,0.705381,0.634465,0.0416726,-0.0098739,-0.00260195,0,0,3.5,0.1925,-0.4025,0.013908,-0.00122,-1.01516,-0.03892,0.08946,0.44646
-0.0636359,0,0,15.0636,15.0636,14.9364,14.9364,0.21212,0.755366,0.677582,0.0408003,-0.00967704,-0.00261378,0,0,3.5525,0.035,-0.4025,0.013908,-0.00122,-1.01516,-0.03892,0.08946,0.44646
-0.067471,0,0,15.0675,15.0675,14.9325,14.9325,0.224903,0.804485,0.726313,0.0390927,-0.0107974,0.00770137,0,0,3.57,0.175,-0.5075,0.013054,-0.002562,-1.00491,-0.04088,0.0868,0.4438
-0.0709482,0,0,15.0709,15.0709,14.9291,14.9291,0.236494,0.851721,0.775776,0.0381469,-0.00974027,-0.00140955,0,0,3.675,0.175,-0.4375,0.012932,-0.001708,-1.01394,-0.04088,0.0868,0.4438
-0.0739472,0,0,15.0739,15.0739,14.9261,14.9261,0.246491,0.891561,0.831498,0.0323492,-0.00846672,-0.00928956,0,0,3.675,0.315,-0.35,0.007808,-0.00061,-1.02175,-0.04088,0.0868,0.4438
-0.0770179,0,0,15.077,15.077,14.923,14.923,0.256726,0.930751,0.887232,0.0316653,-0.00828815,-0.00930122,0,0,3.92,0.4375,-0.2975,0.007808,-0.00061,-1.02175,-0.04088,0.0868,0.4438
-0.0814385,0,0,15.0814,15.0814,14.9186,14.9186,0.271462,0.975492,0.937027,0.0353795,-0.0123055,0.0031024,0,0,3.7275,0.4025,-0.35,0.012322,-0.00488,-1.00943,-0.04088,0.0868,0.4438
-0.0857713,0,0,15.0858,15.0858,14.9142,14.9142,0.285904,1.01927,0.986757,0.0346155,-0.0120535,0.00308787,0,0,3.7275,0.4025,-0.35,0.012322,-0.00488,-1.00943,-0.04088,0.0868,0.4438
-0.0886883,0,0,15.0887,15.0887,14.9113,14.9113,0.295628,1.05651,1.04077,0.0299566,-0.00846437,0.00332114,0,0,3.43,0.105,-0.4375,0.008296,-0.001464,-1.00918,-0.04088,0.0868,0.4438
-0.0920958,0,0,15.0921,15.0921,14.9079,14.9079,0.306986,1.09864,1.08929,0.0337165,-0.00973176,0.00551934,0,0,3.5,0.14,-0.5425,0.01281,-0.002928,-1.00699,-0.04088,0.0868,0.4438
-0.0954889,0,0,15.0955,15.0955,14.9045,14.9045,0.318296,1.13875,1.13765,0.0324092,-0.0096566,-0.0028559,0,0,3.605,0.2275,-0.49,0.0122,-0.00305,-1.01528,-0.04102,0.08764,0.44268
-0.0982111,0,0,15.0982,15.0982,14.9018,14.9018,0.32737,1.17473,1.18908,0.0288656,-0.00778856,0.00229436,0,0,3.5175,0.245,-0.4025,0.009272,-0.001342,-1.01016,-0.04102,0.08764,0.44268
-0.100813,0,0,15.1008,15.1008,14.8992,14.8992,0.336043,1.20922,1.2404,0.0282637,-0.0076373,0.00228097,0,0,3.395,-0.175,-0.42,0.009272,-0.001342,-1.01016,-0.04102,0.08764,0.44268
-0.103874,0,0,15.1039,15.1039,14.8961,14.8961,0.346247,1.25069,1.28421,0.0339789,-0.00892486,0.00275616,0,0,3.4125,-0.2275,-0.49,0.015738,-0.002806,-1.00967,-0.04102,0.08764,0.44268
-0.106366,0,0,15.1064,15.1064,14.8936,14.8936,0.354553,1.28164,1.33717,0.0255423,-0.00743662,-0.00352703,0,0,3.3775,-0.0875,-0.5075,0.007808,-0.001464,-1.01589,-0.04102,0.08764,0.44268
-0.108808,0,0,15.1088,15.1088,14.8912,14.8912,0.362692,1.31219,1.39003,0.0250093,-0.00729468,-0.00353999,0,0,3.3775,0.07,-0.525,0.007808,-0.001464,-1.01589,-0.04102,0.08764,0.44268
-0.112019,0,0,15.112,15.112,14.888,14.888,0.373395,1.34611,1.43899,0.0278189,-0.00942843,-0.00281723,0,0,3.43,-0.0525,-0.49,0.011224,-0.003782,-1.01516,-0.04102,0.08764,0.44268
-0.115333,0,0,15.1153,15.1153,14.8847,14.8847,0.384444,1.37941,1.49189,0.0272379,-0.00923573,-0.00283233,0,0,3.745,0,-0.525,0.011224,-0.003782,-1.01516,-0.04102,0.08498,0.44814
-0.11772,0,0,15.1177,15.1177,14.8823,14.8823,0.392398,1.40725,1.54864,0.0232291,-0.00677662,-0.0011238,0,0,3.5875,-0.28,-0.4725,0.007686,-0.001464,-1.01345,-0.04102,0.08498,0.44814
-0.120753,0,0,15.1208,15.1208,14.8792,14.8792,0.402511,1.44115,1.59952,0.027983,-0.00867644,8.97552e-05,0,0,3.5525,-0.2275,-0.2975,0.013054,-0.003538,-1.01223,-0.04102,0.08498,0.44814
-0.123727,0,0,15.1237,15.1237,14.8763,14.8763,0.412423,1.47432,1.65034,0.0274042,-0.0085036,7.37963e-05,0,0,3.5525,-0.2275,-0.2975,0.013054,-0.003538,-1.01223,-0.04102,0.08498,0.44814
-0.130541,0,0,15.1305,15.1305,14.8695,14.8695,0.435135,1.49497,1.71358,0.0163532,-0.020198,-0.0164136,0,0,3.4825,0.1925,-0.42,0.002318,-0.015616,-1.02858,-0.04102,0.08498,0.44814
-0.134522,0,0,15.1345,15.1345,14.8655,14.8655,0.448406,1.51887,1.77255,0.0193378,-0.0119061,-0.0107707,0,0,3.395,0.245,-0.5075,0.005734,-0.007564,-1.02297,-0.04102,0.08498,0.44814
-0.138434,0,0,15.1384,15.1384,14.8616,14.8616,0.461446,1.54233,1.83148,0.0189284,-0.0116787,-0.0107834,0,0,3.4125,0.2975,-0.4725,0.005734,-0.007564,-1.02297,-0.04102,0.08498,0.44814
-0.138237,0,0,15.1382,15.1382,14.8618,14.8618,0.460789,1.55355,1.89151,0.0107148,0.000278186,-0.0324276,0,0,3.4825,0,-0.35,-0.002318,0.004392,-1.04444,-0.0441,0.09002,0.45052
-0.128211,0,0,15.1282,15.1282,14.8718,14.8718,0.427371,1.72202,1.80085,0.135821,0.0287607,0.0390489,0,0,3.535,0.175,-0.315,0.12627,0.033428,-0.973438,-0.0441,0.09002,0.45052
-0.118377,0,0,15.1184,15.1184,14.8816,14.8816,0.39459,1.88705,1.71017,0.132943,0.0281882,0.0389623,0,0,3.535,0.175,-0.315,0.12627,0.033428,-0.973438,-0.0441,0.09002,0.45052
-0.0752261,0,0,15.0752,15.0752,14.9248,14.9248,0.250754,1.77625,1.87011,-0.0822195,0.118007,0.0647345,0,0,3.5525,0.5775,-0.7175,-0.091744,0.12566,-0.94794,-0.0441,0.09002,0.45052
-0.0329168,0,0,15.0329,15.0329,14.9671,14.9671,0.109723,1.66785,2.03061,-0.0803285,0.115547,0.0647991,0,0,3.5525,0.5775,-0.7175,-0.091744,0.12566,-0.94794,-0.0441,0.09002,0.45052
-0.0497196,0,0,15.0497,15.0497,14.9503,14.9503,0.165732,1.42904,2.32564,-0.186471,-0.0450491,0.0983514,0,0,3.675,0,-0.6125,-0.20252,-0.035746,-0.914756,-0.0441,0.09002,0.45052
-0.0423963,0,0,15.0424,15.0424,14.9576,14.9576,0.141321,1.56373,2.2678,0.133116,0.024992,-0.128918,0,0,4.025,-0.2275,-0.7,0.12078,0.034648,-1.14021,-0.0441,0.09002,0.45052
-0.0427719,0,0,15.0428,15.0428,14.9572,14.9572,0.142573,1.56389,2.26752,0.133113,0.0250138,-0.128918,1,0,4.235,0.28,-0.56,0.12078,0.034648,-1.14021,-0.0441,0.09002,0.45052
-0.0754193,0,0,15.0754,15.0754,14.9246,14.9246,0.251398,1.66088,2.24206,0.0728651,-0.0922835,0.028525,0,0,3.85,0.5775,-0.35,0.061976,-0.084424,-0.98393,-0.04088,0.0938,0.45836
-0.107461,0,0,15.1075,15.1075,14.8925,14.8925,0.358202,1.75546,2.21699,0.0712152,-0.0904205,0.0284659,0,0,3.92,0.42,-0.245,0.061976,-0.084424,-0.98393,-0.04088,0.0938,0.45836
-0.0999932,0,0,15.1,15.1,14.9,14.9,0.333311,1.68024,2.34591,-0.0578267,0.0189374,0.121457,0,0,3.045,0.35,-0.21,-0.06893,0.025254,-0.891698,-0.04088,0.0938,0.45836
-0.0939272,0,0,15.0939,15.0939,14.9061,14.9061,0.313091,1.87897,2.21666,0.182528,0.0176071,-0.0682353,0,0,2.7125,0.8225,-0.035,0.175924,0.024278,-1.07982,-0.04088,0.0938,0.45836
-0.0881568,0,0,15.0882,15.0882,14.9118,14.9118,0.293856,2.07279,2.08709,0.179147,0.017271,-0.0683502,0,0,3.0625,0.315,-0.245,0.175924,0.024278,-1.07982,-0.04088,0.0938,0.45836
-0.164572,0,0,15.1646,15.1646,14.8354,14.8354,0.548573,2.08689,2.13749,-0.000532968,-0.221441,0.034885,0,0,2.905,0.665,0.07,-0.00427,-0.218624,-0.977342,-0.04088,0.0938,0.45836
-0.240054,0,0,15.2401,15.2401,14.7599,14.7599,0.80018,2.09954,2.18849,-0.00075346,-0.217053,0.0348252,0,0,3.9025,0.175,0.595,-0.00427,-0.218624,-0.977342,-0.04088,0.0938,0.45836
-0.139391,0,0,15.1394,15.1394,14.8606,14.8606,0.464635,2.11814,2.20649,0.0294149,0.300164,0.0217224,0,0,3.395,-0.3675,1.0325,0.026352,0.303902,-0.990396,-0.04088,0.0938,0.45836
-0.0410167,0,0,15.041,15.041,14.959,14.959,0.136722,2.1422,2.20725,0.0289953,0.294445,0.0217368,0,0,3.9725,-0.2625,1.085,0.026352,0.303902,-0.990396,-0.04424,0.10444,0.46284
0.00272557,0,0,14.9973,14.9973,15.0027,15.0027,-0.00908522,2.06876,2.30807,-0.0561002,0.117871,0.0906379,0,0,4.2,0.2975,1.47,-0.06039,0.130052,-0.922076,-0.04424,0.10444,0.46284
0.0459557,0,0,14.954,14.954,15.046,15.046,-0.153186,1.99795,2.41026,-0.054865,0.115358,0.0906782,0,0,3.535,0.91,2.0125,-0.06039,0.130052,-0.922076,-0.04424,0.10444,0.46284
0.0466379,0,0,14.9534,14.9534,15.0466,15.0466,-0.15546,1.9032,2.53923,-0.0799391,0.00210621,-0.000616371,0,0,3.6925,0.56,1.5925,-0.08723,0.016958,-1.01272,-0.04424,0.10444,0.46284
0.0473838,0,0,14.9526,14.9526,15.0474,15.0474,-0.157946,1.80989,2.66715,-0.0783115,0.00206269,-0.000563733,0,0,3.57,0.2625,1.0675,-0.08723,0.016958,-1.01272,-0.04424,0.10444,0.46284
-0.0247593,0,0,15.0248,15.0248,14.9752,14.9752,0.0825311,1.87789,2.64744,0.054987,-0.228592,-0.0545735,0,0,3.2375,0.42,0.9975,0.047824,-0.217648,-1.06628,-0.04424,0.10444,0.46284
-0.0956589,0,0,15.0957,15.0957,14.9043,14.9043,0.318863,1.94343,2.62685,0.0538439,-0.22447,-0.0546261,0,0,3.535,-0.07,0.2975,0.047824,-0.217648,-1.06628,-0.04424,0.10444,0.46284
-0.140548,0,0,15.1405,15.1405,14.8595,14.8595,0.468494,2.03014,2.58291,0.0735914,-0.138692,-0.039328,0,0,3.465,-0.2275,-0.07,0.069174,-0.134566,-1.05103,-0.04424,0.10444,0.46284
-0.184705,0,0,15.1847,15.1847,14.8153,14.8153,0.615683,2.11328,2.52309,0.0721412,-0.136125,-0.0394047,0,0,3.8325,0.525,-0.2975,0.069174,-0.134566,-1.05103,-0.03766,0.11284,0.47362
-0.196142,0,0,15.1961,15.1961,14.8039,14.8039,0.653806,2.10474,2.54642,-0.00594664,-0.0353164,-0.0603078,0,0,4.095,0.21,-0.98,-0.009394,-0.034526,-1.07177,-0.03766,0.11284,0.47362
-0.207354,0,0,15.2074,15.2074,14.7926,14.7926,0.691181,2.09637,2.56968,-0.0058006,-0.0346645,-0.0603101,0,0,4.095,0.21,-0.98,-0.009394,-0.034526,-1.07177,-0.03766,0.11284,0.47362
-0.207819,0,0,15.2078,15.2078,14.7922,14.7922,0.692728,2.09689,2.56646,0.136936,-0.0441634,-0.0894496,1,0,4.4625,0.4725,-2.275,0.133956,-0.044042,-1.10068,-0.03766,0.11284,0.47362
-0.208283,0,0,15.2083,15.2083,14.7917,14.7917,0.694276,2.09742,2.56325,0.136927,-0.0441364,-0.0894502,1,0,4.4625,0.4725,-2.275,0.133956,-0.044042,-1.10068,-0.03766,0.11284,0.47362
-0.199229,0,0,15.1992,15.1992,14.8008,14.8008,0.664097,2.14033,2.53533,0.0404475,0.0272696,-0.0725048,0,0,3.325,1.015,-2.9575,0.03782,0.027816,-1.08385,-0.03766,0.11284,0.47362
-0.190351,0,0,15.1904,15.1904,14.8096,14.8096,0.634502,2.18238,2.50743,0.0397143,0.0267532,-0.0725266,0,0,3.325,1.015,-2.9575,0.03782,0.027816,-1.08385,-0.03766,0.11284,0.47362
-0.190074,0,0,15.1901,15.1901,14.8099,14.8099,0.633581,2.18149,2.5018,-0.19328,0.0576352,0.160216,1,0,3.1325,-0.3675,-3.675,-0.196176,0.058682,-0.852902,-0.03766,0.11284,0.47362
-0.2131,0,0,15.2131,15.2131,14.7869,14.7869,0.710333,2.22475,2.47023,0.0375174,-0.0706031,-0.0216699,0,0,3.08,0,-3.745,0.036356,-0.07076,-1.03334,-0.03472,0.11214,0.48048
-0.236149,0,0,15.2361,15.2361,14.7639,14.7639,0.787163,2.26668,2.43947,0.0367862,-0.0692637,-0.0217161,0,0,3.955,-0.245,-3.325,0.036356,-0.07076,-1.03334,-0.03472,0.11214,0.48048
-0.236365,0,0,15.2364,15.2364,14.7636,14.7636,0.787883,2.26582,2.43528,-0.0906373,-0.0376204,-0.144664,1,0,4.025,-0.35,-2.835,-0.091622,-0.039162,-1.15534,-0.03472,0.11214,0.48048
-0.236581,0,0,15.2366,15.2366,14.7634,14.7634,0.788602,2.26496,2.43108,-0.0906223,-0.0376078,-0.144664,1,0,4.025,-0.35,-2.835,-0.091622,-0.039162,-1.15534,-0.03472,0.11214,0.48048
-0.241638,0,0,15.2416,15.2416,14.7584,14.7584,0.805459,2.37148,2.34161,0.0895057,-0.0138666,0.00316402,0,0,4.1475,0.455,-1.54,0.091134,-0.015738,-1.00857,-0.03472,0.11214,0.48048
-0.171265,0,0,15.1713,15.1713,14.8287,14.8287,0.570883,2.24557,2.46938,-0.111301,0.223855,-0.0607545,0,0,3.7275,0.7175,-1.33,-0.112728,0.225822,-1.07214,-0.03472,0.11214,0.48048
-0.101915,0,0,15.1019,15.1019,14.8981,14.8981,0.339715,2.12183,2.59963,-0.109143,0.219824,-0.0606402,0,0,3.08,0.525,-0.525,-0.112728,0.225822,-1.07214,-0.03472,0.11214,0.48048
-0.101691,0,0,15.1017,15.1017,14.8983,14.8983,0.338971,2.12246,2.60032,0.34581,0.115515,-0.0838778,1,0,3.0975,0.56,0,0.344162,0.121634,-1.09519,-0.03472,0.11214,0.48048
-0.10119,0,0,15.1012,15.1012,14.8988,14.8988,0.337299,2.1201,2.60206,0.345851,0.115486,-0.0838761,1,0,2.555,-1.19,0.63,0.344162,0.121634,-1.09519,-0.04298,0.12012,0.48986
-0.100362,0,0,15.1004,15.1004,14.8996,14.8996,0.334539,2.11809,2.60393,0.359249,0.0998053,-0.0785877,1,0,1.9425,-0.98,0.7,0.357582,0.106018,-1.08995,-0.04298,0.12012,0.48986
-0.100068,0,0,15.1001,15.1001,14.8999,14.8999,0.333561,2.11677,2.60758,0.359273,0.0997882,-0.0785868,1,0,2.905,-0.5775,1.7325,0.357582,0.106018,-1.08995,-0.04298,0.12012,0.48986
-0.0656812,0,0,15.0657,15.0657,14.9343,14.9343,0.218937,2.23463,2.50336,0.104527,0.105605,-0.0189023,0,0,3.8325,-0.175,2.135,0.103822,0.113826,-1.03066,-0.04298,0.12012,0.48986
-0.0324361,0,0,15.0324,15.0324,14.9676,14.9676,0.10812,2.3515,2.39842,0.102489,0.103672,-0.0189783,0,0,4.7425,0.63,1.855,0.103822,0.113826,-1.03066,-0.04298,0.12012,0.48986
-0.0336169,0,0,15.0336,15.0336,14.9664,14.9664,0.112056,2.35234,2.4028,0.356015,0.0672248,-0.0519293,1,0,5.635,0.6825,2.1525,0.358436,0.077348,-1.06335,-0.04298,0.12012,0.48986
-0.0344951,0,0,15.0345,15.0345,14.9655,14.9655,0.114984,2.35389,2.40768,0.355988,0.0672759,-0.0519305,1,0,5.0575,1.1025,2.45,0.358436,0.077348,-1.06335,-0.04298,0.12012,0.48986
-0.0122706,0,0,15.0123,15.0123,14.9877,14.9877,0.0409019,2.08244,2.6715,-0.23468,0.0670833,0.00665517,0,0,4.3225,0.98,2.1525,-0.239486,0.078446,-1.0054,-0.04298,0.12012,0.48986
0.0104657,0,0,14.9895,14.9895,15.0105,15.0105,-0.0348856,1.81606,2.9349,-0.230033,0.0657613,0.00681339,0,0,2.6425,1.435,1.505,-0.239486,0.078446,-1.0054,-0.04578,0.12012,0.48804
0.0208755,0,0,14.9791,14.9791,15.0209,15.0209,-0.069585,1.87715,2.891,0.0518414,0.0287623,-0.0101884,0,0,1.9075,0.98,1.2075,0.044652,0.04209,-1.02224,-0.04578,0.12012,0.48804
0.0311656,0,0,14.9688,14.9688,15.0312,15.0312,-0.103885,1.93415,2.84638,0.050847,0.028164,-0.0102224,0,0,1.7675,-0.6825,0.77,0.044652,0.04209,-1.02224,-0.04578,0.12012,0.48804
0.0460975,0,0,14.9539,14.9539,15.0461,15.0461,-0.153658,2.16896,2.63047,0.206627,0.0434169,0.00216968,0,0,2.2225,-0.91,0.4725,0.205204,0.058194,-1.00979,-0.04578,0.12012,0.48804
0.059865,0,0,14.9401,14.9401,15.0599,15.0599,-0.19955,2.40146,2.41334,0.202572,0.0426171,0.00200541,0,0,3.92,0.49,-0.175,0.205204,0.058194,-1.00979,-0.04578,0.12012,0.48804
0.0562096,0,0,14.9438,14.9438,15.0562,15.0562,-0.187365,2.46624,2.35081,0.056753,-0.00870776,-0.0212791,0,0,4.9,0.56,-0.7875,0.059902,0.00671,-1.03285,-0.04578,0.12012,0.48804
0.0523901,0,0,14.9476,14.9476,15.0524,15.0524,-0.174634,2.53026,2.28783,0.0556367,-0.00848561,-0.0213272,0,0,5.355,0.8925,-1.1025,0.059902,0.00671,-1.03285,-0.04578,0.12012,0.48804
0.0511841,0,0,14.9488,14.9488,15.0512,15.0512,-0.170614,2.53122,2.28602,0.106887,0.0125903,-0.100507,1,0,5.8275,0.7525,-1.4525,0.111386,0.027694,-1.11142,-0.04578,0.12012,0.48804
0.0502956,0,0,14.9497,14.9497,15.0503,15.0503,-0.167652,2.53292,2.28357,0.106857,0.0126419,-0.100508,1,0,5.25,1.19,-1.82,0.111386,0.027694,-1.11142,-0.03976,0.12614,0.48706
0.0496795,0,0,14.9503,14.9503,15.0497,15.0497,-0.165598,2.53435,2.28035,-0.0679857,0.112089,-0.156573,1,0,4.76,1.0325,-2.275,-0.064172,0.127002,-1.16705,-0.03976,0.12614,0.48706
0.0490635,0,0,14.9509,14.9509,15.0491,15.0491,-0.163545,2.53579,2.27712,-0.0680107,0.112125,-0.156574,1,0,4.76,1.0325,-2.275,-0.064172,0.127002,-1.16705,-0.03976,0.12614,0.48706
0.0489868,0,0,14.951,14.951,15.049,15.049,-0.163289,2.53576,2.27348,0.188082,0.0278617,-0.161738,1,0,3.7625,0.175,-2.52,0.193004,0.042822,-1.17218,-0.03976,0.12614,0.48706
0.0489101,0,0,14.9511,14.9511,15.0489,15.0489,-0.163034,2.53572,2.26984,0.188082,0.0278662,-0.161738,1,0,3.7625,0.175,-2.52,0.193004,0.042822,-1.17218,-0.03976,0.12614,0.48706
-0.0113824,0,0,15.0114,15.0114,14.9886,14.9886,0.0379413,2.60319,2.18609,0.063355,-0.183328,-0.00244566,0,0,3.7275,-1.155,-1.645,0.06893,-0.171654,-1.01406,-0.03976,0.12614,0.48706
-0.0705354,0,0,15.0705,15.0705,14.9295,14.9295,0.235118,2.66934,2.10281,0.0622017,-0.179891,-0.00250696,0,0,3.7275,-1.155,-1.645,0.06893,-0.171654,-1.01406,-0.03976,0.12614,0.48706
-0.0706967,0,0,15.0707,15.0707,14.9293,14.9293,0.235656,2.67631,2.10138,-0.299947,0.0384811,-0.160501,1,0,3.8675,4.27,-1.2425,-0.29463,0.046482,-1.17083,-0.03976,0.12614,0.48706
-0.070858,0,0,15.0709,15.0709,14.9291,14.9291,0.236193,2.68329,2.09996,-0.300069,0.0384905,-0.160507,1,0,3.8675,4.27,-1.2425,-0.29463,0.046482,-1.17083,-0.03976,0.12614,0.48706
-0.0285235,0,0,15.0285,15.0285,14.9715,14.9715,0.0950782,2.5712,2.19204,-0.0965699,0.125061,0.0170042,0,0,3.7275,-0.07,-0.1925,-0.092232,0.13542,-0.994788,-0.04256,0.12516,0.4956
-0.0293563,0,0,15.0294,15.0294,14.9706,14.9706,0.0978544,2.57013,2.19245,-0.247801,0.124499,-0.0813538,1,0,5.075,-0.4375,-0.1575,-0.244122,0.13481,-1.09239,-0.04256,0.12516,0.4956
-0.0301892,0,0,15.0302,15.0302,14.9698,14.9698,0.100631,2.56907,2.19285,-0.247782,0.124547,-0.0813531,1,0,5.075,-0.4375,-0.1575,-0.244122,0.13481,-1.09239,-0.04256,0.12516,0.4956
-0.0311277,0,0,15.0311,15.0311,14.9689,14.9689,0.103759,2.5683,2.19485,0.417487,0.26981,-0.0625414,1,0,5.2325,-0.2625,0.77,0.42395,0.279868,-1.07372,-0.04256,0.12516,0.4956
-0.0317088,0,0,15.0317,15.0317,14.9683,14.9683,0.105696,2.56717,2.19673,-0.161251,0.0275446,-0.2118,1,0,4.5675,-0.4725,0.7,-0.157258,0.03782,-1.22183,-0.04256,0.12516,0.4956
-0.0321588,0,0,15.0322,15.0322,14.9678,14.9678,0.107196,2.56613,2.19861,-0.161233,0.0275707,-0.211799,1,0,4.3225,-0.42,0.7,-0.157258,0.03782,-1.22183,-0.04256,0.12516,0.4956
-0.0328831,0,0,15.0329,15.0329,14.9671,14.9671,0.10961,2.56553,2.2007,0.31002,-0.211145,-0.0758179,1,0,4.83,-0.1575,0.8225,0.31598,-0.20069,-1.0869,-0.04256,0.12516,0.4956
-0.0333139,0,0,15.0333,15.0333,14.9667,14.9667,0.111046,2.56646,2.20325,0.310004,-0.21112,-0.0758187,1,0,4.27,0.735,1.085,0.31598,-0.20069,-1.0869,-0.04592,0.12796,0.4921
-0.0336088,0,0,15.0336,15.0336,14.9664,14.9664,0.112029,2.56787,2.20543,-0.200747,-0.162863,-0.108401,1,0,4.025,1.015,0.875,-0.196908,-0.1525,-1.11923,-0.04592,0.12796,0.4921
-0.0340987,0,0,15.0341,15.0341,14.9659,14.9659,0.113662,2.56904,2.20681,-0.200767,-0.162834,-0.108402,1,0,4.41,0.875,0.4025,-0.196908,-0.1525,-1.11923,-0.04592,0.12796,0.4921
0.0454599,0,0,14.9545,14.9545,15.0455,15.0455,-0.151533,2.70704,2.06317,0.113419,0.240812,0.0345975,0,0,4.1125,0.63,0.525,0.121024,0.255346,-0.97722,-0.04592,0.12796,0.4921
0.123875,0,0,14.8761,14.8761,15.1239,15.1239,-0.412917,2.84198,1.91752,0.111066,0.236256,0.0344611,0,0,3.5525,0.455,-0.1225,0.121024,0.255346,-0.97722,-0.04592,0.12796,0.4921
0.124014,0,0,14.876,14.876,15.124,15.124,-0.413381,2.8425,1.91802,-0.228374,0.246384,-0.059718,1,0,3.255,0.49,-0.105,-0.219844,0.265472,-1.07067,-0.04592,0.12796,0.4921
0.124655,0,0,14.8753,14.8753,15.1247,15.1247,-0.415515,2.8431,1.91756,-0.228384,0.246347,-0.0597187,1,0,2.345,0.5425,-0.665,-0.219844,0.265472,-1.07067,-0.04592,0.12796,0.4921
0.124661,0,0,14.8753,14.8753,15.1247,15.1247,-0.415536,2.84293,1.91692,0.114816,-0.0746024,-0.233076,1,0,3.535,0.0875,-0.77,0.124806,-0.055144,-1.24269,-0.04592,0.12796,0.4921
0.124408,0,0,14.8756,14.8756,15.1244,15.1244,-0.414693,2.84346,1.91543,0.114807,-0.0745877,-0.233076,1,0,4.0425,0.5075,-1.26,0.124806,-0.055144,-1.24269,-0.04592,0.12796,0.4921
0.210148,0,0,14.7899,14.7899,15.2101,15.2101,-0.700494,2.64216,2.07886,-0.195603,0.281191,-0.0367309,0,0,4.5675,0.5425,-1.2425,-0.190442,0.305244,-1.04798,-0.04746,0.1358,0.50092
0.209062,0,0,14.7909,14.7909,15.2091,15.2091,-0.696875,2.64284,2.07722,-0.274095,-0.0644868,-0.0845576,1,0,5.6,0.595,-1.3475,-0.269254,-0.040138,-1.09544,-0.04746,0.1358,0.50092
0.208618,0,0,14.7914,14.7914,15.2086,15.2086,-0.695393,2.64363,2.07528,-0.274108,-0.064461,-0.084558,1,0,4.41,0.665,-1.5225,-0.269254,-0.040138,-1.09544,-0.04746,0.1358,0.50092
0.124497,0,0,14.8755,14.8755,15.1245,15.1245,-0.414989,2.74241,1.94732,0.097738,-0.269508,-0.0277894,0,0,3.8675,1.1375,-1.715,0.105896,-0.249856,-1.03907,-0.04746,0.1358,0.50092
0.0425887,0,0,14.9574,14.9574,15.0426,15.0426,-0.141962,2.83795,1.8208,0.0960724,-0.264748,-0.0278474,0,0,2.6075,0.315,-1.4875,0.105896,-0.249856,-1.03907,-0.04746,0.1358,0.50092
0.0435487,0,0,14.9565,14.9565,15.0435,15.0435,-0.145162,2.83828,1.81899,0.116233,0.0519931,0.166288,1,0,1.785,0.385,-1.4525,0.126148,0.066612,-0.846436,-0.04746,0.1358,0.50092
0.0439339,0,0,14.9561,14.9561,15.0439,15.0439,-0.146446,2.83653,1.81742,0.116264,0.0519707,0.166289,1,0,2.8525,-0.84,-1.3125,0.126148,0.066612,-0.846436,-0.04746,0.1358,0.50092
0.0443877,0,0,14.9556,14.9556,15.0444,15.0444,-0.147959,2.83498,1.81565,-0.249746,-0.161411,0.177233,1,0,2.73,-0.7175,-1.435,-0.241438,-0.146522,-0.835578,-0.0469,0.13776,0.50918
0.0252453,0,0,14.9748,14.9748,15.0252,15.0252,-0.0841511,2.70021,1.90307,-0.11522,-0.0602771,-0.0433438,0,0,3.6575,-1.155,-1.085,-0.108702,-0.046604,-1.05457,-0.0469,0.13776,0.50918
0.00605904,0,0,14.9939,14.9939,15.0061,15.0061,-0.0201968,2.57011,1.99152,-0.112951,-0.0591622,-0.0432384,0,0,4.3925,-0.035,-0.245,-0.108702,-0.046604,-1.05457,-0.0469,0.13776,0.50918
-0.0110247,0,0,15.011,15.011,14.989,14.989,0.0367489,2.95458,1.59679,0.29607,-0.0462011,0.152049,0,0,4.48,0.385,-0.14,0.308782,-0.034648,-0.860466,-0.0469,0.13776,0.50918
-0.0278009,0,0,15.0278,15.0278,14.9722,14.9722,0.0926697,3.33166,1.2032,0.289499,-0.045227,0.151687,0,0,4.515,0.3325,-0.105,0.308782,-0.034648,-0.860466,-0.0469,0.13776,0.50918
-0.0278999,0,0,15.0279,15.0279,14.9721,14.9721,0.0929997,3.33182,1.20439,-0.0238156,-0.0442442,-0.301993,1,0,3.675,0.28,0.2975,-0.005856,-0.033672,-1.31065,-0.0469,0.13776,0.50918
-0.0277871,0,0,15.0278,15.0278,14.9722,14.9722,0.0926238,3.33102,1.20525,-0.0238017,-0.0442507,-0.301992,1,0,3.29,-0.28,0.105,-0.005856,-0.033672,-1.31065,-0.0469,0.13776,0.50918
-0.170148,0,0,15.1701,15.1701,14.8299,14.8299,0.567159,3.57828,0.933427,0.204657,-0.405297,0.192568,0,0,2.975,0.035,0.105,0.227896,-0.4026,-0.819596,-0.0469,0.13776,0.50918
-0.310247,0,0,15.3102,15.3102,14.6898,14.6898,1.03416,3.82016,0.667299,0.200444,-0.397167,0.192182,0,0,3.045,-0.4025,0.3675,0.227896,-0.4026,-0.819596,-0.04466,0.13678,0.50806
-0.429923,0,0,15.4299,15.4299,14.5701,14.5701,1.43308,3.76482,0.673696,-0.0334236,-0.366039,0.0627545,0,0,2.5025,-0.455,0.4375,-0.00793,-0.378444,-0.94794,-0.04466,0.13678,0.50806
-0.547623,0,0,15.5476,15.5476,14.4524,14.4524,1.82541,3.71175,0.679464,-0.0324994,-0.359208,0.0626206,0,0,2.8175,0.0875,0.5425,-0.00793,-0.378444,-0.94794,-0.04466,0.13678,0.50806
-0.547348,0,0,15.5473,15.5473,14.4527,14.4527,1.82449,3.71236,0.681067,0.402044,-0.300114,-0.0961061,1,0,2.9575,0.5775,0.525,0.428464,-0.319396,-1.10544,-0.04466,0.13678,0.50806
-0.547873,0,0,15.5479,15.5479,14.4521,14.4521,1.82624,3.71284,0.682336,0.402036,-0.300084,-0.0961076,1,0,4.4625,0.49,0.3325,0.428464,-0.319396,-1.10544,-0.04466,0.13678,0.50806
-0.548611,0,0,15.5486,15.5486,14.4514,14.4514,1.8287,3.71308,0.683536,-0.0133278,0.0758652,0.109584,1,0,4.865,0.35,0.2975,0.011346,0.05612,-0.901336,-0.04466,0.13678,0.50806
-0.549254,0,0,15.5493,15.5493,14.4507,14.4507,1.83085,3.71403,0.684158,-0.0133443,0.0759024,0.109581,1,0,4.7075,0.7525,-0.0525,0.011346,0.05612,-0.901336,-0.04466,0.13678,0.50806
-0.549616,0,0,15.5496,15.5496,14.4504,14.4504,1.83205,3.71488,0.684807,0.419737,-0.0962753,-0.241438,1,0,4.1825,0.7,-0.035,0.446276,-0.1159,-1.24965,-0.04466,0.13678,0.50806
-0.549979,0,0,15.55,15.55,14.45,14.45,1.83326,3.71574,0.685456,0.419722,-0.0962543,-0.24144,1,0,4.1825,0.7,-0.035,0.446276,-0.1159,-1.24965,-0.04466,0.13678,0.50806
-0.549628,0,0,15.5496,15.5496,14.4504,14.4504,1.83209,3.71603,0.685065,-0.299356,-0.153186,-0.121319,1,0,2.8875,0.35,-0.63,-0.275842,-0.172752,-1.13045,-0.04942,0.1344,0.50428
-0.54944,0,0,15.5494,15.5494,14.4506,14.4506,1.83147,3.71683,0.68439,0.305021,0.0469691,0.33359,1,0,3.2025,0.6475,-0.805,0.331108,0.027206,-0.679052,-0.04942,0.1344,0.50428
-0.549269,0,0,15.5493,15.5493,14.4507,14.4507,1.8309,3.71754,0.684072,0.305009,0.0469591,0.333589,1,0,3.22,0.595,-0.595,0.331108,0.027206,-0.679052,-0.04942,0.1344,0.50428
-0.549458,0,0,15.5495,15.5495,14.4505,14.4505,1.83153,3.71872,0.683047,-0.42259,0.113651,0.264122,1,0,3.92,0.8575,-1.015,-0.39955,0.093818,-0.747982,-0.04942,0.1344,0.50428
-0.549648,0,0,15.5496,15.5496,14.4504,14.4504,1.83216,3.71989,0.682023,-0.42261,0.113662,0.26412,1,0,3.92,0.8575,-1.015,-0.39955,0.093818,-0.747982,-0.04942,0.1344,0.50428
-0.550098,0,0,15.5501,15.5501,14.4499,14.4499,1.83366,3.72028,0.681424,0.262805,-0.215321,-0.0972267,1,0,4.3925,0.4025,-0.7525,0.288774,-0.23485,-1.10654,-0.04942,0.1344,0.50428
-0.550549,0,0,15.5505,15.5505,14.4495,14.4495,1.83516,3.72067,0.680825,0.262799,-0.215295,-0.097228,1,0,4.3925,0.4025,-0.7525,0.288774,-0.23485,-1.10654,-0.04942,0.1344,0.50428
-0.5501,0,0,15.5501,15.5501,14.4499,14.4499,1.83367,3.71973,0.679733,-0.0528049,0.0472515,0.111909,1,0,2.73,-0.385,-1.015,-0.028182,0.02745,-0.899018,-0.0476,0.13188,0.49588
-0.562856,0,0,15.5629,15.5629,14.4371,14.4371,1.87619,3.79196,0.570153,0.0660864,-0.0423848,-0.0196292,0,0,2.38,-0.4025,-0.6475,0.092476,-0.06283,-1.02944,-0.0476,0.13188,0.49588
-0.575371,0,0,15.5754,15.5754,14.4246,14.4246,1.9179,3.86274,0.460859,0.0648538,-0.0416615,-0.0197356,0,0,2.38,-0.4025,-0.6475,0.092476,-0.06283,-1.02944,-0.0476,0.13188,0.49588
-0.638571,0,0,15.6386,15.6386,14.3614,14.3614,2.12857,4.01583,0.281635,0.121838,-0.178814,0.0989656,0,0,2.59,-0.07,-0.3325,0.152378,-0.203496,-0.91134,-0.0476,0.13188,0.49588
-0.700629,0,0,15.7006,15.7006,14.2994,14.2994,2.33543,4.16594,0.10376,0.119225,-0.175223,0.0986386,0,0,2.59,-0.07,-0.3325,0.152378,-0.203496,-0.91134,-0.0476,0.13188,0.49588
-0.687511,0,0,15.6875,15.6875,14.3125,14.3125,2.2917,3.94128,0.258591,-0.1954,0.0398255,-0.0409691,0,0,3.605,0.4375,-0.0175,-0.167506,0.012078,-1.05018,-0.0476,0.13188,0.49588
-0.674631,0,0,15.6746,15.6746,14.3254,14.3254,2.24877,3.72113,0.413477,-0.191566,0.0390886,-0.040683,0,0,3.605,0.4375,-0.0175,-0.167506,0.012078,-1.05018,-0.0476,0.13188,0.49588
-0.674917,0,0,15.6749,15.6749,14.3251,14.3251,2.24972,3.72034,0.414068,-0.00798736,0.114824,0.173002,1,0,4.0425,-0.2625,-0.035,0.016836,0.087718,-0.83814,-0.0476,0.13188,0.49588
-0.675204,0,0,15.6752,15.6752,14.3248,14.3248,2.25068,3.71955,0.414658,-0.00797358,0.11484,0.173002,1,0,4.0425,-0.2625,-0.035,0.016836,0.087718,-0.83814,-0.05208,0.126,0.48118
-0.674637,0,0,15.6746,15.6746,14.3254,14.3254,2.24879,3.8572,0.258166,0.105162,0.00329962,0.0619451,0,0,3.08,-0.28,-0.1575,0.132858,-0.023668,-0.948184,-0.05208,0.126,0.48118
-0.674072,0,0,15.6741,15.6741,14.3259,14.3259,2.24691,3.99201,0.101981,0.102815,0.00326053,0.0617855,0,0,3.08,-0.28,-0.1575,0.132858,-0.023668,-0.948184,-0.05208,0.126,0.48118
-0.673139,0,0,15.6731,15.6731,14.3269,14.3269,2.2438,3.99139,0.101977,-0.115363,-0.048331,0.140967,1,0,1.785,-0.175,-0.385,-0.086254,-0.075152,-0.869616,-0.05208,0.126,0.48118
-0.640788,0,0,15.6408,15.6408,14.3592,14.3592,2.13596,4.11023,-0.0460517,0.101971,0.100003,-0.0277928,0,0,2.7825,-0.105,-0.35,0.134078,0.074908,-1.037,-0.05208,0.126,0.48118
-0.608877,0,0,15.6089,15.6089,14.3911,14.3911,2.02959,4.22678,-0.19453,0.0999425,0.0981475,-0.0278733,0,0,2.52,0.0175,-0.5775,0.134078,0.074908,-1.037,-0.05208,0.126,0.48118
-0.5631,0,0,15.5631,15.5631,14.4369,14.4369,1.877,3.94646,0.0151651,-0.22817,0.130677,0.0918258,0,0,3.0625,0.4725,-0.7175,-0.200324,0.110044,-0.91866,-0.05208,0.126,0.48118
-0.518384,0,0,15.5184,15.5184,14.4816,14.4816,1.72795,3.67178,0.225946,-0.223386,0.128093,0.0922257,0,0,3.465,0.6125,-0.735,-0.200324,0.110044,-0.91866,-0.05208,0.126,0.48118
-0.453629,0,0,15.4536,15.4536,14.5464,14.5464,1.5121,3.37601,0.461057,-0.25067,0.192123,0.0662153,0,0,3.7975,1.085,-0.7875,-0.232898,0.177754,-0.94489,-0.05208,0.126,0.48118
-0.390002,0,0,15.39,15.39,14.61,14.61,1.30001,3.084,0.710939,-0.245582,0.188436,0.066593,0,0,3.7275,0.5775,-1.015,-0.232898,0.177754,-0.94489,-0.04816,0.11704,0.47866
-0.389499,0,0,15.3895,15.3895,14.6105,14.6105,1.29833,3.08422,0.709732,0.0694266,0.0915599,0.158436,1,0,2.625,0.2975,-1.1025,0.083448,0.081008,-0.853756,-0.04816,0.11704,0.47866
-0.389035,0,0,15.389,15.389,14.611,14.611,1.29678,3.08347,0.708624,0.0694396,0.091533,0.158437,1,0,2.695,-0.2625,-1.0325,0.083448,0.081008,-0.853756,-0.04816,0.11704,0.47866
-0.388458,0,0,15.3885,15.3885,14.6115,14.6115,1.29486,3.08351,0.707473,-0.194671,-0.0715398,0.114545,1,0,2.485,0.1925,-1.0675,-0.18178,-0.081862,-0.89731,-0.04816,0.11704,0.47866
-0.388152,0,0,15.3882,15.3882,14.6118,14.6118,1.29384,3.08386,0.706931,-0.194677,-0.0715575,0.114545,1,0,2.975,0.385,-0.7175,-0.18178,-0.081862,-0.89731,-0.04816,0.11704,0.47866
-0.38828,0,0,15.3883,15.3883,14.6117,14.6117,1.29427,3.0851,0.706499,0.532758,-0.175846,0.0013086,1,0,3.78,0.91,-0.665,0.548756,-0.18605,-1.00967,-0.04816,0.11704,0.47866
-0.388578,0,0,15.3886,15.3886,14.6114,14.6114,1.29526,3.08546,0.706767,0.532751,-0.175829,0.00130787,1,0,4.0775,0.4025,-0.245,0.548756,-0.18605,-1.00967,-0.04816,0.11704,0.47866
-0.429031,0,0,15.429,15.429,14.571,14.571,1.4301,3.48388,0.340194,0.29693,-0.107297,0.174088,0,0,4.515,1.2425,-0.0175,0.318908,-0.119926,-0.837774,-0.04816,0.11704,0.47866
-0.46637,0,0,15.4664,15.4664,14.5336,14.5336,1.55457,3.87399,-0.0247667,0.290135,-0.105141,0.173595,0,0,0.035,0.5075,0.385,0.318908,-0.119926,-0.837774,-0.04956,0.11816,0.4774
-0.466792,0,0,15.4668,15.4668,14.5332,14.5332,1.55597,3.87443,-0.0230505,-0.227158,0.123016,-0.199186,1,0,4.2525,0.4725,0.595,-0.200568,0.10797,-1.20768,-0.04956,0.11816,0.4774
-0.467175,0,0,15.4672,15.4672,14.5328,14.5328,1.55725,3.87351,-0.0209503,-0.227142,0.123038,-0.199186,1,0,4.165,-0.315,0.84,-0.200568,0.10797,-1.20768,-0.04956,0.11816,0.4774
-0.482951,0,0,15.483,15.483,14.517,14.517,1.60984,3.87984,-0.0445399,0.00697178,-0.0472683,0.00499905,0,0,3.885,-0.4375,0.91,0.034648,-0.063074,-1.00504,-0.04956,0.11816,0.4774
-0.498389,0,0,15.4984,15.4984,14.5016,14.5016,1.6613,3.88746,-0.0678073,0.00683924,-0.0463728,0.00496448,0,0,3.7975,0.385,1.0675,0.034648,-0.063074,-1.00504,-0.04956,0.11816,0.4774
-0.49865,0,0,15.4987,15.4987,14.5013,14.5013,1.66217,3.88737,-0.0657145,0.176799,0.0115304,0.26414,1,0,3.9375,0.175,0.8225,0.205326,-0.005246,-0.74786,-0.04956,0.11816,0.4774
-0.499319,0,0,15.4993,15.4993,14.5007,14.5007,1.6644,3.88827,-0.0634127,0.176783,0.0115692,0.264137,1,0,4.69,0.7525,0.9275,0.205326,-0.005246,-0.74786,-0.04956,0.11816,0.4774
-0.50001,0,0,15.5,15.5,14.5,14.5,1.6667,3.88771,-0.0613638,-8.99443e-05,0.0378665,0.171188,1,0,4.7425,-0.105,0.805,0.027694,0.020984,-0.840092,-0.04956,0.11816,0.4774
-0.501003,0,0,15.501,15.501,14.499,14.499,1.67001,3.88791,-0.060556,-9.33331e-05,0.0379242,0.171186,1,0,5.355,0.315,0.07,0.027694,0.020984,-0.840092,-0.04494,0.11662,0.4788
-0.502222,0,0,15.5022,15.5022,14.4978,14.4978,1.67407,3.88631,-0.0606427,0.266231,0.340014,-0.0750801,1,0,5.81,-0.7525,-0.42,0.295118,0.32269,-1.08446,-0.04494,0.11662,0.4788
-0.502864,0,0,15.5029,15.5029,14.4971,14.4971,1.67621,3.88556,-0.0614862,0.266244,0.340052,-0.0750803,1,0,4.76,-0.2625,-0.875,0.295118,0.32269,-1.08446,-0.04494,0.11662,0.4788
-0.503354,0,0,15.5034,15.5034,14.4966,14.4966,1.67785,3.8837,-0.0628738,-0.142158,0.0042316,-0.14516,1,0,4.4975,-0.9275,-1.1725,-0.115046,-0.01281,-1.154,-0.04494,0.11662,0.4788
-0.503196,0,0,15.5032,15.5032,14.4968,14.4968,1.67732,3.88227,-0.0657523,-0.142133,0.00422247,-0.145158,1,0,3.3425,-0.7,-2.0475,-0.115046,-0.01281,-1.154,-0.04494,0.11662,0.4788
-0.50324,0,0,15.5032,15.5032,14.4968,14.4968,1.67747,3.88141,-0.0688244,0.129402,-0.100682,-0.136058,1,0,3.7275,-0.3675,-2.17,0.157624,-0.117608,-1.14497,-0.04494,0.11662,0.4788
-0.50315,0,0,15.5031,15.5031,14.4969,14.4969,1.67717,3.88041,-0.0720512,0.12942,-0.100687,-0.136057,1,0,3.4825,-0.455,-2.2575,0.157624,-0.117608,-1.14497,-0.04494,0.11662,0.4788
-0.503563,0,0,15.5036,15.5036,14.4964,14.4964,1.67854,3.8806,-0.075363,-0.160813,-0.114097,0.229099,1,0,4.4275,0.245,-2.3275,-0.133834,-0.131028,-0.78263,-0.04494,0.11662,0.4788
-0.504217,0,0,15.5042,15.5042,14.4958,14.4958,1.68072,3.88073,-0.0792785,-0.160815,-0.114059,0.229098,1,0,4.9,0.1925,-2.6775,-0.133834,-0.131028,-0.78263,-0.0504,0.10948,0.47782
-0.503867,0,0,15.5039,15.5039,14.4961,14.4961,1.67956,3.84328,-0.0560698,-0.0345471,0.00499549,0.0637765,0,0,5.04,0.4725,-2.8,-0.007686,-0.012078,-0.94672,-0.0504,0.10948,0.47782
-0.503453,0,0,15.5035,15.5035,14.4965,14.4965,1.67818,3.80734,-0.0317052,-0.0339212,0.00497273,0.0638191,0,0,4.865,0.9275,-2.1175,-0.007686,-0.012078,-0.94672,-0.0504,0.10948,0.47782
-0.504081,0,0,15.5041,15.5041,14.4959,14.4959,1.68027,3.80781,-0.0341969,-0.00465138,0.0764533,0.207298,1,0,4.795,0.42,-1.855,0.021716,0.059292,-0.804346,-0.0504,0.10948,0.47782
-0.50449,0,0,15.5045,15.5045,14.4955,14.4955,1.68163,3.80855,-0.0354781,-0.00466416,0.076477,0.207297,1,0,4.34,0.595,-1.155,0.021716,0.059292,-0.804346,-0.0504,0.10948,0.47782
-0.513839,0,0,15.5138,15.5138,14.4862,14.4862,1.7128,3.6953,0.063254,-0.0976936,-0.0308146,-0.0473393,0,0,4.025,0.21,-0.9275,-0.073688,-0.048434,-1.05713,-0.0504,0.10948,0.47782
-0.52545,0,0,15.5254,15.5254,14.4746,14.4746,1.7515,3.58476,0.163523,-0.0957683,-0.0301371,-0.0472372,0,0,8.5225,0.49,0.1575,-0.073688,-0.048434,-1.05713,-0.0504,0.10948,0.47782
-0.525945,0,0,15.5259,15.5259,14.4741,14.4741,1.75315,3.58561,0.165283,-0.260761,0.0651505,0.311402,1,0,4.3925,0.7175,0.6125,-0.239364,0.046726,-0.701256,-0.0504,0.10948,0.47782
-0.528873,0,0,15.5289,15.5289,14.4711,14.4711,1.76291,3.58594,0.16844,-0.260766,0.0653204,0.311396,1,0,8.89,0.4375,1.435,-0.239364,0.046726,-0.701256,-0.04564,0.10794,0.4725
-0.529286,0,0,15.5293,15.5293,14.4707,14.4707,1.76429,3.58695,0.171828,0.122017,0.195776,-0.149417,1,0,4.1825,0.84,1.5575,0.145058,0.177022,-1.15851,-0.04564,0.10794,0.4725
-0.529656,0,0,15.5297,15.5297,14.4703,14.4703,1.76552,3.58676,0.176352,0.122021,0.195797,-0.149417,1,0,4.06,0.1575,2.24,0.145058,0.177022,-1.15851,-0.04564,0.10794,0.4725
-0.579655,0,0,15.5797,15.5797,14.4203,14.4203,1.93218,3.42701,0.338048,-0.137119,-0.150578,0.0254925,0,0,4.48,0.42,2.7125,-0.117974,-0.171898,-0.985028,-0.04564,0.10794,0.4725
-0.629081,0,0,15.6291,15.6291,14.3709,14.3709,2.09694,3.26946,0.498191,-0.134374,-0.147703,0.0255521,0,0,5.18,-0.14,2.625,-0.117974,-0.171898,-0.985028,-0.04564,0.10794,0.4725
-0.628746,0,0,15.6287,15.6287,14.3713,14.3713,2.09582,3.11844,0.646728,-0.12579,0.00457452,0.0475844,0,0,4.69,0.6125,2.5025,-0.111996,-0.019764,-0.963312,-0.04564,0.10794,0.4725
-0.628476,0,0,15.6285,15.6285,14.3715,14.3715,2.09492,2.96948,0.794098,-0.123194,0.00456389,0.0477229,0,0,4.8475,0.0175,1.995,-0.111996,-0.019764,-0.963312,-0.04564,0.10794,0.4725
-0.600731,0,0,15.6007,15.6007,14.3993,14.3993,2.00244,3.30893,0.491412,0.274102,0.0869648,0.0962668,0,0,4.3575,0.2975,1.7325,0.292922,0.064172,-0.914878,-0.04564,0.10794,0.4725
-0.573117,0,0,15.5731,15.5731,14.4269,14.4269,1.91039,3.64203,0.18699,0.268299,0.0853502,0.0959693,0,0,3.815,0.3675,0.9975,0.292922,0.064172,-0.914878,-0.04564,0.10794,0.4725
-0.57055,0,0,15.5706,15.5706,14.4294,14.4294,1.90183,3.5314,0.285124,-0.0955676,0.0071662,-0.0462793,0,0,3.78,0.14,0.49,-0.07442,-0.013786,-1.05615,-0.04956,0.10976,0.47698
-0.568355,0,0,15.5684,15.5684,14.4316,14.4316,1.89452,3.42269,0.381601,-0.0936738,0.00704259,-0.0461601,0,0,4.445,-0.07,-0.385,-0.07442,-0.013786,-1.05615,-0.04956,0.10976,0.47698
-0.577472,0,0,15.5775,15.5775,14.4225,14.4225,1.92491,3.44313,0.362447,0.0225963,-0.0297997,-0.0640266,0,0,4.935,0.0875,-1.3825,0.0427,-0.051118,-1.07384,-0.04956,0.10976,0.47698
-0.58642,0,0,15.5864,15.5864,14.4136,14.4136,1.95473,3.46316,0.343319,0.0222473,-0.0292811,-0.0640653,0,0,4.935,0.0875,-1.3825,0.0427,-0.051118,-1.07384,-0.04956,0.10976,0.47698
-0.587272,0,0,15.5873,15.5873,14.4127,14.4127,1.95757,3.4635,0.338962,0.0633036,-0.0475507,-0.155418,1,0,5.2675,0.2975,-2.94,0.083936,-0.069418,-1.16449,-0.04956,0.10976,0.47698
-0.588123,0,0,15.5881,15.5881,14.4119,14.4119,1.96041,3.46384,0.334604,0.0632978,-0.0475013,-0.15542,1,0,5.2675,0.2975,-2.94,0.083936,-0.069418,-1.16449,-0.04956,0.10976,0.47698
-0.585012,0,0,15.585,15.585,14.415,14.415,1.95004,3.60303,0.199655,0.134007,0.00751435,-0.0687619,0,0,3.4475,-0.4725,-3.64,0.15738,-0.014274,-1.07836,-0.04956,0.10976,0.47698
-0.581946,0,0,15.5819,15.5819,14.4181,14.4181,1.93982,3.73942,0.064908,0.131632,0.00733128,-0.0689082,0,0,3.4475,-0.4725,-3.64,0.15738,-0.014274,-1.07836,-0.04956,0.10976,0.47698
-0.555462,0,0,15.5555,15.5555,14.4445,14.4445,1.85154,3.5649,0.197487,-0.142802,0.0756574,0.0896942,0,0,2.4675,0.105,-3.5175,-0.121268,0.05551,-0.921222,-0.04956,0.11746,0.46956
-0.555498,0,0,15.5555,15.5555,14.4445,14.4445,1.85166,3.56508,0.192252,0.127865,-0.111072,-0.158293,1,0,3.78,0.1925,-3.4475,0.150548,-0.131028,-1.1673,-0.04956,0.11746,0.46956
-0.555623,0,0,15.5556,15.5556,14.4444,14.4444,1.85208,3.56627,0.188192,0.127845,-0.111065,-0.158295,1,0,3.9025,0.805,-2.7825,0.150548,-0.131028,-1.1673,-0.04956,0.11746,0.46956
-0.556395,0,0,15.5564,15.5564,14.4436,14.4436,1.85465,3.40148,0.321409,-0.14773,-0.00329889,-0.0730411,0,0,4.69,0.5425,-2.5025,-0.129076,-0.023424,-1.08287,-0.04956,0.11746,0.46956
-0.556564,0,0,15.5566,15.5566,14.4434,14.4434,1.85521,3.24093,0.456321,-0.144932,-0.0032838,-0.0728791,0,0,3.535,1.12,-1.3825,-0.129076,-0.023424,-1.08287,-0.04956,0.11746,0.46956
-0.556495,0,0,15.5565,15.5565,14.4435,14.4435,1.85498,3.24088,0.455378,0.163885,0.0497152,-0.111977,1,0,3.43,0.14,-0.945,0.181048,0.029524,-1.12167,-0.04956,0.11746,0.46956
-0.555872,0,0,15.5559,15.5559,14.4441,14.4441,1.85291,3.24033,0.455952,0.163895,0.049679,-0.111975,1,0,2.345,-0.1225,-0.0525,0.181048,0.029524,-1.12167,-0.04956,0.11746,0.46956
-0.555372,0,0,15.5554,15.5554,14.4446,14.4446,1.85124,3.23973,0.457185,0.400924,0.00690564,-0.137915,1,0,2.555,-0.14,0.3325,0.41907,-0.013176,-1.14741,-0.04956,0.11746,0.46956
-0.555439,0,0,15.5554,15.5554,14.4446,14.4446,1.85146,3.2387,0.459847,0.400942,0.00690957,-0.137915,1,0,3.57,-0.3675,1.1725,0.41907,-0.013176,-1.14741,-0.05054,0.10556,0.47978
-0.555294,0,0,15.5553,15.5553,14.4447,14.4447,1.85098,3.23878,0.463265,-0.109543,-0.104967,0.14708,1,0,3.15,0.2975,1.5925,-0.093574,-0.124928,-0.864614,-0.05054,0.10556,0.47978
-0.555306,0,0,15.5553,15.5553,14.4447,14.4447,1.85102,3.23757,0.467634,-0.109522,-0.104966,0.147081,1,0,3.4125,-0.4375,2.17,-0.093574,-0.124928,-0.864614,-0.05054,0.10556,0.47978
-0.586316,0,0,15.5863,15.5863,14.4137,14.4137,1.95439,3.18554,0.534246,-0.0444705,-0.0953481,0.0151487,0,0,3.2725,-0.5775,2.45,-0.029158,-0.11712,-0.99552,-0.05054,0.10556,0.47978
-0.616897,0,0,15.6169,15.6169,14.3831,14.3831,2.05632,3.13545,0.600852,-0.0435975,-0.0935711,0.0151347,0,0,3.535,-0.035,2.6775,-0.029158,-0.11712,-0.99552,-0.05054,0.10556,0.47978
-0.613069,0,0,15.6131,15.6131,14.3869,14.3869,2.04356,3.09999,0.648766,-0.0318028,0.0145343,0.0775112,0,0,3.9025,0.14,2.66,-0.017934,-0.008906,-0.933666,-0.05054,0.10556,0.47978
-0.608997,0,0,15.609,15.609,14.391,14.391,2.02999,3.06621,0.696325,-0.0312142,0.014299,0.0775513,0,0,3.325,0.7,2.4675,-0.017934,-0.008906,-0.933666,-0.05054,0.10556,0.47978
-0.625501,0,0,15.6255,15.6255,14.3745,14.3745,2.085,3.09299,0.691347,0.0149697,-0.0429982,0.100237,0,0,3.2725,0.1575,2.0475,0.028914,-0.0671,-0.911096,-0.05054,0.10556,0.47978
-0.641928,0,0,15.6419,15.6419,14.3581,14.3581,2.13976,3.11825,0.680364,0.0145294,-0.0420454,0.100178,0,0,3.7275,-0.2275,1.575,0.028914,-0.0671,-0.911096,-0.04816,0.10892,0.47026
-0.558352,0,0,15.5584,15.5584,14.4416,14.4416,1.86117,3.16829,0.629224,0.0482807,0.274783,-0.0253536,0,0,3.5175,0.14,1.015,0.063684,0.254248,-1.03578,-0.04816,0.10892,0.47026
-0.476253,0,0,15.4763,15.4763,14.5237,14.5237,1.58751,3.21735,0.577996,0.0474259,0.270015,-0.0252577,0,0,3.5175,0.14,1.015,0.063684,0.254248,-1.03578,-0.04816,0.10892,0.47026
-0.452984,0,0,15.453,15.453,14.547,14.547,1.50995,2.9435,0.83087,-0.243012,0.0738781,-0.0109483,0,0,3.71,0.175,-0.455,-0.232776,0.059658,-1.02187,-0.04816,0.10892,0.47026
-0.430118,0,0,15.4301,15.4301,14.5699,14.5699,1.43373,2.67492,1.08412,-0.23833,0.0725557,-0.0106845,0,0,3.71,0.175,-0.455,-0.232776,0.059658,-1.02187,-0.04816,0.10892,0.47026
-0.429978,0,0,15.43,15.43,14.57,14.57,1.43326,2.67625,1.08259,-0.064264,-0.258782,-0.202854,1,0,3.3075,0.945,-1.3125,-0.05795,-0.271328,-1.21256,-0.04816,0.10892,0.47026
-0.429838,0,0,15.4298,15.4298,14.5702,14.5702,1.43279,2.67759,1.08105,-0.0642872,-0.25879,-0.202855,1,0,3.3075,0.945,-1.3125,-0.05795,-0.271328,-1.21256,-0.04816,0.10892,0.47026
-0.443126,0,0,15.4431,15.4431,14.5569,14.5569,1.47709,3.09877,0.704955,0.319555,-0.0360016,0.17851,0,0,2.065,0.735,-2.5025,0.33489,-0.049532,-0.833748,-0.04816,0.10892,0.47026
-0.442307,0,0,15.4423,15.4423,14.5577,14.5577,1.47436,3.09819,0.701025,0.239263,0.100855,-0.189227,1,0,2.1175,-0.21,-2.6775,0.254248,0.08723,-1.19865,-0.0476,0.11116,0.46774
-0.441646,0,0,15.4416,15.4416,14.5584,14.5584,1.47215,3.09737,0.696427,0.239277,0.100817,-0.189225,1,0,2.4325,-0.3675,-3.0625,0.254248,0.08723,-1.19865,-0.0476,0.11116,0.46774
-0.32362,0,0,15.3236,15.3236,14.6764,14.6764,1.07873,2.97083,0.794073,-0.118722,0.400624,-0.0187948,0,0,3.2025,0.42,-3.5175,-0.107482,0.393572,-1.0298,-0.0476,0.11116,0.46774
-0.350003,0,0,15.35,15.35,14.65,14.65,1.16668,3.01496,0.757862,0.0362532,-0.0823208,0.0186343,0,0,3.01,0.4725,-3.4125,0.048922,-0.090402,-0.992592,-0.0476,0.11116,0.46774
-0.376104,0,0,15.3761,15.3761,14.6239,14.6239,1.25368,3.05864,0.722225,0.035492,-0.0808056,0.0185619,0,0,3.3775,0.735,-3.15,0.048922,-0.090402,-0.992592,-0.0476,0.11116,0.46774
-0.375895,0,0,15.3759,15.3759,14.6241,14.6241,1.25298,3.06015,0.717742,-0.209935,-0.0946181,-0.222418,1,0,3.2725,1.015,-3.0275,-0.197518,-0.104188,-1.23171,-0.0476,0.11116,0.46774
-0.375673,0,0,15.3757,15.3757,14.6243,14.6243,1.25224,3.06024,0.71419,-0.209937,-0.094631,-0.222418,1,0,3.22,0.1925,-2.4675,-0.197518,-0.104188,-1.23171,-0.0476,0.11116,0.46774
-0.334666,0,0,15.3347,15.3347,14.6653,14.6653,1.11555,3.17562,0.602189,0.0966258,0.125256,0.0395248,0,0,3.08,0.245,-1.995,0.112362,0.117852,-0.97173,-0.0476,0.11116,0.46774
-0.294203,0,0,15.2942,15.2942,14.7058,14.7058,0.980676,3.28669,0.501297,0.0946903,0.122904,0.0394586,0,0,2.6775,-0.245,-1.1725,0.112362,0.117852,-0.97173,-0.04914,0.10472,0.47586
-0.293655,0,0,15.2937,15.2937,14.7063,14.7063,0.978852,3.28617,0.500858,-0.160906,-0.0300306,-0.10562,1,0,2.52,-0.1225,-0.6475,-0.144326,-0.034892,-1.11569,-0.04914,0.10472,0.47586
-0.293194,0,0,15.2932,15.2932,14.7068,14.7068,0.977315,3.28455,0.502172,-0.160878,-0.0300574,-0.105618,1,0,2.625,-0.7525,0.385,-0.144326,-0.034892,-1.11569,-0.04914,0.10472,0.47586
-0.292649,0,0,15.2926,15.2926,14.7074,14.7074,0.975496,3.28365,0.50455,0.0661943,-0.234773,0.175936,1,0,2.4325,-0.315,0.9975,0.083692,-0.239364,-0.83631,-0.04914,0.10472,0.47586
-0.292564,0,0,15.2926,15.2926,14.7074,14.7074,0.975212,3.28272,0.508671,0.0662104,-0.234778,0.175937,1,0,3.2375,-0.315,2.0125,0.083692,-0.239364,-0.83631,-0.04914,0.10472,0.47586
-0.292565,0,0,15.2926,15.2926,14.7074,14.7074,0.975217,3.28142,0.513476,-0.0216011,0.0216879,0.179873,1,0,3.3775,-0.525,2.415,-0.004514,0.016836,-0.832406,-0.04914,0.10472,0.47586
-0.292733,0,0,15.2927,15.2927,14.7073,14.7073,0.975775,3.2807,0.519763,-0.0215885,0.0216976,0.179873,1,0,3.64,-0.175,3.2725,-0.004514,0.016836,-0.832406,-0.04914,0.10472,0.47586
-0.275356,0,0,15.2754,15.2754,14.7246,14.7246,0.917855,3.37971,0.439953,0.0958638,0.0584241,-0.0460669,0,0,4.2,-0.1225,3.22,0.115168,0.054534,-1.05652,-0.04914,0.10472,0.47586
-0.25836,0,0,15.2584,15.2584,14.7416,14.7416,0.8612,3.47764,0.350424,0.0941576,0.0574356,-0.0461538,0,0,4.3225,0.42,3.22,0.115168,0.054534,-1.05652,-0.04424,0.11032,0.47586
-0.258902,0,0,15.2589,15.2589,14.7411,14.7411,0.863007,3.47822,0.356373,-0.249657,-0.00530611,-0.397665,1,0,4.34,0.5775,3.0625,-0.230092,-0.008174,-1.40532,-0.04424,0.11032,0.47586
-0.259286,0,0,15.2593,15.2593,14.7407,14.7407,0.864288,3.47845,0.361355,-0.249661,-0.0052838,-0.397665,1,0,4.0775,0.3675,2.5025,-0.230092,-0.008174,-1.40532,-0.04424,0.11032,0.47586
-0.259656,0,0,15.2597,15.2597,14.7403,14.7403,0.86552,3.47822,0.365518,0.116865,0.0714332,0.18634,1,0,4.0775,0.0875,2.03,0.137982,0.068442,-0.825818,-0.04424,0.11032,0.47586
-0.259607,0,0,15.2596,15.2596,14.7404,14.7404,0.865358,3.4777,0.368325,0.116874,0.0714304,0.186341,1,0,3.3425,-0.0875,1.2425,0.137982,0.068442,-0.825818,-0.04424,0.11032,0.47586
-0.259474,0,0,15.2595,15.2595,14.7405,14.7405,0.864914,3.47781,0.37009,0.0699791,0.0559126,0.131997,1,0,3.22,0.2625,0.63,0.09089,0.052948,-0.879742,-0.04424,0.11032,0.47586
-0.259047,0,0,15.259,15.259,14.741,14.741,0.863489,3.4783,0.369577,0.0699705,0.0558878,0.131997,1,0,2.7475,0.4725,-0.7,0.09089,0.052948,-0.879742,-0.04424,0.11032,0.47586
-0.256603,0,0,15.2566,15.2566,14.7434,14.7434,0.855344,3.33422,0.500401,-0.126027,0.00555403,0.0356343,0,0,2.2575,0.4025,-1.295,-0.108458,0.002806,-0.975512,-0.04424,0.11032,0.47586
-0.254869,0,0,15.2549,15.2549,14.7451,14.7451,0.849564,3.19268,0.635609,-0.123561,0.00545543,0.0357764,0,0,3.57,0.6125,-2.3275,-0.108458,0.002806,-0.975512,-0.04704,0.10682,0.46998
-0.254734,0,0,15.2547,15.2547,14.7453,14.7453,0.849113,3.19336,0.631223,-0.20679,-0.0459678,-0.134262,1,0,3.4125,0.5425,-2.9575,-0.192028,-0.048556,-1.14424,-0.04704,0.10682,0.46998
-0.255195,0,0,15.2552,15.2552,14.7448,14.7448,0.850649,3.1944,0.625552,-0.206808,-0.0459411,-0.134263,1,0,4.5675,0.7525,-3.71,-0.192028,-0.048556,-1.14424,-0.04704,0.10682,0.46998
-0.272622,0,0,15.2726,15.2726,14.7274,14.7274,0.908739,3.15843,0.665203,-0.031728,-0.0582402,-0.0666224,0,0,4.515,0.7175,-3.99,-0.016836,-0.061854,-1.07714,-0.04704,0.10682,0.46998
-0.289368,0,0,15.2894,15.2894,14.7106,14.7106,0.96456,3.12269,0.704303,-0.0311051,-0.0572669,-0.0666042,0,0,3.85,0.4375,-4.2,-0.016836,-0.061854,-1.07714,-0.04704,0.10682,0.46998
-0.241962,0,0,15.242,15.242,14.758,14.758,0.806541,3.17473,0.651071,0.0430661,0.147228,0.0431815,0,0,4.7775,0.4725,-4.06,0.05856,0.14518,-0.968192,-0.04704,0.10682,0.46998
-0.195278,0,0,15.1953,15.1953,14.8047,14.8047,0.650926,3.2253,0.598412,0.0421848,0.144516,0.0431667,0,0,4.515,0.21,-3.6925,0.05856,0.14518,-0.968192,-0.04704,0.10682,0.46998
-0.195602,0,0,15.1956,15.1956,14.8044,14.8044,0.652007,3.22651,0.595232,-0.203359,0.130368,-0.113102,1,0,4.235,0.875,-2.2575,-0.188002,0.131028,-1.12325,-0.04704,0.10682,0.46998
-0.195926,0,0,15.1959,15.1959,14.8041,14.8041,0.653088,3.22772,0.592052,-0.20338,0.130387,-0.113104,1,0,4.235,0.875,-2.2575,-0.188002,0.131028,-1.12325,-0.04872,0.10374,0.46256
-0.24218,0,0,15.2422,15.2422,14.7578,14.7578,0.807267,3.00238,0.823361,-0.207835,-0.149525,-0.00694255,0,0,4.4625,0.4025,-0.98,-0.19642,-0.15128,-1.01809,-0.04872,0.10374,0.46256
-0.287591,0,0,15.2876,15.2876,14.7124,14.7124,0.958637,2.78126,1.053,-0.203981,-0.146884,-0.00678853,0,0,4.4625,0.4025,-0.98,-0.19642,-0.15128,-1.01809,-0.04872,0.10374,0.46256
-0.287926,0,0,15.2879,15.2879,14.7121,14.7121,0.959753,2.78019,1.0552,0.151383,-0.0975252,-0.202645,1,0,4.095,-0.42,0.8925,0.16043,-0.101992,-1.21244,-0.04872,0.10374,0.46256
-0.288261,0,0,15.2883,15.2883,14.7117,14.7117,0.960869,2.77912,1.05739,0.151402,-0.0975058,-0.202644,1,0,4.095,-0.42,0.8925,0.16043,-0.101992,-1.21244,-0.04872,0.10374,0.46256
-0.288229,0,0,15.2882,15.2882,14.7118,14.7118,0.960764,2.77779,1.06208,0.127493,-0.00151595,-0.267929,1,0,3.3425,-0.5425,2.345,0.136396,-0.0061,-1.27722,-0.04872,0.10374,0.46256
-0.288198,0,0,15.2882,15.2882,14.7118,14.7118,0.960659,2.77647,1.06676,0.127516,-0.00151777,-0.267928,1,0,3.3425,-0.5425,2.345,0.136396,-0.0061,-1.27722,-0.04872,0.10374,0.46256
-0.288589,0,0,15.2886,15.2886,14.7114,14.7114,0.961963,2.77504,1.07219,-0.213227,0.00925213,-0.0967825,1,0,4.1125,-0.595,2.7825,-0.205814,0.004636,-1.10739,-0.04872,0.10374,0.46256
-0.277172,0,0,15.2772,15.2772,14.7228,14.7228,0.923907,2.81854,1.05457,0.0376117,0.039242,0.0321643,0,0,5.565,-0.4725,2.59,0.046848,0.035258,-0.979416,-0.04872,0.10374,0.46256
-0.265978,0,0,15.266,15.266,14.734,14.734,0.886594,2.86143,1.03205,0.0368641,0.0385911,0.0321375,0,0,5.6,-0.35,2.415,0.046848,0.035258,-0.979416,-0.04578,0.10626,0.4641
-0.261319,0,0,15.2613,15.2613,14.7387,14.7387,0.871063,2.48706,1.39926,-0.331514,0.0168307,0.0543313,0,0,5.1625,0.1575,2.135,-0.329644,0.013786,-0.9577,-0.04578,0.10626,0.4641
-0.254147,0,0,15.2541,15.2541,14.7459,14.7459,0.847158,2.11949,1.76508,-0.325104,0.0164177,0.0545954,0,0,0.42,0.105,1.4875,-0.329644,0.013786,-0.9577,-0.04578,0.10626,0.4641
-0.234284,0,0,15.2343,15.2343,14.7657,14.7657,0.780947,2.04108,1.86544,-0.0692237,0.0653357,-0.0462793,0,0,3.6575,-0.1575,1.12,-0.074054,0.063806,-1.05786,-0.04578,0.10626,0.4641
-0.214543,0,0,15.2145,15.2145,14.7855,14.7855,0.715144,1.96408,1.96389,-0.0678807,0.0641886,-0.0462173,0,0,3.255,-0.245,-0.0525,-0.074054,0.063806,-1.05786,-0.04578,0.10626,0.4641
-0.283181,0,0,15.2832,15.2832,14.7168,14.7168,0.943936,1.91231,2.04772,-0.0533711,-0.217353,0.0296147,0,0,3.115,0.1575,-0.5075,-0.06039,-0.22143,-0.982588,-0.04578,0.10626,0.4641
-0.350974,0,0,15.351,15.351,14.649,14.649,1.16991,1.86137,2.12918,-0.0524826,-0.213411,0.0295712,0,0,3.85,0.1575,-1.4525,-0.06039,-0.22143,-0.982588,-0.04578,0.10626,0.4641
-0.383418,0,0,15.3834,15.3834,14.6166,14.6166,1.27806,1.97232,2.05776,0.0995044,-0.107597,-0.0246312,0,0,3.4475,0.4375,-1.995,0.094184,-0.117608,-1.03627,-0.04578,0.10626,0.4641
-0.415513,0,0,15.4155,15.4155,14.5845,14.5845,1.38504,2.08273,1.99587,0.0975786,-0.105733,-0.0247427,0,0,3.885,0.8225,-2.3625,0.094184,-0.117608,-1.03627,-0.04704,0.09982,0.47264
-0.415753,0,0,15.4158,15.4158,14.5842,14.5842,1.38584,2.08383,1.99271,-0.122573,0.155877,0.201973,1,0,4.0425,0.7875,-2.2575,-0.12688,0.143716,-0.8113,-0.04704,0.09982,0.47264
-0.416014,0,0,15.416,15.416,14.584,14.584,1.38671,2.08589,1.98972,-0.122608,0.155892,0.201972,1,0,4.0775,1.3475,-2.17,-0.12688,0.143716,-0.8113,-0.04704,0.09982,0.47264
-0.416562,0,0,15.4166,15.4166,14.5834,14.5834,1.38854,2.08801,1.98643,0.350298,0.153603,-0.0335998,1,0,4.62,1.3825,-2.345,0.348066,0.141398,-1.04505,-0.04704,0.09982,0.47264
-0.417268,0,0,15.4173,15.4173,14.5827,14.5827,1.39089,2.08854,1.98307,0.350289,0.153644,-0.0336012,1,0,4.9175,0.455,-2.3625,0.348066,0.141398,-1.04505,-0.04704,0.09982,0.47264
-0.418007,0,0,15.418,15.418,14.582,14.582,1.39336,2.09015,1.98007,-0.00156163,0.141963,-0.138847,1,0,4.97,1.085,-2.17,-0.005246,0.129686,-1.14948,-0.04704,0.09982,0.47264
-0.418462,0,0,15.4185,15.4185,14.5815,14.5815,1.39487,2.09126,1.97774,-0.00158101,0.14199,-0.138848,1,0,4.4275,0.805,-1.7675,-0.005246,0.129686,-1.14948,-0.04704,0.09982,0.47264
-0.407883,0,0,15.4079,15.4079,14.5921,14.5921,1.35961,2.08051,2.02362,-0.00843969,0.0348804,-0.071574,0,0,3.9025,1.4525,-1.3825,-0.012322,0.023302,-1.08275,-0.04704,0.09982,0.47264
-0.396936,0,0,15.3969,15.3969,14.6031,14.6031,1.32312,2.06798,2.06257,-0.00822115,0.0342443,-0.0715512,0,0,2.835,0.14,-0.9275,-0.012322,0.023302,-1.08275,-0.04788,0.10458,0.47656
-0.396665,0,0,15.3967,15.3967,14.6033,14.6033,1.32222,2.06773,2.06228,-0.0751553,-0.367935,-0.0628214,1,0,3.0275,0.035,-0.56,-0.079544,-0.378444,-1.07409,-0.04788,0.10458,0.47656
-0.39653,0,0,15.3965,15.3965,14.6035,14.6035,1.32177,2.06729,2.06334,-0.0751478,-0.367943,-0.0628209,1,0,3.255,-0.0525,0.2275,-0.079544,-0.378444,-1.07409,-0.04788,0.10458,0.47656
-0.463722,0,0,15.4637,15.4637,14.5363,14.5363,1.54574,2.10152,2.06718,0.024481,-0.21602,0.0179597,0,0,3.4475,-0.2275,0,0.021106,-0.23058,-0.993812,-0.04788,0.10458,0.47656
-0.529946,0,0,15.5299,15.5299,14.4701,14.4701,1.76649,2.13369,2.0715,0.0239199,-0.212172,0.0178277,0,0,3.85,-0.9275,0.28,0.021106,-0.23058,-0.993812,-0.04788,0.10458,0.47656
-0.53689,0,0,15.5369,15.5369,14.4631,14.4631,1.78963,2.25168,1.99075,0.105444,-0.0212536,0.00740877,0,0,3.7625,-1.12,0.2275,0.105042,-0.04026,-1.00406,-0.04788,0.10458,0.47656
-0.543777,0,0,15.5438,15.5438,14.4562,14.4562,1.81259,2.3683,1.9107,0.10341,-0.0208561,0.00731419,0,0,3.885,-0.56,0.5075,0.105042,-0.04026,-1.00406,-0.04788,0.10458,0.47656
-0.543783,0,0,15.5438,15.5438,14.4562,14.4562,1.81261,2.36724,1.91243,-0.143673,0.136932,-0.0995273,1,0,3.5,-0.4025,0.63,-0.143106,0.117364,-1.11008,-0.04788,0.10458,0.47656
-0.543865,0,0,15.5439,15.5439,14.4561,14.4561,1.81288,2.36504,1.91427,-0.143635,0.136937,-0.0995259,1,0,3.64,-1.0675,0.7175,-0.143106,0.117364,-1.11008,-0.04466,0.10682,0.4655
-0.622564,0,0,15.6226,15.6226,14.3774,14.3774,2.07521,2.24934,2.04895,-0.11161,-0.265292,-0.00701959,0,0,3.2375,-0.385,0.735,-0.112972,-0.289018,-1.01821,-0.04466,0.10682,0.4655
-0.699886,0,0,15.6999,15.6999,14.3001,14.3001,2.33295,2.13567,2.18215,-0.109627,-0.260798,-0.00711663,0,0,3.2375,-0.385,0.735,-0.112972,-0.289018,-1.01821,-0.04466,0.10682,0.4655
-0.736074,0,0,15.7361,15.7361,14.2639,14.2639,2.45358,2.11937,2.23192,-0.0233313,-0.115074,0.00903527,0,0,3.6575,4.13,0.56,-0.026596,-0.145546,-1.00211,-0.04466,0.10682,0.4655
-0.771614,0,0,15.7716,15.7716,14.2284,14.2284,2.57205,2.1033,2.28142,-0.023051,-0.113009,0.008955,0,0,3.6575,4.13,0.56,-0.026596,-0.145546,-1.00211,-0.04466,0.10682,0.4655
-0.697172,0,0,15.6972,15.6972,14.3028,14.3028,2.32391,2.3625,2.07008,0.214671,0.233163,0.0908474,0,0,3.64,4.1825,0.1925,0.216672,0.204594,-0.920856,-0.04466,0.10682,0.4655
-0.623954,0,0,15.624,15.624,14.376,14.376,2.07985,2.61707,1.85716,0.210232,0.228903,0.0908181,0,0,3.64,4.1825,0.1925,0.216672,0.204594,-0.920856,-0.04466,0.10682,0.4655
-0.623275,0,0,15.6233,15.6233,14.3767,14.3767,2.07758,2.61827,1.85798,-0.212073,0.214819,0.266266,1,0,2.24,0.91,0.0525,-0.2074,0.190564,-0.746762,-0.04466,0.10682,0.4655
-0.622597,0,0,15.6226,15.6226,14.3774,14.3774,2.07532,2.61948,1.85879,-0.212094,0.21478,0.266267,1,0,2.24,0.91,0.0525,-0.2074,0.190564,-0.746762,-0.0483,0.1099,0.4648
-0.629657,0,0,15.6297,15.6297,14.3703,14.3703,2.09886,2.74574,1.75687,0.106913,-0.0229611,0.0252924,0,0,2.4675,0.8225,-0.7,0.115168,-0.047336,-0.98576,-0.0483,0.1099,0.4648
-0.636584,0,0,15.6366,15.6366,14.3634,14.3634,2.12195,2.86952,1.65521,0.104755,-0.0225627,0.0251718,0,0,2.4675,0.8225,-0.7,0.115168,-0.047336,-0.98576,-0.0483,0.1099,0.4648
-0.700441,0,0,15.7004,15.7004,14.2996,14.2996,2.3348,2.73405,1.79163,-0.12237,-0.202529,0.0309216,0,0,4.1125,0.525,-1.0325,-0.11529,-0.230824,-0.980026,-0.0483,0.1099,0.4648
-0.762565,0,0,15.7626,15.7626,14.2374,14.2374,2.54188,2.9674,1.59549,0.194771,-0.192336,0.0715075,0,0,3.92,0.8575,-1.365,0.207278,-0.224236,-0.9394,-0.0483,0.1099,0.4648
-0.823619,0,0,15.8236,15.8236,14.1764,14.1764,2.7454,3.19662,1.3999,0.190776,-0.188803,0.0711291,0,0,3.9725,1.1025,-2.1175,0.207278,-0.224236,-0.9394,-0.0483,0.1099,0.4648
-0.823498,0,0,15.8235,15.8235,14.1765,14.1765,2.74499,3.19868,1.39638,-0.421184,0.224711,-0.0504687,1,0,3.4125,1.295,-2.5025,-0.407236,0.188856,-1.06006,-0.0483,0.1099,0.4648
-0.823072,0,0,15.8231,15.8231,14.1769,14.1769,2.74357,3.199,1.39365,-0.421189,0.224686,-0.0504678,1,0,2.8175,0.2975,-1.995,-0.407236,0.188856,-1.06006,-0.0483,0.1099,0.4648
-0.847858,0,0,15.8479,15.8479,14.1521,14.1521,2.82619,3.18666,1.40876,-0.0114458,-0.0834666,-0.0161002,0,0,2.8,0.91,-1.82,0.004026,-0.120414,-1.0259,-0.0483,0.1099,0.4648
-0.872114,0,0,15.8721,15.8721,14.1279,14.1279,2.90705,3.17427,1.42062,-0.0112299,-0.0820588,-0.0161587,0,0,2.66,0.875,-1.995,0.004026,-0.120414,-1.0259,-0.049,0.11172,0.4655
-0.851729,0,0,15.8517,15.8517,14.1483,14.1483,2.8391,3.34415,1.26347,0.132443,0.0636687,0.084796,0,0,2.6075,0.1925,-1.68,0.15128,0.026352,-0.925614,-0.049,0.11172,0.4655
-0.8317,0,0,15.8317,15.8317,14.1683,14.1683,2.77233,3.50875,1.10822,0.129575,0.0624986,0.0846814,0,0,2.5725,-0.8925,-0.5075,0.15128,0.026352,-0.925614,-0.049,0.11172,0.4655
-0.830942,0,0,15.8309,15.8309,14.1691,14.1691,2.76981,3.50869,1.10857,-0.181548,-0.00776829,0.135707,1,0,2.1,0.1575,-0.1925,-0.161162,-0.043798,-0.874984,-0.049,0.11172,0.4655
-0.83009,0,0,15.8301,15.8301,14.1699,14.1699,2.76697,3.50677,1.10943,-0.181515,-0.0078176,0.135712,1,0,1.9075,-0.91,0.1575,-0.161162,-0.043798,-0.874984,-0.049,0.11172,0.4655
-0.829349,0,0,15.8293,15.8293,14.1707,14.1707,2.7645,3.50451,1.1112,-0.17528,-0.110325,-0.0891566,1,0,2.0825,-1.085,0.7,-0.15494,-0.146156,-1.09812,-0.049,0.11172,0.4655
-0.829194,0,0,15.8292,15.8292,14.1708,14.1708,2.76398,3.50296,1.1138,-0.175253,-0.110334,-0.0891545,1,0,3.15,-0.6475,1.155,-0.15494,-0.146156,-1.09812,-0.049,0.11172,0.4655
-0.829327,0,0,15.8293,15.8293,14.1707,14.1707,2.76442,3.50234,1.11682,0.125557,-0.000534007,-0.235955,1,0,3.675,-0.0875,1.3825,0.147132,-0.036478,-1.24379,-0.049,0.11172,0.4655
-0.829704,0,0,15.8297,15.8297,14.1703,14.1703,2.76568,3.50179,1.1198,0.125566,-0.000512161,-0.235955,1,0,4.13,-0.0525,1.3475,0.147132,-0.036478,-1.24379,-0.0497,0.10654,0.4655
-0.829868,0,0,15.8299,15.8299,14.1701,14.1701,2.76623,3.50068,1.12244,-0.13901,0.278801,-0.138088,1,0,3.745,-0.385,1.1725,-0.118584,0.242536,-1.14668,-0.0497,0.10654,0.4655
-0.82949,0,0,15.8295,15.8295,14.1705,14.1705,2.76497,3.49955,1.12568,-0.138991,0.278779,-0.138085,1,0,2.7125,-0.385,1.5225,-0.118584,0.242536,-1.14668,-0.0497,0.10654,0.4655
-0.866982,0,0,15.867,15.867,14.133,14.133,2.88994,3.54099,1.10008,0.0289096,-0.110587,0.079136,0,0,2.275,0.1575,1.435,0.050752,-0.148596,-0.930982,-0.0497,0.10654,0.4655
-0.904067,0,0,15.9041,15.9041,14.0959,14.0959,3.01356,3.58152,1.07335,0.0282036,-0.108438,0.0789812,0,0,2.8,0.0875,0.7175,0.050752,-0.148596,-0.930982,-0.0497,0.10654,0.4655
-0.887306,0,0,15.8873,15.8873,14.1127,14.1127,2.95769,3.56781,1.08532,-0.0126197,0.0535075,0.016466,0,0,3.3775,0.14,0.1925,0.009516,0.014152,-0.99308,-0.0497,0.10654,0.4655
-0.870694,0,0,15.8707,15.8707,14.1293,14.1293,2.90231,3.55422,1.09674,-0.012383,0.0525449,0.01653,0,0,3.115,0.035,-0.1575,0.009516,0.014152,-0.99308,-0.0497,0.10654,0.4655
-0.929451,0,0,15.9295,15.9295,14.0705,14.0705,3.09817,3.79977,0.887567,0.212705,-0.188438,0.0545599,0,0,3.535,0.14,-0.7175,0.239852,-0.22997,-0.954894,-0.0497,0.10654,0.4655
-0.987307,0,0,15.9873,15.9873,14.0127,14.0127,3.29102,4.04259,0.679656,0.208477,-0.185102,0.0540834,0,0,3.78,0.4725,-1.54,0.239852,-0.22997,-0.954894,-0.05348,0.10668,0.46242
-0.987082,0,0,15.9871,15.9871,14.0129,14.0129,3.29027,4.04342,0.676833,0.0561196,-0.110251,0.416289,1,0,3.22,0.5775,-2.065,0.086864,-0.155184,-0.595482,-0.05348,0.10668,0.46242
-0.987049,0,0,15.987,15.987,14.013,14.013,3.29016,4.04436,0.672482,0.0561031,-0.110253,0.416288,1,0,3.64,0.595,-2.9575,0.086864,-0.155184,-0.595482,-0.05348,0.10668,0.46242
-0.986989,0,0,15.987,15.987,14.013,14.013,3.28996,4.0448,0.668161,0.0965502,0.182481,-0.129726,1,0,3.5875,0.2975,-2.9225,0.12749,0.13725,-1.13728,-0.05348,0.10668,0.46242
-0.987717,0,0,15.9877,15.9877,14.0123,14.0123,3.29239,4.04658,0.664339,0.0965192,0.182523,-0.129731,1,0,5.04,1.1025,-2.6775,0.12749,0.13725,-1.13728,-0.05348,0.10668,0.46242
-1.01398,0,0,16.014,16.014,13.986,13.986,3.37994,4.28919,0.447879,0.197746,-0.0762254,0.0706481,0,0,4.9175,1.0325,-2.1875,0.233386,-0.122732,-0.938058,-0.05348,0.10668,0.46242
-1.03917,0,0,16.0392,16.0392,13.9608,13.9608,3.46389,4.52709,0.233096,0.193606,-0.0747861,0.0702423,0,0,3.7625,1.1025,-1.855,0.233386,-0.122732,-0.938058,-0.05348,0.10668,0.46242
-1.03908,0,0,16.0391,16.0391,13.9609,13.9609,3.46359,4.52777,0.23147,-0.086066,0.0847061,0.109462,1,0,3.43,0.525,-1.365,-0.047458,0.0366,-0.89914,-0.05348,0.10668,0.46242
-1.038,0,0,16.038,16.038,13.962,13.962,3.45998,4.52804,0.231537,-0.0860708,0.0846434,0.109466,1,0,1.505,0.35,-0.3675,-0.047458,0.0366,-0.89914,-0.04816,0.10206,0.46634
-1.01976,0,0,16.0198,16.0198,13.9802,13.9802,3.3992,4.79048,-0.0126349,0.252318,0.0582855,-0.042315,0,0,2.0125,-0.035,0.1925,0.296948,0.011346,-1.04944,-0.04816,0.10206,0.46634
-1.0018,0,0,16.0018,16.0018,13.9982,13.9982,3.33934,5.04778,-0.256292,0.247844,0.0572238,-0.0426382,0,0,1.995,-0.0525,0.455,0.296948,0.011346,-1.04944,-0.04816,0.10206,0.46634
-0.975051,0,0,15.9751,15.9751,14.0249,14.0249,3.25017,5.01298,-0.245084,-0.0336408,0.0823027,0.0441827,0,0,2.03,-0.1925,1.1725,0.013664,0.037942,-0.963434,-0.04816,0.10206,0.46634
-0.948775,0,0,15.9488,15.9488,14.0512,14.0512,3.16258,4.97882,-0.233694,-0.033047,0.0807851,0.0443197,0,0,2.03,-0.1925,1.1725,0.013664,0.037942,-0.963434,-0.04816,0.10206,0.46634
-0.948978,0,0,15.949,15.949,14.051,14.051,3.16326,4.97804,-0.230702,0.000253731,0.0734693,-0.191372,1,0,3.7625,-0.175,1.365,0.047092,0.030622,-1.19731,-0.04816,0.10206,0.46634
-0.949181,0,0,15.9492,15.9492,14.0508,14.0508,3.16394,4.97725,-0.22771,0.000267364,0.0734811,-0.191371,1,0,3.7625,-0.175,1.365,0.047092,0.030622,-1.19731,-0.04816,0.10206,0.46634
-0.950027,0,0,15.95,15.95,14.05,14.05,3.16676,4.97576,-0.224818,-0.0954373,0.0493491,-0.261084,1,0,4.97,-0.595,1.33,-0.049044,0.006466,-1.26648,-0.04816,0.10206,0.46634
-0.95027,0,0,15.9503,15.9503,14.0497,14.0497,3.16757,4.97499,-0.222097,-0.095424,0.0493632,-0.261083,1,0,3.85,-0.175,1.2075,-0.049044,0.006466,-1.26648,-0.04648,0.09814,0.47362
-0.950687,0,0,15.9507,15.9507,14.0493,14.0493,3.16896,4.97364,-0.220252,-0.0858031,-0.0180265,0.143295,1,0,4.2175,-0.5425,0.7175,-0.039406,-0.060878,-0.865224,-0.04648,0.09814,0.47362
-0.951279,0,0,15.9513,15.9513,14.0487,14.0487,3.17093,4.97144,-0.219209,-0.0857648,-0.017992,0.143296,1,0,4.585,-1.0675,0.28,-0.039406,-0.060878,-0.865224,-0.04648,0.09814,0.47362
-0.93282,0,0,15.9328,15.9328,14.0672,14.0672,3.1094,5.1846,-0.425801,0.18533,0.0609149,0.0322496,0,0,3.5,-0.63,-0.35,0.236558,0.019032,-0.975146,-0.04648,0.09814,0.47362
-0.914783,0,0,15.9148,15.9148,14.0852,14.0852,3.04928,5.39405,-0.63308,0.18169,0.0598534,0.0319692,0,0,3.78,-0.42,-0.7875,0.236558,0.019032,-0.975146,-0.04648,0.09814,0.47362
-0.914412,0,0,15.9144,15.9144,14.0856,14.0856,3.04804,5.39289,-0.634721,0.150974,0.470178,0.285369,1,0,2.9225,-0.5425,-1.3125,0.205692,0.428952,-0.723704,-0.04648,0.09814,0.47362
-0.914719,0,0,15.9147,15.9147,14.0853,14.0853,3.04906,5.39102,-0.63658,0.151007,0.470196,0.285371,1,0,4.2,-0.9625,-1.4175,0.205692,0.428952,-0.723704,-0.04648,0.09814,0.47362
-0.893663,0,0,15.8937,15.8937,14.1063,14.1063,2.97888,5.18846,-0.478864,-0.185633,0.0704953,-0.0734946,0,0,4.445,-0.455,-1.8725,-0.135908,0.030866,-1.08019,-0.04648,0.09814,0.47362
-0.872976,0,0,15.873,15.873,14.127,14.127,2.90992,4.98973,-0.320875,-0.182178,0.0693139,-0.0731258,0,0,4.445,-0.455,-1.8725,-0.135908,0.030866,-1.08019,-0.04648,0.09814,0.47362
-0.899045,0,0,15.899,15.899,14.101,14.101,2.99682,4.96619,-0.315623,-0.0177631,-0.0874516,-0.0311197,0,0,4.55,0.7175,-1.995,0.028792,-0.127246,-1.03846,-0.04872,0.1057,0.48076
-0.899458,0,0,15.8995,15.8995,14.1005,14.1005,2.99819,4.96727,-0.317867,0.214742,-0.164734,0.309937,1,0,4.41,0.7525,-1.7325,0.2623,-0.204472,-0.700036,-0.04872,0.1057,0.48076
-0.899843,0,0,15.8998,15.8998,14.1002,14.1002,2.99948,4.96823,-0.319394,0.214725,-0.164712,0.309934,1,0,4.3225,0.7,-1.3125,0.2623,-0.204472,-0.700036,-0.04872,0.1057,0.48076
-0.899586,0,0,15.8996,15.8996,14.1004,14.1004,2.99862,4.96849,-0.320776,0.164911,0.0430109,0.168298,1,0,3.115,0.2975,-1.2075,0.21228,0.00305,-0.84058,-0.04872,0.1057,0.48076
-0.899252,0,0,15.8993,15.8993,14.1007,14.1007,2.99751,4.96963,-0.321841,0.164892,0.0429915,0.168297,1,0,2.9575,0.8225,-1.05,0.21228,0.00305,-0.84058,-0.04872,0.1057,0.48076
-0.931275,0,0,15.9313,15.9313,14.0687,14.0687,3.10425,4.99573,-0.356362,0.0133096,-0.0908401,0.098078,0,0,2.695,1.1375,-0.805,0.060512,-0.132492,-0.91012,-0.04872,0.1057,0.48076
-0.963682,0,0,15.9637,15.9637,14.0363,14.0363,3.21227,5.01987,-0.389305,0.0128898,-0.0889668,0.0979378,0,0,4.3925,0.3325,0.1225,0.060512,-0.132492,-0.91012,-0.04872,0.1057,0.48076
-0.964008,0,0,15.964,15.964,14.036,14.036,3.21336,5.02037,-0.387749,0.183326,0.0905783,-0.112921,1,0,4.06,0.525,0.49,0.231678,0.046848,-1.11935,-0.04872,0.1057,0.48076
-0.964129,0,0,15.9641,15.9641,14.0359,14.0359,3.21376,5.02075,-0.386471,0.183319,0.0905853,-0.112922,1,0,3.6925,0.455,0.3325,0.231678,0.046848,-1.11935,-0.04578,0.09562,0.48328
-0.964377,0,0,15.9644,15.9644,14.0356,14.0356,3.21459,5.0207,-0.385338,0.147482,0.269271,-0.218904,1,0,3.9375,0.1925,0.2625,0.195688,0.225334,-1.22451,-0.04578,0.09562,0.48328
-0.964851,0,0,15.9649,15.9649,14.0351,14.0351,3.21617,5.02014,-0.383811,0.147491,0.269299,-0.218905,1,0,4.34,-0.0875,0.5075,0.195688,0.225334,-1.22451,-0.04578,0.09562,0.48328
-0.965784,0,0,15.9658,15.9658,14.0342,14.0342,3.21928,5.02025,-0.382307,-0.2867,0.0693089,-0.120303,1,0,5.1975,0.2975,0.4725,-0.24034,0.025498,-1.12667,-0.04578,0.09562,0.48328
-0.966101,0,0,15.9661,15.9661,14.0339,14.0339,3.22034,5.01966,-0.380692,-0.28669,0.0693273,-0.120303,1,0,4.0425,-0.105,0.56,-0.24034,0.025498,-1.12667,-0.04578,0.09562,0.48328
-0.966497,0,0,15.9665,15.9665,14.0335,14.0335,3.22166,5.01941,-0.379299,0.0579691,-0.21606,-0.299563,1,0,4.2,0.0875,0.42,0.105774,-0.259616,-1.30455,-0.04578,0.09562,0.48328
-0.967088,0,0,15.9671,15.9671,14.0329,14.0329,3.22363,5.01838,-0.377949,0.0579869,-0.216026,-0.299563,1,0,4.5675,-0.3675,0.42,0.105774,-0.259616,-1.30455,-0.04578,0.09562,0.48328
-0.94868,0,0,15.9487,15.9487,14.0513,14.0513,3.16227,4.87681,-0.26084,-0.126639,0.0596601,-0.0329848,0,0,3.5,0.105,0.385,-0.082106,0.016836,-1.04029,-0.04578,0.09562,0.48328
-0.93098,0,0,15.931,15.931,14.069,14.069,3.10327,4.73691,-0.150413,-0.124206,0.0586467,-0.0327244,0,0,4.2525,-0.35,-0.035,-0.082106,0.016836,-1.04029,-0.04844,0.10038,0.47502
-0.886923,0,0,15.8869,15.8869,14.1131,14.1131,2.95641,4.62367,-0.0684206,-0.0989112,0.133777,0.0965446,0,0,3.2725,-0.35,-0.2975,-0.058682,0.094428,-0.912316,-0.04844,0.10038,0.47502
-0.843831,0,0,15.8438,15.8438,14.1562,14.1562,2.81277,4.5126,0.0137474,-0.0969788,0.131289,0.0968246,0,0,3.64,-0.3325,-0.525,-0.058682,0.094428,-0.912316,-0.04844,0.10038,0.47502
-0.771458,0,0,15.7715,15.7715,14.2285,14.2285,2.57153,4.78916,-0.259834,0.259873,0.251526,0.00982909,0,0,4.165,-0.28,-0.56,0.304512,0.218746,-0.998448,-0.04844,0.10038,0.47502
-0.699802,0,0,15.6998,15.6998,14.3002,14.3002,2.33267,5.0625,-0.535468,0.25512,0.247358,0.00959753,0,0,3.4475,0.7875,-0.91,0.304512,0.218746,-0.998448,-0.04844,0.10038,0.47502
-0.681167,0,0,15.6812,15.6812,14.3188,14.3188,2.27056,5.18273,-0.664049,0.0970424,0.0602729,0.0553135,0,0,3.745,0.2975,-1.0675,0.147864,0.03294,-0.952942,-0.04844,0.10038,0.47502
-0.662631,0,0,15.6626,15.6626,14.3374,14.3374,2.20877,5.29889,-0.79295,0.0950235,0.0591926,0.0551704,0,0,3.36,-0.735,-1.2425,0.147864,0.03294,-0.952942,-0.04844,0.10038,0.47502
-0.662622,0,0,15.6626,15.6626,14.3374,14.3374,2.20874,5.29806,-0.794409,-0.333564,-0.0226328,-0.114497,1,0,3.5875,-0.3325,-1.225,-0.282552,-0.0488,-1.1213,-0.04844,0.10038,0.47502
-0.662487,0,0,15.6625,15.6625,14.3375,14.3375,2.20829,5.29736,-0.79532,-0.333551,-0.0226405,-0.114496,1,0,3.325,-0.245,-0.91,-0.282552,-0.0488,-1.1213,-0.0497,0.10024,0.47838
-0.692366,0,0,15.6924,15.6924,14.3076,14.3076,2.30789,5.4033,-0.901243,0.113862,-0.109338,-0.0705977,0,0,3.6925,-0.42,-1.2075,0.168604,-0.137128,-1.0775,-0.0497,0.10024,0.47838
-0.721335,0,0,15.7213,15.7213,14.2787,14.2787,2.40445,5.50848,-1.00695,0.112034,-0.107669,-0.0708411,0,0,2.975,0.315,-1.365,0.168604,-0.137128,-1.0775,-0.0497,0.10024,0.47838
-0.721197,0,0,15.7212,15.7212,14.2788,14.2788,2.40399,5.50898,-1.00796,-0.0365514,-0.00447949,-0.129857,1,0,3.325,0.455,-0.9975,0.019398,-0.034038,-1.13606,-0.0497,0.10024,0.47838
-0.720933,0,0,15.7209,15.7209,14.2791,14.2791,2.40311,5.50892,-1.00846,-0.0365504,-0.00449474,-0.129856,1,0,3.0625,0.14,-0.6825,0.019398,-0.034038,-1.13606,-0.0497,0.10024,0.47838
-0.720457,0,0,15.7205,15.7205,14.2795,14.2795,2.40152,5.5093,-1.00884,0.0556506,0.103438,-0.136126,1,0,2.66,0.4025,-0.63,0.111996,0.07381,-1.14229,-0.0497,0.10024,0.47838
-0.720151,0,0,15.7202,15.7202,14.2798,14.2798,2.4005,5.50936,-1.00918,0.0556497,0.10342,-0.136125,1,0,2.975,0.21,-0.595,0.111996,0.07381,-1.14229,-0.0497,0.10024,0.47838
-0.750311,0,0,15.7503,15.7503,14.2497,14.2497,2.50104,5.65672,-1.15145,0.139588,-0.104293,-0.00587868,0,0,2.6075,0.525,-0.175,0.19886,-0.13542,-1.01272,-0.0497,0.10024,0.47838
-0.780883,0,0,15.7809,15.7809,14.2191,14.2191,2.60294,5.79889,-1.295,0.137119,-0.102536,-0.00620487,0,0,4.305,-0.245,0.175,0.19886,-0.13542,-1.01272,-0.04494,0.10164,0.4697
-0.781084,0,0,15.7811,15.7811,14.2189,14.2189,2.60361,5.79838,-1.29404,-0.133056,0.0956869,0.115269,1,0,3.85,-0.0875,0.175,-0.072468,0.062586,-0.892186,-0.04494,0.10164,0.4697
-0.781102,0,0,15.7811,15.7811,14.2189,14.2189,2.60367,5.79816,-1.29294,-0.133053,0.095688,0.115269,1,0,3.5,0.0875,0.245,-0.072468,0.062586,-0.892186,-0.04494,0.10164,0.4697
-0.781056,0,0,15.7811,15.7811,14.2189,14.2189,2.60352,5.79814,-1.29177,-0.0538437,0.10228,-0.17034,1,0,3.3775,0.21,0.28,0.007076,0.069174,-1.17559,-0.04494,0.10164,0.4697
-0.780454,0,0,15.7805,15.7805,14.2195,14.2195,2.60151,5.79763,-1.29072,-0.0538347,0.102245,-0.170338,1,0,2.345,-0.0875,0.2275,0.007076,0.069174,-1.17559,-0.04494,0.10164,0.4697
-0.780276,0,0,15.7803,15.7803,14.2197,14.2197,2.60092,5.79667,-1.28993,-0.0164006,-0.131882,-0.187671,1,0,3.15,-0.35,0.0875,0.044652,-0.1647,-1.19279,-0.04494,0.10164,0.4697
-0.780068,0,0,15.7801,15.7801,14.2199,14.2199,2.60023,5.79665,-1.28916,-0.0164001,-0.131894,-0.187671,1,0,3.0975,0.1925,0.0525,0.044652,-0.1647,-1.19279,-0.04494,0.10164,0.4697
-0.779665,0,0,15.7797,15.7797,14.2203,14.2203,2.59888,5.79645,-1.28866,-0.0840643,-0.155854,0.303633,1,0,2.7475,0.0875,-0.105,-0.023302,-0.188612,-0.705282,-0.04494,0.10164,0.4697
-0.77945,0,0,15.7795,15.7795,14.2205,14.2205,2.59817,5.79548,-1.28814,-0.0840474,-0.155866,0.303635,1,0,3.0975,-0.3675,-0.07,-0.023302,-0.188612,-0.705282,-0.04494,0.10164,0.4697
-0.721079,0,0,15.7211,15.7211,14.2789,14.2789,2.4036,5.6913,-1.2424,-0.100826,0.192247,-0.0164394,0,0,2.59,0.1575,-0.2625,-0.041968,0.162504,-1.02321,-0.04788,0.10542,0.4711
-0.753757,0,0,15.7538,15.7538,14.2462,14.2462,2.51252,5.71729,-1.28737,0.0264045,-0.107396,0.015278,0,0,2.66,-0.42,-0.77,0.086254,-0.138714,-0.991616,-0.04788,0.10542,0.4711
-0.786066,0,0,15.7861,15.7861,14.2139,14.2139,2.62022,5.74212,-1.33308,0.0259732,-0.10553,0.0151511,0,0,3.08,-0.8575,-1.225,0.086254,-0.138714,-0.991616,-0.04788,0.10542,0.4711
-0.78574,0,0,15.7857,15.7857,14.2143,14.2143,2.61913,5.74122,-1.3347,-0.0778813,0.00546482,-0.130909,1,0,3.01,-0.385,-1.3125,-0.018056,-0.027816,-1.13655,-0.04788,0.10542,0.4711
-0.785889,0,0,15.7859,15.7859,14.2141,14.2141,2.61963,5.7412,-1.33607,-0.077881,0.00547347,-0.13091,1,0,3.885,0.14,-1.19,-0.018056,-0.027816,-1.13655,-0.04788,0.10542,0.4711
-0.824034,0,0,15.824,15.824,14.176,14.176,2.74678,5.74023,-1.35491,0.0119138,-0.141438,-0.0824467,0,0,3.255,0.2975,-1.2425,0.072102,-0.176778,-1.08836,-0.04788,0.10542,0.4711
-0.861586,0,0,15.8616,15.8616,14.1384,14.1384,2.87195,5.73946,-1.37355,0.0119271,-0.139266,-0.0825519,0,0,3.3775,0.385,-1.0675,0.072102,-0.176778,-1.08836,-0.04788,0.10542,0.4711
-0.825373,0,0,15.8254,15.8254,14.1746,14.1746,2.75124,5.65574,-1.33984,-0.0772471,0.121586,-0.0834107,0,0,2.345,0.2625,-0.7525,-0.01891,0.085888,-1.08946,-0.04788,0.10542,0.4711
-0.789658,0,0,15.7897,15.7897,14.2103,14.2103,2.63219,5.57401,-1.30054,-0.0758276,0.119527,-0.0831742,0,0,2.03,0.8225,-0.315,-0.01891,0.085888,-1.08946,-0.04732,0.10248,0.47026
-0.789334,0,0,15.7893,15.7893,14.2107,14.2107,2.63111,5.5739,-1.30052,-0.273118,-0.0634379,0.149568,1,0,2.9225,0.1225,-0.385,-0.217038,-0.096868,-0.858514,-0.04732,0.10248,0.47026
-0.789201,0,0,15.7892,15.7892,14.2108,14.2108,2.63067,5.5738,-1.30006,-0.273117,-0.0634455,0.149569,1,0,3.255,0.14,-0.1225,-0.217038,-0.096868,-0.858514,-0.04732,0.10248,0.47026
-0.820565,0,0,15.8206,15.8206,14.1794,14.1794,2.73522,5.41075,-1.1654,-0.144668,-0.106317,-0.0181917,0,0,3.255,-0.315,0.2625,-0.09089,-0.14152,-1.02517,-0.04732,0.10248,0.47026
-0.851506,0,0,15.8515,15.8515,14.1485,14.1485,2.83835,5.25164,-1.03136,-0.141903,-0.104514,-0.0180211,0,0,3.5175,0.1575,0.4375,-0.09089,-0.14152,-1.02517,-0.04732,0.10248,0.47026
-0.851231,0,0,15.8512,15.8512,14.1488,14.1488,2.83744,5.2506,-1.02991,0.0207847,0.292626,0.136896,1,0,2.94,-0.385,0.4725,0.072468,0.255224,-0.871446,-0.04732,0.10248,0.47026
-0.850766,0,0,15.8508,15.8508,14.1492,14.1492,2.83589,5.25091,-1.02888,0.0207792,0.292599,0.136897,1,0,2.6075,0.4025,0.1925,0.072468,0.255224,-0.871446,-0.04732,0.10248,0.47026
-0.81412,0,0,15.8141,15.8141,14.1859,14.1859,2.71373,5.14352,-0.960405,-0.0981109,0.115113,0.0638923,0,0,3.43,0.0875,0.0175,-0.0488,0.080032,-0.944158,-0.04732,0.10248,0.47026
-0.777579,0,0,15.7776,15.7776,14.2224,14.2224,2.59193,5.03981,-0.896528,-0.096308,0.113005,0.0641508,0,0,2.4325,0.385,-0.0525,-0.0488,0.080032,-0.944158,-0.0434,0.105,0.47572
-0.777718,0,0,15.7777,15.7777,14.2223,14.2223,2.59239,5.03951,-0.89634,-0.106386,0.187999,0.192755,1,0,3.78,0.0175,-0.28,-0.058926,0.15494,-0.816546,-0.0434,0.105,0.47572
-0.778001,0,0,15.778,15.778,14.222,14.222,2.59334,5.03981,-0.896758,-0.106391,0.188015,0.192754,1,0,4.0775,0.35,-0.6475,-0.058926,0.15494,-0.816546,-0.0434,0.105,0.47572
-0.770207,0,0,15.7702,15.7702,14.2298,14.2298,2.56736,5.00617,-0.888142,-0.0307283,0.0247713,-0.020736,0,0,3.3775,0.735,-0.9625,0.01647,-0.007686,-1.02846,-0.0434,0.105,0.47572
-0.762486,0,0,15.7625,15.7625,14.2375,14.2375,2.54162,4.97207,-0.879776,-0.0301354,0.0243266,-0.0206644,0,0,3.2725,0.0875,-1.1025,0.01647,-0.007686,-1.02846,-0.0434,0.105,0.47572
-0.761912,0,0,15.7619,15.7619,14.2381,14.2381,2.53971,4.972,-0.881476,-0.075084,0.239603,-0.148406,1,0,2.5375,0.105,-1.3825,-0.02867,0.2074,-1.15522,-0.0434,0.105,0.47572
-0.761394,0,0,15.7614,15.7614,14.2386,14.2386,2.53798,4.9715,-0.883497,-0.0750753,0.239573,-0.148404,1,0,2.66,-0.1575,-1.5575,-0.02867,0.2074,-1.15522,-0.0434,0.105,0.47572
-0.761587,0,0,15.7616,15.7616,14.2384,14.2384,2.53862,4.97247,-0.885573,-0.0209095,0.141272,-0.104268,1,0,3.99,0.7,-1.6275,0.025742,0.10919,-1.11142,-0.0434,0.105,0.47572
-0.761873,0,0,15.7619,15.7619,14.2381,14.2381,2.53958,4.97253,-0.887298,-0.0209104,0.141289,-0.104268,1,0,4.1475,0.175,-1.4,0.025742,0.10919,-1.11142,-0.04564,0.10248,0.47754
-0.833032,0,0,15.833,15.833,14.167,14.167,2.77677,5.20939,-1.09667,0.219401,-0.237965,0.0590642,0,0,3.71,0.035,-1.2775,0.271206,-0.273768,-0.948794,-0.04564,0.10248,0.47754
-0.903178,0,0,15.9032,15.9032,14.0968,14.0968,3.01059,5.44201,-1.30296,0.215359,-0.233926,0.0584827,0,0,3.9025,0.1575,-0.6825,0.271206,-0.273768,-0.948794,-0.04564,0.10248,0.47754
-0.871145,0,0,15.8711,15.8711,14.1289,14.1289,2.90382,5.14277,-1.06333,-0.290531,0.110963,-0.0766756,0,0,3.4825,0.245,-0.315,-0.242048,0.07259,-1.08348,-0.04564,0.10248,0.47754
-0.839795,0,0,15.8398,15.8398,14.1602,14.1602,2.79932,4.84934,-0.821879,-0.285429,0.109171,-0.0761398,0,0,3.71,0.5075,0.28,-0.242048,0.07259,-1.08348,-0.04564,0.10248,0.47754
-0.815216,0,0,15.8152,15.8152,14.1848,14.1848,2.71739,4.68163,-0.688406,-0.15228,0.0819904,-0.00107561,0,0,4.13,-0.035,0.315,-0.111264,0.046848,-1.00931,-0.04564,0.10248,0.47754
-0.790963,0,0,15.791,15.791,14.209,14.209,2.63654,4.51767,-0.554009,-0.149427,0.0805963,-0.000780682,0,0,3.92,0.35,0.6475,-0.111264,0.046848,-1.00931,-0.04564,0.10248,0.47754
-0.79161,0,0,15.7916,15.7916,14.2084,14.2084,2.6387,4.83327,-0.84519,0.290328,-0.000234845,0.0384814,0,0,4.1475,0.5425,0.665,0.335866,-0.033916,-0.9699,-0.04564,0.10248,0.47754
-0.791958,0,0,15.792,15.792,14.208,14.208,2.63986,5.14336,-1.14164,0.284936,-0.000236337,0.0380104,0,0,3.675,0.4375,0.77,0.335866,-0.033916,-0.9699,-0.0462,0.10696,0.47306
-0.822173,0,0,15.8222,15.8222,14.1778,14.1778,2.74058,5.04074,-1.0604,-0.0904929,-0.0892201,0.0758322,0,0,3.0625,0.385,1.1025,-0.042944,-0.124562,-0.932446,-0.0462,0.10696,0.47306
-0.851927,0,0,15.8519,15.8519,14.1481,14.1481,2.83976,4.93946,-0.980374,-0.0887319,-0.0874902,0.0759018,0,0,3.2375,-0.0175,0.77,-0.042944,-0.124562,-0.932446,-0.0462,0.10696,0.47306
-0.793755,0,0,15.7938,15.7938,14.2062,14.2062,2.64585,4.70974,-0.807393,-0.219221,0.201162,-0.0410158,0,0,3.675,-0.77,0.6825,-0.177998,0.16714,-1.04896,-0.0462,0.10696,0.47306
-0.736693,0,0,15.7367,15.7367,14.2633,14.2633,2.45564,4.48529,-0.634407,-0.215317,0.197871,-0.0405548,0,0,3.955,-0.0875,-0.1575,-0.177998,0.16714,-1.04896,-0.0462,0.10696,0.47306
-0.737308,0,0,15.7373,15.7373,14.2627,14.2627,2.45769,4.48479,-0.634288,-0.188338,0.232957,0.176448,1,0,4.6725,-0.105,-0.315,-0.150914,0.202154,-0.833626,-0.0462,0.10696,0.47306
-0.737382,0,0,15.7374,15.7374,14.2626,14.2626,2.45794,4.48449,-0.634883,-0.188333,0.232961,0.176449,1,0,3.6925,0,-0.735,-0.150914,0.202154,-0.833626,-0.0462,0.10696,0.47306
-0.77534,0,0,15.7753,15.7753,14.2247,14.2247,2.58447,4.34225,-0.510058,-0.130582,-0.134875,-0.043904,0,0,3.3075,0.035,-1.015,-0.095404,-0.167506,-1.05237,-0.0462,0.10696,0.47306
-0.812637,0,0,15.8126,15.8126,14.1874,14.1874,2.70879,4.20287,-0.386942,-0.128156,-0.132705,-0.0438229,0,0,3.36,0.105,-1.4525,-0.095404,-0.167506,-1.05237,-0.0462,0.10696,0.47306
-0.846415,0,0,15.8464,15.8464,14.1536,14.1536,2.82138,4.51065,-0.665838,0.240421,-0.0957172,0.15854,0,0,2.8,0.5425,-1.6625,0.280112,-0.132492,-0.851072,-0.0469,0.10696,0.47152
-0.880412,0,0,15.8804,15.8804,14.1196,14.1196,2.93471,4.8127,-0.943363,0.235167,-0.0937699,0.158013,0,0,4.2875,0.5075,-1.8025,0.280112,-0.132492,-0.851072,-0.0469,0.10696,0.47152
-0.88108,0,0,15.8811,15.8811,14.1189,14.1189,2.93693,4.81296,-0.945981,-0.156751,0.138798,-0.160795,1,0,4.9,0.2625,-1.925,-0.11346,0.099796,-1.16742,-0.0469,0.10696,0.47152
-0.881389,0,0,15.8814,15.8814,14.1186,14.1186,2.93796,4.81328,-0.947963,-0.156756,0.138816,-0.160796,1,0,4.2,0.315,-1.5575,-0.11346,0.099796,-1.16742,-0.0469,0.10696,0.47152
-0.900165,0,0,15.9002,15.9002,14.0998,14.0998,3.00055,4.84472,-0.990397,0.0183651,-0.049518,0.0998752,0,0,4.55,0.175,-1.4,0.062952,-0.089426,-0.908656,-0.0469,0.10696,0.47152
-0.918006,0,0,15.918,15.918,14.082,14.082,3.06002,4.87549,-1.03166,0.0178301,-0.0484876,0.0997751,0,0,3.36,0.1575,-0.77,0.062952,-0.089426,-0.908656,-0.0469,0.10696,0.47152
-0.918061,0,0,15.9181,15.9181,14.0819,14.0819,3.0602,4.87562,-1.03182,-0.0932102,-0.204196,-0.255792,1,0,3.64,0.2625,-0.49,-0.048556,-0.244976,-1.26148,-0.0469,0.10696,0.47152
-0.918205,0,0,15.9182,15.9182,14.0818,14.0818,3.06068,4.87499,-1.03108,-0.0931992,-0.204188,-0.255792,1,0,3.7625,-0.1575,0.0525,-0.048556,-0.244976,-1.26148,-0.0469,0.10696,0.47152
-0.881243,0,0,15.8812,15.8812,14.1188,14.1188,2.93748,5.10671,-1.26608,0.226167,0.129137,-0.032019,0,0,3.5175,0.14,0.1925,0.276208,0.090158,-1.0392,-0.0441,0.10514,0.46956
-0.861591,0,0,15.8616,15.8616,14.1384,14.1384,2.87197,5.00682,-1.19992,-0.0922113,0.0673102,-0.0737332,0,0,4.2175,0.2975,0.3675,-0.045262,0.029524,-1.0808,-0.0441,0.10514,0.46956
-0.842235,0,0,15.8422,15.8422,14.1578,14.1578,2.80745,4.90899,-1.13356,-0.0905103,0.066197,-0.0735303,0,0,4.13,0.42,0.385,-0.045262,0.029524,-1.0808,-0.0441,0.10514,0.46956
-0.84447,0,0,15.8445,15.8445,14.1555,14.1555,2.8149,4.86685,-1.11014,-0.0381461,-0.00658016,0.0108686,0,0,3.5175,-0.0175,0.5425,0.006588,-0.04331,-0.997106,-0.0441,0.10514,0.46956
-0.846926,0,0,15.8469,15.8469,14.1531,14.1531,2.82309,4.82573,-1.08724,-0.0374309,-0.00643501,0.0109222,0,0,4.025,0.0875,0.28,0.006588,-0.04331,-0.997106,-0.0441,0.10514,0.46956
-0.846737,0,0,15.8467,15.8467,14.1533,14.1533,2.82246,4.82563,-1.08629,0.00120328,0.0420384,0.237394,1,0,3.1325,0.1575,0.1575,0.045384,0.005124,-0.772382,-0.0441,0.10514,0.46956
-0.846698,0,0,15.8467,15.8467,14.1533,14.1533,2.82233,4.82503,-1.08614,0.00121365,0.0420362,0.237395,1,0,3.4475,-0.1575,-0.2975,0.045384,0.005124,-0.772382,-0.0441,0.10514,0.46956
-0.846689,0,0,15.8467,15.8467,14.1533,14.1533,2.8223,4.82398,-1.08587,-0.464423,0.352238,-0.0889087,1,0,3.5,-0.42,-0.21,-0.422242,0.315004,-1.09617,-0.0441,0.10514,0.46956
-0.84673,0,0,15.8467,15.8467,14.1533,14.1533,2.82243,4.8237,-1.08548,-0.464418,0.35224,-0.0889084,1,0,3.5875,0.035,-0.1575,-0.422242,0.315004,-1.09617,-0.04578,0.10584,0.47166
-0.837483,0,0,15.8375,15.8375,14.1625,14.1625,2.79161,4.97941,-1.24477,0.121473,0.0330647,0.0956775,0,0,3.8675,0.245,-0.35,0.168848,-0.003294,-0.912804,-0.04578,0.10584,0.47166
-0.827886,0,0,15.8279,15.8279,14.1721,14.1721,2.75962,5.13155,-1.40459,0.118828,0.0324978,0.0954707,0,0,2.975,-0.14,-0.735,0.168848,-0.003294,-0.912804,-0.04578,0.10584,0.47166
-0.828018,0,0,15.828,15.828,14.172,14.172,2.76006,5.1318,-1.40537,-0.133989,-0.140792,-0.290834,1,0,3.815,0.315,-0.8575,-0.085034,-0.176412,-1.29613,-0.04578,0.10584,0.47166
-0.82835,0,0,15.8284,15.8284,14.1716,14.1716,2.76117,5.13277,-1.40603,-0.134005,-0.140773,-0.290837,1,0,4.1825,0.735,-0.805,-0.085034,-0.176412,-1.29613,-0.04578,0.10584,0.47166
-0.861599,0,0,15.8616,15.8616,14.1384,14.1384,2.872,5.23956,-1.51297,0.111362,-0.120172,-0.0476616,0,0,4.095,0.4375,-0.7,0.163236,-0.157746,-1.05457,-0.04578,0.10584,0.47166
-0.894506,0,0,15.8945,15.8945,14.1055,14.1055,2.98169,5.34437,-1.61888,0.10954,-0.118277,-0.0479274,0,0,4.48,0.4725,-0.385,0.163236,-0.157746,-1.05457,-0.04578,0.10584,0.47166
-0.917173,0,0,15.9172,15.9172,14.0828,14.0828,3.05724,5.42567,-1.70786,0.0897834,-0.0868075,-0.07567,0,0,3.395,0.5075,-0.3325,0.144814,-0.127612,-1.0819,-0.04578,0.10584,0.47166
-0.939439,0,0,15.9394,15.9394,14.0606,14.0606,3.13146,5.50617,-1.79514,0.0883848,-0.0855271,-0.0758733,0,0,3.36,0.56,-0.1225,0.144814,-0.127612,-1.0819,-0.05152,0.10598,0.47376
-0.89487,0,0,15.8949,15.8949,14.1051,14.1051,2.9829,5.497,-1.82597,-0.00888741,0.152242,-0.0517453,0,0,3.08,0.3675,0,0.04697,0.112484,-1.05811,-0.05152,0.10598,0.47376
-0.851058,0,0,15.8511,15.8511,14.1489,14.1489,2.83686,5.48777,-1.85686,-0.00872709,0.149709,-0.0516011,0,0,3.08,0.28,-0.175,0.04697,0.112484,-1.05811,-0.05152,0.10598,0.47376
-0.797377,0,0,15.7974,15.7974,14.2026,14.2026,2.65792,5.23585,-1.67358,-0.247078,0.191565,-0.0769838,0,0,3.64,-0.3325,-0.4025,-0.196786,0.15738,-1.08385,-0.05152,0.10598,0.47376
-0.744396,0,0,15.7444,15.7444,14.2556,14.2556,2.48132,4.98933,-1.48874,-0.242792,0.188516,-0.0764632,0,0,3.2375,0.245,-0.315,-0.196786,0.15738,-1.08385,-0.05152,0.10598,0.47376
-0.73753,0,0,15.7375,15.7375,14.2625,14.2625,2.45843,5.20085,-1.6992,0.178487,0.0259195,0.0691663,0,0,4.6025,0.175,-0.525,0.22997,-0.004636,-0.939034,-0.05152,0.10598,0.47376
-0.730488,0,0,15.7305,15.7305,14.2695,14.2695,2.43496,5.40914,-1.91035,0.174868,0.0254977,0.0688479,0,0,4.1475,0.5775,-1.1025,0.22997,-0.004636,-0.939034,-0.05152,0.10598,0.47376
-0.789845,0,0,15.7898,15.7898,14.2102,14.2102,2.63282,5.21973,-1.74321,-0.165038,-0.183921,0.0808048,0,0,2.5725,0.525,-1.05,-0.11468,-0.217282,-0.927322,-0.05152,0.10598,0.47376
-0.848306,0,0,15.8483,15.8483,14.1517,14.1517,2.82769,5.03565,-1.57386,-0.161838,-0.180523,0.0809303,0,0,2.905,0.0175,-0.9625,-0.11468,-0.217282,-0.927322,-0.04452,0.10234,0.47348
-0.829115,0,0,15.8291,15.8291,14.1709,14.1709,2.76372,5.0133,-1.57529,-0.0219837,0.0612776,0.0143806,0,0,2.38,-0.1925,-0.9975,0.025376,0.025376,-0.993446,-0.04452,0.10234,0.47348
-0.81041,0,0,15.8104,15.8104,14.1896,14.1896,2.70137,4.99159,-1.57686,-0.0216063,0.0601963,0.0144653,0,0,2.6775,-0.0525,-1.155,0.025376,0.025376,-0.993446,-0.04452,0.10234,0.47348
-0.797475,0,0,15.7975,15.7975,14.2025,14.2025,2.65825,4.7547,-1.38034,-0.211013,0.0417553,0.0543176,0,0,2.5725,0.0175,-1.26,-0.16897,0.007686,-0.954284,-0.04452,0.10234,0.47348
-0.784957,0,0,15.785,15.785,14.215,14.215,2.61652,4.52215,-1.18247,-0.206968,0.0410453,0.0546789,0,0,2.905,0.0525,-0.5075,-0.16897,0.007686,-0.954284,-0.04452,0.10234,0.47348
-0.784524,0,0,15.7845,15.7845,14.2155,14.2155,2.61508,4.52154,-1.18269,-0.0740521,-0.298736,-0.141668,1,0,2.73,-0.175,-0.5075,-0.035502,-0.331718,-1.14912,-0.04452,0.10234,0.47348
-0.78462,0,0,15.7846,15.7846,14.2154,14.2154,2.6154,4.52085,-1.18234,-0.07404,-0.298731,-0.141667,1,0,3.6925,-0.21,-0.175,-0.035502,-0.331718,-1.14912,-0.04452,0.10234,0.47348
-0.861946,0,0,15.8619,15.8619,14.1381,14.1381,2.87315,4.43587,-1.08628,-0.0783927,-0.260416,0.0298699,0,0,3.1675,0.28,0.1575,-0.041358,-0.297924,-0.978806,-0.04452,0.10234,0.47348
-0.938161,0,0,15.9382,15.9382,14.0618,14.0618,3.1272,4.3507,-0.995413,-0.0769106,-0.255995,0.0297522,0,0,3.5175,0.105,0.3675,-0.041358,-0.297924,-0.978806,-0.04648,0.1057,0.47096
-0.885679,0,0,15.8857,15.8857,14.1143,14.1143,2.95226,4.42167,-1.07963,0.065086,0.179028,-0.017762,0,0,3.29,0.49,0.49,0.10248,0.13969,-1.02602,-0.04648,0.1057,0.47096
-0.834173,0,0,15.8342,15.8342,14.1658,14.1658,2.78058,4.49233,-1.1634,0.0638565,0.17604,-0.0177084,0,0,3.4475,1.12,0.77,0.10248,0.13969,-1.02602,-0.04648,0.1057,0.47096
-0.834147,0,0,15.8341,15.8341,14.1659,14.1659,2.78049,4.49287,-1.16146,0.098349,-0.0266923,-0.130207,1,0,3.395,0.56,0.7175,0.137128,-0.06283,-1.13765,-0.04648,0.1057,0.47096
-0.833825,0,0,15.8338,15.8338,14.1662,14.1662,2.77942,4.49168,-1.16017,0.0983697,-0.0267109,-0.130204,1,0,2.87,-0.4725,0.385,0.137128,-0.06283,-1.13765,-0.04648,0.1057,0.47096
-0.803998,0,0,15.804,15.804,14.196,14.196,2.67999,4.56872,-1.2486,0.0794139,0.102232,-0.0571967,0,0,3.01,-0.6125,0.21,0.119438,0.06771,-1.06518,-0.04648,0.1057,0.47096
-0.774807,0,0,15.7748,15.7748,14.2252,14.2252,2.58269,4.64529,-1.33736,0.0780819,0.100536,-0.0572262,0,0,3.2725,-0.035,-0.0175,0.119438,0.06771,-1.06518,-0.04648,0.1057,0.47096
-0.774908,0,0,15.7749,15.7749,14.2251,14.2251,2.58303,4.64547,-1.33718,0.0632575,0.277137,0.212031,1,0,3.71,0.2975,-0.2975,0.104554,0.244122,-0.798002,-0.04648,0.1057,0.47096
-0.77493,0,0,15.7749,15.7749,14.2251,14.2251,2.5831,4.64553,-1.33833,0.0632564,0.277138,0.21203,1,0,3.6225,0.1925,-1.0675,0.104554,0.244122,-0.798002,-0.04648,0.1057,0.47096
-0.774923,0,0,15.7749,15.7749,14.2251,14.2251,2.58308,4.64578,-1.34032,-0.183607,0.0245797,-0.220134,1,0,3.605,0.28,-1.5575,-0.14335,-0.008174,-1.22683,-0.0441,0.10654,0.46984
-0.733708,0,0,15.7337,15.7337,14.2663,14.2663,2.44569,4.71933,-1.43544,0.0606364,0.135033,0.0326483,0,0,3.2725,0.35,-1.8025,0.103212,0.104554,-0.976,-0.0441,0.10654,0.46984
-0.692803,0,0,15.6928,15.6928,14.3072,14.3072,2.30934,4.79147,-1.53089,0.0593816,0.132659,0.0326424,0,0,2.5725,0.35,-1.96,0.103212,0.104554,-0.976,-0.0441,0.10654,0.46984
-0.69222,0,0,15.6922,15.6922,14.3078,14.3078,2.3074,4.79204,-1.53374,-0.061871,0.169019,-0.275097,1,0,2.5725,0.455,-2.065,-0.018544,0.14091,-1.28137,-0.0441,0.10654,0.46984
-0.691704,0,0,15.6917,15.6917,14.3083,14.3083,2.30568,4.79213,-1.53579,-0.0618726,0.168989,-0.275096,1,0,2.66,0.1925,-1.5925,-0.018544,0.14091,-1.28137,-0.0441,0.10654,0.46984
-0.740363,0,0,15.7404,15.7404,14.2596,14.2596,2.46788,5.00856,-1.73537,0.184746,-0.153064,0.103883,0,0,2.5025,0.0875,-1.435,0.232898,-0.18361,-0.904874,-0.0441,0.10654,0.46984
-0.788295,0,0,15.7883,15.7883,14.2117,14.2117,2.62765,5.22045,-1.93261,0.181062,-0.150303,0.10343,0,0,2.5725,-0.2275,-0.875,0.232898,-0.18361,-0.904874,-0.0441,0.10654,0.46984
-0.788008,0,0,15.788,15.788,14.212,14.212,2.62669,5.22113,-1.93295,0.0248199,-0.203567,0.2131,1,0,3.01,0.5775,-0.6125,0.076006,-0.236802,-0.79605,-0.0441,0.10654,0.46984
-0.788196,0,0,15.7882,15.7882,14.2118,14.2118,2.62732,5.22063,-1.93235,0.0248285,-0.203556,0.2131,1,0,3.85,-0.0875,-0.035,0.076006,-0.236802,-0.79605,-0.04088,0.10164,0.46914
-0.788216,0,0,15.7882,15.7882,14.2118,14.2118,2.62739,5.22002,-1.93106,-0.51966,0.240009,-0.0648853,1,0,3.5,-0.14,0.3675,-0.470798,0.206302,-1.07189,-0.04088,0.10164,0.46914
-0.788177,0,0,15.7882,15.7882,14.2118,14.2118,2.62726,5.2203,-1.92919,-0.519665,0.240007,-0.0648856,1,0,3.36,0.4025,0.6825,-0.470798,0.206302,-1.07189,-0.04088,0.10164,0.46914
-0.788043,0,0,15.788,15.788,14.212,14.212,2.62681,5.22039,-1.92703,0.0855757,0.0229798,-0.245251,1,0,3.1675,0.2975,0.8575,0.137006,-0.010492,-1.25087,-0.04088,0.10164,0.46914
-0.787984,0,0,15.788,15.788,14.212,14.212,2.62661,5.22061,-1.92449,0.0855718,0.0229764,-0.245251,1,0,3.29,0.385,1.0675,0.137006,-0.010492,-1.25087,-0.04088,0.10164,0.46914
-0.77605,0,0,15.7761,15.7761,14.2239,14.2239,2.58683,5.18645,-1.91095,-0.0341053,0.0412178,0.0254441,0,0,4.1125,0.3675,1.0675,0.016226,0.008418,-0.982344,-0.04088,0.10164,0.46914
-0.764252,0,0,15.7643,15.7643,14.2357,14.2357,2.54751,5.15282,-1.89782,-0.0335207,0.0405373,0.0255275,0,0,4.0075,0.2975,0.7875,0.016226,0.008418,-0.982344,-0.04088,0.10164,0.46914
-0.764332,0,0,15.7643,15.7643,14.2357,14.2357,2.54777,5.15258,-1.8964,0.00766703,0.236189,0.1845,1,0,3.605,0.0875,0.4375,0.057584,0.203862,-0.824598,-0.04088,0.10164,0.46914
-0.7643,0,0,15.7643,15.7643,14.2357,14.2357,2.54767,5.15157,-1.8963,0.00768462,0.236187,0.184502,1,0,3.465,-0.4025,-0.315,0.057584,0.203862,-0.824598,-0.04228,0.10878,0.47852
-0.753398,0,0,15.7534,15.7534,14.2466,14.2466,2.51133,5.19456,-1.96577,0.031599,0.0375856,0.0589316,0,0,3.9725,-0.1225,-0.5775,0.08235,0.0061,-0.94916,-0.04228,0.10878,0.47852
-0.74255,0,0,15.7425,15.7425,14.2575,14.2575,2.47517,5.23658,-2.03615,0.0308686,0.0369548,0.0588924,0,0,3.78,-0.2275,-1.155,0.08235,0.0061,-0.94916,-0.04228,0.10878,0.47852
-0.742738,0,0,15.7427,15.7427,14.2573,14.2573,2.47579,5.23559,-2.03795,-0.0543972,-0.111174,-0.197085,1,0,3.9725,-0.4375,-1.4175,-0.003294,-0.141886,-1.20316,-0.04228,0.10878,0.47852
-0.74284,0,0,15.7428,15.7428,14.2572,14.2572,2.47613,5.23552,-2.04082,-0.0543959,-0.111168,-0.197085,1,0,3.8675,0.07,-2.065,-0.003294,-0.141886,-1.20316,-0.04228,0.10878,0.47852
-0.724589,0,0,15.7246,15.7246,14.2754,14.2754,2.4153,5.06751,-1.92272,-0.161055,0.0616951,-0.0481325,0,0,3.43,0.1225,-2.135,-0.113338,0.031842,-1.05567,-0.04228,0.10878,0.47852
-0.706629,0,0,15.7066,15.7066,14.2934,14.2934,2.35543,4.90261,-1.80409,-0.158188,0.0606655,-0.0478393,0,0,3.3775,0.175,-1.96,-0.113338,0.031842,-1.05567,-0.04228,0.10878,0.47852
-0.661904,0,0,15.6619,15.6619,14.3381,14.3381,2.20635,4.87338,-1.81402,-0.0282977,0.15761,-0.0738807,0,0,3.0975,0.6825,-1.6275,0.016592,0.131272,-1.08165,-0.04228,0.10878,0.47852
-0.617831,0,0,15.6178,15.6178,14.3822,14.3822,2.05944,4.84227,-1.81252,-0.0277567,0.155059,-0.0737397,0,0,2.8175,0.2275,-1.085,0.016592,0.131272,-1.08165,-0.04228,0.10178,0.47824
-0.6173,0,0,15.6173,15.6173,14.3827,14.3827,2.05767,4.8426,-1.8133,-0.166135,-0.0312154,-0.164967,1,0,2.5725,0.3675,-0.8575,-0.122366,-0.054778,-1.17218,-0.04228,0.10178,0.47824
-0.617119,0,0,15.6171,15.6171,14.3829,14.3829,2.05706,4.84355,-1.81279,-0.166151,-0.0312259,-0.164968,1,0,3.1675,0.7525,-0.1225,-0.122366,-0.054778,-1.17218,-0.04228,0.10178,0.47824
-0.626194,0,0,15.6262,15.6262,14.3738,14.3738,2.08731,5.07845,-2.03436,0.220948,-0.0297361,0.0269502,0,0,4.2,0.9625,0.2275,0.270474,-0.053802,-0.981368,-0.04228,0.10178,0.47824
-0.635157,0,0,15.6352,15.6352,14.3648,14.3648,2.11719,5.30763,-2.2544,0.216965,-0.0292304,0.0265694,0,0,4.235,0.1225,0.8225,0.270474,-0.053802,-0.981368,-0.04228,0.10178,0.47824
-0.588833,0,0,15.5888,15.5888,14.4112,14.4112,1.96278,5.13344,-2.12606,-0.162566,0.148723,0.0700963,0,0,3.9025,0.315,0.91,-0.113704,0.126636,-0.938546,-0.04228,0.10178,0.47824
-0.543137,0,0,15.5431,15.5431,14.4569,14.4569,1.81046,4.96227,-1.99611,-0.15959,0.146085,0.0704462,0,0,3.57,0.3325,1.3125,-0.113704,0.126636,-0.938546,-0.04228,0.10178,0.47824
-0.547716,0,0,15.5477,15.5477,14.4523,14.4523,1.82572,4.88104,-1.92937,-0.07496,-0.0160747,-0.0589054,0,0,4.34,0,1.4175,-0.030134,-0.035624,-1.06701,-0.04228,0.10178,0.47824
-0.552466,0,0,15.5525,15.5525,14.4475,14.4475,1.84155,4.8007,-1.86766,-0.0735629,-0.0157958,-0.058796,0,0,4.83,0.0175,1.05,-0.030134,-0.035624,-1.06701,-0.04718,0.10556,0.4746
-0.552851,0,0,15.5529,15.5529,14.4471,14.4471,1.84284,4.80097,-1.86549,0.0253218,-0.12984,-0.171787,1,0,4.1475,0.385,0.8575,0.069174,-0.149572,-1.17913,-0.04718,0.10556,0.4746
-0.553065,0,0,15.5531,15.5531,14.4469,14.4469,1.84355,4.8014,-1.86458,0.0253144,-0.129827,-0.171788,1,0,3.885,0.455,0.1225,0.069174,-0.149572,-1.17913,-0.04718,0.10556,0.4746
-0.529303,0,0,15.5293,15.5293,14.4707,14.4707,1.76434,4.71439,-1.80646,-0.0825095,0.0809337,-0.0219902,0,0,3.57,0.1575,-0.1925,-0.040626,0.062342,-1.03066,-0.04718,0.10556,0.4746
-0.50605,0,0,15.506,15.506,14.494,14.494,1.68683,4.62833,-1.74932,-0.0810124,0.0795897,-0.0218273,0,0,3.815,-0.2275,-0.8925,-0.040626,0.062342,-1.03066,-0.04718,0.10556,0.4746
-0.526137,0,0,15.5261,15.5261,14.4739,14.4739,1.75379,4.65668,-1.78205,0.0175054,-0.0570062,0.0955135,0,0,4.5325,0.035,-1.1375,0.058804,-0.075274,-0.914146,-0.04718,0.10556,0.4746
-0.545972,0,0,15.546,15.546,14.454,14.454,1.81991,4.68438,-1.81565,0.0170234,-0.0558579,0.0954383,0,0,4.7425,-0.0525,-1.6625,0.058804,-0.075274,-0.914146,-0.04718,0.10556,0.4746
-0.546566,0,0,15.5466,15.5466,14.4534,14.4534,1.82189,4.68331,-1.81831,-0.107116,0.0444426,-0.156483,1,0,4.76,-0.49,-1.925,-0.06588,0.024888,-1.16412,-0.04718,0.10556,0.4746
-0.544682,0,0,15.5447,15.5447,14.4553,14.4553,1.81561,4.68283,-1.82156,-0.107108,0.0443335,-0.156479,1,0,0.1575,-0.1575,-2.275,-0.06588,0.024888,-1.16412,-0.04718,0.10556,0.4746
-0.555563,0,0,15.5556,15.5556,14.4444,14.4444,1.85188,4.69776,-1.84384,0.0237154,-0.0441891,-0.0932016,0,0,3.1675,0.0525,-2.065,0.065758,-0.064172,-1.10129,-0.04648,0.1036,0.47138
-0.56602,0,0,15.566,15.566,14.434,14.434,1.88673,4.71196,-1.86555,0.0234685,-0.0435838,-0.0932417,0,0,2.695,-0.21,-1.7325,0.065758,-0.064172,-1.10129,-0.04648,0.1036,0.47138
-0.565434,0,0,15.5654,15.5654,14.4346,14.4346,1.88478,4.71178,-1.86704,-0.210024,0.0240404,-0.139715,1,0,2.5025,0.0525,-1.26,-0.168726,0.003416,-1.14741,-0.04648,0.1036,0.47138
-0.565257,0,0,15.5653,15.5653,14.4347,14.4347,1.88419,4.71304,-1.86788,-0.210046,0.0240301,-0.139716,1,0,3.2375,0.91,-0.91,-0.168726,0.003416,-1.14741,-0.04648,0.1036,0.47138
-0.55537,0,0,15.5554,15.5554,14.4446,14.4446,1.85123,4.72458,-1.89038,0.00283922,0.0323719,0.0669622,0,0,3.0625,1.015,-0.5075,0.045262,0.012322,-0.942328,-0.04648,0.1036,0.47138
-0.545906,0,0,15.5459,15.5459,14.4541,14.4541,1.81969,4.73521,-1.91161,0.00265433,0.031823,0.0669645,0,0,3.4825,0.63,0.21,0.045262,0.012322,-0.942328,-0.04648,0.1036,0.47138
-0.545848,0,0,15.5458,15.5458,14.4542,14.4542,1.81949,4.73563,-1.91028,-0.270817,0.0682134,-0.152253,1,0,3.36,0.455,0.3675,-0.22936,0.048678,-1.15985,-0.04648,0.1036,0.47138
-0.546284,0,0,15.5463,15.5463,14.4537,14.4537,1.82095,4.73634,-1.90795,-0.27083,0.0682386,-0.152255,1,0,4.235,0.6475,0.945,-0.22936,0.048678,-1.15985,-0.04648,0.1036,0.47138
-0.537865,0,0,15.5379,15.5379,14.4621,14.4621,1.79288,5.14391,-2.29668,0.406777,0.0315821,0.0459558,0,0,4.62,-0.14,1.19,0.458232,0.012566,-0.96258,-0.04564,0.1057,0.47516
-0.562937,0,0,15.5629,15.5629,14.4371,14.4371,1.87646,4.7981,-1.98702,-0.336413,-0.0872436,-0.0139357,0,0,4.2175,-0.21,1.1025,-0.294142,-0.107604,-1.02248,-0.04564,0.1057,0.47516
-0.587111,0,0,15.5871,15.5871,14.4129,14.4129,1.95704,4.45941,-1.67926,-0.330521,-0.0858267,-0.0135058,0,0,3.4475,0.4025,0.8225,-0.294142,-0.107604,-1.02248,-0.04564,0.1057,0.47516
-0.597986,0,0,15.598,15.598,14.402,14.402,1.99329,4.55418,-1.77028,0.0761438,-0.0318314,0.083103,0,0,3.2375,0.315,0.455,0.1159,-0.05429,-0.926468,-0.04564,0.1057,0.47516
-0.608679,0,0,15.6087,15.6087,14.3913,14.3913,2.02893,4.64721,-1.86108,0.0745254,-0.0312163,0.0829511,0,0,3.2375,0.315,0.455,0.1159,-0.05429,-0.926468,-0.04564,0.1057,0.47516
-0.608805,0,0,15.6088,15.6088,14.3912,14.3912,2.02935,4.64708,-1.86146,-0.0401549,-0.0400021,-0.443637,1,0,3.78,0.105,-0.6125,0.000732,-0.063074,-1.44899,-0.04564,0.1057,0.47516
-0.60893,0,0,15.6089,15.6089,14.3911,14.3911,2.02977,4.64696,-1.86183,-0.0401527,-0.0399949,-0.443637,1,0,3.78,0.105,-0.6125,0.000732,-0.063074,-1.44899,-0.04564,0.1057,0.47516
-0.609139,0,0,15.6091,15.6091,14.3909,14.3909,2.03046,4.64724,-1.86301,-0.0226638,0.113531,-0.166758,1,0,3.9725,0.3325,-1.085,0.0183,0.09028,-1.17425,-0.04564,0.1057,0.47516
-0.609348,0,0,15.6093,15.6093,14.3907,14.3907,2.03116,4.64753,-1.86418,-0.0226688,0.113543,-0.166759,1,0,3.9725,0.3325,-1.085,0.0183,0.09028,-1.17425,-0.04018,0.1092,0.46354
-0.609568,0,0,15.6096,15.6096,14.3904,14.3904,2.03189,4.64703,-1.86644,0.0593429,0.131752,0.145776,1,0,4.0425,-0.1575,-1.6975,0.10065,0.108458,-0.864126,-0.04018,0.1092,0.46354
-0.609788,0,0,15.6098,15.6098,14.3902,14.3902,2.03263,4.64652,-1.86869,0.0593517,0.131765,0.145777,1,0,4.0425,-0.1575,-1.6975,0.10065,0.108458,-0.864126,-0.04018,0.1092,0.46354
-0.578431,0,0,15.5784,15.5784,14.4216,14.4216,1.9281,4.25754,-1.53793,-0.394675,0.110059,-0.0267454,0,0,2.24,-0.385,-1.5925,-0.362096,0.088572,-1.0359,-0.04018,0.1092,0.46354
-0.547555,0,0,15.5476,15.5476,14.4524,14.4524,1.82518,3.87504,-1.2061,-0.388016,0.108284,-0.0262136,0,0,2.24,-0.385,-1.5925,-0.362096,0.088572,-1.0359,-0.04018,0.1092,0.46354
-0.514785,0,0,15.5148,15.5148,14.4852,14.4852,1.71595,3.97806,-1.31732,0.103179,0.113462,-0.0340237,0,0,2.8175,0.42,-1.26,0.13298,0.095648,-1.04359,-0.04018,0.1092,0.46354
-0.514705,0,0,15.5147,15.5147,14.4853,14.4853,1.71568,3.97857,-1.31816,-0.332113,-0.108325,-0.119596,1,0,3.4125,0.4725,-0.8925,-0.304146,-0.125904,-1.1285,-0.04018,0.1092,0.46354
-0.514351,0,0,15.5144,15.5144,14.4856,14.4856,1.7145,3.98008,-1.31824,-0.332139,-0.108345,-0.119598,1,0,2.87,1.0675,-0.4725,-0.304146,-0.125904,-1.1285,-0.04018,0.1092,0.46354
-0.523491,0,0,15.5235,15.5235,14.4765,14.4765,1.74497,4.13888,-1.4567,0.135489,-0.0289272,0.0722359,0,0,2.765,1.2775,-0.1925,0.168238,-0.047092,-0.937936,-0.04396,0.10248,0.46718
-0.478177,0,0,15.4782,15.4782,14.5218,14.5218,1.59392,3.92065,-1.26626,-0.214114,0.159336,-0.0220903,0,0,3.8325,0.7525,0.42,-0.18666,0.143594,-1.03188,-0.04396,0.10248,0.46718
-0.433503,0,0,15.4335,15.4335,14.5665,14.5665,1.44501,3.70375,-1.07457,-0.210337,0.15675,-0.0217699,0,0,3.6225,-0.6825,0.5775,-0.18666,0.143594,-1.03188,-0.04396,0.10248,0.46718
-0.433675,0,0,15.4337,15.4337,14.5663,14.5663,1.44558,3.70151,-1.07308,0.0507752,-0.123154,0.121221,1,0,3.7975,-1.1025,0.5075,0.075518,-0.13603,-0.88999,-0.04396,0.10248,0.46718
-0.433484,0,0,15.4335,15.4335,14.5665,14.5665,1.44495,3.70157,-1.07155,0.0507742,-0.123165,0.121222,1,0,3.115,0.245,0.49,0.075518,-0.13603,-0.88999,-0.04396,0.10248,0.46718
-0.414691,0,0,15.4147,15.4147,14.5853,14.5853,1.3823,3.63348,-1.00454,-0.0646661,0.0652867,-0.0660489,0,0,2.9925,0.4025,0.49,-0.041602,0.053314,-1.07592,-0.04396,0.10248,0.46718
-0.396575,0,0,15.3966,15.3966,14.6034,14.6034,1.32192,3.56499,-0.937734,-0.0634731,0.0642369,-0.0659491,0,0,3.675,-0.56,0.315,-0.041602,0.053314,-1.07592,-0.04396,0.10248,0.46718
-0.39631,0,0,15.3963,15.3963,14.6037,14.6037,1.32103,3.56452,-0.936553,-0.00636668,-0.240851,-0.0749235,1,0,2.9925,-0.07,0.2975,0.015738,-0.251442,-1.08482,-0.04396,0.10248,0.46718
-0.396583,0,0,15.3966,15.3966,14.6034,14.6034,1.32194,3.56445,-0.935693,-0.00636545,-0.240835,-0.0749238,1,0,4.0075,0.1575,0.105,0.015738,-0.251442,-1.08482,-0.04214,0.11018,0.46984
-0.364282,0,0,15.3643,15.3643,14.6357,14.6357,1.21427,3.67233,-1.04591,0.101214,0.109867,0.0110629,0,0,3.4475,0.77,-0.2975,0.12566,0.100772,-0.999424,-0.04214,0.11018,0.46984
-0.332629,0,0,15.3326,15.3326,14.6674,14.6674,1.10876,3.77825,-1.15655,0.0993694,0.108027,0.0109801,0,0,3.675,0.7525,-0.455,0.12566,0.100772,-0.999424,-0.04214,0.11018,0.46984
-0.332724,0,0,15.3327,15.3327,14.6673,14.6673,1.10908,3.77787,-1.15666,0.203368,-0.0536629,-0.0706574,1,0,3.71,-0.035,-0.455,0.230092,-0.060756,-1.08043,-0.04214,0.11018,0.46984
-0.33248,0,0,15.3325,15.3325,14.6675,14.6675,1.10827,3.77682,-1.15735,0.203386,-0.0536771,-0.0706559,1,0,3.0975,-0.4375,-0.7875,0.230092,-0.060756,-1.08043,-0.04214,0.11018,0.46984
-0.355541,0,0,15.3555,15.3555,14.6445,14.6445,1.18514,3.57711,-0.972061,-0.18602,-0.0757823,0.0442517,0,0,2.9925,-0.3675,-0.9625,-0.164456,-0.08418,-0.966606,-0.04214,0.11018,0.46984
-0.377832,0,0,15.3778,15.3778,14.6222,14.6222,1.25944,3.38248,-0.788223,-0.18263,-0.0744838,0.0444302,0,0,2.3275,0.5075,-1.3475,-0.164456,-0.08418,-0.966606,-0.04214,0.11018,0.46984
-0.386523,0,0,15.3865,15.3865,14.6135,14.6135,1.28841,3.1928,-0.60947,-0.191109,-0.0341616,-0.0579302,0,0,2.9575,0.84,-1.54,-0.17629,-0.044408,-1.06835,-0.04214,0.11018,0.46984
-0.395539,0,0,15.3955,15.3955,14.6045,14.6045,1.31846,3.00608,-0.419179,-0.187855,-0.0336339,-0.057766,0,0,3.85,0.2275,-1.085,-0.17629,-0.044408,-1.06835,-0.04116,0.10262,0.46382
-0.34786,0,0,15.3479,15.3479,14.6521,14.6521,1.15953,3.05506,-0.460418,0.0498896,0.163639,0.00101811,0,0,3.3075,0.2625,-0.8925,0.063318,0.155428,-1.01004,-0.04116,0.10262,0.46382
-0.300837,0,0,15.3008,15.3008,14.6992,14.6992,1.00279,3.10391,-0.501416,0.0490383,0.160907,0.00102386,0,0,3.045,0.6825,-0.735,0.063318,0.155428,-1.01004,-0.04116,0.10262,0.46382
-0.307895,0,0,15.3079,15.3079,14.6921,14.6921,1.02632,3.14211,-0.51845,0.0384107,-0.0266365,-0.0376255,0,0,3.045,1.05,-0.735,0.053314,-0.03233,-1.04835,-0.04116,0.10262,0.46382
-0.315025,0,0,15.315,15.315,14.685,14.685,1.05008,3.17903,-0.534657,0.0377673,-0.026223,-0.0376686,0,0,3.3775,0.7175,-0.2625,0.053314,-0.03233,-1.04835,-0.04116,0.10262,0.46382
-0.315049,0,0,15.315,15.315,14.685,14.685,1.05016,3.17951,-0.533967,0.0519728,0.0366736,0.271178,1,0,3.5525,0.4725,0,0.067588,0.0305,-0.741882,-0.04116,0.10262,0.46382
-0.314654,0,0,15.3147,15.3147,14.6853,14.6853,1.04885,3.17871,-0.533722,0.0519868,0.0366507,0.271179,1,0,2.7825,-0.28,-0.245,0.067588,0.0305,-0.741882,-0.04116,0.10262,0.46382
-0.361774,0,0,15.3618,15.3618,14.6382,14.6382,1.20591,2.95497,-0.290297,-0.207738,-0.150149,0.0872799,0,0,2.765,-0.245,4.3225,-0.197152,-0.158844,-0.924516,-0.04116,0.10262,0.46382
-0.408565,0,0,15.4086,15.4086,14.5914,14.5914,1.36188,2.73366,-0.064036,-0.20388,-0.147427,0.0874106,0,0,3.85,-0.1925,0.1225,-0.197152,-0.158844,-0.924516,-0.04158,0.1085,0.46186
-0.408597,0,0,15.4086,15.4086,14.5914,14.5914,1.36199,2.73343,-0.0627299,-0.0866423,-0.085995,-0.258935,1,0,3.5525,0.07,0.3675,-0.079422,-0.097478,-1.26819,-0.04158,0.1085,0.46186
-0.409481,0,0,15.4095,15.4095,14.5905,14.5905,1.36494,2.73257,-0.0613787,-0.0866273,-0.0859436,-0.258936,1,0,5.145,-0.2975,0.4025,-0.079422,-0.097478,-1.26819,-0.04158,0.1085,0.46186
-0.409754,0,0,15.4098,15.4098,14.5902,14.5902,1.36585,2.73198,-0.0601711,-0.0427607,0.225251,-0.27664,1,0,4.0075,-0.14,0.315,-0.03538,0.213378,-1.28576,-0.04158,0.1085,0.46186
-0.409397,0,0,15.4094,15.4094,14.5906,14.5906,1.36466,2.73173,-0.0591659,-0.0427563,0.22523,-0.276639,1,0,2.835,0.0525,0.1925,-0.03538,0.213378,-1.28576,-0.04158,0.1085,0.46186
-0.419715,0,0,15.4197,15.4197,14.5803,14.5803,1.39905,2.50228,0.170619,-0.21491,-0.0330743,0.0471293,0,0,3.6575,0.21,0.14,-0.21228,-0.045262,-0.964654,-0.04158,0.1085,0.46186
-0.429845,0,0,15.4298,15.4298,14.5702,14.5702,1.43282,2.27686,0.399818,-0.210979,-0.0324816,0.0472788,0,0,3.6575,0.21,0.14,-0.21228,-0.045262,-0.964654,-0.04158,0.1085,0.46186
-0.493122,0,0,15.4931,15.4931,14.5069,14.5069,1.64374,2.33193,0.379645,0.0487687,-0.219812,0.0166501,0,0,3.0625,0.0175,-0.28,0.049532,-0.23607,-0.99491,-0.04158,0.1085,0.46186
-0.555364,0,0,15.5554,15.5554,14.4446,14.4446,1.85121,2.38703,0.36504,0.0478079,-0.216197,0.0165002,0,0,3.0625,0.0175,-0.28,0.049532,-0.23607,-0.99491,-0.0413,0.10472,0.46396
-0.592759,0,0,15.5928,15.5928,14.4072,14.4072,1.97586,2.29735,0.477198,-0.0831691,-0.112291,0.108334,0,0,3.1325,-0.2625,-0.9625,-0.08357,-0.134444,-0.903776,-0.0413,0.10472,0.46396
-0.629526,0,0,15.6295,15.6295,14.3705,14.3705,2.09842,2.20923,0.58869,-0.0816324,-0.110152,0.108319,0,0,3.1325,-0.2625,-0.9625,-0.08357,-0.134444,-0.903776,-0.0413,0.10472,0.46396
-0.62988,0,0,15.6299,15.6299,14.3701,14.3701,2.0996,2.20926,0.58745,0.00571541,0.194697,-0.141145,1,0,4.2175,0.175,-1.12,0.004148,0.170068,-1.15131,-0.0413,0.10472,0.46396
-0.630234,0,0,15.6302,15.6302,14.3698,14.3698,2.10078,2.20928,0.58621,0.00571498,0.194717,-0.141145,1,0,4.2175,0.175,-1.12,0.004148,0.170068,-1.15131,-0.0413,0.10472,0.46396
-0.603249,0,0,15.6032,15.6032,14.3968,14.3968,2.01083,2.22769,0.589615,0.0220375,0.0943484,-0.0445871,0,0,3.3075,0.3675,-1.33,0.020862,0.07137,-1.05554,-0.0413,0.10472,0.46396
-0.576715,0,0,15.5767,15.5767,14.4233,14.4233,1.92238,2.2458,0.593052,0.0217217,0.0928064,-0.0445464,0,0,3.3075,0.3675,-1.33,0.020862,0.07137,-1.05554,-0.0413,0.10472,0.46396
-0.57702,0,0,15.577,15.577,14.423,14.423,1.9234,2.24648,0.591683,0.127524,0.114441,0.238603,1,0,4.13,0.56,-1.2075,0.127124,0.092964,-0.774578,-0.0413,0.10472,0.46396
-0.577326,0,0,15.5773,15.5773,14.4227,14.4227,1.92442,2.24716,0.590315,0.127512,0.114458,0.238602,1,0,4.13,0.56,-1.2075,0.127124,0.092964,-0.774578,-0.0392,0.10304,0.46466
-0.608054,0,0,15.6081,15.6081,14.3919,14.3919,2.02685,2.4894,0.398982,0.200067,-0.0901568,0.136441,0,0,3.6575,0.315,-0.6125,0.204228,-0.113216,-0.875716,-0.0392,0.10304,0.46466
-0.638275,0,0,15.6383,15.6383,14.3617,14.3617,2.12758,2.7273,0.20863,0.195919,-0.0884085,0.136189,0,0,3.6575,0.315,-0.6125,0.204228,-0.113216,-0.875716,-0.0392,0.10304,0.46466
-0.621831,0,0,15.6218,15.6218,14.3782,14.3782,2.07277,2.7056,0.246137,-0.0177606,0.0579221,-0.0566644,0,0,3.8675,0.07,-0.0175,-0.010736,0.033916,-1.06713,-0.0392,0.10304,0.46466
-0.605663,0,0,15.6057,15.6057,14.3943,14.3943,2.01888,2.6843,0.283694,-0.0173892,0.0569837,-0.0566134,0,0,3.8675,0.07,-0.0175,-0.010736,0.033916,-1.06713,-0.0392,0.10304,0.46466
-0.606065,0,0,15.6061,15.6061,14.3939,14.3939,2.02022,2.68457,0.285406,-0.0891921,0.318358,-0.236242,1,0,4.235,0.385,0.595,-0.082838,0.294996,-1.24538,-0.0392,0.10304,0.46466
-0.643482,0,0,15.6435,15.6435,14.3565,14.3565,2.14494,2.59751,0.395868,-0.0867023,-0.131701,-0.0186324,0,0,4.0425,-0.0525,0.6825,-0.081862,-0.15677,-1.02944,-0.0392,0.10304,0.46466
-0.622968,0,0,15.623,15.623,14.377,14.377,2.07656,2.77355,0.252777,0.14992,0.0687332,0.104462,0,0,3.955,0.105,0.77,0.158844,0.044652,-0.907192,-0.0392,0.10304,0.46466
-0.622459,0,0,15.6225,15.6225,14.3775,14.3775,2.07486,2.77327,0.25489,-0.0105578,-0.0119,-0.197867,1,0,2.52,0.07,0.84,-0.002318,-0.035868,-1.20719,-0.0392,0.10304,0.46466
-0.695953,0,0,15.696,15.696,14.304,14.304,2.31984,2.7039,0.34476,-0.0699698,-0.251517,0.0394406,0,0,2.975,-0.2275,0.665,-0.063196,-0.279502,-0.971608,-0.03598,0.10822,0.46494
-0.632614,0,0,15.6326,15.6326,14.3674,14.3674,2.10871,2.73516,0.317611,0.0255803,0.201314,0.0985722,0,0,2.8,-0.28,0.6475,0.033306,0.176534,-0.913048,-0.03598,0.10822,0.46494
-0.571493,0,0,15.5715,15.5715,14.4285,14.4285,1.90498,2.7662,0.2892,0.0250392,0.197763,0.0986706,0,0,5.04,-0.1225,-0.105,0.033306,0.176534,-0.913048,-0.03598,0.10822,0.46494
-0.545197,0,0,15.5452,15.5452,14.4548,14.4548,1.81732,2.6435,0.409725,-0.120791,0.0957286,-0.0499464,0,0,4.9525,0.1925,-0.6825,-0.11529,0.076128,-1.06067,-0.03598,0.10822,0.46494
-0.519213,0,0,15.5192,15.5192,14.4808,14.4808,1.73071,2.52298,0.530283,-0.11869,0.0942222,-0.0498049,0,0,4.725,0.1925,-0.84,-0.11529,0.076128,-1.06067,-0.03598,0.10822,0.46494
-0.490689,0,0,15.4907,15.4907,14.5093,14.5093,1.63563,2.71338,0.360329,0.164211,0.0946369,0.11054,0,0,4.9,0.0175,-1.295,0.172142,0.078202,-0.901458,-0.03598,0.10822,0.46494
-0.461733,0,0,15.4617,15.4617,14.5383,14.5383,1.53911,2.90153,0.189904,0.160931,0.0929505,0.110426,0,0,3.255,0.63,-1.3825,0.172142,0.078202,-0.901458,-0.03598,0.10822,0.46494
-0.461828,0,0,15.4618,15.4618,14.5382,14.5382,1.53943,2.90177,0.187948,0.150843,-0.0653202,0.157269,1,0,3.7625,0.2975,-1.54,0.162016,-0.07991,-0.854976,-0.03598,0.10822,0.46494
-0.461603,0,0,15.4616,15.4616,14.5384,14.5384,1.53868,2.90134,0.185223,0.150851,-0.0653333,0.157269,1,0,3.185,-0.105,-1.9775,0.162016,-0.07991,-0.854976,-0.04256,0.0966,0.46018
-0.48862,0,0,15.4886,15.4886,14.5114,14.5114,1.62873,2.68247,0.419276,-0.225584,-0.102962,-0.0570102,0,0,3.115,-0.105,-1.925,-0.219844,-0.119072,-1.06774,-0.04256,0.0966,0.46018
-0.515558,0,0,15.5156,15.5156,14.4844,14.4844,1.71853,2.4684,0.653389,-0.221851,-0.101392,-0.0568881,0,0,3.7975,0.49,-1.26,-0.219844,-0.119072,-1.06774,-0.04256,0.0966,0.46018
-0.521023,0,0,15.521,15.521,14.479,14.479,1.73674,2.54751,0.615447,0.0840064,-0.0227928,-0.0778593,0,0,3.4825,0.595,-1.1375,0.088694,-0.04087,-1.08848,-0.04256,0.0966,0.46018
-0.527028,0,0,15.527,15.527,14.473,14.473,1.75676,2.62414,0.578666,0.0826703,-0.0224458,-0.0779302,0,0,4.6375,0,-0.49,0.088694,-0.04087,-1.08848,-0.04256,0.0966,0.46018
-0.527296,0,0,15.5273,15.5273,14.4727,14.4727,1.75765,2.62492,0.57883,-0.217413,-0.144435,-0.109283,1,0,4.025,0.6475,-0.315,-0.212646,-0.162748,-1.11959,-0.04256,0.0966,0.46018
-0.527342,0,0,15.5273,15.5273,14.4727,14.4727,1.75781,2.62548,0.580579,-0.217423,-0.144432,-0.109284,1,0,3.57,0.5425,0.6125,-0.212646,-0.162748,-1.11959,-0.04256,0.0966,0.46018
-0.528157,0,0,15.5282,15.5282,14.4718,14.4718,1.76052,2.82215,0.43284,0.196816,-0.00321134,-0.0162533,0,0,3.64,0.35,0.8925,0.20679,-0.021716,-1.02712,-0.04256,0.0966,0.46018
-0.528743,0,0,15.5287,15.5287,14.4713,14.4713,1.76248,3.01388,0.276967,0.193475,-0.00318257,-0.0164246,0,0,3.2725,-0.1575,0.6475,0.20679,-0.021716,-1.02712,-0.04046,0.1015,0.46466
-0.509192,0,0,15.5092,15.5092,14.4908,14.4908,1.69731,3.01213,0.29316,0.00520229,0.0704237,-0.0867152,0,0,3.535,-0.4725,0.7,0.01769,0.052948,-1.0969,-0.04046,0.1015,0.46466
-0.48963,0,0,15.4896,15.4896,14.5104,14.5104,1.6321,3.01133,0.309888,0.00521613,0.0692877,-0.0866815,0,0,2.8875,0.07,0.9625,0.01769,0.052948,-1.0969,-0.04046,0.1015,0.46466
-0.495446,0,0,15.4954,15.4954,14.5046,14.5046,1.65149,2.90447,0.430669,-0.0990998,-0.0174481,0.0697955,0,0,3.0275,0,1.015,-0.088938,-0.034038,-0.941718,-0.04046,0.1015,0.46466
-0.501465,0,0,15.5015,15.5015,14.4985,14.4985,1.67155,2.80002,0.550424,-0.097279,-0.0170959,0.0698761,0,0,3.6225,0.28,0.56,-0.088938,-0.034038,-0.941718,-0.04046,0.1015,0.46466
-0.427698,0,0,15.4277,15.4277,14.5723,14.5723,1.42566,2.768,0.586796,-0.0269881,0.256214,0.0201019,0,0,4.1125,0.3325,-0.035,-0.01891,0.243268,-0.99125,-0.04046,0.1015,0.46466
-0.354992,0,0,15.355,15.355,14.645,14.645,1.18331,2.73561,0.62317,-0.0264234,0.251991,0.0202253,0,0,3.8675,-0.2275,-0.315,-0.01891,0.243268,-0.99125,-0.04046,0.1015,0.46466
-0.355123,0,0,15.3551,15.3551,14.6449,14.6449,1.18374,2.73607,0.62293,0.092989,-0.0349996,0.215098,1,0,3.78,0.455,-0.5425,0.101016,-0.043432,-0.79788,-0.04046,0.1015,0.46466
-0.355278,0,0,15.3553,15.3553,14.6447,14.6447,1.18426,2.73692,0.621106,0.0929741,-0.0349906,0.215097,1,0,3.8675,0.665,-1.47,0.101016,-0.043432,-0.79788,-0.04102,0.09968,0.46466
-0.368299,0,0,15.3683,15.3683,14.6317,14.6317,1.22766,2.85771,0.533634,0.125978,-0.0481587,-0.0502215,0,0,3.8675,0.1575,-1.5575,0.136274,-0.05734,-1.06103,-0.04102,0.09968,0.46466
-0.38135,0,0,15.3814,15.3814,14.6186,14.6186,1.27117,2.97609,0.446178,0.123914,-0.0474029,-0.0503431,0,0,4.34,0.0175,-1.68,0.136274,-0.05734,-1.06103,-0.04102,0.09968,0.46466
-0.381306,0,0,15.3813,15.3813,14.6187,14.6187,1.27102,2.97499,0.443741,-0.140419,-0.118727,-0.148455,1,0,3.5175,-0.49,-1.8025,-0.129198,-0.128588,-1.15839,-0.04102,0.09968,0.46466
-0.380906,0,0,15.3809,15.3809,14.6191,14.6191,1.26969,2.97547,0.441308,-0.140428,-0.118751,-0.148455,1,0,2.8525,0.4375,-1.82,-0.129198,-0.128588,-1.15839,-0.04102,0.09968,0.46466
-0.380718,0,0,15.3807,15.3807,14.6193,14.6193,1.26906,2.97594,0.439237,-0.0234451,-0.115831,-0.142799,1,0,3.2375,0.4375,-1.61,-0.011712,-0.12566,-1.15278,-0.04102,0.09968,0.46466
-0.380655,0,0,15.3807,15.3807,14.6193,14.6193,1.26885,2.97654,0.437979,-0.0234556,-0.115834,-0.1428,1,0,3.4475,0.525,-1.1375,-0.011712,-0.12566,-1.15278,-0.04102,0.09968,0.46466
-0.380722,0,0,15.3807,15.3807,14.6193,14.6193,1.26907,2.97759,0.437241,-0.0484998,-0.141599,-0.210669,1,0,3.675,0.7875,-0.84,-0.036844,-0.151402,-1.22012,-0.04102,0.09968,0.46466
-0.380353,0,0,15.3804,15.3804,14.6196,14.6196,1.26784,2.97867,0.437375,-0.0485186,-0.141621,-0.210669,1,0,2.835,0.8225,-0.3325,-0.036844,-0.151402,-1.22012,-0.03822,0.10766,0.469
-0.380017,0,0,15.38,15.38,14.62,14.62,1.26672,2.98013,0.437879,-0.0866906,0.084905,0.247313,1,0,2.8875,1.05,-0.1225,-0.075152,0.074908,-0.765672,-0.03822,0.10766,0.469
-0.379847,0,0,15.3798,15.3798,14.6202,14.6202,1.26616,2.97975,0.439332,-0.086684,0.0848951,0.247314,1,0,3.1675,-0.0175,0.455,-0.075152,0.074908,-0.765672,-0.03822,0.10766,0.469
-0.39238,0,0,15.3924,15.3924,14.6076,14.6076,1.30793,2.93952,0.489748,-0.0400612,-0.0382126,0.0769271,0,0,3.395,0,0.77,-0.029036,-0.0488,-0.934764,-0.03822,0.10766,0.469
-0.405032,0,0,15.405,15.405,14.595,14.595,1.35011,2.8992,0.540707,-0.0393585,-0.0374769,0.0769458,0,0,3.99,-0.455,1.19,-0.029036,-0.0488,-0.934764,-0.03822,0.10766,0.469
-0.404501,0,0,15.4045,15.4045,14.5955,14.5955,1.34834,2.89868,0.543118,0.174101,-0.252329,-0.104279,1,0,2.4675,-0.0875,1.015,0.185318,-0.263398,-1.11459,-0.03822,0.10766,0.469
-0.40446,0,0,15.4045,15.4045,14.5955,14.5955,1.3482,2.89918,0.545162,0.174092,-0.252331,-0.104279,1,0,3.395,0.5075,0.7875,0.185318,-0.263398,-1.11459,-0.03822,0.10766,0.469
-0.383405,0,0,15.3834,15.3834,14.6166,14.6166,1.27802,2.82382,0.623994,-0.0742471,0.0758232,-0.0787354,0,0,3.2375,0.105,0.7,-0.065392,0.065636,-1.08934,-0.03822,0.10766,0.469
-0.362671,0,0,15.3627,15.3627,14.6373,14.6373,1.2089,2.74949,0.702195,-0.0729514,0.07462,-0.0786462,0,0,3.2025,-0.0875,0.245,-0.065392,0.065636,-1.08934,-0.03822,0.10766,0.469
-0.362839,0,0,15.3628,15.3628,14.6372,14.6372,1.20946,2.74934,0.702602,-0.00576717,0.119084,-0.177251,1,0,3.8325,0.105,-0.1575,0.002074,0.110044,-1.18718,-0.04242,0.1064,0.46452
-0.362714,0,0,15.3627,15.3627,14.6373,14.6373,1.20905,2.7498,0.702152,-0.00577531,0.119077,-0.177251,1,0,3.3075,0.455,-0.665,0.002074,0.110044,-1.18718,-0.04242,0.1064,0.46452
-0.363145,0,0,15.3631,15.3631,14.6369,14.6369,1.21048,2.74968,0.701239,0.0703983,0.173448,0.142046,1,0,4.3575,0.105,-0.9275,0.078568,0.164334,-0.870348,-0.04242,0.1064,0.46452
-0.363369,0,0,15.3634,15.3634,14.6366,14.6366,1.21123,2.74847,0.699702,0.0704195,0.173461,0.142046,1,0,3.99,-0.5425,-1.2775,0.078568,0.164334,-0.870348,-0.04242,0.1064,0.46452
-0.363525,0,0,15.3635,15.3635,14.6365,14.6365,1.21175,2.74732,0.697926,-0.191484,-0.146502,-0.137046,1,0,3.8675,-0.5075,-1.4175,-0.184464,-0.155306,-1.14729,-0.04242,0.1064,0.46452
-0.362887,0,0,15.3629,15.3629,14.6371,14.6371,1.20962,2.74702,0.695627,-0.191478,-0.146539,-0.137045,1,0,2.3975,-0.0175,-1.7325,-0.184464,-0.155306,-1.14729,-0.04242,0.1064,0.46452
-0.353103,0,0,15.3531,15.3531,14.6469,14.6469,1.17701,2.94462,0.521737,0.183262,0.0315606,0.0596362,0,0,2.3975,-0.105,-1.5925,0.195322,0.02318,-0.951966,-0.04242,0.1064,0.46452
-0.344099,0,0,15.3441,15.3441,14.6559,14.6559,1.147,3.13876,0.34833,0.179878,0.0310339,0.0594671,0,0,3.57,-0.105,-1.33,0.195322,0.02318,-0.951966,-0.04242,0.1064,0.46452
-0.344246,0,0,15.3442,15.3442,14.6558,14.6558,1.14749,3.13856,0.346814,0.0675076,-0.20283,-0.325976,1,0,3.85,0.0525,-1.2775,0.082472,-0.21045,-1.33444,-0.0448,0.10192,0.45766
-0.344375,0,0,15.3444,15.3444,14.6556,14.6556,1.14792,3.13969,0.345926,0.0674879,-0.202823,-0.325978,1,0,3.7975,0.84,-0.9275,0.082472,-0.21045,-1.33444,-0.0448,0.10192,0.45766
-0.369166,0,0,15.3692,15.3692,14.6308,14.6308,1.23055,3.25951,0.256341,0.111929,-0.0860978,0.021697,0,0,2.8525,0.7525,-0.91,0.129198,-0.095282,-0.989298,-0.0448,0.10192,0.45766
-0.393565,0,0,15.3936,15.3936,14.6064,14.6064,1.31188,3.37632,0.168547,0.109894,-0.0846837,0.0215476,0,0,2.835,0.28,-0.07,0.129198,-0.095282,-0.989298,-0.0448,0.10192,0.45766
-0.393281,0,0,15.3933,15.3933,14.6067,14.6067,1.31094,3.3763,0.169769,0.0195087,-0.0612518,0.169701,1,0,2.9575,0.1925,0.315,0.03843,-0.071858,-0.842288,-0.0448,0.10192,0.45766
-0.392901,0,0,15.3929,15.3929,14.6071,14.6071,1.30967,3.37514,0.171386,0.0195289,-0.0612739,0.169703,1,0,2.765,-0.4725,0.56,0.03843,-0.071858,-0.842288,-0.0448,0.10192,0.45766
-0.381803,0,0,15.3818,15.3818,14.6182,14.6182,1.27268,3.15826,0.384057,-0.200347,0.036765,0.064566,0,0,3.2375,-0.2975,0.735,-0.186172,0.026718,-0.946842,-0.0448,0.10192,0.45766
-0.371101,0,0,15.3711,15.3711,14.6289,14.6289,1.237,2.94621,0.596805,-0.196651,0.0361477,0.0647766,0,0,3.6575,0.315,0.7525,-0.186172,0.026718,-0.946842,-0.0448,0.10192,0.45766
-0.371225,0,0,15.3712,15.3712,14.6288,14.6288,1.23742,2.9468,0.599211,0.13548,0.087326,-0.103664,1,0,3.6925,0.56,0.9975,0.147376,0.077836,-1.11398,-0.04298,0.105,0.46606
-0.371323,0,0,15.3713,15.3713,14.6287,14.6287,1.23774,2.94638,0.601084,0.135488,0.0873317,-0.103663,1,0,3.6575,-0.035,0.7,0.147376,0.077836,-1.11398,-0.04298,0.105,0.46606
-0.3713,0,0,15.3713,15.3713,14.6287,14.6287,1.23767,2.94546,0.602376,-0.294434,-0.0551916,-0.213578,1,0,3.4475,-0.3325,0.3675,-0.284382,-0.064538,-1.22305,-0.04298,0.105,0.46606
-0.371276,0,0,15.3713,15.3713,14.6287,14.6287,1.23759,2.94455,0.603668,-0.294418,-0.0551929,-0.213578,1,0,3.4475,-0.3325,0.3675,-0.284382,-0.064538,-1.22305,-0.04298,0.105,0.46606
-0.37127,0,0,15.3713,15.3713,14.6287,14.6287,1.23757,2.94435,0.603684,0.306696,0.250368,-0.0404658,1,0,3.5175,0.07,-0.385,0.319274,0.240706,-1.05127,-0.04298,0.105,0.46606
-0.381498,0,0,15.3815,15.3815,14.6185,14.6185,1.27166,3.12146,0.452953,0.17034,-0.0338412,0.0304219,0,0,3.9375,-0.6125,-0.315,0.18544,-0.043798,-0.980758,-0.04298,0.105,0.46606
-0.391429,0,0,15.3914,15.3914,14.6086,14.6086,1.30476,3.29664,0.301876,0.167287,-0.0332684,0.0302378,0,0,3.7275,0.07,-0.735,0.18544,-0.043798,-0.980758,-0.04298,0.105,0.46606
-0.391201,0,0,15.3912,15.3912,14.6088,14.6088,1.304,3.29602,0.30044,0.033056,-0.0708966,0.135483,1,0,3.15,-0.1925,-1.225,0.05063,-0.081374,-0.876326,-0.04298,0.105,0.46606
-0.390884,0,0,15.3909,15.3909,14.6091,14.6091,1.30295,3.29538,0.298673,0.0330671,-0.070915,0.135484,1,0,2.9925,-0.21,-1.4175,0.05063,-0.081374,-0.876326,-0.0462,0.1064,0.46298
-0.362903,0,0,15.3629,15.3629,14.6371,14.6371,1.20968,3.26213,0.329465,-0.0334135,0.0925763,0.0687915,0,0,4.1475,0.2275,-1.4,-0.016714,0.08357,-0.942572,-0.0462,0.1064,0.46298
-0.335397,0,0,15.3354,15.3354,14.6646,14.6646,1.11799,3.22997,0.360393,-0.0328532,0.0909796,0.0688557,0,0,4.165,0.525,-1.4175,-0.016714,0.08357,-0.942572,-0.0462,0.1064,0.46298
-0.335678,0,0,15.3357,15.3357,14.6643,14.6643,1.11893,3.23052,0.358562,0.258946,0.225457,-0.11065,1,0,4.1125,0.49,-1.47,0.27633,0.217892,-1.12069,-0.0462,0.1064,0.46298
-0.335053,0,0,15.3351,15.3351,14.6649,14.6649,1.11684,3.23145,0.357368,0.25893,0.225421,-0.11065,1,0,2.3975,0.7175,-1.1025,0.27633,0.217892,-1.12069,-0.0462,0.1064,0.46298
-0.334794,0,0,15.3348,15.3348,14.6652,14.6652,1.11598,3.23208,0.356259,0.0133961,0.0982721,0.20213,1,0,3.08,0.5425,-1.05,0.029768,0.09089,-0.810324,-0.0462,0.1064,0.46298
-0.334159,0,0,15.3342,15.3342,14.6658,14.6658,1.11386,3.23231,0.355593,0.0133921,0.0982352,0.202131,1,0,2.3625,0.315,-0.7875,0.029768,0.09089,-0.810324,-0.0462,0.1064,0.46298
-0.333462,0,0,15.3335,15.3335,14.6665,14.6665,1.11154,3.23172,0.355722,-0.35397,-0.142517,0.186149,1,0,2.2225,-0.1575,-0.315,-0.33916,-0.149572,-0.826184,-0.0462,0.1064,0.46298
