pid_x,pid_y,pid_z,front_left_speed,front_right_speed,back_left_speed,back_right_speed,orientation_x,orientation_y,orientation_z,acceleration_x,acceleration_y,acceleration_z,gyro_x,gyro_y,gyro_z,accel_x,accel_y,accel_z,mag_x,mag_y,mag_z
-0.272737,0,0,5.27274,5.27274,5,5,0.495886,-0.0338241,-0.213572,0.0376874,-0.427038,0.0924815,3.71,0.1925,-0.525,-0.00305,-0.423096,-0.920856,-0.07224,0.23968,0.34972
-0.540557,0,0,5.54056,5.54056,5,5,0.982831,-0.0651675,-0.425735,0.0383559,-0.420128,0.0889288,3.745,0,-0.5775,-0.002928,-0.424682,-0.924272,-0.07224,0.23968,0.34972
-0.803157,0,0,5.80316,5.80316,5,5,1.46028,-0.0957972,-0.63447,0.0371897,-0.411064,0.0889963,3.6575,0.0525,-0.5075,-0.004636,-0.42395,-0.924028,-0.07224,0.23968,0.34972
-1.06089,0,0,6.06089,6.06089,5,5,1.92888,-0.123568,-0.841469,0.0376744,-0.402889,0.0887536,3.5175,0.175,-0.3675,-0.004636,-0.42395,-0.924028,-0.07224,0.23968,0.34972
-1.31665,0,0,6.31665,6.31665,5,5,2.39391,-0.151123,-1.04527,0.0368189,-0.396733,0.0952085,3.5175,0.175,-0.3675,-0.005978,-0.425902,-0.917318,-0.07224,0.23968,0.34972
-1.56535,0,0,6.56535,6.56535,5,5,2.84608,-0.173697,-1.24934,0.0386708,-0.387872,0.0863632,3.7625,0.21,-0.4375,-0.004514,-0.424926,-0.925736,-0.07224,0.23968,0.34972
-1.80931,0,0,6.80931,6.80931,5,5,3.28966,-0.1945,-1.45234,0.0390338,-0.380142,0.0859477,3.605,0.0525,-0.4725,-0.004514,-0.424926,-0.925736,-0.07112,0.24094,0.35616
-2.0487,0,0,7.0487,7.0487,5,5,3.72492,-0.214371,-1.65242,0.0381658,-0.370605,0.0897849,3.465,0.105,-0.4025,-0.005734,-0.422974,-0.921466,-0.07112,0.24094,0.35616
-2.28204,0,0,7.28204,7.28204,5,5,4.14916,-0.230783,-1.85165,0.0391812,-0.362486,0.0839886,3.57,0.0875,-0.35,-0.005002,-0.422242,-0.926712,-0.07112,0.24094,0.35616
-2.51117,0,0,7.51117,7.51117,5,5,4.56576,-0.245018,-2.04935,0.0394296,-0.355236,0.0834351,3.6925,0.14,-0.4375,-0.005002,-0.422242,-0.926712,-0.07112,0.24094,0.35616
-2.7366,0,0,7.7366,7.7366,5,5,4.97564,-0.256627,-2.24591,0.0402397,-0.349572,0.0818557,3.7625,0.1575,-0.4725,-0.004392,-0.423706,-0.927688,-0.07112,0.24094,0.35616
-2.95796,0,0,7.95796,7.95796,5,5,5.3781,-0.266229,-2.44068,0.0404072,-0.342577,0.0812212,3.885,0.2275,-0.4375,-0.004392,-0.423706,-0.927688,-0.07112,0.24094,0.35616
-3.17593,0,0,8.17593,8.17593,5,5,5.77441,-0.277642,-2.63093,0.0380552,-0.335937,0.0828841,3.885,0.2275,-0.4375,-0.006954,-0.42395,-0.92537,-0.07112,0.24094,0.35616
-3.39035,0,0,8.39035,8.39035,5,5,6.16427,-0.284785,-2.82156,0.0401237,-0.328437,0.0872168,3.5875,0.105,-0.42,-0.005002,-0.423218,-0.920368,-0.07112,0.24094,0.35616
-3.60076,0,0,8.60076,8.60076,5,5,6.54683,-0.292739,-3.01804,0.0402625,-0.321802,0.086477,3.5525,0.0875,-0.5775,-0.005002,-0.423218,-0.920368,-0.07112,0.24234,0.343
-3.80622,0,0,8.80622,8.80622,5,5,6.9204,-0.295108,-3.21549,0.0427335,-0.313739,0.0854664,3.5525,0.1575,-0.6125,-0.002562,-0.421632,-0.920612,-0.07112,0.24234,0.343
-4.00809,0,0,9.00809,9.00809,5,5,7.28743,-0.301895,-3.40642,0.0389645,-0.311779,0.0755754,3.78,0.1575,-0.56,-0.006466,-0.426024,-0.92964,-0.07112,0.24234,0.343
-4.20611,0,0,9.20611,9.20611,5,5,7.64747,-0.306745,-3.5953,0.0390491,-0.305548,0.0747583,3.7625,0.35,-0.4375,-0.006466,-0.426024,-0.92964,-0.07112,0.24234,0.343
-4.40071,0,0,9.40071,9.40071,5,5,8.00129,-0.314412,-3.77908,0.0361458,-0.298698,0.0768677,3.71,0.2975,-0.3675,-0.009516,-0.425292,-0.926712,-0.07112,0.24234,0.343
-4.59144,0,0,9.59144,9.59144,5,5,8.34808,-0.320666,-3.96131,0.0362549,-0.292707,0.0760064,3.5525,0.175,-0.4725,-0.009516,-0.425292,-0.926712,-0.07112,0.24234,0.343
-4.77947,0,0,9.77947,9.77947,5,5,8.68995,-0.320088,-4.14574,0.0400109,-0.286196,0.0802864,3.5525,0.175,-0.4725,-0.005734,-0.424682,-0.921588,-0.07112,0.24234,0.343
-4.96212,0,0,9.96212,9.96212,5,5,9.02203,-0.321044,-4.32639,0.0378408,-0.278393,0.0768122,3.535,0.0525,-0.5075,-0.00793,-0.422608,-0.92415,-0.07112,0.24234,0.343
-5.14133,0,0,10.1413,10.1413,5,5,9.34787,-0.320521,-4.50525,0.0378317,-0.272779,0.0759045,3.605,0.14,-0.525,-0.00793,-0.422608,-0.92415,-0.07112,0.24234,0.343
-5.31726,0,0,10.3173,10.3173,5,5,9.66775,-0.313206,-4.67731,0.0402552,-0.26825,0.0742453,3.605,0.14,-0.525,-0.005368,-0.423584,-0.924882,-0.06636,0.23842,0.34902
-5.49004,0,0,10.49,10.49,5,5,9.98189,-0.301135,-4.8507,0.0429602,-0.262847,0.0742944,3.675,-0.105,-0.525,-0.00244,-0.423584,-0.923906,-0.06636,0.23842,0.34902
-5.65987,0,0,10.6599,10.6599,5,5,10.2907,-0.286384,-5.0235,0.0437961,-0.255466,0.0792488,3.71,-0.0875,-0.49,-0.001342,-0.42151,-0.91805,-0.06636,0.23842,0.34902
-5.82731,0,0,10.8273,10.8273,5,5,10.5951,-0.273087,-5.19267,0.0421062,-0.252072,0.078041,3.6575,0.0525,-0.5075,-0.002806,-0.42334,-0.918294,-0.06636,0.23842,0.34902
-5.99141,0,0,10.9914,10.9914,5,5,10.8935,-0.259354,-5.36018,0.0418666,-0.246956,0.0770713,3.5525,-0.1575,-0.5425,-0.002806,-0.42334,-0.918294,-0.06636,0.23842,0.34902
-6.15318,0,0,11.1532,11.1532,5,5,11.1876,-0.242853,-5.52713,0.0430364,-0.242528,0.0783025,3.5525,-0.105,-0.455,-0.001342,-0.42395,-0.916098,-0.06636,0.23842,0.34902
-6.31177,0,0,11.3118,11.3118,5,5,11.4759,-0.225415,-5.69219,0.042732,-0.237593,0.0773149,3.5,0.07,-0.4375,-0.001342,-0.42395,-0.916098,-0.06636,0.23842,0.34902
-6.46545,0,0,11.4654,11.4654,5,5,11.7554,-0.212699,-5.85175,0.038744,-0.232572,0.0695717,3.5,0.07,-0.4375,-0.005124,-0.423706,-0.922808,-0.06636,0.23842,0.34902
-6.61601,0,0,11.616,11.616,5,5,12.0291,-0.200933,-6.01055,0.0379313,-0.228141,0.0671124,3.64,-0.14,-0.49,-0.005734,-0.42395,-0.924272,-0.0651,0.24038,0.3577
-6.76432,0,0,11.7643,11.7643,5,5,12.2988,-0.19578,-6.16223,0.0326174,-0.223296,0.0684571,3.7275,0.105,-0.5425,-0.01098,-0.423706,-0.921954,-0.0651,0.24038,0.3577
-6.90446,0,0,11.9045,11.9045,5,5,12.5536,-0.179261,-6.31986,0.0387679,-0.216144,0.0543456,3.6225,0.14,-0.6475,-0.004514,-0.4209,-0.935008,-0.0651,0.24038,0.3577
-7.04182,0,0,12.0418,12.0418,5,5,12.8033,-0.162358,-6.47589,0.0384729,-0.211891,0.0533898,3.5875,0.07,-0.6825,-0.004514,-0.4209,-0.935008,-0.0651,0.24038,0.3577
-7.1809,0,0,12.1809,12.1809,5,5,13.0562,-0.144002,-6.6308,0.0393674,-0.210154,0.0640832,3.5875,0.07,-0.6825,-0.003294,-0.423462,-0.923418,-0.0651,0.24038,0.3577
-7.31024,0,0,12.3102,12.3102,5,5,13.2913,-0.174255,-6.75005,0.00515046,-0.196388,0.0539252,3.4475,0.35,-0.6475,-0.038186,-0.413702,-0.932568,-0.0651,0.24038,0.3577
-7.43699,0,0,12.437,12.437,5,5,13.5218,-0.203603,-6.86817,0.00566266,-0.192476,0.052991,3.43,-0.07,-0.49,-0.038186,-0.413702,-0.932568,-0.0651,0.24038,0.3577
-7.57596,0,0,12.576,12.576,5,5,13.7745,-0.0553059,-7.10382,0.122009,-0.20321,0.0915455,3.43,-0.07,-0.49,0.081252,-0.428708,-0.893284,-0.0651,0.24038,0.3577
-7.70063,0,0,12.7006,12.7006,5,5,14.0011,-0.0370329,-7.25891,0.0418739,-0.242603,-0.0581714,3.64,0.0175,-0.595,0.001098,-0.471896,-1.0409,-0.0658,0.24402,0.3577
-7.77508,0,0,12.7751,12.7751,5,5,14.1365,-0.00213156,-7.4254,0.0422366,-0.155066,-0.0782944,3.605,-0.14,-0.665,0.002074,-0.38674,-1.0603,-0.0658,0.24402,0.3577
-7.90024,0,0,12.9002,12.9002,5,5,14.3641,0.000180743,-7.56573,0.0260387,-0.179917,0.0749053,3.85,0.315,-0.7,-0.014152,-0.41541,-0.907314,-0.0658,0.24402,0.3577
-8.02267,0,0,13.0227,13.0227,5,5,14.5867,0.00237205,-7.70537,0.0260004,-0.176155,0.0739342,3.5875,-0.315,-0.9975,-0.014152,-0.41541,-0.907314,-0.0658,0.24402,0.3577
-8.21942,0,0,13.2194,13.2194,5,5,14.9444,-0.20923,-7.69468,-0.0826807,-0.205414,0.238932,3.5875,-0.315,-0.9975,-0.127002,-0.450668,-0.742004,-0.0658,0.24402,0.3577
-8.34808,0,0,13.3481,13.3481,5,5,15.1783,-0.0622548,-7.92275,0.138652,-0.264609,-0.0610111,3.1675,-0.35,-1.1375,0.097844,-0.513742,-1.03859,-0.0658,0.24402,0.3577
-8.47434,0,0,13.4743,13.4743,5,5,15.4079,0.0823601,-8.14672,0.136128,-0.260745,-0.0620684,3.255,0.2275,-0.805,0.097844,-0.513742,-1.03859,-0.0658,0.24402,0.3577
-8.46065,0,0,13.4607,13.4607,5,5,15.383,0.191774,-8.35441,0.0657007,0.0209481,0.0132871,3.255,0.2275,-0.805,0.029036,-0.231922,-0.963922,-0.0658,0.24402,0.3577
-8.74843,0,0,13.7484,13.7484,5,5,15.9062,-0.20242,-8.20508,-0.177194,-0.332608,0.295081,3.6575,0.0175,-0.735,-0.221796,-0.593896,-0.681858,-0.0658,0.24402,0.3577
-9.03062,0,0,14.0306,14.0306,5,5,16.4193,-0.587922,-8.06778,-0.170466,-0.324021,0.292544,3.4825,0.14,-0.4025,-0.221796,-0.593896,-0.681858,-0.07,0.25004,0.36848
-9.19557,0,0,14.1956,14.1956,5,5,16.7192,-0.537413,-8.2198,0.0792776,-0.388247,-0.134711,3.9375,-0.0525,-0.5075,0.02989,-0.66307,-1.10434,-0.07,0.25004,0.36848
-9.1587,0,0,14.1587,14.1587,5,5,16.6522,-1.37907,-7.78556,-0.454664,0.153415,0.256242,3.9725,-0.1225,-0.35,-0.521062,-0.12078,-0.716506,-0.07,0.25004,0.36848
-9.17498,0,0,14.175,14.175,5,5,16.6818,-0.411793,-8.49424,0.922383,-0.144859,-0.159096,4.7425,0.7,0.385,0.878766,-0.419314,-1.12874,-0.07,0.25004,0.36848
-9.18844,0,0,14.1884,14.1884,5,5,16.7063,0.530594,-9.19541,0.905935,-0.144454,-0.159235,3.29,-0.9275,0.7,0.878766,-0.419314,-1.12874,-0.07,0.25004,0.36848
-9.3716,0,0,14.3716,14.3716,5,5,17.0393,-0.219166,-8.82607,-0.412341,-0.184558,0.241277,3.29,-0.9275,0.7,-0.458232,-0.464942,-0.729682,-0.07,0.25004,0.36848
-9.44268,0,0,14.4427,14.4427,5,5,17.1685,0.283392,-9.25655,0.426615,-0.225392,-0.14336,2.345,0.0175,0.385,0.393084,-0.507886,-1.11069,-0.07,0.25004,0.36848
-9.51217,0,0,14.5122,14.5122,5,5,17.2949,0.772293,-9.68442,0.418082,-0.223309,-0.144088,2.135,0.4725,0.8225,0.393084,-0.507886,-1.11069,-0.07014,0.25368,0.3724
-9.59345,0,0,14.5934,14.5934,5,5,17.4426,0.811442,-9.84035,0.0477182,-0.149773,-0.0136808,2.5375,-0.84,1.0325,0.021838,-0.436882,-0.980514,-0.07014,0.25368,0.3724
-9.48637,0,0,14.4864,14.4864,5,5,17.248,1.01597,-10.1132,0.118984,0.143735,-0.129154,4.8475,-1.0675,1.1725,0.09699,-0.140422,-1.09605,-0.07014,0.25368,0.3724
-9.38202,0,0,14.382,14.382,5,5,17.0582,1.21584,-10.3865,0.115497,0.140552,-0.128243,5.53,-0.4725,0.175,0.09699,-0.140422,-1.09605,-0.07014,0.25368,0.3724
-9.65887,0,0,14.6589,14.6589,5,5,17.5616,1.06515,-10.3928,-0.0398055,-0.627162,-0.0619553,5.53,-0.4725,0.175,-0.06161,-0.915732,-1.02773,-0.07014,0.25368,0.3724
-9.68472,0,0,14.6847,14.6847,5,5,17.6086,0.97556,-10.4699,-0.05525,-0.0713062,-0.0989381,4.8125,0.77,0.2625,-0.07869,-0.361242,-1.06421,-0.07014,0.25368,0.3724
-9.70953,0,0,14.7095,14.7095,5,5,17.6537,0.887815,-10.5462,-0.0537188,-0.0705483,-0.0991528,4.3575,0.35,0.525,-0.07869,-0.361242,-1.06421,-0.07014,0.25368,0.3724
-9.71029,0,0,14.7103,14.7103,5,5,17.6551,0.887764,-10.5445,0.0932798,0.0196041,0.124237,4.3575,0.35,0.525,0.06893,-0.271206,-0.842532,-0.07014,0.25368,0.3724
-9.70932,0,0,14.7093,14.7093,5,5,17.6533,0.886753,-10.5439,-0.226453,0.111536,0.301907,2.6075,-0.4025,0.0175,-0.252174,-0.17934,-0.666242,-0.07014,0.25368,0.3724
-9.70722,0,0,14.7072,14.7072,5,5,17.6495,0.887235,-10.5449,-0.226461,0.111473,0.301928,1.47,0.1575,-1.1025,-0.252174,-0.17934,-0.666242,-0.06608,0.25816,0.38192
-9.7054,0,0,14.7054,14.7054,5,5,17.6462,0.888712,-10.5457,-0.454516,0.160268,0.413828,1.75,0.7525,-1.155,-0.481168,-0.13054,-0.555222,-0.06608,0.25816,0.38192
-9.70446,0,0,14.7045,14.7045,5,5,17.6445,0.888454,-10.5469,0.594882,-0.404352,-0.0502937,2.66,-0.2975,-1.1025,0.572668,-0.694546,-1.01577,-0.06608,0.25816,0.38192
-9.70353,0,0,14.7035,14.7035,5,5,17.6428,0.888195,-10.5482,0.594887,-0.40438,-0.0502846,2.66,-0.2975,-1.1025,0.572668,-0.694546,-1.01577,-0.06608,0.25816,0.38192
-9.70417,0,0,14.7042,14.7042,5,5,17.6439,0.890138,-10.5502,-0.516984,-0.0359045,-0.197829,4.27,0.7875,-1.9425,-0.543876,-0.326472,-1.16217,-0.06608,0.25816,0.38192
-9.70541,0,0,14.7054,14.7054,5,5,17.6462,0.892537,-10.5536,0.469802,-0.292822,-0.00665716,4.9,0.805,-2.765,0.44713,-0.58316,-0.972462,-0.06608,0.25816,0.38192
-9.70687,0,0,14.7069,14.7069,5,5,17.6488,0.893967,-10.5566,0.469777,-0.292778,-0.00667152,5.11,0.3325,-2.38,0.44713,-0.58316,-0.972462,-0.06608,0.25816,0.38192
-9.70801,0,0,14.708,14.708,5,5,17.6509,0.894539,-10.5595,-0.349654,-0.022721,0.23946,4.795,-0.1225,-2.1525,-0.37576,-0.313418,-0.728218,-0.06608,0.25816,0.38192
-9.70728,0,0,14.7073,14.7073,5,5,17.6496,0.895547,-10.563,-0.349671,-0.0227432,0.239467,2.8875,0,-2.6075,-0.37576,-0.313418,-0.728218,-0.06538,0.26474,0.38962
-9.70431,0,0,14.7043,14.7043,5,5,17.6442,0.897946,-10.5656,0.0615158,0.125062,0.187119,0.595,0.945,-2.3275,0.03721,-0.165676,-0.78019,-0.06538,0.26474,0.38962
-9.70178,0,0,14.7018,14.7018,5,5,17.6396,0.898627,-10.5688,0.140956,-0.0839732,0.241732,1.05,-0.1225,-2.3625,0.116998,-0.374418,-0.726022,-0.06538,0.26474,0.38962
-9.70003,0,0,14.7,14.7,5,5,17.6364,0.899304,-10.5708,0.140944,-0.0840261,0.241749,1.8375,0.0875,-1.6975,0.116998,-0.374418,-0.726022,-0.06538,0.26474,0.38962
-9.69829,0,0,14.6983,14.6983,5,5,17.6332,0.89998,-10.5728,-0.266045,-0.297557,0.047015,1.8375,0.0875,-1.6975,-0.291702,-0.587674,-0.91927,-0.06538,0.26474,0.38962
-9.69758,0,0,14.6976,14.6976,5,5,17.632,0.900175,-10.5733,-0.266049,-0.297578,0.0470217,2.8875,0.0875,-0.77,-0.291702,-0.587674,-0.91927,-0.06538,0.26474,0.38962
-9.69688,0,0,14.6969,14.6969,5,5,17.6307,0.90037,-10.5738,0.229245,-0.211988,-0.138624,2.8875,0.0875,-0.77,0.205692,-0.502152,-1.10349,-0.06538,0.26474,0.38962
-9.69764,0,0,14.6976,14.6976,5,5,17.6321,0.899448,-10.5738,0.229261,-0.211965,-0.138631,4.375,-0.4375,-0.2625,0.205692,-0.502152,-1.10349,-0.06538,0.26474,0.38962
-9.6984,0,0,14.6984,14.6984,5,5,17.6335,0.898526,-10.5737,-0.173326,-0.174083,-0.109007,4.375,-0.4375,-0.2625,-0.198616,-0.464332,-1.07409,-0.06538,0.26474,0.38962
-9.69985,0,0,14.6998,14.6998,5,5,17.6361,0.897646,-10.5733,-0.173311,-0.174039,-0.109021,5.075,-0.35,-0.07,-0.198616,-0.464332,-1.07409,-0.06538,0.26474,0.38962
-9.7013,0,0,14.7013,14.7013,5,5,17.6387,0.896766,-10.5729,0.322245,-0.127343,-0.341039,5.075,-0.35,-0.07,0.299022,-0.417728,-1.3043,-0.06538,0.26474,0.38962
-9.70231,0,0,14.7023,14.7023,5,5,17.6406,0.895019,-10.5707,0.322275,-0.127312,-0.341048,4.62,-0.525,1.05,0.299022,-0.417728,-1.3043,-0.06874,0.25984,0.38976
-9.7088,0,0,14.7088,14.7088,5,5,17.6524,0.957819,-10.7463,0.0413977,-0.00621569,0.0182513,4.62,-0.525,1.05,0.018056,-0.296948,-0.947696,-0.06874,0.25984,0.38976
-9.71299,0,0,14.713,14.713,5,5,17.66,1.01925,-10.9201,0.0403258,-0.00609441,0.0181933,2.3975,-0.3325,1.05,0.018056,-0.296948,-0.947696,-0.06874,0.25984,0.38976
-10.051,0,0,15.051,15.051,5,5,18.2746,0.70196,-10.801,-0.101621,-0.285062,0.441349,2.3975,-0.3325,1.05,-0.130052,-0.585844,-0.5246,-0.06874,0.25984,0.38976
-10.3816,0,0,15.3816,15.3816,5,5,18.8756,0.395963,-10.6885,-0.0962804,-0.275103,0.438056,1.2775,0.07,1.12,-0.130052,-0.585844,-0.5246,-0.06874,0.25984,0.38976
-10.5433,0,0,15.5433,15.5433,5,5,19.1697,0.613494,-10.9205,0.139979,-0.138243,0.278978,1.2775,0.07,1.12,0.11102,-0.453962,-0.68076,-0.06874,0.25984,0.38976
-10.5423,0,0,15.5423,15.5423,5,5,19.1678,0.611428,-10.9185,0.140015,-0.138275,0.278989,2.5025,-0.7,1.015,0.11102,-0.453962,-0.68076,-0.06874,0.25984,0.38976
-10.4661,0,0,15.4661,15.4661,5,5,19.0293,0.349016,-10.8879,-0.163129,0.149871,0.0710499,2.5025,-0.7,1.015,-0.198006,-0.163846,-0.887916,-0.06874,0.25984,0.38976
-10.3916,0,0,15.3916,15.3916,5,5,18.8938,0.0955811,-10.8563,-0.158705,0.147641,0.0718344,2.8875,0.805,0.77,-0.198006,-0.163846,-0.887916,-0.06874,0.25984,0.38976
-10.5231,0,0,15.5231,15.5231,5,5,19.1329,0.342794,-11.1037,0.22622,-0.316286,-0.0812593,2.8875,0.805,0.77,0.192882,-0.631228,-1.03846,-0.06874,0.25984,0.38976
-10.6536,0,0,15.6536,15.6536,5,5,19.3702,0.583935,-11.3462,0.222012,-0.312388,-0.082657,4.305,0.84,1.085,0.192882,-0.631228,-1.03846,-0.06874,0.25984,0.38976
-10.5871,0,0,15.5871,15.5871,5,5,19.2493,0.580973,-11.4684,-0.0192073,0.0137747,-0.404575,4.305,0.84,1.085,-0.04941,-0.303414,-1.35859,-0.06874,0.25984,0.38976
-10.5883,0,0,15.5883,15.5883,5,5,19.2514,0.573862,-11.4698,-0.0190832,0.0138105,-0.404586,4.8125,-4.13,0.1575,-0.04941,-0.303414,-1.35859,-0.06342,0.2618,0.3864
-10.5895,0,0,15.5895,15.5895,5,5,19.2536,0.56675,-11.4712,0.0212527,-0.12147,-0.156856,4.8125,-4.13,0.1575,-0.009028,-0.43859,-1.11276,-0.06342,0.2618,0.3864
-10.5905,0,0,15.5905,15.5905,5,5,19.2555,0.566198,-11.4701,0.0212624,-0.121438,-0.156868,4.69,-0.035,0.2275,-0.009028,-0.43859,-1.11276,-0.06342,0.2618,0.3864
-10.7579,0,0,15.7579,15.7579,5,5,19.5597,0.513786,-11.5409,0.00480462,-0.255896,0.0835848,4.69,-0.035,0.2275,-0.026474,-0.577914,-0.872422,-0.06342,0.2618,0.3864
-10.9208,0,0,15.9208,15.9208,5,5,19.8561,0.463455,-11.6122,0.00568304,-0.251025,0.0818479,3.64,-0.56,-0.07,-0.026474,-0.577914,-0.872422,-0.06342,0.2618,0.3864
-11.1411,0,0,16.1411,16.1411,5,5,20.2566,0.196782,-11.541,-0.0697218,-0.0220556,0.495902,3.64,-0.56,-0.07,-0.106872,-0.355752,-0.459208,-0.06342,0.2618,0.3864
-11.3541,0,0,16.3541,16.3541,5,5,20.6439,-0.0590809,-11.4741,-0.0652561,-0.0157207,0.493545,0.84,0.28,-0.8925,-0.106872,-0.355752,-0.459208,-0.06342,0.2618,0.3864
-11.5704,0,0,16.5704,16.5704,5,5,21.0371,0.298369,-11.7607,0.242303,-0.240009,0.299046,0.84,0.28,-0.8925,0.208254,-0.58621,-0.649772,-0.06342,0.2618,0.3864
-11.7832,0,0,16.7832,16.7832,5,5,21.4239,0.647786,-12.0406,0.236204,-0.233735,0.296555,0.9975,0.175,-1.2775,0.208254,-0.58621,-0.649772,-0.06342,0.2618,0.3864
-11.6291,0,0,16.6291,16.6291,5,5,21.1438,0.901301,-12.3215,0.129732,0.213313,-0.0962684,0.9975,0.175,-1.2775,0.105774,-0.135054,-1.04127,-0.06342,0.2618,0.3864
-11.4784,0,0,16.4784,16.4784,5,5,20.8698,1.14849,-12.6025,0.125419,0.208822,-0.0946265,1.4525,0.84,-1.75,0.105774,-0.135054,-1.04127,-0.06342,0.2618,0.3864
-11.5316,0,0,16.5316,16.5316,5,5,20.9665,0.926041,-12.5828,-0.14222,-0.122005,-0.0859422,1.4525,0.84,-1.75,-0.166896,-0.467138,-1.03212,-0.06342,0.2618,0.3864
-11.5846,0,0,16.5846,16.5846,5,5,21.0629,0.711079,-12.5604,-0.138469,-0.120416,-0.0864953,2.59,1.33,-2.45,-0.166896,-0.467138,-1.03212,-0.06622,0.26054,0.38738
-11.6925,0,0,16.6925,16.6925,5,5,21.259,0.429025,-12.4861,-0.184813,-0.242875,-0.107726,2.59,1.33,-2.45,-0.21838,-0.592676,-1.05201,-0.06622,0.26054,0.38738
-11.6941,0,0,16.6941,16.6941,5,5,21.262,0.431059,-12.4888,-0.184849,-0.242826,-0.107745,5.285,0.595,-2.38,-0.21838,-0.592676,-1.05201,-0.06622,0.26054,0.38738
-11.6957,0,0,16.6957,16.6957,5,5,21.265,0.433093,-12.4916,0.0704789,-0.453935,-0.228254,5.285,0.595,-2.38,0.038064,-0.803614,-1.17157,-0.06622,0.26054,0.38738
-11.6976,0,0,16.6976,16.6976,5,5,21.2684,0.433887,-12.4939,0.070465,-0.45388,-0.228275,5.5125,0,-1.9075,0.038064,-0.803614,-1.17157,-0.06622,0.26054,0.38738
-11.8583,0,0,16.8583,16.8583,5,5,21.5606,0.292367,-12.4908,-0.0529242,-0.196324,0.140936,5.5125,0,-1.9075,-0.088328,-0.551074,-0.80337,-0.06622,0.26054,0.38738
-12.0147,0,0,17.0147,17.0147,5,5,21.8449,0.154012,-12.4885,-0.0505095,-0.191711,0.13911,4.445,-1.0325,-1.295,-0.088328,-0.551074,-0.80337,-0.06622,0.26054,0.38738
-12.1406,0,0,17.1406,17.1406,5,5,22.0739,-0.381016,-12.2578,-0.297385,-0.121817,0.133541,4.445,-1.0325,-1.295,-0.345626,-0.48495,-0.807396,-0.06622,0.26054,0.38738
-12.2619,0,0,17.2619,17.2619,5,5,22.2943,-0.900634,-12.031,-0.288316,-0.118294,0.131994,3.01,-0.63,-0.805,-0.345626,-0.48495,-0.807396,-0.06622,0.26054,0.38738
-12.4579,0,0,17.4579,17.4579,5,5,22.6507,-0.796844,-12.1467,0.0981406,-0.240282,0.209313,3.01,-0.63,-0.805,0.044286,-0.612562,-0.72834,-0.06622,0.26054,0.38738
-12.6502,0,0,17.6502,17.6502,5,5,23.0004,-0.69517,-12.2602,0.0963662,-0.234648,0.206966,2.9925,-0.9625,-0.77,0.044286,-0.612562,-0.72834,-0.06622,0.26054,0.38738
-12.6684,0,0,17.6684,17.6684,5,5,23.0334,-0.861088,-12.2472,-0.107993,-0.0581475,-0.0816095,2.9925,-0.9625,-0.77,-0.163846,-0.43676,-1.01443,-0.06622,0.26054,0.38738
-12.6856,0,0,17.6856,17.6856,5,5,23.0647,-1.02143,-12.2332,-0.105195,-0.0576631,-0.0818656,2.5725,-0.2975,-0.35,-0.163846,-0.43676,-1.01443,-0.06622,0.26054,0.38738
-12.6777,0,0,17.6777,17.6777,5,5,23.0503,-0.984493,-12.332,0.0214777,0.00537146,-0.00933997,2.5725,-0.2975,-0.35,-0.03599,-0.373564,-0.942572,-0.07112,0.26264,0.38626
-12.5297,0,0,17.5297,17.5297,5,5,22.7812,-0.932783,-12.4531,0.00320284,0.202683,-0.177166,2.52,-0.3675,-0.105,-0.053436,-0.172142,-1.11093,-0.07112,0.26264,0.38626
-12.662,0,0,17.662,17.662,5,5,23.0219,-1.21189,-12.3552,-0.142933,-0.164749,0.107216,2.52,0.21,0.105,-0.205082,-0.543022,-0.827038,-0.07112,0.26264,0.38626
-12.7913,0,0,17.7913,17.7913,5,5,23.2569,-1.48253,-12.2594,-0.138211,-0.161021,0.105503,2.45,0.1575,0.455,-0.205082,-0.543022,-0.827038,-0.07112,0.26264,0.38626
-12.698,0,0,17.698,17.698,5,5,23.0873,-1.23974,-12.4709,0.127494,0.133798,-0.00831996,2.45,0.1575,0.455,0.066002,-0.24583,-0.94123,-0.07112,0.26264,0.38626
-12.6072,0,0,17.6072,17.6072,5,5,22.9222,-1.0054,-12.6818,0.123405,0.131178,-0.00712068,3.0625,-0.5425,0.595,0.066002,-0.24583,-0.94123,-0.07112,0.26264,0.38626
-12.4598,0,0,17.4598,17.4598,5,5,22.6542,-0.744366,-12.9171,0.109738,0.24389,0.13258,3.0625,-0.5425,0.595,0.056852,-0.128954,-0.804468,-0.07112,0.26264,0.38626
-12.3167,0,0,17.3167,17.3167,5,5,22.3939,-0.490974,-13.1522,0.105316,0.239713,0.134365,4.4625,-0.42,0.665,0.056852,-0.128954,-0.804468,-0.07112,0.26264,0.38626
-12.3175,0,0,17.3175,17.3175,5,5,22.3954,-0.492477,-13.1508,-0.203596,-0.05813,0.186484,4.4625,-0.42,0.665,-0.253394,-0.426512,-0.75274,-0.07112,0.26264,0.38626
-12.3199,0,0,17.3199,17.3199,5,5,22.3998,-0.494343,-13.1495,-0.203564,-0.0580601,0.186455,6.0375,-0.665,0.63,-0.253394,-0.426512,-0.75274,-0.07112,0.26264,0.38626
-12.3223,0,0,17.3223,17.3223,5,5,22.4041,-0.496209,-13.1483,0.0753999,-0.0167114,0.258351,6.0375,-0.665,0.63,0.026718,-0.385276,-0.68137,-0.07112,0.26264,0.38626
-12.325,0,0,17.325,17.325,5,5,22.4091,-0.496892,-13.1475,0.0754118,-0.0166304,0.258318,6.4225,-0.14,0.0875,0.026718,-0.385276,-0.68137,-0.06846,0.26376,0.39578
-12.3278,0,0,17.3278,17.3278,5,5,22.4142,-0.497576,-13.1468,0.293977,-0.183008,0.0229606,6.4225,-0.14,0.0875,0.246196,-0.551562,-0.914878,-0.06846,0.26376,0.39578
-12.3285,0,0,17.3285,17.3285,5,5,22.4154,-0.497347,-13.1466,0.293973,-0.182988,0.0229523,4.305,0.2275,-0.42,0.246196,-0.551562,-0.914878,-0.06846,0.26376,0.39578
-12.3292,0,0,17.3292,17.3292,5,5,22.4167,-0.497119,-13.1465,-0.259034,-0.0381253,-0.373934,4.305,0.2275,-0.42,-0.309148,-0.40687,-1.30869,-0.06846,0.26376,0.39578
-12.328,0,0,17.328,17.328,5,5,22.4145,-0.496089,-13.1461,-0.259052,-0.0381609,-0.373919,2.3625,0.7,-0.5075,-0.309148,-0.40687,-1.30869,-0.06846,0.26376,0.39578
-12.3267,0,0,17.3267,17.3267,5,5,22.4122,-0.495058,-13.1458,0.32479,-0.0169465,-0.274316,2.3625,0.7,-0.5075,0.277184,-0.385642,-1.20987,-0.06846,0.26376,0.39578
-12.3241,0,0,17.3241,17.3241,5,5,22.4074,-0.494472,-13.1463,0.32478,-0.0170248,-0.274283,0.875,0.28,-0.84,0.277184,-0.385642,-1.20987,-0.06846,0.26376,0.39578
-12.5931,0,0,17.5931,17.5931,5,5,22.8966,-1.28047,-12.7294,-0.436218,-0.291585,0.314844,0.875,0.28,-0.84,-0.50081,-0.667706,-0.621834,-0.06846,0.26376,0.39578
-12.8561,0,0,17.8561,17.8561,5,5,23.3747,-2.04622,-12.326,-0.422859,-0.284068,0.311211,0.9975,0.1575,-0.7875,-0.50081,-0.667706,-0.621834,-0.06846,0.26376,0.39578
-12.8675,0,0,17.8675,17.8675,5,5,23.3955,-1.44805,-12.7132,0.260754,0.102678,0.344432,0.9975,0.1575,-0.7875,0.196176,-0.28182,-0.589016,-0.06846,0.26376,0.39578
-12.8801,0,0,17.8801,17.8801,5,5,23.4184,-0.86671,-13.095,0.25061,0.103127,0.344461,2.3975,0.0175,-0.5425,0.196176,-0.28182,-0.589016,-0.06846,0.26376,0.39578
-13.0689,0,0,18.0689,18.0689,5,5,23.7616,-1.19288,-12.9544,-0.157479,-0.220191,0.1814,2.3975,0.0175,-0.5425,-0.219356,-0.610244,-0.748348,-0.06846,0.26376,0.39578
-13.2567,0,0,18.2567,18.2567,5,5,24.1032,-1.51235,-12.8307,-0.151905,-0.214797,0.178862,5.285,-0.385,-0.84,-0.219356,-0.610244,-0.748348,-0.06916,0.27118,0.39788
-13.253,0,0,18.253,18.253,5,5,24.0964,-1.5366,-12.8897,-0.0139598,0.0299548,0.04255,5.425,0.28,-0.8575,-0.081252,-0.365634,-0.883646,-0.06916,0.27118,0.39788
-13.2504,0,0,18.2504,18.2504,5,5,24.0916,-1.5604,-12.9486,-0.0135445,0.0298734,0.0425741,6.4575,0.0175,-1.12,-0.081252,-0.365634,-0.883646,-0.06916,0.27118,0.39788
-13.1248,0,0,18.1248,18.1248,5,5,23.8632,-1.47163,-13.0796,0.0298564,0.125539,-0.354983,6.755,0.8575,-1.015,-0.036112,-0.266448,-1.27978,-0.06916,0.27118,0.39788
-13.0017,0,0,18.0017,18.0017,5,5,23.6394,-1.3859,-13.2103,0.0283606,0.121979,-0.353376,6.755,0.8575,-1.015,-0.036112,-0.266448,-1.27978,-0.06916,0.27118,0.39788
-12.8304,0,0,17.8304,17.8304,5,5,23.328,-0.939629,-13.5458,0.257349,0.236377,-0.122873,6.6325,0.805,-1.085,0.201666,-0.147254,-1.05335,-0.06916,0.27118,0.39788
-12.6623,0,0,17.6623,17.6623,5,5,23.0223,-0.505838,-13.8823,0.249778,0.231509,-0.120686,6.6325,0.805,-1.085,0.201666,-0.147254,-1.05335,-0.06916,0.27118,0.39788
-12.7553,0,0,17.7553,17.7553,5,5,23.1914,-0.389431,-14.0122,0.111804,-0.269054,-0.139288,4.9525,0.0875,-1.0675,0.065148,-0.650016,-1.07067,-0.06916,0.27118,0.39788
-12.8443,0,0,17.8443,17.8443,5,5,23.3533,-0.276552,-14.1402,0.109834,-0.266454,-0.140394,2.66,-0.385,-0.91,0.065148,-0.650016,-1.07067,-0.06916,0.27118,0.39788
-12.8434,0,0,17.8434,17.8434,5,5,23.3516,-0.276954,-14.1412,-0.0224567,-0.14582,-0.145424,2.66,-0.385,-0.91,-0.06771,-0.52948,-1.07567,-0.06916,0.27118,0.39788
-12.8412,0,0,17.8412,17.8412,5,5,23.3477,-0.278022,-14.1424,-0.022438,-0.145882,-0.145397,1.4175,-0.7875,-0.8575,-0.06771,-0.52948,-1.07567,-0.06916,0.27118,0.39788
-12.9033,0,0,17.9033,17.9033,5,5,23.4606,-0.587263,-14.0424,-0.159179,-0.0241612,0.127344,1.4175,-0.7875,-0.8575,-0.21045,-0.409676,-0.804224,-0.06916,0.27118,0.39788
-12.9636,0,0,17.9636,17.9636,5,5,23.5702,-0.890258,-13.9431,-0.153891,-0.0224346,0.126518,1.05,-1.015,-0.07,-0.21045,-0.409676,-0.804224,-0.07546,0.27216,0.3941
-13.1156,0,0,18.1156,18.1156,5,5,23.8465,-0.859538,-14.006,0.0506404,-0.196567,0.15139,1.05,-1.015,-0.07,-0.004514,-0.58804,-0.777628,-0.07546,0.27216,0.3941
-13.2678,0,0,18.2678,18.2678,5,5,24.1233,-0.828944,-14.0671,0.0501065,-0.192149,0.149433,4.375,-0.98,0.5075,-0.004514,-0.58804,-0.777628,-0.07546,0.27216,0.3941
-13.2038,0,0,18.2038,18.2038,5,5,24.0069,-0.439533,-14.3526,0.17901,0.147614,0.189797,4.375,-0.98,0.5075,0.13176,-0.246806,-0.738466,-0.07546,0.27216,0.3941
-13.143,0,0,18.143,18.143,5,5,23.8963,-0.0605587,-14.6368,0.172396,0.145863,0.190607,6.265,-0.6825,-0.1225,0.13176,-0.246806,-0.738466,-0.07546,0.27216,0.3941
-13.1456,0,0,18.1456,18.1456,5,5,23.9011,-0.0619618,-14.6368,0.258311,0.0459168,-0.34413,6.265,-0.6825,-0.1225,0.218014,-0.346724,-1.26904,-0.07546,0.27216,0.3941
-13.1488,0,0,18.1488,18.1488,5,5,23.907,-0.0623817,-14.6364,0.258318,0.0460106,-0.344172,6.895,-0.0525,-0.1225,0.218014,-0.346724,-1.26904,-0.07546,0.27216,0.3941
-13.1521,0,0,18.1521,18.1521,5,5,23.9128,-0.0628016,-14.6359,0.147895,-0.240283,-0.10975,6.895,-0.0525,-0.1225,0.107116,-0.632814,-1.03639,-0.07546,0.27216,0.3941
-13.1543,0,0,18.1543,18.1543,5,5,23.9168,-0.0626177,-14.6354,0.147891,-0.240219,-0.109779,5.845,0.28,-0.245,0.107116,-0.632814,-1.03639,-0.07546,0.27216,0.3941
-13.1565,0,0,18.1565,18.1565,5,5,23.9208,-0.0624338,-14.635,-0.131286,0.00385402,-0.129356,5.845,0.28,-0.245,-0.17324,-0.389058,-1.05579,-0.07546,0.27216,0.3941
-13.1573,0,0,18.1573,18.1573,5,5,23.9224,-0.0627411,-14.635,-0.13128,0.00387852,-0.129367,4.4625,-0.105,-0.4025,-0.17324,-0.389058,-1.05579,-0.07546,0.27216,0.3941
-13.1582,0,0,18.1582,18.1582,5,5,23.9239,-0.0630485,-14.635,-0.0120977,-0.182096,-0.141058,4.4625,-0.105,-0.4025,-0.053558,-0.574864,-1.06738,-0.07546,0.27216,0.3941
-13.158,0,0,18.158,18.158,5,5,23.9236,-0.0635594,-14.6348,-0.0120887,-0.182101,-0.141056,3.43,-0.1575,-0.2275,-0.053558,-0.574864,-1.06738,-0.07224,0.266,0.39872
-13.2578,0,0,18.2578,18.2578,5,5,24.1052,-0.157694,-14.6308,-0.0369297,-0.143669,0.0576891,3.5875,-0.9975,-0.5075,-0.080154,-0.539362,-0.868884,-0.07224,0.266,0.39872
-13.3559,0,0,18.3559,18.3559,5,5,24.2835,-0.248376,-14.6271,-0.035347,-0.140831,0.0564082,3.955,-0.945,-0.4725,-0.080154,-0.539362,-0.868884,-0.07224,0.266,0.39872
-13.3119,0,0,18.3119,18.3119,5,5,24.2035,-0.454747,-14.5863,-0.153231,0.0398543,-0.150944,3.955,-0.945,-0.4725,-0.202154,-0.357582,-1.07519,-0.07224,0.266,0.39872
-13.2687,0,0,18.2687,18.2687,5,5,24.1248,-0.655092,-14.5451,-0.149734,0.0385883,-0.150413,4.1475,-0.56,-0.5075,-0.202154,-0.357582,-1.07519,-0.07224,0.266,0.39872
-13.3571,0,0,18.3571,18.3571,5,5,24.2857,0.208709,-15.0377,0.519033,-0.0849844,0.295776,4.1475,-0.56,-0.5075,0.484584,-0.483608,-0.63135,-0.07224,0.266,0.39872
-13.4444,0,0,18.4444,18.4444,5,5,24.4444,1.05276,-15.5195,0.504302,-0.0825279,0.294486,4.3925,0.2975,-0.91,0.484584,-0.483608,-0.63135,-0.07224,0.266,0.39872
-13.4424,0,0,18.4424,18.4424,5,5,24.4406,1.2164,-15.676,0.111356,-0.0504915,-0.0855727,3.9725,0.875,-0.91,0.092842,-0.451522,-1.00845,-0.07224,0.266,0.39872
-13.4411,0,0,18.4411,18.4411,5,5,24.4384,1.37648,-15.8312,0.108563,-0.0505527,-0.0856143,4.6375,1.4,-1.3825,0.092842,-0.451522,-1.00845,-0.07224,0.266,0.39872
-13.4422,0,0,18.4422,18.4422,5,5,24.4403,1.3792,-15.8317,-0.127045,-0.0610269,-0.170955,4.6375,1.4,-1.3825,-0.143716,-0.462014,-1.09312,-0.07224,0.266,0.39872
-13.4429,0,0,18.4429,18.4429,5,5,24.4416,1.38147,-15.8318,-0.127085,-0.0610059,-0.170965,4.3575,1.26,-1.0325,-0.143716,-0.462014,-1.09312,-0.07224,0.266,0.39872
-13.4315,0,0,18.4315,18.4315,5,5,24.4209,1.68001,-16.062,0.168991,0.0226305,0.0633972,4.3575,1.26,-1.0325,0.158844,-0.378078,-0.860588,-0.07224,0.266,0.39872
-13.421,0,0,18.421,18.421,5,5,24.4017,1.96787,-16.2899,0.163969,0.0222601,0.0633897,4.6375,0.455,-1.0325,0.158844,-0.378078,-0.860588,-0.06832,0.26278,0.39298
-13.5312,0,0,18.5312,18.5312,5,5,24.6022,1.49106,-16.0819,-0.277938,-0.120151,0.0672091,4.55,0.245,-1.12,-0.293288,-0.523624,-0.855586,-0.06832,0.26278,0.39298
-13.6384,0,0,18.6384,18.6384,5,5,24.7971,1.02028,-15.8809,-0.269724,-0.116986,0.0659515,4.7425,-4.445,-0.7525,-0.293288,-0.523624,-0.855586,-0.06832,0.26278,0.39298
-13.6425,0,0,18.6425,18.6425,5,5,24.8046,1.20665,-16.0488,0.109826,0.0139043,0.0772732,4.7425,-4.445,-0.7525,0.091134,-0.392962,-0.84424,-0.06832,0.26278,0.39298
-13.6464,0,0,18.6464,18.6464,5,5,24.8116,1.39397,-16.2112,0.106557,0.0139835,0.0771549,4.2875,-0.245,-0.42,0.091134,-0.392962,-0.84424,-0.06832,0.26278,0.39298
-13.6261,0,0,18.6261,18.6261,5,5,24.7747,1.74675,-16.4666,0.282752,-0.103302,-0.231329,4.2875,-0.245,-0.42,0.274256,-0.509472,-1.15046,-0.06832,0.26278,0.39298
-13.6065,0,0,18.6065,18.6065,5,5,24.7391,2.08934,-16.7192,0.276776,-0.10395,-0.231251,4.3225,-0.2975,-0.4725,0.274256,-0.509472,-1.15046,-0.06832,0.26278,0.39298
-13.6072,0,0,18.6072,18.6072,5,5,24.7404,2.08883,-16.7195,-0.290432,-0.0200281,-0.184417,4.34,-0.2625,-0.4725,-0.295362,-0.425658,-1.10398,-0.06832,0.26278,0.39298
-13.6073,0,0,18.6073,18.6073,5,5,24.7406,2.08897,-16.7191,-0.290434,-0.0200253,-0.184418,3.6925,0.245,-0.2625,-0.295362,-0.425658,-1.10398,-0.06832,0.26278,0.39298
-13.7299,0,0,18.7299,18.7299,5,5,24.9634,2.14813,-16.7842,0.0605997,-0.15171,0.130998,3.6925,0.245,-0.2625,0.058194,-0.560712,-0.78934,-0.06832,0.26278,0.39298
-13.8501,0,0,18.8501,18.8501,5,5,25.182,2.20639,-16.8475,0.0595835,-0.148272,0.129347,3.7275,0.3675,0.1925,0.058194,-0.560712,-0.78934,-0.06832,0.26278,0.39298
-13.9309,0,0,18.9309,18.9309,5,5,25.3289,2.01227,-16.7809,-0.0972702,-0.0639554,0.107097,3.7275,0.3675,0.1925,-0.102724,-0.47885,-0.810446,-0.07098,0.2569,0.3885
-13.975,0,0,18.975,18.975,5,5,25.409,2.31015,-16.9739,0.25859,-0.219709,-0.171788,3.9025,0.0525,0.6125,0.25986,-0.63562,-1.08641,-0.07098,0.2569,0.3885
-14.0188,0,0,19.0188,19.0188,5,5,25.4887,2.59288,-17.1667,0.25366,-0.218546,-0.172576,4.2175,-4.3225,0.805,0.25986,-0.63562,-1.08641,-0.07098,0.2569,0.3885
-14.0231,0,0,19.0231,19.0231,5,5,25.4965,2.43992,-17.1523,-0.0886924,0.00133345,-0.0147856,4.2175,-4.3225,0.805,-0.08662,-0.416142,-0.929884,-0.07098,0.2569,0.3885
-14.0277,0,0,19.0277,19.0277,5,5,25.505,2.29712,-17.1348,-0.0862022,0.00151137,-0.0147563,4.865,-0.42,1.0675,-0.08662,-0.416142,-0.929884,-0.07098,0.2569,0.3885
-13.9656,0,0,18.9656,18.9656,5,5,25.392,2.23215,-17.1757,-0.0539689,0.0699745,-0.125261,5.495,-0.7175,1.19,-0.055388,-0.345992,-1.04042,-0.07098,0.2569,0.3885
-13.9041,0,0,18.9041,18.9041,5,5,25.2802,2.16856,-17.2163,-0.0528598,0.0682305,-0.124388,4.9875,-0.805,1.015,-0.055388,-0.345992,-1.04042,-0.07098,0.2569,0.3885
-13.9854,0,0,18.9854,18.9854,5,5,25.4281,1.70918,-17.0087,-0.253438,-0.0416792,0.102699,4.9875,-0.805,1.015,-0.264862,-0.458232,-0.814228,-0.07098,0.2569,0.3885
-14.064,0,0,19.064,19.064,5,5,25.5709,1.2633,-16.8047,-0.245658,-0.0393426,0.101809,4.865,-0.56,0.7175,-0.264862,-0.458232,-0.814228,-0.07098,0.2569,0.3885
-14.1851,0,0,19.1851,19.1851,5,5,25.7912,0.627302,-16.4865,-0.39079,-0.129837,0.0664973,4.865,-0.56,0.7175,-0.421754,-0.552172,-0.847778,-0.07098,0.2569,0.3885
-14.3019,0,0,19.3019,19.3019,5,5,26.0035,0.00934072,-16.1747,-0.380005,-0.126477,0.0649327,4.375,-0.2625,0.1575,-0.421754,-0.552172,-0.847778,-0.07098,0.2569,0.3885
-14.367,0,0,19.367,19.367,5,5,26.1217,-0.124579,-16.1292,-0.0622907,-0.0357162,0.117138,4.375,-0.2625,0.1575,-0.105042,-0.463356,-0.795074,-0.06916,0.26194,0.39116
-14.2653,0,0,19.2653,19.2653,5,5,25.937,0.0786164,-16.2933,0.117728,0.0986572,-0.172834,4.0075,-0.105,-0.455,0.0793,-0.326228,-1.08421,-0.06916,0.26194,0.39116
-14.2651,0,0,19.2651,19.2651,5,5,25.9366,0.0784514,-16.294,0.117731,0.0986519,-0.172831,3.4125,-0.1925,-0.77,0.0793,-0.326228,-1.08421,-0.06916,0.26194,0.39116
-14.2888,0,0,19.2888,19.2888,5,5,25.9795,0.405619,-16.4943,0.216134,-0.076792,0.00521733,3.4125,-0.1925,-0.77,0.183854,-0.502152,-0.907192,-0.06916,0.26194,0.39116
-14.3125,0,0,19.3125,19.3125,5,5,26.0227,0.725142,-16.6916,0.210557,-0.0761399,0.00483807,3.64,0.63,-1.2425,0.183854,-0.502152,-0.907192,-0.06916,0.26194,0.39116
-14.1335,0,0,19.1335,19.1335,5,5,25.6972,0.597165,-16.7139,-0.122024,0.284285,-0.128519,3.64,0.63,-1.2425,-0.152378,-0.137006,-1.042,-0.06916,0.26194,0.39116
-13.9588,0,0,18.9588,18.9588,5,5,25.3796,0.470709,-16.7365,-0.119817,0.279294,-0.126112,4.795,-0.0875,-1.6625,-0.152378,-0.137006,-1.042,-0.06916,0.26194,0.39116
-13.961,0,0,18.961,18.961,5,5,25.3836,0.387166,-16.7367,-0.052635,-0.00140882,-0.0170759,4.7425,0.14,-1.82,-0.086376,-0.417484,-0.933788,-0.06916,0.26194,0.39116
-13.9638,0,0,18.9638,18.9638,5,5,25.3888,0.306285,-16.7375,-0.0512234,-0.00132322,-0.017107,5.6175,0.1225,-2.2575,-0.086376,-0.417484,-0.933788,-0.06916,0.26194,0.39116
-14.0373,0,0,19.0373,19.0373,5,5,25.5223,0.403818,-16.8108,0.0928572,-0.23505,-0.138239,5.6175,0.1225,-2.2575,0.060024,-0.653066,-1.05298,-0.06916,0.26194,0.39116
-14.0393,0,0,19.0393,19.0393,5,5,25.526,0.405384,-16.8141,0.0928299,-0.234992,-0.138267,5.67,0.07,-2.5725,0.060024,-0.653066,-1.05298,-0.06916,0.26194,0.39116
-13.9787,0,0,18.9787,18.9787,5,5,25.4158,0.304883,-16.8202,-0.0821777,0.0723791,-0.12661,5.67,0.07,-2.5725,-0.117486,-0.344284,-1.04225,-0.06916,0.26194,0.39116
-13.918,0,0,18.918,18.918,5,5,25.3054,0.20712,-16.8213,-0.0804715,0.0706417,-0.125779,4.41,0.5075,-2.695,-0.117486,-0.344284,-1.04225,-0.06804,0.25914,0.39326
-13.9375,0,0,18.9375,18.9375,5,5,25.341,0.359046,-16.9301,0.104937,-0.076577,-0.048598,3.815,0.2275,-2.5025,0.07137,-0.491904,-0.965386,-0.06804,0.25914,0.39326
-13.9566,0,0,18.9566,18.9566,5,5,25.3756,0.506934,-17.0372,0.102356,-0.0760392,-0.0488745,3.5175,0.385,-2.415,0.07137,-0.491904,-0.965386,-0.06804,0.25914,0.39326
-13.9278,0,0,18.9278,18.9278,5,5,25.3232,0.763616,-17.2138,0.158133,0.00909074,-0.0350037,3.43,0.5775,-2.415,0.131882,-0.406016,-0.951966,-0.06804,0.25914,0.39326
-13.9001,0,0,18.9001,18.9001,5,5,25.2729,1.01158,-17.3879,0.153806,0.00826756,-0.0346887,3.71,0.105,-1.68,0.131882,-0.406016,-0.951966,-0.06804,0.25914,0.39326
-13.9449,0,0,18.9449,18.9449,5,5,25.3543,0.866328,-17.3406,-0.0893036,-0.109259,-0.0786596,3.71,0.105,-1.68,-0.114802,-0.524722,-0.995032,-0.06804,0.25914,0.39326
-13.9458,0,0,18.9458,18.9458,5,5,25.356,0.866606,-17.3408,-0.0893084,-0.109232,-0.0786728,4.585,0.1575,-0.6475,-0.114802,-0.524722,-0.995032,-0.06804,0.25914,0.39326
-14.0958,0,0,19.0958,19.0958,5,5,25.6287,0.735281,-17.2673,-0.0519072,-0.209464,0.101149,4.585,0.1575,-0.6475,-0.079544,-0.629154,-0.814594,-0.06804,0.25914,0.39326
-14.2427,0,0,19.2427,19.2427,5,5,25.8957,0.608639,-17.1948,-0.0496971,-0.205255,0.0991469,4.7425,0.35,-0.175,-0.079544,-0.629154,-0.814594,-0.06804,0.25914,0.39326
-14.3214,0,0,19.3214,19.3214,5,5,26.0388,0.529993,-17.1647,-0.0353255,-0.157939,-0.0289402,4.7425,0.35,-0.175,-0.06649,-0.584136,-0.94062,-0.06804,0.25914,0.39326
-14.3218,0,0,19.3218,19.3218,5,5,26.0396,0.528565,-17.1628,-0.0353006,-0.157927,-0.0289459,4.025,-0.1925,0.91,-0.06649,-0.584136,-0.94062,-0.06804,0.25914,0.39326
-14.3222,0,0,19.3222,19.3222,5,5,26.0404,0.527138,-17.1608,0.081715,0.122122,0.104202,4.025,-0.1925,0.91,0.050996,-0.30439,-0.808494,-0.06524,0.26054,0.39158
-14.3226,0,0,19.3226,19.3226,5,5,26.041,0.524283,-17.1585,0.0817648,0.122133,0.104197,3.955,-0.8225,1.5225,0.050996,-0.30439,-0.808494,-0.06524,0.26054,0.39158
-14.3229,0,0,19.3229,19.3229,5,5,26.0417,0.521428,-17.1561,0.320899,-0.145803,-0.25408,3.955,-0.8225,1.5225,0.291092,-0.572058,-1.164,-0.06524,0.26054,0.39158
-14.324,0,0,19.324,19.324,5,5,26.0436,0.519236,-17.1527,0.320937,-0.145773,-0.254094,4.6375,-0.21,1.89,0.291092,-0.572058,-1.164,-0.06524,0.26054,0.39158
-14.3102,0,0,19.3102,19.3102,5,5,26.0186,-0.252397,-16.7896,-0.436787,0.166371,0.146938,4.6375,-0.21,1.89,-0.483364,-0.25986,-0.766282,-0.06524,0.26054,0.39158
-14.2955,0,0,19.2955,19.2955,5,5,25.9918,-1.00615,-16.4273,-0.423632,0.165887,0.147013,5.145,-0.07,1.7325,-0.483364,-0.25986,-0.766282,-0.06524,0.26054,0.39158
-14.3263,0,0,19.3263,19.3263,5,5,26.0479,-0.71624,-16.5885,0.203155,-0.110184,-0.0397377,5.145,-0.07,1.7325,0.151158,-0.536556,-0.951234,-0.06524,0.26054,0.39158
-14.328,0,0,19.328,19.328,5,5,26.0509,-0.718985,-16.5856,0.203203,-0.110136,-0.0397617,5.3375,-0.6475,1.7325,0.151158,-0.536556,-0.951234,-0.06524,0.26054,0.39158
-14.3297,0,0,19.3297,19.3297,5,5,26.054,-0.72173,-16.5828,-0.177728,0.146622,-0.33769,5.3375,-0.6475,1.7325,-0.231434,-0.280112,-1.24684,-0.06524,0.26054,0.39158
-14.3312,0,0,19.3312,19.3312,5,5,26.0568,-0.723996,-16.5803,-0.177688,0.146666,-0.337712,5.18,-0.49,1.4175,-0.231434,-0.280112,-1.24684,-0.06524,0.26054,0.39158
-14.3328,0,0,19.3328,19.3328,5,5,26.0596,-0.726263,-16.5778,0.185107,0.258822,0.0584066,5.18,-0.49,1.4175,0.132858,-0.168116,-0.853756,-0.06524,0.26054,0.39158
-14.3337,0,0,19.3337,19.3337,5,5,26.0612,-0.727719,-16.5761,0.185133,0.258847,0.0583937,4.5325,-0.245,0.84,0.132858,-0.168116,-0.853756,-0.06524,0.26054,0.39158
-14.3713,0,0,19.3713,19.3713,5,5,26.1296,-0.639465,-16.6305,0.0617425,-0.0557707,0.0385824,4.5325,-0.245,0.84,0.010492,-0.483486,-0.87291,-0.0651,0.25872,0.39564
-14.182,0,0,19.182,19.182,5,5,25.7855,-0.102239,-16.9723,0.372603,0.224389,-0.276557,4.3925,-0.0175,0.21,0.332084,-0.19825,-1.18828,-0.0651,0.25872,0.39564
-14.1831,0,0,19.1831,19.1831,5,5,25.7875,-0.102811,-16.9733,0.372613,0.22442,-0.276571,4.69,-0.5075,-0.875,0.332084,-0.19825,-1.18828,-0.0651,0.25872,0.39564
-14.2342,0,0,19.2342,19.2342,5,5,25.8804,-0.902993,-16.57,-0.452159,0.074756,0.175676,4.69,-0.5075,-0.875,-0.510204,-0.349164,-0.73871,-0.0651,0.25872,0.39564
-14.2831,0,0,19.2831,19.2831,5,5,25.9692,-1.68312,-16.1712,-0.438547,0.0760145,0.174723,5.18,-0.1225,-1.82,-0.510204,-0.349164,-0.73871,-0.0651,0.25872,0.39564
-14.4058,0,0,19.4058,19.4058,5,5,26.1924,-1.37125,-16.318,0.285533,-0.417357,-0.148492,5.635,-0.4375,-1.82,0.222406,-0.845582,-1.05786,-0.0651,0.25872,0.39564
-14.4074,0,0,19.4074,19.4074,5,5,26.1952,-1.37016,-16.3208,0.285514,-0.417314,-0.148513,5.11,-0.07,-2.1875,0.222406,-0.845582,-1.05786,-0.0651,0.25872,0.39564
-14.4089,0,0,19.4089,19.4089,5,5,26.198,-1.36906,-16.3235,-0.437466,-0.0933901,0.0367494,5.11,-0.07,-2.1875,-0.503616,-0.522038,-0.874008,-0.0651,0.25872,0.39564
-14.4108,0,0,19.4108,19.4108,5,5,26.2014,-1.36712,-16.3271,-0.4375,-0.093336,0.0367237,5.4775,0.175,-2.8,-0.503616,-0.522038,-0.874008,-0.0651,0.25872,0.39564
-14.4127,0,0,19.4127,19.4127,5,5,26.2048,-1.36518,-16.3306,0.221526,-0.116608,-0.24842,5.4775,0.175,-2.8,0.158234,-0.54534,-1.15693,-0.0651,0.25872,0.39564
-14.4143,0,0,19.4143,19.4143,5,5,26.2079,-1.36362,-16.3346,0.221499,-0.11656,-0.248442,5.25,-0.1575,-2.975,0.158234,-0.54534,-1.15693,-0.0651,0.25872,0.39564
-14.416,0,0,19.416,19.416,5,5,26.2109,-1.36206,-16.3387,-0.215027,-0.159501,-0.110148,5.25,-0.1575,-2.975,-0.280112,-0.588284,-1.01968,-0.0651,0.25872,0.39564
-14.4175,0,0,19.4175,19.4175,5,5,26.2137,-1.3607,-16.3419,-0.215051,-0.159457,-0.110169,5.1275,-0.0525,-2.5025,-0.280112,-0.588284,-1.01968,-0.06874,0.2611,0.38892
-14.4191,0,0,19.4191,19.4191,5,5,26.2165,-1.35934,-16.3451,0.191781,-0.0889459,-0.317359,5.1275,-0.0525,-2.5025,0.128466,-0.51789,-1.22525,-0.06874,0.2611,0.38892
-14.4207,0,0,19.4207,19.4207,5,5,26.2194,-1.35826,-16.3474,0.191763,-0.0889002,-0.317381,5.1975,0.035,-1.9425,0.128466,-0.51789,-1.22525,-0.06874,0.2611,0.38892
-14.4223,0,0,19.4223,19.4223,5,5,26.2223,-1.35719,-16.3497,-0.618201,0.237468,-0.117734,5.1975,0.035,-1.9425,-0.684908,-0.191906,-1.02712,-0.06874,0.2611,0.38892
-14.423,0,0,19.423,19.423,5,5,26.2236,-1.35666,-16.3511,-0.618211,0.237489,-0.117744,4.34,-0.0175,-1.33,-0.684908,-0.191906,-1.02712,-0.06874,0.2611,0.38892
-14.433,0,0,19.433,19.433,5,5,26.2419,-1.32126,-16.3831,0.0231022,-0.0615514,-0.0795122,4.34,-0.0175,-1.33,-0.04026,-0.490928,-0.989054,-0.06874,0.2611,0.38892
-14.4439,0,0,19.4439,19.4439,5,5,26.2617,-1.28768,-16.414,0.0225163,-0.0612355,-0.0796531,5.3725,-0.2975,-0.7525,-0.04026,-0.490928,-0.989054,-0.06874,0.2611,0.38892
-14.4134,0,0,19.4134,19.4134,5,5,26.2062,-1.12859,-16.5182,0.118994,-0.113493,-0.347815,5.3725,-0.2975,-0.7525,0.059414,-0.54229,-1.25562,-0.06874,0.2611,0.38892
-14.4153,0,0,19.4153,19.4153,5,5,26.2096,-1.12997,-16.5176,0.119018,-0.113441,-0.347841,5.4775,-0.525,0.1575,0.059414,-0.54229,-1.25562,-0.06874,0.2611,0.38892
-14.4171,0,0,19.4171,19.4171,5,5,26.2129,-1.13134,-16.5171,-0.224155,0.0875091,0.136181,5.4775,-0.525,0.1575,-0.285236,-0.3416,-0.77531,-0.06874,0.2611,0.38892
-14.419,0,0,19.419,19.419,5,5,26.2164,-1.1328,-16.5154,-0.22413,0.0875632,0.136154,5.565,-0.245,0.84,-0.285236,-0.3416,-0.77531,-0.06874,0.2611,0.38892
-14.4209,0,0,19.4209,19.4209,5,5,26.2198,-1.13426,-16.5136,0.464234,-0.109373,-0.298496,5.565,-0.245,0.84,0.406016,-0.538386,-1.20658,-0.06874,0.2611,0.38892
-14.4227,0,0,19.4227,19.4227,5,5,26.2231,-1.13576,-16.5113,0.46426,-0.109323,-0.298522,5.4425,-0.1225,1.1375,0.406016,-0.538386,-1.20658,-0.0749,0.25886,0.3892
-14.3035,0,0,19.3035,19.3035,5,5,26.0063,-0.653736,-16.7891,0.298281,0.133668,-0.0998982,5.3725,-0.105,1.2425,0.247782,-0.292312,-1.01126,-0.0749,0.25886,0.3892
-14.1867,0,0,19.1867,19.1867,5,5,25.794,-0.185327,-17.0661,0.290106,0.130361,-0.0982259,5.355,-0.0525,1.365,0.247782,-0.292312,-1.01126,-0.0749,0.25886,0.3892
-14.0615,0,0,19.0615,19.0615,5,5,25.5664,0.299736,-17.3605,0.30448,0.1407,-0.110897,5.355,-0.0525,1.365,0.270718,-0.278404,-1.02553,-0.0749,0.25886,0.3892
-13.9388,0,0,18.9388,18.9388,5,5,25.3434,0.770377,-17.6552,0.296266,0.137152,-0.109293,5.32,-0.6475,1.1025,0.270718,-0.278404,-1.02553,-0.0749,0.25886,0.3892
-13.9672,0,0,18.9672,18.9672,5,5,25.3949,0.903907,-17.7421,0.0984649,-0.0870073,-0.0411042,5.3025,-0.665,1.015,0.07442,-0.503128,-0.957456,-0.0749,0.25886,0.3892
-13.9952,0,0,18.9952,18.9952,5,5,25.4458,1.03384,-17.8278,0.0961975,-0.0862219,-0.0415199,5.3025,-0.665,1.015,0.07442,-0.503128,-0.957456,-0.0749,0.25886,0.3892
-14.0456,0,0,19.0456,19.0456,5,5,25.5374,0.740264,-17.694,-0.179311,-0.0617848,-0.00832555,5.7575,-0.525,0.6475,-0.2074,-0.480192,-0.923906,-0.0749,0.25886,0.3892
-14.0946,0,0,19.0946,19.0946,5,5,25.6265,0.455894,-17.562,-0.174348,-0.0603594,-0.00895051,5.985,-0.0525,0.4375,-0.2074,-0.480192,-0.923906,-0.0749,0.25886,0.3892
-13.9996,0,0,18.9996,18.9996,5,5,25.4538,0.888223,-17.8295,0.314619,0.0461859,-0.236907,5.985,-0.0525,0.4375,0.291214,-0.371002,-1.15131,-0.0749,0.25886,0.3892
-14.0019,0,0,19.0019,19.0019,5,5,25.458,0.887158,-17.8293,0.314637,0.0462535,-0.236939,6.0025,-0.455,-0.105,0.291214,-0.371002,-1.15131,-0.0749,0.25886,0.3892
-13.9767,0,0,18.9767,18.9767,5,5,25.4122,0.818529,-17.8215,-0.045099,0.0753369,0.0474326,6.0025,-0.455,-0.105,-0.071248,-0.341234,-0.869494,-0.07154,0.25102,0.3829
-13.8318,0,0,18.8318,18.8318,5,5,25.1487,1.58534,-18.2742,0.308529,0.268539,0.303645,5.7575,-0.1575,-0.77,0.297314,-0.14396,-0.616954,-0.07154,0.25102,0.3829
-13.8344,0,0,18.8344,18.8344,5,5,25.1534,1.58576,-18.2753,0.308522,0.268613,0.303611,6.2475,0.0175,-1.1375,0.297314,-0.14396,-0.616954,-0.07154,0.25102,0.3829
-13.8369,0,0,18.8369,18.8369,5,5,25.1581,1.58617,-18.2764,-0.188727,-0.245345,-0.00600876,6.2475,0.0175,-1.1375,-0.202032,-0.657458,-0.92415,-0.07154,0.25102,0.3829
-13.8834,0,0,18.8834,18.8834,5,5,25.2425,1.40934,-18.1982,-0.101573,-0.0439331,0.0315507,6.2125,-0.0525,-1.1375,-0.117608,-0.457622,-0.88633,-0.07154,0.25102,0.3829
-13.9282,0,0,18.9282,18.9282,5,5,25.324,1.23884,-18.1209,-0.0985981,-0.0426191,0.0310061,5.775,0.6125,-1.3125,-0.117608,-0.457622,-0.88633,-0.07154,0.25102,0.3829
-13.869,0,0,18.869,18.869,5,5,25.2164,1.69056,-18.3905,0.332205,-0.00776483,-0.17001,5.775,0.6125,-1.3125,0.322934,-0.421022,-1.08641,-0.07154,0.25102,0.3829
-13.8704,0,0,18.8704,18.8704,5,5,25.2189,1.69205,-18.3912,0.332179,-0.00772498,-0.17003,5.04,0.6825,-1.2075,0.322934,-0.421022,-1.08641,-0.07154,0.25102,0.3829
-13.7916,0,0,18.7916,18.7916,5,5,25.0756,1.41834,-18.3034,-0.190536,0.153351,-0.0443035,5.04,0.6825,-1.2075,-0.20679,-0.257908,-0.962824,-0.07154,0.25102,0.3829
-13.7136,0,0,18.7136,18.7136,5,5,24.9339,1.15022,-18.2152,-0.185858,0.151153,-0.0431629,4.795,0.1225,-1.015,-0.20679,-0.257908,-0.962824,-0.07154,0.25102,0.3829
-13.7949,0,0,18.7949,18.7949,5,5,25.0817,1.34767,-18.3108,0.120971,-0.0631932,0.178461,4.795,0.1225,-1.015,0.104798,-0.474336,-0.74176,-0.07154,0.25102,0.3829
-13.7963,0,0,18.7963,18.7963,5,5,25.0842,1.3483,-18.3116,0.12096,-0.0631545,0.178443,4.9875,0.1925,-1.05,0.104798,-0.474336,-0.74176,-0.07154,0.25102,0.3829
-13.9625,0,0,18.9625,18.9625,5,5,25.3864,1.08414,-18.1427,-0.138662,-0.232007,0.101038,4.9875,0.1925,-1.05,-0.160552,-0.64782,-0.816424,-0.07322,0.25088,0.38724
-14.1258,0,0,19.1258,19.1258,5,5,25.6833,0.828468,-17.9775,-0.1342,-0.2273,0.0988724,5.8975,0.385,-0.9625,-0.160552,-0.64782,-0.816424,-0.07322,0.25088,0.38724
-14.1029,0,0,19.1029,19.1029,5,5,25.6417,0.642668,-17.9036,-0.0987637,0.134048,0.16992,5.8975,0.385,-0.9625,-0.128222,-0.286212,-0.746274,-0.07322,0.25088,0.38724
-14.1057,0,0,19.1057,19.1057,5,5,25.6467,0.642866,-17.9039,-0.0987672,0.134126,0.169882,6.405,0.105,-0.6475,-0.128222,-0.286212,-0.746274,-0.07322,0.25088,0.38724
-14.1084,0,0,19.1084,19.1084,5,5,25.6517,0.643065,-17.9042,-0.0296453,-0.100156,-0.104331,6.405,0.105,-0.6475,-0.058804,-0.52033,-1.01833,-0.07322,0.25088,0.38724
-14.1103,0,0,19.1103,19.1103,5,5,25.6551,0.642484,-17.9047,-0.0296352,-0.100103,-0.104357,5.5125,-0.3675,-0.5775,-0.058804,-0.52033,-1.01833,-0.07322,0.25088,0.38724
-14.1122,0,0,19.1122,19.1122,5,5,25.6585,0.641904,-17.9052,0.10656,0.126496,0.131556,5.5125,-0.3675,-0.5775,0.077958,-0.29402,-0.784216,-0.07322,0.25088,0.38724
-14.1142,0,0,19.1142,19.1142,5,5,25.6622,0.641124,-17.9056,0.106574,0.126555,0.131528,5.705,-0.455,-0.49,0.077958,-0.29402,-0.784216,-0.07322,0.25088,0.38724
-13.9193,0,0,18.9193,18.9193,5,5,25.3079,1.37993,-18.3509,0.454008,0.272191,-0.0393745,5.705,-0.455,-0.49,0.43981,-0.142862,-0.956236,-0.07322,0.25088,0.38724
-13.7273,0,0,18.7273,18.7273,5,5,24.9587,2.09872,-18.7976,0.441469,0.266514,-0.0371319,5.4425,-0.875,-0.1925,0.43981,-0.142862,-0.956236,-0.07322,0.25088,0.38724
-13.7132,0,0,18.7132,18.7132,5,5,24.9332,1.80593,-18.681,-0.202158,0.0218079,-0.0965392,5.4425,-0.875,-0.1925,-0.21167,-0.386984,-1.01553,-0.07322,0.25088,0.38724
-13.7001,0,0,18.7001,18.7001,5,5,24.9094,1.52222,-18.5644,-0.197208,0.0214915,-0.0962337,6.6675,0.0525,-0.21,-0.21167,-0.386984,-1.01553,-0.07322,0.25088,0.38724
-13.6826,0,0,18.6826,18.6826,5,5,24.8774,1.65144,-18.6579,0.10085,-0.0680712,-0.205971,6.6675,0.0525,-0.21,0.089914,-0.475922,-1.1246,-0.07252,0.25032,0.3808
-13.6853,0,0,18.6853,18.6853,5,5,24.8824,1.65043,-18.6575,-0.0859774,-0.10524,-0.0788792,6.4225,-0.3675,0,-0.097722,-0.513132,-0.998448,-0.07252,0.25032,0.3808
-13.6883,0,0,18.6883,18.6883,5,5,24.8878,1.64968,-18.6566,-0.0859643,-0.105155,-0.0789181,6.58,-0.1225,0.175,-0.097722,-0.513132,-0.998448,-0.07252,0.25032,0.3808
-13.6912,0,0,18.6912,18.6912,5,5,24.8931,1.64893,-18.6558,0.153862,0.124528,0.117023,6.58,-0.1225,0.175,0.143106,-0.283772,-0.80398,-0.07252,0.25032,0.3808
-13.6935,0,0,18.6935,18.6935,5,5,24.8973,1.65459,-18.6518,0.153763,0.124593,0.116989,5.8975,4.06,0.2625,0.143106,-0.283772,-0.80398,-0.07252,0.25032,0.3808
-13.6818,0,0,18.6818,18.6818,5,5,24.8761,1.19541,-18.4373,-0.297684,0.0807414,0.00913161,5.8975,4.06,0.2625,-0.318298,-0.327326,-0.91134,-0.07252,0.25032,0.3808
-13.6693,0,0,18.6693,18.6693,5,5,24.8533,0.740724,-18.2268,-0.28975,0.0804381,0.00941994,5.8625,-0.3675,0.42,-0.318298,-0.327326,-0.91134,-0.07252,0.25032,0.3808
-13.7109,0,0,18.7109,18.7109,5,5,24.9289,0.97107,-18.3449,0.22704,-0.285015,-0.315651,5.88,-0.245,0.175,0.204716,-0.69357,-1.2333,-0.07252,0.25032,0.3808
-13.7139,0,0,18.7139,18.7139,5,5,24.9343,0.969866,-18.344,0.227061,-0.28493,-0.31569,6.5975,-0.35,0.315,0.204716,-0.69357,-1.2333,-0.07252,0.25032,0.3808
-13.7168,0,0,18.7168,18.7168,5,5,24.9396,0.968661,-18.3431,-0.0970422,0.160063,0.218851,6.5975,-0.35,0.315,-0.12078,-0.249124,-0.702842,-0.07252,0.25032,0.3808
-13.7191,0,0,18.7191,18.7191,5,5,24.9438,0.968757,-18.3421,-0.0970439,0.160129,0.21882,5.9325,0.3675,0.0525,-0.12078,-0.249124,-0.702842,-0.07252,0.25032,0.3808
-13.6698,0,0,18.6698,18.6698,5,5,24.8542,1.31338,-18.5485,0.191545,0.0804991,0.0648236,5.9325,0.3675,0.0525,0.17507,-0.327204,-0.856196,-0.07252,0.25032,0.3808
-13.6213,0,0,18.6213,18.6213,5,5,24.766,1.64715,-18.7628,0.185722,0.0790385,0.065333,5.1975,0.315,-0.07,0.17507,-0.327204,-0.856196,-0.06748,0.2527,0.37674
-13.431,0,0,18.431,18.431,5,5,24.4201,1.10521,-18.5724,-0.377992,0.395937,0.0164131,5.1975,0.315,-0.07,-0.400526,-0.005246,-0.907436,-0.06748,0.2527,0.37674
-13.2431,0,0,18.2431,18.2431,5,5,24.0784,0.573478,-18.3786,-0.368712,0.390558,0.0189855,5.1625,0.0525,-0.42,-0.400526,-0.005246,-0.907436,-0.06748,0.2527,0.37674
-13.2614,0,0,18.2614,18.2614,5,5,24.1116,0.287014,-18.2464,-0.164233,0.0434061,0.0930445,5.8975,-0.4025,-0.6475,-0.200202,-0.35258,-0.833748,-0.06748,0.2527,0.37674
-13.2793,0,0,18.2793,18.2793,5,5,24.1442,0.00838102,-18.1153,-0.15937,0.0439309,0.0928232,6.51,-0.245,-0.595,-0.200202,-0.35258,-0.833748,-0.06748,0.2527,0.37674
-13.3562,0,0,18.3562,18.3562,5,5,24.2841,0.031564,-18.122,0.0308363,-0.138865,0.00858563,6.86,0.035,-0.595,-0.008784,-0.53741,-0.916342,-0.06748,0.2527,0.37674
-13.4325,0,0,18.4325,18.4325,5,5,24.4228,0.056006,-18.129,0.0304097,-0.13666,0.00758716,7.6825,0.7,-1.155,-0.008784,-0.53741,-0.916342,-0.06748,0.2527,0.37674
-13.3845,0,0,18.3845,18.3845,5,5,24.3354,0.109969,-18.1881,0.0218143,0.0946027,0.0259198,7.6825,0.7,-1.155,-0.01647,-0.305,-0.898774,-0.06748,0.2527,0.37674
-13.3359,0,0,18.3359,18.3359,5,5,24.2471,0.162126,-18.2472,0.020904,0.0931965,0.0265521,6.1075,0.5425,-1.3825,-0.01647,-0.305,-0.898774,-0.06748,0.2527,0.37674
-13.3034,0,0,18.3034,18.3034,5,5,24.188,0.308421,-18.3515,0.0805513,0.0622085,0.0395063,6.1075,0.5425,-1.3825,0.045994,-0.335012,-0.88633,-0.06748,0.2527,0.37674
-13.2712,0,0,18.2712,18.2712,5,5,24.1294,0.449727,-18.455,0.0780851,0.061269,0.0399098,5.565,0.0875,-1.225,0.045994,-0.335012,-0.88633,-0.06748,0.2527,0.37674
-13.2014,0,0,18.2014,18.2014,5,5,24.0026,0.789724,-18.6802,0.209552,0.0780291,-0.0354741,5.565,0.0875,-1.225,0.183976,-0.316224,-0.96197,-0.06566,0.2548,0.37954
-13.1323,0,0,18.1323,18.1323,5,5,23.877,1.11978,-18.9039,0.203792,0.0759866,-0.0346724,4.62,-0.105,-1.0675,0.183976,-0.316224,-0.96197,-0.06566,0.2548,0.37954
-13.2023,0,0,18.2023,18.2023,5,5,24.0042,1.2244,-18.9668,0.10247,-0.209241,-0.107287,4.62,-0.105,-1.0675,0.084058,-0.603168,-1.0331,-0.06566,0.2548,0.37954
-13.2043,0,0,18.2043,18.2043,5,5,24.0079,1.22452,-18.9676,0.102468,-0.209183,-0.107313,5.67,-0.07,-0.945,0.084058,-0.603168,-1.0331,-0.06566,0.2548,0.37954
-13.2064,0,0,18.2064,18.2064,5,5,24.0116,1.22465,-18.9685,-0.0185344,-0.046085,0.162656,5.67,-0.07,-0.945,-0.037454,-0.440298,-0.765184,-0.06566,0.2548,0.37954
-13.2099,0,0,18.2099,18.2099,5,5,24.018,1.22482,-18.9684,-0.0185375,-0.0459829,0.162611,7.1925,0.175,-0.4725,-0.037454,-0.440298,-0.765184,-0.06566,0.2548,0.37954
-13.3017,0,0,18.3017,18.3017,5,5,24.185,1.24792,-18.9808,0.032205,-0.114892,0.0924384,7.1925,0.175,-0.4725,0.013908,-0.51179,-0.833626,-0.06566,0.2548,0.37954
-13.3921,0,0,18.3921,18.3921,5,5,24.3493,1.27045,-18.9931,0.0318117,-0.112283,0.0912524,7.4375,-0.1225,-0.3675,0.013908,-0.51179,-0.833626,-0.06566,0.2548,0.37954
-13.3702,0,0,18.3702,18.3702,5,5,24.3094,1.38354,-19.0898,0.0706578,0.0160299,-0.0411638,7.4375,-0.1225,-0.3675,0.0549,-0.382958,-0.965264,-0.06566,0.2548,0.37954
-13.3476,0,0,18.3476,18.3476,5,5,24.2683,1.49321,-19.1855,0.0687442,0.015357,-0.0409128,6.195,-0.1925,-0.245,0.0549,-0.382958,-0.965264,-0.06566,0.2548,0.37954
-13.4038,0,0,18.4038,18.4038,5,5,24.3706,1.58776,-19.2467,0.0709822,-0.0753631,0.0650312,6.195,-0.1925,-0.245,0.058804,-0.47519,-0.859368,-0.06566,0.2548,0.37954
-13.4577,0,0,18.4577,18.4577,5,5,24.4685,1.68021,-19.3065,0.0693692,-0.0738266,0.064283,4.7075,0,0,0.058804,-0.47519,-0.859368,-0.06566,0.2548,0.37954
-13.4157,0,0,18.4157,18.4157,5,5,24.3921,1.60383,-19.3093,-0.0505409,0.159948,0.211793,4.7075,0,0,-0.062952,-0.240462,-0.713578,-0.07042,0.2562,0.38836
-13.4175,0,0,18.4175,18.4175,5,5,24.3954,1.60262,-19.3085,-0.198125,-0.0763144,-0.103594,5.46,-0.385,0.2625,-0.211182,-0.476532,-1.02651,-0.07042,0.2562,0.38836
-13.4198,0,0,18.4198,18.4198,5,5,24.3997,1.60112,-19.3077,-0.00991746,0.237253,0.0410866,5.9675,-0.525,0.35,-0.022204,-0.163358,-0.882914,-0.07042,0.2562,0.38836
-13.4222,0,0,18.4222,18.4222,5,5,24.4039,1.59963,-19.3068,-0.00989141,0.23732,0.0410566,5.9675,-0.525,0.35,-0.022204,-0.163358,-0.882914,-0.07042,0.2562,0.38836
-13.4735,0,0,18.4735,18.4735,5,5,24.4973,1.32904,-19.1777,-0.170998,-0.0696388,-0.0204902,6.23,-0.595,-0.0175,-0.188734,-0.47153,-0.943426,-0.07042,0.2562,0.38836
-13.5233,0,0,18.5233,18.5233,5,5,24.5878,1.06591,-19.0502,-0.166407,-0.0681618,-0.0210592,6.23,-0.595,-0.0175,-0.188734,-0.47153,-0.943426,-0.07042,0.2562,0.38836
-13.5442,0,0,18.5442,18.5442,5,5,24.6258,1.12604,-19.0949,0.0363969,0.0114482,0.104915,5.7575,0.1225,-0.2975,0.015982,-0.392596,-0.818132,-0.07042,0.2562,0.38836
-13.5642,0,0,18.5642,18.5642,5,5,24.6622,1.18436,-19.1399,0.0353792,0.0120168,0.104631,5.1975,-0.2275,-0.6475,0.015982,-0.392596,-0.818132,-0.07042,0.2562,0.38836
-13.5716,0,0,18.5716,18.5716,5,5,24.6757,0.977572,-19.0534,-0.127205,0.0280132,0.0336538,5.1975,-0.2275,-0.6475,-0.150914,-0.376858,-0.888526,-0.07042,0.2562,0.38836
-13.5784,0,0,18.5784,18.5784,5,5,24.6881,0.776231,-18.9678,-0.123691,0.0282321,0.0336124,5.1275,-0.28,-0.6475,-0.150914,-0.376858,-0.888526,-0.07042,0.2562,0.38836
-13.6023,0,0,18.6023,18.6023,5,5,24.7315,0.821147,-19.0008,0.0322417,-0.0235978,0.0449655,5.1275,-0.28,-0.6475,0.006466,-0.429318,-0.876936,-0.07042,0.2562,0.38836
-13.6263,0,0,18.6263,18.6263,5,5,24.775,0.865854,-19.0337,0.0314615,-0.0229132,0.0446372,5.5475,0.1225,-0.9975,0.006466,-0.429318,-0.876936,-0.07042,0.2562,0.38836
-13.6219,0,0,18.6219,18.6219,5,5,24.7671,0.838133,-19.031,-0.0193217,0.0118926,-0.00595314,5.5475,0.1225,-0.9975,-0.045018,-0.394426,-0.9272,-0.06916,0.2506,0.3871
-13.6183,0,0,18.6183,18.6183,5,5,24.7606,0.810587,-19.0284,-0.018841,0.0117919,-0.00589906,6.2825,-0.1925,-0.91,-0.045018,-0.394426,-0.9272,-0.06916,0.2506,0.3871
-13.6438,0,0,18.6438,18.6438,5,5,24.807,0.717469,-18.982,-0.054998,-0.023735,0.015174,6.2825,-0.1925,-0.91,-0.08296,-0.43066,-0.905972,-0.06916,0.2506,0.3871
-13.6687,0,0,18.6687,18.6687,5,5,24.8521,0.626521,-18.9358,-0.0534108,-0.0230128,0.0148603,6.2125,-0.3675,-0.595,-0.08296,-0.43066,-0.905972,-0.06916,0.2506,0.3871
-13.6852,0,0,18.6852,18.6852,5,5,24.8823,0.822244,-19.0381,0.145569,-0.0898452,-0.0776116,6.2125,-0.3675,-0.595,0.120292,-0.497882,-0.997472,-0.06916,0.2506,0.3871
-13.6867,0,0,18.6867,18.6867,5,5,24.8849,0.822606,-19.0382,0.145562,-0.0898031,-0.0776312,5.0925,0.245,-0.5775,0.120292,-0.497882,-0.997472,-0.06916,0.2506,0.3871
-13.6882,0,0,18.6882,18.6882,5,5,24.8876,0.822967,-19.0382,0.130856,0.149607,0.0686579,5.0925,0.245,-0.5775,0.10553,-0.258762,-0.852292,-0.06916,0.2506,0.3871
-13.6898,0,0,18.6898,18.6898,5,5,24.8906,0.823338,-19.0375,0.13085,0.149655,0.0686357,5.285,0.455,-0.14,0.10553,-0.258762,-0.852292,-0.06916,0.2506,0.3871
-13.6517,0,0,18.6517,18.6517,5,5,24.8213,1.08607,-19.1921,0.148132,0.0668226,0.0603454,5.285,0.455,-0.14,0.12749,-0.34038,-0.860954,-0.06916,0.2506,0.3871
-13.6149,0,0,18.6149,18.6149,5,5,24.7543,1.3415,-19.3454,0.143675,0.0657218,0.0607497,5.53,0.5075,-0.105,0.12749,-0.34038,-0.860954,-0.06916,0.2506,0.3871
-13.6252,0,0,18.6252,18.6252,5,5,24.7731,1.18593,-19.2744,-0.0908718,0.0451609,0.0922646,5.53,0.5075,-0.105,-0.110776,-0.361242,-0.8296,-0.06916,0.2506,0.3871
-13.6277,0,0,18.6277,18.6277,5,5,24.7776,1.18646,-19.2734,-0.0908809,0.0452329,0.0922311,6.1425,0.5775,-0.0875,-0.110776,-0.361242,-0.8296,-0.06916,0.2506,0.3871
-13.6797,0,0,18.6797,18.6797,5,5,24.8722,1.14918,-19.2536,-0.013816,-0.062078,0.0472885,6.1425,0.5775,-0.0875,-0.034038,-0.469944,-0.87352,-0.07546,0.25592,0.3794
-13.5994,0,0,18.5994,18.5994,5,5,24.7262,1.21727,-19.3317,0.0219276,0.14822,0.0426798,6.0025,-0.1225,0.0175,0.00305,-0.257542,-0.879132,-0.07546,0.25592,0.3794
-13.5207,0,0,18.5207,18.5207,5,5,24.5831,1.2837,-19.409,0.0207684,0.145941,0.0436983,6.02,0.315,0.07,0.00305,-0.257542,-0.879132,-0.07546,0.25592,0.3794
-13.5421,0,0,18.5421,18.5421,5,5,24.6219,1.31289,-19.4341,0.0241466,-0.0442099,-0.0117982,6.02,0.315,0.07,0.006954,-0.448106,-0.93391,-0.07546,0.25592,0.3794
-13.5626,0,0,18.5626,18.5626,5,5,24.6592,1.34166,-19.4593,0.0236447,-0.0436233,-0.01208,5.53,0.3675,-0.1575,0.006954,-0.448106,-0.93391,-0.07546,0.25592,0.3794
-13.6061,0,0,18.6061,18.6061,5,5,24.7384,1.38433,-19.4833,0.0384502,-0.0835327,-9.53123e-06,5.495,0.35,-0.1575,0.02257,-0.48922,-0.921344,-0.07546,0.25592,0.3794
-13.648,0,0,18.648,18.648,5,5,24.8146,1.42563,-19.5078,0.0377296,-0.0823325,-0.000582985,4.655,-0.1225,-0.5075,0.02257,-0.48922,-0.921344,-0.07546,0.25592,0.3794
-13.5327,0,0,18.5327,18.5327,5,5,24.6049,1.80612,-19.7576,0.212105,0.160351,0.000161771,4.655,-0.1225,-0.5075,0.20435,-0.24339,-0.921954,-0.07546,0.25592,0.3794
-13.4195,0,0,18.4195,18.4195,5,5,24.3992,2.17626,-20.007,0.205649,0.156993,0.00144536,4.48,0,-0.84,0.20435,-0.24339,-0.921954,-0.07546,0.25592,0.3794
-13.5168,0,0,18.5168,18.5168,5,5,24.576,2.25517,-20.0358,0.0722178,-0.144685,0.0849532,4.48,0,-0.84,0.071736,-0.547536,-0.837774,-0.07546,0.25592,0.3794
-13.6127,0,0,18.6127,18.6127,5,5,24.7503,2.33284,-20.0646,0.0708632,-0.141945,0.0836353,4.865,0,-1.2075,0.071736,-0.547536,-0.837774,-0.07546,0.25592,0.3794
-13.6523,0,0,18.6523,18.6523,5,5,24.8223,2.08703,-19.9575,-0.151907,-0.0350957,0.0107195,4.865,0,-1.2075,-0.156282,-0.442006,-0.909754,-0.07224,0.25774,0.38234
-13.603,0,0,18.603,18.603,5,5,24.7327,2.19115,-20.0583,0.0506164,0.0875376,0.0269274,5.495,-0.7525,-1.4175,0.048922,-0.318054,-0.89426,-0.07224,0.25774,0.38234
-13.5548,0,0,18.5548,18.5548,5,5,24.6451,2.29293,-20.1575,0.0488413,0.0861209,0.0275021,5.5125,-0.14,-1.2075,0.048922,-0.318054,-0.89426,-0.07224,0.25774,0.38234
-13.6047,0,0,18.6047,18.6047,5,5,24.7358,2.62664,-20.3358,0.26364,-0.158022,-0.0273597,5.5125,-0.14,-1.2075,0.270474,-0.563274,-0.947818,-0.07224,0.25774,0.38234
-13.6067,0,0,18.6067,18.6067,5,5,24.7395,2.62594,-20.3369,-0.138465,0.129156,0.0977756,5.6875,-0.595,-0.91,-0.133346,-0.276452,-0.823622,-0.07224,0.25774,0.38234
-13.608,0,0,18.608,18.608,5,5,24.7418,2.62579,-20.3371,-0.138462,0.129193,0.0977589,4.9,-0.0525,-0.5075,-0.133346,-0.276452,-0.823622,-0.07224,0.25774,0.38234
-13.6164,0,0,18.6164,18.6164,5,5,24.7571,2.90245,-20.5035,0.197846,-0.0620348,-0.0244062,4.9,-0.0525,-0.5075,0.20923,-0.467626,-0.944524,-0.07224,0.25774,0.38234
-13.6245,0,0,18.6245,18.6245,5,5,24.7718,3.17137,-20.6672,0.19316,-0.0619055,-0.0247398,4.34,-0.0525,-0.175,0.20923,-0.467626,-0.944524,-0.07224,0.25774,0.38234
-13.564,0,0,18.564,18.564,5,5,24.6617,2.62689,-20.4526,-0.373799,0.173234,-0.00911578,4.34,-0.0525,-0.175,-0.36966,-0.23119,-0.93025,-0.07224,0.25774,0.38234
-13.5033,0,0,18.5033,18.5033,5,5,24.5514,2.0944,-20.2364,-0.364514,0.171644,-0.00796656,4.1125,0.0525,0.315,-0.36966,-0.23119,-0.93025,-0.07224,0.25774,0.38234
-13.5203,0,0,18.5203,18.5203,5,5,24.5824,2.51457,-20.4653,0.236802,0.010196,0.179774,4.1125,0.0525,0.315,0.24156,-0.39284,-0.743468,-0.07224,0.25774,0.38234
-13.5212,0,0,18.5212,18.5212,5,5,24.5839,2.51363,-20.4641,0.236819,0.0102195,0.179764,4.3925,-0.14,0.4025,0.24156,-0.39284,-0.743468,-0.07224,0.25774,0.38234
-13.522,0,0,18.522,18.522,5,5,24.5854,2.5127,-20.4629,-0.288469,-0.170993,-0.115937,4.3925,-0.14,0.4025,-0.285968,-0.573888,-1.03688,-0.0714,0.25634,0.385
-13.5233,0,0,18.5233,18.5233,5,5,24.5877,2.51137,-20.4619,-0.288446,-0.170955,-0.115953,4.9,-0.4025,0.385,-0.285968,-0.573888,-1.03688,-0.0714,0.25634,0.385
-13.4574,0,0,18.4574,18.4574,5,5,24.468,2.81723,-20.6685,0.174306,0.0936454,0.0311194,4.9,-0.4025,0.385,0.184098,-0.307562,-0.891576,-0.0714,0.25634,0.385
-13.3932,0,0,18.3932,18.3932,5,5,24.3512,3.11394,-20.8739,0.169134,0.091681,0.0317167,4.9525,-0.7525,0.35,0.184098,-0.307562,-0.891576,-0.0714,0.25634,0.385
-13.2956,0,0,18.2956,18.2956,5,5,24.1738,2.86007,-20.8185,-0.162592,0.228914,0.137581,4.9525,-0.7525,0.35,-0.153476,-0.16775,-0.787998,-0.0714,0.25634,0.385
-13.2962,0,0,18.2962,18.2962,5,5,24.175,2.85992,-20.8179,-0.162589,0.228932,0.137573,4.2175,0.14,-0.0875,-0.153476,-0.16775,-0.787998,-0.0714,0.25634,0.385
-13.2968,0,0,18.2968,18.2968,5,5,24.1761,2.85977,-20.8172,0.113186,-0.103479,-0.10784,4.2175,0.14,-0.0875,0.123464,-0.499834,-1.03151,-0.0714,0.25634,0.385
-13.2971,0,0,18.2971,18.2971,5,5,24.1766,2.85959,-20.8172,0.113189,-0.103471,-0.107843,3.8675,-0.035,-0.42,0.123464,-0.499834,-1.03151,-0.0714,0.25634,0.385
-13.2974,0,0,18.2974,18.2974,5,5,24.177,2.8594,-20.8172,0.0714013,-0.0051514,0.12969,3.8675,-0.035,-0.42,0.081496,-0.401624,-0.795806,-0.0714,0.25634,0.385
-13.2975,0,0,18.2975,18.2975,5,5,24.1773,2.85972,-20.8181,0.0713958,-0.00514711,0.129688,3.78,0.035,-0.98,0.081496,-0.401624,-0.795806,-0.0714,0.25634,0.385
-13.4382,0,0,18.4382,18.4382,5,5,24.433,2.79551,-20.7589,-0.00802987,-0.22431,0.0731914,3.78,0.035,-0.98,0.00061,-0.62464,-0.850096,-0.0714,0.25634,0.385
-13.5758,0,0,18.5758,18.5758,5,5,24.6833,2.7346,-20.7017,-0.00696814,-0.220319,0.0714242,3.7275,0.21,-1.4175,0.00061,-0.62464,-0.850096,-0.0714,0.25634,0.385
-13.691,0,0,18.691,18.691,5,5,24.8927,2.5159,-20.571,-0.1148,-0.122039,0.113207,3.7275,0.21,-1.4175,-0.111508,-0.529846,-0.807274,-0.06832,0.25368,0.38444
-13.6743,0,0,18.6743,18.6743,5,5,24.8623,2.48527,-20.5869,-0.024124,0.028805,-0.0134315,4.165,-0.28,-1.61,-0.020984,-0.378688,-0.933178,-0.06832,0.25368,0.38444
-13.6579,0,0,18.6579,18.6579,5,5,24.8326,2.45522,-20.6025,-0.0236,0.0283441,-0.0131932,4.2525,-0.3325,-1.54,-0.020984,-0.378688,-0.933178,-0.06832,0.25368,0.38444
-13.675,0,0,18.675,18.675,5,5,24.8636,2.33902,-20.5614,-0.0773355,-0.0781133,-0.132972,4.83,-0.2975,-1.6975,-0.076982,-0.48556,-1.05188,-0.06832,0.25368,0.38444
-13.6756,0,0,18.6756,18.6756,5,5,24.8648,2.33933,-20.5631,-0.077341,-0.0780941,-0.132981,4.3225,-0.175,-1.4175,-0.076982,-0.48556,-1.05188,-0.06832,0.25368,0.38444
-13.6801,0,0,18.6801,18.6801,5,5,24.8729,2.35598,-20.5917,0.00983829,0.00641902,0.0324372,4.3225,-0.175,-1.4175,0.010858,-0.401258,-0.887672,-0.06832,0.25368,0.38444
-13.6836,0,0,18.6836,18.6836,5,5,24.8793,2.37127,-20.6186,0.0095718,0.00651603,0.0323801,3.395,-0.3325,-0.4375,0.010858,-0.401258,-0.887672,-0.06832,0.25368,0.38444
-13.8114,0,0,18.8114,18.8114,5,5,25.1116,2.36204,-20.5832,0.0410759,-0.355458,-0.120552,3.395,-0.3325,-0.4375,0.042334,-0.766526,-1.03773,-0.06832,0.25368,0.38444
-13.8112,0,0,18.8112,18.8112,5,5,25.1113,2.36204,-20.5823,0.041076,-0.355462,-0.12055,3.4125,0.2975,0.035,0.042334,-0.766526,-1.03773,-0.06832,0.25368,0.38444
-13.8111,0,0,18.8111,18.8111,5,5,25.111,2.36204,-20.5813,-0.0676537,0.0339952,-0.142064,3.4125,0.2975,0.035,-0.066856,-0.377468,-1.05908,-0.06832,0.25368,0.38444
-13.8109,0,0,18.8109,18.8109,5,5,25.1107,2.36152,-20.5802,-0.0676446,0.0339898,-0.142061,3.3775,0.0875,0.2975,-0.066856,-0.377468,-1.05908,-0.06832,0.25368,0.38444
-13.7617,0,0,18.7617,18.7617,5,5,25.0214,2.58406,-20.7289,0.127226,0.0704895,0.0256573,3.3775,0.0875,0.2975,0.132736,-0.339526,-0.893162,-0.06832,0.25368,0.38444
-13.7143,0,0,18.7143,18.7143,5,5,24.935,2.8001,-20.8758,0.123459,0.0690503,0.0261324,3.745,0.21,0.5775,0.132736,-0.339526,-0.893162,-0.06734,0.2527,0.38234
-13.6954,0,0,18.6954,18.6954,5,5,24.9007,2.60223,-20.8057,-0.159797,-0.0570927,-0.288093,3.745,0.21,0.5775,-0.155184,-0.465064,-1.20536,-0.06734,0.2527,0.38234
-13.6956,0,0,18.6956,18.6956,5,5,24.9011,2.60175,-20.8042,-0.159789,-0.057085,-0.288096,3.8325,0.175,0.4375,-0.155184,-0.465064,-1.20536,-0.06734,0.2527,0.38234
-13.6959,0,0,18.6959,18.6959,5,5,24.9016,2.60127,-20.8027,0.10931,0.1851,0.17431,3.8325,0.175,0.4375,0.115046,-0.223138,-0.746518,-0.06734,0.2527,0.38234
-13.696,0,0,18.696,18.696,5,5,24.9017,2.60132,-20.8014,0.109309,0.185102,0.174309,3.64,0.42,0.2275,0.115046,-0.223138,-0.746518,-0.06734,0.2527,0.38234
-13.642,0,0,18.642,18.642,5,5,24.8036,2.62076,-20.8529,0.00279167,0.0605609,-0.0880954,3.64,0.42,0.2275,0.008418,-0.345992,-1.0076,-0.06734,0.2527,0.38234
-13.5889,0,0,18.5889,18.5889,5,5,24.707,2.63873,-20.9044,0.00247849,0.0590259,-0.0874034,3.465,-0.0525,0.07,0.008418,-0.345992,-1.0076,-0.06734,0.2527,0.38234
-13.6255,0,0,18.6255,18.6255,5,5,24.7737,2.64769,-20.9149,0.0104617,-0.0222344,0.0889033,3.465,-0.0525,0.07,0.016592,-0.42822,-0.832162,-0.06734,0.2527,0.38234
-13.6614,0,0,18.6614,18.6614,5,5,24.8389,2.65714,-20.9263,0.0102971,-0.0212063,0.0884197,3.3425,-0.0175,-0.5075,0.016592,-0.42822,-0.832162,-0.06734,0.2527,0.38234
-13.5214,0,0,18.5214,18.5214,5,5,24.5843,2.92314,-21.1384,0.12836,0.211471,0.0145794,3.3425,-0.0175,-0.5075,0.139812,-0.191662,-0.90707,-0.06734,0.2527,0.38234
-13.3844,0,0,18.3844,18.3844,5,5,24.3353,3.18072,-21.3512,0.123871,0.207423,0.0161579,3.6925,-0.6125,-0.84,0.139812,-0.191662,-0.90707,-0.06734,0.2527,0.38234
-13.2318,0,0,18.2318,18.2318,5,5,24.0579,3.52778,-21.6202,0.223152,0.189068,-0.156648,3.6925,-0.6125,-0.84,0.245586,-0.205448,-1.08019,-0.06734,0.2527,0.38234
-13.2315,0,0,18.2315,18.2315,5,5,24.0573,3.52791,-21.6216,0.22315,0.189058,-0.156643,3.29,-0.1925,-1.225,0.245586,-0.205448,-1.08019,-0.07252,0.25046,0.38136
-13.2311,0,0,18.2311,18.2311,5,5,24.0566,3.52729,-21.6235,-0.155388,-0.121277,-0.0986062,3.2725,-0.7175,-1.3125,-0.134566,-0.51545,-1.0226,-0.07252,0.25046,0.38136
-13.2311,0,0,18.2311,18.2311,5,5,24.0565,3.52727,-21.6252,-0.155388,-0.121277,-0.0986061,3.6575,-0.35,-1.365,-0.134566,-0.51545,-1.0226,-0.07252,0.25046,0.38136
-13.2302,0,0,18.2302,18.2302,5,5,24.0549,3.52791,-21.6266,0.0230632,0.140291,0.144597,2.7125,0.07,-1.365,0.044652,-0.254126,-0.781288,-0.07252,0.25046,0.38136
-13.2299,0,0,18.2299,18.2299,5,5,24.0544,3.52877,-21.6281,0.0230482,0.140283,0.1446,3.36,0.175,-1.4525,0.044652,-0.254126,-0.781288,-0.07252,0.25046,0.38136
-13.2296,0,0,18.2296,18.2296,5,5,24.0538,3.52963,-21.6296,0.220204,-0.248333,-0.154285,3.36,0.175,-1.4525,0.242658,-0.64233,-1.07787,-0.07252,0.25046,0.38136
-13.2294,0,0,18.2294,18.2294,5,5,24.0534,3.52985,-21.6303,0.220201,-0.24834,-0.154282,3.3775,0.0175,-0.875,0.242658,-0.64233,-1.07787,-0.07252,0.25046,0.38136
-13.2291,0,0,18.2291,18.2291,5,5,24.053,3.53006,-21.631,-0.152157,0.337494,0.089159,3.3775,0.0175,-0.875,-0.131272,-0.057096,-0.83631,-0.07252,0.25046,0.38136
-13.2291,0,0,18.2291,18.2291,5,5,24.053,3.52967,-21.6301,-0.15215,0.337495,0.0891592,3.5875,0.0525,0.07,-0.131272,-0.057096,-0.83631,-0.07252,0.25046,0.38136
-13.2292,0,0,18.2292,18.2292,5,5,24.053,3.52928,-21.6293,0.405841,0.0606343,-0.0607148,3.5875,0.0525,0.07,0.429074,-0.33367,-0.985028,-0.07252,0.25046,0.38136
-13.2291,0,0,18.2291,18.2291,5,5,24.0529,3.52846,-21.6281,0.405855,0.0606325,-0.060713,3.4825,-0.07,0.4025,0.429074,-0.33367,-0.985028,-0.07252,0.25046,0.38136
-13.194,0,0,18.194,18.194,5,5,23.989,3.20579,-21.5031,-0.225351,0.087596,-0.04336,3.4825,-0.07,0.4025,-0.21045,-0.305854,-0.968558,-0.0777,0.252,0.38192
-13.1587,0,0,18.1587,18.1587,5,5,23.9248,2.89093,-21.3781,-0.219864,0.0866923,-0.0426387,3.2375,0.035,0.6125,-0.21045,-0.305854,-0.968558,-0.0777,0.252,0.38192
-13.1583,0,0,18.1583,18.1583,5,5,23.9243,2.89014,-21.3765,0.304483,-0.203612,-0.00292172,3.2375,0.035,0.6125,0.316102,-0.595848,-0.929152,-0.0777,0.252,0.38192
-13.1581,0,0,18.1581,18.1581,5,5,23.9238,2.88891,-21.3749,0.304504,-0.203618,-0.00291757,3.3075,-0.2275,0.6475,0.316102,-0.595848,-0.929152,-0.0777,0.252,0.38192
-13.1579,0,0,18.1579,18.1579,5,5,23.9234,2.88768,-21.3734,-0.214826,0.0721372,0.137002,3.3075,-0.2275,0.6475,-0.205448,-0.320372,-0.790316,-0.0777,0.252,0.38192
-13.1574,0,0,18.1574,18.1574,5,5,23.9226,2.88788,-21.3718,-0.214829,0.0721246,0.137007,3.115,0.56,0.3675,-0.205448,-0.320372,-0.790316,-0.0777,0.252,0.38192
-13.157,0,0,18.157,18.157,5,5,23.9218,2.88807,-21.3701,0.0152612,0.228556,0.187176,3.115,0.56,0.3675,0.02562,-0.16409,-0.74054,-0.0777,0.252,0.38192
-13.1567,0,0,18.1567,18.1567,5,5,23.9213,2.8886,-21.3695,0.015252,0.228548,0.187179,3.29,0.5075,-0.2275,0.02562,-0.16409,-0.74054,-0.0777,0.252,0.38192
-13.1564,0,0,18.1564,18.1564,5,5,23.9208,2.88912,-21.3688,-0.132241,-0.158114,-0.0326497,3.29,0.5075,-0.2275,-0.122488,-0.550342,-0.958676,-0.0777,0.252,0.38192
-13.1563,0,0,18.1563,18.1563,5,5,23.9206,2.88962,-21.369,-0.13225,-0.158117,-0.0326489,3.5175,0.28,-0.7,-0.122488,-0.550342,-0.958676,-0.0777,0.252,0.38192
-13.0632,0,0,18.0632,18.0632,5,5,23.7512,2.63322,-21.2956,-0.19156,0.18098,-0.0425695,3.5175,0.28,-0.7,-0.186538,-0.208986,-0.9699,-0.0777,0.252,0.38192
-12.9713,0,0,17.9713,17.9713,5,5,23.5842,2.38172,-21.2229,-0.187174,0.17839,-0.0412247,3.535,-0.4725,-1.225,-0.186538,-0.208986,-0.9699,-0.0777,0.252,0.38192
-12.9712,0,0,17.9712,17.9712,5,5,23.584,2.3814,-21.2245,-0.227988,-0.213029,-0.0146663,3.535,-0.4725,-1.225,-0.22753,-0.599996,-0.943548,-0.0777,0.252,0.38192
-12.9707,0,0,17.9707,17.9707,5,5,23.583,2.38184,-21.2261,-0.227996,-0.213045,-0.0146596,3.08,-0.0875,-1.4525,-0.22753,-0.599996,-0.943548,-0.07196,0.25144,0.38318
-12.9699,0,0,17.9699,17.9699,5,5,23.5816,2.38219,-21.228,0.217122,-0.16202,-0.116451,2.835,-0.175,-1.5225,0.219478,-0.549,-1.04456,-0.07196,0.25144,0.38318
-12.9231,0,0,17.9231,17.9231,5,5,23.4966,2.33043,-21.2378,-0.045235,0.0913939,0.0109343,3.4125,-0.0875,-1.575,-0.044896,-0.294508,-0.918782,-0.07196,0.25144,0.38318
-12.8768,0,0,17.8768,17.8768,5,5,23.4123,2.27936,-21.2471,-0.0443444,0.0900589,0.0115526,2.905,-0.21,-1.33,-0.044896,-0.294508,-0.918782,-0.07196,0.25144,0.38318
-12.876,0,0,17.876,17.876,5,5,23.411,2.27952,-21.2487,0.133143,-0.0709251,-0.233721,2.905,-0.21,-1.33,0.133346,-0.455304,-1.16217,-0.07196,0.25144,0.38318
-12.8758,0,0,17.8758,17.8758,5,5,23.4105,2.28022,-21.2498,0.133131,-0.0709339,-0.233717,3.325,0.175,-1.2425,0.133346,-0.455304,-1.16217,-0.07196,0.25144,0.38318
-12.9374,0,0,17.9374,17.9374,5,5,23.5226,2.01117,-21.1017,-0.153863,-0.018509,0.121478,3.325,0.175,-1.2425,-0.159576,-0.404796,-0.809104,-0.07196,0.25144,0.38318
-12.9974,0,0,17.9974,17.9974,5,5,23.6317,1.74921,-20.9545,-0.149294,-0.0167057,0.120854,3.3775,0.3325,-0.6475,-0.159576,-0.404796,-0.809104,-0.07196,0.25144,0.38318
-12.9972,0,0,17.9972,17.9972,5,5,23.6313,1.74976,-20.9546,-0.104111,-0.244112,-0.178154,3.3775,0.3325,-0.6475,-0.114192,-0.63196,-1.10581,-0.07196,0.25144,0.38318
-12.9964,0,0,17.9964,17.9964,5,5,23.6297,1.74951,-20.9537,-0.104106,-0.244137,-0.178143,2.73,0.1575,0.105,-0.114192,-0.63196,-1.10581,-0.07196,0.25144,0.38318
-12.9955,0,0,17.9955,17.9955,5,5,23.6282,1.74927,-20.9527,0.0691364,0.400302,0.163911,2.73,0.1575,0.105,0.05978,0.011834,-0.766404,-0.07196,0.25144,0.38318
-12.9945,0,0,17.9945,17.9945,5,5,23.6264,1.75005,-20.9508,0.0691228,0.400273,0.163923,2.5725,0.9275,0.3675,0.05978,0.011834,-0.766404,-0.06944,0.24696,0.37842
-12.9711,0,0,17.9711,17.9711,5,5,23.5839,2.0207,-21.1015,0.177869,0.00787083,0.00203117,2.5725,0.9275,0.3675,0.173728,-0.37942,-0.9272,-0.06944,0.24696,0.37842
-12.9489,0,0,17.9489,17.9489,5,5,23.5435,2.2825,-21.2508,0.173303,0.0071557,0.00215591,2.9225,0.0525,0.6475,0.173728,-0.37942,-0.9272,-0.06944,0.24696,0.37842
-13.0297,0,0,18.0297,18.0297,5,5,23.6904,2.22577,-21.1957,-0.0203276,-0.0972196,0.0888273,2.9225,0.0525,0.6475,-0.021716,-0.486048,-0.840214,-0.06944,0.24696,0.37842
-13.1093,0,0,18.1093,18.1093,5,5,23.835,2.1703,-21.1418,-0.0193601,-0.0948963,0.087845,3.3425,-0.4025,0.7,-0.021716,-0.486048,-0.840214,-0.06944,0.24696,0.37842
-13.109,0,0,18.109,18.109,5,5,23.8346,2.16876,-21.1403,0.211004,-0.0609511,0.257149,3.3425,-0.4025,0.7,0.209596,-0.452132,-0.67222,-0.06944,0.24696,0.37842
-13.1089,0,0,18.1089,18.1089,5,5,23.8343,2.16817,-21.1389,0.211014,-0.0609559,0.257151,3.395,0.0875,0.4375,0.209596,-0.452132,-0.67222,-0.06944,0.24696,0.37842
-13.1087,0,0,18.1087,18.1087,5,5,23.834,2.16758,-21.1374,-0.0112947,0.162531,0.283588,3.395,0.0875,0.4375,-0.013664,-0.228872,-0.64599,-0.06944,0.24696,0.37842
-13.1086,0,0,18.1086,18.1086,5,5,23.8339,2.16722,-21.1373,-0.0112883,0.16253,0.283589,3.5525,-0.0875,-0.28,-0.013664,-0.228872,-0.64599,-0.06944,0.24696,0.37842
-13.1086,0,0,18.1086,18.1086,5,5,23.8338,2.16686,-21.1371,0.1181,0.0250141,0.202935,3.5525,-0.0875,-0.28,0.116266,-0.366244,-0.726022,-0.06944,0.24696,0.37842
-13.1086,0,0,18.1086,18.1086,5,5,23.8338,2.16633,-21.1381,0.118109,0.0250147,0.202935,3.64,-0.455,-0.875,0.116266,-0.366244,-0.726022,-0.06944,0.24696,0.37842
-13.1086,0,0,18.1086,18.1086,5,5,23.8339,2.1658,-21.1391,0.0587122,-0.273585,-0.300416,3.64,-0.455,-0.875,0.056608,-0.664534,-1.22549,-0.06944,0.24696,0.37842
-13.1077,0,0,18.1077,18.1077,5,5,23.8322,2.16646,-21.1402,0.0587006,-0.273611,-0.300405,2.7125,0.1575,-1.2075,0.056608,-0.664534,-1.22549,-0.06888,0.25004,0.38654
-13.2042,0,0,18.2042,18.2042,5,5,24.0076,1.97909,-21.0162,-0.0998502,-0.089653,0.123988,2.345,0.105,-1.6275,-0.105896,-0.483608,-0.803248,-0.06888,0.25004,0.38654
-13.2988,0,0,18.2988,18.2988,5,5,24.1796,1.79694,-20.8952,-0.0966727,-0.0868714,0.122859,2.8,-0.21,-1.9775,-0.105896,-0.483608,-0.803248,-0.06888,0.25004,0.38654
-13.1973,0,0,18.1973,18.1973,5,5,23.9952,2.28471,-21.1928,0.271668,0.152124,0.0909447,2.905,0.0175,-1.82,0.272548,-0.241804,-0.835944,-0.06888,0.25004,0.38654
-13.099,0,0,18.099,18.099,5,5,23.8163,2.75844,-21.4884,0.263408,0.149125,0.091876,3.815,-0.3675,-1.2775,0.272548,-0.241804,-0.835944,-0.06888,0.25004,0.38654
-13.0991,0,0,18.0991,18.0991,5,5,23.8166,2.75833,-21.49,-0.0786938,0.0997908,0.109333,3.815,-0.3675,-1.2775,-0.071004,-0.291092,-0.81862,-0.06888,0.25004,0.38654
-13.0991,0,0,18.0991,18.0991,5,5,23.8166,2.75846,-21.4915,-0.0786962,0.0997907,0.109333,3.64,-0.21,-1.2775,-0.071004,-0.291092,-0.81862,-0.06888,0.25004,0.38654
-13.1765,0,0,18.1765,18.1765,5,5,23.9573,2.59889,-21.3941,-0.0856329,-0.0542365,0.125794,3.64,-0.21,-1.2775,-0.080764,-0.447252,-0.801418,-0.06888,0.25004,0.38654
-13.2527,0,0,18.2527,18.2527,5,5,24.0959,2.44472,-21.2974,-0.0829449,-0.0519811,0.124918,4.34,0.4025,-1.015,-0.080764,-0.447252,-0.801418,-0.06888,0.25004,0.38654
-13.2534,0,0,18.2534,18.2534,5,5,24.0972,2.44564,-21.298,0.0849324,-0.30403,-0.0279163,4.34,0.4025,-1.015,0.08784,-0.69906,-0.953064,-0.06888,0.25004,0.38654
-13.2535,0,0,18.2535,18.2535,5,5,24.0973,2.44589,-21.2975,0.084928,-0.304029,-0.0279171,3.64,0.3325,-0.2275,0.08784,-0.69906,-0.953064,-0.06888,0.25004,0.38654
-13.2733,0,0,18.2733,18.2733,5,5,24.1333,2.31936,-21.236,-0.0811232,-0.025579,-0.0113694,3.64,0.3325,-0.2275,-0.08113,-0.42151,-0.936472,-0.06888,0.25004,0.38654
-13.2919,0,0,18.2919,18.2919,5,5,24.1671,2.1968,-21.1729,-0.0789857,-0.0250065,-0.0115337,3.045,0.665,0.0175,-0.08113,-0.42151,-0.936472,-0.06692,0.24752,0.38332
-13.2914,0,0,18.2914,18.2914,5,5,24.1662,2.19739,-21.1717,0.337457,-0.107579,0.00863624,3.045,0.665,0.0175,0.337086,-0.503982,-0.916464,-0.06692,0.24752,0.38332
-13.2909,0,0,18.2909,18.2909,5,5,24.1652,2.19764,-21.1701,0.337453,-0.107595,0.00864294,3.0275,0.595,0.3675,0.337086,-0.503982,-0.916464,-0.06692,0.24752,0.38332
-13.121,0,0,18.121,18.121,5,5,23.8563,2.42147,-21.3616,0.103091,0.26125,-0.0129147,3.0275,0.595,0.3675,0.105652,-0.13054,-0.939888,-0.06692,0.24752,0.38332
-12.9557,0,0,17.9557,17.9557,5,5,23.5558,2.63777,-21.5532,0.0993192,0.256385,-0.0109607,4.48,0.0525,0.7,0.105652,-0.13054,-0.939888,-0.06692,0.24752,0.38332
-12.9566,0,0,17.9566,17.9566,5,5,23.5574,2.63695,-21.5514,0.201138,-0.0635602,-0.168715,4.48,0.0525,0.7,0.207888,-0.45018,-1.09641,-0.06692,0.24752,0.38332
-12.9574,0,0,17.9574,17.9574,5,5,23.559,2.6366,-21.5497,0.201145,-0.0635357,-0.168725,4.41,0.28,0.5425,0.207888,-0.45018,-1.09641,-0.06692,0.24752,0.38332
-12.9658,0,0,17.9658,17.9658,5,5,23.5742,2.83091,-21.658,0.14321,-0.0516322,-0.0243922,4.41,0.28,0.5425,0.15311,-0.438468,-0.952942,-0.06692,0.24752,0.38332
-12.974,0,0,17.974,17.974,5,5,23.5892,3.0207,-21.7662,0.139902,-0.0514615,-0.0246512,4.095,0.2975,-0.1925,0.15311,-0.438468,-0.952942,-0.06692,0.24752,0.38332
-12.9745,0,0,17.9745,17.9745,5,5,23.5901,3.02088,-21.7656,-0.00661286,-0.280557,-0.392765,4.095,0.2975,-0.1925,0.005978,-0.66734,-1.31821,-0.06692,0.24752,0.38332
-12.9749,0,0,17.9749,17.9749,5,5,23.5908,3.02088,-21.7661,-0.0066129,-0.280545,-0.392771,4.025,-0.0525,-0.735,0.005978,-0.66734,-1.31821,-0.06692,0.24752,0.38332
-13.0989,0,0,18.0989,18.0989,5,5,23.8162,2.16315,-21.2874,-0.527167,-0.0125141,0.226422,4.025,-0.0525,-0.735,-0.531798,-0.403454,-0.702842,-0.06692,0.24752,0.38332
-13.2187,0,0,18.2187,18.2187,5,5,24.0341,1.32186,-20.8191,-0.512491,-0.00885915,0.225288,3.9025,0.28,-0.9275,-0.531798,-0.403454,-0.702842,-0.06916,0.25088,0.38444
-13.1255,0,0,18.1255,18.1255,5,5,23.8646,1.54542,-20.9739,0.126025,0.13373,-0.0156862,3.7975,0.0175,-0.9625,0.113338,-0.258274,-0.94306,-0.06916,0.25088,0.38444
-13.0344,0,0,18.0344,18.0344,5,5,23.6989,1.76203,-21.1292,0.122246,0.13104,-0.0146201,3.9025,-0.595,-1.365,0.113338,-0.258274,-0.94306,-0.06916,0.25088,0.38444
-13.0347,0,0,18.0347,18.0347,5,5,23.6994,1.76162,-21.1311,0.0709862,-0.0247859,0.174349,3.9025,-0.595,-1.365,0.061854,-0.413946,-0.755546,-0.06916,0.25088,0.38444
-13.0345,0,0,18.0345,18.0345,5,5,23.699,1.76086,-21.1328,0.0709995,-0.0247914,0.174351,3.43,-0.735,-1.1725,0.061854,-0.413946,-0.755546,-0.06916,0.25088,0.38444
-13.0907,0,0,18.0907,18.0907,5,5,23.8012,2.12302,-21.3045,0.265984,-0.124245,0.0716363,3.43,-0.735,-1.1725,0.264008,-0.51484,-0.856562,-0.06916,0.25088,0.38444
-13.0327,0,0,18.0327,18.0327,5,5,23.6959,1.93237,-21.2422,-0.145321,0.106284,-0.0664479,4.2,0.0875,-0.7875,-0.152378,-0.282918,-0.994422,-0.06916,0.25088,0.38444
-12.9752,0,0,17.9752,17.9752,5,5,23.5913,1.74558,-21.1798,-0.142063,0.104654,-0.0656204,3.8325,-0.1925,-0.6475,-0.152378,-0.282918,-0.994422,-0.06916,0.25088,0.38444
-12.9754,0,0,17.9754,17.9754,5,5,23.5917,1.7453,-21.1803,0.428074,0.0953791,-0.133859,3.8325,-0.1925,-0.6475,0.420168,-0.29219,-1.06213,-0.06916,0.25088,0.38444
-12.9764,0,0,17.9764,17.9764,5,5,23.5934,1.74492,-21.1802,0.428081,0.0954063,-0.133871,4.55,-0.105,-0.2975,0.420168,-0.29219,-1.06213,-0.06916,0.25088,0.38444
-13.0348,0,0,18.0348,18.0348,5,5,23.6997,1.59315,-21.0865,-0.0892299,-0.0696887,0.0380753,4.55,-0.105,-0.2975,-0.101992,-0.458842,-0.890844,-0.06916,0.25088,0.38444
-13.0913,0,0,18.0913,18.0913,5,5,23.8023,1.44603,-20.9942,-0.0866633,-0.0680226,0.0374165,3.8675,0.5075,0.1575,-0.101992,-0.458842,-0.890844,-0.06972,0.25116,0.38038
-13.0914,0,0,18.0914,18.0914,5,5,23.8026,1.44612,-20.993,0.0941059,-0.206387,-0.138279,3.7625,0.4025,0.175,0.079544,-0.597068,-1.06518,-0.06972,0.25116,0.38038
-13.0913,0,0,18.0913,18.0913,5,5,23.8024,1.44624,-20.9919,0.0941038,-0.20639,-0.138278,3.4825,0.4025,0.1225,0.079544,-0.597068,-1.06518,-0.06972,0.25116,0.38038
-13.0439,0,0,18.0439,18.0439,5,5,23.7162,1.17267,-20.8742,-0.188436,0.120432,0.00750726,3.4825,0.4025,0.1225,-0.208986,-0.269254,-0.921222,-0.06972,0.25116,0.38038
-12.997,0,0,17.997,17.997,5,5,23.6309,0.904548,-20.7568,-0.183758,0.119101,0.0081831,3.57,-0.1225,0.35,-0.208986,-0.269254,-0.921222,-0.06972,0.25116,0.38038
-13.0039,0,0,18.0039,18.0039,5,5,23.6434,1.17227,-20.8921,0.172019,-0.0104305,0.0776065,3.57,-0.1225,0.35,0.152988,-0.398818,-0.85217,-0.06972,0.25116,0.38038
-13.0047,0,0,18.0047,18.0047,5,5,23.645,1.17087,-20.891,-0.0963187,-0.104321,-0.0754748,4.4625,-0.4375,0.4375,-0.11651,-0.492636,-1.00406,-0.06972,0.25116,0.38038
-13.0061,0,0,18.0061,18.0061,5,5,23.6475,1.17131,-20.8905,-0.0963264,-0.104281,-0.0754925,5.005,0.42,-0.2975,-0.11651,-0.492636,-1.00406,-0.06972,0.25116,0.38038
-12.9194,0,0,17.9194,17.9194,5,5,23.4898,1.21564,-20.9503,0.0115081,0.128529,-0.0751447,5.005,0.42,-0.2975,-0.007442,-0.257542,-1.00479,-0.06972,0.25116,0.38038
-12.8339,0,0,17.8339,17.8339,5,5,23.3343,1.25856,-21.0105,0.0107593,0.126033,-0.0740817,4.5675,0.315,-0.7875,-0.007442,-0.257542,-1.00479,-0.06972,0.25116,0.38038
-12.8348,0,0,17.8348,17.8348,5,5,23.336,1.25917,-21.0109,-0.125072,0.109085,0.174139,4.5675,0.315,-0.7875,-0.143838,-0.2745,-0.758474,-0.06972,0.25116,0.38038
-12.8352,0,0,17.8352,17.8352,5,5,23.3367,1.25961,-21.0124,-0.12508,0.109095,0.174135,3.9725,-0.035,-1.3475,-0.143838,-0.2745,-0.758474,-0.06972,0.25116,0.38038
-12.8355,0,0,17.8355,17.8355,5,5,23.3373,1.26006,-21.0138,0.205475,0.0973806,0.259211,3.9725,-0.035,-1.3475,0.188124,-0.286212,-0.67405,-0.06468,0.24836,0.3815
-12.8359,0,0,17.8359,17.8359,5,5,23.3379,1.26081,-21.0159,0.205462,0.0973909,0.259206,3.99,0,-1.715,0.188124,-0.286212,-0.67405,-0.06468,0.24836,0.3815
-12.7477,0,0,17.7477,17.7477,5,5,23.1776,1.44352,-21.1529,0.0942727,0.145839,0.0391802,3.99,0,-1.715,0.079666,-0.235216,-0.893406,-0.06468,0.24836,0.3815
-12.6613,0,0,17.6613,17.6613,5,5,23.0206,1.62085,-21.2898,0.091179,0.143288,0.0401786,4.025,-0.21,-1.8025,0.079666,-0.235216,-0.893406,-0.06468,0.24836,0.3815
-12.6617,0,0,17.6617,17.6617,5,5,23.0213,1.62131,-21.2921,0.151671,-0.154691,-0.0312594,4.025,-0.21,-1.8025,0.140422,-0.532896,-0.964288,-0.06468,0.24836,0.3815
-12.6624,0,0,17.6624,17.6624,5,5,23.0225,1.62161,-21.2941,0.151666,-0.154671,-0.0312677,4.305,-0.245,-1.6275,0.140422,-0.532896,-0.964288,-0.06468,0.24836,0.3815
-12.6285,0,0,17.6285,17.6285,5,5,22.961,1.19659,-21.0951,-0.273529,0.140203,0.0834155,4.305,-0.245,-1.6275,-0.29402,-0.237412,-0.851072,-0.06468,0.24836,0.3815
-12.5941,0,0,17.5941,17.5941,5,5,22.8984,0.781057,-20.8949,-0.266278,0.139245,0.0839567,3.8325,0.0175,-0.805,-0.29402,-0.237412,-0.851072,-0.06468,0.24836,0.3815
-12.5943,0,0,17.5943,17.5943,5,5,22.8988,0.78121,-20.8955,0.286965,-0.275735,-0.0377651,3.8325,0.0175,-0.805,0.261568,-0.651968,-0.971852,-0.06468,0.24836,0.3815
-12.5944,0,0,17.5944,17.5944,5,5,22.899,0.781344,-20.8951,0.286963,-0.275731,-0.0377667,3.7275,0.2275,-0.28,0.261568,-0.651968,-0.971852,-0.06468,0.24836,0.3815
-12.5722,0,0,17.5722,17.5722,5,5,22.8585,0.48029,-20.745,-0.219724,0.059733,-0.051086,3.7275,0.2275,-0.28,-0.25254,-0.316224,-0.985394,-0.06468,0.24836,0.3815
-12.5494,0,0,17.5494,17.5494,5,5,22.817,0.187108,-20.5948,-0.214607,0.0590771,-0.0507775,3.3075,0.7875,-0.0525,-0.25254,-0.316224,-0.985394,-0.06468,0.24836,0.3815
-12.5846,0,0,17.5846,17.5846,5,5,22.881,0.644499,-20.8114,0.323975,-0.0908643,0.0807819,3.3075,0.7875,-0.0525,0.296338,-0.467016,-0.854366,-0.06832,0.24654,0.38192
-12.5839,0,0,17.5839,17.5839,5,5,22.8798,0.645405,-20.8092,0.0484291,0.255834,0.129109,2.905,1.0675,0.5425,0.019642,-0.120658,-0.80642,-0.06832,0.24654,0.38192
-12.5837,0,0,17.5837,17.5837,5,5,22.8795,0.645168,-20.8072,0.0484333,0.255829,0.129111,3.43,0.385,0.6475,0.019642,-0.120658,-0.80642,-0.06832,0.24654,0.38192
-12.6388,0,0,17.6388,17.6388,5,5,22.9797,0.64952,-20.7803,0.0138554,-0.0813406,0.0481435,3.43,0.385,0.6475,-0.015006,-0.459086,-0.886086,-0.06832,0.24654,0.38192
-12.6932,0,0,17.6932,17.6932,5,5,23.0786,0.652804,-20.7541,0.0137981,-0.0797527,0.0474679,3.7625,-0.385,0.7175,-0.015006,-0.459086,-0.886086,-0.06832,0.24654,0.38192
-12.7267,0,0,17.7267,17.7267,5,5,23.1395,0.927828,-20.8783,0.184788,-0.05059,0.0955545,4.0425,-0.5075,0.7175,0.161528,-0.430904,-0.837896,-0.06832,0.24654,0.38192
-12.7605,0,0,17.7605,17.7605,5,5,23.2009,1.19579,-21.0009,0.180112,-0.0496391,0.0950533,4.5325,-0.6125,0.595,0.161528,-0.430904,-0.837896,-0.06832,0.24654,0.38192
-12.7614,0,0,17.7614,17.7614,5,5,23.2026,1.19401,-20.9996,0.145277,0.0688511,0.202499,4.5325,-0.6125,0.595,0.126514,-0.312564,-0.731268,-0.06832,0.24654,0.38192
-12.7616,0,0,17.7616,17.7616,5,5,23.2028,1.1935,-20.999,0.145286,0.0688555,0.202498,3.745,-0.07,-0.0175,0.126514,-0.312564,-0.731268,-0.06832,0.24654,0.38192
-12.7293,0,0,17.7293,17.7293,5,5,23.1442,1.47599,-21.1572,0.164046,0.0653049,0.101977,3.745,-0.07,-0.0175,0.150304,-0.315126,-0.831308,-0.06832,0.24654,0.38192
-12.6977,0,0,17.6977,17.6977,5,5,23.0868,1.75136,-21.3149,0.159242,0.0643305,0.102246,3.4825,-0.07,-0.5425,0.150304,-0.315126,-0.831308,-0.06832,0.24654,0.38192
-12.6976,0,0,17.6976,17.6976,5,5,23.0865,1.7512,-21.3151,0.263844,0.301375,0.0793789,3.4825,-0.07,-0.5425,0.255346,-0.078324,-0.854,-0.06804,0.24598,0.37744
-12.6973,0,0,17.6973,17.6973,5,5,23.0861,1.75142,-21.3165,0.214882,-0.133037,-0.100615,3.36,-0.14,-1.26,0.20618,-0.512278,-1.03261,-0.06804,0.24598,0.37744
-12.6972,0,0,17.6972,17.6972,5,5,23.0859,1.75238,-21.3183,0.214865,-0.133041,-0.100614,3.5175,0.175,-1.645,0.20618,-0.512278,-1.03261,-0.06804,0.24598,0.37744
-12.6971,0,0,17.6971,17.6971,5,5,23.0857,1.75335,-21.3201,0.207923,-0.165774,-0.0106145,3.5175,0.175,-1.645,0.199226,-0.544974,-0.943304,-0.06804,0.24598,0.37744
-12.6966,0,0,17.6966,17.6966,5,5,23.0847,1.75392,-21.3216,-0.0599625,-0.0785911,0.157216,3.0975,0.0175,-1.4175,-0.069784,-0.457866,-0.776774,-0.06804,0.24598,0.37744
-12.697,0,0,17.697,17.697,5,5,23.0854,1.75392,-21.3232,-0.0599625,-0.0785803,0.157212,4.0075,-0.2975,-1.3125,-0.069784,-0.457866,-0.776774,-0.06804,0.24598,0.37744
-12.6973,0,0,17.6973,17.6973,5,5,23.0861,1.75392,-21.3248,-0.00687328,0.192063,0.12315,4.0075,-0.2975,-1.3125,-0.01647,-0.187514,-0.810568,-0.06804,0.24598,0.37744
-12.6972,0,0,17.6972,17.6972,5,5,23.0858,1.7533,-21.3259,-0.00686256,0.19206,0.123152,3.4825,-0.525,-0.9275,-0.01647,-0.187514,-0.810568,-0.06804,0.24598,0.37744
-12.7378,0,0,17.7378,17.7378,5,5,23.1596,2.01489,-21.4499,0.164607,-0.0331169,0.151033,3.4825,-0.525,-0.9275,0.160308,-0.41358,-0.782264,-0.06804,0.24598,0.37744
-12.778,0,0,17.778,17.778,5,5,23.2327,2.27103,-21.571,0.16014,-0.0320107,0.150377,3.4475,0.245,-0.77,0.160308,-0.41358,-0.782264,-0.06804,0.24598,0.37744
-12.7555,0,0,17.7555,17.7555,5,5,23.1918,2.1267,-21.5144,-0.108135,0.0301445,-0.077445,3.4475,0.245,-0.77,-0.11163,-0.350872,-1.0087,-0.06804,0.24598,0.37744
-12.7325,0,0,17.7325,17.7325,5,5,23.15,1.98644,-21.457,-0.105688,0.0295088,-0.0770773,2.765,0.8225,-0.28,-0.11163,-0.350872,-1.0087,-0.06804,0.24598,0.37744
-12.7117,0,0,17.7117,17.7117,5,5,23.1122,1.95045,-21.4495,-0.0294963,0.0254919,-0.04016,2.765,0.8225,-0.28,-0.035746,-0.354288,-0.97234,-0.07098,0.24654,0.37898
-12.6912,0,0,17.6912,17.6912,5,5,23.0749,1.9142,-21.4417,-0.0288639,0.024901,-0.0398849,2.66,0.3325,0.1575,-0.035746,-0.354288,-0.97234,-0.07098,0.24654,0.37898
-12.7234,0,0,17.7234,17.7234,5,5,23.1334,1.64706,-21.2923,-0.17023,-0.00536657,0.0493538,2.66,0.3325,0.1575,-0.18239,-0.38552,-0.883524,-0.07098,0.24654,0.37898
-12.7549,0,0,17.7549,17.7549,5,5,23.1907,1.38702,-21.1444,-0.165693,-0.0044002,0.0490711,3.1325,0.5075,0.1225,-0.18239,-0.38552,-0.883524,-0.07098,0.24654,0.37898
-12.6554,0,0,17.6554,17.6554,5,5,23.0098,1.64007,-21.3129,0.144054,0.146896,0.00372794,3.1325,0.5075,0.1225,0.133102,-0.231434,-0.92964,-0.07098,0.24654,0.37898
-12.5588,0,0,17.5588,17.5588,5,5,22.8342,1.88547,-21.4813,0.139773,0.144023,0.00479971,4.025,0.035,0.105,0.133102,-0.231434,-0.92964,-0.07098,0.24654,0.37898
-12.5592,0,0,17.5592,17.5592,5,5,22.835,1.88505,-21.4804,0.108559,-0.308077,0.0489331,4.025,0.035,0.105,0.101748,-0.683078,-0.885842,-0.07098,0.24654,0.37898
-12.5594,0,0,17.5594,17.5594,5,5,22.8353,1.88462,-21.4805,0.108566,-0.308071,0.048931,3.7975,-0.175,-0.385,0.101748,-0.683078,-0.885842,-0.07098,0.24654,0.37898
-12.6221,0,0,17.6221,17.6221,5,5,22.9493,1.60299,-21.3125,-0.169704,-0.0349371,0.0947695,3.7975,-0.175,-0.385,-0.182634,-0.412116,-0.839726,-0.07098,0.24654,0.37898
-12.6825,0,0,17.6825,17.6825,5,5,23.0592,1.32971,-21.1468,-0.164936,-0.0331256,0.094133,3.2725,0.35,-0.665,-0.182634,-0.412116,-0.839726,-0.07098,0.24654,0.37898
-12.7439,0,0,17.7439,17.7439,5,5,23.1707,1.35322,-21.1318,0.0297601,-0.109501,0.0252468,3.2725,0.35,-0.665,0.013298,-0.490196,-0.907314,-0.07098,0.24654,0.37898
-12.8037,0,0,17.8037,17.8037,5,5,23.2794,1.37672,-21.1173,0.0293502,-0.107762,0.02449,2.8175,0.4025,-0.8925,0.013298,-0.490196,-0.907314,-0.07098,0.24654,0.37898
-12.7997,0,0,17.7997,17.7997,5,5,23.2722,1.18954,-21.0333,-0.121428,0.053726,0.0617369,2.8175,0.4025,-0.8925,-0.141398,-0.32879,-0.87047,-0.06734,0.2534,0.378
-12.7966,0,0,17.7966,17.7966,5,5,23.2665,1.00587,-20.9505,-0.118223,0.0536577,0.0618331,3.8675,-0.3325,-0.9275,-0.141398,-0.32879,-0.87047,-0.06734,0.2534,0.378
-12.7968,0,0,17.7968,17.7968,5,5,23.2669,1.00556,-20.9515,0.104223,0.108378,0.374611,3.8675,-0.3325,-0.9275,0.081984,-0.274134,-0.560102,-0.06734,0.2534,0.378
-12.7964,0,0,17.7964,17.7964,5,5,23.2662,1.00531,-20.9529,0.104228,0.108366,0.374616,3.2025,-0.385,-1.1375,0.081984,-0.274134,-0.560102,-0.06734,0.2534,0.378
-12.9522,0,0,17.9522,17.9522,5,5,23.5494,1.05826,-20.9298,0.0655215,-0.202437,0.183912,3.2025,-0.385,-1.1375,0.044042,-0.589138,-0.747372,-0.06734,0.2534,0.378
-13.1057,0,0,18.1057,18.1057,5,5,23.8286,1.11129,-20.9066,0.0645961,-0.197982,0.181938,3.7625,-0.0875,-1.12,0.044042,-0.589138,-0.747372,-0.06734,0.2534,0.378
-13.1059,0,0,18.1059,18.1059,5,5,23.8288,1.1115,-20.9078,0.0600973,0.363683,0.0209967,3.7625,-0.0875,-1.12,0.039528,-0.02806,-0.90707,-0.06734,0.2534,0.378
-13.1051,0,0,18.1051,18.1051,5,5,23.8274,1.11124,-20.9085,0.0601019,0.36366,0.0210069,2.8,-0.245,-0.7875,0.039528,-0.02806,-0.90707,-0.06734,0.2534,0.378
-12.9869,0,0,17.9869,17.9869,5,5,23.6126,1.47976,-21.1516,0.245376,0.141075,-0.100444,2.8,-0.245,-0.7875,0.232044,-0.246928,-1.02895,-0.06734,0.2534,0.378
-12.8712,0,0,17.8712,17.8712,5,5,23.4021,1.83798,-21.3937,0.239127,0.137635,-0.0991454,2.765,-0.35,-0.42,0.232044,-0.246928,-1.02895,-0.06734,0.2534,0.378
-12.747,0,0,17.747,17.747,5,5,23.1763,1.9353,-21.5099,0.0324827,0.206172,0.0180552,2.765,-0.35,-0.42,0.02623,-0.174826,-0.914146,-0.06734,0.2534,0.378
-12.6244,0,0,17.6244,17.6244,5,5,22.9534,2.0308,-21.6246,0.0308169,0.202572,0.0195255,1.96,0.63,-0.07,0.02623,-0.174826,-0.914146,-0.06734,0.2534,0.378
-12.6228,0,0,17.6228,17.6228,5,5,22.9505,2.03143,-21.6236,0.130303,-0.363044,-0.0382409,1.96,0.63,-0.07,0.126148,-0.739808,-0.971486,-0.07084,0.24836,0.3815
-12.4996,0,0,17.4996,17.4996,5,5,22.7266,2.32587,-21.8343,0.186518,0.162457,-0.0902652,3.6575,0.2975,0.14,0.187758,-0.211182,-1.02443,-0.07084,0.24836,0.3815
-12.379,0,0,17.379,17.379,5,5,22.5073,2.60463,-22.047,0.181657,0.158847,-0.0889877,3.7625,-4.41,0.5425,0.187758,-0.211182,-1.02443,-0.07084,0.24836,0.3815
-12.3791,0,0,17.3791,17.3791,5,5,22.5075,2.59692,-22.0483,-0.254464,-0.20423,-0.225456,3.7625,-4.41,0.5425,-0.250344,-0.573888,-1.15985,-0.07084,0.24836,0.3815
-12.3798,0,0,17.3798,17.3798,5,5,22.5087,2.59615,-22.047,-0.25445,-0.204212,-0.225463,4.2,-0.0525,0.42,-0.250344,-0.573888,-1.15985,-0.07084,0.24836,0.3815
-12.3556,0,0,17.3556,17.3556,5,5,22.4647,2.69703,-22.1221,0.0538224,0.0616516,0.0781915,4.13,0.2275,0.315,0.061,-0.307562,-0.858758,-0.07084,0.24836,0.3815
-12.3314,0,0,17.3314,17.3314,5,5,22.4206,2.79422,-22.1976,0.0521281,0.0609109,0.0784095,3.5,-0.5425,-0.07,0.061,-0.307562,-0.858758,-0.07084,0.24836,0.3815
-12.3441,0,0,17.3441,17.3441,5,5,22.4438,2.76438,-22.1915,-0.0193928,0.0163517,0.0835654,3.5,-0.5425,-0.07,-0.011346,-0.352458,-0.853512,-0.07084,0.24836,0.3815
-12.3562,0,0,17.3562,17.3562,5,5,22.4659,2.73617,-22.1859,-0.0189011,0.0167153,0.0834406,3.15,-0.21,-0.49,-0.011346,-0.352458,-0.853512,-0.07084,0.24836,0.3815
-12.5249,0,0,17.5249,17.5249,5,5,22.7725,2.41093,-21.9552,-0.183432,-0.199545,0.152069,3.15,-0.21,-0.49,-0.182268,-0.573522,-0.783606,-0.07084,0.24836,0.3815
-12.6891,0,0,17.6891,17.6891,5,5,23.0711,2.09645,-21.7296,-0.177947,-0.194665,0.15024,2.73,0.735,-1.015,-0.182268,-0.573522,-0.783606,-0.07084,0.24836,0.3815
-12.6882,0,0,17.6882,17.6882,5,5,23.0695,2.09787,-21.73,0.0828578,0.0195199,0.291026,2.73,0.735,-1.015,0.079666,-0.359534,-0.643916,-0.07084,0.24836,0.3815
-12.6882,0,0,17.6882,17.6882,5,5,23.0694,2.09862,-21.7313,0.0828446,0.0195175,0.291026,3.5525,0.175,-1.33,0.079666,-0.359534,-0.643916,-0.0714,0.24724,0.38318
-12.6881,0,0,17.6881,17.6881,5,5,23.0692,2.09938,-21.7326,-0.119321,-0.0748888,-0.14458,3.5525,0.175,-1.33,-0.123342,-0.45384,-1.07616,-0.0714,0.24724,0.38318
-12.6884,0,0,17.6884,17.6884,5,5,23.0698,2.09943,-21.7343,-0.119322,-0.0748806,-0.144583,3.92,-0.28,-1.3475,-0.123342,-0.45384,-1.07616,-0.0714,0.24724,0.38318
-12.6097,0,0,17.6097,17.6097,5,5,22.9267,2.12984,-21.789,0.00576409,0.106372,-0.106742,3.92,-0.28,-1.3475,0.002806,-0.270474,-1.03956,-0.0714,0.24724,0.38318
-12.5331,0,0,17.5331,17.5331,5,5,22.7875,2.15861,-21.8429,0.00526242,0.104127,-0.105816,4.4975,-0.4025,-0.9625,0.002806,-0.270474,-1.03956,-0.0714,0.24724,0.38318
-12.544,0,0,17.544,17.544,5,5,22.8072,2.14114,-21.8353,-0.00949713,-0.0141369,0.00496067,4.4975,-0.4025,-0.9625,-0.012322,-0.388936,-0.929518,-0.0714,0.24724,0.38318
-12.5537,0,0,17.5537,17.5537,5,5,22.8248,2.12448,-21.8276,-0.00920654,-0.0138491,0.00485133,3.57,-0.175,-0.875,-0.012322,-0.388936,-0.929518,-0.0714,0.24724,0.38318
-12.4993,0,0,17.4993,17.4993,5,5,22.7259,2.10253,-21.8449,-0.0265606,0.0671236,-0.104753,3.57,-0.175,-0.875,-0.030134,-0.306464,-1.03895,-0.0714,0.24724,0.38318
-12.4443,0,0,17.4443,17.4443,5,5,22.6259,2.08096,-21.8612,-0.0261844,0.0655192,-0.104067,1.925,0.0875,-0.4725,-0.030134,-0.306464,-1.03895,-0.0714,0.24724,0.38318
-12.4426,0,0,17.4426,17.4426,5,5,22.6229,2.081,-21.8612,0.104291,-0.142999,-0.0428191,1.925,0.0875,-0.4725,0.100894,-0.514718,-0.978196,-0.0714,0.24724,0.38318
-12.4411,0,0,17.4411,17.4411,5,5,22.6202,2.08122,-21.8607,0.104287,-0.143043,-0.0428011,2.0825,0.2975,-0.245,0.100894,-0.514718,-0.978196,-0.0714,0.24724,0.38318
-12.279,0,0,17.279,17.279,5,5,22.3254,1.89134,-21.8358,-0.162464,0.299355,-0.0147872,2.0825,0.2975,-0.245,-0.170312,-0.068076,-0.952454,-0.0714,0.24724,0.38318
-12.1199,0,0,17.1199,17.1199,5,5,22.0362,1.70556,-21.8089,-0.159223,0.294722,-0.0127883,2.555,0.7875,-0.0525,-0.170312,-0.068076,-0.952454,-0.07084,0.24654,0.38108
-12.1479,0,0,17.1479,17.1479,5,5,22.0871,1.77312,-21.834,0.0587584,-0.0807406,-0.0389743,3.3775,0.35,0,0.049776,-0.443958,-0.978074,-0.07084,0.24654,0.38108
-12.176,0,0,17.176,17.176,5,5,22.1381,1.83122,-21.8611,0.0577449,-0.0799288,-0.0393386,3.8675,-4.4625,0.455,0.049776,-0.443958,-0.978074,-0.07084,0.24654,0.38108
-12.1762,0,0,17.1762,17.1762,5,5,22.1385,1.82347,-21.8626,0.00879994,-0.254317,-0.169663,3.8675,-4.4625,0.455,0.000488,-0.618174,-1.10739,-0.07084,0.24654,0.38108
-12.1769,0,0,17.1769,17.1769,5,5,22.1399,1.82292,-21.8615,0.00880951,-0.254296,-0.169671,4.3225,0,0.2275,0.000488,-0.618174,-1.10739,-0.07084,0.24654,0.38108
-12.1776,0,0,17.1776,17.1776,5,5,22.1412,1.82237,-21.8605,-0.140244,0.0239304,0.114946,4.3225,0,0.2275,-0.149206,-0.340258,-0.824964,-0.07084,0.24654,0.38108
-12.1786,0,0,17.1786,17.1786,5,5,22.143,1.82139,-21.8597,-0.140227,0.0239593,0.114935,4.585,-0.2975,0.175,-0.149206,-0.340258,-0.824964,-0.07084,0.24654,0.38108
-12.3023,0,0,17.3023,17.3023,5,5,22.3678,1.83103,-21.8143,0.0333296,-0.184058,0.105453,4.585,-0.2975,0.175,0.025254,-0.551684,-0.832894,-0.07084,0.24654,0.38108
-12.4226,0,0,17.4226,17.4226,5,5,22.5865,1.84098,-21.7701,0.033156,-0.180535,0.103989,3.465,-0.5425,-0.1225,0.025254,-0.551684,-0.832894,-0.07084,0.24654,0.38108
-12.5289,0,0,17.5289,17.5289,5,5,22.7797,1.82382,-21.7174,0.0130458,-0.176078,0.060035,3.465,-0.5425,-0.1225,0.004758,-0.550342,-0.875228,-0.07084,0.24654,0.38108
-12.5306,0,0,17.5306,17.5306,5,5,22.7829,1.49137,-21.5457,-0.223154,0.0522927,0.034718,3.4475,-0.07,-0.56,-0.238266,-0.322324,-0.900482,-0.07084,0.24654,0.38108
-12.5308,0,0,17.5308,17.5308,5,5,22.7833,1.16746,-21.3754,-0.217502,0.0523506,0.034836,2.6425,0.175,-0.9275,-0.238266,-0.322324,-0.900482,-0.07084,0.24654,0.38108
-12.5209,0,0,17.5209,17.5209,5,5,22.7653,1.7037,-21.6609,0.375589,-0.0219166,0.076421,2.6425,0.175,-0.9275,0.366732,-0.396134,-0.859124,-0.06846,0.24906,0.37716
-12.5212,0,0,17.5212,17.5212,5,5,22.7658,1.70353,-21.6627,-0.142909,-0.0647748,-0.265256,3.92,-0.42,-1.365,-0.153964,-0.438956,-1.19816,-0.06846,0.24906,0.37716
-12.5214,0,0,17.5214,17.5214,5,5,22.7662,1.70363,-21.6644,-0.14291,-0.0647684,-0.265259,3.85,-0.2625,-1.3825,-0.153964,-0.438956,-1.19816,-0.06846,0.24906,0.37716
-12.6543,0,0,17.6543,17.6543,5,5,23.0078,1.75254,-21.6425,0.0615473,-0.193281,0.131431,4.06,-0.6475,-1.3825,0.052216,-0.571204,-0.802882,-0.06846,0.24906,0.37716
-12.7844,0,0,17.7844,17.7844,5,5,23.2443,1.80212,-21.6199,0.0606824,-0.189498,0.129786,3.5525,0.14,-1.155,0.052216,-0.571204,-0.802882,-0.06846,0.24906,0.37716
-13.0406,0,0,18.0406,18.0406,5,5,23.7102,1.83992,-21.5371,0.0827408,-0.382828,0.262511,3.5525,0.14,-1.155,0.07503,-0.771772,-0.66795,-0.06846,0.24906,0.37716
-13.2919,0,0,18.2919,18.2919,5,5,24.167,1.87814,-21.4554,0.082074,-0.375553,0.259257,2.8875,0.07,-0.9625,0.07503,-0.771772,-0.66795,-0.06846,0.24906,0.37716
-13.1765,0,0,18.1765,18.1765,5,5,23.9572,1.96954,-21.5533,0.0327358,0.188239,-0.0111385,2.8875,0.07,-0.9625,0.027084,-0.205204,-0.937692,-0.06846,0.24906,0.37716
-13.0623,0,0,18.0623,18.0623,5,5,23.7497,2.05798,-21.6502,0.0311931,0.184907,-0.00972422,1.925,0.2275,-0.525,0.027084,-0.205204,-0.937692,-0.06846,0.24906,0.37716
-13.1567,0,0,18.1567,18.1567,5,5,23.9213,2.2669,-21.7209,0.171631,-0.179768,0.0811514,1.925,0.2275,-0.525,0.171776,-0.57218,-0.846192,-0.06846,0.24906,0.37716
-13.2501,0,0,18.2501,18.2501,5,5,24.0911,2.47152,-21.7899,0.168063,-0.177123,0.079812,2.2225,0.5075,-0.63,0.171776,-0.57218,-0.846192,-0.06846,0.24906,0.37716
-13.2488,0,0,18.2488,18.2488,5,5,24.0886,2.47233,-21.7898,0.15748,-0.249828,-0.143445,2.2225,0.5075,-0.63,0.161162,-0.64477,-1.06774,-0.06678,0.24822,0.37674
-13.2489,0,0,18.2489,18.2489,5,5,24.089,2.47287,-21.7899,0.0744957,0.0414493,-0.118981,3.78,0.3325,-0.6475,0.077836,-0.3538,-1.04347,-0.06678,0.24822,0.37674
-13.2494,0,0,18.2494,18.2494,5,5,24.0898,2.47219,-21.7898,0.0745076,0.0414636,-0.118987,4.095,-0.2625,-0.21,0.077836,-0.3538,-1.04347,-0.06678,0.24822,0.37674
-13.2498,0,0,18.2498,18.2498,5,5,24.0905,2.47208,-21.7891,0.107918,-0.291443,-0.0486655,3.9725,0.1575,-0.105,0.111386,-0.686372,-0.973682,-0.06678,0.24822,0.37674
-13.251,0,0,18.251,18.251,5,5,24.0927,2.47222,-21.7887,0.107916,-0.291408,-0.0486811,4.8125,0.245,-0.2625,0.111386,-0.686372,-0.973682,-0.06678,0.24822,0.37674
-13.2522,0,0,18.2522,18.2522,5,5,24.0949,2.47236,-21.7883,-0.00919903,0.0147981,-0.185415,4.8125,0.245,-0.2625,-0.006222,-0.380518,-1.10935,-0.06678,0.24822,0.37674
-13.2523,0,0,18.2523,18.2523,5,5,24.0951,2.47117,-21.7883,-0.00917828,0.0148011,-0.185416,3.6925,-0.5775,-0.1925,-0.006222,-0.380518,-1.10935,-0.06678,0.24822,0.37674
-13.403,0,0,18.403,18.403,5,5,24.3691,2.17485,-21.5823,-0.16097,-0.151365,0.171331,3.6925,-0.5775,-0.1925,-0.163846,-0.550952,-0.753594,-0.06678,0.24822,0.37674
-13.5495,0,0,18.5495,18.5495,5,5,24.6354,1.88766,-21.3801,-0.155961,-0.147065,0.169567,2.94,0,-0.21,-0.163846,-0.550952,-0.753594,-0.06678,0.24822,0.37674
-13.5255,0,0,18.5255,18.5255,5,5,24.5918,1.79747,-21.3456,-0.067647,0.0366759,-0.0457221,2.94,0,-0.21,-0.076738,-0.366732,-0.967582,-0.06678,0.24822,0.37674
-13.5015,0,0,18.5015,18.5015,5,5,24.5481,1.71013,-21.3123,-0.0661233,0.0360016,-0.0453625,2.59,0.1575,-0.8575,-0.076738,-0.366732,-0.967582,-0.06678,0.24822,0.37674
-13.4073,0,0,18.4073,18.4073,5,5,24.3769,1.90033,-21.4473,0.122871,0.104928,-0.133359,2.59,0.1575,-0.8575,0.116388,-0.295118,-1.05603,-0.06678,0.24822,0.37674
-13.3148,0,0,18.3148,18.3148,5,5,24.2088,2.08565,-21.5811,0.119638,0.102209,-0.132255,2.52,-0.07,-1.1025,0.116388,-0.295118,-1.05603,-0.07042,0.24976,0.37828
-13.222,0,0,18.222,18.222,5,5,24.0401,1.96779,-21.5658,-0.102326,0.166356,-0.0538968,3.885,-0.2275,-0.98,-0.10858,-0.228384,-0.979538,-0.07042,0.24976,0.37828
-13.1307,0,0,18.1307,18.1307,5,5,23.8741,1.85227,-21.5501,-0.100311,0.163738,-0.0526597,3.885,-0.2275,-0.98,-0.10858,-0.228384,-0.979538,-0.07042,0.24976,0.37828
-13.1321,0,0,18.1321,18.1321,5,5,23.8765,1.85216,-21.5509,0.0393997,0.00586576,0.305841,4.9525,-0.175,-0.8575,0.03172,-0.38613,-0.623786,-0.07042,0.24976,0.37828
-13.1328,0,0,18.1328,18.1328,5,5,23.8779,1.85215,-21.5515,0.0393999,0.00588846,0.305831,4.41,-0.0875,-0.7875,0.03172,-0.38613,-0.623786,-0.07042,0.24976,0.37828
-13.1542,0,0,18.1542,18.1542,5,5,23.9168,1.9052,-21.573,0.0376242,-0.0170736,0.0601233,4.41,-0.0875,-0.7875,0.030866,-0.409676,-0.867298,-0.07042,0.24976,0.37828
-13.175,0,0,18.175,18.175,5,5,23.9546,1.95711,-21.594,0.0367187,-0.0164837,0.0598281,4.0775,0,-0.735,0.030866,-0.409676,-0.867298,-0.07042,0.24976,0.37828
-13.2283,0,0,18.2283,18.2283,5,5,24.0514,2.0201,-21.6072,0.0494693,-0.0570895,0.0991871,4.0775,0,-0.735,0.044774,-0.451766,-0.827526,-0.07042,0.24976,0.37828
-13.2249,0,0,18.2249,18.2249,5,5,24.0453,2.06344,-21.6342,0.0338921,-0.0289867,-0.0661597,3.605,-0.0875,-0.525,0.02989,-0.423584,-0.991616,-0.07042,0.24976,0.37828
-13.2209,0,0,18.2209,18.2209,5,5,24.0381,2.10595,-21.66,0.0331506,-0.0291131,-0.0661329,2.8175,0.28,-0.14,0.02989,-0.423584,-0.991616,-0.07042,0.24976,0.37828
-13.1294,0,0,18.1294,18.1294,5,5,23.8717,1.83587,-21.5654,-0.217866,0.173474,-0.101814,2.8175,0.28,-0.14,-0.22692,-0.218624,-1.02834,-0.07042,0.24976,0.37828
-13.0392,0,0,18.0392,18.0392,5,5,23.7077,1.5711,-21.4704,-0.213247,0.170911,-0.100534,2.94,-0.0175,-0.1225,-0.22692,-0.218624,-1.02834,-0.07042,0.24976,0.37828
-13.0382,0,0,18.0382,18.0382,5,5,23.7059,1.57104,-21.4696,-0.00878518,0.142426,-0.161381,2.555,0.2275,0,-0.021594,-0.24705,-1.08873,-0.07644,0.25312,0.3759
-13.0386,0,0,18.0386,18.0386,5,5,23.7065,1.57156,-21.4686,-0.00879422,0.142436,-0.161385,3.9375,0.5775,-0.0525,-0.021594,-0.24705,-1.08873,-0.07644,0.25312,0.3759
-13.062,0,0,18.062,18.062,5,5,23.749,1.36903,-21.358,-0.142904,-0.0446792,-0.0612749,3.9375,0.5775,-0.0525,-0.15982,-0.434686,-0.989176,-0.07644,0.25312,0.3759
-13.0847,0,0,18.0847,18.0847,5,5,23.7904,1.1708,-21.2483,-0.139445,-0.0439882,-0.0614954,4.1475,0.14,0.245,-0.15982,-0.434686,-0.989176,-0.07644,0.25312,0.3759
-13.0852,0,0,18.0852,18.0852,5,5,23.7914,1.17042,-21.2472,-0.0484456,-0.167076,0.257426,4.1475,0.14,0.245,-0.068442,-0.557662,-0.672708,-0.07644,0.25312,0.3759
-13.0861,0,0,18.0861,18.0861,5,5,23.793,1.17016,-21.2463,-0.048441,-0.16705,0.257415,4.4975,0.14,0.0875,-0.068442,-0.557662,-0.672708,-0.07644,0.25312,0.3759
-12.9714,0,0,17.9714,17.9714,5,5,23.5843,1.04921,-21.228,-0.103429,0.217995,-0.0071454,4.4975,0.14,0.0875,-0.125782,-0.169702,-0.936716,-0.07644,0.25312,0.3759
-12.972,0,0,17.972,17.972,5,5,23.5855,1.04976,-21.227,0.097499,0.0940551,-0.174979,4.2525,0.6125,-0.0175,0.076006,-0.293532,-1.10325,-0.07644,0.25312,0.3759
-12.972,0,0,17.972,17.972,5,5,23.5855,1.04955,-21.2269,0.0975027,0.0940548,-0.174978,3.5875,-0.035,-0.385,0.076006,-0.293532,-1.10325,-0.07644,0.25312,0.3759
-12.972,0,0,17.972,17.972,5,5,23.5854,1.04934,-21.2269,-0.0984501,-0.00670016,0.196326,3.5875,-0.035,-0.385,-0.12078,-0.394182,-0.734806,-0.07644,0.25312,0.3759
-12.9721,0,0,17.9721,17.9721,5,5,23.5856,1.04963,-21.2265,-0.0984551,-0.00669697,0.196325,3.71,0.315,-0.315,-0.12078,-0.394182,-0.734806,-0.07644,0.25312,0.3759
-12.9712,0,0,17.9712,17.9712,5,5,23.5841,1.05,-21.2263,0.252025,-0.189668,-0.00370137,2.7125,0.315,-0.4375,0.23119,-0.576938,-0.9333,-0.07644,0.25312,0.3759
-12.9711,0,0,17.9711,17.9711,5,5,23.5838,1.05048,-21.2268,0.252016,-0.189672,-0.00369996,3.4825,0.1925,-0.875,0.23119,-0.576938,-0.9333,-0.07126,0.24906,0.3717
-12.971,0,0,17.971,17.971,5,5,23.5836,1.05097,-21.2274,-0.425882,-0.0781737,-0.0682465,3.4825,0.1925,-0.875,-0.44957,-0.465552,-0.99735,-0.07126,0.24906,0.3717
-12.9713,0,0,17.9713,17.9713,5,5,23.5841,1.05042,-21.2285,-0.425873,-0.0781658,-0.0682497,3.885,-0.49,-0.9275,-0.44957,-0.465552,-0.99735,-0.07126,0.24906,0.3717
-13.0568,0,0,18.0568,18.0568,5,5,23.7396,1.04001,-21.1871,0.0133581,-0.166786,0.00984302,3.885,-0.49,-0.9275,-0.008662,-0.556564,-0.918782,-0.07126,0.24906,0.3717
-13.142,0,0,18.142,18.142,5,5,23.8945,1.0304,-21.1462,0.0135258,-0.164312,0.00875441,5.1625,-0.4725,-0.9275,-0.008662,-0.556564,-0.918782,-0.07126,0.24906,0.3717
-13.1435,0,0,18.1435,18.1435,5,5,23.8972,1.02988,-21.1473,0.0632224,-0.226186,-0.129336,5.1625,-0.4725,-0.9275,0.041236,-0.618418,-1.05579,-0.07126,0.24906,0.3717
-13.2589,0,0,18.2589,18.2589,5,5,24.107,0.969989,-21.0673,-0.0172493,-0.162748,0.101195,4.3575,0.21,-0.8225,-0.040626,-0.558394,-0.825574,-0.07126,0.24906,0.3717
-13.3716,0,0,18.3716,18.3716,5,5,24.312,0.912704,-20.9884,-0.0162496,-0.159479,0.0997435,3.9725,0.455,-0.8575,-0.040626,-0.558394,-0.825574,-0.07126,0.24906,0.3717
-13.372,0,0,18.372,18.372,5,5,24.3126,0.913589,-20.9888,-0.0467579,-0.534764,0.139451,3.9725,0.455,-0.8575,-0.071248,-0.9333,-0.786168,-0.07126,0.24906,0.3717
-13.3714,0,0,18.3714,18.3714,5,5,24.3117,0.913843,-20.9892,0.192321,0.247321,0.11327,3.08,0.105,-0.735,0.168848,-0.152012,-0.812154,-0.07126,0.24906,0.3717
-13.3699,0,0,18.3699,18.3699,5,5,24.3088,0.913999,-20.9893,0.192319,0.247275,0.11329,1.995,0.105,-0.595,0.168848,-0.152012,-0.812154,-0.07126,0.24906,0.3717
-13.3683,0,0,18.3683,18.3683,5,5,24.306,0.914154,-20.9895,-0.154161,0.14904,0.16249,1.995,0.105,-0.595,-0.179096,-0.2501,-0.763354,-0.07126,0.24906,0.3717
-13.3672,0,0,18.3672,18.3672,5,5,24.3039,0.914384,-20.9895,0.0872269,-0.0622724,-0.0826546,2.45,0.1925,-0.5075,0.063318,-0.46116,-1.00662,-0.07126,0.24906,0.3717
-13.3667,0,0,18.3667,18.3667,5,5,24.3031,0.915182,-20.9893,0.087213,-0.0622852,-0.082649,3.15,0.5425,-0.5425,0.063318,-0.46116,-1.00662,-0.06944,0.24696,0.37394
-13.432,0,0,18.432,18.432,5,5,24.4218,0.539039,-20.7636,-0.239822,-0.0405792,0.0752988,3.15,0.5425,-0.5425,-0.271694,-0.441396,-0.84912,-0.06944,0.24696,0.37394
-13.4974,0,0,18.4974,18.4974,5,5,24.5407,0.17103,-20.5409,-0.2334,-0.0386749,0.0744755,5.32,-0.175,-0.3675,-0.271694,-0.441396,-0.84912,-0.06944,0.24696,0.37394
-13.4991,0,0,18.4991,18.4991,5,5,24.5437,0.170589,-20.5409,0.265428,-0.1152,-0.254557,5.32,-0.175,-0.3675,0.229238,-0.51789,-1.17559,-0.06944,0.24696,0.37394
-13.496,0,0,18.496,18.496,5,5,24.5382,0.169982,-20.5407,0.265439,-0.115288,-0.254516,0.4725,-0.21,-0.21,0.229238,-0.51789,-1.17559,-0.06944,0.24696,0.37394
-13.5118,0,0,18.5118,18.5118,5,5,24.5669,-0.149507,-20.3557,-0.229627,-0.015299,-0.0448505,0.4725,-0.21,-0.21,-0.273524,-0.41846,-0.967338,-0.06944,0.24696,0.37394
-13.5305,0,0,18.5305,18.5305,5,5,24.6009,-0.461189,-20.1724,-0.224188,-0.0147704,-0.0451243,4.4625,-0.2625,-0.315,-0.273524,-0.41846,-0.967338,-0.06944,0.24696,0.37394
-13.4581,0,0,18.4581,18.4581,5,5,24.4692,-0.127364,-20.3461,0.199317,0.112727,0.0533559,3.2725,0.105,-0.385,0.157624,-0.289018,-0.870592,-0.06944,0.24696,0.37394
-13.3865,0,0,18.3865,18.3865,5,5,24.3391,0.196463,-20.5198,0.193665,0.110658,0.0542908,2.52,-0.7525,-0.5075,0.157624,-0.289018,-0.870592,-0.06944,0.24696,0.37394
-13.3854,0,0,18.3854,18.3854,5,5,24.3372,0.195223,-20.5205,0.0432871,-0.269431,-0.0108579,2.52,-0.7525,-0.5075,0.006588,-0.668682,-0.935252,-0.06944,0.24696,0.37394
-13.4213,0,0,18.4213,18.4213,5,5,24.4024,0.0841169,-20.436,-0.0744371,-0.0847142,-0.0542321,3.185,-0.245,-0.4725,-0.113582,-0.485194,-0.97783,-0.06944,0.24696,0.37394
-13.4559,0,0,18.4559,18.4559,5,5,24.4653,-0.0237612,-20.3529,-0.0725543,-0.0837141,-0.0546854,2.8,-0.1925,-0.6825,-0.113582,-0.485194,-0.97783,-0.06944,0.24696,0.37394
-13.4551,0,0,18.4551,18.4551,5,5,24.4638,-0.0240055,-20.3534,0.0189287,-0.18327,-0.126969,2.8,-0.1925,-0.6825,-0.021716,-0.584624,-1.04957,-0.06608,0.25004,0.37478
-13.4557,0,0,18.4557,18.4557,5,5,24.4649,-0.0240861,-20.3542,0.0189301,-0.183254,-0.126976,4.1825,-0.175,-0.875,-0.021716,-0.584624,-1.04957,-0.06608,0.25004,0.37478
-13.4563,0,0,18.4563,18.4563,5,5,24.4659,-0.0241666,-20.355,-0.0727902,-0.0442569,-0.120222,4.1825,-0.175,-0.875,-0.113826,-0.445788,-1.04286,-0.06608,0.25004,0.37478
-13.4573,0,0,18.4573,18.4573,5,5,24.4678,-0.0245391,-20.3558,-0.0727837,-0.044227,-0.120235,4.655,-0.315,-0.77,-0.113826,-0.445788,-1.04286,-0.06608,0.25004,0.37478
-13.4583,0,0,18.4583,18.4583,5,5,24.4697,-0.0249116,-20.3566,-0.0307432,-0.129197,-0.115331,4.655,-0.315,-0.77,-0.071614,-0.5307,-1.03798,-0.06608,0.25004,0.37478
-13.4602,0,0,18.4602,18.4602,5,5,24.4731,-0.0246114,-20.3572,0.1188,-0.0260672,-0.148429,5.5475,0.07,-0.875,0.078568,-0.427732,-1.07079,-0.06608,0.25004,0.37478
-13.457,0,0,18.457,18.457,5,5,24.4672,-0.0246979,-20.3574,0.118802,-0.0261614,-0.148386,0.28,-0.035,-0.56,0.078568,-0.427732,-1.07079,-0.06608,0.25004,0.37478
-13.3395,0,0,18.3395,18.3395,5,5,24.2537,-0.12203,-20.3385,-0.0920992,0.197721,-0.0880819,0.28,-0.035,-0.56,-0.134932,-0.20069,-1.01248,-0.06608,0.25004,0.37478
-13.2272,0,0,18.2272,18.2272,5,5,24.0495,-0.217017,-20.3193,-0.0904414,0.194467,-0.0866283,3.535,0.28,-0.6475,-0.134932,-0.20069,-1.01248,-0.06608,0.25004,0.37478
-13.3911,0,0,18.3911,18.3911,5,5,24.3474,-0.234976,-20.242,0.0207885,-0.278185,0.114842,3.1325,0.525,-0.595,-0.023546,-0.677588,-0.810446,-0.06608,0.25004,0.37478
-13.5508,0,0,18.5508,18.5508,5,5,24.6379,-0.252123,-20.1661,0.0210878,-0.273572,0.112739,2.0125,0.1925,-0.525,-0.023546,-0.677588,-0.810446,-0.06608,0.25004,0.37478
-13.5493,0,0,18.5493,18.5493,5,5,24.6351,-0.251881,-20.1661,0.305967,-0.0431635,0.218373,2.0125,0.1925,-0.525,0.262544,-0.447374,-0.705648,-0.06608,0.25004,0.37478
-13.5485,0,0,18.5485,18.5485,5,5,24.6336,-0.251523,-20.1655,0.0950621,-0.102419,-0.170379,2.765,0.42,-0.1925,0.050752,-0.506544,-1.09141,-0.06608,0.25004,0.37478
-13.5489,0,0,18.5489,18.5489,5,5,24.6344,-0.251232,-20.1648,0.095057,-0.102405,-0.170386,4.095,0.385,-0.175,0.050752,-0.506544,-1.09141,-0.07252,0.2492,0.38248
-13.5714,0,0,18.5714,18.5714,5,5,24.6753,-0.200403,-20.1619,0.0413236,-0.0748875,-0.0482233,4.095,0.385,-0.175,-0.002318,-0.479704,-0.9699,-0.07252,0.2492,0.38248
-13.5952,0,0,18.5952,18.5952,5,5,24.7186,-0.15154,-20.1592,0.0404708,-0.074199,-0.0485371,5.8275,-0.0875,-0.1225,-0.002318,-0.479704,-0.9699,-0.07252,0.2492,0.38248
-13.5974,0,0,18.5974,18.5974,5,5,24.7226,-0.15202,-20.1588,0.0210415,-0.0990499,-0.0887702,5.8275,-0.0875,-0.1225,-0.021838,-0.504592,-1.00979,-0.07252,0.2492,0.38248
-13.599,0,0,18.599,18.599,5,5,24.7255,-0.152441,-20.1581,0.0210488,-0.0990033,-0.0887917,5.25,0,-0.0175,-0.021838,-0.504592,-1.00979,-0.07252,0.2492,0.38248
-13.6066,0,0,18.6066,18.6066,5,5,24.7393,-0.166926,-20.1291,-0.00882683,-0.0225784,-0.0274186,5.25,0,-0.0175,-0.052094,-0.428464,-0.948794,-0.07252,0.2492,0.38248
-13.5857,0,0,18.5857,18.5857,5,5,24.7013,0.0349393,-20.2199,0.131975,0.0223738,0.0144193,4.655,-0.1575,-0.2625,0.092842,-0.382958,-0.907558,-0.07252,0.2492,0.38248
-13.5648,0,0,18.5648,18.5648,5,5,24.6633,0.231915,-20.3098,0.128537,0.0217688,0.0146885,4.025,0.0875,-0.28,0.092842,-0.382958,-0.907558,-0.07252,0.2492,0.38248
-13.6575,0,0,18.6575,18.6575,5,5,24.8318,0.276211,-20.2835,0.0455182,-0.113443,0.130133,4.025,0.0875,-0.28,0.010248,-0.520696,-0.79178,-0.07252,0.2492,0.38248
-13.7476,0,0,18.7476,18.7476,5,5,24.9956,0.319152,-20.2582,0.0447687,-0.110853,0.128925,3.01,-0.49,-0.525,0.010248,-0.520696,-0.79178,-0.07252,0.2492,0.38248
-13.7468,0,0,18.7468,18.7468,5,5,24.9943,0.318862,-20.2587,0.0394284,0.0605924,-0.172535,2.87,-0.1925,-0.6125,0.00488,-0.349408,-1.09092,-0.07252,0.2492,0.38248
-13.7465,0,0,18.7465,18.7465,5,5,24.9936,0.319214,-20.2586,0.0394223,0.0605822,-0.17253,3.2375,0.28,-0.49,0.00488,-0.349408,-1.09092,-0.07252,0.2492,0.38248
-13.7461,0,0,18.7461,18.7461,5,5,24.993,0.319566,-20.2585,0.116438,-0.0729126,-0.112527,3.2375,0.28,-0.49,0.082228,-0.482754,-1.03139,-0.0749,0.25214,0.3724
-13.7469,0,0,18.7469,18.7469,5,5,24.9944,0.319744,-20.2589,0.116435,-0.0728893,-0.112538,4.4275,0.0525,-0.735,0.082228,-0.482754,-1.03139,-0.0749,0.25214,0.3724
-13.7478,0,0,18.7478,18.7478,5,5,24.9959,0.319922,-20.2593,-0.00857692,-0.0644393,-0.432337,4.4275,0.0525,-0.735,-0.04331,-0.474336,-1.34871,-0.0749,0.25214,0.3724
-13.7488,0,0,18.7488,18.7488,5,5,24.9977,0.319716,-20.2596,-0.00857333,-0.0644106,-0.432351,4.62,-0.105,-0.5425,-0.04331,-0.474336,-1.34871,-0.0749,0.25214,0.3724
-13.7498,0,0,18.7498,18.7498,5,5,24.9995,0.319511,-20.2598,0.239261,0.0855898,0.263893,4.62,-0.105,-0.5425,0.20557,-0.32452,-0.657824,-0.0749,0.25214,0.3724
-13.7509,0,0,18.7509,18.7509,5,5,25.0016,0.319224,-20.2601,0.0344412,0.087576,-0.429305,4.7425,-0.1575,-0.5425,-0.000122,-0.322568,-1.34566,-0.0749,0.25214,0.3724
-13.7514,0,0,18.7514,18.7514,5,5,25.0026,0.318679,-20.2601,0.0344507,0.0875914,-0.429313,4.1475,-0.21,-0.2975,-0.000122,-0.322568,-1.34566,-0.0749,0.25214,0.3724
-13.4612,0,0,18.4612,18.4612,5,5,24.4749,0.721866,-20.5573,0.213652,0.478189,-0.0560566,4.1475,-0.21,-0.2975,0.186904,0.076006,-0.97905,-0.0749,0.25214,0.3724
-13.4604,0,0,18.4604,18.4604,5,5,24.4735,0.722088,-20.5571,-0.233177,-0.100592,0.370954,2.8,0.2275,-0.42,-0.261812,-0.502152,-0.555344,-0.0749,0.25214,0.3724
-13.4595,0,0,18.4595,18.4595,5,5,24.4719,0.722016,-20.5569,-0.233175,-0.100618,0.370965,2.695,0.07,-0.35,-0.261812,-0.502152,-0.555344,-0.0749,0.25214,0.3724
-13.4586,0,0,18.4586,18.4586,5,5,24.4702,0.721943,-20.5567,0.335379,-0.108704,-0.158193,2.695,0.07,-0.35,0.309148,-0.510204,-1.08043,-0.0749,0.25214,0.3724
-13.458,0,0,18.458,18.458,5,5,24.4691,0.721653,-20.5563,0.335384,-0.108723,-0.158185,2.94,0.0175,-0.1575,0.309148,-0.510204,-1.08043,-0.0749,0.25214,0.3724
-13.3929,0,0,18.3929,18.3929,5,5,24.3508,0.97788,-20.7066,0.147105,0.110298,0.0625629,2.94,0.0175,-0.1575,0.124562,-0.289506,-0.862174,-0.07252,0.25284,0.37548
-13.38,0,0,18.38,18.38,5,5,24.3272,1.00375,-20.7247,0.0124115,0.0514204,0.0703483,3.605,-0.0525,-0.28,-0.010248,-0.347944,-0.85461,-0.07252,0.25284,0.37548
-13.3672,0,0,18.3672,18.3672,5,5,24.3041,1.0289,-20.7426,0.0119727,0.05105,0.0705071,3.605,-0.0525,-0.28,-0.010248,-0.347944,-0.85461,-0.07252,0.25284,0.37548
-13.3729,0,0,18.3729,18.3729,5,5,24.3143,1.30355,-20.8793,0.174587,0.00293277,0.0999752,4.6025,0.3675,-0.42,0.157868,-0.396134,-0.825208,-0.07252,0.25284,0.37548
-13.3794,0,0,18.3794,18.3794,5,5,24.3262,1.57053,-21.0146,0.169929,0.00307368,0.0997833,5.2325,-0.0525,-0.385,0.157868,-0.396134,-0.825208,-0.07252,0.25284,0.37548
-13.3045,0,0,18.3045,18.3045,5,5,24.19,1.74821,-21.1395,0.104993,0.10822,-0.031123,5.2325,-0.0525,-0.385,0.09577,-0.288896,-0.955992,-0.07252,0.25284,0.37548
-13.2302,0,0,18.2302,18.2302,5,5,24.0548,1.92094,-21.264,0.10198,0.106028,-0.0302474,4.235,-0.1575,-0.525,0.09577,-0.288896,-0.955992,-0.07252,0.25284,0.37548
-13.3372,0,0,18.3372,18.3372,5,5,24.2494,1.65516,-21.0968,-0.164418,-0.151068,0.0508715,4.235,-0.1575,-0.525,-0.176412,-0.548878,-0.874252,-0.07252,0.25284,0.37548
-13.3368,0,0,18.3368,18.3368,5,5,24.2487,1.65549,-21.0966,-0.289919,-0.0539877,-0.141293,3.2375,0.28,-0.455,-0.302438,-0.451888,-1.06494,-0.07252,0.25284,0.37548
-13.3357,0,0,18.3357,18.3357,5,5,24.2466,1.6549,-21.0971,-0.289908,-0.0540209,-0.141277,2.4325,-0.3675,-0.5775,-0.302438,-0.451888,-1.06494,-0.07252,0.25284,0.37548
-13.357,0,0,18.357,18.357,5,5,24.2855,1.64899,-21.092,0.00018108,-0.015787,0.0549187,2.4325,-0.3675,-0.5775,-0.011224,-0.414312,-0.869982,-0.07252,0.25284,0.37548
-13.3783,0,0,18.3783,18.3783,5,5,24.3243,1.64306,-21.0875,0.000284512,-0.0151693,0.054643,2.8175,-0.6825,-0.84,-0.011224,-0.414312,-0.869982,-0.07252,0.25284,0.37548
-13.3808,0,0,18.3808,18.3808,5,5,24.3286,1.42461,-20.9783,-0.148126,0.0289082,0.0148692,2.8175,-0.6825,-0.84,-0.16409,-0.370392,-0.90951,-0.06762,0.2471,0.3724
-13.3807,0,0,18.3807,18.3807,5,5,24.3286,1.42478,-20.9791,0.0289975,0.0685981,0.407813,3.57,-0.035,-0.9275,0.013786,-0.330742,-0.519598,-0.06762,0.2471,0.3724
-13.3812,0,0,18.3812,18.3812,5,5,24.3295,1.42487,-20.9801,0.028996,0.0686127,0.407806,4.13,-0.1225,-0.9975,0.013786,-0.330742,-0.519598,-0.06762,0.2471,0.3724
-13.3817,0,0,18.3817,18.3817,5,5,24.3304,1.42495,-20.9811,0.102858,-0.176725,-0.0594045,4.13,-0.1225,-0.9975,0.087962,-0.57584,-0.983198,-0.06762,0.2471,0.3724
-13.3826,0,0,18.3826,18.3826,5,5,24.332,1.4248,-20.9816,0.10286,-0.1767,-0.0594159,4.4975,-0.14,-0.7,0.087962,-0.57584,-0.983198,-0.06762,0.2471,0.3724
-13.3833,0,0,18.3833,18.3833,5,5,24.3332,1.42429,-20.9823,0.00288654,0.152817,-0.300772,4.2875,-0.3675,-0.7,-0.012444,-0.246684,-1.22268,-0.06762,0.2471,0.3724
-13.3829,0,0,18.3829,18.3829,5,5,24.3325,1.4238,-20.9824,0.00289523,0.152807,-0.300767,3.2375,-0.2275,-0.4025,-0.012444,-0.246684,-1.22268,-0.06762,0.2471,0.3724
-13.3825,0,0,18.3825,18.3825,5,5,24.3319,1.4233,-20.9825,-0.113844,0.036532,-0.151011,3.2375,-0.2275,-0.4025,-0.129686,-0.362828,-1.07409,-0.06762,0.2471,0.3724
-13.3817,0,0,18.3817,18.3817,5,5,24.3304,1.4231,-20.9823,-0.11384,0.0365084,-0.151,2.765,0.0175,-0.28,-0.129686,-0.362828,-1.07409,-0.06762,0.2471,0.3724
-13.3809,0,0,18.3809,18.3809,5,5,24.3289,1.42289,-20.982,-0.235444,0.00143444,0.217118,2.765,0.0175,-0.28,-0.251808,-0.397842,-0.70882,-0.06762,0.2471,0.3724
-13.3797,0,0,18.3797,18.3797,5,5,24.3267,1.42219,-20.9821,-0.235432,0.00139944,0.217134,2.3625,-0.315,-0.2975,-0.251808,-0.397842,-0.70882,-0.06762,0.2471,0.3724
-13.4699,0,0,18.4699,18.4699,5,5,24.4908,1.52129,-20.9952,0.0980183,-0.193002,0.0253406,2.3625,-0.315,-0.2975,0.08479,-0.594628,-0.89792,-0.06762,0.2471,0.3724
-13.5593,0,0,18.5593,18.5593,5,5,24.6533,1.61976,-21.0032,0.0963003,-0.190444,0.024119,3.115,0.035,-0.21,0.08479,-0.594628,-0.89792,-0.07266,0.24738,0.3759
-13.5469,0,0,18.5469,18.5469,5,5,24.6308,1.86208,-21.1247,0.172497,-0.0176784,-0.0182515,3.78,0.0525,-0.4375,0.165554,-0.421632,-0.94001,-0.07266,0.24738,0.3759
-13.5353,0,0,18.5353,18.5353,5,5,24.6097,2.09879,-21.2449,0.168368,-0.0180726,-0.0182279,3.9725,0.4025,-0.595,0.165554,-0.421632,-0.94001,-0.07266,0.24738,0.3759
-13.5361,0,0,18.5361,18.5361,5,5,24.6111,2.09935,-21.2449,0.122679,-0.176571,-0.0186073,4.3925,0.3675,-0.595,0.119682,-0.579988,-0.940376,-0.07266,0.24738,0.3759
-13.5366,0,0,18.5366,18.5366,5,5,24.612,2.09989,-21.2446,0.12267,-0.176557,-0.0186139,4.0775,0.42,-0.4375,0.119682,-0.579988,-0.940376,-0.07266,0.24738,0.3759
-13.4189,0,0,18.4189,18.4189,5,5,24.398,1.97985,-21.2334,-0.112255,0.21015,-0.0815459,4.0775,0.42,-0.4375,-0.11834,-0.19032,-1.00443,-0.07266,0.24738,0.3759
-13.3028,0,0,18.3028,18.3028,5,5,24.1869,1.86147,-21.2217,-0.11019,0.206823,-0.0799681,3.7625,0.105,-0.35,-0.11834,-0.19032,-1.00443,-0.07266,0.24738,0.3759
-13.2403,0,0,18.2403,18.2403,5,5,24.0732,2.24473,-21.4395,0.252077,0.0730182,0.011114,3.7625,0.105,-0.35,0.252174,-0.32208,-0.914634,-0.07266,0.24738,0.3759
-13.1789,0,0,18.1789,18.1789,5,5,23.9616,2.61718,-21.6563,0.245583,0.0711286,0.0116541,3.4475,-0.49,-0.42,0.252174,-0.32208,-0.914634,-0.07266,0.24738,0.3759
-13.1262,0,0,18.1262,18.1262,5,5,23.8658,2.44083,-21.5977,-0.133415,0.113379,-0.0185279,3.4475,-0.49,-0.42,-0.131516,-0.278404,-0.945378,-0.07266,0.24738,0.3759
-13.0735,0,0,18.0735,18.0735,5,5,23.7699,2.26802,-21.5392,-0.130401,0.111898,-0.0177389,2.6775,-0.7175,-0.3675,-0.131516,-0.278404,-0.945378,-0.07266,0.24738,0.3759
