pid_x,pid_y,pid_z,front_left_speed,front_right_speed,back_left_speed,back_right_speed,orientation_x,orientation_y,orientation_z,acceleration_x,acceleration_y,acceleration_z,accel_rejected,mag_rejected,gyro_x,gyro_y,gyro_z,accel_x,accel_y,accel_z,mag_x,mag_y,mag_z
0.276841,0,0,9.72316,9.72316,10.2768,10.2768,-0.461401,-0.106858,0.337961,0.0582783,0.394288,0.0870753,0,0,3.78,-0.1575,-0.28,0.016348,0.414068,-0.926224,-0.05418,-0.12432,0.49266
0.55022,0,0,9.44978,9.44978,10.5502,10.5502,-0.917034,-0.202938,0.67279,0.065665,0.384138,0.0974257,0,0,3.9025,-0.0875,-0.3675,0.022082,0.411872,-0.915854,-0.05418,-0.12432,0.49266
0.819226,0,0,9.18077,9.18077,10.8192,10.8192,-1.36538,-0.29824,1.01498,0.0648986,0.378024,0.0928364,0,0,3.64,-0.035,-0.245,0.019642,0.41358,-0.920246,-0.05418,-0.12432,0.49266
1.08389,0,0,8.91611,8.91611,11.0839,11.0839,-1.80648,-0.389834,1.36139,0.0664972,0.370329,0.0926138,0,0,3.535,-0.0875,-0.21,0.019642,0.41358,-0.920246,-0.05418,-0.12432,0.49266
1.34255,0,0,8.65745,8.65745,11.3425,11.3425,-2.23758,-0.47935,1.71465,0.0657513,0.362077,0.0880333,0,0,3.57,0.07,-0.315,0.017324,0.412848,-0.924516,-0.05418,-0.12432,0.49266
1.59604,0,0,8.40396,8.40396,11.596,11.596,-2.66007,-0.562183,2.06984,0.0691407,0.353368,0.0875821,0,0,3.535,0.175,-0.315,0.019276,0.411506,-0.924638,-0.05418,-0.12432,0.49266
1.8451,0,0,8.1549,8.1549,11.8451,11.8451,-3.07516,-0.639106,2.42205,0.0704832,0.346133,0.0872057,0,0,3.64,0.1925,-0.42,0.019276,0.411506,-0.924638,-0.05264,-0.12124,0.49784
2.09135,0,0,7.90865,7.90865,12.0913,12.0913,-3.48558,-0.712348,2.77638,0.0730977,0.340205,0.0891168,0,0,3.5525,-0.1225,-0.315,0.020618,0.412726,-0.92232,-0.05264,-0.12124,0.49784
2.33341,0,0,7.66659,7.66659,12.3334,12.3334,-3.88902,-0.783319,3.1357,0.0731215,0.333302,0.088156,0,0,3.5175,0.035,-0.2975,0.019398,0.412848,-0.922808,-0.05264,-0.12124,0.49784
2.57124,0,0,7.42876,7.42876,12.5712,12.5712,-4.2854,-0.851219,3.49864,0.0743064,0.326403,0.0876461,0,0,3.6575,-0.105,-0.2975,0.019398,0.412848,-0.922808,-0.05264,-0.12124,0.49784
2.80366,0,0,7.19634,7.19634,12.8037,12.8037,-4.67277,-0.92112,3.87127,0.0701809,0.319054,0.083288,0,0,3.675,-0.1225,-0.245,0.01403,0.412238,-0.92659,-0.05264,-0.12124,0.49784
3.03151,0,0,6.96849,6.96849,13.0315,13.0315,-5.05252,-0.980876,4.24096,0.077055,0.310254,0.0857827,0,0,3.675,-0.1925,-0.1925,0.019886,0.410042,-0.92354,-0.05264,-0.12124,0.49784
3.25547,0,0,6.74453,6.74453,13.2555,13.2555,-5.42578,-1.03751,4.61378,0.0780434,0.30377,0.0851706,0,0,3.6925,-0.1575,-0.3325,0.019886,0.410042,-0.92354,-0.05264,-0.12124,0.49784
3.47638,0,0,6.52362,6.52362,13.4764,13.4764,-5.79396,-1.09188,4.99414,0.0797211,0.298598,0.0841561,0,0,3.57,0.07,-0.21,0.020618,0.411262,-0.923906,-0.05348,-0.12348,0.49364
3.69484,0,0,6.30516,6.30516,13.6948,13.6948,-6.15806,-1.14579,5.37907,0.0792038,0.295212,0.0827387,0,0,3.8325,0.1925,-0.3675,0.019154,0.41419,-0.924638,-0.05348,-0.12348,0.49364
3.90724,0,0,6.09276,6.09276,13.9072,13.9072,-6.51206,-1.19445,5.7666,0.080782,0.285533,0.081671,0,0,3.8325,0.14,-0.2625,0.019886,0.410652,-0.925004,-0.05348,-0.12348,0.49364
4.11609,0,0,5.88391,5.88391,14.1161,14.1161,-6.86015,-1.24071,6.15744,0.0815892,0.279503,0.0809468,0,0,3.7625,-0.14,-0.21,0.019886,0.410652,-0.925004,-0.05348,-0.12348,0.49364
4.32157,0,0,5.67843,5.67843,14.3216,14.3216,-7.20262,-1.28366,6.55017,0.0833104,0.27394,0.079953,0,0,3.6575,-0.3675,-0.315,0.020862,0.411018,-0.925248,-0.05348,-0.12348,0.49364
4.52528,0,0,5.47472,5.47472,14.5253,14.5253,-7.54213,-1.32137,6.94231,0.0868841,0.267456,0.0872926,0,0,3.71,-0.315,-0.2975,0.02379,0.410408,-0.917196,-0.05348,-0.12348,0.49364
4.72542,0,0,5.27458,5.27458,14.7254,14.7254,-7.87571,-1.35647,7.33747,0.0874965,0.261691,0.0864977,0,0,3.7625,-0.3325,-0.2975,0.02379,0.410408,-0.917196,-0.05348,-0.12348,0.49364
4.92267,0,0,5.07733,5.07733,14.9227,14.9227,-8.20444,-1.39115,7.73781,0.0864008,0.258822,0.0803943,0,0,3.5,-0.2275,-0.245,0.022082,0.413214,-0.922442,-0.05348,-0.12348,0.49364
5.10179,0,0,5,5,15.1018,15.1018,-8.50298,-1.29609,7.7447,0.0829199,0.249877,0.0738974,0,1,3.675,0.07,-0.315,0.020252,0.409432,-0.928176,-0.05068,-0.12264,0.50442
5.28123,0,0,5,5,15.2812,15.2812,-8.80205,-1.20589,7.75133,0.0785518,0.248987,0.0775724,0,1,3.6225,0.0525,-0.1925,0.017446,0.413702,-0.923784,-0.05068,-0.12264,0.50442
5.45721,0,0,5,5,15.4572,15.4572,-9.09535,-1.11739,7.75738,0.0770076,0.243926,0.0768073,0,1,3.6225,0.0525,-0.1925,0.017446,0.413702,-0.923784,-0.05068,-0.12264,0.50442
5.62831,0,0,5,5,15.6283,15.6283,-9.38051,-1.03016,7.76275,0.0763356,0.238888,0.0701351,0,1,3.395,-0.035,-0.245,0.0183,0.41358,-0.92964,-0.05068,-0.12264,0.50442
5.79526,0,0,5,5,15.7953,15.7953,-9.65877,-0.943758,7.76743,0.0750709,0.229332,0.0768575,0,1,3.29,-0.035,-0.3325,0.018544,0.408822,-0.922198,-0.05068,-0.12264,0.50442
5.95894,0,0,5,5,15.9589,15.9589,-9.93157,-0.85941,7.77179,0.0735989,0.224637,0.0760704,0,1,3.3075,-0.28,-0.2625,0.018544,0.408822,-0.922198,-0.05068,-0.12264,0.50442
6.11946,0,0,5,5,16.1195,16.1195,-10.1991,-0.776606,7.77579,0.0726398,0.223089,0.0683896,0,1,3.2725,-0.2625,-0.1925,0.019032,0.411872,-0.92903,-0.05068,-0.12264,0.50442
6.28518,0,0,5,5,16.2852,16.2852,-10.4753,-0.806779,8.18246,0.0717086,0.218471,0.0654274,0,0,3.5875,0.0525,-0.2275,0.017568,0.411994,-0.931104,-0.04956,-0.12474,0.49896
6.45017,0,0,5,5,16.4502,16.4502,-10.7503,-0.834892,8.59072,0.0729281,0.213145,0.0741266,0,0,3.6925,0.07,-0.2275,0.0183,0.411384,-0.921588,-0.04956,-0.12474,0.49896
6.61236,0,0,5,5,16.6124,16.6124,-11.0206,-0.860981,9.00185,0.0733834,0.208514,0.0732292,0,0,3.6225,-0.0175,-0.1925,0.0183,0.411384,-0.921588,-0.04956,-0.12474,0.49896
6.77043,0,0,5,5,16.7704,16.7704,-11.2841,-0.885638,9.41671,0.0727203,0.20437,0.0672926,0,0,3.6575,-0.035,-0.3325,0.017202,0.41175,-0.92659,-0.04956,-0.12474,0.49896
6.92519,0,0,5,5,16.9252,16.9252,-11.542,-0.909639,9.83603,0.0715599,0.201058,0.0624611,0,0,3.7625,0.0175,-0.3325,0.015616,0.412848,-0.930494,-0.04956,-0.12474,0.49896
7.07765,0,0,5,5,17.0776,17.0776,-11.7961,-0.93151,10.2582,0.0719415,0.196717,0.0615582,0,0,3.3775,0.0525,-0.2275,0.015616,0.412848,-0.930494,-0.04956,-0.12474,0.49896
7.24401,0,0,5,5,17.244,17.244,-12.0733,-0.986165,10.7115,0.0487197,0.233998,0.027223,0,0,3.4475,-0.1225,-0.3675,-0.008662,0.454816,-0.963556,-0.04956,-0.12474,0.49896
7.40733,0,0,5,5,17.4073,17.4073,-12.3455,-1.03699,11.1629,0.0496066,0.229359,0.0262031,0,0,3.4475,-0.1225,-0.3675,-0.008662,0.454816,-0.963556,-0.05194,-0.12208,0.50176
7.5465,0,0,5,5,17.5465,17.5465,-12.5775,-1.02217,11.5576,0.107418,0.203301,-0.00355868,0,0,3.745,-0.385,-0.42,0.049654,0.432734,-0.992226,-0.05194,-0.12208,0.50176
7.72292,0,0,5,5,17.7229,17.7229,-12.8715,-1.04925,11.9848,0.0798275,0.220036,0.0840716,0,0,3.1675,-0.035,-0.07,0.021472,0.45445,-0.904142,-0.05194,-0.12208,0.50176
7.89577,0,0,5,5,17.8958,17.8958,-13.1596,-1.07353,12.4155,0.0802512,0.21514,0.0829318,0,0,3.6225,0.245,0.175,0.021472,0.45445,-0.904142,-0.05194,-0.12208,0.50176
8.07495,0,0,5,5,18.075,18.075,-13.4583,-0.830219,12.5305,0.404745,0.248522,0.047744,0,0,3.3775,0.105,-0.0525,0.351604,0.49288,-0.937936,-0.05194,-0.12208,0.50176
8.07519,0,0,5,5,18.0752,18.0752,-13.4587,-0.829965,12.5308,0.404741,0.248515,0.0477424,1,0,3.3775,0.105,-0.0525,0.351604,0.49288,-0.937936,-0.05194,-0.12208,0.50176
8.07458,0,0,5,5,18.0746,18.0746,-13.4576,-0.830562,12.5314,0.153398,0.213971,-0.17061,1,0,4.1825,-0.42,0,0.099186,0.458354,-1.15461,-0.05194,-0.12208,0.50176
8.2333,0,0,5,5,18.2333,18.2333,-13.7222,-1.02178,13.1441,-0.0908534,0.158447,0.170173,0,0,3.64,-0.56,0.0875,-0.14945,0.407358,-0.815326,-0.05194,-0.12208,0.50176
8.37808,0,0,5,5,18.3781,18.3781,-13.9635,-1.13858,13.1493,-0.0888152,0.154368,0.169128,0,1,4.27,-0.4375,0,-0.14945,0.407358,-0.815326,-0.04872,-0.11144,0.51282
8.65249,0,0,5,5,18.6525,18.6525,-14.4208,-1.10987,13.158,0.0259737,0.338856,0.216114,0,1,3.6575,0.35,-0.35,-0.033672,0.599386,-0.76677,-0.04872,-0.11144,0.51282
8.84539,0,0,5,5,18.8454,18.8454,-14.7423,-1.34691,13.165,-0.192938,0.22439,0.185723,0,1,3.29,0.35,-0.07,-0.257664,0.49044,-0.79544,-0.04872,-0.11144,0.51282
9.03467,0,0,5,5,19.0347,19.0347,-15.0578,-1.58014,13.1733,-0.188869,0.219098,0.184207,0,1,3.3425,-0.0175,-0.14,-0.257664,0.49044,-0.79544,-0.04872,-0.11144,0.51282
9.21687,0,0,5,5,19.2169,19.2169,-15.3615,-1.42117,13.1811,0.156536,0.318506,-0.0123548,0,1,3.395,0.28,-0.28,0.091988,0.594872,-0.989176,-0.04872,-0.11144,0.51282
9.21675,0,0,5,5,19.2167,19.2167,-15.3612,-1.42163,13.1808,0.122892,0.151074,-0.185834,1,1,3.71,-0.21,-0.49,0.058194,0.42761,-1.16132,-0.04872,-0.11144,0.51282
9.2168,0,0,5,5,19.2168,19.2168,-15.3613,-1.42314,13.1795,0.122919,0.151073,-0.185835,1,1,3.535,-0.6475,-1.2425,0.058194,0.42761,-1.16132,-0.04872,-0.11144,0.51282
9.28279,0,0,5,5,19.2828,19.2828,-15.4713,-1.22507,13.1808,0.170851,0.0810549,0.0617186,0,1,3.815,0.0175,-0.9975,0.1098,0.359534,-0.915244,-0.04788,-0.10906,0.52024
9.34998,0,0,5,5,19.35,19.35,-15.5833,-1.06024,13.181,0.160929,0.129717,-0.0766974,0,1,0.3325,-0.1225,-1.4175,0.102724,0.410042,-1.05213,-0.04788,-0.10906,0.52024
9.34979,0,0,5,5,19.3498,19.3498,-15.583,-1.06023,13.1793,-0.20608,0.304975,0.364443,1,1,3.7625,0.28,-1.225,-0.265838,0.585112,-0.614392,-0.04788,-0.10906,0.52024
9.34941,0,0,5,5,19.3494,19.3494,-15.5823,-1.06017,13.178,-0.206081,0.304985,0.364446,1,1,3.9375,0.245,-0.9975,-0.265838,0.585112,-0.614392,-0.04788,-0.10906,0.52024
9.5086,0,0,5,5,19.5086,19.5086,-15.8477,-0.983729,13.1819,0.0655637,0.19647,0.12531,0,1,3.29,0.175,-0.7175,0.008296,0.481168,-0.850462,-0.04788,-0.10906,0.52024
9.66904,0,0,5,5,19.669,19.669,-16.1151,-1.38682,13.187,-0.432783,0.298763,-0.00816144,0,1,2.975,-0.28,-0.56,-0.499224,0.587796,-0.98149,-0.04788,-0.10906,0.52024
9.66887,0,0,5,5,19.6689,19.6689,-16.1148,-1.38812,13.1864,-0.43276,0.298768,-0.00816064,1,1,3.745,-0.63,-0.805,-0.499224,0.587796,-0.98149,-0.04788,-0.10906,0.52024
9.8001,0,0,5,5,19.8001,19.8001,-16.3335,-1.23602,13.1912,0.135083,0.178456,0.0750513,0,1,3.3425,-0.2625,-0.455,0.073688,0.471286,-0.89792,-0.04788,-0.10906,0.52024
9.92851,0,0,5,5,19.9285,19.9285,-16.5475,-1.08786,13.1945,0.132497,0.174859,0.0740445,0,1,3.57,-0.6825,-1.12,0.073688,0.471286,-0.89792,-0.04452,-0.10626,0.52808
9.92904,0,0,5,5,19.929,19.929,-16.5484,-1.08858,13.1932,0.0851302,0.697302,0.26252,1,1,3.0975,-0.1925,-1.0675,0.026108,0.993202,-0.710894,-0.04452,-0.10626,0.52808
9.92789,0,0,5,5,19.9279,19.9279,-16.5465,-1.08639,13.1922,0.0850921,0.697334,0.26253,1,1,4.655,1.4,-0.4725,0.026108,0.993202,-0.710894,-0.04452,-0.10626,0.52808
9.9259,0,0,5,5,19.9259,19.9259,-16.5432,-1.08418,13.1907,1.12169,0.258099,0.393856,1,1,5.4425,1.505,-0.77,1.06713,0.554368,-0.580598,-0.04452,-0.10626,0.52808
9.92572,0,0,5,5,19.9257,19.9257,-16.5429,-1.0818,13.1884,1.12165,0.258104,0.393859,1,1,3.745,1.715,-1.12,1.06713,0.554368,-0.580598,-0.04452,-0.10626,0.52808
9.92486,0,0,5,5,19.9249,19.9249,-16.5414,-1.07967,13.1874,0.254569,0.0854409,0.638165,1,1,4.3925,1.365,-0.4725,0.19642,0.38186,-0.338184,-0.04452,-0.10626,0.52808
9.92546,0,0,5,5,19.9255,19.9255,-16.5424,-1.0795,13.1879,0.254566,0.0854242,0.63816,1,1,3.045,0.0175,0.035,0.19642,0.38186,-0.338184,-0.04452,-0.10626,0.52808
9.92727,0,0,5,5,19.9273,19.9273,-16.5454,-1.08028,13.1889,-0.273033,0.3499,-0.141963,1,1,1.925,-0.6125,0.21,-0.333426,0.646112,-1.11227,-0.04452,-0.10626,0.52808
9.92912,0,0,5,5,19.9291,19.9291,-16.5485,-1.08187,13.189,-0.273005,0.349849,-0.141979,1,1,1.8725,-0.91,-0.4725,-0.333426,0.646112,-1.11227,-0.04732,-0.09688,0.5362
9.9308,0,0,5,5,19.9308,19.9308,-16.5513,-1.08114,13.1891,0.0693287,0.518581,-0.0962559,1,1,2.03,0.4025,-0.0875,0.01037,0.814716,-1.06689,-0.04732,-0.09688,0.5362
9.93108,0,0,5,5,19.9311,19.9311,-16.5518,-1.08192,13.1915,0.0693425,0.518573,-0.0962585,1,1,3.36,-0.84,0.945,0.01037,0.814716,-1.06689,-0.04732,-0.09688,0.5362
9.93007,0,0,5,5,19.9301,19.9301,-16.5501,-1.08364,13.1938,0.642056,-0.193764,-0.191167,1,1,4.5675,-1.3475,0.7525,0.585478,0.10309,-1.16107,-0.04732,-0.09688,0.5362
9.92873,0,0,5,5,19.9287,19.9287,-16.5479,-1.08136,13.1953,0.642016,-0.193726,-0.191155,1,1,4.865,1.0325,0.945,0.585478,0.10309,-1.16107,-0.04732,-0.09688,0.5362
9.92731,0,0,5,5,19.9273,19.9273,-16.5455,-1.07766,13.1977,0.00463772,-0.25988,0.357577,1,1,4.9525,1.68,1.6975,-0.054534,0.036966,-0.616588,-0.04732,-0.09688,0.5362
9.92626,0,0,5,5,19.9263,19.9263,-16.5438,-1.07504,13.2017,0.00459202,-0.259851,0.357586,1,1,4.62,0.805,2.415,-0.054534,0.036966,-0.616588,-0.04732,-0.09688,0.5362
10.0415,0,0,5,5,20.0415,20.0415,-16.7358,-1.18462,13.21,-0.0993099,0.160729,0.0602848,0,1,3.4825,0.245,2.5725,-0.160796,0.460306,-0.910608,-0.04732,-0.09688,0.5362
10.1544,0,0,5,5,20.1544,20.1544,-16.924,-1.29488,13.2199,-0.097386,0.157597,0.0592941,0,1,3.57,-1.5575,2.8,-0.160796,0.460306,-0.910608,-0.04592,-0.0917,0.53648
10.2873,0,0,5,5,20.2873,20.2873,-17.1455,-1.03158,13.2288,0.253365,0.213473,0.0286206,0,1,3.6925,-1.575,1.925,0.196054,0.519842,-0.94001,-0.04592,-0.0917,0.53648
10.4182,0,0,5,5,20.4182,20.4182,-17.3637,-0.773115,13.2351,0.248855,0.209816,0.027559,0,1,3.1675,-1.295,1.1375,0.196054,0.519842,-0.94001,-0.04592,-0.0917,0.53648
10.4177,0,0,5,5,20.4177,20.4177,-17.3628,-0.77505,13.2374,-0.00659598,0.160492,-0.32284,1,1,4.13,-1.4875,0.7,-0.060512,0.470554,-1.28771,-0.04592,-0.0917,0.53648
10.4172,0,0,5,5,20.4172,20.4172,-17.3619,-0.777348,13.2383,-0.00655588,0.160506,-0.322836,1,1,4.0775,-1.435,-0.175,-0.060512,0.470554,-1.28771,-0.04592,-0.0917,0.53648
10.4001,0,0,5,5,20.4001,20.4001,-17.3336,-0.685401,13.2379,0.0754216,-0.0499403,0.0911759,0,1,5.075,-0.5425,-0.49,0.023424,0.25986,-0.877058,-0.04592,-0.0917,0.53648
10.3826,0,0,5,5,20.3826,20.3826,-17.3044,-0.594893,13.2351,0.0738421,-0.0494591,0.0913444,0,1,5.8275,0.07,-1.75,0.023424,0.25986,-0.877058,-0.04592,-0.0917,0.53648
10.3814,0,0,5,5,20.3814,20.3814,-17.3023,-0.594649,13.2319,0.0652123,-0.0254872,0.174346,1,1,4.76,0.7,-2.0125,0.014762,0.283772,-0.794708,-0.04592,-0.0917,0.53648
10.3802,0,0,5,5,20.3802,20.3802,-17.3003,-0.593423,13.2277,0.0651909,-0.0254541,0.174356,1,1,4.69,1.4175,-2.38,0.014762,0.283772,-0.794708,-0.04984,-0.09352,0.54502
10.5831,0,0,5,5,20.5831,20.5831,-17.6384,-0.342245,13.2259,0.213515,0.237707,0.194503,0,1,2.695,0.9625,-2.765,0.168116,0.552294,-0.772992,-0.04984,-0.09352,0.54502
10.7832,0,0,5,5,20.7832,20.7832,-17.972,-0.0956169,13.2214,0.20921,0.232158,0.192739,0,1,1.82,1.19,-3.43,0.168116,0.552294,-0.772992,-0.04984,-0.09352,0.54502
10.7847,0,0,5,5,20.7847,20.7847,-17.9745,-0.0960147,13.2153,0.301546,0.116951,-0.13567,1,1,2.17,0.875,-3.6925,0.260836,0.437248,-1.09885,-0.04984,-0.09352,0.54502
10.7879,0,0,5,5,20.7879,20.7879,-17.9798,-0.0996724,13.2105,0.30161,0.116863,-0.135699,1,1,0.63,-1.1725,-3.57,0.260836,0.437248,-1.09885,-0.04984,-0.09352,0.54502
10.7887,0,0,5,5,20.7887,20.7887,-17.9812,-0.102853,13.2064,-0.292278,0.118061,-0.391931,1,1,2.8,-1.0325,-3.0975,-0.335622,0.438468,-1.3531,-0.04984,-0.09352,0.54502
10.7881,0,0,5,5,20.7881,20.7881,-17.9802,-0.104685,13.2027,-0.292246,0.118078,-0.391926,1,1,4.165,-0.35,-2.6425,-0.335622,0.438468,-1.3531,-0.04984,-0.09352,0.54502
10.7875,0,0,5,5,20.7875,20.7875,-17.9792,-0.1057,13.1998,0.47216,-0.199068,-0.0737295,1,1,4.1825,-0.035,-2.065,0.432002,0.121634,-1.03737,-0.04984,-0.09352,0.54502
10.7853,0,0,5,5,20.7853,20.7853,-17.9754,-0.104812,13.1992,0.472144,-0.199006,-0.0737093,1,1,5.705,0.6125,-0.455,0.432002,0.121634,-1.03737,-0.04984,-0.09352,0.54502
10.7841,0,0,5,5,20.7841,20.7841,-17.9735,-0.102838,13.2001,0.0256499,0.121976,0.426456,1,1,4.7075,0.945,0.5775,-0.016348,0.44225,-0.54107,-0.04774,-0.0917,0.5509
10.7832,0,0,5,5,20.7832,20.7832,-17.972,-0.0998407,13.2032,0.0255976,0.121999,0.426464,1,1,4.3925,1.1025,2.03,-0.016348,0.44225,-0.54107,-0.04774,-0.0917,0.5509
11.1436,0,0,5,5,21.1436,21.1436,-18.5727,0.2822,13.2064,0.326289,0.409671,0.409151,0,1,3.6575,0.6825,2.52,0.292312,0.739564,-0.554978,-0.04774,-0.0917,0.5509
11.4989,0,0,5,5,21.4989,21.4989,-19.1648,0.657327,13.207,0.319742,0.39991,0.405758,0,1,3.3775,-0.2275,3.0275,0.292312,0.739564,-0.554978,-0.04774,-0.0917,0.5509
11.4992,0,0,5,5,21.4992,21.4992,-19.1653,0.656999,13.2137,0.380733,0.279118,-0.0819818,1,1,3.255,-1.4525,3.325,0.353556,0.618906,-1.03895,-0.04774,-0.0917,0.5509
11.4994,0,0,5,5,21.4994,21.4994,-19.1656,0.655911,13.2207,0.380752,0.279113,-0.0819832,1,1,3.395,-1.96,3.43,0.353556,0.618906,-1.03895,-0.04774,-0.0917,0.5509
11.4987,0,0,5,5,21.4987,21.4987,-19.1646,0.655501,13.2276,-0.309401,0.234798,-0.277957,1,1,4.13,-1.54,3.43,-0.339526,0.57462,-1.23342,-0.04774,-0.0917,0.5509
11.4967,0,0,5,5,21.4967,21.4967,-19.1612,0.656255,13.2339,-0.309414,0.234854,-0.277938,1,1,5.46,-0.805,3.395,-0.339526,0.57462,-1.23342,-0.04774,-0.0917,0.5509
11.4934,0,0,5,5,21.4934,21.4934,-19.1556,0.655869,13.2398,-0.27199,0.0767912,-0.203768,1,1,6.6675,-1.3475,2.9225,-0.30195,0.41663,-1.15985,-0.0469,-0.08624,0.55482
11.4907,0,0,5,5,21.4907,21.4907,-19.1512,0.657599,13.245,0.418505,0.124128,0.538005,1,1,6.055,-0.035,2.9225,0.391498,0.463844,-0.423828,-0.0469,-0.08624,0.55482
11.4887,0,0,5,5,21.4887,21.4887,-19.1478,0.659085,13.2469,0.418479,0.124184,0.538024,1,1,5.495,0.455,1.085,0.391498,0.463844,-0.423828,-0.0469,-0.08624,0.55482
11.4883,0,0,5,5,21.4883,21.4883,-19.1471,0.66146,13.2475,0.154692,0.320819,0.427251,1,1,3.9725,1.2075,0.5075,0.126636,0.660264,-0.53375,-0.0469,-0.08624,0.55482
11.49,0,0,5,5,21.49,21.49,-19.15,0.662197,13.2464,0.154679,0.320772,0.427235,1,1,2.0125,0.6125,-0.7,0.126636,0.660264,-0.53375,-0.0469,-0.08624,0.55482
11.5893,0,0,5,5,21.5893,21.5893,-19.3155,0.84694,13.2425,0.170164,0.141342,0.0470702,0,1,1.435,0.5075,-1.225,0.145424,0.48373,-0.909998,-0.0469,-0.08624,0.55482
11.6872,0,0,5,5,21.6872,21.6872,-19.4786,1.02657,13.2369,0.167029,0.138673,0.0460762,0,1,1.015,-0.1575,-2.17,0.145424,0.48373,-0.909998,-0.0469,-0.08624,0.55482
11.6897,0,0,5,5,21.6897,21.6897,-19.4828,1.02398,13.2341,0.157112,-0.0765822,-0.42361,1,1,1.3125,-0.875,-2.31,0.13542,0.268766,-1.37604,-0.0469,-0.08624,0.55482
11.6894,0,0,5,5,21.6894,21.6894,-19.4823,1.02077,13.2305,0.157168,-0.0765757,-0.423607,1,1,3.8675,-1.0675,-2.87,0.13542,0.268766,-1.37604,-0.0441,-0.08876,0.5516
11.6881,0,0,5,5,21.6881,21.6881,-19.4801,1.01692,13.2264,0.00440667,0.225358,-0.122861,1,1,4.9,-1.33,-3.255,-0.018056,0.57035,-1.07763,-0.0441,-0.08876,0.5516
11.6854,0,0,5,5,21.6854,21.6854,-19.4757,1.01595,13.2217,0.00442351,0.22543,-0.122835,1,1,6.1075,0.385,-3.0275,-0.018056,0.57035,-1.07763,-0.0441,-0.08876,0.5516
11.6827,0,0,5,5,21.6827,21.6827,-19.4711,1.01551,13.2171,0.268784,-0.0579501,0.280094,1,1,6.23,0.6475,-2.8525,0.247416,0.287188,-0.677832,-0.0441,-0.08876,0.5516
11.6818,0,0,5,5,21.6818,21.6818,-19.4697,1.0166,13.212,0.268765,-0.0579267,0.280102,1,1,4.445,1.61,-2.8875,0.247416,0.287188,-0.677832,-0.0441,-0.08876,0.5516
11.6821,0,0,5,5,21.6821,21.6821,-19.4702,1.01791,13.2075,0.164386,0.158595,0.331122,1,1,3.325,1.61,-2.485,0.142618,0.503494,-0.627202,-0.0441,-0.08876,0.5516
11.6838,0,0,5,5,21.6838,21.6838,-19.4729,1.01898,13.2035,0.164367,0.158551,0.331106,1,1,2.135,1.365,-2.2225,0.142618,0.503494,-0.627202,-0.0441,-0.08876,0.5516
11.6851,0,0,5,5,21.6851,21.6851,-19.4752,1.02007,13.2008,0.122193,-0.055209,-0.251069,1,1,2.3275,1.1375,-1.5575,0.100284,0.289994,-1.20487,-0.0441,-0.08876,0.5516
11.6874,0,0,5,5,21.6874,21.6874,-19.479,1.02041,13.2004,0.122187,-0.0552716,-0.251091,1,1,1.47,0.2625,-0.4025,0.100284,0.289994,-1.20487,-0.0483,-0.0889,0.5446
11.6888,0,0,5,5,21.6888,21.6888,-19.4813,1.01889,13.2009,0.237382,-0.104648,-0.254915,1,1,2.345,-0.945,-0.245,0.21594,0.240706,-1.20865,-0.0483,-0.0889,0.5446
11.6884,0,0,5,5,21.6884,21.6884,-19.4807,1.01741,13.2019,0.237408,-0.104639,-0.254911,1,1,3.9025,-0.9975,-0.035,0.21594,0.240706,-1.20865,-0.0483,-0.0889,0.5446
11.6882,0,0,5,5,21.6882,21.6882,-19.4804,1.01529,13.2034,0.0819429,-0.226638,0.0894702,1,1,3.78,-1.47,0.175,0.05978,0.118828,-0.866932,-0.0483,-0.0889,0.5446
11.6868,0,0,5,5,21.6868,21.6868,-19.4781,1.01404,13.2058,0.0819647,-0.2266,0.0894839,1,1,4.865,-1.155,0.805,0.05978,0.118828,-0.866932,-0.0483,-0.0889,0.5446
11.8773,0,0,5,5,21.8773,21.8773,-19.7956,0.711879,13.2036,-0.256688,0.206834,0.221957,0,1,4.9875,-0.385,1.2075,-0.285602,0.557052,-0.733708,-0.0483,-0.0889,0.5446
12.0646,0,0,5,5,22.0646,22.0646,-20.1077,0.416008,13.2034,-0.251524,0.201696,0.220145,0,1,4.795,0.07,1.5925,-0.285602,0.557052,-0.733708,-0.0483,-0.0889,0.5446
12.0637,0,0,5,5,22.0637,22.0637,-20.1062,0.416885,13.2066,0.196135,0.244954,-0.0103741,1,1,4.445,-0.1575,1.6625,0.163968,0.60024,-0.962458,-0.0483,-0.0889,0.5446
12.063,0,0,5,5,22.063,22.063,-20.105,0.419466,13.2102,0.19609,0.244973,-0.0103673,1,1,4.2525,0.7,2.2225,0.163968,0.60024,-0.962458,-0.04774,-0.0833,0.5558
12.0617,0,0,5,5,22.0617,22.0617,-20.1028,0.421646,13.2136,0.305025,-0.0660477,-0.325594,1,1,4.8125,0.5075,2.065,0.273402,0.289506,-1.27527,-0.04774,-0.0833,0.5558
12.062,0,0,5,5,22.062,22.062,-20.1033,0.421988,13.2167,0.305019,-0.0660559,-0.325597,1,1,3.3075,-0.42,1.47,0.273402,0.289506,-1.27527,-0.04774,-0.0833,0.5558
12.0625,0,0,5,5,22.0625,22.0625,-20.1041,0.422333,13.2188,0.104197,-0.0851205,-0.131589,1,1,3.15,-0.245,0.9975,0.071736,0.270474,-1.08275,-0.04774,-0.0833,0.5558
12.0622,0,0,5,5,22.0622,22.0622,-20.1037,0.422118,13.2209,0.1042,-0.0851129,-0.131587,1,1,3.85,-0.5425,0.8575,0.071736,0.270474,-1.08275,-0.04774,-0.0833,0.5558
12.0622,0,0,5,5,22.0622,22.0622,-20.1036,0.421476,13.2227,0.0263393,0.084033,0.236398,1,1,3.605,-0.7,0.56,-0.006466,0.439444,-0.717604,-0.04774,-0.0833,0.5558
12.0612,0,0,5,5,22.0612,22.0612,-20.1021,0.419913,13.224,0.0263666,0.0840588,0.236408,1,1,4.48,-1.12,0.14,-0.006466,0.439444,-0.717604,-0.04774,-0.0833,0.5558
12.0592,0,0,5,5,22.0592,22.0592,-20.0987,0.418602,13.2236,0.106206,0.0969374,0.239379,1,1,5.495,-0.6475,-0.7175,0.073688,0.452254,-0.714676,-0.04774,-0.0833,0.5558
12.0572,0,0,5,5,22.0572,22.0572,-20.0953,0.417291,13.2233,0.106228,0.0969927,0.2394,1,1,5.495,-0.6475,-0.7175,0.073688,0.452254,-0.714676,-0.04312,-0.07532,0.55762
12.0389,0,0,5,5,22.0389,22.0389,-20.0648,0.739189,13.2207,0.268625,-0.0627189,0.102441,0,1,4.7775,0.42,-1.855,0.242414,0.29219,-0.850706,-0.04312,-0.07532,0.55762
12.021,0,0,5,5,22.021,22.021,-20.0349,1.05521,13.2184,0.26311,-0.0621993,0.102539,0,1,4.7775,0.42,-1.855,0.242414,0.29219,-0.850706,-0.04312,-0.07532,0.55762
12.0218,0,0,5,5,22.0218,22.0218,-20.0364,1.0569,13.2146,-0.254813,0.24688,-0.119515,1,1,2.835,1.68,-1.9775,-0.277672,0.600972,-1.07104,-0.04312,-0.07532,0.55762
12.0227,0,0,5,5,22.0227,22.0227,-20.0378,1.05858,13.2109,-0.254842,0.246857,-0.119524,1,1,2.835,1.68,-1.9775,-0.277672,0.600972,-1.07104,-0.04312,-0.07532,0.55762
12.0232,0,0,5,5,22.0232,22.0232,-20.0387,1.05664,13.2084,-0.100886,0.233652,-0.00838351,1,1,3.115,-0.56,-2.03,-0.123098,0.587796,-0.96075,-0.04312,-0.07532,0.55762
12.0238,0,0,5,5,22.0238,22.0238,-20.0396,1.0547,13.2058,-0.100852,0.233637,-0.00838837,1,1,3.115,-0.56,-2.03,-0.123098,0.587796,-0.96075,-0.04312,-0.07532,0.55762
12.023,0,0,5,5,22.023,22.023,-20.0384,1.05381,13.2036,-0.246498,-0.114648,0.236902,1,1,4.3225,-0.035,-1.6625,-0.269376,0.239852,-0.71736,-0.04312,-0.07532,0.55762
12.0223,0,0,5,5,22.0223,22.0223,-20.0371,1.05293,13.2014,-0.246482,-0.114628,0.236909,1,1,4.3225,-0.035,-1.6625,-0.269376,0.239852,-0.71736,-0.04312,-0.07532,0.55762
12.1679,0,0,5,5,22.1679,22.1679,-20.2799,1.01959,13.1953,-0.0309924,0.202585,0.0936997,0,1,4.0075,0.455,-1.1375,-0.053558,0.560712,-0.858026,-0.0336,-0.0735,0.56196
12.0966,0,0,5,5,22.0966,22.0966,-20.161,0.919234,13.1967,-0.0928995,-0.101284,-0.0506346,0,1,2.24,0.1575,-0.63,-0.117486,0.255224,-1.00199,-0.0336,-0.0735,0.56196
12.1972,0,0,5,5,22.1972,22.1972,-20.3287,0.935466,13.1936,0.0131172,0.135219,0.0628135,0,1,1.4525,0.9275,-0.175,-0.010736,0.494222,-0.888404,-0.0336,-0.0735,0.56196
12.2954,0,0,5,5,22.2954,22.2954,-20.4923,0.951312,13.1915,0.0128407,0.132545,0.0618137,0,1,1.9775,0.7,0.315,-0.010736,0.494222,-0.888404,-0.0336,-0.0735,0.56196
12.365,0,0,5,5,22.365,22.365,-20.6083,1.48672,13.1898,0.475834,0.041688,0.185464,0,1,3.7275,0.0525,0.28,0.4636,0.405284,-0.764818,-0.0336,-0.0735,0.56196
12.4282,0,0,5,5,22.4282,22.4282,-20.7136,2.01231,13.1884,0.466666,0.0400682,0.184553,0,1,8.6975,-0.7175,0.7175,0.4636,0.405284,-0.764818,-0.0336,-0.0735,0.56196
12.4269,0,0,5,5,22.4269,22.4269,-20.7114,2.0121,13.1904,-0.322623,0.360198,0.134896,1,1,4.795,-0.5425,0.8225,-0.329034,0.725046,-0.814106,-0.0336,-0.0735,0.56196
12.4273,0,0,5,5,22.4273,22.4273,-20.7122,2.01216,13.1931,-0.322624,0.360186,0.134891,1,1,3.115,-0.5075,1.19,-0.329034,0.725046,-0.814106,-0.04298,-0.06048,0.57316
12.4695,0,0,5,5,22.4695,22.4695,-20.7825,2.46068,13.1929,0.427503,0.0384426,0.0801967,0,1,1.8725,-0.56,1.05,0.432124,0.404674,-0.867664,-0.04298,-0.06048,0.57316
12.5109,0,0,5,5,22.5109,22.5109,-20.8516,2.90095,13.192,0.419827,0.0374445,0.0794328,0,1,1.89,-0.77,0.8575,0.432124,0.404674,-0.867664,-0.04298,-0.06048,0.57316
12.5129,0,0,5,5,22.5129,22.5129,-20.8548,2.90083,13.1941,-0.256117,0.25148,-0.016856,1,1,1.715,-0.49,0.8225,-0.246684,0.61854,-0.96319,-0.04298,-0.06048,0.57316
12.5132,0,0,5,5,22.5132,22.5132,-20.8554,2.90174,13.1952,-0.256133,0.251471,-0.0168602,1,1,3.255,0.2625,0.56,-0.246684,0.61854,-0.96319,-0.04298,-0.06048,0.57316
12.3115,0,0,5,5,22.3115,22.3115,-20.5192,2.87137,13.2132,-0.0313413,-0.302641,-0.0625921,0,1,3.92,0.49,0.595,-0.021472,0.059536,-1.01065,-0.04298,-0.06048,0.57316
12.1144,0,0,5,5,22.1144,22.1144,-20.1906,2.83993,13.2306,-0.0307931,-0.29728,-0.060574,0,1,3.0975,-0.3325,0.245,-0.021472,0.059536,-1.01065,-0.04298,-0.06048,0.57316
12.1156,0,0,5,5,22.1156,22.1156,-20.1927,2.83933,13.2312,0.0105225,0.216472,-0.155871,1,1,2.3975,-0.455,-0.035,0.020008,0.57279,-1.1052,-0.04298,-0.06048,0.57316
12.1175,0,0,5,5,22.1175,22.1175,-20.1958,2.8388,13.2313,0.0105316,0.216422,-0.155889,1,1,1.89,-0.2975,-0.3325,0.020008,0.57279,-1.1052,-0.04662,-0.06482,0.57078
12.0647,0,0,5,5,22.0647,22.0647,-20.1078,3.22693,13.2348,0.351581,-0.10846,0.0535608,0,1,1.8025,-0.2275,-1.155,0.369294,0.246684,-0.897554,-0.04662,-0.06482,0.57078
12.0128,0,0,5,5,22.0128,22.0128,-20.0213,3.60821,13.2388,0.344938,-0.106909,0.0537051,0,1,1.8025,-0.2275,-1.155,0.369294,0.246684,-0.897554,-0.04662,-0.06482,0.57078
12.1041,0,0,5,5,22.1041,22.1041,-20.1735,3.25819,13.2287,-0.328069,0.124715,0.071334,0,1,3.5525,-0.1575,-0.98,-0.312686,0.48068,-0.879498,-0.04662,-0.06482,0.57078
12.1937,0,0,5,5,22.1937,22.1937,-20.3229,2.91433,13.2196,-0.322076,0.122161,0.0707362,0,1,3.5525,-0.1575,-0.98,-0.312686,0.48068,-0.879498,-0.04662,-0.06482,0.57078
12.1958,0,0,5,5,22.1958,22.1958,-20.3264,2.91396,13.2178,0.220364,-0.0739096,0.226368,1,1,1.6975,0.1575,-1.3125,0.232044,0.28487,-0.725046,-0.04662,-0.06482,0.57078
12.1979,0,0,5,5,22.1979,22.1979,-20.3298,2.91358,13.216,0.22037,-0.0739667,0.226347,1,1,1.6975,0.1575,-1.3125,0.232044,0.28487,-0.725046,-0.04662,-0.06482,0.57078
12.2009,0,0,5,5,22.2009,22.2009,-20.3348,2.91324,13.2146,0.267999,0.198417,-0.0450296,1,1,0.8575,0.105,-1.1025,0.279868,0.557052,-0.9943,-0.04662,-0.06482,0.57078
12.2039,0,0,5,5,22.2039,22.2039,-20.3398,2.91291,13.2132,0.268004,0.198336,-0.0450594,1,1,0.8575,0.105,-1.1025,0.279868,0.557052,-0.9943,-0.04662,-0.06482,0.57078
12.2052,0,0,5,5,22.2052,22.2052,-20.3419,2.91252,13.2119,0.140451,0.171798,0.265004,1,1,2.415,0.0525,-1.05,0.151768,0.530578,-0.686616,-0.04368,-0.07714,0.56084
12.2314,0,0,5,5,22.2314,22.2314,-20.3857,2.70247,13.2093,-0.192281,0.0335055,0.0260176,0,1,3.92,-0.175,-0.56,-0.18605,0.393206,-0.923662,-0.04368,-0.07714,0.56084
12.2572,0,0,5,5,22.2572,22.2572,-20.4287,2.4963,13.207,-0.188686,0.0327465,0.0259093,0,1,3.92,-0.175,-0.56,-0.18605,0.393206,-0.923662,-0.04368,-0.07714,0.56084
12.2587,0,0,5,5,22.2587,22.2587,-20.4311,2.49704,13.2073,0.519927,0.202708,0.0974501,1,1,2.24,0.35,0.0525,0.525576,0.56303,-0.852658,-0.04368,-0.07714,0.56084
12.2611,0,0,5,5,22.2611,22.2611,-20.4352,2.49776,13.2077,0.147318,0.178459,-0.255807,1,1,1.2775,0.315,0.105,0.151402,0.538874,-1.20316,-0.04368,-0.07714,0.56084
12.2639,0,0,5,5,22.2639,22.2639,-20.4398,2.49819,13.2087,0.14731,0.178385,-0.255834,1,1,1.0325,0.035,0.3675,0.151402,0.538874,-1.20316,-0.04368,-0.07714,0.56084
12.2651,0,0,5,5,22.2651,22.2651,-20.4419,2.49842,13.2101,-0.0531454,-0.0163191,-0.117776,1,1,2.38,-0.1575,0.56,-0.049898,0.344406,-1.06616,-0.04368,-0.07714,0.56084
12.2657,0,0,5,5,22.2657,22.2657,-20.4428,2.4982,13.212,-0.0531416,-0.0163334,-0.117782,1,1,3.0625,-0.5075,0.735,-0.049898,0.344406,-1.06616,-0.049,-0.07336,0.553
12.266,0,0,5,5,22.266,22.266,-20.4434,2.49799,13.2135,-0.100031,0.193714,0.363066,1,1,3.2025,-0.4375,0.56,-0.09699,0.554246,-0.589016,-0.049,-0.07336,0.553
12.2675,0,0,5,5,22.2675,22.2675,-20.4459,2.49772,13.2151,-0.100027,0.193673,0.363051,1,1,2.17,-0.455,0.5075,-0.09699,0.554246,-0.589016,-0.049,-0.07336,0.553
12.2701,0,0,5,5,22.2701,22.2701,-20.4501,2.49744,13.2165,0.059732,-0.0688457,-0.13344,1,1,1.2075,-0.455,0.49,0.06344,0.292068,-1.08165,-0.049,-0.07336,0.553
12.2728,0,0,5,5,22.2728,22.2728,-20.4546,2.49576,13.2176,0.0597613,-0.0689202,-0.133466,1,1,1.0325,-1.1375,-0.0175,0.06344,0.292068,-1.08165,-0.049,-0.07336,0.553
12.2747,0,0,5,5,22.2747,22.2747,-20.4578,2.49463,13.2182,0.29194,0.142306,-0.260614,1,1,1.785,-0.735,-0.175,0.296582,0.503128,-1.2078,-0.049,-0.07336,0.553
12.275,0,0,5,5,22.275,22.275,-20.4583,2.49387,13.2181,0.291953,0.142299,-0.260616,1,1,3.36,-0.4025,-0.455,0.296582,0.503128,-1.2078,-0.049,-0.07336,0.553
12.2752,0,0,5,5,22.2752,22.2752,-20.4587,2.49381,13.2177,-0.00532109,0.0836715,0.2222,1,1,3.3775,0.0525,-0.49,-0.001952,0.444568,-0.728706,-0.049,-0.07336,0.553
12.2759,0,0,5,5,22.2759,22.2759,-20.4598,2.49267,13.2167,-0.00530125,0.0836533,0.222194,1,1,3.01,-0.42,-1.0325,-0.001952,0.444568,-0.728706,-0.049,-0.07336,0.553
12.2768,0,0,5,5,22.2768,22.2768,-20.4614,2.49153,13.2153,0.00297973,-0.0639025,0.0941959,1,1,2.73,-0.3325,-1.2775,0.006344,0.297192,-0.855708,-0.05026,-0.07896,0.55104
12.4321,0,0,5,5,22.4321,22.4321,-20.7202,2.43723,13.2024,-0.0507421,0.20872,0.109368,0,1,1.33,0.1225,-1.4175,-0.048556,0.573766,-0.839116,-0.05026,-0.07896,0.55104
12.5844,0,0,5,5,22.5844,22.5844,-20.974,2.38409,13.1896,-0.0498153,0.204569,0.107829,0,1,1.4175,0.315,-1.575,-0.048556,0.573766,-0.839116,-0.05026,-0.07896,0.55104
12.6513,0,0,5,5,22.6513,22.6513,-21.0855,2.60746,13.1822,0.222427,0.111344,0.00873767,0,1,2.1,0.3675,-1.7675,0.22875,0.482388,-0.936594,-0.05026,-0.07896,0.55104
12.7159,0,0,5,5,22.7159,22.7159,-21.1931,2.82697,13.1745,0.2186,0.109659,0.00789133,0,1,3.08,0.5075,-1.7325,0.22875,0.482388,-0.936594,-0.05026,-0.07896,0.55104
12.7029,0,0,5,5,22.7029,22.7029,-21.1715,3.00749,13.1735,0.164551,-0.0298893,0.0204187,0,1,3.22,0.1225,-1.575,0.177632,0.342576,-0.92415,-0.05026,-0.07896,0.55104
12.6914,0,0,5,5,22.6914,22.6914,-21.1523,3.18515,13.1733,0.161455,-0.029517,0.0203832,0,1,2.065,0.21,-1.0325,0.177632,0.342576,-0.92415,-0.05026,-0.07896,0.55104
12.7754,0,0,5,5,22.7754,22.7754,-21.2924,3.51542,13.1642,0.285204,0.0716493,0.149265,0,1,1.89,0.63,-0.6825,0.307684,0.445788,-0.795074,-0.04802,-0.0875,0.54166
12.7774,0,0,5,5,22.7774,22.7774,-21.2957,3.51654,13.1644,-0.192133,-0.110617,-0.173128,1,1,1.75,0.5775,0.07,-0.171654,0.263764,-1.11496,-0.04802,-0.0875,0.54166
12.7789,0,0,5,5,22.7789,22.7789,-21.2982,3.51762,13.1653,-0.192152,-0.110657,-0.173145,1,1,2.1525,0.4025,0.455,-0.171654,0.263764,-1.11496,-0.04802,-0.0875,0.54166
12.7796,0,0,5,5,22.7796,22.7796,-21.2994,3.51886,13.1663,-0.0534366,-0.113363,-0.196145,1,1,2.8875,0.455,0.5775,-0.03233,0.26108,-1.13777,-0.04802,-0.0875,0.54166
12.78,0,0,5,5,22.78,22.78,-21.3001,3.52059,13.1681,-0.0534668,-0.113373,-0.196151,1,1,3.1675,0.5775,1.05,-0.03233,0.26108,-1.13777,-0.04802,-0.0875,0.54166
12.7811,0,0,5,5,22.7811,22.7811,-21.3018,3.52201,13.1694,0.14125,0.0120236,0.189772,1,1,2.59,0.49,0.77,0.163236,0.386374,-0.754814,-0.04802,-0.0875,0.54166
12.7821,0,0,5,5,22.7821,22.7821,-21.3035,3.52342,13.1708,0.141225,0.0119962,0.18976,1,1,2.59,0.49,0.77,0.163236,0.386374,-0.754814,-0.04802,-0.0875,0.54166
12.7833,0,0,5,5,22.7833,22.7833,-21.3055,3.52298,13.1735,-0.427927,0.140808,-0.0642637,1,1,2.3975,-0.8225,1.1375,-0.408334,0.515084,-1.00687,-0.04802,-0.0875,0.54166
12.7845,0,0,5,5,22.7845,22.7845,-21.3075,3.52254,13.1762,-0.42792,0.140776,-0.0642757,1,1,2.3975,-0.8225,1.1375,-0.408334,0.515084,-1.00687,-0.042,-0.08344,0.53564
12.7848,0,0,5,5,22.7848,22.7848,-21.308,3.52096,13.1779,0.0484534,0.0251115,-0.213291,1,1,3.22,-1.2075,0.28,0.070028,0.39955,-1.15473,-0.042,-0.08344,0.53564
12.7852,0,0,5,5,22.7852,22.7852,-21.3086,3.51937,13.1795,0.048481,0.0251015,-0.213293,1,1,3.22,-1.2075,0.28,0.070028,0.39955,-1.15473,-0.042,-0.08344,0.53564
12.9933,0,0,5,5,22.9933,22.9933,-21.6555,3.79641,13.1572,0.251032,0.259937,0.216371,0,1,3.6575,-0.21,-0.42,0.278282,0.639646,-0.7259,-0.042,-0.08344,0.53564
12.9943,0,0,5,5,22.9943,22.9943,-21.6572,3.79561,13.1567,0.57444,-0.220414,-0.103551,1,1,2.7125,-0.3325,-0.6825,0.603046,0.15982,-1.04334,-0.042,-0.08344,0.53564
12.9955,0,0,5,5,22.9955,22.9955,-21.6591,3.79353,13.1548,0.574477,-0.220447,-0.103561,1,1,2.5725,-0.7,-1.785,0.603046,0.15982,-1.04334,-0.042,-0.08344,0.53564
12.9972,0,0,5,5,22.9972,22.9972,-21.662,3.79165,13.1522,-0.54571,-0.141356,-0.088701,1,1,2.0825,-0.4725,-2.0475,-0.521916,0.238876,-1.02858,-0.042,-0.08344,0.53564
12.9986,0,0,5,5,22.9986,22.9986,-21.6643,3.79082,13.1493,-0.545696,-0.141394,-0.088715,1,1,2.415,0.175,-2.0125,-0.521916,0.238876,-1.02858,-0.042,-0.08344,0.53564
12.9436,0,0,5,5,22.9436,22.9436,-21.5727,3.51763,13.1521,-0.253502,-0.0886074,-0.0084201,0,1,3.0975,0.0525,-2.17,-0.233264,0.290238,-0.94977,-0.04774,-0.09184,0.53564
12.9446,0,0,5,5,22.9446,22.9446,-21.5743,3.51601,13.15,0.345572,0.272373,0.115749,1,1,2.7825,-0.42,-1.7675,0.368318,0.65087,-0.82655,-0.04774,-0.09184,0.53564
12.9455,0,0,5,5,22.9455,22.9455,-21.5758,3.51548,13.1481,0.345581,0.272349,0.11574,1,1,2.835,0.1225,-1.4,0.368318,0.65087,-0.82655,-0.04774,-0.09184,0.53564
12.9793,0,0,5,5,22.9793,22.9793,-21.6322,3.08059,13.1436,-0.442208,0.059384,-0.000401928,0,1,2.4325,0.49,-0.945,-0.430416,0.4392,-0.94184,-0.04774,-0.09184,0.53564
13.0129,0,0,5,5,23.0129,23.0129,-21.6881,2.65413,13.1403,-0.434774,0.0583411,-0.000415501,0,1,2.135,0.875,-0.2975,-0.430416,0.4392,-0.94184,-0.04774,-0.09184,0.53564
13.0146,0,0,5,5,23.0146,23.0146,-21.691,2.65557,13.1398,-0.020776,0.0866277,-0.155842,1,1,1.9775,0.8925,-0.21,-0.01464,0.467504,-1.09605,-0.04774,-0.09184,0.53564
13.0159,0,0,5,5,23.0159,23.0159,-21.6932,2.65649,13.1405,-0.020792,0.0865923,-0.155857,1,1,2.345,0.35,0.315,-0.01464,0.467504,-1.09605,-0.04774,-0.09184,0.53564
12.9331,0,0,5,5,22.9331,22.9331,-21.5551,2.87237,13.1484,0.205052,-0.128244,-0.0393212,0,1,2.66,0.5425,0.6825,0.21594,0.250588,-0.981124,-0.04774,-0.09184,0.53564
12.8511,0,0,5,5,22.8511,22.8511,-21.4184,3.08452,13.1573,0.201355,-0.125957,-0.0386277,0,1,3.2025,0.525,1.0675,0.21594,0.250588,-0.981124,-0.04172,-0.09282,0.54082
12.9219,0,0,5,5,22.9219,22.9219,-21.5366,2.76962,13.1536,-0.289182,0.0752434,0.0977212,0,1,2.975,-0.035,1.12,-0.282186,0.453596,-0.845338,-0.04172,-0.09282,0.54082
12.9919,0,0,5,5,22.9919,22.9919,-21.6531,2.45969,13.1508,-0.283779,0.0732631,0.0972027,0,1,2.66,-0.42,1.1375,-0.282186,0.453596,-0.845338,-0.04172,-0.09282,0.54082
13.0068,0,0,5,5,23.0068,23.0068,-21.6781,2.71091,13.1526,0.218801,-0.0113353,0.0872685,0,1,3.29,-0.5075,1.3125,0.22692,0.369416,-0.854854,-0.04172,-0.09282,0.54082
13.0218,0,0,5,5,23.0218,23.0218,-21.703,2.95781,13.1535,0.214497,-0.0116606,0.0869097,0,1,3.045,-0.2275,0.98,0.22692,0.369416,-0.854854,-0.04172,-0.09282,0.54082
13.1227,0,0,5,5,23.1227,23.1227,-21.8711,3.32926,13.1457,0.339714,0.107144,0.148811,0,1,2.835,-0.0525,0.56,0.359168,0.490684,-0.792024,-0.04172,-0.09282,0.54082
13.2214,0,0,5,5,23.2214,23.2214,-22.0357,3.69477,13.1358,0.333347,0.104631,0.147376,0,1,3.3075,0.4725,0.0175,0.359168,0.490684,-0.792024,-0.04172,-0.09282,0.54082
13.2219,0,0,5,5,23.2219,23.2219,-22.0365,3.69515,13.1351,0.357394,-0.129132,-0.0677894,1,1,3.1675,0.35,-0.525,0.383324,0.257176,-1.00552,-0.04172,-0.09282,0.54082
13.2234,0,0,5,5,23.2234,23.2234,-22.0391,3.69428,13.1344,0.35741,-0.129173,-0.0678049,1,1,2.2225,-0.315,-0.84,0.383324,0.257176,-1.00552,-0.04886,-0.09492,0.5432
13.2926,0,0,5,5,23.2926,23.2926,-22.1543,3.46113,13.1258,-0.219595,0.0959053,0.0463864,0,1,2.45,-0.21,-1.3125,-0.200202,0.483974,-0.891698,-0.04886,-0.09492,0.5432
13.3604,0,0,5,5,23.3604,23.3604,-22.2674,3.23214,13.1178,-0.215606,0.0939928,0.0458575,0,1,2.45,-0.21,-1.3125,-0.200202,0.483974,-0.891698,-0.04886,-0.09492,0.5432
13.3633,0,0,5,5,23.3633,23.3633,-22.2721,2.76206,13.1168,-0.480269,0.00606662,-0.00713657,0,1,2.5725,-0.8225,-1.1725,-0.474214,0.396378,-0.944646,-0.04886,-0.09492,0.5432
13.3661,0,0,5,5,23.3661,23.3661,-22.2768,2.29977,13.1157,-0.472208,0.00585632,-0.00683769,0,1,2.5725,-0.8225,-1.1725,-0.474214,0.396378,-0.944646,-0.04886,-0.09492,0.5432
13.5406,0,0,5,5,23.5406,23.5406,-22.5676,2.44281,13.1025,0.137828,0.250712,0.125884,0,1,2.9575,0.1225,-0.98,0.14091,0.645624,-0.810934,-0.04886,-0.09492,0.5432
13.7121,0,0,5,5,23.7121,23.7121,-22.8534,2.58327,13.0888,0.135379,0.246157,0.123861,0,1,2.9575,0.1225,-0.98,0.14091,0.645624,-0.810934,-0.04886,-0.09492,0.5432
13.612,0,0,5,5,23.612,23.612,-22.6867,2.50383,13.0955,-0.0765649,-0.142602,-0.0853222,0,1,1.89,0.49,-0.6125,-0.073322,0.254614,-1.01968,-0.04886,-0.09492,0.5432
13.6134,0,0,5,5,23.6134,23.6134,-22.6889,2.50475,13.0948,-0.118858,0.00513465,-0.246892,1,1,2.345,0.665,-0.4375,-0.115778,0.402234,-1.17998,-0.04816,-0.09114,0.54012
13.6412,0,0,5,5,23.6412,23.6412,-22.7354,2.28555,13.093,-0.202019,0.022523,0.0517074,0,1,2.66,0.175,-0.0875,-0.20313,0.420412,-0.883524,-0.04816,-0.09114,0.54012
13.6686,0,0,5,5,23.6686,23.6686,-22.781,2.06939,13.092,-0.198249,0.0217345,0.051532,0,1,2.6425,-0.4375,-0.035,-0.20313,0.420412,-0.883524,-0.04816,-0.09114,0.54012
13.7042,0,0,5,5,23.7042,23.7042,-22.8404,2.11913,13.0907,0.0426397,0.0297064,0.0636416,0,1,2.8875,-0.07,0.245,0.03965,0.429318,-0.87108,-0.04816,-0.09114,0.54012
13.7389,0,0,5,5,23.7389,23.7389,-22.8982,2.16833,13.0895,0.0417815,0.0287903,0.0632203,0,1,3.2025,0.1225,0.3675,0.03965,0.429318,-0.87108,-0.04816,-0.09114,0.54012
13.7404,0,0,5,5,23.7404,23.7404,-22.9007,2.16917,13.0904,0.31596,-0.0497774,-0.231013,1,1,2.17,0.2625,0.385,0.315004,0.350872,-1.16303,-0.04816,-0.09114,0.54012
13.7411,0,0,5,5,23.7411,23.7411,-22.9018,2.16967,13.0903,0.315951,-0.0497957,-0.231021,1,1,2.9575,0.28,-0.175,0.315004,0.350872,-1.16303,-0.04816,-0.09114,0.54012
13.7424,0,0,5,5,23.7424,23.7424,-22.9039,2.17071,13.0896,0.250088,0.141177,-0.013417,1,1,2.45,0.735,-0.42,0.24888,0.54168,-0.947086,-0.04816,-0.09114,0.54012
13.7435,0,0,5,5,23.7435,23.7435,-22.9059,2.171,13.0881,0.250083,0.141146,-0.0134304,1,1,2.5375,0.49,-0.98,0.24888,0.54168,-0.947086,-0.05012,-0.08904,0.54026
13.719,0,0,5,5,23.719,23.719,-22.865,2.00107,13.088,-0.148706,-0.0701287,0.0742398,0,1,3.0975,0.35,-1.1375,-0.154574,0.33001,-0.860466,-0.05012,-0.08904,0.54026
13.6954,0,0,5,5,23.6954,23.6954,-22.8256,1.83435,13.0877,-0.145798,-0.0695333,0.0745963,0,1,2.6775,0.42,-1.155,-0.154574,0.33001,-0.860466,-0.05012,-0.08904,0.54026
13.7209,0,0,5,5,23.7209,23.7209,-22.8682,1.8229,13.0845,-0.0103848,0.039937,0.00607696,0,1,2.905,0.3325,-1.295,-0.018788,0.440054,-0.928176,-0.05012,-0.08904,0.54026
13.7458,0,0,5,5,23.7458,23.7458,-22.9097,1.81138,13.0814,-0.010184,0.039268,0.0058014,0,1,3.115,0.175,-1.33,-0.018788,0.440054,-0.928176,-0.05012,-0.08904,0.54026
13.7314,0,0,5,5,23.7314,23.7314,-22.8856,1.90578,13.0807,0.0781902,-0.0555828,0.0757505,0,1,2.9575,0.315,-1.1025,0.071614,0.344894,-0.85888,-0.05012,-0.08904,0.54026
13.7166,0,0,5,5,23.7166,23.7166,-22.8611,1.99788,13.0812,0.0765838,-0.0551671,0.0758665,0,1,3.43,-0.2625,-0.595,0.071614,0.344894,-0.85888,-0.05012,-0.08904,0.54026
13.7832,0,0,5,5,23.7832,23.7832,-22.9719,2.01027,13.077,0.013681,0.116597,0.00355038,0,1,3.36,0.0875,-0.4375,0.008662,0.518256,-0.929884,-0.05012,-0.08904,0.54026
13.8499,0,0,5,5,23.8499,23.8499,-23.0831,2.02326,13.0735,0.0134544,0.114815,0.0027845,0,1,2.0475,0.4025,0.07,0.008662,0.518256,-0.929884,-0.05012,-0.08904,0.54026
13.8512,0,0,5,5,23.8512,23.8512,-23.0853,2.02417,13.0741,0.0373712,-0.10749,0.107644,1,1,2.3625,0.35,0.28,0.032696,0.296216,-0.825818,-0.04606,-0.09058,0.54348
13.8523,0,0,5,5,23.8523,23.8523,-23.0872,2.02501,13.0751,0.0373566,-0.107521,0.107631,1,1,2.52,0.2275,0.455,0.032696,0.296216,-0.825818,-0.04606,-0.09058,0.54348
13.8539,0,0,5,5,23.8539,23.8539,-23.0899,2.02605,13.0764,0.0980813,0.0317831,-0.156113,1,1,2.065,0.2625,0.6825,0.093696,0.435418,-1.08751,-0.04606,-0.09058,0.54348
13.854,0,0,5,5,23.854,23.854,-23.0901,2.02528,13.0784,0.0980948,0.0317803,-0.156114,1,1,3.465,-0.8925,0.6825,0.093696,0.435418,-1.08751,-0.04606,-0.09058,0.54348
13.9341,0,0,5,5,23.9341,23.9341,-23.2236,2.2873,13.0757,0.265063,0.129851,0.0373172,0,1,3.36,-0.63,0.875,0.26596,0.535458,-0.894504,-0.04606,-0.09058,0.54348
14.0128,0,0,5,5,24.0128,24.0128,-23.3547,2.54514,13.0724,0.260567,0.127826,0.036239,0,1,3.395,-0.4025,1.0325,0.26596,0.535458,-0.894504,-0.04606,-0.09058,0.54348
14.0123,0,0,5,5,24.0123,24.0123,-23.3539,2.5449,13.0743,0.0432328,0.123076,0.341034,1,1,3.99,-0.56,0.6825,0.047702,0.5307,-0.592066,-0.04606,-0.09058,0.54348
14.0135,0,0,5,5,24.0135,24.0135,-23.3558,2.54494,13.0752,0.0432322,0.123045,0.341021,1,1,2.5025,-0.1925,0.245,0.047702,0.5307,-0.592066,-0.04606,-0.09058,0.54348
14.0145,0,0,5,5,24.0145,24.0145,-23.3574,2.54491,13.0754,0.0807717,-0.0864285,0.110112,1,1,2.6775,-0.0525,-0.175,0.0854,0.32147,-0.821182,-0.05012,-0.08932,0.54264
14.0156,0,0,5,5,24.0156,24.0156,-23.3593,2.54541,13.0739,0.080763,-0.0864583,0.110099,1,1,2.59,0.6125,-0.9275,0.0854,0.32147,-0.821182,-0.05012,-0.08932,0.54264
14.0173,0,0,5,5,24.0173,24.0173,-23.3621,2.54559,13.0722,-0.226478,0.364632,-0.117622,1,1,2.0475,0.5075,-1.155,-0.223138,0.772138,-1.04713,-0.05012,-0.08932,0.54264
14.0181,0,0,5,5,24.0181,24.0181,-23.3635,2.54501,13.0708,-0.226467,0.36461,-0.117631,1,1,2.87,0.0175,-1.155,-0.223138,0.772138,-1.04713,-0.05012,-0.08932,0.54264
14.019,0,0,5,5,24.019,24.019,-23.3651,2.54392,13.0696,0.324368,-0.17375,-0.183787,1,1,2.7475,-0.315,-1.1375,0.33001,0.234362,-1.11276,-0.05012,-0.08932,0.54264
14.0203,0,0,5,5,24.0203,24.0203,-23.3672,2.54312,13.068,0.324382,-0.173783,-0.183801,1,1,2.4675,-0.0525,-1.3125,0.33001,0.234362,-1.11276,-0.05012,-0.08932,0.54264
14.0213,0,0,5,5,24.0213,24.0213,-23.3688,2.54171,13.0671,0.371057,0.236292,0.0902411,1,1,2.7125,-0.56,-1.0325,0.376858,0.644038,-0.840824,-0.05012,-0.08932,0.54264
14.0222,0,0,5,5,24.0222,24.0222,-23.3703,2.54147,13.0665,0.371061,0.236267,0.0902308,1,1,2.765,0.035,-0.6825,0.376858,0.644038,-0.840824,-0.05012,-0.08932,0.54264
14.023,0,0,5,5,24.023,24.023,-23.3716,2.54188,13.066,-0.00385107,-0.0781079,0.206654,1,1,2.87,0.3325,-0.42,0.000366,0.33001,-0.72529,-0.04676,-0.09044,0.5418
14.0241,0,0,5,5,24.0241,24.0241,-23.3734,2.54292,13.0656,0.143615,-0.106836,-0.254663,1,1,2.59,0.6475,-0.2275,0.148474,0.30134,-1.18303,-0.04676,-0.09044,0.5418
14.0988,0,0,5,5,24.0988,24.0988,-23.498,2.45426,13.061,-0.0861483,0.116102,0.0308829,0,1,2.5725,0.3325,0.3325,-0.083814,0.526064,-0.898896,-0.04676,-0.09044,0.5418
14.1006,0,0,5,5,24.1006,24.1006,-23.501,2.45508,13.0619,0.0953371,0.10384,-0.179258,1,1,1.855,0.2275,0.42,0.098454,0.513864,-1.10739,-0.04676,-0.09044,0.5418
14.1702,0,0,5,5,24.1702,24.1702,-23.6171,2.57068,13.0585,0.116161,0.112769,0.0209961,0,1,2.0475,-0.77,0.4375,0.12139,0.5246,-0.907802,-0.04676,-0.09044,0.5418
14.2174,0,0,5,5,24.2174,24.2174,-23.6957,2.36646,13.0566,-0.183021,0.0288932,0.0992735,0,1,1.6625,-0.7875,0.2275,-0.182634,0.442128,-0.829722,-0.04676,-0.09044,0.5418
14.2192,0,0,5,5,24.2192,24.2192,-23.6987,2.36638,13.0572,-0.0885035,-0.0060833,0.199087,1,1,1.89,-0.1925,0.07,-0.087718,0.407236,-0.730658,-0.04676,-0.09044,0.5418
14.2275,0,0,5,5,24.2275,24.2275,-23.7125,2.58652,13.0576,0.224979,0.0246609,-0.0255434,0,1,2.6775,-0.595,0.07,0.230946,0.438102,-0.953308,-0.04676,-0.09044,0.5418
14.2404,0,0,5,5,24.2404,24.2404,-23.734,2.91251,13.0568,0.270563,-0.047993,0.151102,0,1,2.6775,0.0525,-0.1925,0.28243,0.365756,-0.777628,-0.04396,-0.09324,0.53928
14.2411,0,0,5,5,24.2411,24.2411,-23.7352,2.91207,13.0561,0.0425416,0.064222,-0.299758,1,1,2.94,-0.0875,-0.7,0.053436,0.477874,-1.225,-0.04396,-0.09324,0.53928
14.2427,0,0,5,5,24.2427,24.2427,-23.7379,2.91168,13.0548,0.0425483,0.0641796,-0.299776,1,1,2.1525,0.1225,-1.085,0.053436,0.477874,-1.225,-0.04396,-0.09324,0.53928
14.2443,0,0,5,5,24.2443,24.2443,-23.7405,2.911,13.053,0.185306,0.0636487,-0.074184,1,1,2.17,0.0525,-1.365,0.196786,0.477386,-1.00113,-0.04396,-0.09324,0.53928
14.2461,0,0,5,5,24.2461,24.2461,-23.7435,2.90987,13.0508,0.185326,0.0635999,-0.0742044,1,1,1.96,-0.0875,-1.6975,0.196786,0.477386,-1.00113,-0.04396,-0.09324,0.53928
14.2029,0,0,5,5,24.2029,24.2029,-23.6715,2.41544,13.0522,-0.460498,-0.114693,0.0893289,0,1,1.9425,0.0525,-1.5925,-0.460428,0.29829,-0.839726,-0.04396,-0.09324,0.53928
14.1604,0,0,5,5,24.1604,24.1604,-23.6007,1.929,13.0534,-0.452014,-0.113691,0.0901184,0,1,1.855,-0.0525,-1.2775,-0.460428,0.29829,-0.839726,-0.04396,-0.09324,0.53928
14.1626,0,0,5,5,24.1626,24.1626,-23.6044,1.92802,13.0523,0.000780306,-0.214016,0.0962409,1,1,1.575,-0.2625,-1.085,-0.005734,0.198128,-0.833626,-0.04396,-0.09324,0.53928
14.1643,0,0,5,5,24.1643,24.1643,-23.6071,1.92772,13.0519,0.000785654,-0.21406,0.0962218,1,1,2.065,-0.07,-0.5425,-0.005734,0.198128,-0.833626,-0.04592,-0.09492,0.54166
14.1664,0,0,5,5,24.1664,24.1664,-23.6107,1.92774,13.052,-0.128475,0.142738,0.209556,1,1,1.61,0,-0.2275,-0.135542,0.554612,-0.721142,-0.04592,-0.09492,0.54166
14.1679,0,0,5,5,24.1679,24.1679,-23.6131,1.92846,13.0521,-0.128488,0.142698,0.209538,1,1,2.205,0.3675,-0.035,-0.135542,0.554612,-0.721142,-0.04592,-0.09492,0.54166
14.1698,0,0,5,5,24.1698,24.1698,-23.6163,1.92871,13.0526,0.0319901,0.247677,-0.313261,1,1,1.82,0.0175,0.07,0.02562,0.659532,-1.23989,-0.04592,-0.09492,0.54166
14.1726,0,0,5,5,24.1726,24.1726,-23.6209,1.92927,13.0529,0.0319805,0.247603,-0.313294,1,1,0.9975,0.21,0.07,0.02562,0.659532,-1.23989,-0.04592,-0.09492,0.54166
14.2861,0,0,5,5,24.2861,24.2861,-23.8102,2.16925,13.047,0.232984,0.153412,0.0984708,0,1,1.1725,-0.1575,0.0875,0.231678,0.568398,-0.829844,-0.04592,-0.09492,0.54166
14.3978,0,0,5,5,24.3978,24.3978,-23.9964,2.40542,13.0404,0.228865,0.15051,0.0970049,0,1,1.1025,0.0525,0.1925,0.231678,0.568398,-0.829844,-0.04592,-0.09492,0.54166
14.2571,0,0,5,5,24.2571,24.2571,-23.7618,2.37063,13.0509,-0.034395,-0.217636,-0.0686492,0,1,1.435,-0.0175,0.07,-0.033306,0.196908,-0.995886,-0.04592,-0.09492,0.54166
14.1181,0,0,5,5,24.1181,24.1181,-23.5302,2.33582,13.061,-0.0337879,-0.213946,-0.0670061,0,1,2.17,-0.35,-0.0525,-0.033306,0.196908,-0.995886,-0.0455,-0.09226,0.53354
14.1676,0,0,5,5,24.1676,24.1676,-23.6127,2.32418,13.0584,-0.012082,0.0402211,0.0862345,0,1,2.135,-0.665,-0.1575,-0.011712,0.452132,-0.843264,-0.0455,-0.09226,0.53354
14.2162,0,0,5,5,24.2162,24.2162,-23.6937,2.31397,13.0551,-0.011904,0.0389243,0.0856744,0,1,2.17,0.175,-0.2975,-0.011712,0.452132,-0.843264,-0.0455,-0.09226,0.53354
14.0615,0,0,5,5,24.0615,24.0615,-23.4358,2.10895,13.0646,-0.199911,-0.242417,-0.0739548,0,1,2.3975,0.175,-0.525,-0.204106,0.167018,-1.00357,-0.0455,-0.09226,0.53354
13.9108,0,0,5,5,23.9108,23.9108,-23.1846,1.90811,13.0722,-0.196408,-0.238443,-0.0721084,0,1,1.1375,0.7175,-0.7875,-0.204106,0.167018,-1.00357,-0.0455,-0.09226,0.53354
13.9134,0,0,5,5,23.9134,23.9134,-23.189,1.90814,13.0709,0.191981,-0.00744985,0.183225,1,1,1.1375,0.3325,-0.98,0.185928,0.397842,-0.750178,-0.0455,-0.09226,0.53354
13.9162,0,0,5,5,23.9162,23.9162,-23.1937,1.90777,13.0698,0.191988,-0.00752443,0.183193,1,1,1.015,0.0525,-0.9275,0.185928,0.397842,-0.750178,-0.0455,-0.09226,0.53354
13.919,0,0,5,5,23.919,23.919,-23.1983,1.90754,13.0689,-0.0626423,0.00608031,0.242915,1,1,1.05,0.0875,-0.805,-0.069784,0.411506,-0.690886,-0.0455,-0.09226,0.53354
13.921,0,0,5,5,23.921,23.921,-23.2016,1.90798,13.069,-0.06265,0.00602659,0.242892,1,1,1.715,0.21,-0.0875,-0.069784,0.411506,-0.690886,-0.0455,-0.09226,0.53354
13.9558,0,0,5,5,23.9558,23.9558,-23.2596,1.83682,13.0681,-0.0668756,0.0346351,0.0475335,0,1,1.6975,-0.245,0.175,-0.075274,0.44103,-0.884378,-0.04508,-0.09814,0.53368
13.9906,0,0,5,5,23.9906,23.9906,-23.3177,1.76802,13.0677,-0.0656754,0.0336894,0.0471676,0,1,1.0675,0.2275,0.665,-0.075274,0.44103,-0.884378,-0.04508,-0.09814,0.53368
13.8687,0,0,5,5,23.8687,23.8687,-23.1145,1.59765,13.0749,-0.166938,-0.189632,-0.0707375,0,1,1.2075,0.035,0.49,-0.17995,0.21472,-1.00284,-0.04508,-0.09814,0.53368
13.7499,0,0,5,5,23.7499,23.7499,-22.9165,1.42958,13.0814,-0.164006,-0.186483,-0.0693158,0,1,0.28,-0.315,0.315,-0.17995,0.21472,-1.00284,-0.04508,-0.09814,0.53368
13.7932,0,0,5,5,23.7932,23.7932,-22.9887,1.63535,13.0803,0.205123,0.0678837,0.0105129,0,1,0.56,0.3675,0.28,0.194346,0.469944,-0.923052,-0.04508,-0.09814,0.53368
13.8346,0,0,5,5,23.8346,23.8346,-23.0577,1.83707,13.0791,0.201603,0.0668182,0.00994419,0,1,1.6625,0.105,0.315,0.194346,0.469944,-0.923052,-0.04508,-0.09814,0.53368
13.8366,0,0,5,5,23.8366,23.8366,-23.061,1.83654,13.08,-0.100036,-0.107266,-0.147452,1,1,1.715,-0.49,0.105,-0.10858,0.296094,-1.07921,-0.04508,-0.09814,0.53368
13.838,0,0,5,5,23.838,23.838,-23.0634,1.83566,13.0805,-0.100021,-0.107304,-0.147468,1,1,2.2575,-0.5775,-0.21,-0.10858,0.296094,-1.07921,-0.04508,-0.09814,0.53368
13.8395,0,0,5,5,23.8395,23.8395,-23.0658,1.83422,13.0808,-0.135956,-0.047623,-0.278793,1,1,2.2575,-0.84,-0.4375,-0.144692,0.355752,-1.20951,-0.04788,-0.09086,0.53228
13.8412,0,0,5,5,23.8412,23.8412,-23.0687,1.83376,13.0804,-0.135948,-0.0476697,-0.278812,1,1,1.9775,-0.1575,-0.5775,-0.144692,0.355752,-1.20951,-0.04788,-0.09086,0.53228
13.9302,0,0,5,5,23.9302,23.9302,-23.2171,1.76758,13.0746,-0.0634809,0.124455,0.0633529,0,1,2.065,0.14,-0.9275,-0.073078,0.53009,-0.869006,-0.04788,-0.09086,0.53228
14.0183,0,0,5,5,24.0183,24.0183,-23.3639,1.70246,13.0684,-0.0623449,0.122088,0.0623717,0,1,1.4525,0.2625,-1.365,-0.073078,0.53009,-0.869006,-0.04788,-0.09086,0.53228
14.02,0,0,5,5,24.02,24.02,-23.3666,1.70215,13.0663,0.167876,-0.0610234,0.109811,1,1,2.1,0.315,-1.435,0.158112,0.347212,-0.821914,-0.04788,-0.09086,0.53228
14.0214,0,0,5,5,24.0214,24.0214,-23.369,1.7022,13.0644,0.167875,-0.0610612,0.109795,1,1,2.31,0.4725,-1.2775,0.158112,0.347212,-0.821914,-0.04788,-0.09086,0.53228
14.0362,0,0,5,5,24.0362,24.0362,-23.3937,1.72149,13.062,0.0204193,0.0340501,-0.0231701,0,1,2.2575,0.2975,-1.26,0.01037,0.442616,-0.953674,-0.04788,-0.09086,0.53228
14.0508,0,0,5,5,24.0508,24.0508,-23.418,1.74043,13.0595,0.0200888,0.0336654,-0.0233475,0,1,2.2575,0.2975,-1.26,0.01037,0.442616,-0.953674,-0.04788,-0.09086,0.53228
14.0531,0,0,5,5,24.0531,24.0531,-23.4218,1.74047,13.059,-0.0633725,0.187118,-0.181485,1,1,1.4875,0.14,-0.525,-0.073444,0.59597,-1.11057,-0.04676,-0.09562,0.53144
14.0557,0,0,5,5,24.0557,24.0557,-23.4261,1.74045,13.0584,0.00174427,-0.00713251,0.252247,1,1,1.19,0.14,-0.6125,-0.008052,0.40199,-0.68015,-0.04676,-0.09562,0.53144
14.0578,0,0,5,5,24.0578,24.0578,-23.4297,1.74095,13.0575,0.0017354,-0.00719011,0.252222,1,1,1.5925,0.4725,-0.595,-0.008052,0.40199,-0.68015,-0.04676,-0.09562,0.53144
14.0601,0,0,5,5,24.0601,24.0601,-23.4334,1.74179,13.0573,0.0701172,-0.22317,0.170557,1,1,1.505,0.5075,-0.1925,0.060634,0.186294,-0.761158,-0.04676,-0.09562,0.53144
14.0623,0,0,5,5,24.0623,24.0623,-23.4372,1.74263,13.0571,0.0701026,-0.22323,0.170531,1,1,1.505,0.5075,-0.1925,0.060634,0.186294,-0.761158,-0.04676,-0.09562,0.53144
14.0635,0,0,5,5,24.0635,24.0635,-23.4391,1.74318,13.0574,0.185383,-0.0150341,0.131543,1,1,2.52,0.21,0.07,0.176412,0.394304,-0.799832,-0.04676,-0.09562,0.53144
14.0646,0,0,5,5,24.0646,24.0646,-23.441,1.74373,13.0578,0.185373,-0.0150646,0.131529,1,1,2.52,0.21,0.07,0.176412,0.394304,-0.799832,-0.04676,-0.09562,0.53144
14.0662,0,0,5,5,24.0662,24.0662,-23.4437,1.74371,13.0579,0.278189,0.161122,-0.134673,1,1,2.1175,-0.035,-0.21,0.26962,0.57035,-1.06396,-0.04676,-0.09562,0.53144
14.0678,0,0,5,5,24.0678,24.0678,-23.4463,1.74368,13.058,0.278189,0.16108,-0.134691,1,1,2.1175,-0.035,-0.21,0.26962,0.57035,-1.06396,-0.0504,-0.08932,0.5362
14.0692,0,0,5,5,24.0692,24.0692,-23.4487,1.74984,13.0542,-0.0652367,0.120618,-0.283479,1,1,2.2925,4.2,-0.875,-0.075152,0.529968,-1.21158,-0.0504,-0.08932,0.5362
14.0707,0,0,5,5,24.0707,24.0707,-23.4512,1.75599,13.0504,-0.0653441,0.12058,-0.283499,1,1,2.2925,4.2,-0.875,-0.075152,0.529968,-1.21158,-0.0504,-0.08932,0.5362
14.1756,0,0,5,5,24.1756,24.1756,-23.626,1.88169,13.0441,0.119187,0.142482,0.0934095,0,1,3.8325,0.455,-0.525,0.112362,0.554612,-0.83631,-0.0504,-0.08932,0.5362
14.2786,0,0,5,5,24.2786,24.2786,-23.7977,2.00517,13.0375,0.117033,0.139769,0.0921378,0,1,3.8325,0.455,-0.525,0.112362,0.554612,-0.83631,-0.0504,-0.08932,0.5362
14.2784,0,0,5,5,24.2784,24.2784,-23.7974,2.00427,13.0374,0.0293358,-0.205356,0.0546415,1,1,3.7975,-0.4375,-0.56,0.024278,0.20984,-0.87352,-0.0504,-0.08932,0.5362
14.2782,0,0,5,5,24.2782,24.2782,-23.797,2.00338,13.0372,0.0293514,-0.205351,0.0546444,1,1,3.7975,-0.4375,-0.56,0.024278,0.20984,-0.87352,-0.0504,-0.08932,0.5362
14.2139,0,0,5,5,24.2139,24.2139,-23.6898,1.93187,13.0415,-0.0685336,-0.101681,-0.0327175,0,1,1.505,-0.315,-0.105,-0.075274,0.31171,-0.960994,-0.0504,-0.08932,0.5362
14.3214,0,0,5,5,24.3214,24.3214,-23.869,1.90396,13.0359,-0.0257697,0.189779,0.0203808,0,1,1.8375,-0.6825,-0.3325,-0.032818,0.60573,-0.90707,-0.04578,-0.1022,0.53914
14.3043,0,0,5,5,24.3043,24.3043,-23.8405,1.98687,13.0372,0.0874665,0.00144447,-0.0840927,0,1,2.03,0.91,0.2625,0.08235,0.417118,-1.01089,-0.04578,-0.1022,0.53914
14.2864,0,0,5,5,24.2864,24.2864,-23.8107,2.0678,13.0395,0.086055,0.00194091,-0.0839281,0,1,3.08,0.385,0.7175,0.08235,0.417118,-1.01089,-0.04578,-0.1022,0.53914
14.2703,0,0,5,5,24.2703,24.2703,-23.7839,2.08426,13.0419,0.016521,-0.0138703,-0.0404712,0,1,2.2575,0.2275,0.6825,0.01281,0.400892,-0.967948,-0.04578,-0.1022,0.53914
14.2536,0,0,5,5,24.2536,24.2536,-23.756,2.09891,13.0442,0.0162654,-0.0134209,-0.0402835,0,1,3.1675,-0.56,0.28,0.01281,0.400892,-0.967948,-0.04578,-0.1022,0.53914
14.3936,0,0,5,5,24.3936,24.3936,-23.9894,2.30101,13.0368,0.177718,0.14424,0.190564,0,1,2.9225,-0.3675,0.525,0.178486,0.562054,-0.737124,-0.04578,-0.1022,0.53914
14.5314,0,0,5,5,24.5314,24.5314,-24.219,2.49997,13.0284,0.174249,0.140646,0.188796,0,1,2.905,-0.105,0.4375,0.178486,0.562054,-0.737124,-0.04578,-0.1022,0.53914
14.5798,0,0,5,5,24.5798,24.5798,-24.2997,2.59127,13.0259,0.095878,0.0933495,-0.00856459,0,1,3.1325,-0.5075,0.21,0.101382,0.51606,-0.932324,-0.04578,-0.1022,0.53914
14.6271,0,0,5,5,24.6271,24.6271,-24.3785,2.68148,13.0219,0.0943052,0.0921277,-0.00919675,0,1,3.465,0.14,-0.4375,0.101382,0.51606,-0.932324,-0.049,-0.09674,0.53256
14.6277,0,0,5,5,24.6277,24.6277,-24.3795,2.68245,13.0212,-0.0235528,0.0108984,-0.178996,1,1,3.08,0.7,-0.42,-0.016958,0.43493,-1.10081,-0.049,-0.09674,0.53256
14.6277,0,0,5,5,24.6277,24.6277,-24.3795,2.682,13.0206,-0.023545,0.0108985,-0.178996,1,1,3.6225,-0.0875,-0.7,-0.016958,0.43493,-1.10081,-0.049,-0.09674,0.53256
14.4705,0,0,5,5,24.4705,24.4705,-24.1175,2.73907,13.0321,0.0516317,-0.249323,-0.0491741,0,1,3.5875,0.035,-0.805,0.059536,0.1708,-0.973804,-0.049,-0.09674,0.53256
14.316,0,0,5,5,24.316,24.316,-23.8599,2.79501,13.0435,0.0506563,-0.245201,-0.0473915,0,1,3.6925,0.0175,-0.875,0.059536,0.1708,-0.973804,-0.049,-0.09674,0.53256
14.3332,0,0,5,5,24.3332,24.3332,-23.8887,2.8498,13.0411,0.0531028,0.0242598,0.0148206,0,1,3.8675,0.1225,-0.8575,0.062952,0.44042,-0.911828,-0.049,-0.09674,0.53256
14.3508,0,0,5,5,24.3508,24.3508,-23.9179,2.90313,13.0389,0.0521733,0.0238123,0.0145711,0,1,3.2725,-0.21,-0.805,0.062952,0.44042,-0.911828,-0.049,-0.09674,0.53256
14.2958,0,0,5,5,24.2958,24.2958,-23.8264,2.57783,13.0427,-0.315481,-0.0991632,0.0024327,0,1,2.835,-0.4375,-0.91,-0.311954,0.316224,-0.92476,-0.049,-0.09674,0.53256
14.2426,0,0,5,5,24.2426,24.2426,-23.7377,2.25879,13.045,-0.309918,-0.0978427,0.0032714,0,1,2.1525,0.14,-1.155,-0.311954,0.316224,-0.92476,-0.04662,-0.09968,0.53606
14.2438,0,0,5,5,24.2438,24.2438,-23.7396,2.26023,13.0444,0.183896,-0.233067,0.099403,1,1,2.555,0.9275,-0.2625,0.183976,0.18117,-0.829356,-0.04662,-0.09968,0.53606
14.2437,0,0,5,5,24.2437,24.2437,-23.7396,2.26011,13.0446,0.183898,-0.233066,0.0994032,1,1,3.605,-0.1225,-0.1575,0.183976,0.18117,-0.829356,-0.04662,-0.09968,0.53606
14.1932,0,0,5,5,24.1932,24.1932,-23.6553,2.30262,13.0484,0.0387106,-0.089554,0.00689448,0,1,3.15,-0.49,-0.245,0.038918,0.323178,-0.92171,-0.04662,-0.09968,0.53606
14.1414,0,0,5,5,24.1414,24.1414,-23.5691,2.34388,13.0523,0.0379911,-0.0881633,0.00747053,0,1,5.145,-0.7875,-0.28,0.038918,0.323178,-0.92171,-0.04662,-0.09968,0.53606
14.201,0,0,5,5,24.201,24.201,-23.6684,2.33823,13.0492,-0.00430888,0.106627,0.0102226,0,1,4.62,-0.2625,0.315,-0.00366,0.519354,-0.918294,-0.04662,-0.09968,0.53606
14.2601,0,0,5,5,24.2601,24.2601,-23.7669,2.33295,13.0455,-0.00421677,0.105054,0.00953542,0,1,4.1475,0.0525,0,-0.00366,0.519354,-0.918294,-0.04662,-0.09968,0.53606
14.2602,0,0,5,5,24.2602,24.2602,-23.7669,2.33127,13.0455,-0.334264,0.173077,-0.0299303,1,1,3.57,-0.8925,-0.665,-0.335134,0.587308,-0.957456,-0.04662,-0.09968,0.53606
14.2602,0,0,5,5,24.2602,24.2602,-23.767,2.32959,13.0455,-0.334235,0.173076,-0.0299296,1,1,3.57,-0.8925,-0.665,-0.335134,0.587308,-0.957456,-0.04634,-0.091,0.53508
14.2956,0,0,5,5,24.2956,24.2956,-23.8259,2.31623,13.0425,-0.0129152,0.065026,0.00236843,0,1,4.6375,0.4375,-0.4025,-0.012688,0.480314,-0.925004,-0.04634,-0.091,0.53508
14.3303,0,0,5,5,24.3303,24.3303,-23.8839,2.3031,13.0396,-0.0126862,0.0640985,0.0019684,0,1,4.6375,0.4375,-0.4025,-0.012688,0.480314,-0.925004,-0.04634,-0.091,0.53508
14.329,0,0,5,5,24.329,24.329,-23.8817,2.3022,13.039,-0.0174084,-0.119425,0.100589,1,1,4.795,-0.35,-0.77,-0.017446,0.296948,-0.82716,-0.04634,-0.091,0.53508
14.3278,0,0,5,5,24.3278,24.3278,-23.8796,2.30129,13.0385,-0.0173927,-0.119391,0.100604,1,1,4.795,-0.35,-0.77,-0.017446,0.296948,-0.82716,-0.04634,-0.091,0.53508
14.3272,0,0,5,5,24.3272,24.3272,-23.8786,2.30285,13.0381,0.462813,0.0682117,0.352654,1,1,4.165,0.9275,-0.105,0.46482,0.48434,-0.57706,-0.04634,-0.091,0.53508
14.3266,0,0,5,5,24.3266,24.3266,-23.8776,2.3044,13.0377,0.462786,0.068228,0.35266,1,1,4.165,0.9275,-0.105,0.46482,0.48434,-0.57706,-0.04634,-0.091,0.53508
14.4105,0,0,5,5,24.4105,24.4105,-24.0174,2.40054,13.0317,0.0915501,0.11378,0.0719003,0,1,2.3625,0.5775,-0.2275,0.093696,0.532042,-0.85461,-0.04634,-0.091,0.53508
14.4929,0,0,5,5,24.4929,24.4929,-24.1548,2.49498,13.0256,0.0899034,0.111622,0.0708587,0,1,2.3625,0.5775,-0.2275,0.093696,0.532042,-0.85461,-0.04606,-0.098,0.53522
14.5723,0,0,5,5,24.5723,24.5723,-24.2871,2.49284,13.0209,-0.00615454,0.0627421,0.145895,0,1,4.4975,-0.5075,0.245,-0.002806,0.485316,-0.779214,-0.04606,-0.098,0.53522
14.6503,0,0,5,5,24.6503,24.6503,-24.4172,2.49073,13.0163,-0.00611772,0.0606756,0.144962,0,1,4.4975,-0.5075,0.245,-0.002806,0.485316,-0.779214,-0.04606,-0.098,0.53522
14.649,0,0,5,5,24.649,24.649,-24.4151,2.49067,13.0183,-0.22637,-0.11955,-0.163378,1,1,4.7425,-0.5075,0.77,-0.223992,0.305244,-1.08519,-0.04606,-0.098,0.53522
14.6478,0,0,5,5,24.6478,24.6478,-24.4129,2.4906,13.0202,-0.226369,-0.119516,-0.163362,1,1,4.7425,-0.5075,0.77,-0.223992,0.305244,-1.08519,-0.04606,-0.098,0.53522
14.6475,0,0,5,5,24.6475,24.6475,-24.4124,2.49087,13.0216,-0.228682,0.113998,-0.0544264,1,1,3.85,-0.175,0.5075,-0.22631,0.538508,-0.977098,-0.04606,-0.098,0.53522
14.5247,0,0,5,5,24.5247,24.5247,-24.2078,2.49366,13.0316,0.0050079,-0.181838,-0.111606,0,1,2.03,-0.7525,0.0525,0.008418,0.23973,-1.03529,-0.04606,-0.098,0.53522
14.4034,0,0,5,5,24.4034,24.4034,-24.0057,2.49966,13.0405,0.00490318,-0.178619,-0.110171,0,1,2.6425,1.2425,0.3325,0.008418,0.23973,-1.03529,-0.04606,-0.098,0.53522
14.4032,0,0,5,5,24.4032,24.4032,-24.0053,2.50115,13.0412,-0.0932832,0.132323,-0.126275,1,1,3.815,0.63,0.4725,-0.090158,0.550342,-1.05127,-0.04606,-0.098,0.53522
14.4032,0,0,5,5,24.4032,24.4032,-24.0053,2.49953,13.0413,-0.0932549,0.132322,-0.126274,1,1,3.605,-0.875,-0.63,-0.090158,0.550342,-1.05127,-0.04186,-0.0945,0.53816
14.4015,0,0,5,5,24.4015,24.4015,-24.0025,2.49852,13.0409,-0.0213179,0.129313,-0.135475,1,1,5.1625,-0.4375,-0.7175,-0.017934,0.547292,-1.06042,-0.04186,-0.0945,0.53816
14.4002,0,0,5,5,24.4002,24.4002,-24.0003,2.4989,13.0401,-0.0213244,0.129349,-0.135459,1,1,4.865,0.385,-0.5775,-0.017934,0.547292,-1.06042,-0.04186,-0.0945,0.53816
14.4265,0,0,5,5,24.4265,24.4265,-24.0441,2.31678,13.037,-0.190537,0.0754713,-0.0537645,0,1,3.885,0.2975,-0.9275,-0.191052,0.494222,-0.979172,-0.04186,-0.0945,0.53816
14.4549,0,0,5,5,24.4549,24.4549,-24.0916,2.13613,13.0345,-0.187386,0.0746655,-0.0539903,0,1,1.3825,-0.735,-1.0675,-0.191052,0.494222,-0.979172,-0.04186,-0.0945,0.53816
14.4562,0,0,5,5,24.4562,24.4562,-24.0936,2.13544,13.0334,-0.157003,-0.174751,0.221031,1,1,2.45,-0.0875,-1.05,-0.160552,0.245098,-0.706258,-0.04186,-0.0945,0.53816
14.4567,0,0,5,5,24.4567,24.4567,-24.0945,2.13657,13.0322,-0.157023,-0.174764,0.221024,1,1,3.1325,0.8925,-0.63,-0.160552,0.245098,-0.706258,-0.04186,-0.0945,0.53816
14.4134,0,0,5,5,24.4134,24.4134,-24.0223,2.00329,13.0346,-0.123597,-0.0959755,0.0483801,0,1,1.8025,0.4025,-0.2625,-0.12932,0.32269,-0.878156,-0.04186,-0.0945,0.53816
14.3674,0,0,5,5,24.3674,24.3674,-23.9456,1.87096,13.0373,-0.121289,-0.0947855,0.048995,0,1,4.9875,-0.4375,-0.3675,-0.12932,0.32269,-0.878156,-0.04606,-0.09842,0.54306
14.3662,0,0,5,5,24.3662,24.3662,-23.9436,1.87052,13.0377,0.360166,0.040929,-0.0211943,1,1,4.7075,-0.35,-0.105,0.354166,0.458232,-0.947818,-0.04606,-0.09842,0.54306
14.3668,0,0,5,5,24.3668,24.3668,-23.9446,1.87094,13.0385,0.360159,0.0409137,-0.0212013,1,1,3.045,0.0525,0.2275,0.354166,0.458232,-0.947818,-0.04606,-0.09842,0.54306
14.2701,0,0,5,5,24.2701,24.2701,-23.7834,1.96316,13.0447,0.0811984,-0.169727,0.0218123,0,1,3.4825,-0.42,0.0525,0.07564,0.24522,-0.906216,-0.04606,-0.09842,0.54306
14.1753,0,0,5,5,24.1753,24.1753,-23.6255,2.05461,13.0508,0.0796032,-0.167181,0.0228688,0,1,3.255,0.0875,0.1575,0.07564,0.24522,-0.906216,-0.04606,-0.09842,0.54306
14.1507,0,0,5,5,24.1507,24.1507,-23.5844,2.16042,13.0523,0.111531,-0.0171376,-0.0688725,0,1,3.325,0.5075,-0.0525,0.109556,0.394426,-0.997472,-0.04606,-0.09842,0.54306
14.1267,0,0,5,5,24.1267,24.1267,-23.5444,2.26335,13.0538,0.109736,-0.0164701,-0.068657,0,1,3.1675,-0.0175,-0.315,0.109556,0.394426,-0.997472,-0.04606,-0.09842,0.54306
14.1362,0,0,5,5,24.1362,24.1362,-23.5603,2.0767,13.0527,-0.171893,-0.0209254,0.085277,0,1,3.9725,0.21,-0.4725,-0.176534,0.390278,-0.844728,-0.04606,-0.09842,0.54306
14.1461,0,0,5,5,24.1461,24.1461,-23.5769,1.89281,13.0518,-0.168685,-0.0212349,0.0852632,0,1,3.4125,-0.0875,-0.525,-0.176534,0.390278,-0.844728,-0.0448,-0.09394,0.53228
14.2072,0,0,5,5,24.2072,24.2072,-23.6786,1.64842,13.0476,-0.223586,0.045843,0.125737,0,1,3.6575,-0.525,-1.155,-0.235948,0.458964,-0.80398,-0.0448,-0.09394,0.53228
14.2672,0,0,5,5,24.2672,24.2672,-23.7786,1.4082,13.0439,-0.219394,0.0442007,0.125137,0,1,3.6575,-0.525,-1.155,-0.235948,0.458964,-0.80398,-0.0448,-0.09394,0.53228
14.0658,0,0,5,5,24.0658,24.0658,-23.443,1.38021,13.0516,-0.0275662,-0.323657,-0.096395,0,1,2.9575,-0.5775,-0.805,-0.043798,0.086132,-1.02614,-0.0448,-0.09394,0.53228
13.8677,0,0,5,5,23.8677,23.8677,-23.1129,1.35265,13.0591,-0.0270853,-0.318371,-0.0941084,0,1,2.9575,-0.5775,-0.805,-0.043798,0.086132,-1.02614,-0.0448,-0.09394,0.53228
13.8935,0,0,5,5,23.8935,23.8935,-23.1558,1.57851,13.0571,0.214375,0.0145077,0.0669357,0,1,2.8175,0.1575,-0.7525,0.202642,0.419314,-0.865956,-0.0448,-0.09394,0.53228
13.9189,0,0,5,5,23.9189,23.9189,-23.1981,1.80049,13.055,0.210503,0.0138752,0.0665407,0,1,2.8175,0.1575,-0.7525,0.202642,0.419314,-0.865956,-0.0448,-0.09394,0.53228
13.9187,0,0,5,5,23.9187,23.9187,-23.1979,1.80111,13.0567,0.564866,-0.186043,-0.0382103,1,1,3.6925,-0.0525,0.7875,0.558516,0.2196,-0.9699,-0.0448,-0.09394,0.53228
13.919,0,0,5,5,23.919,23.919,-23.1984,1.80049,13.0578,-0.449772,0.0218091,-0.0416559,1,1,3.3075,-0.5775,0.175,-0.460428,0.427244,-0.973316,-0.0462,-0.09422,0.53326
13.9209,0,0,5,5,23.9209,23.9209,-23.2015,1.80045,13.0582,-0.449771,0.0217594,-0.0416771,1,1,1.855,-0.1225,-0.035,-0.460428,0.427244,-0.973316,-0.0462,-0.09422,0.53326
13.922,0,0,5,5,23.922,23.922,-23.2033,1.80262,13.0605,0.259667,-0.445893,0.0757251,1,1,2.5375,0.6475,1.4525,0.252052,-0.039894,-0.856806,-0.0462,-0.09422,0.53326
13.9231,0,0,5,5,23.9231,23.9231,-23.2051,1.80479,13.0628,0.259629,-0.445921,0.0757114,1,1,2.5375,0.6475,1.4525,0.252052,-0.039894,-0.856806,-0.0462,-0.09422,0.53326
13.9063,0,0,5,5,23.9063,23.9063,-23.1772,1.75588,13.0637,-0.049063,0.00711704,-0.0970611,0,1,2.6775,-0.2625,-0.385,-0.058804,0.412238,-1.02846,-0.0462,-0.09422,0.53326
13.8899,0,0,5,5,23.8899,23.8899,-23.1498,1.70782,13.0645,-0.0482247,0.00754648,-0.0968498,0,1,2.6775,-0.2625,-0.385,-0.058804,0.412238,-1.02846,-0.0462,-0.09422,0.53326
13.8898,0,0,5,5,23.8898,23.8898,-23.1496,1.70918,13.065,0.18877,0.0723995,-0.272419,1,1,3.71,0.6125,0.3325,0.179218,0.47702,-1.20268,-0.0462,-0.09422,0.53326
13.8907,0,0,5,5,23.8907,23.8907,-23.1511,1.70945,13.0646,0.069102,0.434603,-0.166694,1,1,2.7475,0.245,-0.42,0.059048,0.838872,-1.09776,-0.0462,-0.09422,0.53326
13.8928,0,0,5,5,23.8928,23.8928,-23.1547,1.70686,13.0636,0.0691473,0.434545,-0.166718,1,1,1.61,-1.155,-1.4175,0.059048,0.838872,-1.09776,-0.04354,-0.0994,0.53746
13.8936,0,0,5,5,23.8936,23.8936,-23.1561,1.70658,13.0632,0.348205,-0.0999033,0.458589,1,1,2.8525,-0.0525,-0.5425,0.339282,0.305,-0.477264,-0.04354,-0.0994,0.53746
13.8934,0,0,5,5,23.8934,23.8934,-23.1557,1.70729,13.0625,0.348192,-0.0998969,0.458592,1,1,3.8325,0.5425,-0.4725,0.339282,0.305,-0.477264,-0.04354,-0.0994,0.53746
13.8951,0,0,5,5,23.8951,23.8951,-23.1585,1.70471,13.0618,-0.356258,0.336783,0.0591138,1,1,2.03,-1.225,-1.225,-0.368196,0.741272,-0.873642,-0.04354,-0.0994,0.53746
13.8949,0,0,5,5,23.8949,23.8949,-23.1582,1.70708,13.0604,-0.356299,0.336788,0.0591146,1,1,3.78,1.5925,-0.455,-0.368196,0.741272,-0.873642,-0.04354,-0.0994,0.53746
13.834,0,0,5,5,23.834,23.834,-23.0567,2.122,13.064,0.434502,-0.112625,-0.00459223,0,1,4.585,1.575,0.595,0.433222,0.290604,-0.937326,-0.04354,-0.0994,0.53746
13.7778,0,0,5,5,23.7778,23.7778,-22.9629,2.52642,13.0696,0.42745,-0.111008,-0.00421653,0,1,1.1025,-0.805,0.42,0.433222,0.290604,-0.937326,-0.04354,-0.0994,0.53746
13.7797,0,0,5,5,23.7797,23.7797,-22.9662,2.52426,13.07,-0.131104,-0.205588,-0.168251,1,1,1.75,-1.26,-0.525,-0.127734,0.196176,-1.10007,-0.04354,-0.0994,0.53746
13.7793,0,0,5,5,23.7793,23.7793,-22.9655,2.52528,13.0707,-0.131121,-0.205576,-0.168246,1,1,3.99,0.4025,0.315,-0.127734,0.196176,-1.10007,-0.04592,-0.09814,0.53578
13.6785,0,0,5,5,23.6785,23.6785,-22.7974,2.53953,13.0792,0.0108898,-0.155731,-0.0576928,0,1,3.885,1.3125,0.9975,0.015128,0.243268,-0.991494,-0.04592,-0.09814,0.53578
13.5805,0,0,5,5,23.5805,23.5805,-22.6341,2.5492,13.087,0.0107212,-0.153101,-0.0566001,0,1,2.87,-0.875,-0.315,0.015128,0.243268,-0.991494,-0.04592,-0.09814,0.53578
13.5129,0,0,5,5,23.5129,23.5129,-22.5216,2.46914,13.0918,-0.0782683,-0.0983094,-0.0650113,0,1,2.6075,-0.98,-0.77,-0.07564,0.296216,-1.00064,-0.04592,-0.09814,0.53578
13.4467,0,0,5,5,23.4467,23.4467,-22.4111,2.39247,13.0971,-0.0769313,-0.0965516,-0.064223,0,1,2.52,-0.0525,0.0525,-0.07564,0.296216,-1.00064,-0.04592,-0.09814,0.53578
13.4352,0,0,5,5,23.4352,23.4352,-22.3921,2.62331,13.0983,0.241224,-0.0121541,-0.027129,0,1,2.695,0.4375,0.07,0.247904,0.380152,-0.9638,-0.04592,-0.09814,0.53578
13.4254,0,0,5,5,23.4254,23.4254,-22.3757,2.84782,13.097,0.23731,-0.011819,-0.0271932,0,1,1.435,-0.2975,-1.785,0.247904,0.380152,-0.9638,-0.04592,-0.09814,0.53578
13.2074,0,0,5,5,23.2074,23.2074,-22.0123,2.76185,13.1133,-0.0870162,-0.360026,-0.103419,0,1,1.7675,-0.91,-1.68,-0.0793,0.026474,-1.04188,-0.04592,-0.09814,0.53578
12.9897,0,0,5,5,22.9897,22.9897,-21.6495,2.68064,13.1288,-0.0856004,-0.354181,-0.101005,0,1,4.725,0.9625,-0.91,-0.0793,0.026474,-1.04188,-0.04592,-0.09786,0.53382
12.9905,0,0,5,5,22.9905,22.9905,-21.6508,2.68141,13.1273,-0.292504,0.123925,-0.171832,1,1,2.9225,0.735,-0.875,-0.287066,0.504104,-1.11215,-0.04592,-0.09786,0.53382
12.992,0,0,5,5,22.992,22.992,-21.6533,2.67845,13.1264,-0.292452,0.123885,-0.171846,1,1,2.2575,-1.4175,-1.3825,-0.287066,0.504104,-1.11215,-0.04592,-0.09786,0.53382
12.9928,0,0,5,5,22.9928,22.9928,-21.6546,2.67972,13.1246,0.238053,-0.103048,-0.180953,1,1,2.8875,1.085,-0.9625,0.245708,0.277428,-1.12118,-0.04592,-0.09786,0.53382
12.9941,0,0,5,5,22.9941,22.9941,-21.6569,2.68146,13.1243,0.238023,-0.103084,-0.180969,1,1,2.345,1.015,-0.0525,0.245708,0.277428,-1.12118,-0.04592,-0.09786,0.53382
12.9967,0,0,5,5,22.9967,22.9967,-21.6611,2.68035,13.1248,-0.0493926,0.25309,-0.146324,1,1,1.19,-0.7,-0.2625,-0.042944,0.633302,-1.08678,-0.04592,-0.09786,0.53382
12.9971,0,0,5,5,22.9971,22.9971,-21.6618,2.67814,13.1262,-0.0493542,0.253079,-0.146327,1,1,3.22,-1.505,0.035,-0.042944,0.633302,-1.08678,-0.04592,-0.09786,0.53382
13.1394,0,0,5,5,23.1394,23.1394,-21.899,3.17541,13.1127,0.490608,0.167578,0.242089,0,1,6.0025,4.3225,0.6825,0.508008,0.551562,-0.699426,-0.04592,-0.09786,0.53382
13.2798,0,0,5,5,23.2798,23.2798,-22.133,3.66529,13.0972,0.482073,0.16399,0.240088,0,1,6.0025,4.3225,0.6825,0.508008,0.551562,-0.699426,-0.03962,-0.09436,0.53144
13.2895,0,0,5,5,23.2895,23.2895,-22.1492,3.57228,13.0975,-0.0886261,-0.00594319,0.0514736,0,1,2.835,-1.3125,-0.035,-0.066734,0.382104,-0.886574,-0.03962,-0.09436,0.53144
13.299,0,0,5,5,23.299,23.299,-22.165,3.48087,13.0978,-0.0870339,-0.00623657,0.05146,0,1,2.835,-1.3125,-0.035,-0.066734,0.382104,-0.886574,-0.03962,-0.09436,0.53144
13.399,0,0,5,5,23.399,23.399,-22.3316,3.69475,13.0875,0.207002,0.12917,0.11039,0,1,2.2575,0.42,-0.105,0.232288,0.519964,-0.826794,-0.03962,-0.09436,0.53144
13.4973,0,0,5,5,23.4973,23.4973,-22.4954,3.90501,13.0768,0.20334,0.126625,0.109078,0,1,2.2575,0.42,-0.105,0.232288,0.519964,-0.826794,-0.03962,-0.09436,0.53144
13.3413,0,0,5,5,23.3413,23.3413,-22.2355,3.84092,13.093,-0.0649988,-0.261733,-0.00691484,0,1,1.1375,-0.14,-1.3125,-0.038308,0.127856,-0.94367,-0.03962,-0.09436,0.53144
13.4588,0,0,5,5,23.4588,23.4588,-22.4313,4.09387,13.0784,0.252048,0.160474,0.127611,0,1,4.095,-0.56,-1.1375,0.284504,0.55266,-0.808616,-0.03962,-0.09436,0.53144
13.5754,0,0,5,5,23.5754,23.5754,-22.6257,4.34335,13.0642,0.247706,0.157471,0.126018,0,1,3.0975,-0.3675,-0.42,0.284504,0.55266,-0.808616,-0.03962,-0.09436,0.53144
13.575,0,0,5,5,23.575,23.575,-22.6251,4.3417,13.0642,-0.372207,0.02131,-0.175322,1,1,3.9725,-0.91,-0.595,-0.338062,0.41663,-1.10764,-0.03962,-0.09436,0.53144
13.5762,0,0,5,5,23.5762,23.5762,-22.627,4.34401,13.0636,-0.372247,0.02128,-0.175338,1,1,2.5375,1.3825,-0.0525,-0.338062,0.41663,-1.10764,-0.04802,-0.09576,0.53774
13.5785,0,0,5,5,23.5785,23.5785,-22.6309,4.34697,13.0626,0.277893,0.0670168,-0.103688,1,1,1.47,1.8375,-0.1575,0.314882,0.46238,-1.03651,-0.04802,-0.09576,0.53774
13.5819,0,0,5,5,23.5819,23.5819,-22.6364,4.34763,13.0629,0.277881,0.0669279,-0.103726,1,1,0.4725,0.2975,0.035,0.314882,0.46238,-1.03651,-0.04802,-0.09576,0.53774
13.4525,0,0,5,5,23.4525,23.4525,-22.4208,4.19006,13.0805,-0.155753,-0.216803,-0.0290675,0,1,0.6475,-0.28,0.35,-0.123342,0.175558,-0.964044,-0.04802,-0.09576,0.53774
13.3226,0,0,5,5,23.3226,23.3226,-22.2043,4.035,13.0976,-0.153054,-0.213391,-0.0274574,0,1,3.15,-0.42,0.5775,-0.123342,0.175558,-0.964044,-0.04802,-0.09576,0.53774
13.1014,0,0,5,5,23.1014,23.1014,-21.8357,4.42261,13.126,0.406566,-0.406078,-0.0397762,0,1,5.0925,0.6125,0.8575,0.445422,-0.023058,-0.978196,-0.04802,-0.09576,0.53774
12.8822,0,0,5,5,22.8822,22.8822,-21.4704,4.80178,13.1571,0.39997,-0.399976,-0.0379261,0,1,6.02,-0.8925,0.6825,0.445422,-0.023058,-0.978196,-0.04802,-0.09576,0.53774
12.786,0,0,5,5,22.786,22.786,-21.31,4.77814,13.1723,-0.0232398,-0.150205,-0.0608512,0,1,2.7825,-0.595,0.56,0.020008,0.22387,-1.00199,-0.04802,-0.09576,0.53774
12.6923,0,0,5,5,22.6923,22.6923,-21.1539,4.75679,13.1853,-0.0228684,-0.147686,-0.0598393,0,1,1.9775,0.8575,-0.07,0.020008,0.22387,-1.00199,-0.04298,-0.09772,0.53354
12.6954,0,0,5,5,22.6954,22.6954,-21.1589,4.75715,13.1843,-0.175461,0.420854,-0.119747,1,1,0.8225,0.4025,-0.7,-0.133224,0.791902,-1.0614,-0.04298,-0.09772,0.53354
12.7001,0,0,5,5,22.7001,22.7001,-21.1668,4.75691,13.183,-0.175457,0.420727,-0.119796,1,1,-0.735,0.1575,-1.05,-0.133224,0.791902,-1.0614,-0.04298,-0.09772,0.53354
12.669,0,0,5,5,22.669,22.669,-21.1149,4.74797,13.186,-0.0117814,-0.0621808,0.0320135,0,1,4.9,-0.3325,-1.085,0.030988,0.30866,-0.911096,-0.04298,-0.09772,0.53354
12.638,0,0,5,5,22.638,22.638,-21.0633,4.73775,13.1891,-0.0116036,-0.0613482,0.0323504,0,1,5.285,-1.1725,-1.2425,0.030988,0.30866,-0.911096,-0.04298,-0.09772,0.53354
12.6801,0,0,5,5,22.6801,22.6801,-21.1334,4.68187,13.1821,-0.0552168,0.0288356,0.105878,0,1,4.7775,-1.3825,-1.505,-0.013786,0.399916,-0.837774,-0.04298,-0.09772,0.53354
12.7215,0,0,5,5,22.7215,22.7215,-21.2024,4.63057,13.1751,-0.0543245,0.02769,0.105512,0,1,4.725,0.6125,-0.77,-0.013786,0.399916,-0.837774,-0.04298,-0.09772,0.53354
12.8486,0,0,5,5,22.8486,22.8486,-21.4143,4.75736,13.1564,0.110149,0.149747,0.154536,0,1,1.8375,1.645,-0.6475,0.153598,0.52521,-0.787632,-0.04298,-0.09772,0.53354
12.9747,0,0,5,5,22.9747,22.9747,-21.6245,4.88137,13.137,0.107992,0.146412,0.153026,0,1,0.77,1.47,-1.0675,0.153598,0.52521,-0.787632,-0.04536,-0.09268,0.5355
12.9785,0,0,5,5,22.9785,22.9785,-21.6308,4.8823,13.1363,-0.318682,-0.0588613,0.242368,1,1,0.14,0.6475,-0.42,-0.274866,0.32025,-0.698938,-0.04536,-0.09268,0.5355
12.9798,0,0,5,5,22.9798,22.9798,-21.6329,4.8818,13.1377,-0.318673,-0.0588968,0.242355,1,1,2.31,-0.5775,0.4025,-0.274866,0.32025,-0.698938,-0.04536,-0.09268,0.5355
12.978,0,0,5,5,22.978,22.978,-21.6301,4.88,13.1395,-0.0460283,-0.00523768,-0.304499,1,1,5.1275,-1.3475,0.28,-0.001098,0.373808,-1.24159,-0.04536,-0.09268,0.5355
12.9765,0,0,5,5,22.9765,22.9765,-21.6275,4.87956,13.1401,-0.0460206,-0.00519696,-0.304482,1,1,4.9875,-0.385,0.0175,-0.001098,0.373808,-1.24159,-0.04536,-0.09268,0.5355
12.9748,0,0,5,5,22.9748,22.9748,-21.6247,4.88056,13.1405,-0.187933,-0.302285,-0.177214,1,1,5.18,0.4725,0.14,-0.143594,0.076982,-1.11532,-0.04536,-0.09268,0.5355
12.9746,0,0,5,5,22.9746,22.9746,-21.6244,4.88204,13.1411,-0.187959,-0.302278,-0.177213,1,1,3.7625,0.6825,0.385,-0.143594,0.076982,-1.11532,-0.04536,-0.09268,0.5355
12.9775,0,0,5,5,22.9775,22.9775,-21.6291,4.88166,13.1406,-0.342361,0.1947,-0.376051,1,1,0.945,-0.105,-0.595,-0.298656,0.573522,-1.3126,-0.04536,-0.09268,0.5355
12.9806,0,0,5,5,22.9806,22.9806,-21.6343,4.88243,13.14,-0.342374,0.194616,-0.376086,1,1,0.7175,0.56,-0.4375,-0.298656,0.573522,-1.3126,-0.03766,-0.09772,0.53326
12.8918,0,0,5,5,22.8918,22.8918,-21.4864,5.07053,13.1526,0.189257,-0.146796,-0.0328707,0,1,4.4275,0.56,-0.105,0.23851,0.22997,-0.972706,-0.03766,-0.09772,0.53326
12.8029,0,0,5,5,22.8029,22.8029,-21.3382,5.25149,13.1648,0.186111,-0.144294,-0.0321951,0,1,5.9325,-1.435,-1.295,0.23851,0.22997,-0.972706,-0.03766,-0.09772,0.53326
12.801,0,0,5,5,22.801,22.801,-21.335,5.24807,13.1637,-0.113292,0.00584955,0.109959,1,1,5.46,-1.645,-1.5575,-0.06222,0.379908,-0.831674,-0.03766,-0.09772,0.53326
12.7985,0,0,5,5,22.7985,22.7985,-21.3309,5.24756,13.1634,-0.113283,0.00591605,0.109986,1,1,5.9325,-0.1925,-0.5775,-0.06222,0.379908,-0.831674,-0.03766,-0.09772,0.53326
12.8606,0,0,5,5,22.8606,22.8606,-21.4343,5.23966,13.1541,-0.00939671,0.0942447,0.0363105,0,1,2.3975,0.805,0.0525,0.041968,0.469822,-0.904142,-0.03766,-0.09772,0.53326
12.9228,0,0,5,5,22.9228,22.9228,-21.5381,5.23177,13.1431,-0.00925947,0.0925625,0.0356618,0,1,1.33,1.1375,-0.98,0.041968,0.469822,-0.904142,-0.03766,-0.09772,0.53326
12.9263,0,0,5,5,22.9263,22.9263,-21.5438,5.23442,13.1417,-0.121073,0.0140668,-0.227734,1,1,0.49,1.7675,-0.49,-0.070272,0.391498,-1.16547,-0.03766,-0.09772,0.53326
12.9277,0,0,5,5,22.9277,22.9277,-21.5461,5.2352,13.1441,-0.121086,0.0140287,-0.22775,1,1,2.135,-0.105,1.2425,-0.070272,0.391498,-1.16547,-0.03766,-0.09772,0.53326
12.9256,0,0,5,5,22.9256,22.9256,-21.5427,5.23395,13.147,-0.145361,0.0880916,-0.202277,1,1,5.355,-1.295,1.0325,-0.094672,0.46543,-1.14021,-0.04284,-0.0987,0.52696
12.9244,0,0,5,5,22.9244,22.9244,-21.5407,5.23255,13.1497,-0.145337,0.0881231,-0.202262,1,1,4.585,-1.33,0.875,-0.094672,0.46543,-1.14021,-0.04284,-0.0987,0.52696
12.8696,0,0,5,5,22.8696,22.8696,-21.4493,5.68276,13.1598,0.394984,-0.156332,0.177167,0,1,5.4075,-0.63,0.5425,0.455792,0.219478,-0.763598,-0.04284,-0.0987,0.52696
12.8196,0,0,5,5,22.8196,22.8196,-21.366,6.12984,13.1698,0.387223,-0.154694,0.176947,0,1,1.54,1.575,1.05,0.455792,0.219478,-0.763598,-0.04284,-0.0987,0.52696
12.8225,0,0,5,5,22.8225,22.8225,-21.3708,6.12993,13.1704,-0.381297,-0.0232404,-0.141766,1,1,0.875,-0.0875,0.105,-0.31598,0.350872,-1.07982,-0.04284,-0.0987,0.52696
12.8246,0,0,5,5,22.8246,22.8246,-21.3744,6.13197,13.1697,-0.381333,-0.023296,-0.141792,1,1,1.6625,1.26,-0.1925,-0.31598,0.350872,-1.07982,-0.04284,-0.0987,0.52696
12.7997,0,0,5,5,22.7997,22.7997,-21.3329,6.46343,13.174,0.298704,-0.0849241,0.114104,0,1,4.5325,1.645,0.2975,0.37271,0.288408,-0.825574,-0.04284,-0.0987,0.52696
12.7745,0,0,5,5,22.7745,22.7745,-21.2908,6.78509,13.179,0.293127,-0.0840091,0.113766,0,1,5.1975,-0.875,-0.315,0.37271,0.288408,-0.825574,-0.04284,-0.0987,0.52696
12.7791,0,0,5,5,22.7791,22.7791,-21.2985,6.9754,13.1775,0.163242,-0.0350152,0.119002,0,1,5.8275,-1.785,-0.98,0.245586,0.33733,-0.819962,-0.04816,-0.10472,0.52976
12.8844,0,0,5,5,22.8844,22.8844,-21.4739,7.03643,13.1544,0.0726496,0.191067,0.031955,0,1,5.53,-0.7525,-1.365,0.155672,0.565958,-0.905118,-0.04816,-0.10472,0.52976
12.9906,0,0,5,5,22.9906,22.9906,-21.651,7.1,13.1316,0.0715484,0.188266,0.030701,0,1,2.9925,1.225,-0.5425,0.155672,0.565958,-0.905118,-0.04816,-0.10472,0.52976
12.9926,0,0,5,5,22.9926,22.9926,-21.6544,7.10018,13.1299,-0.171183,0.438693,-0.00915629,1,1,1.82,0.455,-1.12,-0.088084,0.81618,-0.944646,-0.04816,-0.10472,0.52976
12.9959,0,0,5,5,22.9959,22.9959,-21.6598,7.10272,13.1281,-0.171227,0.438609,-0.00919585,1,1,0.7,1.7675,-0.665,-0.088084,0.81618,-0.944646,-0.04816,-0.10472,0.52976
12.9951,0,0,5,5,22.9951,22.9951,-21.6585,7.10412,13.1283,-0.00469439,0.0805551,0.274575,1,1,4.3225,0.735,0.105,0.079178,0.458476,-0.66307,-0.04816,-0.10472,0.52976
12.9983,0,0,5,5,22.9983,22.9983,-21.6638,7.10379,13.1301,-0.00468879,0.0804683,0.274541,1,1,0.455,-0.5775,0.6825,0.079178,0.458476,-0.66307,-0.04816,-0.10472,0.52976
12.9963,0,0,5,5,22.9963,22.9963,-21.6605,7.10336,13.1318,-0.287257,0.0214119,0.195876,1,1,5.3375,-0.595,0.56,-0.204594,0.399428,-0.74115,-0.04816,-0.10472,0.52976
12.9937,0,0,5,5,22.9937,22.9937,-21.6562,7.10307,13.1332,-0.287252,0.0214813,0.195904,1,1,5.9325,-0.4375,0.385,-0.204594,0.399428,-0.74115,-0.04606,-0.09702,0.53018
12.9941,0,0,5,5,22.9941,22.9941,-21.6569,7.10646,13.1333,0.208958,-0.452623,0.340481,1,1,3.22,1.82,0.525,0.293776,-0.074176,-0.597678,-0.04606,-0.09702,0.53018
12.9966,0,0,5,5,22.9966,22.9966,-21.661,7.10678,13.1325,0.208953,-0.452689,0.340454,1,1,1.3475,0.3325,-0.5775,0.293776,-0.074176,-0.597678,-0.04606,-0.09702,0.53018
12.9263,0,0,5,5,22.9263,22.9263,-21.5439,6.92814,13.1469,-0.178651,-0.11766,-0.0346679,0,1,-0.1575,-0.595,-0.9625,-0.098576,0.258762,-0.970998,-0.04606,-0.09702,0.53018
12.8504,0,0,5,5,22.8504,22.8504,-21.4173,6.7552,13.1601,-0.175654,-0.115749,-0.0335298,0,1,6.405,1.015,-0.7,-0.098576,0.258762,-0.970998,-0.04606,-0.09702,0.53018
12.8485,0,0,5,5,22.8485,22.8485,-21.4141,6.75512,13.1596,-0.15342,0.274252,-0.0964592,1,1,5.4075,0.0525,-0.525,-0.07625,0.648308,-1.03346,-0.04606,-0.09702,0.53018
12.8475,0,0,5,5,22.8475,22.8475,-21.4125,6.75307,13.1591,-0.153385,0.274277,-0.0964449,1,1,4.55,-0.9975,-0.9975,-0.07625,0.648308,-1.03346,-0.04606,-0.09702,0.53018
12.8976,0,0,5,5,22.8976,22.8976,-21.496,6.80371,13.1475,0.0593092,0.0957617,0.0121066,0,1,7.56,-1.5925,-1.4175,0.138226,0.471286,-0.925126,-0.04606,-0.09702,0.53018
12.9513,0,0,5,5,22.9513,22.9513,-21.5854,6.85731,13.1363,0.0583803,0.0943614,0.0114342,0,1,3.465,0.455,-0.4725,0.138226,0.471286,-0.925126,-0.0483,-0.09632,0.52976
12.9528,0,0,5,5,22.9528,22.9528,-21.5879,6.85829,13.135,0.0367389,-0.0797086,-0.296324,1,1,2.2925,0.8225,-0.77,0.11651,0.297436,-1.23049,-0.0483,-0.09632,0.52976
12.9557,0,0,5,5,22.9557,22.9557,-21.5929,6.85805,13.1342,0.0367431,-0.0797891,-0.296355,1,1,0.8575,0.035,-0.735,0.11651,0.297436,-1.23049,-0.0483,-0.09632,0.52976
13.0164,0,0,5,5,23.0164,23.0164,-21.6941,6.70956,13.121,-0.153117,0.0972621,0.0258999,0,1,2.6425,1.8025,-0.455,-0.076738,0.476044,-0.910364,-0.0483,-0.09632,0.52976
13.0748,0,0,5,5,23.0748,23.0748,-21.7913,6.56025,13.1118,-0.150528,0.0955852,0.0255553,0,1,3.6225,-0.77,0.735,-0.076738,0.476044,-0.910364,-0.0483,-0.09632,0.52976
12.9344,0,0,5,5,22.9344,22.9344,-21.5573,6.77793,13.1413,0.197885,-0.24891,0.0275039,0,1,4.69,-1.1025,0.875,0.27694,0.127978,-0.90951,-0.0483,-0.09632,0.52976
12.7956,0,0,5,5,22.7956,22.7956,-21.3259,6.99144,13.1709,0.194186,-0.245015,0.0285536,0,1,5.25,-1.33,0.6475,0.27694,0.127978,-0.90951,-0.0483,-0.09632,0.52976
12.7953,0,0,5,5,22.7953,22.7953,-21.3255,6.99063,13.1732,-0.0208301,0.00742664,0.138474,1,1,3.675,-0.9275,0.8225,0.061,0.380152,-0.800442,-0.0483,-0.09632,0.52976
12.7964,0,0,5,5,22.7964,22.7964,-21.3273,6.99404,13.1732,-0.0208891,0.00740062,0.138456,1,1,2.6075,1.8725,0.4375,0.061,0.380152,-0.800442,-0.04312,-0.10374,0.53228
12.7986,0,0,5,5,22.7986,22.7986,-21.331,6.99522,13.1733,-0.0568693,0.139361,-0.127139,1,1,1.505,0.6125,0.07,0.024888,0.512034,-1.06396,-0.04312,-0.10374,0.53228
12.7996,0,0,5,5,22.7996,22.7996,-21.3326,6.99576,13.173,-0.0568787,0.139335,-0.12715,1,1,2.7125,0.3675,-0.315,0.024888,0.512034,-1.06396,-0.04312,-0.10374,0.53228
12.7439,0,0,5,5,22.7439,22.7439,-21.2399,6.9022,13.1834,-0.0932827,-0.0627026,-0.112366,0,1,4.06,0.6125,-0.525,-0.013298,0.308782,-1.05005,-0.04312,-0.10374,0.53228
12.6892,0,0,5,5,22.6892,22.6892,-21.1487,6.81021,13.1933,-0.0916886,-0.0612991,-0.111617,0,1,4.06,0.6125,-0.525,-0.013298,0.308782,-1.05005,-0.04312,-0.10374,0.53228
12.6869,0,0,5,5,22.6869,22.6869,-21.1449,6.80937,13.193,0.121047,0.109007,-0.258023,1,1,5.775,-0.385,-0.6125,0.200324,0.47885,-1.19536,-0.04312,-0.10374,0.53228
12.6846,0,0,5,5,22.6846,22.6846,-21.141,6.80854,13.1927,0.121062,0.109068,-0.257997,1,1,5.775,-0.385,-0.6125,0.200324,0.47885,-1.19536,-0.04312,-0.10374,0.53228
12.6945,0,0,5,5,22.6945,22.6945,-21.1574,6.87592,13.1896,0.0695989,0.0168924,0.00131404,0,1,3.4475,0.42,-0.805,0.149816,0.386984,-0.937814,-0.04312,-0.10374,0.53228
12.7041,0,0,5,5,22.7041,22.7041,-21.1736,6.94215,13.1866,0.0684514,0.016682,0.00108346,0,1,3.4475,0.42,-0.805,0.149816,0.386984,-0.937814,-0.04956,-0.09744,0.53172
12.6964,0,0,5,5,22.6964,22.6964,-21.1607,6.95041,13.1873,0.00659355,-0.0144911,-0.00401642,0,1,2.485,1.085,-0.5425,0.08784,0.35563,-0.942938,-0.04956,-0.09744,0.53172
12.6959,0,0,5,5,22.6959,22.6959,-21.1598,6.95126,13.1866,-0.220235,0.18276,-0.101141,1,1,4.2,0.6125,-0.455,-0.139934,0.55266,-1.03932,-0.04956,-0.09744,0.53172
12.6949,0,0,5,5,22.6949,22.6949,-21.1582,6.94957,13.1879,-0.220206,0.182784,-0.101128,1,1,4.3925,-1.19,0.07,-0.139934,0.55266,-1.03932,-0.04956,-0.09744,0.53172
12.4963,0,0,5,5,22.4963,22.4963,-20.8271,6.91776,13.2287,-0.0368186,-0.326038,-0.0825355,0,1,4.585,-0.63,0.1925,0.043676,0.03904,-1.02297,-0.04956,-0.09744,0.53172
12.3026,0,0,5,5,22.3026,22.3026,-20.5044,6.88614,13.2681,-0.0362706,-0.320829,-0.0804998,0,1,2.9925,-0.56,-0.175,0.043676,0.03904,-1.02297,-0.04956,-0.09744,0.53172
12.14,0,0,5,5,22.14,22.14,-20.2333,7.01057,13.3013,0.123879,-0.277498,-0.0572265,0,1,1.9075,-0.07,-0.245,0.206668,0.077836,-1.00125,-0.04956,-0.09744,0.53172
11.9779,0,0,5,5,21.9779,21.9779,-19.9632,7.13375,13.3346,0.121745,-0.273014,-0.0558675,0,1,3.7625,0.455,-0.07,0.206668,0.077836,-1.00125,-0.04956,-0.09744,0.53172
12.0959,0,0,5,5,22.0959,22.0959,-20.1598,6.91829,13.3103,-0.229747,0.225569,0.00855869,0,1,3.7275,-0.14,-0.4375,-0.15006,0.579256,-0.936594,-0.0476,-0.098,0.53998
12.0962,0,0,5,5,22.0962,22.0962,-20.1603,6.91705,13.3087,0.0954916,-0.0709629,0.112081,1,1,3.4475,-0.35,-1.4,0.176534,0.28304,-0.83387,-0.0476,-0.098,0.53998
12.0948,0,0,5,5,22.0948,22.0948,-20.158,6.91642,13.3078,0.0955025,-0.0709265,0.112096,1,1,4.935,-0.1575,-0.8925,0.176534,0.28304,-0.83387,-0.0476,-0.098,0.53998
12.0936,0,0,5,5,22.0936,22.0936,-20.156,6.91556,13.3069,-0.0802723,0.0445151,0.184895,1,1,4.7775,-0.2975,-0.91,0,0.39833,-0.761646,-0.0476,-0.098,0.53998
12.0939,0,0,5,5,22.0939,22.0939,-20.1565,6.91386,13.3054,-0.0802428,0.0445062,0.184895,1,1,3.43,-0.6475,-1.3825,0,0.39833,-0.761646,-0.0476,-0.098,0.53998
12.2003,0,0,5,5,22.2003,22.2003,-20.3338,7.03976,13.2823,0.0996831,0.102537,0.179648,0,1,2.7125,0.0175,-1.3825,0.182878,0.459086,-0.76555,-0.0476,-0.098,0.53998
12.303,0,0,5,5,22.303,22.303,-20.5049,7.16519,13.2605,0.0975108,0.0998529,0.17836,0,1,4.4275,0.665,-0.28,0.182878,0.459086,-0.76555,-0.0476,-0.098,0.53998
12.3023,0,0,5,5,22.3023,22.3023,-20.5039,7.16501,13.2605,-0.130758,0.330323,-0.0302766,1,1,4.2,-0.0875,-0.315,-0.04636,0.6893,-0.972584,-0.0476,-0.098,0.53998
12.301,0,0,5,5,22.301,22.301,-20.5017,7.16547,13.2599,-0.130766,0.330359,-0.0302645,1,1,4.8475,0.3675,-0.4725,-0.04636,0.6893,-0.972584,-0.0469,-0.10178,0.53326
12.2994,0,0,5,5,22.2994,22.2994,-20.4991,7.16618,13.2604,-0.187998,0.213649,-0.0955357,1,1,5.04,0.2975,0.14,-0.103822,0.572668,-1.03737,-0.0469,-0.10178,0.53326
12.3001,0,0,5,5,22.3001,22.3001,-20.5002,7.16629,13.2625,-0.188,0.213631,-0.0955426,1,1,2.835,-0.3675,0.91,-0.103822,0.572668,-1.03737,-0.0469,-0.10178,0.53326
12.384,0,0,5,5,22.384,22.384,-20.6401,6.99835,13.2464,-0.176708,0.172521,-0.028065,0,1,2.73,0.14,0.3675,-0.095404,0.533994,-0.9699,-0.0469,-0.10178,0.53326
12.4677,0,0,5,5,22.4677,22.4677,-20.7795,6.83205,13.2312,-0.173827,0.170138,-0.0285924,0,1,1.61,-0.5425,0.2975,-0.095404,0.533994,-0.9699,-0.0469,-0.10178,0.53326
12.4679,0,0,5,5,22.4679,22.4679,-20.7798,6.83303,13.2329,0.0590441,-0.313977,0.195785,1,1,3.29,0.1925,0.8575,0.13847,0.050386,-0.74725,-0.0469,-0.10178,0.53326
12.466,0,0,5,5,22.466,22.466,-20.7766,6.83329,13.2346,0.0590396,-0.313925,0.195804,1,1,5.3025,-0.21,0.7175,0.13847,0.050386,-0.74725,-0.0469,-0.10178,0.53326
12.466,0,0,5,5,22.466,22.466,-20.7766,6.83166,13.2348,-0.443519,-0.103501,-0.159268,1,1,3.5875,-0.9275,-0.49,-0.366244,0.260592,-1.09959,-0.0469,-0.10178,0.53326
12.466,0,0,5,5,22.466,22.466,-20.7766,6.83004,13.235,-0.44349,-0.103503,-0.159265,1,1,3.5875,-0.9275,-0.49,-0.366244,0.260592,-1.09959,-0.04844,-0.10066,0.52556
12.465,0,0,5,5,22.465,22.465,-20.7751,6.8308,13.2353,0.28043,-0.166372,-0.361384,1,1,4.445,0.3675,0.035,0.360754,0.197762,-1.30015,-0.04844,-0.10066,0.52556
12.4641,0,0,5,5,22.4641,22.4641,-20.7735,6.83156,13.2355,0.280416,-0.166347,-0.361376,1,1,4.445,0.3675,0.035,0.360754,0.197762,-1.30015,-0.04844,-0.10066,0.52556
12.4794,0,0,5,5,22.4794,22.4794,-20.7991,6.84225,13.232,0.0144204,0.0296269,-0.0104133,0,1,2.45,-0.28,-0.84,0.093818,0.393938,-0.951722,-0.04844,-0.10066,0.52556
12.4945,0,0,5,5,22.4945,22.4945,-20.8242,6.85276,13.2285,0.0142383,0.029228,-0.0105883,0,1,2.45,-0.28,-0.84,0.093818,0.393938,-0.951722,-0.04844,-0.10066,0.52556
12.501,0,0,5,5,22.501,22.501,-20.835,6.5798,13.2282,-0.27867,0.0227478,-0.0186179,0,1,5.3025,-3.2025,-0.63,-0.205082,0.387838,-0.96014,-0.04844,-0.10066,0.52556
12.5074,0,0,5,5,22.5074,22.5074,-20.8457,6.31132,13.228,-0.274014,0.0223878,-0.018192,0,1,5.3025,-3.2025,-0.63,-0.205082,0.387838,-0.96014,-0.04844,-0.10066,0.52556
12.5066,0,0,5,5,22.5066,22.5066,-20.8443,6.31235,13.2279,-0.324448,0.0853056,0.23976,1,1,4.3575,0.5775,-0.07,-0.255712,0.450668,-0.704184,-0.04844,-0.10066,0.52556
12.5058,0,0,5,5,22.5058,22.5058,-20.843,6.31338,13.2279,-0.324466,0.0853281,0.239767,1,1,4.3575,0.5775,-0.07,-0.255712,0.450668,-0.704184,-0.04438,-0.09618,0.52234
12.5793,0,0,5,5,22.5793,22.5793,-20.9656,6.39891,13.2139,0.0800553,0.0928048,0.0860289,0,1,2.135,-0.1225,-0.735,0.152012,0.460062,-0.85583,-0.04438,-0.09618,0.52234
12.6517,0,0,5,5,22.6517,22.6517,-21.0861,6.48297,13.2,0.0785975,0.0909124,0.0851252,0,1,2.135,-0.1225,-0.735,0.152012,0.460062,-0.85583,-0.04438,-0.09618,0.52234
12.5163,0,0,5,5,22.5163,22.5163,-20.8605,6.85373,13.2272,0.389977,-0.259578,0.00443165,0,1,3.5525,-0.2975,0.2625,0.471164,0.106018,-0.936594,-0.04438,-0.09618,0.52234
12.3828,0,0,5,5,22.3828,22.3828,-20.6379,7.21873,13.2555,0.383654,-0.255697,0.00506757,0,1,3.5525,-0.2975,0.2625,0.471164,0.106018,-0.936594,-0.04438,-0.09618,0.52234
12.3815,0,0,5,5,22.3815,22.3815,-20.6358,7.2161,13.2556,-0.364166,0.0596659,-0.2295,1,1,4.76,-1.4525,-0.7525,-0.279868,0.421022,-1.16937,-0.04438,-0.09618,0.52234
12.3809,0,0,5,5,22.3809,22.3809,-20.6348,7.2146,13.2549,0.230532,0.00460293,-0.0762967,1,1,4.2525,-0.665,-0.98,0.317322,0.366,-1.01736,-0.04438,-0.09618,0.52234
12.382,0,0,5,5,22.382,22.382,-20.6366,7.21637,13.2539,0.230502,0.0045746,-0.0763115,1,1,2.6425,1.1725,-0.4375,0.317322,0.366,-1.01736,-0.04438,-0.09618,0.52234
12.4307,0,0,5,5,22.4307,22.4307,-20.7179,7.16389,13.2428,-0.0452124,0.116918,-0.0631767,0,1,2.24,-0.2975,-1.1375,0.039528,0.479582,-1.00394,-0.04438,-0.09618,0.52234
12.4788,0,0,5,5,22.4788,22.4788,-20.798,7.1125,13.231,-0.0443224,0.11558,-0.0635646,0,1,2.135,0.0175,-1.6275,0.039528,0.479582,-1.00394,-0.04746,-0.09478,0.5243
12.3559,0,0,5,5,22.3559,22.3559,-20.5931,6.85037,13.2545,-0.274978,-0.197116,-0.0726094,0,1,4.6375,0.07,-0.9275,-0.196664,0.16409,-1.01467,-0.04746,-0.09478,0.5243
12.2341,0,0,5,5,22.2341,22.2341,-20.3902,6.59394,13.2767,-0.270533,-0.194004,-0.0708873,0,1,5.495,0.945,-0.6475,-0.196664,0.16409,-1.01467,-0.04746,-0.09478,0.5243
12.233,0,0,5,5,22.233,22.233,-20.3884,6.59303,13.2762,-0.339764,-0.0531636,-0.174889,1,1,4.6375,-0.4025,-0.7,-0.266204,0.304756,-1.11789,-0.04746,-0.09478,0.5243
12.2327,0,0,5,5,22.2327,22.2327,-20.3878,6.59304,13.2759,-0.339764,-0.0531529,-0.174885,1,1,3.99,0.07,-0.4375,-0.266204,0.304756,-1.11789,-0.04746,-0.09478,0.5243
12.2332,0,0,5,5,22.2332,22.2332,-20.3886,6.59467,13.2764,0.228032,0.197561,-0.0169045,1,1,3.0975,0.805,0.3325,0.304024,0.555222,-0.961116,-0.04746,-0.09478,0.5243
12.236,0,0,5,5,22.236,22.236,-20.3934,6.59452,13.2769,0.228034,0.197483,-0.016933,1,1,0.8925,-0.1925,0,0.304024,0.555222,-0.961116,-0.04746,-0.09478,0.5243
12.5341,0,0,5,5,22.5341,22.5341,-20.8902,6.64446,13.22,0.0365575,0.423942,0.300709,0,1,0.91,-0.035,-0.385,0.112606,0.789462,-0.642818,-0.04746,-0.09478,0.5243
12.8235,0,0,5,5,22.8235,22.8235,-21.3725,6.69359,13.1657,0.0357059,0.416179,0.297602,0,1,4.865,-0.2625,0.84,0.112606,0.789462,-0.642818,-0.04046,-0.09996,0.52514
12.9264,0,0,5,5,22.9264,22.9264,-21.5439,6.99726,13.1467,0.316178,0.15034,0.127119,0,1,6.335,0.21,1.1025,0.39955,0.52643,-0.810324,-0.04046,-0.09996,0.52514
13.0294,0,0,5,5,23.0294,23.0294,-21.7157,7.29296,13.127,0.311057,0.147812,0.125426,0,1,4.7775,-1.4525,0.3675,0.39955,0.52643,-0.810324,-0.04046,-0.09996,0.52514
13.1068,0,0,5,5,23.1068,23.1068,-21.8446,7.05414,13.1123,-0.252146,0.149942,0.00237847,0,1,4.34,-1.155,0.28,-0.17019,0.530822,-0.93208,-0.04046,-0.09996,0.52514
13.1849,0,0,5,5,23.1849,23.1849,-21.9748,6.82344,13.0975,-0.248148,0.147667,0.00198796,0,1,2.4325,1.3475,0.7,-0.17019,0.530822,-0.93208,-0.04046,-0.09996,0.52514
13.1863,0,0,5,5,23.1863,23.1863,-21.9772,6.82591,13.0977,-0.259125,0.0616535,-0.158111,1,1,2.24,1.295,0.4025,-0.18117,0.444934,-1.09092,-0.04046,-0.09996,0.52514
13.1883,0,0,5,5,23.1883,23.1883,-21.9804,6.82494,13.0976,-0.259108,0.0616011,-0.15813,1,1,1.8025,-0.5075,-0.5075,-0.18117,0.444934,-1.09092,-0.04046,-0.09996,0.52514
13.0558,0,0,5,5,23.0558,23.0558,-21.7597,6.70336,13.1235,-0.126647,-0.226947,0.00754004,0,1,2.835,0.3325,-0.3325,-0.050264,0.153232,-0.928176,-0.04046,-0.09996,0.52514
12.9219,0,0,5,5,22.9219,22.9219,-21.5365,6.58392,13.1485,-0.124576,-0.223439,0.00919174,0,1,6.3175,0.4375,-0.21,-0.050264,0.153232,-0.928176,-0.05068,-0.10164,0.52472
12.9208,0,0,5,5,22.9208,22.9208,-21.5347,6.585,13.1484,-0.146948,0.131124,0.251533,1,1,4.6025,0.6125,-0.0875,-0.072712,0.507398,-0.687714,-0.05068,-0.10164,0.52472
12.9197,0,0,5,5,22.9197,22.9197,-21.5329,6.58321,13.1488,-0.146917,0.131152,0.251547,1,1,4.585,-1.05,-0.455,-0.072712,0.507398,-0.687714,-0.05068,-0.10164,0.52472
12.9791,0,0,5,5,22.9791,22.9791,-21.6319,6.77717,13.1375,0.185021,0.0650962,0.101782,0,1,3.71,0.385,0.07,0.264008,0.44286,-0.835334,-0.05068,-0.10164,0.52472
13.0403,0,0,5,5,23.0403,23.0403,-21.7338,6.96802,13.1258,0.181714,0.0636031,0.10076,0,1,1.2425,0.525,-0.0875,0.264008,0.44286,-0.835334,-0.05068,-0.10164,0.52472
13.0432,0,0,5,5,23.0432,23.0432,-21.7387,6.9679,13.1254,-0.0855526,0.112741,0.297938,1,1,0.875,0.0175,-0.49,-0.004392,0.492026,-0.639646,-0.05068,-0.10164,0.52472
13.044,0,0,5,5,23.044,23.044,-21.7399,6.96772,13.1251,-0.0855495,0.11272,0.29793,1,1,2.905,-0.035,-0.455,-0.004392,0.492026,-0.639646,-0.05068,-0.10164,0.52472
13.0862,0,0,5,5,23.0862,23.0862,-21.8103,7.09719,13.1171,0.136835,0.0695576,0.0309145,0,1,5.1275,-0.56,0.105,0.221186,0.449936,-0.903898,-0.05068,-0.10164,0.52472
13.128,0,0,5,5,23.128,23.128,-21.88,7.22429,13.1085,0.134634,0.0685404,0.0302088,0,1,4.9,-0.5425,-0.21,0.221186,0.449936,-0.903898,-0.04438,-0.10332,0.52402
13.1269,0,0,5,5,23.1269,23.1269,-21.8782,7.22271,13.1086,-0.264784,-0.349593,0.0968619,1,1,4.62,-0.875,-0.56,-0.17995,0.032208,-0.837774,-0.04438,-0.10332,0.52402
13.1273,0,0,5,5,23.1273,23.1273,-21.8788,7.22266,13.1085,-0.264783,-0.349603,0.0968581,1,1,3.2725,0,-0.3325,-0.17995,0.032208,-0.837774,-0.04438,-0.10332,0.52402
13.2906,0,0,5,5,23.2906,23.2906,-22.151,7.33537,13.0737,0.100517,0.21401,0.179203,0,1,2.3975,0.77,-0.3325,0.188856,0.599508,-0.754082,-0.04438,-0.10332,0.52402
13.4513,0,0,5,5,23.4513,23.4513,-22.4188,7.44412,13.0388,0.0986349,0.209814,0.17722,0,1,2.52,-0.28,-0.8225,0.188856,0.599508,-0.754082,-0.04438,-0.10332,0.52402
13.541,0,0,5,5,23.541,23.541,-22.5684,7.52145,13.0186,0.0849051,0.143862,0.0552084,0,1,2.6075,-0.9625,-1.225,0.176412,0.535946,-0.874008,-0.04438,-0.10332,0.52402
13.6262,0,0,5,5,23.6262,23.6262,-22.7104,7.5998,12.9974,0.0835495,0.141663,0.0540966,0,1,5.5825,0.5775,-1.33,0.176412,0.535946,-0.874008,-0.04438,-0.10332,0.52402
13.6239,0,0,5,5,23.6239,23.6239,-22.7064,7.59976,12.9958,0.0786909,-0.153088,0.0799422,1,1,5.9325,0.35,-1.155,0.171532,0.241438,-0.848388,-0.04438,-0.10332,0.52402
13.624,0,0,5,5,23.624,23.624,-22.7067,7.59812,12.9949,0.0787192,-0.153094,0.0799439,1,1,3.5175,-0.6825,-1.1025,0.171532,0.241438,-0.848388,-0.04438,-0.10332,0.52402
13.6248,0,0,5,5,23.6248,23.6248,-22.7079,7.59604,12.9942,-0.346688,-0.0767859,-0.184891,1,1,2.9575,-0.9625,-1.1025,-0.255712,0.317688,-1.11118,-0.04424,-0.09758,0.532
13.6263,0,0,5,5,23.6263,23.6263,-22.7105,7.59787,12.9934,0.149793,0.0434701,-0.212083,1,1,2.24,1.1725,-0.28,0.242902,0.437858,-1.13814,-0.04424,-0.09758,0.532
13.6285,0,0,5,5,23.6285,23.6285,-22.7141,7.59721,12.9929,0.149804,0.0434111,-0.212107,1,1,1.575,-0.2625,-0.63,0.242902,0.437858,-1.13814,-0.04424,-0.09758,0.532
13.6293,0,0,5,5,23.6293,23.6293,-22.7154,7.59667,12.9929,0.00706763,0.0310549,0.142223,1,1,2.87,-0.28,-0.4025,0.099552,0.425536,-0.786534,-0.04424,-0.09758,0.532
13.6279,0,0,5,5,23.6279,23.6279,-22.7132,7.59729,12.994,0.00705691,0.0310918,0.142237,1,1,4.795,0.0875,0.4725,0.099552,0.425536,-0.786534,-0.04424,-0.09758,0.532
13.6437,0,0,5,5,23.6437,23.6437,-22.7395,7.71404,12.9916,0.0934791,-0.0200286,0.119065,0,1,5.5475,-0.7,0.42,0.188368,0.374784,-0.809104,-0.04424,-0.09758,0.532
13.66,0,0,5,5,23.66,23.66,-22.7666,7.82888,12.9891,0.0914932,-0.0203557,0.118634,0,1,4.9,-0.665,0.42,0.188368,0.374784,-0.809104,-0.04424,-0.09758,0.532
13.6599,0,0,5,5,23.6599,23.6599,-22.7665,7.82877,12.9905,-0.12973,0.100673,-0.139557,1,1,3.535,-0.3675,0.455,-0.033794,0.495686,-1.0653,-0.04424,-0.09758,0.532
13.6607,0,0,5,5,23.6607,23.6607,-22.7679,7.83056,12.9915,-0.129761,0.100653,-0.13957,1,1,2.765,0.735,0.7,-0.033794,0.495686,-1.0653,-0.04368,-0.0966,0.52668
13.6618,0,0,5,5,23.6618,23.6618,-22.7697,7.83066,12.9926,0.118675,0.305065,-0.143885,1,1,2.52,-0.175,0.315,0.215696,0.699914,-1.06957,-0.04368,-0.0966,0.52668
13.6628,0,0,5,5,23.6628,23.6628,-22.7713,7.82978,12.9937,0.11869,0.305038,-0.143894,1,1,2.6075,-0.7175,0.1225,0.215696,0.699914,-1.06957,-0.04368,-0.0966,0.52668
13.7085,0,0,5,5,23.7085,23.7085,-22.8475,8.09292,12.9832,0.271344,0.0557866,0.0833241,0,1,5.915,-0.21,0.0875,0.373564,0.451888,-0.84302,-0.04368,-0.0966,0.52668
13.7534,0,0,5,5,23.7534,23.7534,-22.9223,8.35178,12.9721,0.266873,0.0548482,0.0822267,0,1,6.1425,-0.105,-0.175,0.373564,0.451888,-0.84302,-0.04368,-0.0966,0.52668
13.7501,0,0,5,5,23.7501,23.7501,-22.9169,8.01505,12.973,-0.362437,0.0123526,-0.0428657,0,1,3.8325,-0.14,-0.1925,-0.264252,0.409676,-0.967948,-0.04368,-0.0966,0.52668
13.7471,0,0,5,5,23.7471,23.7471,-22.9119,7.6844,12.9736,-0.35672,0.0121247,-0.0421063,0,1,3.6575,0.315,-0.1575,-0.264252,0.409676,-0.967948,-0.04368,-0.0966,0.52668
13.749,0,0,5,5,23.749,23.749,-22.915,7.68566,12.9736,0.139527,0.0459064,0.205489,1,1,1.89,0.6825,0.035,0.234118,0.44347,-0.72224,-0.04368,-0.0966,0.52668
13.7509,0,0,5,5,23.7509,23.7509,-22.9181,7.68506,12.9732,0.139537,0.0458559,0.205469,1,1,1.8725,-0.2275,-0.63,0.234118,0.44347,-0.72224,-0.04746,-0.09786,0.52402
13.7526,0,0,5,5,23.7526,23.7526,-22.9209,7.68499,12.973,-0.0707531,-0.0592186,0.0896323,1,1,2.0125,0,-0.35,0.022936,0.33855,-0.837164,-0.04746,-0.09786,0.52402
13.7522,0,0,5,5,23.7522,23.7522,-22.9203,7.68439,12.9736,-0.0707427,-0.0592083,0.0896382,1,1,3.9375,-0.455,-0.0875,0.022936,0.33855,-0.837164,-0.04746,-0.09786,0.52402
13.7232,0,0,5,5,23.7232,23.7232,-22.872,7.67704,12.9803,0.000453477,-0.0232732,-0.0682558,0,1,5.4775,-0.735,-0.1575,0.094306,0.373686,-0.994178,-0.04746,-0.09786,0.52402
13.6963,0,0,5,5,23.6963,23.6963,-22.8271,7.66967,12.9863,0.000580951,-0.0225647,-0.0679386,0,1,4.06,-0.7,-0.455,0.094306,0.373686,-0.994178,-0.04746,-0.09786,0.52402
13.5864,0,0,5,5,23.5864,23.5864,-22.644,7.49927,13.0108,-0.179064,-0.162194,-0.123646,0,1,3.885,-0.8575,-0.35,-0.08906,0.231434,-1.05103,-0.04746,-0.09786,0.52402
13.4796,0,0,5,5,23.4796,23.4796,-22.4661,7.33402,13.0335,-0.176204,-0.159493,-0.122121,0,1,2.7475,0.665,-0.28,-0.08906,0.231434,-1.05103,-0.04746,-0.09786,0.52402
13.7497,0,0,5,5,23.7497,23.7497,-22.9162,7.07271,12.9769,-0.283203,0.360439,0.297236,0,1,1.96,0.42,-0.455,-0.201056,0.75823,-0.632448,-0.04746,-0.09786,0.52402
14.0153,0,0,5,5,24.0153,24.0153,-23.3589,6.81313,12.9233,-0.278706,0.353171,0.294726,0,1,2.2225,-0.4725,-0.735,-0.201056,0.75823,-0.632448,-0.04564,-0.09086,0.53578
13.9793,0,0,5,5,23.9793,23.9793,-23.2989,7.00576,12.9297,0.208516,-0.0570375,-0.0215803,0,1,5.1625,-0.1925,-0.6125,0.29158,0.347334,-0.946354,-0.04564,-0.09086,0.53578
13.9432,0,0,5,5,23.9432,23.9432,-23.2387,7.19435,12.9352,0.20525,-0.0559194,-0.0215424,0,1,5.88,-0.42,-1.365,0.29158,0.347334,-0.946354,-0.04564,-0.09086,0.53578
13.923,0,0,5,5,23.923,23.923,-23.205,7.31699,12.9371,0.145299,-0.0108224,-0.0655763,0,1,4.4625,0.245,-1.575,0.233508,0.391742,-0.99003,-0.04564,-0.09086,0.53578
13.9032,0,0,5,5,23.9032,23.9032,-23.172,7.43803,12.9388,0.143204,-0.0101908,-0.0656008,0,1,4.375,0.5075,-1.5225,0.233508,0.391742,-0.99003,-0.04564,-0.09086,0.53578
13.8551,0,0,5,5,23.8551,23.8551,-23.0918,7.61302,12.9474,0.163137,-0.10658,0.0403127,0,1,1.785,0.9975,-1.3125,0.256566,0.29402,-0.88511,-0.04564,-0.09086,0.53578
13.8082,0,0,5,5,23.8082,23.8082,-23.0137,7.78307,12.9565,0.160196,-0.105181,0.0404759,0,1,1.26,-0.175,-1.5925,0.256566,0.29402,-0.88511,-0.04564,-0.09086,0.53578
13.8108,0,0,5,5,23.8108,23.8108,-23.018,7.78201,12.9551,-0.512452,0.110792,-0.0647948,1,1,1.295,-0.245,-1.26,-0.418948,0.509838,-0.989542,-0.04564,-0.09086,0.53578
13.809,0,0,5,5,23.809,23.809,-23.0149,7.78295,12.9547,-0.512469,0.11084,-0.0647765,1,1,5.32,0.595,-0.245,-0.418948,0.509838,-0.989542,-0.04158,-0.09478,0.53326
13.7254,0,0,5,5,23.7254,23.7254,-22.8756,7.72899,12.9733,-0.0497681,-0.108773,-0.12544,0,1,5.565,-0.3675,-0.245,0.044774,0.288286,-1.05079,-0.04158,-0.09478,0.53326
13.6442,0,0,5,5,23.6442,23.6442,-22.7403,7.67687,12.9922,-0.0488667,-0.106663,-0.124421,0,1,4.5675,0,0.385,0.044774,0.288286,-1.05079,-0.04158,-0.09478,0.53326
13.67,0,0,5,5,23.67,23.67,-22.7834,7.62292,12.9876,-0.0504847,0.0693192,-0.0392672,0,1,4.655,-0.455,0.4025,0.042212,0.46482,-0.966118,-0.04158,-0.09478,0.53326
13.698,0,0,5,5,23.698,23.698,-22.8299,7.57168,12.9837,-0.0495982,0.0685311,-0.0394703,0,1,2.24,0.3675,1.1725,0.042212,0.46482,-0.966118,-0.04158,-0.09478,0.53326
13.7485,0,0,5,5,23.7485,23.7485,-22.9142,7.3592,12.9744,-0.231551,0.121468,-0.050044,0,1,2.6775,0.8225,0.9975,-0.144204,0.519232,-0.976488,-0.04158,-0.09478,0.53326
13.798,0,0,5,5,23.798,23.798,-22.9967,7.14882,12.966,-0.227909,0.119973,-0.050174,0,1,2.8525,0,0.91,-0.144204,0.519232,-0.976488,-0.04158,-0.09478,0.53326
13.6846,0,0,5,5,23.6846,23.6846,-22.8077,7.19943,12.9917,0.0513608,-0.183141,-0.0649851,0,1,4.4975,-0.2625,1.0675,0.137128,0.213378,-0.992348,-0.04158,-0.09478,0.53326
13.5717,0,0,5,5,23.5717,23.5717,-22.6195,7.24815,13.0168,0.0505171,-0.180093,-0.0638253,0,1,5.7925,-0.7175,0.7,0.137128,0.213378,-0.992348,-0.04158,-0.09478,0.53326
13.5698,0,0,5,5,23.5698,23.5698,-22.6163,7.24726,13.0186,-0.10011,-0.174182,0.0429168,1,1,5.25,-0.875,0.4725,-0.014152,0.219234,-0.886452,-0.04704,-0.09408,0.53158
13.5694,0,0,5,5,23.5694,23.5694,-22.6157,7.24724,13.0192,-0.100109,-0.174172,0.042921,1,1,3.9025,-0.14,0.0525,-0.014152,0.219234,-0.886452,-0.04704,-0.09408,0.53158
13.5393,0,0,5,5,23.5393,23.5393,-22.5655,7.4154,13.0265,0.183564,-0.0487782,-0.0292617,0,1,2.2925,0.2275,0.21,0.273646,0.343552,-0.958066,-0.04704,-0.09408,0.53158
13.5096,0,0,5,5,23.5096,23.5096,-22.516,7.58079,13.0338,0.180703,-0.0478439,-0.0292817,0,1,2.2925,0.2275,0.21,0.273646,0.343552,-0.958066,-0.04704,-0.09408,0.53158
13.512,0,0,5,5,23.512,23.512,-22.52,7.58039,13.0339,0.00686349,0.286842,-0.242377,1,1,1.365,-0.245,-0.28,0.099064,0.677954,-1.16949,-0.04704,-0.09408,0.53158
13.5144,0,0,5,5,23.5144,23.5144,-22.524,7.57998,13.0341,0.00687046,0.286778,-0.242402,1,1,1.365,-0.245,-0.28,0.099064,0.677954,-1.16949,-0.04704,-0.09408,0.53158
13.5117,0,0,5,5,23.5117,23.5117,-22.5194,7.57344,13.0366,-0.0210795,0.327147,-0.109205,1,1,5.9675,-4.095,-0.385,0.070882,0.718214,-1.03737,-0.04704,-0.09408,0.53158
13.5089,0,0,5,5,23.5089,23.5089,-22.5149,7.5669,13.0391,-0.0209664,0.327214,-0.109161,1,1,5.9675,-4.095,-0.385,0.070882,0.718214,-1.03737,-0.04704,-0.09408,0.53158
13.508,0,0,5,5,23.508,23.508,-22.5134,7.56632,13.0392,-0.291141,-0.110709,0.0951906,1,1,4.4275,-0.35,-0.2975,-0.200446,0.280722,-0.834602,-0.04396,-0.09954,0.52444
13.5094,0,0,5,5,23.5094,23.5094,-22.5157,7.56652,13.0391,0.189332,-0.268778,0.171403,1,1,2.31,0.14,-0.28,0.282064,0.122854,-0.758962,-0.04396,-0.09954,0.52444
13.5108,0,0,5,5,23.5108,23.5108,-22.518,7.56673,13.039,0.189328,-0.268815,0.171387,1,1,2.31,0.14,-0.28,0.282064,0.122854,-0.758962,-0.04396,-0.09954,0.52444
13.5117,0,0,5,5,23.5117,23.5117,-22.5194,7.566,13.0392,-0.201964,0.0704296,-0.168205,1,1,2.7825,-0.4375,-0.315,-0.110898,0.46177,-1.09593,-0.04396,-0.09954,0.52444
13.5125,0,0,5,5,23.5125,23.5125,-22.5209,7.56527,13.0394,-0.201952,0.0704061,-0.168213,1,1,2.7825,-0.4375,-0.315,-0.110898,0.46177,-1.09593,-0.04396,-0.09954,0.52444
13.5098,0,0,5,5,23.5098,23.5098,-22.5163,7.56384,13.0385,0.0355775,0.283833,-0.0333047,1,1,6.23,-0.5775,-1.05,0.127612,0.674904,-0.962092,-0.04396,-0.09954,0.52444
13.507,0,0,5,5,23.507,23.507,-22.5117,7.5624,13.0376,0.0356022,0.283905,-0.0332713,1,1,6.23,-0.5775,-1.05,0.127612,0.674904,-0.962092,-0.04396,-0.09954,0.52444
13.3579,0,0,5,5,23.3579,23.3579,-22.2632,7.47882,13.0676,-0.0909973,-0.247839,-0.0351454,0,1,4.9175,0.035,-1.6625,-0.000976,0.139812,-0.965752,-0.0448,-0.09534,0.52626
13.3599,0,0,5,5,23.3599,23.3599,-22.2666,7.47874,13.0647,0.0505347,0.00967194,0.250073,1,1,1.925,0.6125,-1.855,0.141154,0.39711,-0.682712,-0.0448,-0.09534,0.52626
13.362,0,0,5,5,23.362,23.362,-22.2699,7.47867,13.0617,0.050536,0.0096179,0.250051,1,1,1.925,0.6125,-1.855,0.141154,0.39711,-0.682712,-0.0448,-0.09534,0.52626
13.3643,0,0,5,5,23.3643,23.3643,-22.2738,7.48489,13.0569,-0.0550213,0.0976157,-0.0801036,1,1,1.82,4.445,-1.4875,0.035258,0.485072,-1.01028,-0.0448,-0.09534,0.52626
13.3665,0,0,5,5,23.3665,23.3665,-22.2776,7.49111,13.052,-0.0551289,0.0975601,-0.0801417,1,1,1.82,4.445,-1.4875,0.035258,0.485072,-1.01028,-0.0448,-0.09534,0.52626
13.3648,0,0,5,5,23.3648,23.3648,-22.2746,7.49114,13.0508,-0.1901,0.109087,0.280608,1,1,5.3375,0.28,-0.8925,-0.100284,0.49654,-0.652334,-0.0448,-0.09534,0.52626
13.363,0,0,5,5,23.363,23.363,-22.2717,7.49117,13.0496,-0.1901,0.109134,0.280628,1,1,5.3375,0.28,-0.8925,-0.100284,0.49654,-0.652334,-0.0448,-0.09534,0.52626
13.3627,0,0,5,5,23.3627,23.3627,-22.2712,7.49229,13.0506,-0.254993,-0.0945645,0.0846486,1,1,3.7975,0.4025,0.49,-0.165432,0.293044,-0.846802,-0.0448,-0.09534,0.52626
13.3624,0,0,5,5,23.3624,23.3624,-22.2707,7.49341,13.0515,-0.255013,-0.0945559,0.0846493,1,1,3.7975,0.4025,0.49,-0.165432,0.293044,-0.846802,-0.0406,-0.0994,0.53004
13.3691,0,0,5,5,23.3691,23.3691,-22.2819,7.39734,13.0523,-0.0976054,0.0252336,-0.0350976,0,1,2.52,-0.7,0.7525,-0.009028,0.41297,-0.965752,-0.0406,-0.0994,0.53004
13.3904,0,0,5,5,23.3904,23.3904,-22.3173,7.32451,13.0505,-0.0725335,0.0533051,-0.0306301,0,1,3.3425,-0.77,1.1025,0.014884,0.44164,-0.961238,-0.0406,-0.0994,0.53004
13.4097,0,0,5,5,23.4097,23.4097,-22.3494,7.25511,13.0489,-0.071332,0.0527314,-0.0306997,0,1,4.795,0.42,1.6275,0.014884,0.44164,-0.961238,-0.0406,-0.0994,0.53004
13.4078,0,0,5,5,23.4078,23.4078,-22.3463,7.25598,13.0512,-0.0896915,2.28807e-05,-0.194694,1,1,5.1625,-0.0525,1.2075,-0.003538,0.388936,-1.12399,-0.0406,-0.0994,0.53004
13.4073,0,0,5,5,23.4073,23.4073,-22.3454,7.2564,13.0528,-0.0896987,3.75934e-05,-0.194689,1,1,3.99,-0.1225,0.6825,-0.003538,0.388936,-1.12399,-0.0406,-0.0994,0.53004
13.4061,0,0,5,5,23.4061,23.4061,-22.3435,7.25586,13.054,-0.147516,0.321749,-0.0456621,1,1,4.585,-0.5425,0.2275,-0.06161,0.710284,-0.976122,-0.0406,-0.0994,0.53004
13.4067,0,0,5,5,23.4067,23.4067,-22.3445,7.25603,13.0552,-0.14752,0.321734,-0.0456688,1,1,2.975,-0.175,0.4375,-0.06161,0.710284,-0.976122,-0.0406,-0.0994,0.53004
13.4406,0,0,5,5,23.4406,23.4406,-22.401,7.31516,13.049,0.0715888,0.0746719,-0.0235397,0,1,2.7475,0.0175,0.2625,0.159454,0.464332,-0.953674,-0.0406,-0.0994,0.53004
13.4731,0,0,5,5,23.4731,23.4731,-22.4552,7.37233,13.0424,0.0705992,0.0738533,-0.0240155,0,1,3.5525,-0.4025,-0.21,0.159454,0.464332,-0.953674,-0.04298,-0.09786,0.5327
13.5014,0,0,5,5,23.5014,23.5014,-22.5023,7.73759,13.0359,0.331305,-0.027944,0.185509,0,1,3.605,0.63,-0.245,0.42761,0.363072,-0.744688,-0.04298,-0.09786,0.5327
13.5288,0,0,5,5,23.5288,23.5288,-22.5481,8.09567,13.0288,0.325115,-0.0283453,0.184411,0,1,3.99,-0.14,-0.735,0.42761,0.363072,-0.744688,-0.04298,-0.09786,0.5327
13.5296,0,0,5,5,23.5296,23.5296,-22.5493,8.0955,13.0284,-0.127052,-0.136814,0.161166,1,1,2.94,0.0175,-0.5425,-0.026474,0.254736,-0.767746,-0.04298,-0.09786,0.5327
13.53,0,0,5,5,23.53,23.53,-22.5501,8.09546,13.028,-0.127051,-0.136826,0.161161,1,1,3.2025,0.0525,-0.455,-0.026474,0.254736,-0.767746,-0.04298,-0.09786,0.5327
13.7135,0,0,5,5,23.7135,23.7135,-22.8558,7.9174,12.9856,-0.188361,0.214742,0.226282,0,1,3.15,0.385,-0.0875,-0.091134,0.610976,-0.7015,-0.04298,-0.09786,0.5327
13.8937,0,0,5,5,23.8937,23.8937,-23.1562,7.74136,12.945,-0.185317,0.209797,0.224637,0,1,3.3075,0.0175,-0.035,-0.091134,0.610976,-0.7015,-0.04298,-0.09786,0.5327
13.8937,0,0,5,5,23.8937,23.8937,-23.1562,7.74101,12.9454,-0.156519,0.0422398,-0.223263,1,1,3.605,-0.2625,-0.1575,-0.06222,0.443592,-1.14595,-0.04298,-0.09786,0.5327
13.8925,0,0,5,5,23.8925,23.8925,-23.1542,7.74071,12.9449,-0.156514,0.0422709,-0.223249,1,1,4.7425,-0.0525,-0.5775,-0.06222,0.443592,-1.14595,-0.04298,-0.09086,0.53242
13.8916,0,0,5,5,23.8916,23.8916,-23.1527,7.74086,12.9443,-0.129182,0.119724,-0.152667,1,1,4.515,0.2275,-0.56,-0.03477,0.52094,-1.07592,-0.04298,-0.09086,0.53242
13.892,0,0,5,5,23.892,23.892,-23.1533,7.74069,12.9426,-0.129179,0.119714,-0.15267,1,1,3.3775,0.2975,-1.2075,-0.03477,0.52094,-1.07592,-0.04298,-0.09086,0.53242
13.8263,0,0,5,5,23.8263,23.8263,-23.0438,7.47429,12.9551,-0.291856,-0.0829819,-0.119149,0,1,3.465,-0.14,-1.6275,-0.202764,0.316956,-1.04395,-0.04298,-0.09086,0.53242
13.7626,0,0,5,5,23.7626,23.7626,-22.9376,7.21135,12.9661,-0.287305,-0.0815181,-0.117891,0,1,2.765,-0.385,-2.1875,-0.202764,0.316956,-1.04395,-0.04298,-0.09086,0.53242
13.7632,0,0,5,5,23.7632,23.7632,-22.9386,7.20984,12.9633,-0.0434569,-0.0607736,0.429226,1,1,3.2375,-0.1925,-2.065,0.04209,0.337696,-0.501054,-0.04298,-0.09086,0.53242
13.7632,0,0,5,5,23.7632,23.7632,-22.9387,7.20837,12.9608,-0.0434314,-0.0607762,0.429229,1,1,3.7275,-0.2275,-1.925,0.04209,0.337696,-0.501054,-0.04298,-0.09086,0.53242
13.7633,0,0,5,5,23.7633,23.7633,-22.9388,7.20819,12.9581,-0.474095,0.0316718,-0.0935486,1,1,3.7275,0.525,-1.75,-0.3904,0.43005,-1.0198,-0.04298,-0.09086,0.53242
13.7633,0,0,5,5,23.7633,23.7633,-22.9389,7.20802,12.9554,-0.474092,0.0316698,-0.093549,1,1,3.7275,0.525,-1.75,-0.3904,0.43005,-1.0198,-0.04242,-0.09884,0.52948
13.7647,0,0,5,5,23.7647,23.7647,-22.9411,7.2089,12.954,-0.189709,-0.0885371,-0.181228,1,1,2.4675,0.7875,-0.7875,-0.104798,0.310002,-1.10678,-0.04242,-0.09884,0.52948
13.766,0,0,5,5,23.766,23.766,-22.9433,7.20978,12.9527,-0.189725,-0.0885712,-0.181244,1,1,2.4675,0.7875,-0.7875,-0.104798,0.310002,-1.10678,-0.04242,-0.09884,0.52948
13.7662,0,0,5,5,23.7662,23.7662,-22.9436,7.21067,12.9535,0.160989,0.0990105,-0.0461282,1,1,3.3425,0.2975,0.3675,0.247416,0.497394,-0.972706,-0.04242,-0.09884,0.52948
13.7664,0,0,5,5,23.7664,23.7664,-22.944,7.21155,12.9543,0.160974,0.0990055,-0.0461324,1,1,3.3425,0.2975,0.3675,0.247416,0.497394,-0.972706,-0.04242,-0.09884,0.52948
13.7661,0,0,5,5,23.7661,23.7661,-22.9435,7.25282,12.9569,0.0473991,0.00830919,-0.0210079,0,1,3.43,-0.6125,1.12,0.134078,0.406748,-0.947696,-0.04242,-0.09884,0.52948
13.7658,0,0,5,5,23.7658,23.7658,-22.9429,7.29341,12.9596,0.0466965,0.00835254,-0.0210869,0,1,3.43,-0.6125,1.12,0.134078,0.406748,-0.947696,-0.04242,-0.09884,0.52948
13.765,0,0,5,5,23.765,23.765,-22.9416,7.29419,12.9626,-0.282422,0.277419,-0.155339,1,1,4.13,-0.245,1.4875,-0.19642,0.675514,-1.08092,-0.04242,-0.09884,0.52948
13.7642,0,0,5,5,23.7642,23.7642,-22.9403,7.29497,12.9655,-0.282435,0.277441,-0.155332,1,1,4.13,-0.245,1.4875,-0.19642,0.675514,-1.08092,-0.04578,-0.09422,0.53144
13.7633,0,0,5,5,23.7633,23.7633,-22.9389,7.29598,12.9679,-0.39179,0.0550716,-0.0820474,1,1,4.2175,0.0175,1.225,-0.30622,0.453352,-1.00821,-0.04578,-0.09422,0.53144
13.7625,0,0,5,5,23.7625,23.7625,-22.9375,7.297,12.9702,-0.391808,0.0550948,-0.08204,1,1,4.2175,0.0175,1.225,-0.30622,0.453352,-1.00821,-0.04578,-0.09422,0.53144
13.763,0,0,5,5,23.763,23.763,-22.9383,7.296,12.9715,-0.399079,0.0373734,0.177747,1,1,3.08,-0.8225,0.1925,-0.31354,0.435662,-0.750422,-0.04578,-0.09422,0.53144
13.955,0,0,5,5,23.955,23.955,-23.2584,7.52655,12.9311,0.206545,0.224341,0.276037,0,1,4.69,0.14,0.56,0.298656,0.627324,-0.65026,-0.04578,-0.09422,0.53144
14.1451,0,0,5,5,24.1451,24.1451,-23.5752,7.75318,12.8895,0.202625,0.219522,0.273376,0,1,4.0775,0.175,0.175,0.298656,0.627324,-0.65026,-0.04578,-0.09422,0.53144
14.2072,0,0,5,5,24.2072,24.2072,-23.6786,7.79864,12.8752,0.049253,0.103005,0.036623,0,1,3.71,0.3325,-0.2625,0.145424,0.512522,-0.884378,-0.04578,-0.09422,0.53144
14.2689,0,0,5,5,24.2689,24.2689,-23.7815,7.84334,12.8611,0.0484801,0.10142,0.03581,0,1,3.0625,0.3325,-0.245,0.145424,0.512522,-0.884378,-0.04578,-0.09422,0.53144
14.2696,0,0,5,5,24.2696,24.2696,-23.7827,7.84379,12.8617,0.00364409,0.207408,-0.149482,1,1,2.905,0.105,0.1575,0.100406,0.618418,-1.06823,-0.042,-0.09562,0.53214
14.2699,0,0,5,5,24.2699,24.2699,-23.7832,7.84305,12.8624,0.003657,0.207399,-0.149484,1,1,3.255,-0.56,-0.07,0.100406,0.618418,-1.06823,-0.042,-0.09562,0.53214
14.2705,0,0,5,5,24.2705,24.2705,-23.7841,7.84337,12.8625,-0.0887992,0.142168,-0.121337,1,1,3.0625,0.1575,-0.14,0.007564,0.55327,-1.04029,-0.042,-0.09562,0.53214
14.2701,0,0,5,5,24.2701,24.2701,-23.7835,7.84387,12.863,-0.0852847,-0.307614,0.0862036,1,1,3.9025,0.1575,0.105,0.011102,0.103944,-0.834358,-0.042,-0.09562,0.53214
14.2693,0,0,5,5,24.2693,24.2693,-23.7821,7.84349,12.8629,-0.0852782,-0.307592,0.0862143,1,1,4.3925,-0.1925,-0.3675,0.011102,0.103944,-0.834358,-0.042,-0.09562,0.53214
14.2699,0,0,5,5,24.2699,24.2699,-23.7832,7.84173,12.8626,-0.159354,0.0190775,-0.429436,1,1,3.01,-0.8575,-0.8575,-0.063318,0.430294,-1.34603,-0.042,-0.09562,0.53214
14.2689,0,0,5,5,24.2689,24.2689,-23.7814,7.84181,12.8614,-0.159355,0.0191057,-0.429423,1,1,4.69,0.3325,-0.8925,-0.063318,0.430294,-1.34603,-0.042,-0.09562,0.53214
14.268,0,0,5,5,24.268,24.268,-23.7801,7.84159,12.8598,0.0121863,0.282676,-0.283719,1,1,4.48,0.245,-1.1375,0.108946,0.69357,-1.20146,-0.042,-0.09562,0.53214
14.2697,0,0,5,5,24.2697,24.2697,-23.7828,7.839,12.8573,0.0122309,0.282631,-0.283733,1,1,2.275,-0.805,-2.17,0.108946,0.69357,-1.20146,-0.04508,-0.09632,0.5362
14.2695,0,0,5,5,24.2695,24.2695,-23.7825,7.83586,12.8535,-0.240526,-0.0312327,-0.209709,1,1,4.06,-0.7875,-3.0275,-0.144936,0.38003,-1.12801,-0.04508,-0.09632,0.5362
14.2691,0,0,5,5,24.2691,24.2691,-23.7819,7.83496,12.8506,-0.240511,-0.0312239,-0.209702,1,1,4.165,0.1925,-1.995,-0.144936,0.38003,-1.12801,-0.04508,-0.09632,0.5362
14.3475,0,0,5,5,24.3475,24.3475,-23.9126,7.64373,12.83,-0.199908,0.113934,0.0696255,0,1,3.5,0.42,-2.0475,-0.107482,0.527284,-0.85034,-0.04508,-0.09632,0.5362
14.4242,0,0,5,5,24.4242,24.4242,-24.0404,7.45407,12.81,-0.196626,0.111736,0.069124,0,1,3.8675,-0.35,-2.4325,-0.107482,0.527284,-0.85034,-0.04508,-0.09632,0.5362
14.5352,0,0,5,5,24.5352,24.5352,-24.2254,7.25133,12.783,-0.209517,0.137084,0.135973,0,1,3.7625,0.4025,-2.205,-0.123952,0.55571,-0.783118,-0.04508,-0.09632,0.5362
14.6459,0,0,5,5,24.6459,24.6459,-24.4098,7.0517,12.7599,-0.20606,0.133996,0.135053,0,1,2.1525,-0.2975,-0.7,-0.123952,0.55571,-0.783118,-0.04508,-0.09632,0.5362
14.6469,0,0,5,5,24.6469,24.6469,-24.4114,7.05099,12.7599,0.0541744,-0.576442,-0.191877,1,1,2.6775,-0.385,-0.4025,0.137372,-0.153964,-1.10752,-0.04508,-0.09632,0.5362
14.648,0,0,5,5,24.648,24.648,-24.4133,7.05124,12.7596,0.0541701,-0.576471,-0.191891,1,1,2.59,0.21,-0.3675,0.137372,-0.153964,-1.10752,-0.0476,-0.09828,0.54068
14.6497,0,0,5,5,24.6497,24.6497,-24.4162,7.05247,12.7606,0.150122,-0.170811,0.0810312,1,1,1.89,0.4375,0.525,0.233752,0.25132,-0.836676,-0.0476,-0.09828,0.54068
14.6479,0,0,5,5,24.6479,24.6479,-24.4132,7.05508,12.7625,0.150077,-0.170762,0.0810474,1,1,5.1275,0.9275,1.3825,0.233752,0.25132,-0.836676,-0.0476,-0.09828,0.54068
14.6474,0,0,5,5,24.6474,24.6474,-24.4123,7.0569,12.7655,-0.445113,0.074974,-0.351236,1,1,3.9375,0.2625,1.75,-0.363926,0.496784,-1.26563,-0.0476,-0.09828,0.54068
14.6467,0,0,5,5,24.6467,24.6467,-24.4112,7.05775,12.7686,-0.445127,0.0749919,-0.35123,1,1,3.99,-0.315,1.6275,-0.363926,0.496784,-1.26563,-0.0476,-0.09828,0.54068
14.6448,0,0,5,5,24.6448,24.6448,-24.4081,7.0595,12.7715,0.237349,-0.3397,-0.263057,1,1,5.145,0.2625,1.645,0.32147,0.082472,-1.17815,-0.0476,-0.09828,0.54068
14.6455,0,0,5,5,24.6455,24.6455,-24.4092,7.06094,12.7733,0.237324,-0.339717,-0.263068,1,1,2.835,0.315,1.085,0.32147,0.082472,-1.17815,-0.0476,-0.09828,0.54068
14.6452,0,0,5,5,24.6452,24.6452,-24.4086,7.10368,12.7749,0.0601865,0.0315963,-0.0735609,0,1,3.045,-0.91,0.1925,0.144326,0.453352,-0.99003,-0.0476,-0.09828,0.54068
14.6431,0,0,5,5,24.6431,24.6431,-24.4052,7.14759,12.7765,0.059426,0.0316895,-0.073623,0,1,4.62,0.07,0.7,0.144326,0.453352,-0.99003,-0.04704,-0.09604,0.5292
14.6418,0,0,5,5,24.6418,24.6418,-24.403,7.1488,12.7781,-0.024663,-0.0209109,0.118067,1,1,4.7425,0.28,0.84,0.059902,0.40077,-0.799832,-0.04704,-0.09604,0.5292
14.6418,0,0,5,5,24.6418,24.6418,-24.403,7.14786,12.7795,-0.0246467,-0.0209121,0.118069,1,1,3.4825,-0.8575,0.2975,0.059902,0.40077,-0.799832,-0.04704,-0.09604,0.5292
14.7231,0,0,5,5,24.7231,24.7231,-24.5385,6.88638,12.7635,-0.277059,0.125593,0.0662115,0,1,3.6225,-0.805,-0.2625,-0.198128,0.549488,-0.850828,-0.04704,-0.09604,0.5292
14.8032,0,0,5,5,24.8032,24.8032,-24.6721,6.63131,12.7486,-0.272639,0.12327,0.0657241,0,1,3.43,0.385,0.42,-0.198128,0.549488,-0.850828,-0.04704,-0.09604,0.5292
14.8039,0,0,5,5,24.8039,24.8039,-24.6731,6.63164,12.7503,0.233222,0.136321,-0.0304301,1,1,2.8875,-0.2275,0.7,0.30988,0.562542,-0.946232,-0.04704,-0.09604,0.5292
14.8041,0,0,5,5,24.8041,24.8041,-24.6734,6.63137,12.7506,0.233227,0.136316,-0.0304318,1,1,3.4125,-0.21,-0.175,0.30988,0.562542,-0.946232,-0.04704,-0.09604,0.5292
14.8029,0,0,5,5,24.8029,24.8029,-24.6714,6.63472,12.7577,-0.427592,0.154058,-0.0333743,1,1,4.2525,0.0525,4.305,-0.353678,0.580232,-0.94916,-0.04704,-0.09604,0.5292
14.8022,0,0,5,5,24.8022,24.8022,-24.6703,6.63469,12.7589,-0.427591,0.154076,-0.0333659,1,1,4.165,-0.2975,0.35,-0.353678,0.580232,-0.94916,-0.04704,-0.09604,0.5292
14.6456,0,0,5,5,24.6456,24.6456,-24.4093,6.43038,12.7879,-0.223354,-0.255374,-0.117058,0,1,4.305,-0.0525,-0.6475,-0.152134,0.167262,-1.03444,-0.0427,-0.0966,0.53676
14.6459,0,0,5,5,24.6459,24.6459,-24.4098,6.42934,12.7873,-0.0202122,0.185007,-0.120379,1,1,3.36,-0.4025,-0.84,0.05185,0.607194,-1.03773,-0.0427,-0.0966,0.53676
14.6457,0,0,5,5,24.6457,24.6457,-24.4095,6.42828,12.7856,-0.0201939,0.18501,-0.120375,1,1,3.8675,-0.175,-1.365,0.05185,0.607194,-1.03773,-0.0427,-0.0966,0.53676
14.7097,0,0,5,5,24.7097,24.7097,-24.5161,6.46625,12.7708,0.0483945,0.122172,0.012682,0,1,3.675,-0.21,-2.1875,0.12139,0.546072,-0.904874,-0.0427,-0.0966,0.53676
14.7729,0,0,5,5,24.7729,24.7729,-24.6215,6.50307,12.7553,0.0477559,0.12054,0.011856,0,1,3.4475,-0.28,-2.73,0.12139,0.546072,-0.904874,-0.0427,-0.0966,0.53676
14.7712,0,0,5,5,24.7712,24.7712,-24.6186,6.4995,12.7519,-0.337899,-0.0067955,-0.221473,1,1,5.425,-1.085,-2.905,-0.26596,0.418826,-1.13643,-0.0427,-0.0966,0.53676
14.7716,0,0,5,5,24.7716,24.7716,-24.6193,6.49744,12.7483,-0.337864,-0.00680845,-0.221475,1,1,3.43,-0.21,-2.6775,-0.26596,0.418826,-1.13643,-0.0427,-0.0966,0.53676
14.772,0,0,5,5,24.772,24.772,-24.6199,6.49605,12.745,-0.722706,-0.285024,-0.152133,1,1,3.4825,0.07,-2.3625,-0.652456,0.14091,-1.06762,-0.0427,-0.0966,0.53676
14.7723,0,0,5,5,24.7723,24.7723,-24.6205,6.49465,12.7416,-0.722682,-0.285034,-0.152135,1,1,3.4825,0.07,-2.3625,-0.652456,0.14091,-1.06762,-0.04746,-0.098,0.54096
14.7739,0,0,5,5,24.7739,24.7739,-24.6232,6.4962,12.7387,-0.0301187,-0.0526675,0.1396,1,1,2.2925,1.54,-1.435,0.043066,0.373076,-0.778116,-0.04746,-0.098,0.54096
14.7755,0,0,5,5,24.7755,24.7755,-24.6258,6.49775,12.7357,-0.0301455,-0.0527082,0.139578,1,1,2.2925,1.54,-1.435,0.043066,0.373076,-0.778116,-0.04746,-0.098,0.54096
14.7765,0,0,5,5,24.7765,24.7765,-24.6275,6.49787,12.7358,0.0322959,-0.253877,0.212105,1,1,2.6775,0.0525,-0.1925,0.105774,0.172142,-0.706136,-0.04746,-0.098,0.54096
14.7775,0,0,5,5,24.7775,24.7775,-24.6291,6.498,12.7359,0.0322937,-0.253902,0.212093,1,1,2.6775,0.0525,-0.1925,0.105774,0.172142,-0.706136,-0.04746,-0.098,0.54096
14.8997,0,0,5,5,24.8997,24.8997,-24.8329,6.50336,12.715,-0.00728215,0.138095,0.168926,0,1,3.36,0.35,1.26,0.066124,0.566934,-0.747494,-0.04746,-0.098,0.54096
14.8987,0,0,5,5,24.8987,24.8987,-24.8312,6.50528,12.7174,0.319481,-0.125549,-0.111265,1,1,4.3925,0.42,1.505,0.394304,0.303536,-1.02553,-0.04746,-0.098,0.54096
14.8993,0,0,5,5,24.8993,24.8993,-24.8322,6.50634,12.7209,0.319463,-0.125564,-0.111274,1,1,2.8,-0.2975,1.855,0.394304,0.303536,-1.02553,-0.04746,-0.098,0.54096
14.8999,0,0,5,5,24.8999,24.8999,-24.8332,6.50686,12.724,-0.147173,-0.147684,-0.164396,1,1,2.87,-0.455,1.4525,-0.074298,0.281454,-1.07824,-0.04438,-0.09688,0.53858
14.8999,0,0,5,5,24.8999,24.8999,-24.8332,6.50823,12.7264,0.114241,-0.226333,-0.213947,1,1,3.4125,0.1225,1.3825,0.188246,0.202886,-1.1274,-0.04438,-0.09688,0.53858
14.8988,0,0,5,5,24.8988,24.8988,-24.8313,6.50771,12.7295,0.11425,-0.226302,-0.213932,1,1,4.515,-1.0325,1.2425,0.188246,0.202886,-1.1274,-0.04438,-0.09688,0.53858
