pid_x,pid_y,pid_z,front_left_speed,front_right_speed,back_left_speed,back_right_speed,orientation_x,orientation_y,orientation_z,acceleration_x,acceleration_y,acceleration_z,accel_rejected,mag_rejected,gyro_x,gyro_y,gyro_z,accel_x,accel_y,accel_z,mag_x,mag_y,mag_z
-33.1513,0,0,48.1513,48.1513,5,5,0.492834,-0.0681448,-0.301184,0.0419309,-0.426725,0.0867029,0,0,3.4825,-0.07,-0.8925,0.00061,-0.42273,-0.92659,-0.0833,0.28546,0.33698
-33.3158,0,0,48.3158,48.3158,5,5,0.983717,-0.131243,-0.601572,0.0442471,-0.421212,0.0944593,0,0,3.675,-0.0175,-1.1025,0.00183,-0.42578,-0.918782,-0.0833,0.28546,0.33698
-33.0434,0,0,48.0434,48.0434,5,5,1.46617,-0.189907,-0.900016,0.0452709,-0.412793,0.0942764,0,0,3.675,-0.0175,-1.1025,0.00183,-0.42578,-0.918782,-0.0833,0.28546,0.33698
-32.4293,0,0,47.4293,47.4293,5,5,1.93519,-0.246181,-1.1941,0.0438234,-0.403756,0.0857922,0,0,3.43,0.35,-1.19,-0.00061,-0.424926,-0.926956,-0.0833,0.28546,0.33698
-32.1604,0,0,47.1604,47.1604,5,5,2.39603,-0.298325,-1.48612,0.0447335,-0.395719,0.0854839,0,0,3.43,0.35,-1.19,-0.00061,-0.424926,-0.926956,-0.0833,0.28546,0.33698
-31.8662,0,0,46.8662,46.8662,5,5,2.84839,-0.346567,-1.77609,0.0455754,-0.385146,0.089913,0,0,3.535,0.07,-1.1375,-0.00061,-0.422242,-0.922198,-0.0833,0.28546,0.33698
-31.6002,0,0,46.6002,46.6002,5,5,3.29275,-0.390976,-2.06389,0.0463505,-0.377402,0.0894926,0,0,3.535,0.07,-1.1375,-0.00061,-0.422242,-0.922198,-0.0833,0.28546,0.33698
-31.6818,0,0,46.6818,46.6818,5,5,3.73437,-0.43293,-2.36083,0.0498769,-0.373129,0.0939329,0,0,3.4475,-0.105,-0.9625,0.002196,-0.425658,-0.917318,-0.0868,0.28938,0.32914
-30.632,0,0,45.632,45.632,5,5,4.15643,-0.473942,-2.65246,0.0467051,-0.359063,0.0818633,0,0,3.4475,-0.035,-0.9975,-0.001708,-0.418948,-0.928786,-0.0868,0.28938,0.32914
-30.7284,0,0,45.7284,45.7284,5,5,4.57617,-0.511822,-2.94152,0.0478522,-0.354935,0.0859719,0,0,3.5525,-0.0175,-0.98,-0.00122,-0.42212,-0.92415,-0.0868,0.28938,0.32914
-30.4825,0,0,45.4825,45.4825,5,5,4.9885,-0.546181,-3.22803,0.0484518,-0.347764,0.0853665,0,0,3.675,0.0175,-0.945,-0.00122,-0.42212,-0.92415,-0.0868,0.28938,0.32914
-30.129,0,0,45.129,45.129,5,5,5.3919,-0.57799,-3.51143,0.048278,-0.34112,0.0811586,0,0,3.64,0.07,-1.0675,-0.001952,-0.422486,-0.927688,-0.0868,0.28938,0.32914
-30.2438,0,0,45.2438,45.2438,5,5,5.79341,-0.607455,-3.79201,0.0491567,-0.3372,0.0860031,0,0,3.675,-0.0525,-1.05,-0.001586,-0.425536,-0.922198,-0.0868,0.28938,0.32914
-29.9778,0,0,44.9778,44.9778,5,5,6.18738,-0.633654,-4.06992,0.049614,-0.330362,0.0852807,0,0,3.5875,0.035,-0.9975,-0.001586,-0.425536,-0.922198,-0.0868,0.28938,0.32914
-29.4376,0,0,44.4376,44.4376,5,5,6.5698,-0.651825,-4.34473,0.0518749,-0.32031,0.0834291,0,0,3.535,0.14,-0.98,0.000366,-0.42212,-0.923296,-0.08834,0.28784,0.32774
-29.1647,0,0,44.1647,44.1647,5,5,6.94476,-0.667753,-4.61682,0.0522743,-0.315155,0.0797052,0,0,3.4125,-0.1225,-0.9625,0.000488,-0.423462,-0.926224,-0.08834,0.28784,0.32774
-28.8082,0,0,43.8082,43.8082,5,5,7.31106,-0.68227,-4.8849,0.0510698,-0.308446,0.0753435,0,0,3.6225,0.2275,-1.0325,-0.000976,-0.423096,-0.929762,-0.08834,0.28784,0.32774
-28.8419,0,0,43.8419,43.8419,5,5,7.6746,-0.692198,-5.15205,0.0534299,-0.302767,0.082014,0,0,3.71,-0.0175,-0.9275,0.00122,-0.423706,-0.92232,-0.08834,0.28784,0.32774
-29.0574,0,0,44.0574,44.0574,5,5,8.0381,-0.701153,-5.41596,0.0537076,-0.29978,0.0886448,0,0,3.7275,-0.1575,-0.9975,0.001342,-0.427,-0.914878,-0.08834,0.28784,0.32774
-28.0938,0,0,43.0938,43.0938,5,5,8.38403,-0.708388,-5.67645,0.0517686,-0.287699,0.0779452,0,0,3.71,-0.0525,-1.12,-0.000732,-0.4209,-0.924638,-0.08834,0.28784,0.32774
-27.8422,0,0,42.8422,42.8422,5,5,8.72313,-0.713593,-5.93398,0.0518595,-0.281847,0.0770638,0,0,3.57,-0.105,-0.9625,-0.000732,-0.4209,-0.924638,-0.08834,0.28784,0.32774
-27.8203,0,0,42.8203,42.8203,5,5,9.05888,-0.717435,-6.18422,0.0514406,-0.278378,0.0781246,0,0,3.5875,-0.105,-0.9975,-0.00122,-0.423218,-0.922686,-0.07938,0.2849,0.3339
-27.304,0,0,42.304,42.304,5,5,9.38396,-0.718321,-6.43259,0.051699,-0.271679,0.0711908,0,0,3.4475,-0.1225,-1.0675,-0.000976,-0.42212,-0.928664,-0.07938,0.2849,0.3339
-27.3432,0,0,42.3432,42.3432,5,5,9.70672,-0.714427,-6.68014,0.0539393,-0.268933,0.0725936,0,0,3.5525,0.14,-1.1375,0.001342,-0.424926,-0.926346,-0.07938,0.2849,0.3339
-27.0686,0,0,42.0686,42.0686,5,5,10.0225,-0.711588,-6.92256,0.0518245,-0.264725,0.0672238,0,0,3.5875,0.3675,-0.98,-0.000732,-0.426146,-0.930738,-0.07938,0.2849,0.3339
-26.939,0,0,41.939,41.939,5,5,10.3336,-0.708219,-7.1619,0.0510368,-0.256328,0.0754864,0,0,3.5875,0.1925,-1.015,-0.001464,-0.423096,-0.921588,-0.07938,0.2849,0.3339
-26.7572,0,0,41.7572,41.7572,5,5,10.6391,-0.704479,-7.39788,0.0503641,-0.253039,0.0716888,0,0,3.5525,0.175,-1.0675,-0.002074,-0.425048,-0.924394,-0.07938,0.2849,0.3339
-26.5605,0,0,41.5605,41.5605,5,5,10.939,-0.702306,-7.64281,0.0503261,-0.247897,0.0707095,0,0,3.5,0.14,-1.015,-0.002074,-0.425048,-0.924394,-0.08008,0.2898,0.32816
-26.2509,0,0,41.2509,41.2509,5,5,11.2317,-0.700244,-7.88411,0.0490753,-0.24203,0.0691132,0,0,3.3075,0,-1.05,-0.003294,-0.424194,-0.925004,-0.08008,0.2898,0.32816
-26.0415,0,0,41.0415,41.0415,5,5,11.5186,-0.696281,-8.1226,0.0490061,-0.237121,0.0681265,0,0,3.29,0.1925,-0.98,-0.003294,-0.424194,-0.925004,-0.08008,0.2898,0.32816
-25.7435,0,0,40.7435,40.7435,5,5,11.7985,-0.684236,-8.36259,0.0530479,-0.232458,0.0645599,0,0,3.325,0.2625,-0.9275,0.000976,-0.424316,-0.927566,-0.08008,0.2898,0.32816
-25.538,0,0,40.538,40.538,5,5,12.0729,-0.670947,-8.60015,0.052816,-0.227773,0.0635723,0,0,3.2725,0.2275,-1.085,0.000976,-0.424316,-0.927566,-0.08008,0.2898,0.32816
-25.5452,0,0,40.5452,40.5452,5,5,12.3449,-0.659585,-8.83285,0.0510384,-0.223255,0.0677344,0,0,3.465,0.0525,-0.8575,-0.00061,-0.424438,-0.922442,-0.08008,0.2898,0.32816
-25.1341,0,0,40.1341,40.1341,5,5,12.6084,-0.646942,-9.06283,0.0503318,-0.215955,0.0661287,0,0,3.4475,0.07,-0.7875,-0.001098,-0.421632,-0.923052,-0.08008,0.2898,0.32816
-24.6532,0,0,39.6532,39.6532,5,5,12.8624,-0.631411,-9.28937,0.0505467,-0.212242,0.0558104,0,0,3.29,0.21,-0.84,-0.00061,-0.422242,-0.932324,-0.08064,0.29036,0.33278
-24.5164,0,0,39.5164,39.5164,5,5,13.112,-0.619583,-9.51064,0.0474246,-0.20824,0.0555711,0,0,3.2375,0.07,-0.9625,-0.003538,-0.422486,-0.931592,-0.08064,0.29036,0.33278
-24.5969,0,0,39.5969,39.5969,5,5,13.3607,-0.606492,-9.72931,0.0476821,-0.204137,0.0619568,0,0,3.395,0.0875,-0.8925,-0.00305,-0.422608,-0.924272,-0.08064,0.29036,0.33278
-24.379,0,0,39.379,39.379,5,5,13.6039,-0.587265,-9.94862,0.0506267,-0.200986,0.057897,0,0,3.535,0.21,-0.945,0.000244,-0.423584,-0.927322,-0.08064,0.29036,0.33278
-24.2181,0,0,39.2181,39.2181,5,5,13.8425,-0.567365,-10.1655,0.0502794,-0.19694,0.0569124,0,0,3.675,0.1225,-0.98,0.000244,-0.423584,-0.927322,-0.08064,0.29036,0.33278
-24.3425,0,0,39.3425,39.3425,5,5,14.0808,-0.545477,-10.3805,0.0513552,-0.194856,0.0614451,0,0,3.6225,0.0525,-0.98,0.001708,-0.425536,-0.921832,-0.08064,0.29036,0.33278
-23.9597,0,0,38.9597,38.9597,5,5,14.3113,-0.523626,-10.5924,0.0498805,-0.18778,0.0610767,0,0,3.5175,0.14,-0.91,0.00061,-0.422364,-0.921222,-0.08064,0.29036,0.33278
-23.7739,0,0,38.7739,38.7739,5,5,14.537,-0.49611,-10.7804,0.0500077,-0.183842,0.0608373,0,0,3.78,-0.0875,-1.05,0.00122,-0.422242,-0.92049,-0.08232,0.28126,0.34146
-23.4589,0,0,38.4589,38.4589,5,5,14.756,-0.472476,-10.9635,0.0469225,-0.181609,0.0521285,0,0,3.6925,-0.1575,-0.8925,-0.001464,-0.423706,-0.928176,-0.08232,0.28126,0.34146
-23.274,0,0,38.274,38.274,5,5,14.9703,-0.445849,-11.1457,0.0480371,-0.178603,0.0503121,0,0,3.4825,0,-0.875,0.000122,-0.424316,-0.92903,-0.08232,0.28126,0.34146
-23.1258,0,0,38.1258,38.1258,5,5,15.1805,-0.418869,-11.3259,0.0475662,-0.175061,0.0493615,0,0,3.57,0,-0.945,0.000122,-0.424316,-0.92903,-0.08232,0.28126,0.34146
-23.2892,0,0,38.2892,38.2892,5,5,15.3912,-0.397433,-11.4999,0.043912,-0.174932,0.0504846,0,0,3.535,0.105,-0.945,-0.003172,-0.427732,-0.926956,-0.08232,0.28126,0.34146
-22.9935,0,0,37.9935,37.9935,5,5,15.5957,-0.366998,-11.677,0.0486047,-0.16905,0.0518709,0,0,3.4475,0.14,-0.875,0.002074,-0.425292,-0.924638,-0.08232,0.28126,0.34146
-22.8505,0,0,37.8505,37.8505,5,5,15.7962,-0.336457,-11.852,0.0480717,-0.16568,0.0509274,0,0,3.5175,0.0875,-0.945,0.002074,-0.425292,-0.924638,-0.08232,0.28126,0.34146
-22.7848,0,0,37.7848,37.7848,5,5,15.9939,-0.310259,-12.0323,0.0456707,-0.160773,0.0544109,0,0,3.64,0.0525,-0.9975,0.000122,-0.423706,-0.920246,-0.08022,0.28448,0.33796
-22.5303,0,0,37.5303,37.5303,5,5,16.1861,-0.287918,-12.2083,0.0427295,-0.158893,0.0478277,0,0,3.395,-0.07,-1.085,-0.00244,-0.425048,-0.925858,-0.08022,0.28448,0.33796
-22.0738,0,0,37.0738,37.0738,5,5,16.3697,-0.259823,-12.3859,0.0452763,-0.153007,0.0447184,0,0,3.22,-0.175,-1.1375,0.00061,-0.422242,-0.928054,-0.08022,0.28448,0.33796
-22.1516,0,0,37.1516,37.1516,5,5,16.5529,-0.238803,-12.5567,0.040779,-0.152261,0.0438139,0,0,3.43,-0.2625,-0.9625,-0.003538,-0.42456,-0.928054,-0.08022,0.28448,0.33796
-22.0986,0,0,37.0986,37.0986,5,5,16.7337,-0.209539,-12.7299,0.0452491,-0.148016,0.0486909,0,0,3.57,-0.14,-0.945,0.001464,-0.42334,-0.92232,-0.08022,0.28448,0.33796
-22.152,0,0,37.152,37.152,5,5,16.9136,-0.180802,-12.9004,0.0446261,-0.146719,0.0502425,0,0,3.465,-0.07,-1.0325,0.001342,-0.425048,-0.91988,-0.08022,0.28448,0.33796
-22.0479,0,0,37.0479,37.0479,5,5,17.0904,-0.152437,-13.0735,0.044131,-0.143768,0.0493417,0,0,3.64,0.0525,-1.1025,0.001342,-0.425048,-0.91988,-0.0805,0.28742,0.3395
-21.5308,0,0,36.5308,36.5308,5,5,17.2579,-0.124621,-13.2441,0.0425522,-0.139631,0.0406109,0,0,3.3425,0.21,-1.0675,0.000244,-0.423706,-0.927688,-0.0805,0.28742,0.3395
-21.5837,0,0,36.5837,36.5837,5,5,17.4247,-0.0942081,-13.4143,0.0439651,-0.135875,0.047244,0,0,3.465,-0.0175,-1.12,0.002196,-0.42273,-0.920246,-0.0805,0.28742,0.3395
-21.2347,0,0,36.2347,36.2347,5,5,17.5848,-0.0700345,-13.5791,0.0396557,-0.135408,0.0341091,0,0,3.465,-0.1575,-0.98,-0.001708,-0.424926,-0.932446,-0.0805,0.28742,0.3395
-21.288,0,0,36.288,36.288,5,5,17.7443,-0.0449357,-13.7421,0.0397036,-0.131412,0.0406418,0,0,3.71,-0.0875,-0.9975,-0.00122,-0.423584,-0.925126,-0.0805,0.28742,0.3395
-21.2664,0,0,36.2664,36.2664,5,5,17.902,-0.0192594,-13.9028,0.0392554,-0.127937,0.0443486,0,0,3.78,0.2275,-1.015,-0.00122,-0.42273,-0.920612,-0.0805,0.28742,0.3395
-21.1161,0,0,36.1161,36.1161,5,5,18.0561,0.00629663,-14.0616,0.0388094,-0.125379,0.0435185,0,0,3.5175,0.1225,-0.9625,-0.00122,-0.42273,-0.920612,-0.0805,0.28742,0.3395
-21.1362,0,0,36.1362,36.1362,5,5,18.2091,0.0301463,-14.2319,0.0388791,-0.125161,0.0415807,0,0,3.395,0.035,-0.945,-0.000732,-0.425048,-0.92171,-0.07784,0.2919,0.33264
-20.7857,0,0,35.7857,35.7857,5,5,18.3555,0.047523,-14.3968,0.0340808,-0.12188,0.0346314,0,0,3.3425,-0.105,-0.9275,-0.005246,-0.424194,-0.92781,-0.07784,0.2919,0.33264
-20.5319,0,0,35.5319,35.5319,5,5,18.4969,0.0736022,-14.5649,0.0388496,-0.118562,0.0326217,0,0,3.4475,-0.175,-0.9625,0,-0.423218,-0.92903,-0.07784,0.2919,0.33264
-20.4341,0,0,35.4341,35.4341,5,5,18.6355,0.0999047,-14.731,0.0383905,-0.116269,0.0318507,0,0,3.5175,-0.07,-1.0325,0,-0.423218,-0.92903,-0.07784,0.2919,0.33264
-20.4977,0,0,35.4977,35.4977,5,5,18.7738,0.128307,-14.8961,0.0392311,-0.112517,0.0399278,0,0,3.43,0,-1.12,0.001342,-0.421754,-0.920246,-0.07784,0.2919,0.33264
-20.3899,0,0,35.3899,35.3899,5,5,18.9093,0.156064,-15.0592,0.0387467,-0.110279,0.039163,0,0,3.395,-0.3325,-1.05,0.001342,-0.421754,-0.920246,-0.07784,0.2919,0.33264
-20.2343,0,0,35.2343,35.2343,5,5,19.0413,0.178258,-15.2172,0.0349577,-0.109934,0.0328803,0,0,3.1675,-0.2975,-0.98,-0.002074,-0.423584,-0.925736,-0.07784,0.2919,0.33264
-20.1261,0,0,35.1261,35.1261,5,5,19.1705,0.200434,-15.373,0.0345707,-0.107804,0.0321412,0,0,3.0975,-0.2975,-0.8225,-0.002074,-0.423584,-0.925736,-0.07784,0.2919,0.33264
-20.6671,0,0,35.6671,35.6671,5,5,19.3065,0.177915,-15.4976,0.007022,-0.10776,0.0371385,0,0,3.4125,-0.1925,-0.8225,-0.030134,-0.42578,-0.920002,-0.08022,0.29078,0.33054
-20.5514,0,0,35.5514,35.5514,5,5,19.4396,0.156735,-15.6212,0.00739165,-0.105567,0.0363688,0,0,3.36,-0.2625,-0.98,-0.030134,-0.42578,-0.920002,-0.08022,0.29078,0.33054
-19.9012,0,0,34.9012,34.9012,5,5,19.5619,0.186677,-15.7717,0.0378479,-0.101602,0.0329502,0,0,3.22,-0.28,-0.9275,0.000976,-0.423828,-0.922686,-0.08022,0.29078,0.33054
-19.8106,0,0,34.8106,34.8106,5,5,19.6817,0.216405,-15.9204,0.0373291,-0.0996332,0.0322462,0,0,3.22,-0.28,-0.9275,0.000976,-0.423828,-0.922686,-0.08022,0.29078,0.33054
-19.6396,0,0,34.6396,34.6396,5,5,19.7979,0.235083,-16.0614,0.029714,-0.0969919,0.0272568,0,0,3.605,-0.1575,-0.98,-0.006344,-0.423096,-0.926956,-0.08022,0.29078,0.33054
-19.552,0,0,34.552,34.552,5,5,19.9118,0.253835,-16.2007,0.0293867,-0.0951232,0.0265805,0,0,3.605,-0.1575,-0.98,-0.006344,-0.423096,-0.926956,-0.08022,0.29078,0.33054
-19.4042,0,0,34.4042,34.4042,5,5,20.0225,0.281135,-16.343,0.0341341,-0.0915992,0.0300992,0,0,3.395,-0.1575,-1.0325,-0.001098,-0.421388,-0.922808,-0.08022,0.29078,0.33054
-19.3221,0,0,34.3221,34.3221,5,5,20.1309,0.308233,-16.4836,0.0336611,-0.0898225,0.0294473,0,0,3.395,-0.1575,-1.0325,-0.001098,-0.421388,-0.922808,-0.08022,0.29078,0.33054
-19.6372,0,0,34.6372,34.6372,5,5,20.243,0.336958,-16.6142,0.0346176,-0.0928715,0.0307364,0,0,3.5175,0.0175,-0.9625,0.000366,-0.426268,-0.920856,-0.08022,0.28784,0.336
-19.1765,0,0,34.1765,34.1765,5,5,20.3473,0.365396,-16.7436,0.0331494,-0.0865245,0.0285038,0,0,3.5,0.1225,-0.9625,-0.00061,-0.421632,-0.922442,-0.08022,0.28784,0.336
-19.1116,0,0,34.1116,34.1116,5,5,20.4497,0.393538,-16.8713,0.0326582,-0.0848506,0.0278779,0,0,3.605,0.1575,-0.8575,-0.00061,-0.421632,-0.922442,-0.08022,0.28784,0.336
-18.9895,0,0,33.9895,33.9895,5,5,20.5494,0.418934,-16.9966,0.0310002,-0.0856651,0.0207496,0,0,3.5,-0.0525,-0.98,-0.00183,-0.424072,-0.928908,-0.08022,0.28784,0.336
-18.9023,0,0,33.9023,33.9023,5,5,20.6469,0.444385,-17.1205,0.030556,-0.0840738,0.0201479,0,0,3.395,0.07,-1.12,-0.00183,-0.424072,-0.928908,-0.08022,0.28784,0.336
-18.8535,0,0,33.8535,33.8535,5,5,20.7427,0.466474,-17.2411,0.0283482,-0.0823875,0.0199226,0,0,3.4125,-0.0175,-0.945,-0.00366,-0.42395,-0.928542,-0.08022,0.28784,0.336
-18.7857,0,0,33.7857,33.7857,5,5,20.8367,0.488129,-17.3603,0.0279702,-0.0808549,0.0193374,0,0,3.4475,-0.175,-0.8925,-0.00366,-0.42395,-0.928542,-0.08022,0.28784,0.336
-18.6612,0,0,33.6612,33.6612,5,5,20.928,0.515877,-17.4816,0.0316165,-0.0794896,0.0185195,0,0,3.3775,-0.3325,-0.8575,0.000488,-0.424072,-0.928786,-0.08022,0.28784,0.336
-18.5852,0,0,33.5852,33.5852,5,5,21.0174,0.544183,-17.5987,0.0311225,-0.078035,0.017957,0,0,3.36,-0.0175,-1.0675,0.000488,-0.424072,-0.928786,-0.08428,0.28784,0.33446
-18.9499,0,0,33.9499,33.9499,5,5,21.1114,0.572763,-17.7136,0.0315955,-0.0785823,0.0262152,0,0,3.325,0.0875,-1.0675,0.001464,-0.426146,-0.920002,-0.08428,0.28784,0.33446
-18.9182,0,0,33.9182,33.9182,5,5,21.204,0.601202,-17.8273,0.0310992,-0.0770759,0.0256268,0,0,3.64,0.1925,-1.1375,0.001464,-0.426146,-0.920002,-0.08428,0.28784,0.33446
-18.4792,0,0,33.4792,33.4792,5,5,21.2893,0.626511,-17.9386,0.0283493,-0.0739802,0.0170912,0,0,3.605,0.21,-1.0675,-0.000854,-0.424438,-0.927932,-0.08428,0.28784,0.33446
-18.4166,0,0,33.4166,33.4166,5,5,21.373,0.651519,-18.0486,0.0279128,-0.0726227,0.0165558,0,0,3.605,0.21,-1.0675,-0.000854,-0.424438,-0.927932,-0.08428,0.28784,0.33446
-18.1264,0,0,33.1264,33.1264,5,5,21.4515,0.676798,-18.1583,0.0275932,-0.0665855,0.0204768,0,0,3.325,-0.14,-0.945,-0.000732,-0.41968,-0.92354,-0.08428,0.28784,0.33446
-18.0691,0,0,33.0691,33.0691,5,5,21.5285,0.701743,-18.2666,0.0271578,-0.0653372,0.0199797,0,0,3.325,-0.14,-0.945,-0.000732,-0.41968,-0.92354,-0.08428,0.28784,0.33446
-18.3962,0,0,33.3962,33.3962,5,5,21.6097,0.726191,-18.3722,0.0272171,-0.0693954,0.019577,0,0,3.3425,0.1925,-0.945,-0.000244,-0.425048,-0.923418,-0.08428,0.28784,0.33446
-18.336,0,0,33.336,33.336,5,5,21.6892,0.750352,-18.4764,0.0267954,-0.0681073,0.0190598,0,0,3.3425,0.1925,-0.945,-0.000244,-0.425048,-0.923418,-0.08372,0.28672,0.33124
-18.0382,0,0,33.0382,33.0382,5,5,21.7636,0.766203,-18.5762,0.0211735,-0.0638494,0.0161168,0,0,3.3425,-0.1225,-1.05,-0.005612,-0.421998,-0.925858,-0.08372,0.28672,0.33124
-17.9825,0,0,32.9825,32.9825,5,5,21.8365,0.78197,-18.6748,0.0208983,-0.0626695,0.0156409,0,0,3.3425,-0.1225,-1.05,-0.005612,-0.421998,-0.925858,-0.08372,0.28672,0.33124
-18.3892,0,0,33.3892,33.3892,5,5,21.9148,0.806447,-18.7758,0.0267884,-0.0642127,0.0242245,0,0,3.5875,-0.1225,-1.05,0.000732,-0.424804,-0.91683,-0.08372,0.28672,0.33124
-18.332,0,0,33.332,33.332,5,5,21.9915,0.830612,-18.8756,0.0263667,-0.0629729,0.0237183,0,0,3.5875,-0.1225,-1.05,0.000732,-0.424804,-0.91683,-0.08372,0.28672,0.33124
-17.8116,0,0,32.8116,32.8116,5,5,22.0598,0.857778,-18.9767,0.0272289,-0.0594279,0.015519,0,0,3.5175,-0.0875,-1.0675,0.002074,-0.422364,-0.924516,-0.08372,0.28672,0.33124
-17.7629,0,0,32.7629,32.7629,5,5,22.1268,0.884502,-19.0767,0.0267626,-0.0583476,0.0150728,0,0,3.5175,-0.0875,-1.0675,0.002074,-0.422364,-0.924516,-0.08372,0.28672,0.33124
-18.0938,0,0,33.0938,33.0938,5,5,22.1981,0.912027,-19.1686,0.0232451,-0.059885,0.0193915,0,0,3.395,4.4275,-1.05,-0.000976,-0.425048,-0.919758,-0.08372,0.28672,0.33124
-18.0432,0,0,33.0432,33.0432,5,5,22.268,0.939109,-19.2593,0.0227725,-0.0587588,0.0189229,0,0,3.395,4.4275,-1.05,-0.000976,-0.425048,-0.919758,-0.08372,0.28672,0.33124
-17.8483,0,0,32.8483,32.8483,5,5,22.3344,0.961705,-19.342,0.0234715,-0.0562242,0.0181085,0,0,3.4475,0.1225,-0.9275,0.000122,-0.423584,-0.920124,-0.08722,0.28322,0.3346
-17.7792,0,0,32.7792,32.7792,5,5,22.3991,0.984591,-19.4238,0.0233151,-0.0567696,0.0138609,0,0,3.43,0.3675,-1.015,0.000366,-0.42517,-0.923906,-0.08722,0.28322,0.3346
-17.7342,0,0,32.7342,32.7342,5,5,22.4626,1.00686,-19.5048,0.0229264,-0.0557479,0.0134319,0,0,3.4475,0.1575,-1.12,0.000366,-0.42517,-0.923906,-0.08722,0.28322,0.3346
-17.1979,0,0,32.1979,32.1979,5,5,22.5176,1.02657,-19.5849,0.0201528,-0.0501013,0.00728083,0,0,3.5525,0.2275,-1.1025,-0.002074,-0.420412,-0.92964,-0.08722,0.28322,0.3346
-17.154,0,0,32.154,32.154,5,5,22.5714,1.04564,-19.664,0.0198201,-0.0492365,0.0069153,0,0,3.5175,0.035,-1.05,-0.002074,-0.420412,-0.92964,-0.08722,0.28322,0.3346
-17.6268,0,0,32.6268,32.6268,5,5,22.6317,1.06786,-19.7424,0.0224694,-0.0527857,0.0132661,0,0,3.535,0.14,-1.0325,0.000976,-0.424926,-0.92293,-0.08722,0.28322,0.3346
-17.5688,0,0,32.5688,32.5688,5,5,22.6906,1.08945,-19.8198,0.0220926,-0.0518393,0.0128633,0,0,3.4125,0,-0.945,0.000976,-0.424926,-0.92293,-0.08722,0.28322,0.3346
-17.3498,0,0,32.3498,32.3498,5,5,22.7458,1.10797,-19.8954,0.0197043,-0.0487557,0.0112564,0,0,3.3775,-0.035,-0.9275,-0.001098,-0.42273,-0.92415,-0.08722,0.28322,0.3346
-17.3335,0,0,32.3335,32.3335,5,5,22.8002,1.12607,-19.9727,0.0193885,-0.0478825,0.0108832,0,0,3.5525,-0.0525,-0.945,-0.001098,-0.42273,-0.92415,-0.0882,0.28476,0.33278
-17.5362,0,0,32.5362,32.5362,5,5,22.8572,1.14338,-20.0479,0.0193293,-0.050755,0.0100004,0,0,3.4825,0.0175,-0.875,-0.000854,-0.426512,-0.924638,-0.0882,0.28476,0.33278
-17.5044,0,0,32.5044,32.5044,5,5,22.9131,1.16074,-20.1228,0.0190265,-0.0498579,0.00961508,0,0,3.57,0.0525,-1.19,-0.000854,-0.426512,-0.924638,-0.0882,0.28476,0.33278
-17.3921,0,0,32.3921,32.3921,5,5,22.9669,1.17734,-20.1968,0.0182508,-0.0470419,0.0105963,0,0,3.71,-0.07,-1.2075,-0.001342,-0.42456,-0.923296,-0.0882,0.28476,0.33278
-17.3193,0,0,32.3193,32.3193,5,5,23.0191,1.19381,-20.27,0.0179634,-0.0462055,0.0102349,0,0,3.43,-0.0175,-1.225,-0.001342,-0.42456,-0.923296,-0.0882,0.28476,0.33278
-16.9712,0,0,31.9712,31.9712,5,5,23.0657,1.21365,-20.3446,0.0194395,-0.043873,0.00536111,0,0,3.2725,0,-1.155,0.000488,-0.422974,-0.92781,-0.0882,0.28476,0.33278
-16.9237,0,0,31.9237,31.9237,5,5,23.1111,1.23267,-20.4183,0.0191076,-0.0431464,0.00504365,0,0,3.15,-0.2625,-1.0675,0.000488,-0.422974,-0.92781,-0.0882,0.28476,0.33278
-17.1162,0,0,32.1162,32.1162,5,5,23.159,1.24721,-20.4886,0.0166672,-0.0443341,0.00581681,0,0,3.3075,-0.28,-1.015,-0.001708,-0.424926,-0.926712,-0.0882,0.28476,0.33278
-17.1049,0,0,32.1049,32.1049,5,5,23.2063,1.26171,-20.5604,0.0164142,-0.0435778,0.00548688,0,0,3.4825,-0.105,-0.9975,-0.001708,-0.424926,-0.926712,-0.08428,0.28336,0.32914
-17.1546,0,0,32.1546,32.1546,5,5,23.2539,1.28069,-20.6335,0.0189986,-0.0420846,0.0104393,0,0,3.465,-0.07,-1.085,0.00122,-0.424194,-0.921466,-0.08428,0.28336,0.32914
-17.1334,0,0,32.1334,32.1334,5,5,23.3008,1.2992,-20.7057,0.0186757,-0.0413364,0.0101095,0,0,3.57,-0.1575,-1.05,0.00122,-0.424194,-0.921466,-0.08428,0.28336,0.32914
-17.1572,0,0,32.1572,32.1572,5,5,23.3475,1.3164,-20.7765,0.018011,-0.042055,0.00867344,0,0,3.4475,-0.2275,-1.1025,0.000854,-0.425658,-0.922564,-0.08428,0.28336,0.32914
-17.1345,0,0,32.1345,32.1345,5,5,23.3936,1.3336,-20.8463,0.0177109,-0.0413205,0.00834849,0,0,3.535,-0.0525,-1.085,0.000854,-0.425658,-0.922564,-0.08428,0.28336,0.32914
-17.0907,0,0,32.0907,32.0907,5,5,23.4385,1.35297,-20.9162,0.0187093,-0.0404817,0.00876714,0,0,3.465,0.1225,-1.1375,0.002196,-0.425536,-0.921832,-0.08428,0.28336,0.32914
-17.0595,0,0,32.0595,32.0595,5,5,23.4826,1.372,-20.9853,0.0183772,-0.0397791,0.00845362,0,0,3.465,0.1225,-1.1375,0.002196,-0.425536,-0.921832,-0.08428,0.28336,0.32914
-16.6962,0,0,31.6962,31.6962,5,5,23.5209,1.38542,-21.0518,0.0142555,-0.0363597,0.00301818,0,0,3.3775,0.0875,-1.0675,-0.001708,-0.42273,-0.926956,-0.08428,0.28336,0.32914
-16.6756,0,0,31.6756,31.6756,5,5,23.5585,1.39838,-21.1252,0.0140295,-0.0357598,0.00275086,0,0,3.3775,0.0875,-1.0675,-0.001708,-0.42273,-0.926956,-0.08106,0.28588,0.329
-16.8713,0,0,31.8713,31.8713,5,5,23.5988,1.41127,-21.1975,0.0145335,-0.0365846,0.00639954,0,0,3.3425,-0.1575,-1.05,-0.000976,-0.424194,-0.923052,-0.08106,0.28588,0.329
-16.8425,0,0,31.8425,31.8425,5,5,23.6382,1.42399,-21.269,0.0143115,-0.0359567,0.00611898,0,0,3.3425,-0.1575,-1.05,-0.000976,-0.424194,-0.923052,-0.08106,0.28588,0.329
-16.5401,0,0,31.5401,31.5401,5,5,23.6727,1.43729,-21.3405,0.013958,-0.0334526,0.00206031,0,0,3.29,-0.0525,-1.0675,-0.001098,-0.422242,-0.926834,-0.08106,0.28588,0.329
-16.5158,0,0,31.5158,31.5158,5,5,23.7066,1.45038,-21.4112,0.0137296,-0.0329135,0.00181748,0,0,3.29,-0.0525,-1.0675,-0.001098,-0.422242,-0.926834,-0.08106,0.28588,0.329
-16.7256,0,0,31.7256,31.7256,5,5,23.7433,1.46494,-21.4807,0.0146904,-0.0348946,0.00192277,0,0,3.745,0.2975,-0.9625,0.000122,-0.424804,-0.926468,-0.08106,0.28588,0.329
-16.7,0,0,31.7,31.7,5,5,23.7793,1.47927,-21.5494,0.0144404,-0.0343225,0.00166391,0,0,3.745,0.2975,-0.9625,0.000122,-0.424804,-0.926468,-0.08106,0.28588,0.329
-16.8724,0,0,31.8724,31.8724,5,5,23.8175,1.49546,-21.6179,0.0159802,-0.0342038,0.00778142,0,0,3.5175,0.1225,-0.9275,0.001952,-0.425292,-0.920124,-0.08106,0.28588,0.329
-16.5117,0,0,31.5117,31.5117,5,5,23.85,1.5096,-21.6818,0.0141542,-0.032222,4.64076e-05,0,0,3.57,-0.035,-0.9625,0.000366,-0.423828,-0.927566,-0.08456,0.28728,0.33684
-16.4808,0,0,31.4808,31.4808,5,5,23.8818,1.52327,-21.745,0.0139156,-0.0317178,-0.000183558,0,0,3.5,-0.1575,-0.9275,0.000366,-0.423828,-0.927566,-0.08456,0.28728,0.33684
-16.6663,0,0,31.6663,31.6663,5,5,23.916,1.53808,-21.8076,0.0146291,-0.0312967,0.00559267,0,0,3.5875,-0.0875,-1.0675,0.001342,-0.42395,-0.921588,-0.08456,0.28728,0.33684
-16.6428,0,0,31.6428,31.6428,5,5,23.9496,1.55264,-21.8695,0.0143752,-0.0307642,0.00534882,0,0,3.5875,-0.0875,-1.0675,0.001342,-0.42395,-0.921588,-0.08456,0.28728,0.33684
-16.6754,0,0,31.6754,31.6754,5,5,23.9833,1.55258,-21.9298,0.00951682,-0.0290049,0.00707685,0,0,3.6925,-4.4275,-1.0325,-0.003538,-0.42273,-0.919636,-0.08456,0.28728,0.33684
-16.6486,0,0,31.6486,31.6486,5,5,24.0164,1.55268,-21.9894,0.00951495,-0.0284782,0.00684233,0,0,3.6925,-4.4275,-1.0325,-0.003538,-0.42273,-0.919636,-0.08456,0.28728,0.33684
-16.6517,0,0,31.6517,31.6517,5,5,24.0492,1.56102,-22.0455,0.0103415,-0.0307663,0.00279433,0,0,3.4125,0.0875,-1.015,-0.002562,-0.425536,-0.923418,-0.08456,0.28728,0.33684
-16.6529,0,0,31.6529,31.6529,5,5,24.0817,1.57489,-22.1036,0.013744,-0.0293962,0.00722904,0,0,3.255,0,-0.9975,0.001098,-0.424682,-0.918782,-0.08456,0.28728,0.33684
-16.6588,0,0,31.6588,31.6588,5,5,24.114,1.58843,-22.1702,0.0135077,-0.0288845,0.00699299,0,0,3.43,0.105,-1.0325,0.001098,-0.424682,-0.918782,-0.08246,0.28966,0.329
-16.2286,0,0,31.2286,31.2286,5,5,24.1396,1.59825,-22.2352,0.0102992,-0.0266467,-0.0025381,0,0,3.395,0.2975,-0.945,-0.001952,-0.422852,-0.928054,-0.08246,0.28966,0.329
-16.2588,0,0,31.2588,31.2588,5,5,24.1654,1.6079,-22.2995,0.0101309,-0.0262375,-0.00272677,0,0,3.7975,0.2625,-0.9975,-0.001952,-0.422852,-0.928054,-0.08246,0.28966,0.329
-16.4834,0,0,31.4834,31.4834,5,5,24.1944,1.6199,-22.3637,0.0123512,-0.0265122,0.00443801,0,0,3.605,-0.105,-0.8225,0.000488,-0.423584,-0.920734,-0.08246,0.28966,0.329
-16.4569,0,0,31.4569,31.4569,5,5,24.2226,1.63173,-22.4272,0.0121449,-0.0260647,0.0042304,0,0,3.5525,-0.105,-0.8575,0.000488,-0.423584,-0.920734,-0.08246,0.28966,0.329
-16.4601,0,0,31.4601,31.4601,5,5,24.2507,1.6439,-22.4902,0.01254,-0.0275747,0.000827219,0,0,3.5525,-0.14,-0.8225,0.001098,-0.425536,-0.923906,-0.08246,0.28966,0.329
-16.4318,0,0,31.4318,31.4318,5,5,24.2781,1.65571,-22.5527,0.012334,-0.0271416,0.000625463,0,0,3.4825,-0.2975,-0.945,0.001098,-0.425536,-0.923906,-0.08246,0.28966,0.329
-16.0878,0,0,31.0878,31.0878,5,5,24.3001,1.67163,-22.6173,0.0141215,-0.0250849,-0.00470378,0,0,3.5,-0.1575,-1.015,0.003172,-0.423828,-0.92903,-0.08246,0.28966,0.329
-16.0468,0,0,31.0468,31.0468,5,5,24.3213,1.6876,-22.6745,0.0138428,-0.024751,-0.00486358,0,0,3.3075,-0.0525,-1.1375,0.003172,-0.423828,-0.92903,-0.0826,0.28602,0.32942
-16.3472,0,0,31.3472,31.3472,5,5,24.3468,1.69585,-22.7268,0.00944692,-0.0243477,0.00195743,0,0,3.43,-0.175,-1.1025,-0.001098,-0.423828,-0.922076,-0.0826,0.28602,0.32942
-16.3502,0,0,31.3502,31.3502,5,5,24.3721,1.70419,-22.7785,0.00930137,-0.0239475,0.00177148,0,0,3.605,-0.0525,-1.12,-0.001098,-0.423828,-0.922076,-0.0826,0.28602,0.32942
-16.4072,0,0,31.4072,31.4072,5,5,24.398,1.71698,-22.8314,0.0123585,-0.0251262,0.00207058,0,0,3.5525,-0.14,-1.0325,0.002196,-0.425414,-0.921588,-0.0826,0.28602,0.32942
-16.415,0,0,31.415,31.415,5,5,24.4238,1.72972,-22.8837,0.0121361,-0.0247192,0.00187853,0,0,3.7625,-0.035,-1.085,0.002196,-0.425414,-0.921588,-0.0826,0.28602,0.32942
-16.2557,0,0,31.2557,31.2557,5,5,24.447,1.73758,-22.9338,0.00871889,-0.0232535,-0.00185808,0,0,3.8325,-0.0525,-1.19,-0.001098,-0.424316,-0.925126,-0.0826,0.28602,0.32942
-16.2274,0,0,31.2274,31.2274,5,5,24.4695,1.74576,-22.9829,0.00857625,-0.0228972,-0.00202494,0,0,3.7275,0.2625,-1.1025,-0.001098,-0.424316,-0.925126,-0.0826,0.28602,0.32942
-15.4076,0,0,30.4076,30.4076,5,5,24.4797,1.75986,-23.0366,0.0110029,-0.0174875,-0.0128017,0,0,3.4475,0.175,-0.9975,0.001586,-0.41907,-0.93574,-0.0826,0.28602,0.32942
-15.4024,0,0,30.4024,30.4024,5,5,24.4897,1.77349,-23.0862,0.0107651,-0.017332,-0.0128806,0,0,3.465,0,-1.1025,0.001586,-0.41907,-0.93574,-0.08708,0.28588,0.32704
-16.1315,0,0,31.1315,31.1315,5,5,24.5104,1.78412,-23.1317,0.0102153,-0.0211576,-0.000126243,0,0,3.4825,-0.105,-0.9975,0.00122,-0.423218,-0.92293,-0.08708,0.28588,0.32704
-16.1181,0,0,31.1181,31.1181,5,5,24.5308,1.79454,-23.1767,0.0100334,-0.0208371,-0.00027868,0,0,3.4825,-0.105,-0.9975,0.00122,-0.423218,-0.92293,-0.08708,0.28588,0.32704
-14.2483,0,0,29.2483,29.2483,5,5,24.5231,1.82113,-23.2338,0.0152795,0.00407149,0.00160757,0,0,3.3775,0.175,-0.945,0.006954,-0.398208,-0.9211,-0.08708,0.28588,0.32704
-14.2614,0,0,29.2614,29.2614,5,5,24.5157,1.84693,-23.2902,0.0148295,0.00394831,0.00164792,0,0,3.3775,0.175,-0.945,0.006954,-0.398208,-0.9211,-0.08708,0.28588,0.32704
-12.2135,0,0,27.2135,27.2135,5,5,24.478,1.88753,-23.3596,0.0210458,0.0145749,-0.0348615,0,0,3.395,0.2275,-1.0325,0.013908,-0.386984,-0.957578,-0.08708,0.28588,0.32704
-19.8793,0,0,34.8793,34.8793,5,5,24.5545,1.78408,-23.3392,-0.054293,-0.0636911,-0.00892888,0,0,3.4475,0,-1.015,-0.063562,-0.466406,-0.931348,-0.08708,0.28588,0.32704
-19.7874,0,0,34.7874,34.7874,5,5,24.629,1.68378,-23.3196,-0.0525431,-0.0624877,-0.00942135,0,0,3.4475,-0.14,-1.12,-0.063562,-0.466406,-0.931348,-0.08708,0.28588,0.32704
-14.9927,0,0,29.9927,29.9927,5,5,24.6315,1.83713,-23.429,0.0934801,-0.00715861,0.0349929,0,0,3.4825,0.035,-1.1025,0.085766,-0.41114,-0.887184,-0.08708,0.28588,0.32704
-15.053,0,0,30.053,30.053,5,5,24.6349,1.9858,-23.5353,0.0908867,-0.00714094,0.0348896,0,0,3.5525,0.2275,-1.0325,0.085766,-0.41114,-0.887184,-0.08344,0.2842,0.3339
-17.5934,0,0,32.5934,32.5934,5,5,24.676,1.87602,-23.5152,-0.0644008,-0.035284,-0.0242433,0,0,3.57,0.175,-1.0325,-0.072102,-0.439932,-0.945622,-0.08344,0.2842,0.3339
-17.5171,0,0,32.5171,32.5171,5,5,24.7156,1.76917,-23.4955,-0.0625368,-0.0346314,-0.0244781,0,0,3.465,-0.035,-1.015,-0.072102,-0.439932,-0.945622,-0.08344,0.2842,0.3339
-19.9977,0,0,34.9977,34.9977,5,5,24.7917,1.9011,-23.5765,0.0915138,-0.0609348,0.0588727,0,0,3.7275,0.035,-1.085,0.084912,-0.467382,-0.862296,-0.08344,0.2842,0.3339
-19.9621,0,0,34.9621,34.9621,5,5,24.8667,2.02941,-23.6561,0.0892757,-0.059781,0.0582543,0,0,3.64,-0.0875,-1.0325,0.084912,-0.467382,-0.862296,-0.08344,0.2842,0.3339
-12.4314,0,0,27.4314,27.4314,5,5,24.8289,1.93646,-23.6593,-0.0647262,0.029531,-0.0445722,0,0,3.675,-0.28,-0.9625,-0.07137,-0.37759,-0.964654,-0.08344,0.2842,0.3339
-12.4509,0,0,27.4509,27.4509,5,5,24.7919,1.84643,-23.6621,-0.0631557,0.0289655,-0.0442536,0,0,3.78,0.0525,-0.9625,-0.07137,-0.37759,-0.964654,-0.08344,0.2842,0.3339
-21.8782,0,0,36.8782,36.8782,5,5,24.8952,1.87922,-23.6897,0.0318815,-0.0546503,0.0902151,0,0,3.5875,0.105,-0.945,0.024644,-0.462746,-0.830454,-0.08344,0.2842,0.3339
-21.8085,0,0,36.8085,36.8085,5,5,24.9967,1.91099,-23.7242,0.0313274,-0.0530539,0.0894523,0,0,3.465,0.105,-1.015,0.024644,-0.462746,-0.830454,-0.08316,0.28966,0.34076
-18.2144,0,0,33.2144,33.2144,5,5,25.0437,1.69984,-23.6582,-0.130696,-0.0285679,-0.0285745,0,0,3.64,0.1575,-0.9975,-0.141764,-0.439078,-0.94733,-0.08316,0.28966,0.34076
-18.1239,0,0,33.1239,33.1239,5,5,25.0891,1.49462,-23.5931,-0.127115,-0.0278096,-0.028819,0,0,3.71,0.0875,-0.9975,-0.141764,-0.439078,-0.94733,-0.08316,0.28966,0.34076
-15.3331,0,0,30.3331,30.3331,5,5,25.0925,1.53905,-23.6493,0.029069,-0.0112773,-0.00390424,0,0,3.57,-0.035,-0.9975,0.01586,-0.422608,-0.922564,-0.08316,0.28966,0.34076
-15.3399,0,0,30.3399,30.3399,5,5,25.0959,1.58261,-23.7049,0.028309,-0.0112312,-0.00394872,0,0,3.5525,0.14,-1.1375,0.01586,-0.422608,-0.922564,-0.08316,0.28966,0.34076
-15.0928,0,0,30.0928,30.0928,5,5,25.0957,1.58279,-23.7049,-0.000607673,-0.0295539,-0.0978797,1,0,3.36,0.1225,-1.05,-0.013176,-0.440908,-1.01577,-0.08316,0.28966,0.34076
-15.0904,0,0,30.0904,30.0904,5,5,25.0954,1.58263,-23.7051,-0.000604809,-0.0295582,-0.0978776,1,0,3.3425,-0.1225,-1.1025,-0.013176,-0.440908,-1.01577,-0.08316,0.28966,0.34076
-14.734,0,0,29.734,29.734,5,5,25.0899,1.64313,-23.7705,0.0395232,-0.0153701,-0.0247089,0,0,3.2725,-0.0875,-1.12,0.028182,-0.426634,-0.943182,-0.08316,0.28966,0.34076
-14.7574,0,0,29.7574,29.7574,5,5,25.0847,1.70233,-23.838,0.0384905,-0.0154647,-0.0246979,0,0,3.3075,0.1575,-1.1375,0.028182,-0.426634,-0.943182,-0.0847,0.29288,0.34286
-18.3044,0,0,33.3044,33.3044,5,5,25.1323,1.52744,-23.7876,-0.103391,-0.0145543,0.0126499,0,0,3.325,0.1225,-0.9975,-0.117364,-0.426512,-0.90585,-0.0847,0.29288,0.34286
-18.2303,0,0,33.2303,33.2303,5,5,25.1783,1.35767,-23.738,-0.100429,-0.0137952,0.0123759,0,0,3.4475,0.1225,-1.0675,-0.117364,-0.426512,-0.90585,-0.0847,0.29288,0.34286
-13.8754,0,0,28.8754,28.8754,5,5,25.1592,1.46829,-23.8279,0.0695436,-0.00740014,-0.0210904,0,0,3.57,-0.07,-0.945,0.055266,-0.419802,-0.939156,-0.0847,0.29288,0.34286
-13.9244,0,0,28.9244,28.9244,5,5,25.141,1.57629,-23.9166,0.0676591,-0.00770896,-0.0210008,0,0,3.6225,0.28,-1.05,0.055266,-0.419802,-0.939156,-0.0847,0.29288,0.34286
-18.1619,0,0,33.1619,33.1619,5,5,25.186,1.59388,-23.9517,0.0152349,-0.0106666,0.0681646,0,0,3.4125,0.07,-1.015,0.002928,-0.423462,-0.85034,-0.0847,0.29288,0.34286
-17.5466,0,0,32.5466,32.5466,5,5,25.2214,1.44374,-23.9121,-0.0931835,-0.033771,-0.0437957,0,0,3.325,-0.1225,-0.91,-0.10858,-0.44713,-0.961238,-0.0847,0.29288,0.34286
-14.5431,0,0,29.5431,29.5431,5,5,25.2118,1.34313,-23.9028,-0.0685887,-0.0166841,-0.0889309,0,0,3.3075,-0.105,-0.945,-0.085644,-0.429928,-1.00613,-0.0847,0.29288,0.34286
-14.5485,0,0,29.5485,29.5485,5,5,25.2024,1.24589,-23.899,-0.0668919,-0.0168165,-0.0888262,0,0,3.6225,0.0525,-0.8225,-0.085644,-0.429928,-1.00613,-0.07994,0.29274,0.33894
-18.4476,0,0,33.4476,33.4476,5,5,25.251,1.32694,-23.9637,0.053301,-0.0139864,0.0841409,0,0,3.6575,0.0525,-0.84,0.036478,-0.427854,-0.834114,-0.07994,0.29274,0.33894
-18.4115,0,0,33.4115,33.4115,5,5,25.2986,1.40571,-24.0278,0.0519265,-0.0132486,0.0837563,0,0,3.5,-0.14,-0.945,0.036478,-0.427854,-0.834114,-0.07994,0.29274,0.33894
-15.4968,0,0,30.4968,30.4968,5,5,25.3025,1.30097,-24.017,-0.0701612,-0.0313658,-0.0927877,0,0,3.57,-0.0875,-0.875,-0.087962,-0.446032,-1.00931,-0.07994,0.29274,0.33894
-15.4443,0,0,30.4443,30.4443,5,5,25.3056,1.1991,-24.0066,-0.0683838,-0.0313008,-0.0927755,0,0,3.395,-0.1575,-0.98,-0.087962,-0.446032,-1.00931,-0.07994,0.29274,0.33894
-18.1847,0,0,33.1847,33.1847,5,5,25.3493,1.249,-24.0561,0.0336438,-0.000697395,0.0936397,0,0,3.395,-0.315,-0.9975,0.015372,-0.416142,-0.823988,-0.07994,0.29274,0.33894
-18.1659,0,0,33.1659,33.1659,5,5,25.3924,1.29777,-24.1048,0.032793,-2.60432e-05,0.0933004,0,0,3.4125,-0.2625,-0.9625,0.015372,-0.416142,-0.823988,-0.07994,0.29274,0.33894
-14.3837,0,0,29.3837,29.3837,5,5,25.3789,1.09965,-24.0525,-0.125933,0.0440017,0.00703415,0,0,3.605,-0.315,-1.015,-0.147498,-0.371978,-0.909754,-0.07994,0.29274,0.33894
-14.3358,0,0,29.3358,29.3358,5,5,25.3648,0.907187,-23.9943,-0.122575,0.0438043,0.00719288,0,0,3.535,0.0175,-0.98,-0.147498,-0.371978,-0.909754,-0.07966,0.28994,0.34244
-14.0743,0,0,29.0743,29.0743,5,5,25.3469,1.16287,-24.1402,0.166108,-0.0244147,-0.00836077,0,0,3.605,0.0875,-1.015,0.146888,-0.43981,-0.925248,-0.07966,0.28994,0.34244
-14.1397,0,0,29.1397,29.1397,5,5,25.3302,1.41162,-24.284,0.161768,-0.0247208,-0.00832377,0,0,3.535,0.3325,-0.98,0.146888,-0.43981,-0.925248,-0.07966,0.28994,0.34244
-12.2987,0,0,27.2987,27.2987,5,5,25.2862,1.31741,-24.279,-0.0663177,0.0528854,-0.00414889,0,0,3.5525,0.385,-1.0675,-0.083814,-0.361608,-0.921466,-0.07966,0.28994,0.34244
-12.3129,0,0,27.3129,27.3129,5,5,25.2428,1.22555,-24.2739,-0.0647147,0.0522159,-0.0037936,0,0,3.5875,0.35,-1.085,-0.083814,-0.361608,-0.921466,-0.07966,0.28994,0.34244
-15.2214,0,0,30.2214,30.2214,5,5,25.243,1.22603,-24.2739,0.122243,-0.114117,-0.127605,1,0,3.6225,0.28,-1.1375,0.103944,-0.527772,-1.04432,-0.07966,0.28994,0.34244
-15.2048,0,0,30.2048,30.2048,5,5,25.243,1.22635,-24.2741,0.122238,-0.114117,-0.127605,1,0,3.4825,0.14,-1.2075,0.103944,-0.527772,-1.04432,-0.07966,0.28994,0.34244
-15.2073,0,0,30.2073,30.2073,5,5,25.243,1.22639,-24.2742,-0.00568731,0.0676073,0.149152,1,0,3.5,0,-1.12,-0.024522,-0.346236,-0.769698,-0.07966,0.28994,0.34244
-15.2055,0,0,30.2055,30.2055,5,5,25.243,1.22598,-24.2744,-0.00568026,0.067607,0.149153,1,0,3.4825,-0.245,-1.0325,-0.024522,-0.346236,-0.769698,-0.07966,0.28994,0.34244
-14.6952,0,0,29.6952,29.6952,5,5,25.2354,1.15125,-24.2618,-0.0506622,-0.0198223,-0.0836306,0,0,3.465,-0.42,-1.0675,-0.071004,-0.433466,-1.00077,-0.08344,0.2877,0.3444
-14.677,0,0,29.677,29.677,5,5,25.2275,1.07897,-24.2491,-0.049401,-0.0199353,-0.0835502,0,0,3.43,-0.14,-1.0675,-0.071004,-0.433466,-1.00077,-0.08344,0.2877,0.3444
-10.5582,0,0,25.5582,25.5582,5,5,25.1586,1.36509,-24.4116,0.181653,0.00909537,-0.033463,0,0,3.43,-0.1225,-1.0325,0.166042,-0.403332,-0.951478,-0.08344,0.2877,0.3444
-10.6633,0,0,25.6633,25.6633,5,5,25.0917,1.64278,-24.5723,0.176808,0.0079859,-0.0330832,0,0,3.3425,-0.175,-0.98,0.166042,-0.403332,-0.951478,-0.08344,0.2877,0.3444
-15.0934,0,0,30.0934,30.0934,5,5,25.0914,1.64254,-24.5725,-0.214007,-0.13332,-0.138201,1,0,3.29,-0.1575,-1.085,-0.226432,-0.544486,-1.05579,-0.08344,0.2877,0.3444
-15.1085,0,0,30.1085,30.1085,5,5,25.0912,1.64264,-24.5726,-0.214009,-0.133323,-0.1382,1,0,3.4125,0.035,-1.12,-0.226432,-0.544486,-1.05579,-0.08344,0.2877,0.3444
-6.43032,0,0,21.4303,21.4303,8.56968,8.56968,24.9621,2.10634,-24.8336,0.251332,0.095099,0.0980823,0,0,3.4475,-0.07,-0.945,0.249002,-0.31415,-0.822036,-0.08344,0.2877,0.3444
-6.55724,0,0,21.5572,21.5572,8.44276,8.44276,24.8359,2.55655,-25.0922,0.243481,0.0929693,0.0987184,0,0,3.045,-0.14,-0.9275,0.249002,-0.31415,-0.822036,-0.08344,0.2877,0.3444
-14.9338,0,0,29.9338,29.9338,5,5,24.8355,2.55614,-25.0921,-0.329681,0.00979353,-0.0950446,1,0,3.22,-0.175,-0.875,-0.326594,-0.397232,-1.01431,-0.08344,0.29344,0.34594
-33.2332,0,0,48.2332,48.2332,5,5,25.107,2.18502,-24.8995,-0.182408,-0.0981571,0.182538,0,0,3.43,-0.245,-1.0325,-0.185196,-0.509472,-0.737124,-0.08344,0.29344,0.34594
-24.9391,0,0,39.9391,39.9391,5,5,25.2528,2.56548,-25.0698,0.259118,-0.121742,0.149978,0,0,3.4475,-0.35,-0.9625,0.264862,-0.535214,-0.768112,-0.08344,0.29344,0.34594
-24.9365,0,0,39.9365,39.9365,5,5,25.3973,2.93617,-25.236,0.252656,-0.119598,0.14862,0,0,3.4475,-0.35,-0.9625,0.264862,-0.535214,-0.768112,-0.08344,0.29344,0.34594
-3.0212,0,0,18.0212,18.0212,11.9788,11.9788,25.2147,2.71048,-25.2105,-0.189141,0.165827,-0.120699,0,0,3.605,4.375,-0.9975,-0.182756,-0.247294,-1.03688,-0.08344,0.29344,0.34594
-20.9536,0,0,35.9536,35.9536,5,5,25.3003,2.32088,-25.0525,-0.241997,-0.0173517,0.0124557,0,0,3.675,0.0525,-0.9975,-0.242658,-0.431758,-0.904386,-0.08344,0.29344,0.34594
-24.7076,0,0,39.7076,39.7076,5,5,25.441,2.45457,-25.1121,0.103485,-0.104574,0.0971351,0,0,3.5525,0.07,-1.0675,0.106628,-0.521062,-0.81923,-0.08344,0.29344,0.34594
-21.2258,0,0,36.2258,36.2258,5,5,25.5286,2.73859,-25.2502,0.215281,-0.131503,0.0119323,0,0,3.7625,0.1575,-1.05,0.22387,-0.549244,-0.902922,-0.08344,0.29344,0.34594
-15.3955,0,0,30.3955,30.3955,5,5,25.5288,2.73892,-25.2504,-0.0721598,0.0709856,-0.166836,1,0,3.5875,0.14,-1.225,-0.064782,-0.346968,-1.08031,-0.08218,0.2968,0.34524
-19.0224,0,0,34.0224,34.0224,5,5,25.5828,2.4179,-25.1366,-0.210159,-0.0264893,-0.048862,0,0,3.605,0.105,-1.225,-0.208986,-0.4453,-0.963068,-0.08218,0.2968,0.34524
-18.8762,0,0,33.8762,33.8762,5,5,25.6342,2.10563,-25.0241,-0.204713,-0.0255879,-0.0490556,0,0,3.57,0.14,-1.19,-0.208986,-0.4453,-0.963068,-0.08218,0.2968,0.34524
-23.6903,0,0,38.6903,38.6903,5,5,25.7567,2.25042,-25.0957,0.107653,-0.0906296,0.0924288,0,0,3.815,0.1225,-1.085,0.107238,-0.512156,-0.82167,-0.08218,0.2968,0.34524
-23.6145,0,0,38.6145,38.6145,5,5,25.877,2.39161,-25.166,0.105191,-0.0887847,0.0914254,0,0,3.6225,0.0525,-1.015,0.107238,-0.512156,-0.82167,-0.08218,0.2968,0.34524
-6.19954,0,0,21.1995,21.1995,8.80046,8.80046,25.7373,2.21887,-25.1571,-0.135254,0.132445,-0.0608446,0,0,3.36,0.105,-1.1725,-0.13725,-0.289018,-0.973926,-0.08218,0.2968,0.34524
-6.2925,0,0,21.2925,21.2925,8.7075,8.7075,25.6003,2.0496,-25.1479,-0.132302,0.130338,-0.05971,0,0,3.605,-0.1575,-1.12,-0.13725,-0.289018,-0.973926,-0.08218,0.2968,0.34524
-23.9232,0,0,38.9232,38.9232,5,5,25.7265,2.2221,-25.2289,0.144471,-0.155212,0.00906998,0,0,3.6225,-0.07,-1.0325,0.143716,-0.576206,-0.90463,-0.08218,0.2968,0.34524
-23.8214,0,0,38.8214,38.8214,5,5,25.8501,2.39145,-25.3014,0.141518,-0.153323,0.00802506,0,0,3.5,-0.21,-1.05,0.143716,-0.576206,-0.90463,-0.08484,0.29386,0.34454
-0.0751294,0,0,15.0751,15.0751,14.9249,14.9249,25.6196,2.41908,-25.3949,-0.0179888,0.17914,-0.0875,0,0,3.5,-0.1225,-1.085,-0.015982,-0.240462,-1.00113,-0.08484,0.29386,0.34454
-0.264087,0,0,15.2641,15.2641,14.7359,14.7359,25.394,2.44516,-25.488,-0.0184436,0.17558,-0.085823,0,0,3.605,-0.0525,-1.2425,-0.015982,-0.240462,-1.00113,-0.08484,0.29386,0.34454
-35.3064,0,0,50.3064,50.3064,5,5,25.6913,2.14955,-25.3156,-0.153847,-0.225602,0.0645842,0,0,3.5875,0.1575,-1.225,-0.157136,-0.64599,-0.849852,-0.08484,0.29386,0.34454
-34.93,0,0,49.93,49.93,5,5,25.9803,1.86258,-25.1473,-0.148842,-0.220988,0.0625449,0,0,3.325,-0.1575,-1.015,-0.157136,-0.64599,-0.849852,-0.08484,0.29386,0.34454
0.014216,0,0,14.9858,14.9858,15.0142,15.0142,25.7473,2.19715,-25.3689,0.182931,0.150071,-0.0515627,0,0,3.395,-0.1225,-0.9975,0.181902,-0.271572,-0.964654,-0.08484,0.29386,0.34454
-0.248924,0,0,15.2489,15.2489,14.7511,14.7511,25.5202,2.52159,-25.5899,0.177274,0.146401,-0.05006,0,0,3.71,-0.175,-1.1725,0.181902,-0.271572,-0.964654,-0.08484,0.29386,0.34454
-28.6705,0,0,43.6705,43.6705,5,5,25.7177,2.1354,-25.4005,-0.236089,-0.141647,-0.00126221,0,0,3.7625,0.0175,-0.9975,-0.239974,-0.562542,-0.915,-0.08484,0.29386,0.34454
-28.3629,0,0,43.3629,43.3629,5,5,25.9089,1.76006,-25.2243,-0.229542,-0.138549,-0.00251369,0,0,3.5875,-0.0175,-1.085,-0.239974,-0.562542,-0.915,-0.08246,0.29736,0.3409
-10.2795,0,0,25.2795,25.2795,5,5,25.8295,2.10082,-25.4211,0.219356,0.011555,-0.0264336,0,0,3.4475,-0.1225,-1.05,0.216794,-0.411262,-0.939156,-0.08246,0.29736,0.3409
-10.403,0,0,25.403,25.403,5,5,25.7527,2.43182,-25.6158,0.213584,0.0102489,-0.0260562,0,0,3.36,-0.0875,-1.1025,0.216794,-0.411262,-0.939156,-0.08246,0.29736,0.3409
-21.1668,0,0,36.1668,36.1668,5,5,25.8365,1.94279,-25.4148,-0.308658,0.00670008,0.0247474,0,0,3.4825,-0.07,-1.19,-0.316224,-0.416264,-0.888404,-0.08246,0.29736,0.3409
-20.9421,0,0,35.9421,35.9421,5,5,25.9163,1.46621,-25.2158,-0.300344,0.00805992,0.0243627,0,0,3.4825,-0.105,-1.015,-0.316224,-0.416264,-0.888404,-0.08246,0.29736,0.3409
-14.9254,0,0,29.9254,29.9254,5,5,25.9059,1.81464,-25.3968,0.247309,-0.064967,-0.0344839,0,0,3.745,-0.1225,-0.9975,0.239852,-0.488976,-0.94672,-0.08246,0.29736,0.3409
-14.9765,0,0,29.9765,29.9765,5,5,25.8963,2.15339,-25.5754,0.2414,-0.0652064,-0.0345952,0,0,3.4125,-0.14,-1.12,0.239852,-0.488976,-0.94672,-0.08246,0.29736,0.3409
-10.7079,0,0,25.7079,25.7079,5,5,25.8234,2.0895,-25.5944,-0.0517239,0.0982936,0.0519379,0,0,3.4825,0.14,-1.1025,-0.055632,-0.32452,-0.861442,-0.08246,0.29736,0.3409
-10.7368,0,0,25.7368,25.7368,5,5,25.7515,2.02652,-25.6054,-0.0506254,0.0971822,0.0525187,0,0,3.2375,0.21,-1.05,-0.055632,-0.32452,-0.861442,-0.08274,0.29358,0.34356
-15.5207,0,0,30.5207,30.5207,5,5,25.7514,2.02659,-25.6054,0.0634484,-0.132296,-0.0782977,1,0,3.43,0.0525,-1.05,0.058926,-0.553758,-0.99125,-0.08274,0.29358,0.34356
-15.5334,0,0,30.5334,30.5334,5,5,25.7515,2.0268,-25.6055,0.0634447,-0.132295,-0.0782984,1,0,3.535,0.105,-1.1375,0.058926,-0.553758,-0.99125,-0.08274,0.29358,0.34356
-15.525,0,0,30.525,30.525,5,5,25.7514,2.02703,-25.6058,0.1435,0.142856,0.0805514,1,0,3.465,0.07,-1.225,0.139324,-0.278892,-0.833626,-0.08274,0.29358,0.34356
-15.5469,0,0,30.5469,30.5469,5,5,25.7517,2.02702,-25.6058,0.1435,0.14286,0.0805494,1,0,3.64,0,-1.05,0.139324,-0.278892,-0.833626,-0.08274,0.29358,0.34356
-15.5432,0,0,30.5432,30.5432,5,5,25.7519,2.02729,-25.6059,-0.306731,-0.160011,-0.100432,1,0,3.605,0.14,-1.1375,-0.312808,-0.581452,-1.01321,-0.08274,0.29358,0.34356
-15.5578,0,0,30.5578,30.5578,5,5,25.7523,2.0273,-25.6062,-0.306731,-0.160005,-0.100436,1,0,3.7275,-0.0525,-1.19,-0.312808,-0.581452,-1.01321,-0.08274,0.29358,0.34356
0.461868,0,0,14.5381,14.5381,15.4619,15.4619,25.5145,2.77192,-26.0107,0.415273,0.164177,0.125371,0,0,3.6225,-0.0525,-1.1725,0.425292,-0.253638,-0.790438,-0.08274,0.29358,0.34356
0.23953,0,0,14.7605,14.7605,15.2395,15.2395,25.2822,3.49664,-26.4122,0.402643,0.160222,0.126483,0,0,3.605,0.315,-0.98,0.425292,-0.253638,-0.790438,-0.08274,0.29358,0.34356
-15.2625,0,0,30.2625,30.2625,5,5,25.2824,3.49638,-26.4124,-0.437061,-0.109552,-0.135644,1,0,3.605,-0.1575,-1.05,-0.417972,-0.523136,-1.05054,-0.0854,0.29288,0.34482
-15.2336,0,0,30.2336,30.2336,5,5,25.2821,3.49678,-26.412,-0.437068,-0.109556,-0.135643,1,0,3.3425,0.315,-0.945,-0.417972,-0.523136,-1.05054,-0.0854,0.29288,0.34482
-11.1676,0,0,26.1676,26.1676,5,5,25.2214,4.09929,-26.7171,0.375748,0.0152252,0.116714,0,0,3.2375,0.4025,-1.015,0.408822,-0.397232,-0.799954,-0.0854,0.29288,0.34482
-11.361,0,0,26.361,26.361,5,5,25.1641,4.68493,-27.0181,0.365556,0.01399,0.11643,0,0,3.535,0.07,-1.12,0.408822,-0.397232,-0.799954,-0.0854,0.29288,0.34482
-19.2249,0,0,34.2249,34.2249,5,5,25.2243,3.93947,-26.7149,-0.499447,0.0827672,0.0403963,0,0,3.8325,0.035,-1.12,-0.472872,-0.329888,-0.875838,-0.0854,0.29288,0.34482
-18.9141,0,0,33.9141,33.9141,5,5,25.2792,3.21056,-26.4135,-0.48675,0.0839716,0.0407053,0,0,3.64,0.0875,-1.155,-0.472872,-0.329888,-0.875838,-0.0854,0.29288,0.34482
-15.2511,0,0,30.2511,30.2511,5,5,25.2792,3.21043,-26.4135,0.372035,-0.0990961,-0.00687575,1,0,3.5,-0.0525,-0.9975,0.389546,-0.512766,-0.923052,-0.0854,0.29288,0.34482
-15.2816,0,0,30.2816,30.2816,5,5,25.2797,3.21063,-26.4133,0.372031,-0.0990889,-0.00687937,1,0,3.745,0.175,-0.98,0.389546,-0.512766,-0.923052,-0.0854,0.29288,0.34482
-15.4236,0,0,30.4236,30.4236,5,5,25.2823,2.75386,-26.2357,-0.300813,0.0713732,0.000238766,0,0,3.6925,0.0525,-0.945,-0.294142,-0.342698,-0.916342,-0.09086,0.29372,0.34874
-15.2511,0,0,30.2511,30.2511,5,5,25.2822,2.30822,-26.0595,-0.293043,0.0715195,0.000549573,0,0,3.4825,-0.07,-1.015,-0.294142,-0.342698,-0.916342,-0.09086,0.29372,0.34874
-15.2707,0,0,30.2707,30.2707,5,5,25.2825,2.308,-26.0596,0.0925564,-0.251624,-0.169859,1,0,3.64,-0.14,-1.0675,0.093086,-0.66551,-1.08543,-0.09086,0.29372,0.34874
-15.2654,0,0,30.2654,30.2654,5,5,25.2827,2.30788,-26.0596,0.0925585,-0.251621,-0.16986,1,0,3.5875,-0.0525,-1.015,0.093086,-0.66551,-1.08543,-0.09086,0.29372,0.34874
-15.2642,0,0,30.2642,30.2642,5,5,25.2828,2.30802,-26.0595,0.151234,0.302104,0.219886,1,0,3.57,0.1225,-0.9975,0.152012,-0.112362,-0.698694,-0.09086,0.29372,0.34874
-15.2678,0,0,30.2678,30.2678,5,5,25.283,2.30847,-26.0598,0.151226,0.302107,0.219884,1,0,3.605,0.1925,-1.2775,0.152012,-0.112362,-0.698694,-0.09086,0.29372,0.34874
-15.2578,0,0,30.2578,30.2578,5,5,25.283,2.30872,-26.06,-0.356224,-0.296925,-0.302771,1,0,3.5175,0.0875,-1.225,-0.357582,-0.710772,-1.21732,-0.09086,0.29372,0.34874
-15.2584,0,0,30.2584,30.2584,5,5,25.2831,2.30884,-26.0602,-0.356226,-0.296924,-0.302771,1,0,3.5175,0.035,-1.155,-0.357582,-0.710772,-1.21732,-0.09086,0.29372,0.34874
-11.9277,0,0,26.9277,26.9277,5,5,25.2336,2.96236,-26.3765,0.38389,0.0326691,0.182523,0,0,3.6925,-0.105,-1.2075,0.39711,-0.380518,-0.73566,-0.08428,0.2912,0.34482
-12.0554,0,0,27.0554,27.0554,5,5,25.1864,3.59854,-26.6879,0.372805,0.0316552,0.182299,0,0,3.465,-0.0525,-1.2075,0.39711,-0.380518,-0.73566,-0.08428,0.2912,0.34482
-15.1656,0,0,30.1656,30.1656,5,5,25.1859,3.5987,-26.6881,-0.476018,-0.0106086,-0.179781,1,0,3.22,0.0525,-1.1725,-0.455304,-0.42273,-1.09495,-0.08428,0.2912,0.34482
-15.1837,0,0,30.1837,30.1837,5,5,25.1857,3.59862,-26.6885,-0.476017,-0.0106122,-0.179779,1,0,3.3775,-0.1225,-1.225,-0.455304,-0.42273,-1.09495,-0.08428,0.2912,0.34482
-11.0579,0,0,26.0579,26.0579,5,5,25.1241,4.44719,-27.0968,0.498467,0.0500163,0.267514,0,0,3.5,0.105,-1.155,0.538142,-0.360754,-0.650626,-0.08428,0.2912,0.34482
-11.2227,0,0,26.2227,26.2227,5,5,25.0656,5.2742,-27.4986,0.484085,0.0485752,0.266839,0,0,3.535,-0.0525,-1.19,0.538142,-0.360754,-0.650626,-0.08428,0.2912,0.34482
-15.1286,0,0,30.1286,30.1286,5,5,25.0656,5.27426,-27.499,-0.624716,-0.12802,-0.255816,1,0,3.5175,-0.0525,-1.26,-0.575352,-0.537166,-1.16925,-0.08428,0.2912,0.34482
-15.1345,0,0,30.1345,30.1345,5,5,25.0657,5.27444,-27.4992,-0.624719,-0.128019,-0.255817,1,0,3.5525,0.07,-1.1725,-0.575352,-0.537166,-1.16925,-0.08428,0.2912,0.34482
-15.1826,0,0,30.1826,30.1826,5,5,25.0665,5.82031,-27.7669,0.376803,-0.0512122,0.0964513,0,0,3.6225,0.0175,-1.155,0.439932,-0.460062,-0.818864,-0.0861,0.29176,0.34846
-15.3261,0,0,30.3261,30.3261,5,5,25.0694,6.35114,-28.0301,0.36759,-0.0515825,0.0955402,0,0,3.7625,-0.3325,-1.19,0.439932,-0.460062,-0.818864,-0.0861,0.29176,0.34846
-15.166,0,0,30.166,30.166,5,5,25.0699,6.35119,-28.0302,-0.318805,0.358039,0.0885283,1,0,3.78,0.035,-1.0675,-0.249368,-0.050874,-0.825818,-0.0861,0.29176,0.34846
-15.0979,0,0,30.0979,30.0979,5,5,25.0694,6.35049,-28.0304,-0.318793,0.358031,0.0885333,1,0,3.22,-0.42,-0.9975,-0.249368,-0.050874,-0.825818,-0.0861,0.29176,0.34846
-15.1065,0,0,30.1065,30.1065,5,5,25.069,6.34991,-28.0307,0.0180971,-0.164555,-0.0717877,1,0,3.29,-0.35,-1.015,0.088938,-0.572912,-0.984906,-0.0861,0.29176,0.34846
-15.0911,0,0,30.0911,30.0911,5,5,25.0684,6.34999,-28.0304,0.0180958,-0.164565,-0.0717833,1,0,3.1325,0.105,-0.945,0.088938,-0.572912,-0.984906,-0.0861,0.29176,0.34846
-15.1115,0,0,30.1115,30.1115,5,5,25.0681,6.35003,-28.0303,-0.148097,0.192163,0.198829,1,0,3.3075,0.07,-0.98,-0.077958,-0.21655,-0.716384,-0.0861,0.29176,0.34846
-15.1081,0,0,30.1081,30.1081,5,5,25.0677,6.35006,-28.0301,-0.148098,0.192157,0.198831,1,0,3.2725,0.0875,-0.9275,-0.077958,-0.21655,-0.716384,-0.0861,0.29176,0.34846
-15.1209,0,0,30.1209,30.1209,5,5,25.0675,6.35023,-28.0299,-0.134373,-0.201583,-0.341035,1,0,3.3775,0.1575,-0.9625,-0.064172,-0.609878,-1.25209,-0.0861,0.29176,0.34846
-15.1407,0,0,30.1407,30.1407,5,5,25.0676,6.35009,-28.0296,-0.134371,-0.201581,-0.341035,1,0,3.535,0.0175,-0.84,-0.064172,-0.609878,-1.25209,-0.08414,0.2891,0.34286
-15.1189,0,0,30.1189,30.1189,5,5,25.0674,6.34974,-28.0294,0.100832,0.0691708,0.241989,1,0,3.36,-0.14,-0.875,0.17202,-0.339404,-0.673562,-0.08414,0.2891,0.34286
-15.1644,0,0,30.1644,30.1644,5,5,25.0679,6.3494,-28.0294,0.100838,0.0691782,0.241986,1,0,3.745,-0.1575,-0.945,0.17202,-0.339404,-0.673562,-0.08414,0.2891,0.34286
-15.132,0,0,30.132,30.132,5,5,25.0678,6.34901,-28.0293,-0.41061,-0.133919,-0.322838,1,0,3.465,-0.175,-0.8925,-0.3416,-0.54229,-1.23403,-0.08414,0.2891,0.34286
-15.1371,0,0,30.1371,30.1371,5,5,25.0678,6.34867,-28.0295,-0.410604,-0.133918,-0.322838,1,0,3.5175,-0.1925,-1.015,-0.3416,-0.54229,-1.23403,-0.08414,0.2891,0.34286
-15.123,0,0,30.123,30.123,5,5,25.0677,6.34819,-28.0296,0.340186,0.0241114,0.265596,1,0,3.395,-0.2625,-0.9625,0.41236,-0.384422,-0.650138,-0.08414,0.2891,0.34286
-15.1074,0,0,30.1074,30.1074,5,5,25.0672,6.34841,-28.0298,0.340182,0.0241046,0.265599,1,0,3.2725,0.07,-1.225,0.41236,-0.384422,-0.650138,-0.08414,0.2891,0.34286
-15.1459,0,0,30.1459,30.1459,5,5,25.0674,6.34817,-28.03,-0.562817,0.00700939,-0.141976,1,0,3.5875,-0.1575,-1.0675,-0.494466,-0.401502,-1.05457,-0.08414,0.2891,0.34286
-15.1213,0,0,30.1213,30.1213,5,5,25.0672,6.34785,-28.0304,-0.562812,0.00700615,-0.141974,1,0,3.395,-0.2625,-1.19,-0.494466,-0.401502,-1.05457,-0.08666,0.2905,0.34748
-15.111,0,0,30.111,30.111,5,5,25.0668,6.34733,-28.0309,0.360489,-0.118179,0.0379031,1,0,3.3075,-0.3675,-1.1375,0.432734,-0.526552,-0.876082,-0.08666,0.2905,0.34748
-15.1459,0,0,30.1459,30.1459,5,5,25.0669,6.34711,-28.0309,0.360492,-0.118177,0.0379025,1,0,3.57,-0.105,-0.98,0.432734,-0.526552,-0.876082,-0.08666,0.2905,0.34748
-14.4095,0,0,29.4095,29.4095,5,5,25.0561,5.69834,-27.7987,-0.417904,0.148515,0.0852868,0,0,3.5525,-0.0525,-1.1375,-0.360266,-0.26047,-0.83021,-0.08666,0.2905,0.34748
-14.2405,0,0,29.2405,29.2405,5,5,25.0429,5.06428,-27.5668,-0.406886,0.148746,0.0863245,0,0,3.7275,0.2275,-1.19,-0.360266,-0.26047,-0.83021,-0.08666,0.2905,0.34748
-15.1612,0,0,30.1612,30.1612,5,5,25.0434,5.06446,-27.567,0.241601,-0.178423,-0.123553,1,0,3.815,0.07,-1.155,0.29097,-0.587308,-1.03846,-0.08666,0.2905,0.34748
-15.1573,0,0,30.1573,30.1573,5,5,25.0439,5.06433,-27.5672,0.241603,-0.178415,-0.123556,1,0,3.78,-0.105,-1.12,0.29097,-0.587308,-1.03846,-0.08666,0.2905,0.34748
-15.152,0,0,30.152,30.152,5,5,25.0443,5.06445,-27.5674,0.186325,0.296786,0.183074,1,0,3.7275,0.035,-1.155,0.23546,-0.112606,-0.734196,-0.08666,0.2905,0.34748
-15.1335,0,0,30.1335,30.1335,5,5,25.0445,5.06458,-27.5676,0.186323,0.296788,0.183073,1,0,3.57,0.035,-1.1725,0.23546,-0.112606,-0.734196,-0.08568,0.2926,0.34342
-15.1145,0,0,30.1145,30.1145,5,5,25.0443,5.06449,-27.5679,-0.289899,-0.15777,-0.254499,1,0,3.4125,-0.105,-1.1725,-0.24278,-0.56669,-1.16839,-0.08568,0.2926,0.34342
-15.1421,0,0,30.1421,30.1421,5,5,25.0445,5.06434,-27.5682,-0.289897,-0.157767,-0.254501,1,0,3.64,-0.14,-1.155,-0.24278,-0.56669,-1.16839,-0.08568,0.2926,0.34342
-15.1508,0,0,30.1508,30.1508,5,5,25.0449,5.06427,-27.5685,0.28048,0.122276,0.277741,1,0,3.71,-0.105,-1.19,0.33001,-0.286944,-0.640256,-0.08568,0.2926,0.34342
-15.1544,0,0,30.1544,30.1544,5,5,25.0453,5.06395,-27.5687,-0.0341626,0.129121,0.120979,1,0,3.7275,-0.1925,-1.05,0.01403,-0.280112,-0.795806,-0.08568,0.2926,0.34342
-15.1343,0,0,30.1343,30.1343,5,5,25.0454,5.06359,-27.5688,-0.299603,-0.0872854,-0.243072,1,0,3.5525,-0.21,-1.015,-0.25254,-0.496296,-1.15705,-0.08568,0.2926,0.34342
-15.1493,0,0,30.1493,30.1493,5,5,25.0457,5.06347,-27.569,-0.2996,-0.0872804,-0.243074,1,0,3.675,-0.0875,-1.085,-0.25254,-0.496296,-1.15705,-0.08568,0.2926,0.34342
-15.148,0,0,30.148,30.148,5,5,25.046,5.06316,-27.5691,0.159499,0.014578,0.153925,1,0,3.6575,-0.175,-1.015,0.208498,-0.394548,-0.76311,-0.08568,0.2926,0.34342
-15.1233,0,0,30.1233,30.1233,5,5,25.0459,5.06315,-27.5688,0.0347337,0.118629,0.30589,1,0,3.43,0.07,-0.91,0.083204,-0.290604,-0.612318,-0.0868,0.28784,0.34608
-15.1026,0,0,30.1026,30.1026,5,5,25.0455,5.06319,-27.5686,-0.355722,0.0129826,-0.132173,1,0,3.255,0.0875,-0.9275,-0.308904,-0.396134,-1.047,-0.0868,0.28784,0.34608
-15.1283,0,0,30.1283,30.1283,5,5,25.0455,5.06338,-27.5683,-0.0339097,-0.0936346,-0.204958,1,0,3.465,0.1925,-0.9275,0.014274,-0.50264,-1.11923,-0.0868,0.28784,0.34608
-15.1469,0,0,30.1469,30.1469,5,5,25.0457,5.06324,-27.5681,-0.0339073,-0.0936306,-0.20496,1,0,3.6225,-0.0175,-0.91,0.014274,-0.50264,-1.11923,-0.0868,0.28784,0.34608
-15.1421,0,0,30.1421,30.1421,5,5,25.0459,5.06322,-27.5682,0.0142015,0.0106683,0.197941,1,0,3.5875,0,-1.0325,0.062586,-0.398452,-0.719434,-0.0868,0.28784,0.34608
-15.1482,0,0,30.1482,30.1482,5,5,25.0461,5.06321,-27.5683,0.0142015,0.0106723,0.197939,1,0,3.64,-0.0175,-1.1025,0.062586,-0.398452,-0.719434,-0.0868,0.28784,0.34608
-15.1398,0,0,30.1398,30.1398,5,5,25.0462,5.06325,-27.5685,-0.255497,-0.0784784,-0.214308,1,0,3.57,-0.0175,-1.155,-0.208254,-0.487512,-1.1285,-0.0868,0.28784,0.34608
-15.1617,0,0,30.1617,30.1617,5,5,25.0467,5.06338,-27.5686,-0.2555,-0.0784715,-0.214311,1,0,3.745,0.0525,-1.1375,-0.208254,-0.487512,-1.1285,-0.0868,0.28784,0.34608
-15.1525,0,0,30.1525,30.1525,5,5,25.047,5.06353,-27.5687,0.149045,-0.0594153,0.199162,1,0,3.6575,0.0875,-1.085,0.198006,-0.46848,-0.718214,-0.08568,0.2898,0.34286
-7.68006,0,0,22.6801,22.6801,7.31994,7.31994,24.9362,4.67472,-27.4658,-0.284943,0.153536,-0.0397432,0,0,3.7275,0.3325,-1.085,-0.24461,-0.254248,-0.956602,-0.08568,0.2898,0.34286
-7.62111,0,0,22.6211,22.6211,7.37889,7.37889,24.8255,4.29455,-27.3629,-0.278329,0.152007,-0.0384622,0,0,3.4475,0.1575,-1.26,-0.24461,-0.254248,-0.956602,-0.08568,0.2898,0.34286
-15.0241,0,0,30.0241,30.0241,5,5,24.8258,4.29492,-27.3631,0.28463,-0.25699,-0.0699399,1,0,3.6925,0.1575,-1.2425,0.320738,-0.662826,-0.987834,-0.08568,0.2898,0.34286
-14.9775,0,0,29.9775,29.9775,5,5,24.8255,4.29414,-27.3635,0.284643,-0.256995,-0.0699363,1,0,3.3075,-0.5075,-1.0675,0.320738,-0.662826,-0.987834,-0.08568,0.2898,0.34286
-14.9488,0,0,29.9488,29.9488,5,5,24.8247,4.29339,-27.3643,-0.325809,0.282426,0.245925,1,0,3.08,-0.56,-1.2425,-0.292312,-0.123952,-0.674416,-0.08568,0.2898,0.34286
-14.9863,0,0,29.9863,29.9863,5,5,24.8244,4.29405,-27.3646,-0.325821,0.282422,0.245926,1,0,3.3775,0.28,-1.3825,-0.292312,-0.123952,-0.674416,-0.08568,0.2898,0.34286
-15.0336,0,0,30.0336,30.0336,5,5,24.8249,4.2948,-27.3648,-0.263998,-0.130237,-0.396238,1,0,3.7625,0.3675,-1.3125,-0.230214,-0.53619,-1.31162,-0.08568,0.2898,0.34286
-15.0212,0,0,30.0212,30.0212,5,5,24.8252,4.29535,-27.3651,-0.264007,-0.130233,-0.396241,1,0,3.6575,0.245,-1.3125,-0.230214,-0.53619,-1.31162,-0.08596,0.29064,0.34216
-15.0503,0,0,30.0503,30.0503,5,5,24.8259,4.29533,-27.3655,0.398698,0.154333,0.451115,1,0,3.9025,-0.105,-1.26,0.435296,-0.25193,-0.470798,-0.08596,0.29064,0.34216
-15.0339,0,0,30.0339,30.0339,5,5,24.8263,4.29529,-27.3652,-0.342364,-0.0305595,-0.138672,1,0,3.7275,0.07,-0.8575,-0.308904,-0.436638,-1.05603,-0.08596,0.29064,0.34216
-14.9463,0,0,29.9463,29.9463,5,5,24.8255,4.29555,-27.3645,-0.342369,-0.0305733,-0.138666,1,0,2.975,0.3325,-0.7175,-0.308904,-0.436638,-1.05603,-0.08596,0.29064,0.34216
-28.2455,0,0,43.2455,43.2455,5,5,25.0223,4.73537,-27.5229,0.352895,-0.21482,0.150239,0,0,3.6225,0.455,-0.7,0.396988,-0.623542,-0.76738,-0.08596,0.29064,0.34216
-28.2226,0,0,43.2226,43.2226,5,5,25.217,5.16405,-27.6764,0.345441,-0.212028,0.148217,0,0,3.36,0.1225,-0.4725,0.396988,-0.623542,-0.76738,-0.08596,0.29064,0.34216
-15.2215,0,0,30.2215,30.2215,5,5,25.2168,5.1623,-27.6766,-0.672214,0.41631,0.625876,1,0,3.3425,-0.945,-0.665,-0.625006,0.004148,-0.29341,-0.08596,0.29064,0.34216
-15.4153,0,0,30.4153,30.4153,5,5,25.2194,5.1609,-27.6773,-0.67219,0.416352,0.625859,1,0,4.9875,-0.91,-1.085,-0.625006,0.004148,-0.29341,-0.08596,0.29064,0.34216
-15.2522,0,0,30.2522,30.2522,5,5,25.2195,5.16021,-27.6773,-0.267631,0.323417,-0.366213,1,0,3.57,-0.3325,-0.8225,-0.218746,-0.088694,-1.27783,-0.08008,0.29134,0.35084
-15.173,0,0,30.173,30.173,5,5,25.2185,5.15894,-27.6786,-0.00410612,-0.406917,0.0726001,1,0,2.975,-0.98,-1.4,0.045872,-0.818254,-0.84241,-0.08008,0.29134,0.35084
-15.0539,0,0,30.0539,30.0539,5,5,25.2157,5.15891,-27.6811,-0.00410564,-0.406961,0.0726209,1,0,2.0475,-0.63,-2.3625,0.045872,-0.818254,-0.84241,-0.08008,0.29134,0.35084
-15.0394,0,0,30.0394,30.0394,5,5,25.2127,5.16021,-27.682,-0.134118,0.791543,0.14973,1,0,1.855,0.4725,-1.8375,-0.084668,0.379054,-0.765916,-0.08008,0.29134,0.35084
-15.1072,0,0,30.1072,30.1072,5,5,25.2107,5.16073,-27.6843,-0.134127,0.791511,0.149744,1,0,2.5025,-0.28,-2.38,-0.084668,0.379054,-0.765916,-0.08008,0.29134,0.35084
-15.1374,0,0,30.1374,30.1374,5,5,25.2092,5.16332,-27.6853,-0.338268,-0.476434,-0.234463,1,0,2.695,1.1375,-2.205,-0.289628,-0.88755,-1.14717,-0.08008,0.29134,0.35084
-15.3221,0,0,30.3221,30.3221,5,5,25.2104,5.16676,-27.6863,-0.338328,-0.476417,-0.234477,1,0,4.235,1.61,-2.38,-0.289628,-0.88755,-1.14717,-0.08008,0.29134,0.35084
-17.8698,0,0,32.8698,32.8698,5,5,25.2495,5.33444,-27.7863,0.133403,-0.0776609,-0.0197259,0,0,4.795,0.28,-2.625,0.187026,-0.489708,-0.933544,-0.08008,0.29134,0.35084
-17.7339,0,0,32.7339,32.7339,5,5,25.2862,5.49719,-27.8795,0.130575,-0.0771983,-0.0202407,0,0,3.745,-0.5075,-2.3275,0.187026,-0.489708,-0.933544,-0.08372,0.28994,0.34888
-15.2757,0,0,30.2757,30.2757,5,5,25.2861,5.4972,-27.8816,-0.147263,-0.0708501,-0.0897055,1,0,3.5175,-0.49,-2.1175,-0.091988,-0.483364,-1.00247,-0.08372,0.28994,0.34888
-15.2028,0,0,30.2028,30.2028,5,5,25.2848,5.49677,-27.8826,-0.147256,-0.0708693,-0.0896956,1,0,2.8525,-0.4725,-1.47,-0.091988,-0.483364,-1.00247,-0.08372,0.28994,0.34888
-15.1886,0,0,30.1886,30.1886,5,5,25.2834,5.49559,-27.8841,0.21297,0.14564,0.302154,1,0,2.765,-0.9975,-1.5575,0.269742,-0.267058,-0.61366,-0.08372,0.28994,0.34888
-15.2006,0,0,30.2006,30.2006,5,5,25.2821,5.49459,-27.8844,0.212987,0.14562,0.302165,1,0,2.8,-0.5775,-0.9275,0.269742,-0.267058,-0.61366,-0.08372,0.28994,0.34888
-18.4358,0,0,33.4358,33.4358,5,5,25.329,5.19206,-27.7742,-0.203189,-0.0178161,-0.0476502,0,0,2.7125,-0.385,-0.6825,-0.153476,-0.43127,-0.960872,-0.08372,0.28994,0.34888
-18.3014,0,0,33.3014,33.3014,5,5,25.3734,4.89778,-27.6642,-0.198073,-0.0169248,-0.0475727,0,0,2.66,0.1225,-0.1925,-0.153476,-0.43127,-0.960872,-0.08372,0.28994,0.34888
-14.297,0,0,29.297,29.297,5,5,25.3579,5.00279,-27.7373,0.0606878,0.0194017,0.0471933,0,0,3.08,1.4875,0.455,0.108214,-0.39467,-0.86681,-0.08372,0.28994,0.34888
-14.367,0,0,29.367,29.367,5,5,25.3435,5.10387,-27.8219,0.0589304,0.0191099,0.0471596,0,0,3.185,1.1725,0.5775,0.108214,-0.39467,-0.86681,-0.08022,0.29652,0.35336
-15.3098,0,0,30.3098,30.3098,5,5,25.3433,5.1031,-27.8184,-0.277936,-0.267891,-0.262422,1,0,3.2025,0.49,1.015,-0.230092,-0.68137,-1.17401,-0.08022,0.29652,0.35336
-15.31,0,0,30.31,30.31,5,5,25.3431,5.10233,-27.8148,-0.277923,-0.267893,-0.26242,1,0,3.2025,0.49,1.015,-0.230092,-0.68137,-1.17401,-0.08022,0.29652,0.35336
-15.4133,0,0,30.4133,30.4133,5,5,25.3445,5.10052,-27.8109,0.0634836,0.151023,0.0826895,1,0,4.0425,0.035,1.47,0.112728,-0.26291,-0.831552,-0.08022,0.29652,0.35336
-15.4145,0,0,30.4145,30.4145,5,5,25.3458,5.09871,-27.807,0.063515,0.151046,0.0826822,1,0,4.0425,0.035,1.47,0.112728,-0.26291,-0.831552,-0.08022,0.29652,0.35336
-15.4528,0,0,30.4528,30.4528,5,5,25.3477,5.095,-27.8046,-0.158618,0.0291951,0.108493,1,0,4.4275,-1.3475,1.155,-0.11041,-0.384666,-0.805932,-0.08022,0.29652,0.35336
-15.4543,0,0,30.4543,30.4543,5,5,25.3495,5.09129,-27.8022,-0.158553,0.0292271,0.108484,1,0,4.4275,-1.3475,1.155,-0.11041,-0.384666,-0.805932,-0.08022,0.29652,0.35336
-13.6203,0,0,28.6203,28.6203,5,5,25.3241,5.13962,-27.8708,0.0382638,-0.0148035,-0.0683181,0,0,3.5525,-0.6125,0.2625,0.088084,-0.42822,-0.98149,-0.08022,0.29652,0.35336
-13.6569,0,0,28.6569,28.6569,5,5,25.2995,5.18642,-27.9531,0.0374502,-0.0152221,-0.0682014,0,0,3.5525,-0.6125,0.2625,0.088084,-0.42822,-0.98149,-0.07364,0.30058,0.34874
-25.3608,0,0,40.3608,40.3608,5,5,25.4491,4.84487,-27.8141,-0.208816,-0.0616221,0.0523823,0,0,3.3775,1.19,-0.7875,-0.165188,-0.477142,-0.861198,-0.07364,0.30058,0.34874
-25.1259,0,0,40.1259,40.1259,5,5,25.5938,4.51249,-27.6776,-0.203034,-0.0591462,0.0517246,0,0,3.3775,1.19,-0.7875,-0.165188,-0.477142,-0.861198,-0.07364,0.30058,0.34874
-15.4349,0,0,30.4349,30.4349,5,5,25.5932,4.51471,-27.6778,0.335352,-0.198382,-0.162819,1,0,3.15,1.12,-1.7325,0.375516,-0.616222,-1.07409,-0.07364,0.30058,0.34874
-8.9129,0,0,23.9129,23.9129,6.0871,6.0871,25.4956,4.58042,-27.7815,0.0335317,0.0446668,-0.0917189,0,0,2.695,0.8225,-2.1175,0.073566,-0.371856,-1.00418,-0.07364,0.30058,0.34874
-9.01748,0,0,24.0175,24.0175,5.98252,5.98252,25.4004,4.64319,-27.8852,0.0324398,0.0431339,-0.091087,0,0,2.87,0.175,-2.485,0.073566,-0.371856,-1.00418,-0.07364,0.30058,0.34874
-20.2384,0,0,35.2384,35.2384,5,5,25.4729,4.2523,-27.7449,-0.247222,0.0276467,0.0689279,0,0,3.465,-0.4725,-2.7475,-0.21411,-0.388692,-0.845338,-0.07364,0.30058,0.34874
-20.1553,0,0,35.1553,35.1553,5,5,25.5435,3.87148,-27.6057,-0.240592,0.0289588,0.0688235,0,0,4.235,-0.1925,-2.485,-0.21411,-0.388692,-0.845338,-0.07364,0.30058,0.34874
-15.5813,0,0,30.5813,30.5813,5,5,25.5455,3.87198,-27.6087,0.210233,-0.308203,-0.235735,1,0,4.7075,-0.4725,-2.73,0.238632,-0.725534,-1.14753,-0.07364,0.30058,0.34874
-15.6099,0,0,30.6099,30.6099,5,5,25.5478,3.87216,-27.6122,0.21023,-0.308165,-0.235753,1,0,4.9525,-0.77,-2.9225,0.238632,-0.725534,-1.14753,-0.07126,0.30366,0.34916
-15.5656,0,0,30.5656,30.5656,5,5,25.5495,3.87271,-27.6157,-0.0806166,-0.135696,-0.119088,1,0,4.5675,-0.5775,-3.01,-0.053436,-0.55327,-1.03175,-0.07126,0.30366,0.34916
-15.479,0,0,30.479,30.479,5,5,25.5499,3.87508,-27.6182,-0.0806579,-0.135692,-0.119094,1,0,3.7975,0.63,-2.9575,-0.053436,-0.55327,-1.03175,-0.07126,0.30366,0.34916
-15.3222,0,0,30.3222,30.3222,5,5,25.5479,3.87692,-27.6203,-0.224893,-0.0702636,0.246445,1,0,2.4675,0.4725,-2.5725,-0.19825,-0.487878,-0.669048,-0.07126,0.30366,0.34916
-15.2472,0,0,30.2472,30.2472,5,5,25.5448,3.87835,-27.622,0.347765,-0.131132,-0.210164,1,0,1.8375,0.3325,-2.31,0.376858,-0.548634,-1.12216,-0.07126,0.30366,0.34916
-15.2254,0,0,30.2254,30.2254,5,5,25.5415,3.87794,-27.6241,0.347772,-0.131184,-0.210138,1,0,1.68,-0.7175,-2.0125,0.376858,-0.548634,-1.12216,-0.07126,0.30366,0.34916
-15.3192,0,0,30.3192,30.3192,5,5,25.5395,3.87811,-27.6254,0.577742,-0.714737,-0.0729133,1,0,2.45,-0.245,-1.8025,0.607804,-1.13155,-0.986004,-0.07126,0.30366,0.34916
-15.3853,0,0,30.3853,30.3853,5,5,25.5386,3.87692,-27.6255,0.577763,-0.714751,-0.0729048,1,0,2.9575,-0.63,-0.77,0.607804,-1.13155,-0.986004,-0.07952,0.30226,0.35266
-15.4272,0,0,30.4272,30.4272,5,5,25.5382,3.87571,-27.6255,-1.45346,0.362036,0.890277,1,0,3.3075,-0.63,-0.7525,-1.43204,-0.055876,-0.030256,-0.07952,0.30226,0.35266
-15.5329,0,0,30.5329,30.5329,5,5,25.5395,3.87384,-27.6264,-1.45342,0.362056,0.89027,1,0,4.2175,-1.19,-1.015,-1.43204,-0.055876,-0.030256,-0.07952,0.30226,0.35266
-15.4553,0,0,30.4553,30.4553,5,5,25.5395,3.87299,-27.6256,0.387341,-0.364108,-0.0468428,1,0,3.5,-0.245,-0.42,0.416508,-0.781288,-0.96014,-0.07952,0.30226,0.35266
-15.7629,0,0,30.7629,30.7629,5,5,25.5442,3.87295,-27.6247,0.387342,-0.364035,-0.0468776,1,0,6.055,0.2275,-0.5425,0.416508,-0.781288,-0.96014,-0.07952,0.30226,0.35266
23.7252,0,0,5,5,38.7252,38.7252,24.9617,3.5237,-27.659,-0.380682,0.635724,-0.0970292,0,0,5.635,-0.175,-0.5075,-0.360876,0.226432,-1.01455,-0.07952,0.30226,0.35266
23.7378,0,0,5,5,38.7378,38.7378,24.3843,3.17842,-27.6883,-0.374666,0.626729,-0.0925093,0,0,3.885,-0.07,0.07,-0.360876,0.226432,-1.01455,-0.07952,0.30226,0.35266
12.222,0,0,5,5,27.222,27.222,23.9832,3.60017,-28.0165,0.240357,0.295685,-0.111805,0,0,4.9525,-0.0525,0.21,0.26413,-0.097722,-1.03615,-0.07952,0.30226,0.35266
12.3775,0,0,5,5,27.3775,27.3775,23.5833,4.01018,-28.3455,0.233217,0.289121,-0.109432,0,0,1.365,0.105,-0.035,0.26413,-0.097722,-1.03615,-0.07952,0.30226,0.35266
-14.0279,0,0,29.0279,29.0279,5,5,23.5796,4.01036,-28.3438,-0.0605385,-0.504884,-0.0219895,1,0,1.33,0.5075,-0.175,-0.030866,-0.890844,-0.949404,-0.08134,0.30506,0.35714
-22.8455,0,0,37.8455,37.8455,5,5,23.7069,4.05859,-28.3706,0.0530613,-0.0954619,0.0777617,0,0,2.415,0.875,0.0525,0.084058,-0.483852,-0.849486,-0.08134,0.30506,0.35714
-22.9078,0,0,37.9078,37.9078,5,5,23.8341,4.10518,-28.3968,0.0522502,-0.0934593,0.0768165,0,0,3.605,0.3675,0.42,0.084058,-0.483852,-0.849486,-0.08134,0.30506,0.35714
-14.4676,0,0,29.4676,29.4676,5,5,23.8346,4.10425,-28.3947,-0.14126,-0.263695,-0.381292,1,0,3.71,0.035,0.35,-0.110288,-0.65392,-1.30406,-0.08134,0.30506,0.35714
-14.6994,0,0,29.6994,29.6994,5,5,23.8386,4.10398,-28.3942,-0.141256,-0.263631,-0.38132,1,0,5.705,-0.0175,-0.7175,-0.110288,-0.65392,-1.30406,-0.08134,0.30506,0.35714
18.1387,0,0,5,5,33.1387,33.1387,23.3544,4.38515,-28.6967,0.0963359,0.39177,-0.0314414,0,0,4.9175,0.8925,-0.6475,0.133224,0.008662,-0.959896,-0.08134,0.30506,0.35714
17.8806,0,0,5,5,32.8806,32.8806,22.8783,4.65897,-29.0007,0.0915718,0.384004,-0.0285359,0,0,4.6375,1.5925,-1.19,0.133224,0.008662,-0.959896,-0.08134,0.30506,0.35714
-11.6981,0,0,26.6981,26.6981,5,5,22.8462,4.80966,-29.1282,0.0883433,0.0309469,0.0544714,0,0,4.9,1.54,-1.925,0.132614,-0.34343,-0.877546,-0.08134,0.30506,0.35714
-11.3992,0,0,26.3992,26.3992,5,5,22.8099,4.9553,-29.2609,0.0858106,0.0302814,0.0545168,0,0,1.75,1.12,-2.3275,0.132614,-0.34343,-0.877546,-0.07686,0.30604,0.35896
-25.966,0,0,40.966,40.966,5,5,22.9905,5.34914,-29.4362,0.300676,-0.15502,0.190675,0,0,2.555,0.5425,-2.7475,0.355264,-0.531188,-0.740662,-0.07686,0.30604,0.35896
-26.0893,0,0,41.0893,41.0893,5,5,23.1713,5.73212,-29.6076,0.294023,-0.152384,0.18885,0,0,3.64,-0.665,-2.5375,0.355264,-0.531188,-0.740662,-0.07686,0.30604,0.35896
-14.0924,0,0,29.0924,29.0924,5,5,23.1721,5.73235,-29.6097,-0.775663,-0.173254,-0.33295,1,0,4.0775,-0.3325,-2.1875,-0.718946,-0.55205,-1.25843,-0.07686,0.30604,0.35896
-14.3537,0,0,29.3537,29.3537,5,5,23.1768,5.73054,-29.6127,-0.775631,-0.173178,-0.332979,1,0,6.3,-1.645,-2.205,-0.718946,-0.55205,-1.25843,-0.07686,0.30604,0.35896
-14.1861,0,0,29.1861,29.1861,5,5,23.179,5.72852,-29.6142,0.257883,0.400121,-0.145986,1,0,4.795,-1.4175,-1.3825,0.318908,0.020618,-1.07287,-0.07686,0.30604,0.35896
-14.2676,0,0,29.2676,29.2676,5,5,23.1824,5.72658,-29.6163,0.257916,0.400176,-0.146006,1,0,5.495,-1.5225,-1.7325,0.318908,0.020618,-1.07287,-0.07686,0.30604,0.35896
-14.337,0,0,29.337,29.337,5,5,23.1867,5.72524,-29.6188,-0.713095,-0.0758034,-0.0704201,1,0,6.0725,-1.2775,-2.0475,-0.656238,-0.454938,-0.997838,-0.07686,0.30604,0.35896
-14.1724,0,0,29.1724,29.1724,5,5,23.1886,5.72764,-29.6193,-0.713137,-0.0757753,-0.0704367,1,0,4.5675,1.19,-1.8725,-0.656238,-0.454938,-0.997838,-0.07672,0.30394,0.35196
-14.0321,0,0,29.0321,29.0321,5,5,23.1883,5.73043,-29.6188,-0.227,-0.276924,-0.219822,1,0,3.325,1.645,-1.3825,-0.167994,-0.655872,-1.14607,-0.07672,0.30394,0.35196
-13.7396,0,0,28.7396,28.7396,5,5,23.1837,5.73049,-29.619,-0.227001,-0.276997,-0.219791,1,0,0.9275,0,-1.155,-0.167994,-0.655872,-1.14607,-0.07672,0.30394,0.35196
-13.6055,0,0,28.6055,28.6055,5,5,23.1772,5.72932,-29.62,0.10018,0.192354,0.692165,1,0,-0.1225,-0.8575,-1.33,0.160552,-0.186904,-0.241194,-0.07672,0.30394,0.35196
-13.8381,0,0,28.8381,28.8381,5,5,23.1741,5.7284,-29.6206,0.100196,0.192306,0.692187,1,0,1.82,-0.6125,-1.1375,0.160552,-0.186904,-0.241194,-0.07672,0.30394,0.35196
-13.9593,0,0,28.9593,28.9593,5,5,23.1729,5.72758,-29.6198,0.263123,0.450585,0.382244,1,0,2.765,-0.245,-0.42,0.324154,0.071126,-0.548756,-0.07672,0.30394,0.35196
-14.1625,0,0,29.1625,29.1625,5,5,23.1747,5.72414,-29.6197,0.263183,0.450617,0.382237,1,0,4.4975,-1.8025,-0.1575,0.324154,0.071126,-0.548756,-0.07672,0.30394,0.35196
-14.3681,0,0,29.3681,29.3681,5,5,23.1796,5.72047,-29.6201,-0.468705,-0.317969,-0.789735,1,0,6.23,-2.0475,-0.4025,-0.410896,-0.696742,-1.71166,-0.07672,0.30394,0.35196
-14.3713,0,0,29.3713,29.3713,5,5,23.1844,5.71681,-29.6205,-0.468641,-0.317889,-0.789763,1,0,6.23,-2.0475,-0.4025,-0.410896,-0.696742,-1.71166,-0.0784,0.2975,0.33936
-14.6809,0,0,29.6809,29.6809,5,5,23.1938,5.71298,-29.6193,0.627591,-0.104137,-0.0408185,1,0,8.6975,-1.785,0.455,0.68991,-0.483364,-0.968436,-0.0784,0.2975,0.33936
-14.6869,0,0,29.6869,29.6869,5,5,23.2032,5.70915,-29.6182,0.627657,-0.103984,-0.0408767,1,0,8.6975,-1.785,0.455,0.68991,-0.483364,-0.968436,-0.0784,0.2975,0.33936
-14.2565,0,0,29.2565,29.2565,5,5,23.2061,5.71127,-29.616,-0.282186,-0.0210154,-0.378639,1,0,5.005,1.645,-0.385,-0.223748,-0.400526,-1.30357,-0.0784,0.2975,0.33936
-14.2586,0,0,29.2586,29.2586,5,5,23.209,5.71338,-29.6139,-0.282223,-0.0209704,-0.378663,1,0,5.005,1.645,-0.385,-0.223748,-0.400526,-1.30357,-0.0784,0.2975,0.33936
-13.6812,0,0,28.6812,28.6812,5,5,23.2033,5.71848,-29.6112,0.0521388,-0.198637,-0.24388,1,0,0.14,3.395,-0.735,0.112118,-0.577914,-1.16986,-0.0784,0.2975,0.33936
-13.6781,0,0,28.6781,28.6781,5,5,23.1976,5.72358,-29.6084,0.0520502,-0.198732,-0.243849,1,0,0.14,3.395,-0.735,0.112118,-0.577914,-1.16986,-0.0784,0.2975,0.33936
-13.3777,0,0,28.3777,28.3777,5,5,23.1875,5.72426,-29.6071,-0.343155,-0.0713936,0.250963,1,0,-2.2575,0.6825,-0.49,-0.284748,-0.450546,-0.67893,-0.0784,0.2975,0.33936
-13.7585,0,0,28.7585,28.7585,5,5,23.1831,5.72305,-29.6067,0.203795,0.00706485,0.407386,1,0,1.015,-0.5425,-0.5425,0.264496,-0.3721,-0.523746,-0.07966,0.30254,0.34076
-37.2201,0,0,52.2201,52.2201,5,5,23.5276,5.50629,-29.465,-0.0885006,-0.291147,0.0601145,0,0,5.495,-2.695,-0.35,-0.032818,-0.675636,-0.866322,-0.07966,0.30254,0.34076
-37.2991,0,0,52.2991,52.2991,5,5,23.8701,5.29683,-29.3284,-0.0848609,-0.285559,0.0580374,0,0,9.17,-2.8175,-0.9975,-0.032818,-0.675636,-0.866322,-0.07966,0.30254,0.34076
-15.0775,0,0,30.0775,30.0775,5,5,23.8792,5.29489,-29.3298,0.491622,0.231306,-0.154602,1,0,8.68,-1.3475,-1.3125,0.546072,-0.159454,-1.07726,-0.07966,0.30254,0.34076
-14.9271,0,0,29.9271,29.9271,5,5,23.886,5.29548,-29.331,0.491612,0.231413,-0.154651,1,0,7.3675,0.0525,-1.8025,0.546072,-0.159454,-1.07726,-0.07966,0.30254,0.34076
-14.7711,0,0,29.7711,29.7711,5,5,23.8905,5.29794,-29.332,0.0266435,0.0766251,-0.17866,1,0,6.02,1.1025,-2.135,0.079178,-0.31415,-1.10105,-0.07966,0.30254,0.34076
-14.4364,0,0,29.4364,29.4364,5,5,23.8898,5.30286,-29.3322,0.0265581,0.0766124,-0.178663,1,0,3.1675,2.59,-2.3275,0.079178,-0.31415,-1.10105,-0.07966,0.30254,0.34076
-14.3442,0,0,29.3442,29.3442,5,5,23.8879,5.30859,-29.3321,0.593068,0.35295,-0.35681,1,0,2.38,3.115,-2.3275,0.648186,-0.038064,-1.27783,-0.07966,0.30254,0.34076
-14.0779,0,0,29.0779,29.0779,5,5,23.882,5.31178,-29.3335,0.593012,0.352854,-0.356773,1,0,0.245,1.4,-2.52,0.648186,-0.038064,-1.27783,-0.08176,0.29792,0.35392
-16.4609,0,0,31.4609,31.4609,5,5,23.9115,5.77832,-29.5604,0.310958,-0.0390223,0.163355,0,0,0.35,0.175,-2.625,0.373076,-0.429684,-0.760792,-0.08176,0.29792,0.35392
-16.6823,0,0,31.6823,31.6823,5,5,23.9441,6.22832,-29.7839,0.303147,-0.0388386,0.162375,0,0,1.4,-2.6425,-1.9075,0.373076,-0.429684,-0.760792,-0.08176,0.29792,0.35392
-14.2225,0,0,29.2225,29.2225,5,5,23.9398,6.22529,-29.7861,-0.631147,-0.00971596,0.516256,1,0,1.225,-2.135,-1.505,-0.565226,-0.400526,-0.409676,-0.08176,0.29792,0.35392
-14.6058,0,0,29.6058,29.6058,5,5,23.9412,6.21657,-29.7905,-0.630996,-0.00968639,0.516261,1,0,4.5675,-5.6875,-1.295,-0.565226,-0.400526,-0.409676,-0.08176,0.29792,0.35392
-14.6018,0,0,29.6018,29.6018,5,5,23.9426,6.20773,-29.7947,-0.636431,-0.589638,-0.557074,1,0,4.515,-5.7225,-1.19,-0.570838,-0.979904,-1.47474,-0.08176,0.29792,0.35392
-15.0371,0,0,30.0371,30.0371,5,5,23.9504,6.20464,-29.7956,-0.636377,-0.589512,-0.557123,1,0,7.9275,-1.8375,-0.7525,-0.570838,-0.979904,-1.47474,-0.08176,0.29792,0.35392
-15.1247,0,0,30.1247,30.1247,5,5,23.9595,6.20414,-29.7952,0.788659,0.59917,-0.313871,1,0,8.54,-0.1575,-0.7,0.860222,0.2074,-1.2333,-0.08176,0.29792,0.35392
-14.8447,0,0,29.8447,29.8447,5,5,23.9643,6.20625,-29.7931,0.788622,0.599244,-0.313909,1,0,6.055,1.645,-0.42,0.860222,0.2074,-1.2333,-0.08512,0.30366,0.35
-14.7055,0,0,29.7055,29.7055,5,5,23.9669,6.21039,-29.7901,-0.474901,0.207257,-0.298935,1,0,4.8125,2.94,-0.42,-0.408578,-0.18422,-1.21841,-0.08512,0.30366,0.35
-14.3367,0,0,29.3367,29.3367,5,5,23.9641,6.21756,-29.7855,-0.475025,0.207206,-0.298927,1,0,1.6275,4.935,-0.315,-0.408578,-0.18422,-1.21841,-0.08512,0.30366,0.35
-14.1459,0,0,29.1459,29.1459,5,5,23.9585,6.22339,-29.7807,-0.438195,-0.430756,-0.0908688,1,0,0.035,4.27,0.1225,-0.37149,-0.821426,-1.01199,-0.08512,0.30366,0.35
-14.0121,0,0,29.0121,29.0121,5,5,23.9509,6.22416,-29.778,-0.438208,-0.430877,-0.0908166,1,0,-0.9275,1.0675,0.21,-0.37149,-0.821426,-1.01199,-0.08512,0.30366,0.35
-43.5358,0,0,58.5358,58.5358,5,5,24.3823,6.47783,-29.784,0.24743,-0.318733,0.328124,0,0,-0.2975,-0.6125,0.455,0.32147,-0.716018,-0.592798,-0.08512,0.30366,0.35
-43.6844,0,0,58.6844,58.6844,5,5,24.812,6.72302,-29.79,0.243179,-0.312163,0.324576,0,0,2.3975,-3.535,0.5425,0.32147,-0.716018,-0.592798,-0.08512,0.30366,0.35
-14.9761,0,0,29.9761,29.9761,5,5,24.8111,6.71595,-29.7908,0.0112641,0.00890015,0.11337,1,0,3.045,-3.9375,0.28,0.08845,-0.39528,-0.802394,-0.08512,0.30366,0.35
-15.261,0,0,30.261,30.261,5,5,24.8144,6.71125,-29.7914,0.0113455,0.00895684,0.113354,1,0,5.4075,-2.625,-0.1925,0.08845,-0.39528,-0.802394,-0.08582,0.3024,0.34286
-15.2915,0,0,30.2915,30.2915,5,5,24.8182,6.70879,-29.7916,-0.0195906,0.136274,-0.268547,1,0,5.6175,-1.3475,-0.5425,0.05734,-0.268156,-1.18133,-0.08582,0.3024,0.34286
-15.2279,0,0,30.2279,30.2279,5,5,24.821,6.7103,-29.7909,-0.0196169,0.136317,-0.26857,1,0,5.005,0.9975,-1.0325,0.05734,-0.268156,-1.18133,-0.08582,0.3024,0.34286
-15.2779,0,0,30.2779,30.2779,5,5,24.8245,6.71465,-29.7899,-0.225246,-0.0498753,-0.288029,1,0,5.39,2.555,-1.61,-0.149084,-0.454206,-1.2006,-0.08582,0.3024,0.34286
-15.2804,0,0,30.2804,30.2804,5,5,24.828,6.719,-29.789,-0.225321,-0.0498241,-0.288062,1,0,5.39,2.555,-1.61,-0.149084,-0.454206,-1.2006,-0.08582,0.3024,0.34286
-15.0679,0,0,30.0679,30.0679,5,5,24.8283,6.72005,-29.7909,0.0793465,-0.225194,-0.124914,1,0,3.78,0.1225,-2.2575,0.156892,-0.629398,-1.03871,-0.08582,0.3024,0.34286
-15.0684,0,0,30.0684,30.0684,5,5,24.8286,6.72109,-29.7927,0.0793284,-0.225191,-0.124918,1,0,3.78,0.1225,-2.2575,0.156892,-0.629398,-1.03871,-0.08582,0.3024,0.34286
-37.6185,0,0,52.6185,52.6185,5,5,25.1641,6.56314,-29.6664,-0.0480444,-0.255689,0.116843,0,0,2.45,-0.7,-2.1175,0.02623,-0.665266,-0.79666,-0.08582,0.3024,0.34286
-37.246,0,0,52.246,52.246,5,5,25.4911,6.41202,-29.5444,-0.0454238,-0.250436,0.114686,0,0,2.45,-0.7,-2.1175,0.02623,-0.665266,-0.79666,-0.0798,0.30184,0.3535
-17.606,0,0,32.606,32.606,5,5,25.5232,6.3851,-29.5715,-0.00474515,-0.0396091,-0.00943804,0,0,0.035,-4.34,-2.1,0.066612,-0.455182,-0.919636,-0.0798,0.30184,0.3535
-17.5735,0,0,32.5735,32.5735,5,5,25.5545,6.35904,-29.5985,-0.0042932,-0.0390973,-0.00962669,0,0,0.035,-4.34,-2.1,0.066612,-0.455182,-0.919636,-0.0798,0.30184,0.3535
-15.2036,0,0,30.2036,30.2036,5,5,25.5503,6.35614,-29.6019,0.0291657,-0.207695,-0.10549,1,0,1.3475,-2.3625,-2.065,0.100162,-0.623542,-1.0148,-0.0798,0.30184,0.3535
-7.86103,0,0,22.861,22.861,7.13897,7.13897,25.437,6.02437,-29.5433,-0.271464,0.127013,-0.122645,0,0,4.2175,-0.735,-1.9775,-0.207522,-0.287676,-1.03322,-0.0798,0.30184,0.3535
-7.90931,0,0,22.9093,22.9093,7.09069,7.09069,25.3254,5.70312,-29.4821,-0.265887,0.125508,-0.121297,0,0,4.5325,1.5575,-1.7675,-0.207522,-0.287676,-1.03322,-0.0798,0.30184,0.3535
-23.4448,0,0,38.4448,38.4448,5,5,25.4457,5.70743,-29.4817,0.02937,-0.125531,-0.00687435,0,0,5.5825,2.4325,-1.54,0.08906,-0.540338,-0.918782,-0.0798,0.30184,0.3535
-23.3936,0,0,38.3936,38.3936,5,5,25.5642,5.71357,-29.4806,0.0292633,-0.123678,-0.00777013,0,0,5.8625,3.325,-1.47,0.08906,-0.540338,-0.918782,-0.0798,0.30184,0.3535
-15.5882,0,0,30.5882,30.5882,5,5,25.5656,5.7179,-29.4792,-0.181104,0.0583092,0.113932,1,0,4.2,2.66,-1.3825,-0.122122,-0.358558,-0.798002,-0.0798,0.30184,0.3535
-15.5239,0,0,30.5239,30.5239,5,5,25.566,5.71825,-29.4791,-0.18111,0.0583157,0.113928,1,0,3.7275,0.2275,-1.0675,-0.122122,-0.358558,-0.798002,-0.08316,0.29512,0.34608
-13.6069,0,0,28.6069,28.6069,5,5,25.538,5.71159,-29.5105,-0.0112786,0.034921,0.0165275,0,0,3.08,-0.8925,-0.8225,0.048312,-0.381494,-0.89487,-0.08316,0.29512,0.34608
-13.4754,0,0,28.4754,28.4754,5,5,25.5082,5.70183,-29.5425,-0.0111091,0.0344614,0.0167657,0,0,1.8725,-2.7825,-0.525,0.048312,-0.381494,-0.89487,-0.08316,0.29512,0.34608
-12.068,0,0,27.068,27.068,5,5,25.4577,5.56184,-29.5284,-0.103193,0.0459862,-0.0576395,0,0,1.82,-3.6925,-0.6475,-0.046604,-0.369294,-0.96929,-0.08316,0.29512,0.34608
-11.9695,0,0,26.9695,26.9695,5,5,25.4063,5.42682,-29.5129,-0.100848,0.0452755,-0.0570517,0,0,0.945,-2.4325,-0.35,-0.046604,-0.369294,-0.96929,-0.08316,0.29512,0.34608
-8.50602,0,0,23.506,23.506,6.49398,6.49398,25.3038,5.55517,-29.6196,0.0644513,0.084609,0.0335155,0,0,1.1725,-1.3125,-0.2275,0.121634,-0.328302,-0.879986,-0.08316,0.29512,0.34608
-8.73021,0,0,23.7302,23.7302,6.26979,6.26979,25.2055,5.68348,-29.7242,0.0622225,0.0829718,0.0340454,0,0,2.0825,0.9625,-0.595,0.121634,-0.328302,-0.879986,-0.08316,0.29512,0.34608
-13.0742,0,0,28.0742,28.0742,5,5,25.1727,5.67149,-29.7497,-0.0194505,0.0410639,0.0172169,0,0,2.8,2.415,-0.525,0.039406,-0.36966,-0.896944,-0.08316,0.29512,0.34608
-13.2984,0,0,28.2984,28.2984,5,5,25.1435,5.66159,-29.7824,-0.0192786,0.0406122,0.0174479,0,0,4.515,3.57,-0.4025,0.039406,-0.36966,-0.896944,-0.07714,0.29652,0.34552
-15.4563,0,0,30.4563,30.4563,5,5,25.1466,5.6657,-29.7792,-0.0157055,0.044933,0.120449,1,0,5.075,2.9925,-0.3675,0.043066,-0.36539,-0.794708,-0.07714,0.29652,0.34552
-15.4739,0,0,30.4739,30.4739,5,5,25.15,5.66875,-29.7772,-0.0157583,0.0449837,0.12042,1,0,5.2675,2.135,-0.7175,0.043066,-0.36539,-0.794708,-0.07714,0.29652,0.34552
-23.3479,0,0,38.3479,38.3479,5,5,25.2704,5.56152,-29.7251,-0.054958,-0.0956904,0.00559831,0,0,5.4425,1.4,-0.805,0.00183,-0.507886,-0.907924,-0.07714,0.29652,0.34552
-15.3376,0,0,30.3376,30.3376,5,5,25.2706,5.56066,-29.7252,-0.0639331,0.0513543,-0.158047,1,0,3.6225,-0.455,-0.8575,-0.007198,-0.360998,-1.07031,-0.07714,0.29652,0.34552
-15.2233,0,0,30.2233,30.2233,5,5,25.2691,5.55765,-29.7265,-0.0638808,0.0513332,-0.158031,1,0,2.73,-1.89,-0.945,-0.007198,-0.360998,-1.07031,-0.07714,0.29652,0.34552
-15.1884,0,0,30.1884,30.1884,5,5,25.2671,5.55434,-29.7278,-0.0763362,0.0206505,-0.184814,1,0,2.45,-2.0825,-0.9275,-0.019764,-0.39162,-1.0969,-0.07714,0.29652,0.34552
-15.1041,0,0,30.1041,30.1041,5,5,25.2639,5.55269,-29.7288,-0.0763076,0.0206009,-0.184787,1,0,1.7325,-1.1025,-1.1375,-0.019764,-0.39162,-1.0969,-0.07714,0.29652,0.34552
-20.9525,0,0,35.9525,35.9525,5,5,25.3476,5.39601,-29.6641,-0.0950884,-0.0220602,0.0668711,0,0,1.89,-0.2975,-1.3475,-0.041358,-0.435662,-0.846802,-0.08288,0.29974,0.35364
-31.0169,0,0,46.0169,46.0169,5,5,25.5802,5.3147,-29.5808,-0.0202981,-0.150129,0.125252,0,0,2.59,0.9975,-1.47,0.03233,-0.5673,-0.787266,-0.08288,0.29974,0.35364
-30.8101,0,0,45.8101,45.8101,5,5,25.8077,5.23657,-29.4993,-0.0189403,-0.146512,0.123651,0,0,2.59,0.9975,-1.47,0.03233,-0.5673,-0.787266,-0.08288,0.29974,0.35364
-15.7545,0,0,30.7545,30.7545,5,5,25.8093,5.23914,-29.4991,0.0716433,-0.039262,0.162856,1,0,4.375,1.4175,-1.5925,0.123342,-0.460184,-0.748348,-0.08288,0.29974,0.35364
-15.8968,0,0,30.8968,30.8968,5,5,25.8129,5.24119,-29.4992,-0.0374864,-0.111138,-0.0967194,1,0,5.565,1.0675,-1.61,0.013786,-0.532042,-1.00589,-0.08288,0.29974,0.35364
-15.891,0,0,30.891,30.891,5,5,25.8165,5.24047,-29.5007,-0.037474,-0.111082,-0.0967453,1,0,5.565,-0.735,-1.6275,0.013786,-0.532042,-1.00589,-0.08288,0.29974,0.35364
-15.8806,0,0,30.8806,30.8806,5,5,25.8199,5.23879,-29.5029,-0.0600411,-0.0758558,-0.309223,1,0,5.495,-1.435,-1.7675,-0.008906,-0.496906,-1.21671,-0.08288,0.29974,0.35364
-15.6441,0,0,30.6441,30.6441,5,5,25.8197,5.23601,-29.5051,-0.0599928,-0.0758567,-0.309218,1,0,3.5,-1.995,-1.4525,-0.008906,-0.496906,-1.21671,-0.08022,0.29834,0.3521
-15.5373,0,0,30.5373,30.5373,5,5,25.8179,5.23333,-29.5072,-5.37567e-05,0.00594234,-0.18908,1,0,2.6075,-1.9425,-1.47,0.05124,-0.415166,-1.09751,-0.08022,0.29834,0.3521
-15.4284,0,0,30.4284,30.4284,5,5,25.8145,5.23224,-29.5082,-3.47649e-05,0.00589017,-0.189053,1,0,1.645,-0.805,-1.26,0.05124,-0.415166,-1.09751,-0.08022,0.29834,0.3521
-24.2018,0,0,39.2018,39.2018,5,5,25.9416,5.13471,-29.45,-0.0489991,-0.0517755,0.108026,0,0,1.365,0.035,-1.225,0.000366,-0.474824,-0.801906,-0.08022,0.29834,0.3521
-24.1761,0,0,39.1761,39.1761,5,5,26.0672,5.04119,-29.3921,-0.0473733,-0.0497504,0.107199,0,0,2.205,0.7,-1.085,0.000366,-0.474824,-0.801906,-0.08022,0.29834,0.3521
-15.7333,0,0,30.7333,30.7333,5,5,26.0661,5.04284,-29.3916,-0.0709702,-0.040609,0.200646,1,0,2.8525,1.0325,-1.155,-0.023302,-0.465674,-0.709186,-0.08022,0.29834,0.3521
-15.8473,0,0,30.8473,30.8473,5,5,26.0667,5.04544,-29.3905,-0.0710154,-0.0406013,0.200638,1,0,3.78,1.6625,-1.1375,-0.023302,-0.465674,-0.709186,-0.08022,0.29834,0.3521
-15.9271,0,0,30.9271,30.9271,5,5,26.0685,5.04735,-29.3899,-0.145519,-0.00051714,0.117754,1,0,4.4625,1.1725,-1.2075,-0.098088,-0.425658,-0.791414,-0.08022,0.29834,0.3521
-15.9286,0,0,30.9286,30.9286,5,5,26.0702,5.04925,-29.3893,-0.145552,-0.000490573,0.117738,1,0,4.4625,1.1725,-1.2075,-0.098088,-0.425658,-0.791414,-0.08708,0.29988,0.35742
-15.9137,0,0,30.9137,30.9137,5,5,26.0718,5.04904,-29.3893,-0.00426081,0.0283555,-0.259972,1,0,4.3575,-0.105,-0.9975,0.043798,-0.396866,-1.1662,-0.08708,0.29988,0.35742
-15.915,0,0,30.915,30.915,5,5,26.0733,5.04883,-29.3893,-0.00425711,0.0283797,-0.259983,1,0,4.3575,-0.105,-0.9975,0.043798,-0.396866,-1.1662,-0.08708,0.29988,0.35742
-11.3781,0,0,26.3781,26.3781,5,5,26.0074,4.86659,-29.3509,-0.14347,0.0540941,-0.112063,0,0,3.9025,-1.3825,-0.8925,-0.099186,-0.37027,-1.02016,-0.08708,0.29988,0.35742
-11.3731,0,0,26.3731,26.3731,5,5,25.942,4.68851,-29.3124,-0.140372,0.0531846,-0.111332,0,0,3.9025,-1.3825,-0.8925,-0.099186,-0.37027,-1.02016,-0.08708,0.29988,0.35742
-17.9073,0,0,32.9073,32.9073,5,5,25.9743,4.71869,-29.3198,0.0131466,0.0122699,0.0957969,0,0,2.905,4.1475,-0.7175,0.05551,-0.411628,-0.81435,-0.08708,0.29988,0.35742
-27.6521,0,0,42.6521,42.6521,5,5,26.1511,4.47985,-29.1783,-0.132247,-0.0546756,0.138146,0,0,2.2925,0.595,-0.7875,-0.094672,-0.481412,-0.771284,-0.08708,0.29988,0.35742
-27.5088,0,0,42.5088,42.5088,5,5,26.3243,4.24934,-29.0388,-0.128236,-0.0518373,0.137089,0,0,2.94,1.61,-0.8575,-0.094672,-0.481412,-0.771284,-0.08708,0.29988,0.35742
-21.2437,0,0,36.2437,36.2437,5,5,26.4028,4.10186,-28.966,-0.0901948,-0.000458241,0.0938638,0,0,3.3075,1.9075,-0.84,-0.059048,-0.431392,-0.81374,-0.08302,0.30044,0.35028
-16.0845,0,0,31.0845,31.0845,5,5,26.4038,4.10324,-28.9648,-0.0189067,-0.200974,-0.0412664,1,0,4.0425,1.05,-0.77,0.012566,-0.631716,-0.947818,-0.08302,0.30044,0.35028
-16.0855,0,0,31.0855,31.0855,5,5,26.4049,4.10462,-28.9636,-0.0189307,-0.200959,-0.0412762,1,0,4.0425,1.05,-0.77,0.012566,-0.631716,-0.947818,-0.08302,0.30044,0.35028
-9.19556,0,0,24.1956,24.1956,5.80444,5.80444,26.3035,3.90065,-28.9218,-0.167479,0.101177,-0.100269,0,0,4.5675,-0.2975,-0.7,-0.140178,-0.328424,-1.00735,-0.08302,0.30044,0.35028
-9.25229,0,0,24.2523,24.2523,5.74771,5.74771,26.2039,3.70023,-28.8809,-0.163989,0.0997236,-0.0992934,0,0,4.9525,-1.05,-1.015,-0.140178,-0.328424,-1.00735,-0.08302,0.30044,0.35028
-15.9769,0,0,30.9769,30.9769,5,5,26.2051,3.6985,-28.8816,0.0130456,0.00704931,-0.147989,1,0,4.2,-1.0675,-0.945,0.037576,-0.421022,-1.05567,-0.08302,0.30044,0.35028
-15.9597,0,0,30.9597,30.9597,5,5,26.2061,3.69751,-28.8821,0.0130628,0.00706458,-0.147995,1,0,4.0425,-0.6475,-1.0675,0.037576,-0.421022,-1.05567,-0.08302,0.30044,0.35028
-24.7251,0,0,39.7251,39.7251,5,5,26.3373,3.62442,-28.8252,-0.029399,-0.0851314,0.064382,0,0,3.9725,-0.315,-1.26,-0.006344,-0.515206,-0.843996,-0.08302,0.30044,0.35028
-24.5852,0,0,39.5852,39.5852,5,5,26.4653,3.55428,-28.7646,-0.0281772,-0.0831005,0.0634593,0,0,3.9725,-0.315,-1.26,-0.006344,-0.515206,-0.843996,-0.08176,0.2954,0.34496
-33.2818,0,0,48.2818,48.2818,5,5,26.7214,3.31236,-28.5953,-0.129898,-0.179874,0.0832039,0,0,3.885,0.35,-1.225,-0.112728,-0.615978,-0.822646,-0.08176,0.2954,0.34496
-33.0007,0,0,48.0007,48.0007,5,5,26.9711,3.07753,-28.4295,-0.125806,-0.175889,0.0814431,0,0,3.885,0.35,-1.225,-0.112728,-0.615978,-0.822646,-0.08176,0.2954,0.34496
-16.3807,0,0,31.3807,31.3807,5,5,26.9714,3.07847,-28.4297,-0.107356,-0.100044,-0.0785164,1,0,3.6925,0.4375,-1.4175,-0.094184,-0.540216,-0.981368,-0.08176,0.2954,0.34496
-16.3743,0,0,31.3743,31.3743,5,5,26.9716,3.07887,-28.4302,0.0645388,0.0187892,-0.129173,1,0,3.64,0.105,-1.3825,0.078446,-0.42151,-1.03163,-0.08176,0.2954,0.34496
-13.1294,0,0,28.1294,28.1294,5,5,26.9236,2.83172,-28.3407,-0.188824,0.0601557,-0.0810149,0,0,3.5,-0.28,-1.4525,-0.180316,-0.379542,-0.984418,-0.08176,0.2954,0.34496
0.313541,0,0,14.6865,14.6865,15.3135,15.3135,26.6762,2.90194,-28.4352,0.00845922,0.199899,-0.0878542,0,0,3.4125,-0.735,-1.3475,0.019032,-0.23607,-0.99308,-0.08176,0.2954,0.34496
-20.9344,0,0,35.9344,35.9344,5,5,26.7468,2.81314,-28.379,-0.0493995,-0.0218473,0.0622732,0,0,3.815,-1.155,-1.3475,-0.040626,-0.45872,-0.84363,-0.08176,0.2954,0.34496
-10.2975,0,0,25.2975,25.2975,5,5,26.6587,2.87223,-28.4223,0.0272,0.0687189,-0.0246216,0,0,4.62,-1.19,-1.575,0.037332,-0.366854,-0.930494,-0.08064,0.29078,0.3437
-24.2236,0,0,39.2236,39.2236,5,5,26.7784,2.72347,-28.3212,-0.0859827,-0.0884916,0.0150036,0,0,4.795,-0.385,-1.3125,-0.078934,-0.52582,-0.890356,-0.08064,0.29078,0.3437
-16.1821,0,0,31.1821,31.1821,5,5,26.7775,2.71648,-28.3103,-0.00288608,-0.0267074,-0.063671,0,0,4.9525,0.1225,-1.365,0.004392,-0.464088,-0.968436,-0.08064,0.29078,0.3437
-16.0572,0,0,31.0572,31.0572,5,5,26.7747,2.71064,-28.2989,-0.00278423,-0.0267486,-0.0636447,0,0,3.9025,0.805,-1.2775,0.004392,-0.464088,-0.968436,-0.08064,0.29078,0.3437
-16.2374,0,0,31.2374,31.2374,5,5,26.7746,2.71239,-28.2984,0.088178,-0.0564275,-0.0878662,1,0,3.43,1.05,-1.26,0.09577,-0.493734,-0.99247,-0.08064,0.29078,0.3437
-16.1245,0,0,31.1245,31.1245,5,5,26.7728,2.71325,-28.298,0.0881629,-0.0564554,-0.0878529,1,0,2.485,0.595,-1.015,0.09577,-0.493734,-0.99247,-0.08064,0.29078,0.3437
-12.346,0,0,27.346,27.346,5,5,26.7149,2.61955,-28.2651,-0.0751811,0.0582087,-0.0345855,0,0,2.2225,0.245,-1.1025,-0.069906,-0.378322,-0.940132,-0.08064,0.29078,0.3437
-12.3961,0,0,27.3961,27.3961,5,5,26.6582,2.52711,-28.2322,-0.0735692,0.0573582,-0.034077,0,0,2.52,-0.105,-0.7,-0.069906,-0.378322,-0.940132,-0.08064,0.29078,0.3437
-12.0744,0,0,27.0744,27.0744,5,5,26.5972,2.61973,-28.2764,0.0455727,0.0781141,0.0766194,0,0,2.8175,-0.42,-0.665,0.051362,-0.356606,-0.830698,-0.08316,0.29204,0.34482
-12.2821,0,0,27.2821,27.2821,5,5,26.5399,2.7096,-28.3202,0.0440059,0.0771874,0.0770012,0,0,3.9725,-0.4725,-0.6125,0.051362,-0.356606,-0.830698,-0.08316,0.29204,0.34482
-13.1269,0,0,28.1269,28.1269,5,5,26.4956,3.02185,-28.4538,0.197223,0.028013,0.0791921,0,0,4.27,-0.4725,-0.5075,0.210694,-0.404918,-0.828624,-0.08316,0.29204,0.34482
-13.2875,0,0,28.2875,28.2875,5,5,26.4541,3.32604,-28.5858,0.191922,0.0272347,0.0792514,0,0,4.6725,-0.42,-0.63,0.210694,-0.404918,-0.828624,-0.08316,0.29204,0.34482
-14.2827,0,0,29.2827,29.2827,5,5,26.4278,3.38079,-28.6123,0.0314575,0.0282644,0.0201445,0,0,4.6375,-0.14,-0.56,0.050508,-0.403454,-0.887428,-0.08316,0.29204,0.34482
-14.2325,0,0,29.2325,29.2325,5,5,26.4009,3.43532,-28.6378,0.0305074,0.0278202,0.0203019,0,0,3.9025,0.7175,-0.5425,0.050508,-0.403454,-0.887428,-0.08316,0.29204,0.34482
-18.3854,0,0,33.3854,33.3854,5,5,26.4361,3.25801,-28.5499,-0.123849,-0.0306608,-0.0565283,0,0,3.5175,0.9625,-0.49,-0.107604,-0.462502,-0.963556,-0.08316,0.29204,0.34482
-18.2416,0,0,33.2416,33.2416,5,5,26.4687,3.08538,-28.4634,-0.12084,-0.0300769,-0.0566326,0,0,3.0275,0.9275,-0.7525,-0.107604,-0.462502,-0.963556,-0.08316,0.29204,0.34482
-9.17036,0,0,24.1704,24.1704,5.82964,5.82964,26.3662,3.20596,-28.535,0.075323,0.0441128,-0.0848343,0,0,2.38,0.665,-0.7175,0.0915,-0.38674,-0.992226,-0.08316,0.29204,0.34482
-9.2563,0,0,24.2563,24.2563,5.7437,5.7437,26.2659,3.32261,-28.6115,0.0732905,0.0424947,-0.0841634,0,0,2.2925,0.28,-0.77,0.0915,-0.38674,-0.992226,-0.0819,0.29498,0.34594
-16.2894,0,0,31.2894,31.2894,5,5,26.2711,3.38742,-28.6384,0.0449484,-0.00593864,0.027129,0,0,2.275,0.0875,-0.8575,0.064172,-0.435174,-0.881694,-0.0819,0.29498,0.34594
-16.3521,0,0,31.3521,31.3521,5,5,26.2771,3.4495,-28.6655,0.0438668,-0.00587321,0.0270246,0,0,2.6775,-0.6125,-0.8225,0.064172,-0.435174,-0.881694,-0.0819,0.29498,0.34594
-15.9282,0,0,30.9282,30.9282,5,5,26.2767,3.44802,-28.6657,-0.120963,-0.0306696,0.141617,1,0,3.3075,-0.8225,-0.77,-0.101382,-0.45994,-0.76799,-0.0819,0.29498,0.34594
-16.004,0,0,31.004,31.004,5,5,26.2775,3.44726,-28.6659,-0.12095,-0.0306571,0.141611,1,0,3.9375,-0.4375,-0.945,-0.101382,-0.45994,-0.76799,-0.0819,0.29498,0.34594
-18.233,0,0,33.233,33.233,5,5,26.3114,3.50363,-28.6834,0.0481477,-0.0457861,-9.4536e-05,0,0,3.9375,-0.1925,-1.085,0.069418,-0.475556,-0.90829,-0.0819,0.29498,0.34594
-18.2204,0,0,33.2204,33.2204,5,5,26.3448,3.55972,-28.7005,0.0471707,-0.0452912,-0.000406708,0,0,3.885,0.3325,-1.33,0.069418,-0.475556,-0.90829,-0.0819,0.29498,0.34594
-12.4006,0,0,27.4006,27.4006,5,5,26.2914,3.41783,-28.6601,-0.114728,0.0380869,-0.101538,0,0,3.64,0.735,-1.435,-0.095648,-0.391498,-1.00918,-0.0819,0.29498,0.34594
-12.3241,0,0,27.3241,27.3241,5,5,26.2373,3.27915,-28.621,-0.112311,0.0373045,-0.100994,0,0,3.045,0.5425,-1.785,-0.095648,-0.391498,-1.00918,-0.08218,0.29498,0.34412
-15.8444,0,0,30.8444,30.8444,5,5,26.2361,3.28037,-28.6221,-0.0622806,-0.0701874,-0.184713,1,0,2.8175,0.3675,-1.9425,-0.045384,-0.498858,-1.09227,-0.08218,0.29498,0.34412
-15.8505,0,0,30.8505,30.8505,5,5,26.2349,3.28099,-28.6232,-0.0622912,-0.0702061,-0.184705,1,0,2.87,0.0525,-1.7675,-0.045384,-0.498858,-1.09227,-0.08218,0.29498,0.34412
-12.6858,0,0,27.6858,27.6858,5,5,26.1867,3.22575,-28.6172,-0.047115,0.0522902,-0.0110499,0,0,2.8175,-0.4025,-1.715,-0.03111,-0.37576,-0.920368,-0.08218,0.29498,0.34412
-12.7548,0,0,27.7548,27.7548,5,5,26.1399,3.1711,-28.6111,-0.0461625,0.0515822,-0.0106428,0,0,3.2375,-0.7,-1.54,-0.03111,-0.37576,-0.920368,-0.08218,0.29498,0.34412
-20.5019,0,0,35.5019,35.5019,5,5,26.2087,3.14576,-28.5852,-0.00866786,-0.0204847,0.0835204,0,0,3.745,-1.05,-1.4525,0.0061,-0.448838,-0.826428,-0.08218,0.29498,0.34412
-20.3869,0,0,35.3869,35.3869,5,5,26.2752,3.12209,-28.5593,-0.00825538,-0.0194354,0.0830283,0,0,3.255,-0.6125,-1.505,0.0061,-0.448838,-0.826428,-0.08218,0.29498,0.34412
-21.5493,0,0,36.5493,36.5493,5,5,26.3584,3.14811,-28.5491,0.0253072,-0.0276731,0.111994,0,0,3.5175,-0.5775,-1.505,0.04026,-0.458354,-0.797026,-0.08218,0.29498,0.34412
-21.5102,0,0,36.5102,36.5102,5,5,26.4402,3.17354,-28.5429,0.024864,-0.0264066,0.111338,0,0,3.5175,-0.5775,-1.505,0.04026,-0.458354,-0.797026,-0.0819,0.2975,0.3444
-16.0528,0,0,31.0528,31.0528,5,5,26.4402,3.17431,-28.5431,-0.054601,-0.0146832,-0.125215,1,0,3.4825,0.3675,-1.33,-0.039528,-0.446642,-1.03175,-0.0819,0.2975,0.3444
-16.0532,0,0,31.0532,31.0532,5,5,26.4402,3.17507,-28.5433,-0.0546143,-0.0146839,-0.125216,1,0,3.4825,0.3675,-1.33,-0.039528,-0.446642,-1.03175,-0.0819,0.2975,0.3444
-16.0994,0,0,31.0994,31.0994,5,5,26.4408,3.17579,-28.543,0.00903162,-0.0301841,-0.124853,1,0,3.85,0.4725,-1.0675,0.0244,-0.462136,-1.03139,-0.0819,0.2975,0.3444
-16.02,0,0,31.02,31.02,5,5,26.4403,3.17653,-28.5423,0.00901878,-0.0301928,-0.124849,1,0,3.1675,0.595,-0.84,0.0244,-0.462136,-1.03139,-0.0819,0.2975,0.3444
-20.6906,0,0,35.6906,35.6906,5,5,26.5092,3.0958,-28.4935,-0.0453363,-0.0334803,0.0432471,0,0,3.22,0.07,-0.63,-0.031598,-0.466528,-0.864126,-0.0819,0.2975,0.3444
-20.5555,0,0,35.5555,35.5555,5,5,26.5755,3.01711,-28.4457,-0.0439648,-0.0324144,0.0427965,0,0,2.73,-0.14,-0.6475,-0.031598,-0.466528,-0.864126,-0.0819,0.2975,0.3444
-21.4021,0,0,36.4021,36.4021,5,5,26.6537,3.09221,-28.4578,0.0732963,-0.0999837,0.00339427,0,0,2.7825,-0.5075,-0.595,0.087474,-0.535214,-0.902556,-0.0819,0.2975,0.3444
-21.5568,0,0,36.5568,36.5568,5,5,26.7336,3.16508,-28.476,0.0720263,-0.0987716,0.00270713,0,0,4.165,-0.5775,-0.5775,0.087474,-0.535214,-0.902556,-0.08232,0.3017,0.34244
-11.2042,0,0,26.2042,26.2042,5,5,26.6588,3.11514,-28.4853,-0.0476171,0.0566522,-0.0663766,0,0,3.745,-0.4025,-0.4725,-0.03355,-0.37881,-0.97173,-0.08232,0.3017,0.34244
-11.2669,0,0,26.2669,26.2669,5,5,26.5856,3.06643,-28.4942,-0.0467681,0.0555326,-0.0657641,0,0,3.9375,-0.175,-0.4375,-0.03355,-0.37881,-0.97173,-0.08232,0.3017,0.34244
-13.793,0,0,28.793,28.793,5,5,26.5506,3.00545,-28.4875,-0.049107,0.0166647,-0.070236,0,0,4.305,0.0175,-0.49,-0.036966,-0.417118,-0.976488,-0.08232,0.3017,0.34244
-13.7001,0,0,28.7001,28.7001,5,5,26.5146,2.94617,-28.4806,-0.0480737,0.0161265,-0.0699073,0,0,3.465,0.2275,-0.49,-0.036966,-0.417118,-0.976488,-0.08232,0.3017,0.34244
-23.151,0,0,38.151,38.151,5,5,26.6193,2.82068,-28.4085,-0.0721272,-0.0908837,-0.00607749,0,0,3.92,0.245,-0.77,-0.063318,-0.525698,-0.912438,-0.08232,0.3017,0.34244
-23.0369,0,0,38.0369,38.0369,5,5,26.7215,2.69901,-28.3372,-0.070006,-0.0892469,-0.00678525,0,0,3.9375,0.455,-0.6125,-0.063318,-0.525698,-0.912438,-0.08232,0.3017,0.34244
-22.4815,0,0,37.4815,37.4815,5,5,26.8144,2.44224,-28.2116,-0.168428,-0.0452093,0.00827876,0,0,3.395,0.2275,-0.525,-0.166652,-0.483242,-0.896944,-0.08232,0.3017,0.34244
-22.3964,0,0,37.3964,37.3964,5,5,26.9053,2.19169,-28.0882,-0.164058,-0.043716,0.00772065,0,0,3.9725,-0.1225,-0.63,-0.166652,-0.483242,-0.896944,-0.08232,0.3017,0.34244
-10.7538,0,0,25.7538,25.7538,5,5,26.8222,2.21649,-28.111,0.00461737,0.0581816,-0.0510239,0,0,3.6225,0.035,-0.7875,0.003172,-0.380152,-0.95587,-0.08876,0.29932,0.3437
-10.7626,0,0,25.7626,25.7626,5,5,26.74,2.24003,-28.134,0.00420687,0.0568948,-0.0503923,0,0,3.1675,-0.21,-0.91,0.003172,-0.380152,-0.95587,-0.08876,0.29932,0.3437
-16.2654,0,0,31.2654,31.2654,5,5,26.7404,2.23963,-28.1341,0.191909,-0.0611961,-0.103263,1,0,3.6925,-0.2275,-0.9975,0.191662,-0.498126,-1.00833,-0.08876,0.29932,0.3437
-16.2196,0,0,31.2196,31.2196,5,5,26.7401,2.23954,-28.1343,0.191911,-0.0612013,-0.10326,1,0,3.3075,-0.0875,-1.12,0.191662,-0.498126,-1.00833,-0.08876,0.29932,0.3437
-18.7192,0,0,33.7192,33.7192,5,5,26.7769,2.11438,-28.0665,-0.0858094,-0.0492328,-0.0672052,0,0,3.7275,0.035,-1.295,-0.089426,-0.48678,-0.97234,-0.08876,0.29932,0.3437
-18.6304,0,0,33.6304,33.6304,5,5,26.812,1.99341,-27.9994,-0.0836995,-0.0486513,-0.0674141,0,0,3.535,0.5425,-1.4525,-0.089426,-0.48678,-0.97234,-0.08876,0.29932,0.3437
-17.7608,0,0,32.7608,32.7608,5,5,26.834,2.03924,-28.003,0.0371084,-0.0385527,-0.0116702,0,0,3.3775,0.4725,-1.435,0.032696,-0.47702,-0.91683,-0.08876,0.29932,0.3437
-17.8039,0,0,32.8039,32.8039,5,5,26.8563,2.084,-28.0067,0.0363277,-0.0382175,-0.0118713,0,0,3.745,0.4375,-1.5225,0.032696,-0.47702,-0.91683,-0.08876,0.29932,0.3437
-17.8264,0,0,32.8264,32.8264,5,5,26.8788,2.02624,-27.9739,-0.0373785,-0.00267877,0.0185979,0,0,3.57,0.2275,-1.54,-0.042334,-0.441884,-0.886452,-0.08624,0.301,0.34342
-17.8707,0,0,32.8707,32.8707,5,5,26.9017,1.96952,-27.9415,-0.0363892,-0.00230635,0.0184477,0,0,4.2175,-0.035,-1.4,-0.042334,-0.441884,-0.886452,-0.08624,0.301,0.34342
-13.5378,0,0,28.5378,28.5378,5,5,26.86,2.03642,-27.976,0.0404377,0.0229175,-0.019374,0,0,4.2875,-0.0875,-1.435,0.03599,-0.41602,-0.924272,-0.08624,0.301,0.34342
-13.5511,0,0,28.5511,28.5511,5,5,26.8189,2.10092,-28.0108,0.0393128,0.0222591,-0.0190864,0,0,4.0075,-0.5075,-1.5925,0.03599,-0.41602,-0.924272,-0.08624,0.301,0.34342
-12.5684,0,0,27.5684,27.5684,5,5,26.7635,2.22154,-28.0726,0.0827661,0.00475206,-0.0654424,0,0,3.85,-0.35,-1.54,0.08174,-0.432612,-0.970632,-0.08624,0.301,0.34342
-12.5878,0,0,27.5878,27.5878,5,5,26.709,2.33874,-28.1337,0.0807221,0.00386512,-0.0650867,0,0,3.4125,-0.3675,-1.4525,0.08174,-0.432612,-0.970632,-0.08624,0.301,0.34342
-9.53448,0,0,24.5345,24.5345,5.46552,5.46552,26.6094,2.23013,-28.1146,-0.0965752,0.0841731,-0.0928876,0,0,3.465,-0.245,-1.4,-0.09821,-0.350872,-0.999058,-0.08624,0.301,0.34342
-9.54963,0,0,24.5496,24.5496,5.45037,5.45037,26.511,2.12412,-28.0952,-0.0947263,0.0826695,-0.0920574,0,0,3.2725,-0.0175,-1.4175,-0.09821,-0.350872,-0.999058,-0.08624,0.301,0.34342
-16.1309,0,0,31.1309,31.1309,5,5,26.5114,2.12462,-28.0956,-0.0196568,-0.251587,-0.0176762,1,0,3.675,0.175,-1.365,-0.022814,-0.684786,-0.925248,-0.08918,0.29596,0.34524
-16.1147,0,0,31.1147,31.1147,5,5,26.5114,2.12514,-28.096,-0.0196659,-0.251586,-0.017677,1,0,3.535,0.1925,-1.365,-0.022814,-0.684786,-0.925248,-0.08918,0.29596,0.34524
-23.7485,0,0,38.7485,38.7485,5,5,26.625,1.93496,-27.9753,-0.113416,-0.0465431,0.0668686,0,0,3.4475,0.35,-1.3125,-0.120292,-0.481778,-0.84058,-0.08918,0.29596,0.34524
-23.7123,0,0,38.7123,38.7123,5,5,26.7369,1.74988,-27.8564,-0.110187,-0.044751,0.0660843,0,0,4.3575,0.315,-1.2775,-0.120292,-0.481778,-0.84058,-0.08918,0.29596,0.34524
-5.54822,0,0,20.5482,20.5482,9.45178,9.45178,26.5779,1.87427,-27.9329,0.0622178,0.117854,-0.0533447,0,0,3.605,0.0525,-1.1725,0.055022,-0.316834,-0.960262,-0.08918,0.29596,0.34524
-5.73526,0,0,20.7353,20.7353,9.26474,9.26474,26.423,1.99391,-28.0096,0.060131,0.115405,-0.0522025,0,0,4.0425,-0.6125,-1.2075,0.055022,-0.316834,-0.960262,-0.08918,0.29596,0.34524
-9.11752,0,0,24.1175,24.1175,5.88248,5.88248,26.3198,2.04664,-28.0469,0.0241019,0.0597978,-0.0928656,0,0,4.4275,-0.5075,-1.1375,0.019764,-0.370758,-1.00138,-0.08918,0.29596,0.34524
-9.05722,0,0,24.0572,24.0572,5.94278,5.94278,26.2166,2.09809,-28.0829,0.0232044,0.0581696,-0.0920982,0,0,3.2025,0.035,-0.6825,0.019764,-0.370758,-1.00138,-0.08918,0.29596,0.34524
-20.2061,0,0,35.2061,35.2061,5,5,26.2801,1.86682,-27.9551,-0.156934,-0.0282184,-0.010333,0,0,3.7625,0.0175,-0.77,-0.165188,-0.45811,-0.91988,-0.08736,0.29176,0.34286
-19.9824,0,0,34.9824,34.9824,5,5,26.3397,1.64133,-27.829,-0.153,-0.0272334,-0.0106857,0,0,2.905,-0.0525,-0.805,-0.165188,-0.45811,-0.91988,-0.08736,0.29176,0.34286
-19.4994,0,0,34.4994,34.4994,5,5,26.3916,1.67749,-27.8116,0.0335785,-0.0468261,0.0319281,0,0,2.6425,0.105,-0.6825,0.022814,-0.478484,-0.87718,-0.08736,0.29176,0.34286
-19.5616,0,0,34.5616,34.5616,5,5,26.4439,1.71302,-27.7944,0.0329585,-0.0460169,0.0315056,0,0,3.36,0.14,-0.7175,0.022814,-0.478484,-0.87718,-0.08736,0.29176,0.34286
-12.0816,0,0,27.0816,27.0816,5,5,26.3845,1.85684,-27.8516,0.0869406,0.0474249,0.0273472,0,0,3.4825,0.2275,-0.8225,0.079544,-0.384178,-0.881694,-0.08736,0.29176,0.34286
-12.2797,0,0,27.2797,27.2797,5,5,26.3286,1.99691,-27.9079,0.0844972,0.0465149,0.0277063,0,0,4.4625,0.4025,-0.6825,0.079544,-0.384178,-0.881694,-0.08736,0.29176,0.34286
-15.0327,0,0,30.0327,30.0327,5,5,26.3142,2.0667,-27.9255,0.0423393,0.0278284,0.0486808,0,0,4.5325,0.1575,-0.4375,0.03843,-0.4026,-0.860954,-0.08736,0.29176,0.34286
-14.9451,0,0,29.9451,29.9451,5,5,26.2985,2.13448,-27.9432,0.0411571,0.0275645,0.0487629,0,0,3.5525,-0.0175,-0.56,0.03843,-0.4026,-0.860954,-0.08736,0.29176,0.34286
-15.2714,0,0,30.2714,30.2714,5,5,26.2878,2.25437,-27.9867,0.0933702,-0.0427385,-0.0622491,0,0,3.675,-0.0525,-0.665,0.092964,-0.472628,-0.97112,-0.08456,0.29344,0.34636
-5.6459,0,0,20.6459,20.6459,9.3541,9.3541,26.1342,2.44692,-28.1,0.112001,0.106356,-0.035247,0,0,3.01,-0.21,-0.7,0.115046,-0.321226,-0.945378,-0.08456,0.29344,0.34636
-14.4284,0,0,29.4284,29.4284,5,5,26.1124,2.34792,-28.0569,-0.0744536,0.0195814,-0.0433757,0,0,2.66,0.0175,-0.4375,-0.073932,-0.407602,-0.953674,-0.08456,0.29344,0.34636
-7.31365,0,0,22.3137,22.3137,7.68635,7.68635,25.9851,2.39512,-28.1034,0.00891278,0.126875,0.026174,0,0,2.9925,0,-0.5775,0.010614,-0.298412,-0.885598,-0.08456,0.29344,0.34636
-19.075,0,0,34.075,34.075,5,5,26.0338,2.3497,-28.0642,-0.0240681,-0.0400281,0.007758,0,0,2.9225,0.245,-0.6475,-0.023302,-0.465918,-0.903532,-0.08456,0.29344,0.34636
-13.1525,0,0,28.1525,28.1525,5,5,25.9939,2.40147,-28.0895,0.0277539,0.0389579,0.0171272,0,0,3.255,0.4025,-0.945,0.029646,-0.386374,-0.894504,-0.08456,0.29344,0.34636
-13.7293,0,0,28.7293,28.7293,5,5,25.963,2.29611,-28.0469,-0.07926,0.0565811,0.0136196,0,0,3.3425,0.525,-1.015,-0.079666,-0.368318,-0.898286,-0.08456,0.29344,0.34636
-19.1572,0,0,34.1572,34.1572,5,5,26.0131,2.4026,-28.0713,0.0855613,-0.0625961,0.0228816,0,0,3.2725,0.2975,-0.8925,0.087718,-0.488122,-0.888648,-0.08456,0.29344,0.34636
-16.4656,0,0,31.4656,31.4656,5,5,26.0227,2.33457,-28.0342,-0.0476155,-0.0321369,-0.0728016,0,0,3.71,0.1925,-0.9975,-0.047214,-0.457866,-0.983564,-0.08456,0.29344,0.34636
-7.1835,0,0,22.1835,22.1835,7.8165,7.8165,25.8942,2.14821,-27.987,-0.15188,0.151048,-0.0281826,0,0,3.3775,-0.1225,-0.9975,-0.155184,-0.272914,-0.940376,-0.08596,0.29526,0.34146
-15.912,0,0,30.912,30.912,5,5,25.8966,2.16631,-27.9904,0.0150899,-0.0184312,-0.0258756,0,0,3.64,-0.245,-1.155,0.01281,-0.44225,-0.938058,-0.08596,0.29526,0.34146
-15.7384,0,0,30.7384,30.7384,5,5,25.8964,2.16606,-27.9912,0.00829101,-0.00671013,-0.107881,1,0,3.395,-0.2975,-1.3475,0.005978,-0.430538,-1.01943,-0.08596,0.29526,0.34146
-20.1446,0,0,35.1446,35.1446,5,5,25.9617,2.20675,-27.9879,0.0436628,-0.0838589,-0.00672449,0,0,2.975,-0.35,-1.505,0.042212,-0.508618,-0.918538,-0.08596,0.29526,0.34146
-18.8492,0,0,33.8492,33.8492,5,5,26.0071,2.30191,-28.0132,0.0784487,-0.0633904,0.00799215,0,0,3.5,-0.385,-1.61,0.078812,-0.488854,-0.903532,-0.08596,0.29526,0.34146
-10.8565,0,0,25.8565,25.8565,5,5,25.9333,2.26448,-28.0146,-0.0391041,0.094229,0.0336605,0,0,3.29,-0.1575,-1.61,-0.039894,-0.330254,-0.878644,-0.08596,0.29526,0.34146
-17.3786,0,0,32.3786,32.3786,5,5,25.9572,2.29431,-28.0186,0.0235483,-0.0142213,0.0317387,0,0,3.5875,-0.1225,-1.7675,0.023546,-0.438956,-0.880352,-0.08596,0.29526,0.34146
-17.2968,0,0,32.2968,32.2968,5,5,25.9796,2.18773,-27.9656,-0.0726319,-0.0027247,0.00138777,0,0,3.5175,0.035,-1.6975,-0.074908,-0.427854,-0.910364,-0.08596,0.29526,0.34146
-14.7195,0,0,29.7195,29.7195,5,5,25.9635,2.10381,-27.9406,-0.0621783,0.0351501,0.00832238,0,0,3.2375,-0.2625,-1.645,-0.06588,-0.38979,-0.903654,-0.08316,0.30128,0.34846
-19.4246,0,0,34.4246,34.4246,5,5,26.0174,2.16793,-27.9598,0.0628056,-0.0949421,-0.0427823,0,0,3.5525,-0.315,-1.7325,0.060756,-0.520574,-0.953918,-0.08316,0.30128,0.34846
-10.1337,0,0,25.1337,25.1337,5,5,25.9328,2.15092,-27.9805,-0.0263112,0.0588366,-0.0745841,0,0,3.2725,-0.1925,-1.82,-0.029036,-0.365634,-0.986126,-0.08316,0.30128,0.34846
-13.5206,0,0,28.5206,28.5206,5,5,25.8992,2.25975,-28.0418,0.0630265,0.0481419,0.0719146,0,0,3.29,-0.28,-1.925,0.062586,-0.37576,-0.840946,-0.08316,0.30128,0.34846
-13.5728,0,0,28.5728,28.5728,5,5,25.8667,2.3657,-28.1023,0.0611789,0.0475998,0.0720947,0,0,3.29,-0.28,-1.925,0.062586,-0.37576,-0.840946,-0.08316,0.30128,0.34846
-11.0681,0,0,26.0681,26.0681,5,5,25.7973,2.40348,-28.1444,0.0153273,0.0529708,-0.0250236,0,0,3.3425,-0.315,-1.68,0.017202,-0.369294,-0.937814,-0.08316,0.30128,0.34846
-11.1253,0,0,26.1253,26.1253,5,5,25.7294,2.44002,-28.1861,0.0146901,0.0518918,-0.0245327,0,0,3.3425,-0.315,-1.68,0.017202,-0.369294,-0.937814,-0.08316,0.30128,0.34846
-13.1312,0,0,28.1312,28.1312,5,5,25.6918,2.61951,-28.2802,0.122841,0.00874188,0.00562613,0,0,3.71,-0.14,-1.3125,0.128954,-0.41175,-0.908046,-0.08316,0.30128,0.34846
-13.0829,0,0,28.0829,28.0829,5,5,25.6539,2.79541,-28.3599,0.119775,0.00808303,0.00578192,0,0,2.9925,-0.0875,-1.33,0.128954,-0.41175,-0.908046,-0.08904,0.29554,0.34594
-24.8862,0,0,39.8862,39.8862,5,5,25.7917,2.48516,-28.1899,-0.20635,-0.0845357,0.00951248,0,0,3.605,0.1225,-0.9275,-0.203984,-0.506544,-0.903532,-0.08904,0.29554,0.34594
-24.6324,0,0,39.6324,39.6324,5,5,25.9246,2.18276,-28.0223,-0.201077,-0.082357,0.00869537,0,0,3.185,0.105,-0.875,-0.203984,-0.506544,-0.903532,-0.08904,0.29554,0.34594
-19.8355,0,0,34.8355,34.8355,5,5,25.985,2.25259,-28.027,0.0582919,-0.0527313,0.0471669,0,0,3.395,0.0175,-0.84,0.057706,-0.477874,-0.864858,-0.08904,0.29554,0.34594
-19.8927,0,0,34.8927,34.8927,5,5,26.0456,2.32093,-28.0313,0.0571,-0.0518014,0.0466601,0,0,4.025,0.0875,-0.7175,0.057706,-0.477874,-0.864858,-0.08904,0.29554,0.34594
-13.7939,0,0,28.7939,28.7939,5,5,26.0151,2.50587,-28.1088,0.138186,-0.0258382,-0.0460544,0,0,3.5,-0.21,-0.6825,0.142374,-0.4514,-0.956968,-0.08904,0.29554,0.34594
-15.8794,0,0,30.8794,30.8794,5,5,26.0158,2.50553,-28.1083,-0.120329,-0.0715022,-0.0924112,1,0,3.885,-0.035,-0.6825,-0.117242,-0.497028,-1.00296,-0.08904,0.29554,0.34594
-15.8271,0,0,30.8271,30.8271,5,5,26.0157,2.50487,-28.1073,-0.120318,-0.071503,-0.0924103,1,0,3.43,-0.07,-0.3325,-0.117242,-0.497028,-1.00296,-0.08904,0.29554,0.34594
-18.3126,0,0,33.3126,33.3126,5,5,26.0526,2.53869,-28.1139,0.0291273,-0.0241621,0.0390849,0,0,3.92,-0.14,-0.4025,0.033428,-0.450302,-0.872178,-0.08876,0.301,0.34468
-11.7883,0,0,26.7883,26.7883,5,5,25.9922,2.54557,-28.1346,-0.00670958,0.0668499,0.0156906,0,0,3.4825,-0.035,-0.315,-0.00244,-0.358436,-0.895846,-0.08876,0.301,0.34468
-11.8421,0,0,26.8421,26.8421,5,5,25.9331,2.55261,-28.1551,-0.0068323,0.0659208,0.0161369,0,0,3.57,0.28,-0.455,-0.00244,-0.358436,-0.895846,-0.08876,0.301,0.34468
-7.01996,0,0,22.02,22.02,7.98004,7.98004,25.8028,2.46889,-28.1565,-0.0811795,0.142188,-0.00506809,0,0,3.535,0.5775,-0.455,-0.078568,-0.280234,-0.917928,-0.08876,0.301,0.34468
-7.03411,0,0,22.0341,22.0341,7.96589,7.96589,25.6739,2.38647,-28.1575,-0.0797424,0.140189,-0.00403701,0,0,3.115,0.5075,-0.385,-0.078568,-0.280234,-0.917928,-0.08876,0.301,0.34468
-11.6489,0,0,26.6489,26.6489,5,5,25.6147,2.56569,-28.2503,0.13362,-0.0105264,-0.0860878,0,0,3.5175,0.245,-0.63,0.138836,-0.429806,-0.999668,-0.08876,0.301,0.34468
-11.7021,0,0,26.7021,26.7021,5,5,25.5568,2.73989,-28.342,0.130583,-0.0114969,-0.0857792,0,0,3.2375,0.14,-0.525,0.138836,-0.429806,-0.999668,-0.08876,0.301,0.34468
-16.5134,0,0,31.5134,31.5134,5,5,25.571,2.7025,-28.3278,-0.0252387,0.0154852,0.048033,0,0,3.43,-0.035,-0.525,-0.0183,-0.403088,-0.86681,-0.08876,0.301,0.34468
-16.4873,0,0,31.4873,31.4873,5,5,25.5847,2.66585,-28.3067,-0.0245998,0.0157131,0.0479572,0,0,3.43,-0.385,-0.8225,-0.0183,-0.403088,-0.86681,-0.08736,0.29498,0.34552
-15.4867,0,0,30.4867,30.4867,5,5,25.5834,2.65343,-28.2996,-0.00883315,0.00152964,-0.00489153,0,0,3.5875,-0.1575,-1.015,-0.002684,-0.41724,-0.91927,-0.08736,0.29498,0.34552
-15.4745,0,0,30.4745,30.4745,5,5,25.5818,2.64172,-28.2924,-0.00862895,0.00150989,-0.00487161,0,0,3.5,0.105,-1.015,-0.002684,-0.41724,-0.91927,-0.08736,0.29498,0.34552
-18.5255,0,0,33.5255,33.5255,5,5,25.6257,2.63009,-28.2729,0.00104979,-0.05886,-0.0272014,0,0,3.5,0.1225,-1.155,0.006832,-0.47824,-0.941108,-0.08736,0.29498,0.34552
-18.5099,0,0,33.5099,33.5099,5,5,25.6689,2.61953,-28.2541,0.00123391,-0.058177,-0.0275199,0,0,3.6575,0.3325,-1.5225,0.006832,-0.47824,-0.941108,-0.08736,0.29498,0.34552
-13.6579,0,0,28.6579,28.6579,5,5,25.6396,2.60543,-28.2533,-0.0163786,0.037359,0.0103336,0,0,3.395,0.2975,-1.54,-0.011102,-0.382348,-0.903776,-0.08736,0.29498,0.34552
-13.7569,0,0,28.7569,28.7569,5,5,25.612,2.59196,-28.2529,-0.0161438,0.0369301,0.0105511,0,0,4.095,0.42,-1.8375,-0.011102,-0.382348,-0.903776,-0.08736,0.29498,0.34552
-11.7456,0,0,26.7456,26.7456,5,5,25.5548,2.56768,-28.2564,-0.0265327,0.0233371,-0.0991626,0,0,3.99,0.175,-1.8725,-0.02196,-0.395036,-1.01309,-0.08736,0.29498,0.34552
-11.7401,0,0,26.7401,26.7401,5,5,25.498,2.54348,-28.2659,-0.0261108,0.0224513,-0.0987187,0,0,3.78,-0.21,-1.8725,-0.02196,-0.395036,-1.01309,-0.0854,0.29876,0.35056
-16.3722,0,0,31.3722,31.3722,5,5,25.5105,2.58717,-28.2854,0.0361785,-0.0309795,-0.0190502,0,0,3.57,-0.35,-1.8025,0.041358,-0.448594,-0.93391,-0.0854,0.29876,0.35056
-16.3024,0,0,31.3024,31.3024,5,5,25.5219,2.62949,-28.3049,0.0354407,-0.0308146,-0.0191661,0,0,2.9575,-0.595,-1.855,0.041358,-0.448594,-0.93391,-0.0854,0.29876,0.35056
-18.0239,0,0,33.0239,33.0239,5,5,25.5588,2.49644,-28.2435,-0.0887061,-0.00344386,0.0235593,0,0,2.87,-0.4725,-1.9775,-0.085644,-0.421876,-0.891332,-0.0854,0.29876,0.35056
-18.0089,0,0,33.0089,33.0089,5,5,25.5951,2.36702,-28.1827,-0.0864493,-0.00283116,0.0233723,0,0,3.29,-0.3325,-1.995,-0.085644,-0.421876,-0.891332,-0.0854,0.29876,0.35056
-15.5596,0,0,30.5596,30.5596,5,5,25.5947,2.36725,-28.1841,-0.0418682,-0.0151726,-0.120106,1,0,3.29,-0.21,-1.82,-0.04087,-0.434198,-1.03371,-0.0854,0.29876,0.35056
-15.6617,0,0,30.6617,30.6617,5,5,25.5958,2.36784,-28.185,-0.0418784,-0.0151555,-0.120114,1,0,4.13,0.0875,-1.68,-0.04087,-0.434198,-1.03371,-0.0854,0.29876,0.35056
-4.47925,0,0,19.4792,19.4792,10.5208,10.5208,25.4307,2.46722,-28.2738,0.0461665,0.121683,-0.0841454,0,0,4.445,-0.1225,-1.505,0.049288,-0.294874,-0.99918,-0.0854,0.29876,0.35056
-4.61465,0,0,19.6146,19.6146,10.3854,10.3854,25.269,2.5633,-28.3641,0.0444913,0.119103,-0.0830049,0,0,4.445,-0.1225,-1.505,0.049288,-0.294874,-0.99918,-0.08106,0.2954,0.34258
-6.5317,0,0,21.5317,21.5317,8.4683,8.4683,25.1372,2.52345,-28.3892,-0.0513951,0.134869,-0.00909037,0,0,3.8325,-0.3325,-1.3125,-0.047702,-0.277062,-0.926834,-0.08106,0.2954,0.34258
-6.60794,0,0,21.6079,21.6079,8.39206,8.39206,25.0078,2.48401,-28.4141,-0.0507073,0.132837,-0.0081067,0,0,3.8325,-0.3325,-1.3125,-0.047702,-0.277062,-0.926834,-0.08106,0.2954,0.34258
-22.1066,0,0,37.1066,37.1066,5,5,25.1099,2.61612,-28.4486,0.126788,-0.143798,-0.00292929,0,0,3.2725,-0.2625,-0.7875,0.132858,-0.554978,-0.920856,-0.08106,0.2954,0.34258
-22.0792,0,0,37.0792,37.0792,5,5,25.2107,2.74541,-28.4824,0.124534,-0.142252,-0.00377191,0,0,3.2725,-0.2625,-0.7875,0.132858,-0.554978,-0.920856,-0.08106,0.2954,0.34258
-18.3905,0,0,33.3905,33.3905,5,5,25.2558,2.553,-28.394,-0.127839,0.0127703,0.0503769,0,0,3.43,-0.105,-0.6125,-0.123952,-0.400892,-0.866932,-0.08106,0.2954,0.34258
-18.3007,0,0,33.3007,33.3007,5,5,25.2991,2.36536,-28.3065,-0.124567,0.0135131,0.0501815,0,0,3.43,-0.105,-0.6125,-0.123952,-0.400892,-0.866932,-0.08106,0.2954,0.34258
-11.1692,0,0,26.1692,26.1692,5,5,25.236,2.57233,-28.4148,0.139093,0.0297937,0.00563424,0,0,3.395,0.14,-0.3675,0.144448,-0.383568,-0.911462,-0.08106,0.2954,0.34258
-16.2755,0,0,31.2755,31.2755,5,5,25.2493,2.39698,-28.3397,-0.126698,0.0114978,-0.0159841,0,0,3.605,0.5075,-0.2625,-0.125538,-0.402112,-0.932934,-0.08106,0.2954,0.34258
-16.1985,0,0,31.1985,31.1985,5,5,25.2614,2.22542,-28.2626,-0.123706,0.0117401,-0.0159649,0,0,3.36,0.4375,-0.3325,-0.125538,-0.402112,-0.932934,-0.08316,0.29442,0.34104
-15.3611,0,0,30.3611,30.3611,5,5,25.261,2.22561,-28.2612,0.0913206,-0.241436,-0.0447315,1,0,3.2025,0.455,-0.3675,0.090402,-0.655018,-0.961482,-0.08316,0.29442,0.34104
-15.3714,0,0,30.3714,30.3714,5,5,25.2607,2.22576,-28.26,0.0913181,-0.241441,-0.0447293,1,0,3.29,0.4025,-0.42,0.090402,-0.655018,-0.961482,-0.08316,0.29442,0.34104
-16.9215,0,0,31.9215,31.9215,5,5,25.2834,2.14309,-28.2167,-0.0565461,-0.0157352,-0.013128,0,0,2.9575,0.4725,-0.4725,-0.059536,-0.429928,-0.930006,-0.08316,0.29442,0.34104
-16.9311,0,0,31.9311,31.9311,5,5,25.3061,2.06232,-28.1742,-0.0551373,-0.0153557,-0.0132502,0,0,3.3775,0.28,-0.595,-0.059536,-0.429928,-0.930006,-0.08316,0.29442,0.34104
-19.0039,0,0,34.0039,34.0039,5,5,25.3593,2.05873,-28.1559,0.00603251,-0.0404059,0.0313535,0,0,3.2025,0.175,-0.5075,0.00183,-0.455792,-0.885354,-0.08316,0.29442,0.34104
-18.9848,0,0,33.9848,33.9848,5,5,25.4118,2.05541,-28.1384,0.00609042,-0.0395776,0.0309628,0,0,3.36,0.0175,-0.77,0.00183,-0.455792,-0.885354,-0.08316,0.29442,0.34104
-15.8867,0,0,30.8867,30.8867,5,5,25.4178,2.03847,-28.1273,-0.0106221,-0.0112677,-0.0162846,0,0,3.325,-0.0175,-0.875,-0.01525,-0.42761,-0.932202,-0.08316,0.29442,0.34104
-15.8918,0,0,30.8918,30.8918,5,5,25.4238,2.02273,-28.1179,-0.0103476,-0.0111692,-0.0163207,0,0,3.43,0.4375,-0.98,-0.01525,-0.42761,-0.932202,-0.08428,0.29624,0.3409
-13.5038,0,0,28.5038,28.5038,5,5,25.3942,2.14214,-28.1752,0.0896178,-0.0214376,-0.0638718,0,0,3.185,0.455,-1.0675,0.08723,-0.43737,-0.979538,-0.08428,0.29624,0.3409
-13.5455,0,0,28.5455,28.5455,5,5,25.3655,2.25803,-28.2328,0.0875965,-0.021923,-0.0637275,0,0,3.115,0.0175,-1.4175,0.08723,-0.43737,-0.979538,-0.08428,0.29624,0.3409
-17.7277,0,0,32.7277,32.7277,5,5,25.3993,2.14767,-28.1778,-0.0727837,0.00953829,0.0520276,0,0,2.8175,0.3325,-1.365,-0.075762,-0.406504,-0.864492,-0.08428,0.29624,0.3409
-17.6974,0,0,32.6974,32.6974,5,5,25.4322,2.03979,-28.1241,-0.070902,0.0100873,0.0518429,0,0,3.045,0,-1.5925,-0.075762,-0.406504,-0.864492,-0.08428,0.29624,0.3409
-16.6318,0,0,31.6318,31.6318,5,5,25.4491,1.97111,-28.0906,-0.0477152,-0.0274888,-0.0461123,0,0,3.29,-0.07,-1.5575,-0.05368,-0.444324,-0.961604,-0.08428,0.29624,0.3409
-16.6329,0,0,31.6329,31.6329,5,5,25.4658,1.90428,-28.058,-0.0465494,-0.0272089,-0.0462019,0,0,3.57,-0.1575,-1.8725,-0.05368,-0.444324,-0.961604,-0.08428,0.29624,0.3409
-18.1374,0,0,33.1374,33.1374,5,5,25.5047,1.94196,-28.0639,0.0340672,-0.0410168,0.013485,0,0,4.0075,-0.2975,-1.8025,0.027938,-0.45872,-0.902068,-0.08428,0.29624,0.3409
-18.1098,0,0,33.1098,33.1098,5,5,25.5428,1.97849,-28.0785,0.0334301,-0.0404258,0.0131787,0,0,3.7975,-0.3675,-1.9075,0.027938,-0.45872,-0.902068,-0.08596,0.30394,0.34384
-20.3949,0,0,35.3949,35.3949,5,5,25.6146,2.0068,-28.0809,0.030385,-0.0461431,0.0656135,0,0,3.675,-0.35,-1.8375,0.025376,-0.465552,-0.849486,-0.08596,0.30394,0.34384
-20.403,0,0,35.403,35.403,5,5,25.6858,2.0349,-28.0834,0.029895,-0.0450304,0.06506,0,0,4.0775,-0.3325,-2.0125,0.025376,-0.465552,-0.849486,-0.08596,0.30394,0.34384
-12.7468,0,0,27.7468,27.7468,5,5,25.6426,2.177,-28.1628,0.103588,-0.00776789,-0.0582589,0,0,3.64,-0.245,-1.9775,0.10187,-0.42761,-0.972096,-0.08596,0.30394,0.34384
-12.8527,0,0,27.8527,27.8527,5,5,25.6013,2.31556,-28.2414,0.101172,-0.00845773,-0.0580332,0,0,3.9725,-0.1225,-1.9775,0.10187,-0.42761,-0.972096,-0.08596,0.30394,0.34384
-12.4261,0,0,27.4261,27.4261,5,5,25.5541,2.28339,-28.2501,-0.0319016,0.0226839,-0.0789273,0,0,4.13,0.105,-1.7325,-0.03233,-0.395768,-0.993202,-0.08596,0.30394,0.34384
-12.4492,0,0,27.4492,27.4492,5,5,25.5076,2.2518,-28.2587,-0.0313507,0.0219619,-0.0785582,0,0,4.13,0.105,-1.7325,-0.03233,-0.395768,-0.993202,-0.08596,0.30394,0.34384
-15.6527,0,0,30.6527,30.6527,5,5,25.5092,2.25184,-28.2593,-0.0941596,-0.0603272,-0.0841026,1,0,4.375,-0.1225,-1.3825,-0.095404,-0.477996,-0.998692,-0.08596,0.30394,0.34384
-15.654,0,0,30.654,30.654,5,5,25.5107,2.25188,-28.26,-0.0941603,-0.0603028,-0.0841142,1,0,4.375,-0.1225,-1.3825,-0.095404,-0.477996,-0.998692,-0.08092,0.30086,0.33754
-26.3283,0,0,41.3283,41.3283,5,5,25.6709,2.43041,-28.3053,0.164407,-0.168729,0.0837413,0,0,3.5175,-0.42,-1.19,0.167384,-0.588772,-0.83082,-0.08092,0.30086,0.33754
-26.2807,0,0,41.2807,41.2807,5,5,25.829,2.60528,-28.3494,0.161357,-0.166305,0.0824231,0,0,3.5175,-0.42,-1.19,0.167384,-0.588772,-0.83082,-0.08092,0.30086,0.33754
-15.9143,0,0,30.9143,30.9143,5,5,25.8316,2.45631,-28.2978,-0.106958,0.0277226,0.00750848,0,0,3.08,0.0175,-1.0675,-0.104676,-0.395036,-0.90524,-0.08092,0.30086,0.33754
-15.7865,0,0,30.7865,30.7865,5,5,25.8322,2.4562,-28.2975,0.0498819,0.132029,0.0645519,1,0,3.8325,0.035,-0.84,0.052826,-0.290848,-0.848632,-0.08092,0.30086,0.33754
-15.7613,0,0,30.7613,30.7613,5,5,25.8324,2.45602,-28.2967,0.049885,0.132032,0.0645503,1,0,3.605,0.1225,-0.5775,0.052826,-0.290848,-0.848632,-0.08092,0.30086,0.33754
-10.4324,0,0,25.4324,25.4324,5,5,25.7534,2.68132,-28.423,0.136099,0.0686751,0.0633926,0,0,3.78,0.0175,-0.5775,0.14335,-0.352824,-0.850218,-0.08092,0.30086,0.33754
-10.5274,0,0,25.5274,25.5274,5,5,25.6765,2.90113,-28.5477,0.132267,0.0673866,0.0638058,0,0,3.675,0.385,-0.42,0.14335,-0.352824,-0.850218,-0.08092,0.30086,0.33754
-16.3148,0,0,31.3148,31.3148,5,5,25.6864,2.97,-28.577,0.0461483,0.0065731,0.0610941,0,0,3.115,0.3675,-0.4025,0.058072,-0.413702,-0.85278,-0.084,0.2961,0.3367
-16.3691,0,0,31.3691,31.3691,5,5,25.6969,3.03706,-28.6057,0.0449794,0.00671219,0.0609592,0,0,3.4475,0.3325,-0.28,0.058072,-0.413702,-0.85278,-0.084,0.2961,0.3367
-28.4454,0,0,43.4454,43.4454,5,5,25.8869,2.99315,-28.5387,0.00529013,-0.198393,0.0211948,0,0,2.975,0.2975,-0.35,0.017446,-0.62159,-0.890844,-0.084,0.2961,0.3367
-9.15021,0,0,24.1502,24.1502,5.84979,5.84979,25.7883,2.92917,-28.5424,-0.0647854,0.0798782,-0.086568,0,0,3.57,0.3325,-0.4725,-0.054046,-0.342088,-0.99857,-0.084,0.2961,0.3367
-9.17013,0,0,24.1701,24.1701,5.82987,5.82987,25.6909,2.86629,-28.5456,-0.0636893,0.078373,-0.0857807,0,0,3.325,0.4025,-0.2975,-0.054046,-0.342088,-0.99857,-0.084,0.2961,0.3367
-15.6708,0,0,30.6708,30.6708,5,5,25.691,2.86609,-28.5445,0.173211,-0.0558426,-0.0760684,1,0,3.5175,0.21,-0.3675,0.183854,-0.476166,-0.988932,-0.084,0.2961,0.3367
-15.6138,0,0,30.6138,30.6138,5,5,25.6903,2.86554,-28.5435,0.173221,-0.0558542,-0.0760623,1,0,3.045,-0.035,-0.4025,0.183854,-0.476166,-0.988932,-0.084,0.2961,0.3367
-8.5117,0,0,23.5117,23.5117,6.4883,6.4883,25.5839,2.85446,-28.5716,-0.0261869,0.0887868,-0.0550881,0,0,3.2375,0.0175,-0.5775,-0.016592,-0.33001,-0.968924,-0.084,0.2961,0.3367
-8.57393,0,0,23.5739,23.5739,6.42607,6.42607,25.4795,2.84308,-28.5993,-0.0259887,0.0871479,-0.0542943,0,0,3.1675,-0.1225,-0.9275,-0.016592,-0.33001,-0.968924,-0.08218,0.2947,0.33824
-15.2085,0,0,30.2085,30.2085,5,5,25.4746,2.8114,-28.5908,-0.0233712,-0.000848872,-0.0243564,0,0,3.15,0.105,-0.8925,-0.014518,-0.41785,-0.939278,-0.08218,0.2947,0.33824
-15.2411,0,0,30.2411,30.2411,5,5,25.4702,2.78057,-28.583,-0.0228336,-0.000906584,-0.0242998,0,0,3.4825,0.0175,-1.2075,-0.014518,-0.41785,-0.939278,-0.08218,0.2947,0.33824
-10.5539,0,0,25.5539,25.5539,5,5,25.3962,2.7228,-28.5834,-0.0549922,0.089788,0.0113385,0,0,3.395,-0.14,-1.6625,-0.047824,-0.326106,-0.904508,-0.08218,0.2947,0.33824
-10.555,0,0,25.555,25.555,5,5,25.3228,2.6664,-28.5835,-0.0540089,0.0886521,0.011928,0,0,3.115,0.0875,-1.5925,-0.047824,-0.326106,-0.904508,-0.08218,0.2947,0.33824
-21.4406,0,0,36.4406,36.4406,5,5,25.4119,2.74834,-28.5975,0.0822058,-0.116611,0.000136034,0,0,3.15,0.035,-1.7675,0.090402,-0.53253,-0.915488,-0.08218,0.2947,0.33824
-21.4069,0,0,36.4069,36.4069,5,5,25.4997,2.82867,-28.6112,0.0808055,-0.115259,-0.000583524,0,0,3.15,0.035,-1.7675,0.090402,-0.53253,-0.915488,-0.08218,0.2947,0.33824
-6.47897,0,0,21.479,21.479,8.52103,8.52103,25.3648,2.8979,-28.6826,0.0211641,0.130509,0.026191,0,0,2.7825,-0.14,-2.065,0.03172,-0.28487,-0.889868,-0.08218,0.2947,0.33824
-6.55844,0,0,21.5584,21.5584,8.44156,8.44156,25.2323,2.96552,-28.7598,0.0199854,0.128395,0.0271235,0,0,2.7825,-0.14,-2.065,0.03172,-0.28487,-0.889868,-0.0819,0.29904,0.33852
-3.76652,0,0,18.7665,18.7665,11.2335,11.2335,25.0595,3.0211,-28.8444,0.00589627,0.159964,7.9585e-05,0,0,3.185,-0.315,-1.96,0.018544,-0.250588,-0.917928,-0.0819,0.29904,0.33852
-3.88869,0,0,18.8887,18.8887,11.1113,11.1113,24.89,3.07459,-28.9285,0.00496394,0.157265,0.00128183,0,0,3.185,-0.315,-1.96,0.018544,-0.250588,-0.917928,-0.0819,0.29904,0.33852
-12.2867,0,0,27.2867,27.2867,5,5,24.8468,3.25231,-29.0309,0.122381,0.0160655,0.0098032,0,0,3.5875,-0.14,-1.75,0.139568,-0.390888,-0.909632,-0.0819,0.29904,0.33852
-16.7099,0,0,31.7099,31.7099,5,5,24.8698,3.04438,-28.9516,-0.148432,0.0199324,0.0119057,0,0,3.2725,-0.0875,-1.715,-0.13603,-0.387472,-0.907558,-0.0819,0.29904,0.33852
-16.6793,0,0,31.6793,31.6793,5,5,24.8922,2.84072,-28.8735,-0.144882,0.0203623,0.0119075,0,0,3.675,-0.5775,-1.785,-0.13603,-0.387472,-0.907558,-0.0819,0.29904,0.33852
-21.5557,0,0,36.5557,36.5557,5,5,24.9868,2.82208,-28.8523,0.00231905,-0.0697304,0.0515537,0,0,3.7275,-0.385,-1.645,0.011468,-0.478972,-0.867542,-0.0819,0.29904,0.33852
-21.5446,0,0,36.5446,36.5446,5,5,25.0804,2.80456,-28.8314,0.00262457,-0.0682456,0.0508768,0,0,4.2175,-0.28,-1.7325,0.011468,-0.478972,-0.867542,-0.0819,0.29904,0.33852
-22.431,0,0,37.431,37.431,5,5,25.1863,2.69483,-28.7671,-0.0633729,-0.103905,-0.0194133,0,0,4.06,0.1225,-1.4175,-0.05673,-0.516304,-0.936594,-0.08456,0.30072,0.33754
-5.14185,0,0,20.1418,20.1418,9.85815,9.85815,25.0343,2.71604,-28.8269,-0.0139336,0.149176,0.00739195,0,0,3.5525,-0.14,-1.085,-0.00671,-0.26108,-0.911096,-0.08456,0.30072,0.33754
