pid_x,pid_y,pid_z,front_left_speed,front_right_speed,back_left_speed,back_right_speed,orientation_x,orientation_y,orientation_z,acceleration_x,acceleration_y,acceleration_z,accel_rejected,mag_rejected,gyro_x,gyro_y,gyro_z,accel_x,accel_y,accel_z,mag_x,mag_y,mag_z
-0.0445897,0,0,15.0446,15.0446,14.9554,14.9554,0.0165147,0.0675146,-0.0124011,0.0530481,-0.0150447,-0.0145697,0,0,2.9925,0.14,-0.945,0.014152,-0.003172,-1.02712,-0.06958,0.1239,0.46312
-0.082557,0,0,15.0826,15.0826,14.9174,14.9174,0.0305767,0.129284,-0.0212831,0.0485685,-0.0130895,-0.0127274,0,0,2.87,0.0875,-1.085,0.010736,-0.001464,-1.02529,-0.06958,0.1239,0.46312
-0.118908,0,0,15.1189,15.1189,14.8811,14.8811,0.0440399,0.189464,-0.0299773,0.0475181,-0.0128545,-0.0127305,0,0,2.695,-0.035,-0.9975,0.010736,-0.001464,-1.02529,-0.06958,0.1239,0.46312
-0.162438,0,0,15.1624,15.1624,14.8376,14.8376,0.0601624,0.252223,-0.0424628,0.0483666,-0.0145272,0.0129612,0,0,2.8525,-0.175,-1.0675,0.012688,-0.003416,-0.99979,-0.06958,0.1239,0.46312
-0.205088,0,0,15.2051,15.2051,14.7949,14.7949,0.0759587,0.31359,-0.0549009,0.0472955,-0.0142515,0.0129556,0,0,2.8525,-0.175,-1.0675,0.012688,-0.003416,-0.99979,-0.06958,0.1239,0.46312
-0.242542,0,0,15.2425,15.2425,14.7575,14.7575,0.0898305,0.377976,-0.070415,0.0488445,-0.0127881,0.0224155,0,0,2.66,0.07,-0.735,0.015372,-0.002196,-0.990396,-0.06958,0.1239,0.46312
-0.283358,0,0,15.2834,15.2834,14.7166,14.7166,0.104947,0.43125,-0.077152,0.0406256,-0.0136234,0.0147857,0,0,2.87,0.0875,-0.84,0.008052,-0.003294,-0.99796,-0.06958,0.1239,0.46312
-0.324693,0,0,15.3247,15.3247,14.6753,14.6753,0.120257,0.483302,-0.0753545,0.0397171,-0.0133563,0.0147779,0,0,3.15,-0.0525,-0.945,0.008052,-0.003294,-0.99796,-0.07154,0.11914,0.46592
-0.358857,0,0,15.3589,15.3589,14.6411,14.6411,0.13291,0.538184,-0.0772077,0.0430113,-0.0113035,-0.00723887,0,0,3.22,0.0525,-0.98,0.012322,-0.001464,-1.0198,-0.07154,0.11914,0.46592
-0.388743,0,0,15.3887,15.3887,14.6113,14.6113,0.143979,0.590499,-0.0782271,0.0416123,-0.0100112,-0.0132728,0,0,3.22,-0.1225,-1.015,0.011834,-0.000366,-1.02578,-0.07154,0.11914,0.46592
-0.406847,0,0,15.4068,15.4068,14.5932,14.5932,0.150684,0.646301,-0.0838542,0.0447689,-0.00635257,-0.0130377,0,0,3.1325,-0.28,-0.98,0.015982,0.003172,-1.02553,-0.07154,0.11914,0.46592
-0.425175,0,0,15.4252,15.4252,14.5748,14.5748,0.157472,0.700773,-0.0894022,0.0438183,-0.00623413,-0.0130492,0,0,3.255,-0.3325,-0.945,0.015982,0.003172,-1.02553,-0.07154,0.11914,0.46592
-0.439672,0,0,15.4397,15.4397,14.5603,14.5603,0.162841,0.750429,-0.0914684,0.0397931,-0.00491919,-0.0102326,0,0,3.29,-0.245,-0.875,0.01281,0.004392,-1.02273,-0.07154,0.11914,0.46592
-0.464551,0,0,15.4646,15.4646,14.5354,14.5354,0.172056,0.804858,-0.0983506,0.0422448,-0.0083001,0.00266359,0,0,3.185,0.14,-1.0325,0.016226,0.000854,-1.00992,-0.07154,0.11914,0.46592
-0.501068,0,0,15.5011,15.5011,14.4989,14.4989,0.185581,0.853329,-0.100546,0.0373899,-0.0114837,0.00842919,0,0,3.465,0,-0.9625,0.0122,-0.002562,-1.00418,-0.07056,0.119,0.46088
-0.546612,0,0,15.5466,15.5466,14.4534,14.4534,0.202449,0.900722,-0.102054,0.0364413,-0.0142425,0.00497297,0,0,3.57,0.1575,-0.805,0.012078,-0.005612,-1.0076,-0.07056,0.119,0.46088
-0.582715,0,0,15.5827,15.5827,14.4173,14.4173,0.21582,0.946567,-0.103316,0.0357628,-0.010956,-0.00340127,0,0,3.8325,0.175,-0.84,0.0122,-0.002562,-1.01589,-0.07056,0.119,0.46088
-0.618431,0,0,15.6184,15.6184,14.3816,14.3816,0.229048,0.991451,-0.104538,0.0349795,-0.0107252,-0.00341542,0,0,3.9025,0.21,-0.8225,0.0122,-0.002562,-1.01589,-0.07056,0.119,0.46088
-0.635149,0,0,15.6351,15.6351,14.3649,14.3649,0.23524,1.03775,-0.108073,0.0366012,-0.00475517,-0.00834811,0,0,3.85,0.1925,-0.6825,0.01464,0.003294,-1.02077,-0.07056,0.119,0.46088
-0.653002,0,0,15.653,15.653,14.347,14.347,0.241853,1.082,-0.110779,0.0348573,-0.00512835,-0.005658,0,0,3.8325,0.175,-0.7525,0.013664,0.002806,-1.01809,-0.07056,0.119,0.46088
-0.670904,0,0,15.6709,15.6709,14.3291,14.3291,0.248483,1.12496,-0.113747,0.0341075,-0.00501272,-0.00567294,0,0,3.92,0,-0.91,0.013664,0.002806,-1.01809,-0.07056,0.119,0.46088
-0.696294,0,0,15.6963,15.6963,14.3037,14.3037,0.257887,1.1646,-0.118171,0.0311077,-0.00741335,0.000214044,0,0,3.885,0.035,-0.8575,0.011346,0.000244,-1.01223,-0.07056,0.1211,0.46494
-0.728281,0,0,15.7283,15.7283,14.2717,14.2717,0.269734,1.2044,-0.123661,0.0312636,-0.0100156,0.00302655,0,0,3.5525,-0.1225,-0.875,0.0122,-0.002562,-1.00943,-0.07056,0.1211,0.46494
-0.777423,0,0,15.7774,15.7774,14.2226,14.2226,0.287934,1.24401,-0.129006,0.0302079,-0.0150717,0.0108789,0,0,3.7275,0.1575,-0.8575,0.011834,-0.00793,-1.00162,-0.07056,0.1211,0.46494
-0.826506,0,0,15.8265,15.8265,14.1735,14.1735,0.306113,1.28313,-0.134329,0.0295253,-0.0147545,0.0108622,0,0,3.92,0.385,-0.8575,0.011834,-0.00793,-1.00162,-0.07056,0.1211,0.46494
-0.875467,0,0,15.8755,15.8755,14.1245,14.1245,0.324247,1.31603,-0.135054,0.0250637,-0.0148046,0.00531479,0,0,3.9375,0.2975,-0.945,0.00793,-0.008296,-1.00711,-0.07056,0.1211,0.46494
-0.908208,0,0,15.9082,15.9082,14.0918,14.0918,0.336373,1.34644,-0.134994,0.0238042,-0.00958588,0.00271932,0,0,3.99,-0.035,-0.9625,0.007198,-0.003294,-1.00967,-0.07056,0.1211,0.46494
-0.940297,0,0,15.9403,15.9403,14.0597,14.0597,0.348258,1.37617,-0.134903,0.0232855,-0.00937859,0.00270576,0,0,3.99,-0.035,-0.945,0.007198,-0.003294,-1.00967,-0.07056,0.1211,0.46494
-0.954641,0,0,15.9546,15.9546,14.0454,14.0454,0.353571,1.41035,-0.135853,0.0264552,-0.00354602,0.0098217,0,0,4.0425,0.1225,-0.9625,0.01098,0.00244,-1.0026,-0.06734,0.11858,0.4627
-0.97146,0,0,15.9715,15.9715,14.0285,14.0285,0.3598,1.44282,-0.135862,0.0258886,-0.00514721,-0.00408627,0,0,3.6225,0.0525,-0.91,0.01098,0.000732,-1.01638,-0.06734,0.11858,0.4627
-0.996582,0,0,15.9966,15.9966,14.0034,14.0034,0.369104,1.47083,-0.132246,0.0222413,-0.00779386,-0.00532922,0,0,3.6575,0.1225,-0.945,0.007808,-0.002074,-1.0176,-0.06734,0.11858,0.4627
-1.02044,0,0,16.0204,16.0204,13.9796,13.9796,0.37794,1.49804,-0.1287,0.0217665,-0.00763978,-0.00534252,0,0,3.5,0.0175,-0.98,0.007808,-0.002074,-1.0176,-0.06734,0.11858,0.4627
-1.03984,0,0,16.0398,16.0398,13.9602,13.9602,0.385125,1.52404,-0.124371,0.0208268,-0.00604899,-0.011011,0,0,3.64,0.2275,-0.98,0.00732,-0.00061,-1.02321,-0.06734,0.11858,0.4627
-1.06279,0,0,16.0628,16.0628,13.9372,13.9372,0.393624,1.54853,-0.119065,0.0193062,-0.00699992,-0.00413831,0,0,3.71,0.21,-0.9275,0.006222,-0.001708,-1.01638,-0.06734,0.11858,0.4627
-1.08479,0,0,16.0848,16.0848,13.9152,13.9152,0.401773,1.57245,-0.113561,0.0188889,-0.00685783,-0.00415066,0,0,3.605,0.1925,-0.805,0.006222,-0.001708,-1.01638,-0.06734,0.11858,0.4627
-1.09893,0,0,16.0989,16.0989,13.9011,13.9011,0.407011,1.59733,-0.111425,0.0196697,-0.00456825,-0.00416332,0,0,3.4475,0.2625,-0.77,0.007442,0.000488,-1.01638,-0.06594,0.11956,0.46228
-1.11307,0,0,16.1131,16.1131,13.8869,13.8869,0.412247,1.62485,-0.112535,0.0216194,-0.00484338,0.00344533,0,0,3.22,0.105,-0.84,0.009882,0.000122,-1.00882,-0.06594,0.11956,0.46228
-1.12039,0,0,16.1204,16.1204,13.8796,13.8796,0.414959,1.64815,-0.110543,0.0185402,-0.00247576,-0.00111572,0,0,3.36,0.105,-0.875,0.007198,0.00244,-1.01333,-0.06594,0.11956,0.46228
-1.11708,0,0,16.1171,16.1171,13.8829,13.8829,0.413735,1.67179,-0.110129,0.019707,0.000800229,-0.00801263,0,0,3.29,-0.245,-0.91,0.008784,0.005734,-1.02016,-0.06594,0.11956,0.46228
-1.11335,0,0,16.1134,16.1134,13.8866,13.8866,0.412354,1.69528,-0.109532,0.0192972,0.000776045,-0.0080245,0,0,3.185,-0.035,-0.805,0.008784,0.005734,-1.02016,-0.06594,0.11956,0.46228
-1.12919,0,0,16.1292,16.1292,13.8708,13.8708,0.418218,1.72327,-0.113191,0.022818,-0.00583872,-0.00508905,0,0,3.01,-0.14,-0.735,0.01281,-0.000976,-1.01724,-0.06594,0.11956,0.46228
-1.14487,0,0,16.1449,16.1449,13.8551,13.8551,0.424025,1.75112,-0.116957,0.022332,-0.00573753,-0.00510453,0,0,3.045,0.14,-0.805,0.01281,-0.000976,-1.01724,-0.06594,0.11956,0.46228
-1.15077,0,0,16.1508,16.1508,13.8492,13.8492,0.426213,1.77091,-0.110616,0.0155481,-0.00252415,-0.000320435,0,0,3.045,0.1925,-1.05,0.006344,0.002196,-1.01248,-0.0686,0.11774,0.46214
-1.15714,0,0,16.1571,16.1571,13.8429,13.8429,0.428571,1.79872,-0.112093,0.0219877,-0.00248313,0.00458208,0,0,3.1325,-0.0175,-0.9275,0.013298,0.002196,-1.0076,-0.0686,0.11774,0.46214
-1.15372,0,0,16.1537,16.1537,13.8463,13.8463,0.427303,1.82526,-0.113123,0.0209172,0.000669933,0.00801016,0,0,3.115,-0.0525,-0.875,0.012688,0.005368,-1.00418,-0.0686,0.11774,0.46214
-1.15124,0,0,16.1512,16.1512,13.8488,13.8488,0.426385,1.84925,-0.112089,0.0189195,0.000898081,0.00443135,0,0,3.465,0.07,-0.8225,0.011102,0.005612,-1.00772,-0.0686,0.11774,0.46214
-1.1489,0,0,16.1489,16.1489,13.8511,13.8511,0.42552,1.87265,-0.110968,0.0185112,0.000882894,0.0044182,0,0,3.4825,0.035,-0.77,0.011102,0.005612,-1.00772,-0.0686,0.11774,0.46214
-1.14042,0,0,16.1404,16.1404,13.8596,13.8596,0.422377,1.89681,-0.111242,0.0196692,0.00290412,-0.00543114,0,0,3.535,0.035,-0.84,0.012688,0.007686,-1.01748,-0.0686,0.11774,0.46214
-1.13093,0,0,16.1309,16.1309,13.8691,13.8691,0.418863,1.9202,-0.111396,0.0192611,0.00284273,-0.00544429,0,0,3.29,-0.105,-0.77,0.012688,0.007686,-1.01748,-0.0686,0.11774,0.46214
-1.13285,0,0,16.1329,16.1329,13.8671,13.8671,0.419574,1.9428,-0.111213,0.018381,-0.000930896,-0.00140037,0,0,3.2375,-0.1225,-0.84,0.0122,0.003904,-1.01345,-0.0686,0.11774,0.46214
-1.13556,0,0,16.1356,16.1356,13.8644,13.8644,0.420576,1.96475,-0.10913,0.0179981,-0.00091351,-0.00141356,0,0,3.4125,-0.1575,-0.9625,0.0122,0.003904,-1.01345,-0.06552,0.1162,0.46046
-1.1364,0,0,16.1364,16.1364,13.8636,13.8636,0.420887,1.9861,-0.10684,0.0170183,-0.000175423,0.00508982,0,0,3.465,-0.035,-0.9975,0.01159,0.004636,-1.00699,-0.06552,0.1162,0.46046
-1.13756,0,0,16.1376,16.1376,13.8624,13.8624,0.42132,2.00704,-0.104464,0.016653,-0.000167969,0.00507703,0,0,3.535,0,-0.945,0.01159,0.004636,-1.00699,-0.06552,0.1162,0.46046
-1.15666,0,0,16.1567,16.1567,13.8433,13.8433,0.428394,2.03098,-0.104944,0.0189082,-0.00554039,0.0096105,0,0,3.7625,-0.14,-0.84,0.014274,-0.000854,-1.00247,-0.06552,0.1162,0.46046
-1.17513,0,0,16.1751,16.1751,13.8249,13.8249,0.435234,2.05466,-0.105453,0.0184951,-0.0054212,0.00959486,0,0,3.71,0.0175,-0.8575,0.014274,-0.000854,-1.00247,-0.06552,0.1162,0.46046
-1.17379,0,0,16.1738,16.1738,13.8262,13.8262,0.434736,2.07521,-0.104172,0.0166788,0.000920605,0.000237917,0,0,3.7275,-0.035,-0.9275,0.01281,0.00549,-1.01175,-0.06552,0.1162,0.46046
-1.1727,0,0,16.1727,16.1727,13.8273,13.8273,0.434335,2.09527,-0.103074,0.016329,0.000913514,0.000225235,0,0,3.78,-0.07,-1.0325,0.01281,0.00549,-1.01175,-0.06552,0.1162,0.46046
-1.17054,0,0,16.1705,16.1705,13.8295,13.8295,0.433533,2.11643,-0.103463,0.0175393,0.00138793,-0.00310784,0,0,3.8675,-0.1575,-0.98,0.014396,0.005978,-1.01504,-0.06552,0.1162,0.46046
-1.16774,0,0,16.1677,16.1677,13.8323,13.8323,0.432496,2.13772,-0.100234,0.0171678,0.00136974,-0.0031215,0,0,3.7275,0.105,-1.015,0.014396,0.005978,-1.01504,-0.07126,0.11466,0.46368
-1.17425,0,0,16.1743,16.1743,13.8257,13.8257,0.434908,2.15096,-0.0897672,0.0103768,-0.00176356,-0.00104033,0,0,3.6575,0.2275,-1.0325,0.007808,0.002806,-1.01297,-0.07126,0.11466,0.46368
-1.1815,0,0,16.1815,16.1815,13.8185,13.8185,0.437594,2.16387,-0.0790557,0.0101515,-0.00171677,-0.00104918,0,0,3.8325,0.21,-0.875,0.007808,0.002806,-1.01297,-0.07126,0.11466,0.46368
-1.20853,0,0,16.2085,16.2085,13.7915,13.7915,0.447604,2.18328,-0.0741775,0.014794,-0.00825926,0.00914136,0,0,3.675,0.14,-0.875,0.01281,-0.003904,-1.00284,-0.07126,0.11466,0.46368
-1.23361,0,0,16.2336,16.2336,13.7664,13.7664,0.456894,2.20202,-0.069136,0.0144671,-0.00809735,0.00912756,0,0,3.3775,0,-0.77,0.01281,-0.003904,-1.00284,-0.07126,0.11466,0.46368
-1.25729,0,0,16.2573,16.2573,13.7427,13.7427,0.465664,2.21147,-0.056307,0.00749912,-0.00757807,0.00284961,0,0,3.4825,-0.07,-0.8225,0.005978,-0.003538,-1.00906,-0.07126,0.11466,0.46368
-1.28077,0,0,16.2808,16.2808,13.7192,13.7192,0.474359,2.22107,-0.0434199,0.00733168,-0.00742649,0.00284188,0,0,3.535,0.14,-0.77,0.005978,-0.003538,-1.00906,-0.07126,0.11466,0.46368
-1.30571,0,0,16.3057,16.3057,13.6943,13.6943,0.483597,2.23532,-0.0351021,0.0116996,-0.00799823,-0.0077427,0,0,3.5875,0.0525,-0.7875,0.010614,-0.00427,-1.01955,-0.07126,0.11466,0.46368
-1.33006,0,0,16.3301,16.3301,13.6699,13.6699,0.492614,2.24923,-0.0266479,0.011457,-0.00784106,-0.00775354,0,0,3.57,0.0175,-0.8925,0.010614,-0.00427,-1.01955,-0.07224,0.11466,0.4613
-1.34185,0,0,16.3418,16.3418,13.6582,13.6582,0.496981,2.26039,-0.0161272,0.00944009,-0.00397903,-0.00936019,0,0,3.4125,-0.0175,-0.7875,0.008784,-0.000488,-1.02114,-0.07224,0.11466,0.4613
-1.35327,0,0,16.3533,16.3533,13.6467,13.6467,0.50121,2.27125,-0.00539366,0.00925077,-0.00390535,-0.00936833,0,0,3.3775,-0.0525,-0.6475,0.008784,-0.000488,-1.02114,-0.07224,0.11466,0.4613
-1.36113,0,0,16.3611,16.3611,13.6389,13.6389,0.504121,2.28476,0.00224548,0.0112019,-0.00275552,-0.00507495,0,0,3.3425,-0.0525,-0.875,0.01098,0.00061,-1.01687,-0.07224,0.11466,0.4613
-1.36706,0,0,16.3671,16.3671,13.6329,13.6329,0.50632,2.29846,0.00986981,0.010963,-0.00271726,-0.00508484,0,0,2.975,0.2275,-0.875,0.01098,0.00061,-1.01687,-0.07224,0.11466,0.4613
-1.38397,0,0,16.384,16.384,13.616,13.616,0.512581,2.31191,0.0173282,0.0104854,-0.00614985,0.00142101,0,0,3.0275,0.1575,-0.9975,0.010736,-0.002928,-1.0104,-0.07224,0.11466,0.4613
-1.40114,0,0,16.4011,16.4011,13.5989,13.5989,0.518939,2.32504,0.0248259,0.0102564,-0.00603905,0.00141074,0,0,3.15,0.14,-0.9625,0.010736,-0.002928,-1.0104,-0.07224,0.11466,0.4613
-1.43047,0,0,16.4305,16.4305,13.5695,13.5695,0.529805,2.33892,0.0319005,0.0111077,-0.0102462,-0.00351879,0,0,3.0625,0.105,-0.77,0.011834,-0.00732,-1.01528,-0.07224,0.11466,0.4613
-1.45923,0,0,16.4592,16.4592,13.5408,13.5408,0.540456,2.35231,0.0273377,0.0108742,-0.0100606,-0.00353009,0,0,3.0625,0.105,-0.77,0.011834,-0.00732,-1.01528,-0.06734,0.12096,0.45626
-1.48111,0,0,16.4811,16.4811,13.5189,13.5189,0.548559,2.36629,0.0215953,0.0111164,-0.00747685,0.00125352,0,0,3.22,0.105,-0.9275,0.012322,-0.00488,-1.01053,-0.06734,0.12096,0.45626
-1.50256,0,0,16.5026,16.5026,13.4974,13.4974,0.556503,2.37997,0.015862,0.0108779,-0.00733841,0.0012423,0,0,3.22,0.105,-0.9275,0.012322,-0.00488,-1.01053,-0.06734,0.12096,0.45626
-1.51581,0,0,16.5158,16.5158,13.4842,13.4842,0.561411,2.38964,0.0129203,0.00791501,-0.0049325,0.00025085,0,0,3.0625,-0.035,-1.0675,0.009516,-0.002562,-1.0115,-0.06734,0.12096,0.45626
-1.5288,0,0,16.5288,16.5288,13.4712,13.4712,0.566222,2.39911,0.00998235,0.0077499,-0.00484867,0.000243121,0,0,3.0625,-0.035,-1.0675,0.009516,-0.002562,-1.0115,-0.06734,0.12096,0.45626
-1.53907,0,0,16.5391,16.5391,13.4609,13.4609,0.570028,2.40741,0.00830675,0.00687617,-0.00380536,-0.00185374,0,0,3.1675,0,-0.84,0.008784,-0.001586,-1.01358,-0.06734,0.12096,0.45626
-1.53809,0,0,16.5381,16.5381,13.4619,13.4619,0.569665,2.41671,0.00620158,0.00683563,-0.000270083,0.00354923,0,0,3.0275,0.42,-0.7525,0.008906,0.001952,-1.00821,-0.06734,0.12096,0.45626
-1.53721,0,0,16.5372,16.5372,13.4628,13.4628,0.569337,2.4258,0.00404135,0.00667707,-0.000275859,0.00354259,0,0,3.045,0.42,-0.7875,0.008906,0.001952,-1.00821,-0.06734,0.12096,0.45626
-1.5368,0,0,16.5368,16.5368,13.4632,13.4632,0.569185,2.43068,0.00513782,0.00379786,-0.000522808,-0.00445265,0,0,3.045,0.315,-0.9275,0.0061,0.001708,-1.01614,-0.06734,0.12096,0.45626
-1.53613,0,0,16.5361,16.5361,13.4639,13.4639,0.568937,2.43507,0.0130322,0.00372122,-0.000527149,-0.00445586,0,0,2.9925,0.0875,-0.98,0.0061,0.001708,-1.01614,-0.06832,0.11718,0.45304
-1.55247,0,0,16.5525,16.5525,13.4475,13.4475,0.574989,2.45071,0.0107194,0.01256,-0.00603957,0.00241657,0,0,2.9925,-0.0175,-1.0325,0.01525,-0.003904,-1.00931,-0.06832,0.11718,0.45304
-1.56867,0,0,16.5687,16.5687,13.4313,13.4313,0.580987,2.46586,0.00846805,0.0122958,-0.0059351,0.00240418,0,0,3.0275,-0.105,-0.9975,0.01525,-0.003904,-1.00931,-0.06832,0.11718,0.45304
-1.5734,0,0,16.5734,16.5734,13.4266,13.4266,0.582741,2.476,0.0105271,0.00847434,-0.00211867,-0.000923379,0,0,3.08,-0.105,-0.8225,0.01159,-0.000122,-1.0126,-0.06832,0.11718,0.45304
-1.5787,0,0,16.5787,16.5787,13.4213,13.4213,0.584704,2.4862,0.0124333,0.00829652,-0.00208453,-0.000931432,0,0,3.22,0.0525,-0.91,0.01159,-0.000122,-1.0126,-0.06832,0.11718,0.45304
-1.58577,0,0,16.5858,16.5858,13.4142,13.4142,0.58732,2.49326,0.0170982,0.00598676,-0.00216109,-0.00610108,0,0,3.57,0.07,-0.8575,0.009394,-0.000244,-1.01772,-0.06832,0.11718,0.45304
-1.5921,0,0,16.5921,16.5921,13.4079,13.4079,0.589668,2.50001,0.0217495,0.005869,-0.00212021,-0.00610664,0,0,3.4475,-0.0175,-0.8575,0.009394,-0.000244,-1.01772,-0.06832,0.11718,0.45304
-1.58666,0,0,16.5867,16.5867,13.4133,13.4133,0.587652,2.50666,0.0260891,0.00575306,0.00187477,-0.00525071,0,0,3.5,0,-0.8925,0.009394,0.003782,-1.01687,-0.06832,0.11718,0.45304
-1.58201,0,0,16.582,16.582,13.418,13.418,0.585929,2.51303,0.0283316,0.00564203,0.00184468,-0.00525527,0,0,3.64,-0.0875,-0.84,0.009394,0.003782,-1.01687,-0.06972,0.11844,0.45892
-1.58621,0,0,16.5862,16.5862,13.4138,13.4138,0.587485,2.51878,0.0311431,0.00529866,-0.00105928,-0.0056288,0,0,3.6575,-0.1925,-0.7525,0.00915,0.000854,-1.01724,-0.06972,0.11844,0.45892
-1.58989,0,0,16.5899,16.5899,13.4101,13.4101,0.58885,2.52457,0.0338289,0.0051978,-0.00103553,-0.00563349,0,0,3.57,-0.105,-0.8225,0.00915,0.000854,-1.01724,-0.06972,0.11844,0.45892
-1.59951,0,0,16.5995,16.5995,13.4005,13.4005,0.59241,2.53224,0.0345392,0.00664336,-0.00280542,-0.00109094,0,0,3.6575,-0.21,-0.875,0.010736,-0.000976,-1.01272,-0.06972,0.11844,0.45892
-1.60905,0,0,16.6091,16.6091,13.3909,13.3909,0.595946,2.53992,0.0355477,0.00650941,-0.00274383,-0.00109751,0,0,3.675,-0.105,-0.7,0.010736,-0.000976,-1.01272,-0.06972,0.11844,0.45892
-1.61075,0,0,16.6108,16.6108,13.3892,13.3892,0.596575,2.54814,0.0356712,0.00685208,-0.000290392,0.00196972,0,0,3.57,-0.14,-0.735,0.011224,0.001464,-1.00967,-0.06972,0.11844,0.45892
-1.61242,0,0,16.6124,16.6124,13.3876,13.3876,0.597192,2.55618,0.035794,0.00671186,-0.000279696,0.00196336,0,0,3.57,-0.14,-0.735,0.011224,0.001464,-1.00967,-0.06972,0.11844,0.45892
-1.61911,0,0,16.6191,16.6191,13.3809,13.3809,0.599669,2.56711,0.0333337,0.00931548,-0.00157999,-0.00394714,0,0,3.8325,-0.105,-0.7,0.01403,0.000122,-1.01553,-0.06972,0.11844,0.45892
-1.62566,0,0,16.6257,16.6257,13.3743,13.3743,0.602098,2.57781,0.0272135,0.00912887,-0.00153773,-0.00395597,0,0,3.8325,-0.105,-0.7,0.01403,0.000122,-1.01553,-0.07042,0.12068,0.4585
-1.67898,0,0,16.679,16.679,13.321,13.321,0.621844,2.57639,0.0326775,-0.00190146,-0.0164593,0.0133772,0,0,3.92,0.1575,-0.9275,0.002928,-0.015128,-0.998326,-0.07042,0.12068,0.4585
-1.73126,0,0,16.7313,16.7313,13.2687,13.2687,0.641207,2.57499,0.0381125,-0.00187709,-0.0161217,0.0133746,0,0,3.92,0.1575,-0.9275,0.002928,-0.015128,-0.998326,-0.07042,0.12068,0.4585
-1.71793,0,0,16.7179,16.7179,13.2821,13.2821,0.636269,2.64247,-0.0197284,0.0604835,0.00504167,-0.0523326,0,0,3.99,-0.1225,-0.6825,0.066734,0.0061,-1.06347,-0.07042,0.12068,0.4585
-1.66275,0,0,16.6627,16.6627,13.3373,13.3373,0.615833,2.64518,-0.021171,0.0023659,0.0190963,0.00225829,0,0,3.9375,-0.105,-0.7525,0.008418,0.020496,-1.00931,-0.07042,0.12068,0.4585
-1.60854,0,0,16.6085,16.6085,13.3915,13.3915,0.595756,2.6477,-0.0227169,0.00232209,0.0187463,0.00225996,0,0,3.92,-0.1925,-0.8225,0.008418,0.020496,-1.00931,-0.07042,0.12068,0.4585
-1.77013,0,0,16.7701,16.7701,13.2299,13.2299,0.655604,2.63323,-0.00503615,-0.0124899,-0.0509216,0.0296777,0,0,3.9025,-0.175,-0.77,-0.00671,-0.050142,-0.9821,-0.07042,0.12068,0.4585
-1.92889,0,0,16.9289,16.9289,13.0711,13.0711,0.714403,2.61951,0.0122318,-0.0122508,-0.0498964,0.0296764,0,0,3.9725,0.0875,-0.945,-0.00671,-0.050142,-0.9821,-0.07042,0.12068,0.4585
-1.87875,0,0,16.8788,16.8788,13.1212,13.1212,0.695834,2.67101,-0.0257237,0.0430993,0.0173155,-0.013393,0,0,3.78,0.1575,-0.805,0.049776,0.017324,-1.0248,-0.07028,0.11662,0.4606
-1.82894,0,0,16.8289,16.8289,13.1711,13.1711,0.677384,2.72126,-0.0639725,0.0422232,0.0169933,-0.0134304,0,0,3.6575,0.07,-1.015,0.049776,0.017324,-1.0248,-0.07028,0.11662,0.4606
-1.89404,0,0,16.894,16.894,13.106,13.106,0.701496,2.68713,-0.024787,-0.0278865,-0.0210559,-0.00652228,0,0,3.9025,0.1925,-1.1725,-0.021228,-0.021106,-1.01797,-0.07028,0.11662,0.4606
-1.95789,0,0,16.9579,16.9579,13.0421,13.0421,0.725143,2.65388,0.0143527,-0.0273067,-0.0206433,-0.00650037,0,0,3.9025,0.28,-1.12,-0.021228,-0.021106,-1.01797,-0.07028,0.11662,0.4606
-1.91371,0,0,16.9137,16.9137,13.0863,13.0863,0.708782,2.69842,-0.0179299,0.0348463,0.0153426,0.014614,0,0,3.85,0.2975,-0.9625,0.041968,0.015128,-0.996984,-0.07028,0.11662,0.4606
-1.87038,0,0,16.8704,16.8704,13.1296,13.1296,0.692732,2.74202,-0.0501545,0.0340861,0.0150624,0.0145813,0,0,3.85,0.2975,-0.9625,0.041968,0.015128,-0.996984,-0.07028,0.11662,0.4606
-1.93129,0,0,16.9313,16.9313,13.0687,13.0687,0.715294,2.71879,-0.0211998,-0.018841,-0.0199608,-0.00126452,0,0,3.6225,-0.0175,-0.9275,-0.01159,-0.020252,-1.01272,-0.07028,0.11662,0.4606
-1.99104,0,0,16.991,16.991,13.009,13.009,0.737421,2.69605,0.00765468,-0.0184445,-0.0195748,-0.00125067,0,0,3.6225,-0.0175,-0.9275,-0.01159,-0.020252,-1.01272,-0.07028,0.11662,0.4606
-1.95333,0,0,16.9533,16.9533,13.0467,13.0467,0.723455,2.76536,-0.055751,0.0591914,0.0124224,-0.0215917,0,0,3.3425,0.035,-0.945,0.067588,0.011956,-1.03285,-0.06832,0.12068,0.46956
-1.86099,0,0,16.861,16.861,13.139,13.139,0.689256,2.73788,-0.0337963,-0.0225754,0.0301456,0.00388902,0,0,3.1325,0.0525,-1.015,-0.015006,0.030256,-1.0076,-0.06832,0.12068,0.46956
-1.94144,0,0,16.9414,16.9414,13.0586,13.0586,0.71905,2.70787,-0.00588295,-0.0242391,-0.0272228,-0.00863323,0,0,3.36,0.0175,-0.8925,-0.017202,-0.027572,-1.02004,-0.06832,0.12068,0.46956
-2.02,0,0,17.02,17.02,12.98,12.98,0.748147,2.6785,0.0220061,-0.023727,-0.0267153,-0.00861564,0,0,3.29,0.0175,-0.84,-0.017202,-0.027572,-1.02004,-0.06832,0.12068,0.46956
-1.93589,0,0,16.9359,16.9359,13.0641,13.0641,0.716997,2.70608,-0.00383074,0.0225643,0.0274542,0.00108163,0,0,3.0625,0.035,-0.7875,0.029768,0.027084,-1.0104,-0.06832,0.12068,0.46956
-1.85389,0,0,16.8539,16.8539,13.1461,13.1461,0.686625,2.73313,-0.0297647,0.0220926,0.0269245,0.00106571,0,0,3.1675,0.07,-0.875,0.029768,0.027084,-1.0104,-0.06832,0.12068,0.46956
-1.89574,0,0,16.8957,16.8957,13.1043,13.1043,0.702124,2.70342,-0.00274778,-0.0244043,-0.0139618,0.00256241,0,0,3.3775,0.0875,-0.98,-0.017446,-0.01403,-1.00894,-0.06832,0.12068,0.46956
-1.93662,0,0,16.9366,16.9366,13.0634,13.0634,0.717265,2.67418,0.0242707,-0.0238946,-0.0136975,0.00258308,0,0,3.3425,0,-0.9275,-0.017446,-0.01403,-1.00894,-0.06832,0.12068,0.46956
-1.89832,0,0,16.8983,16.8983,13.1017,13.1017,0.703081,2.72614,-0.021382,0.0417738,0.0124341,0.00278932,0,0,3.2025,0.1575,-0.91,0.04941,0.012322,-1.0087,-0.07672,0.12152,0.45822
-1.85602,0,0,16.856,16.856,13.144,13.144,0.687417,2.6879,0.0123077,-0.0304511,0.013749,-0.0258228,0,0,3.185,0.035,-0.8925,-0.02379,0.013908,-1.03712,-0.07672,0.12152,0.45822
-1.81455,0,0,16.8146,16.8146,13.1854,13.1854,0.672057,2.65036,0.046067,-0.0297966,0.0134816,-0.0257892,0,0,3.185,-0.035,-0.8225,-0.02379,0.013908,-1.03712,-0.07672,0.12152,0.45822
-1.88419,0,0,16.8842,16.8842,13.1158,13.1158,0.697848,2.68054,0.02207,0.023617,-0.0230735,0.0126639,0,0,3.29,0.035,-0.8225,0.030378,-0.023058,-0.998936,-0.07672,0.12152,0.45822
-1.95272,0,0,16.9527,16.9527,13.0473,13.0473,0.723231,2.7101,-0.00198311,0.0231016,-0.0226313,0.0126341,0,0,3.3425,0.0525,-0.8925,0.030378,-0.023058,-0.998936,-0.07672,0.12152,0.45822
-1.87406,0,0,16.8741,16.8741,13.1259,13.1259,0.694096,2.69979,0.00652668,-0.00818349,0.0262001,-0.00751468,0,0,3.3075,0.1575,-0.9275,-0.00122,0.02623,-1.01894,-0.07672,0.12152,0.45822
-1.79722,0,0,16.7972,16.7972,13.2028,13.2028,0.665638,2.68983,0.0148707,-0.00800978,0.0257041,-0.00750062,0,0,3.3775,0.2275,-1.0325,-0.00122,0.02623,-1.01894,-0.07672,0.12152,0.45822
-1.87607,0,0,16.8761,16.8761,13.1239,13.1239,0.694842,2.70967,-0.0005217,0.0148481,-0.0256908,0.018788,0,0,3.43,0.1225,-0.9625,0.022082,-0.02562,-0.992836,-0.07672,0.12152,0.45822
-1.95331,0,0,16.9533,16.9533,13.0467,13.0467,0.723449,2.72914,-0.0157287,0.0145086,-0.0251923,0.0187657,0,0,3.4125,0.28,-0.9975,0.022082,-0.02562,-0.992836,-0.07028,0.12026,0.47222
-1.87742,0,0,16.8774,16.8774,13.1226,13.1226,0.695341,2.73197,-0.0188274,0.00218915,0.0253666,-0.00495964,0,0,3.36,0.3325,-0.9625,0.00976,0.025376,-1.01638,-0.07028,0.12026,0.47222
-1.80297,0,0,16.803,16.803,13.197,13.197,0.667766,2.73478,-0.0220189,0.00214027,0.0248859,-0.00495625,0,0,3.36,0.35,-1.0325,0.00976,0.025376,-1.01638,-0.07028,0.12026,0.47222
-1.86818,0,0,16.8682,16.8682,13.1318,13.1318,0.69192,2.73608,-0.021769,0.00114564,-0.0222003,-0.00557708,0,0,3.3425,0.21,-1.12,0.008784,-0.022082,-1.01699,-0.07028,0.12026,0.47222
-1.93208,0,0,16.9321,16.9321,13.0679,13.0679,0.715587,2.73691,-0.0213937,0.00113123,-0.0217878,-0.00558283,0,0,3.325,-0.0525,-1.0325,0.008784,-0.022082,-1.01699,-0.07028,0.12026,0.47222
-1.87606,0,0,16.8761,16.8761,13.1239,13.1239,0.694836,2.74224,-0.0274308,0.00480426,0.018885,-0.00140258,0,0,3.4825,-0.175,-1.015,0.012566,0.01891,-1.01284,-0.07028,0.12026,0.47222
-1.82035,0,0,16.8203,16.8203,13.1797,13.1797,0.674203,2.74753,-0.033441,0.00471215,0.0185253,-0.0014027,0,0,3.325,-0.14,-1.015,0.012566,0.01891,-1.01284,-0.07028,0.12026,0.47222
-1.89387,0,0,16.8939,16.8939,13.1061,13.1061,0.701433,2.72523,-0.0122225,-0.018103,-0.0247212,0.00156094,0,0,3.36,-0.1225,-0.98,-0.010736,-0.024766,-1.00992,-0.07028,0.12026,0.47222
-1.96598,0,0,16.966,16.966,13.034,13.034,0.728142,2.7034,0.00554846,-0.0177223,-0.0242554,0.00157318,0,0,3.36,-0.1225,-0.98,-0.010736,-0.024766,-1.00992,-0.06678,0.12208,0.46312
-1.92109,0,0,16.9211,16.9211,13.0789,13.0789,0.711516,2.74801,-0.0385053,0.0375049,0.0150234,-0.00276341,0,0,3.3775,-0.1925,-0.9275,0.045506,0.014762,-1.01419,-0.06678,0.12208,0.46312
-1.87705,0,0,16.877,16.877,13.123,13.123,0.695202,2.7917,-0.0824835,0.0367433,0.0147386,-0.00279675,0,0,3.3775,-0.1925,-0.9275,0.045506,0.014762,-1.01419,-0.06678,0.12208,0.46312
-1.82771,0,0,16.8277,16.8277,13.1723,13.1723,0.676931,2.69472,0.000500981,-0.0778278,0.0164972,0.0716719,0,0,3.64,0.07,-1.015,-0.071248,0.016836,-0.940376,-0.06678,0.12208,0.46312
-1.77929,0,0,16.7793,16.7793,13.2207,13.2207,0.658998,2.59975,0.0833953,-0.076172,0.0161855,0.0717521,0,0,3.64,0.07,-1.015,-0.071248,0.016836,-0.940376,-0.06678,0.12208,0.46312
-1.75241,0,0,16.7524,16.7524,13.2476,13.2476,0.649042,2.6328,0.0524122,0.0301591,0.00892824,-0.0358522,0,0,3.395,-0.0175,-0.7875,0.036112,0.00976,-1.04713,-0.06678,0.12208,0.46312
-1.85016,0,0,16.8502,16.8502,13.1498,13.1498,0.685246,2.58592,0.095631,-0.0382704,-0.0359934,-0.0763953,0,0,3.605,0.07,-0.7175,-0.033428,-0.035746,-1.08739,-0.06678,0.12208,0.46312
-1.94572,0,0,16.9457,16.9457,13.0543,13.0543,0.720637,2.54005,0.138855,-0.0374707,-0.035376,-0.0763671,0,0,3.535,0.0875,-0.6125,-0.033428,-0.035746,-1.08739,-0.06678,0.12208,0.46312
-1.97501,0,0,16.975,16.975,13.025,13.025,0.731486,2.63418,0.0514378,0.0696179,-0.00868626,0.0746601,0,0,3.15,-0.0525,-0.665,0.075762,-0.009272,-0.937448,-0.06426,0.12348,0.46438
-2.00589,0,0,17.0059,17.0059,12.9941,12.9941,0.742921,2.72599,-0.0359895,0.0680173,-0.00848788,0.0745826,0,0,3.605,-0.2625,-0.7875,0.075762,-0.009272,-0.937448,-0.06426,0.12348,0.46438
-2.00082,0,0,17.0008,17.0008,12.9992,12.9992,0.741045,2.73204,-0.0477058,0.00959856,0.00100525,-0.0773863,0,0,3.5175,-0.245,-0.8925,0.017202,0.000244,-1.08824,-0.06426,0.12348,0.46438
-1.99585,0,0,16.9959,16.9959,13.0041,13.0041,0.739205,2.73797,-0.0593984,0.0094952,0.000973103,-0.0773909,0,0,3.5175,-0.245,-0.8925,0.017202,0.000244,-1.08824,-0.06426,0.12348,0.46438
-1.91762,0,0,16.9176,16.9176,13.0824,13.0824,0.710231,2.80452,-0.126886,0.051341,0.0261139,0.0382539,0,0,3.5525,0.1575,-0.8925,0.06039,0.025864,-0.973438,-0.06426,0.12348,0.46438
-1.84085,0,0,16.8408,16.8408,13.1592,13.1592,0.681796,2.86969,-0.194288,0.050205,0.0256176,0.0382036,0,0,3.5525,0.1575,-0.8925,0.06039,0.025864,-0.973438,-0.06426,0.12348,0.46438
-1.81148,0,0,16.8115,16.8115,13.1885,13.1885,0.67092,2.84813,-0.183042,-0.0163578,0.00979605,-0.0527573,0,0,3.4125,0.07,-0.805,-0.006832,0.010248,-1.06372,-0.06426,0.12348,0.46438
-1.78267,0,0,16.7827,16.7827,13.2173,13.2173,0.66025,2.82701,-0.171802,-0.0159897,0.00961027,-0.0527368,0,0,3.4125,0.07,-0.805,-0.006832,0.010248,-1.06372,-0.06426,0.12348,0.46438
-1.64366,0,0,16.6437,16.6437,13.3563,13.3563,0.608763,2.77131,-0.127066,-0.0462404,0.0449849,0.0459253,0,0,3.2725,-0.1225,-1.015,-0.038186,0.046482,-0.965874,-0.06818,0.1211,0.4704
-1.76701,0,0,16.767,16.767,13.233,13.233,0.654448,2.80491,-0.157837,0.0257007,-0.0400741,0.0348226,0,0,3.36,-0.1225,-1.155,0.034648,-0.039284,-0.976854,-0.06818,0.1211,0.4704
-1.88803,0,0,16.888,16.888,13.112,13.112,0.699271,2.83782,-0.188531,0.0251271,-0.0392931,0.0347851,0,0,3.36,-0.1225,-1.155,0.034648,-0.039284,-0.976854,-0.06818,0.1211,0.4704
-1.8743,0,0,16.8743,16.8743,13.1257,13.1257,0.694184,2.73954,-0.10301,-0.0834687,0.00397422,-0.0538992,0,0,3.3075,0.07,-1.1025,-0.076128,0.004026,-1.06494,-0.06818,0.1211,0.4704
-1.8373,0,0,16.8373,16.8373,13.1627,13.1627,0.680483,2.76065,-0.124629,0.0121369,0.0121619,0.0853866,0,0,3.2375,-0.0875,-1.1025,0.020252,0.012444,-0.926712,-0.06818,0.1211,0.4704
-1.80226,0,0,16.8023,16.8023,13.1977,13.1977,0.667502,2.7819,-0.146315,0.0117666,0.0119354,0.0853714,0,0,3.5,0.245,-1.1725,0.020252,0.012444,-0.926712,-0.06818,0.1211,0.4704
-1.77083,0,0,16.7708,16.7708,13.2292,13.2292,0.655862,2.7626,-0.131514,-0.0143808,0.0106336,-0.0605499,0,0,3.465,0.2275,-1.1375,-0.006344,0.011346,-1.07153,-0.06818,0.1211,0.4704
-1.73984,0,0,16.7398,16.7398,13.2602,13.2602,0.644386,2.7436,-0.116609,-0.0140497,0.0104337,-0.0605317,0,0,3.43,0.175,-1.0675,-0.006344,0.011346,-1.07153,-0.06818,0.1211,0.4704
-1.66525,0,0,16.6653,16.6653,13.3347,13.3347,0.616759,2.70243,-0.0830195,-0.0353208,0.0244855,0.0624563,0,0,3.535,0.14,-1.085,-0.028426,0.025864,-0.949526,-0.06678,0.12152,0.47152
-1.73135,0,0,16.7313,16.7313,13.2687,13.2687,0.641239,2.75396,-0.130332,0.0393449,-0.0212521,0.0417534,0,0,3.325,0.14,-0.98,0.047458,-0.020252,-0.970022,-0.06678,0.12152,0.47152
-1.79567,0,0,16.7957,16.7957,13.2043,13.2043,0.665064,2.80404,-0.177588,0.0384718,-0.0208373,0.0417063,0,0,3.22,-0.0875,-1.015,0.047458,-0.020252,-0.970022,-0.06678,0.12152,0.47152
-1.84464,0,0,16.8446,16.8446,13.1554,13.1554,0.6832,2.74095,-0.123248,-0.0527574,-0.0192992,-0.0868483,0,0,3.3075,-0.105,-1.05,-0.045262,-0.019032,-1.09763,-0.06678,0.12152,0.47152
-1.89429,0,0,16.8943,16.8943,13.1057,13.1057,0.701589,2.6791,-0.0688621,-0.0516792,-0.018978,-0.0868011,0,0,3.64,-0.14,-0.9275,-0.045262,-0.019032,-1.09763,-0.06678,0.12152,0.47152
-1.91766,0,0,16.9177,16.9177,13.0823,13.0823,0.710243,2.72725,-0.113583,0.0337362,-0.0061265,0.0769248,0,0,3.605,-0.035,-0.9275,0.041358,-0.006344,-0.93513,-0.06678,0.12152,0.47152
-1.941,0,0,16.941,16.941,13.059,13.059,0.718889,2.77488,-0.158137,0.0329059,-0.00597627,0.076883,0,0,3.6925,0.245,-0.8925,0.041358,-0.006344,-0.93513,-0.06678,0.12152,0.47152
-1.9712,0,0,16.9712,16.9712,13.0288,13.0288,0.730072,2.73927,-0.128645,-0.028431,-0.0115209,-0.0674311,0,0,3.57,0.1575,-0.7525,-0.020862,-0.012078,-1.07836,-0.07098,0.1225,0.47026
-1.87838,0,0,16.8784,16.8784,13.1216,13.1216,0.695696,2.70669,-0.103455,-0.0283489,0.0308688,0.0535847,0,0,3.675,0.14,-0.7525,-0.02135,0.030866,-0.95831,-0.07098,0.1225,0.47026
-1.92153,0,0,16.9215,16.9215,13.0785,13.0785,0.711678,2.75877,-0.151618,0.0393826,-0.0131852,0.043948,0,0,3.64,0.14,-0.7175,0.04758,-0.01342,-0.967826,-0.07098,0.1225,0.47026
-1.96352,0,0,16.9635,16.9635,13.0365,13.0365,0.72723,2.80952,-0.199694,0.0384978,-0.0129146,0.0439015,0,0,3.57,0,-0.735,0.04758,-0.01342,-0.967826,-0.07098,0.1225,0.47026
-1.977,0,0,16.977,16.977,13.023,13.023,0.732223,2.80917,-0.202949,0.0033946,-0.00574422,-0.0722856,0,0,3.465,-0.0175,-0.665,0.012322,-0.006344,-1.08312,-0.07098,0.1225,0.47026
-1.99128,0,0,16.9913,16.9913,13.0087,13.0087,0.737512,2.80916,-0.206496,0.00339482,-0.00565202,-0.0722868,0,0,3.6925,0.175,-0.84,0.012322,-0.006344,-1.08312,-0.07098,0.1225,0.47026
-1.90483,0,0,16.9048,16.9048,13.0952,13.0952,0.705491,2.82274,-0.224369,0.00655965,0.0289622,0.074878,0,0,3.955,0.14,-0.945,0.015738,0.028792,-0.937082,-0.07098,0.1225,0.47026
-1.81916,0,0,16.8192,16.8192,13.1808,13.1808,0.673763,2.83577,-0.242168,0.00633253,0.028409,0.0748734,0,0,3.78,-0.0175,-0.9275,0.015738,0.028792,-0.937082,-0.07098,0.1225,0.47026
-1.87052,0,0,16.8705,16.8705,13.1295,13.1295,0.692784,2.83436,-0.242739,0.00259108,-0.0191331,-0.0783232,0,0,3.7975,0.1225,-0.8925,0.011956,-0.019032,-1.08909,-0.07196,0.12166,0.46914
-1.92101,0,0,16.921,16.921,13.079,13.079,0.711486,2.83273,-0.243147,0.00261936,-0.0188071,-0.0783258,0,0,3.815,-0.0175,-0.7875,0.011956,-0.019032,-1.08909,-0.07196,0.12166,0.46914
-1.83505,0,0,16.835,16.835,13.165,13.165,0.679647,2.88864,-0.297894,0.0380905,0.0282668,0.0863833,0,0,3.71,0.1925,-0.98,0.048556,0.028548,-0.925614,-0.07196,0.12166,0.46914
-1.75067,0,0,16.7507,16.7507,13.2493,13.2493,0.648397,2.9434,-0.352564,0.0371361,0.0277215,0.086341,0,0,3.71,0.1925,-0.98,0.048556,0.028548,-0.925614,-0.07196,0.12166,0.46914
-1.82591,0,0,16.8259,16.8259,13.1741,13.1741,0.676264,2.92331,-0.337843,-0.0148741,-0.027116,-0.0541768,0,0,3.745,0.14,-1.0675,-0.004026,-0.026718,-1.06506,-0.07196,0.12166,0.46914
-1.89974,0,0,16.8997,16.8997,13.1003,13.1003,0.703609,2.90364,-0.323192,-0.0145312,-0.0266392,-0.0541651,0,0,3.745,0.14,-1.0675,-0.004026,-0.026718,-1.06506,-0.07196,0.12166,0.46914
-1.83932,0,0,16.8393,16.8393,13.1607,13.1607,0.68123,2.91074,-0.328372,-0.00311386,0.020478,0.0531673,0,0,3.64,4.375,-1.1025,0.007564,0.02074,-0.958554,-0.07196,0.12166,0.46914
-1.78003,0,0,16.78,16.78,13.22,13.22,0.65927,2.9177,-0.333529,-0.00323512,0.0200952,0.0531656,0,0,3.64,4.375,-1.1025,0.007564,0.02074,-0.958554,-0.07196,0.12166,0.46914
-1.88389,0,0,16.8839,16.8839,13.1161,13.1161,0.697736,2.93637,-0.350316,0.0189142,-0.0376112,-0.0485373,0,0,3.57,0.14,-1.0325,0.030134,-0.037576,-1.05945,-0.06958,0.12012,0.46242
-1.88719,0,0,16.8872,16.8872,13.1128,13.1128,0.69896,2.89667,-0.316838,-0.0323897,-0.00168415,-0.0450598,0,0,3.4475,0.0525,-1.015,-0.022082,-0.001708,-1.05603,-0.06958,0.12012,0.46242
-1.89102,0,0,16.891,16.891,13.109,13.109,0.700378,2.85753,-0.283407,-0.0317074,-0.00165901,-0.0450258,0,0,3.57,-0.105,-0.9975,-0.022082,-0.001708,-1.05603,-0.06958,0.12012,0.46242
-1.84754,0,0,16.8475,16.8475,13.1525,13.1525,0.684272,2.95533,-0.373597,0.0730094,0.0147906,0.0704626,0,0,3.5175,0.1225,-1.0325,0.08479,0.015006,-0.941352,-0.06958,0.12012,0.46242
-1.80472,0,0,16.8047,16.8047,13.1953,13.1953,0.668413,3.05091,-0.463819,0.0713435,0.0145132,0.0703785,0,0,3.5,0,-1.1375,0.08479,0.015006,-0.941352,-0.06958,0.12012,0.46242
-1.83818,0,0,16.8382,16.8382,13.1618,13.1618,0.680806,3.00382,-0.42465,-0.0386308,-0.0136037,-0.0778565,0,0,3.22,0.2275,-1.0325,-0.026474,-0.013298,-1.08848,-0.06958,0.12012,0.46242
-1.87026,0,0,16.8703,16.8703,13.1297,13.1297,0.69269,2.95747,-0.385418,-0.0378228,-0.0133961,-0.0778169,0,0,3.0625,0.0875,-0.9275,-0.026474,-0.013298,-1.08848,-0.06958,0.12012,0.46242
-1.79022,0,0,16.7902,16.7902,13.2098,13.2098,0.663046,3.00831,-0.435418,0.0358832,0.0259,0.0706648,0,0,3.1675,0.14,-0.9275,0.048434,0.026474,-0.941108,-0.06958,0.12012,0.46242
-1.71178,0,0,16.7118,16.7118,13.2882,13.2882,0.633994,3.05838,-0.487409,0.0350105,0.0253932,0.0706243,0,0,3.185,0.21,-0.805,0.048434,0.026474,-0.941108,-0.07168,0.12166,0.46788
-1.78698,0,0,16.787,16.787,13.213,13.213,0.661843,2.99631,-0.436094,-0.0519848,-0.0287115,-0.0685017,0,0,3.1675,0.1925,-0.84,-0.040016,-0.02806,-1.07921,-0.07168,0.12166,0.46788
-1.8617,0,0,16.8617,16.8617,13.1383,13.1383,0.689518,2.9357,-0.385329,-0.0509284,-0.0282285,-0.0684527,0,0,3.3775,0.2975,-1.05,-0.040016,-0.02806,-1.07921,-0.07168,0.12166,0.46788
-1.75925,0,0,16.7593,16.7593,13.2407,13.2407,0.651575,2.95348,-0.407867,0.00926163,0.0333946,0.0807986,0,0,3.5525,0.1575,-1.015,0.02074,0.03416,-0.931104,-0.07168,0.12166,0.46788
-1.65804,0,0,16.658,16.658,13.342,13.342,0.614091,2.97061,-0.430354,0.00896296,0.0327412,0.0807904,0,0,3.4125,0,-1.015,0.02074,0.03416,-0.931104,-0.07168,0.12166,0.46788
-1.77511,0,0,16.7751,16.7751,13.2249,13.2249,0.65745,2.95735,-0.421055,-0.00793538,-0.0438092,-0.0732605,0,0,3.5,0.07,-0.91,0.003538,-0.043066,-1.08397,-0.07168,0.12166,0.46788
-1.88894,0,0,16.8889,16.8889,13.1111,13.1111,0.699606,2.94424,-0.41153,-0.00770691,-0.0430744,-0.0732574,0,0,3.2725,0,-0.735,0.003538,-0.043066,-1.08397,-0.07168,0.12166,0.46788
-1.76973,0,0,16.7697,16.7697,13.2303,13.2303,0.655454,2.95894,-0.431403,0.00880191,0.03908,0.0531295,0,0,3.2375,0.035,-0.7175,0.020374,0.039772,-0.958554,-0.07168,0.12166,0.46788
-1.653,0,0,16.653,16.653,13.347,13.347,0.612222,2.97331,-0.449857,0.00855157,0.0383264,0.0531249,0,0,3.29,0.035,-0.735,0.020374,0.039772,-0.958554,-0.0735,0.12096,0.47082
-1.77945,0,0,16.7795,16.7795,13.2205,13.2205,0.659056,3.00266,-0.476969,0.0286925,-0.0463464,-0.0474828,0,0,3.325,0,-0.6825,0.041114,-0.045628,-1.05835,-0.0735,0.12096,0.47082
-1.90226,0,0,16.9023,16.9023,13.0977,13.0977,0.704542,3.03138,-0.504133,0.0281919,-0.045554,-0.0475186,0,0,3.0625,-0.0175,-0.7525,0.041114,-0.045628,-1.05835,-0.0735,0.12096,0.47082
-1.84247,0,0,16.8425,16.8425,13.1575,13.1575,0.682396,2.96777,-0.452985,-0.0530667,0.0202535,0.000494103,0,0,3.255,-0.1575,-0.84,-0.041602,0.020496,-1.01077,-0.0735,0.12096,0.47082
-1.78382,0,0,16.7838,16.7838,13.2162,13.2162,0.660673,2.90557,-0.402243,-0.0519825,0.0198755,0.000554161,0,0,3.2725,-0.105,-1.05,-0.041602,0.020496,-1.01077,-0.0735,0.12096,0.47082
-1.85738,0,0,16.8574,16.8574,13.1426,13.1426,0.687919,2.96186,-0.454031,0.0461687,-0.0252035,0.0152521,0,0,3.2375,-0.0175,-0.98,0.05795,-0.02501,-0.99613,-0.0735,0.12096,0.47082
-1.92869,0,0,16.9287,16.9287,13.0713,13.0713,0.714329,3.01725,-0.50537,0.0452032,-0.0247438,0.0151961,0,0,3.045,0.14,-0.805,0.05795,-0.02501,-0.99613,-0.0735,0.12096,0.47082
-1.87612,0,0,16.8761,16.8761,13.1239,13.1239,0.69486,2.9512,-0.451185,-0.0556935,0.0175398,-0.0234685,0,0,3.0275,0.14,-0.875,-0.04453,0.017568,-1.03456,-0.0735,0.12096,0.47082
-1.82594,0,0,16.8259,16.8259,13.1741,13.1741,0.676274,2.88644,-0.397181,-0.0545647,0.0172166,-0.0234071,0,0,3.325,0.105,-0.945,-0.04453,0.017568,-1.03456,-0.0735,0.12096,0.47082
-1.81219,0,0,16.8122,16.8122,13.1878,13.1878,0.671181,3.02216,-0.517708,0.105861,0.0049137,0.0613063,0,0,3.36,0.0175,-0.875,0.11895,0.005368,-0.95038,-0.07014,0.11774,0.46942
-1.8116,0,0,16.8116,16.8116,13.1884,13.1884,0.670962,2.98522,-0.484254,-0.0305314,-0.000463291,-0.0238632,0,0,3.185,-0.035,-0.8925,-0.018666,0,-1.03493,-0.07014,0.11774,0.46942
-1.81069,0,0,16.8107,16.8107,13.1893,13.1893,0.670625,2.94903,-0.450779,-0.0299007,-0.000468788,-0.0238304,0,0,3.115,-0.035,-0.84,-0.018666,0,-1.03493,-0.07014,0.11774,0.46942
-1.8492,0,0,16.8492,16.8492,13.1508,13.1508,0.68489,3.00957,-0.503358,0.0557848,-0.0145096,-0.0406092,0,0,3.3775,-0.0175,-0.91,0.068442,-0.014274,-1.05152,-0.07014,0.11774,0.46942
-1.8871,0,0,16.8871,16.8871,13.1129,13.1129,0.698927,3.06894,-0.55566,0.0547501,-0.0142657,-0.0406671,0,0,3.395,0.0175,-0.8225,0.068442,-0.014274,-1.05152,-0.07014,0.11774,0.46942
-2.10289,0,0,17.1029,17.1029,12.8971,12.8971,0.778847,2.99625,-0.485709,-0.0623101,-0.0824843,-0.0939776,0,0,3.6225,0.07,-0.875,-0.050386,-0.083814,-1.10447,-0.07014,0.11774,0.46942
-2.31355,0,0,17.3136,17.3136,12.6864,12.6864,0.856871,2.92454,-0.415998,-0.0610601,-0.0811235,-0.0939324,0,0,3.395,-0.2275,-0.77,-0.050386,-0.083814,-1.10447,-0.07014,0.11774,0.46942
-2.31412,0,0,17.3141,17.3141,12.6859,12.6859,0.85708,2.92397,-0.415793,-0.0108766,0.118191,0.108318,1,0,3.535,-0.2625,-0.7875,0,0.11529,-0.903776,-0.07014,0.11774,0.46942
-2.31505,0,0,17.315,17.315,12.685,12.685,0.857426,2.92373,-0.415972,-0.0108725,0.118197,0.108318,1,0,3.6225,-0.07,-1.015,0,0.11529,-0.903776,-0.07,0.1267,0.46746
-2.31507,0,0,17.3151,17.3151,12.6849,12.6849,0.857432,2.92338,-0.416064,0.0682209,-0.142543,-0.12848,1,0,3.43,-0.14,-0.9625,0.079422,-0.14518,-1.13875,-0.07,0.1267,0.46746
-2.31498,0,0,17.315,17.315,12.685,12.685,0.857401,2.92344,-0.416269,0.0682198,-0.142544,-0.12848,1,0,3.4125,0.105,-1.0325,0.079422,-0.14518,-1.13875,-0.07,0.1267,0.46746
-1.74493,0,0,16.7449,16.7449,13.2551,13.2551,0.646271,2.81315,-0.338728,-0.0934989,0.184741,0.0837507,0,0,3.5,0.14,-0.9275,-0.084912,0.18544,-0.928298,-0.07,0.1267,0.46746
-1.18452,0,0,16.1845,16.1845,13.8155,13.8155,0.43871,2.70495,-0.260492,-0.0916126,0.181123,0.0838758,0,0,3.3425,0.14,-0.9625,-0.084912,0.18544,-0.928298,-0.07,0.1267,0.46746
-1.47991,0,0,16.4799,16.4799,13.5201,13.5201,0.548116,2.78727,-0.339103,0.0803123,-0.11154,-0.0708786,0,0,3.4125,0.0525,-0.9275,0.089182,-0.108824,-1.08177,-0.07,0.1267,0.46746
-1.76973,0,0,16.7697,16.7697,13.2303,13.2303,0.655454,2.86796,-0.417257,0.0789058,-0.109669,-0.0709678,0,0,3.3775,0.07,-0.8925,0.089182,-0.108824,-1.08177,-0.07,0.1267,0.46746
-1.60186,0,0,16.6019,16.6019,13.3981,13.3981,0.593283,2.67463,-0.256742,-0.161424,0.0568065,0.0367871,0,0,3.5525,-0.0175,-0.805,-0.15555,0.05856,-0.975024,-0.07,0.1267,0.46746
-1.43678,0,0,16.4368,16.4368,13.5632,13.5632,0.532139,2.48462,-0.0917379,-0.158111,0.0557419,0.0369468,0,0,3.5175,-0.0875,-1.0325,-0.15555,0.05856,-0.975024,-0.07112,0.12376,0.47054
-1.62573,0,0,16.6257,16.6257,13.3743,13.3743,0.602122,2.60445,-0.197532,0.0954052,-0.0622345,0.0540547,0,0,3.43,-0.14,-0.9275,0.101138,-0.060512,-0.957944,-0.07112,0.12376,0.47054
-1.81077,0,0,16.8108,16.8108,13.1892,13.1892,0.670657,2.72232,-0.302867,0.0933502,-0.0610408,0.0539458,0,0,3.3425,0.14,-0.9275,0.101138,-0.060512,-0.957944,-0.07112,0.12376,0.47054
-1.97379,0,0,16.9738,16.9738,13.0262,13.0262,0.731034,2.58112,-0.176696,-0.126993,-0.0634064,-0.0904175,0,0,3.255,0.21,-0.9275,-0.12261,-0.063928,-1.10129,-0.07112,0.12376,0.47054
-2.13336,0,0,17.1334,17.1334,12.8666,12.8666,0.790132,2.44273,-0.0512726,-0.12458,-0.0623746,-0.0903253,0,0,3.185,0.175,-1.015,-0.12261,-0.063928,-1.10129,-0.07112,0.12376,0.47054
-2.13292,0,0,17.1329,17.1329,12.8671,12.8671,0.789972,2.44294,-0.0516257,0.139891,0.117515,0.160121,1,0,3.3425,0.1925,-1.12,0.142984,0.115778,-0.85278,-0.07112,0.12376,0.47054
-2.13222,0,0,17.1322,17.1322,12.8678,12.8678,0.789713,2.44274,-0.0521047,0.139894,0.117511,0.160121,1,0,3.29,-0.0525,-1.19,0.142984,0.115778,-0.85278,-0.07112,0.12376,0.47054
-2.13087,0,0,17.1309,17.1309,12.8691,12.8691,0.789211,2.44268,-0.0524316,0.0239981,-0.133835,-0.190774,1,0,3.15,0.035,-1.1025,0.026596,-0.135298,-1.20097,-0.07112,0.12376,0.47054
-2.12951,0,0,17.1295,17.1295,12.8705,12.8705,0.788707,2.44302,-0.0527831,0.0239923,-0.133844,-0.190774,1,0,3.15,0.2625,-1.12,0.026596,-0.135298,-1.20097,-0.0742,0.12264,0.47152
-2.12917,0,0,17.1292,17.1292,12.8708,12.8708,0.788582,2.44299,-0.0530495,0.0609244,0.219467,0.21594,1,0,3.36,0.0525,-1.0675,0.063684,0.217648,-0.797392,-0.0742,0.12264,0.47152
-2.12922,0,0,17.1292,17.1292,12.8708,12.8708,0.788599,2.44309,-0.0536444,0.0609227,0.219467,0.215939,1,0,3.4475,0.1225,-1.26,0.063684,0.217648,-0.797392,-0.0742,0.12264,0.47152
-2.12944,0,0,17.1294,17.1294,12.8706,12.8706,0.78868,2.44307,-0.0542109,0.043915,-0.195152,-0.206266,1,0,3.4825,0.0525,-1.2425,0.046604,-0.196542,-1.21634,-0.0742,0.12264,0.47152
-2.1291,0,0,17.1291,17.1291,12.8709,12.8709,0.788557,2.44277,-0.054421,0.0439202,-0.195154,-0.206265,1,0,3.36,-0.105,-1.0325,0.046604,-0.196542,-1.21634,-0.0742,0.12264,0.47152
-2.12895,0,0,17.1289,17.1289,12.8711,12.8711,0.788499,2.44272,-0.0545678,-0.0866759,0.201879,0.209669,1,0,3.395,0.035,-0.9975,-0.084546,0.20008,-0.803614,-0.0742,0.12264,0.47152
-2.12879,0,0,17.1288,17.1288,12.8712,12.8712,0.788442,2.44245,-0.0547174,-0.0866713,0.201878,0.20967,1,0,3.395,-0.0875,-0.9975,-0.084546,0.20008,-0.803614,-0.0742,0.12264,0.47152
-2.12863,0,0,17.1286,17.1286,12.8714,12.8714,0.788383,2.44233,-0.0548951,0.0694399,-0.169999,-0.150815,1,0,3.395,0,-1.015,0.072224,-0.17141,-1.16132,-0.0742,0.12264,0.47152
-2.12834,0,0,17.1283,17.1283,12.8717,12.8717,0.788273,2.44233,-0.0548009,0.0694399,-0.170001,-0.150815,1,0,3.36,0.07,-0.8575,0.072224,-0.17141,-1.16132,-0.0742,0.12264,0.47152
-1.63975,0,0,16.6397,16.6397,13.3603,13.3603,0.607315,2.27745,0.0878236,-0.134332,0.158786,0.0868781,0,0,3.4125,-0.0875,-0.9275,-0.135298,0.160186,-0.925614,-0.0672,0.12278,0.46788
-1.16128,0,0,16.1613,16.1613,13.8387,13.8387,0.430103,2.1157,0.231131,-0.131511,0.155696,0.0870143,0,0,3.6925,-0.1225,-1.0325,-0.135298,0.160186,-0.925614,-0.0672,0.12278,0.46788
-1.44222,0,0,16.4422,16.4422,13.5578,13.5578,0.534154,2.20206,0.16282,0.0748448,-0.0987114,-0.000105256,0,0,3.605,-0.1575,-0.98,0.073444,-0.09577,-1.01199,-0.0672,0.12278,0.46788
-1.71686,0,0,16.7169,16.7169,13.2831,13.2831,0.635873,2.28672,0.09502,0.0733683,-0.0969381,-0.000181231,0,0,3.36,-0.1225,-0.8925,0.073444,-0.09577,-1.01199,-0.0672,0.12278,0.46788
-1.65947,0,0,16.6595,16.6595,13.3405,13.3405,0.61462,2.19287,0.183058,-0.0836552,0.0205443,-0.0772019,0,0,3.3775,0.0175,-0.9275,-0.085888,0.02196,-1.08848,-0.0672,0.12278,0.46788
-1.60286,0,0,16.6029,16.6029,13.3971,13.3971,0.59365,2.10066,0.270881,-0.082047,0.0201792,-0.0771377,0,0,3.325,-0.1225,-0.9975,-0.085888,0.02196,-1.08848,-0.0672,0.12278,0.46788
-1.60337,0,0,16.6034,16.6034,13.3966,13.3966,0.59384,2.10045,0.270643,0.0620386,0.026411,0.106793,1,0,3.535,-0.0525,-1.05,0.058804,0.028182,-0.905972,-0.0672,0.12278,0.46788
-1.60425,0,0,16.6042,16.6042,13.3958,13.3958,0.594165,2.10024,0.270705,0.0620423,0.0264166,0.106793,1,0,3.605,-0.0525,-0.875,0.058804,0.028182,-0.905972,-0.0672,0.12278,0.46788
-1.60522,0,0,16.6052,16.6052,13.3948,13.3948,0.594526,2.1003,0.27086,-0.0342969,-0.105108,-0.178078,1,0,3.6225,0.105,-0.8225,-0.037942,-0.103212,-1.18865,-0.07014,0.12432,0.4676
-1.606,0,0,16.606,16.606,13.394,13.394,0.594816,2.10039,0.270805,0.0274163,0.196917,0.227897,1,0,3.5875,0.1225,-0.945,0.024034,0.198494,-0.785802,-0.07014,0.12432,0.4676
-1.60704,0,0,16.607,16.607,13.393,13.393,0.595199,2.10033,0.270748,0.0274173,0.196924,0.227897,1,0,3.64,0.035,-0.945,0.024034,0.198494,-0.785802,-0.07014,0.12432,0.4676
-1.60842,0,0,16.6084,16.6084,13.3916,13.3916,0.595712,2.10024,0.270812,0.0581547,-0.114735,-0.122998,1,0,3.71,0.0175,-0.875,0.0549,-0.11285,-1.13399,-0.07014,0.12432,0.4676
-1.60953,0,0,16.6095,16.6095,13.3905,13.3905,0.59612,2.10076,0.270581,0.0581458,-0.114728,-0.122998,1,0,3.6575,0.3675,-1.05,0.0549,-0.11285,-1.13399,-0.07014,0.12432,0.4676
-1.6092,0,0,16.6092,16.6092,13.3908,13.3908,0.596001,2.10103,0.270438,-0.00454551,-0.0108,0.211914,1,0,3.36,0.2275,-0.9975,-0.008052,-0.009028,-0.801662,-0.07014,0.12432,0.4676
-1.60842,0,0,16.6084,16.6084,13.3916,13.3916,0.595712,2.10046,0.269896,-0.00453571,-0.010805,0.211914,1,0,3.2725,-0.2625,-1.225,-0.008052,-0.009028,-0.801662,-0.07014,0.12432,0.4676
-1.80141,0,0,16.8014,16.8014,13.1986,13.1986,0.667191,2.6006,-0.174669,0.382543,-0.0604894,0.196788,0,0,3.6925,0.1575,-1.015,0.389424,-0.059902,-0.816302,-0.07014,0.12432,0.4676
-1.98751,0,0,16.9875,16.9875,13.0125,13.0125,0.736116,3.09448,-0.615015,0.373934,-0.0592933,0.196345,0,0,3.08,-0.4025,-0.9975,0.389424,-0.059902,-0.816302,-0.07644,0.12376,0.47236
-1.98643,0,0,16.9864,16.9864,13.0136,13.0136,0.735714,3.09484,-0.615156,-0.165469,0.0738178,-0.108198,1,0,3.2025,0.28,-0.9975,-0.152256,0.073078,-1.1185,-0.07644,0.12376,0.47236
-1.98621,0,0,16.9862,16.9862,13.0138,13.0138,0.735633,3.0943,-0.615129,-0.165459,0.0738164,-0.108198,1,0,3.3775,-0.245,-0.8925,-0.152256,0.073078,-1.1185,-0.07644,0.12376,0.47236
-0.93399,0,0,15.934,15.934,14.066,14.066,0.345922,3.09391,-0.645108,-0.00946498,0.352679,0.108625,0,0,3.185,-0.035,-0.8225,0.004392,0.358436,-0.90341,-0.07644,0.12376,0.47236
0.0982252,0,0,14.9018,14.9018,15.0982,15.0982,-0.0363797,3.09301,-0.675541,-0.00944943,0.346017,0.108644,0,0,3.64,-0.2275,-1.26,0.004392,0.358436,-0.90341,-0.07644,0.12376,0.47236
0.0961807,0,0,14.9038,14.9038,15.0962,15.0962,-0.0356225,3.09307,-0.675597,-0.18852,-0.0330515,-0.193441,1,0,3.85,0.105,-0.945,-0.175436,-0.020252,-1.20316,-0.07644,0.12376,0.47236
0.093901,0,0,14.9061,14.9061,15.0939,15.0939,-0.0347782,3.09358,-0.675773,-0.188529,-0.0330368,-0.193441,1,0,3.9025,0.3675,-1.015,-0.175436,-0.020252,-1.20316,-0.07644,0.12376,0.47236
0.0929479,0,0,14.9071,14.9071,15.0929,15.0929,-0.0344251,3.0943,-0.675799,0.00607833,0.237724,0.371752,1,0,3.6225,0.49,-0.9275,0.020008,0.250222,-0.64233,-0.07644,0.12376,0.47236
0.0895342,0,0,14.9105,14.9105,15.0895,15.0895,-0.0331608,3.09463,-0.675135,0.00607259,0.237746,0.371752,1,0,4.1125,0.2625,-0.525,0.020008,0.250222,-0.64233,-0.07308,0.12292,0.47362
0.011919,0,0,14.9881,14.9881,15.0119,15.0119,-0.00441445,3.24888,-0.821732,0.128636,-0.0267676,0.0380441,0,0,3.5175,0.28,-0.56,0.14579,-0.014518,-0.973316,-0.07308,0.12292,0.47362
-0.0613275,0,0,15.0613,15.0613,14.9387,14.9387,0.0227139,3.39875,-0.967771,0.126025,-0.026295,0.0378923,0,0,2.905,-0.49,-0.4725,0.14579,-0.014518,-0.973316,-0.07308,0.12292,0.47362
0.403672,0,0,14.5963,14.5963,15.4037,15.4037,-0.149508,3.25494,-0.860576,-0.126468,0.160367,0.0264775,0,0,2.975,-0.35,-0.455,-0.110288,0.174948,-0.984784,-0.07308,0.12292,0.47362
0.862064,0,0,14.1379,14.1379,15.8621,15.8621,-0.319283,3.11393,-0.753247,-0.124011,0.157408,0.0266021,0,0,2.625,-0.2975,-0.8225,-0.110288,0.174948,-0.984784,-0.07308,0.12292,0.47362
0.861195,0,0,14.1388,14.1388,15.8612,15.8612,-0.318961,3.11384,-0.753272,-0.158632,0.451006,-0.678139,1,0,3.605,0.0175,-0.9275,-0.145058,0.468236,-1.68409,-0.07308,0.12292,0.47362
0.858406,0,0,14.1416,14.1416,15.8584,15.8584,-0.317928,3.11474,-0.752853,-0.158648,0.451024,-0.678139,1,0,3.99,0.595,-0.665,-0.145058,0.468236,-1.68409,-0.07308,0.12292,0.47362
0.855364,0,0,14.1446,14.1446,15.8554,15.8554,-0.316802,3.11465,-0.752428,0.209698,-0.144324,0.300285,1,0,4.0425,0.0175,-0.665,0.224846,-0.126514,-0.713212,-0.07308,0.12292,0.47362
0.855039,0,0,14.145,14.145,15.855,15.855,-0.316681,3.1136,-0.753859,0.209716,-0.144322,0.300286,1,0,3.535,-0.5425,-1.75,0.224846,-0.126514,-0.713212,-0.06958,0.12026,0.47418
0.856594,0,0,14.1434,14.1434,15.8566,15.8566,-0.317257,3.11252,-0.7549,0.88143,0.0466742,0.198855,1,0,3.1325,-0.56,-1.5225,0.899384,0.064294,-0.813862,-0.06958,0.12026,0.47418
0.864063,0,0,14.1359,14.1359,15.8641,15.8641,-0.320023,3.11189,-0.755463,0.881441,0.046626,0.198855,1,0,1.89,-0.2975,-1.2425,0.899384,0.064294,-0.813862,-0.06958,0.12026,0.47418
0.867992,0,0,14.132,14.132,15.868,15.868,-0.321479,3.11281,-0.757176,-0.226403,-0.286439,-0.663261,1,0,2.66,0.6125,-1.9075,-0.213134,-0.2684,-1.66933,-0.06958,0.12026,0.47418
0.867837,0,0,14.1322,14.1322,15.8678,15.8678,-0.321421,3.11334,-0.758046,-0.226413,-0.286438,-0.663262,1,0,3.4825,0.385,-1.4175,-0.213134,-0.2684,-1.66933,-0.06958,0.12026,0.47418
0.866289,0,0,14.1337,14.1337,15.8663,15.8663,-0.320848,3.1136,-0.759185,-0.409375,-0.131083,-0.191508,1,0,3.78,0.2275,-1.575,-0.396866,-0.113216,-1.20121,-0.06958,0.12026,0.47418
0.859026,0,0,14.141,14.141,15.859,15.859,-0.318158,3.11336,-0.761011,-0.40937,-0.131036,-0.191508,1,0,4.9875,-0.07,-1.9775,-0.396866,-0.113216,-1.20121,-0.06958,0.12026,0.47418
0.856399,0,0,14.1436,14.1436,15.8564,15.8564,-0.317185,3.11335,-0.762269,0.353195,0.285922,-0.200975,1,0,4.0075,0.07,-1.645,0.368928,0.303292,-1.21061,-0.06958,0.12026,0.47418
0.858103,0,0,14.1419,14.1419,15.8581,15.8581,-0.317816,3.11504,-0.763746,0.353166,0.285911,-0.200976,1,0,3.115,1.0675,-1.7675,0.368928,0.303292,-1.21061,-0.07476,0.12586,0.4767
0.823197,0,0,14.1768,14.1768,15.8232,15.8232,-0.304888,3.00087,-0.673408,-0.0949487,-0.0114874,0.0988795,0,0,3.5175,0.14,-1.7325,-0.083082,0.005978,-0.91317,-0.07476,0.12586,0.4767
0.791278,0,0,14.2087,14.2087,15.7913,15.7913,-0.293066,2.88887,-0.582962,-0.0929965,-0.0112819,0.098981,0,0,3.0275,0.0875,-1.54,-0.083082,0.005978,-0.91317,-0.07476,0.12586,0.4767
0.793869,0,0,14.2061,14.2061,15.7939,15.7939,-0.294026,2.88815,-0.583645,0.129942,-0.0514783,-0.155276,1,0,2.905,-0.35,-1.3125,0.140788,-0.03416,-1.16547,-0.07476,0.12586,0.4767
0.792137,0,0,14.2079,14.2079,15.7921,15.7921,-0.293384,2.88656,-0.584143,0.12997,-0.0514671,-0.155274,1,0,3.7975,-0.8575,-1.2075,0.140788,-0.03416,-1.16547,-0.07476,0.12586,0.4767
1.1861,0,0,13.8139,13.8139,16.1861,16.1861,-0.439296,2.78335,-0.508038,-0.0948017,0.150918,-0.0774982,0,0,2.905,-0.63,-1.155,-0.086742,0.170556,-1.08836,-0.07476,0.12586,0.4767
1.57501,0,0,13.425,13.425,16.575,16.575,-0.583338,2.68326,-0.431149,-0.0930567,0.148406,-0.0774373,0,0,2.4675,0.0525,-0.9625,-0.086742,0.170556,-1.08836,-0.07476,0.12586,0.4767
1.57802,0,0,13.422,13.422,16.578,16.578,-0.584452,2.68368,-0.430518,0.219276,0.0986807,-0.117273,1,0,2.7825,0.315,-0.5425,0.22692,0.120902,-1.12789,-0.07476,0.12586,0.4767
1.57442,0,0,13.4256,13.4256,16.5744,16.5744,-0.583119,2.68468,-0.429624,0.219258,0.098704,-0.117274,1,0,4.1475,0.6475,-0.385,0.22692,0.120902,-1.12789,-0.07476,0.12586,0.4767
1.57145,0,0,13.4286,13.4286,16.5714,16.5714,-0.582018,2.68529,-0.428335,-0.0242097,-0.172642,-0.0940368,1,0,4.0075,0.42,-0.1575,-0.017568,-0.150182,-1.10483,-0.07168,0.1253,0.47026
1.56303,0,0,13.437,13.437,16.563,16.563,-0.578901,2.68584,-0.427345,-0.0242193,-0.172588,-0.0940367,1,0,5.145,0.385,-0.3325,-0.017568,-0.150182,-1.10483,-0.07168,0.1253,0.47026
1.55443,0,0,13.4456,13.4456,16.5544,16.5544,-0.575715,2.68582,-0.4262,0.211706,0.322447,0.312309,1,0,5.18,0.0525,-0.245,0.219356,0.344284,-0.701622,-0.07168,0.1253,0.47026
1.54583,0,0,13.4542,13.4542,16.5458,16.5458,-0.572529,2.6858,-0.425055,0.211707,0.322503,0.312309,1,0,5.18,0.0525,-0.245,0.219356,0.344284,-0.701622,-0.07168,0.1253,0.47026
1.54601,0,0,13.454,13.454,16.546,16.546,-0.572596,2.6845,-0.424047,0.0201463,-0.142313,-0.130796,1,0,3.36,-0.7,-0.3325,0.026962,-0.120048,-1.14131,-0.07168,0.1253,0.47026
1.70592,0,0,13.2941,13.2941,16.7059,16.7059,-0.631822,2.65002,-0.400601,-0.0294262,0.0574307,-0.0282399,0,0,2.765,-0.525,-0.21,-0.023424,0.08052,-1.03956,-0.07168,0.1253,0.47026
1.86623,0,0,13.1338,13.1338,16.8662,16.8662,-0.691196,2.61632,-0.377837,-0.0288386,0.0563952,-0.0282248,0,0,2.1,-0.455,-0.6475,-0.023424,0.08052,-1.03956,-0.07168,0.1253,0.47026
1.86853,0,0,13.1315,13.1315,16.8685,16.8685,-0.692047,2.61591,-0.377558,0.0333693,0.0611434,-0.202074,1,0,2.94,-0.175,-0.7525,0.03904,0.085278,-1.21207,-0.07168,0.1253,0.47026
1.8689,0,0,13.1311,13.1311,16.8689,16.8689,-0.692184,2.61635,-0.378069,0.0333616,0.061141,-0.202074,1,0,3.36,0.3325,-1.2075,0.03904,0.085278,-1.21207,-0.07238,0.13048,0.47516
1.48821,0,0,13.5118,13.5118,16.4882,16.4882,-0.551189,2.18471,0.0133264,-0.399497,-0.141088,0.027321,0,0,4.2875,0.4725,-1.085,-0.40321,-0.119194,-0.984784,-0.07238,0.13048,0.47516
1.11329,0,0,13.8867,13.8867,16.1133,16.1133,-0.412329,1.76124,0.401117,-0.392111,-0.138668,0.0275959,0,0,4.5675,0.6825,-1.5925,-0.40321,-0.119194,-0.984784,-0.07238,0.13048,0.47516
1.10695,0,0,13.8931,13.8931,16.1069,16.1069,-0.40998,1.76254,0.400001,0.145684,0.0793687,0.311852,1,0,4.76,0.84,-1.5575,0.136884,0.098576,-0.70272,-0.07238,0.13048,0.47516
1.10476,0,0,13.8952,13.8952,16.1048,16.1048,-0.40917,1.76376,0.399607,0.145662,0.0793829,0.311852,1,0,3.885,0.7875,-1.1375,0.136884,0.098576,-0.70272,-0.07238,0.13048,0.47516
0.964195,0,0,14.0358,14.0358,15.9642,15.9642,-0.357109,1.47004,0.671821,-0.243799,-0.0481872,0.0975804,0,0,3.15,0.49,-1.12,-0.259372,-0.029768,-0.915488,-0.07238,0.13048,0.47516
0.828955,0,0,14.171,14.171,15.829,15.829,-0.30702,1.18058,0.943318,-0.238748,-0.0473139,0.0977023,0,0,2.6075,-0.28,-0.945,-0.259372,-0.029768,-0.915488,-0.07238,0.13048,0.47516
1.01035,0,0,13.9896,13.9896,16.0104,16.0104,-0.374204,1.28027,0.861365,0.0899535,0.0637485,-0.000332017,0,0,2.695,-0.3325,-0.735,0.072468,0.08235,-1.01272,-0.07238,0.13048,0.47516
1.18761,0,0,13.8124,13.8124,16.1876,16.1876,-0.439855,1.3774,0.784324,0.0882587,0.0626033,-0.000379468,0,0,2.8875,-0.49,-0.875,0.072468,0.08235,-1.01272,-0.07294,0.12712,0.48006
1.18866,0,0,13.8113,13.8113,16.1887,16.1887,-0.440246,1.37645,0.784485,-0.149715,-0.369366,-0.411642,1,0,3.2025,-0.49,-0.8225,-0.16653,-0.349164,-1.42081,-0.07294,0.12712,0.48006
1.18641,0,0,13.8136,13.8136,16.1864,16.1864,-0.439411,1.37732,0.784993,-0.14973,-0.369351,-0.411642,1,0,3.885,0.5775,-0.6125,-0.16653,-0.349164,-1.42081,-0.07294,0.12712,0.48006
1.18641,0,0,13.8136,13.8136,16.1864,16.1864,-0.439412,1.37849,0.785768,-0.0869426,0.0860594,0.139413,1,0,3.4125,0.7525,-0.455,-0.103456,0.105774,-0.874008,-0.07294,0.12712,0.48006
1.18566,0,0,13.8143,13.8143,16.1857,16.1857,-0.439134,1.37907,0.786518,-0.0869526,0.0860642,0.139412,1,0,3.57,0.4025,-0.4725,-0.103456,0.105774,-0.874008,-0.07294,0.12712,0.48006
1.18371,0,0,13.8163,13.8163,16.1837,16.1837,-0.438412,1.37973,0.787507,0.118954,0.0571328,0.127363,1,0,3.815,0.455,-0.3325,0.103334,0.07686,-0.885964,-0.07294,0.12712,0.48006
1.1847,0,0,13.8153,13.8153,16.1847,16.1847,-0.438779,1.38061,0.788644,0.118939,0.0571264,0.127363,1,0,3.2025,0.5775,-0.245,0.103334,0.07686,-0.885964,-0.07294,0.12712,0.48006
0.980373,0,0,14.0196,14.0196,15.9804,15.9804,-0.363101,1.24997,0.923501,-0.115557,-0.0719849,0.0127134,0,0,3.7625,-0.21,-0.245,-0.134444,-0.053436,-0.99979,-0.07294,0.12712,0.48006
0.772696,0,0,14.2273,14.2273,15.7727,15.7727,-0.286184,1.1198,1.04479,-0.113286,-0.070643,0.012768,0,0,5.2325,-0.9275,-0.21,-0.134444,-0.053436,-0.99979,-0.07294,0.13566,0.48972
0.766121,0,0,14.2339,14.2339,15.7661,15.7661,-0.283748,1.11828,1.04585,0.081239,-0.221061,-0.278496,1,0,4.7775,-0.8225,-0.2975,0.060878,-0.20374,-1.28881,-0.07294,0.13566,0.48972
0.76242,0,0,14.2376,14.2376,15.7624,15.7624,-0.282378,1.11691,1.04673,0.0812629,-0.221037,-0.278496,1,0,4.1825,-0.735,-0.4025,0.060878,-0.20374,-1.28881,-0.07294,0.13566,0.48972
0.762023,0,0,14.238,14.238,15.762,15.762,-0.282231,1.11548,1.04731,0.0415621,-0.206257,-0.159481,1,0,3.5,-0.77,-0.5775,0.020984,-0.188978,-1.17071,-0.07294,0.13566,0.48972
0.761625,0,0,14.2384,14.2384,15.7616,15.7616,-0.282083,1.11405,1.04789,0.041587,-0.206254,-0.159481,1,0,3.5,-0.77,-0.5775,0.020984,-0.188978,-1.17071,-0.07294,0.13566,0.48972
0.999055,0,0,14.0009,14.0009,15.9991,15.9991,-0.37002,1.39749,0.791642,0.228346,0.0762787,0.116545,0,0,2.8875,0.63,-0.98,0.2135,0.094794,-0.8967,-0.07294,0.13566,0.48972
1.23269,0,0,13.7673,13.7673,16.2327,16.2327,-0.45655,1.67564,0.534972,0.223493,0.07477,0.116404,0,0,2.8875,0.63,-0.98,0.2135,0.094794,-0.8967,-0.07294,0.13566,0.48972
0.912431,0,0,14.0876,14.0876,15.9124,15.9124,-0.337937,1.50683,0.686369,-0.146887,-0.11258,0.0408864,0,0,2.87,0.5075,-1.4525,-0.161406,-0.094428,-0.97173,-0.07294,0.13566,0.48972
0.910478,0,0,14.0895,14.0895,15.9105,15.9105,-0.337214,1.50694,0.684962,-0.000377664,-0.0808142,0.221744,1,0,3.85,0.14,-1.7325,-0.014274,-0.062708,-0.792268,-0.07378,0.13664,0.4879
1.4747,0,0,13.5253,13.5253,16.4747,16.4747,-0.546186,1.6835,0.513281,0.173547,0.222812,-0.0467667,0,0,4.865,-0.98,-1.75,0.16348,0.244244,-1.05859,-0.07378,0.13664,0.4879
2.03046,0,0,12.9695,12.9695,17.0305,17.0305,-0.752023,1.85804,0.340458,0.170502,0.219222,-0.0469016,0,0,4.6375,-0.2275,-1.8725,0.16348,0.244244,-1.05859,-0.07378,0.13664,0.4879
2.0266,0,0,12.9734,12.9734,17.0266,17.0266,-0.750593,1.85814,0.33899,-0.140989,-0.303089,-0.254315,1,0,4.2525,0.14,-1.7675,-0.149328,-0.27755,-1.26441,-0.07378,0.13664,0.4879
2.02644,0,0,12.9736,12.9736,17.0264,17.0264,-0.750533,1.85947,0.337596,-0.141012,-0.303088,-0.254316,1,0,3.4825,0.8575,-1.715,-0.149328,-0.27755,-1.26441,-0.07378,0.13664,0.4879
2.02929,0,0,12.9707,12.9707,17.0293,17.0293,-0.751588,1.86127,0.336496,0.083826,0.0760972,0.273869,1,0,2.8525,1.1375,-1.54,0.076494,0.10126,-0.740296,-0.07378,0.13664,0.4879
2.03112,0,0,12.9689,12.9689,17.0311,17.0311,-0.752267,1.86278,0.33543,0.0837997,0.0760853,0.273868,1,0,3.0625,0.9625,-1.5225,0.076494,0.10126,-0.740296,-0.07378,0.13664,0.4879
1.92385,0,0,13.0761,13.0761,16.9239,16.9239,-0.712539,1.75426,0.426039,-0.0944704,-0.0385101,0.0418102,0,0,2.8175,0.4025,-1.61,-0.104432,-0.013908,-0.970632,-0.07378,0.13664,0.4879
1.81296,0,0,13.187,13.187,16.813,16.813,-0.671466,1.64633,0.517826,-0.0925876,-0.0377943,0.0418747,0,0,3.9725,-0.28,-1.3475,-0.104432,-0.013908,-0.970632,-0.0763,0.13622,0.48538
1.81038,0,0,13.1896,13.1896,16.8104,16.8104,-0.67051,1.64576,0.517027,0.0953609,0.0203547,0.178348,1,0,3.9725,-0.2625,-1.3825,0.084302,0.044164,-0.835212,-0.0763,0.13622,0.48538
1.80608,0,0,13.1939,13.1939,16.8061,16.8061,-0.668919,1.64423,0.516629,0.0953875,0.0203825,0.178349,1,0,4.3225,-0.8225,-1.155,0.084302,0.044164,-0.835212,-0.0763,0.13622,0.48538
1.80195,0,0,13.198,13.198,16.802,16.802,-0.66739,1.64237,0.516204,0.226989,-0.19661,-0.251232,1,0,4.2875,-1.015,-1.1725,0.216428,-0.17263,-1.26148,-0.0763,0.13622,0.48538
1.80106,0,0,13.1989,13.1989,16.8011,16.8011,-0.667061,1.64169,0.516427,0.227001,-0.196604,-0.251231,1,0,3.605,-0.3325,-0.7875,0.216428,-0.17263,-1.26148,-0.0763,0.13622,0.48538
0.855137,0,0,14.1449,14.1449,15.8551,15.8551,-0.316717,1.57508,0.578002,-0.0557491,-0.307856,0.147822,0,0,3.15,-0.4725,-0.56,-0.068686,-0.289872,-0.86559,-0.0763,0.13622,0.48538
-0.0774184,0,0,15.0774,15.0774,14.9226,14.9226,0.0286735,1.51086,0.638417,-0.0546287,-0.30183,0.147867,0,0,3.6925,0.21,-0.6475,-0.068686,-0.289872,-0.86559,-0.0763,0.13622,0.48538
-0.0787427,0,0,15.0787,15.0787,14.9213,14.9213,0.029164,1.51206,0.638841,0.460328,0.150169,-0.034835,1,0,3.6925,0.77,-0.665,0.448472,0.16165,-1.04688,-0.0763,0.13622,0.48538
-0.0800671,0,0,15.0801,15.0801,14.9199,14.9199,0.0296545,1.51325,0.639266,0.460307,0.150178,-0.0348355,1,0,3.6925,0.77,-0.665,0.448472,0.16165,-1.04688,-0.07714,0.14182,0.48944
-0.118645,0,0,15.1186,15.1186,14.8814,14.8814,0.0439425,1.69749,0.462802,0.16164,-0.0131008,0.0165897,0,0,3.885,0.2975,-0.3675,0.151768,-0.001708,-0.995764,-0.07714,0.14182,0.48944
-0.11198,0,0,15.112,15.112,14.888,14.888,0.041474,1.59218,0.54481,-0.0895775,0.00285478,0.0472566,0,0,3.815,-0.07,-0.35,-0.102358,0.014274,-0.965386,-0.07714,0.14182,0.48944
-0.106019,0,0,15.106,15.106,14.894,14.894,0.0392662,1.48802,0.627058,-0.0877603,0.0028163,0.0473055,0,0,3.9375,-0.595,-0.1225,-0.102358,0.014274,-0.965386,-0.07714,0.14182,0.48944
-0.106969,0,0,15.107,15.107,14.893,14.893,0.0396183,1.48635,0.628171,0.0772464,-0.138356,-0.187648,1,0,3.605,-0.91,-0.2625,0.063318,-0.126758,-1.19853,-0.07714,0.14182,0.48944
-0.109606,0,0,15.1096,15.1096,14.8904,14.8904,0.0405947,1.48474,0.629284,0.0772746,-0.138339,-0.187648,1,0,3.955,-0.875,-0.2625,0.063318,-0.126758,-1.19853,-0.07714,0.14182,0.48944
-0.112573,0,0,15.1126,15.1126,14.8874,14.8874,0.0416935,1.48378,0.630308,0.176302,-0.197185,0.208124,1,0,4.025,-0.49,-0.315,0.162748,-0.185562,-0.80581,-0.07714,0.14182,0.48944
-0.117474,0,0,15.1175,15.1175,14.8825,14.8825,0.0435088,1.48405,0.631272,0.176297,-0.197153,0.208124,1,0,4.4275,0.2275,-0.35,0.162748,-0.185562,-0.80581,-0.07714,0.14182,0.48944
-0.27536,0,0,15.2754,15.2754,14.7246,14.7246,0.101985,1.89538,0.255338,0.362648,-0.0555655,0.0802904,0,0,4.6375,0.315,-0.63,0.357094,-0.04514,-0.932446,-0.07308,0.13678,0.48314
0.466235,0,0,14.5338,14.5338,15.4662,15.4662,-0.17268,1.5818,0.528169,-0.267373,0.250211,0.130125,0,0,4.3575,0.4375,-0.4725,-0.281088,0.265106,-0.883158,-0.07308,0.13678,0.48314
1.19754,0,0,13.8025,13.8025,16.1975,16.1975,-0.443532,1.27413,0.802794,-0.262005,0.245485,0.130233,0,0,3.99,0.7175,-0.9275,-0.281088,0.265106,-0.883158,-0.07308,0.13678,0.48314
1.19563,0,0,13.8044,13.8044,16.1956,16.1956,-0.442826,1.2756,0.803147,0.148105,0.0868544,0.175355,1,0,3.815,0.9275,-0.7,0.130784,0.106628,-0.838384,-0.07308,0.13678,0.48314
1.19509,0,0,13.8049,13.8049,16.1951,16.1951,-0.442627,1.27619,0.803176,0.148095,0.0868578,0.175354,1,0,3.535,0.42,-0.8925,0.130784,0.106628,-0.838384,-0.07308,0.13678,0.48314
1.19422,0,0,13.8058,13.8058,16.1942,16.1942,-0.442302,1.27664,0.803267,-0.0336556,-0.100967,-0.179598,1,0,3.605,0.3325,-0.8575,-0.051728,-0.081008,-1.1906,-0.07308,0.13678,0.48314
1.19192,0,0,13.8081,13.8081,16.1919,16.1919,-0.441453,1.27637,0.803063,-0.0336509,-0.100953,-0.179598,1,0,3.9025,-0.0875,-1.0325,-0.051728,-0.081008,-1.1906,-0.07308,0.13678,0.48314
0.806042,0,0,14.194,14.194,15.806,15.806,-0.298534,1.01806,1.0403,-0.214044,-0.128136,0.111405,0,0,3.885,0.0525,-1.085,-0.237412,-0.110654,-0.901946,-0.07308,0.13678,0.48314
0.424673,0,0,14.5753,14.5753,15.4247,15.4247,-0.157286,0.76534,1.27718,-0.209634,-0.125671,0.111483,0,0,4.375,0.21,-1.26,-0.237412,-0.110654,-0.901946,-0.07308,0.13566,0.48832
0.660526,0,0,14.3395,14.3395,15.6605,15.6605,-0.244639,0.698438,1.34735,-0.0585534,0.0859151,0.0100603,0,0,4.3575,0.0525,-1.1725,-0.086864,0.102236,-1.0026,-0.07308,0.13566,0.48832
0.890013,0,0,14.11,14.11,15.89,15.89,-0.329634,0.632857,1.41763,-0.0574089,0.0844318,0.0100661,0,0,4.8125,0.07,-1.1725,-0.086864,0.102236,-1.0026,-0.07308,0.13566,0.48832
0.596062,0,0,14.4039,14.4039,15.5961,15.5961,-0.220764,0.683164,1.38278,0.0395091,-0.095637,0.0769491,0,0,5.215,0.14,-1.2075,0.011346,-0.079544,-0.936228,-0.07308,0.13566,0.48832
0.309855,0,0,14.6901,14.6901,15.3099,15.3099,-0.114761,0.732468,1.34821,0.0386487,-0.0937871,0.0769439,0,0,4.69,0.14,-1.155,0.011346,-0.079544,-0.936228,-0.07308,0.13566,0.48832
0.299256,0,0,14.7007,14.7007,15.2993,15.2993,-0.110836,0.941129,1.16729,0.176417,-0.00236764,0.064719,0,0,4.2175,0.1925,-1.1375,0.153354,0.011712,-0.948306,-0.07308,0.13566,0.48832
0.291167,0,0,14.7088,14.7088,15.2912,15.2912,-0.10784,1.14561,0.986976,0.172848,-0.00231524,0.0646541,0,0,3.7625,0.07,-0.9625,0.153354,0.011712,-0.948306,-0.07308,0.13566,0.48832
0.292049,0,0,14.708,14.708,15.292,15.292,-0.108166,1.14519,0.987251,-0.0573597,-0.165604,-0.222185,1,0,3.2375,-0.175,-0.7525,-0.077836,-0.151402,-1.23293,-0.07308,0.13566,0.48832
0.29244,0,0,14.7076,14.7076,15.2924,15.2924,-0.108311,1.14442,0.987257,-0.0573462,-0.165607,-0.222184,1,0,3.3425,-0.385,-0.91,-0.077836,-0.151402,-1.23293,-0.06944,0.13804,0.4928
0.291459,0,0,14.7085,14.7085,15.2915,15.2915,-0.107948,1.14373,0.987712,0.102541,0.121153,0.191046,1,0,3.6225,-0.3325,-0.6475,0.082716,0.135054,-0.82289,-0.06944,0.13804,0.4928
0.288472,0,0,14.7115,14.7115,15.2885,15.2885,-0.106842,1.14367,0.987836,0.102542,0.121172,0.191046,1,0,4.0425,0.035,-0.84,0.082716,0.135054,-0.82289,-0.06944,0.13804,0.4928
-0.403181,0,0,15.4032,15.4032,14.5968,14.5968,0.149326,0.976187,1.14088,-0.143581,-0.234021,0.0918788,0,0,5.04,-0.1575,-0.8925,-0.167384,-0.224236,-0.921344,-0.06944,0.13804,0.4928
-1.08141,0,0,16.0814,16.0814,13.9186,13.9186,0.400523,0.811891,1.29163,-0.140714,-0.229637,0.0919025,0,0,4.725,-0.1225,-1.2075,-0.167384,-0.224236,-0.921344,-0.06944,0.13804,0.4928
-0.748151,0,0,15.7482,15.7482,14.2518,14.2518,0.277093,1.00345,1.12085,0.153705,0.111751,0.115837,0,0,4.6375,-0.0175,-1.19,0.131638,0.11895,-0.897554,-0.06944,0.13804,0.4928
-0.420489,0,0,15.4205,15.4205,14.5795,14.5795,0.155736,1.19143,0.949567,0.150424,0.109633,0.115782,0,0,4.6375,-0.0175,-1.19,0.131638,0.11895,-0.897554,-0.06944,0.13804,0.4928
-0.668022,0,0,15.668,15.668,14.332,14.332,0.247415,1.16748,0.96973,-0.0217889,-0.0952831,-0.071834,0,0,4.13,0.1925,-1.33,-0.041724,-0.087352,-1.08373,-0.06944,0.13804,0.4928
-0.911146,0,0,15.9111,15.9111,14.0889,14.0889,0.337461,1.14324,0.981246,-0.0213658,-0.0937118,-0.0718335,0,0,4.13,0.1925,-1.33,-0.041724,-0.087352,-1.08373,-0.0693,0.14378,0.49448
-0.999054,0,0,15.9991,15.9991,14.0009,14.0009,0.37002,1.19339,0.924972,0.0444546,-0.0303706,0.0171599,0,0,3.885,-0.245,-1.26,0.025254,-0.024644,-0.995398,-0.0693,0.14378,0.49448
-1.0854,0,0,16.0854,16.0854,13.9146,13.9146,0.402,1.24258,0.868844,0.0435962,-0.0298127,0.0171379,0,0,3.885,-0.245,-1.26,0.025254,-0.024644,-0.995398,-0.0693,0.14378,0.49448
-1.30823,0,0,16.3082,16.3082,13.6918,13.6918,0.484531,1.35303,0.757411,0.105449,-0.0847956,-0.0443912,0,0,3.7975,0.2975,-1.12,0.089304,-0.081008,-1.0564,-0.0693,0.14378,0.49448
-1.52713,0,0,16.5271,16.5271,13.4729,13.4729,0.565605,1.46135,0.646466,0.103559,-0.0833815,-0.0444506,0,0,3.7975,0.2975,-1.12,0.089304,-0.081008,-1.0564,-0.0693,0.14378,0.49448
-1.53085,0,0,16.5309,16.5309,13.4691,13.4691,0.566982,1.46139,0.64617,0.378602,-0.202553,-0.0979334,1,0,4.2,0.0875,-1.085,0.365512,-0.20008,-1.10947,-0.0693,0.14378,0.49448
-1.53457,0,0,16.5346,16.5346,13.4654,13.4654,0.568359,1.46142,0.645875,0.378601,-0.202529,-0.0979337,1,0,4.2,0.0875,-1.085,0.365512,-0.20008,-1.10947,-0.0693,0.14378,0.49448
-0.875622,0,0,15.8756,15.8756,14.1244,14.1244,0.324304,1.51241,0.591103,0.0340287,0.238487,0.043959,0,0,5.1275,4.4625,-1.2775,0.020374,0.244732,-0.96868,-0.0693,0.14378,0.49448
-0.22795,0,0,15.2279,15.2279,14.7721,14.7721,0.0844259,1.56264,0.534947,0.0331525,0.234302,0.0439504,0,0,5.1275,4.4625,-1.2775,0.020374,0.244732,-0.96868,-0.06776,0.14434,0.49266
-0.233527,0,0,15.2335,15.2335,14.7665,14.7665,0.0864915,1.56252,0.534741,0.0129879,-0.115189,-0.265142,1,0,4.585,0,-1.0325,0.000122,-0.104432,-1.27539,-0.06776,0.14434,0.49266
-0.239104,0,0,15.2391,15.2391,14.7609,14.7609,0.0885571,1.5624,0.534535,0.01299,-0.115153,-0.265142,1,0,4.585,0,-1.0325,0.000122,-0.104432,-1.27539,-0.06776,0.14434,0.49266
-0.239429,0,0,15.2394,15.2394,14.7606,14.7606,0.0886774,1.56231,0.535109,-0.0154361,0.125194,0.171448,1,0,3.4825,0.0175,-0.5775,-0.028426,0.135664,-0.842166,-0.06776,0.14434,0.49266
-0.239754,0,0,15.2398,15.2398,14.7602,14.7602,0.0887978,1.56222,0.535683,-0.0154345,0.125197,0.171448,1,0,3.4825,0.0175,-0.5775,-0.028426,0.135664,-0.842166,-0.06776,0.14434,0.49266
-0.907121,0,0,15.9071,15.9071,14.0929,14.0929,0.335971,1.43217,0.640911,-0.107195,-0.219895,0.121205,0,0,3.4825,0.735,-0.3325,-0.122854,-0.213378,-0.892064,-0.06776,0.14434,0.49266
-1.56303,0,0,16.563,16.563,13.437,13.437,0.5789,1.30462,0.744847,-0.10497,-0.215656,0.121225,0,0,3.4825,0.735,-0.3325,-0.122854,-0.213378,-0.892064,-0.06776,0.14434,0.49266
-1.41863,0,0,16.4186,16.4186,13.5814,13.5814,0.525417,1.56471,0.496906,0.212672,0.0512334,0.103661,0,0,4.5325,0.1225,-0.1575,0.20069,0.054168,-0.909388,-0.06776,0.14434,0.49266
-1.27642,0,0,16.2764,16.2764,13.7236,13.7236,0.472749,1.81995,0.248892,0.208219,0.0503134,0.103538,0,0,4.5325,0.1225,-0.1575,0.20069,0.054168,-0.909388,-0.06776,0.14434,0.49266
-1.143,0,0,16.143,16.143,13.857,13.857,0.423332,1.89606,0.161332,0.072164,0.0531149,-0.0388728,0,0,4.935,-0.1575,-0.2625,0.065392,0.057828,-1.05066,-0.06706,0.14238,0.4949
-1.14698,0,0,16.147,16.147,13.853,13.853,0.424808,1.89614,0.162207,0.0713122,-0.16913,-0.186657,1,0,4.235,0.1225,-0.4025,0.064538,-0.164212,-1.19731,-0.06706,0.14238,0.4949
-1.14634,0,0,16.1463,16.1463,13.8537,13.8537,0.424569,1.89626,0.163142,0.0713102,-0.169134,-0.186657,1,0,3.2725,0.14,-0.3675,0.064538,-0.164212,-1.19731,-0.06706,0.14238,0.4949
-1.14535,0,0,16.1453,16.1453,13.8547,13.8547,0.424203,1.89649,0.164018,-0.00377202,0.200171,0.398455,1,0,3.2025,0.21,-0.4025,-0.010858,0.204716,-0.61671,-0.06706,0.14238,0.4949
-1.14676,0,0,16.1468,16.1468,13.8532,13.8532,0.424726,1.89613,0.164409,-0.00376572,0.20018,0.398455,1,0,3.71,-0.14,-0.6825,-0.010858,0.204716,-0.61671,-0.06706,0.14238,0.4949
-1.1509,0,0,16.1509,16.1509,13.8491,13.8491,0.426258,1.89574,0.164141,0.0323223,-0.0718919,0.165836,1,0,4.2875,-0.1575,-1.0675,0.025376,-0.0671,-0.847534,-0.06706,0.14238,0.4949
-1.15939,0,0,16.1594,16.1594,13.8406,13.8406,0.429404,1.89533,0.163601,0.0323295,-0.071837,0.165836,1,0,5.1975,-0.175,-1.225,0.025376,-0.0671,-0.847534,-0.06706,0.14238,0.4949
-1.27844,0,0,16.2784,16.2784,13.7216,13.7216,0.473496,2.13797,-0.0768718,0.196719,-0.0361409,0.113551,0,0,5.3025,0.07,-1.295,0.194712,-0.032208,-0.899262,-0.06706,0.14238,0.4949
-1.38999,0,0,16.39,16.39,13.61,13.61,0.514812,2.37837,-0.314423,0.192527,-0.0354218,0.113379,0,0,4.2175,0.14,-1.5575,0.194712,-0.032208,-0.899262,-0.07224,0.14126,0.48174
-1.55558,0,0,16.5556,16.5556,13.4444,13.4444,0.576141,2.31765,-0.284867,-0.0518153,-0.0557241,0.064602,0,0,3.4825,-0.0525,-2.1525,-0.051728,-0.053558,-0.947696,-0.07224,0.14126,0.48174
-1.71825,0,0,16.7183,16.7183,13.2817,13.2817,0.63639,2.25814,-0.255505,-0.0507775,-0.054673,0.0646323,0,0,3.4825,-0.0525,-2.1525,-0.051728,-0.053558,-0.947696,-0.07224,0.14126,0.48174
-1.71403,0,0,16.714,16.714,13.286,13.286,0.634826,2.25841,-0.258229,-0.12258,-0.00963552,0.157704,1,0,2.6075,0.21,-2.5025,-0.12383,-0.00854,-0.855342,-0.07224,0.14126,0.48174
-1.70981,0,0,16.7098,16.7098,13.2902,13.2902,0.633263,2.25868,-0.260953,-0.122585,-0.00966279,0.157705,1,0,2.6075,0.21,-2.5025,-0.12383,-0.00854,-0.855342,-0.07224,0.14126,0.48174
-1.71367,0,0,16.7137,16.7137,13.2863,13.2863,0.634692,2.25919,-0.264575,-0.104007,-0.00621832,0.172704,1,0,4.305,0.35,-3.0275,-0.105164,-0.005124,-0.840458,-0.07224,0.14126,0.48174
-1.71753,0,0,16.7175,16.7175,13.2825,13.2825,0.636121,2.25971,-0.268197,-0.104016,-0.00619341,0.172703,1,0,4.305,0.35,-3.0275,-0.105164,-0.005124,-0.840458,-0.07224,0.14126,0.48174
-1.72482,0,0,16.7248,16.7248,13.2752,13.2752,0.638821,2.25877,-0.272046,0.0800516,-0.0153058,-0.148192,1,0,5.0225,-0.5075,-3.15,0.079666,-0.014274,-1.15888,-0.07224,0.14126,0.48174
-1.60603,0,0,16.606,16.606,13.394,13.394,0.594824,2.34025,-0.367698,0.0825182,0.0480429,-0.0800048,0,0,4.4975,-0.3325,-2.6425,0.08357,0.049776,-1.09117,-0.06944,0.1372,0.49294
-1.48788,0,0,16.4879,16.4879,13.5121,13.5121,0.551067,2.42021,-0.46284,0.0811238,0.0472793,-0.0800552,0,0,4.2,-0.2975,-2.38,0.08357,0.049776,-1.09117,-0.06944,0.1372,0.49294
-1.48992,0,0,16.4899,16.4899,13.5101,13.5101,0.551821,2.41958,-0.465183,-0.0846931,-0.216746,-0.136857,1,0,3.9025,-0.315,-2.275,-0.08296,-0.213988,-1.14753,-0.06944,0.1372,0.49294
-1.49038,0,0,16.4904,16.4904,13.5096,13.5096,0.551994,2.41944,-0.466531,-0.0846907,-0.216743,-0.136857,1,0,3.5525,-0.0175,-1.6975,-0.08296,-0.213988,-1.14753,-0.06944,0.1372,0.49294
-1.34939,0,0,16.3494,16.3494,13.6506,13.6506,0.499772,2.69496,-0.737517,0.237545,0.0498025,0.065556,0,0,3.3425,0.385,-1.2775,0.245464,0.053192,-0.946476,-0.06944,0.1372,0.49294
-1.21223,0,0,16.2122,16.2122,13.7878,13.7878,0.448976,2.96525,-1.00773,0.232833,0.0489152,0.0653304,0,0,3.6925,0.3325,-0.84,0.245464,0.053192,-0.946476,-0.06944,0.1372,0.49294
-0.566245,0,0,15.5662,15.5662,14.4338,14.4338,0.20972,2.99997,-1.07506,0.0240014,0.239903,0.0131927,0,0,3.71,0.4025,-0.2275,0.036356,0.248148,-0.998204,-0.06944,0.1372,0.49294
0.0628712,0,0,14.9371,14.9371,15.0629,15.0629,-0.0232856,3.03333,-1.14185,0.02342,0.235842,0.0131687,0,0,4.9175,0.0525,0.14,0.036356,0.248148,-0.998204,-0.06944,0.1372,0.49294
-0.0880527,0,0,15.0881,15.0881,14.9119,14.9119,0.0326121,2.93544,-1.08735,-0.0882199,-0.0534787,-0.0314957,0,0,5.0925,0.35,0.4725,-0.07747,-0.041846,-1.04261,-0.07154,0.14476,0.4942
-0.0993287,0,0,15.0993,15.0993,14.9007,14.9007,0.0367884,2.93496,-1.08464,0.0360683,-0.119843,-0.240877,1,0,5.6875,-0.21,0.665,0.047336,-0.108214,-1.25038,-0.07154,0.14476,0.4942
-0.110384,0,0,15.1104,15.1104,14.8896,14.8896,0.0408829,2.93493,-1.08109,0.0360689,-0.119771,-0.240877,1,0,5.6175,0.0525,1.155,0.047336,-0.108214,-1.25038,-0.07154,0.14476,0.4942
-0.117085,0,0,15.1171,15.1171,14.8829,14.8829,0.043365,2.93525,-1.07734,-0.157706,-0.0578099,-0.195017,1,0,4.7075,0.2625,1.2775,-0.147254,-0.04636,-1.20487,-0.07154,0.14476,0.4942
-0.119337,0,0,15.1193,15.1193,14.8807,14.8807,0.044199,2.93555,-1.07346,-0.157712,-0.0577954,-0.195017,1,0,3.78,0.245,1.3475,-0.147254,-0.04636,-1.20487,-0.07154,0.14476,0.4942
-0.391782,0,0,15.3918,15.3918,14.6082,14.6082,0.145104,2.83858,-1.01539,-0.0862885,-0.104154,-0.0416183,0,0,3.2725,0.315,1.225,-0.077226,-0.094428,-1.05274,-0.07154,0.14476,0.4942
-0.660413,0,0,15.6604,15.6604,14.3396,14.3396,0.244598,2.74324,-0.958348,-0.0846266,-0.10242,-0.0415432,0,0,3.5,0.1575,0.8925,-0.077226,-0.094428,-1.05274,-0.07154,0.14476,0.4942
-0.665222,0,0,15.6652,15.6652,14.3348,14.3348,0.246379,2.74389,-0.955279,0.350159,-0.0569574,-0.0452324,1,0,4.34,0.455,0.875,0.359412,-0.049044,-1.0564,-0.07154,0.14476,0.4942
-0.678312,0,0,15.6783,15.6783,14.3217,14.3217,0.251227,2.74448,-0.953351,0.350149,-0.0568729,-0.0452332,1,0,6.09,0.42,0.21,0.359412,-0.049044,-1.0564,-0.06216,0.15148,0.49714
-0.696525,0,0,15.6965,15.6965,14.3035,14.3035,0.257972,2.74465,-0.952205,0.154676,0.0325194,-0.168428,1,0,7.175,0.175,-0.245,0.163114,0.040138,-1.17864,-0.06216,0.15148,0.49714
-0.710656,0,0,15.7107,15.7107,14.2893,14.2893,0.263206,2.74424,-0.952653,0.154683,0.0326106,-0.168428,1,0,6.37,-0.175,-1.1725,0.163114,0.040138,-1.17864,-0.06216,0.15148,0.49714
-0.450462,0,0,15.4505,15.4505,14.5495,14.5495,0.166838,2.56032,-0.831274,-0.177776,0.102253,-0.0161862,0,0,5.845,0.455,-1.68,-0.173972,0.111386,-1.02773,-0.06216,0.15148,0.49714
-0.193075,0,0,15.1931,15.1931,14.8069,14.8069,0.0715091,2.37915,-0.710958,-0.174617,0.100591,-0.0160465,0,0,5.53,0.14,-2.555,-0.173972,0.111386,-1.02773,-0.06216,0.15148,0.49714
-0.195519,0,0,15.1955,15.1955,14.8045,14.8045,0.0724146,2.38077,-0.714224,-0.23393,0.19782,0.199604,1,0,4.0075,1.015,-2.8175,-0.233508,0.208498,-0.81374,-0.06216,0.15148,0.49714
-0.203527,0,0,15.2035,15.2035,14.7965,14.7965,0.0753802,2.38048,-0.718993,-0.233925,0.197871,0.199604,1,0,5.1975,-0.105,-3.6925,-0.233508,0.208498,-0.81374,-0.06216,0.15148,0.49714
-0.040433,0,0,15.0404,15.0404,14.9596,14.9596,0.0149752,2.47132,-0.849547,0.0696634,0.0556396,0.0978594,0,0,4.4275,-0.0175,-3.8325,0.072956,0.067466,-0.914634,-0.06216,0.15148,0.49714
0.113973,0,0,14.886,14.886,15.114,15.114,-0.0422123,2.55906,-0.96631,0.0681333,0.0546425,0.097792,0,0,5.6525,-0.4725,-3.99,0.072956,0.067466,-0.914634,-0.06468,0.1421,0.4928
0.0497951,0,0,14.9502,14.9502,15.0498,15.0498,-0.0184426,2.25709,-0.720945,-0.268583,-0.0202954,0.0616209,0,0,5.11,-0.4725,-3.9375,-0.270474,-0.007808,-0.950746,-0.06468,0.1421,0.4928
-0.0131195,0,0,15.0131,15.0131,14.9869,14.9869,0.00485906,1.96056,-0.476133,-0.263411,-0.019889,0.0618114,0,0,5.11,-0.4725,-3.9375,-0.270474,-0.007808,-0.950746,-0.06468,0.1421,0.4928
-0.399445,0,0,15.3994,15.3994,14.6006,14.6006,0.147943,2.11857,-0.640222,0.153201,-0.142695,-0.00775599,0,0,5.81,-0.14,-2.3625,0.15067,-0.13298,-1.01968,-0.06468,0.1421,0.4928
-0.779188,0,0,15.7792,15.7792,14.2208,14.2208,0.288588,2.27369,-0.803343,0.150496,-0.140243,-0.00786908,0,0,5.81,-0.14,-2.3625,0.15067,-0.13298,-1.01968,-0.06468,0.1421,0.4928
-0.668782,0,0,15.6688,15.6688,14.3312,14.3312,0.247697,2.14974,-0.715724,-0.111938,0.0410131,0.0309465,0,0,4.2875,-0.105,-1.225,-0.115046,0.0488,-0.981246,-0.06468,0.1421,0.4928
-0.910276,0,0,15.9103,15.9103,14.0897,14.0897,0.337139,2.25699,-0.832312,0.108389,-0.0938429,-0.0544597,0,0,4.13,0.385,-0.3325,0.108092,-0.087474,-1.06591,-0.06468,0.1421,0.4928
-1.16896,0,0,16.169,16.169,13.831,13.831,0.432947,2.36158,-0.946604,0.106565,-0.0921726,-0.0545444,0,0,8.5225,0,0.7175,0.108092,-0.087474,-1.06591,-0.06468,0.1421,0.4928
-1.17221,0,0,16.1722,16.1722,13.8278,13.8278,0.434154,2.36182,-0.943357,-0.0927975,0.0927483,0.204262,1,0,4.025,0.2275,0.98,-0.09211,0.097234,-0.809104,-0.05978,0.14644,0.50022
-1.18107,0,0,16.1811,16.1811,13.8189,13.8189,0.437434,2.36164,-0.939002,-0.0927943,0.0928055,0.204262,1,0,5.1625,-0.0175,1.6275,-0.09211,0.097234,-0.809104,-0.05978,0.14644,0.50022
-1.19114,0,0,16.1911,16.1911,13.8089,13.8089,0.441164,2.36154,-0.932845,0.249919,-0.0687031,-0.117372,1,0,5.3725,0.035,2.6775,0.252052,-0.064172,-1.12826,-0.05978,0.14644,0.50022
-1.22185,0,0,16.2218,16.2218,13.7782,13.7782,0.452535,2.10294,-0.72019,-0.232,-0.00450905,0.0486596,0,0,6.8425,-0.14,2.695,-0.236436,-0.000244,-0.963678,-0.05978,0.14644,0.50022
-1.25378,0,0,16.2538,16.2538,13.7462,13.7462,0.464362,1.84982,-0.508131,-0.227585,-0.00430155,0.0488103,0,0,7.2625,0.315,2.555,-0.236436,-0.000244,-0.963678,-0.05978,0.14644,0.50022
-1.27217,0,0,16.2722,16.2722,13.7278,13.7278,0.471173,1.84984,-0.502455,0.29043,-0.203127,-0.145941,1,0,7.14,0.105,2.3975,0.283772,-0.198982,-1.15693,-0.05978,0.14644,0.50022
-1.27909,0,0,16.2791,16.2791,13.7209,13.7209,0.473739,1.85198,-0.497783,0.290392,-0.203082,-0.145943,1,0,4.7775,1.3475,1.8025,0.283772,-0.198982,-1.15693,-0.05978,0.14644,0.50022
-1.28553,0,0,16.2855,16.2855,13.7145,13.7145,0.476123,1.85336,-0.494857,0.332888,0.13122,-0.136723,1,0,4.7075,0.8925,0.7875,0.326472,0.134932,-1.14778,-0.05978,0.14644,0.50022
-1.27645,0,0,16.2764,16.2764,13.7236,13.7236,0.472757,1.85508,-0.493098,0.332858,0.131161,-0.136723,1,0,1.505,1.085,0.105,0.326472,0.134932,-1.14778,-0.0714,0.14994,0.50064
-1.26973,0,0,16.2697,16.2697,13.7303,13.7303,0.470271,1.85621,-0.493114,-0.0478977,0.12953,0.21995,1,0,2.03,0.735,-0.9275,-0.055876,0.133346,-0.793854,-0.0714,0.14994,0.50064
-1.25861,0,0,16.2586,16.2586,13.7414,13.7414,0.466151,1.85503,-0.49441,0.0389852,-0.186728,-0.100944,1,0,1.1375,-0.63,-1.6625,0.031354,-0.182512,-1.11227,-0.0714,0.14994,0.50064
-1.26295,0,0,16.2629,16.2629,13.7371,13.7371,0.467759,1.85395,-0.497145,0.0390041,-0.1867,-0.100944,1,0,4.375,-0.5775,-2.5025,0.031354,-0.182512,-1.11227,-0.0714,0.14994,0.50064
-1.25342,0,0,16.2534,16.2534,13.7466,13.7466,0.464231,2.03224,-0.690932,0.16479,0.00790797,0.0051787,0,0,6.09,-0.77,-3.01,0.160796,0.011956,-1.00687,-0.0714,0.14994,0.50064
-1.25261,0,0,16.2526,16.2526,13.7474,13.7474,0.463931,2.20748,-0.885847,0.161734,0.00790181,0.00506561,0,0,7.9275,-0.6125,-3.85,0.160796,0.011956,-1.00687,-0.0714,0.14994,0.50064
-1.27447,0,0,16.2745,16.2745,13.7255,13.7255,0.472026,2.20765,-0.891514,0.152741,-0.0933222,-0.157597,1,0,8.085,0.14,-4.2175,0.151768,-0.089304,-1.16827,-0.0714,0.14994,0.50064
-1.28397,0,0,16.284,16.284,13.716,13.716,0.475545,2.20898,-0.897682,0.152718,-0.0932608,-0.157598,1,0,5.53,0.8225,-4.515,0.151768,-0.089304,-1.16827,-0.0714,0.14994,0.50064
-1.2897,0,0,16.2897,16.2897,13.7103,13.7103,0.477667,2.21011,-0.903671,0.0966933,0.0258497,-0.115059,1,0,4.7425,0.7,-4.41,0.095526,0.029646,-1.12606,-0.06706,0.15022,0.49938
-1.59858,0,0,16.5986,16.5986,13.4014,13.4014,0.592065,2.13143,-0.867666,-0.071407,-0.12408,-0.0697804,0,0,3.15,0.5425,-3.8675,-0.074664,-0.122122,-1.08116,-0.06706,0.15022,0.49938
-1.89538,0,0,16.8954,16.8954,13.1046,13.1046,0.701993,2.05383,-0.830889,-0.0700535,-0.122163,-0.0697526,0,0,1.7325,0.2625,-3.2025,-0.074664,-0.122122,-1.08116,-0.06706,0.15022,0.49938
-1.74099,0,0,16.741,16.741,13.259,13.259,0.64481,1.99141,-0.810397,-0.0590028,0.0568553,-0.0716696,0,0,1.6975,-0.6475,-2.485,-0.06466,0.057706,-1.08312,-0.06706,0.15022,0.49938
-1.59377,0,0,16.5938,16.5938,13.4062,13.4062,0.590286,1.92966,-0.788603,-0.0579259,0.0559047,-0.0716225,0,0,2.6075,-0.91,-1.7675,-0.06466,0.057706,-1.08312,-0.06706,0.15022,0.49938
-1.59591,0,0,16.5959,16.5959,13.4041,13.4041,0.591079,1.92705,-0.787635,0.365254,0.00120579,0.205628,1,0,3.85,-1.4525,-0.3325,0.360266,0.00305,-0.808006,-0.06706,0.15022,0.49938
-1.59896,0,0,16.599,16.599,13.401,13.401,0.592208,1.92578,-0.785934,0.365276,0.0012255,0.205628,1,0,4.025,-0.665,0.0875,0.360266,0.00305,-0.808006,-0.06706,0.15022,0.49938
-1.6056,0,0,16.6056,16.6056,13.3944,13.3944,0.594668,1.92415,-0.783666,0.161574,-0.300507,-0.213871,1,0,4.76,-0.875,0.42,0.155672,-0.298412,-1.22427,-0.06706,0.15022,0.49938
-1.61011,0,0,16.6101,16.6101,13.3899,13.3899,0.596335,1.92442,-0.780808,0.161569,-0.300478,-0.213872,1,0,4.305,0.245,0.7525,0.155672,-0.298412,-1.22427,-0.06594,0.1519,0.5075
-1.61033,0,0,16.6103,16.6103,13.3897,13.3897,0.596419,1.92665,-0.77772,0.228347,0.200854,-0.217562,1,0,3.4125,1.4,0.875,0.222772,0.202398,-1.22793,-0.06594,0.1519,0.5075
-1.76278,0,0,16.7628,16.7628,13.2372,13.2372,0.652883,2.12062,-0.980468,0.182201,-0.0591473,-0.000564897,0,0,2.9575,1.1025,0.7,0.179828,-0.058316,-1.01248,-0.06594,0.1519,0.5075
-1.91159,0,0,16.9116,16.9116,13.0884,13.0884,0.707996,2.31135,-1.18242,0.178874,-0.0581877,-0.000705019,0,0,2.7475,1.3125,0.735,0.179828,-0.058316,-1.01248,-0.06594,0.1519,0.5075
-1.9479,0,0,16.9479,16.9479,13.0521,13.0521,0.721443,2.17713,-1.09403,-0.115331,-0.0110554,0.0958984,0,0,3.2375,0.7525,0.35,-0.117974,-0.011468,-0.916708,-0.06594,0.1519,0.5075
-1.97929,0,0,16.9793,16.9793,13.0207,13.0207,0.73307,2.04365,-1.00665,-0.113003,-0.0108515,0.0959816,0,0,2.38,-0.2975,-0.105,-0.117974,-0.011468,-0.916708,-0.06594,0.1519,0.5075
-1.97657,0,0,16.9766,16.9766,13.0234,13.0234,0.732063,2.04259,-1.00543,-0.116872,0.0804817,0.34483,1,0,2.835,-0.5425,-0.1925,-0.121878,0.079788,-0.66978,-0.06594,0.1519,0.5075
-1.97956,0,0,16.9796,16.9796,13.0204,13.0204,0.733169,2.04035,-1.00536,-0.116833,0.080501,0.344831,1,0,4.0425,-1.2425,-0.8575,-0.121878,0.079788,-0.66978,-0.06594,0.1519,0.5075
-1.98288,0,0,16.9829,16.9829,13.0171,13.0171,0.734401,2.03927,-1.00528,0.295629,0.0657452,-0.227862,1,0,4.1125,-0.56,-0.8575,0.292312,0.065026,-1.23806,-0.07644,0.15666,0.51002
-1.98627,0,0,16.9863,16.9863,13.0137,13.0137,0.735655,2.03928,-1.0063,-0.197967,-0.157969,-0.306058,1,0,4.1475,0.07,-1.505,-0.203374,-0.158478,-1.31565,-0.07644,0.15666,0.51002
-1.98513,0,0,16.9851,16.9851,13.0149,13.0149,0.735235,2.04104,-1.00789,-0.197998,-0.157976,-0.306059,1,0,3.22,1.085,-1.855,-0.203374,-0.158478,-1.31565,-0.07644,0.15666,0.51002
-1.23036,0,0,16.2304,16.2304,13.7696,13.7696,0.455687,2.21771,-1.20769,0.160584,0.30306,-0.0240789,0,0,4.0075,1.4,-2.1175,0.15982,0.306952,-1.03578,-0.07644,0.15666,0.51002
-0.478918,0,0,15.4789,15.4789,14.5211,14.5211,0.177377,2.39073,-1.40849,0.157566,0.298206,-0.0241735,0,0,2.205,1.2075,-1.9075,0.15982,0.306952,-1.03578,-0.07644,0.15666,0.51002
-0.26736,0,0,15.2674,15.2674,14.7326,14.7326,0.0990223,2.12746,-1.21374,-0.244455,0.0771343,0.0281411,0,0,2.8875,0.7525,-1.68,-0.248514,0.087474,-0.984052,-0.07644,0.15666,0.51002
-0.0592971,0,0,15.0593,15.0593,14.9407,14.9407,0.0219619,1.86765,-1.01802,-0.239923,0.0757903,0.0283005,0,0,2.8875,0,-1.3125,-0.248514,0.087474,-0.984052,-0.07644,0.15666,0.51002
-0.0572704,0,0,15.0573,15.0573,14.9427,14.9427,0.0212113,1.86681,-1.0184,-0.107489,-0.0123983,0.326082,1,0,3.01,-0.42,-1.1375,-0.115534,-0.00061,-0.688568,-0.07784,0.14784,0.51324
0.116744,0,0,14.8833,14.8833,15.1167,15.1167,-0.0432386,2.08459,-1.24019,0.215266,0.0703787,-0.0453534,0,0,4.2875,-0.455,-0.595,0.212402,0.083204,-1.05701,-0.07784,0.14784,0.51324
-0.14142,0,0,15.1414,15.1414,14.8586,14.8586,0.0523777,2.11509,-1.29123,0.0374863,-0.104183,-0.0702087,0,0,2.905,-1.2075,-0.385,0.034404,-0.092842,-1.08165,-0.07784,0.14784,0.51324
-0.392787,0,0,15.3928,15.3928,14.6072,14.6072,0.145477,2.1466,-1.34125,0.0369367,-0.102559,-0.0702319,0,0,2.3975,-0.2975,0.105,0.034404,-0.092842,-1.08165,-0.07784,0.14784,0.51324
-0.387672,0,0,15.3877,15.3877,14.6123,14.6123,0.143582,2.14719,-1.33878,0.168131,0.127373,-0.359161,1,0,2.31,0.42,0.525,0.166164,0.136884,-1.36835,-0.07784,0.14784,0.51324
-0.768909,0,0,15.7689,15.7689,14.2311,14.2311,0.284781,2.41366,-1.59748,0.241113,-0.144096,0.0648169,0,0,1.4,0.0875,0.42,0.244122,-0.136762,-0.947452,-0.07784,0.14784,0.51324
-0.576795,0,0,15.5768,15.5768,14.4232,14.4232,0.213628,2.04283,-1.28975,-0.34697,0.0697296,0.0393777,0,0,2.03,0.98,0.315,-0.352946,0.07808,-0.97295,-0.07784,0.14784,0.51324
-0.386748,0,0,15.3867,15.3867,14.6133,14.6133,0.14324,1.67718,-0.988079,-0.340592,0.0685024,0.0395886,0,0,1.89,0.735,-0.1575,-0.352946,0.07808,-0.97295,-0.08036,0.15232,0.51226
-0.381835,0,0,15.3818,15.3818,14.6182,14.6182,0.14142,1.66962,-0.987704,0.14609,-0.205582,0.215901,1,0,2.3975,-4.3575,-0.6825,0.135664,-0.195688,-0.798002,-0.08036,0.15232,0.51226
-0.376922,0,0,15.3769,15.3769,14.6231,14.6231,0.139601,1.66206,-0.987328,0.146222,-0.205613,0.215905,1,0,2.3975,-4.3575,-0.6825,0.135664,-0.195688,-0.798002,-0.08036,0.15232,0.51226
-0.378125,0,0,15.3781,15.3781,14.6219,14.6219,0.140046,1.66069,-0.988498,0.0411607,0.101299,-0.11249,1,0,3.6925,-0.735,-1.5925,0.030134,0.110898,-1.12386,-0.08036,0.15232,0.51226
-0.379327,0,0,15.3793,15.3793,14.6207,14.6207,0.140492,1.65932,-0.989667,0.0411846,0.101307,-0.112489,1,0,3.6925,-0.735,-1.5925,0.030134,0.110898,-1.12386,-0.08036,0.15232,0.51226
-0.278405,0,0,15.2784,15.2784,14.7216,14.7216,0.103113,1.82397,-1.16498,0.143762,0.0369042,0.0397578,0,0,3.8675,0.3325,-2.135,0.13603,0.047214,-0.972706,-0.08036,0.15232,0.51226
-0.272427,0,0,15.2724,15.2724,14.7276,14.7276,0.100899,1.82502,-1.16723,-0.017468,-0.23047,-0.132985,1,0,2.2225,0.6825,-2.2225,-0.025864,-0.219844,-1.14412,-0.08036,0.15232,0.51226
-0.264245,0,0,15.2642,15.2642,14.7358,14.7358,0.0978684,1.8261,-1.16962,-0.0174869,-0.230523,-0.132986,1,0,1.7675,0.7,-2.31,-0.025864,-0.219844,-1.14412,-0.08036,0.15232,0.51226
-0.25725,0,0,15.2572,15.2572,14.7428,14.7428,0.0952777,1.82658,-1.17193,0.185993,0.120058,-0.253476,1,0,2.0125,0.35,-2.2575,0.178486,0.130418,-1.26368,-0.0756,0.14826,0.51002
-0.243217,0,0,15.2432,15.2432,14.7568,14.7568,0.0900803,1.82674,-1.17375,0.185991,0.119967,-0.253476,1,0,0.5425,0.1575,-1.9775,0.178486,0.130418,-1.26368,-0.0756,0.14826,0.51002
-0.0146197,0,0,15.0146,15.0146,14.9854,14.9854,0.00541469,2.01877,-1.38133,0.163811,0.073914,0.102841,0,0,1.19,-4.445,-1.785,0.159576,0.085888,-0.909998,-0.0756,0.14826,0.51002
0.210343,0,0,14.7897,14.7897,15.2103,15.2103,-0.0779049,2.20723,-1.58907,0.160523,0.0724609,0.102719,0,0,1.19,-4.445,-1.785,0.159576,0.085888,-0.909998,-0.0756,0.14826,0.51002
0.0994579,0,0,14.9005,14.9005,15.0995,15.0995,-0.0368363,1.96927,-1.39829,-0.207072,-0.0384468,0.076068,0,0,3.5525,-0.1575,-0.7525,-0.213744,-0.02562,-0.936594,-0.0756,0.14826,0.51002
0.097414,0,0,14.9026,14.9026,15.0974,15.0974,-0.0360793,1.96786,-1.39747,0.250467,0.0713584,-0.171918,1,0,3.8325,-0.7525,-0.4375,0.245708,0.084058,-1.18267,-0.0756,0.14826,0.51002
0.0969019,0,0,14.9031,14.9031,15.0969,15.0969,-0.0358896,1.96715,-1.39591,0.25048,0.0713617,-0.171918,1,0,3.5,-0.35,0,0.245708,0.084058,-1.18267,-0.0756,0.14826,0.51002
0.0976966,0,0,14.9023,14.9023,15.0977,15.0977,-0.0361839,1.96724,-1.39389,-0.165975,-0.0662803,-0.354619,1,0,3.22,0.1225,0.2625,-0.172508,-0.053436,-1.36396,-0.0756,0.14826,0.51002
0.103717,0,0,14.8963,14.8963,15.1037,15.1037,-0.0384138,1.96811,-1.39098,-0.16599,-0.0663192,-0.35462,1,0,2.1175,0.5775,0.7875,-0.172508,-0.053436,-1.36396,-0.08274,0.14224,0.5103
0.111848,0,0,14.8882,14.8882,15.1118,15.1118,-0.0414251,1.9702,-1.3881,-0.0746691,0.0385352,0.163238,1,0,1.68,1.295,0.77,-0.080764,0.051362,-0.850096,-0.08274,0.14224,0.5103
0.118685,0,0,14.8813,14.8813,15.1187,15.1187,-0.0439574,1.97146,-1.38581,-0.074691,0.038491,0.163237,1,0,1.96,0.805,0.42,-0.080764,0.051362,-0.850096,-0.08274,0.14224,0.5103
0.728561,0,0,14.2714,14.2714,15.7286,15.7286,-0.269837,2.13662,-1.55583,0.137458,0.213711,0.0808704,0,0,1.3125,0.9275,0.14,0.135176,0.230336,-0.931714,-0.08274,0.14224,0.5103
1.32254,0,0,13.6775,13.6775,16.3225,16.3225,-0.489831,2.29662,-1.72747,0.134667,0.209875,0.080737,0,0,2.5725,-0.315,-0.2975,0.135176,0.230336,-0.931714,-0.08274,0.14224,0.5103
1.02536,0,0,13.9746,13.9746,16.0254,16.0254,-0.379764,2.35137,-1.791,0.050495,-0.108055,0.034976,0,0,3.5175,-0.35,-0.4025,0.051606,-0.089182,-0.977098,-0.08274,0.14224,0.5103
0.729936,0,0,14.2701,14.2701,15.7299,15.7299,-0.270347,2.40527,-1.85497,0.049555,-0.106147,0.0349478,0,0,4.2175,-0.2625,-0.8225,0.051606,-0.089182,-0.977098,-0.08274,0.14224,0.5103
0.726565,0,0,14.2734,14.2734,15.7266,15.7266,-0.269098,2.40473,-1.85523,-0.0399706,-0.171096,-0.101525,1,0,4.13,-0.245,-1.0675,-0.038308,-0.154086,-1.11252,-0.08274,0.14224,0.5103
0.726353,0,0,14.2736,14.2736,15.7264,15.7264,-0.26902,2.40482,-1.85586,-0.0399721,-0.171095,-0.101525,1,0,3.4825,0.1225,-1.2775,-0.038308,-0.154086,-1.11252,-0.08442,0.13762,0.50974
1.00939,0,0,13.9906,13.9906,16.0094,16.0094,-0.373848,2.23586,-1.72296,-0.162885,0.109311,-0.0271546,0,0,2.905,0.665,-1.4875,-0.1647,0.127856,-1.03883,-0.08442,0.13762,0.50974
1.29146,0,0,13.7085,13.7085,16.2915,16.2915,-0.478318,2.06987,-1.59031,-0.15999,0.107489,-0.0270593,0,0,2.135,0.6125,-1.8725,-0.1647,0.127856,-1.03883,-0.08442,0.13762,0.50974
1.36742,0,0,13.6326,13.6326,16.3674,16.3674,-0.506453,1.9787,-1.51895,-0.082228,0.0239511,0.0573353,0,0,2.03,0.6475,-1.96,-0.088206,0.044896,-0.955138,-0.08442,0.13762,0.50974
1.44107,0,0,13.5589,13.5589,16.4411,16.4411,-0.533731,1.88762,-1.44731,-0.0806392,0.0234748,0.0573846,0,0,2.24,-0.2975,-1.785,-0.088206,0.044896,-0.955138,-0.08442,0.13762,0.50974
1.5205,0,0,13.4795,13.4795,16.5205,16.5205,-0.563149,2.04671,-1.60225,0.131737,0.0230848,0.0984722,0,0,1.89,-0.6825,-1.82,0.127856,0.045018,-0.914268,-0.08442,0.13762,0.50974
1.59099,0,0,13.409,13.409,16.591,16.591,-0.589256,2.20266,-1.75683,0.129017,0.0226305,0.0983667,0,0,3.4825,-0.7875,-1.6975,0.127856,0.045018,-0.914268,-0.08442,0.13762,0.50974
0.792215,0,0,14.2078,14.2078,15.7922,15.7922,-0.293413,1.87765,-1.45812,-0.290271,-0.291206,0.105125,0,0,3.5875,-0.4725,-1.3825,-0.2989,-0.273646,-0.907802,-0.08442,0.13762,0.50974
0.0049725,0,0,14.995,14.995,15.005,15.005,-0.00184167,1.55905,-1.16248,-0.284713,-0.28612,0.105304,0,0,3.9025,-0.07,-0.91,-0.2989,-0.273646,-0.907802,-0.08442,0.13762,0.50974
0.00331675,0,0,14.9967,14.9967,15.0033,15.0033,-0.00122843,1.55878,-1.16215,0.266715,0.00137701,-0.0761674,1,0,3.7625,-0.0875,-0.7175,0.254858,0.013542,-1.08787,-0.07518,0.1449,0.5159
0.00405604,0,0,14.9959,14.9959,15.0041,15.0041,-0.00150224,1.55887,-1.16229,0.0135375,0.176746,-0.139732,1,0,3.2725,0.1225,-0.9975,0.00061,0.188734,-1.15095,-0.07518,0.1449,0.5159
0.00479533,0,0,14.9952,14.9952,15.0048,15.0048,-0.00177605,1.55896,-1.16244,0.0135359,0.176741,-0.139732,1,0,3.2725,0.1225,-0.9975,0.00061,0.188734,-1.15095,-0.07518,0.1449,0.5159
0.046232,0,0,14.9538,14.9538,15.0462,15.0462,-0.017123,1.60041,-1.21248,0.0406329,0.0159992,-0.048647,0,0,3.3075,0.5425,-0.595,0.028548,0.028426,-1.06055,-0.07518,0.1449,0.5159
0.0869663,0,0,14.913,14.913,15.087,15.087,-0.0322097,1.64109,-1.26246,0.0399233,0.015736,-0.0486672,0,0,3.3075,0.5425,-0.595,0.028548,0.028426,-1.06055,-0.07518,0.1449,0.5159
-0.197506,0,0,15.1975,15.1975,14.8025,14.8025,0.0731502,1.67689,-1.30503,0.0346822,-0.108461,-0.00639166,0,0,3.2025,0.5425,-1.085,0.023912,-0.097478,-1.01858,-0.07518,0.1449,0.5159
-0.477165,0,0,15.4772,15.4772,14.5228,14.5228,0.176728,1.71205,-1.34742,0.0340688,-0.106654,-0.00641374,0,0,3.2025,0.5425,-1.085,0.023912,-0.097478,-1.01858,-0.07518,0.1449,0.5159
-0.358676,0,0,15.3587,15.3587,14.6413,14.6413,0.132843,1.90656,-1.54279,0.19213,0.0462158,-0.0363953,0,0,3.4475,-0.5075,-1.435,0.18605,0.055998,-1.04822,-0.07518,0.1449,0.5159
-0.482071,0,0,15.4821,15.4821,14.5179,14.5179,0.178545,2.14247,-1.76984,0.242319,-0.0505667,-0.0560918,0,0,4.0775,-0.1925,-1.7325,0.240584,-0.04148,-1.06762,-0.07266,0.14042,0.50806
-0.601626,0,0,15.6016,15.6016,14.3984,14.3984,0.222825,2.3747,-1.99584,0.23827,-0.049795,-0.0562542,0,0,3.7275,0.1575,-1.5575,0.240584,-0.04148,-1.06762,-0.07266,0.14042,0.50806
-0.604351,0,0,15.6044,15.6044,14.3956,14.3956,0.223834,2.37494,-1.99737,-0.296636,-0.0149713,-0.107155,1,0,4.025,0.21,-1.8025,-0.296582,-0.00671,-1.11813,-0.07266,0.14042,0.50806
-0.6042,0,0,15.6042,15.6042,14.3958,14.3958,0.223778,2.37567,-1.99898,-0.296649,-0.0149723,-0.107156,1,0,3.43,0.49,-1.855,-0.296582,-0.00671,-1.11813,-0.07266,0.14042,0.50806
-0.629704,0,0,15.6297,15.6297,14.3703,14.3703,0.233224,2.53639,-2.16456,0.150532,-0.0104115,0.0017788,0,0,3.465,0.6475,-1.6275,0.155306,-0.002318,-1.00992,-0.07266,0.14042,0.50806
-0.656151,0,0,15.6562,15.6562,14.3438,14.3438,0.243019,2.69322,-2.32974,0.147797,-0.0102413,0.00165321,0,0,3.7625,0.105,-1.5925,0.155306,-0.002318,-1.00992,-0.07266,0.14042,0.50806
-0.964899,0,0,15.9649,15.9649,14.0351,14.0351,0.35737,2.6004,-2.2634,-0.0825007,-0.113032,0.0236024,0,0,3.57,0.0525,-1.33,-0.077592,-0.106994,-0.9882,-0.07266,0.14042,0.50806
-0.488795,0,0,15.4888,15.4888,14.5112,14.5112,0.181035,2.62782,-2.31274,0.0188262,0.168571,0.0780612,0,0,4.06,-0.595,-1.295,0.024644,0.177388,-0.934154,-0.07742,0.13216,0.5068
-0.0211286,0,0,15.0211,15.0211,14.9789,14.9789,0.00782542,2.65588,-2.361,0.0183371,0.165551,0.0780436,0,0,4.13,0.105,-0.665,0.024644,0.177388,-0.934154,-0.07742,0.13216,0.5068
-0.0227271,0,0,15.0227,15.0227,14.9773,14.9773,0.00841743,2.65665,-2.35991,0.0961958,0.297092,0.237138,1,0,3.7275,0.525,-0.28,0.102846,0.308782,-0.776286,-0.07742,0.13216,0.5068
-0.0243255,0,0,15.0243,15.0243,14.9757,14.9757,0.00900945,2.65743,-2.35883,0.0961823,0.297102,0.237138,1,0,3.7275,0.525,-0.28,0.102846,0.308782,-0.776286,-0.07742,0.13216,0.5068
-0.260568,0,0,15.2606,15.2606,14.7394,14.7394,0.0965067,2.49606,-2.21551,-0.158918,-0.0965742,-0.0885506,0,0,3.605,0.1925,0,-0.15616,-0.08601,-1.09959,-0.07742,0.13216,0.5068
-0.492665,0,0,15.4927,15.4927,14.5073,14.5073,0.182468,2.33769,-2.07295,-0.156157,-0.095075,-0.0884377,0,0,3.605,0.1925,0,-0.15616,-0.08601,-1.09959,-0.07742,0.13216,0.5068
-0.791697,0,0,15.7917,15.7917,14.2083,14.2083,0.293221,2.5911,-2.29885,0.251018,-0.121234,-0.0148668,0,0,3.255,-0.105,0.2625,0.257176,-0.11407,-1.02639,-0.07742,0.13216,0.5068
-1.08581,0,0,16.0858,16.0858,13.9142,13.9142,0.402152,2.8399,-2.52343,0.246681,-0.119336,-0.015084,0,0,3.255,-0.105,0.2625,0.257176,-0.11407,-1.02639,-0.07742,0.13216,0.5068
-1.08454,0,0,16.0845,16.0845,13.9155,13.9155,0.401682,2.83215,-2.5218,-0.0605431,0.0890041,-0.143558,1,0,3.115,-4.4625,0.07,-0.051484,0.094062,-1.15388,-0.07756,0.13384,0.49252
-1.76865,0,0,16.7686,16.7686,13.2314,13.2314,0.655055,2.82046,-2.50651,-0.00700708,-0.256961,0.0384976,0,0,2.765,-0.2625,0.0525,0.002074,-0.255956,-0.973194,-0.07756,0.13384,0.49252
-2.44461,0,0,17.4446,17.4446,12.5554,12.5554,0.905413,2.80842,-2.49193,-0.00679709,-0.252597,0.0384485,0,0,3.43,-0.63,-0.175,0.002074,-0.255956,-0.973194,-0.07756,0.13384,0.49252
-1.82998,0,0,16.83,16.83,13.17,13.17,0.67777,3.03615,-2.72705,0.211674,0.238657,0.0197355,0,0,3.43,-0.5075,-0.49,0.225456,0.238754,-0.991616,-0.07756,0.13384,0.49252
-1.22724,0,0,16.2272,16.2272,13.7728,13.7728,0.454534,3.26057,-2.9636,0.207763,0.234765,0.0195588,0,0,3.9375,-0.035,-0.63,0.225456,0.238754,-0.991616,-0.07756,0.13384,0.49252
-1.23284,0,0,16.2328,16.2328,13.7672,13.7672,0.456609,3.26042,-2.96354,-0.456397,-0.11265,-0.059989,1,0,4.585,-0.0175,-0.875,-0.441518,-0.108336,-1.07055,-0.07756,0.13384,0.49252
-1.23495,0,0,16.235,16.235,13.765,13.765,0.457389,3.26123,-2.96428,-0.456411,-0.112636,-0.0599899,1,0,3.885,0.5425,-1.3475,-0.441518,-0.108336,-1.07055,-0.07756,0.13384,0.49252
-1.47027,0,0,16.4703,16.4703,13.5297,13.5297,0.544544,3.55279,-3.23941,0.273012,-0.0924351,0.0379303,0,0,3.3425,0.7525,-1.435,0.296094,-0.08967,-0.973072,-0.07756,0.13384,0.49252
-1.70093,0,0,16.7009,16.7009,13.2991,13.2991,0.629976,3.83638,-3.51667,0.268072,-0.0909505,0.0375961,0,0,3.15,0.1225,-1.5225,0.296094,-0.08967,-0.973072,-0.07448,0.13566,0.49714
-1.69742,0,0,16.6974,16.6974,13.3026,13.3026,0.628673,3.83646,-3.51811,-0.244477,-0.166936,-0.219366,1,0,2.7475,0.105,-1.75,-0.218624,-0.165554,-1.22805,-0.07448,0.13566,0.49714
-1.69653,0,0,16.6965,16.6965,13.3035,13.3035,0.628346,3.83571,-3.52037,-0.244464,-0.166942,-0.219365,1,0,3.325,-0.385,-2.2225,-0.218624,-0.165554,-1.22805,-0.07448,0.13566,0.49714
-1.69427,0,0,16.6943,16.6943,13.3057,13.3057,0.627508,3.83457,-3.52326,0.119163,-0.22802,-0.0643256,1,0,3.0625,-0.6125,-2.59,0.146522,-0.226554,-1.07421,-0.07448,0.13566,0.49714
-1.69402,0,0,16.694,16.694,13.306,13.306,0.627416,3.83449,-3.52621,0.119164,-0.228021,-0.0643255,1,0,3.4825,0,-2.625,0.146522,-0.226554,-1.07421,-0.07448,0.13566,0.49714
-1.69316,0,0,16.6932,16.6932,13.3068,13.3068,0.627097,3.8338,-3.52928,0.111765,-0.21728,-0.216289,1,0,3.36,-0.35,-2.695,0.13908,-0.215818,-1.225,-0.07448,0.13566,0.49714
-1.6874,0,0,16.6874,16.6874,13.3126,13.3126,0.624963,3.83437,-3.53194,0.111755,-0.217317,-0.216289,1,0,2.3275,0.385,-2.4675,0.13908,-0.215818,-1.225,-0.07448,0.13566,0.49714
-1.68322,0,0,16.6832,16.6832,13.3168,13.3168,0.623414,3.83428,-3.53473,0.240167,0.182866,0.287062,1,0,2.66,0,-2.5375,0.268034,0.183976,-0.725534,-0.07448,0.13566,0.49714
-1.67855,0,0,16.6785,16.6785,13.3215,13.3215,0.621685,3.83395,-3.53696,0.240173,0.182835,0.287063,1,0,2.5375,-0.14,-2.205,0.268034,0.183976,-0.725534,-0.07448,0.13566,0.49714
-1.67561,0,0,16.6756,16.6756,13.3244,13.3244,0.620596,3.83397,-3.53894,-0.101324,0.00964077,-0.171658,1,0,2.8875,0.07,-2.065,-0.074908,0.01098,-1.18072,-0.07686,0.1323,0.49574
-1.99702,0,0,16.997,16.997,13.003,13.003,0.739636,3.87549,-3.59459,0.0522403,-0.134839,-0.0827163,0,0,2.9925,-0.0525,-1.855,0.080032,-0.13542,-1.09239,-0.07686,0.1323,0.49574
-2.31314,0,0,17.3131,17.3131,12.6869,12.6869,0.85672,3.91613,-3.64901,0.0515327,-0.132801,-0.0827929,0,0,2.975,-0.14,-1.26,0.080032,-0.13542,-1.09239,-0.07686,0.1323,0.49574
-2.31004,0,0,17.31,17.31,12.69,12.69,0.855571,3.91508,-3.64908,0.268889,0.108135,-0.0534066,1,0,2.7825,-0.5425,-0.945,0.29829,0.105286,-1.06323,-0.07686,0.1323,0.49574
-2.30903,0,0,17.309,17.309,12.691,12.691,0.855195,3.91477,-3.64836,0.268894,0.108128,-0.0534062,1,0,3.185,-0.105,-0.49,0.29829,0.105286,-1.06323,-0.07686,0.1323,0.49574
-2.39696,0,0,17.397,17.397,12.603,12.603,0.887762,3.68912,-3.47073,-0.207288,-0.0324791,0.00745994,0,0,3.045,0.315,-0.0875,-0.183854,-0.035746,-1.00308,-0.07686,0.1323,0.49574
-2.48277,0,0,17.4828,17.4828,12.5172,12.5172,0.919546,3.46835,-3.29277,-0.203442,-0.0319217,0.0076917,0,0,2.94,0.735,0.4375,-0.183854,-0.035746,-1.00308,-0.07686,0.1323,0.49574
-2.48325,0,0,17.4832,17.4832,12.5168,12.5168,0.919722,3.46944,-3.29004,0.122971,0.197191,0.14527,1,0,3.43,0.735,0.665,0.14396,0.193126,-0.866566,-0.07686,0.1323,0.49574
-2.48295,0,0,17.483,17.483,12.517,12.517,0.919612,3.47058,-3.28689,0.122951,0.197189,0.145269,1,0,3.255,0.77,0.91,0.14396,0.193126,-0.866566,-0.0784,0.13328,0.49196
-2.47967,0,0,17.4797,17.4797,12.5203,12.5203,0.918397,3.47101,-3.28343,0.147119,0.0249693,-0.10985,1,0,2.625,0.35,1.1025,0.168238,0.021106,-1.11972,-0.0784,0.13328,0.49196
-2.47649,0,0,17.4765,17.4765,12.5235,12.5235,0.917218,3.47065,-3.27988,0.147126,0.0249487,-0.109849,1,0,2.6425,-0.105,1.155,0.168238,0.021106,-1.11972,-0.0784,0.13328,0.49196
-2.47068,0,0,17.4707,17.4707,12.5293,12.5293,0.915067,3.46961,-3.27641,0.312972,0.0693654,-0.0766511,1,0,2.1,-0.5075,1.12,0.334768,0.065514,-1.08678,-0.0784,0.13328,0.49196
-2.46708,0,0,17.4671,17.4671,12.5329,12.5329,0.913735,3.46878,-3.27333,0.312986,0.0693422,-0.0766498,1,0,2.5725,-0.385,0.8925,0.334768,0.065514,-1.08678,-0.0784,0.13328,0.49196
-2.12265,0,0,17.1227,17.1227,12.8773,12.8773,0.786168,3.33167,-3.18341,-0.131814,0.134902,-0.0247136,0,0,3.5525,-0.21,0.6475,-0.114314,0.133224,-1.03541,-0.0784,0.13328,0.49196
-1.78331,0,0,16.7833,16.7833,13.2167,13.2167,0.660485,3.1973,-3.09346,-0.129472,0.132714,-0.0245524,0,0,3.43,-0.035,0.385,-0.114314,0.133224,-1.03541,-0.0784,0.13328,0.49196
-1.78854,0,0,16.7885,16.7885,13.2115,13.2115,0.662422,3.19755,-3.09195,0.0447337,-0.0561821,0.118928,1,0,4.4625,0.2275,-0.035,0.060634,-0.05551,-0.89304,-0.0784,0.13328,0.49196
-1.79075,0,0,16.7908,16.7908,13.2092,13.2092,0.663242,3.19746,-3.09143,0.0447353,-0.0561678,0.118928,1,0,3.8675,0.0175,-0.6125,0.060634,-0.05551,-0.89304,-0.07112,0.13062,0.48944
-1.78975,0,0,16.7897,16.7897,13.2103,13.2103,0.66287,3.19758,-3.09158,0.229634,0.158402,-0.0875028,1,0,3.22,0.14,-0.9975,0.246318,0.158844,-1.09788,-0.07112,0.13062,0.48944
-1.78738,0,0,16.7874,16.7874,13.2126,13.2126,0.661993,3.19712,-3.09296,0.229642,0.158387,-0.0875022,1,0,2.975,-0.21,-1.715,0.246318,0.158844,-1.09788,-0.07112,0.13062,0.48944
-1.63162,0,0,16.6316,16.6316,13.3684,13.3684,0.604305,3.09551,-3.02497,-0.0965982,0.0573611,-0.0184196,0,0,1.9775,0.105,-1.9075,-0.083082,0.058926,-1.02944,-0.07112,0.13062,0.48944
-1.47884,0,0,16.4788,16.4788,13.5212,13.5212,0.547719,2.99501,-2.95787,-0.0948466,0.0563759,-0.0183165,0,0,2.0825,-0.3325,-2.485,-0.083082,0.058926,-1.02944,-0.07112,0.13062,0.48944
-1.42049,0,0,16.4205,16.4205,13.5795,13.5795,0.526106,3.04326,-3.02121,0.0425632,0.0188723,0.0256582,0,0,2.0475,-0.175,-2.8175,0.055754,0.021838,-0.98576,-0.07112,0.13062,0.48944
-1.36391,0,0,16.3639,16.3639,13.6361,13.6361,0.505153,3.09076,-3.08528,0.0417354,0.0185067,0.0256171,0,0,2.24,-0.0875,-3.3075,0.055754,0.021838,-0.98576,-0.07112,0.13062,0.48944
-1.36003,0,0,16.36,16.36,13.64,13.64,0.503713,3.09029,-3.08961,0.0144093,0.0895594,-0.237,1,0,2.7475,-0.2275,-3.43,0.028304,0.092842,-1.24635,-0.07112,0.13062,0.48944
-1.35904,0,0,16.359,16.359,13.641,13.641,0.503347,3.09017,-3.09372,0.0144113,0.089553,-0.237,1,0,3.3425,-0.0175,-3.3075,0.028304,0.092842,-1.24635,-0.07252,0.12712,0.48818
-1.13299,0,0,16.133,16.133,13.867,13.867,0.419625,3.15248,-3.17191,0.0554811,0.0860174,0.0131527,0,0,4.2175,0.175,-3.0625,0.070638,0.090768,-0.998082,-0.07252,0.12712,0.48818
-0.9137,0,0,15.9137,15.9137,14.0863,14.0863,0.338407,3.21414,-3.24976,0.0544065,0.0846017,0.0131023,0,0,4.83,0.49,-2.87,0.070638,0.090768,-0.998082,-0.07252,0.12712,0.48818
-0.920768,0,0,15.9208,15.9208,14.0792,14.0792,0.341025,3.21481,-3.25281,-0.0743801,-0.0587295,0.212524,1,0,4.9875,0.455,-2.695,-0.058682,-0.05246,-0.800198,-0.07252,0.12712,0.48818
-0.927574,0,0,15.9276,15.9276,14.0724,14.0724,0.343546,3.21566,-3.25482,-0.0743949,-0.0586856,0.212523,1,0,4.9,0.56,-2.0825,-0.058682,-0.05246,-0.800198,-0.07252,0.12712,0.48818
-0.928443,0,0,15.9284,15.9284,14.0716,14.0716,0.343868,3.21627,-3.25595,0.114748,-0.0619774,-0.190626,1,0,3.64,0.42,-1.575,0.131272,-0.055754,-1.20024,-0.07252,0.12712,0.48818
-0.926321,0,0,15.9263,15.9263,14.0737,14.0737,0.343082,3.21636,-3.25625,0.114746,-0.0619911,-0.190626,1,0,2.9925,0.1225,-1.085,0.131272,-0.055754,-1.20024,-0.07252,0.12712,0.48818
-0.923411,0,0,15.9234,15.9234,14.0766,14.0766,0.342004,3.21543,-3.25619,0.0949601,0.167588,0.26244,1,0,2.8175,-0.4725,-0.875,0.111386,0.173606,-0.750666,-0.07252,0.12712,0.48818
-0.922381,0,0,15.9224,15.9224,14.0776,14.0776,0.341622,3.21429,-3.25484,0.09498,0.167582,0.262441,1,0,3.1675,-0.595,-0.1225,0.111386,0.173606,-0.750666,-0.07336,0.12922,0.50064
-0.924687,0,0,15.9247,15.9247,14.0753,14.0753,0.342477,3.21303,-3.25316,-0.348421,0.112762,-0.222343,1,0,3.85,-0.665,0.07,-0.333914,0.118828,-1.23171,-0.07336,0.12922,0.50064
-0.928909,0,0,15.9289,15.9289,14.0711,14.0711,0.34404,3.212,-3.25052,-0.348403,0.112789,-0.222343,1,0,4.2175,-0.525,0.63,-0.333914,0.118828,-1.23171,-0.07336,0.12922,0.50064
-1.47922,0,0,16.4792,16.4792,13.5208,13.5208,0.54786,3.09184,-3.13598,-0.107103,-0.198745,0.0575759,0,0,4.1475,-0.1225,0.56,-0.093696,-0.195932,-0.95404,-0.07336,0.12922,0.50064
-2.02133,0,0,17.0213,17.0213,12.9787,12.9787,0.748641,2.9742,-3.02223,-0.105053,-0.195245,0.0576449,0,0,4.3575,0.0525,0.7875,-0.093696,-0.195932,-0.95404,-0.07336,0.12922,0.50064
-2.30663,0,0,17.3066,17.3066,12.6934,12.6934,0.854309,3.17622,-3.20222,0.171451,-0.100346,0.0997243,0,0,3.605,0.1575,1.05,0.187514,-0.102968,-0.912072,-0.07336,0.12922,0.50064
-2.58754,0,0,17.5875,17.5875,12.4125,12.4125,0.958348,3.37352,-3.38079,0.168013,-0.098536,0.0994989,0,0,3.64,-0.4375,1.295,0.187514,-0.102968,-0.912072,-0.07336,0.12922,0.50064
-2.58896,0,0,17.589,17.589,12.411,12.411,0.958875,3.37326,-3.37734,0.168017,-0.0850929,-0.110374,1,0,3.605,-0.0525,1.1025,0.187514,-0.089548,-1.12033,-0.07336,0.12922,0.50064
-2.5897,0,0,17.5897,17.5897,12.4103,12.4103,0.959146,3.37192,-3.3745,0.16804,-0.0850882,-0.110373,1,0,3.4825,-0.6825,0.7525,0.187514,-0.089548,-1.12033,-0.07336,0.12922,0.50064
-2.73864,0,0,17.7386,17.7386,12.2614,12.2614,1.01431,3.32983,-3.34725,-0.0342287,-0.0623879,-0.092027,0,0,3.6925,-0.8925,0.595,-0.016348,-0.067832,-1.10215,-0.07196,0.1288,0.4935
-2.8828,0,0,17.8828,17.8828,12.1172,12.1172,1.0677,3.28977,-3.32048,-0.0335307,-0.061457,-0.0920036,0,0,3.2375,-0.175,0.4025,-0.016348,-0.067832,-1.10215,-0.07196,0.1288,0.4935
-2.88441,0,0,17.8844,17.8844,12.1156,12.1156,1.0683,3.29004,-3.31897,0.137638,-0.206777,-0.0669225,1,0,3.71,0.245,-0.035,0.15555,-0.213012,-1.07726,-0.07196,0.1288,0.4935
-2.88404,0,0,17.884,17.884,12.116,12.116,1.06816,3.28997,-3.3183,0.137639,-0.20678,-0.0669224,1,0,3.325,0.035,-0.525,0.15555,-0.213012,-1.07726,-0.07196,0.1288,0.4935
-2.88426,0,0,17.8843,17.8843,12.1157,12.1157,1.06824,3.29027,-3.31868,-0.0558928,-0.184551,-0.0829061,1,0,3.4825,0.245,-1.1375,-0.038796,-0.190808,-1.09312,-0.07196,0.1288,0.4935
-2.88632,0,0,17.8863,17.8863,12.1137,12.1137,1.06901,3.29124,-3.3192,-0.0559097,-0.184538,-0.0829073,1,0,3.8675,0.63,-1.225,-0.038796,-0.190808,-1.09312,-0.07196,0.1288,0.4935
-2.88763,0,0,17.8876,17.8876,12.1124,12.1124,1.06949,3.29206,-3.32129,-0.130273,-0.0649675,-0.248028,1,0,3.7625,0.525,-2.135,-0.11346,-0.07137,-1.25697,-0.07196,0.1288,0.4935
-2.88893,0,0,17.8889,17.8889,12.1111,12.1111,1.06998,3.29287,-3.32337,-0.130287,-0.0649591,-0.248029,1,0,3.7625,0.525,-2.135,-0.11346,-0.07137,-1.25697,-0.07196,0.1288,0.4935
-2.89161,0,0,17.8916,17.8916,12.1084,12.1084,1.07097,3.29414,-3.32749,-0.0622775,0.0458271,-0.125082,1,0,4.1125,0.77,-3.325,-0.04514,0.039284,-1.13497,-0.0756,0.12838,0.4949
-2.89195,0,0,17.892,17.892,12.108,12.108,1.07109,3.29486,-3.33201,0.0384217,-0.0631078,-0.144755,1,0,3.64,0.4375,-3.5525,0.055998,-0.06954,-1.15449,-0.0756,0.12838,0.4949
-2.89507,0,0,17.8951,17.8951,12.1049,12.1049,1.07225,3.29506,-3.33657,0.0384181,-0.0630877,-0.144755,1,0,4.2175,0.14,-3.57,0.055998,-0.06954,-1.15449,-0.0756,0.12838,0.4949
-2.89908,0,0,17.8991,17.8991,12.1009,12.1009,1.07373,3.29446,-3.34129,-0.00797898,0.0334184,0.154624,1,0,4.41,-0.3325,-3.6575,0.009394,0.02684,-0.857416,-0.0756,0.12838,0.4949
-2.8983,0,0,17.8983,17.8983,12.1017,12.1017,1.07344,3.29411,-3.34655,-0.00797289,0.0334133,0.154625,1,0,3.43,-0.1925,-3.9725,0.009394,0.02684,-0.857416,-0.0756,0.12838,0.4949
-2.89862,0,0,17.8986,17.8986,12.1014,12.1014,1.07356,3.29412,-3.35171,-0.0693233,0.0113105,0.391915,1,0,3.6575,0.0175,-3.92,-0.052216,0.004758,-0.621956,-0.0756,0.12838,0.4949
-2.89622,0,0,17.8962,17.8962,12.1038,12.1038,1.07267,3.29377,-3.35544,-0.0693172,0.011295,0.391916,1,0,3.045,-0.175,-3.08,-0.052216,0.004758,-0.621956,-0.0756,0.12838,0.4949
-2.33419,0,0,17.3342,17.3342,12.6658,12.6658,0.864516,3.3233,-3.41924,0.0152082,0.193545,0.115559,0,0,2.8525,-0.6825,-2.4325,0.033184,0.190442,-0.896212,-0.0756,0.12838,0.4949
-1.78085,0,0,16.7808,16.7808,13.2192,13.2192,0.659573,3.35417,-3.49104,0.0146703,0.189974,0.115576,0,0,2.765,-0.595,-1.6975,0.033184,0.190442,-0.896212,-0.07224,0.13454,0.49336
-1.77846,0,0,16.7785,16.7785,13.2215,13.2215,0.658689,3.35364,-3.4914,0.0369115,0.29572,0.177788,1,0,2.94,-0.245,-1.12,0.05551,0.296094,-0.83448,-0.07224,0.13454,0.49336
-1.78058,0,0,16.7806,16.7806,13.2194,13.2194,0.659475,3.35227,-3.48937,0.0369353,0.295734,0.177789,1,0,3.7975,-0.7175,0.28,0.05551,0.296094,-0.83448,-0.07224,0.13454,0.49336
-1.78408,0,0,16.7841,16.7841,13.2159,13.2159,0.66077,3.35026,-3.48609,-0.0733387,0.131008,-0.118269,1,0,4.0425,-1.085,1.015,-0.055266,0.131516,-1.12826,-0.07224,0.13454,0.49336
-1.78755,0,0,16.7876,16.7876,13.2124,13.2124,0.662057,3.35001,-3.48188,-0.0733342,0.13103,-0.118269,1,0,4.0075,-0.0525,1.54,-0.055266,0.131516,-1.12826,-0.07224,0.13454,0.49336
-2.08404,0,0,17.084,17.084,12.916,12.916,0.771865,3.43951,-3.57328,0.090084,-0.113266,-0.00588729,0,0,4.7425,-0.3325,1.6275,0.11041,-0.114436,-1.01663,-0.07224,0.13454,0.49336
-2.37249,0,0,17.3725,17.3725,12.6275,12.6275,0.878699,3.5275,-3.66253,0.0885511,-0.111406,-0.0060074,0,0,4.025,-0.2625,2.625,0.11041,-0.114436,-1.01663,-0.07224,0.13454,0.49336
-1.67957,0,0,16.6796,16.6796,13.3204,13.3204,0.622061,3.52531,-3.70547,-0.0145521,0.251115,0.0840518,0,0,3.6575,-0.3675,2.52,0.006832,0.252174,-0.927322,-0.07224,0.13454,0.49336
-0.997605,0,0,15.9976,15.9976,14.0024,14.0024,0.369483,3.52044,-3.73861,-0.0144673,0.246715,0.0840951,0,0,3.5175,-0.175,2.065,0.006832,0.252174,-0.927322,-0.0665,0.12586,0.48846
-0.791505,0,0,15.7915,15.7915,14.2085,14.2085,0.29315,3.46394,-3.70669,-0.055517,0.0752629,0.0303114,0,0,2.555,0.105,1.68,-0.03538,0.082228,-0.980758,-0.0665,0.12586,0.48846
-0.588834,0,0,15.5888,15.5888,14.4112,14.4112,0.218087,3.40842,-3.67462,-0.0545498,0.0739554,0.0303753,0,0,2.555,0.105,1.68,-0.03538,0.082228,-0.980758,-0.0665,0.12586,0.48846
-0.589481,0,0,15.5895,15.5895,14.4105,14.4105,0.218326,3.40809,-3.67287,0.0880803,0.0672426,-0.138556,1,0,3.5,-0.1225,0.105,0.107848,0.075518,-1.14839,-0.0665,0.12586,0.48846
-0.590128,0,0,15.5901,15.5901,14.4099,14.4099,0.218566,3.40775,-3.67113,0.0880861,0.0672468,-0.138555,1,0,3.5,-0.1225,0.105,0.107848,0.075518,-1.14839,-0.0665,0.12586,0.48846
-0.594928,0,0,15.5949,15.5949,14.4051,14.4051,0.220344,3.40779,-3.67239,-0.214778,-0.0870905,-0.236177,1,0,4.4625,0.0875,-1.645,-0.196298,-0.07869,-1.24525,-0.0665,0.12586,0.48846
-0.599729,0,0,15.5997,15.5997,14.4003,14.4003,0.222122,3.40782,-3.67364,-0.214779,-0.0870595,-0.236177,1,0,4.4625,0.0875,-1.645,-0.196298,-0.07869,-1.24525,-0.0665,0.12586,0.48846
-0.599762,0,0,15.5998,15.5998,14.4002,14.4002,0.222134,3.4087,-3.6773,0.212228,0.0261522,-0.321012,1,0,3.5525,0.5775,-3.045,0.232532,0.034404,-1.32943,-0.0665,0.12586,0.48846
-0.599794,0,0,15.5998,15.5998,14.4002,14.4002,0.222146,3.40958,-3.68096,0.212213,0.0261524,-0.321013,1,0,3.5525,0.5775,-3.045,0.232532,0.034404,-1.32943,-0.0763,0.13048,0.4837
-0.69436,0,0,15.6944,15.6944,14.3056,14.3056,0.257171,3.36374,-3.65962,-0.0445385,-0.0327129,0.067549,0,0,3.7975,0.9275,-4.515,-0.026108,-0.02501,-0.943914,-0.0763,0.13048,0.4837
-1.16211,0,0,16.1621,16.1621,13.8379,13.8379,0.430409,3.23483,-3.54888,-0.121622,-0.189069,-0.0281165,0,0,2.205,0.77,-4.5325,-0.105774,-0.18422,-1.03895,-0.0763,0.13048,0.4837
-1.62405,0,0,16.624,16.624,13.376,13.376,0.601499,3.107,-3.43848,-0.119395,-0.186086,-0.0280199,0,0,2.6075,-0.0175,-4.095,-0.105774,-0.18422,-1.03895,-0.0763,0.13048,0.4837
-1.62037,0,0,16.6204,16.6204,13.3796,13.3796,0.600136,3.1071,-3.4431,0.100371,0.198589,-0.150477,1,0,2.8,0.105,-3.605,0.114924,0.20008,-1.16046,-0.0763,0.13048,0.4837
-1.61601,0,0,16.616,16.616,13.384,13.384,0.598524,3.10678,-3.44655,0.100377,0.198561,-0.150476,1,0,2.625,-0.14,-2.9225,0.114924,0.20008,-1.16046,-0.0763,0.13048,0.4837
-1.61735,0,0,16.6174,16.6174,13.3826,13.3826,0.599019,3.10639,-3.44913,0.48197,0.0224628,0.00689845,1,0,3.78,-0.175,-2.415,0.498126,0.024156,-1.0043,-0.0763,0.13048,0.4837
-1.61572,0,0,16.6157,16.6157,13.3843,13.3843,0.598413,3.10655,-3.45015,0.481967,0.0224522,0.00689841,1,0,3.115,0.1575,-1.505,0.498126,0.024156,-1.0043,-0.0763,0.13048,0.4837
-1.45844,0,0,16.4584,16.4584,13.5416,13.5416,0.540162,3.16932,-3.52868,0.0499635,0.0570975,0.0661097,0,0,3.6925,0.2275,-1.05,0.065392,0.05978,-0.9455,-0.07574,0.13258,0.48832
-1.49923,0,0,16.4992,16.4992,13.5008,13.5008,0.555271,3.21367,-3.58421,0.0444528,-0.0160378,-0.0213523,0,0,3.6225,-0.14,-0.35,0.060634,-0.013542,-1.03224,-0.07574,0.13258,0.48832
-1.53485,0,0,16.5348,16.5348,13.4652,13.4652,0.568461,3.2582,-3.63822,0.0436768,-0.0158084,-0.0213984,0,0,2.6425,0.455,0.455,0.060634,-0.013542,-1.03224,-0.07574,0.13258,0.48832
-1.49837,0,0,16.4984,16.4984,13.5016,13.5016,0.554953,3.19695,-3.60125,-0.0574252,0.0154655,-0.0890805,0,0,3.7275,-0.105,0.595,-0.041968,0.017934,-1.09946,-0.07574,0.13258,0.48832
-1.46417,0,0,16.4642,16.4642,13.5358,13.5358,0.542287,3.13651,-3.56426,-0.056372,0.0152454,-0.0890202,0,0,4.0775,-0.28,0.63,-0.041968,0.017934,-1.09946,-0.07574,0.13258,0.48832
-1.69182,0,0,16.6918,16.6918,13.3082,13.3082,0.626601,3.02376,-3.46973,-0.0989922,-0.0761005,0.0969687,0,0,4.0425,0.07,0.595,-0.086742,-0.074786,-0.915,-0.07574,0.13258,0.48832
-1.9145,0,0,16.9145,16.9145,13.0855,13.0855,0.709072,2.91302,-3.37607,-0.0970621,-0.074662,0.097052,0,0,3.8325,0.0175,0.4025,-0.086742,-0.074786,-0.915,-0.07574,0.13258,0.48832
-1.9131,0,0,16.9131,16.9131,13.0869,13.0869,0.708554,2.83234,-3.31628,-0.0725733,0.00104844,0.0666315,0,0,2.975,-0.56,0.2975,-0.063562,0.000854,-0.945256,-0.07574,0.13258,0.48832
-1.90664,0,0,16.9066,16.9066,13.0934,13.0934,0.706161,2.75277,-3.25908,-0.0711862,0.00100757,0.0666997,0,0,1.96,-1.05,-0.035,-0.063562,0.000854,-0.945256,-0.07112,0.13314,0.48692
-1.38344,0,0,16.3834,16.3834,13.6166,13.6166,0.512384,2.84041,-3.36802,0.0665086,0.17801,0.119406,0,0,1.4175,-0.735,-0.35,0.07625,0.181048,-0.892918,-0.07112,0.13314,0.48692
-0.871541,0,0,15.8715,15.8715,14.1285,14.1285,0.322793,2.92668,-3.47727,0.0650047,0.174705,0.119354,0,0,2.0125,-0.5775,-0.35,0.07625,0.181048,-0.892918,-0.07112,0.13314,0.48692
-0.865225,0,0,15.8652,15.8652,14.1348,14.1348,0.320454,2.92615,-3.47744,-0.202133,-0.188785,0.192386,1,0,2.1175,-0.245,-1.015,-0.192028,-0.182024,-0.82045,-0.07112,0.13314,0.48692
-0.85891,0,0,15.8589,15.8589,14.1411,14.1411,0.318115,2.92561,-3.47762,-0.202124,-0.188826,0.192387,1,0,2.1175,-0.245,-1.015,-0.192028,-0.182024,-0.82045,-0.07112,0.13314,0.48692
-0.483105,0,0,15.4831,15.4831,14.5169,14.5169,0.178928,2.88104,-3.46531,-0.0462095,0.134094,0.0882996,0,0,4.165,0.14,-0.77,-0.036234,0.142984,-0.923784,-0.07112,0.13314,0.48692
-0.113504,0,0,15.1135,15.1135,14.8865,14.8865,0.0420386,2.8372,-3.45276,-0.0454453,0.131708,0.0883423,0,0,4.165,0.14,-0.77,-0.036234,0.142984,-0.923784,-0.07112,0.13314,0.48692
-0.115662,0,0,15.1157,15.1157,14.8843,14.8843,0.0428377,2.83812,-3.45261,-0.0952705,0.0360964,-0.158047,1,0,3.8675,0.6125,-0.8225,-0.086254,0.047458,-1.16827,-0.07112,0.13314,0.48692
-0.117819,0,0,15.1178,15.1178,14.8822,14.8822,0.0436368,2.83905,-3.45245,-0.0952867,0.0361103,-0.158048,1,0,3.8675,0.6125,-0.8225,-0.086254,0.047458,-1.16827,-0.07406,0.1351,0.4949
-0.1197,0,0,15.1197,15.1197,14.8803,14.8803,0.0443334,2.83976,-3.45122,-0.123727,0.0816758,-0.128664,1,0,3.78,0.49,-0.1925,-0.114802,0.092964,-1.13911,-0.07406,0.1351,0.4949
-0.121581,0,0,15.1216,15.1216,14.8784,14.8784,0.04503,2.84048,-3.44998,-0.123739,0.0816879,-0.128665,1,0,3.78,0.49,-0.1925,-0.114802,0.092964,-1.13911,-0.07406,0.1351,0.4949
-0.824771,0,0,15.8248,15.8248,14.1752,14.1752,0.305471,2.73991,-3.35225,-0.0953807,-0.288701,-0.0303572,0,0,3.3425,0.7,-1.4175,-0.088084,-0.281576,-1.04164,-0.07406,0.1351,0.4949
-1.51655,0,0,16.5166,16.5166,13.4834,13.4834,0.561685,2.64119,-3.25573,-0.0936597,-0.284233,-0.0303102,0,0,3.3425,0.7,-1.4175,-0.088084,-0.281576,-1.04164,-0.07406,0.1351,0.4949
-1.92372,0,0,16.9237,16.9237,13.0763,13.0763,0.71249,2.67324,-3.28598,0.0278747,-0.148242,0.0688541,0,0,2.835,0.2275,-1.61,0.034526,-0.148352,-0.943182,-0.07406,0.1351,0.4949
-2.32424,0,0,17.3242,17.3242,12.6758,12.6758,0.860829,2.70474,-3.3161,0.0273255,-0.145657,0.0687928,0,0,2.835,0.2275,-1.61,0.034526,-0.148352,-0.943182,-0.07406,0.1351,0.4949
-2.32507,0,0,17.3251,17.3251,12.6749,12.6749,0.861138,2.70606,-3.31839,-0.210931,0.00712917,-0.146245,1,0,3.6575,0.8225,-2.2575,-0.204716,0.00427,-1.15656,-0.07406,0.1351,0.4949
-2.05529,0,0,17.0553,17.0553,12.9447,12.9447,0.761218,2.85776,-3.47577,0.143592,0.105285,0.00131205,0,0,3.885,0.56,-2.7475,0.153964,0.104066,-1.01004,-0.06888,0.13048,0.48776
-1.55488,0,0,16.5549,16.5549,13.4451,13.4451,0.575883,3.10262,-3.72965,0.232261,0.196701,0.0339548,0,0,4.445,-0.0525,-2.905,0.247294,0.198616,-0.977464,-0.06888,0.13048,0.48776
-1.05766,0,0,16.0577,16.0577,13.9423,13.9423,0.391727,3.34336,-3.98451,0.228066,0.19349,0.0337457,0,0,3.5525,0.0525,-2.8875,0.247294,0.198616,-0.977464,-0.06888,0.13048,0.48776
-1.06011,0,0,16.0601,16.0601,13.9399,13.9399,0.392634,3.34183,-3.98788,0.0495088,0.181537,0.158786,1,0,4.0425,-0.84,-2.87,0.067954,0.18666,-0.85339,-0.06888,0.13048,0.48776
-1.05831,0,0,16.0583,16.0583,13.9417,13.9417,0.391965,3.34113,-3.99044,0.0495209,0.181526,0.158787,1,0,3.1325,-0.35,-2.3975,0.067954,0.18666,-0.85339,-0.06888,0.13048,0.48776
-0.470604,0,0,15.4706,15.4706,14.5294,14.5294,0.174298,3.38109,-4.07036,0.0342465,0.230003,0.00470994,0,0,3.255,-0.63,-1.82,0.053314,0.238876,-1.00626,-0.06888,0.13048,0.48776
0.105288,0,0,14.8947,14.8947,15.1053,15.1053,-0.0389956,3.41968,-4.1484,0.0335741,0.226287,0.00467438,0,0,3.675,-0.945,-0.665,0.053314,0.238876,-1.00626,-0.06888,0.13048,0.48776
0.108303,0,0,14.8917,14.8917,15.1083,15.1083,-0.0401122,3.41816,-4.14794,0.194569,0.225535,0.324096,1,0,2.7825,-0.8225,-0.6475,0.214964,0.238144,-0.6893,-0.06888,0.13048,0.48776
0.110544,0,0,14.8895,14.8895,15.1105,15.1105,-0.0409423,3.4164,-4.14635,0.1946,0.22552,0.324098,1,0,2.905,-0.9625,0.0175,0.214964,0.238144,-0.6893,-0.0714,0.13146,0.4893
0.47554,0,0,14.5245,14.5245,15.4755,15.4755,-0.176126,3.20042,-3.98186,-0.195493,0.127661,0.114069,0,0,3.5525,-0.7875,0.77,-0.18056,0.14274,-0.89792,-0.0714,0.13146,0.4893
0.836153,0,0,14.1638,14.1638,15.8362,15.8362,-0.309686,2.9889,-3.81509,-0.191807,0.125333,0.114259,0,0,3.2025,-0.315,1.61,-0.18056,0.14274,-0.89792,-0.0714,0.13146,0.4893
