pid_x,pid_y,pid_z,front_left_speed,front_right_speed,back_left_speed,back_right_speed,orientation_x,orientation_y,orientation_z,acceleration_x,acceleration_y,acceleration_z,accel_rejected,mag_rejected,gyro_x,gyro_y,gyro_z,accel_x,accel_y,accel_z,mag_x,mag_y,mag_z
-0.198474,0,0,5.19847,5.19847,5,5,0.496184,-0.0486753,-0.260139,0.042563,-0.42569,0.0958009,0,0,3.78,0,-0.28,0.001586,-0.421754,-0.917562,-0.0567,0.25494,0.32816
-0.392501,0,0,5.3925,5.3925,5,5,0.981253,-0.106097,-0.507517,0.0334819,-0.417713,0.0892971,0,0,3.71,0.1575,-0.1925,-0.00854,-0.422242,-0.923906,-0.0567,0.25494,0.32816
-0.582332,0,0,5.58233,5.58233,5,5,1.45583,-0.159187,-0.754427,0.0352589,-0.409432,0.0851844,0,0,3.7625,-0.28,-0.2275,-0.007686,-0.422242,-0.92781,-0.0567,0.25494,0.32816
-0.768773,0,0,5.76877,5.76877,5,5,1.92193,-0.208165,-0.999945,0.0361137,-0.401301,0.084942,0,0,3.745,0.0175,-0.28,-0.007686,-0.422242,-0.92781,-0.0567,0.25494,0.32816
-0.951723,0,0,5.95172,5.95172,5,5,2.37931,-0.251663,-1.24557,0.0385737,-0.394545,0.0820574,0,0,3.605,-0.0175,-0.2625,-0.005978,-0.423462,-0.930372,-0.0567,0.25494,0.32816
-1.13137,0,0,6.13137,6.13137,5,5,2.82842,-0.290024,-1.48456,0.0392432,-0.386715,0.0816982,0,0,3.605,-0.0175,-0.2625,-0.005978,-0.423462,-0.930372,-0.05292,0.2534,0.33614
-1.308,0,0,6.308,6.308,5,5,3.27,-0.327983,-1.71938,0.037476,-0.376455,0.0885386,0,0,3.5,0.175,-0.245,-0.008418,-0.4209,-0.923174,-0.05292,0.2534,0.33614
-1.48182,0,0,6.48182,6.48182,5,5,3.70456,-0.359148,-1.95574,0.0413,-0.370472,0.0869675,0,0,3.5875,0.035,-0.14,-0.005124,-0.422486,-0.924272,-0.05292,0.2534,0.33614
-1.6528,0,0,6.6528,6.6528,5,5,4.132,-0.38534,-2.19234,0.0435794,-0.364251,0.0852253,0,0,3.7625,0,-0.2275,-0.003294,-0.423706,-0.925492,-0.05292,0.2534,0.33614
-1.82062,0,0,6.82062,6.82062,5,5,4.55155,-0.408834,-2.42722,0.0439895,-0.35695,0.0846681,0,0,3.7275,0.0175,-0.28,-0.003294,-0.423706,-0.925492,-0.05292,0.2534,0.33614
-1.98494,0,0,6.98494,6.98494,5,5,4.96234,-0.433763,-2.65674,0.0412659,-0.34895,0.0838244,0,0,3.675,0.035,-0.175,-0.006466,-0.422852,-0.925736,-0.05292,0.2534,0.33614
-2.14694,0,0,7.14694,7.14694,5,5,5.36734,-0.457953,-2.88295,0.0405948,-0.342033,0.0872422,0,0,3.5875,-0.0175,-0.035,-0.007564,-0.422974,-0.92171,-0.05292,0.2534,0.33614
-2.30569,0,0,7.30569,7.30569,5,5,5.76422,-0.479793,-3.10752,0.0409759,-0.33514,0.0865673,0,0,3.2375,-0.105,-0.1225,-0.007564,-0.422974,-0.92171,-0.05292,0.2534,0.33614
-2.46157,0,0,7.46157,7.46157,5,5,6.15394,-0.494268,-3.33705,0.045359,-0.326787,0.0894245,0,0,3.43,-0.07,-0.14,-0.003416,-0.421388,-0.918172,-0.05222,0.25438,0.33586
-2.61388,0,0,7.61388,7.61388,5,5,6.53471,-0.50677,-3.56423,0.0452128,-0.322015,0.079836,0,0,3.815,0.07,-0.21,-0.003782,-0.423218,-0.926956,-0.05222,0.25438,0.33586
-2.76325,0,0,7.76325,7.76325,5,5,6.90813,-0.522608,-3.78541,0.0414802,-0.313833,0.0823903,0,0,3.7275,-0.035,-0.2625,-0.007808,-0.42151,-0.923662,-0.05222,0.25438,0.33586
-2.9088,0,0,7.9088,7.9088,5,5,7.27201,-0.536275,-4.005,0.0418402,-0.309119,0.0733667,0,0,3.605,-0.175,-0.3675,-0.007686,-0.423096,-0.931836,-0.05222,0.25438,0.33586
-3.05162,0,0,8.05162,8.05162,5,5,7.62905,-0.547552,-4.22266,0.042037,-0.30294,0.0725569,0,0,3.6225,0.035,-0.385,-0.007686,-0.423096,-0.931836,-0.05222,0.25438,0.33586
-3.1921,0,0,8.1921,8.1921,5,5,7.98024,-0.561628,-4.43479,0.0390025,-0.295891,0.0761484,0,0,3.5,-0.07,-0.2975,-0.01098,-0.42212,-0.927444,-0.05222,0.25438,0.33586
-3.33008,0,0,8.33008,8.33008,5,5,8.3252,-0.573823,-4.64506,0.0392154,-0.289932,0.0752925,0,0,3.745,-0.1225,-0.2975,-0.01098,-0.42212,-0.927444,-0.05222,0.25438,0.33586
-3.46504,0,0,8.46504,8.46504,5,5,8.66259,-0.576264,-4.85637,0.0444819,-0.283864,0.0739306,0,0,3.6575,-0.2625,-0.245,-0.005734,-0.421876,-0.927932,-0.05306,0.2534,0.33628
-3.59877,0,0,8.59877,8.59877,5,5,8.99692,-0.577617,-5.06476,0.0440195,-0.278098,0.0807805,0,0,3.535,0.07,-0.175,-0.006222,-0.421876,-0.920246,-0.05306,0.2534,0.33628
-3.72994,0,0,8.72994,8.72994,5,5,9.32486,-0.577486,-5.27121,0.0440172,-0.272448,0.0798693,0,0,3.535,0.035,-0.1925,-0.006222,-0.421876,-0.920246,-0.05306,0.2534,0.33628
-3.86021,0,0,8.86021,8.86021,5,5,9.65053,-0.574052,-5.47719,0.0461441,-0.272582,0.0753675,0,0,3.64,-0.0875,-0.1575,-0.004026,-0.42761,-0.923784,-0.05306,0.2534,0.33628
-3.98799,0,0,8.98799,8.98799,5,5,9.96998,-0.568765,-5.68113,0.0460518,-0.267088,0.0744185,0,0,3.6575,0.1925,-0.1925,-0.004026,-0.42761,-0.923784,-0.05306,0.2534,0.33628
-4.11034,0,0,9.11034,9.11034,5,5,10.2759,-0.567076,-5.87933,0.0415273,-0.255849,0.069915,0,0,3.6925,0.2275,-0.21,-0.00854,-0.421632,-0.927322,-0.05306,0.2534,0.33628
-4.23024,0,0,9.23024,9.23024,5,5,10.5756,-0.564379,-6.07558,0.0414803,-0.250704,0.0689688,0,0,3.57,0.0525,-0.175,-0.00854,-0.421632,-0.927322,-0.05306,0.2534,0.33628
-4.3506,0,0,9.3506,9.3506,5,5,10.8765,-0.553953,-6.2808,0.0476156,-0.248841,0.0758618,0,0,3.675,-0.1225,-0.2975,-0.002196,-0.424926,-0.919514,-0.0546,0.25536,0.33194
-4.46663,0,0,9.46663,9.46663,5,5,11.1666,-0.546817,-6.48079,0.0439679,-0.241918,0.068133,0,0,3.6925,-0.1575,-0.315,-0.005734,-0.422974,-0.926224,-0.0546,0.25536,0.33194
-4.58061,0,0,9.58061,9.58061,5,5,11.4515,-0.535662,-6.68105,0.04596,-0.237285,0.0680203,0,0,3.6925,-0.2625,-0.3675,-0.003538,-0.423218,-0.92537,-0.0546,0.25536,0.33194
-4.6937,0,0,9.6937,9.6937,5,5,11.7342,-0.521527,-6.88071,0.0475356,-0.233306,0.0730554,0,0,3.5175,-0.3675,-0.315,-0.001708,-0.424072,-0.919392,-0.0546,0.25536,0.33194
-4.80477,0,0,9.80477,9.80477,5,5,12.0119,-0.506216,-7.07798,0.0472684,-0.228563,0.0720607,0,0,3.78,-0.175,-0.175,-0.001708,-0.424072,-0.919392,-0.0546,0.25536,0.33194
-4.91043,0,0,9.91043,9.91043,5,5,12.2761,-0.486413,-7.27562,0.0483806,-0.218804,0.0647005,0,0,3.9725,-0.105,-0.1575,-0.000244,-0.418826,-0.925736,-0.0546,0.25536,0.33194
-5.01403,0,0,10.014,10.014,5,5,12.5351,-0.465952,-7.47119,0.0480235,-0.214389,0.0637323,0,0,3.9725,-0.105,-0.1575,-0.000244,-0.418826,-0.925736,-0.0546,0.25536,0.33194
-5.07656,0,0,10.0766,10.0766,5,5,12.6914,-0.626845,-7.53162,-0.0818309,-0.10536,0.0892984,0,0,3.5875,-0.1575,-0.0875,-0.133468,-0.312564,-0.89975,-0.05306,0.25396,0.33698
-5.14446,0,0,10.1445,10.1445,5,5,12.8611,-0.390673,-7.86569,0.190792,-0.167312,-0.0030406,0,0,3.5875,-0.1225,-0.07,0.144448,-0.377346,-0.990762,-0.05306,0.25396,0.33698
-5.21086,0,0,10.2109,10.2109,5,5,13.0271,-0.160009,-8.19542,0.186766,-0.164484,-0.00367073,0,0,3.36,-0.105,0.0525,0.144448,-0.377346,-0.990762,-0.05306,0.25396,0.33698
-5.29086,0,0,10.2909,10.2909,5,5,13.2271,-0.245725,-8.30638,-0.0361222,-0.222149,-0.0931145,0,0,3.36,-0.105,0.0525,-0.080886,-0.438346,-1.07872,-0.05306,0.25396,0.33698
-5.44648,0,0,10.4465,10.4465,5,5,13.6162,0.0169454,-8.64413,0.239925,-0.348172,0.109044,0,0,3.85,-0.035,0.105,0.200934,-0.570838,-0.87657,-0.05306,0.25396,0.33698
-5.5459,0,0,10.5459,10.5459,5,5,13.8647,-0.449525,-8.48242,-0.320851,-0.244921,-0.0330382,0,0,3.4825,0,-0.07,-0.370392,-0.471896,-1.0165,-0.05306,0.25396,0.33698
-5.54631,0,0,10.5463,10.5463,5,5,13.8658,-0.449664,-8.48287,-0.320848,-0.244903,-0.0330425,1,0,4.1825,-0.175,-0.455,-0.370392,-0.471896,-1.0165,-0.05306,0.25396,0.33698
-5.54676,0,0,10.5468,10.5468,5,5,13.8669,-0.450094,-8.48412,-0.00898708,-0.439554,0.0570739,1,0,4.235,-0.455,-0.875,-0.057218,-0.666364,-0.927078,-0.04844,0.2611,0.34188
-5.54692,0,0,10.5469,10.5469,5,5,13.8673,-0.450118,-8.48503,0.0433737,-0.399734,0.0332202,1,0,3.8325,-0.175,-0.735,-0.004636,-0.626592,-0.950746,-0.04844,0.2611,0.34188
-5.59475,0,0,10.5948,10.5948,5,5,13.9869,-0.243474,-8.8041,0.16757,-0.134764,-0.0471774,0,0,3.745,0.1225,-0.805,0.123708,-0.363926,-1.03005,-0.04844,0.2611,0.34188
-5.64084,0,0,10.6408,10.6408,5,5,14.1021,-0.0419099,-9.12009,0.164052,-0.132811,-0.047657,0,0,2.625,-0.0175,-1.015,0.123708,-0.363926,-1.03005,-0.04844,0.2611,0.34188
-5.65811,0,0,10.6581,10.6581,5,5,14.1453,0.150052,-9.43,0.157543,-0.0920238,-0.147801,0,0,2.7125,0.1225,-0.665,0.120536,-0.32391,-1.12923,-0.04844,0.2611,0.34188
-5.7821,0,0,10.7821,10.7821,5,5,14.4552,0.115253,-9.57816,0.0220865,-0.283771,0.0344262,0,0,3.2375,-0.21,-0.4725,-0.016104,-0.520696,-0.947086,-0.04844,0.2611,0.34188
-5.90426,0,0,10.9043,10.9043,5,5,14.7606,0.0820713,-9.72554,0.0226656,-0.278613,0.0330829,0,0,4.095,-0.735,-0.63,-0.016104,-0.520696,-0.947086,-0.04844,0.2611,0.34188
-6.00244,0,0,11.0024,11.0024,5,5,15.0061,-0.0468549,-9.80057,-0.0621894,-0.240155,-0.0245732,0,0,4.2525,3.955,-0.7175,-0.103578,-0.486414,-1.00321,-0.04844,0.2611,0.34188
-6.00293,0,0,11.0029,11.0029,5,5,15.0073,-0.0458221,-9.8012,0.102892,-0.0966357,0.228818,1,0,4.2875,0.455,-0.735,0.06222,-0.343064,-0.751764,-0.05502,0.26628,0.34594
-5.98475,0,0,10.9848,10.9848,5,5,14.9619,-0.16752,-9.89355,-0.0863243,0.0448749,0.000949979,0,0,3.535,0.8925,-0.4025,-0.12993,-0.200934,-0.978074,-0.05502,0.26628,0.34594
-5.96654,0,0,10.9665,10.9665,5,5,14.9163,-0.28703,-9.9851,-0.0842385,0.0441048,0.0011469,0,0,3.01,0.4375,-0.245,-0.12993,-0.200934,-0.978074,-0.05502,0.26628,0.34594
-5.98304,0,0,10.983,10.983,5,5,14.9576,0.0033923,-10.3453,0.192904,-0.0344563,0.0508904,0,0,3.6225,-0.5425,0.07,0.153476,-0.280112,-0.928542,-0.05502,0.26628,0.34594
-6.05264,0,0,11.0526,11.0526,5,5,15.1316,-0.12088,-10.4288,-0.0714667,-0.234133,-0.179814,0,0,3.5525,-0.2975,0.2975,-0.114192,-0.48251,-1.15668,-0.05502,0.26628,0.34594
-6.05295,0,0,11.0529,11.0529,5,5,15.1324,-0.121199,-10.4281,-0.0714611,-0.23412,-0.179817,1,0,4.0425,-0.105,0.2275,-0.114192,-0.48251,-1.15668,-0.05502,0.26628,0.34594
-6.05271,0,0,11.0527,11.0527,5,5,15.1318,-0.122167,-10.4265,0.016147,-0.185279,-0.0502267,1,0,3.2725,-0.3325,0.84,-0.02623,-0.43371,-1.02809,-0.05502,0.26628,0.34594
-6.05204,0,0,11.052,11.052,5,5,15.1301,-0.123513,-10.4248,0.390954,-0.00394891,-0.328083,1,0,2.6775,-0.5425,0.91,0.35014,-0.25254,-1.30381,-0.05166,0.27174,0.36372
-5.9846,0,0,10.9846,10.9846,5,5,14.9615,-0.173556,-10.5644,-0.0565765,0.14086,-0.0414658,0,0,2.6775,-0.5425,0.77,-0.100162,-0.105042,-1.02016,-0.05166,0.27174,0.36372
-5.91852,0,0,10.9185,10.9185,5,5,14.7963,-0.221426,-10.7017,-0.055741,0.138073,-0.0407283,0,0,2.73,0.56,1.4175,-0.100162,-0.105042,-1.02016,-0.05166,0.27174,0.36372
-5.62843,0,0,10.6284,10.6284,5,5,14.0711,-0.137435,-10.9048,-0.0421427,0.639603,0.0861174,0,0,3.6925,-0.595,1.645,-0.085034,0.408212,-0.897432,-0.05166,0.27174,0.36372
-5.62911,0,0,10.6291,10.6291,5,5,14.0728,-0.139084,-10.9027,0.157609,-0.269235,0.476472,1,0,4.5675,-0.665,1.225,0.115534,-0.499712,-0.510082,-0.05166,0.27174,0.36372
-5.63046,0,0,10.6305,10.6305,5,5,14.0762,-0.139044,-10.9008,0.157608,-0.269178,0.476457,1,0,5.5125,0.2625,0.8575,0.115534,-0.499712,-0.510082,-0.05166,0.27174,0.36372
-5.63204,0,0,10.632,10.632,5,5,14.0801,-0.136866,-10.8991,-0.0445823,-0.116697,-0.101786,1,0,5.8275,1.435,0.385,-0.087474,-0.347456,-1.08385,-0.05166,0.27174,0.36372
-5.63293,0,0,10.6329,10.6329,5,5,14.0823,-0.136339,-10.898,0.488974,-0.212285,0.0627095,1,0,4.8475,0.42,0.315,0.44835,-0.442982,-0.920612,-0.05558,0.27594,0.36652
-5.51106,0,0,10.5111,10.5111,5,5,13.7776,0.00495557,-11.1744,0.0508599,0.256528,-0.00350637,0,0,4.8125,-1.68,-0.9625,0.010858,0.0305,-0.98759,-0.05558,0.27594,0.36652
-5.39039,0,0,10.3904,10.3904,5,5,13.476,0.14411,-11.4511,0.0484312,0.251411,-0.00226904,0,0,3.29,-0.3325,-1.3475,0.010858,0.0305,-0.98759,-0.05558,0.27594,0.36652
-5.39004,0,0,10.39,10.39,5,5,13.4751,0.147411,-11.4522,-0.248416,-0.00311613,-0.10087,1,0,3.115,1.6975,-1.295,-0.287188,-0.223748,-1.08543,-0.05558,0.27594,0.36652
-5.5752,0,0,10.5752,10.5752,5,5,13.938,-0.0128442,-11.4925,-0.0407941,-0.353464,0.181721,0,0,1.8725,1.6625,-1.365,-0.081496,-0.581574,-0.803126,-0.05558,0.27594,0.36652
-5.75717,0,0,10.7572,10.7572,5,5,14.3929,-0.169083,-11.5354,-0.0380672,-0.345766,0.179774,0,0,2.45,0.14,-1.61,-0.081496,-0.581574,-0.803126,-0.05558,0.27594,0.36652
-5.90995,0,0,10.91,10.91,5,5,14.7749,-0.160446,-11.6902,0.0651663,-0.354092,0.0625244,0,0,2.975,0.4725,-1.82,0.022326,-0.596336,-0.917806,-0.05558,0.27594,0.36652
-5.91051,0,0,10.9105,10.9105,5,5,14.7763,-0.158492,-11.6922,0.228409,0.0460186,0.136779,1,0,4.3925,0.7875,-1.5925,0.186294,-0.196664,-0.844118,-0.04634,0.2758,0.36414
-5.97656,0,0,10.9766,10.9766,5,5,14.9414,0.317169,-12.1716,0.335033,-0.125718,0.138488,0,0,5.145,-0.2625,-1.575,0.301706,-0.371002,-0.841678,-0.04634,0.2758,0.36414
-6.04136,0,0,11.0414,11.0414,5,5,15.1034,0.781702,-12.6441,0.326925,-0.123007,0.13768,0,0,5.145,-0.2625,-1.575,0.301706,-0.371002,-0.841678,-0.04634,0.2758,0.36414
-6.04167,0,0,11.0417,11.0417,5,5,15.1042,0.779493,-12.646,0.0752456,-0.250006,-0.0906384,1,0,4.06,-1.575,-0.9625,0.048922,-0.497882,-1.06823,-0.04634,0.2758,0.36414
-6.04137,0,0,11.0414,11.0414,5,5,15.1034,0.779328,-12.6469,0.0752485,-0.250019,-0.0906348,1,0,3.185,-0.2625,-0.7,0.048922,-0.497882,-1.06823,-0.04634,0.2758,0.36414
-6.04056,0,0,11.0406,11.0406,5,5,15.1014,0.779815,-12.6474,0.234143,-0.313192,-0.143863,1,0,2.485,0.175,-0.5425,0.208498,-0.560956,-1.12106,-0.04634,0.2758,0.36414
-6.0404,0,0,11.0404,11.0404,5,5,15.101,0.779798,-12.6462,0.234144,-0.313199,-0.143861,1,0,3.3775,0.14,0.455,0.208498,-0.560956,-1.12106,-0.04634,0.2758,0.36414
-6.09867,0,0,11.0987,11.0987,5,5,15.2467,0.633323,-12.7193,-0.0809852,-0.140859,-0.0335962,0,0,3.1675,-0.035,0.735,-0.110532,-0.391254,-1.01101,-0.04634,0.2758,0.36414
-6.15596,0,0,11.156,11.156,5,5,15.3899,0.491673,-12.7929,-0.0785131,-0.138442,-0.034233,0,0,3.5,0.385,0.7175,-0.110532,-0.391254,-1.01101,-0.04746,0.27468,0.3563
-6.30994,0,0,11.3099,11.3099,5,5,15.7748,0.256586,-12.7808,-0.107697,-0.3408,0.0671418,0,0,3.2725,0.14,0.665,-0.14396,-0.599874,-0.908656,-0.04746,0.27468,0.3563
-6.461,0,0,11.461,11.461,5,5,16.1525,0.0276983,-12.7709,-0.103702,-0.33446,0.0653386,0,0,3.64,-0.8225,1.1025,-0.14396,-0.599874,-0.908656,-0.04746,0.27468,0.3563
-6.41759,0,0,11.4176,11.4176,5,5,16.044,0.0931052,-12.983,0.0309771,0.0785842,-0.0735609,0,0,4.7075,-1.295,1.2775,-0.007564,-0.18544,-1.047,-0.04746,0.27468,0.3563
-6.37461,0,0,11.3746,11.3746,5,5,15.9365,0.158221,-13.1938,0.0298406,0.0767809,-0.0730468,0,0,4.095,-0.2275,1.05,-0.007564,-0.18544,-1.047,-0.04746,0.27468,0.3563
-6.3747,0,0,11.3747,11.3747,5,5,15.9367,0.156816,-13.1925,0.0415277,-0.0591425,-0.334805,1,0,3.7275,-0.63,0.6825,0.004148,-0.321226,-1.30674,-0.04746,0.27468,0.3563
-6.37399,0,0,11.374,11.374,5,5,15.935,0.155526,-13.1915,0.0415502,-0.0591719,-0.334797,1,0,2.625,-0.595,0.56,0.004148,-0.321226,-1.30674,-0.04746,0.27468,0.3563
-6.37361,0,0,11.3736,11.3736,5,5,15.934,0.154795,-13.1907,-0.396514,-0.109749,-0.0850835,1,0,3.0625,-0.315,0.35,-0.435784,-0.371734,-1.05896,-0.04746,0.27468,0.3563
-6.37302,0,0,11.373,11.373,5,5,15.9325,0.157302,-13.1898,-0.396558,-0.109773,-0.0850766,1,0,2.7825,1.5225,-0.1225,-0.435784,-0.371734,-1.05896,-0.0483,0.2786,0.36064
-6.39675,0,0,11.3968,11.3968,5,5,15.9919,-0.293728,-13.0497,-0.306076,-0.0265891,0.0160621,0,0,2.9225,1.26,-0.1925,-0.352824,-0.289628,-0.95831,-0.0483,0.2786,0.36064
-6.41989,0,0,11.4199,11.4199,5,5,16.0497,-0.732774,-12.9108,-0.298413,-0.0256376,0.0157175,0,0,3.255,1.645,-0.2625,-0.352824,-0.289628,-0.95831,-0.0483,0.2786,0.36064
-6.39612,0,0,11.3961,11.3961,5,5,15.9903,-0.865321,-12.9786,-0.104031,0.0468772,-0.0573047,0,0,3.5875,1.1375,-0.385,-0.159942,-0.216184,-1.03102,-0.0483,0.2786,0.36064
-6.37325,0,0,11.3732,11.3732,5,5,15.9331,-0.995792,-13.0454,-0.101755,0.0459073,-0.0570657,0,0,4.2525,0.5775,-0.035,-0.159942,-0.216184,-1.03102,-0.0483,0.2786,0.36064
-6.377,0,0,11.377,11.377,5,5,15.9425,-0.961752,-13.218,0.0242395,0.0124828,0.0758063,0,0,3.85,-0.7175,-0.105,-0.032818,-0.249734,-0.89914,-0.0483,0.2786,0.36064
-6.38072,0,0,11.3807,11.3807,5,5,15.9518,-0.928786,-13.3893,0.0236642,0.0126414,0.0757709,0,0,3.885,-0.8575,-0.1225,-0.032818,-0.249734,-0.89914,-0.0483,0.2786,0.36064
-6.38069,0,0,11.3807,11.3807,5,5,15.9517,-0.93055,-13.3904,0.125257,-0.0634451,-0.115414,1,0,3.5525,-1.19,-0.5075,0.069174,-0.32574,-1.08885,-0.0483,0.2786,0.36064
-6.38103,0,0,11.381,11.381,5,5,15.9526,-0.93139,-13.3917,0.125272,-0.0634308,-0.115418,1,0,4.0775,-0.7175,-0.8225,0.069174,-0.32574,-1.08885,-0.0483,0.2786,0.36064
-6.30189,0,0,11.3019,11.3019,5,5,15.7547,-1.13772,-13.4067,-0.181645,0.177972,-0.0973251,0,0,4.6375,-0.385,-0.77,-0.242658,-0.081252,-1.07177,-0.04284,0.2744,0.3577
-6.30246,0,0,11.3025,11.3025,5,5,15.7562,-1.13594,-13.4079,0.193229,-0.173362,-0.274254,1,0,4.3925,0.77,-1.2075,0.133834,-0.432246,-1.24733,-0.04284,0.2744,0.3577
-6.30241,0,0,11.3024,11.3024,5,5,15.756,-1.1336,-13.4091,0.193188,-0.173364,-0.274253,1,0,3.5175,1.1025,-1.2425,0.133834,-0.432246,-1.24733,-0.04284,0.2744,0.3577
-6.30241,0,0,11.3024,11.3024,5,5,15.756,-1.13104,-13.4098,0.145764,-0.210979,-0.148967,1,0,3.605,1.295,-1.0325,0.086254,-0.469822,-1.12301,-0.04284,0.2744,0.3577
-6.30235,0,0,11.3023,11.3023,5,5,15.7559,-1.13043,-13.4106,0.145753,-0.210981,-0.148966,1,0,3.5175,0.175,-0.7875,0.086254,-0.469822,-1.12301,-0.04284,0.2744,0.3577
-6.3719,0,0,11.3719,11.3719,5,5,15.9297,-1.15932,-13.5244,0.00387592,-0.163245,-5.30999e-05,0,0,3.4825,-0.35,-0.665,-0.05673,-0.425048,-0.974414,-0.04284,0.2744,0.3577
-6.44036,0,0,11.4404,11.4404,5,5,16.1009,-1.18789,-13.6372,0.00437434,-0.160377,-0.000886883,0,0,3.92,-1.0325,-0.49,-0.05673,-0.425048,-0.974414,-0.04284,0.2744,0.3577
-6.44064,0,0,11.4406,11.4406,5,5,16.1016,-1.18895,-13.6379,0.218329,-0.23181,-0.419899,1,0,3.99,-0.7525,-0.4725,0.158112,-0.496418,-1.39019,-0.04284,0.2744,0.3577
-6.44078,0,0,11.4408,11.4408,5,5,16.102,-1.19077,-13.6382,0.218361,-0.231804,-0.419902,1,0,3.815,-1.1025,-0.07,0.158112,-0.496418,-1.39019,-0.03934,0.28112,0.36246
-6.44076,0,0,11.4408,11.4408,5,5,16.1019,-1.19243,-13.6383,0.142583,0.0250275,-0.357198,1,0,3.57,-0.98,0,0.081984,-0.239852,-1.32797,-0.03934,0.28112,0.36246
-6.4405,0,0,11.4405,11.4405,5,5,16.1013,-1.19242,-13.638,0.142583,0.0250169,-0.357195,1,0,3.255,0.0175,-0.07,0.081984,-0.239852,-1.32797,-0.03934,0.28112,0.36246
-6.44045,0,0,11.4404,11.4404,5,5,16.1011,-1.19173,-13.6375,0.0682214,-0.220582,-0.0225282,1,0,3.535,0.4375,-0.0525,0.00732,-0.485194,-0.995886,-0.03934,0.28112,0.36246
-6.44062,0,0,11.4406,11.4406,5,5,16.1016,-1.19119,-13.6366,0.068212,-0.220575,-0.0225302,1,0,3.8675,0.4025,0.1575,0.00732,-0.485194,-0.995886,-0.03934,0.28112,0.36246
-6.44138,0,0,11.4414,11.4414,5,5,16.1034,-1.19144,-13.6363,0.239268,-0.582527,0.0229515,1,0,4.6725,-0.1225,0,0.179096,-0.846802,-0.950746,-0.03934,0.28112,0.36246
-6.4423,0,0,11.4423,11.4423,5,5,16.1058,-1.19138,-13.635,0.239267,-0.582488,0.0229404,1,0,4.9175,0.21,0.49,0.179096,-0.846802,-0.950746,-0.03934,0.28112,0.36246
-6.44321,0,0,11.4432,11.4432,5,5,16.108,-1.19083,-13.6337,0.460726,-0.117513,-0.0600607,1,0,4.9,0.49,0.42,0.401502,-0.382348,-1.0331,-0.03934,0.28112,0.36246
-6.44399,0,0,11.444,11.444,5,5,16.11,-1.19134,-13.6322,0.460735,-0.117481,-0.0600703,1,0,4.725,-0.07,0.7175,0.401502,-0.382348,-1.0331,-0.04326,0.273,0.35574
-6.46895,0,0,11.469,11.469,5,5,16.1724,-1.44521,-13.5948,-0.173243,-0.050759,-0.0256765,0,0,4.41,-0.6825,0.5425,-0.239608,-0.316712,-0.99857,-0.04326,0.273,0.35574
-6.49289,0,0,11.4929,11.4929,5,5,16.2322,-1.69149,-13.5579,-0.168946,-0.0497895,-0.0260807,0,0,3.9025,-0.14,0.42,-0.239608,-0.316712,-0.99857,-0.04326,0.273,0.35574
-6.56449,0,0,11.5645,11.5645,5,5,16.4112,-2.06238,-13.4263,-0.22249,-0.112801,0.0913605,0,0,3.7625,-0.1925,0.385,-0.299876,-0.382592,-0.880962,-0.04326,0.273,0.35574
-6.63421,0,0,11.6342,11.6342,5,5,16.5855,-2.42191,-13.2968,-0.21622,-0.109956,0.090262,0,0,3.5,0.6475,0.2975,-0.299876,-0.382592,-0.880962,-0.04326,0.273,0.35574
-6.76576,0,0,11.7658,11.7658,5,5,16.9144,-2.68019,-13.2222,-0.117322,-0.202835,0.196366,0,0,3.5525,0.525,0.0175,-0.205082,-0.480802,-0.773846,-0.04326,0.273,0.35574
-6.89504,0,0,11.895,11.895,5,5,17.2376,-2.92914,-13.1503,-0.112982,-0.197512,0.194508,0,0,4.1825,1.3125,-0.175,-0.205082,-0.480802,-0.773846,-0.04326,0.273,0.35574
-6.89557,0,0,11.8956,11.8956,5,5,17.2389,-2.92717,-13.1498,-0.0282198,-0.194191,0.246633,1,0,4.375,1.155,-0.2975,-0.119926,-0.477508,-0.722118,-0.04326,0.273,0.35574
-6.89642,0,0,11.8964,11.8964,5,5,17.241,-2.92587,-13.1496,-0.0282424,-0.194156,0.246624,1,0,4.795,0.7175,-0.3675,-0.119926,-0.477508,-0.722118,-0.04284,0.27006,0.35056
-6.8973,0,0,11.8973,11.8973,5,5,17.2433,-2.92513,-13.1497,0.191634,-0.349586,-0.156412,1,0,4.8475,0.3675,-0.385,0.100894,-0.632814,-1.12203,-0.04284,0.27006,0.35056
-6.89778,0,0,11.8978,11.8978,5,5,17.2445,-2.92487,-13.1501,0.191629,-0.349566,-0.156418,1,0,4.27,0.0525,-0.4725,0.100894,-0.632814,-1.12203,-0.04284,0.27006,0.35056
-6.89798,0,0,11.898,11.898,5,5,17.245,-2.92479,-13.1503,0.101121,0.129912,-0.270517,1,0,3.885,-0.035,-0.3675,0.010004,-0.153842,-1.23525,-0.04284,0.27006,0.35056
-6.89804,0,0,11.898,11.898,5,5,17.2451,-2.9255,-13.1507,0.101133,0.129914,-0.270518,1,0,3.675,-0.5075,-0.35,0.010004,-0.153842,-1.23525,-0.04284,0.27006,0.35056
-7.02205,0,0,12.022,12.022,5,5,17.5551,-3.32567,-12.9766,-0.199251,-0.165598,0.225567,0,0,3.29,-0.5775,-0.665,-0.298656,-0.454084,-0.741028,-0.04284,0.27006,0.35056
-7.14331,0,0,12.1433,12.1433,5,5,17.8583,-3.71417,-12.807,-0.192484,-0.160694,0.223564,0,0,3.185,-0.3675,-0.91,-0.298656,-0.454084,-0.741028,-0.04284,0.27006,0.35056
-7.1432,0,0,12.1432,12.1432,5,5,17.858,-3.71435,-12.8082,0.230047,-0.383336,0.0925023,1,0,3.4125,-0.35,-0.8575,0.12566,-0.67649,-0.87108,-0.04284,0.27006,0.35056
-7.14373,0,0,12.1437,12.1437,5,5,17.8593,-3.71446,-12.8093,0.230049,-0.383313,0.092495,1,0,4.3225,-0.28,-0.7875,0.12566,-0.67649,-0.87108,-0.04452,0.26572,0.34748
-7.14436,0,0,12.1444,12.1444,5,5,17.8609,-3.71439,-12.8103,0.25641,0.207561,0.089413,1,0,4.445,-0.175,-0.7875,0.152134,-0.086254,-0.87413,-0.04452,0.26572,0.34748
-7.14566,0,0,12.1457,12.1457,5,5,17.8642,-3.71455,-12.8108,0.256413,0.207616,0.0893954,1,0,5.425,-0.21,-0.455,0.152134,-0.086254,-0.87413,-0.04452,0.26572,0.34748
-7.14662,0,0,12.1466,12.1466,5,5,17.8665,-3.71419,-12.811,0.60835,-0.287447,-0.517737,1,0,4.935,0.1225,-0.4375,0.505568,-0.580842,-1.47657,-0.04452,0.26572,0.34748
-7.14696,0,0,12.147,12.147,5,5,17.8674,-3.71475,-12.8114,0.60836,-0.287432,-0.517742,1,0,4.0775,-0.42,-0.35,0.505568,-0.580842,-1.47657,-0.04452,0.26572,0.34748
-7.14698,0,0,12.147,12.147,5,5,17.8674,-3.71505,-12.8122,-0.0526384,-0.0238824,-0.507169,1,0,3.605,-0.3325,-0.5775,-0.158234,-0.317566,-1.46607,-0.04452,0.26572,0.34748
-7.14661,0,0,12.1466,12.1466,5,5,17.8665,-3.71522,-12.8127,-0.0526353,-0.0238975,-0.507164,1,0,3.08,-0.2275,-0.49,-0.158234,-0.317566,-1.46607,-0.04452,0.26572,0.34748
-7.14609,0,0,12.1461,12.1461,5,5,17.8652,-3.71539,-12.813,0.208805,-0.235198,-0.167082,1,0,2.87,-0.175,-0.35,0.10431,-0.528626,-1.12862,-0.04452,0.26572,0.34748
-7.14594,0,0,12.1459,12.1459,5,5,17.8648,-3.71553,-12.8133,0.208807,-0.235205,-0.16708,1,0,3.3775,-0.175,-0.385,0.10431,-0.528626,-1.12862,-0.04452,0.26572,0.34748
-7.14589,0,0,12.1459,12.1459,5,5,17.8647,-3.71584,-12.814,0.307459,-0.360021,-0.0433934,1,0,3.5175,-0.3325,-0.56,0.203374,-0.65331,-1.00589,-0.05376,0.26978,0.35616
-7.14596,0,0,12.146,12.146,5,5,17.8649,-3.71607,-12.8139,0.254981,0.132519,-0.122942,1,0,3.71,-0.14,-0.105,0.15067,-0.161284,-1.08482,-0.05376,0.26978,0.35616
-7.1462,0,0,12.1462,12.1462,5,5,17.8655,-3.71511,-12.8131,0.254964,0.13253,-0.122944,1,0,3.9725,0.6475,0.0525,0.15067,-0.161284,-1.08482,-0.05376,0.26978,0.35616
-7.14649,0,0,12.1465,12.1465,5,5,17.8662,-3.71404,-12.8121,0.135161,-0.0225587,-0.253027,1,0,4.06,0.735,0.105,0.030378,-0.316224,-1.2139,-0.05376,0.26978,0.35616
-7.14661,0,0,12.1466,12.1466,5,5,17.8665,-3.71293,-12.811,0.135142,-0.0225535,-0.253027,1,0,3.815,0.7875,0.21,0.030378,-0.316224,-1.2139,-0.05376,0.26978,0.35616
-7.1468,0,0,12.1468,12.1468,5,5,17.867,-3.71214,-12.8097,0.138287,0.12877,-0.273684,1,0,3.92,0.63,0.3325,0.03355,-0.165066,-1.2344,-0.05376,0.26978,0.35616
-7.14742,0,0,12.1474,12.1474,5,5,17.8685,-3.71291,-12.8086,0.1383,0.128795,-0.273693,1,0,4.515,-0.2625,0.525,0.03355,-0.165066,-1.2344,-0.05376,0.26978,0.35616
-7.14813,0,0,12.1481,12.1481,5,5,17.8703,-3.71382,-12.8075,-0.103198,0.0272149,0.139895,1,0,4.655,-0.3325,0.5775,-0.208986,-0.26657,-0.823988,-0.05222,0.2674,0.35084
-7.20151,0,0,12.2015,12.2015,5,5,18.0038,-3.31773,-13.1266,0.284245,-0.134459,0.0520431,0,0,4.375,0.14,0.5775,0.187026,-0.430416,-0.910852,-0.05222,0.2674,0.35084
-7.25321,0,0,12.2532,12.2532,5,5,18.133,-2.93149,-13.4416,0.277513,-0.132204,0.0516939,0,0,3.325,0.07,0.245,0.187026,-0.430416,-0.910852,-0.05222,0.2674,0.35084
-7.27886,0,0,12.2789,12.2789,5,5,18.1972,-2.84498,-13.5768,0.0648635,-0.0626048,0.012197,0,0,3.0975,-0.0875,0.175,-0.02501,-0.361974,-0.94977,-0.05222,0.2674,0.35084
-7.3043,0,0,12.3043,12.3043,5,5,18.2607,-2.76027,-13.7102,0.0633868,-0.0615294,0.011919,0,0,3.4475,0.14,0.3325,-0.02501,-0.361974,-0.94977,-0.05222,0.2674,0.35084
-7.30464,0,0,12.3046,12.3046,5,5,18.2616,-2.76019,-13.7093,0.114409,-0.135524,0.175436,1,0,4.1125,0.175,0.245,0.02623,-0.435906,-0.78751,-0.05222,0.2674,0.35084
-7.30512,0,0,12.3051,12.3051,5,5,18.2628,-2.75967,-13.7091,0.1144,-0.135504,0.17543,1,0,4.2875,0.2975,-0.1925,0.02623,-0.435906,-0.78751,-0.05222,0.2674,0.35084
-7.41834,0,0,12.4183,12.4183,5,5,18.5459,-2.35994,-14.0202,0.309097,-0.257246,0.126463,0,0,4.76,0.1575,-0.3675,0.22875,-0.562298,-0.834846,-0.05222,0.2674,0.35084
-7.52935,0,0,12.5294,12.5294,5,5,18.8234,-1.97193,-14.3325,0.30233,-0.252579,0.125155,0,0,4.165,-0.28,-0.315,0.22875,-0.562298,-0.834846,-0.05348,0.2709,0.34258
-7.65853,0,0,12.6585,12.6585,5,5,19.1463,-1.76742,-14.5305,0.17837,-0.269685,0.140768,0,0,4.0775,-0.1575,-0.525,0.107848,-0.584746,-0.817644,-0.05348,0.2709,0.34258
-7.78541,0,0,12.7854,12.7854,5,5,19.4635,-1.56689,-14.7245,0.174871,-0.264429,0.139035,0,0,4.0775,-0.1575,-0.525,0.107848,-0.584746,-0.817644,-0.05348,0.2709,0.34258
-7.89516,0,0,12.8952,12.8952,5,5,19.7379,-1.54437,-14.816,0.0492268,-0.197753,0.141496,0,0,3.4825,0,-1.015,-0.017934,-0.522648,-0.813618,-0.05348,0.2709,0.34258
-8.00281,0,0,13.0028,13.0028,5,5,20.007,-1.52126,-14.9063,0.0488236,-0.193334,0.13991,0,0,3.4825,0,-1.015,-0.017934,-0.522648,-0.813618,-0.05348,0.2709,0.34258
-8.00306,0,0,13.0031,13.0031,5,5,20.0076,-1.52149,-14.9078,-0.0975627,0.000247164,0.193389,1,0,3.9375,-0.4725,-1.0325,-0.164944,-0.329278,-0.760548,-0.05348,0.2709,0.34258
-8.00331,0,0,13.0033,13.0033,5,5,20.0083,-1.52171,-14.9094,-0.0975587,0.000257408,0.193385,1,0,3.9375,-0.4725,-1.0325,-0.164944,-0.329278,-0.760548,-0.05348,0.2709,0.34258
-7.95723,0,0,12.9572,12.9572,5,5,19.8931,-1.4529,-15.0566,0.030137,0.0954698,-0.0154039,0,0,3.4475,0.0525,-0.9625,-0.035502,-0.232288,-0.968436,-0.05348,0.2709,0.34258
-8.02759,0,0,13.0276,13.0276,5,5,20.069,-1.18324,-15.288,0.205352,-0.172364,0.0565576,0,0,3.4475,0.28,-1.12,0.14518,-0.502762,-0.89609,-0.0504,0.26558,0.34888
-8.0968,0,0,13.0968,13.0968,5,5,20.242,-0.921224,-15.5156,0.20078,-0.1695,0.055596,0,0,3.535,-0.3325,-0.91,0.14518,-0.502762,-0.89609,-0.0504,0.26558,0.34888
-8.09665,0,0,13.0967,13.0967,5,5,20.2416,-0.921341,-15.516,-0.0481423,-0.100383,-0.140505,1,0,3.395,-0.1925,-0.455,-0.104798,-0.43371,-1.09068,-0.0504,0.26558,0.34888
-8.0965,0,0,13.0965,13.0965,5,5,20.2413,-0.921458,-15.5165,-0.0481403,-0.100389,-0.140502,1,0,3.395,-0.1925,-0.455,-0.104798,-0.43371,-1.09068,-0.0504,0.26558,0.34888
-8.06249,0,0,13.0625,13.0625,5,5,20.1562,-0.901556,-15.6267,0.00205047,0.0637019,-0.0446997,0,0,3.64,0,-0.3675,-0.054046,-0.2684,-0.99613,-0.0504,0.26558,0.34888
-8.02915,0,0,13.0292,13.0292,5,5,20.0729,-0.882476,-15.7361,0.0017175,0.0623379,-0.0441946,0,0,3.64,0,-0.3675,-0.054046,-0.2684,-0.99613,-0.0504,0.26558,0.34888
-8.08474,0,0,13.0847,13.0847,5,5,20.2119,-0.671328,-15.9349,0.168841,-0.160569,-0.00662302,0,0,4.3925,-0.0175,0.21,0.117486,-0.493368,-0.958066,-0.0504,0.26558,0.34888
-8.08539,0,0,13.0854,13.0854,5,5,20.2135,-0.672372,-15.9339,-0.119183,-0.0836034,-0.0972459,1,0,4.515,-0.4025,0.5425,-0.171776,-0.416508,-1.04798,-0.0504,0.26558,0.34888
-8.08597,0,0,13.086,13.086,5,5,20.2149,-0.6725,-15.932,-0.119181,-0.0835793,-0.0972548,1,0,4.445,0.28,0.84,-0.171776,-0.416508,-1.04798,-0.056,0.26362,0.34104
-8.16216,0,0,13.1622,13.1622,5,5,20.4054,-0.95708,-15.8274,-0.174593,-0.163288,0.0115641,0,0,4.06,0.1225,1.015,-0.23241,-0.499224,-0.93879,-0.056,0.26362,0.34104
-8.23625,0,0,13.2362,13.2362,5,5,20.5906,-1.23348,-15.7251,-0.169769,-0.160293,0.0103459,0,0,3.6575,0.07,0.945,-0.23241,-0.499224,-0.93879,-0.056,0.26362,0.34104
-8.30179,0,0,13.3018,13.3018,5,5,20.7545,-1.23686,-15.7818,0.0189568,-0.0937464,0.130317,0,0,3.255,-0.2975,1.1375,-0.042944,-0.435418,-0.818742,-0.056,0.26362,0.34104
-8.36643,0,0,13.3664,13.3664,5,5,20.9161,-1.23899,-15.8376,0.0189939,-0.0911114,0.129313,0,0,3.7975,0.0525,1.2075,-0.042944,-0.435418,-0.818742,-0.056,0.26362,0.34104
-8.46023,0,0,13.4602,13.4602,5,5,21.1506,-0.89667,-16.0789,0.249796,-0.192525,0.144177,0,0,4.2,0.2275,1.365,0.194834,-0.540582,-0.802638,-0.056,0.26362,0.34104
-8.55297,0,0,13.553,13.553,5,5,21.3824,-0.561829,-16.3152,0.243952,-0.188728,0.142779,0,0,4.865,0.665,1.225,0.194834,-0.540582,-0.802638,-0.056,0.26362,0.34104
-8.60935,0,0,13.6093,13.6093,5,5,21.5234,-0.425952,-16.452,0.104181,-0.112178,0.0730474,0,0,5.1625,0.5075,1.12,0.056852,-0.466406,-0.870958,-0.056,0.26362,0.34104
-8.66452,0,0,13.6645,13.6645,5,5,21.6613,-0.29566,-16.5956,0.101907,-0.109934,0.0721748,0,0,4.585,-0.07,0.7,0.056852,-0.466406,-0.870958,-0.04956,0.26572,0.34426
-8.77284,0,0,13.7728,13.7728,5,5,21.9321,-0.329764,-16.6279,0.0133314,-0.190913,0.136317,0,0,4.55,-0.1225,0.5775,-0.032696,-0.551684,-0.805566,-0.04956,0.26572,0.34426
-8.87868,0,0,13.8787,13.8787,5,5,22.1967,-0.362046,-16.661,0.0138948,-0.186635,0.134579,0,0,4.0775,-0.455,0.175,-0.032696,-0.551684,-0.805566,-0.04956,0.26572,0.34426
-8.87876,0,0,13.8788,13.8788,5,5,22.1969,-0.362102,-16.6608,0.191386,-0.108592,-0.22812,1,0,3.7275,-0.035,-0.14,0.145546,-0.473726,-1.16547,-0.04956,0.26572,0.34426
-8.87932,0,0,13.8793,13.8793,5,5,22.1983,-0.361722,-16.6618,0.19138,-0.10857,-0.228129,1,0,4.3925,-0.0525,-0.8575,0.145546,-0.473726,-1.16547,-0.04956,0.26572,0.34426
-8.87956,0,0,13.8796,13.8796,5,5,22.1989,-0.360746,-16.663,0.101342,0.162561,0.0708776,1,0,3.9375,0.245,-1.05,0.055144,-0.202886,-0.868762,-0.04956,0.26572,0.34426
-8.88014,0,0,13.8801,13.8801,5,5,22.2003,-0.36005,-16.6652,0.10133,0.162585,0.0708682,1,0,4.41,-0.14,-1.5575,0.055144,-0.202886,-0.868762,-0.04956,0.26572,0.34426
-8.86879,0,0,13.8688,13.8688,5,5,22.172,-0.396405,-16.7331,-0.0287544,0.021923,-0.0258322,0,0,4.4975,-0.2625,-2.275,-0.076128,-0.342942,-0.964898,-0.04956,0.26572,0.34426
-8.85764,0,0,13.8576,13.8576,5,5,22.1441,-0.431899,-16.8004,-0.0281349,0.0214707,-0.0256528,0,0,4.4975,-0.2625,-2.275,-0.076128,-0.342942,-0.964898,-0.04956,0.26572,0.34426
-8.93323,0,0,13.9332,13.9332,5,5,22.3331,-0.418864,-16.86,0.0321375,-0.158422,0.0618693,0,0,4.3225,-0.3675,-2.1,-0.015372,-0.525698,-0.876814,-0.05194,0.26306,0.34426
-8.93349,0,0,13.9335,13.9335,5,5,22.3337,-0.41819,-16.8633,-0.0151322,-0.144977,-0.0872714,1,0,3.955,-0.4025,-2.1525,-0.06283,-0.512278,-1.0248,-0.05194,0.26306,0.34426
-8.93367,0,0,13.9337,13.9337,5,5,22.3342,-0.418064,-16.8668,-0.0151344,-0.14497,-0.0872744,1,0,3.85,-0.735,-2.1175,-0.06283,-0.512278,-1.0248,-0.05194,0.26306,0.34426
-8.96018,0,0,13.9602,13.9602,5,5,22.4005,-0.538568,-16.8659,-0.0647842,-0.0165286,0.0800939,0,0,3.43,-0.7175,-2.03,-0.114802,-0.385032,-0.85827,-0.05194,0.26306,0.34426
-8.98604,0,0,13.986,13.986,5,5,22.4651,-0.655563,-16.8639,-0.0627424,-0.0154941,0.0796437,0,0,3.4125,-0.42,-1.33,-0.114802,-0.385032,-0.85827,-0.05194,0.26306,0.34426
-8.99638,0,0,13.9964,13.9964,5,5,22.4909,-0.589725,-16.9667,0.0438664,-0.000661492,0.0678027,0,0,3.745,-0.4375,-0.7175,-0.006588,-0.370636,-0.86986,-0.05194,0.26306,0.34426
-9.0068,0,0,14.0068,14.0068,5,5,22.517,-0.525351,-17.0677,0.0427429,-0.000237115,0.0676387,0,0,4.0775,-0.14,-0.35,-0.006588,-0.370636,-0.86986,-0.05194,0.26306,0.34426
-9.00775,0,0,14.0077,14.0077,5,5,22.5194,-0.52584,-17.0672,0.163508,0.110692,0.221063,1,0,4.935,-0.1925,0.14,0.11468,-0.25986,-0.717604,-0.05194,0.26306,0.34426
-9.00846,0,0,14.0085,14.0085,5,5,22.5212,-0.525994,-17.0662,0.163511,0.110721,0.221051,1,0,4.62,0.1225,0.385,0.11468,-0.25986,-0.717604,-0.04452,0.2639,0.34272
-9.03311,0,0,14.0331,14.0331,5,5,22.5828,-0.676467,-17.0461,-0.0861888,-0.0170182,0.0602879,0,0,4.55,0.4375,1.155,-0.138714,-0.388448,-0.876692,-0.04452,0.2639,0.34272
-9.05711,0,0,14.0571,14.0571,5,5,22.6428,-0.82273,-17.0264,-0.0836362,-0.0160643,0.0598544,0,0,4.55,0.4375,1.155,-0.138714,-0.388448,-0.876692,-0.04452,0.2639,0.34272
-9.1587,0,0,14.1587,14.1587,5,5,22.8968,-0.661774,-17.1526,0.145835,-0.239485,0.0820245,0,0,3.9025,-0.1225,1.995,0.09455,-0.615734,-0.853024,-0.04452,0.2639,0.34272
-9.25851,0,0,14.2585,14.2585,5,5,23.1463,-0.504104,-17.2763,0.143084,-0.235467,0.0803472,0,0,3.9025,-0.1225,1.995,0.09455,-0.615734,-0.853024,-0.04452,0.2639,0.34272
-9.28748,0,0,14.2875,14.2875,5,5,23.2187,-0.673858,-17.2464,-0.0897574,-0.018641,0.074535,0,0,4.4275,-4.4625,2.5025,-0.142252,-0.400282,-0.85827,-0.04452,0.2639,0.34272
-9.31569,0,0,14.3157,14.3157,5,5,23.2892,-0.838823,-17.2171,-0.0868784,-0.0175252,0.0740141,0,0,4.4275,-4.4625,2.5025,-0.142252,-0.400282,-0.85827,-0.04452,0.2639,0.34272
-9.20973,0,0,14.2097,14.2097,5,5,23.0243,-0.559304,-17.4669,0.138337,0.224089,0.0312565,0,0,4.515,0.2625,2.275,0.088816,-0.154696,-0.902556,-0.04452,0.2639,0.34272
-9.10566,0,0,14.1057,14.1057,5,5,22.7642,-0.286276,-17.7168,0.133572,0.21992,0.0330553,0,0,4.515,0.2625,2.275,0.088816,-0.154696,-0.902556,-0.049,0.26824,0.3507
-9.03457,0,0,14.0346,14.0346,5,5,22.5864,-0.330755,-17.7851,-0.048366,0.171869,0.0165428,0,0,4.76,0.3675,1.26,-0.094672,-0.199836,-0.920124,-0.049,0.26824,0.3507
-8.9648,0,0,13.9648,13.9648,5,5,22.412,-0.374699,-17.8529,-0.0475991,0.169055,0.0177032,0,0,4.76,0.3675,1.26,-0.094672,-0.199836,-0.920124,-0.049,0.26824,0.3507
-9.12805,0,0,14.128,14.128,5,5,22.8201,-0.482865,-17.8045,-0.0189844,-0.334988,0.157571,0,0,4.4275,0.4375,0.175,-0.067832,-0.709918,-0.778604,-0.049,0.26824,0.3507
-9.28808,0,0,14.2881,14.2881,5,5,23.2202,-0.586427,-17.7581,-0.017177,-0.328568,0.154825,0,0,4.4275,0.4375,0.175,-0.067832,-0.709918,-0.778604,-0.049,0.26824,0.3507
-9.2883,0,0,14.2883,14.2883,5,5,23.2208,-0.592541,-17.7622,0.0866785,-0.14427,0.273712,1,0,3.9025,-4.2875,-1.05,0.036356,-0.52582,-0.66063,-0.049,0.26824,0.3507
-9.28853,0,0,14.2885,14.2885,5,5,23.2213,-0.598656,-17.7664,0.0867852,-0.144261,0.273707,1,0,3.9025,-4.2875,-1.05,0.036356,-0.52582,-0.66063,-0.049,0.26824,0.3507
-9.33104,0,0,14.331,14.331,5,5,23.3276,-0.451034,-17.9083,0.12114,-0.129725,-0.0100319,0,0,4.165,-4.4625,-2.38,0.073444,-0.51301,-0.941474,-0.049,0.26824,0.3507
-9.37283,0,0,14.3728,14.3728,5,5,23.4321,-0.306885,-18.0465,0.118625,-0.128045,-0.0107402,0,0,4.165,-4.4625,-2.38,0.073444,-0.51301,-0.941474,-0.04802,0.26614,0.34776
-9.31284,0,0,14.3128,14.3128,5,5,23.2821,-0.584688,-17.9797,-0.182185,0.182915,0.0573929,0,0,4.55,-0.1225,-3.08,-0.233508,-0.199958,-0.874862,-0.04802,0.26614,0.34776
-9.25371,0,0,14.2537,14.2537,5,5,23.1343,-0.856114,-17.9123,-0.177448,0.18052,0.0583547,0,0,4.55,-0.1225,-3.08,-0.233508,-0.199958,-0.874862,-0.04802,0.26614,0.34776
-9.28201,0,0,14.282,14.282,5,5,23.205,-0.802419,-17.9954,0.0432048,-0.063448,0.0214887,0,0,4.4975,-0.4375,-2.8525,-0.01098,-0.444812,-0.910974,-0.04802,0.26614,0.34776
-9.28258,0,0,14.2826,14.2826,5,5,23.2064,-0.801097,-17.9995,0.00442784,0.0323224,-0.140075,1,0,4.375,-0.2625,-2.7125,-0.049898,-0.349164,-1.07128,-0.04802,0.26614,0.34776
-9.31822,0,0,14.3182,14.3182,5,5,23.2956,-0.712695,-18.0979,0.0720104,-0.108518,-0.0182136,0,0,3.9375,-0.455,-2.45,0.01952,-0.491294,-0.94977,-0.04802,0.26614,0.34776
-9.31862,0,0,14.3186,14.3186,5,5,23.2966,-0.71192,-18.1009,0.0326355,-0.171886,-0.0417035,1,0,4.1475,-0.2975,-1.9775,-0.020008,-0.554612,-0.973072,-0.04802,0.26614,0.34776
-9.31926,0,0,14.3193,14.3193,5,5,23.2982,-0.71129,-18.1028,0.300258,0.0699507,-0.160606,1,0,4.4975,-0.14,-1.4,0.248758,-0.313052,-1.09105,-0.04802,0.26614,0.34776
-9.3544,0,0,14.3544,14.3544,5,5,23.386,-0.61415,-18.2167,0.070898,-0.0456315,0.0962591,0,0,4.445,-0.245,-0.8225,0.02013,-0.429928,-0.835578,-0.04844,0.27188,0.3409
-9.38906,0,0,14.3891,14.3891,5,5,23.4727,-0.519805,-18.3276,0.0692515,-0.0442373,0.0956727,0,0,4.6375,-0.175,0.105,0.02013,-0.429928,-0.835578,-0.04844,0.27188,0.3409
-9.41069,0,0,14.4107,14.4107,5,5,23.5267,-0.323318,-18.4981,0.144666,-0.0826865,-0.0184079,0,0,4.9175,-0.665,0.5075,0.099308,-0.469212,-0.948428,-0.04844,0.27188,0.3409
-9.43201,0,0,14.432,14.432,5,5,23.58,-0.131675,-18.6648,0.141322,-0.0818284,-0.0187674,0,0,4.8475,-0.14,1.3125,0.099308,-0.469212,-0.948428,-0.04844,0.27188,0.3409
-9.46886,0,0,14.4689,14.4689,5,5,23.6721,-0.117969,-18.7294,0.0208116,-0.0440837,0.08989,0,0,4.655,0.175,1.6975,-0.021472,-0.432978,-0.83997,-0.04844,0.27188,0.3409
-9.50511,0,0,14.5051,14.5051,5,5,23.7628,-0.104105,-18.7924,0.0205697,-0.0426352,0.0892541,0,0,4.83,0.49,2.205,-0.021472,-0.432978,-0.83997,-0.04844,0.27188,0.3409
-9.50571,0,0,14.5057,14.5057,5,5,23.7643,-0.105006,-18.7877,-0.0489044,-0.230442,0.00195021,1,0,4.445,0.595,2.5025,-0.091256,-0.620614,-0.92659,-0.04844,0.27188,0.3409
-9.50637,0,0,14.5064,14.5064,5,5,23.7659,-0.104971,-18.7827,-0.0489051,-0.230416,0.00193847,1,0,4.55,1.155,2.415,-0.091256,-0.620614,-0.92659,-0.04844,0.27188,0.3409
-9.4986,0,0,14.4986,14.4986,5,5,23.7465,-0.0247616,-18.8932,0.052229,-0.000760928,-0.0325949,0,0,5.2675,0.0175,2.4325,0.011712,-0.390888,-0.960994,-0.04984,0.2716,0.34608
-9.57928,0,0,14.5793,14.5793,5,5,23.9482,0.175386,-19.033,0.154671,-0.151789,0.130729,0,0,4.9,0.42,2.31,0.118096,-0.544974,-0.797514,-0.04984,0.2716,0.34608
-9.65912,0,0,14.6591,14.6591,5,5,24.1478,0.371709,-19.1705,0.151245,-0.148614,0.129294,0,0,5.6,0.7175,1.925,0.118096,-0.544974,-0.797514,-0.04984,0.2716,0.34608
-9.66245,0,0,14.6624,14.6624,5,5,24.1561,0.405057,-19.2544,0.0234673,-0.00681662,0.00370067,0,0,5.5125,-0.245,1.4175,-0.009638,-0.403454,-0.922076,-0.04984,0.2716,0.34608
-9.66569,0,0,14.6657,14.6657,5,5,24.1642,0.439258,-19.3383,0.0228704,-0.00668941,0.00363878,0,0,5.4425,0.4725,0.56,-0.009638,-0.403454,-0.922076,-0.04984,0.2716,0.34608
-9.66716,0,0,14.6672,14.6672,5,5,24.1679,0.440085,-19.3374,0.0115578,-0.13523,0.242501,1,0,5.67,0.63,0.07,-0.020984,-0.53192,-0.68503,-0.04984,0.2716,0.34608
-9.66872,0,0,14.6687,14.6687,5,5,24.1718,0.441058,-19.3382,0.0115408,-0.135168,0.242473,1,0,5.7925,0.2975,-0.875,-0.020984,-0.53192,-0.68503,-0.04984,0.2716,0.34608
-9.71372,0,0,14.7137,14.7137,5,5,24.2843,0.453254,-19.3954,0.0215327,-0.0706053,0.0758085,0,0,4.9,0.2275,-1.085,-0.010736,-0.469212,-0.849608,-0.04984,0.2716,0.34608
-9.75762,0,0,14.7576,14.7576,5,5,24.3941,0.467485,-19.4367,0.0212844,-0.0688608,0.0750173,0,0,4.9175,0.07,-1.785,-0.010736,-0.469212,-0.849608,-0.04844,0.26194,0.3479
-9.75989,0,0,14.7599,14.7599,5,5,24.3997,0.645253,-19.582,0.124482,-0.0447241,-0.0443111,0,0,4.8475,-0.14,-1.9775,0.096014,-0.445178,-0.967948,-0.04844,0.26194,0.3479
-9.76224,0,0,14.7622,14.7622,5,5,24.4056,0.818495,-19.7259,0.121458,-0.0446468,-0.0443886,0,0,4.795,-0.0525,-2.17,0.096014,-0.445178,-0.967948,-0.04844,0.26194,0.3479
-9.81414,0,0,14.8141,14.8141,5,5,24.5354,0.828575,-19.7627,0.0223932,-0.102429,0.0502021,0,0,5.425,0.0175,-2.2225,-0.003294,-0.504958,-0.873154,-0.04844,0.26194,0.3479
-9.86501,0,0,14.865,14.865,5,5,24.6625,0.838218,-19.7997,0.0222249,-0.100412,0.0492761,0,0,5.39,-0.49,-2.345,-0.003294,-0.504958,-0.873154,-0.04844,0.26194,0.3479
-9.8748,0,0,14.8748,14.8748,5,5,24.687,1.19184,-20.0337,0.246026,-0.058791,0.0117451,0,0,5.6175,-0.7175,-2.1175,0.227652,-0.463722,-0.91012,-0.04844,0.26194,0.3479
-9.88463,0,0,14.8846,14.8846,5,5,24.7116,1.53617,-20.2637,0.240018,-0.0584612,0.011436,0,0,5.53,-0.4375,-1.75,0.227652,-0.463722,-0.91012,-0.04844,0.26194,0.3479
-9.86637,0,0,14.8664,14.8664,5,5,24.6659,1.19265,-20.1486,-0.23009,0.0875491,0.00255421,0,0,5.635,-0.385,-1.4525,-0.250466,-0.3172,-0.919392,-0.04844,0.26194,0.3479
-9.84781,0,0,14.8478,14.8478,5,5,24.6195,0.857156,-20.0332,-0.224236,0.0868569,0.00298701,0,0,5.32,-0.4725,-1.085,-0.250466,-0.3172,-0.919392,-0.04844,0.26194,0.3479
-9.84894,0,0,14.8489,14.8489,5,5,24.6223,0.857141,-20.0341,0.0352581,-0.149536,-0.0737534,1,0,5.1975,-0.2625,-0.7,0.010126,-0.553392,-0.99552,-0.04732,0.26068,0.34496
-9.84995,0,0,14.8499,14.8499,5,5,24.6249,0.856785,-20.034,0.0352643,-0.149496,-0.0737716,1,0,5.0225,-0.1925,-0.07,0.010126,-0.553392,-0.99552,-0.04732,0.26068,0.34496
-9.85388,0,0,14.8539,14.8539,5,5,24.6347,1.07585,-20.1964,0.148675,-0.0289496,0.00699834,0,0,5.635,-0.84,0.0875,0.127856,-0.4331,-0.915244,-0.04732,0.26068,0.34496
-9.8576,0,0,14.8576,14.8576,5,5,24.644,1.28939,-20.3556,0.144949,-0.0288344,0.0068609,0,0,5.1275,-0.3325,0.6825,0.127856,-0.4331,-0.915244,-0.04732,0.26068,0.34496
-9.77579,0,0,14.7758,14.7758,5,5,24.4395,1.79492,-20.7092,0.323581,0.132448,-0.0436345,0,0,6.0025,-1.085,0.77,0.316102,-0.268644,-0.966606,-0.04732,0.26068,0.34496
-9.69542,0,0,14.6954,14.6954,5,5,24.2386,2.28731,-21.0601,0.314993,0.129129,-0.042469,0,0,5.6525,-0.4375,1.2425,0.316102,-0.268644,-0.966606,-0.04732,0.26068,0.34496
-9.69642,0,0,14.6964,14.6964,5,5,24.2411,2.28648,-21.0577,-0.0116675,-0.0464494,0.143658,1,0,4.9525,0.1225,1.295,-0.011956,-0.44408,-0.781898,-0.04732,0.26068,0.34496
-9.6976,0,0,14.6976,14.6976,5,5,24.244,2.28508,-21.0555,-0.0116431,-0.046402,0.143637,1,0,5.215,-0.2625,1.26,-0.011956,-0.44408,-0.781898,-0.04732,0.26068,0.34496
-9.69844,0,0,14.6984,14.6984,5,5,24.2461,2.28459,-21.053,-0.110038,-0.0682293,-0.0816189,1,0,4.725,0.315,1.2425,-0.110776,-0.465918,-1.0054,-0.04844,0.2604,0.35154
-9.70007,0,0,14.7001,14.7001,5,5,24.2502,2.28424,-21.0508,0.000277233,-0.209221,-0.0649268,1,0,5.845,0.2975,1.015,0,-0.606828,-0.98881,-0.04844,0.2604,0.35154
-9.70198,0,0,14.702,14.702,5,5,24.255,2.28374,-21.0487,0.00028587,-0.209145,-0.0649608,1,0,6.2475,0.1925,0.98,0,-0.606828,-0.98881,-0.04844,0.2604,0.35154
-9.78622,0,0,14.7862,14.7862,5,5,24.4655,2.0665,-20.9466,-0.119476,-0.168979,0.0343502,0,0,6.44,0.105,0.84,-0.124074,-0.570106,-0.888892,-0.04844,0.2604,0.35154
-9.86768,0,0,14.8677,14.8677,5,5,24.6692,1.85629,-20.8474,-0.115809,-0.165696,0.0329874,0,0,5.4075,0.175,0.3325,-0.124074,-0.570106,-0.888892,-0.04844,0.2604,0.35154
-9.91785,0,0,14.9178,14.9178,5,5,24.7946,1.79895,-20.8418,-0.0212653,-0.0979917,0.0351749,0,0,5.6,0.315,0.105,-0.030134,-0.50447,-0.885842,-0.04844,0.2604,0.35154
-9.96641,0,0,14.9664,14.9664,5,5,24.916,1.74405,-20.8367,-0.0203076,-0.0960575,0.0343115,0,0,4.865,0.4725,-0.0875,-0.030134,-0.50447,-0.885842,-0.04844,0.2604,0.35154
-9.98462,0,0,14.9846,14.9846,5,5,24.9615,1.85119,-20.929,0.0708815,-0.0228188,0.0649065,0,0,4.8125,0.7875,-0.21,0.063318,-0.432002,-0.855098,-0.04844,0.2604,0.35154
-10.0031,0,0,15.0031,15.0031,5,5,25.0076,1.95375,-21.0363,0.0690924,-0.022115,0.064513,0,0,5.2675,0.07,-0.6125,0.063318,-0.432002,-0.855098,-0.04536,0.26712,0.34944
-9.97888,0,0,14.9789,14.9789,5,5,24.9472,1.72657,-20.9924,-0.149506,0.107415,0.056713,0,0,4.8475,0.315,-0.7525,-0.160186,-0.301706,-0.863394,-0.04536,0.26712,0.34944
-9.95582,0,0,14.9558,14.9558,5,5,24.8896,1.50497,-20.9488,-0.14564,0.106548,0.0572357,0,0,6.125,0.2975,-0.8575,-0.160186,-0.301706,-0.863394,-0.04536,0.26712,0.34944
-9.91089,0,0,14.9109,14.9109,5,5,24.7772,1.8909,-21.2277,0.239175,0.0697577,0.0047639,0,0,5.705,0.665,-0.6825,0.23302,-0.336598,-0.916098,-0.04536,0.26712,0.34944
-9.86698,0,0,14.867,14.867,5,5,24.6675,2.26503,-21.5055,0.23265,0.0679197,0.00534949,0,0,5.635,-0.21,-0.9625,0.23302,-0.336598,-0.916098,-0.04536,0.26712,0.34944
-9.88624,0,0,14.8862,14.8862,5,5,24.7156,2.21277,-21.5343,-0.0289693,-0.0209436,0.0334322,0,0,5.565,0.0525,-1.1375,-0.030622,-0.426146,-0.887916,-0.04536,0.26712,0.34944
-9.90493,0,0,14.9049,14.9049,5,5,24.7623,2.16141,-21.5631,-0.0280734,-0.0201891,0.0331222,0,0,5.4075,-0.3675,-1.0675,-0.030622,-0.426146,-0.887916,-0.04536,0.26712,0.34944
-10.1743,0,0,15.1743,15.1743,5,5,25.4359,1.65732,-21.2163,-0.234431,-0.373852,0.424421,0,0,5.3375,0.4375,-1.1025,-0.246684,-0.790194,-0.494954,-0.04536,0.26712,0.34944
-10.4382,0,0,15.4382,15.4382,5,5,26.0955,1.16569,-20.8799,-0.225854,-0.363395,0.419608,0,0,5.6175,-0.3675,-1.085,-0.246684,-0.790194,-0.494954,-0.05012,0.26572,0.34748
-10.4395,0,0,15.4395,15.4395,5,5,26.0987,1.16586,-20.8812,-0.0182375,-0.0963756,0.212047,1,0,5.4075,-0.28,-0.945,-0.038186,-0.523502,-0.70089,-0.05012,0.26572,0.34748
-10.4403,0,0,15.4403,15.4403,5,5,26.1007,1.16604,-20.882,-0.0182407,-0.0963438,0.212031,1,0,4.76,-0.14,-0.6825,-0.038186,-0.523502,-0.70089,-0.05012,0.26572,0.34748
-10.4417,0,0,15.4417,15.4417,5,5,26.1044,1.16475,-20.8834,0.0900256,0.141738,-0.168768,1,0,5.6525,-1.085,-0.6475,0.070516,-0.285724,-1.07872,-0.05012,0.26572,0.34748
-10.443,0,0,15.443,15.443,5,5,26.1075,1.16368,-20.8839,0.0900443,0.141787,-0.168791,1,0,5.3725,-0.7175,-0.1925,0.070516,-0.285724,-1.07872,-0.05012,0.26572,0.34748
-10.4443,0,0,15.4443,15.4443,5,5,26.1107,1.16279,-20.8841,-0.206001,-0.197552,-0.0173431,1,0,5.4075,-0.5425,-0.0875,-0.226798,-0.624762,-0.92842,-0.05012,0.26572,0.34748
-10.4457,0,0,15.4457,15.4457,5,5,26.1142,1.16182,-20.884,-0.205984,-0.197498,-0.0173696,1,0,5.565,-0.5425,0.035,-0.226798,-0.624762,-0.92842,-0.05012,0.26572,0.34748
-10.4466,0,0,15.4466,15.4466,5,5,26.1164,1.16107,-20.8836,0.0863237,-0.165587,-0.0692709,1,0,4.865,-0.2975,0.2275,0.066734,-0.59292,-0.979904,-0.05012,0.26572,0.34748
-10.4477,0,0,15.4477,15.4477,5,5,26.1192,1.15996,-20.8828,0.0863432,-0.165543,-0.069292,1,0,5.1625,-0.4375,0.4375,0.066734,-0.59292,-0.979904,-0.05194,0.26362,0.34846
-10.4489,0,0,15.4489,15.4489,5,5,26.1222,1.15864,-20.8821,0.0683863,0.125897,-0.154395,1,0,5.25,-0.5425,0.49,0.048678,-0.301828,-1.06433,-0.05194,0.26362,0.34846
-10.4502,0,0,15.4502,15.4502,5,5,26.1255,1.1581,-20.8807,0.0683957,0.12595,-0.15442,1,0,5.4775,0.0525,0.665,0.048678,-0.301828,-1.06433,-0.05194,0.26362,0.34846
-10.4194,0,0,15.4194,15.4194,5,5,26.0486,1.52735,-21.1144,0.209801,0.0733846,0.0889808,0,0,5.215,-0.1925,0.525,0.197152,-0.353068,-0.823256,-0.05194,0.26362,0.34846
-10.3897,0,0,15.3897,15.3897,5,5,25.9741,1.8861,-21.346,0.203542,0.0721356,0.0893828,0,0,5.3725,-0.35,0.5775,0.197152,-0.353068,-0.823256,-0.05194,0.26362,0.34846
-10.3907,0,0,15.3907,15.3907,5,5,25.9768,1.88545,-21.3445,0.0725921,0.0837801,0.0838298,1,0,5.0925,0.0175,0.7525,0.065636,-0.341478,-0.828746,-0.05194,0.26362,0.34846
-10.3918,0,0,15.3918,15.3918,5,5,25.9795,1.8848,-21.3429,0.0726035,0.0838226,0.0838096,1,0,5.0925,0.0175,0.7525,0.065636,-0.341478,-0.828746,-0.05194,0.26362,0.34846
-10.2893,0,0,15.2893,15.2893,5,5,25.7232,1.89267,-21.4393,-0.0316471,0.214869,-0.0980527,0,0,4.8475,0.0875,0.175,-0.038918,-0.206546,-1.01114,-0.05194,0.26362,0.34846
-10.1888,0,0,15.1888,15.1888,5,5,25.472,1.8985,-21.5318,-0.0317488,0.210916,-0.096163,0,0,4.8475,0.0875,0.175,-0.038918,-0.206546,-1.01114,-0.0511,0.26138,0.35014
-10.1958,0,0,15.1958,15.1958,5,5,25.4895,1.99335,-21.6084,0.058197,-0.0101263,0.0323821,0,0,4.97,4.2875,-0.1225,0.05307,-0.42761,-0.883402,-0.0511,0.26138,0.35014
-10.2028,0,0,15.2028,15.2028,5,5,25.507,2.08572,-21.6842,0.0565858,-0.00987639,0.0321994,0,0,4.97,4.2875,-0.1225,0.05307,-0.42761,-0.883402,-0.0511,0.26138,0.35014
-10.4323,0,0,15.4323,15.4323,5,5,26.0808,1.73643,-21.4216,-0.16292,-0.41503,0.291752,0,0,4.6025,0.525,-0.56,-0.173484,-0.841434,-0.621712,-0.0511,0.26138,0.35014
-10.657,0,0,15.657,15.657,5,5,26.6424,1.39782,-21.1677,-0.157013,-0.406179,0.287546,0,0,4.6025,0.525,-0.56,-0.173484,-0.841434,-0.621712,-0.0511,0.26138,0.35014
-10.6218,0,0,15.6218,15.6218,5,5,26.5544,2.01465,-21.5169,0.418638,0.0208487,0.0218853,0,0,4.8825,0.665,-0.6125,0.41541,-0.413336,-0.88572,-0.0511,0.26138,0.35014
-10.6523,0,0,15.6523,15.6523,5,5,26.6308,1.76838,-21.4134,-0.151572,-0.0273578,0.0291616,0,0,4.8475,0.5425,-0.6825,-0.161528,-0.462746,-0.878034,-0.0511,0.26138,0.35014
-10.6821,0,0,15.6821,15.6821,5,5,26.7052,1.52886,-21.312,-0.147393,-0.0261447,0.0286869,0,0,5.11,0.315,-1.155,-0.161528,-0.462746,-0.878034,-0.0511,0.26138,0.35014
-10.6842,0,0,15.6842,15.6842,5,5,26.7105,1.74735,-21.4565,0.152145,-0.0421097,-0.0187872,0,0,5.285,-0.385,-1.1025,0.143106,-0.478728,-0.925004,-0.04942,0.26446,0.34888
-10.6859,0,0,15.6859,15.6859,5,5,26.7148,1.96016,-21.5982,0.148432,-0.0420957,-0.0189287,0,0,4.4625,0.0175,-0.6125,0.143106,-0.478728,-0.925004,-0.04942,0.26446,0.34888
-10.7326,0,0,15.7326,15.7326,5,5,26.8314,1.45754,-21.3639,-0.335788,-0.0538404,0.00165881,0,0,4.1825,0.035,-0.5075,-0.35197,-0.492392,-0.903898,-0.04942,0.26446,0.34888
-10.7774,0,0,15.7774,15.7774,5,5,26.9436,0.967639,-21.1326,-0.32724,-0.052013,0.000935086,0,0,4.1825,0.035,-0.5075,-0.35197,-0.492392,-0.903898,-0.04942,0.26446,0.34888
-10.7379,0,0,15.7379,15.7379,5,5,26.8448,1.29604,-21.3425,0.212501,0.0389707,-0.0435083,0,0,4.48,-0.28,-0.1575,0.19581,-0.399916,-0.948672,-0.04942,0.26446,0.34888
-10.8365,0,0,15.8365,15.8365,5,5,27.0912,1.01109,-21.1839,-0.156582,-0.165499,0.0955297,0,0,4.795,0.28,0.0875,-0.179828,-0.608048,-0.80886,-0.04942,0.26446,0.34888
-10.9328,0,0,15.9328,15.9328,5,5,27.332,0.734003,-21.0283,-0.151746,-0.16173,0.0936742,0,0,4.9875,0.0525,0.385,-0.179828,-0.608048,-0.80886,-0.04942,0.26446,0.34888
-10.8179,0,0,15.8179,15.8179,5,5,27.0449,1.0791,-21.2755,0.173887,0.233735,0.0029296,0,0,4.9875,-0.07,0.6125,0.153232,-0.208498,-0.901092,-0.04942,0.26446,0.34888
-10.7048,0,0,15.7048,15.7048,5,5,26.762,1.41411,-21.5163,0.168042,0.229277,0.00504916,0,0,4.2,-0.385,0.595,0.153232,-0.208498,-0.901092,-0.05348,0.26334,0.35098
-10.6835,0,0,15.6835,15.6835,5,5,26.7086,0.914203,-21.3058,-0.352791,0.103467,-0.0458888,0,0,3.7625,-0.56,0.77,-0.378566,-0.333426,-0.95221,-0.05348,0.26334,0.35098
-10.662,0,0,15.662,15.662,5,5,26.655,0.426701,-21.0956,-0.344283,0.102674,-0.0453791,0,0,4.13,-0.1575,0.6125,-0.378566,-0.333426,-0.95221,-0.05348,0.26334,0.35098
-10.6141,0,0,15.6141,15.6141,5,5,26.5352,0.549844,-21.1952,0.0652826,0.089805,-0.0308122,0,0,3.85,-0.0875,0.525,0.034892,-0.344406,-0.938668,-0.05348,0.26334,0.35098
-10.567,0,0,15.567,15.567,5,5,26.4175,0.66965,-21.2941,0.0631917,0.0879572,-0.0299167,0,0,3.5875,0.1225,0.4725,0.034892,-0.344406,-0.938668,-0.05348,0.26334,0.35098
-10.4213,0,0,15.4213,15.4213,5,5,26.0533,1.19385,-21.6437,0.26798,0.294813,0.0497252,0,0,3.605,-0.28,0.28,0.249734,-0.132004,-0.862296,-0.05348,0.26334,0.35098
-10.2782,0,0,15.2782,15.2782,5,5,25.6956,1.70498,-21.9951,0.259062,0.289099,0.052246,0,0,3.5175,0.0875,-0.3675,0.249734,-0.132004,-0.862296,-0.05348,0.26334,0.35098
-10.2785,0,0,15.2785,15.2785,5,5,25.6962,1.70512,-21.9962,-0.0261885,0.0979806,0.114084,1,0,3.99,-0.2275,-0.805,-0.036722,-0.322934,-0.80093,-0.05348,0.26334,0.35098
-10.2791,0,0,15.2791,15.2791,5,5,25.6977,1.70557,-21.9971,-0.0261965,0.0980035,0.114073,1,0,4.445,-0.035,-0.84,-0.036722,-0.322934,-0.80093,-0.04088,0.26362,0.34566
-10.2795,0,0,15.2795,15.2795,5,5,25.6988,1.70698,-21.9979,-0.0844127,-0.104221,-0.0813015,1,0,4.2525,0.5075,-0.9975,-0.09516,-0.524966,-0.994788,-0.04088,0.26362,0.34566
-10.2798,0,0,15.2798,15.2798,5,5,25.6995,1.70816,-21.9996,-0.0844333,-0.104211,-0.081307,1,0,4.0075,0.1575,-1.4175,-0.09516,-0.524966,-0.994788,-0.04088,0.26362,0.34566
-10.2802,0,0,15.2802,15.2802,5,5,25.7005,1.70932,-22.0012,0.106765,-0.0612058,-0.176232,1,0,4.235,0.175,-1.3475,0.096868,-0.482022,-1.08897,-0.04088,0.26362,0.34566
-10.2802,0,0,15.2802,15.2802,5,5,25.7005,1.71021,-22.0027,0.106749,-0.0612068,-0.176232,1,0,3.605,0.0525,-1.2425,0.096868,-0.482022,-1.08897,-0.04088,0.26362,0.34566
-10.2244,0,0,15.2244,15.2244,5,5,25.5609,1.76159,-22.1034,0.012552,0.12173,-0.0150011,0,0,3.71,0,-1.0325,0.003172,-0.29707,-0.930006,-0.04088,0.26362,0.34566
-10.1694,0,0,15.1694,15.1694,5,5,25.4235,1.81101,-22.2034,0.0116899,0.119556,-0.0139942,0,0,3.395,-0.035,-0.98,0.003172,-0.29707,-0.930006,-0.04088,0.26362,0.34566
-10.1693,0,0,15.1693,15.1693,5,5,25.4232,1.8113,-22.204,0.258665,-0.124947,-0.171735,1,0,3.43,-0.0525,-0.6475,0.251198,-0.541314,-1.08653,-0.04088,0.26362,0.34566
-10.1697,0,0,15.1697,15.1697,5,5,25.4241,1.81151,-22.2033,0.258662,-0.124933,-0.171742,1,0,4.1125,0.2625,0.105,0.251198,-0.541314,-1.08653,-0.04088,0.26362,0.34566
-10.1092,0,0,15.1092,15.1092,5,5,25.273,1.53786,-22.1422,-0.224694,0.140934,-0.137659,0,0,4.27,0.14,0.4025,-0.238998,-0.273402,-1.05396,-0.04984,0.26908,0.343
-10.0681,0,0,15.0681,15.0681,5,5,25.1703,1.86916,-22.373,0.225098,0.0337224,-0.063897,0,0,4.0075,0.3675,0.735,0.218502,-0.37881,-0.981368,-0.04984,0.26908,0.343
-10.0278,0,0,15.0278,15.0278,5,5,25.0695,2.19079,-22.6016,0.219488,0.0320457,-0.0633306,0,0,3.5875,0.14,0.9975,0.218502,-0.37881,-0.981368,-0.04984,0.26908,0.343
-10.0281,0,0,15.0281,15.0281,5,5,25.0702,2.18983,-22.5996,-0.0780138,-0.0931224,-0.0678844,1,0,3.9725,-0.0525,1.0675,-0.080276,-0.50386,-0.985882,-0.04984,0.26908,0.343
-10.0282,0,0,15.0282,15.0282,5,5,25.0705,2.18888,-22.5973,-0.0779973,-0.093117,-0.0678863,1,0,3.745,0.035,1.225,-0.080276,-0.50386,-0.985882,-0.04984,0.26908,0.343
-10.0286,0,0,15.0286,15.0286,5,5,25.0716,2.18771,-22.5952,0.12454,-0.0470575,-0.146212,1,0,4.1825,-0.14,1.155,0.123098,-0.457866,-1.0636,-0.04984,0.26908,0.343
-10.0285,0,0,15.0285,15.0285,5,5,25.0712,2.18704,-22.5938,0.124551,-0.0470639,-0.146208,1,0,3.3425,-0.035,0.7,0.123098,-0.457866,-1.0636,-0.04984,0.26908,0.343
-10.0079,0,0,15.0079,15.0079,5,5,25.0198,2.00786,-22.561,-0.129873,0.0604989,-0.0345798,0,0,4.235,-0.175,0.4725,-0.135542,-0.349652,-0.953308,-0.04942,0.26866,0.35168
-10.0081,0,0,15.0081,15.0081,5,5,25.0203,2.00716,-22.5613,-0.0276914,0.140745,-0.161835,1,0,3.92,-0.4725,-0.1925,-0.03294,-0.269498,-1.07958,-0.04942,0.26866,0.35168
-10.0084,0,0,15.0084,15.0084,5,5,25.0209,2.00646,-22.5616,-0.0276791,0.140754,-0.161839,1,0,3.92,-0.4725,-0.1925,-0.03294,-0.269498,-1.07958,-0.04942,0.26866,0.35168
-9.93685,0,0,14.9368,14.9368,5,5,24.8421,2.39557,-22.8431,0.227458,0.130855,0.020711,0,0,3.29,-0.315,-1.2075,0.230092,-0.276452,-0.899506,-0.04942,0.26866,0.35168
-9.8669,0,0,14.8669,14.8669,5,5,24.6672,2.77396,-23.123,0.22086,0.127962,0.0217172,0,0,3.29,-0.315,-1.2075,0.230092,-0.276452,-0.899506,-0.04942,0.26866,0.35168
-9.91349,0,0,14.9135,14.9135,5,5,24.7837,2.46555,-22.9936,-0.187543,-0.0375266,0.0739592,0,0,3.5525,-0.1575,-1.6275,-0.18544,-0.443714,-0.847046,-0.04942,0.26866,0.35168
-9.95867,0,0,14.9587,14.9587,5,5,24.8967,2.16532,-22.8661,-0.182307,-0.0356502,0.0733239,0,0,3.5525,-0.1575,-1.6275,-0.18544,-0.443714,-0.847046,-0.04942,0.26866,0.35168
-9.91227,0,0,14.9123,14.9123,5,5,24.7807,2.5007,-23.108,0.225868,0.0483913,-0.0580894,0,0,3.8325,-0.035,-2.0475,0.230336,-0.357826,-0.978074,-0.04942,0.26866,0.35168
-9.86693,0,0,14.8669,14.8669,5,5,24.6673,2.8274,-23.3392,0.220172,0.0464854,-0.0575036,0,0,3.8325,-0.035,-2.0475,0.230336,-0.357826,-0.978074,-0.05208,0.26432,0.34958
-9.89196,0,0,14.892,14.892,5,5,24.7299,2.48163,-23.1937,-0.231437,-0.0162788,-0.000657454,0,0,3.605,-0.21,-1.3125,-0.229238,-0.421632,-0.921466,-0.05208,0.26432,0.34958
-9.89212,0,0,14.8921,14.8921,5,5,24.7303,2.48246,-23.1951,-0.194519,0.048088,-0.191846,1,0,3.8675,0.0525,-1.19,-0.19215,-0.357338,-1.11118,-0.05208,0.26432,0.34958
-9.89189,0,0,14.8919,14.8919,5,5,24.7297,2.48257,-23.1952,-0.194521,0.0480789,-0.191842,1,0,3.29,0,-0.315,-0.19215,-0.357338,-1.11118,-0.05208,0.26432,0.34958
-9.89188,0,0,14.8919,14.8919,5,5,24.7297,2.48327,-23.1943,-0.054582,-0.196908,-0.268685,1,0,3.57,0.56,0.0875,-0.051606,-0.60207,-1.18743,-0.05208,0.26432,0.34958
-9.8923,0,0,14.8923,14.8923,5,5,24.7307,2.48299,-23.193,-0.0545771,-0.196891,-0.268692,1,0,4.165,0.14,0.5425,-0.051606,-0.60207,-1.18743,-0.05208,0.26432,0.34958
-9.89245,0,0,14.8925,14.8925,5,5,24.7311,2.48208,-23.1912,-0.160132,0.0675194,0.232444,1,0,3.78,-0.0875,0.9275,-0.157624,-0.33794,-0.690154,-0.05208,0.26432,0.34958
-9.89262,0,0,14.8926,14.8926,5,5,24.7316,2.48161,-23.1884,-0.160124,0.0675263,0.232441,1,0,3.78,0.42,1.4175,-0.157624,-0.33794,-0.690154,-0.05208,0.26432,0.34958
-9.93169,0,0,14.9317,14.9317,5,5,24.8292,2.40467,-23.1585,-0.0369323,-0.0983392,-0.0132574,0,0,3.395,-0.035,1.715,-0.035258,-0.505202,-0.9333,-0.05292,0.26124,0.3444
-10.0157,0,0,15.0157,15.0157,5,5,25.0393,2.28129,-23.0773,-0.0539755,-0.183278,0.0431871,0,0,3.6925,0.14,1.6975,-0.054534,-0.593408,-0.875838,-0.05292,0.26124,0.3444
-10.0977,0,0,15.0977,15.0977,5,5,25.2442,2.16214,-22.9984,-0.0518975,-0.180009,0.0417417,0,0,3.4475,0.07,1.3125,-0.054534,-0.593408,-0.875838,-0.05292,0.26124,0.3444
-10.0981,0,0,15.0981,15.0981,5,5,25.2454,2.16146,-22.9965,0.00715644,-0.00705848,0.229599,1,0,4.235,0.07,0.9275,0.004758,-0.420656,-0.689422,-0.05292,0.26124,0.3444
-10.0983,0,0,15.0983,15.0983,5,5,25.2459,2.16109,-22.9953,0.00716297,-0.00705038,0.229595,1,0,3.8675,0.07,0.5075,0.004758,-0.420656,-0.689422,-0.05292,0.26124,0.3444
-10.1052,0,0,15.1052,15.1052,5,5,25.2629,2.12964,-23.0053,-0.0175576,-0.0231379,-0.0237871,0,0,4.375,-0.7175,0.07,-0.020618,-0.437004,-0.940742,-0.05292,0.26124,0.3444
-10.111,0,0,15.111,15.111,5,5,25.2774,2.10084,-23.0157,-0.0170552,-0.022901,-0.0238784,0,0,3.22,0.0875,-0.63,-0.020618,-0.437004,-0.940742,-0.05292,0.26124,0.3444
-10.178,0,0,15.178,15.178,5,5,25.445,1.93426,-22.922,-0.0942087,-0.160662,-0.00364474,0,0,3.0625,0.105,-0.91,-0.101016,-0.577304,-0.919514,-0.05292,0.26124,0.3444
-10.2433,0,0,15.2433,15.2433,5,5,25.6082,1.7736,-22.8315,-0.0914063,-0.158053,-0.00479006,0,0,2.9925,0.1575,-1.505,-0.101016,-0.577304,-0.919514,-0.05054,0.26096,0.3465
-10.1731,0,0,15.1731,15.1731,5,5,25.4327,1.80339,-22.9113,-0.00409171,0.136433,-0.0861066,0,0,3.0275,-0.21,-1.6275,-0.01281,-0.280356,-1.0015,-0.05054,0.26096,0.3465
-10.1046,0,0,15.1046,15.1046,5,5,25.2615,1.83142,-22.9908,-0.00458068,0.133727,-0.0848422,0,0,3.57,-0.4725,-1.6975,-0.01281,-0.280356,-1.0015,-0.05054,0.26096,0.3465
-10.1266,0,0,15.1266,15.1266,5,5,25.3166,1.64616,-22.9121,-0.109957,0.0213045,0.103439,0,0,3.325,0.0525,-1.75,-0.121878,-0.393572,-0.81435,-0.05054,0.26096,0.3465
-10.1484,0,0,15.1484,15.1484,5,5,25.3709,1.4654,-22.8344,-0.106803,0.0221982,0.10311,0,0,3.9025,-0.175,-1.645,-0.121878,-0.393572,-0.81435,-0.05054,0.26096,0.3465
-10.1102,0,0,15.1102,15.1102,5,5,25.2755,1.58904,-22.9392,0.0720532,0.0585285,-0.0479481,0,0,3.4475,0.385,-1.435,0.059902,-0.355752,-0.964898,-0.05054,0.26096,0.3465
-10.0731,0,0,15.0731,15.0731,5,5,25.1828,1.70811,-23.0424,0.0699759,0.0570394,-0.0473125,0,0,3.71,0.0525,-0.7525,0.059902,-0.355752,-0.964898,-0.05054,0.26096,0.3465
-10.021,0,0,15.021,15.021,5,5,25.0524,1.57824,-23.0303,-0.10537,0.132558,-0.0293213,0,0,3.535,-0.0525,-0.3675,-0.118462,-0.278282,-0.948062,-0.05054,0.26096,0.3465
-9.9697,0,0,14.9697,14.9697,5,5,24.9243,1.45104,-23.0169,-0.103151,0.130556,-0.0283235,0,0,3.5875,0.1225,0.1225,-0.118462,-0.278282,-0.948062,-0.05054,0.26096,0.3465
-9.82215,0,0,14.8222,14.8222,5,5,24.5554,1.87752,-23.3405,0.262977,0.281554,-0.126399,0,0,4.0775,-0.2625,0.385,0.256688,-0.121512,-1.04786,-0.04774,0.26152,0.3493
-9.92585,0,0,14.9259,14.9259,5,5,24.8146,1.79182,-23.2635,-0.0223557,-0.177666,0.139415,0,0,3.5175,-0.21,0.9275,-0.031354,-0.58438,-0.782264,-0.04774,0.26152,0.3493
-10.0275,0,0,15.0275,15.0275,5,5,25.0689,1.70969,-23.1875,-0.0209229,-0.173626,0.137585,0,0,3.71,0.14,1.2075,-0.031354,-0.58438,-0.782264,-0.04774,0.26152,0.3493
-9.86452,0,0,14.8645,14.8645,5,5,24.6613,2.03421,-23.4685,0.157467,0.335343,-0.0343037,0,0,3.1675,-0.245,1.1375,0.153476,-0.069418,-0.955626,-0.04774,0.26152,0.3493
-9.70502,0,0,14.705,14.705,5,5,24.2626,2.34937,-23.7512,0.15197,0.328926,-0.0316155,0,0,4.0075,-0.525,0.98,0.153476,-0.069418,-0.955626,-0.04774,0.26152,0.3493
-9.57236,0,0,14.5724,14.5724,5,5,23.9309,2.3229,-23.849,-0.0658778,0.307289,0.00703281,0,0,3.6225,0.3325,0.7875,-0.065758,-0.085766,-0.919636,-0.04774,0.26152,0.3493
-9.44239,0,0,14.4424,14.4424,5,5,23.606,2.29577,-23.9475,-0.0654047,0.30211,0.00933418,0,0,4.0775,-0.035,0.175,-0.065758,-0.085766,-0.919636,-0.04774,0.26152,0.3493
-9.4189,0,0,14.4189,14.4189,5,5,23.5473,2.25917,-23.9821,-0.0347594,0.0643783,0.00546382,0,0,4.06,0.2625,-0.0175,-0.035624,-0.322324,-0.923906,-0.0483,0.26446,0.34818
-9.51766,0,0,14.5177,14.5177,5,5,23.7941,1.83841,-23.7446,-0.255692,-0.137844,0.113891,0,0,3.395,-0.315,-0.6825,-0.264862,-0.528382,-0.814838,-0.0483,0.26446,0.34818
-9.6139,0,0,14.6139,14.6139,5,5,24.0348,1.43059,-23.5115,-0.248577,-0.133925,0.112375,0,0,3.6225,0.735,-1.225,-0.264862,-0.528382,-0.814838,-0.0483,0.26446,0.34818
-9.6593,0,0,14.6593,14.6593,5,5,24.1482,1.46049,-23.5306,0.0387008,-0.120887,0.00717176,0,0,3.2025,0.35,-1.5575,0.024156,-0.517158,-0.918416,-0.0483,0.26446,0.34818
-9.7043,0,0,14.7043,14.7043,5,5,24.2608,1.49006,-23.5502,0.0381847,-0.119102,0.00635473,0,0,3.85,0.1575,-1.9775,0.024156,-0.517158,-0.918416,-0.0483,0.26446,0.34818
-9.72871,0,0,14.7287,14.7287,5,5,24.3218,1.20847,-23.4221,-0.202181,-0.0521352,-0.0592635,0,0,3.5175,0.105,-1.855,-0.222162,-0.451278,-0.983198,-0.0483,0.26446,0.34818
-9.75238,0,0,14.7524,14.7524,5,5,24.3809,0.93301,-23.2951,-0.197375,-0.0511577,-0.0596072,0,0,3.7275,-0.3675,-1.505,-0.222162,-0.451278,-0.983198,-0.0483,0.26446,0.34818
-9.75274,0,0,14.7527,14.7527,5,5,24.3818,0.93408,-23.2969,0.115189,0.0695177,-0.135965,1,0,4.13,0.0875,-1.47,0.091744,-0.330742,-1.05896,-0.0483,0.26446,0.34818
-9.75285,0,0,14.7529,14.7529,5,5,24.3821,0.935056,-23.2977,0.115172,0.0695222,-0.135967,1,0,3.78,0.2975,-0.875,0.091744,-0.330742,-1.05896,-0.05068,0.26082,0.34496
-9.77537,0,0,14.7754,14.7754,5,5,24.4384,0.845744,-23.255,-0.0557788,-0.0529212,-0.0165995,0,0,4.0775,0.175,-0.385,-0.081496,-0.453962,-0.940132,-0.05068,0.26082,0.34496
-9.79694,0,0,14.7969,14.7969,5,5,24.4924,0.758371,-23.2114,-0.054254,-0.0520557,-0.0169698,0,0,3.535,0.1925,0.42,-0.081496,-0.453962,-0.940132,-0.05068,0.26082,0.34496
-9.71961,0,0,14.7196,14.7196,5,5,24.299,0.946104,-23.3623,0.111578,0.131828,-0.108693,0,0,3.99,-0.1925,0.7,0.088328,-0.26718,-1.03249,-0.05068,0.26082,0.34496
-9.64376,0,0,14.6438,14.6438,5,5,24.1094,1.12859,-23.5117,0.108393,0.128786,-0.107389,0,0,3.7975,0.14,1.26,0.088328,-0.26718,-1.03249,-0.05068,0.26082,0.34496
-9.64408,0,0,14.6441,14.6441,5,5,24.1102,1.12739,-23.5091,-0.296011,0.0153428,-0.135426,1,0,4.025,-0.07,1.4175,-0.31781,-0.380518,-1.0603,-0.05068,0.26082,0.34496
-9.64457,0,0,14.6446,14.6446,5,5,24.1114,1.12568,-23.5066,-0.295982,0.0153626,-0.135434,1,0,4.27,-0.35,1.505,-0.31781,-0.380518,-1.0603,-0.05068,0.26082,0.34496
-9.55193,0,0,14.5519,14.5519,5,5,23.8798,1.10498,-23.5646,-0.0466962,0.197306,-0.114359,0,0,4.0775,-0.0525,1.645,-0.067832,-0.195078,-1.04103,-0.05068,0.26082,0.34496
-9.46092,0,0,14.4609,14.4609,5,5,23.6523,1.08517,-23.627,-0.0463505,0.193675,-0.112752,0,0,4.2525,-0.1225,1.5575,-0.067832,-0.195078,-1.04103,-0.05208,0.26348,0.33936
-9.46105,0,0,14.461,14.461,5,5,23.6526,1.08446,-23.6257,0.176102,-0.066816,-0.135254,1,0,3.78,-0.105,0.6475,0.15555,-0.455304,-1.06335,-0.05208,0.26348,0.33936
-9.46118,0,0,14.4612,14.4612,5,5,23.653,1.08374,-23.6244,0.176115,-0.0668106,-0.135256,1,0,3.78,-0.105,0.6475,0.15555,-0.455304,-1.06335,-0.05208,0.26348,0.33936
-9.4614,0,0,14.4614,14.4614,5,5,23.6535,1.08381,-23.6246,0.162507,-0.0707099,-0.110424,1,0,3.92,-0.0525,-0.3675,0.141886,-0.459208,-1.03871,-0.05208,0.26348,0.33936
-9.46162,0,0,14.4616,14.4616,5,5,23.6541,1.08388,-23.6249,0.162506,-0.0707011,-0.110428,1,0,3.92,-0.0525,-0.3675,0.141886,-0.459208,-1.03871,-0.05208,0.26348,0.33936
-9.46204,0,0,14.462,14.462,5,5,23.6551,1.08548,-23.6267,0.0590936,-0.0439388,-0.0977725,1,0,4.2175,0.4025,-1.5575,0.038064,-0.43249,-1.02614,-0.05208,0.26348,0.33936
-9.46246,0,0,14.4625,14.4625,5,5,23.6562,1.08708,-23.6285,0.0590657,-0.0439222,-0.0977803,1,0,4.2175,0.4025,-1.5575,0.038064,-0.43249,-1.02614,-0.05208,0.26348,0.33936
-9.46234,0,0,14.4623,14.4623,5,5,23.6559,1.08862,-23.6309,-0.078726,0.0431491,0.132258,1,0,3.465,0.21,-1.9075,-0.100284,-0.345504,-0.79788,-0.05208,0.26348,0.33936
-9.46222,0,0,14.4622,14.4622,5,5,23.6555,1.09016,-23.6334,-0.0787528,0.0431441,0.13226,1,0,3.465,0.21,-1.9075,-0.100284,-0.345504,-0.79788,-0.05208,0.26348,0.33936
-9.50371,0,0,14.5037,14.5037,5,5,23.7593,0.923685,-23.5451,-0.104761,-0.0795029,0.00985949,0,0,3.78,-0.2625,-1.8025,-0.12932,-0.4697,-0.91866,-0.05068,0.26068,0.34314
-9.50389,0,0,14.5039,14.5039,5,5,23.7597,0.930659,-23.5439,0.244145,-0.181106,-0.142725,1,0,3.85,3.9725,-1.26,0.221186,-0.571204,-1.07006,-0.05068,0.26068,0.34314
-9.50407,0,0,14.5041,14.5041,5,5,23.7602,0.937633,-23.5428,0.244024,-0.1811,-0.14273,1,0,3.85,3.9725,-1.26,0.221186,-0.571204,-1.07006,-0.05068,0.26068,0.34314
-9.52886,0,0,14.5289,14.5289,5,5,23.8222,0.745778,-23.4469,-0.131664,-0.0491704,-0.0268115,0,0,4.0775,0.4725,-0.5425,-0.159454,-0.44042,-0.95465,-0.05068,0.26068,0.34314
-9.55289,0,0,14.5529,14.5529,5,5,23.8822,0.55888,-23.3521,-0.128402,-0.0481966,-0.0272014,0,0,4.0775,0.4725,-0.5425,-0.159454,-0.44042,-0.95465,-0.05068,0.26068,0.34314
-9.56189,0,0,14.5619,14.5619,5,5,23.9047,0.597553,-23.3779,0.0294621,-0.0197511,0.0203373,0,0,3.0275,0.4375,0.6475,-0.000244,-0.41236,-0.907314,-0.05068,0.26068,0.34314
-9.57077,0,0,14.5708,14.5708,5,5,23.9269,0.635322,-23.4033,0.028803,-0.0193998,0.0201737,0,0,3.0275,0.4375,0.6475,-0.000244,-0.41236,-0.907314,-0.05068,0.26068,0.34314
-9.46385,0,0,14.4639,14.4639,5,5,23.6596,0.627892,-23.4702,-0.0431084,0.226692,-0.150809,0,0,3.57,0.315,1.2075,-0.07259,-0.16226,-1.07885,-0.05068,0.26068,0.34314
-9.49452,0,0,14.4945,14.4945,5,5,23.7363,0.764898,-23.5264,0.108666,-0.0886467,0.0213697,0,0,4.2,-0.0525,1.365,0.082228,-0.478484,-0.907436,-0.05306,0.2562,0.33992
-9.52489,0,0,14.5249,14.5249,5,5,23.8122,0.898312,-23.5817,0.106338,-0.0874478,0.0208046,0,0,4.34,-0.2275,1.47,0.082228,-0.478484,-0.907436,-0.05306,0.2562,0.33992
-9.52506,0,0,14.5251,14.5251,5,5,23.8127,0.897056,-23.5794,0.239629,-0.0648473,-0.0957533,1,0,3.8325,-0.1575,1.3125,0.216062,-0.455914,-1.02309,-0.05306,0.2562,0.33992
-9.52524,0,0,14.5252,14.5252,5,5,23.8131,0.8958,-23.5771,0.239651,-0.0648402,-0.0957561,1,0,3.8325,-0.1575,1.3125,0.216062,-0.455914,-1.02309,-0.05306,0.2562,0.33992
-9.59615,0,0,14.5961,14.5961,5,5,23.9904,0.713264,-23.4494,-0.0989024,-0.101685,0.108232,0,0,2.555,-0.1925,0.1925,-0.127124,-0.495564,-0.819474,-0.05306,0.2562,0.33992
-9.59001,0,0,14.59,14.59,5,5,23.975,0.640651,-23.4215,-0.0540218,0.00322783,-0.0546749,0,0,4.0075,-0.3675,-0.21,-0.083326,-0.390522,-0.981246,-0.05306,0.2562,0.33992
-9.58393,0,0,14.5839,14.5839,5,5,23.9598,0.570834,-23.3945,-0.0528033,0.00299061,-0.0545553,0,0,4.06,0.0175,-0.8225,-0.083326,-0.390522,-0.981246,-0.05306,0.2562,0.33992
-9.58449,0,0,14.5845,14.5845,5,5,23.9612,0.572108,-23.3956,0.0840888,0.142726,0.133669,1,0,4.3925,0.3675,-1.155,0.054168,-0.250954,-0.794464,-0.05082,0.26306,0.33964
-9.58427,0,0,14.5843,14.5843,5,5,23.9607,0.573676,-23.3971,0.0840614,0.142717,0.133672,1,0,3.3075,0.455,-1.3825,0.054168,-0.250954,-0.794464,-0.05082,0.26306,0.33964
-9.62181,0,0,14.6218,14.6218,5,5,24.0545,0.599587,-23.4079,0.0283332,-0.0634042,0.0725111,0,0,3.1675,0.2625,-1.7675,-0.001342,-0.458354,-0.854488,-0.05082,0.26306,0.33964
-9.65868,0,0,14.6587,14.6587,5,5,24.1467,0.625195,-23.4186,0.0278863,-0.0619378,0.0718499,0,0,3.1675,0.2625,-1.7675,-0.001342,-0.458354,-0.854488,-0.05082,0.26306,0.33964
-9.63174,0,0,14.6317,14.6317,5,5,24.0793,0.476188,-23.3761,-0.111165,0.0825745,-0.00953073,0,0,3.36,-0.525,-1.47,-0.143594,-0.31293,-0.93574,-0.05082,0.26306,0.33964
-9.63208,0,0,14.6321,14.6321,5,5,24.0802,0.476438,-23.3781,0.160351,0.0637805,0.201197,1,0,4.095,-0.385,-1.365,0.129076,-0.331718,-0.726632,-0.05082,0.26306,0.33964
-9.63273,0,0,14.6327,14.6327,5,5,24.0818,0.476773,-23.3791,0.160345,0.0638066,0.201185,1,0,4.5325,-0.0875,-0.8225,0.129076,-0.331718,-0.726632,-0.05082,0.26306,0.33964
-9.64269,0,0,14.6427,14.6427,5,5,24.1067,0.509143,-23.4059,0.0237159,-0.00357904,0.0528504,0,0,4.2175,0.1575,-0.7,-0.007564,-0.399428,-0.873642,-0.05082,0.26306,0.33964
-9.65138,0,0,14.6514,14.6514,5,5,24.1284,0.540411,-23.4187,0.0231702,-0.00323525,0.052691,0,0,2.73,0.0175,0.105,-0.007564,-0.399428,-0.873642,-0.05488,0.25802,0.34146
-9.70337,0,0,14.7034,14.7034,5,5,24.2584,0.582584,-23.4113,0.0480677,-0.134287,0.0261814,0,0,2.625,0.5775,0.385,0.018178,-0.532408,-0.899018,-0.05488,0.25802,0.34146
-9.75462,0,0,14.7546,14.7546,5,5,24.3866,0.623783,-23.4035,0.0473487,-0.132252,0.0252535,0,0,2.87,0.49,0.7,0.018178,-0.532408,-0.899018,-0.05488,0.25802,0.34146
-9.85392,0,0,14.8539,14.8539,5,5,24.6348,0.588303,-23.3306,0.00897098,-0.22723,0.0760841,0,0,3.85,0,0.9975,-0.020984,-0.631228,-0.846802,-0.05488,0.25802,0.34146
-9.95159,0,0,14.9516,14.9516,5,5,24.879,0.554395,-23.2585,0.00956276,-0.223358,0.074305,0,0,4.27,-0.0175,1.295,-0.020984,-0.631228,-0.846802,-0.05488,0.25802,0.34146
-9.95217,0,0,14.9522,14.9522,5,5,24.8804,0.553513,-23.2561,-0.0856666,-0.167157,-0.100047,1,0,4.41,0.0875,1.26,-0.116632,-0.575108,-1.0198,-0.05488,0.25802,0.34146
-9.95233,0,0,14.9523,14.9523,5,5,24.8808,0.553114,-23.2541,-0.0856597,-0.16715,-0.10005,1,0,3.8325,0.245,0.9275,-0.116632,-0.575108,-1.0198,-0.05488,0.25802,0.34146
-9.93404,0,0,14.934,14.934,5,5,24.8351,0.454305,-23.2131,-0.0770105,0.0315646,-0.06675,0,0,2.7825,0.35,0.7875,-0.109678,-0.375882,-0.987102,-0.05488,0.25802,0.34146
-9.91664,0,0,14.9166,14.9166,5,5,24.7916,0.357607,-23.1736,-0.0753228,0.0308808,-0.0664206,0,0,3.7625,-0.07,0.175,-0.109678,-0.375882,-0.987102,-0.05488,0.25802,0.34146
-9.83297,0,0,14.833,14.833,5,5,24.5824,0.700774,-23.3987,0.20588,0.157484,-0.0123242,0,0,3.8675,-0.2625,-0.28,0.17873,-0.246074,-0.934886,-0.05264,0.26138,0.34188
-9.83353,0,0,14.8335,14.8335,5,5,24.5838,0.700647,-23.3997,0.229815,-0.117402,-0.103439,1,0,4.3925,-0.35,-0.735,0.202764,-0.520696,-1.02529,-0.05264,0.26138,0.34188
-9.83355,0,0,14.8336,14.8336,5,5,24.5839,0.701124,-23.4011,0.229807,-0.117401,-0.10344,1,0,3.6575,-0.1225,-1.085,0.202764,-0.520696,-1.02529,-0.05264,0.26138,0.34188
-9.83343,0,0,14.8334,14.8334,5,5,24.5836,0.701243,-23.4024,-0.335225,0.0952172,-0.129257,1,0,3.4475,-0.28,-0.9275,-0.364658,-0.308294,-1.05091,-0.05264,0.26138,0.34188
-9.83308,0,0,14.8331,14.8331,5,5,24.5827,0.701857,-23.4041,-0.335236,0.0952033,-0.12925,1,0,3.1325,-0.1225,-1.2775,-0.364658,-0.308294,-1.05091,-0.05264,0.26138,0.34188
-9.83254,0,0,14.8325,14.8325,5,5,24.5813,0.70229,-23.406,-0.11414,-0.0183964,-0.128011,1,0,2.8525,-0.2625,-1.33,-0.142618,-0.421754,-1.04969,-0.05264,0.26138,0.34188
-9.8328,0,0,14.8328,14.8328,5,5,24.582,0.702649,-23.4077,-0.114146,-0.018386,-0.128016,1,0,3.99,-0.2625,-1.225,-0.142618,-0.421754,-1.04969,-0.05264,0.26138,0.34188
-9.8468,0,0,14.8468,14.8468,5,5,24.617,0.685678,-23.3947,-0.00767116,-0.000487213,0.0678359,0,0,3.535,-0.1225,-0.875,-0.03599,-0.40443,-0.855098,-0.05502,0.25802,0.3409
-9.96455,0,0,14.9645,14.9645,5,5,24.9114,0.349719,-23.1625,-0.190111,-0.174349,0.15905,0,0,4.2525,0.6125,-0.4375,-0.22509,-0.582794,-0.7625,-0.05502,0.25802,0.3409
-10.0787,0,0,15.0787,15.0787,5,5,25.1969,0.021924,-22.9349,-0.18439,-0.169828,0.156957,0,0,3.22,0.1225,-0.1225,-0.22509,-0.582794,-0.7625,-0.05502,0.25802,0.3409
-10.0055,0,0,15.0055,15.0055,5,5,25.0138,0.175628,-23.0444,0.0767947,0.163126,0.0193763,0,0,2.87,0.105,0.0525,0.039894,-0.247294,-0.90036,-0.05502,0.25802,0.3409
-9.93362,0,0,14.9336,14.9336,5,5,24.8341,0.325777,-23.1527,0.0741741,0.160276,0.0206879,0,0,2.625,0.7875,0.3325,0.039894,-0.247294,-0.90036,-0.05502,0.25802,0.3409
-9.88328,0,0,14.8833,14.8833,5,5,24.7082,0.448387,-23.2387,0.0720342,0.0819467,-0.076272,0,0,3.5525,0.2975,0.63,0.039894,-0.323544,-0.997472,-0.05502,0.25802,0.3409
-9.83481,0,0,14.8348,14.8348,5,5,24.587,0.567663,-23.3243,0.0699526,0.0800166,-0.0754067,0,0,4.655,0.3675,0.56,0.039894,-0.323544,-0.997472,-0.05502,0.25802,0.3409
-9.83521,0,0,14.8352,14.8352,5,5,24.588,0.567355,-23.3232,0.0863585,-0.110485,0.262203,1,0,4.165,0.0875,0.4725,0.056364,-0.513864,-0.66246,-0.05502,0.25802,0.3409
-9.83576,0,0,14.8358,14.8358,5,5,24.5894,0.567247,-23.3216,0.0863604,-0.110463,0.262193,1,0,4.375,0.2975,0.6475,0.056364,-0.513864,-0.66246,-0.0546,0.25354,0.34314
-9.86022,0,0,14.8602,14.8602,5,5,24.6505,0.570341,-23.301,0.0111067,-0.0892203,-0.0432877,0,0,3.1675,0.525,0.42,-0.019154,-0.493612,-0.965142,-0.0546,0.25354,0.34314
-9.8842,0,0,14.8842,14.8842,5,5,24.7105,0.573272,-23.2818,0.0110556,-0.0882698,-0.043725,0,0,3.15,0.105,-0.0875,-0.019154,-0.493612,-0.965142,-0.0546,0.25354,0.34314
-9.88396,0,0,14.884,14.884,5,5,24.7099,0.573551,-23.2815,-0.0794561,0.018948,-0.18253,1,0,3.2725,0.1925,-0.1225,-0.110044,-0.386496,-1.10288,-0.0546,0.25354,0.34314
-9.88448,0,0,14.8845,14.8845,5,5,24.7112,0.573265,-23.2821,-0.0794511,0.0189686,-0.182539,1,0,4.34,-0.3325,-0.4725,-0.110044,-0.386496,-1.10288,-0.0546,0.25354,0.34314
-9.87215,0,0,14.8722,14.8722,5,5,24.6804,0.956683,-23.476,0.265559,-0.00805894,0.0312891,0,0,4.2875,-0.2975,-0.56,0.243146,-0.41297,-0.890844,-0.0546,0.25354,0.34314
-9.86023,0,0,14.8602,14.8602,5,5,24.6506,1.3311,-23.6681,0.259025,-0.00858592,0.0313875,0,0,4.0075,0.035,-1.015,0.243146,-0.41297,-0.890844,-0.0546,0.25354,0.34314
-9.87727,0,0,14.8773,14.8773,5,5,24.6932,1.24074,-23.614,-0.0589056,-0.0368396,-0.0126603,0,0,3.955,0.14,-1.015,-0.077714,-0.441884,-0.934276,-0.0546,0.25354,0.34314
-9.8929,0,0,14.8929,14.8929,5,5,24.7322,1.15314,-23.562,-0.057377,-0.036207,-0.0129163,0,0,2.66,0.2625,-0.91,-0.077714,-0.441884,-0.934276,-0.0518,0.25298,0.34216
-9.8201,0,0,14.8201,14.8201,5,5,24.5503,1.47936,-23.7708,0.200798,0.132196,-0.0126948,0,0,3.0275,-0.1225,-1.0325,0.18727,-0.270718,-0.935252,-0.0518,0.25298,0.34216
-9.74919,0,0,14.7492,14.7492,5,5,24.373,1.79636,-23.9785,0.195267,0.129315,-0.011558,0,0,3.4475,-0.3325,-0.805,0.18727,-0.270718,-0.935252,-0.0518,0.25298,0.34216
-9.7194,0,0,14.7194,14.7194,5,5,24.2985,1.77664,-23.9953,-0.0233058,0.0336099,-0.119576,0,0,4.0075,-0.2275,-0.49,-0.032574,-0.365146,-1.04298,-0.0518,0.25298,0.34216
-9.69035,0,0,14.6904,14.6904,5,5,24.2259,1.75766,-24.0109,-0.0229747,0.0324591,-0.119047,0,0,4.27,0.28,-0.105,-0.032574,-0.365146,-1.04298,-0.0518,0.25298,0.34216
-9.69022,0,0,14.6902,14.6902,5,5,24.2256,1.75811,-24.01,-0.120293,-0.13889,-0.0383902,1,0,3.4125,0.4025,0.105,-0.130296,-0.536312,-0.962946,-0.0518,0.25298,0.34216
-9.69009,0,0,14.6901,14.6901,5,5,24.2252,1.75856,-24.0092,-0.1203,-0.138895,-0.0383881,1,0,3.4125,0.4025,0.105,-0.130296,-0.536312,-0.962946,-0.0518,0.25298,0.34216
-9.68951,0,0,14.6895,14.6895,5,5,24.2238,1.75816,-24.0081,0.228006,-0.0503767,-0.131572,1,0,2.765,0.035,0.49,0.219478,-0.447862,-1.05542,-0.0518,0.25298,0.34216
-9.68892,0,0,14.6889,14.6889,5,5,24.2223,1.75777,-24.0069,0.228013,-0.0504,-0.131562,1,0,2.765,0.035,0.49,0.219478,-0.447862,-1.05542,-0.0518,0.25298,0.34216
-9.75309,0,0,14.7531,14.7531,5,5,24.3827,1.70573,-23.9562,-0.015873,-0.0823998,0.134847,0,0,4.0425,0.5775,0.5775,-0.026352,-0.482388,-0.78995,-0.05166,0.25928,0.34622
-9.68746,0,0,14.6875,14.6875,5,5,24.2186,1.74703,-24.032,0.00490951,0.147512,-0.0267782,0,0,4.5325,-0.0875,0.315,-0.004758,-0.2501,-0.951478,-0.05166,0.25928,0.34622
-9.62308,0,0,14.6231,14.6231,5,5,24.0577,1.78675,-24.1074,0.00421656,0.144941,-0.0256495,0,0,4.5325,-0.0875,0.315,-0.004758,-0.2501,-0.951478,-0.05166,0.25928,0.34622
-9.61369,0,0,14.6137,14.6137,5,5,24.0342,1.54169,-24.0052,-0.162074,0.0896603,0.0813501,0,0,3.9025,0.3325,0.07,-0.176046,-0.305,-0.845582,-0.05166,0.25928,0.34622
-9.60412,0,0,14.6041,14.6041,5,5,24.0103,1.30236,-23.9036,-0.157898,0.0893214,0.0816147,0,0,3.9025,0.3325,0.07,-0.176046,-0.305,-0.845582,-0.05166,0.25928,0.34622
-9.6041,0,0,14.6041,14.6041,5,5,24.0102,1.2963,-23.9074,0.254409,-0.186929,-0.212721,1,0,3.6225,-4.1825,-0.805,0.2379,-0.580964,-1.13765,-0.05166,0.25928,0.34622
-9.60407,0,0,14.6041,14.6041,5,5,24.0102,1.29023,-23.9112,0.254514,-0.186929,-0.212719,1,0,3.6225,-4.1825,-0.805,0.2379,-0.580964,-1.13765,-0.05166,0.25928,0.34622
-9.69378,0,0,14.6938,14.6938,5,5,24.2345,1.45925,-23.9562,0.152797,-0.206102,0.117332,0,0,4.0775,-0.385,-0.805,0.138714,-0.603656,-0.808494,-0.05166,0.25928,0.34622
-9.7825,0,0,14.7825,14.7825,5,5,24.4563,1.62256,-24.0086,0.149948,-0.202608,0.115667,0,0,4.0775,-0.385,-0.805,0.138714,-0.603656,-0.808494,-0.04844,0.26292,0.34524
-9.78249,0,0,14.7825,14.7825,5,5,24.4562,1.62321,-24.0099,-0.0786993,0.0944031,0.099684,1,0,3.605,0.0175,-1.0325,-0.09089,-0.306952,-0.824354,-0.04844,0.26292,0.34524
-9.78247,0,0,14.7825,14.7825,5,5,24.4562,1.62387,-24.0111,-0.0787107,0.0944023,0.099684,1,0,3.605,0.0175,-1.0325,-0.09089,-0.306952,-0.824354,-0.04844,0.26292,0.34524
-9.84055,0,0,14.8405,14.8405,5,5,24.6014,1.48915,-23.932,-0.0784255,-0.155458,-0.0253645,0,0,3.01,-0.6475,-0.7525,-0.092964,-0.558882,-0.947452,-0.04844,0.26292,0.34524
-9.89731,0,0,14.8973,14.8973,5,5,24.7433,1.35832,-23.8541,-0.0761429,-0.153185,-0.0263464,0,0,3.01,-0.6475,-0.7525,-0.092964,-0.558882,-0.947452,-0.04844,0.26292,0.34524
-9.89772,0,0,14.8977,14.8977,5,5,24.7443,1.3589,-23.8545,-0.0364272,0.16888,-0.171556,1,0,4.2,0.1925,-0.5425,-0.05307,-0.237168,-1.09153,-0.04844,0.26292,0.34524
-9.89814,0,0,14.8981,14.8981,5,5,24.7454,1.35948,-23.8548,-0.0364373,0.168896,-0.171564,1,0,4.2,0.1925,-0.5425,-0.05307,-0.237168,-1.09153,-0.04844,0.26292,0.34524
-9.89846,0,0,14.8985,14.8985,5,5,24.7462,1.35947,-23.8547,8.6187e-06,0.0302952,-0.158538,1,0,4.06,-0.0175,-0.175,-0.01647,-0.375638,-1.0786,-0.04844,0.26292,0.34524
-9.93746,0,0,14.9375,14.9375,5,5,24.8436,1.21749,-23.7665,-0.0865631,-0.0710901,0.0217798,0,0,3.8325,-0.49,0,-0.105896,-0.478484,-0.899018,-0.0553,0.25928,0.34986
-9.83692,0,0,14.8369,14.8369,5,5,24.5923,1.68499,-24.0606,0.300959,0.179719,-0.0349748,0,0,3.43,0.4025,0.49,0.291458,-0.22387,-0.956968,-0.0553,0.25928,0.34986
-9.73898,0,0,14.739,14.739,5,5,24.3474,2.14023,-24.3543,0.293018,0.175721,-0.033447,0,0,4.2525,0.315,0.455,0.291458,-0.22387,-0.956968,-0.0553,0.25928,0.34986
-9.73959,0,0,14.7396,14.7396,5,5,24.349,2.14001,-24.3535,-0.177978,0.0852495,0.0867859,1,0,4.445,0.0525,0.28,-0.181536,-0.314272,-0.837652,-0.0553,0.25928,0.34986
-9.74001,0,0,14.74,14.74,5,5,24.35,2.13904,-24.3527,-0.177961,0.0852665,0.0867789,1,0,4.1825,-0.3675,0.4025,-0.181536,-0.314272,-0.837652,-0.0553,0.25928,0.34986
-9.75976,0,0,14.7598,14.7598,5,5,24.3994,2.4943,-24.5278,0.263275,-0.077092,0.0640645,0,0,3.5,0.1225,0.245,0.26779,-0.477142,-0.859612,-0.0553,0.25928,0.34986
-9.7793,0,0,14.7793,14.7793,5,5,24.4483,2.84043,-24.7005,0.257241,-0.0764325,0.0634563,0,0,3.1325,-0.175,0.105,0.26779,-0.477142,-0.859612,-0.0553,0.25928,0.34986
-9.77946,0,0,14.7795,14.7795,5,5,24.4487,2.84044,-24.7004,-0.0401565,-0.158007,-0.248836,1,0,3.8325,0,-0.1575,-0.030866,-0.558638,-1.16949,-0.0553,0.25928,0.34986
-9.77967,0,0,14.7797,14.7797,5,5,24.4492,2.84063,-24.7006,-0.0401598,-0.157999,-0.24884,1,0,3.9025,0.0175,-0.385,-0.030866,-0.558638,-1.16949,-0.05138,0.25914,0.34902
-9.81367,0,0,14.8137,14.8137,5,5,24.5342,2.74541,-24.6528,-0.0555078,-0.0646553,0.0184016,0,0,4.0075,0.1925,-0.315,-0.047946,-0.466772,-0.903776,-0.05138,0.25914,0.34902
-9.84705,0,0,14.8471,14.8471,5,5,24.6176,2.65245,-24.6057,-0.0538872,-0.0633003,0.0178659,0,0,4.27,-0.0525,-0.2625,-0.047946,-0.466772,-0.903776,-0.05138,0.25914,0.34902
-9.84723,0,0,14.8472,14.8472,5,5,24.6181,2.65256,-24.6057,-0.158002,-0.245751,-0.00107136,1,0,3.85,0.035,-0.2275,-0.1525,-0.64904,-0.922564,-0.05138,0.25914,0.34902
-9.8471,0,0,14.8471,14.8471,5,5,24.6177,2.65313,-24.6058,-0.158012,-0.245756,-0.00106943,1,0,3.43,0.245,-0.42,-0.1525,-0.64904,-0.922564,-0.05138,0.25914,0.34902
-9.75522,0,0,14.7552,14.7552,5,5,24.388,3.1031,-24.9079,0.28765,0.163958,-0.0128003,0,0,3.2725,-0.0875,-0.3675,0.302926,-0.235948,-0.935496,-0.05138,0.25914,0.34902
-9.66546,0,0,14.6655,14.6655,5,5,24.1636,3.54076,-25.2088,0.280025,0.160212,-0.0115962,0,0,3.6225,-0.315,-0.1225,0.302926,-0.235948,-0.935496,-0.05138,0.25914,0.34902
-9.629,0,0,14.629,14.629,5,5,24.0725,3.63471,-25.3091,0.0554617,0.0622409,-0.0379669,0,0,3.3075,-0.5425,-0.0875,0.079056,-0.332328,-0.962214,-0.05138,0.25914,0.34902
-9.59387,0,0,14.5939,14.5939,5,5,23.9847,3.72661,-25.4072,0.0538612,0.060802,-0.0374381,0,0,3.9725,0.07,0,0.079056,-0.332328,-0.962214,-0.04984,0.25774,0.34986
-9.59391,0,0,14.5939,14.5939,5,5,23.9848,3.72691,-25.407,-0.143801,-0.100282,-0.0954708,1,0,3.6575,0.1925,-0.1575,-0.119438,-0.493246,-1.0198,-0.04984,0.25774,0.34986
-9.59396,0,0,14.594,14.594,5,5,23.9849,3.72722,-25.4067,-0.143807,-0.10028,-0.0954719,1,0,3.6575,0.1925,-0.1575,-0.119438,-0.493246,-1.0198,-0.04984,0.25774,0.34986
-9.62051,0,0,14.6205,14.6205,5,5,24.0513,3.66519,-25.3863,-0.0349685,-0.0316595,0.0528889,0,0,4.165,-0.3675,0.0875,-0.011224,-0.42578,-0.872178,-0.04984,0.25774,0.34986
-9.64646,0,0,14.6465,14.6465,5,5,24.1162,3.60495,-25.3662,-0.0339192,-0.0306006,0.0524886,0,0,4.165,-0.3675,0.0875,-0.011224,-0.42578,-0.872178,-0.04984,0.25774,0.34986
-9.64657,0,0,14.6466,14.6466,5,5,24.1164,3.60503,-25.3659,0.114049,-0.225999,0.0216266,1,0,3.745,0.0875,-0.07,0.137372,-0.62098,-0.9028,-0.04984,0.25774,0.34986
-9.64667,0,0,14.6467,14.6467,5,5,24.1167,3.60511,-25.3656,0.114048,-0.225995,0.0216246,1,0,3.745,0.0875,-0.07,0.137372,-0.62098,-0.9028,-0.04984,0.25774,0.34986
-9.63925,0,0,14.6392,14.6392,5,5,24.0981,3.18607,-25.1876,-0.307618,0.0789593,-0.0052654,0,0,3.64,0.07,-0.1925,-0.29341,-0.316224,-0.930006,-0.04984,0.25774,0.34986
-9.63095,0,0,14.6309,14.6309,5,5,24.0774,2.77845,-25.0261,-0.300513,0.0787801,-0.00477983,0,0,3.64,0.07,-0.1925,-0.29341,-0.316224,-0.930006,-0.04774,0.2667,0.34986
-9.57025,0,0,14.5703,14.5703,5,5,23.9256,2.8744,-25.1489,0.0506088,0.103198,-0.102384,0,0,3.2375,0.1575,-0.4025,0.060878,-0.289384,-1.02785,-0.04774,0.2667,0.34986
-9.51077,0,0,14.5108,14.5108,5,5,23.7769,2.96742,-25.2709,0.0489874,0.100794,-0.101412,0,0,3.2375,0.1575,-0.4025,0.060878,-0.289384,-1.02785,-0.04774,0.2667,0.34986
-9.51103,0,0,14.511,14.511,5,5,23.7776,2.9683,-25.2711,-0.119407,-0.184362,-0.0759665,1,0,3.9725,0.385,-0.5425,-0.108214,-0.574254,-1.0026,-0.04774,0.2667,0.34986
-9.51128,0,0,14.5113,14.5113,5,5,23.7782,2.96917,-25.2714,-0.119422,-0.184352,-0.0759717,1,0,3.9725,0.385,-0.5425,-0.108214,-0.574254,-1.0026,-0.04774,0.2667,0.34986
-9.51153,0,0,14.5115,14.5115,5,5,23.7788,2.96974,-25.2724,-0.210182,-0.0302186,0.180863,1,0,3.99,0.0175,-0.9275,-0.199348,-0.42029,-0.747738,-0.04774,0.2667,0.34986
-9.51178,0,0,14.5118,14.5118,5,5,23.7795,2.9703,-25.2735,-0.210192,-0.0302088,0.180858,1,0,3.99,0.0175,-0.9275,-0.199348,-0.42029,-0.747738,-0.04774,0.2667,0.34986
-9.51177,0,0,14.5118,14.5118,5,5,23.7794,2.97094,-25.274,0.242453,-0.233306,-0.0292612,1,0,3.605,0.175,-0.665,0.255224,-0.623176,-0.956236,-0.04774,0.2667,0.34986
-9.64783,0,0,14.6478,14.6478,5,5,24.1196,2.66137,-25.0624,-0.17808,-0.266005,0.116727,0,0,3.185,0.0175,-0.525,-0.172508,-0.661362,-0.809226,-0.05026,0.26684,0.35182
-9.78079,0,0,14.7808,14.7808,5,5,24.452,2.36006,-24.856,-0.172826,-0.260627,0.114553,0,0,3.2725,-0.2275,-0.63,-0.172508,-0.661362,-0.809226,-0.05026,0.26684,0.35182
-9.79092,0,0,14.7909,14.7909,5,5,24.4773,2.30598,-24.8491,-0.0350898,-0.00569747,0.0260056,0,0,3.64,0.0175,-0.385,-0.035136,-0.407114,-0.896944,-0.05026,0.26684,0.35182
-9.80078,0,0,14.8008,14.8008,5,5,24.5019,2.25333,-24.8424,-0.0341717,-0.00529104,0.0258606,0,0,3.64,0.0175,-0.385,-0.035136,-0.407114,-0.896944,-0.05026,0.26684,0.35182
-9.77998,0,0,14.78,14.78,5,5,24.45,2.01127,-24.7598,-0.176097,0.0928713,0.0140846,0,0,3.9725,-0.1575,-0.2625,-0.181902,-0.308294,-0.909144,-0.05026,0.26684,0.35182
-9.75924,0,0,14.7592,14.7592,5,5,24.3981,1.77468,-24.6775,-0.17197,0.092104,0.0145828,0,0,3.9725,-0.1575,-0.2625,-0.181902,-0.308294,-0.909144,-0.05026,0.26684,0.35182
-9.91724,0,0,14.9172,14.9172,5,5,24.7931,1.78027,-24.6016,0.0647081,-0.338601,0.194168,0,0,3.7275,-0.105,0.0175,0.055876,-0.74481,-0.728096,-0.05026,0.26684,0.35182
-9.97551,0,0,14.9755,14.9755,5,5,24.9388,1.70404,-24.5463,-0.0326084,-0.0861627,0.101662,0,0,3.3075,0.0175,0.175,-0.043188,-0.494954,-0.818864,-0.05026,0.26684,0.35182
-10.0326,0,0,15.0326,15.0326,5,5,25.0816,1.6303,-24.4849,-0.031322,-0.083889,0.100643,0,0,3.5525,-0.2625,0.1575,-0.043188,-0.494954,-0.818864,-0.0532,0.2625,0.34524
-9.98909,0,0,14.9891,14.9891,5,5,24.9727,1.62388,-24.5177,-0.0196688,0.0862237,-0.0706789,0,0,4.2525,-0.28,0.1225,-0.031598,-0.3233,-0.989664,-0.0532,0.2625,0.34524
-9.94618,0,0,14.9462,14.9462,5,5,24.8655,1.61753,-24.5501,-0.019558,0.0845278,-0.0698876,0,0,4.025,-0.0875,0.1225,-0.031598,-0.3233,-0.989664,-0.0532,0.2625,0.34524
-9.95272,0,0,14.9527,14.9527,5,5,24.8818,1.70955,-24.6005,0.076511,-0.063495,-0.0659926,0,0,4.025,0,0.14,0.06649,-0.471408,-0.985638,-0.0532,0.2625,0.34524
-9.95941,0,0,14.9594,14.9594,5,5,24.8985,1.79949,-24.6505,0.074942,-0.0632506,-0.0661589,0,0,4.235,0.035,-0.0175,0.06649,-0.471408,-0.985638,-0.0532,0.2625,0.34524
-9.98739,0,0,14.9874,14.9874,5,5,24.9685,1.59608,-24.5439,-0.141034,-0.0574587,-0.0296935,0,0,4.06,0.175,-0.21,-0.153964,-0.466772,-0.949038,-0.0532,0.2625,0.34524
-10.0145,0,0,15.0145,15.0145,5,5,25.0364,1.39766,-24.4388,-0.137572,-0.0563471,-0.0301121,0,0,4.095,0,-0.3325,-0.153964,-0.466772,-0.949038,-0.0532,0.2625,0.34524
-10.0148,0,0,15.0148,15.0148,5,5,25.037,1.39758,-24.4386,-0.0311492,0.109511,0.14029,1,0,3.9725,-0.035,-0.105,-0.047092,-0.301096,-0.779946,-0.0532,0.2625,0.34524
-10.0148,0,0,15.0148,15.0148,5,5,25.0369,1.39793,-24.438,-0.0311553,0.10951,0.14029,1,0,3.5525,0.315,0.035,-0.047092,-0.301096,-0.779946,-0.04914,0.26194,0.3507
-10.052,0,0,15.052,15.052,5,5,25.13,1.62087,-24.5338,0.190068,-0.143575,-0.00212775,0,0,3.8325,-0.4725,-0.175,0.178974,-0.555344,-0.92049,-0.04914,0.26194,0.3507
-10.0883,0,0,15.0883,15.0883,5,5,25.2208,1.83891,-24.6278,0.186264,-0.14219,-0.00290569,0,0,3.0975,-0.245,-0.175,0.178974,-0.555344,-0.92049,-0.04914,0.26194,0.3507
-10.1319,0,0,15.1319,15.1319,5,5,25.3297,1.75052,-24.5682,-0.0465399,-0.0714499,0.0578012,0,0,3.5525,-0.49,-0.2625,-0.056364,-0.486414,-0.85949,-0.04914,0.26194,0.3507
-10.1744,0,0,15.1744,15.1744,5,5,25.436,1.66495,-24.5092,-0.0450471,-0.0697555,0.0570465,0,0,3.4475,-0.2975,-0.1575,-0.056364,-0.486414,-0.85949,-0.04914,0.26194,0.3507
-10.1743,0,0,15.1743,15.1743,5,5,25.4357,1.66549,-24.5087,-0.0310855,0.00180541,-0.130079,1,0,3.4125,0.385,-0.07,-0.042334,-0.414922,-1.04517,-0.04914,0.26194,0.3507
-10.1744,0,0,15.1744,15.1744,5,5,25.436,1.66583,-24.5084,-0.0310914,0.00181075,-0.130082,1,0,3.7975,0.21,-0.175,-0.042334,-0.414922,-1.04517,-0.04914,0.26194,0.3507
-10.2125,0,0,15.2125,15.2125,5,5,25.5312,1.63524,-24.4778,-0.00881181,-0.0629992,0.0610179,0,0,3.9375,0.035,-0.0175,-0.020496,-0.481168,-0.854854,-0.04914,0.26194,0.3507
-10.2498,0,0,15.2498,15.2498,5,5,25.6245,1.60528,-24.4506,-0.00828924,-0.0615245,0.0603284,0,0,3.85,0.1575,0.21,-0.020496,-0.481168,-0.854854,-0.05152,0.26306,0.33894
-10.2498,0,0,15.2498,15.2498,5,5,25.6245,1.60516,-24.45,0.0793041,0.0454592,0.162867,1,0,3.6225,0.0525,0.1225,0.067466,-0.374296,-0.753106,-0.05152,0.26306,0.33894
-10.2498,0,0,15.2498,15.2498,5,5,25.6246,1.60448,-24.4498,0.0793159,0.0454603,0.162867,1,0,3.64,-0.3325,0.07,0.067466,-0.374296,-0.753106,-0.05152,0.26306,0.33894
-10.25,0,0,15.25,15.25,5,5,25.6249,1.60404,-24.4495,0.0431208,-0.0848434,-0.0879503,1,0,3.7975,-0.1925,0.035,0.03111,-0.50447,-1.00199,-0.05152,0.26306,0.33894
-10.2503,0,0,15.2503,15.2503,5,5,25.6258,1.60335,-24.4498,0.043133,-0.0848288,-0.0879569,1,0,4.13,-0.49,-0.2275,0.03111,-0.50447,-1.00199,-0.05152,0.26306,0.33894
-10.2506,0,0,15.2506,15.2506,5,5,25.6265,1.60298,-24.45,0.22391,-0.0542864,-0.099519,1,0,3.99,-0.2625,-0.21,0.212646,-0.47397,-1.01345,-0.05152,0.26306,0.33894
-10.2507,0,0,15.2507,15.2507,5,5,25.6268,1.60337,-24.45,0.223903,-0.0542817,-0.0995215,1,0,3.78,0.1575,-0.35,0.212646,-0.47397,-1.01345,-0.05152,0.26306,0.33894
-10.2511,0,0,15.2511,15.2511,5,5,25.6277,1.60406,-24.4497,0.013964,-0.0411996,-0.12252,1,0,4.13,0.4025,-0.245,0.00183,-0.460916,-1.03627,-0.05152,0.26306,0.33894
-10.2513,0,0,15.2513,15.2513,5,5,25.6283,1.60426,-24.4497,0.0139605,-0.0411913,-0.122524,1,0,3.9025,0.0875,-0.245,0.00183,-0.460916,-1.03627,-0.05152,0.26306,0.33894
-10.3121,0,0,15.3121,15.3121,5,5,25.7803,1.37967,-24.3201,-0.138109,-0.0972558,0.0589958,0,0,3.92,-0.4025,-0.5075,-0.154818,-0.519354,-0.855098,-0.04606,0.26628,0.34944
-10.3122,0,0,15.3122,15.3122,5,5,25.7805,1.37992,-24.3203,-0.0507648,-0.252965,0.00600354,1,0,3.71,0.0525,-0.385,-0.0671,-0.674904,-0.90768,-0.04606,0.26628,0.34944
-10.3121,0,0,15.3121,15.3121,5,5,25.7801,1.38019,-24.3207,-0.0507696,-0.25297,0.00600594,1,0,3.43,0,-0.525,-0.0671,-0.674904,-0.90768,-0.04606,0.26628,0.34944
-10.2373,0,0,15.2373,15.2373,5,5,25.5933,1.54142,-24.458,0.085883,0.148912,-0.0451448,0,0,3.3425,0.6125,-0.6475,0.072956,-0.270474,-0.959774,-0.04606,0.26628,0.34944
-10.1636,0,0,15.1636,15.1636,5,5,25.4091,1.69699,-24.5953,0.0831689,0.145977,-0.0438302,0,0,2.695,-0.07,-0.6125,0.072956,-0.270474,-0.959774,-0.04606,0.26628,0.34944
-10.2296,0,0,15.2296,15.2296,5,5,25.5739,1.39787,-24.426,-0.186778,-0.0879258,0.0824341,0,0,2.975,-0.6125,-0.49,-0.203374,-0.506788,-0.833382,-0.04606,0.26628,0.34944
-10.2939,0,0,15.2939,15.2939,5,5,25.7347,1.10729,-24.259,-0.181707,-0.0853482,0.0813191,0,0,3.185,-0.07,-0.49,-0.203374,-0.506788,-0.833382,-0.04606,0.26628,0.34944
-10.3662,0,0,15.3662,15.3662,5,5,25.9155,1.29878,-24.3124,0.142355,-0.103911,0.196068,0,0,3.57,0.0525,-0.6125,0.125416,-0.528138,-0.718092,-0.04662,0.2604,0.34664
-10.4013,0,0,15.4013,15.4013,5,5,26.0032,1.1329,-24.2133,-0.107683,-0.0614748,0.0143507,0,0,3.815,0.1225,-0.315,-0.128588,-0.487146,-0.897798,-0.04662,0.2604,0.34664
-10.4353,0,0,15.4353,15.4353,5,5,26.0882,0.970938,-24.1153,-0.104857,-0.0601189,0.0137458,0,0,3.64,-0.035,-0.0525,-0.128588,-0.487146,-0.897798,-0.04662,0.2604,0.34664
-10.4351,0,0,15.4351,15.4351,5,5,26.0877,0.970751,-24.1154,-0.171671,0.0312249,0.152435,1,0,3.36,-0.1575,-0.2275,-0.195688,-0.39589,-0.760182,-0.04662,0.2604,0.34664
-10.435,0,0,15.435,15.435,5,5,26.0875,0.970755,-24.1149,-0.171671,0.0312215,0.152437,1,0,3.4825,0.0875,0.0175,-0.195688,-0.39589,-0.760182,-0.04662,0.2604,0.34664
-10.4352,0,0,15.4352,15.4352,5,5,26.088,0.970463,-24.1147,0.0517463,0.0572418,-0.240756,1,0,3.8675,-0.1225,-0.0175,0.02867,-0.369904,-1.15034,-0.04662,0.2604,0.34664
-10.4352,0,0,15.4352,15.4352,5,5,26.088,0.970038,-24.1144,0.0517537,0.0572419,-0.240756,1,0,3.605,-0.175,0.0525,0.02867,-0.369904,-1.15034,-0.04662,0.2604,0.34664
-10.4354,0,0,15.4354,15.4354,5,5,26.0884,0.970017,-24.1136,-0.0951221,0.00449003,0.122185,1,0,3.85,0.14,0.1575,-0.118828,-0.422608,-0.790194,-0.04662,0.2604,0.34664
-10.4356,0,0,15.4356,15.4356,5,5,26.0891,0.97001,-24.1129,-0.095122,0.00450039,0.12218,1,0,3.9725,0.1575,0.175,-0.118828,-0.422608,-0.790194,-0.05124,0.26446,0.3486
-10.4361,0,0,15.4361,15.4361,5,5,26.0903,0.97026,-24.1116,-0.0201697,0.003421,0.15635,1,0,4.305,0.42,0.3675,-0.043554,-0.423706,-0.756278,-0.05124,0.26446,0.3486
-10.4365,0,0,15.4365,15.4365,5,5,26.0913,0.970545,-24.1111,-0.0201746,0.00343566,0.156342,1,0,4.13,0.245,-0.035,-0.043554,-0.423706,-0.756278,-0.05124,0.26446,0.3486
-10.6066,0,0,15.6066,15.6066,5,5,26.5165,0.525521,-23.8005,-0.252828,-0.257935,0.2472,0,0,4.13,-0.35,0.0175,-0.284992,-0.691496,-0.662948,-0.05124,0.26446,0.3486
-10.7728,0,0,15.7728,15.7728,5,5,26.932,0.091964,-23.4974,-0.245261,-0.25144,0.243976,0,0,4.13,-0.35,0.0175,-0.284992,-0.691496,-0.662948,-0.05124,0.26446,0.3486
-10.7724,0,0,15.7724,15.7724,5,5,26.9311,0.0912171,-23.4975,0.270701,-0.00500263,0.173165,1,0,3.08,-0.455,-0.0875,0.233142,-0.4453,-0.73322,-0.05124,0.26446,0.3486
-10.772,0,0,15.772,15.772,5,5,26.9301,0.0904702,-23.4976,0.270714,-0.00501731,0.173172,1,0,3.08,-0.455,-0.0875,0.233142,-0.4453,-0.73322,-0.05124,0.26446,0.3486
-10.78,0,0,15.78,15.78,5,5,26.9499,0.37289,-23.6199,0.184876,-0.00532871,0.112016,0,0,2.555,0.175,-0.175,0.15189,-0.44591,-0.793732,-0.05124,0.26446,0.3486
-10.7882,0,0,15.7882,15.7882,5,5,26.9706,0.647555,-23.7397,0.180082,-0.00502718,0.111814,0,0,2.555,0.175,-0.175,0.15189,-0.44591,-0.793732,-0.04774,0.26124,0.3465
-10.7521,0,0,15.7521,15.7521,5,5,26.8802,0.481445,-23.6682,-0.132274,0.109967,-0.0250259,0,0,3.8675,4.2525,-0.1225,-0.1647,-0.329644,-0.93025,-0.04774,0.26124,0.3465
-10.7164,0,0,15.7164,15.7164,5,5,26.791,0.31901,-23.597,-0.129439,0.108586,-0.0243049,0,0,3.8675,4.2525,-0.1225,-0.1647,-0.329644,-0.93025,-0.04774,0.26124,0.3465
-10.717,0,0,15.717,15.717,5,5,26.7926,0.312813,-23.6003,0.119836,-0.069205,-0.0776768,1,0,4.5325,-4.1475,-0.315,0.085522,-0.507276,-0.983198,-0.04774,0.26124,0.3465
-10.7177,0,0,15.7177,15.7177,5,5,26.7942,0.306615,-23.6036,0.119944,-0.0691794,-0.0776891,1,0,4.5325,-4.1475,-0.315,0.085522,-0.507276,-0.983198,-0.04774,0.26124,0.3465
-10.7631,0,0,15.7631,15.7631,5,5,26.9078,0.299602,-23.5674,0.010851,-0.124932,0.00637366,0,0,3.6575,0.105,-0.105,-0.024156,-0.564738,-0.898896,-0.04774,0.26124,0.3465
-10.7874,0,0,15.7874,15.7874,5,5,26.9684,0.295157,-23.5439,0.00521872,-0.0827099,-0.028531,0,0,3.9375,0.1925,-0.175,-0.02989,-0.523502,-0.933056,-0.04774,0.26124,0.3465
-10.8112,0,0,15.8112,15.8112,5,5,27.0279,0.291324,-23.5205,0.00528562,-0.0817845,-0.0290021,0,0,3.9375,0.3675,-0.21,-0.02989,-0.523502,-0.933056,-0.04774,0.26124,0.3465
-10.8117,0,0,15.8117,15.8117,5,5,27.0293,0.291654,-23.5199,-0.0971326,0.206211,-0.182575,1,0,4.3575,0.2975,0,-0.132736,-0.235826,-1.08543,-0.04774,0.26124,0.3465
-10.8121,0,0,15.8121,15.8121,5,5,27.0303,0.292143,-23.5193,-0.0971411,0.206228,-0.182584,1,0,4.2,0.385,-0.035,-0.132736,-0.235826,-1.08543,-0.04536,0.26124,0.34524
-10.8125,0,0,15.8125,15.8125,5,5,27.0312,0.292274,-23.5189,0.0243423,0.135774,0.168673,1,0,4.095,0.14,-0.0525,-0.010736,-0.30622,-0.73688,-0.04536,0.26124,0.34524
-10.816,0,0,15.816,15.816,5,5,27.0399,0.292047,-23.5188,0.0243463,0.13591,0.168604,1,0,8.505,-0.1225,-0.105,-0.010736,-0.30622,-0.73688,-0.04536,0.26124,0.34524
-10.8334,0,0,15.8334,15.8334,5,5,27.0835,0.487703,-23.5983,0.139259,-0.0400184,0.0664355,0,0,4.27,0.175,-0.14,0.108092,-0.482632,-0.837896,-0.04536,0.26124,0.34524
-10.8503,0,0,15.8503,15.8503,5,5,27.1258,0.678198,-23.677,0.135934,-0.0393776,0.0660696,0,0,3.5875,-0.1225,-0.245,0.108092,-0.482632,-0.837896,-0.04536,0.26124,0.34524
-10.9695,0,0,15.9695,15.9695,5,5,27.4237,0.37087,-23.4592,-0.172864,-0.181897,0.171065,0,0,2.8525,0.3675,-0.35,-0.2074,-0.629642,-0.73139,-0.04536,0.26124,0.34524
-11.0856,0,0,16.0856,16.0856,5,5,27.7139,0.0716483,-23.2458,-0.167642,-0.177397,0.168738,0,0,2.4325,0.21,-0.3325,-0.2074,-0.629642,-0.73139,-0.04536,0.26124,0.34524
-10.9158,0,0,15.9158,15.9158,5,5,27.2894,0.0442081,-23.315,-0.0707035,0.412132,-0.0583686,0,0,3.2375,-0.42,-0.35,-0.110532,-0.03416,-0.96014,-0.04536,0.26124,0.34524
-10.7483,0,0,15.7483,15.7483,5,5,26.8708,0.0185986,-23.3852,-0.0702565,0.405626,-0.0550419,0,0,3.045,0.105,-0.3325,-0.110532,-0.03416,-0.96014,-0.04928,0.26404,0.34216
-10.7483,0,0,15.7483,15.7483,5,5,26.8707,0.0183882,-23.3856,0.0296084,-0.0650508,0.179298,1,0,3.5875,-0.245,-0.3675,-0.010248,-0.504348,-0.727608,-0.04928,0.26404,0.34216
-10.7485,0,0,15.7485,15.7485,5,5,26.8713,0.0188954,-23.3853,0.0295996,-0.0650412,0.179293,1,0,3.955,0.2975,-0.2275,-0.010248,-0.504348,-0.727608,-0.04928,0.26404,0.34216
-10.7488,0,0,15.7488,15.7488,5,5,26.872,0.0190819,-23.3851,0.270867,-0.109973,-0.204434,1,0,3.99,0.1225,-0.1575,0.232044,-0.549244,-1.10837,-0.04928,0.26404,0.34216
-10.7489,0,0,15.7489,15.7489,5,5,26.8722,0.018872,-23.3856,0.270871,-0.109971,-0.204435,1,0,3.6925,-0.2625,-0.4025,0.232044,-0.549244,-1.10837,-0.04928,0.26404,0.34216
-10.7109,0,0,15.7109,15.7109,5,5,26.7772,0.0854375,-23.4336,0.0314753,0.1085,0.0498313,0,0,3.2725,-0.4025,-0.2275,-0.007198,-0.329522,-0.856806,-0.04928,0.26404,0.34216
-10.6735,0,0,15.6735,15.6735,5,5,26.6838,0.15126,-23.4807,0.0303265,0.107043,0.0505621,0,0,3.08,0.4025,-0.21,-0.007198,-0.329522,-0.856806,-0.04928,0.26404,0.34216
-10.6435,0,0,15.6435,15.6435,5,5,26.6087,0.00384707,-23.4219,-0.107903,0.108804,0.0233669,0,0,3.395,0.28,-0.2625,-0.148596,-0.326594,-0.884378,-0.04928,0.26404,0.34216
-10.6145,0,0,15.6145,15.6145,5,5,26.5362,-0.142006,-23.3576,-0.105357,0.107671,0.0239304,0,0,4.1125,-0.0525,-0.0525,-0.148596,-0.326594,-0.884378,-0.05446,0.26334,0.34328
-10.5072,0,0,15.5072,15.5072,5,5,26.268,-0.055544,-23.4457,0.0282261,0.221943,-0.147221,0,0,3.7625,-0.21,0.315,-0.012932,-0.208254,-1.05628,-0.05446,0.26334,0.34328
-10.4022,0,0,15.4022,15.4022,5,5,26.0055,0.0278828,-23.5341,0.02677,0.217829,-0.145201,0,0,4.13,-0.385,0.28,-0.012932,-0.208254,-1.05628,-0.05446,0.26334,0.34328
-10.3403,0,0,15.3403,15.3403,5,5,25.8507,0.0715856,-23.5819,0.0117934,0.108293,-0.138119,0,0,4.4275,-0.2275,0.2275,-0.027206,-0.315248,-1.05042,-0.05446,0.26334,0.34328
-10.2793,0,0,15.2793,15.2793,5,5,25.6982,0.114215,-23.629,0.0110494,0.105897,-0.136963,0,0,4.1125,0.1225,0.3325,-0.027206,-0.315248,-1.05042,-0.05446,0.26334,0.34328
-10.2795,0,0,15.2795,15.2795,5,5,25.6987,0.107386,-23.6318,0.13229,0.0218814,-0.135491,1,0,3.885,-4.34,0.0525,0.094428,-0.399184,-1.04896,-0.05446,0.26334,0.34328
-10.2797,0,0,15.2797,15.2797,5,5,25.6992,0.100557,-23.6345,0.132409,0.0218892,-0.135495,1,0,3.885,-4.34,0.0525,0.094428,-0.399184,-1.04896,-0.05446,0.26334,0.34328
-10.2952,0,0,15.2952,15.2952,5,5,25.7381,-0.132647,-23.5072,-0.160553,-0.0029013,0.0102719,0,0,3.01,-0.5425,-0.1225,-0.203862,-0.42456,-0.90402,-0.05446,0.26334,0.34328
-10.3102,0,0,15.3102,15.3102,5,5,25.7754,-0.360007,-23.3806,-0.156585,-0.0023231,0.009974,0,0,3.01,-0.5425,-0.1225,-0.203862,-0.42456,-0.90402,-0.05418,0.26376,0.34706
-10.2291,0,0,15.2291,15.2291,5,5,25.5727,-0.171024,-23.5073,0.109207,0.1601,-0.0645851,0,0,3.7625,-0.1225,-0.35,0.066368,-0.259128,-0.979538,-0.05418,0.26376,0.34706
-10.1497,0,0,15.1497,15.1497,5,5,25.3741,0.0128129,-23.634,0.105999,0.156972,-0.0630902,0,0,3.7625,-0.1225,-0.35,0.066368,-0.259128,-0.979538,-0.05418,0.26376,0.34706
-10.1969,0,0,15.1969,15.1969,5,5,25.4923,-0.0945513,-23.5504,-0.0615999,-0.0889614,0.0440949,0,0,4.1125,0.1575,-0.4025,-0.103822,-0.506666,-0.8723,-0.05418,0.26376,0.34706
-10.1599,0,0,15.1599,15.1599,5,5,25.3998,0.131224,-23.676,0.153255,0.0472178,-0.0442277,0,0,4.235,0.1225,-0.6475,0.1159,-0.369172,-0.960628,-0.05418,0.26376,0.34706
-10.1239,0,0,15.1239,15.1239,5,5,25.3097,0.351304,-23.8008,0.149414,0.0457893,-0.0435686,0,0,4.27,0.1925,-0.735,0.1159,-0.369172,-0.960628,-0.05418,0.26376,0.34706
-10.1627,0,0,15.1627,15.1627,5,5,25.4068,0.165816,-23.6868,-0.111823,-0.0244829,0.0961256,0,0,3.955,-0.0525,-0.735,-0.149694,-0.440908,-0.821304,-0.05418,0.26376,0.34706
-10.2003,0,0,15.2003,15.2003,5,5,25.5008,-0.0145553,-23.5737,-0.108675,-0.0230003,0.0954246,0,0,3.5875,0.2275,-0.5775,-0.149694,-0.440908,-0.821304,-0.05418,0.26376,0.34706
-10.1915,0,0,15.1915,15.1915,5,5,25.4788,0.106495,-23.6358,0.0784872,0.029411,0.0512039,0,0,3.57,0.2275,-0.42,0.040382,-0.388204,-0.865346,-0.05194,0.26446,0.3465
-10.1919,0,0,15.1919,15.1919,5,5,25.4797,0.107315,-23.6356,0.221948,-0.0190586,-0.152652,1,0,4.13,0.455,-0.315,0.184464,-0.436638,-1.06762,-0.05194,0.26446,0.3465
-10.1925,0,0,15.1925,15.1925,5,5,25.4813,0.106944,-23.6354,0.221954,-0.0190337,-0.152664,1,0,4.4975,-0.1925,-0.0525,0.184464,-0.436638,-1.06762,-0.05194,0.26446,0.3465
-10.1931,0,0,15.1931,15.1931,5,5,25.4828,0.107021,-23.6349,-0.31635,-0.04197,-0.217223,1,0,4.445,0.14,0.035,-0.356118,-0.459574,-1.13167,-0.05194,0.26446,0.3465
-10.1935,0,0,15.1935,15.1935,5,5,25.4836,0.107271,-23.6345,-0.316355,-0.0419563,-0.217229,1,0,4.095,0.21,-0.0525,-0.356118,-0.459574,-1.13167,-0.05194,0.26446,0.3465
-10.2162,0,0,15.2162,15.2162,5,5,25.5404,0.127224,-23.6305,0.0200553,-0.0104087,0.100534,0,0,3.6575,-0.0875,-0.035,-0.017934,-0.428952,-0.815936,-0.05194,0.26446,0.3465
-10.238,0,0,15.238,15.238,5,5,25.5951,0.146871,-23.6262,0.0197124,-0.00954872,0.100122,0,0,3.01,-0.0175,0.1225,-0.017934,-0.428952,-0.815936,-0.05194,0.26446,0.3465
-10.2877,0,0,15.2877,15.2877,5,5,25.7192,0.360289,-23.7017,0.187161,-0.179191,0.0102772,0,0,2.73,-0.0175,0.21,0.153964,-0.600362,-0.904142,-0.05194,0.26446,0.3465
-10.3369,0,0,15.3369,15.3369,5,5,25.8423,0.57039,-23.7648,0.183494,-0.177269,0.00931576,0,0,3.43,-0.07,0.2625,0.153964,-0.600362,-0.904142,-0.05096,0.25634,0.34496
-10.2904,0,0,15.2904,15.2904,5,5,25.7259,0.78491,-23.8878,0.125082,0.112643,0.059093,0,0,3.745,-0.525,-0.035,0.099064,-0.308904,-0.855586,-0.05096,0.25634,0.34496
-10.2452,0,0,15.2452,15.2452,5,5,25.613,0.993946,-24.0102,0.121434,0.110843,0.0598953,0,0,4.235,-0.4725,-0.1225,0.099064,-0.308904,-0.855586,-0.05096,0.25634,0.34496
-10.223,0,0,15.223,15.223,5,5,25.5574,0.597756,-23.8235,-0.293936,0.115994,-0.0105404,0,0,3.8325,-0.175,-0.0525,-0.325008,-0.302926,-0.92598,-0.05096,0.25634,0.34496
-10.2004,0,0,15.2004,15.2004,5,5,25.501,0.210056,-23.6375,-0.28717,0.115126,-0.010073,0,0,3.6575,-0.315,-0.2625,-0.325008,-0.302926,-0.92598,-0.05096,0.25634,0.34496
-10.2006,0,0,15.2006,15.2006,5,5,25.5015,0.210016,-23.6376,-0.141022,0.0821598,-0.196344,1,0,3.9025,-0.07,-0.245,-0.178242,-0.335866,-1.11081,-0.05096,0.25634,0.34496
-10.2005,0,0,15.2005,15.2005,5,5,25.5013,0.210798,-23.638,-0.141036,0.0821557,-0.196342,1,0,3.465,0.2625,-0.665,-0.178242,-0.335866,-1.11081,-0.05096,0.25634,0.34496
-10.1414,0,0,15.1414,15.1414,5,5,25.3534,0.835357,-23.9712,0.421598,0.101276,0.0815563,0,0,3.85,0.385,-0.875,0.39772,-0.314394,-0.836066,-0.05096,0.25634,0.34496
-10.0838,0,0,15.0838,15.0838,5,5,25.2094,1.44374,-24.3084,0.410982,0.0989145,0.0824382,0,0,4.0425,0.1575,-0.665,0.39772,-0.314394,-0.836066,-0.0497,0.2604,0.34594
-10.2027,0,0,15.2027,15.2027,5,5,25.5068,1.46414,-24.2525,0.056617,-0.249468,0.157911,0,0,3.57,0.28,-0.595,0.042212,-0.667096,-0.758962,-0.0497,0.2604,0.34594
-10.3198,0,0,15.3198,15.3198,5,5,25.7994,1.48496,-24.1975,0.0562537,-0.24487,0.155692,0,0,3.815,0.1575,-0.5775,0.042212,-0.667096,-0.758962,-0.0497,0.2604,0.34594
-10.2144,0,0,15.2144,15.2144,5,5,25.536,1.34697,-24.1981,-0.135351,0.270906,-0.0512756,0,0,3.7275,0.1925,-0.2625,-0.152622,-0.147742,-0.966362,-0.0497,0.2604,0.34594
-10.1114,0,0,15.1114,15.1114,5,5,25.2784,1.21092,-24.1979,-0.132977,0.266869,-0.0492993,0,0,4.6375,0.035,-0.1225,-0.152622,-0.147742,-0.966362,-0.0497,0.2604,0.34594
-10.1393,0,0,15.1393,15.1393,5,5,25.3483,1.16716,-24.1643,-0.0217833,-0.0522392,0.0302337,0,0,4.235,-0.105,-0.0875,-0.041724,-0.467626,-0.88694,-0.0497,0.2604,0.34594
-10.1666,0,0,15.1666,15.1666,5,5,25.4166,1.12472,-24.1311,-0.0210427,-0.051155,0.0297357,0,0,4.235,-0.105,-0.0875,-0.041724,-0.467626,-0.88694,-0.0497,0.2604,0.34594
-10.1668,0,0,15.1668,15.1668,5,5,25.417,1.12428,-24.1308,0.253158,-0.0708119,-0.136493,1,0,3.7975,-0.175,0.07,0.23363,-0.487268,-1.05188,-0.0497,0.2604,0.34594
-10.1669,0,0,15.1669,15.1669,5,5,25.4173,1.12385,-24.1304,0.253166,-0.0708065,-0.136496,1,0,3.7975,-0.175,0.07,0.23363,-0.487268,-1.05188,-0.05096,0.2646,0.34748
-10.1417,0,0,15.1417,15.1417,5,5,25.3543,1.04677,-24.1081,-0.0649966,0.0984565,0.0548145,0,0,3.2725,4.3925,0.2625,-0.08723,-0.3172,-0.86254,-0.05096,0.2646,0.34748
-10.1169,0,0,15.1169,15.1169,5,5,25.2923,0.971318,-24.0859,-0.06368,0.0974873,0.0552989,0,0,3.2725,4.3925,0.2625,-0.08723,-0.3172,-0.86254,-0.05096,0.2646,0.34748
-10.1172,0,0,15.1172,15.1172,5,5,25.293,0.970831,-24.0856,-0.221724,0.00614881,0.262953,1,0,4.0425,-0.21,0.07,-0.245952,-0.408456,-0.656482,-0.05096,0.2646,0.34748
-10.1175,0,0,15.1175,15.1175,5,5,25.2938,0.970344,-24.0853,-0.221716,0.00616115,0.262948,1,0,4.0425,-0.21,0.07,-0.245952,-0.408456,-0.656482,-0.05096,0.2646,0.34748
-10.1176,0,0,15.1176,15.1176,5,5,25.294,0.969642,-24.0856,0.0556482,-0.0903166,-0.142906,1,0,3.6925,-0.49,-0.2275,0.032574,-0.504836,-1.0592,-0.05096,0.2646,0.34748
-10.1176,0,0,15.1176,15.1176,5,5,25.2941,0.968941,-24.0859,0.0556604,-0.0903143,-0.142907,1,0,3.6925,-0.49,-0.2275,0.032574,-0.504836,-1.0592,-0.05096,0.2646,0.34748
-10.1174,0,0,15.1174,15.1174,5,5,25.2934,0.969313,-24.0867,0.0814089,0.0103074,-0.117206,1,0,3.2375,-0.035,-0.735,0.058438,-0.404308,-1.03371,-0.05096,0.2646,0.34748
-10.1174,0,0,15.1174,15.1174,5,5,25.2935,0.97006,-24.0876,0.155016,0.0112855,-0.172042,1,0,3.6575,0.1575,-0.84,0.13237,-0.403332,-1.08812,-0.05096,0.2646,0.34748
-10.1177,0,0,15.1177,15.1177,5,5,25.2942,0.971346,-24.0881,0.154994,0.0112964,-0.172047,1,0,4.0075,0.5075,-0.84,0.13237,-0.403332,-1.08812,-0.04732,0.26306,0.34258
-10.1184,0,0,15.1184,15.1184,5,5,25.2959,0.972271,-24.0887,0.186321,0.00326274,-0.163331,1,0,4.5675,0.315,-0.7525,0.163846,-0.411384,-1.07946,-0.04732,0.26306,0.34258
-10.1187,0,0,15.1187,15.1187,5,5,25.2969,0.972473,-24.0893,0.186317,0.00327769,-0.163338,1,0,4.1475,-0.0875,-0.6125,0.163846,-0.411384,-1.07946,-0.04732,0.26306,0.34258
-10.1189,0,0,15.1189,15.1189,5,5,25.2972,0.97304,-24.0897,0.156179,-0.239384,-0.121661,1,0,3.78,0.1575,-0.595,0.13359,-0.653798,-1.0381,-0.04732,0.26306,0.34258
-10.1185,0,0,15.1185,15.1185,5,5,25.2961,0.973261,-24.0901,0.156175,-0.2394,-0.121653,1,0,3.045,0,-0.455,0.13359,-0.653798,-1.0381,-0.04732,0.26306,0.34258
-10.1181,0,0,15.1181,15.1181,5,5,25.2953,0.973514,-24.0902,0.023144,0.175573,0.0424893,1,0,3.115,0.07,-0.35,0,-0.239242,-0.875228,-0.04732,0.26306,0.34258
-10.1181,0,0,15.1181,15.1181,5,5,25.2953,0.972656,-24.0903,0.0231589,0.175575,0.0424889,1,0,3.6575,-0.525,-0.0875,0,-0.239242,-0.875228,-0.04732,0.26306,0.34258
-10.118,0,0,15.118,15.118,5,5,25.2949,0.971843,-24.0902,0.0614411,-0.21365,-0.0813169,1,0,3.3775,-0.4375,0.035,0.03843,-0.628056,-0.998082,-0.04732,0.26306,0.34258
-10.118,0,0,15.118,15.118,5,5,25.2951,0.971491,-24.0898,0.0614472,-0.213647,-0.0813182,1,0,3.71,-0.1225,0.07,0.03843,-0.628056,-0.998082,-0.04928,0.2569,0.34916
-10.118,0,0,15.118,15.118,5,5,25.2949,0.971393,-24.0888,-0.123331,-0.128405,-0.0514404,1,0,3.5,0.175,0.35,-0.147132,-0.5429,-0.968436,-0.04928,0.2569,0.34916
-10.1178,0,0,15.1178,15.1178,5,5,25.2946,0.9718,-24.0873,-0.123338,-0.128411,-0.0514376,1,0,3.3775,0.56,0.4725,-0.147132,-0.5429,-0.968436,-0.04928,0.2569,0.34916
-10.0101,0,0,15.0101,15.0101,5,5,25.0252,1.17605,-24.2504,0.113761,0.22416,-0.0813432,0,0,3.675,-0.2275,0.2625,0.09455,-0.186416,-1.00003,-0.04928,0.2569,0.34916
-9.90452,0,0,14.9045,14.9045,5,5,24.7613,1.37389,-24.4139,0.110309,0.219951,-0.0794748,0,0,3.955,-0.77,0.2975,0.09455,-0.186416,-1.00003,-0.04928,0.2569,0.34916
-9.95831,0,0,14.9583,14.9583,5,5,24.8958,1.42498,-24.4077,0.0520762,-0.0916722,0.111689,0,0,3.9375,-0.35,0.0875,0.036966,-0.499834,-0.809348,-0.04928,0.2569,0.34916
-10.0111,0,0,15.0111,15.0111,5,5,25.0277,1.47579,-24.4019,0.0511897,-0.0895947,0.110697,0,0,3.78,-0.175,-0.21,0.036966,-0.499834,-0.809348,-0.04928,0.2569,0.34916
-10.0109,0,0,15.0109,15.0109,5,5,25.0272,1.47627,-24.4017,0.191983,-0.329094,-0.138024,1,0,3.3075,0.2625,-0.245,0.178364,-0.739076,-1.05615,-0.04928,0.2569,0.34916
-10.0104,0,0,15.0104,15.0104,5,5,25.0261,1.47646,-24.4022,0.19198,-0.329111,-0.138016,1,0,3.01,-0.0525,-0.525,0.178364,-0.739076,-1.05615,-0.0483,0.26054,0.34524
-10.0101,0,0,15.0101,15.0101,5,5,25.0251,1.47653,-24.4029,-0.154741,-0.0398079,-0.0858791,1,0,3.08,-0.175,-0.63,-0.169824,-0.450058,-1.00443,-0.0483,0.26054,0.34524
-10.0103,0,0,15.0103,15.0103,5,5,25.0258,1.47726,-24.4038,-0.154754,-0.0397977,-0.0858842,1,0,3.99,0.1225,-0.8925,-0.169824,-0.450058,-1.00443,-0.0483,0.26054,0.34524
-9.98228,0,0,14.9823,14.9823,5,5,24.9557,1.16147,-24.2735,-0.247162,0.108631,-0.0390239,0,0,4.2175,0.175,-0.91,-0.268156,-0.30073,-0.958554,-0.0483,0.26054,0.34524
-9.95426,0,0,14.9543,14.9543,5,5,24.8857,0.852134,-24.1431,-0.241763,0.107562,-0.0384229,0,0,4.1475,0.035,-0.7525,-0.268156,-0.30073,-0.958554,-0.0483,0.26054,0.34524
-9.89787,0,0,14.8979,14.8979,5,5,24.7447,1.06122,-24.2859,0.145772,0.0777028,-0.113059,0,0,3.5875,0.1575,-0.5425,0.124684,-0.328302,-1.03358,-0.0483,0.26054,0.34524
-9.84223,0,0,14.8422,14.8422,5,5,24.6056,1.26397,-24.4285,0.142234,0.0754672,-0.112111,0,0,2.975,-0.42,-0.595,0.124684,-0.328302,-1.03358,-0.0483,0.26054,0.34524
-9.92366,0,0,14.9237,14.9237,5,5,24.8092,1.14918,-24.3302,-0.0553641,-0.169449,0.0776275,0,0,3.0275,-0.245,-0.245,-0.075762,-0.576206,-0.843874,-0.0483,0.26054,0.34524
-10.0037,0,0,15.0037,15.0037,5,5,25.0091,1.03755,-24.2389,-0.0534161,-0.166269,0.0761915,0,0,3.3075,-0.21,0.0875,-0.075762,-0.576206,-0.843874,-0.04284,0.26124,0.3437
-10.04,0,0,15.04,15.04,5,5,25.1,1.1433,-24.282,0.0838396,-0.0546891,0.109914,0,0,3.535,-0.3675,0.1225,0.063928,-0.466162,-0.809714,-0.04284,0.26124,0.3437
-10.0762,0,0,15.0762,15.0762,5,5,25.1904,1.24712,-24.3242,0.0820281,-0.0532764,0.109209,0,0,4.025,-0.1225,0.2275,0.063928,-0.466162,-0.809714,-0.04284,0.26124,0.3437
-10.0763,0,0,15.0763,15.0763,5,5,25.1908,1.24685,-24.323,0.133664,-0.196404,-0.0929207,1,0,3.78,0.1225,0.4725,0.115778,-0.609146,-1.01028,-0.04284,0.26124,0.3437
-10.0762,0,0,15.0762,15.0762,5,5,25.1905,1.24705,-24.3219,0.133661,-0.196408,-0.0929186,1,0,3.43,0.3675,0.35,0.115778,-0.609146,-1.01028,-0.04284,0.26124,0.3437
-10.0567,0,0,15.0567,15.0567,5,5,25.1419,1.25927,-24.3516,0.000177719,0.0711344,0.0536236,0,0,3.395,0,0.105,-0.018056,-0.341112,-0.865224,-0.04284,0.26124,0.3437
-10.0377,0,0,15.0377,15.0377,5,5,25.0943,1.27005,-24.3814,-1.04508e-05,0.0703806,0.0539725,0,0,3.4475,-0.595,0.175,-0.018056,-0.341112,-0.865224,-0.04284,0.26124,0.3437
-10.0376,0,0,15.0376,15.0376,5,5,25.094,1.2697,-24.3812,-0.262899,-0.103898,-0.0581548,1,0,3.4825,-0.1575,0,-0.282064,-0.515206,-0.976488,-0.04284,0.26124,0.3437
-10.0376,0,0,15.0376,15.0376,5,5,25.094,1.2703,-24.3811,-0.26291,-0.103898,-0.058155,1,0,3.605,0.2975,-0.35,-0.282064,-0.515206,-0.976488,-0.04284,0.26124,0.3437
-10.0375,0,0,15.0375,15.0375,5,5,25.0938,1.27082,-24.3811,0.314381,-0.178643,0.0443855,1,0,3.4825,0.245,-0.35,0.29768,-0.58987,-0.87474,-0.05152,0.2611,0.34216
-10.0374,0,0,15.0374,15.0374,5,5,25.0936,1.27091,-24.382,0.31438,-0.178647,0.0443873,1,0,3.4825,-0.21,-0.7175,0.29768,-0.58987,-0.87474,-0.05152,0.2611,0.34216
-10.0038,0,0,15.0038,15.0038,5,5,25.0096,1.53467,-24.5388,0.199226,0.0136703,-0.0851736,0,0,3.4475,-0.1225,-1.2075,0.18666,-0.396378,-1.00382,-0.05152,0.2611,0.34216
-9.97108,0,0,14.9711,14.9711,5,5,24.9277,1.79174,-24.6944,0.194741,0.0123207,-0.0846888,0,0,3.4475,-0.1225,-1.2075,0.18666,-0.396378,-1.00382,-0.05152,0.2611,0.34216
-9.97968,0,0,14.9797,14.9797,5,5,24.9492,1.62099,-24.6162,-0.121666,0.00927881,0.011871,0,0,3.745,0.105,-1.295,-0.134078,-0.399794,-0.907924,-0.05152,0.2611,0.34216
-9.98788,0,0,14.9879,14.9879,5,5,24.9697,1.45433,-24.5387,-0.118759,0.00963585,0.0117909,0,0,3.745,0.105,-1.295,-0.134078,-0.399794,-0.907924,-0.05152,0.2611,0.34216
-9.89023,0,0,14.8902,14.8902,5,5,24.7256,1.82506,-24.7891,0.258547,0.168733,-0.114454,0,0,3.43,0.14,-0.805,0.25132,-0.236924,-1.0348,-0.05152,0.2611,0.34216
-9.79447,0,0,14.7945,14.7945,5,5,24.4862,2.18632,-25.0391,0.252246,0.164844,-0.112916,0,0,3.43,0.14,-0.805,0.25132,-0.236924,-1.0348,-0.05152,0.2611,0.34216
-9.87395,0,0,14.8739,14.8739,5,5,24.6849,2.05821,-24.9361,-0.0662424,-0.175879,0.0548947,0,0,2.8525,0.21,-0.105,-0.07076,-0.580476,-0.866932,-0.05012,0.26012,0.3458
-9.87346,0,0,14.8735,14.8735,5,5,24.6836,2.05773,-24.9353,-0.019705,-0.030201,-0.232919,1,0,2.905,-0.0875,0.3325,-0.024034,-0.43493,-1.15253,-0.05012,0.26012,0.3458
-9.8737,0,0,14.8737,14.8737,5,5,24.6842,2.0573,-24.9342,-0.0196974,-0.0301915,-0.232923,1,0,3.92,0.0175,0.49,-0.024034,-0.43493,-1.15253,-0.05012,0.26012,0.3458
-9.87389,0,0,14.8739,14.8739,5,5,24.6847,2.05688,-24.9325,0.271511,-0.200428,-0.00522533,1,0,3.85,0.14,0.735,0.2684,-0.604998,-0.92659,-0.05012,0.26012,0.3458
-9.87441,0,0,14.8744,14.8744,5,5,24.686,2.05661,-24.9307,0.271516,-0.200407,-0.00523471,1,0,4.305,0.28,0.84,0.2684,-0.604998,-0.92659,-0.05012,0.26012,0.3458
-9.9062,0,0,14.9062,14.9062,5,5,24.7655,1.84257,-24.8139,-0.142176,-0.0243318,0.0544227,0,0,3.99,0.315,0.9275,-0.150792,-0.430416,-0.866932,-0.05012,0.26012,0.3458
-9.93657,0,0,14.9366,14.9366,5,5,24.8414,1.63341,-24.6986,-0.138527,-0.0230831,0.0539676,0,0,3.29,0.0875,0.9625,-0.150792,-0.430416,-0.866932,-0.05012,0.26012,0.3458
-9.93649,0,0,14.9365,14.9365,5,5,24.8412,1.63241,-24.6974,0.164233,0.315694,0.165115,1,0,3.4825,-0.2625,0.6825,0.153232,-0.091988,-0.756644,-0.05012,0.26012,0.3458
-9.93659,0,0,14.9366,14.9366,5,5,24.8415,1.63162,-24.6965,0.164247,0.315698,0.165114,1,0,3.7275,-0.2275,0.455,0.153232,-0.091988,-0.756644,-0.0497,0.25998,0.34216
-9.93636,0,0,14.9364,14.9364,5,5,24.8409,1.63139,-24.6955,0.0578294,-0.115297,-0.0727875,1,0,3.2725,0.0875,0.35,0.04636,-0.522526,-0.992714,-0.0497,0.25998,0.34216
-9.93622,0,0,14.9362,14.9362,5,5,24.8406,1.63168,-24.6953,0.0578244,-0.115302,-0.0727851,1,0,3.4125,0.1575,-0.21,0.04636,-0.522526,-0.992714,-0.0497,0.25998,0.34216
-9.9314,0,0,14.9314,14.9314,5,5,24.8285,1.26314,-24.5239,-0.262056,0.087916,0.0470796,0,0,3.535,0.14,-0.42,-0.281332,-0.319396,-0.874008,-0.0497,0.25998,0.34216
-9.92613,0,0,14.9261,14.9261,5,5,24.8153,0.902577,-24.3537,-0.255764,0.0877572,0.0472841,0,0,3.57,-0.035,-0.7175,-0.281332,-0.319396,-0.874008,-0.0497,0.25998,0.34216
-9.82927,0,0,14.8293,14.8293,5,5,24.5732,1.07375,-24.5012,0.0928284,0.202482,-0.0778803,0,0,3.85,-0.28,-0.9625,0.071736,-0.200934,-0.999912,-0.0497,0.25998,0.34216
-9.73399,0,0,14.734,14.734,5,5,24.335,1.24023,-24.6486,0.0899234,0.198674,-0.076213,0,0,3.5175,-0.28,-0.9975,0.071736,-0.200934,-0.999912,-0.0497,0.25998,0.34216
-9.73547,0,0,14.7355,14.7355,5,5,24.3387,1.29002,-24.6805,0.0375446,-0.0149973,-0.00765179,0,0,3.675,0.07,-1.085,0.020008,-0.414434,-0.931836,-0.0497,0.25998,0.34216
-9.73671,0,0,14.7367,14.7367,5,5,24.3418,1.33806,-24.7102,0.0367064,-0.0149558,-0.00769164,0,0,3.3075,-0.2625,-0.91,0.020008,-0.414434,-0.931836,-0.05082,0.25956,0.34258
-9.67609,0,0,14.6761,14.6761,5,5,24.1902,1.77122,-24.971,0.310753,0.0894104,-0.0199475,0,0,3.4825,-0.175,-0.735,0.302804,-0.307684,-0.94489,-0.05082,0.25956,0.34258
-9.61695,0,0,14.6169,14.6169,5,5,24.0424,2.19329,-25.2301,0.303391,0.0869523,-0.0191263,0,0,3.6575,-0.315,-0.49,0.302804,-0.307684,-0.94489,-0.05082,0.25956,0.34258
-9.62669,0,0,14.6267,14.6267,5,5,24.0667,2.00546,-25.144,-0.131775,0.0203418,0.0392107,0,0,3.5875,-0.175,-0.21,-0.137494,-0.374662,-0.88694,-0.05082,0.25956,0.34258
-9.63612,0,0,14.6361,14.6361,5,5,24.0903,1.82245,-25.058,-0.128583,0.0207607,0.0391403,0,0,3.7625,0.1575,-0.0175,-0.137494,-0.374662,-0.88694,-0.05082,0.25956,0.34258
-9.6363,0,0,14.6363,14.6363,5,5,24.0907,1.82209,-25.0576,0.309258,-0.463098,0.0913905,1,0,3.85,-0.1225,0.0875,0.302194,-0.858026,-0.83509,-0.05082,0.25956,0.34258
-9.6366,0,0,14.6366,14.6366,5,5,24.0915,1.82235,-25.0566,0.309254,-0.463087,0.0913851,1,0,4.0075,0.3325,0.2275,0.302194,-0.858026,-0.83509,-0.05082,0.25956,0.34258
-9.63684,0,0,14.6368,14.6368,5,5,24.0921,1.82271,-25.0559,0.144027,-0.163866,-0.151074,1,0,3.9375,0.3325,0.07,0.136274,-0.559126,-1.07567,-0.05082,0.25956,0.34258
-9.63679,0,0,14.6368,14.6368,5,5,24.092,1.82237,-25.0557,0.144033,-0.163868,-0.151073,1,0,3.535,-0.1575,-0.0175,0.136274,-0.559126,-1.07567,-0.04872,0.26152,0.33866
-9.63672,0,0,14.6367,14.6367,5,5,24.0918,1.82125,-25.0561,-0.0659965,0.147186,0.293265,1,0,3.5175,-0.735,-0.175,-0.074664,-0.248392,-0.634766,-0.04872,0.26152,0.33866
-9.63671,0,0,14.6367,14.6367,5,5,24.0918,1.82093,-25.0566,-0.065991,0.147186,0.293265,1,0,3.605,-0.315,-0.4025,-0.074664,-0.248392,-0.634766,-0.04872,0.26152,0.33866
-9.63626,0,0,14.6363,14.6363,5,5,24.0907,1.82066,-25.0573,-0.145073,-0.149112,-0.106432,1,0,2.9925,-0.35,-0.5425,-0.154086,-0.544364,-1.03139,-0.04872,0.26152,0.33866
-9.63575,0,0,14.6357,14.6357,5,5,24.0894,1.82115,-25.0581,-0.145082,-0.149132,-0.106423,1,0,2.905,0.035,-0.77,-0.154086,-0.544364,-1.03139,-0.04872,0.26152,0.33866
-9.61723,0,0,14.6172,14.6172,5,5,24.0431,1.48687,-24.9187,-0.272277,0.0756451,-0.0690557,0,0,3.4475,-0.0175,-0.805,-0.287676,-0.319152,-0.994788,-0.04872,0.26152,0.33866
-9.59854,0,0,14.5985,14.5985,5,5,23.9964,1.16003,-24.7796,-0.266574,0.0749541,-0.0686036,0,0,3.395,0.1225,-0.945,-0.287676,-0.319152,-0.994788,-0.04872,0.26152,0.33866
-9.59849,0,0,14.5985,14.5985,5,5,23.9962,1.16083,-24.7811,-0.058969,0.249837,0.0763534,1,0,3.5525,0.035,-1.225,-0.079178,-0.144448,-0.85095,-0.04872,0.26152,0.33866
-9.59843,0,0,14.5984,14.5984,5,5,23.9961,1.16127,-24.7825,-0.0589766,0.249835,0.0763544,1,0,3.535,-0.1225,-1.05,-0.079178,-0.144448,-0.85095,-0.05964,0.25914,0.3437
-9.59833,0,0,14.5983,14.5983,5,5,23.9958,1.16189,-24.7835,0.120447,-0.217182,-0.0815099,1,0,3.4825,0.0525,-0.9275,0.101016,-0.610976,-1.0076,-0.05964,0.25914,0.3437
-9.59835,0,0,14.5983,14.5983,5,5,23.9959,1.16224,-24.7838,0.120441,-0.217181,-0.0815104,1,0,3.64,0.0875,-0.455,0.101016,-0.610976,-1.0076,-0.05964,0.25914,0.3437
-9.55204,0,0,14.552,14.552,5,5,23.8801,0.995039,-24.7211,-0.13735,0.132475,-0.041051,0,0,3.99,-0.07,4.34,-0.160796,-0.25986,-0.968314,-0.05964,0.25914,0.3437
-9.50639,0,0,14.5064,14.5064,5,5,23.766,0.833869,-24.6648,-0.134537,0.130672,-0.0402056,0,0,4.1475,-0.2275,0.245,-0.160796,-0.25986,-0.968314,-0.05964,0.25914,0.3437
-9.58416,0,0,14.5842,14.5842,5,5,23.9604,0.743393,-24.5661,-0.0401432,-0.167137,0.0704477,0,0,3.9025,-0.07,0.56,-0.067588,-0.560468,-0.857172,-0.05964,0.25914,0.3437
-9.66059,0,0,14.6606,14.6606,5,5,24.1515,0.655685,-24.4685,-0.0386125,-0.164084,0.0691056,0,0,4.2,-0.0175,0.735,-0.067588,-0.560468,-0.857172,-0.05964,0.25914,0.3437
-9.74326,0,0,14.7433,14.7433,5,5,24.3582,0.84091,-24.5005,0.16298,-0.187315,0.137666,0,0,4.305,-0.035,1.085,0.138104,-0.586942,-0.787632,-0.05964,0.25914,0.3437
-9.82478,0,0,14.8248,14.8248,5,5,24.5619,1.0224,-24.5313,0.159813,-0.184099,0.136147,0,0,4.305,-0.035,1.085,0.138104,-0.586942,-0.787632,-0.05964,0.25914,0.3437
-9.80276,0,0,14.8028,14.8028,5,5,24.5069,1.25393,-24.6585,0.159782,0.0331125,0.0218844,0,0,3.7625,0.2275,0.7,0.14213,-0.36905,-0.901336,-0.05194,0.25858,0.3409
-9.84088,0,0,14.8409,14.8409,5,5,24.6022,0.913374,-24.4669,-0.229712,-0.0155222,0.0751469,0,0,2.94,0.1225,0.42,-0.25498,-0.419192,-0.8479,-0.05194,0.25858,0.3409
-9.87776,0,0,14.8778,14.8778,5,5,24.6944,0.580746,-24.2772,-0.223907,-0.0140281,0.0745446,0,0,2.94,0.1225,0.42,-0.25498,-0.419192,-0.8479,-0.05194,0.25858,0.3409
-9.87775,0,0,14.8777,14.8777,5,5,24.6944,0.5801,-24.2769,0.12246,0.127638,-0.217458,1,0,3.5875,-0.315,0.07,0.092842,-0.277672,-1.13765,-0.05194,0.25858,0.3409
-9.87773,0,0,14.8777,14.8777,5,5,24.6943,0.579453,-24.2767,0.122472,0.127638,-0.217457,1,0,3.5875,-0.315,0.07,0.092842,-0.277672,-1.13765,-0.05194,0.25858,0.3409
-9.81204,0,0,14.812,14.812,5,5,24.5301,0.539132,-24.2918,-0.0516426,0.163871,-0.0352771,0,0,3.5,0.0175,-0.525,-0.082716,-0.238876,-0.958066,-0.05194,0.25858,0.3409
-9.74744,0,0,14.7474,14.7474,5,5,24.3686,0.499247,-24.3067,-0.0509465,0.161308,-0.0341048,0,0,3.5,0.0175,-0.525,-0.082716,-0.238876,-0.958066,-0.05194,0.25858,0.3409
-9.7558,0,0,14.7558,14.7558,5,5,24.3895,0.544202,-24.3153,0.0347667,-0.0208201,0.0186059,0,0,3.57,0.2975,-1.12,0.004148,-0.421144,-0.905606,-0.05152,0.25564,0.34776
-9.88716,0,0,14.8872,14.8872,5,5,24.7179,0.210583,-24.0618,-0.190841,-0.188278,0.21728,0,0,3.3775,0,-1.3125,-0.228262,-0.593652,-0.706136,-0.05152,0.25564,0.34776
-10.0156,0,0,15.0156,15.0156,5,5,25.039,-0.114552,-23.8132,-0.185166,-0.183192,0.214926,0,0,3.3775,0,-1.3125,-0.228262,-0.593652,-0.706136,-0.05152,0.25564,0.34776
-10.0157,0,0,15.0157,15.0157,5,5,25.0392,-0.113564,-23.8144,0.324449,0.190641,-0.227567,1,0,3.71,0.21,-1.0675,0.283528,-0.22021,-1.14521,-0.05152,0.25564,0.34776
-10.0158,0,0,15.0158,15.0158,5,5,25.0394,-0.112575,-23.8155,0.324432,0.190644,-0.227568,1,0,3.71,0.21,-1.0675,0.283528,-0.22021,-1.14521,-0.05152,0.25564,0.34776
-10.0157,0,0,15.0157,15.0157,5,5,25.0392,-0.112179,-23.8163,-0.184357,-0.155221,-0.0188002,1,0,3.5175,-0.0175,-0.735,-0.227408,-0.565714,-0.938058,-0.05152,0.25564,0.34776
-10.0156,0,0,15.0156,15.0156,5,5,25.0391,-0.111783,-23.8171,-0.184364,-0.155224,-0.018799,1,0,3.5175,-0.0175,-0.735,-0.227408,-0.565714,-0.938058,-0.05152,0.25564,0.34776
-10.0156,0,0,15.0156,15.0156,5,5,25.039,-0.111551,-23.8169,-0.346673,0.172685,-0.160927,1,0,3.57,0.1225,-0.21,-0.3904,-0.238144,-1.07909,-0.05152,0.25564,0.34776
-10.0158,0,0,15.0158,15.0158,5,5,25.0395,-0.111568,-23.8166,-0.00359724,-0.256216,0.316601,1,0,3.9025,0.0525,-0.0175,-0.045872,-0.666608,-0.605242,-0.04872,0.25592,0.34258
