pid_x,pid_y,pid_z,front_left_speed,front_right_speed,back_left_speed,back_right_speed,orientation_x,orientation_y,orientation_z,acceleration_x,acceleration_y,acceleration_z,accel_rejected,mag_rejected,gyro_x,gyro_y,gyro_z,accel_x,accel_y,accel_z,mag_x,mag_y,mag_z
-0.0339886,0,0,15.034,15.034,14.966,14.966,0.0199933,0.0608825,0.0191071,0.0462392,-0.0170601,0.00313498,0,0,3.4475,0.35,-1.05,0.007198,-0.005246,-1.00955,-0.06818,0.1106,0.44366
-0.0614096,0,0,15.0614,15.0614,14.9386,14.9386,0.0361233,0.124246,0.0345243,0.0484134,-0.0140918,0.00165767,0,0,3.255,0.385,-1.05,0.010492,-0.002562,-1.01101,-0.06818,0.1106,0.44366
-0.0878577,0,0,15.0879,15.0879,14.9121,14.9121,0.051681,0.183098,0.0525877,0.0454425,-0.013576,-0.00387797,0,0,3.325,0.21,-0.9625,0.00854,-0.002318,-1.0165,-0.06818,0.1106,0.44366
-0.114089,0,0,15.1141,15.1141,14.8859,14.8859,0.0671114,0.240479,0.0705038,0.044441,-0.0133067,-0.00388195,0,0,3.43,0.1225,-1.0325,0.00854,-0.002318,-1.0165,-0.06818,0.1106,0.44366
-0.142897,0,0,15.1429,15.1429,14.8571,14.8571,0.0840568,0.298029,0.0869902,0.0444085,-0.0144765,-0.00167399,0,0,3.5,0.14,-1.1375,0.009516,-0.003782,-1.01431,-0.06818,0.1106,0.44366
-0.171126,0,0,15.1711,15.1711,14.8289,14.8289,0.100662,0.354294,0.103455,0.0434265,-0.0141867,-0.00168005,0,0,3.5,0.14,-1.1375,0.009516,-0.003782,-1.01431,-0.06818,0.1106,0.44366
-0.203936,0,0,15.2039,15.2039,14.7961,14.7961,0.119962,0.416031,0.119823,0.0472084,-0.0164145,0.00236936,0,0,3.5175,0.1925,-0.805,0.014396,-0.006344,-1.01028,-0.0693,0.10808,0.44016
-0.229544,0,0,15.2295,15.2295,14.7705,14.7705,0.135026,0.470918,0.140671,0.04212,-0.0130985,-0.00366312,0,0,3.3775,0.3675,-1.1025,0.010248,-0.003294,-1.01626,-0.0693,0.10808,0.44016
-0.254744,0,0,15.2547,15.2547,14.7453,14.7453,0.14985,0.524809,0.161572,0.0411794,-0.0128398,-0.00367193,0,0,3.4125,0.5075,-1.05,0.010248,-0.003294,-1.01626,-0.0693,0.10808,0.44016
-0.283103,0,0,15.2831,15.2831,14.7169,14.7169,0.166531,0.57673,0.182586,0.0394229,-0.0142585,0.00603148,0,0,3.43,0.2625,-1.2075,0.009394,-0.005002,-1.00662,-0.0693,0.10808,0.44016
-0.311157,0,0,15.3112,15.3112,14.6888,14.6888,0.183034,0.627151,0.203679,0.0385429,-0.0139705,0.00602136,0,0,3.5175,0.07,-1.1375,0.009394,-0.005002,-1.00662,-0.0693,0.10808,0.44016
-0.335286,0,0,15.3353,15.3353,14.6647,14.6647,0.197227,0.670256,0.230441,0.0332957,-0.0121352,0.000479339,0,0,3.4825,0,-0.945,0.00488,-0.003416,-1.01211,-0.0693,0.10808,0.44016
-0.359018,0,0,15.359,15.359,14.641,14.641,0.211187,0.713706,0.255965,0.0336308,-0.0122579,-0.000637224,0,0,3.29,0,-0.945,0.005978,-0.003782,-1.01321,-0.0693,0.10808,0.44016
-0.38263,0,0,15.3826,15.3826,14.6174,14.6174,0.225077,0.756023,0.280962,0.0328923,-0.0120156,-0.00064762,0,0,3.4125,0.1225,-1.12,0.005978,-0.003782,-1.01321,-0.06384,0.10738,0.44422
-0.40249,0,0,15.4025,15.4025,14.5975,14.5975,0.236759,0.805729,0.297802,0.0393139,-0.0103462,-0.00311923,0,0,3.29,-0.105,-1.12,0.013298,-0.002318,-1.01565,-0.06384,0.10738,0.44422
-0.424432,0,0,15.4244,15.4244,14.5756,14.5756,0.249666,0.853751,0.315268,0.037747,-0.0112202,0.00031023,0,0,3.3775,-0.0875,-1.1025,0.012566,-0.003416,-1.01223,-0.06384,0.10738,0.44422
-0.444234,0,0,15.4442,15.4442,14.5558,14.5558,0.261314,0.905175,0.335687,0.0341769,-0.01004,0.00127914,0,0,3.43,4.4625,-1.1025,0.009882,-0.00244,-1.01126,-0.06384,0.10738,0.44422
-0.464386,0,0,15.4644,15.4644,14.5356,14.5356,0.273168,0.949715,0.354614,0.0348574,-0.0104438,0.00101969,0,0,3.29,0.035,-0.98,0.011346,-0.00305,-1.0115,-0.06384,0.10738,0.44422
-0.485087,0,0,15.4851,15.4851,14.5149,14.5149,0.285345,0.993594,0.373475,0.0340917,-0.0102313,0.00100567,0,0,3.605,0.2275,-0.9975,0.011346,-0.00305,-1.0115,-0.06384,0.10738,0.44422
-0.506882,0,0,15.5069,15.5069,14.4931,14.4931,0.298166,1.03998,0.389291,0.0358334,-0.0107405,0.00418682,0,0,3.605,0.28,-0.9625,0.013908,-0.003782,-1.00833,-0.06384,0.10738,0.44422
-0.527687,0,0,15.5277,15.5277,14.4723,14.4723,0.310404,1.07821,0.403666,0.0300639,-0.0107712,0.0007308,0,0,3.3075,-0.0525,-1.0675,0.008784,-0.004026,-1.01175,-0.06398,0.11144,0.44254
-0.545622,0,0,15.5456,15.5456,14.4544,14.4544,0.320954,1.12036,0.414187,0.0326085,-0.00899955,0.00354349,0,0,3.4825,0.315,-1.0325,0.012078,-0.00244,-1.00894,-0.06398,0.11144,0.44254
-0.567553,0,0,15.5676,15.5676,14.4324,14.4324,0.333854,1.16102,0.425407,0.0314131,-0.0108507,0.00266744,0,0,3.605,0.315,-0.98,0.01159,-0.004514,-1.00979,-0.06398,0.11144,0.44254
-0.586336,0,0,15.5863,15.5863,14.4137,14.4137,0.344903,1.1986,0.438423,0.0290565,-0.00968096,0.00363638,0,0,3.325,0.2625,-0.9975,0.009882,-0.003538,-1.00882,-0.06398,0.11144,0.44254
-0.604631,0,0,15.6046,15.6046,14.3954,14.3954,0.355665,1.23508,0.451262,0.02842,-0.00949326,0.00362171,0,0,3.29,0.105,-1.085,0.009882,-0.003538,-1.00882,-0.06398,0.11144,0.44254
-0.623044,0,0,15.623,15.623,14.377,14.377,0.366497,1.27456,0.460806,0.0307682,-0.00954861,0.00397427,0,0,3.29,0.1225,-0.98,0.012932,-0.003782,-1.00845,-0.06398,0.11144,0.44254
-0.641192,0,0,15.6412,15.6412,14.3588,14.3588,0.377172,1.31347,0.470275,0.0300894,-0.00936244,0.00395773,0,0,3.325,0.2975,-1.015,0.012932,-0.003782,-1.00845,-0.06398,0.11144,0.44254
-0.655382,0,0,15.6554,15.6554,14.3446,14.3446,0.385519,1.34227,0.496766,0.0222976,-0.00750711,0.00296152,0,0,3.2375,0.175,-1.0325,0.005612,-0.002074,-1.00943,-0.06496,0.10682,0.4389
-0.670211,0,0,15.6702,15.6702,14.3298,14.3298,0.394242,1.37549,0.518626,0.026213,-0.00784351,-0.00356953,0,0,3.29,0.105,-0.9625,0.010126,-0.002562,-1.01589,-0.06496,0.10682,0.4389
-0.684745,0,0,15.6847,15.6847,14.3153,14.3153,0.402791,1.40797,0.540441,0.0256461,-0.00769443,-0.00358434,0,0,3.29,0.105,-0.9625,0.010126,-0.002562,-1.01589,-0.06496,0.10682,0.4389
-0.700011,0,0,15.7,15.7,14.3,14.3,0.411771,1.44516,0.557379,0.0293709,-0.00778213,-0.0045852,0,0,3.4825,0.175,-0.9625,0.014518,-0.002806,-1.01687,-0.06496,0.10682,0.4389
-0.72012,0,0,15.7201,15.7201,14.2799,14.2799,0.4236,1.47815,0.577413,0.0253936,-0.00989626,0.00609513,0,0,3.605,0.175,-1.015,0.011102,-0.005124,-1.00626,-0.06496,0.10682,0.4389
-0.739839,0,0,15.7398,15.7398,14.2602,14.2602,0.435199,1.51047,0.597613,0.0248297,-0.009694,0.0060789,0,0,3.605,0.21,-0.8925,0.011102,-0.005124,-1.00626,-0.06496,0.10682,0.4389
-0.877598,0,0,15.8776,15.8776,14.1224,14.1224,0.516234,1.62043,0.550102,0.088392,-0.0732521,-0.030378,0,0,3.5525,0.315,-1.015,0.07686,-0.070028,-1.04237,-0.06496,0.10682,0.4389
-1.01208,0,0,16.0121,16.0121,13.9879,13.9879,0.595344,1.72774,0.502948,0.0865199,-0.0718726,-0.0304461,0,0,3.3775,0.21,-0.98,0.07686,-0.070028,-1.04237,-0.06496,0.10682,0.4389
-0.690239,0,0,15.6902,15.6902,14.3098,14.3098,0.406023,1.91544,0.356641,0.188209,0.195213,-0.162691,0,0,3.01,0.5075,-1.2075,0.182268,0.20008,-1.17352,-0.06846,0.11242,0.44786
-0.692316,0,0,15.6923,15.6923,14.3077,14.3077,0.407245,1.91517,0.355938,-0.151582,-0.109594,0.253244,1,0,4.1475,-0.0525,-1.435,-0.158966,-0.104432,-0.760792,-0.06846,0.11242,0.44786
-0.691377,0,0,15.6914,15.6914,14.3086,14.3086,0.406692,1.91499,0.355386,-0.151578,-0.109604,0.253244,1,0,3.15,0,-1.3475,-0.158966,-0.104432,-0.760792,-0.06846,0.11242,0.44786
-0.692209,0,0,15.6922,15.6922,14.3078,14.3078,0.407182,1.91437,0.35426,-0.135774,0.0728619,0.344964,1,0,3.745,-0.2625,-1.68,-0.143106,0.077836,-0.66978,-0.06846,0.11242,0.44786
-0.69566,0,0,15.6957,15.6957,14.3043,14.3043,0.409211,1.91553,0.353448,-0.135795,0.0728973,0.344963,1,0,4.6025,0.7875,-1.505,-0.143106,0.077836,-0.66978,-0.06846,0.11242,0.44786
-1.06747,0,0,16.0675,16.0675,13.9325,13.9325,0.627922,1.66096,0.622371,-0.221375,-0.207842,-0.0408683,0,0,3.0975,-0.385,-1.4525,-0.233508,-0.206424,-1.05274,-0.06846,0.11242,0.44786
-1.43203,0,0,16.432,16.432,13.568,13.568,0.842369,1.41165,0.888611,-0.217025,-0.204099,-0.0407997,0,0,3.0975,-0.385,-1.4525,-0.233508,-0.206424,-1.05274,-0.06846,0.11242,0.44786
-1.77063,0,0,16.7706,16.7706,13.2294,13.2294,1.04155,1.45974,0.892412,0.0314246,-0.176321,0.00879333,0,0,2.94,0.735,-1.435,0.016836,-0.182146,-1.00345,-0.06846,0.11242,0.44786
-1.3625,0,0,16.3625,16.3625,13.6375,13.6375,0.801472,1.39061,0.976164,-0.058119,0.256827,-0.235039,0,0,1.6975,1.19,-1.61,-0.074298,0.254736,-1.2455,-0.07042,0.11676,0.46144
-1.35899,0,0,16.359,16.359,13.641,13.641,0.799404,1.60237,0.817128,0.182373,0.00117806,-0.0670645,0,0,3.5175,0.9975,-1.33,0.170922,-0.00061,-1.07872,-0.07042,0.11676,0.46144
-1.3595,0,0,16.3595,16.3595,13.6405,13.6405,0.799706,1.80707,0.6588,0.178801,0.00118185,-0.0671709,0,0,4.8475,-0.455,-1.1025,0.170922,-0.00061,-1.07872,-0.07042,0.11676,0.46144
-1.00203,0,0,16.002,16.002,13.998,13.998,0.589427,1.50215,0.947759,-0.248611,0.195361,-0.0120148,0,0,5.25,-0.77,-0.455,-0.263642,0.19703,-1.02419,-0.07042,0.11676,0.46144
-0.643958,0,0,15.644,15.644,14.356,14.356,0.378799,1.20384,1.23979,-0.243406,0.191687,-0.0118608,0,0,2.8525,-0.595,0.315,-0.263642,0.19703,-1.02419,-0.07042,0.11676,0.46144
-1.98287,0,0,16.9829,16.9829,13.0171,13.0171,1.16639,2.09667,0.46464,0.401779,-0.423045,1.07744,0,0,3.22,0.63,0.56,0.399916,-0.430782,0.05734,-0.07042,0.11676,0.46144
-1.9783,0,0,16.9783,16.9783,13.0217,13.0217,1.16371,2.09706,0.467188,0.401772,-0.423092,1.07744,1,0,1.89,0.3675,0.455,0.399916,-0.430782,0.05734,-0.07042,0.11676,0.46144
-1.97667,0,0,16.9767,16.9767,13.0233,13.0233,1.16275,2.09637,0.470075,-0.393218,-0.339207,0.417458,1,0,2.8525,-0.2625,0.665,-0.398452,-0.346968,-0.597556,-0.06986,0.12782,0.47474
-1.97924,0,0,16.9792,16.9792,13.0208,13.0208,1.16426,2.09649,0.473999,0.19064,-0.304863,0.353647,1,0,4.2175,0.2275,1.26,0.18788,-0.312686,-0.660874,-0.06986,0.12782,0.47474
-1.98516,0,0,16.9852,16.9852,13.0148,13.0148,1.16774,2.09732,0.477097,0.190625,-0.304803,0.353645,1,0,5.3375,0.63,0.77,0.18788,-0.312686,-0.660874,-0.06986,0.12782,0.47474
-1.99169,0,0,16.9917,16.9917,13.0083,13.0083,1.17158,2.09611,0.479012,0.0928503,-1.28346,0.438479,1,0,5.565,-0.5775,0.105,0.08967,-1.29039,-0.576694,-0.06986,0.12782,0.47474
-1.99823,0,0,16.9982,16.9982,13.0018,13.0018,1.17543,2.0949,0.480928,0.0928714,-1.28339,0.438478,1,0,5.565,-0.5775,0.105,0.08967,-1.29039,-0.576694,-0.06986,0.12782,0.47474
-1.99096,0,0,16.991,16.991,13.009,13.009,1.17115,2.09432,0.481085,0.0713785,-0.111294,0.865357,1,0,1.05,-0.2275,-0.9275,0.068076,-0.119438,-0.15311,-0.06986,0.12782,0.47474
-1.98496,0,0,16.985,16.985,13.015,13.015,1.16762,2.09337,0.481956,-0.0707432,0.686987,-0.160031,1,0,1.4525,-0.4375,-0.5075,-0.074664,0.678076,-1.17059,-0.06986,0.12782,0.47474
-1.98647,0,0,16.9865,16.9865,13.0135,13.0135,1.16851,2.09535,0.481595,-0.0707777,0.687002,-0.160033,1,0,3.955,1.26,-1.26,-0.074664,0.678076,-1.17059,-0.06986,0.12782,0.47474
-1.99498,0,0,16.995,16.995,13.005,13.005,1.17352,2.09469,0.481181,0.566426,0.612226,-0.0851586,1,0,6.265,-0.28,-1.26,0.565226,0.60329,-1.09629,-0.07,0.12292,0.46788
-2.00554,0,0,17.0055,17.0055,12.9945,12.9945,1.17973,2.09517,0.479469,-0.579435,0.219697,-0.108275,1,0,6.965,0.3675,-2.03,-0.585478,0.21106,-1.11923,-0.07,0.12292,0.46788
-2.01471,0,0,17.0147,17.0147,12.9853,12.9853,1.18512,2.09666,0.476877,-0.579461,0.219791,-0.108278,1,0,6.5275,0.945,-2.555,-0.585478,0.21106,-1.11923,-0.07,0.12292,0.46788
-1.62097,0,0,16.621,16.621,13.379,13.379,0.953511,1.57892,0.9389,-0.382005,0.191575,0.172901,0,0,6.055,1.2425,-2.94,-0.396256,0.186904,-0.84058,-0.07,0.12292,0.46788
-1.22741,0,0,16.2274,16.2274,13.7726,13.7726,0.722008,1.06902,1.40356,-0.373108,0.187539,0.173166,0,0,3.99,0.07,-3.2725,-0.396256,0.186904,-0.84058,-0.07,0.12292,0.46788
-1.23086,0,0,16.2309,16.2309,13.7691,13.7691,0.724033,1.06756,1.39849,-0.0702188,0.302862,0.340499,1,0,4.6375,-0.7875,-3.9725,-0.09211,0.302072,-0.674538,-0.07,0.12292,0.46788
-1.38869,0,0,16.3887,16.3887,13.6113,13.6113,0.816874,1.06902,1.41815,-0.000876057,-0.0826594,0.0354413,0,0,0.98,-0.35,-4.1125,-0.022448,-0.084668,-0.97722,-0.07,0.12292,0.46788
-1.53768,0,0,16.5377,16.5377,13.4623,13.4623,0.904515,1.07063,1.43924,-0.00090409,-0.0811302,0.0354178,0,0,-0.9275,-0.21,-3.22,-0.022448,-0.084668,-0.97722,-0.07,0.12292,0.46788
-1.52319,0,0,16.5232,16.5232,13.4768,13.4768,0.895996,1.06983,1.43619,-0.0231221,-0.0363362,-0.219452,1,0,-1.295,-0.385,-2.8,-0.044774,-0.039772,-1.23013,-0.06958,0.12824,0.47684
-1.51624,0,0,16.5162,16.5162,13.4838,13.4838,0.891904,1.07003,1.43456,0.0893701,-0.320108,-0.0727732,1,0,1.1725,0.21,-1.9775,0.068198,-0.323178,-1.08458,-0.06958,0.12824,0.47684
-1.52373,0,0,16.5237,16.5237,13.4763,13.4763,0.89631,1.07032,1.43501,0.0893651,-0.320031,-0.0727745,1,0,5.915,0.28,-0.77,0.068198,-0.323178,-1.08458,-0.06958,0.12824,0.47684
-1.75338,0,0,16.7534,16.7534,13.2466,13.2466,1.0314,1.06618,1.45797,-0.00459263,-0.125813,-0.089042,0,0,7.28,0.6125,-0.07,-0.02623,-0.131516,-1.10068,-0.06958,0.12824,0.47684
-1.97857,0,0,16.9786,16.9786,13.0214,13.0214,1.16386,1.06208,1.48078,-0.00452101,-0.123502,-0.089085,0,0,7.28,0.6125,-0.07,-0.02623,-0.131516,-1.10068,-0.06958,0.12824,0.47684
-1.99753,0,0,16.9975,16.9975,13.0025,13.0025,1.17501,1.06329,1.48137,0.0297169,0.155019,-0.119335,1,0,9.695,0.8225,-0.7,0.008174,0.146522,-1.1307,-0.06958,0.12824,0.47684
-2.17771,0,0,17.1777,17.1777,12.8223,12.8223,1.281,1.16393,1.40951,0.085545,-0.100331,-0.0692455,0,0,4.7775,0.735,-0.56,0.066002,-0.11041,-1.08092,-0.06958,0.12824,0.47684
-2.34242,0,0,17.3424,17.3424,12.6576,12.6576,1.37789,1.25907,1.33488,0.0838848,-0.0986417,-0.0693198,0,0,0.84,-0.9625,0.105,0.066002,-0.11041,-1.08092,-0.07098,0.1309,0.48622
-2.3242,0,0,17.3242,17.3242,12.6758,12.6758,1.36718,1.25774,1.32896,-0.0573799,0.306022,-0.0720197,1,0,-2.485,-0.7525,-4.4625,-0.075884,0.29402,-1.0836,-0.07098,0.1309,0.48622
-2.3103,0,0,17.3103,17.3103,12.6897,12.6897,1.359,1.25581,1.33049,-0.0573463,0.305879,-0.0720155,1,0,-1.155,-0.9975,-0.105,-0.075884,0.29402,-1.0836,-0.07098,0.1309,0.48622
-1.88119,0,0,16.8812,16.8812,13.1188,13.1188,1.10658,0.96625,1.60466,-0.225532,0.209394,0.0853054,0,0,0.07,3.9025,0.7,-0.249856,0.202032,-0.927688,-0.07098,0.1309,0.48622
-1.45982,0,0,16.4598,16.4598,13.5402,13.5402,0.858719,0.682591,1.88076,-0.220582,0.20507,0.0854508,0,0,0.07,3.9025,0.7,-0.249856,0.202032,-0.927688,-0.07098,0.1309,0.48622
-1.43219,0,0,16.4322,16.4322,13.5678,13.5678,0.842463,0.213861,2.32324,-0.390985,0.0176892,0.0383068,0,0,6.5625,0.84,0.455,-0.429196,0.015128,-0.974536,-0.07098,0.1309,0.48622
-1.69968,0,0,16.6997,16.6997,13.3003,13.3003,0.999813,0.685803,1.92559,0.373427,-0.13027,0.0873774,0,0,8.3475,1.19,0.315,0.346724,-0.13542,-0.925736,-0.07098,0.1309,0.48622
-1.95876,0,0,16.9588,16.9588,13.0412,13.0412,1.15221,1.14663,1.53027,0.365385,-0.127614,0.0871988,0,0,7.315,0.245,-0.0875,0.346724,-0.13542,-0.925736,-0.07098,0.1309,0.48622
-1.96582,0,0,16.9658,16.9658,13.0342,13.0342,1.15636,1.14638,1.53058,0.0834214,0.326282,0.225146,1,0,5.775,-0.035,-0.84,0.063562,0.317932,-0.788852,-0.06426,0.13972,0.48468
-1.96284,0,0,16.9628,16.9628,13.0372,13.0372,1.15461,1.14701,1.53055,-0.0243473,0.0398638,-0.195707,1,0,2.4675,0.4725,-1.05,-0.044652,0.031842,-1.20646,-0.06426,0.13972,0.48468
-1.95654,0,0,16.9565,16.9565,13.0435,13.0435,1.15091,1.14738,1.52965,-0.0243538,0.0397992,-0.195705,1,0,1.3825,0.315,-1.5575,-0.044652,0.031842,-1.20646,-0.06426,0.13972,0.48468
-1.95146,0,0,16.9515,16.9515,13.0485,13.0485,1.14792,1.14721,1.52868,0.0417373,-0.161762,-0.147017,1,0,1.785,0,-1.5925,0.021716,-0.169458,-1.15815,-0.06426,0.13972,0.48468
-1.95305,0,0,16.9531,16.9531,13.0469,13.0469,1.14885,1.14679,1.52725,0.0417447,-0.161746,-0.147017,1,0,3.99,-0.1575,-1.855,0.021716,-0.169458,-1.15815,-0.06426,0.13972,0.48468
-2.06032,0,0,17.0603,17.0603,12.9397,12.9397,1.21195,1.18508,1.48455,0.0343949,-0.0578145,-0.0561943,0,0,5.0925,-0.1225,-1.75,0.015006,-0.066734,-1.06799,-0.06426,0.13972,0.48468
-2.17063,0,0,17.1706,17.1706,12.8294,12.8294,1.27684,1.22316,1.44164,0.0337304,-0.0566828,-0.0562328,0,0,6.79,0.2275,-1.9775,0.015006,-0.066734,-1.06799,-0.06426,0.13972,0.48468
-2.54389,0,0,17.5439,17.5439,12.4561,12.4561,1.49641,1.08203,1.55869,-0.110683,-0.181207,0.0682708,0,0,6.5975,1.015,-2.5025,-0.132492,-0.194956,-0.944402,-0.06426,0.13972,0.48468
-2.9042,0,0,17.9042,17.9042,12.0958,12.0958,1.70836,0.942322,1.67419,-0.108245,-0.177508,0.0682104,0,0,4.725,1.2075,-2.485,-0.132492,-0.194956,-0.944402,-0.07546,0.14084,0.48678
-2.9035,0,0,17.9035,17.9035,12.0965,12.0965,1.70794,0.943545,1.67209,0.327503,0.168958,-0.0498203,1,0,3.2375,0.7875,-2.275,0.305122,0.151158,-1.06152,-0.07546,0.14084,0.48678
-2.89284,0,0,17.8928,17.8928,12.1072,12.1072,1.70167,0.943617,1.67052,0.327501,0.168849,-0.049817,1,0,-0.0525,0.1225,-1.9425,0.305122,0.151158,-1.06152,-0.07546,0.14084,0.48678
-2.47153,0,0,17.4715,17.4715,12.5285,12.5285,1.45384,0.986513,1.63079,0.0310567,0.206537,0.0710249,0,0,0.3675,0.0875,-2.1175,0.008174,0.193126,-0.941718,-0.07546,0.14084,0.48678
-2.06328,0,0,17.0633,17.0633,12.9367,12.9367,1.21369,1.02823,1.59193,0.0303287,0.202347,0.0711096,0,0,2.03,-0.0525,-1.505,0.008174,0.193126,-0.941718,-0.07546,0.14084,0.48678
-2.06835,0,0,17.0683,17.0683,12.9317,12.9317,1.21667,1.02713,1.59121,0.0981368,0.0422908,0.136763,1,0,5.1275,-0.5425,-1.435,0.07625,0.033184,-0.87657,-0.07546,0.14084,0.48678
-2.08339,0,0,17.0834,17.0834,12.9166,12.9166,1.22552,1.02645,1.59214,0.0981488,0.0424452,0.13676,1,0,8.4,-0.28,-0.4725,0.07625,0.033184,-0.87657,-0.07546,0.14084,0.48678
-2.12365,0,0,17.1236,17.1236,12.8764,12.8764,1.24921,0.567778,1.99597,-0.39206,-0.0160043,-0.00231499,0,0,8.9775,-0.42,-0.3325,-0.424072,-0.02562,-1.01467,-0.07546,0.14084,0.48678
-2.16295,0,0,17.1629,17.1629,12.8371,12.8371,1.27232,0.119882,2.38718,-0.384242,-0.0155999,-0.00227697,0,0,9.0125,0.0175,-0.1575,-0.424072,-0.02562,-1.01467,-0.0742,0.14854,0.49364
-2.55169,0,0,17.5517,17.5517,12.4483,12.4483,1.501,0.544778,2.00374,0.34333,-0.19932,0.0724591,0,0,7.455,0.5775,-0.385,0.314028,-0.213134,-0.940376,-0.0742,0.14854,0.49364
-2.92203,0,0,17.922,17.922,12.078,12.078,1.71884,0.960011,1.62439,0.336084,-0.195522,0.0722571,0,0,3.815,-0.0175,-0.2975,0.314028,-0.213134,-0.940376,-0.0742,0.14854,0.49364
-2.2754,0,0,17.2754,17.2754,12.7246,12.7246,1.33847,1.14179,1.45661,0.12833,0.31517,0.138153,0,0,1.925,-0.385,-0.3675,0.10858,0.303658,-0.875106,-0.0742,0.14854,0.49364
-1.63205,0,0,16.6321,16.6321,13.3679,13.3679,0.960032,1.32098,1.28761,0.125203,0.308566,0.138219,0,0,-0.7875,0.245,0,0.10858,0.303658,-0.875106,-0.0742,0.14854,0.49364
-1.62224,0,0,16.6222,16.6222,13.3778,13.3778,0.954259,1.32119,1.28919,0.298438,0.0529765,0.183957,1,0,0.1925,0.245,-0.105,0.282552,0.048434,-0.829722,-0.0742,0.14854,0.49364
-1.61534,0,0,16.6153,16.6153,13.3847,13.3847,0.9502,1.32184,1.29063,0.298427,0.0529056,0.183958,1,0,1.155,0.5075,-0.1925,0.282552,0.048434,-0.829722,-0.0742,0.14854,0.49364
-1.16765,0,0,16.1677,16.1677,13.8323,13.8323,0.686854,1.39138,1.21195,0.0453735,0.218678,0.106906,0,0,3.7275,0.245,-0.7525,0.029646,0.218624,-0.906216,-0.0742,0.14854,0.49364
-0.741421,0,0,15.7414,15.7414,14.2586,14.2586,0.43613,1.45835,1.13097,0.044205,0.214303,0.10692,0,0,8.0325,-0.245,-0.7,0.029646,0.218624,-0.906216,-0.06552,0.14896,0.49826
-0.86889,0,0,15.8689,15.8689,14.1311,14.1311,0.511112,1.13058,1.40495,-0.278573,-0.0612491,-0.00841011,0,0,9.45,-0.735,-0.385,-0.300242,-0.05795,-1.02077,-0.06552,0.14896,0.49826
-0.992326,0,0,15.9923,15.9923,14.0077,14.0077,0.583721,0.810316,1.67674,-0.272984,-0.0599812,-0.00832755,0,0,8.9775,-0.245,-0.9275,-0.300242,-0.05795,-1.02077,-0.06552,0.14896,0.49826
-1.26768,0,0,16.2677,16.2677,13.7323,13.7323,0.745692,0.420025,2.01408,-0.30602,-0.133483,0.101383,0,0,7.56,-0.1925,-1.2775,-0.340258,-0.1342,-0.91195,-0.06552,0.14896,0.49826
-1.52738,0,0,16.5274,16.5274,13.4726,13.4726,0.898456,0.0391861,2.34851,-0.299373,-0.130817,0.101371,0,0,4.13,0.7525,-1.3825,-0.340258,-0.1342,-0.91195,-0.06552,0.14896,0.49826
-1.52201,0,0,16.522,16.522,13.478,13.478,0.8953,0.0402045,2.34801,0.403161,0.157347,-0.200098,1,0,1.68,0.7,-1.33,0.365268,0.15372,-1.21109,-0.06552,0.14896,0.49826
-1.50799,0,0,16.508,16.508,13.492,13.492,0.887055,0.0405476,2.34674,0.403155,0.157203,-0.200095,1,0,-1.1725,0.2975,-1.7675,0.365268,0.15372,-1.21109,-0.06552,0.14896,0.49826
-1.49541,0,0,16.4954,16.4954,13.5046,13.5046,0.879652,0.0413492,2.34479,0.245695,-0.233487,0.276578,1,0,-0.7,0.56,-2.17,0.207156,-0.236436,-0.7381,-0.06552,0.14896,0.49826
-1.49455,0,0,16.4946,16.4946,13.5054,13.5054,0.879149,0.0412445,2.34349,0.245697,-0.233496,0.276578,1,0,3.1675,0.035,-1.785,0.207156,-0.236436,-0.7381,-0.06552,0.14896,0.49826
-1.99193,0,0,16.9919,16.9919,13.0081,13.0081,1.17173,-0.0888193,2.43497,-0.111023,-0.278584,-0.0142875,0,0,4.76,0.175,-1.9075,-0.153354,-0.286578,-1.02663,-0.07084,0.1561,0.50666
-2.00753,0,0,17.0075,17.0075,12.9925,12.9925,1.1809,-0.0895617,2.4345,0.246401,0.292885,-0.38621,1,0,8.5925,-0.3325,-1.295,0.20557,0.284138,-1.39568,-0.07084,0.1561,0.50666
-2.02,0,0,17.02,17.02,12.98,12.98,1.18823,-0.089675,2.43394,0.246403,0.293013,-0.386213,1,0,7.56,0.035,-1.3475,0.20557,0.284138,-1.39568,-0.07084,0.1561,0.50666
-2.02721,0,0,17.0272,17.0272,12.9728,12.9728,1.19248,-0.0899736,2.43369,0.379921,0.156427,-0.166751,1,0,5.8275,-0.07,-1.1725,0.339648,0.14762,-1.17791,-0.07084,0.1561,0.50666
-2.02741,0,0,17.0274,17.0274,12.9726,12.9726,1.1926,-0.0902455,2.43358,0.379925,0.156429,-0.166751,1,0,3.5175,-0.0525,-1.085,0.339648,0.14762,-1.17791,-0.07084,0.1561,0.50666
-1.97429,0,0,16.9743,16.9743,13.0257,13.0257,1.16135,0.0898223,2.26454,0.139886,0.0254523,0.0490346,0,0,1.5225,0.4025,-1.2775,0.101748,0.017324,-0.9638,-0.07084,0.1561,0.50666
-1.91883,0,0,16.9188,16.9188,13.0812,13.0812,1.12872,0.265942,2.09561,0.136812,0.0248828,0.0490365,0,0,0.455,0.315,-1.3125,0.101748,0.017324,-0.9638,-0.07084,0.1561,0.50666
-1.90826,0,0,16.9083,16.9083,13.0917,13.0917,1.1225,0.267091,2.0947,0.0142126,0.0600689,-0.139687,1,0,-0.035,0.77,-1.575,-0.02135,0.052582,-1.15107,-0.07084,0.1561,0.50666
-1.91192,0,0,16.9119,16.9119,13.0881,13.0881,1.12466,0.267679,2.09488,0.0142023,0.0601065,-0.139688,1,0,4.655,0.455,-0.9275,-0.02135,0.052582,-1.15107,-0.07434,0.1617,0.511
-1.91924,0,0,16.9192,16.9192,13.0808,13.0808,1.12896,0.267877,2.0952,0.270898,-0.0397181,-0.136247,1,0,5.8625,0.2275,-0.84,0.236436,-0.047214,-1.14765,-0.07434,0.1617,0.511
-1.93255,0,0,16.9326,16.9326,13.0674,13.0674,1.1368,0.266964,2.09577,0.270914,-0.0395814,-0.13625,1,0,7.84,-0.42,-0.6825,0.236436,-0.047214,-1.14765,-0.07434,0.1617,0.511
-1.9447,0,0,16.9447,16.9447,13.0553,13.0553,1.14394,0.266205,2.09614,0.419626,0.0413912,-0.0934661,1,0,7.455,-0.3325,-0.805,0.385764,0.03355,-1.1052,-0.07434,0.1617,0.511
-1.95266,0,0,16.9527,16.9527,13.0473,13.0473,1.14862,0.26466,2.0969,0.419653,0.0414729,-0.0934676,1,0,6.0725,-0.7875,-0.56,0.385764,0.03355,-1.1052,-0.07434,0.1617,0.511
-2.02948,0,0,17.0295,17.0295,12.9705,12.9705,1.19381,-0.0182575,2.32422,-0.242852,-0.0449368,-0.036425,0,0,4.0075,-0.595,-0.7175,-0.284504,-0.053558,-1.04859,-0.07434,0.1617,0.511
-2.09736,0,0,17.0974,17.0974,12.9026,12.9026,1.23374,-0.294767,2.55044,-0.238026,-0.0442403,-0.036453,0,0,1.575,-0.315,-0.7875,-0.284504,-0.053558,-1.04859,-0.07434,0.1617,0.511
-1.56712,0,0,16.5671,16.5671,13.4329,13.4329,0.921832,-0.521532,2.75778,-0.168466,0.252946,0.135995,0,0,-0.4725,-0.14,-0.91,-0.218624,0.248758,-0.877546,-0.07434,0.1617,0.511
-1.04921,0,0,16.0492,16.0492,13.9508,13.9508,0.617184,-0.742265,2.96748,-0.164614,0.24763,0.136024,0,0,0.4375,0.3325,-1.12,-0.218624,0.248758,-0.877546,-0.07042,0.16058,0.50442
-0.642932,0,0,15.6429,15.6429,14.3571,14.3571,0.378195,-0.845217,3.07315,-0.0896825,0.219033,-0.0132242,0,0,0.3325,1.05,-0.9275,-0.14518,0.224358,-1.02565,-0.07042,0.16058,0.50442
-0.258127,0,0,15.2581,15.2581,14.7419,14.7419,0.15184,-0.946427,3.17867,-0.0879163,0.215083,-0.0132335,0,0,4.9175,0.84,-1.3475,-0.14518,0.224358,-1.02565,-0.07042,0.16058,0.50442
-0.268214,0,0,15.2682,15.2682,14.7318,14.7318,0.157773,-0.945446,3.1783,0.630168,-0.0116026,-0.101879,1,0,6.7725,0.6825,-1.2425,0.575962,-0.002196,-1.11362,-0.07042,0.16058,0.50442
-0.285994,0,0,15.286,15.286,14.714,14.714,0.168232,-0.945868,3.17796,0.630176,-0.0114201,-0.10188,1,0,9.31,-0.14,-1.225,0.575962,-0.002196,-1.11362,-0.07042,0.16058,0.50442
-0.600836,0,0,15.6008,15.6008,14.3992,14.3992,0.353433,-0.993544,3.20853,-0.041051,-0.161579,-0.000107475,0,0,8.8375,0.2625,-1.365,-0.098942,-0.155428,-1.0126,-0.07042,0.16058,0.50442
-0.901577,0,0,15.9016,15.9016,14.0984,14.0984,0.530339,-1.04075,3.2387,-0.0402273,-0.158493,-0.000145908,0,0,6.1425,-0.035,-1.4525,-0.098942,-0.155428,-1.0126,-0.07042,0.16058,0.50442
-0.904307,0,0,15.9043,15.9043,14.0957,14.0957,0.531945,-1.04077,3.23773,-0.188561,0.0989786,-0.108341,1,0,4.34,0.0875,-1.5925,-0.247904,0.101748,-1.11996,-0.07042,0.16058,0.50442
-0.891129,0,0,15.8911,15.8911,14.1089,14.1089,0.524194,-1.04008,3.2364,-0.188573,0.0988433,-0.108339,1,0,-0.91,0.5075,-1.8025,-0.247904,0.101748,-1.11996,-0.07406,0.15092,0.49882
-0.258052,0,0,15.2581,15.2581,14.7419,14.7419,0.151795,-1.04166,3.27187,0.00522436,0.347346,0.000507866,0,0,-2.17,0.0875,-1.82,-0.053314,0.356484,-1.01199,-0.07406,0.15092,0.49882
0.361045,0,0,14.639,14.639,15.361,15.361,-0.21238,-1.04196,3.30739,0.0052295,0.340991,0.000504412,0,0,-1.33,0.7525,-1.82,-0.053314,0.356484,-1.01199,-0.07406,0.15092,0.49882
0.617987,0,0,14.382,14.382,15.618,15.618,-0.363522,-0.6146,2.94062,0.385432,0.144293,0.002935,0,0,1.2075,0.77,-1.3125,0.335988,0.162626,-1.00967,-0.07406,0.15092,0.49882
0.856658,0,0,14.1433,14.1433,15.8567,15.8567,-0.503917,-0.19627,2.57265,0.378131,0.141842,0.00296811,0,0,5.845,0.1925,-1.1025,0.335988,0.162626,-1.00967,-0.07406,0.15092,0.49882
0.571424,0,0,14.4286,14.4286,15.5714,15.5714,-0.336132,-0.154684,2.53067,0.033358,-0.14528,0.0190981,0,0,7,0.3325,-0.875,-0.009516,-0.127124,-0.99369,-0.07406,0.15092,0.49882
0.289304,0,0,14.7107,14.7107,15.2893,15.2893,-0.170179,-0.114962,2.48884,0.0326647,-0.142384,0.0191125,0,0,7.7525,-0.245,-0.98,-0.009516,-0.127124,-0.99369,-0.07406,0.15092,0.49882
-0.081721,0,0,15.0817,15.0817,14.9183,14.9183,0.0480712,-0.0652885,2.4359,0.038358,-0.180586,0.0783791,0,0,7.175,-0.0525,-0.77,-0.002928,-0.169092,-0.934886,-0.07406,0.15092,0.49882
-0.435212,0,0,15.4352,15.4352,14.5648,14.5648,0.256007,-0.0169797,2.38817,0.0375149,-0.176957,0.0783701,0,0,3.6925,-0.315,-0.595,-0.002928,-0.169092,-0.934886,-0.06412,0.14714,0.49448
-0.701701,0,0,15.7017,15.7017,14.2983,14.2983,0.412766,-0.460182,2.79189,-0.385538,-0.151262,0.0543469,0,0,3.01,-0.105,-0.665,-0.43554,-0.146156,-0.958676,-0.06412,0.14714,0.49448
-0.952249,0,0,15.9522,15.9522,14.0478,14.0478,0.560146,-0.893874,3.19284,-0.377969,-0.14869,0.0542357,0,0,-0.63,0.4725,-0.42,-0.43554,-0.146156,-0.958676,-0.06412,0.14714,0.49448
-0.908291,0,0,15.9083,15.9083,14.0917,14.0917,0.534289,-0.54452,2.89285,0.269527,0.0190276,0.121815,0,0,0.665,-0.28,-0.1575,0.22082,0.021838,-0.891698,-0.06412,0.14714,0.49448
-0.868067,0,0,15.8681,15.8681,14.1319,14.1319,0.510628,-0.200815,2.5928,0.263528,0.018615,0.121858,0,0,1.715,0.455,-0.315,0.22082,0.021838,-0.891698,-0.06412,0.14714,0.49448
-0.747288,0,0,15.7473,15.7473,14.2527,14.2527,0.439581,0.328804,2.11783,0.427523,0.0645159,0.1403,0,0,4.165,0.5075,-0.3675,0.394792,0.06893,-0.873398,-0.06412,0.14714,0.49448
-0.631136,0,0,15.6311,15.6311,14.3689,14.3689,0.371256,0.847485,1.64209,0.418471,0.0633229,0.140216,0,0,5.1975,-0.2275,-0.4375,0.394792,0.06893,-0.873398,-0.06412,0.14714,0.49448
-0.636415,0,0,15.6364,15.6364,14.3636,14.3636,0.374362,0.847711,1.64334,-0.426344,0.0323569,0.210173,1,0,5.18,0.245,-0.2975,-0.453596,0.037942,-0.80398,-0.06412,0.14714,0.49448
-0.638136,0,0,15.6381,15.6381,14.3619,14.3619,0.375374,0.846862,1.64446,-0.42633,0.0323745,0.210173,1,0,4.0075,-0.385,-0.3675,-0.453596,0.037942,-0.80398,-0.06412,0.14714,0.49448
-0.637835,0,0,15.6378,15.6378,14.3622,14.3622,0.375197,0.847299,1.64538,-0.45598,-0.203577,0.311237,1,0,3.3425,0.3675,-0.49,-0.483364,-0.197762,-0.703696,-0.07616,0.13706,0.48748
-0.638302,0,0,15.6383,15.6383,14.3617,14.3617,0.375472,0.846727,1.64519,0.0313093,-0.1822,0.230214,1,0,3.605,-0.2275,-1.1375,0.005978,-0.176412,-0.784094,-0.07616,0.13706,0.48748
-0.636156,0,0,15.6362,15.6362,14.3638,14.3638,0.37421,0.845054,1.64451,0.0313385,-0.182222,0.230214,1,0,2.7475,-0.875,-1.4175,0.005978,-0.176412,-0.784094,-0.07616,0.13706,0.48748
-0.664119,0,0,15.6641,15.6641,14.3359,14.3359,0.390658,0.889605,1.60958,0.0354205,-0.0143776,0.0165162,0,0,3.5875,0.4375,-1.75,0.010858,-0.009028,-0.99613,-0.07616,0.13706,0.48748
-0.69154,0,0,15.6915,15.6915,14.3085,14.3085,0.406788,0.933102,1.57465,0.0346614,-0.0140962,0.0165021,0,0,3.5875,0.3675,-1.8025,0.010858,-0.009028,-0.99613,-0.07616,0.13706,0.48748
-0.695726,0,0,15.6957,15.6957,14.3043,14.3043,0.409251,0.934185,1.57276,-0.0835631,-0.337445,0.205719,1,0,4.8475,0.735,-2.135,-0.107848,-0.332084,-0.808372,-0.07616,0.13706,0.48748
-0.69333,0,0,15.6933,15.6933,14.3067,14.3067,0.407841,0.934822,1.57074,-0.0835742,-0.337469,0.205719,1,0,2.6775,0.4725,-2.205,-0.107848,-0.332084,-0.808372,-0.07616,0.13706,0.48748
-0.69133,0,0,15.6913,15.6913,14.3087,14.3087,0.406665,0.934825,1.56962,-0.176389,-0.00212995,0.269899,1,0,2.8,0.105,-1.68,-0.201056,0.002928,-0.744688,-0.0735,0.1386,0.48118
-0.688639,0,0,15.6886,15.6886,14.3114,14.3114,0.405082,0.934828,1.56847,-0.117955,-0.212582,-0.115053,1,0,2.5725,0.105,-1.6975,-0.142374,-0.207278,-1.12667,-0.0735,0.1386,0.48118
-0.689065,0,0,15.6891,15.6891,14.3109,14.3109,0.405332,0.934565,1.56681,-0.11795,-0.212578,-0.115053,1,0,3.605,-0.0525,-1.995,-0.142374,-0.207278,-1.12667,-0.0735,0.1386,0.48118
-0.691729,0,0,15.6917,15.6917,14.3083,14.3083,0.4069,0.934241,1.56551,-0.0573231,-0.0449923,-0.136569,1,0,4.34,-0.0875,-1.785,-0.081496,-0.039894,-1.14802,-0.0735,0.1386,0.48118
-0.694394,0,0,15.6944,15.6944,14.3056,14.3056,0.408467,0.933916,1.5642,-0.0573175,-0.044965,-0.136569,1,0,4.34,-0.0875,-1.785,-0.081496,-0.039894,-1.14802,-0.0735,0.1386,0.48118
-1.04921,0,0,16.0492,16.0492,13.9508,13.9508,0.617183,0.87396,1.61799,-0.0542059,-0.204972,-0.0479394,0,0,3.7625,0.6825,-1.6975,-0.079422,-0.203374,-1.06006,-0.0735,0.1386,0.48118
-1.39747,0,0,16.3975,16.3975,13.6025,13.6025,0.822041,0.815214,1.67121,-0.0531807,-0.201398,-0.0479692,0,0,3.7625,0.6825,-1.6975,-0.079422,-0.203374,-1.06006,-0.0735,0.1386,0.48118
-1.13866,0,0,16.1387,16.1387,13.8613,13.8613,0.669797,1.05491,1.46066,0.217316,0.151822,-0.0530438,0,0,3.57,0.2975,-1.05,0.19642,0.152134,-1.06506,-0.0735,0.1386,0.48118
-0.884311,0,0,15.8843,15.8843,14.1157,14.1157,0.520183,1.28783,1.24466,0.213251,0.149211,-0.0530998,0,0,3.57,0.2975,-1.05,0.19642,0.152134,-1.06506,-0.06468,0.14056,0.4795
-0.76693,0,0,15.7669,15.7669,14.2331,14.2331,0.451135,0.834028,1.6518,-0.37824,0.0614194,0.0837758,0,0,3.6575,-0.28,-0.455,-0.405528,0.065636,-0.929396,-0.06468,0.14056,0.4795
-0.651231,0,0,15.6512,15.6512,14.3488,14.3488,0.383077,0.388755,2.05923,-0.370469,0.0602323,0.0838674,0,0,3.6575,-0.28,-0.455,-0.405528,0.065636,-0.929396,-0.06468,0.14056,0.4795
-0.652352,0,0,15.6524,15.6524,14.3476,14.3476,0.383736,0.387697,2.06029,0.0139299,-0.0339159,-0.17162,1,0,3.815,-0.5075,-0.4025,-0.01952,-0.028426,-1.18291,-0.06468,0.14056,0.4795
-0.653472,0,0,15.6535,15.6535,14.3465,14.3465,0.384396,0.38664,2.06135,0.0139484,-0.0339044,-0.171619,1,0,3.815,-0.5075,-0.4025,-0.01952,-0.028426,-1.18291,-0.06468,0.14056,0.4795
-0.653,0,0,15.653,15.653,14.347,14.347,0.384117,0.3863,2.06227,0.561733,-0.126726,-0.377681,1,0,3.29,-0.0875,-0.49,0.530578,-0.121146,-1.38738,-0.06468,0.14056,0.4795
-0.652527,0,0,15.6525,15.6525,14.3475,14.3475,0.383839,0.38596,2.06319,0.561739,-0.12673,-0.377681,1,0,3.29,-0.0875,-0.49,0.530578,-0.121146,-1.38738,-0.06468,0.14056,0.4795
-0.648974,0,0,15.649,15.649,14.351,14.351,0.381749,0.386308,2.06387,0.228498,0.0775511,-0.152562,1,0,2.275,0.315,-0.63,0.195932,0.08296,-1.164,-0.06468,0.14056,0.4795
-0.648928,0,0,15.6489,15.6489,14.3511,14.3511,0.381723,0.38522,2.06505,0.277597,0.327056,-0.0742438,1,0,3.43,-0.525,-0.3325,0.24522,0.332206,-1.08629,-0.0665,0.13146,0.47488
-0.874084,0,0,15.8741,15.8741,14.1259,14.1259,0.514167,0.137469,2.3116,-0.199527,-0.113831,0.0873122,0,0,4.27,0.385,-0.42,-0.238266,-0.110532,-0.92598,-0.0665,0.13146,0.47488
-1.09821,0,0,16.0982,16.0982,13.9018,13.9018,0.646009,-0.105654,2.55563,-0.195283,-0.11153,0.0872901,0,0,5.32,0.21,-0.91,-0.238266,-0.110532,-0.92598,-0.0665,0.13146,0.47488
-1.10176,0,0,16.1018,16.1018,13.8982,13.8982,0.648096,-0.105811,2.55579,-0.060796,-0.0423696,-0.114592,1,0,4.62,0.0175,-0.9275,-0.103212,-0.04148,-1.1263,-0.0665,0.13146,0.47488
-1.10462,0,0,16.1046,16.1046,13.8954,13.8954,0.649778,-0.10537,2.55597,-0.0608037,-0.0423402,-0.114592,1,0,4.3925,0.3675,-0.9275,-0.103212,-0.04148,-1.1263,-0.0665,0.13146,0.47488
-1.10467,0,0,16.1047,16.1047,13.8953,13.8953,0.649807,-0.105729,2.55559,0.24073,0.125951,-0.226721,1,0,3.465,-0.105,-1.2425,0.199592,0.126636,-1.23757,-0.0665,0.13146,0.47488
-1.10339,0,0,16.1034,16.1034,13.8966,13.8966,0.649054,-0.10433,2.55554,0.240706,0.125938,-0.226721,1,0,3.0275,0.9275,-1.0675,0.199592,0.126636,-1.23757,-0.0665,0.13146,0.47488
-1.46505,0,0,16.4651,16.4651,13.5349,13.5349,0.861795,-0.142374,2.61533,-0.03744,-0.192764,0.0424859,0,0,2.835,0.49,-1.1025,-0.080398,-0.195444,-0.970388,-0.0665,0.13146,0.47488
-1.82204,0,0,16.822,16.822,13.178,13.178,1.07179,-0.179329,2.67601,-0.036795,-0.1891,0.0424222,0,0,3.5,0.6825,-1.085,-0.080398,-0.195444,-0.970388,-0.0707,0.1309,0.48384
-2.2598,0,0,17.2598,17.2598,12.7402,12.7402,1.3293,-0.384473,2.88486,-0.17025,-0.227107,0.0956701,0,0,2.6075,0.7525,-1.19,-0.218014,-0.2379,-0.91744,-0.0707,0.1309,0.48384
-2.69512,0,0,17.6951,17.6951,12.3049,12.3049,1.58537,-0.585985,3.09105,-0.166734,-0.22264,0.0955267,0,0,4.3925,0.5425,-1.3475,-0.218014,-0.2379,-0.91744,-0.0707,0.1309,0.48384
-2.73677,0,0,17.7368,17.7368,12.2632,12.2632,1.60986,-0.438191,2.99669,0.130757,-0.0261985,-0.0826146,0,0,3.465,0.595,-1.365,0.083326,-0.04209,-1.09422,-0.0707,0.1309,0.48384
-2.78015,0,0,17.7802,17.7802,12.2198,12.2198,1.63538,-0.294666,2.9031,0.128252,-0.0257528,-0.0826112,0,0,4.3225,-0.0875,-1.085,0.083326,-0.04209,-1.09422,-0.0707,0.1309,0.48384
-2.77983,0,0,17.7798,17.7798,12.2202,12.2202,1.63519,-0.294218,2.90295,-0.170854,0.0519165,0.156401,1,0,3.3425,0.3675,-1.12,-0.217038,0.035502,-0.85705,-0.0707,0.1309,0.48384
-2.7802,0,0,17.7802,17.7802,12.2198,12.2198,1.63541,-0.29368,2.90274,-0.170863,0.0519203,0.156401,1,0,3.57,0.42,-1.155,-0.217038,0.035502,-0.85705,-0.0707,0.1309,0.48384
-3.14748,0,0,18.1475,18.1475,11.8525,11.8525,1.85146,-0.335955,2.96754,-0.0391638,-0.184168,0.0943159,0,0,2.835,0.84,-1.295,-0.085522,-0.204106,-0.918538,-0.0707,0.1309,0.48384
-3.50946,0,0,18.5095,18.5095,11.4905,11.4905,2.06439,-0.376625,3.03121,-0.038454,-0.180454,0.0941846,0,0,3.3075,1.3475,-1.6625,-0.085522,-0.204106,-0.918538,-0.0707,0.1309,0.48384
-3.51005,0,0,18.5101,18.5101,11.4899,11.4899,2.06474,-0.376653,3.03021,0.093237,0.0480514,-0.334414,1,0,3.64,0.07,-1.61,0.046726,0.024156,-1.34383,-0.07252,0.13216,0.47908
-3.57127,0,0,18.5713,18.5713,11.4287,11.4287,2.10075,-0.0552058,2.77718,0.237054,-0.0244737,0.126026,0,0,3.5,0.7525,-1.96,0.196786,-0.048922,-0.88694,-0.07252,0.13216,0.47908
-3.63451,0,0,18.6345,18.6345,11.3655,11.3655,2.13794,0.259308,2.52444,0.231565,-0.0238253,0.125993,0,0,4.6375,0.525,-2.3275,0.196786,-0.048922,-0.88694,-0.07252,0.13216,0.47908
-3.34644,0,0,18.3464,18.3464,11.6536,11.6536,1.96849,0.569001,2.27254,0.271717,0.167888,-0.00574136,0,0,4.5325,-0.2975,-2.0825,0.242536,0.145546,-1.01772,-0.07252,0.13216,0.47908
-3.06178,0,0,18.0618,18.0618,11.9382,11.9382,1.80105,0.872909,2.01961,0.266413,0.164965,-0.00571195,0,0,4.06,-0.14,-2.0125,0.242536,0.145546,-1.01772,-0.07252,0.13216,0.47908
-3.06343,0,0,18.0634,18.0634,11.9366,11.9366,1.80202,0.871037,2.01816,0.102683,0.215176,0.146867,1,0,4.0075,-1.015,-1.8375,0.07808,0.195688,-0.866322,-0.07252,0.13216,0.47908
-3.06244,0,0,18.0624,18.0624,11.9376,11.9376,1.80144,0.870349,2.01708,0.102695,0.215166,0.146868,1,0,3.1325,-0.315,-1.645,0.07808,0.195688,-0.866322,-0.07252,0.13216,0.47908
-3.06041,0,0,18.0604,18.0604,11.9396,11.9396,1.80024,0.869013,2.01661,-0.0176739,-0.0302076,0.145393,1,0,2.7825,-0.6825,-1.2775,-0.042822,-0.04941,-0.867786,-0.07224,0.12754,0.4718
-3.05913,0,0,18.0591,18.0591,11.9409,11.9409,1.79949,0.868527,2.0167,0.192383,0.232108,-0.132716,1,0,3.0275,-0.175,-0.9625,0.168116,0.212646,-1.14375,-0.07224,0.12754,0.4718
-3.05777,0,0,18.0578,18.0578,11.9422,11.9422,1.79869,0.86819,2.01776,0.192389,0.232094,-0.132715,1,0,2.9925,-0.07,-0.4025,0.168116,0.212646,-1.14375,-0.07224,0.12754,0.4718
-3.0577,0,0,18.0577,18.0577,11.9423,11.9423,1.79865,0.867543,2.01914,-0.0380578,-0.215135,0.175763,1,0,3.4125,-0.245,-0.21,-0.063318,-0.234118,-0.837652,-0.07224,0.12754,0.4718
-3.05971,0,0,18.0597,18.0597,11.9403,11.9403,1.79983,0.867356,2.02114,-0.0380546,-0.215115,0.175762,1,0,4.095,0.035,0.14,-0.063318,-0.234118,-0.837652,-0.07224,0.12754,0.4718
-2.74388,0,0,17.7439,17.7439,12.2561,12.2561,1.61405,0.72702,2.16505,-0.113721,0.176115,-0.00496443,0,0,3.885,-0.63,0.5075,-0.141764,0.159942,-1.01711,-0.07224,0.12754,0.4718
-2.43321,0,0,17.4332,17.4332,12.5668,12.5668,1.4313,0.590838,2.31022,-0.111344,0.172928,-0.00485236,0,0,3.6925,0.1225,0.84,-0.141764,0.159942,-1.01711,-0.07224,0.12754,0.4718
-2.43189,0,0,17.4319,17.4319,12.5681,12.5681,1.43052,0.590121,2.31361,0.209755,-0.582684,0.0582207,1,0,2.9925,-0.2625,0.9625,0.180682,-0.594872,-0.954528,-0.07224,0.12754,0.4718
-2.4295,0,0,17.4295,17.4295,12.5705,12.5705,1.42912,0.591052,2.3168,0.209739,-0.582709,0.0582211,1,0,2.6425,0.7,0.8225,0.180682,-0.594872,-0.954528,-0.06818,0.12684,0.47712
-2.48405,0,0,17.4841,17.4841,12.5159,12.5159,1.46121,0.912411,2.05524,0.285526,-0.0342902,-0.0187094,0,0,1.9775,0.1225,0.665,0.262422,-0.04758,-1.03078,-0.06818,0.12684,0.47712
-2.53621,0,0,17.5362,17.5362,12.4638,12.4638,1.49189,1.2286,1.79417,0.280008,-0.0337576,-0.0188262,0,0,1.5925,0.8575,0.42,0.262422,-0.04758,-1.03078,-0.06818,0.12684,0.47712
-2.53229,0,0,17.5323,17.5323,12.4677,12.4677,1.48958,1.22831,1.78881,-0.242132,0.463502,-0.181117,1,0,2.2225,-0.14,-4.1475,-0.261934,0.449204,-1.19182,-0.06818,0.12684,0.47712
-2.53152,0,0,17.5315,17.5315,12.4685,12.4685,1.48913,1.22904,1.78957,-0.242145,0.463494,-0.181117,1,0,3.185,0.5425,-0.595,-0.261934,0.449204,-1.19182,-0.06818,0.12684,0.47712
-2.53412,0,0,17.5341,17.5341,12.4659,12.4659,1.49066,1.23053,1.78836,-0.0147495,-0.0463581,-0.293616,1,0,4.3225,0.9625,-1.75,-0.03355,-0.060146,-1.30345,-0.06818,0.12684,0.47712
-2.53673,0,0,17.5367,17.5367,12.4633,12.4633,1.49219,1.23202,1.78716,-0.0147755,-0.0463314,-0.293618,1,0,4.3225,0.9625,-1.75,-0.03355,-0.060146,-1.30345,-0.06818,0.12684,0.47712
-2.53779,0,0,17.5378,17.5378,12.4622,12.4622,1.49282,1.23205,1.78448,0.0877578,-0.333318,-0.0483356,1,0,3.8325,0.0875,-2.59,0.069418,-0.346846,-1.06006,-0.06818,0.12684,0.47712
-2.53885,0,0,17.5389,17.5389,12.4611,12.4611,1.49344,1.23209,1.7818,0.0877572,-0.333307,-0.0483359,1,0,3.8325,0.0875,-2.59,0.069418,-0.346846,-1.06006,-0.0728,0.13412,0.48314
-2.14823,0,0,17.1482,17.1482,12.8518,12.8518,1.26367,0.819167,2.14786,-0.329387,0.204441,0.118854,0,0,3.2725,-0.1225,-3.675,-0.356728,0.194346,-0.894382,-0.0728,0.13412,0.48314
-1.76394,0,0,16.7639,16.7639,13.2361,13.2361,1.03761,0.413881,2.51635,-0.322314,0.200499,0.119009,0,0,3.2725,-0.1225,-3.675,-0.356728,0.194346,-0.894382,-0.0728,0.13412,0.48314
-1.47927,0,0,16.4793,16.4793,13.5207,13.5207,0.870158,0.649989,2.31908,0.215878,0.1668,-0.0384777,0,0,2.87,0.525,-3.7275,0.18788,0.163602,-1.05066,-0.0728,0.13412,0.48314
-1.1995,0,0,16.1995,16.1995,13.8005,13.8005,0.705588,0.881519,2.12093,0.211837,0.163927,-0.0384922,0,0,2.87,0.525,-3.7275,0.18788,0.163602,-1.05066,-0.0728,0.13412,0.48314
-1.19959,0,0,16.1996,16.1996,13.8004,13.8004,0.705643,0.88094,2.11659,0.244527,0.0292226,-0.0854584,1,0,3.5175,-0.2625,-3.5525,0.220698,0.029036,-1.09727,-0.0728,0.13412,0.48314
-1.39005,0,0,16.3901,16.3901,13.6099,13.6099,0.817678,0.653454,2.32364,-0.192982,-0.102062,0.021534,0,0,5.635,-0.42,-2.975,-0.22265,-0.104066,-0.991128,-0.0728,0.13412,0.48314
-1.57919,0,0,16.5792,16.5792,13.4208,13.4208,0.928938,0.431792,2.53068,-0.189113,-0.10012,0.021541,0,0,6.3525,0.3325,-2.205,-0.22265,-0.104066,-0.991128,-0.0728,0.13412,0.48314
-1.68639,0,0,16.6864,16.6864,13.3136,13.3136,0.991993,0.791701,2.22032,0.273783,-0.0474832,0.140593,0,0,5.495,-0.77,-1.33,0.248514,-0.052582,-0.87291,-0.0728,0.13412,0.48314
-1.78892,0,0,16.7889,16.7889,13.2111,13.2111,1.05231,1.14424,1.92893,0.267631,-0.0464327,0.14047,0,0,4.69,0.07,-0.6125,0.248514,-0.052582,-0.87291,-0.06622,0.12278,0.46802
-1.78749,0,0,16.7875,16.7875,13.2125,13.2125,1.05146,1.14295,1.93067,0.128067,0.493475,-0.106656,1,0,2.9575,-0.63,0,0.108336,0.48678,-1.11813,-0.06622,0.12278,0.46802
-1.78091,0,0,16.7809,16.7809,13.2191,13.2191,1.04759,1.14204,1.93403,0.128082,0.493407,-0.106654,1,0,1.2425,-0.385,0.945,0.108336,0.48678,-1.11813,-0.06622,0.12278,0.46802
-1.77564,0,0,16.7756,16.7756,13.2244,13.2244,1.04449,1.14074,1.93826,0.301101,-0.132791,-0.301895,1,0,1.6625,-0.6125,1.4525,0.282064,-0.138714,-1.31187,-0.06622,0.12278,0.46802
-1.77347,0,0,16.7735,16.7735,13.2265,13.2265,1.04322,1.13935,1.94353,0.301125,-0.132813,-0.301894,1,0,2.6775,-0.6475,2.065,0.282064,-0.138714,-1.31187,-0.06622,0.12278,0.46802
-1.77525,0,0,16.7752,16.7752,13.2248,13.2248,1.04426,1.13898,1.94906,-0.544652,-0.0238575,-0.217921,1,0,3.9725,-0.0525,2.205,-0.5673,-0.02989,-1.22854,-0.06622,0.12278,0.46802
-1.78565,0,0,16.7856,16.7856,13.2144,13.2144,1.05038,1.13924,1.95398,-0.544656,-0.0237507,-0.217923,1,0,6.825,0.315,1.8375,-0.5673,-0.02989,-1.22854,-0.06622,0.12278,0.46802
-2.14776,0,0,17.1478,17.1478,12.8522,12.8522,1.26339,1.17168,1.9532,0.0217512,-0.1926,0.0259207,0,0,6.895,0.8925,1.9775,0.002074,-0.202276,-0.986492,-0.06622,0.12278,0.46802
-2.50365,0,0,17.5037,17.5037,12.4963,12.4963,1.47274,1.20215,1.95096,0.0212195,-0.188948,0.0258225,0,0,7.035,0.175,1.1375,0.002074,-0.202276,-0.986492,-0.06748,0.12292,0.46998
-2.39902,0,0,17.399,17.399,12.601,12.601,1.41119,1.23426,1.94393,0.0243038,0.0583837,0.0868201,0,0,5.5825,-0.07,0.735,0.005734,0.045872,-0.92598,-0.06748,0.12292,0.46998
-2.29298,0,0,17.293,17.293,12.707,12.707,1.34881,1.26613,1.93591,0.0237477,0.0572953,0.0868342,0,0,4.4975,0.14,0.1575,0.005734,0.045872,-0.92598,-0.06748,0.12292,0.46998
-2.17809,0,0,17.1781,17.1781,12.8219,12.8219,1.28123,1.41023,1.82572,0.120244,0.0630763,0.0254512,0,0,3.255,0.4025,-0.56,0.105164,0.052826,-0.986858,-0.06748,0.12292,0.46998
-2.06382,0,0,17.0638,17.0638,12.9362,12.9362,1.21401,1.55163,1.71336,0.117777,0.0619024,0.025413,0,0,2.8175,0.4725,-1.8025,0.105164,0.052826,-0.986858,-0.06748,0.12292,0.46998
-2.0613,0,0,17.0613,17.0613,12.9387,12.9387,1.21253,1.55184,1.71179,-0.0248507,-0.11362,-0.427283,1,0,2.6425,0.21,-1.9425,-0.038064,-0.122488,-1.43606,-0.06748,0.12292,0.46998
-2.06361,0,0,17.0636,17.0636,12.9364,12.9364,1.21389,1.55255,1.70909,-0.0248631,-0.113596,-0.427284,1,0,4.2525,0.49,-2.6075,-0.038064,-0.122488,-1.43606,-0.06748,0.12292,0.46998
-2.21313,0,0,17.2131,17.2131,12.7869,12.7869,1.30184,1.62276,1.65799,0.0642973,-0.087393,-0.0663746,0,0,5.0225,0.28,-2.905,0.052704,-0.097844,-1.07787,-0.06748,0.12292,0.46998
-2.36089,0,0,17.3609,17.3609,12.6391,12.6391,1.38876,1.68982,1.58976,0.0631273,-0.0858778,-0.066444,0,0,5.4075,0.1225,-3.6225,0.052704,-0.097844,-1.07787,-0.06552,0.13286,0.47362
-2.40834,0,0,17.4083,17.4083,12.5917,12.5917,1.41667,1.8302,1.45537,0.122758,-0.0244516,-0.0179665,0,0,5.1275,0.385,-3.5,0.115046,-0.036966,-1.02968,-0.06552,0.13286,0.47362
-2.45487,0,0,17.4549,17.4549,12.5451,12.5451,1.44404,1.96775,1.32136,0.120358,-0.0239763,-0.018058,0,0,5.1275,0.385,-3.5,0.115046,-0.036966,-1.02968,-0.06552,0.13286,0.47362
-2.45803,0,0,17.458,17.458,12.542,12.542,1.4459,1.96847,1.31755,-0.0155969,0.261711,0.32927,1,0,4.5675,0.4725,-3.255,-0.021472,0.248392,-0.68503,-0.06552,0.13286,0.47362
-2.4612,0,0,17.4612,17.4612,12.5388,12.5388,1.44777,1.96919,1.31375,-0.0156094,0.261743,0.329269,1,0,4.5675,0.4725,-3.255,-0.021472,0.248392,-0.68503,-0.06552,0.13286,0.47362
-1.92112,0,0,16.9211,16.9211,13.0789,13.0789,1.13007,1.72712,1.51959,-0.218034,0.313972,0.0172407,0,0,4.8825,0.4025,-2.45,-0.228994,0.306098,-0.99491,-0.06552,0.13286,0.47362
-1.39028,0,0,16.3903,16.3903,13.6097,13.6097,0.817811,1.48939,1.72779,-0.213886,0.308527,0.0174498,0,0,4.8825,0.4025,-2.45,-0.228994,0.306098,-0.99491,-0.06552,0.13286,0.47362
-1.39487,0,0,16.3949,16.3949,13.6051,13.6051,0.820514,1.49593,1.72742,-0.218131,0.0957067,-0.253532,1,0,4.97,3.9375,-1.295,-0.233142,0.093452,-1.2638,-0.06552,0.13286,0.47362
-1.39947,0,0,16.3995,16.3995,13.6005,13.6005,0.823216,1.50247,1.72706,-0.218245,0.0957539,-0.253536,1,0,4.97,3.9375,-1.295,-0.233142,0.093452,-1.2638,-0.06622,0.1239,0.46942
-1.40174,0,0,16.4017,16.4017,13.5983,13.5983,0.824551,1.50215,1.72809,-0.000537168,-0.10158,-0.155423,1,0,4.1825,-0.07,-0.42,-0.014518,-0.1037,-1.16644,-0.06622,0.1239,0.46942
-1.40401,0,0,16.404,16.404,13.596,13.596,0.825886,1.50184,1.72913,-0.000531605,-0.101556,-0.155424,1,0,4.1825,-0.07,-0.42,-0.014518,-0.1037,-1.16644,-0.06622,0.1239,0.46942
-1.70792,0,0,16.7079,16.7079,13.2921,13.2921,1.00466,1.32228,1.90696,-0.145854,-0.157424,0.100951,0,0,1.68,-0.4725,0.2275,-0.163602,-0.162626,-0.912072,-0.06622,0.1239,0.46942
-1.70269,0,0,16.7027,16.7027,13.2973,13.2973,1.00158,1.3214,1.90901,0.187761,0.0599084,0.288449,1,0,1.6975,-0.385,0.175,0.17141,0.054534,-0.726022,-0.06622,0.1239,0.46942
-1.69863,0,0,16.6986,16.6986,13.3014,13.3014,0.999195,1.32049,1.91123,0.187777,0.0598667,0.28845,1,0,2.0825,-0.4025,0.28,0.17141,0.054534,-0.726022,-0.06622,0.1239,0.46942
-1.70136,0,0,16.7014,16.7014,13.2986,13.2986,1.0008,1.32,1.9134,-0.187727,0.108623,0.200173,1,0,4.3225,-0.1575,0.245,-0.205692,0.103212,-0.813618,-0.06622,0.1239,0.46942
-1.70829,0,0,16.7083,16.7083,13.2917,13.2917,1.00488,1.31966,1.9156,-0.187721,0.108694,0.200172,1,0,5.705,-0.07,0.2625,-0.205692,0.103212,-0.813618,-0.06622,0.1239,0.46942
-1.71602,0,0,16.716,16.716,13.284,13.284,1.00942,1.31967,1.91793,0.146,0.03391,0.122098,1,0,5.9675,0.14,0.3325,0.129442,0.028426,-0.891088,-0.06706,0.11872,0.47516
-1.71988,0,0,16.7199,16.7199,13.2801,13.2801,1.0117,1.31982,1.91924,-0.202545,0.374805,-0.167938,1,0,4.7075,0.21,-0.2625,-0.220576,0.368928,-1.17889,-0.06706,0.11872,0.47516
-1.72279,0,0,16.7228,16.7228,13.2772,13.2772,1.01341,1.31997,1.9205,-0.202548,0.374835,-0.167939,1,0,4.3925,0.21,-0.2975,-0.220576,0.368928,-1.17889,-0.06706,0.11872,0.47516
-1.72521,0,0,16.7252,16.7252,13.2748,13.2748,1.01483,1.31986,1.92138,0.0215952,-0.067483,-0.110768,1,0,4.235,0.0525,-0.5075,0.004514,-0.072956,-1.12216,-0.06706,0.11872,0.47516
-1.72504,0,0,16.725,16.725,13.275,13.275,1.01473,1.31947,1.92143,0.0216021,-0.0674846,-0.110768,1,0,3.395,-0.1225,-0.9975,0.004514,-0.072956,-1.12216,-0.06706,0.11872,0.47516
-1.72529,0,0,16.7253,16.7253,13.2747,13.2747,1.01487,1.31956,1.92097,0.187307,0.101419,-0.372402,1,0,3.535,0.1575,-1.295,0.170922,0.09577,-1.38177,-0.06706,0.11872,0.47516
-1.7238,0,0,16.7238,16.7238,13.2762,13.2762,1.014,1.32027,1.92103,0.187295,0.101404,-0.372402,1,0,2.9575,0.525,-0.9975,0.170922,0.09577,-1.38177,-0.06706,0.11872,0.47516
-1.72395,0,0,16.7239,16.7239,13.2761,13.2761,1.01409,1.32101,1.921,0.230652,-0.177898,-0.125645,1,0,3.5,0.5425,-1.05,0.214476,-0.183244,-1.13692,-0.06706,0.11872,0.47516
-1.72323,0,0,16.7232,16.7232,13.2768,13.2768,1.01366,1.32108,1.92036,0.230651,-0.177906,-0.125645,1,0,3.22,0.14,-1.4,0.214476,-0.183244,-1.13692,-0.06622,0.12684,0.46844
-1.89155,0,0,16.8915,16.8915,13.1085,13.1085,1.11268,1.29136,1.95819,-0.027595,-0.0955746,-0.00320841,0,0,3.0275,0.5775,-1.6275,-0.045384,-0.102724,-1.01541,-0.06622,0.12684,0.46844
-2.05823,0,0,17.0582,17.0582,12.9418,12.9418,1.21073,1.26224,1.99571,-0.0270869,-0.0938639,-0.00323178,0,0,3.5,0.595,-1.68,-0.045384,-0.102724,-1.01541,-0.06622,0.12684,0.46844
-2.06176,0,0,17.0618,17.0618,12.9382,12.9382,1.2128,1.26254,1.99498,-0.0666966,0.162638,0.211435,1,0,4.62,0.28,-1.4525,-0.085156,0.153476,-0.802394,-0.06622,0.12684,0.46844
-2.0653,0,0,17.0653,17.0653,12.9347,12.9347,1.21489,1.26329,1.99352,-0.0667096,0.162675,0.211434,1,0,4.6375,0.525,-1.89,-0.085156,0.153476,-0.802394,-0.06622,0.12684,0.46844
-2.07049,0,0,17.0705,17.0705,12.9295,12.9295,1.21793,1.2635,1.99174,0.0869661,0.0609964,0.107665,1,0,5.18,0.21,-2.065,0.069174,0.05185,-0.905362,-0.06622,0.12684,0.46844
-2.07306,0,0,17.0731,17.0731,12.9269,12.9269,1.21944,1.26354,1.98966,0.0869654,0.0610228,0.107664,1,0,4.3225,0.105,-2.24,0.069174,0.05185,-0.905362,-0.06622,0.12684,0.46844
-1.64652,0,0,16.6465,16.6465,13.3535,13.3535,0.968544,1.19537,2.06104,-0.0556841,0.234463,0.0429793,0,0,3.5875,0.3675,-2.1175,-0.075274,0.229482,-0.969656,-0.06622,0.12684,0.46844
-1.22599,0,0,16.226,16.226,13.774,13.774,0.721173,1.12763,2.13623,-0.0545021,0.230147,0.0430669,0,0,3.08,0.4025,-2.0475,-0.075274,0.229482,-0.969656,-0.06762,0.12502,0.46242
-0.604978,0,0,15.605,15.605,14.395,14.395,0.35587,1.39216,1.90966,0.216776,0.325381,0.152204,0,0,2.6425,0.385,-2.1,0.201788,0.330986,-0.86132,-0.06762,0.12502,0.46242
0.00720619,0,0,14.9928,14.9928,15.0072,15.0072,-0.00423894,1.65075,1.68094,0.212264,0.319098,0.152103,0,0,2.24,-0.3675,-1.82,0.201788,0.330986,-0.86132,-0.06762,0.12502,0.46242
0.640154,0,0,14.3598,14.3598,15.6402,15.6402,-0.376561,1.51944,1.80619,-0.106896,0.32396,0.141202,0,0,2.45,0.35,-1.645,-0.121024,0.342332,-0.872178,-0.06762,0.12502,0.46242
1.26141,0,0,13.7386,13.7386,16.2614,16.2614,-0.742004,1.38918,1.93403,-0.104623,0.317584,0.141198,0,0,2.7475,-0.4025,-1.155,-0.121024,0.342332,-0.872178,-0.06762,0.12502,0.46242
1.28334,0,0,13.7167,13.7167,16.2833,16.2833,-0.754904,1.4819,1.86062,0.0871645,0.0135079,-0.0302358,0,0,3.5875,-0.6475,-1.12,0.0732,0.038796,-1.04225,-0.06762,0.12502,0.46242
1.30418,0,0,13.6958,13.6958,16.3042,16.3042,-0.767164,1.57312,1.78777,0.0855729,0.0132946,-0.0302811,0,0,3.815,-0.4725,-0.84,0.0732,0.038796,-1.04225,-0.06762,0.12502,0.46242
1.30456,0,0,13.6954,13.6954,16.3046,16.3046,-0.76739,1.5716,1.78877,-0.135869,0.0778957,-0.136508,1,0,3.3075,-0.7875,-0.455,-0.149206,0.103334,-1.14765,-0.06762,0.12502,0.46242
1.30613,0,0,13.6939,13.6939,16.3061,16.3061,-0.768313,1.57096,1.79051,-0.135858,0.0778796,-0.136508,1,0,2.905,-0.28,-0.0175,-0.149206,0.103334,-1.14765,-0.06762,0.12502,0.46242
1.07811,0,0,13.9219,13.9219,16.0781,16.0781,-0.634181,1.96304,1.44703,0.325144,-0.123241,0.128879,0,0,3.2725,0.14,-0.105,0.320616,-0.099918,-0.884134,-0.063,0.11872,0.46788
0.852235,0,0,14.1478,14.1478,15.8522,15.8522,-0.501315,2.34726,1.10604,0.318443,-0.120922,0.128649,0,0,3.8675,-0.2625,0.1225,0.320616,-0.099918,-0.884134,-0.063,0.11872,0.46788
0.989436,0,0,14.0106,14.0106,15.9894,15.9894,-0.582021,2.38686,1.07537,0.0417365,0.0838213,-0.0642987,0,0,3.8675,-0.28,0.2975,0.043432,0.106018,-1.07555,-0.063,0.11872,0.46788
1.12509,0,0,13.8749,13.8749,16.1251,16.1251,-0.661817,2.42627,1.04429,0.0410494,0.0824302,-0.0643427,0,0,3.57,0.0525,0.0525,0.043432,0.106018,-1.07555,-0.063,0.11872,0.46788
1.12418,0,0,13.8758,13.8758,16.1242,16.1242,-0.661285,2.42632,1.04662,0.228744,-0.0133078,-0.153603,1,0,3.6925,0.1225,0.3325,0.231922,0.01037,-1.16412,-0.063,0.11872,0.46788
1.12588,0,0,13.8741,13.8741,16.1259,16.1259,-0.662281,2.42648,1.04823,0.228741,-0.0133252,-0.153604,1,0,2.8525,0.1925,-0.0875,0.231922,0.01037,-1.16412,-0.063,0.11872,0.46788
1.12737,0,0,13.8726,13.8726,16.1274,16.1274,-0.66316,2.42658,1.04966,-0.156492,-0.0784341,-0.177825,1,0,2.9225,0.1575,-0.1925,-0.15494,-0.054656,-1.18816,-0.063,0.11872,0.46788
1.13277,0,0,13.8672,13.8672,16.1328,16.1328,-0.666337,2.42674,1.05063,-0.156495,-0.0784895,-0.177825,1,0,1.645,0.1925,-0.455,-0.15494,-0.054656,-1.18816,-0.063,0.11872,0.46788
1.13866,0,0,13.8613,13.8613,16.1387,16.1387,-0.669799,2.42716,1.05152,0.0224465,0.209547,-0.236227,1,0,1.4875,0.35,-0.5075,0.024766,0.233142,-1.24611,-0.06944,0.12404,0.47012
1.14329,0,0,13.8567,13.8567,16.1433,16.1433,-0.672524,2.42736,1.05139,0.222044,-0.107419,-0.158647,1,0,1.925,0.2275,-1.1025,0.225212,-0.083448,-1.16913,-0.06944,0.12404,0.47012
1.14572,0,0,13.8543,13.8543,16.1457,16.1457,-0.673952,2.42762,1.05092,0.222039,-0.107444,-0.158648,1,0,2.66,0.2625,-1.295,0.225212,-0.083448,-1.16913,-0.06944,0.12404,0.47012
0.846719,0,0,14.1533,14.1533,15.8467,15.8467,-0.49807,2.11854,1.33818,-0.27625,-0.169595,0.0392989,0,0,3.64,0.2975,-1.47,-0.2806,-0.148596,-0.97295,-0.06944,0.12404,0.47012
0.551802,0,0,14.4482,14.4482,15.5518,15.5518,-0.324589,1.81564,1.62249,-0.270967,-0.16657,0.0395021,0,0,4.0775,0.5425,-1.7675,-0.2806,-0.148596,-0.97295,-0.06944,0.12404,0.47012
0.547557,0,0,14.4524,14.4524,15.5476,15.5476,-0.322093,1.81646,1.62061,-0.154233,-0.11218,0.186917,1,0,4.8825,0.595,-2.1175,-0.163358,-0.094306,-0.826672,-0.06944,0.12404,0.47012
0.544423,0,0,14.4556,14.4556,15.5444,15.5444,-0.320249,1.81653,1.61784,-0.154234,-0.112148,0.186917,1,0,4.5325,0.1575,-2.6425,-0.163358,-0.094306,-0.826672,-0.06944,0.12404,0.47012
0.914348,0,0,14.0857,14.0857,15.9143,15.9143,-0.537852,2.125,1.3347,0.2832,0.215876,0.0415015,0,0,4.025,0.0175,-2.8,0.281332,0.237168,-0.970754,-0.06944,0.12404,0.47012
1.28,0,0,13.72,13.72,16.28,16.28,-0.752941,2.42898,1.04394,0.277899,0.212128,0.0412485,0,0,3.465,0.3325,-2.7825,0.281332,0.237168,-0.970754,-0.0672,0.12782,0.46746
1.18461,0,0,13.8154,13.8154,16.1846,16.1846,-0.696832,2.58759,0.887433,0.140163,-0.0548386,0.0179025,0,0,2.9575,0.5075,-2.765,0.14579,-0.0305,-0.993812,-0.0672,0.12782,0.46746
1.09361,0,0,13.9064,13.9064,16.0936,16.0936,-0.6433,2.74189,0.73163,0.137473,-0.0539039,0.0177882,0,0,2.0825,-0.2275,-2.66,0.14579,-0.0305,-0.993812,-0.0672,0.12782,0.46746
0.495776,0,0,14.5042,14.5042,15.4958,15.4958,-0.291633,2.67821,0.784025,-0.0555511,-0.344297,0.0446935,0,0,1.82,0,-2.38,-0.049166,-0.326716,-0.967216,-0.0672,0.12782,0.46746
-0.09151,0,0,15.0915,15.0915,14.9085,14.9085,0.0538294,2.61573,0.835997,-0.0544618,-0.338275,0.0447564,0,0,1.6975,0,-2.0475,-0.049166,-0.326716,-0.967216,-0.0672,0.12782,0.46746
-0.0876795,0,0,15.0877,15.0877,14.9123,14.9123,0.0515762,2.61579,0.834575,-0.0523975,0.196479,0.27467,1,0,2.2225,0.14,-1.855,-0.047092,0.207522,-0.739076,-0.0672,0.12782,0.46746
-0.0838472,0,0,15.0838,15.0838,14.9162,14.9162,0.0493219,2.61617,0.833814,-0.0524042,0.19644,0.27467,1,0,2.205,0.3325,-1.47,-0.047092,0.207522,-0.739076,-0.0672,0.12782,0.46746
-0.0832983,0,0,15.0833,15.0833,14.9167,14.9167,0.048999,2.61581,0.833653,-0.120308,0.109969,0.317702,1,0,3.2725,-0.105,-1.12,-0.11529,0.121146,-0.696376,-0.0672,0.12782,0.46746
-0.0823049,0,0,15.0823,15.0823,14.9177,14.9177,0.0484146,2.61478,0.834602,-0.120291,0.109958,0.317703,1,0,3.0975,-0.49,-0.4725,-0.11529,0.121146,-0.696376,-0.0651,0.12768,0.46662
-0.0616706,0,0,15.0617,15.0617,14.9383,14.9383,0.0362768,2.69159,0.753394,0.067402,0.0120453,0.0133434,0,0,3.675,-0.3675,-0.035,0.074542,0.023546,-0.998326,-0.0651,0.12768,0.46662
-0.0424095,0,0,15.0424,15.0424,14.9576,14.9576,0.0249467,2.7678,0.673047,0.0660735,0.0118477,0.0132802,0,0,3.99,0.1575,0.4025,0.074542,0.023546,-0.998326,-0.0651,0.12768,0.46662
-0.0444893,0,0,15.0445,15.0445,14.9555,14.9555,0.0261702,2.76764,0.675828,-0.302876,-0.0329515,0.210859,1,0,4.06,0.0175,0.595,-0.295972,-0.021228,-0.802272,-0.0651,0.12768,0.46662
-0.043379,0,0,15.0434,15.0434,14.9566,14.9566,0.0255171,2.76713,0.67918,-0.302867,-0.0329628,0.210859,1,0,2.9925,-0.1925,0.9275,-0.295972,-0.021228,-0.802272,-0.0651,0.12768,0.46662
-0.0414011,0,0,15.0414,15.0414,14.9586,14.9586,0.0243536,2.76757,0.682953,-0.065613,-0.0186943,0.144835,1,0,2.695,0.3675,1.1725,-0.057706,-0.006954,-0.867786,-0.0651,0.12768,0.46662
-0.0388951,0,0,15.0389,15.0389,14.9611,14.9611,0.0228795,2.76759,0.686755,-0.0656134,-0.01872,0.144835,1,0,2.52,0.1225,1.19,-0.057706,-0.006954,-0.867786,-0.0651,0.12768,0.46662
-0.171378,0,0,15.1714,15.1714,14.8286,14.8286,0.100811,2.93204,0.527013,0.163315,-0.0834322,-0.0655508,0,0,2.4325,-0.07,0.805,0.17507,-0.072956,-1.07641,-0.0651,0.12768,0.46662
-0.302116,0,0,15.3021,15.3021,14.6979,14.6979,0.177715,3.09265,0.35951,0.160515,-0.0820922,-0.0657014,0,0,2.6775,0.315,0.245,0.17507,-0.072956,-1.07641,-0.06286,0.13216,0.47866
-0.0872842,0,0,15.0873,15.0873,14.9127,14.9127,0.0513436,3.24633,0.19007,0.145689,0.128572,-0.0428539,0,0,2.9225,0,0.07,0.16287,0.13969,-1.05359,-0.06286,0.13216,0.47866
0.12433,0,0,14.8757,14.8757,15.1243,15.1243,-0.0731354,3.39721,0.0187372,0.14306,0.126403,-0.0430069,0,0,2.8175,0.105,-0.84,0.16287,0.13969,-1.05359,-0.06286,0.13216,0.47866
0.210557,0,0,14.7894,14.7894,15.2106,15.2106,-0.123857,3.36244,0.0183008,-0.0321242,0.0512664,-0.0461693,0,0,3.5875,0.63,-1.2775,-0.013664,0.065514,-1.05676,-0.06286,0.13216,0.47866
0.292371,0,0,14.7076,14.7076,15.2924,15.2924,-0.171983,3.32812,0.0167751,-0.0315263,0.0504278,-0.0461365,0,0,4.5675,0.525,-1.96,-0.013664,0.065514,-1.05676,-0.06286,0.13216,0.47866
0.286719,0,0,14.7133,14.7133,15.2867,15.2867,-0.168658,3.32886,0.014419,-0.184611,0.142936,-0.21679,1,0,5.39,0.5425,-2.3975,-0.167384,0.157868,-1.2261,-0.06286,0.13216,0.47866
0.282318,0,0,14.7177,14.7177,15.2823,15.2823,-0.16607,3.33024,0.0101385,-0.184635,0.142981,-0.216791,1,0,5.04,0.9275,-3.5175,-0.167384,0.157868,-1.2261,-0.06286,0.13216,0.47866
0.278266,0,0,14.7217,14.7217,15.2783,15.2783,-0.163686,3.33026,0.00556154,0.13147,-0.123336,-0.263142,1,0,4.935,0.1225,-3.6925,0.15006,-0.108214,-1.27209,-0.06286,0.13216,0.47866
0.275826,0,0,14.7242,14.7242,15.2758,15.2758,-0.162251,3.33038,0.00023329,0.131468,-0.123311,-0.263142,1,0,4.4275,0.1925,-4.13,0.15006,-0.108214,-1.27209,-0.06286,0.13216,0.47866
0.276231,0,0,14.7238,14.7238,15.2762,15.2762,-0.162489,3.33072,-0.00488528,-0.0798014,-0.0777619,-0.115482,1,0,3.4825,0.315,-4.0075,-0.062098,-0.062708,-1.12557,-0.06734,0.12656,0.47166
0.27846,0,0,14.7215,14.7215,15.2785,15.2785,-0.1638,3.33062,-0.00913141,-0.0797995,-0.0777848,-0.115482,1,0,2.8525,0.0525,-3.5,-0.062098,-0.062708,-1.12557,-0.06734,0.12656,0.47166
0.285501,0,0,14.7145,14.7145,15.2855,15.2855,-0.167942,3.33132,-0.0126589,0.385843,0.241993,-0.0894174,1,0,1.2425,0.525,-3.08,0.405528,0.25681,-1.09971,-0.06734,0.12656,0.47166
0.290609,0,0,14.7094,14.7094,15.2906,15.2906,-0.170946,3.33172,-0.0148939,0.385836,0.241941,-0.089418,1,0,1.8375,0.35,-2.3275,0.405528,0.25681,-1.09971,-0.06734,0.12656,0.47166
-0.0499145,0,0,15.0499,15.0499,14.9501,14.9501,0.0293615,3.34924,-0.0426944,0.0148778,-0.189829,0.0496233,0,0,1.9075,0.7175,-1.365,0.033306,-0.177998,-0.961726,-0.06734,0.12656,0.47166
-0.388333,0,0,15.3883,15.3883,14.6117,14.6117,0.228431,3.36586,-0.0698414,0.0145882,-0.186361,0.0495985,0,0,3.1675,0.3675,-1.015,0.033306,-0.177998,-0.961726,-0.06734,0.12656,0.47166
-0.56242,0,0,15.5624,15.5624,14.4376,14.4376,0.330835,3.55529,-0.257244,0.182947,-0.104951,-0.0327394,0,0,3.7625,0.0175,0.175,0.205692,-0.098454,-1.04322,-0.06734,0.12656,0.47166
-0.734034,0,0,15.734,15.734,14.266,14.266,0.431785,3.74063,-0.44282,0.179719,-0.103194,-0.0329569,0,0,3.92,-0.245,0.7,0.205692,-0.098454,-1.04322,-0.06734,0.12656,0.47166
-0.738081,0,0,15.7381,15.7381,14.2619,14.2619,0.434165,3.73952,-0.438812,-0.0300673,-0.00239794,-0.139306,1,0,4.6375,-0.525,1.3125,-0.005002,0.002196,-1.14875,-0.06748,0.12908,0.47026
-0.896201,0,0,15.8962,15.8962,14.1038,14.1038,0.527177,4.11137,-0.797766,0.294992,-0.0812637,0.15691,0,0,4.06,-0.49,1.68,0.327936,-0.078202,-0.854366,-0.06748,0.12908,0.47026
-1.04895,0,0,16.049,16.049,13.951,13.951,0.617032,4.47746,-1.1556,0.288621,-0.0797047,0.156416,0,0,3.22,0.1575,1.295,0.327936,-0.078202,-0.854366,-0.06748,0.12908,0.47026
-1.04945,0,0,16.0495,16.0495,13.9505,13.9505,0.617324,4.47639,-1.15102,0.163023,0.335531,-0.30341,1,0,3.4125,-0.49,1.645,0.201788,0.336598,-1.31065,-0.06748,0.12908,0.47026
-1.0474,0,0,16.0474,16.0474,13.9526,13.9526,0.616115,4.47497,-1.14687,0.163048,0.33551,-0.303407,1,0,2.59,-0.7,1.4,0.201788,0.336598,-1.31065,-0.06748,0.12908,0.47026
-0.829696,0,0,15.8297,15.8297,14.1703,14.1703,0.488056,4.33558,-1.06765,-0.130223,0.130309,-0.0491875,0,0,3.5525,-0.7,0.8925,-0.09516,0.133834,-1.05859,-0.06748,0.12908,0.47026
-0.614683,0,0,15.6147,15.6147,14.3853,14.3853,0.361578,4.19913,-0.988979,-0.127848,0.128109,-0.048994,0,0,3.2025,-0.49,0.2625,-0.09516,0.133834,-1.05859,-0.06748,0.12908,0.47026
-0.613638,0,0,15.6136,15.6136,14.3864,14.3864,0.360964,4.19876,-0.987519,0.0110169,-0.180149,0.25887,1,0,3.045,-0.105,-0.175,0.044286,-0.174094,-0.753106,-0.06748,0.12908,0.47026
-0.613256,0,0,15.6133,15.6133,14.3867,14.3867,0.360739,4.19828,-0.987984,0.0110252,-0.180153,0.25887,1,0,3.3425,-0.175,-1.295,0.044286,-0.174094,-0.753106,-0.06776,0.1288,0.47166
-0.61175,0,0,15.6117,15.6117,14.3883,14.3883,0.359853,4.19721,-0.989384,0.0178471,0.110493,-0.116859,1,0,3.01,-0.525,-1.8375,0.051118,0.116266,-1.12594,-0.06776,0.1288,0.47166
-0.610819,0,0,15.6108,15.6108,14.3892,14.3892,0.359305,4.19662,-0.992556,0.0178572,0.110483,-0.116858,1,0,3.2725,-0.245,-2.87,0.051118,0.116266,-1.12594,-0.06776,0.1288,0.47166
-0.609681,0,0,15.6097,15.6097,14.3903,14.3903,0.358636,4.19703,-0.996534,-0.157454,0.0440348,-0.107023,1,0,3.2375,0.3325,-3.3425,-0.124928,0.049898,-1.11618,-0.06776,0.1288,0.47166
-0.608639,0,0,15.6086,15.6086,14.3914,14.3914,0.358023,4.19691,-1.00103,-0.157452,0.0440241,-0.107022,1,0,3.29,0.0175,-3.64,-0.124928,0.049898,-1.11618,-0.06776,0.1288,0.47166
-0.608423,0,0,15.6084,15.6084,14.3916,14.3916,0.357896,4.19651,-1.00528,0.0784806,0.0370607,-0.377263,1,0,3.5525,-0.14,-3.5,0.111996,0.042944,-1.38433,-0.06776,0.1288,0.47166
-0.610419,0,0,15.6104,15.6104,14.3896,14.3896,0.35907,4.19659,-1.00881,0.0784793,0.0370811,-0.377263,1,0,4.2525,0.14,-3.08,0.111996,0.042944,-1.38433,-0.06776,0.1288,0.47166
-0.613738,0,0,15.6137,15.6137,14.3863,14.3863,0.361022,4.1975,-1.01194,-0.200346,0.241433,-0.189522,1,0,4.6725,0.63,-2.8525,-0.167994,0.24705,-1.19804,-0.06776,0.1288,0.47166
-0.615361,0,0,15.6154,15.6154,14.3846,14.3846,0.361977,4.199,-1.01378,-0.200372,0.24145,-0.189524,1,0,4.06,0.98,-2.1,-0.167994,0.24705,-1.19804,-0.06846,0.12348,0.46872
-0.214205,0,0,15.2142,15.2142,14.7858,14.7858,0.126003,4.17432,-1.03363,-0.0301058,0.237709,-0.0216503,0,0,2.835,1.3125,-1.6975,0.002562,0.247416,-1.03151,-0.06846,0.12348,0.46872
0.184049,0,0,14.816,14.816,15.184,15.184,-0.108264,4.14898,-1.05236,-0.0296648,0.233631,-0.0216176,0,0,1.4525,0.7525,-1.26,0.002562,0.247416,-1.03151,-0.06846,0.12348,0.46872
0.105416,0,0,14.8946,14.8946,15.1054,15.1054,-0.0620094,4.06517,-0.999932,-0.0736414,-0.0457229,0.0538558,0,0,1.3475,0.2625,-0.8575,-0.043066,-0.032452,-0.956724,-0.06846,0.12348,0.46872
0.0255769,0,0,14.9744,14.9744,15.0256,15.0256,-0.0150452,3.9842,-0.946569,-0.0722317,-0.0449053,0.0539555,0,0,2.17,0.9625,-0.1575,-0.043066,-0.032452,-0.956724,-0.06846,0.12348,0.46872
0.027221,0,0,14.9728,14.9728,15.0272,15.0272,-0.0160124,3.98464,-0.944716,-0.012347,-0.0360069,-0.276531,1,0,2.835,0.3675,0.0525,0.01708,-0.023546,-1.28466,-0.06846,0.12348,0.46872
0.0257305,0,0,14.9743,14.9743,15.0257,15.0257,-0.0151356,3.98473,-0.942382,-0.0123485,-0.0359916,-0.276531,1,0,3.85,0.1575,0.3325,0.01708,-0.023546,-1.28466,-0.06846,0.12348,0.46872
-0.0234808,0,0,15.0235,15.0235,14.9765,14.9765,0.0138123,3.93675,-0.920164,-0.0426134,-0.0251068,0.0399966,0,0,4.3575,-0.315,0.5425,-0.014152,-0.013176,-0.970632,-0.06846,0.12348,0.46872
-0.0758265,0,0,15.0758,15.0758,14.9242,14.9242,0.0446038,3.88969,-0.905321,-0.041794,-0.0245706,0.0400524,0,0,5.67,-0.245,0.735,-0.014152,-0.013176,-0.970632,-0.06818,0.12824,0.4767
-0.240684,0,0,15.2407,15.2407,14.7593,14.7593,0.141579,3.85519,-0.897703,-0.0305025,-0.0852887,0.0620981,0,0,5.1275,0.035,0.35,-0.003416,-0.075518,-0.948794,-0.06818,0.12824,0.4767
-0.399403,0,0,15.3994,15.3994,14.6006,14.6006,0.234943,3.82108,-0.89084,-0.0299084,-0.0836627,0.0621326,0,0,4.095,-0.1575,0.0175,-0.003416,-0.075518,-0.948794,-0.06818,0.12824,0.4767
-0.398332,0,0,15.3983,15.3983,14.6017,14.6017,0.234313,3.8196,-0.889474,-0.0649921,-0.0366548,-0.130895,1,0,3.045,-0.7525,-0.2275,-0.038674,-0.028548,-1.14033,-0.06818,0.12824,0.4767
-0.392427,0,0,15.3924,15.3924,14.6076,14.6076,0.230839,3.81858,-0.888617,-0.0649743,-0.0367153,-0.130893,1,0,1.47,-0.49,-0.525,-0.038674,-0.028548,-1.14033,-0.06818,0.12824,0.4767
-0.119707,0,0,15.1197,15.1197,14.8803,14.8803,0.0704162,3.64784,-0.770329,-0.162591,0.161878,-0.0431527,0,0,1.8725,-0.49,-0.6125,-0.13969,0.17263,-1.05347,-0.06818,0.12824,0.4767
0.147667,0,0,14.8523,14.8523,15.1477,15.1477,-0.086863,3.48127,-0.652621,-0.159689,0.159138,-0.0429723,0,0,2.1,0.14,-1.4175,-0.13969,0.17263,-1.05347,-0.06818,0.12824,0.4767
0.0976689,0,0,14.9023,14.9023,15.0977,15.0977,-0.0574523,3.62625,-0.810794,0.150004,-0.0312331,-0.0791524,0,0,3.71,-0.6125,-1.61,0.17385,-0.018056,-1.08922,-0.06818,0.12824,0.4767
0.0471108,0,0,14.9529,14.9529,15.0471,15.0471,-0.0277123,3.7702,-0.957901,0.147496,-0.030715,-0.0793141,0,0,4.2,-0.2275,-1.645,0.17385,-0.018056,-1.08922,-0.0721,0.1218,0.47292
0.0442402,0,0,14.9558,14.9558,15.0442,15.0442,-0.0260237,3.7695,-0.958753,0.105231,-0.0138321,0.157363,1,0,4.4275,-0.2975,-1.5225,0.131394,-0.00122,-0.854366,-0.0721,0.1218,0.47292
0.041596,0,0,14.9584,14.9584,15.0416,15.0416,-0.0244682,3.76917,-0.960206,0.105237,-0.013805,0.157363,1,0,4.375,-0.0875,-1.8725,0.131394,-0.00122,-0.854366,-0.0721,0.1218,0.47292
0.0451066,0,0,14.9549,14.9549,15.0451,15.0451,-0.0265333,3.75963,-0.970234,-0.00587755,0.00166911,-0.0631957,0,0,3.22,0.6825,-1.6975,0.019642,0.014274,-1.07323,-0.0721,0.1218,0.47292
0.047075,0,0,14.9529,14.9529,15.0471,15.0471,-0.0276912,3.74945,-0.979822,-0.00570015,0.00164893,-0.0631841,0,0,3.6925,0.1925,-1.4525,0.019642,0.014274,-1.07323,-0.0721,0.1218,0.47292
0.0494573,0,0,14.9505,14.9505,15.0495,15.0495,-0.0290925,3.7507,-0.980675,-0.0629417,-0.166788,0.132794,1,0,2.695,0.84,-1.5225,-0.03782,-0.153964,-0.878766,-0.0721,0.1218,0.47292
0.051856,0,0,14.9481,14.9481,15.0519,15.0519,-0.0305035,3.75269,-0.981197,-0.0629764,-0.166813,0.132792,1,0,2.6775,1.2775,-1.33,-0.03782,-0.153964,-0.878766,-0.0721,0.1218,0.47292
0.0515751,0,0,14.9484,14.9484,15.0516,15.0516,-0.0303383,3.75358,-0.98196,0.458303,-0.24204,-0.0897457,1,0,3.57,0.63,-1.47,0.485682,-0.229116,-1.09959,-0.0721,0.1218,0.47292
0.0498846,0,0,14.9501,14.9501,15.0499,15.0499,-0.0293439,3.75456,-0.982452,0.458286,-0.242023,-0.0897468,1,0,4.025,0.6825,-1.3125,0.485682,-0.229116,-1.09959,-0.0721,0.1218,0.47292
-0.190743,0,0,15.1907,15.1907,14.8093,14.8093,0.112202,3.60931,-0.868663,-0.132763,-0.146619,-0.0620453,0,0,4.165,0.7525,-1.54,-0.11041,-0.136274,-1.07226,-0.07014,0.12754,0.46732
-0.428887,0,0,15.4289,15.4289,14.5711,14.5711,0.252287,3.46743,-0.756118,-0.130292,-0.144178,-0.0619003,0,0,4.7775,1.0675,-1.6975,-0.11041,-0.136274,-1.07226,-0.07014,0.12754,0.46732
-0.431504,0,0,15.4315,15.4315,14.5685,14.5685,0.253826,3.46895,-0.756934,0.0129135,-0.369109,-0.189031,1,0,4.34,0.9975,-1.505,0.033428,-0.360998,-1.19841,-0.07014,0.12754,0.46732
-0.434121,0,0,15.4341,15.4341,14.5659,14.5659,0.255365,3.47048,-0.757749,0.012887,-0.369082,-0.189032,1,0,4.34,0.9975,-1.505,0.033428,-0.360998,-1.19841,-0.07014,0.12754,0.46732
-0.431358,0,0,15.4314,15.4314,14.5686,14.5686,0.25374,3.47008,-0.758242,0.202776,-0.0857762,-0.110714,1,0,2.555,-0.1225,-1.3125,0.224114,-0.077958,-1.12069,-0.07014,0.12754,0.46732
-0.428595,0,0,15.4286,15.4286,14.5714,14.5714,0.252115,3.46969,-0.758735,0.202783,-0.0858045,-0.110713,1,0,2.555,-0.1225,-1.3125,0.224114,-0.077958,-1.12069,-0.07014,0.12754,0.46732
-0.425442,0,0,15.4254,15.4254,14.5746,14.5746,0.25026,3.46852,-0.758901,-0.00773153,-0.103057,0.109243,1,0,2.415,-0.5775,-1.12,0.012688,-0.09516,-0.902434,-0.07014,0.12754,0.46732
-0.422288,0,0,15.4223,15.4223,14.5777,14.5777,0.248405,3.46735,-0.759067,-0.00771115,-0.103089,0.109244,1,0,2.415,-0.5775,-1.12,0.012688,-0.09516,-0.902434,-0.07014,0.12754,0.46732
-0.00272606,0,0,15.0027,15.0027,14.9973,14.9973,0.00160357,3.63897,-0.949037,0.163753,0.259969,-0.0227326,0,0,3.78,-0.1925,-0.6125,0.18788,0.271816,-1.03322,-0.06636,0.12516,0.47488
-0.00659571,0,0,15.0066,15.0066,14.9934,14.9934,0.00387983,3.63768,-0.947545,-0.00496839,0.154613,-0.142237,1,0,4.6725,-0.6475,-0.1575,0.018422,0.16653,-1.1518,-0.06636,0.12516,0.47488
-0.0077992,0,0,15.0078,15.0078,14.9922,14.9922,0.00458776,3.63798,-0.946174,-0.0049735,0.154625,-0.142237,1,0,3.7975,0.28,-0.2275,0.018422,0.16653,-1.1518,-0.06636,0.12516,0.47488
-0.0115562,0,0,15.0116,15.0116,14.9884,14.9884,0.00679777,3.63755,-0.944742,0.154545,-0.267162,-0.166212,1,0,4.6375,-0.14,-0.1925,0.178608,-0.254858,-1.17559,-0.06636,0.12516,0.47488
-0.0107278,0,0,15.0107,15.0107,14.9893,14.9893,0.0063105,3.6368,-0.942529,0.154558,-0.26717,-0.166211,1,0,3.0975,-0.3325,0.2625,0.178608,-0.254858,-1.17559,-0.06636,0.12516,0.47488
-0.00645801,0,0,15.0065,15.0065,14.9935,14.9935,0.00379883,3.63653,-0.940737,0.141928,-0.28822,-0.0985891,1,0,1.9775,-0.0525,0.0175,0.16592,-0.275842,-1.10849,-0.06636,0.12516,0.47488
-0.0022444,0,0,15.0022,15.0022,14.9978,14.9978,0.00132024,3.63461,-0.938915,0.141961,-0.288263,-0.098587,1,0,1.995,-1.015,0.035,0.16592,-0.275842,-1.10849,-0.06636,0.12516,0.47488
-0.52865,0,0,15.5287,15.5287,14.4713,14.4713,0.310971,3.61119,-0.919182,-0.020543,-0.284457,0.115846,0,0,1.2775,0.035,-0.175,0.002318,-0.277428,-0.895724,-0.06636,0.12516,0.47488
-1.05261,0,0,16.0526,16.0526,13.9474,13.9474,0.619182,3.58551,-0.910026,-0.0200958,-0.279088,0.115831,0,0,3.43,0.21,-0.9275,0.002318,-0.277428,-0.895724,-0.07364,0.1323,0.46662
-1.05192,0,0,16.0519,16.0519,13.9481,13.9481,0.618775,3.58548,-0.910488,0.0472078,0.14212,0.204231,1,0,3.2375,0.0875,-1.295,0.069906,0.14335,-0.808006,-0.07364,0.1323,0.46662
-1.05256,0,0,16.0526,16.0526,13.9474,13.9474,0.619152,3.5854,-0.911401,0.0472093,0.142126,0.204231,1,0,3.6925,0.0525,-1.5575,0.069906,0.14335,-0.808006,-0.07364,0.1323,0.46662
-1.05747,0,0,16.0575,16.0575,13.9425,13.9425,0.62204,3.58457,-0.913074,-0.140593,0.0351935,0.104274,1,0,5.1275,-0.385,-1.995,-0.118706,0.036478,-0.907192,-0.07364,0.1323,0.46662
-1.06091,0,0,16.0609,16.0609,13.9391,13.9391,0.624064,3.58585,-0.915595,-0.140615,0.0352287,0.104272,1,0,4.6725,0.84,-2.5025,-0.118706,0.036478,-0.907192,-0.07364,0.1323,0.46662
-1.0644,0,0,16.0644,16.0644,13.9356,13.9356,0.626119,3.58692,-0.918629,-0.0848722,-0.0436294,0.133901,1,0,4.7075,0.7175,-2.8,-0.062708,-0.042334,-0.87779,-0.07364,0.1323,0.46662
-1.06425,0,0,16.0642,16.0642,13.9358,13.9358,0.626027,3.58878,-0.922526,-0.0849046,-0.043631,0.133899,1,0,3.535,1.1725,-3.3075,-0.062708,-0.042334,-0.87779,-0.07364,0.1323,0.46662
-0.617179,0,0,15.6172,15.6172,14.3828,14.3828,0.363047,3.63593,-1.01055,0.0327226,0.258937,0.02434,0,0,2.7125,0.315,-2.9925,0.056242,0.264496,-0.986492,-0.07364,0.1323,0.46662
-0.17617,0,0,15.1762,15.1762,14.8238,14.8238,0.10363,3.67821,-1.09129,0.0319863,0.254418,0.0243113,0,0,2.17,-0.5775,-2.73,0.056242,0.264496,-0.986492,-0.06594,0.12656,0.46158
-0.170884,0,0,15.1709,15.1709,14.8291,14.8291,0.10052,3.67782,-1.09398,0.197092,-0.237929,-0.0981448,1,0,1.8025,-0.1225,-2.59,0.22204,-0.227286,-1.108,-0.06594,0.12656,0.46158
-0.170636,0,0,15.1706,15.1706,14.8294,14.8294,0.100374,3.67803,-1.09522,0.197089,-0.237931,-0.0981451,1,0,3.4125,0.2275,-1.75,0.22204,-0.227286,-1.108,-0.06594,0.12656,0.46158
-0.170291,0,0,15.1703,15.1703,14.8297,14.8297,0.100171,3.6776,-1.09541,0.0752457,-0.188474,-0.251707,1,0,3.3425,-0.14,-1.1375,0.099674,-0.177876,-1.26038,-0.06594,0.12656,0.46158
-0.172077,0,0,15.1721,15.1721,14.8279,14.8279,0.101222,3.67813,-1.09407,0.0752365,-0.188455,-0.251708,1,0,3.99,0.42,-0.245,0.099674,-0.177876,-1.26038,-0.06594,0.12656,0.46158
-0.0618848,0,0,15.0619,15.0619,14.9381,14.9381,0.0364028,3.65266,-1.09696,-0.0222374,0.0687137,-0.0678701,0,0,3.78,0.245,0.1225,0.001342,0.080154,-1.07799,-0.06594,0.12656,0.46158
0.0451753,0,0,14.9548,14.9548,15.0452,15.0452,-0.0265737,3.62723,-1.09855,-0.0217944,0.0676168,-0.0678418,0,0,4.13,0,0.8225,0.001342,0.080154,-1.07799,-0.06594,0.12656,0.46158
0.043381,0,0,14.9566,14.9566,15.0434,15.0434,-0.0255182,3.62783,-1.09514,-0.0724642,-0.0202961,-0.196447,1,0,3.92,0.455,0.9625,-0.049532,-0.007686,-1.2056,-0.06594,0.12656,0.46158
0.044405,0,0,14.9556,14.9556,15.0444,15.0444,-0.0261206,3.62746,-1.09079,-0.0724579,-0.0203066,-0.196446,1,0,2.9575,-0.105,1.505,-0.049532,-0.007686,-1.2056,-0.06454,0.12684,0.47082
0.0464391,0,0,14.9536,14.9536,15.0464,15.0464,-0.0273171,3.6277,-1.08696,0.0861983,-0.353978,-0.108661,1,0,2.6425,0.245,1.2075,0.1098,-0.34099,-1.1185,-0.06454,0.12684,0.47082
0.0502041,0,0,14.9498,14.9498,15.0502,15.0502,-0.0295318,3.62868,-1.08441,0.0861812,-0.354016,-0.108662,1,0,2.1175,0.6825,0.455,0.1098,-0.34099,-1.1185,-0.06454,0.12684,0.47082
0.109157,0,0,14.8908,14.8908,15.1092,15.1092,-0.06421,3.82121,-1.2857,0.150374,0.0299571,0.118819,0,0,3.22,0.14,0.455,0.177632,0.043188,-0.892552,-0.06454,0.12684,0.47082
0.168841,0,0,14.8312,14.8312,15.1688,15.1688,-0.0993181,4.00904,-1.48804,0.147103,0.0293461,0.118595,0,0,2.7125,-0.49,-0.2275,0.177632,0.043188,-0.892552,-0.06454,0.12684,0.47082
0.170418,0,0,14.8296,14.8296,15.1704,15.1704,-0.100246,4.00772,-1.48787,-0.185501,0.194323,0.224455,1,0,2.9225,-0.665,-0.9275,-0.156404,0.20801,-0.78751,-0.06454,0.12684,0.47082
0.167841,0,0,14.8322,14.8322,15.1678,15.1678,-0.09873,4.00652,-1.4898,-0.185481,0.19435,0.224456,1,0,4.375,-0.595,-2.1525,-0.156404,0.20801,-0.78751,-0.06454,0.12684,0.47082
-0.0144699,0,0,15.0145,15.0145,14.9855,14.9855,0.00851169,3.85824,-1.37931,-0.126894,-0.0959105,0.0865643,0,0,3.9725,-0.105,-2.415,-0.100162,-0.083814,-0.924516,-0.06454,0.12684,0.47082
-0.197548,0,0,15.1975,15.1975,14.8025,14.8025,0.116205,3.71268,-1.27241,-0.124359,-0.0940348,0.08673,0,0,5.32,0.56,-2.9575,-0.100162,-0.083814,-0.924516,-0.06944,0.1288,0.46774
-0.19925,0,0,15.1993,15.1993,14.8007,14.8007,0.117206,3.7128,-1.27618,-0.155097,0.255754,-0.141831,1,0,4.1475,0.175,-3.22,-0.131028,0.265594,-1.15131,-0.06944,0.1288,0.46774
-0.198538,0,0,15.1985,15.1985,14.8015,14.8015,0.116787,3.71266,-1.28018,-0.155094,0.255746,-0.141831,1,0,3.36,0.0175,-3.36,-0.131028,0.265594,-1.15131,-0.06944,0.1288,0.46774
-0.487529,0,0,15.4875,15.4875,14.5125,14.5125,0.286782,3.73015,-1.31669,0.0196621,-0.168004,0.0118241,0,0,3.6225,0.175,-3.1675,0.044774,-0.160674,-0.998814,-0.06944,0.1288,0.46774
-0.770013,0,0,15.77,15.77,14.23,14.23,0.452949,3.74809,-1.35245,0.0193495,-0.16511,0.011785,0,0,3.0975,0.595,-2.7825,0.044774,-0.160674,-0.998814,-0.06944,0.1288,0.46774
-0.690586,0,0,15.6906,15.6906,14.3094,14.3094,0.406227,3.58447,-1.23734,-0.155656,0.050364,-0.086631,0,0,3.8675,-0.4025,-2.1875,-0.133834,0.055388,-1.09666,-0.06944,0.1288,0.46774
-0.610954,0,0,15.611,15.611,14.389,14.389,0.359385,3.42472,-1.12044,-0.152873,0.0495491,-0.0864551,0,0,3.29,0.07,-1.19,-0.133834,0.055388,-1.09666,-0.06944,0.1288,0.46774
-0.443985,0,0,15.444,15.444,14.556,14.556,0.261167,3.54857,-1.26034,0.0980245,0.0910703,0.0779278,0,0,3.57,0.0175,-0.42,0.120292,0.098576,-0.933422,-0.06944,0.1288,0.46774
-0.278657,0,0,15.2787,15.2787,14.7213,14.7213,0.163916,3.67123,-1.39941,0.0958879,0.0893758,0.0777993,0,0,3.15,0.7175,0.1225,0.120292,0.098576,-0.933422,-0.06944,0.1288,0.46774
-0.709809,0,0,15.7098,15.7098,14.2902,14.2902,0.417534,3.68825,-1.42614,0.0139529,-0.231675,0.107388,0,0,2.73,0.4725,0.4725,0.038308,-0.226554,-0.90402,-0.06706,0.1309,0.46326
-0.347696,0,0,15.3477,15.3477,14.6523,14.6523,0.204527,3.61206,-1.39624,-0.0770491,0.221125,-0.033037,0,0,3.22,-0.1225,0.7525,-0.054412,0.229482,-1.04347,-0.06706,0.1309,0.46326
0.0105375,0,0,14.9895,14.9895,15.0105,15.0105,-0.00619851,3.53684,-1.36497,-0.0757388,0.217455,-0.0329487,0,0,2.415,-0.2975,1.2075,-0.054412,0.229482,-1.04347,-0.06706,0.1309,0.46326
-0.408876,0,0,15.4089,15.4089,14.5911,14.5911,0.240515,3.54277,-1.37993,0.0128425,-0.250878,-0.00173501,0,0,3.8675,0.0875,1.05,0.034648,-0.242658,-1.01248,-0.06706,0.1309,0.46326
-0.820226,0,0,15.8202,15.8202,14.1798,14.1798,0.482486,3.54942,-1.39588,0.0127267,-0.246663,-0.00176878,0,0,3.5875,0.525,0.525,0.034648,-0.242658,-1.01248,-0.06706,0.1309,0.46326
-0.871299,0,0,15.8713,15.8713,14.1287,14.1287,0.512529,3.27201,-1.16709,-0.260399,-0.0294843,-0.0275504,0,0,4.3225,0.42,0.105,-0.244488,-0.02623,-1.03834,-0.06706,0.1309,0.46326
-0.9213,0,0,15.9213,15.9213,14.0787,14.0787,0.541941,2.99978,-0.940689,-0.255655,-0.0289693,-0.0272952,0,0,4.375,0.42,-0.8925,-0.244488,-0.02623,-1.03834,-0.06706,0.1309,0.46326
-0.616524,0,0,15.6165,15.6165,14.3835,14.3835,0.362661,3.10979,-1.06927,0.103726,0.1881,-0.0358563,0,0,3.6925,0.1925,-1.4525,0.11834,0.193736,-1.04676,-0.06706,0.1309,0.46326
-0.316963,0,0,15.317,15.317,14.683,14.683,0.186449,3.21623,-1.19323,0.101871,0.185029,-0.0359441,0,0,3.7625,-0.5775,-2.415,0.11834,0.193736,-1.04676,-0.07504,0.12754,0.46998
-0.313675,0,0,15.3137,15.3137,14.6863,14.6863,0.184515,3.2156,-1.19648,0.0168419,-0.139007,0.202085,1,0,2.4675,-0.2625,-2.9225,0.03294,-0.12993,-0.810568,-0.07504,0.12754,0.46998
-0.309536,0,0,15.3095,15.3095,14.6905,14.6905,0.18208,3.21573,-1.20088,0.0168396,-0.13905,0.202085,1,0,2.2225,0.175,-3.5875,0.03294,-0.12993,-0.810568,-0.07504,0.12754,0.46998
-0.307293,0,0,15.3073,15.3073,14.6927,14.6927,0.18076,3.21604,-1.20542,0.078063,-0.0250063,0.181552,1,0,2.8525,0.28,-3.675,0.094428,-0.015982,-0.830942,-0.07504,0.12754,0.46998
-0.305621,0,0,15.3056,15.3056,14.6944,14.6944,0.179777,3.21563,-1.21009,0.0780702,-0.0250235,0.181553,1,0,3.045,-0.14,-3.745,0.094428,-0.015982,-0.830942,-0.07504,0.12754,0.46998
-0.30635,0,0,15.3063,15.3063,14.6937,14.6937,0.180206,3.21603,-1.21464,-0.106959,-0.132121,0.168274,1,0,3.8325,0.3325,-3.675,-0.091378,-0.122976,-0.844118,-0.07504,0.12754,0.46998
-0.308889,0,0,15.3089,15.3089,14.6911,14.6911,0.181699,3.21714,-1.21744,-0.106979,-0.132095,0.168273,1,0,4.375,0.7525,-2.66,-0.091378,-0.122976,-0.844118,-0.07504,0.12754,0.46998
-0.478473,0,0,15.4785,15.4785,14.5215,14.5215,0.281455,3.17247,-1.18828,-0.0376824,-0.105931,-0.0753747,0,0,3.99,0.245,-1.89,-0.02257,-0.098576,-1.08592,-0.07504,0.12754,0.46998
-0.6449,0,0,15.6449,15.6449,14.3551,14.3551,0.379353,3.12844,-1.16048,-0.0369151,-0.104225,-0.0753423,0,0,3.8675,0.1225,-0.735,-0.02257,-0.098576,-1.08592,-0.0707,0.12894,0.4732
-0.676203,0,0,15.6762,15.6762,14.3238,14.3238,0.397766,3.25453,-1.28938,0.121006,-0.019149,-0.0312056,0,0,3.675,0.28,-0.105,0.138226,-0.013908,-1.042,-0.0707,0.12894,0.4732
-0.704097,0,0,15.7041,15.7041,14.2959,14.2959,0.414175,3.37856,-1.4162,0.118845,-0.018864,-0.0313328,0,0,2.6775,0.49,0.9275,0.138226,-0.013908,-1.042,-0.0707,0.12894,0.4732
-0.595915,0,0,15.5959,15.5959,14.4041,14.4041,0.350538,3.0492,-1.13732,-0.300251,0.0609993,0.0367415,0,0,2.275,0.3675,1.2425,-0.288408,0.066978,-0.97478,-0.0707,0.12894,0.4732
-0.487087,0,0,15.4871,15.4871,14.5129,14.5129,0.286522,2.72399,-0.85761,-0.294583,0.059885,0.0370335,0,0,1.5225,-0.6825,1.575,-0.288408,0.066978,-0.97478,-0.0707,0.12894,0.4732
-0.289725,0,0,15.2897,15.2897,14.7103,14.7103,0.170427,2.43145,-0.603755,-0.252672,0.106102,0.0956717,0,0,2.4675,-0.14,1.5575,-0.251442,0.115168,-0.91683,-0.0707,0.12894,0.4732
-0.0999064,0,0,15.0999,15.0999,14.9001,14.9001,0.0587685,2.14445,-0.349515,-0.247667,0.104155,0.0958756,0,0,3.92,0.0175,1.33,-0.251442,0.115168,-0.91683,-0.0707,0.12894,0.4732
0.0565255,0,0,14.9435,14.9435,15.0565,15.0565,-0.0332503,2.1859,-0.388802,0.0355222,0.0925357,0.0272434,0,0,5.1275,0.21,1.54,0.033672,0.105164,-0.984906,-0.0707,0.12894,0.4732
0.211124,0,0,14.7889,14.7889,15.2111,15.2111,-0.124191,2.22721,-0.429756,0.0348018,0.0909497,0.0272134,0,0,4.8825,0.63,0.28,0.033672,0.105164,-0.984906,-0.06916,0.12852,0.46452
0.406879,0,0,14.5931,14.5931,15.4069,15.4069,-0.23934,2.16166,-0.376186,-0.0600286,0.113122,0.0321688,0,0,4.445,0.14,-0.2975,-0.062708,0.12932,-0.980026,-0.06916,0.12852,0.46452
0.601823,0,0,14.3982,14.3982,15.6018,15.6018,-0.354013,2.09655,-0.324504,-0.0588931,0.111122,0.0322007,0,0,3.64,-0.2975,-1.54,-0.062708,0.12932,-0.980026,-0.06916,0.12852,0.46452
0.145235,0,0,14.8548,14.8548,15.1452,15.1452,-0.0854323,1.96834,-0.199448,-0.121409,-0.279884,-0.000160412,0,0,2.59,-0.21,-2.24,-0.127734,-0.26596,-1.01223,-0.06916,0.12852,0.46452
-0.300678,0,0,15.3007,15.3007,14.6993,14.6993,0.17687,1.8424,-0.0780086,-0.119212,-0.275309,-9.09853e-05,0,0,1.645,-0.245,-3.465,-0.127734,-0.26596,-1.01223,-0.06916,0.12852,0.46452
-0.430138,0,0,15.4301,15.4301,14.5699,14.5699,0.253022,1.75038,0.00659417,-0.0840765,-0.0802869,-0.00729958,0,0,1.575,-0.245,-3.7625,-0.094062,-0.072468,-1.01943,-0.06916,0.12852,0.46452
-0.56227,0,0,15.5623,15.5623,14.4377,14.4377,0.330747,1.65892,0.0906332,-0.0824809,-0.0789307,-0.00725901,0,0,3.2025,-0.945,-3.8325,-0.094062,-0.072468,-1.01943,-0.06916,0.12852,0.46452
-1.19209,0,0,16.1921,16.1921,13.8079,13.8079,0.701227,1.65321,0.107833,-0.00936836,-0.354947,0.105306,0,0,3.8675,-0.35,-4.025,-0.02074,-0.354654,-0.90768,-0.06916,0.12852,0.46452
-1.81502,0,0,16.815,16.815,13.185,13.185,1.06766,1.65118,0.128616,-0.009333,-0.348555,0.105209,0,0,4.97,0.875,-4.165,-0.02074,-0.354654,-0.90768,-0.07308,0.126,0.47208
-1.82047,0,0,16.8205,16.8205,13.1795,13.1795,1.07086,1.6515,0.12405,0.0341533,-0.0115511,0.140863,1,0,5.32,0.245,-3.6925,0.022936,-0.018056,-0.8723,-0.07308,0.126,0.47208
-1.82241,0,0,16.8224,16.8224,13.1776,13.1776,1.072,1.6519,0.121496,0.0341463,-0.0115312,0.140862,1,0,4.13,0.315,-2.52,0.022936,-0.018056,-0.8723,-0.07308,0.126,0.47208
-1.85735,0,0,16.8574,16.8574,13.1426,13.1426,1.09256,1.84636,-0.0424953,0.161473,-0.0181359,0.0778021,0,0,3.4125,-0.105,-1.715,0.154208,-0.02501,-0.934764,-0.07308,0.126,0.47208
-1.8885,0,0,16.8885,16.8885,13.1115,13.1115,1.11088,2.03808,-0.203907,0.158128,-0.0178186,0.0776826,0,0,2.345,0.49,-0.49,0.154208,-0.02501,-0.934764,-0.07308,0.126,0.47208
-1.88365,0,0,16.8836,16.8836,13.1164,13.1164,1.10803,2.03972,-0.202416,0.0282315,-0.147567,0.295424,1,0,1.82,1.085,-0.175,0.02379,-0.154574,-0.718702,-0.07308,0.126,0.47208
-1.87913,0,0,16.8791,16.8791,13.1209,13.1209,1.10537,2.03986,-0.198942,0.0282291,-0.147613,0.295425,1,0,1.89,0.2275,0.9975,0.02379,-0.154574,-0.718702,-0.07308,0.126,0.47208
-1.59492,0,0,16.5949,16.5949,13.4051,13.4051,0.938189,1.93521,-0.103748,-0.0994492,0.177138,-0.0824032,0,0,1.33,0.1925,1.3125,-0.106262,0.172752,-1.09373,-0.07308,0.126,0.47208
-1.32295,0,0,16.3229,16.3229,13.6771,13.6771,0.778206,1.83119,-0.00759818,-0.0976348,0.174349,-0.0823017,0,0,3.7625,-0.5775,1.5925,-0.106262,0.172752,-1.09373,-0.07308,0.126,0.47208
-1.14397,0,0,16.144,16.144,13.856,13.856,0.672921,1.8524,-0.0231926,0.023238,0.113159,-0.0492172,0,0,4.9175,-0.4725,1.82,0.015494,0.11346,-1.06091,-0.06748,0.1281,0.46956
-1.4497,0,0,16.4497,16.4497,13.5503,13.5503,0.852768,2.08035,-0.215952,0.210845,-0.180352,0.0227753,0,0,5.4775,0.175,1.19,0.207888,-0.182878,-0.989298,-0.06748,0.1281,0.46956
-1.74675,0,0,16.7468,16.7468,13.2532,13.2532,1.0275,2.30389,-0.40852,0.206946,-0.177308,0.0225761,0,0,4.3225,0.0875,0.3675,0.207888,-0.182878,-0.989298,-0.06748,0.1281,0.46956
-1.69014,0,0,16.6901,16.6901,13.3099,13.3099,0.994202,2.29047,-0.400546,-0.011251,0.0354672,-0.0315016,0,0,4.3575,0.0175,-0.245,-0.011468,0.030256,-1.04298,-0.06748,0.1281,0.46956
-1.6312,0,0,16.6312,16.6312,13.3688,13.3688,0.959529,2.277,-0.394478,-0.0110162,0.0348627,-0.031482,0,0,3.3075,-0.175,-1.365,-0.011468,0.030256,-1.04298,-0.06748,0.1281,0.46956
-1.62984,0,0,16.6298,16.6298,13.3702,13.3702,0.95873,2.27708,-0.395658,-0.199806,-0.00704067,-0.0966445,1,0,3.0275,0.14,-1.715,-0.201056,-0.01159,-1.10764,-0.06748,0.1281,0.46956
-1.62743,0,0,16.6274,16.6274,13.3726,13.3726,0.957311,2.27649,-0.398291,-0.199796,-0.00706541,-0.0966437,1,0,2.7125,-0.2625,-2.555,-0.201056,-0.01159,-1.10764,-0.06748,0.1281,0.46956
-1.62637,0,0,16.6264,16.6264,13.3736,13.3736,0.956687,2.27504,-0.401327,0.172826,0.216904,-0.209878,1,0,3.1675,-0.77,-2.7825,0.173118,0.212158,-1.22,-0.06874,0.12334,0.47054
-1.76279,0,0,16.7628,16.7628,13.2372,13.2372,1.03693,2.2264,-0.353892,-0.0435422,-0.0873792,-0.06688,0,0,3.36,-0.6125,-2.94,-0.045018,-0.093208,-1.07811,-0.06874,0.12334,0.47054
-1.89797,0,0,16.898,16.898,13.102,13.102,1.11645,2.17953,-0.307408,-0.0427249,-0.085992,-0.0668746,0,0,3.745,-0.1225,-3.3425,-0.045018,-0.093208,-1.07811,-0.06874,0.12334,0.47054
-2.20488,0,0,17.2049,17.2049,12.7951,12.7951,1.29699,2.09379,-0.220601,-0.0773107,-0.173461,0.0500389,0,0,3.815,-0.035,-3.2725,-0.081252,-0.183732,-0.962092,-0.06874,0.12334,0.47054
-2.50652,0,0,17.5065,17.5065,12.4935,12.4935,1.47443,2.00981,-0.133307,-0.075846,-0.170366,0.0500165,0,0,3.78,0.07,-2.52,-0.081252,-0.183732,-0.962092,-0.06874,0.12334,0.47054
-2.60768,0,0,17.6077,17.6077,12.3923,12.3923,1.53393,1.77668,0.0843916,-0.197395,-0.0526934,0.0932786,0,0,3.605,0.595,-1.9425,-0.2074,-0.067222,-0.91927,-0.06874,0.12334,0.47054
-2.70614,0,0,17.7061,17.7061,12.2939,12.2939,1.59185,1.54854,0.30226,-0.193415,-0.0516802,0.0933665,0,0,3.3075,0.9625,-1.295,-0.2074,-0.067222,-0.91927,-0.06874,0.12334,0.47054
-2.85463,0,0,17.8546,17.8546,12.1454,12.1454,1.67919,1.92342,-0.0125017,0.304818,-0.0795952,0.142673,0,0,2.345,0.7525,-0.8925,0.29951,-0.096624,-0.870104,-0.06874,0.12334,0.47054
-2.9995,0,0,17.9995,17.9995,12.0005,12.0005,1.76441,2.29179,-0.331572,0.298393,-0.0781167,0.142392,0,0,2.03,0.7175,-0.315,0.29951,-0.096624,-0.870104,-0.0707,0.12866,0.46984
-2.96379,0,0,17.9638,17.9638,12.0362,12.0362,1.74341,2.10435,-0.167893,-0.178935,0.0177568,-0.0748442,0,0,2.1,0.455,0.0175,-0.183122,-0.000488,-1.0858,-0.0707,0.12866,0.46984
-2.93316,0,0,17.9332,17.9332,12.0668,12.0668,1.72539,1.92013,-0.00355831,-0.175722,0.0174461,-0.0747218,0,0,3.5875,0.2625,0.5425,-0.183122,-0.000488,-1.0858,-0.0707,0.12866,0.46984
-2.55553,0,0,17.5555,17.5555,12.4445,12.4445,1.50325,2.11766,-0.183591,0.163787,0.213491,0.0953037,0,0,4.0075,-0.0525,0.14,0.161284,0.199226,-0.917074,-0.0707,0.12866,0.46984
-2.18451,0,0,17.1845,17.1845,12.8155,12.8155,1.28501,2.31229,-0.365116,0.160392,0.209683,0.095265,0,0,4.2,0.35,-0.1575,0.161284,0.199226,-0.917074,-0.0707,0.12866,0.46984
-2.18604,0,0,17.186,17.186,12.814,12.814,1.28591,2.31255,-0.36368,-0.0122436,-0.21286,-0.149649,1,0,3.92,0.28,-0.1925,-0.012078,-0.222894,-1.1601,-0.0707,0.12866,0.46984
-2.18922,0,0,17.1892,17.1892,12.8108,12.8108,1.28777,2.31247,-0.362912,-0.0122422,-0.212827,-0.14965,1,0,4.48,0.07,-0.5775,-0.012078,-0.222894,-1.1601,-0.0707,0.12866,0.46984
-2.18919,0,0,17.1892,17.1892,12.8108,12.8108,1.28776,2.31201,-0.363954,-0.366608,0.23037,-0.318089,1,0,3.465,-0.175,-1.6275,-0.367952,0.219844,-1.32724,-0.0707,0.12866,0.46984
-2.18917,0,0,17.1892,17.1892,12.8108,12.8108,1.28775,2.31155,-0.364996,-0.3666,0.23037,-0.318088,1,0,3.465,-0.175,-1.6275,-0.367952,0.219844,-1.32724,-0.0707,0.12866,0.46984
-2.18857,0,0,17.1886,17.1886,12.8114,12.8114,1.28739,2.31172,-0.365933,0.241798,0.039724,-0.13428,1,0,3.2725,0.1925,-1.575,0.243024,0.029402,-1.14485,-0.07,0.12642,0.46956
-2.33061,0,0,17.3306,17.3306,12.6694,12.6694,1.37095,2.23252,-0.294942,-0.0704973,-0.0824102,0.000738108,0,0,4.4275,-0.525,-1.89,-0.07198,-0.094062,-1.01089,-0.07,0.12642,0.46956
-2.4702,0,0,17.4702,17.4702,12.5298,12.5298,1.45306,2.15483,-0.224362,-0.0691424,-0.0809773,0.000754703,0,0,4.4275,-0.525,-1.89,-0.07198,-0.094062,-1.01089,-0.07,0.12642,0.46956
-2.89289,0,0,17.8929,17.8929,12.1071,12.1071,1.7017,2.02545,-0.0996924,-0.12119,-0.263128,-0.00518387,0,0,3.0275,-0.245,-1.9425,-0.126514,-0.280356,-1.01675,-0.07,0.12642,0.46956
-3.30851,0,0,18.3085,18.3085,11.6915,11.6915,1.94618,1.89847,0.0234902,-0.118975,-0.258863,-0.00524377,0,0,3.0275,-0.245,-1.9425,-0.126514,-0.280356,-1.01675,-0.07,0.12642,0.46956
-3.3793,0,0,18.3793,18.3793,11.6207,11.6207,1.98782,1.74022,0.169037,-0.131157,-0.0354968,0.0969891,0,0,3.0975,-0.2275,-1.33,-0.14152,-0.05795,-0.915366,-0.07,0.12642,0.46956
-3.44881,0,0,18.4488,18.4488,11.5512,11.5512,2.02871,1.58499,0.314013,-0.128449,-0.0347811,0.0970427,0,0,3.0975,-0.2275,-1.33,-0.14152,-0.05795,-0.915366,-0.07,0.12642,0.46956
-3.26228,0,0,18.2623,18.2623,11.7377,11.7377,1.91899,1.78543,0.143267,0.175899,0.109854,0.0370069,0,0,3.4125,0.595,-0.91,0.167628,0.08845,-0.974902,-0.07,0.1267,0.48132
-3.26507,0,0,18.2651,18.2651,11.7349,11.7349,1.92063,1.78564,0.144044,-0.102793,-0.0807568,0.116185,1,0,4.3575,0.245,-0.5775,-0.11224,-0.101992,-0.896334,-0.07,0.1267,0.48132
-3.26787,0,0,18.2679,18.2679,11.7321,11.7321,1.92227,1.78585,0.14482,-0.102797,-0.0807282,0.116184,1,0,4.3575,0.245,-0.5775,-0.11224,-0.101992,-0.896334,-0.07,0.1267,0.48132
-3.26872,0,0,18.2687,18.2687,11.7313,11.7313,1.92278,1.78676,0.146011,0.176969,-0.0236862,-0.117542,1,0,3.71,0.665,-0.35,0.168726,-0.045018,-1.12826,-0.07,0.1267,0.48132
-3.26957,0,0,18.2696,18.2696,11.7304,11.7304,1.92328,1.78767,0.147202,0.176953,-0.0236775,-0.117543,1,0,3.71,0.665,-0.35,0.168726,-0.045018,-1.12826,-0.07,0.1267,0.48132
-3.03292,0,0,18.0329,18.0329,11.9671,11.9671,1.78407,1.75515,0.178378,-0.0290051,0.150003,-0.0788411,0,0,3.7625,0.455,-0.805,-0.038674,0.130906,-1.08995,-0.07,0.1267,0.48132
-2.80029,0,0,17.8003,17.8003,12.1997,12.1997,1.64723,1.72324,0.209723,-0.0284485,0.147617,-0.0787528,0,0,3.7625,0.455,-0.805,-0.038674,0.130906,-1.08995,-0.07,0.1267,0.48132
-2.94317,0,0,17.9432,17.9432,12.0568,12.0568,1.73128,1.41092,0.496659,-0.294399,-0.0888158,-0.0036484,0,0,3.8325,0.1925,-1.225,-0.311222,-0.10675,-1.01553,-0.07,0.1267,0.48132
-3.08347,0,0,18.0835,18.0835,11.9165,11.9165,1.81381,1.10631,0.782951,-0.289083,-0.0873728,-0.00357623,0,0,3.8325,0.1925,-1.225,-0.311222,-0.10675,-1.01553,-0.06482,0.12572,0.476
-3.08607,0,0,18.0861,18.0861,11.9139,11.9139,1.81534,1.09856,0.781404,-0.103196,0.299674,-0.13058,1,0,4.3225,-4.4625,-1.785,-0.124684,0.279868,-1.14155,-0.06482,0.12572,0.476
-3.08867,0,0,18.0887,18.0887,11.9113,11.9113,1.81686,1.0908,0.779856,-0.103061,0.2997,-0.130579,1,0,4.3225,-4.4625,-1.785,-0.124684,0.279868,-1.14155,-0.06482,0.12572,0.476
-3.36786,0,0,18.3679,18.3679,11.6321,11.6321,1.98109,1.36839,0.55173,0.260197,-0.173855,0.0117199,0,0,3.185,-0.245,-1.5575,0.244976,-0.196054,-1.00016,-0.06482,0.12572,0.476
-3.64234,0,0,18.6423,18.6423,11.3577,11.3577,2.14255,1.64077,0.325502,0.255444,-0.171045,0.0114938,0,0,3.185,-0.245,-1.5575,0.244976,-0.196054,-1.00016,-0.06482,0.12572,0.476
-3.64241,0,0,18.6424,18.6424,11.3576,11.3576,2.1426,1.64007,0.325044,-0.00233591,-0.128788,-0.280386,1,0,3.4825,-0.315,-1.2775,-0.013908,-0.153842,-1.28978,-0.06482,0.12572,0.476
-3.64249,0,0,18.6425,18.6425,11.3575,11.3575,2.14264,1.63936,0.324587,-0.0023236,-0.128787,-0.280385,1,0,3.4825,-0.315,-1.2775,-0.013908,-0.153842,-1.28978,-0.06482,0.12572,0.476
-3.64039,0,0,18.6404,18.6404,11.3596,11.3596,2.14141,1.63967,0.325188,0.38521,0.104209,-0.0231764,1,0,2.7475,0.2975,-0.6825,0.375272,0.078934,-1.03456,-0.06482,0.12572,0.476
-3.63829,0,0,18.6383,18.6383,11.3617,11.3617,2.14017,1.63997,0.325789,0.385205,0.104187,-0.0231757,1,0,2.7475,0.2975,-0.6825,0.375272,0.078934,-1.03456,-0.06482,0.12572,0.476
-3.63385,0,0,18.6338,18.6338,11.3662,11.3662,2.13756,1.4311,0.521503,-0.176424,0.00387946,0.0756513,0,0,2.8875,0.385,-0.5425,-0.192394,-0.021228,-0.936594,-0.07294,0.12502,0.47418
-3.8496,0,0,18.8496,18.8496,11.1504,11.1504,2.26447,1.75008,0.261241,0.293992,-0.134115,0.0226669,0,0,2.9575,0.07,-0.2975,0.285602,-0.161284,-0.988932,-0.07294,0.12502,0.47418
-4.06165,0,0,19.0616,19.0616,10.9384,10.9384,2.3892,2.06307,0.00284904,0.288533,-0.131949,0.022397,0,0,2.9575,0.07,-0.2975,0.285602,-0.161284,-0.988932,-0.07294,0.12502,0.47418
-4.06067,0,0,19.0607,19.0607,10.9393,10.9393,2.38863,2.06241,0.00347156,0.0577213,-0.0402416,-0.187229,1,0,3.115,-0.2625,-0.6475,0.053802,-0.069662,-1.19694,-0.07294,0.12502,0.47418
-4.05969,0,0,19.0597,19.0597,10.9403,10.9403,2.38806,2.06175,0.00409407,0.0577328,-0.0402516,-0.187229,1,0,3.115,-0.2625,-0.6475,0.053802,-0.069662,-1.19694,-0.07294,0.12502,0.47418
-3.78433,0,0,18.7843,18.7843,11.2157,11.2157,2.22608,2.083,-0.0159458,0.0172719,0.162464,0.0388511,0,0,4.83,0.21,-1.0325,0.013542,0.135664,-0.972706,-0.07294,0.12502,0.47418
-4.56999,0,0,19.57,19.57,10.43,10.43,2.68823,1.95296,0.119438,-0.116767,-0.429854,0.190919,0,0,4.41,0.1575,-1.4175,-0.123342,-0.464088,-0.821548,-0.07294,0.12502,0.47418
-5.3412,0,0,20.3412,20.3412,9.6588,9.6588,3.14188,1.8284,0.255265,-0.114594,-0.421947,0.190588,0,0,3.605,0.1925,-1.6275,-0.123342,-0.464088,-0.821548,-0.06398,0.12152,0.47432
-5.34065,0,0,20.3406,20.3406,9.65935,9.65935,3.14156,1.82837,0.254021,-0.0114522,-0.0310249,0.116942,1,0,3.29,0.0525,-1.75,-0.019764,-0.073566,-0.894626,-0.06398,0.12152,0.47432
-5.33872,0,0,20.3387,20.3387,9.66128,9.66128,3.14043,1.82863,0.251981,-0.0114567,-0.0310446,0.116943,1,0,2.8525,0.1925,-2.2225,-0.019764,-0.073566,-0.894626,-0.06398,0.12152,0.47432
-5.33739,0,0,20.3374,20.3374,9.66261,9.66261,3.13964,1.82877,0.249904,-0.332546,0.161413,-0.0769462,1,0,3.045,0.1225,-2.24,-0.34221,0.118706,-1.08702,-0.06398,0.12152,0.47432
-5.33634,0,0,20.3363,20.3363,9.66366,9.66366,3.13902,1.82858,0.248351,-0.332542,0.161403,-0.0769456,1,0,3.1325,-0.0525,-1.925,-0.34221,0.118706,-1.08702,-0.06398,0.12152,0.47432
-5.33685,0,0,20.3368,20.3368,9.66315,9.66315,3.13932,1.82742,0.247014,-0.0352468,0.0566232,0.165755,1,0,3.64,-0.6125,-1.7675,-0.043676,0.01403,-0.846192,-0.06398,0.12152,0.47432
-5.33761,0,0,20.3376,20.3376,9.66239,9.66239,3.13977,1.82675,0.246486,-0.0352352,0.056631,0.165755,1,0,3.71,-0.2975,-1.3125,-0.043676,0.01403,-0.846192,-0.06398,0.12152,0.47432
-5.12689,0,0,20.1269,20.1269,9.87311,9.87311,3.01582,1.97376,0.124085,0.126935,0.12408,0.047018,0,0,3.6225,-0.315,-1.1025,0.121756,0.08357,-0.964044,-0.06398,0.12152,0.47432
-4.92229,0,0,19.9223,19.9223,10.0777,10.0777,2.89546,2.11807,0.0026108,0.124418,0.121979,0.0470364,0,0,4.48,-0.245,-0.42,0.121756,0.08357,-0.964044,-0.06398,0.12152,0.47432
-4.92312,0,0,19.9231,19.9231,10.0769,10.0769,2.89595,2.11817,0.00404751,0.34795,0.224818,-0.104805,1,0,3.6925,0.21,-0.1925,0.346236,0.186294,-1.11471,-0.06874,0.12558,0.46662
-4.92451,0,0,19.9245,19.9245,10.0755,10.0755,2.89677,2.11948,0.00599573,-0.221233,0.0230786,-0.0867336,1,0,3.8675,0.9275,0.07,-0.225334,-0.01525,-1.09678,-0.06874,0.12558,0.46662
-4.92181,0,0,19.9218,19.9218,10.0782,10.0782,2.89518,2.1203,0.00791977,-0.221248,0.0230509,-0.0867327,1,0,2.52,0.6475,0.07,-0.225334,-0.01525,-1.09678,-0.06874,0.12558,0.46662
-4.87648,0,0,19.8765,19.8765,10.1235,10.1235,2.86852,2.35104,-0.189646,0.194583,0.0278301,0.0657128,0,0,2.8175,0.07,-0.07,0.196298,-0.010004,-0.945378,-0.06874,0.12558,0.46662
-4.83224,0,0,19.8322,19.8322,10.1678,10.1678,2.84249,2.57792,-0.387009,0.190627,0.0273683,0.0655654,0,0,2.975,0.3675,-0.14,0.196298,-0.010004,-0.945378,-0.06874,0.12558,0.46662
-4.44018,0,0,19.4402,19.4402,10.5598,10.5598,2.61187,2.45613,-0.293595,-0.112422,0.2372,-5.04511e-05,0,0,2.9575,0.35,-0.245,-0.110166,0.203618,-1.01077,-0.06874,0.12558,0.46662
-4.05806,0,0,19.0581,19.0581,10.9419,10.9419,2.3871,2.33545,-0.200931,-0.110317,0.233288,0.000208449,0,0,4.13,-0.315,-1.155,-0.110166,0.203618,-1.01077,-0.06874,0.12558,0.46662
-3.67399,0,0,18.674,18.674,11.326,11.326,2.16117,2.32122,-0.200343,-0.0121518,0.236801,-0.014379,0,0,3.9375,-0.5425,-1.435,-0.011834,0.21106,-1.02541,-0.06874,0.12558,0.46662
-3.29736,0,0,18.2974,18.2974,11.7026,11.7026,1.93962,2.30802,-0.201752,-0.0119216,0.232941,-0.0142314,0,0,4.305,-0.1925,-2.17,-0.011834,0.21106,-1.02541,-0.0728,0.1267,0.47068
-3.3008,0,0,18.3008,18.3008,11.6992,11.6992,1.94165,2.30851,-0.204089,0.146244,-0.0361915,-0.106813,1,0,4.6375,0.35,-2.3975,0.14701,-0.057828,-1.11728,-0.0728,0.1267,0.47068
-3.30367,0,0,18.3037,18.3037,11.6963,11.6963,1.94333,2.30876,-0.207094,0.14624,-0.0361622,-0.106814,1,0,4.4625,0.1925,-2.7825,0.14701,-0.057828,-1.11728,-0.0728,0.1267,0.47068
-3.30691,0,0,18.3069,18.3069,11.6931,11.6931,1.94524,2.38593,-0.279081,0.0677507,0.00111788,0.0159549,0,0,4.935,0.14,-2.905,0.06954,-0.020618,-0.995398,-0.0728,0.1267,0.47068
-3.30781,0,0,18.3078,18.3078,11.6922,11.6922,1.94577,2.46085,-0.349942,0.0664443,0.00112524,0.0158994,0,0,4.165,-0.2975,-2.3275,0.06954,-0.020618,-0.995398,-0.0728,0.1267,0.47068
-3.30946,0,0,18.3095,18.3095,11.6905,11.6905,1.94674,2.46085,-0.351995,-0.296676,-0.259354,-0.258399,1,0,4.0425,0.07,-2.2225,-0.295118,-0.280844,-1.26758,-0.0728,0.1267,0.47068
-3.30983,0,0,18.3098,18.3098,11.6902,11.6902,1.94696,2.46143,-0.353398,-0.296687,-0.25935,-0.2584,1,0,3.605,0.42,-1.855,-0.295118,-0.280844,-1.26758,-0.0728,0.1267,0.47068
-3.30864,0,0,18.3086,18.3086,11.6914,11.6914,1.94626,2.4614,-0.354341,0.19035,-0.443652,-0.106927,1,0,3.08,0.07,-1.575,0.19398,-0.464942,-1.11728,-0.0728,0.1267,0.47068
-3.30357,0,0,18.3036,18.3036,11.6964,11.6964,1.94328,2.46031,-0.353157,0.190369,-0.443704,-0.106924,1,0,1.75,-0.5075,-0.315,0.19398,-0.464942,-1.11728,-0.06664,0.12208,0.46886
-3.29921,0,0,18.2992,18.2992,11.7008,11.7008,1.94071,2.45928,-0.351131,-0.000345435,-0.182642,-0.114422,1,0,1.96,-0.455,0.175,0.00244,-0.204106,-1.12472,-0.06664,0.12208,0.46886
-3.29879,0,0,18.2988,18.2988,11.7012,11.7012,1.94046,2.45881,-0.348034,-0.000337262,-0.182646,-0.114421,1,0,3.2375,-0.105,0.7875,0.00244,-0.204106,-1.12472,-0.06664,0.12208,0.46886
-3.29977,0,0,18.2998,18.2998,11.7002,11.7002,1.94104,2.45905,-0.344733,0.130742,-0.264583,-0.160282,1,0,3.6925,0.315,0.8925,0.134078,-0.285968,-1.17022,-0.06664,0.12208,0.46886
-3.30536,0,0,18.3054,18.3054,11.6946,11.6946,1.94433,2.45873,-0.341511,0.130747,-0.264526,-0.160283,1,0,5.215,-0.0175,0.8575,0.134078,-0.285968,-1.17022,-0.06664,0.12208,0.46886
-3.30877,0,0,18.3088,18.3088,11.6912,11.6912,1.94634,2.45792,-0.338215,-0.0466079,-0.116106,-0.202701,1,0,4.4975,-0.2975,0.91,-0.044042,-0.137738,-1.21231,-0.06664,0.12208,0.46886
-3.31322,0,0,18.3132,18.3132,11.6868,11.6868,1.94895,2.45782,-0.335346,-0.0466061,-0.116061,-0.202703,1,0,4.8475,0.105,0.6475,-0.044042,-0.137738,-1.21231,-0.06664,0.12208,0.46886
-3.31735,0,0,18.3173,18.3173,11.6827,11.6827,1.95138,2.45816,-0.341262,-0.127157,-0.391537,-0.022216,1,0,4.9525,0.1925,-4.48,-0.124928,-0.41297,-1.03322,-0.06664,0.12208,0.46886
-3.31678,0,0,18.3168,18.3168,11.6832,11.6832,1.95105,2.45829,-0.341688,-0.127159,-0.391542,-0.0222159,1,0,3.2725,0.175,-1.2775,-0.124928,-0.41297,-1.03322,-0.0707,0.12586,0.47054
-3.31419,0,0,18.3142,18.3142,11.6858,11.6858,1.94952,2.45839,-0.343678,-0.18353,-0.04766,-0.147131,1,0,2.6425,0.1225,-2.1875,-0.181536,-0.069418,-1.15717,-0.0707,0.12586,0.47054
-3.3116,0,0,18.3116,18.3116,11.6884,11.6884,1.948,2.45848,-0.345668,-0.183532,-0.0476866,-0.14713,1,0,2.6425,0.1225,-2.1875,-0.181536,-0.069418,-1.15717,-0.0707,0.12586,0.47054
-3.09768,0,0,18.0977,18.0977,11.9023,11.9023,1.82216,2.34452,-0.25722,-0.107317,0.132947,-0.0542712,0,0,3.0625,-0.14,-3.3425,-0.106994,0.113216,-1.06518,-0.0707,0.12586,0.47054
-2.88735,0,0,17.8873,17.8873,12.1127,12.1127,1.69844,2.23265,-0.168414,-0.105366,0.130793,-0.054127,0,0,3.0625,-0.14,-3.3425,-0.106994,0.113216,-1.06518,-0.0707,0.12586,0.47054
-2.89095,0,0,17.891,17.891,12.109,12.109,1.70056,2.23174,-0.172355,0.146125,0.301196,-0.131093,1,0,4.725,-0.49,-3.3075,0.145546,0.283406,-1.14155,-0.0707,0.12586,0.47054
-2.89456,0,0,17.8946,17.8946,12.1054,12.1054,1.70268,2.23084,-0.176296,0.146141,0.301233,-0.131094,1,0,4.725,-0.49,-3.3075,0.145546,0.283406,-1.14155,-0.0707,0.12586,0.47054
-2.61273,0,0,17.6127,17.6127,12.3873,12.3873,1.5369,2.50044,-0.424349,0.265355,0.186348,-0.0244869,0,0,6.16,0.455,-2.6425,0.269986,0.171532,-1.03566,-0.0707,0.12586,0.47054
-2.64044,0,0,17.6404,17.6404,12.3596,12.3596,1.5532,2.29649,-0.243617,-0.185202,-0.0124306,0.0249567,0,0,5.39,0.2975,-2.5025,-0.18605,-0.027328,-0.986736,-0.06776,0.12334,0.47446
-2.65954,0,0,17.6595,17.6595,12.3405,12.3405,1.56444,2.09696,-0.0616378,-0.181722,-0.0122311,0.0250848,0,0,2.695,0.7,-1.5225,-0.18605,-0.027328,-0.986736,-0.06776,0.12334,0.47446
-3.10482,0,0,18.1048,18.1048,11.8952,11.8952,1.82637,2.22126,-0.152611,0.103424,-0.257539,0.0949486,0,0,1.015,0.5775,-0.14,0.10248,-0.27694,-0.917196,-0.06776,0.12334,0.47446
-3.54295,0,0,18.5429,18.5429,11.4571,11.4571,2.08409,2.34317,-0.242457,0.101298,-0.25305,0.0947106,0,0,1.015,0.5775,-0.14,0.10248,-0.27694,-0.917196,-0.06776,0.12334,0.47446
-3.56823,0,0,18.5682,18.5682,11.4318,11.4318,2.09896,2.51244,-0.387055,0.143053,-0.0145258,0.0728142,0,0,1.9075,-0.4725,0.7,0.147376,-0.038918,-0.93879,-0.06776,0.12334,0.47446
-3.56891,0,0,18.5689,18.5689,11.4311,11.4311,2.09936,2.51138,-0.3835,0.0969066,0.20995,-0.204188,1,0,3.5875,-0.4375,1.0675,0.101016,0.185318,-1.21366,-0.06776,0.12334,0.47446
-3.57331,0,0,18.5733,18.5733,11.4267,11.4267,2.10195,2.51095,-0.379231,0.0969141,0.209995,-0.20419,1,0,4.795,-0.0525,1.47,0.101016,0.185318,-1.21366,-0.06776,0.12334,0.47446
-3.31616,0,0,18.3162,18.3162,11.6838,11.6838,1.95068,2.33615,-0.228149,-0.161718,0.161444,0.000127131,0,0,6.125,0.315,1.1025,-0.161772,0.139446,-1.01114,-0.06776,0.12334,0.47446
-3.05856,0,0,18.0586,18.0586,11.9414,11.9414,1.79915,2.16336,-0.0785266,-0.158705,0.158807,0.000331912,0,0,4.62,0.07,0.105,-0.161772,0.139446,-1.01114,-0.07168,0.12404,0.47586
-3.06029,0,0,18.0603,18.0603,11.9397,11.9397,1.80017,2.16316,-0.0771324,0.206606,0.0388961,0.134345,1,0,3.99,0.0175,-0.21,0.205082,0.019642,-0.878156,-0.07168,0.12404,0.47586
-3.05711,0,0,18.0571,18.0571,11.9429,11.9429,1.7983,2.163,-0.0761572,0.206609,0.0388635,0.134346,1,0,2.38,0.035,-0.455,0.205082,0.019642,-0.878156,-0.07168,0.12404,0.47586
-2.47481,0,0,17.4748,17.4748,12.5252,12.5252,1.45577,2.31236,-0.219638,0.128562,0.33845,0.100726,0,0,2.415,0.0875,-1.12,0.12932,0.324886,-0.911584,-0.07168,0.12404,0.47586
-1.90382,0,0,16.9038,16.9038,13.0962,13.0962,1.11989,2.45854,-0.365939,0.126012,0.332592,0.100752,0,0,3.22,-0.2625,-2.03,0.12932,0.324886,-0.911584,-0.07168,0.12404,0.47586
-2.21044,0,0,17.2104,17.2104,12.7896,12.7896,1.30026,2.53054,-0.42428,0.0562392,-0.163885,0.112557,0,0,4.305,-0.4725,-2.31,0.060512,-0.174216,-0.89975,-0.07168,0.12404,0.47586
-2.51441,0,0,17.5144,17.5144,12.4856,12.4856,1.47906,2.60219,-0.482393,0.0549899,-0.16077,0.112425,0,0,5.11,0.1225,-2.45,0.060512,-0.174216,-0.89975,-0.07168,0.12404,0.47586
-3.06351,0,0,18.0635,18.0635,11.9365,11.9365,1.80206,2.38527,-0.278398,-0.197077,-0.319151,0.0947241,0,0,4.7075,0.07,-2.485,-0.19642,-0.338062,-0.917318,-0.07168,0.12404,0.47586
-3.60089,0,0,18.6009,18.6009,11.3991,11.3991,2.11817,2.17127,-0.077056,-0.193345,-0.313637,0.0946839,0,0,3.7625,-0.4375,-2.17,-0.19642,-0.338062,-0.917318,-0.07196,0.12418,0.47782
-3.59983,0,0,18.5998,18.5998,11.4002,11.4002,2.11755,2.17042,-0.0785996,0.0801345,-0.130457,-0.154901,1,0,3.1325,-0.42,-1.9075,0.078202,-0.155062,-1.16498,-0.07196,0.12418,0.47782
-3.59606,0,0,18.5961,18.5961,11.4039,11.4039,2.11533,2.17137,-0.079356,0.0801179,-0.130496,-0.1549,1,0,2.2225,0.6475,-1.4875,0.078202,-0.155062,-1.16498,-0.07196,0.12418,0.47782
-3.59361,0,0,18.5936,18.5936,11.4064,11.4064,2.11389,2.17155,-0.0793903,0.202208,0.12106,-0.117891,1,0,2.6425,0.21,-1.05,0.200812,0.096258,-1.12826,-0.07196,0.12418,0.47782
-3.5945,0,0,18.5945,18.5945,11.4055,11.4055,2.11441,2.17227,-0.0795247,0.202195,0.121069,-0.117892,1,0,3.745,0.525,-1.12,0.200812,0.096258,-1.12826,-0.07196,0.12418,0.47782
-3.5961,0,0,18.5961,18.5961,11.4039,11.4039,2.11536,2.17309,-0.0792049,0.189911,-0.22551,-0.0808859,1,0,3.9725,0.595,-0.8575,0.18849,-0.249978,-1.09153,-0.07196,0.12418,0.47782
-3.59967,0,0,18.5997,18.5997,11.4003,11.4003,2.11745,2.17406,-0.0781886,0.189894,-0.225474,-0.0808879,1,0,4.6025,0.7,-0.455,0.18849,-0.249978,-1.09153,-0.07196,0.12418,0.47782
-4.10922,0,0,19.1092,19.1092,10.8908,10.8908,2.41719,2.03368,0.0629132,-0.128744,-0.297797,0.0798118,0,0,3.955,0.2975,-0.3675,-0.133956,-0.327448,-0.931958,-0.07196,0.12418,0.47782
-4.61292,0,0,19.6129,19.6129,10.3871,10.3871,2.71348,1.89884,0.21338,-0.126392,-0.29263,0.0796611,0,0,4.76,0.0875,-0.28,-0.133956,-0.327448,-0.931958,-0.07294,0.11634,0.47068
-4.86389,0,0,19.8639,19.8639,10.1361,10.1361,2.86111,1.94682,0.200049,0.0332536,-0.134104,0.0972124,0,0,3.675,0.56,-0.6825,0.027206,-0.171654,-0.91439,-0.07294,0.11634,0.47068
-5.10717,0,0,20.1072,20.1072,9.89283,9.89283,3.00422,1.9935,0.186794,0.0324393,-0.131612,0.0970567,0,0,2.52,0.385,-0.7175,0.027206,-0.171654,-0.91439,-0.07294,0.11634,0.47068
-4.5864,0,0,19.5864,19.5864,10.4136,10.4136,2.69788,1.89998,0.270694,-0.0786681,0.305885,0.0579114,0,0,1.6275,-0.0175,-1.0325,-0.08601,0.270718,-0.953552,-0.07294,0.11634,0.47068
-4.07394,0,0,19.0739,19.0739,10.9261,10.9261,2.39644,1.80812,0.355602,-0.0770657,0.300634,0.0581969,0,0,1.6275,-0.0175,-1.0325,-0.08601,0.270718,-0.953552,-0.07294,0.11634,0.47068
-3.6053,0,0,18.6053,18.6053,11.3947,11.3947,2.12076,1.62092,0.526182,-0.164185,0.283254,0.0377058,0,0,3.0975,-0.4375,-1.295,-0.176778,0.258152,-0.97417,-0.07294,0.11634,0.47068
-3.14406,0,0,18.1441,18.1441,11.8559,11.8559,1.84945,1.43703,0.698354,-0.160977,0.278526,0.0379554,0,0,3.0975,-0.4375,-1.295,-0.176778,0.258152,-0.97417,-0.07294,0.11634,0.47068
-3.15236,0,0,18.1524,18.1524,11.8476,11.8476,1.85433,1.43704,0.697714,0.231543,0.351765,0.254465,1,0,6.195,0.105,-1.4,0.217404,0.33123,-0.759328,-0.07294,0.11634,0.47068
-3.16066,0,0,18.1607,18.1607,11.8393,11.8393,1.85921,1.43706,0.697073,0.231543,0.35185,0.254462,1,0,6.195,0.105,-1.4,0.217404,0.33123,-0.759328,-0.06986,0.12922,0.46718
-3.16189,0,0,18.1619,18.1619,11.8381,11.8381,1.85994,1.4371,0.697484,-0.0826198,0.0154034,0.165201,1,0,3.85,0.14,-0.7875,-0.098088,-0.00488,-0.8479,-0.06986,0.12922,0.46718
-3.16312,0,0,18.1631,18.1631,11.8369,11.8369,1.86066,1.43714,0.697895,-0.0826205,0.015416,0.165201,1,0,3.85,0.14,-0.7875,-0.098088,-0.00488,-0.8479,-0.06986,0.12922,0.46718
-2.90737,0,0,17.9074,17.9074,12.0926,12.0926,1.71022,1.57493,0.579582,0.123809,0.147863,0.0384594,0,0,0.9975,-0.2275,-0.945,0.11163,0.130052,-0.973682,-0.06986,0.12922,0.46718
-2.65575,0,0,17.6558,17.6558,12.3442,12.3442,1.56221,1.71021,0.460904,0.121449,0.14528,0.0384655,0,0,0.9975,-0.2275,-0.945,0.11163,0.130052,-0.973682,-0.06986,0.12922,0.46718
-2.75454,0,0,17.7545,17.7545,12.2455,12.2455,1.62032,1.82527,0.363598,0.104499,-0.0604693,0.0244822,0,0,2.1875,-0.7175,-0.315,0.096624,-0.076494,-0.987468,-0.06986,0.12922,0.46718
-2.85166,0,0,17.8517,17.8517,12.1483,12.1483,1.67744,1.93816,0.266694,0.10253,-0.0594751,0.0243889,0,0,2.1875,-0.7175,-0.315,0.096624,-0.076494,-0.987468,-0.06986,0.12922,0.46718
-2.85649,0,0,17.8565,17.8565,12.1435,12.1435,1.68029,1.93821,0.266865,0.0755593,-0.08495,-0.155486,1,0,5.04,0.14,-0.9275,0.06954,-0.101992,-1.16595,-0.06986,0.12922,0.46718
-2.86212,0,0,17.8621,17.8621,12.1379,12.1379,1.6836,1.93841,0.26701,0.171529,0.133348,-0.232823,1,0,5.3025,0.2275,-0.945,0.16592,0.116022,-1.24269,-0.06986,0.12922,0.46718
-2.8526,0,0,17.8526,17.8526,12.1474,12.1474,1.678,1.93961,0.266764,0.171509,0.133251,-0.23282,1,0,0.315,0.805,-1.19,0.16592,0.116022,-1.24269,-0.07336,0.12362,0.46676
-2.84777,0,0,17.8478,17.8478,12.1522,12.1522,1.67516,1.94094,0.265982,0.0665217,0.0304924,-0.224459,1,0,1.8725,0.875,-1.505,0.060512,0.01342,-1.2344,-0.07336,0.12362,0.46676
-2.84066,0,0,17.8407,17.8407,12.1593,12.1593,1.67098,1.94138,0.264273,0.0665141,0.0304195,-0.224457,1,0,1.1375,0.3325,-2.03,0.060512,0.01342,-1.2344,-0.07336,0.12362,0.46676
-2.96647,0,0,17.9665,17.9665,12.0335,12.0335,1.74498,2.16953,0.0732878,0.196169,-0.0755218,0.0737573,0,0,0.945,0.2275,-1.9775,0.194712,-0.093696,-0.938302,-0.07336,0.12362,0.46676
-3.09728,0,0,18.0973,18.0973,11.9027,11.9027,1.82193,2.39323,-0.117266,0.192268,-0.0741854,0.0735602,0,0,3.325,0.105,-2.2925,0.194712,-0.093696,-0.938302,-0.07336,0.12362,0.46676
-3.09935,0,0,18.0994,18.0994,11.9006,11.9006,1.82315,2.3926,-0.119399,-0.00902312,0.193782,0.163804,1,0,4.1825,-0.2975,-2.2575,-0.007442,0.173972,-0.848754,-0.07336,0.12362,0.46676
-3.10339,0,0,18.1034,18.1034,11.8966,11.8966,1.82552,2.39186,-0.120784,-0.00901025,0.193823,0.163803,1,0,4.8125,-0.35,-1.82,-0.007442,0.173972,-0.848754,-0.07336,0.12362,0.46676
-3.10804,0,0,18.108,18.108,11.892,11.892,1.82826,2.39054,-0.121708,-0.121847,-0.0495275,0.306054,1,0,5.005,-0.6825,-1.54,-0.12078,-0.069174,-0.7076,-0.07336,0.12362,0.46676
-3.10859,0,0,18.1086,18.1086,11.8914,11.8914,1.82858,2.39067,-0.122075,-0.12185,-0.0495219,0.306054,1,0,3.64,0.175,-1.2425,-0.12078,-0.069174,-0.7076,-0.06776,0.11662,0.47264
-3.81867,0,0,18.8187,18.8187,11.1813,11.1813,2.24628,2.4586,-0.149273,0.0458309,-0.391283,0.1871,0,0,2.38,0.2275,-1.0325,0.0488,-0.41785,-0.82533,-0.06776,0.11662,0.47264
-4.51699,0,0,19.517,19.517,10.483,10.483,2.65705,2.52547,-0.175172,0.044665,-0.384129,0.186743,0,0,2.0125,0.455,-0.7,0.0488,-0.41785,-0.82533,-0.06776,0.11662,0.47264
-4.746,0,0,19.746,19.746,10.254,10.254,2.79176,2.57578,-0.2019,0.0513199,-0.155606,-0.0559855,0,0,1.68,-0.175,-0.385,0.056364,-0.191906,-1.06604,-0.06776,0.11662,0.47264
-4.97609,0,0,19.9761,19.9761,10.0239,10.0239,2.92711,2.62455,-0.227085,0.0504696,-0.153251,-0.0561418,0,0,3.255,-0.455,0.42,0.056364,-0.191906,-1.06604,-0.06776,0.11662,0.47264
-4.97947,0,0,19.9795,19.9795,10.0205,10.0205,2.9291,2.62345,-0.224447,0.0933732,-0.34178,-0.185116,1,0,4.4975,-0.455,0.5425,0.09943,-0.380274,-1.19401,-0.06776,0.11662,0.47264
-4.98317,0,0,19.9832,19.9832,10.0168,10.0168,2.93128,2.62341,-0.222566,0.0933739,-0.341742,-0.185118,1,0,4.62,0.14,0.07,0.09943,-0.380274,-1.19401,-0.06776,0.11662,0.47264
-4.98572,0,0,19.9857,19.9857,10.0143,10.0143,2.93278,2.62273,-0.221078,-0.331936,0.308609,-0.359951,1,0,4.2525,-0.245,-0.14,-0.327692,0.269376,-1.3675,-0.06776,0.11662,0.47264
-4.98398,0,0,19.984,19.984,10.016,10.016,2.93175,2.62217,-0.220186,-0.331926,0.308591,-0.35995,1,0,2.8525,-0.1925,-0.49,-0.327692,0.269376,-1.3675,-0.07126,0.12418,0.46382
-4.98148,0,0,19.9815,19.9815,10.0185,10.0185,2.93028,2.62198,-0.219485,0.317054,0.210376,-0.347899,1,0,2.6075,0.0175,-0.6125,0.324032,0.171288,-1.35554,-0.07126,0.12418,0.46382
-4.98201,0,0,19.982,19.982,10.018,10.018,2.93059,2.62228,-0.220863,0.317049,0.210381,-0.3479,1,0,3.6575,0.245,-1.8375,0.324032,0.171288,-1.35554,-0.07126,0.12418,0.46382
-4.98206,0,0,19.9821,19.9821,10.0179,10.0179,2.93062,2.62232,-0.222826,0.0625355,0.277429,-0.122412,1,0,3.5175,0.07,-2.17,0.068442,0.238266,-1.13179,-0.07126,0.12418,0.46382
-4.98776,0,0,19.9878,19.9878,10.0122,10.0122,2.93398,2.62186,-0.225145,0.0625435,0.277488,-0.122415,1,0,5.39,-0.2275,-2.3625,0.068442,0.238266,-1.13179,-0.07126,0.12418,0.46382
-4.99238,0,0,19.9924,19.9924,10.0076,10.0076,2.93669,2.62209,-0.227879,0.288867,0.0589279,-0.16213,1,0,5.04,0.1575,-2.625,0.295728,0.019886,-1.1712,-0.07126,0.12418,0.46382
-4.99699,0,0,19.997,19.997,10.003,10.003,2.9394,2.62231,-0.230614,0.288863,0.0589751,-0.162133,1,0,5.04,0.1575,-2.625,0.295728,0.019886,-1.1712,-0.07126,0.12418,0.46382
-4.99939,0,0,19.9994,19.9994,10.0006,10.0006,2.94082,2.61496,-0.233738,-0.168766,-0.448437,-0.175898,1,0,4.3225,-4.2875,-2.625,-0.163968,-0.487024,-1.18486,-0.07126,0.12418,0.46382
-5.0018,0,0,20.0018,20.0018,9.9982,9.9982,2.94223,2.60761,-0.236863,-0.168638,-0.448412,-0.175894,1,0,4.3225,-4.2875,-2.625,-0.163968,-0.487024,-1.18486,-0.06846,0.11382,0.46998
-5.29172,0,0,20.2917,20.2917,9.70828,9.70828,3.11278,2.51285,-0.132075,-0.087656,-0.172607,0.0481581,0,0,1.6625,0.2975,-1.2075,-0.084302,-0.214476,-0.962458,-0.06846,0.11382,0.46998
-5.57683,0,0,20.5768,20.5768,9.42317,9.42317,3.28049,2.41984,-0.028236,-0.0860342,-0.169683,0.0480648,0,0,1.6625,0.2975,-1.2075,-0.084302,-0.214476,-0.962458,-0.06846,0.11382,0.46998
-5.57603,0,0,20.576,20.576,9.42397,9.42397,3.28002,2.41935,-0.0274635,0.191083,-0.0627085,-0.134636,1,0,3.1675,-0.1575,-0.56,0.19398,-0.107604,-1.14375,-0.06846,0.11382,0.46998
-5.50549,0,0,20.5055,20.5055,9.49451,9.49451,3.23852,2.44385,-0.0357119,0.0278653,0.0442838,-0.0604749,0,0,4.5675,-0.63,-0.0175,0.0305,0,-1.07018,-0.06846,0.11382,0.46998
-5.44894,0,0,20.4489,20.4489,9.55106,9.55106,3.20526,2.46946,-0.042887,0.0274187,0.0437036,-0.0604614,0,0,8.7675,0.315,0.5425,0.0305,0,-1.07018,-0.06846,0.11382,0.46998
-5.85543,0,0,20.8554,20.8554,9.14457,9.14457,3.44437,2.53529,-0.0694051,0.0447367,-0.211412,0.142972,0,0,4.865,0.2625,0.84,0.049044,-0.259006,-0.86803,-0.06846,0.11382,0.46998
-6.24201,0,0,21.242,21.242,8.75799,8.75799,3.67177,2.6,-0.09586,0.0436084,-0.207458,0.142676,0,0,0.4725,0.4025,0.6475,0.049044,-0.259006,-0.86803,-0.06846,0.11382,0.46998
-6.37316,0,0,21.3732,21.3732,8.62684,8.62684,3.74892,2.50787,-0.0168446,-0.0831956,-0.0858162,-0.0368445,0,0,3.3775,0.14,0.49,-0.07991,-0.138836,-1.04615,-0.0735,0.12642,0.4655
-6.50041,0,0,21.5004,21.5004,8.49959,8.49959,3.82377,2.41863,0.0613189,-0.0816395,-0.0845094,-0.0368639,0,0,2.835,0.77,0.245,-0.07991,-0.138836,-1.04615,-0.0735,0.12642,0.4655
-6.4976,0,0,21.4976,21.4976,8.5024,8.5024,3.82212,2.41983,0.0621703,0.304664,-0.0772106,-0.213171,1,0,2.5025,0.84,-0.5775,0.30805,-0.131516,-1.2211,-0.0735,0.12642,0.4655
-6.49796,0,0,21.498,21.498,8.50204,8.50204,3.82233,2.41923,0.0620894,0.179544,0.261328,-0.167557,1,0,3.57,-0.245,-1.05,0.18239,0.206668,-1.17584,-0.0735,0.12642,0.4655
-6.51291,0,0,21.5129,21.5129,8.48709,8.48709,3.83112,2.41755,0.061154,0.179574,0.261481,-0.167566,1,0,8.4,-0.91,-1.505,0.18239,0.206668,-1.17584,-0.0735,0.12642,0.4655
-6.97617,0,0,21.9762,21.9762,8.02383,8.02383,4.10363,2.52291,-0.02241,0.0851643,-0.254776,0.12157,0,0,4.935,-0.735,-1.8375,0.089426,-0.313784,-0.888526,-0.0735,0.12642,0.4655
-7.43563,0,0,22.4356,22.4356,7.56437,7.56437,4.3739,2.62643,-0.106195,0.0833593,-0.250083,0.121141,0,0,6.1425,-0.665,-2.59,0.089426,-0.313784,-0.888526,-0.0735,0.12642,0.4655
-7.43796,0,0,22.438,22.438,7.56204,7.56204,4.37527,2.62588,-0.10956,0.268635,-0.184355,0.278022,1,0,4.305,-0.3675,-2.9575,0.275476,-0.248148,-0.732854,-0.0735,0.12642,0.4655
-7.4408,0,0,22.4408,22.4408,7.5592,7.5592,4.37694,2.62634,-0.112517,0.268627,-0.184326,0.278019,1,0,4.4625,0.245,-2.765,0.275476,-0.248148,-0.732854,-0.07056,0.12152,0.45934
-7.18351,0,0,22.1835,22.1835,7.81649,7.81649,4.2256,2.29682,0.158259,-0.280574,0.153184,0.0842046,0,0,3.045,0.42,-2.7125,-0.28182,0.091622,-0.925614,-0.07056,0.12152,0.45934
-6.92915,0,0,21.9292,21.9292,8.07085,8.07085,4.07597,1.97372,0.430659,-0.274939,0.150597,0.0846031,0,0,2.73,0.735,-2.38,-0.28182,0.091622,-0.925614,-0.07056,0.12152,0.45934
-6.92883,0,0,21.9288,21.9288,8.07117,8.07117,4.07578,1.97429,0.428824,-0.215664,0.0157652,-0.192769,1,0,3.3775,0.3675,-2.1175,-0.222284,-0.043066,-1.20085,-0.07056,0.12152,0.45934
-6.93208,0,0,21.9321,21.9321,8.06792,8.06792,4.07769,1.97397,0.428309,-0.215658,0.0157986,-0.192771,1,0,4.5325,-0.105,-1.3125,-0.222284,-0.043066,-1.20085,-0.07056,0.12152,0.45934
-6.93441,0,0,21.9344,21.9344,8.06559,8.06559,4.07907,1.97455,0.4284,0.149639,-0.0733301,-0.130315,1,0,4.2175,0.455,-0.9975,0.14457,-0.132126,-1.13887,-0.07056,0.12152,0.45934
-6.93847,0,0,21.9385,21.9385,8.06153,8.06153,4.08145,1.97454,0.42893,0.149639,-0.0732886,-0.130318,1,0,4.7775,0.1225,-0.7175,0.14457,-0.132126,-1.13887,-0.07056,0.12152,0.45934
-6.94005,0,0,21.94,21.94,8.05995,8.05995,4.08238,1.97496,0.429671,0.0935055,0.107475,0.151724,1,0,3.955,0.385,-0.6125,0.088206,0.048434,-0.859002,-0.07056,0.12152,0.45934
-6.9372,0,0,21.9372,21.9372,8.0628,8.0628,4.08071,1.97442,0.430945,0.0935151,0.107446,0.151727,1,0,2.485,-0.1575,-0.2625,0.088206,0.048434,-0.859002,-0.0707,0.12306,0.46256
-6.93532,0,0,21.9353,21.9353,8.06468,8.06468,4.0796,1.974,0.432559,0.00325851,0.0983894,0.229555,1,0,2.8,-0.07,-0.07,-0.00244,0.039406,-0.781776,-0.0707,0.12306,0.46256
-6.93417,0,0,21.9342,21.9342,8.06583,8.06583,4.07892,1.97441,0.434623,0.00325124,0.0983776,0.229555,1,0,3.0275,0.4375,0.1575,-0.00244,0.039406,-0.781776,-0.0707,0.12306,0.46256
-6.93696,0,0,21.937,21.937,8.06304,8.06304,4.08056,1.97412,0.436216,-0.390357,-0.0311703,-0.208266,1,0,4.34,0,-0.0875,-0.39772,-0.090036,-1.21622,-0.0707,0.12306,0.46256
-6.94272,0,0,21.9427,21.9427,8.05728,8.05728,4.08395,1.97427,0.437691,-0.39036,-0.0311114,-0.20827,1,0,5.32,0.2625,-0.175,-0.39772,-0.090036,-1.21622,-0.0707,0.12306,0.46256
-6.94944,0,0,21.9494,21.9494,8.05056,8.05056,4.08791,1.9746,0.439328,-0.0511776,-0.0480182,-0.201882,1,0,5.635,0.3675,-0.0875,-0.057096,-0.106994,-1.20987,-0.0707,0.12306,0.46256
-6.95572,0,0,21.9557,21.9557,8.04428,8.04428,4.0916,1.97466,0.439742,-0.0511786,-0.0479539,-0.201887,1,0,5.5125,0.1575,-0.7875,-0.057096,-0.106994,-1.20987,-0.0707,0.12306,0.46256
-6.6439,0,0,21.6439,21.6439,8.3561,8.3561,3.90818,2.00179,0.417437,0.0259774,0.195061,-0.000659321,0,0,5.145,-0.1575,-1.19,0.020862,0.138958,-1.0104,-0.0707,0.12306,0.46256
-6.3346,0,0,21.3346,21.3346,8.6654,8.6654,3.72624,2.02938,0.387181,0.0254962,0.191893,-0.000464946,0,0,4.2875,-0.455,-1.2075,0.020862,0.138958,-1.0104,-0.06888,0.12824,0.469
-6.33319,0,0,21.3332,21.3332,8.66681,8.66681,3.7254,2.02836,0.386743,0.163643,0.728259,-0.0484133,1,0,2.9925,-0.5075,-1.2425,0.159576,0.674782,-1.05798,-0.06888,0.12824,0.469
-6.33245,0,0,21.3325,21.3325,8.66755,8.66755,3.72497,2.02759,0.38611,0.163657,0.728252,-0.0484123,1,0,3.22,-0.3675,-1.365,0.159576,0.674782,-1.05798,-0.06888,0.12824,0.469
-6.33136,0,0,21.3314,21.3314,8.66864,8.66864,3.72433,2.02782,0.384791,0.125142,-0.0715673,-0.224966,1,0,3.115,0.1925,-1.8025,0.120902,-0.124196,-1.23318,-0.06888,0.12824,0.469
-6.33179,0,0,21.3318,21.3318,8.66821,8.66821,3.72458,2.0275,0.383196,0.125147,-0.0715629,-0.224966,1,0,3.6225,-0.14,-1.9425,0.120902,-0.124196,-1.23318,-0.06888,0.12824,0.469
-6.16176,0,0,21.1618,21.1618,8.83824,8.83824,3.62456,2.19439,0.233838,0.154673,0.108292,-0.00537512,0,0,4.7775,-0.7875,-1.7325,0.153476,0.057218,-1.01528,-0.06888,0.12824,0.469
-5.99547,0,0,20.9955,20.9955,9.00453,9.00453,3.52675,2.35927,0.0848817,0.151798,0.106582,-0.00538284,0,0,5.1275,-0.1225,-1.4525,0.153476,0.057218,-1.01528,-0.06888,0.12824,0.469
-6.00073,0,0,21.0007,21.0007,8.99927,8.99927,3.52984,2.35948,0.08347,0.331229,0.277613,-0.034771,1,0,5.215,0.175,-1.855,0.33367,0.228018,-1.04444,-0.06888,0.12824,0.469
-6.00304,0,0,21.003,21.003,8.99696,8.99696,3.5312,2.35996,0.0823763,0.33122,0.277637,-0.0347728,1,0,4.235,0.35,-1.68,0.33367,0.228018,-1.04444,-0.06888,0.12824,0.469
-6.00185,0,0,21.0018,21.0018,8.99815,8.99815,3.5305,2.36154,0.0813807,0.0164231,0.0570639,0.148912,1,0,3.08,0.9975,-1.6625,0.017568,0.007686,-0.862174,-0.0714,0.1253,0.46438
-6.25222,0,0,21.2522,21.2522,8.74778,8.74778,3.67778,2.08949,0.319782,-0.243793,-0.148343,0.0570919,0,0,3.2725,0.9275,-1.47,-0.248514,-0.20008,-0.953308,-0.0714,0.1253,0.46438
-6.49853,0,0,21.4985,21.4985,8.50147,8.50147,3.82267,1.82232,0.555537,-0.239132,-0.145811,0.0570854,0,0,3.36,0.7875,-1.8025,-0.248514,-0.20008,-0.953308,-0.0714,0.1253,0.46438
-6.50084,0,0,21.5008,21.5008,8.49916,8.49916,3.82403,1.82219,0.555187,-0.280314,0.0790484,-0.324548,1,0,4.2175,0.0175,-1.225,-0.289872,0.024522,-1.332,-0.0714,0.1253,0.46438
-6.50404,0,0,21.504,21.504,8.49596,8.49596,3.82591,1.82123,0.555563,-0.280297,0.0790812,-0.32455,1,0,4.4975,-0.4375,-0.77,-0.289872,0.024522,-1.332,-0.0714,0.1253,0.46438
-6.2861,0,0,21.2861,21.2861,8.7139,8.7139,3.6977,1.89651,0.494391,0.0590357,0.129239,0.0999725,0,0,4.655,-0.35,-0.6475,0.052216,0.07686,-0.910852,-0.0714,0.1253,0.46438
-6.07457,0,0,21.0746,21.0746,8.92543,8.92543,3.57328,1.97098,0.433166,0.0577367,0.12707,0.100066,0,0,5.6,0,-0.6475,0.052216,0.07686,-0.910852,-0.0714,0.1253,0.46438
-6.07725,0,0,21.0773,21.0773,8.92275,8.92275,3.57486,1.97145,0.433785,0.244452,0.0506465,0.353338,1,0,4.3225,0.4025,-0.6825,0.23973,0.000488,-0.659532,-0.0714,0.1253,0.46438
-6.07993,0,0,21.0799,21.0799,8.92007,8.92007,3.57643,1.9719,0.435125,0.244444,0.0506738,0.353336,1,0,4.305,0.42,-0.2625,0.23973,0.000488,-0.659532,-0.06356,0.126,0.47054
-6.07773,0,0,21.0777,21.0777,8.92227,8.92227,3.57514,1.9723,0.436703,-0.068753,0.0336757,0.269732,1,0,2.695,0.4025,-0.1225,-0.074786,-0.01647,-0.742492,-0.06356,0.126,0.47054
-6.07661,0,0,21.0766,21.0766,8.92339,8.92339,3.57447,1.97255,0.438452,-0.0687572,0.0336642,0.269733,1,0,3.045,0.315,-0.0175,-0.074786,-0.01647,-0.742492,-0.06356,0.126,0.47054
-6.08029,0,0,21.0803,21.0803,8.91971,8.91971,3.57664,1.97204,0.439882,-0.209793,-0.119567,0.135348,1,0,4.6375,-0.14,-0.175,-0.216428,-0.16958,-0.875838,-0.06356,0.126,0.47054
-6.08483,0,0,21.0848,21.0848,8.91517,8.91517,3.57931,1.97125,0.441326,-0.209779,-0.119521,0.135346,1,0,4.9175,-0.2975,-0.1575,-0.216428,-0.16958,-0.875838,-0.06356,0.126,0.47054
