pid_x,pid_y,pid_z,front_left_speed,front_right_speed,back_left_speed,back_right_speed,orientation_x,orientation_y,orientation_z,acceleration_x,acceleration_y,acceleration_z,accel_rejected,mag_rejected,ahrs_initialized,gyro_x,gyro_y,gyro_z,accel_x,accel_y,accel_z,mag_x,mag_y,mag_z
0,0,0,5,5,5,5,-0.0261581,-0.00792034,0.210023,-0.00176165,0.0223141,0.00190601,0,0,0,3.4475,-0.0875,-0.9625,-0.042212,0.034892,-1.01077,-0.24066,0.05782,0.37324
0,0,0,5,5,5,5,-0.0526585,-0.0168945,0.419286,-0.00257691,0.0225843,-0.00215165,0,0,0,3.3775,0.07,-1.085,-0.043188,0.035624,-1.0148,-0.24066,0.05782,0.37324
0,0,0,5,5,5,5,-0.0797693,-0.01904,0.622603,0.00183402,0.0230882,-0.000676823,0,0,0,3.3775,0,-0.9975,-0.038796,0.0366,-1.01333,-0.24066,0.05782,0.37324
0,0,0,5,5,5,5,-0.102997,-0.0253954,0.827773,-0.00121369,0.019996,0.00276504,0,0,0,3.5875,0.0175,-0.9625,-0.041968,0.033916,-1.00992,-0.24066,0.05782,0.37324
0,0,0,5,5,5,5,-0.125581,-0.0315839,1.03155,-0.00110568,0.0196018,0.00276421,0,0,0,3.6925,-0.035,-0.91,-0.041968,0.033916,-1.00992,-0.24066,0.05782,0.37324
0,0,0,5,5,5,5,-0.150123,-0.0409758,1.2359,-0.00288553,0.0210054,-0.00178602,0,0,0,3.465,-0.0875,-0.875,-0.04392,0.035746,-1.01443,-0.24066,0.05782,0.37324
0,0,0,5,5,5,5,-0.173934,-0.0496653,1.4388,-0.00273387,0.0205898,-0.00178732,0,0,0,3.605,0.1225,-0.8575,-0.04392,0.035746,-1.01443,-0.24066,0.05782,0.37324
0,0,0,5,5,5,5,-0.198344,-0.0573765,1.63958,-0.00187037,0.0208965,0.00128488,0,0,0,3.5175,-0.0525,-0.7875,-0.043188,0.036478,-1.01138,-0.24066,0.05782,0.37324
0,0,0,5,5,5,5,-0.2245,-0.0605859,1.83671,0.000979817,0.0220277,0.00177494,0,0,0,3.2725,0.07,-0.9275,-0.040382,0.038064,-1.01089,-0.23912,0.05712,0.37422
0,0,0,5,5,5,5,-0.248101,-0.065546,2.03356,-0.000148469,0.0202724,-0.00302185,0,0,0,3.4825,-0.14,-0.9625,-0.041602,0.036722,-1.01565,-0.23912,0.05712,0.37422
0,0,0,5,5,5,5,-0.271172,-0.0701379,2.2289,-6.83258e-05,0.0198697,-0.00302377,0,0,0,3.5175,-0.0525,-1.015,-0.041602,0.036722,-1.01565,-0.23912,0.05712,0.37422
0,0,0,5,5,5,5,-0.293208,-0.0766659,2.42444,-0.00141222,0.0187523,0.00226098,0,0,0,3.465,-0.0525,-0.9275,-0.043066,0.03599,-1.0104,-0.23912,0.05712,0.37422
0,0,0,5,5,5,5,-0.311261,-0.0738638,2.61282,0.00400573,0.0153841,0.00668552,0,0,0,3.4825,-0.07,-0.8575,-0.037576,0.03294,-1.00601,-0.23912,0.05712,0.37422
0,0,0,5,5,5,5,-0.328795,-0.0707756,2.79973,0.00395183,0.0150781,0.00668388,0,0,0,3.57,0.105,-0.91,-0.037576,0.03294,-1.00601,-0.23912,0.05712,0.37422
0,0,0,5,5,5,5,-0.346734,-0.0738745,2.98944,0.000118377,0.0152535,0.000903389,0,0,0,3.43,0.07,-0.84,-0.04148,0.033428,-1.01175,-0.23912,0.05712,0.37422
0,0,0,5,5,5,5,-0.364223,-0.0766635,3.18078,0.000167055,0.0149483,0.000901431,0,0,0,3.4825,0.1925,-0.7875,-0.04148,0.033428,-1.01175,-0.24276,0.05558,0.37324
0,0,0,5,5,5,5,-0.38304,-0.0816788,3.37182,-0.00096027,0.0159632,0.00360404,0,0,0,3.465,0.0875,-0.91,-0.0427,0.03477,-1.00906,-0.24276,0.05558,0.37324
0,0,0,5,5,5,5,-0.404465,-0.0846159,3.5597,0.000791792,0.0183982,0.0028637,0,0,0,3.57,-0.0175,-0.98,-0.040992,0.037576,-1.00979,-0.24276,0.05558,0.37324
0,0,0,5,5,5,5,-0.425526,-0.0871852,3.74631,0.000836634,0.0180307,0.00286097,0,0,0,3.535,0.105,-0.91,-0.040992,0.037576,-1.00979,-0.24276,0.05558,0.37324
0,0,0,5,5,5,5,-0.441827,-0.0855989,3.92888,0.00311718,0.0138381,0.00224412,0,0,0,3.395,-0.1225,-0.8925,-0.038674,0.033672,-1.0104,-0.24276,0.05558,0.37324
0,0,0,5,5,5,5,-0.45879,-0.0821104,4.10874,0.00439263,0.0143969,0.00285662,0,0,0,3.3775,-0.1225,-0.8925,-0.037332,0.034526,-1.00979,-0.24276,0.05558,0.37324
0,0,0,5,5,5,5,-0.475288,-0.0782367,4.28735,0.00432502,0.014109,0.00285437,0,0,0,3.4475,0.1225,-0.84,-0.037332,0.034526,-1.00979,-0.24276,0.05558,0.37324
0,0,0,5,5,5,5,-0.495249,-0.0804693,4.4684,0.000840905,0.0169359,0.00457264,0,0,0,3.465,0.1575,-0.8925,-0.04087,0.037698,-1.00809,-0.24276,0.05558,0.37324
0,0,0,5,5,5,5,-0.51449,-0.0831077,4.64313,0.000886954,0.0166001,0.00456962,0,0,0,3.64,-0.21,-0.875,-0.04087,0.037698,-1.00809,-0.23884,0.0581,0.37646
0,0,0,5,5,5,5,-0.529588,-0.0794575,4.81247,0.00446782,0.0127949,0.00542795,0,0,0,3.395,-0.315,-0.875,-0.03721,0.03416,-1.00723,-0.23884,0.0581,0.37646
0,0,0,5,5,5,5,-0.544094,-0.0827822,4.98542,-0.000212097,0.0122975,-0.000230138,0,0,0,3.4125,-0.1575,-0.8925,-0.041968,0.033916,-1.01284,-0.23884,0.0581,0.37646
0,0,0,5,5,5,5,-0.558154,-0.0859375,5.15698,-0.000157028,0.0120522,-0.000232579,0,0,0,3.5,-0.14,-0.9625,-0.041968,0.033916,-1.01284,-0.23884,0.0581,0.37646
0,0,0,5,5,5,5,-0.573151,-0.0895029,5.32793,-0.000580742,0.0127674,0.00283845,0,0,0,3.5,0.105,-0.91,-0.042456,0.034892,-1.00979,-0.23884,0.0581,0.37646
0,0,0,5,5,5,5,-0.590208,-0.0912491,5.49648,0.000786077,0.0149123,-0.0067546,0,0,0,3.57,0.14,-0.875,-0.041114,0.037332,-1.01931,-0.23884,0.0581,0.37646
0,0,0,5,5,5,5,-0.607144,-0.0931255,5.6639,0.000818826,0.0146167,-0.00675774,0,0,0,3.4475,0,-0.8225,-0.041114,0.037332,-1.01931,-0.23884,0.0581,0.37646
0,0,0,5,5,5,5,-0.620333,-0.0961562,5.83461,-0.000100164,0.0112112,0.0016002,0,0,0,3.465,-0.1925,-0.8575,-0.04209,0.03416,-1.01101,-0.23716,0.05642,0.3724
0,0,0,5,5,5,5,-0.635863,-0.0981734,6.00345,0.000663958,0.0128942,0.00651511,0,0,0,3.325,-0.07,-0.8925,-0.041358,0.036112,-1.00613,-0.23716,0.05642,0.3724
0,0,0,5,5,5,5,-0.651083,-0.100081,6.17108,0.000697248,0.0126286,0.00651207,0,0,0,3.325,-0.07,-0.8925,-0.041358,0.036112,-1.00613,-0.23716,0.05642,0.3724
0,0,0,5,5,5,5,-0.665658,-0.0990833,6.33551,0.00250212,0.0128627,0.0007306,0,0,0,3.6925,-0.0175,-0.9275,-0.039528,0.0366,-1.01187,-0.23716,0.05642,0.3724
0,0,0,5,5,5,5,-0.679979,-0.0995725,6.49961,0.00153878,0.0122464,-0.00111658,0,0,0,3.43,-0.0875,-0.9625,-0.040504,0.036234,-1.0137,-0.23716,0.05642,0.3724
0,0,0,5,5,5,5,-0.693857,-0.100237,6.66245,0.00155038,0.0120042,-0.0011195,0,0,0,3.5175,-0.2275,-0.9975,-0.040504,0.036234,-1.0137,-0.23716,0.05642,0.3724
0,0,0,5,5,5,5,-0.705883,-0.10272,6.82544,0.000135889,0.0102067,0.0035499,0,0,0,3.4825,-0.21,-0.9625,-0.041968,0.034648,-1.00906,-0.23716,0.05642,0.3724
0,0,0,5,5,5,5,-0.717668,-0.105094,6.98726,0.00017732,0.010001,0.00354727,0,0,0,3.4825,-0.21,-0.9625,-0.041968,0.034648,-1.00906,-0.23716,0.05642,0.3724
0,0,0,5,5,5,5,-0.732303,-0.104006,7.14244,0.00234507,0.0125546,0.00551125,0,0,0,3.535,0.1225,-0.91,-0.039772,0.037454,-1.00711,-0.23982,0.05838,0.371
0,0,0,5,5,5,5,-0.745123,-0.107731,7.29974,-0.000991525,0.0107432,-0.00186866,0,0,0,3.3425,0.105,-0.8925,-0.043188,0.035868,-1.01443,-0.23982,0.05838,0.371
0,0,0,5,5,5,5,-0.757649,-0.108952,7.45417,0.00073059,0.0106467,0.000710346,0,0,0,3.43,0,-0.875,-0.04148,0.03599,-1.01187,-0.23982,0.05838,0.371
0,0,0,5,5,5,5,-0.769737,-0.110093,7.60769,0.000750508,0.0104357,0.000707496,0,0,0,3.535,0,-0.735,-0.04148,0.03599,-1.01187,-0.23982,0.05838,0.371
0,0,0,5,5,5,5,-0.779296,-0.115919,7.76324,-0.0026709,0.0083149,-0.00322931,0,0,0,3.605,0.0875,-0.7875,-0.045018,0.034038,-1.01577,-0.23982,0.05838,0.371
0,0,0,5,5,5,5,-0.792267,-0.115889,7.91367,0.0014591,0.0110196,-0.000896393,0,0,0,3.3775,0.105,-0.875,-0.04087,0.036966,-1.01345,-0.23982,0.05838,0.371
0,0,0,5,5,5,5,-0.804977,-0.116026,8.06279,0.00146149,0.0107978,-0.00089949,0,0,0,3.3775,-0.0175,-0.98,-0.04087,0.036966,-1.01345,-0.23982,0.05838,0.371
0,0,0,5,5,5,5,-0.817529,-0.117178,8.21784,0.000631199,0.0103345,0.00389236,0,0,0,3.2725,0.14,-0.8925,-0.041724,0.036722,-1.0087,-0.24164,0.0546,0.37324
0,0,0,5,5,5,5,-0.830068,-0.116997,8.37064,0.00172141,0.0106042,-0.000782824,0,0,0,3.3425,-0.0525,-0.8925,-0.040626,0.03721,-1.01333,-0.24164,0.0546,0.37324
0,0,0,5,5,5,5,-0.842356,-0.116775,8.52232,0.00171754,0.0103897,-0.000785947,0,0,0,3.3425,-0.0525,-0.8925,-0.040626,0.03721,-1.01333,-0.24164,0.0546,0.37324
0,0,0,5,5,5,5,-0.854437,-0.120036,8.67486,-0.000655275,0.0100567,-0.00164983,0,0,0,3.3075,0.0175,-1.12,-0.043066,0.037088,-1.01419,-0.24164,0.0546,0.37324
0,0,0,5,5,5,5,-0.862841,-0.121915,8.82535,-0.00013653,0.00710117,-0.00472581,0,0,0,3.36,-0.035,-1.085,-0.042578,0.034282,-1.01724,-0.24164,0.0546,0.37324
0,0,0,5,5,5,5,-0.870982,-0.123379,8.9751,-0.000110973,0.00695911,-0.00472801,0,0,0,3.4125,0.1575,-0.8575,-0.042578,0.034282,-1.01724,-0.24164,0.0546,0.37324
0,0,0,5,5,5,5,-0.87933,-0.118894,9.11927,0.00381977,0.00705767,0.00510581,0,0,0,3.36,0.1225,-1.1025,-0.038552,0.034526,-1.00748,-0.24164,0.0546,0.37324
0,0,0,5,5,5,5,-0.889732,-0.115215,9.2627,0.00375556,0.00895229,-0.000306595,0,0,0,3.3775,-0.0525,-1.085,-0.038552,0.0366,-1.01284,-0.24164,0.0546,0.37324
0,0,0,5,5,5,5,-0.899673,-0.111533,9.40175,0.0036913,0.00877881,-0.000309177,0,0,0,3.5175,-0.035,-0.77,-0.038552,0.0366,-1.01284,-0.2387,0.05712,0.3724
0,0,0,5,5,5,5,-0.911544,-0.116149,9.54494,-0.00145202,0.0100372,-6.67149e-05,0,0,0,3.465,-0.0875,-0.98,-0.043798,0.038064,-1.0126,-0.2387,0.05712,0.3724
0,0,0,5,5,5,5,-0.923175,-0.120601,9.68708,-0.00137432,0.00983421,-7.01255e-05,0,0,0,3.465,-0.0875,-0.98,-0.043798,0.038064,-1.0126,-0.2387,0.05712,0.3724
0,0,0,5,5,5,5,-0.933343,-0.118311,9.82389,0.00283772,0.00867976,-0.00117945,0,0,0,3.3425,-0.0875,-0.84,-0.039528,0.037088,-1.0137,-0.2387,0.05712,0.3724
0,0,0,5,5,5,5,-0.94129,-0.118496,9.96119,0.00089716,0.00670917,-0.0110176,0,0,0,3.22,-0.07,-0.875,-0.04148,0.035258,-1.02346,-0.2387,0.05712,0.3724
0,0,0,5,5,5,5,-0.948703,-0.118529,10.0974,0.000897746,0.00657981,-0.0110197,0,0,0,3.43,0,-0.9275,-0.04148,0.035258,-1.02346,-0.2387,0.05712,0.3724
0,0,0,5,5,5,5,-0.956059,-0.109153,10.2262,0.00692987,0.00681781,0.00582239,0,0,0,3.6225,0.14,-0.9975,-0.035258,0.035624,-1.00674,-0.2387,0.05712,0.3724
0,0,0,5,5,5,5,-0.963258,-0.0999156,10.3507,0.00676865,0.00669217,0.00582058,0,0,0,3.6225,0.14,-0.9975,-0.035258,0.035624,-1.00674,-0.24388,0.0588,0.36848
0,0,0,5,5,5,5,-0.972072,-0.100023,10.4805,0.000939213,0.00775964,-0.000575342,0,0,0,3.57,0.0875,-0.91,-0.041114,0.036844,-1.01309,-0.24388,0.0588,0.36848
0,0,0,5,5,5,5,-0.979957,-0.100979,10.61,0.000105502,0.00713352,-0.000577716,0,0,0,3.71,0.2625,-0.8925,-0.041968,0.036356,-1.01309,-0.24388,0.0588,0.36848
0,0,0,5,5,5,5,-0.988247,-0.102178,10.7386,0.000126427,0.00698887,-0.000580238,0,0,0,3.395,0.0875,-0.8225,-0.041968,0.036356,-1.01309,-0.24388,0.0588,0.36848
0,0,0,5,5,5,5,-0.995352,-0.0976993,10.8622,0.0039358,0.00613211,0.00507338,0,0,0,3.4125,-0.1225,-0.8575,-0.038064,0.035624,-1.00748,-0.24388,0.0588,0.36848
0,0,0,5,5,5,5,-1.00232,-0.0933141,10.9849,0.00385926,0.00601054,0.00507139,0,0,0,3.4125,-0.1225,-0.8575,-0.038064,0.035624,-1.00748,-0.24388,0.0588,0.36848
0,0,0,5,5,5,5,-1.01022,-0.095825,11.1112,-0.000713373,0.00660549,0.000273907,0,0,0,3.4125,0.035,-0.91,-0.0427,0.036356,-1.01223,-0.24388,0.0588,0.36848
0,0,0,5,5,5,5,-1.01752,-0.0967175,11.2357,0.000152604,0.00611169,0.00113226,0,0,0,3.395,0.14,-0.84,-0.041846,0.03599,-1.01138,-0.24388,0.0588,0.36848
0,0,0,5,5,5,5,-1.02486,-0.0976517,11.3616,0.00016891,0.00598356,0.00112995,0,0,0,3.29,0.0875,-0.735,-0.041846,0.03599,-1.01138,-0.24178,0.0574,0.37492
0,0,0,5,5,5,5,-1.03196,-0.0983106,11.4866,0.000180409,0.00573759,0.00272604,0,0,0,3.29,0.21,-0.6475,-0.041846,0.035868,-1.00979,-0.24178,0.0574,0.37492
0,0,0,5,5,5,5,-1.03843,-0.0977017,11.6097,0.00102018,0.00562467,0.00469119,0,0,0,3.5525,0.1925,-0.7525,-0.040992,0.035868,-1.00784,-0.24178,0.0574,0.37492
0,0,0,5,5,5,5,-1.04496,-0.0970587,11.7317,0.00100896,0.00551073,0.00468914,0,0,0,3.4475,0.21,-0.84,-0.040992,0.035868,-1.00784,-0.24178,0.0574,0.37492
0,0,0,5,5,5,5,-1.05341,-0.092815,11.8504,0.00360758,0.00756158,0.000752213,0,0,0,3.535,0.2275,-0.875,-0.038308,0.038064,-1.01175,-0.24178,0.0574,0.37492
0,0,0,5,5,5,5,-1.06172,-0.0889824,11.9683,0.00354069,0.00741649,0.000749641,0,0,0,3.5175,0.035,-0.8925,-0.038308,0.038064,-1.01175,-0.24178,0.0574,0.37492
0,0,0,5,5,5,5,-1.06252,-0.0791056,12.0853,0.00154602,0.00080771,0.00111848,0,0,0,3.465,4.445,-0.98,-0.040138,0.031476,-1.01138,-0.24178,0.0574,0.37492
0,0,0,5,5,5,5,-1.06868,-0.0735805,12.1998,0.00436524,0.00558529,0.00455917,0,0,0,3.535,0.07,-0.98,-0.03721,0.036356,-1.00796,-0.24178,0.0574,0.37492
0,0,0,5,5,5,5,-1.07463,-0.068237,12.3144,0.00427198,0.00548143,0.00455734,0,0,0,3.5875,0.0525,-1.085,-0.03721,0.036356,-1.00796,-0.23884,0.05698,0.37632
0,0,0,5,5,5,5,-1.08014,-0.0681697,12.432,0.000869209,0.00501888,0.000129387,0,0,0,3.6225,-0.07,-0.8225,-0.040626,0.03599,-1.01236,-0.23884,0.05698,0.37632
0,0,0,5,5,5,5,-1.08318,-0.067257,12.548,0.000974764,0.00301184,0.000989045,0,0,0,3.6925,0.0875,-0.84,-0.040504,0.034038,-1.0115,-0.23884,0.05698,0.37632
0,0,0,5,5,5,5,-1.08606,-0.0662995,12.6632,0.000958054,0.0029615,0.000988111,0,0,0,3.745,0.1225,-0.8925,-0.040504,0.034038,-1.0115,-0.23884,0.05698,0.37632
0,0,0,5,5,5,5,-1.09156,-0.0704102,12.7809,-0.00188586,0.00494171,0.00221569,0,0,0,3.745,-0.07,-0.8225,-0.043432,0.036112,-1.01028,-0.23884,0.05698,0.37632
0,0,0,5,5,5,5,-1.09716,-0.0740025,12.8979,-0.00182316,0.00484395,0.00221374,0,0,0,3.6225,0.1575,-0.7175,-0.043432,0.036112,-1.01028,-0.23884,0.05698,0.37632
0,0,0,5,5,5,5,-1.1064,-0.0693311,13.0087,0.00429108,0.00810236,0.00516151,0,0,0,3.4825,-0.035,-0.7175,-0.03721,0.039528,-1.00735,-0.23884,0.05698,0.37632
0,0,0,5,5,5,5,-1.11558,-0.0649901,13.1186,0.00421531,0.0079422,0.00515849,0,0,0,3.4125,-0.175,-0.77,-0.03721,0.039528,-1.00735,-0.23884,0.05698,0.37632
0,0,0,5,5,5,5,-1.11902,-0.0593761,13.2299,0.0043603,0.00336342,-0.00197359,0,0,0,3.4825,-0.105,-0.7875,-0.036966,0.035014,-1.01443,-0.23506,0.05614,0.36582
0,0,0,5,5,5,5,-1.1244,-0.0602258,13.3444,0.000123133,0.00424652,0.00281955,0,0,0,3.2725,-0.0175,-0.9975,-0.041236,0.03599,-1.00967,-0.23506,0.05614,0.36582
0,0,0,5,5,5,5,-1.1293,-0.0608526,13.4583,0.000134073,0.00416105,0.00281786,0,0,0,3.4825,0.0875,-0.91,-0.041236,0.03599,-1.00967,-0.23506,0.05614,0.36582
0,0,0,5,5,5,5,-1.13705,-0.0631083,13.5727,-0.000798444,0.00683465,-0.00517652,0,0,0,3.5525,0.245,-0.98,-0.042212,0.038796,-1.0176,-0.23506,0.05614,0.36582
0,0,0,5,5,5,5,-1.14512,-0.0653031,13.6865,-0.000760137,0.00669393,-0.00517936,0,0,0,3.29,0.2275,-0.8575,-0.042212,0.038796,-1.0176,-0.23506,0.05614,0.36582
0,0,0,5,5,5,5,-1.14918,-0.0604391,13.7946,0.00340697,0.00369201,-0.0041971,0,0,0,3.36,0.3325,-0.7875,-0.037942,0.035868,-1.01663,-0.23506,0.05614,0.36582
0,0,0,5,5,5,5,-1.15276,-0.0557472,13.902,0.00332508,0.00362953,-0.00419827,0,0,0,3.5875,0.2975,-0.7875,-0.037942,0.035868,-1.01663,-0.23506,0.05614,0.36582
0,0,0,5,5,5,5,-1.15487,-0.0555889,14.0112,0.00016369,0.00176077,-0.000387608,0,0,0,3.4125,0.21,-0.7875,-0.041114,0.034038,-1.01284,-0.23506,0.05614,0.36582
0,0,0,5,5,5,5,-1.15679,-0.0552111,14.1158,0.000157097,0.00172739,-0.000388275,0,0,0,3.5,0.3325,-0.735,-0.041114,0.034038,-1.01284,-0.24206,0.0567,0.3745
0,0,0,5,5,5,5,-1.16006,-0.052682,14.2181,0.00193524,0.00289146,0.0048974,0,0,0,3.4825,0.175,-0.77,-0.039284,0.035258,-1.0076,-0.24206,0.0567,0.3745
0,0,0,5,5,5,5,-1.16343,-0.0501491,14.3195,0.00189103,0.00283264,0.00489624,0,0,0,3.395,0.21,-0.8225,-0.039284,0.035258,-1.0076,-0.24206,0.0567,0.3745
0,0,0,5,5,5,5,-1.16577,-0.0504643,14.4216,0.000195735,0.00157059,0.00231349,0,0,0,3.2025,-0.105,-0.77,-0.040992,0.034038,-1.01016,-0.24206,0.0567,0.3745
0,0,0,5,5,5,5,-1.16809,-0.0506811,14.5226,0.000199518,0.00153009,0.00231266,0,0,0,3.185,-0.0525,-0.98,-0.040992,0.034038,-1.01016,-0.24206,0.0567,0.3745
0,0,0,5,5,5,5,-1.17372,-0.0512249,14.6232,0.000451981,0.00460724,-0.00531216,0,0,0,3.22,-0.1225,-1.015,-0.040748,0.03721,-1.01772,-0.24206,0.0567,0.3745
0,0,0,5,5,5,5,-1.17907,-0.0517892,14.7234,0.00046183,0.0045138,-0.00531409,0,0,0,3.3075,-0.1575,-0.84,-0.040748,0.03721,-1.01772,-0.24206,0.0567,0.3745
0,0,0,5,5,5,5,-1.18321,-0.045146,14.818,0.00508383,0.00370884,-0.00174997,0,0,0,3.255,-0.0875,-0.8575,-0.03599,0.036478,-1.01419,-0.24206,0.0567,0.3745
0,0,0,5,5,5,5,-1.18694,-0.0386212,14.9228,0.00496995,0.00364373,-0.00175123,0,0,0,3.4475,-0.035,-0.8575,-0.03599,0.036478,-1.01419,-0.2401,0.05082,0.3717
0,0,0,5,5,5,5,-1.18997,-0.0415199,15.0328,-0.00153969,0.00261388,-0.00421134,0,0,0,3.5,0.0175,-0.875,-0.042578,0.035502,-1.01663,-0.2401,0.05082,0.3717
0,0,0,5,5,5,5,-1.19293,-0.0446631,15.142,-0.00148483,0.00256217,-0.00421245,0,0,0,3.5,-0.175,-0.9275,-0.042578,0.035502,-1.01663,-0.2401,0.05082,0.3717
0,0,0,5,5,5,5,-1.1965,-0.0471394,15.25,-0.000834182,0.00298842,-0.00372199,0,0,0,3.4125,-0.2975,-0.8575,-0.041968,0.03599,-1.01614,-0.2401,0.05082,0.3717
0,0,0,5,5,5,5,-1.20002,-0.0491856,15.3569,-0.000798469,0.00292693,-0.00372331,0,0,0,3.395,-0.0875,-0.9975,-0.041968,0.03599,-1.01614,-0.2401,0.05082,0.3717
0,0,0,5,5,5,5,-1.20073,-0.0476139,15.4604,0.00123936,0.00059416,-0.00101868,0,0,0,3.36,-0.035,-0.9975,-0.039894,0.033672,-1.01345,-0.2401,0.05082,0.3717
0,0,0,5,5,5,5,-1.2013,-0.0462261,15.5633,0.00121513,0.000584186,-0.00101887,0,0,0,3.43,-0.1225,-0.8925,-0.039894,0.033672,-1.01345,-0.2401,0.05082,0.3717
0,0,0,5,5,5,5,-1.20217,-0.0408725,15.6628,0.00391587,0.0010575,0.00279229,0,0,0,3.465,-0.105,-0.8925,-0.037088,0.03416,-1.00967,-0.2401,0.05082,0.3717
0,0,0,5,5,5,5,-1.20322,-0.0353584,15.7532,0.00381963,0.00103933,0.00279197,0,0,0,3.36,0.0525,-0.805,-0.037088,0.03416,-1.00967,-0.2401,0.056,0.36666
0,0,0,5,5,5,5,-1.20752,-0.0358774,15.8472,0.000184116,0.00352885,0.0018068,0,0,0,3.3775,0.0175,-0.805,-0.040748,0.036722,-1.01065,-0.2401,0.056,0.36666
0,0,0,5,5,5,5,-1.2119,-0.036281,15.9404,0.00019116,0.00345252,0.00180518,0,0,0,3.29,0.07,-0.875,-0.040748,0.036722,-1.01065,-0.2401,0.056,0.36666
0,0,0,5,5,5,5,-1.21675,-0.0328816,16.0305,0.00280451,0.00385632,0.00536893,0,0,0,3.185,0.0525,-0.7875,-0.038064,0.03721,-1.00711,-0.2401,0.056,0.36666
0,0,0,5,5,5,5,-1.22111,-0.0295567,16.1198,0.00274648,0.00378032,0.00536734,0,0,0,3.4125,0.0525,-0.875,-0.038064,0.03721,-1.00711,-0.2401,0.056,0.36666
0,0,0,5,5,5,5,-1.22468,-0.0318066,16.2119,-0.00110179,0.0029852,-0.00533053,0,0,0,3.395,0.035,-0.84,-0.041968,0.036478,-1.01772,-0.2401,0.056,0.36666
0,0,0,5,5,5,5,-1.22808,-0.0340167,16.3034,-0.00106322,0.00292579,-0.00533182,0,0,0,3.4475,0.0175,-0.8575,-0.041968,0.036478,-1.01772,-0.2401,0.056,0.36666
0,0,0,5,5,5,5,-1.22783,-0.0381499,16.3949,-0.00281336,-0.000489241,-0.000413832,0,0,0,3.4475,0.035,-0.8575,-0.043798,0.033062,-1.01284,-0.2401,0.056,0.36666
0,0,0,5,5,5,5,-1.22745,-0.0420987,16.4856,-0.00274444,-0.000482598,-0.000413738,0,0,0,3.5175,0.0875,-0.805,-0.043798,0.033062,-1.01284,-0.24388,0.0553,0.36722
0,0,0,5,5,5,5,-1.23108,-0.0466109,16.5767,-0.00278718,0.00275141,0.00167496,0,0,0,3.43,0.1925,-0.8575,-0.04392,0.036356,-1.01077,-0.24388,0.0553,0.36722
0,0,0,5,5,5,5,-1.23429,-0.0512877,16.6672,-0.00270555,0.00269537,0.00167369,0,0,0,3.6225,0.0175,-0.7175,-0.04392,0.036356,-1.01077,-0.24388,0.0553,0.36722
0,0,0,5,5,5,5,-1.23805,-0.0523148,16.7547,-0.000136426,0.00311824,0.00499187,0,0,0,3.4825,-0.035,-0.7525,-0.041358,0.036844,-1.00748,-0.24388,0.0553,0.36722
0,0,0,5,5,5,5,-1.24211,-0.0530366,16.8414,-0.000123827,0.00304743,0.00499032,0,0,0,3.2725,0.1225,-0.84,-0.041358,0.036844,-1.00748,-0.24388,0.0553,0.36722
0,0,0,5,5,5,5,-1.24449,-0.0531373,16.9268,0.000242388,0.00178458,0.000932117,0,0,0,3.29,0,-0.7875,-0.040992,0.035624,-1.0115,-0.24388,0.0553,0.36722
0,0,0,5,5,5,5,-1.24655,-0.0529606,17.0114,0.000239304,0.00174874,0.000931341,0,0,0,3.4475,0.1575,-0.84,-0.040992,0.035624,-1.0115,-0.24388,0.0553,0.36722
0,0,0,5,5,5,5,-1.246,-0.0454812,17.0903,0.00496819,0.000170583,0.00363653,0,0,0,3.5875,0.105,-0.8225,-0.036112,0.034038,-1.00882,-0.24388,0.0553,0.36722
0,0,0,5,5,5,5,-1.2457,-0.0385244,17.1686,0.00484677,0.000175853,0.00363673,0,0,0,3.465,-0.0875,-0.8225,-0.036112,0.034038,-1.00882,-0.24388,0.0553,0.36722
0,0,0,5,5,5,5,-1.24826,-0.0441372,17.2539,-0.00331629,0.00171878,-0.000667511,0,0,0,3.36,-0.1225,-0.875,-0.044408,0.035624,-1.01309,-0.2457,0.0553,0.36498
0,0,0,5,5,5,5,-1.25134,-0.038857,17.3318,0.00400218,0.00325276,-5.38729e-05,0,0,0,3.5875,0.035,-0.98,-0.036966,0.03721,-1.01248,-0.2457,0.0553,0.36498
0,0,0,5,5,5,5,-1.25424,-0.0337029,17.4091,0.00391222,0.0032022,-5.49218e-05,0,0,0,3.6575,0.035,-0.9975,-0.036966,0.03721,-1.01248,-0.2457,0.0553,0.36498
0,0,0,5,5,5,5,-1.25673,-0.0332227,17.4886,0.000745212,0.00254807,-0.00312958,0,0,0,3.6225,-0.0175,-0.9625,-0.040138,0.0366,-1.01553,-0.2457,0.0553,0.36498
0,0,0,5,5,5,5,-1.25895,-0.0327763,17.5675,0.000737421,0.00250926,-0.00313043,0,0,0,3.745,-0.035,-0.9625,-0.040138,0.0366,-1.01553,-0.2457,0.0553,0.36498
0,0,0,5,5,5,5,-1.26141,-0.0312038,17.645,0.00156037,0.0024665,6.53056e-05,0,0,0,3.5875,-0.0875,-1.015,-0.039284,0.0366,-1.01236,-0.2457,0.0553,0.36498
0,0,0,5,5,5,5,-1.26425,-0.0297234,17.7218,0.00153454,0.00241694,6.42266e-05,0,0,0,3.3425,-0.1225,-1.0325,-0.039284,0.0366,-1.01236,-0.2457,0.0553,0.36498
0,0,0,5,5,5,5,-1.26724,-0.0332511,17.7993,-0.00180549,0.00212051,0.00412034,0,0,0,3.36,-0.1575,-1.015,-0.0427,0.036356,-1.00833,-0.245,0.05656,0.36386
0,0,0,5,5,5,5,-1.26859,-0.0352049,17.8754,-0.000920993,0.000753502,-6.04514e-05,0,0,0,3.255,-0.1925,-0.8225,-0.041846,0.035014,-1.01248,-0.245,0.05656,0.36386
0,0,0,5,5,5,5,-1.26969,-0.0369555,17.9508,-0.000890438,0.00073424,-6.08974e-05,0,0,0,3.3775,-0.105,-0.84,-0.041846,0.035014,-1.01248,-0.245,0.05656,0.36386
0,0,0,5,5,5,5,-1.26877,-0.0387182,18.0254,-0.00110265,-0.00108163,0.000308283,0,0,0,3.3425,-0.14,-0.77,-0.04209,0.033184,-1.01211,-0.245,0.05656,0.36386
0,0,0,5,5,5,5,-1.26803,-0.0402058,18.0992,-0.00107668,-0.00106857,0.000308554,0,0,0,3.255,0,-0.9275,-0.04209,0.033184,-1.01211,-0.245,0.05656,0.36386
0,0,0,5,5,5,5,-1.2678,-0.0413772,18.1723,-0.000813265,-0.000576087,-0.00313393,0,0,0,3.22,0,-0.9275,-0.041846,0.033672,-1.01553,-0.245,0.05656,0.36386
0,0,0,5,5,5,5,-1.26754,-0.0425473,18.2449,-0.000792842,-0.000571607,-0.00313385,0,0,0,3.2375,-0.0175,-0.875,-0.041846,0.033672,-1.01553,-0.245,0.05656,0.36386
0,0,0,5,5,5,5,-1.27053,-0.043095,18.3172,-0.000175855,0.00218523,-0.00043014,0,0,0,3.22,0.14,-0.8925,-0.041236,0.036478,-1.01284,-0.245,0.05656,0.36386
0,0,0,5,5,5,5,-1.27323,-0.043891,18.3879,-0.000161962,0.00213804,-0.000431198,0,0,0,3.3425,-0.0175,-1.015,-0.041236,0.036478,-1.01284,-0.2478,0.05628,0.36876
0,0,0,5,5,5,5,-1.27679,-0.0487783,18.4611,-0.00299232,0.00293078,-0.00203098,0,0,0,3.5525,0.1225,-0.98,-0.044164,0.037332,-1.01443,-0.2478,0.05628,0.36876
0,0,0,5,5,5,5,-1.28027,-0.0534362,18.5339,-0.00291102,0.00287004,-0.00203241,0,0,0,3.5525,0.175,-0.91,-0.044164,0.037332,-1.01443,-0.2478,0.05628,0.36876
0,0,0,5,5,5,5,-1.28012,-0.0560034,18.6041,-0.00201582,-0.000424625,-0.000925854,0,0,0,3.395,0.245,-0.98,-0.04331,0.034038,-1.01333,-0.2478,0.05628,0.36876
0,0,0,5,5,5,5,-1.27974,-0.0584219,18.6736,-0.00197361,-0.000418027,-0.000925748,0,0,0,3.5175,0.2975,-1.1375,-0.04331,0.034038,-1.01333,-0.2478,0.05628,0.36876
0,0,0,5,5,5,5,-1.28317,-0.0547929,18.7393,0.002701,0.00330798,0.00362207,0,0,0,3.5525,0.2275,-1.085,-0.038552,0.03782,-1.00882,-0.2478,0.05628,0.36876
0,0,0,5,5,5,5,-1.28679,-0.0517776,18.8048,0.00264837,0.00324477,0.0036207,0,0,0,3.4125,-0.0875,-0.9625,-0.038552,0.03782,-1.00882,-0.2478,0.05628,0.36876
0,0,0,5,5,5,5,-1.28696,-0.047999,18.8685,0.00306836,0.000555052,0.0026371,0,0,0,3.535,-0.315,-0.9275,-0.038064,0.035136,-1.00979,-0.2478,0.05628,0.36876
0,0,0,5,5,5,5,-1.28751,-0.0441642,18.9319,0.00300143,0.000545524,0.00263694,0,0,0,3.325,-0.2275,-0.8575,-0.038064,0.035136,-1.00979,-0.2478,0.05628,0.36876
0,0,0,5,5,5,5,-1.28937,-0.0407184,18.9989,0.00281981,0.00161216,0.00521817,0,0,0,3.3425,-0.1575,-0.9625,-0.038186,0.036234,-1.00723,-0.2401,0.056,0.36008
0,0,0,5,5,5,5,-1.29271,-0.0413883,19.0687,-8.41581e-05,0.00289735,-0.00105352,0,0,0,3.465,0.07,-0.8925,-0.041114,0.037576,-1.01345,-0.2401,0.056,0.36008
0,0,0,5,5,5,5,-1.29572,-0.0419703,19.1379,-7.40003e-05,0.00284469,-0.00105472,0,0,0,3.605,0.105,-0.8925,-0.041114,0.037576,-1.01345,-0.2401,0.056,0.36008
0,0,0,5,5,5,5,-1.29703,-0.038393,19.2036,0.00265773,0.00147852,0.000543143,0,0,0,3.5,0.035,-0.8925,-0.038308,0.036234,-1.01187,-0.2401,0.056,0.36008
0,0,0,5,5,5,5,-1.29835,-0.0350811,19.2687,0.00259993,0.00145554,0.000542659,0,0,0,3.4825,-0.07,-0.8925,-0.038308,0.036234,-1.01187,-0.2401,0.056,0.36008
0,0,0,5,5,5,5,-1.29798,-0.0369044,19.3365,-0.00137727,-0.000614261,0.00140342,0,0,0,3.3775,0.105,-0.875,-0.042334,0.03416,-1.01101,-0.2401,0.056,0.36008
0,0,0,5,5,5,5,-1.29762,-0.0387724,19.4037,-0.00134467,-0.000607972,0.00140354,0,0,0,3.3775,0.0525,-0.875,-0.042334,0.03416,-1.01101,-0.2401,0.056,0.36008
0,0,0,5,5,5,5,-1.29562,-0.0386164,19.4687,0.000110436,-0.00167225,-0.000439893,0,0,0,3.465,-0.14,-0.8925,-0.04087,0.033062,-1.01284,-0.2401,0.056,0.36008
0,0,0,5,5,5,5,-1.29361,-0.0385643,19.5285,0.000109525,-0.00163704,-0.000439096,0,0,0,3.5,-0.1925,-0.8225,-0.04087,0.033062,-1.01284,-0.24486,0.05754,0.36694
0,0,0,5,5,5,5,-1.29291,-0.0362223,19.5868,0.00164797,-0.00040356,0.00177428,0,0,0,3.4825,-0.035,-0.7875,-0.039284,0.034282,-1.01065,-0.24486,0.05754,0.36694
0,0,0,5,5,5,5,-1.29204,-0.0335274,19.6446,0.00160093,-0.000388402,0.00177465,0,0,0,3.5875,0.21,-0.875,-0.039284,0.034282,-1.01065,-0.24486,0.05754,0.36694
0,0,0,5,5,5,5,-1.29204,-0.0327546,19.7032,0.000372584,0.000100025,-0.00019252,0,0,0,3.4825,0.1925,-0.805,-0.040504,0.03477,-1.0126,-0.24486,0.05754,0.36694
0,0,0,5,5,5,5,-1.29217,-0.0324538,19.7613,0.000367334,9.77384e-05,-0.000192569,0,0,0,3.4125,-0.07,-0.9275,-0.040504,0.03477,-1.0126,-0.24486,0.05754,0.36694
0,0,0,5,5,5,5,-1.29185,-0.0282637,19.8163,0.00296689,-0.00014084,0.000299392,0,0,0,3.325,-0.0525,-0.8925,-0.03782,0.034526,-1.01211,-0.24486,0.05754,0.36694
0,0,0,5,5,5,5,-1.29147,-0.0238834,19.8709,0.00289044,-0.000134335,0.000299573,0,0,0,3.36,0.1225,-0.9275,-0.03782,0.034526,-1.01211,-0.24486,0.05754,0.36694
0,0,0,5,5,5,5,-1.29491,-0.0226389,19.9278,0.00116792,0.00285882,0.000421176,0,0,0,3.3075,0.105,-0.8575,-0.039528,0.037576,-1.01199,-0.24486,0.05754,0.36694
0,0,0,5,5,5,5,-1.29811,-0.0214966,19.9917,0.00114798,0.00280308,0.000419922,0,0,0,3.4125,0.07,-0.84,-0.039528,0.037576,-1.01199,-0.23856,0.0546,0.37212
0,0,0,5,5,5,5,-1.29882,-0.016636,20.0521,0.00349286,0.000714493,0.00410812,0,0,0,3.325,0.0175,-0.945,-0.037088,0.035502,-1.00833,-0.23856,0.0546,0.37212
0,0,0,5,5,5,5,-1.29934,-0.0119532,20.112,0.00341113,0.000705406,0.00410794,0,0,0,3.43,-0.0175,-0.91,-0.037088,0.035502,-1.00833,-0.23856,0.0546,0.37212
0,0,0,5,5,5,5,-1.30192,-0.0123761,20.1748,0.000259884,0.002248,-0.00351589,0,0,0,3.395,-0.1575,-0.9975,-0.04026,0.037088,-1.01589,-0.23856,0.0546,0.37212
0,0,0,5,5,5,5,-1.30448,-0.0125689,20.2371,0.00026325,0.00220332,-0.00351691,0,0,0,3.3775,-0.035,-0.945,-0.04026,0.037088,-1.01589,-0.23856,0.0546,0.37212
0,0,0,5,5,5,5,-1.30389,-0.0131627,20.2988,-0.000455301,-0.000717268,0.00152421,0,0,0,3.3775,0.0175,-0.91,-0.040992,0.03416,-1.01089,-0.23856,0.0546,0.37212
0,0,0,5,5,5,5,-1.30355,-0.0133601,20.3598,-0.000451857,-0.000711359,0.00152435,0,0,0,3.2375,0.245,-1.0325,-0.040992,0.03416,-1.01089,-0.23856,0.0546,0.37212
0,0,0,5,5,5,5,-1.30587,-0.0163503,20.4226,-0.00197898,0.00144634,-0.00142735,0,0,0,3.22,0.14,-0.9625,-0.042578,0.036356,-1.01382,-0.23856,0.0546,0.37212
0,0,0,5,5,5,5,-1.30805,-0.0195623,20.4813,-0.00192292,0.00140828,-0.00142824,0,0,0,3.2725,-0.035,-0.9625,-0.042578,0.036356,-1.01382,-0.24178,0.056,0.37254
0,0,0,5,5,5,5,-1.30842,-0.0228924,20.5395,-0.00235074,-0.000307932,0.00779273,0,0,0,3.3425,0.105,-0.9275,-0.043066,0.034648,-1.00467,-0.24178,0.056,0.37254
0,0,0,5,5,5,5,-1.3084,-0.0264388,20.5972,-0.00228885,-0.000307586,0.00779271,0,0,0,3.5525,-0.07,-0.98,-0.043066,0.034648,-1.00467,-0.24178,0.056,0.37254
0,0,0,5,5,5,5,-1.30867,-0.0286281,20.6538,-0.00152172,0.000176298,0.000169778,0,0,0,3.535,0.0875,-1.05,-0.042334,0.035136,-1.01223,-0.24178,0.056,0.37254
0,0,0,5,5,5,5,-1.30895,-0.0309377,20.71,-0.00148141,0.000171298,0.000169643,0,0,0,3.5175,-0.0175,-0.9625,-0.042334,0.035136,-1.01223,-0.24178,0.056,0.37254
0,0,0,5,5,5,5,-1.30895,-0.0305492,20.7639,0.000455579,0.000293451,-0.00241227,0,0,0,3.57,-0.07,-1.085,-0.040382,0.035258,-1.0148,-0.24178,0.056,0.37254
0,0,0,5,5,5,5,-1.30889,-0.0302797,20.8178,0.000450876,0.000294549,-0.00241224,0,0,0,3.605,-0.14,-0.8225,-0.040382,0.035258,-1.0148,-0.24178,0.056,0.37254
0,0,0,5,5,5,5,-1.31184,-0.0283019,20.8709,0.00199567,0.00305198,-0.00548712,0,0,0,3.535,-0.14,-0.805,-0.038796,0.038064,-1.01785,-0.24178,0.056,0.37254
0,0,0,5,5,5,5,-1.3145,-0.0262109,20.9296,0.00195917,0.00300566,-0.00548816,0,0,0,3.675,-0.035,-0.8925,-0.038796,0.038064,-1.01785,-0.23688,0.05362,0.3696
0,0,0,5,5,5,5,-1.31612,-0.0261632,20.9888,0.000500515,0.00187814,-0.000570872,0,0,0,3.71,-0.1225,-0.84,-0.04026,0.036966,-1.01297,-0.23688,0.05362,0.3696
0,0,0,5,5,5,5,-1.31806,-0.0257216,21.0478,0.000492807,0.00184434,-0.000571645,0,0,0,3.5175,0.105,-0.805,-0.04026,0.036966,-1.01297,-0.23688,0.05362,0.3696
0,0,0,5,5,5,5,-1.3175,-0.0276434,21.1072,-0.00141742,-0.000466244,-0.00364515,0,0,0,3.5175,0.0525,-0.805,-0.042212,0.034648,-1.01602,-0.23688,0.05362,0.3696
0,0,0,5,5,5,5,-1.3171,-0.0299075,21.1661,-0.00137791,-0.000459276,-0.00364501,0,0,0,3.43,-0.175,-0.805,-0.042212,0.034648,-1.01602,-0.23688,0.05362,0.3696
0,0,0,5,5,5,5,-1.31652,-0.0307127,21.2237,-0.000391967,-0.000693549,0.001642,0,0,0,3.3775,-0.1575,-0.805,-0.041236,0.034404,-1.01077,-0.23688,0.05362,0.3696
0,0,0,5,5,5,5,-1.31612,-0.0309652,21.2807,-0.000387561,-0.000686456,0.00164216,0,0,0,3.29,0.1575,-0.875,-0.041236,0.034404,-1.01077,-0.23688,0.05362,0.3696
0,0,0,5,5,5,5,-1.31658,-0.0275214,21.3351,0.00246799,0.000404693,0.00951071,0,0,0,3.4125,0.0525,-0.8925,-0.038308,0.035502,-1.00296,-0.23688,0.05362,0.3696
0,0,0,5,5,5,5,-1.31709,-0.0242337,21.3799,0.00241061,0.000395772,0.00951053,0,0,0,3.3775,0,-0.9275,-0.038308,0.035502,-1.00296,-0.24066,0.0581,0.36946
0,0,0,5,5,5,5,-1.31819,-0.0242414,21.4266,0.000102515,0.000865009,-0.00290771,0,0,0,3.3425,0.0525,-0.945,-0.040626,0.03599,-1.01528,-0.24066,0.0581,0.36946
0,0,0,5,5,5,5,-1.31927,-0.0243634,21.473,0.000104645,0.000846121,-0.00290814,0,0,0,3.3425,-0.0175,-0.91,-0.040626,0.03599,-1.01528,-0.24066,0.0581,0.36946
0,0,0,5,5,5,5,-1.32047,-0.0244503,21.5189,0.000349133,0.0011916,-0.00155619,0,0,0,3.5,-0.1575,-0.9275,-0.040382,0.036356,-1.01394,-0.24066,0.0581,0.36946
0,0,0,5,5,5,5,-1.3219,-0.024707,21.5646,0.000353613,0.00116677,-0.00155677,0,0,0,3.36,-0.2625,-0.84,-0.040382,0.036356,-1.01394,-0.24066,0.0581,0.36946
0,0,0,5,5,5,5,-1.322,-0.0234497,21.6087,0.00130356,6.58184e-05,-0.00315513,0,0,0,3.29,-0.2975,-0.84,-0.039406,0.035258,-1.01553,-0.24066,0.0581,0.36946
0,0,0,5,5,5,5,-1.3221,-0.0219867,21.6524,0.00127802,6.40025e-05,-0.00315516,0,0,0,3.29,-0.1575,-0.8925,-0.039406,0.035258,-1.01553,-0.24066,0.0581,0.36946
0,0,0,5,5,5,5,-1.32189,-0.0251323,21.6986,-0.00219016,-0.000787122,0.00213169,0,0,0,3.2725,-0.0175,-0.91,-0.042944,0.034404,-1.01028,-0.24066,0.0581,0.36946
0,0,0,5,5,5,5,-1.32123,-0.0281695,21.7445,-0.00213715,-0.000775689,0.00213193,0,0,0,3.5175,0,-0.875,-0.042944,0.034404,-1.01028,-0.24066,0.0581,0.36946
0,0,0,5,5,5,5,-1.32154,-0.0224606,21.7856,0.00408046,0.000684489,0.00188595,0,0,0,3.43,0.0525,-0.91,-0.0366,0.035868,-1.01053,-0.24094,0.05754,0.37786
0,0,0,5,5,5,5,-1.3226,-0.0283112,21.8332,-0.003714,0.000299498,0.00680341,0,0,0,3.4475,-0.175,-1.1025,-0.04453,0.035502,-1.00565,-0.24094,0.05754,0.37786
0,0,0,5,5,5,5,-1.32345,-0.0342221,21.8805,-0.00361083,0.000284747,0.00680302,0,0,0,3.5525,-0.2975,-1.0675,-0.04453,0.035502,-1.00565,-0.24094,0.05754,0.37786
0,0,0,5,5,5,5,-1.32445,-0.0393977,21.9273,-0.00327753,0.000633751,-0.000574351,0,0,0,3.5525,-0.1575,-1.085,-0.044286,0.035868,-1.01297,-0.24094,0.05754,0.37786
0,0,0,5,5,5,5,-1.32554,-0.0443789,21.9738,-0.00319059,0.000614739,-0.000574855,0,0,0,3.4825,-0.1225,-0.98,-0.044286,0.035868,-1.01297,-0.24094,0.05754,0.37786
0,0,0,5,5,5,5,-1.32523,-0.0439868,22.0164,0.000325652,-0.000479003,-0.000205879,0,0,0,3.29,-0.035,-1.015,-0.040748,0.03477,-1.0126,-0.24094,0.05754,0.37786
0,0,0,5,5,5,5,-1.32492,-0.0431553,22.0587,0.000311139,-0.000473725,-0.000205746,0,0,0,3.29,0.2275,-0.9625,-0.040748,0.03477,-1.0126,-0.24094,0.05754,0.37786
0,0,0,5,5,5,5,-1.32704,-0.0443025,22.1026,-0.000883694,0.00168768,-0.000944306,0,0,0,3.4125,0.2975,-0.98,-0.041968,0.036966,-1.01333,-0.24094,0.05754,0.37786
0,0,0,5,5,5,5,-1.32886,-0.045808,22.1456,-0.000857418,0.00165589,-0.000945063,0,0,0,3.5525,0.07,-0.945,-0.041968,0.036966,-1.01333,-0.24276,0.0574,0.37352
0,0,0,5,5,5,5,-1.32742,-0.0404753,22.1834,0.00354448,-0.000761474,0.000162127,0,0,0,3.4825,0.1225,-0.8925,-0.037454,0.034526,-1.01223,-0.24276,0.0574,0.37352
0,0,0,5,5,5,5,-1.32614,-0.035341,22.2208,0.00345487,-0.000739188,0.000162702,0,0,0,3.4125,0.0875,-0.9625,-0.037454,0.034526,-1.01223,-0.24276,0.0574,0.37352
0,0,0,5,5,5,5,-1.32567,-0.0288426,22.2572,0.00455631,0.000368066,-0.00168127,0,0,0,3.5525,0.0875,-0.9625,-0.036234,0.035624,-1.01406,-0.24276,0.0574,0.37352
0,0,0,5,5,5,5,-1.32508,-0.022355,22.2934,0.00444308,0.000378483,-0.00168098,0,0,0,3.64,0.175,-0.9275,-0.036234,0.035624,-1.01406,-0.24276,0.0574,0.37352
0,0,0,5,5,5,5,-1.3272,-0.0229554,22.3341,-4.14145e-05,0.00217329,0.00188366,0,0,0,3.6925,-0.0175,-0.9275,-0.040748,0.037454,-1.01053,-0.24276,0.0574,0.37352
0,0,0,5,5,5,5,-1.32982,-0.0233829,22.3746,-3.39542e-05,0.00212771,0.0018826,0,0,0,3.395,0.07,-0.875,-0.040748,0.037454,-1.01053,-0.24276,0.0574,0.37352
0,0,0,5,5,5,5,-1.33236,-0.0278601,22.4175,-0.00299295,0.00183902,-0.00156102,0,0,0,3.43,0.1225,-0.805,-0.043798,0.03721,-1.01394,-0.24276,0.0574,0.37352
0,0,0,5,5,5,5,-1.33459,-0.0324188,22.4577,-0.00291339,0.00180009,-0.00156197,0,0,0,3.57,0,-0.875,-0.043798,0.03721,-1.01394,-0.24178,0.05908,0.37562
0,0,0,5,5,5,5,-1.33537,-0.0312093,22.4938,0.00107453,0.000687322,0.00274092,0,0,0,3.4125,-0.0525,-0.8225,-0.039772,0.036112,-1.00967,-0.24178,0.05908,0.37562
0,0,0,5,5,5,5,-1.33633,-0.0302694,22.5295,0.00105812,0.000670644,0.00274054,0,0,0,3.3075,-0.1925,-0.91,-0.039772,0.036112,-1.00967,-0.24178,0.05908,0.37562
0,0,0,5,5,5,5,-1.33565,-0.0345509,22.5677,-0.00275469,-0.00114945,0.00163424,0,0,0,3.3425,-0.2625,-0.9275,-0.043676,0.034282,-1.01077,-0.24178,0.05908,0.37562
0,0,0,5,5,5,5,-1.33482,-0.0382818,22.6055,-0.00268958,-0.00113498,0.00163453,0,0,0,3.43,0,-0.9275,-0.043676,0.034282,-1.01077,-0.24178,0.05908,0.37562
0,0,0,5,5,5,5,-1.33571,-0.0388894,22.6418,-0.000370743,0.000559366,0.000773525,0,0,0,3.36,0.07,-0.8925,-0.041358,0.03599,-1.01162,-0.24178,0.05908,0.37562
0,0,0,5,5,5,5,-1.33639,-0.0397524,22.6775,-0.000355681,0.000547532,0.000773239,0,0,0,3.465,-0.0875,-0.9975,-0.041358,0.03599,-1.01162,-0.24178,0.05908,0.37562
0,0,0,5,5,5,5,-1.33664,-0.0362133,22.7103,0.00261969,0.000421031,0.00409279,0,0,0,3.43,0,-0.98,-0.038308,0.035868,-1.00833,-0.24178,0.05908,0.37562
0,0,0,5,5,5,5,-1.33708,-0.0328544,22.7407,0.00256107,0.000413303,0.00409264,0,0,0,3.325,-0.0525,-0.9975,-0.038308,0.035868,-1.00833,-0.23982,0.06104,0.37534
0,0,0,5,5,5,5,-1.34081,-0.0385312,22.7772,-0.00365711,0.00279068,-0.00426944,0,0,0,3.3775,0.035,-1.05,-0.044652,0.038308,-1.01663,-0.23982,0.06104,0.37534
0,0,0,5,5,5,5,-1.34453,-0.0441158,22.8135,-0.00355964,0.00272594,-0.00427103,0,0,0,3.3425,0,-0.9975,-0.044652,0.038308,-1.01663,-0.23982,0.06104,0.37534
0,0,0,5,5,5,5,-1.34634,-0.0437084,22.8455,0.000563765,0.00171719,-0.00365703,0,0,0,3.43,0,-1.0325,-0.040504,0.037332,-1.01602,-0.23982,0.06104,0.37534
0,0,0,5,5,5,5,-1.34788,-0.0431834,22.8773,0.000554601,0.00169043,-0.00365765,0,0,0,3.57,0.07,-0.9625,-0.040504,0.037332,-1.01602,-0.23982,0.06104,0.37534
0,0,0,5,5,5,5,-1.3516,-0.0421321,22.9093,0.00102219,0.00370164,-0.00587224,0,0,0,3.5525,0.1925,-0.945,-0.040016,0.039406,-1.01821,-0.23982,0.06104,0.37534
0,0,0,5,5,5,5,-1.35541,-0.0409763,22.941,0.00100202,0.00363522,-0.00587379,0,0,0,3.465,0.2625,-0.9625,-0.040016,0.039406,-1.01821,-0.23982,0.06104,0.37534
0,0,0,5,5,5,5,-1.3551,-0.0406487,22.972,-9.70649e-05,-0.000145444,-0.00341469,0,0,0,3.4825,0.2975,-0.98,-0.041114,0.035624,-1.01577,-0.23982,0.06104,0.37534
0,0,0,5,5,5,5,-1.35459,-0.0407184,23.0016,-9.58484e-05,-0.000136493,-0.00341448,0,0,0,3.605,0.07,-0.98,-0.041114,0.035624,-1.01577,-0.23898,0.06188,0.3654
0,0,0,5,5,5,5,-1.35418,-0.0426307,23.0321,-0.00127733,-0.000251444,0.00224129,0,0,0,3.6575,-0.0175,-1.015,-0.042334,0.035502,-1.01016,-0.23898,0.06188,0.3654
0,0,0,5,5,5,5,-1.35415,-0.0447649,23.0624,-0.00124008,-0.000250868,0.00224128,0,0,0,3.4475,-0.175,-0.98,-0.042334,0.035502,-1.01016,-0.23898,0.06188,0.3654
0,0,0,5,5,5,5,-1.35314,-0.0425744,23.0897,0.00163734,-0.000843955,0.000151598,0,0,0,3.3425,-0.105,-0.875,-0.039406,0.034892,-1.01223,-0.23898,0.06188,0.3654
0,0,0,5,5,5,5,-1.35179,-0.0403495,23.117,0.00159851,-0.000820311,0.000152185,0,0,0,3.5525,-0.0525,-0.84,-0.039406,0.034892,-1.01223,-0.23898,0.06188,0.3654
0,0,0,5,5,5,5,-1.35032,-0.0387989,23.1444,0.00120699,-0.000550414,-0.00611757,0,0,0,3.7275,-0.105,-0.8575,-0.039772,0.035136,-1.01846,-0.23898,0.06188,0.3654
0,0,0,5,5,5,5,-1.34966,-0.0369328,23.1715,0.00117442,-0.000538953,-0.00611727,0,0,0,3.29,0.105,-0.875,-0.039772,0.035136,-1.01846,-0.23898,0.06188,0.3654
0,0,0,5,5,5,5,-1.35106,-0.0379368,23.2006,-0.00063034,0.000779943,-9.33861e-05,0,0,0,3.22,0.07,-0.875,-0.041602,0.036478,-1.01248,-0.23898,0.06188,0.3654
0,0,0,5,5,5,5,-1.35266,-0.0391232,23.2294,-0.000609633,0.000752157,-9.40558e-05,0,0,0,3.0975,-0.0525,-0.9275,-0.041602,0.036478,-1.01248,-0.23898,0.06188,0.3654
0,0,0,5,5,5,5,-1.35381,-0.0370218,23.2593,0.00154043,0.00085423,-0.00193873,0,0,0,3.2025,0.105,-0.98,-0.039406,0.0366,-1.01431,-0.23772,0.06034,0.37576
0,0,0,5,5,5,5,-1.35472,-0.0347558,23.2892,0.00150088,0.000838297,-0.00193908,0,0,0,3.325,0.2275,-0.91,-0.039406,0.0366,-1.01431,-0.23772,0.06034,0.37576
0,0,0,5,5,5,5,-1.3525,-0.0350134,23.3197,-0.000559877,-0.00217617,0.00199618,0,0,0,3.3775,0.14,-0.7875,-0.04148,0.03355,-1.0104,-0.23772,0.06034,0.37576
0,0,0,5,5,5,5,-1.35033,-0.0352715,23.35,-0.000555373,-0.00213822,0.00199707,0,0,0,3.3775,0.14,-0.7875,-0.04148,0.03355,-1.0104,-0.23772,0.06034,0.37576
0,0,0,5,5,5,5,-1.34937,-0.0405566,23.3831,-0.00374324,-0.00114449,-0.00439592,0,0,0,3.5,-0.105,-0.91,-0.044774,0.034526,-1.01675,-0.23772,0.06034,0.37576
0,0,0,5,5,5,5,-1.34842,-0.0457173,23.4159,-0.00365317,-0.00112789,-0.00439559,0,0,0,3.5,-0.105,-0.91,-0.044774,0.034526,-1.01675,-0.23772,0.06034,0.37576
0,0,0,5,5,5,5,-1.34957,-0.0491492,23.4481,-0.00225693,0.000806007,-0.000338818,0,0,0,3.5,-0.0175,-0.91,-0.043432,0.036478,-1.01272,-0.23772,0.06034,0.37576
0,0,0,5,5,5,5,-1.35069,-0.052495,23.4801,-0.00219854,0.000786407,-0.000339331,0,0,0,3.5,-0.0175,-0.91,-0.043432,0.036478,-1.01272,-0.23772,0.06034,0.37576
0,0,0,5,5,5,5,-1.35135,-0.0540204,23.5115,-0.000835572,0.000286367,-0.00661,0,0,0,3.2375,-0.14,-0.9625,-0.04209,0.03599,-1.01894,-0.2387,0.05922,0.37156
0,0,0,5,5,5,5,-1.35503,-0.0551325,23.5431,-0.000208733,0.00290909,-0.00329192,0,0,0,3.22,-0.1225,-1.015,-0.04148,0.038674,-1.01565,-0.2387,0.05922,0.37156
0,0,0,5,5,5,5,-1.35825,-0.0552498,23.5746,-0.000206685,0.00285287,-0.00329326,0,0,0,3.43,0.4375,-0.98,-0.04148,0.038674,-1.01565,-0.2387,0.05922,0.37156
0,0,0,5,5,5,5,-1.35758,-0.0544711,23.6043,0.00014418,-0.000188702,-0.00550604,0,0,0,3.605,0.35,-0.98,-0.041114,0.035624,-1.01785,-0.2387,0.05922,0.37156
0,0,0,5,5,5,5,-1.35706,-0.0540991,23.6338,0.000137688,-0.000179548,-0.00550582,0,0,0,3.535,0.1225,-0.9275,-0.041114,0.035624,-1.01785,-0.2387,0.05922,0.37156
0,0,0,5,5,5,5,-1.35538,-0.0522935,23.6619,0.00119954,-0.00149365,0.00519142,0,0,0,3.4125,-0.0175,-0.875,-0.040016,0.034282,-1.00723,-0.2387,0.05922,0.37156
0,0,0,5,5,5,5,-1.35361,-0.0507492,23.6896,0.00117259,-0.00146284,0.00519218,0,0,0,3.4825,-0.14,-0.9625,-0.040016,0.034282,-1.00723,-0.2387,0.05922,0.37156
0,0,0,5,5,5,5,-1.35342,-0.0484181,23.7167,0.00198231,-0.000238094,0.00752831,0,0,0,3.36,-0.21,-1.0325,-0.039162,0.035502,-1.00491,-0.2387,0.05922,0.37156
0,0,0,5,5,5,5,-1.35325,-0.0462842,23.7343,0.00194506,-0.000235282,0.00752841,0,0,0,3.3425,-0.2975,-0.9625,-0.039162,0.035502,-1.00491,-0.2394,0.06496,0.36862
0,0,0,5,5,5,5,-1.35328,-0.0476274,23.7541,-0.000704179,-0.000357905,0.00715954,0,0,0,3.3775,-0.1575,-0.8925,-0.041846,0.03538,-1.00528,-0.2394,0.06496,0.36862
0,0,0,5,5,5,5,-1.35324,-0.0486374,23.7739,-0.00068655,-0.000357246,0.00715954,0,0,0,3.4125,0.0175,-0.84,-0.041846,0.03538,-1.00528,-0.2394,0.06496,0.36862
0,0,0,5,5,5,5,-1.35195,-0.0485555,23.7926,-8.05515e-05,-0.00131168,0.00556174,0,0,0,3.43,0.0525,-0.805,-0.041236,0.034404,-1.00687,-0.2394,0.06496,0.36862
0,0,0,5,5,5,5,-1.35093,-0.0484522,23.8111,-8.23541e-05,-0.0012939,0.00556216,0,0,0,3.29,0.07,-0.875,-0.041236,0.034404,-1.00687,-0.2394,0.06496,0.36862
0,0,0,5,5,5,5,-1.35471,-0.0500534,23.8318,-0.000904809,0.00303674,-0.00525889,0,0,0,3.255,0.14,-0.875,-0.04209,0.038796,-1.0176,-0.2394,0.06496,0.36862
0,0,0,5,5,5,5,-1.35847,-0.0517245,23.8523,-0.000875643,0.0029711,-0.00526047,0,0,0,3.22,0.07,-0.875,-0.04209,0.038796,-1.0176,-0.2394,0.06496,0.36862
0,0,0,5,5,5,5,-1.35523,-0.0514944,23.8697,-0.000150743,-0.00356713,0.00838816,0,0,0,3.1325,-0.0175,-0.84,-0.041358,0.032208,-1.00406,-0.2394,0.06496,0.36862
0,0,0,5,5,5,5,-1.35179,-0.0510865,23.8919,-0.000157863,-0.00350714,0.00838958,0,0,0,3.2725,0.0875,-0.945,-0.041358,0.032208,-1.00406,-0.2408,0.06132,0.36974
0,0,0,5,5,5,5,-1.35269,-0.046851,23.9126,0.00304833,0.000995807,0.00138121,0,0,0,3.3425,0.14,-1.015,-0.038064,0.036722,-1.01101,-0.2408,0.06132,0.36974
0,0,0,5,5,5,5,-1.3534,-0.043369,23.9333,0.00298755,0.000983452,0.00138097,0,0,0,3.4475,-0.245,-0.945,-0.038064,0.036722,-1.01101,-0.2408,0.06132,0.36974
0,0,0,5,5,5,5,-1.35337,-0.0412826,23.9547,0.0016148,7.02934e-06,0.00494651,0,0,0,3.4125,-0.035,-0.91,-0.039406,0.035746,-1.00748,-0.2408,0.06132,0.36974
0,0,0,5,5,5,5,-1.35309,-0.0391315,23.9758,0.00157725,1.18788e-05,0.00494665,0,0,0,3.5525,0.035,-1.015,-0.039406,0.035746,-1.00748,-0.2408,0.06132,0.36974
0,0,0,5,5,5,5,-1.3539,-0.0363511,23.9965,0.00213615,0.00109686,0.00162674,0,0,0,3.535,0.0525,-1.0675,-0.038796,0.036844,-1.01077,-0.2408,0.06132,0.36974
0,0,0,5,5,5,5,-1.35495,-0.033987,24.0173,0.00209489,0.0010785,0.00162633,0,0,0,3.395,-0.1575,-0.91,-0.038796,0.036844,-1.01077,-0.2408,0.06132,0.36974
0,0,0,5,5,5,5,-1.35337,-0.0323344,24.0375,0.00133714,-0.00121436,-0.00279914,0,0,0,3.4125,-0.1925,-0.9975,-0.039528,0.034526,-1.01516,-0.2408,0.06132,0.36974
0,0,0,5,5,5,5,-1.35151,-0.030268,24.0651,0.00130107,-0.00118192,-0.00279836,0,0,0,3.5875,0.07,-0.91,-0.039528,0.034526,-1.01516,-0.24206,0.05628,0.37324
0,0,0,5,5,5,5,-1.34921,-0.0317733,24.0943,-0.00122386,-0.00199657,-0.00427281,0,0,0,3.5175,-0.0525,-0.91,-0.04209,0.033672,-1.01663,-0.24206,0.05628,0.37324
0,0,0,5,5,5,5,-1.34729,-0.0328903,24.1234,-0.00120436,-0.00196305,-0.00427203,0,0,0,3.325,0.1575,-0.8925,-0.04209,0.033672,-1.01663,-0.24206,0.05628,0.37324
0,0,0,5,5,5,5,-1.3505,-0.0330844,24.1531,0.000135369,0.00249949,0.00359535,0,0,0,3.29,0.105,-0.7875,-0.040748,0.038186,-1.00882,-0.24206,0.05628,0.37324
0,0,0,5,5,5,5,-1.35325,-0.0332995,24.1823,0.000139124,0.00245152,0.00359422,0,0,0,3.5175,0.0875,-0.9275,-0.040748,0.038186,-1.00882,-0.24206,0.05628,0.37324
0,0,0,5,5,5,5,-1.35576,-0.0330883,24.2109,0.000499895,0.00240777,0.00224075,0,0,0,3.57,0.035,-0.9625,-0.040382,0.038186,-1.01016,-0.24206,0.05628,0.37324
0,0,0,5,5,5,5,-1.3585,-0.033112,24.2394,0.000500308,0.00235996,0.00223962,0,0,0,3.4125,-0.105,-0.9275,-0.040382,0.038186,-1.01016,-0.24206,0.05628,0.37324
0,0,0,5,5,5,5,-1.35576,-0.029555,24.2642,0.002382,-0.00198882,-0.00648856,0,0,0,3.43,-0.0175,-0.9625,-0.03843,0.033794,-1.01882,-0.24206,0.05628,0.37324
0,0,0,5,5,5,5,-1.35315,-0.0259343,24.2871,0.0023188,-0.00194319,-0.00648745,0,0,0,3.395,0.07,-0.8575,-0.03843,0.033794,-1.01882,-0.24136,0.05754,0.36778
0,0,0,5,5,5,5,-1.35454,-0.0250933,24.3123,0.000846298,0.000963534,0.00150364,0,0,0,3.2375,-0.035,-0.91,-0.039894,0.036722,-1.01089,-0.24136,0.05754,0.36778
0,0,0,5,5,5,5,-1.35572,-0.0244184,24.3373,0.000834518,0.000942927,0.00150315,0,0,0,3.3425,-0.1225,-0.9275,-0.039894,0.036722,-1.01089,-0.24136,0.05754,0.36778
0,0,0,5,5,5,5,-1.35702,-0.023171,24.3619,0.0011772,0.00116453,0.00654351,0,0,0,3.465,-0.035,-0.9625,-0.039528,0.036966,-1.00589,-0.24136,0.05754,0.36778
0,0,0,5,5,5,5,-1.35845,-0.021535,24.3861,0.00114865,0.00113954,0.00654293,0,0,0,3.3775,0.21,-1.05,-0.039528,0.036966,-1.00589,-0.24136,0.05754,0.36778
0,0,0,5,5,5,5,-1.35869,-0.0217984,24.411,-0.000426065,-0.000208028,0.000764253,0,0,0,3.2375,0.2275,-0.9975,-0.041114,0.035624,-1.01162,-0.24136,0.05754,0.36778
0,0,0,5,5,5,5,-1.35833,-0.0223805,24.4359,-0.000415906,-0.000201769,0.000764397,0,0,0,3.57,0.035,-0.9275,-0.041114,0.035624,-1.01162,-0.24136,0.05754,0.36778
0,0,0,5,5,5,5,-1.35756,-0.0171156,24.457,0.00386569,-6.62504e-05,-0.000218842,0,0,0,3.5,-0.0175,-0.84,-0.036722,0.035746,-1.0126,-0.24136,0.05754,0.36778
0,0,0,5,5,5,5,-1.35708,-0.0119228,24.4778,0.00377506,-5.77059e-05,-0.000218616,0,0,0,3.36,0.0175,-0.9275,-0.036722,0.035746,-1.0126,-0.24136,0.05754,0.36778
0,0,0,5,5,5,5,-1.35832,-0.0146274,24.4994,-0.00188756,0.000775545,-9.61915e-05,0,0,0,3.4125,0.0875,-0.805,-0.042456,0.0366,-1.01248,-0.24262,0.05992,0.36638
0,0,0,5,5,5,5,-1.35987,-0.0154728,24.5196,-0.000293496,0.00111484,-0.00169517,0,0,0,3.29,-0.0875,-0.875,-0.04087,0.036966,-1.01406,-0.24262,0.05992,0.36638
0,0,0,5,5,5,5,-1.36154,-0.0166205,24.5397,-0.000273466,0.00108559,-0.00169587,0,0,0,3.2025,-0.28,-0.84,-0.04087,0.036966,-1.01406,-0.24262,0.05992,0.36638
0,0,0,5,5,5,5,-1.36266,-0.0180511,24.5596,-0.000612954,0.000699662,-0.00218814,0,0,0,3.29,-0.21,-0.9625,-0.041236,0.0366,-1.01455,-0.24262,0.05992,0.36638
0,0,0,5,5,5,5,-1.36338,-0.0188435,24.5795,-0.000599125,0.000687089,-0.00218844,0,0,0,3.5,0.14,-0.875,-0.041236,0.0366,-1.01455,-0.24262,0.05992,0.36638
0,0,0,5,5,5,5,-1.36105,-0.013616,24.5946,0.00356164,-0.0015926,-0.000712063,0,0,0,3.43,0.0525,-0.91,-0.036966,0.034282,-1.01309,-0.24262,0.05992,0.36638
0,0,0,5,5,5,5,-1.35878,-0.00837537,24.6095,0.00347017,-0.00155291,-0.000711103,0,0,0,3.43,0.14,-1.015,-0.036966,0.034282,-1.01309,-0.24262,0.05992,0.36638
0,0,0,5,5,5,5,-1.35736,-0.00626637,24.6259,0.00136811,-0.00103966,-0.00403012,0,0,0,3.4125,0.07,-1.1375,-0.03904,0.03477,-1.01638,-0.24262,0.05992,0.36638
0,0,0,5,5,5,5,-1.35582,-0.00414023,24.6461,0.001331,-0.00101276,-0.00402948,0,0,0,3.5,0.105,-0.875,-0.03904,0.03477,-1.01638,-0.24164,0.0581,0.36568
0,0,0,5,5,5,5,-1.35633,-0.00613347,24.669,-0.00142838,0.000199625,0.000765297,0,0,0,3.43,0.07,-0.8225,-0.041846,0.03599,-1.01162,-0.24164,0.0581,0.36568
0,0,0,5,5,5,5,-1.35719,-0.00861717,24.6918,-0.00138504,0.000184466,0.000764933,0,0,0,3.22,-0.245,-0.875,-0.041846,0.03599,-1.01162,-0.24164,0.0581,0.36568
0,0,0,5,5,5,5,-1.35738,-0.0109173,24.7143,-0.00146638,-0.000673737,0.00285497,0,0,0,3.0975,-0.1575,-0.7875,-0.041968,0.035136,-1.00955,-0.24164,0.0581,0.36568
0,0,0,5,5,5,5,-1.35732,-0.0132276,24.7364,-0.00142605,-0.00067253,0.00285499,0,0,0,3.2375,-0.1925,-0.9275,-0.041968,0.035136,-1.00955,-0.24164,0.0581,0.36568
0,0,0,5,5,5,5,-1.3585,-0.015661,24.7587,-0.00150507,0.000772371,-0.0021864,0,0,0,3.3775,-0.07,-1.05,-0.04209,0.0366,-1.01455,-0.24164,0.0581,0.36568
0,0,0,5,5,5,5,-1.35952,-0.0179946,24.7813,-0.00146434,0.000754437,-0.00218683,0,0,0,3.4475,-0.0525,-0.84,-0.04209,0.0366,-1.01455,-0.24164,0.0581,0.36568
0,0,0,5,5,5,5,-1.35854,-0.0157706,24.8004,0.00177696,-0.000571728,0.000887299,0,0,0,3.5,-0.14,-0.805,-0.038796,0.035258,-1.0115,-0.24164,0.0581,0.36568
0,0,0,5,5,5,5,-1.35764,-0.0134092,24.8159,0.00173574,-0.000556042,0.000887682,0,0,0,3.465,-0.0175,-1.12,-0.038796,0.035258,-1.0115,-0.24346,0.0595,0.37128
0,0,0,5,5,5,5,-1.36058,-0.0170565,24.836,-0.00233111,0.00244577,0.00137824,0,0,0,3.57,0.07,-1.1725,-0.042944,0.038308,-1.01101,-0.24346,0.0595,0.37128
0,0,0,5,5,5,5,-1.36377,-0.0207449,24.8565,-0.00226674,0.00239013,0.0013769,0,0,0,3.395,-0.0175,-0.8575,-0.042944,0.038308,-1.01101,-0.24346,0.0595,0.37128
0,0,0,5,5,5,5,-1.36341,-0.02255,24.8748,-0.00114186,-0.000534578,-0.00292616,0,0,0,3.3775,-0.14,-0.8225,-0.041846,0.03538,-1.01528,-0.24346,0.0595,0.37128
0,0,0,5,5,5,5,-1.36286,-0.0245543,24.8929,-0.00110688,-0.000525016,-0.00292595,0,0,0,3.4825,-0.28,-0.875,-0.041846,0.03538,-1.01528,-0.24346,0.0595,0.37128
0,0,0,5,5,5,5,-1.36196,-0.0222434,24.9083,0.00188993,-0.000387276,-0.000466592,0,0,0,3.535,-0.1575,-0.84,-0.038796,0.035502,-1.01284,-0.24346,0.0595,0.37128
0,0,0,5,5,5,5,-1.36109,-0.019929,24.9237,0.00184954,-0.000372069,-0.000466215,0,0,0,3.535,-0.1225,-0.805,-0.038796,0.035502,-1.01284,-0.24346,0.0595,0.37128
0,0,0,5,5,5,5,-1.36197,-0.0197485,24.9407,0.000388556,0.000711697,0.00371367,0,0,0,3.43,-0.07,-0.84,-0.04026,0.0366,-1.0087,-0.24346,0.0595,0.37128
0,0,0,5,5,5,5,-1.36265,-0.0195157,24.9546,0.000384494,0.0006999,0.00371339,0,0,0,3.535,-0.035,-1.0325,-0.04026,0.0366,-1.0087,-0.2436,0.06104,0.36806
0,0,0,5,5,5,5,-1.36337,-0.0199423,24.9687,-0.00021549,0.000443071,0.00199181,0,0,0,3.3775,0.035,-1.0675,-0.04087,0.036356,-1.0104,-0.2436,0.06104,0.36806
0,0,0,5,5,5,5,-1.36417,-0.0206182,24.9831,-0.000203692,0.000429122,0.00199147,0,0,0,3.325,-0.1225,-0.8925,-0.04087,0.036356,-1.0104,-0.2436,0.06104,0.36806
0,0,0,5,5,5,5,-1.36388,-0.0175355,24.9947,0.00241519,6.77598e-05,-0.00809017,0,0,0,3.325,-0.0875,-0.9275,-0.038186,0.03599,-1.02041,-0.2436,0.06104,0.36806
0,0,0,5,5,5,5,-1.36377,-0.0147302,25.0066,0.00236623,6.98155e-05,-0.0080901,0,0,0,3.2375,-0.21,-0.7875,-0.038186,0.03599,-1.02041,-0.2436,0.06104,0.36806
0,0,0,5,5,5,5,-1.36549,-0.0143759,25.0203,0.000537759,0.00126106,0.00346634,0,0,0,3.29,-0.035,-0.875,-0.040016,0.03721,-1.00894,-0.2436,0.06104,0.36806
0,0,0,5,5,5,5,-1.36702,-0.0141838,25.0335,0.000534405,0.00123432,0.0034657,0,0,0,3.3775,-0.1225,-1.1025,-0.040016,0.03721,-1.00894,-0.2436,0.06104,0.36806
0,0,0,5,5,5,5,-1.36752,-0.0157078,25.0477,-0.00101831,-0.000117855,0.00666215,0,0,0,3.29,0,-0.98,-0.041602,0.035868,-1.00577,-0.2436,0.06104,0.36806
0,0,0,5,5,5,5,-1.36795,-0.0171576,25.0686,-0.000993006,-0.000125306,0.00666196,0,0,0,3.325,0.0175,-0.84,-0.041602,0.035868,-1.00577,-0.24164,0.0574,0.3647
0,0,0,5,5,5,5,-1.37023,-0.0176721,25.0893,-1.21401e-05,0.00154464,0.00211191,0,0,0,3.185,-0.07,-0.7175,-0.040626,0.037576,-1.01028,-0.24164,0.0574,0.3647
0,0,0,5,5,5,5,-1.37228,-0.0183235,25.1095,-7.71516e-07,0.00150887,0.00211105,0,0,0,3.29,-0.1575,-0.875,-0.040626,0.037576,-1.01028,-0.24164,0.0574,0.3647
0,0,0,5,5,5,5,-1.37462,-0.0205852,25.1308,-0.00117615,0.00171239,0.00420019,0,0,0,3.395,-0.1225,-0.8925,-0.041846,0.03782,-1.00821,-0.24164,0.0574,0.3647
0,0,0,5,5,5,5,-1.37678,-0.022817,25.1519,-0.0011372,0.00167472,0.00419927,0,0,0,3.465,-0.14,-0.91,-0.041846,0.03782,-1.00821,-0.24164,0.0574,0.3647
0,0,0,5,5,5,5,-1.37529,-0.0231927,25.1709,-0.000280245,-0.00110821,0.00567527,0,0,0,3.6925,-0.035,-0.9625,-0.040992,0.035014,-1.00674,-0.24164,0.0574,0.3647
0,0,0,5,5,5,5,-1.37414,-0.0234153,25.1897,-0.00027636,-0.00108815,0.00567575,0,0,0,3.5175,0.0525,-0.98,-0.040992,0.035014,-1.00674,-0.24164,0.0574,0.3647
0,0,0,5,5,5,5,-1.37376,-0.0250727,25.2093,-0.00121932,-0.000470986,-0.00538947,0,0,0,3.395,0,-0.98,-0.041968,0.035624,-1.01772,-0.24164,0.0574,0.3647
0,0,0,5,5,5,5,-1.37308,-0.0265728,25.2288,-0.00119314,-0.000459056,-0.00538919,0,0,0,3.57,0.07,-0.98,-0.041968,0.035624,-1.01772,-0.24164,0.0574,0.3647
0,0,0,5,5,5,5,-1.36925,-0.0188928,25.2414,0.00535454,-0.00246836,-0.004281,0,0,0,3.5175,0,-0.875,-0.035258,0.03355,-1.01663,-0.24332,0.05726,0.3696
0,0,0,5,5,5,5,-1.3708,-0.0175591,25.2589,0.00120074,0.00129039,0.00592308,0,0,0,3.3775,0.0175,-0.9275,-0.039406,0.037332,-1.0065,-0.24332,0.05726,0.3696
0,0,0,5,5,5,5,-1.3723,-0.0162536,25.2763,0.00117796,0.00126421,0.00592246,0,0,0,3.395,0.0175,-0.9625,-0.039406,0.037332,-1.0065,-0.24332,0.05726,0.3696
0,0,0,5,5,5,5,-1.37288,-0.0138256,25.2926,0.00174301,0.000521351,0.00616813,0,0,0,3.395,0.14,-1.015,-0.038796,0.0366,-1.00626,-0.24332,0.05726,0.3696
0,0,0,5,5,5,5,-1.37368,-0.0112995,25.3089,0.00169892,0.000507521,0.0061678,0,0,0,3.2725,0.2275,-0.91,-0.038796,0.0366,-1.00626,-0.24332,0.05726,0.3696
0,0,0,5,5,5,5,-1.37386,-0.0130821,25.3276,-0.00155008,-0.000228409,-0.000225601,0,0,0,3.3425,0.2275,-0.91,-0.04209,0.035868,-1.0126,-0.24332,0.05726,0.3696
0,0,0,5,5,5,5,-1.37422,-0.015088,25.3462,-0.00151507,-0.000234706,-0.00022576,0,0,0,3.2375,0.07,-0.84,-0.04209,0.035868,-1.0126,-0.24332,0.05726,0.3696
0,0,0,5,5,5,5,-1.37376,-0.018489,25.3634,-0.0024276,-0.00108159,0.00137274,0,0,0,3.2725,-0.0875,-0.84,-0.043066,0.035014,-1.01101,-0.24402,0.0581,0.3661
0,0,0,5,5,5,5,-1.37473,-0.0150142,25.3769,0.00297861,0.00122191,0.00026582,0,0,0,3.4125,-0.175,-0.805,-0.037576,0.037332,-1.01211,-0.24402,0.0581,0.3661
0,0,0,5,5,5,5,-1.37569,-0.0112952,25.39,0.0029137,0.00120516,0.000265433,0,0,0,3.4125,0.0175,-0.9275,-0.037576,0.037332,-1.01211,-0.24402,0.0581,0.3661
0,0,0,5,5,5,5,-1.37336,-0.00485496,25.4005,0.0045021,-0.00156314,-0.00108601,0,0,0,3.36,0.0525,-0.945,-0.035868,0.034526,-1.01345,-0.24402,0.0581,0.3661
0,0,0,5,5,5,5,-1.37088,0.00148702,25.4109,0.00439141,-0.0015198,-0.00108497,0,0,0,3.4825,0.0875,-0.9275,-0.035868,0.034526,-1.01345,-0.24402,0.0581,0.3661
0,0,0,5,5,5,5,-1.36976,0.00336238,25.4242,0.00120005,-0.000767546,-0.00292873,0,0,0,3.4475,0.105,-0.8575,-0.03904,0.035258,-1.01528,-0.24402,0.0581,0.3661
0,0,0,5,5,5,5,-1.36876,0.00503738,25.4374,0.00117082,-0.00075015,-0.00292832,0,0,0,3.395,0.0175,-0.945,-0.03904,0.035258,-1.01528,-0.24402,0.0581,0.3661
0,0,0,5,5,5,5,-1.36787,0.00242486,25.4529,-0.00194221,-0.00122307,0.00100641,0,0,0,3.3775,-0.035,-0.9275,-0.042212,0.03477,-1.01138,-0.24402,0.0581,0.3661
0,0,0,5,5,5,5,-1.36685,0.000250484,25.4759,-0.00190426,-0.00120531,0.00100683,0,0,0,3.4475,0.175,-0.9625,-0.042212,0.03477,-1.01138,-0.2366,0.05572,0.36596
0,0,0,5,5,5,5,-1.36562,5.73021e-05,25.4975,-0.000321577,-0.00106167,-0.00661546,0,0,0,3.4125,0.07,-0.91,-0.040626,0.034892,-1.01894,-0.2366,0.05572,0.36596
0,0,0,5,5,5,5,-1.36435,-0.000552435,25.5189,-0.000310935,-0.00103948,-0.00661493,0,0,0,3.4475,-0.175,-0.8925,-0.040626,0.034892,-1.01894,-0.2366,0.05572,0.36596
0,0,0,5,5,5,5,-1.36356,0.00207947,25.5386,0.00195136,-0.000415043,-0.00120487,0,0,0,3.4475,0,-0.8575,-0.038308,0.035502,-1.01358,-0.2366,0.05572,0.36596
0,0,0,5,5,5,5,-1.36332,0.00452955,25.5582,0.0019086,-0.00041088,-0.00120477,0,0,0,3.15,-0.07,-0.8225,-0.038308,0.035502,-1.01358,-0.2366,0.05572,0.36596
0,0,0,5,5,5,5,-1.3619,0.00597553,25.5779,0.000911473,-0.00124111,0.00174658,0,0,0,3.4125,0.0525,-0.9625,-0.039284,0.034648,-1.01065,-0.2366,0.05572,0.36596
0,0,0,5,5,5,5,-1.36012,0.00752777,25.5973,0.000884382,-0.00120992,0.00174731,0,0,0,3.64,0.14,-1.085,-0.039284,0.034648,-1.01065,-0.2366,0.05572,0.36596
0,0,0,5,5,5,5,-1.36251,0.00878492,25.6179,0.00110541,0.00241209,0.00641836,0,0,0,3.6225,0.175,-1.05,-0.03904,0.038308,-1.00601,-0.2366,0.05572,0.36596
0,0,0,5,5,5,5,-1.3653,0.00987498,25.6386,0.00108639,0.00236342,0.0064172,0,0,0,3.3775,0.0875,-0.945,-0.03904,0.038308,-1.00601,-0.2366,0.05572,0.36596
0,0,0,5,5,5,5,-1.36696,0.0128836,25.6444,0.00224873,0.00160166,0.00629355,0,0,0,3.4125,0.175,-0.9625,-0.03782,0.037576,-1.00613,-0.2457,0.06118,0.36358
0,0,0,5,5,5,5,-1.36634,0.00830493,25.6536,-0.0032597,-0.00119638,-0.00341911,0,0,0,3.3075,-0.14,-0.9975,-0.043432,0.03477,-1.01577,-0.2457,0.06118,0.36358
0,0,0,5,5,5,5,-1.36587,0.00404126,25.6627,-0.00318528,-0.00118822,-0.00341891,0,0,0,3.22,-0.0175,-0.9975,-0.043432,0.03477,-1.01577,-0.2457,0.06118,0.36358
0,0,0,5,5,5,5,-1.36829,0.00360579,25.6702,-1.90524e-05,0.00157845,0.00850609,0,0,0,3.22,0,-1.0675,-0.04026,0.037576,-1.00394,-0.2457,0.06118,0.36358
0,0,0,5,5,5,5,-1.37032,0.0033133,25.678,-1.39475e-05,0.00154302,0.00850524,0,0,0,3.4125,0.07,-0.91,-0.04026,0.037576,-1.00394,-0.2457,0.06118,0.36358
0,0,0,5,5,5,5,-1.36853,0.00177381,25.6855,-0.00132342,-0.00172318,0.003711,0,0,0,3.5525,0.0525,-0.84,-0.041602,0.034282,-1.0087,-0.2457,0.06118,0.36358
0,0,0,5,5,5,5,-1.36712,0.000440302,25.6929,-0.00130015,-0.00169848,0.00371159,0,0,0,3.36,0.1575,-0.945,-0.041602,0.034282,-1.0087,-0.2457,0.06118,0.36358
0,0,0,5,5,5,5,-1.3689,0.000346148,25.7004,3.78391e-05,0.00144567,-0.00268248,0,0,0,3.3075,0.105,-0.8575,-0.04026,0.037454,-1.01504,-0.2457,0.06118,0.36358
0,0,0,5,5,5,5,-1.3709,-6.75983e-05,25.7113,4.50603e-05,0.00141078,-0.00268331,0,0,0,3.1675,-0.0875,-0.8925,-0.04026,0.037454,-1.01504,-0.23954,0.06132,0.37282
0,0,0,5,5,5,5,-1.37173,-0.00426237,25.7239,-0.00291887,-0.000313362,-0.00219186,0,0,0,3.0275,-0.1225,-0.9625,-0.04331,0.035746,-1.01455,-0.23954,0.06132,0.37282
0,0,0,5,5,5,5,-1.37209,-0.0084825,25.7362,-0.00284521,-0.000319646,-0.00219202,0,0,0,3.2725,-0.1925,-1.1025,-0.04331,0.035746,-1.01455,-0.23954,0.06132,0.37282
0,0,0,5,5,5,5,-1.37318,-0.0113064,25.7481,-0.00170256,0.000271942,0.00137302,0,0,0,3.185,-0.21,-0.9625,-0.042212,0.036356,-1.01101,-0.23954,0.06132,0.37282
0,0,0,5,5,5,5,-1.37406,-0.0138257,25.7597,-0.00165859,0.000256656,0.00137264,0,0,0,3.29,-0.07,-1.0325,-0.042212,0.036356,-1.01101,-0.23954,0.06132,0.37282
0,0,0,5,5,5,5,-1.37409,-0.0149771,25.7703,-0.000788091,-0.000354504,0.00260211,0,0,0,3.325,-0.0175,-0.9975,-0.041358,0.035746,-1.00979,-0.23954,0.06132,0.37282
0,0,0,5,5,5,5,-1.37405,-0.0157376,25.7811,-0.000774818,-0.000353881,0.00260212,0,0,0,3.36,0.1925,-0.8575,-0.041358,0.035746,-1.00979,-0.23954,0.06132,0.37282
0,0,0,5,5,5,5,-1.37338,-0.00977675,25.7874,0.00434503,-0.000219986,-0.000471284,0,0,0,3.3075,0.0875,-0.91,-0.036112,0.035868,-1.01284,-0.23954,0.06132,0.37282
0,0,0,5,5,5,5,-1.37272,-0.00462,25.7934,0.00425503,-0.000208505,-0.000470998,0,0,0,3.3075,-0.315,-0.945,-0.036112,0.035868,-1.01284,-0.24178,0.06048,0.36722
0,0,0,5,5,5,5,-1.3712,-0.00273456,25.8009,0.00167092,-0.00140335,-0.000839208,0,0,0,3.2725,-0.2975,-0.9625,-0.038674,0.034648,-1.01321,-0.24178,0.06048,0.36722
0,0,0,5,5,5,5,-1.36935,-0.000418262,25.8085,0.00163049,-0.00137099,-0.000838433,0,0,0,3.4825,-0.0175,-0.9275,-0.038674,0.034648,-1.01321,-0.24178,0.06048,0.36722
0,0,0,5,5,5,5,-1.36973,0.00136848,25.8166,0.00159931,0.000576323,-0.000223851,0,0,0,3.4475,-0.105,-0.9975,-0.038674,0.0366,-1.0126,-0.24178,0.06048,0.36722
0,0,0,5,5,5,5,-1.37046,0.00308767,25.8248,0.0015693,0.000563658,-0.000224156,0,0,0,3.255,-0.1225,-0.9275,-0.038674,0.0366,-1.0126,-0.24178,0.06048,0.36722
0,0,0,5,5,5,5,-1.37237,0.00485606,25.8334,0.00165993,0.00175154,-0.00305277,0,0,0,3.2725,-0.0525,-0.9275,-0.038552,0.03782,-1.01541,-0.24178,0.06048,0.36722
0,0,0,5,5,5,5,-1.37382,0.00635116,25.8419,0.00163383,0.00172633,-0.00305338,0,0,0,3.5175,-0.1925,-0.8925,-0.038552,0.03782,-1.01541,-0.24178,0.06048,0.36722
0,0,0,5,5,5,5,-1.3718,0.00741121,25.8498,0.000886416,-0.00165806,-0.00329844,0,0,0,3.43,-0.1925,-0.7875,-0.039284,0.034404,-1.01565,-0.24178,0.06048,0.36722
0,0,0,5,5,5,5,-1.36998,0.00837305,25.8615,0.000869629,-0.00162635,-0.00329768,0,0,0,3.3425,-0.2275,-0.945,-0.039284,0.034404,-1.01565,-0.24136,0.0581,0.37506
0,0,0,5,5,5,5,-1.36934,0.0049692,25.8764,-0.00247256,-0.00137087,0.00371066,0,0,0,3.2375,-0.105,-0.8575,-0.0427,0.034648,-1.0087,-0.24136,0.0581,0.37506
0,0,0,5,5,5,5,-1.36858,0.00146246,25.8911,-0.00241136,-0.00135752,0.00371098,0,0,0,3.3075,-0.21,-0.875,-0.0427,0.034648,-1.0087,-0.24136,0.0581,0.37506
0,0,0,5,5,5,5,-1.36689,-0.00061811,25.9047,-0.00152465,-0.00181667,0.00444938,0,0,0,3.465,-0.1225,-0.91,-0.041846,0.03416,-1.00796,-0.24136,0.0581,0.37506
0,0,0,5,5,5,5,-1.36527,-0.00248261,25.9179,-0.0014921,-0.00178832,0.00445005,0,0,0,3.4475,-0.0175,-1.0675,-0.041846,0.03416,-1.00796,-0.24136,0.0581,0.37506
0,0,0,5,5,5,5,-1.36453,-0.00336426,25.9308,-0.000626316,-0.000554175,-0.000344635,0,0,0,3.57,-0.0175,-1.1025,-0.040992,0.03538,-1.01272,-0.24136,0.0581,0.37506
0,0,0,5,5,5,5,-1.36437,-0.00434416,25.9436,-0.000609214,-0.000551311,-0.000344568,0,0,0,3.255,-0.0875,-1.0325,-0.040992,0.03538,-1.01272,-0.24136,0.0581,0.37506
0,0,0,5,5,5,5,-1.36721,-0.00195762,25.9551,0.00238628,0.00257431,0.00506398,0,0,0,3.325,-0.1575,-1.0675,-0.037942,0.038552,-1.00735,-0.24136,0.0581,0.37506
0,0,0,5,5,5,5,-1.36994,0.000619041,25.9616,0.0023413,0.00252678,0.00506285,0,0,0,3.36,-0.035,-0.98,-0.037942,0.038552,-1.00735,-0.24472,0.05992,0.36386
0,0,0,5,5,5,5,-1.37212,0.00175881,25.969,0.00122804,0.00212241,0.00309476,0,0,0,3.4825,-0.035,-0.8575,-0.03904,0.038186,-1.00931,-0.24472,0.05992,0.36386
0,0,0,5,5,5,5,-1.37438,0.00279151,25.9765,0.00121002,0.00208291,0.00309382,0,0,0,3.4125,-0.0875,-0.7875,-0.03904,0.038186,-1.00931,-0.24472,0.05992,0.36386
0,0,0,5,5,5,5,-1.37365,-0.0019147,25.9862,-0.00344579,-0.00144606,0.000512203,0,0,0,3.29,-0.105,-0.875,-0.043798,0.034648,-1.01187,-0.24472,0.05992,0.36386
0,0,0,5,5,5,5,-1.3727,-0.00666776,25.9957,-0.00336283,-0.00142956,0.000512592,0,0,0,3.4125,-0.1925,-0.9975,-0.043798,0.034648,-1.01187,-0.24472,0.05992,0.36386
0,0,0,5,5,5,5,-1.37201,-0.00690394,26.0023,0.000164377,-0.000562603,-0.00206904,0,0,0,3.4475,-0.2625,-1.085,-0.04026,0.035502,-1.01443,-0.24472,0.05992,0.36386
0,0,0,5,5,5,5,-1.37155,-0.0072198,26.0092,0.00016989,-0.000554566,-0.00206885,0,0,0,3.325,-0.315,-0.9275,-0.04026,0.035502,-1.01443,-0.24472,0.05992,0.36386
0,0,0,5,5,5,5,-1.37168,-0.00703187,26.0162,0.000409581,5.37577e-05,0.00493916,0,0,0,3.4475,-0.14,-0.8575,-0.040016,0.036112,-1.00748,-0.24472,0.05992,0.36386
0,0,0,5,5,5,5,-1.37147,-0.00655226,26.0231,0.00040121,5.74746e-05,0.00493925,0,0,0,3.64,0.035,-0.9275,-0.040016,0.036112,-1.00748,-0.24472,0.05992,0.36386
0,0,0,5,5,5,5,-1.36876,-0.0063945,26.0344,-0.000330457,-0.00209355,-0.00046935,0,0,0,3.6925,0.1925,-0.98,-0.040748,0.033916,-1.01284,-0.2443,0.05684,0.36582
0,0,0,5,5,5,5,-1.36881,-0.00615422,26.0466,-9.16795e-05,-0.000140357,0.00567806,0,0,0,3.43,0.2625,-0.84,-0.040504,0.035868,-1.00674,-0.2443,0.05684,0.36582
0,0,0,5,5,5,5,-1.36883,-0.00642627,26.0587,-8.69314e-05,-0.000140649,0.00567805,0,0,0,3.4475,-0.035,-0.8225,-0.040504,0.035868,-1.00674,-0.2443,0.05684,0.36582
0,0,0,5,5,5,5,-1.37148,-0.00854482,26.0723,-0.00126481,0.00225562,-0.00280651,0,0,0,3.43,0.035,-0.98,-0.041724,0.038308,-1.01516,-0.2443,0.05684,0.36582
0,0,0,5,5,5,5,-1.37386,-0.0102169,26.0859,-0.00123563,0.00221414,-0.00280751,0,0,0,3.5525,0.2625,-0.945,-0.041724,0.038308,-1.01516,-0.2443,0.05684,0.36582
0,0,0,5,5,5,5,-1.37373,-0.00623942,26.0955,0.00258249,0.000140195,-0.00354514,0,0,0,3.325,0.35,-0.8575,-0.03782,0.036234,-1.01589,-0.2443,0.05684,0.36582
0,0,0,5,5,5,5,-1.37365,-0.00289484,26.105,0.00252412,0.000141632,-0.0035451,0,0,0,3.3075,0.035,-0.9275,-0.03782,0.036234,-1.01589,-0.2443,0.05684,0.36582
0,0,0,5,5,5,5,-1.37355,-0.00151083,26.1155,0.00104213,-0.000100882,0.000512245,0,0,0,3.36,0.035,-0.9275,-0.039284,0.03599,-1.01187,-0.2443,0.05684,0.36582
0,0,0,5,5,5,5,-1.37349,-0.000339102,26.1246,0.00102168,-9.97986e-05,0.000512272,0,0,0,3.3425,-0.07,-0.91,-0.039284,0.03599,-1.01187,-0.2408,0.0588,0.36064
0,0,0,5,5,5,5,-1.37414,-0.000366578,26.1344,0.000171764,0.000499363,0.00235622,0,0,0,3.4125,-0.035,-1.05,-0.040138,0.0366,-1.01004,-0.2408,0.0588,0.36064
0,0,0,5,5,5,5,-1.37466,-0.000268527,26.1442,0.000170053,0.000490289,0.00235601,0,0,0,3.4825,0.035,-0.9625,-0.040138,0.0366,-1.01004,-0.2408,0.0588,0.36064
0,0,0,5,5,5,5,-1.37641,0.000876926,26.1539,0.00112195,0.001559,0.00149464,0,0,0,3.36,0,-0.805,-0.039162,0.037698,-1.01089,-0.2408,0.0588,0.36064
0,0,0,5,5,5,5,-1.37809,0.00205557,26.1633,0.00110138,0.00152964,0.00149393,0,0,0,3.3775,0.035,-0.9275,-0.039162,0.037698,-1.01089,-0.2408,0.0588,0.36064
0,0,0,5,5,5,5,-1.37696,0.00158529,26.1729,-0.000469731,-0.00101531,0.00124851,0,0,0,3.5175,0.0525,-0.9625,-0.040748,0.035136,-1.01114,-0.2408,0.0588,0.36064
0,0,0,5,5,5,5,-1.37595,0.00156986,26.1823,-0.000469462,-0.000997595,0.00124893,0,0,0,3.465,0.315,-0.98,-0.040748,0.035136,-1.01114,-0.2408,0.0588,0.36064
0,0,0,5,5,5,5,-1.37732,0.000197842,26.1932,-0.00117443,0.00129889,-0.00108766,0,0,0,3.57,0.2975,-0.9625,-0.04148,0.037454,-1.01345,-0.2408,0.0588,0.36064
0,0,0,5,5,5,5,-1.37866,-0.00104059,26.2058,-0.00115281,0.00127549,-0.00108823,0,0,0,3.57,0.35,-0.7525,-0.04148,0.037454,-1.01345,-0.23968,0.05824,0.35924
0,0,0,5,5,5,5,-1.37936,-0.00247528,26.2183,-0.00124926,0.000896878,-0.00403929,0,0,0,3.6575,0.2625,-0.7,-0.041602,0.037088,-1.01638,-0.23968,0.05824,0.35924
0,0,0,5,5,5,5,-1.38035,-0.00418201,26.2304,-0.00121947,0.000879501,-0.00403971,0,0,0,3.4825,0.0875,-0.91,-0.041602,0.037088,-1.01638,-0.23968,0.05824,0.35924
0,0,0,5,5,5,5,-1.38146,-0.00502438,26.2419,-0.000475856,0.000982415,1.71303e-05,0,0,0,3.4825,0.035,-0.91,-0.04087,0.03721,-1.01236,-0.23968,0.05824,0.35924
0,0,0,5,5,5,5,-1.38235,-0.00560744,26.2532,-0.00046568,0.000966874,1.67544e-05,0,0,0,3.5875,0.175,-0.9625,-0.04087,0.03721,-1.01236,-0.23968,0.05824,0.35924
0,0,0,5,5,5,5,-1.38349,-0.00487627,26.2634,0.000493445,0.000702599,0.00358178,0,0,0,3.255,0.175,-1.015,-0.039894,0.036966,-1.00882,-0.23968,0.05824,0.35924
0,0,0,5,5,5,5,-1.38472,-0.00487242,26.2738,0.000493377,0.000681286,0.00358126,0,0,0,3.2025,-0.245,-0.945,-0.039894,0.036966,-1.00882,-0.23968,0.05824,0.35924
0,0,0,5,5,5,5,-1.38493,-0.00299181,26.2827,0.00155393,-0.000177281,0.00407297,0,0,0,3.15,-0.07,-0.98,-0.038796,0.036112,-1.00833,-0.23968,0.05824,0.35924
0,0,0,5,5,5,5,-1.38489,-0.00106808,26.2951,0.00152035,-0.000176709,0.00407299,0,0,0,3.29,-0.0175,-0.8225,-0.038796,0.036112,-1.00833,-0.23982,0.05642,0.37128
0,0,0,5,5,5,5,-1.38451,-0.000527445,26.3079,0.000660515,-0.000536373,0.000507642,0,0,0,3.29,-0.1925,-0.8225,-0.03965,0.035746,-1.01187,-0.23982,0.05642,0.37128
0,0,0,5,5,5,5,-1.38419,0.000626006,26.3206,0.000640383,-0.000530896,0.000507774,0,0,0,3.255,0.175,-0.84,-0.03965,0.035746,-1.01187,-0.23982,0.05642,0.37128
0,0,0,5,5,5,5,-1.38439,-0.00512079,26.3373,-0.00436172,-0.000778538,0.00370435,0,0,0,3.3075,0.035,-0.875,-0.044774,0.035502,-1.0087,-0.23982,0.05642,0.37128
0,0,0,5,5,5,5,-1.38438,-0.0104746,26.3536,-0.00426827,-0.000778335,0.00370434,0,0,0,3.4125,0.1925,-1.0675,-0.044774,0.035502,-1.0087,-0.23982,0.05642,0.37128
0,0,0,5,5,5,5,-1.38464,-0.0130937,26.3682,-0.00203582,-0.000172238,-0.00145961,0,0,0,3.36,0.0875,-1.0325,-0.042578,0.036112,-1.01382,-0.23982,0.05642,0.37128
0,0,0,5,5,5,5,-1.38501,-0.0159456,26.3829,-0.00198604,-0.000178752,-0.00145978,0,0,0,3.29,-0.0875,-0.91,-0.042578,0.036112,-1.01382,-0.23982,0.05642,0.37128
0,0,0,5,5,5,5,-1.38673,-0.015479,26.3962,0.000557011,0.00174531,0.00038372,0,0,0,3.5175,0.07,-0.91,-0.040016,0.038064,-1.01199,-0.23982,0.05642,0.37128
0,0,0,5,5,5,5,-1.38813,-0.0148107,26.4095,0.000545348,0.0017208,0.00038313,0,0,0,3.675,0.1925,-0.9625,-0.040016,0.038064,-1.01199,-0.2352,0.05782,0.3668
0,0,0,5,5,5,5,-1.3873,-0.0187936,26.4247,-0.00302971,-0.00107363,0.00579319,0,0,0,3.605,0,-0.9625,-0.043676,0.035258,-1.00662,-0.2352,0.05782,0.3668
0,0,0,5,5,5,5,-1.38679,-0.0227718,26.44,-0.00296028,-0.00106469,0.00579339,0,0,0,3.43,-0.0525,-0.8225,-0.043676,0.035258,-1.00662,-0.2352,0.05782,0.3668
0,0,0,5,5,5,5,-1.38735,-0.0220222,26.4527,0.000914183,0.00039107,0.00862097,0,0,0,3.43,-0.1575,-0.77,-0.039772,0.036722,-1.00382,-0.2352,0.05782,0.3668
0,0,0,5,5,5,5,-1.38781,-0.0212343,26.4651,0.000900431,0.000383096,0.00862078,0,0,0,3.4825,-0.1225,-0.91,-0.039772,0.036722,-1.00382,-0.2352,0.05782,0.3668
0,0,0,5,5,5,5,-1.38889,-0.0231787,26.4792,-0.0010094,0.000852723,0.0050548,0,0,0,3.535,-0.1925,-0.8925,-0.041724,0.03721,-1.00735,-0.2352,0.05782,0.3668
0,0,0,5,5,5,5,-1.38973,-0.0246585,26.4931,-0.000983576,0.000838101,0.00505444,0,0,0,3.6575,0.0525,-0.91,-0.041724,0.03721,-1.00735,-0.2352,0.05782,0.3668
0,0,0,5,5,5,5,-1.38949,-0.0231826,26.5051,0.000934436,0.000231651,-0.00133877,0,0,0,3.6225,0.21,-0.8575,-0.039772,0.0366,-1.0137,-0.2352,0.05782,0.3668
0,0,0,5,5,5,5,-1.38932,-0.0220949,26.5173,0.000915452,0.0002346,-0.00133869,0,0,0,3.5875,0,-0.7525,-0.039772,0.0366,-1.0137,-0.2352,0.05782,0.3668
0,0,0,5,5,5,5,-1.39001,-0.0236696,26.5298,-0.00112232,-0.000143863,0.00825099,0,0,0,3.2025,0.0175,-0.84,-0.041846,0.036234,-1.00418,-0.23632,0.05824,0.37142
0,0,0,5,5,5,5,-1.39056,-0.0254449,26.5423,-0.00109134,-0.000153471,0.00825074,0,0,0,3.2725,-0.1225,-0.8225,-0.041846,0.036234,-1.00418,-0.23632,0.05824,0.37142
0,0,0,5,5,5,5,-1.38778,-0.0262407,26.5532,-0.000834475,-0.00291385,0.00444051,0,0,0,3.36,-0.035,-0.91,-0.041602,0.033428,-1.00796,-0.23632,0.05824,0.37142
0,0,0,5,5,5,5,-1.38511,-0.026609,26.5639,-0.000828048,-0.00286727,0.00444163,0,0,0,3.325,0.21,-0.9275,-0.041602,0.033428,-1.00796,-0.23632,0.05824,0.37142
0,0,0,5,5,5,5,-1.38683,-0.0247679,26.5743,0.00169102,0.00113294,0.0059163,0,0,0,3.1325,-0.0525,-0.8575,-0.03904,0.037454,-1.0065,-0.23632,0.05824,0.37142
0,0,0,5,5,5,5,-1.38808,-0.0230222,26.5847,0.00166055,0.00111108,0.00591579,0,0,0,3.3775,-0.0875,-0.8225,-0.03904,0.037454,-1.0065,-0.23632,0.05824,0.37142
0,0,0,5,5,5,5,-1.38558,-0.0218009,26.5943,0.000667349,-0.00238688,0.00825288,0,0,0,3.4475,0.035,-0.84,-0.040016,0.033916,-1.00418,-0.23632,0.05824,0.37142
0,0,0,5,5,5,5,-1.38334,-0.0207615,26.6039,0.000649209,-0.00234787,0.00825382,0,0,0,3.325,-0.0525,-0.7875,-0.040016,0.033916,-1.00418,-0.23632,0.05824,0.37142
0,0,0,5,5,5,5,-1.38259,-0.0235629,26.6157,-0.00197458,-0.000869232,-0.00121291,0,0,0,3.5,-0.14,-0.8225,-0.0427,0.03538,-1.01358,-0.24052,0.05684,0.36624
0,0,0,5,5,5,5,-1.3819,-0.0246541,26.6261,-0.000740681,-0.00061296,-0.00195032,0,0,0,3.5,-0.07,-1.0325,-0.04148,0.035624,-1.01431,-0.24052,0.05684,0.36624
0,0,0,5,5,5,5,-1.3811,-0.0255163,26.6363,-0.000725633,-0.000598938,-0.00194999,0,0,0,3.57,0.0525,-1.1025,-0.04148,0.035624,-1.01431,-0.24052,0.05684,0.36624
0,0,0,5,5,5,5,-1.38091,-0.0243886,26.6453,0.000833999,0.000137067,0.000509068,0,0,0,3.57,0.0875,-1.155,-0.039894,0.036356,-1.01187,-0.24052,0.05684,0.36624
0,0,0,5,5,5,5,-1.38076,-0.022982,26.6546,0.00080945,0.000139654,0.00050914,0,0,0,3.5525,0.2625,-0.9975,-0.039894,0.036356,-1.01187,-0.24052,0.05684,0.36624
0,0,0,5,5,5,5,-1.38052,-0.019759,26.6629,0.00221103,0.000388143,0.00358298,0,0,0,3.675,0.2625,-0.8925,-0.03843,0.0366,-1.00882,-0.24052,0.05684,0.36624
0,0,0,5,5,5,5,-1.38023,-0.0167003,26.6712,0.00215764,0.00039324,0.00358312,0,0,0,3.71,0.21,-0.91,-0.03843,0.0366,-1.00882,-0.24052,0.05684,0.36624
0,0,0,5,5,5,5,-1.37887,-0.0172725,26.6811,-0.000869514,-0.00141499,0.00419842,0,0,0,3.4825,0.2625,-0.91,-0.04148,0.03477,-1.00821,-0.24052,0.05684,0.36624
0,0,0,5,5,5,5,-1.37754,-0.0179538,26.689,-0.000857624,-0.00139176,0.00419898,0,0,0,3.4825,0.1925,-0.805,-0.04148,0.03477,-1.00821,-0.2422,0.05768,0.3668
0,0,0,5,5,5,5,-1.37686,-0.0156747,26.6953,0.00141083,-0.000769252,-0.00010392,0,0,0,3.2375,0.21,-0.7175,-0.039162,0.03538,-1.01248,-0.2422,0.05768,0.3668
0,0,0,5,5,5,5,-1.37607,-0.0137582,26.7012,0.00137738,-0.000755528,-0.000103582,0,0,0,3.3075,0.035,-0.9625,-0.039162,0.03538,-1.01248,-0.2422,0.05768,0.3668
0,0,0,5,5,5,5,-1.37497,-0.0156918,26.7092,-0.00150453,-0.00134691,0.0057984,0,0,0,3.465,-0.0175,-0.98,-0.04209,0.03477,-1.00662,-0.2422,0.05768,0.3668
0,0,0,5,5,5,5,-1.37363,-0.0173762,26.717,-0.00147513,-0.00132358,0.00579895,0,0,0,3.605,0.105,-0.9975,-0.04209,0.03477,-1.00662,-0.2422,0.05768,0.3668
0,0,0,5,5,5,5,-1.3701,-0.0182702,26.7239,-0.00121656,-0.00333806,0.0039562,0,0,0,3.5525,0.1575,-0.9625,-0.041846,0.032696,-1.00845,-0.2422,0.05768,0.3668
0,0,0,5,5,5,5,-1.36678,-0.0196302,26.7307,-0.00119282,-0.00328024,0.00395757,0,0,0,3.465,-0.1225,-0.9275,-0.041846,0.032696,-1.00845,-0.2422,0.05768,0.3668
0,0,0,5,5,5,5,-1.3667,-0.0219235,26.739,-0.00151725,-0.000225725,0.00162157,0,0,0,3.5175,-0.1225,-0.9275,-0.042212,0.035746,-1.01077,-0.2422,0.05768,0.3668
0,0,0,5,5,5,5,-1.36662,-0.0237999,26.7489,-0.0014845,-0.00022423,0.00162159,0,0,0,3.5175,0.0875,-0.945,-0.042212,0.035746,-1.01077,-0.2394,0.05768,0.36988
0,0,0,5,5,5,5,-1.36807,-0.0226701,26.7576,0.000925491,0.00121599,0.00162099,0,0,0,3.325,0.1225,-0.8575,-0.039772,0.03721,-1.01077,-0.2394,0.05768,0.36988
0,0,0,5,5,5,5,-1.36912,-0.021623,26.7661,0.000907215,0.00119764,0.00162056,0,0,0,3.535,0.0875,-0.8925,-0.039772,0.03721,-1.01077,-0.2394,0.05768,0.36988
0,0,0,5,5,5,5,-1.3723,-0.0262924,26.7784,-0.00302032,0.00248563,0.0059224,0,0,0,3.5525,-0.07,-0.8925,-0.043798,0.038552,-1.0065,-0.2394,0.05768,0.36988
0,0,0,5,5,5,5,-1.37546,-0.0308798,26.7905,-0.00294025,0.00243038,0.00592103,0,0,0,3.5175,-0.0875,-0.9625,-0.043798,0.038552,-1.0065,-0.2394,0.05768,0.36988
0,0,0,5,5,5,5,-1.37171,-0.0262993,26.7951,0.00329706,-0.00324414,0.00887341,0,0,0,3.395,-0.1225,-0.91,-0.037454,0.032818,-1.00357,-0.2394,0.05768,0.36988
0,0,0,5,5,5,5,-1.36804,-0.0220365,26.8,0.00322266,-0.00318014,0.00887497,0,0,0,3.395,-0.245,-0.77,-0.037454,0.032818,-1.00357,-0.2394,0.05768,0.36988
0,0,0,5,5,5,5,-1.3705,-0.0286383,26.8129,-0.0044372,0.00154003,-0.00452749,0,0,0,3.3425,-0.2625,-0.7525,-0.045262,0.037576,-1.01687,-0.2394,0.05768,0.36988
0,0,0,5,5,5,5,-1.37279,-0.0347523,26.8246,-0.00433049,0.00150007,-0.00452851,0,0,0,3.395,-0.07,-0.8575,-0.045262,0.037576,-1.01687,-0.23968,0.05838,0.37282
0,0,0,5,5,5,5,-1.37183,-0.0325415,26.8305,0.00170521,-0.000803598,0.00444716,0,0,0,3.4125,-0.035,-0.84,-0.039162,0.035258,-1.00796,-0.23968,0.05838,0.37282
0,0,0,5,5,5,5,-1.37098,-0.0303265,26.8362,0.00166655,-0.000788904,0.00444753,0,0,0,3.36,0,-0.91,-0.039162,0.035258,-1.00796,-0.23968,0.05838,0.37282
0,0,0,5,5,5,5,-1.37265,-0.0265953,26.8416,0.00330223,0.00199093,0.00075841,0,0,0,3.4475,-0.105,-0.8925,-0.037454,0.038064,-1.01162,-0.23968,0.05838,0.37282
0,0,0,5,5,5,5,-1.37411,-0.0230013,26.8471,0.0032395,0.00196549,0.000757828,0,0,0,3.5525,-0.14,-0.84,-0.037454,0.038064,-1.01162,-0.23968,0.05838,0.37282
0,0,0,5,5,5,5,-1.37648,-0.025786,26.8564,-0.00157133,0.00204625,-0.00711189,0,0,0,3.395,-0.1925,-0.8575,-0.042334,0.038186,-1.01943,-0.23968,0.05838,0.37282
0,0,0,5,5,5,5,-1.37886,-0.0286172,26.8658,-0.00152191,0.0020047,-0.00711291,0,0,0,3.36,-0.2625,-0.77,-0.042334,0.038186,-1.01943,-0.23968,0.05838,0.37282
0,0,0,5,5,5,5,-1.37764,-0.0292173,26.8726,-0.000296581,-0.00127136,-0.00244036,0,0,0,3.36,-0.1925,-0.91,-0.041114,0.034892,-1.0148,-0.23968,0.05838,0.37282
0,0,0,5,5,5,5,-1.37659,-0.0298281,26.8847,-0.000285922,-0.00125303,-0.00243993,0,0,0,3.2725,-0.21,-0.875,-0.041114,0.034892,-1.0148,-0.24052,0.05432,0.3696
0,0,0,5,5,5,5,-1.37648,-0.0264933,26.895,0.0028145,-2.98964e-05,0.00432231,0,0,0,3.3075,-0.1575,-0.77,-0.037942,0.036112,-1.00809,-0.24052,0.05432,0.3696
0,0,0,5,5,5,5,-1.37616,-0.0227893,26.905,0.00274986,-2.44065e-05,0.00432247,0,0,0,3.43,0.105,-0.84,-0.037942,0.036112,-1.00809,-0.24052,0.05432,0.3696
0,0,0,5,5,5,5,-1.37893,-0.0238183,26.9185,-0.000512298,0.00261416,-0.00133432,0,0,0,3.5175,0.105,-0.945,-0.041236,0.038796,-1.0137,-0.24052,0.05432,0.3696
0,0,0,5,5,5,5,-1.38158,-0.0250287,26.9317,-0.000491173,0.00256797,-0.00133545,0,0,0,3.5525,-0.0175,-1.0325,-0.041236,0.038796,-1.0137,-0.24052,0.05432,0.3696
0,0,0,5,5,5,5,-1.37857,-0.0254126,26.9428,-0.000605957,-0.00299733,0.000632993,0,0,0,3.3775,0,-0.98,-0.041358,0.033184,-1.01175,-0.24052,0.05432,0.3696
0,0,0,5,5,5,5,-1.3758,-0.0257078,26.9537,-0.000600806,-0.00294905,0.000634152,0,0,0,3.2725,0.0525,-0.9975,-0.041358,0.033184,-1.01175,-0.24052,0.05432,0.3696
0,0,0,5,5,5,5,-1.37476,-0.0256258,26.965,-0.000116294,-0.00134327,0.00432304,0,0,0,3.29,0.07,-0.9275,-0.04087,0.03477,-1.00809,-0.24052,0.05432,0.3696
0,0,0,5,5,5,5,-1.37374,-0.025422,26.9765,-0.00011985,-0.00132548,0.00432347,0,0,0,3.29,0.14,-0.7525,-0.04087,0.03477,-1.00809,-0.24052,0.05432,0.3696
0,0,0,5,5,5,5,-1.37076,-0.0214032,26.9747,0.00272566,-0.00237269,0.00186577,0,0,0,3.465,0.0875,-0.665,-0.037942,0.033672,-1.01053,-0.23954,0.06202,0.37198
0,0,0,5,5,5,5,-1.3681,-0.0178148,26.9728,0.00266303,-0.00232626,0.0018669,0,0,0,3.325,-0.105,-0.7525,-0.037942,0.033672,-1.01053,-0.23954,0.06202,0.37198
0,0,0,5,5,5,5,-1.36851,-0.0210057,26.9756,-0.00226219,-0.000135137,-0.00378892,0,0,0,3.29,-0.105,-0.7875,-0.042944,0.035868,-1.01614,-0.23954,0.06202,0.37198
0,0,0,5,5,5,5,-1.36909,-0.02386,26.9783,-0.00221237,-0.00014528,-0.00378918,0,0,0,3.185,0.0525,-0.91,-0.042944,0.035868,-1.01614,-0.23954,0.06202,0.37198
0,0,0,5,5,5,5,-1.36785,-0.0239131,26.9789,-0.000267671,-0.00146697,-0.00120674,0,0,0,3.2725,0.0875,-0.8575,-0.040992,0.034526,-1.01358,-0.23954,0.06202,0.37198
0,0,0,5,5,5,5,-1.36685,-0.0242627,26.9797,-0.000261569,-0.00144949,-0.00120633,0,0,0,3.15,-0.0875,-0.7525,-0.040992,0.034526,-1.01358,-0.23954,0.06202,0.37198
0,0,0,5,5,5,5,-1.36462,-0.0236349,26.9797,0.000334902,-0.00238755,0.00297486,0,0,0,3.2725,-0.0525,-0.735,-0.040382,0.03355,-1.00943,-0.23954,0.06202,0.37198
0,0,0,5,5,5,5,-1.36252,-0.0228581,26.9792,0.000321344,-0.00235099,0.00297573,0,0,0,3.22,0.0525,-0.98,-0.040382,0.03355,-1.00943,-0.23954,0.06202,0.37198
0,0,0,5,5,5,5,-1.36233,-0.0240708,26.9862,-0.000993833,-0.000882113,0.0034676,0,0,0,3.1675,0.035,-0.9625,-0.041724,0.035014,-1.00894,-0.23912,0.05824,0.37156
0,0,0,5,5,5,5,-1.36081,-0.0236033,26.9918,0.00033435,-0.00171045,0.000886313,0,0,0,3.255,-0.0875,-0.875,-0.040382,0.03416,-1.0115,-0.23912,0.05824,0.37156
0,0,0,5,5,5,5,-1.35919,-0.023302,26.9973,0.000329091,-0.00168224,0.000886985,0,0,0,3.325,-0.175,-0.9275,-0.040382,0.03416,-1.0115,-0.23912,0.05824,0.37156
0,0,0,5,5,5,5,-1.35634,-0.024116,27.0032,-0.000628587,-0.00273159,0.00224059,0,0,0,3.4825,-0.1925,-0.91,-0.041358,0.033062,-1.01016,-0.23912,0.05824,0.37156
0,0,0,5,5,5,5,-1.35353,-0.0248579,27.0091,-0.000615639,-0.00268268,0.00224174,0,0,0,3.4825,-0.1575,-0.8575,-0.041358,0.033062,-1.01016,-0.23912,0.05824,0.37156
0,0,0,5,5,5,5,-1.35183,-0.0212007,27.0128,0.00272213,-0.00118749,0.00420965,0,0,0,3.5,0,-0.8225,-0.037942,0.034526,-1.00821,-0.23912,0.05824,0.37156
0,0,0,5,5,5,5,-1.35033,-0.0176339,27.0164,0.00265988,-0.00116127,0.00421029,0,0,0,3.4125,0,-0.91,-0.037942,0.034526,-1.00821,-0.23912,0.05824,0.37156
0,0,0,5,5,5,5,-1.3523,-0.0230713,27.0263,-0.00392693,0.00112476,-0.00353631,0,0,0,3.325,-0.035,-0.91,-0.044652,0.036844,-1.01589,-0.23912,0.05824,0.37156
0,0,0,5,5,5,5,-1.35429,-0.0286147,27.0342,-0.00383018,0.00108998,-0.00353718,0,0,0,3.29,-0.1575,-0.9625,-0.044652,0.036844,-1.01589,-0.24332,0.05782,0.3703
0,0,0,5,5,5,5,-1.35187,-0.0273414,27.0369,0.00100702,-0.00192098,-0.00279848,0,0,0,3.5175,-0.1575,-0.98,-0.039772,0.033794,-1.01516,-0.24332,0.05782,0.3703
0,0,0,5,5,5,5,-1.34919,-0.0263709,27.0397,0.000990083,-0.00187416,-0.00279737,0,0,0,3.6925,-0.315,-0.945,-0.039772,0.033794,-1.01516,-0.24332,0.05782,0.3703
0,0,0,5,5,5,5,-1.34949,-0.0299513,27.0459,-0.00222754,0.000196782,-0.00230573,0,0,0,3.57,-0.315,-0.91,-0.043066,0.035868,-1.01467,-0.24332,0.05782,0.3703
0,0,0,5,5,5,5,-1.34962,-0.0331772,27.0523,-0.00217124,0.000194556,-0.00230581,0,0,0,3.6575,-0.1575,-0.805,-0.043066,0.035868,-1.01467,-0.24332,0.05782,0.3703
0,0,0,5,5,5,5,-1.34771,-0.0361202,27.058,-0.00224136,-0.00184824,-0.00279685,0,0,0,3.57,-0.14,-0.7525,-0.043188,0.033794,-1.01516,-0.24332,0.05782,0.3703
0,0,0,5,5,5,5,-1.34585,-0.0390342,27.0636,-0.0021905,-0.00181591,-0.00279613,0,0,0,3.5525,-0.1575,-0.805,-0.043188,0.033794,-1.01516,-0.24332,0.05782,0.3703
0,0,0,5,5,5,5,-1.34447,-0.0439495,27.0702,-0.00356254,-0.00166974,-0.00279562,0,0,0,3.5,-0.2625,-0.875,-0.044652,0.033916,-1.01516,-0.24332,0.05782,0.3703
0,0,0,5,5,5,5,-1.34292,-0.0484223,27.0777,-0.00348448,-0.00164259,-0.00279505,0,0,0,3.605,-0.07,-0.84,-0.044652,0.033916,-1.01516,-0.24262,0.05754,0.3717
0,0,0,5,5,5,5,-1.34337,-0.051661,27.0848,-0.00221309,0.000547835,-0.00709848,0,0,0,3.6225,-0.1225,-0.9625,-0.043432,0.036112,-1.01943,-0.24262,0.05754,0.3717
0,0,0,5,5,5,5,-1.34377,-0.0549743,27.0919,-0.00215526,0.000540816,-0.0070987,0,0,0,3.64,-0.21,-0.945,-0.043432,0.036112,-1.01943,-0.24262,0.05754,0.3717
0,0,0,5,5,5,5,-1.34705,-0.0612088,27.1015,-0.00411171,0.00243764,-0.000583882,0,0,0,3.4475,-0.21,-0.945,-0.045506,0.038064,-1.01297,-0.24262,0.05754,0.3717
0,0,0,5,5,5,5,-1.35013,-0.0669656,27.111,-0.00401123,0.00238396,-0.000585258,0,0,0,3.5175,-0.0175,-0.945,-0.045506,0.038064,-1.01297,-0.24262,0.05754,0.3717
0,0,0,5,5,5,5,-1.35051,-0.0698864,27.1181,-0.00213797,-0.000187321,0.000275164,0,0,0,3.325,-0.035,-0.8925,-0.043676,0.035502,-1.01211,-0.24262,0.05754,0.3717
0,0,0,5,5,5,5,-1.35068,-0.0729559,27.1248,-0.0020844,-0.000190411,0.000275025,0,0,0,3.43,-0.1575,-1.05,-0.043676,0.035502,-1.01211,-0.24262,0.05754,0.3717
0,0,0,5,5,5,5,-1.3497,-0.0752162,27.1307,-0.00155901,-0.00115027,0.00113602,0,0,0,3.465,-0.175,-1.05,-0.043188,0.034526,-1.01126,-0.24262,0.05754,0.3717
0,0,0,5,5,5,5,-1.34901,-0.0769476,27.139,-0.00152879,-0.00113824,0.00113626,0,0,0,3.3075,0.105,-0.945,-0.043188,0.034526,-1.01126,-0.24248,0.05572,0.36358
0,0,0,5,5,5,5,-1.35161,-0.0808312,27.1491,-0.00255438,0.00174751,-0.00107797,0,0,0,3.2725,-0.0875,-0.9975,-0.044286,0.037454,-1.01345,-0.24248,0.05572,0.36358
0,0,0,5,5,5,5,-1.35421,-0.0845285,27.1593,-0.00248985,0.00170214,-0.00107914,0,0,0,3.2375,-0.035,-0.945,-0.044286,0.037454,-1.01345,-0.24248,0.05572,0.36358
0,0,0,5,5,5,5,-1.35251,-0.0821598,27.1647,0.00159933,-0.00168781,0.00912635,0,0,0,3.36,0.07,-0.9975,-0.040138,0.034038,-1.00333,-0.24248,0.05572,0.36358
0,0,0,5,5,5,5,-1.35085,-0.0800285,27.1701,0.00156213,-0.00165888,0.00912708,0,0,0,3.36,-0.035,-0.9975,-0.040138,0.034038,-1.00333,-0.24248,0.05572,0.36358
0,0,0,5,5,5,5,-1.34672,-0.0799441,27.1763,-0.000383118,-0.0039072,-0.00255133,0,0,0,3.4125,0,-0.84,-0.04209,0.03172,-1.01492,-0.24248,0.05572,0.36358
0,0,0,5,5,5,5,-1.3427,-0.0800846,27.1822,-0.000380666,-0.003837,-0.00254968,0,0,0,3.395,-0.1225,-0.8925,-0.04209,0.03172,-1.01492,-0.24248,0.05572,0.36358
0,0,0,5,5,5,5,-1.3399,-0.0788047,27.1876,0.000811853,-0.00207837,0.000402258,0,0,0,3.6925,-0.0175,-1.085,-0.04087,0.033428,-1.01199,-0.24248,0.05572,0.36358
0,0,0,5,5,5,5,-1.33718,-0.0776164,27.1932,0.000791113,-0.00203104,0.000403392,0,0,0,3.675,-0.0525,-0.9625,-0.04087,0.033428,-1.01199,-0.24248,0.05572,0.36358
0,0,0,5,5,5,5,-1.33631,-0.0774954,27.1961,0.000181572,-0.000916573,0.00396926,0,0,0,3.43,-0.0875,-0.8925,-0.04148,0.034526,-1.00845,-0.2436,0.05782,0.3633
0,0,0,5,5,5,5,-1.3356,-0.0772657,27.1987,0.000177564,-0.000904253,0.00396955,0,0,0,3.3425,-0.0175,-1.0325,-0.04148,0.034526,-1.00845,-0.2436,0.05782,0.3633
0,0,0,5,5,5,5,-1.33648,-0.0802638,27.2037,-0.00207834,5.73713e-05,-0.00144061,0,0,0,3.1675,-0.105,-0.945,-0.043798,0.035502,-1.01382,-0.2436,0.05782,0.3633
0,0,0,5,5,5,5,-1.33675,-0.0833408,27.2087,-0.00202463,5.27564e-05,-0.0014408,0,0,0,3.5,-0.1925,-0.9275,-0.043798,0.035502,-1.01382,-0.2436,0.05782,0.3633
0,0,0,5,5,5,5,-1.3364,-0.0814285,27.2107,0.00158656,5.88913e-05,-0.00144061,0,0,0,3.5175,-0.035,-0.91,-0.040138,0.035502,-1.01382,-0.2436,0.05782,0.3633
0,0,0,5,5,5,5,-1.33646,-0.0791706,27.2128,0.00154715,5.774e-05,-0.00144058,0,0,0,3.29,0.1925,-0.875,-0.040138,0.035502,-1.01382,-0.2436,0.05782,0.3633
0,0,0,5,5,5,5,-1.33738,-0.0796184,27.2166,-0.000631774,0.000408163,0.000649163,0,0,0,3.255,0.315,-0.9625,-0.042334,0.035868,-1.01175,-0.2436,0.05782,0.3633
0,0,0,5,5,5,5,-1.3379,-0.0802938,27.2204,-0.000619986,0.000399059,0.000648934,0,0,0,3.465,0.175,-0.9975,-0.042334,0.035868,-1.01175,-0.2436,0.05782,0.3633
0,0,0,5,5,5,5,-1.33762,-0.0824286,27.2243,-0.0016761,-0.000451063,-0.00144113,0,0,0,3.465,0.035,-0.9625,-0.043432,0.035014,-1.01382,-0.23926,0.05964,0.36092
0,0,0,5,5,5,5,-1.33783,-0.0784038,27.2248,0.00335605,0.000766617,0.00298503,0,0,0,3.535,-0.07,-0.8225,-0.038308,0.036234,-1.00943,-0.23926,0.05964,0.36092
0,0,0,5,5,5,5,-1.33782,-0.0742406,27.2249,0.00328339,0.000766732,0.00298513,0,0,0,3.6575,0.07,-1.1025,-0.038308,0.036234,-1.00943,-0.23926,0.05964,0.36092
0,0,0,5,5,5,5,-1.34058,-0.0777449,27.2303,-0.00248676,0.00218414,-0.00427004,0,0,0,3.3775,0.0875,-1.015,-0.044164,0.037698,-1.01663,-0.23926,0.05964,0.36092
0,0,0,5,5,5,5,-1.34315,-0.081186,27.2359,-0.0024267,0.00213924,-0.00427117,0,0,0,3.4475,0.07,-0.84,-0.044164,0.037698,-1.01663,-0.23926,0.05964,0.36092
0,0,0,5,5,5,5,-1.34444,-0.0819587,27.2396,-0.000347956,0.00162828,-0.00636184,0,0,0,3.64,0,-0.8575,-0.04209,0.03721,-1.0187,-0.23926,0.05964,0.36092
0,0,0,5,5,5,5,-1.34598,-0.0828905,27.2433,-0.000331694,0.00160137,-0.0063625,0,0,0,3.4825,-0.105,-0.875,-0.04209,0.03721,-1.0187,-0.23926,0.05964,0.36092
0,0,0,5,5,5,5,-1.34677,-0.0784811,27.2433,0.00384335,0.0010992,0.00470265,0,0,0,3.395,-0.175,-0.945,-0.03782,0.036722,-1.00772,-0.23926,0.05964,0.36092
0,0,0,5,5,5,5,-1.34755,-0.0738747,27.2451,0.00376295,0.0010855,0.00470244,0,0,0,3.395,0,-0.875,-0.03782,0.036722,-1.00772,-0.24192,0.05796,0.37016
0,0,0,5,5,5,5,-1.34791,-0.0798374,27.253,-0.00451549,-0.000264188,-0.00845334,0,0,0,3.3775,-0.0875,-0.735,-0.046238,0.03538,-1.02077,-0.24192,0.05796,0.37016
0,0,0,5,5,5,5,-1.348,-0.0854605,27.2607,-0.00441735,-0.000265727,-0.00845352,0,0,0,3.5175,0.035,-0.8225,-0.046238,0.03538,-1.02077,-0.24192,0.05796,0.37016
0,0,0,5,5,5,5,-1.34721,-0.0825053,27.263,0.00221278,-0.000618333,0.00507122,0,0,0,3.395,0.0525,-0.8575,-0.039528,0.035014,-1.00735,-0.24192,0.05796,0.37016
0,0,0,5,5,5,5,-1.34635,-0.0793563,27.265,0.00215782,-0.00060331,0.00507165,0,0,0,3.4475,0.21,-1.0325,-0.039528,0.035014,-1.00735,-0.24192,0.05796,0.37016
0,0,0,5,5,5,5,-1.34488,-0.078546,27.2682,0.000321395,-0.00106622,-0.00242759,0,0,0,3.57,0.175,-0.9975,-0.041358,0.034526,-1.0148,-0.24192,0.05796,0.37016
0,0,0,5,5,5,5,-1.34366,-0.0780536,27.2715,0.0003128,-0.00104496,-0.00242708,0,0,0,3.4475,0,-0.9275,-0.041358,0.034526,-1.0148,-0.24192,0.05796,0.37016
0,0,0,5,5,5,5,-1.3384,-0.0743911,27.2716,0.00243562,-0.00461699,0.00310784,0,0,0,3.4475,-0.0875,-0.91,-0.039162,0.030866,-1.00931,-0.24192,0.05796,0.37016
0,0,0,5,5,5,5,-1.3332,-0.0706613,27.268,0.00237052,-0.00452611,0.00311004,0,0,0,3.4825,0.0175,-0.9975,-0.039162,0.030866,-1.00931,-0.24122,0.06062,0.36764
0,0,0,5,5,5,5,-1.33522,-0.0749565,27.2712,-0.00302137,0.00142277,-0.00426779,0,0,0,3.3775,-0.0525,-0.9275,-0.044652,0.036844,-1.01663,-0.24122,0.06062,0.36764
0,0,0,5,5,5,5,-1.33726,-0.0793514,27.2748,-0.00294466,0.00138719,-0.00426872,0,0,0,3.3425,-0.175,-0.7175,-0.044652,0.036844,-1.01663,-0.24122,0.06062,0.36764
0,0,0,5,5,5,5,-1.33478,-0.0769041,27.2729,0.00175057,-0.00235548,-0.00475945,0,0,0,3.22,-0.07,-0.7875,-0.039894,0.033062,-1.01711,-0.24122,0.06062,0.36764
0,0,0,5,5,5,5,-1.33214,-0.0744334,27.2708,0.00170745,-0.00230933,-0.00475832,0,0,0,3.3425,-0.0175,-0.91,-0.039894,0.033062,-1.01711,-0.24122,0.06062,0.36764
0,0,0,5,5,5,5,-1.33484,-0.0776106,27.2741,-0.00236762,0.00204001,-0.000579243,0,0,0,3.36,0.175,-0.7875,-0.044042,0.037454,-1.01297,-0.24122,0.06062,0.36764
0,0,0,5,5,5,5,-1.33734,-0.0808605,27.2772,-0.00231089,0.00199652,-0.000580336,0,0,0,3.4475,0.0875,-0.8225,-0.044042,0.037454,-1.01297,-0.24122,0.06062,0.36764
0,0,0,5,5,5,5,-1.33871,-0.083345,27.2796,-0.00178159,0.00111759,-0.000458011,0,0,0,3.5,0.0525,-0.8225,-0.043554,0.0366,-1.01284,-0.24122,0.06062,0.36764
0,0,0,5,5,5,5,-1.34028,-0.0860888,27.286,-0.0017337,0.00109033,-0.000458719,0,0,0,3.3775,-0.14,-0.7,-0.043554,0.0366,-1.01284,-0.23912,0.05894,0.37016
0,0,0,5,5,5,5,-1.34033,-0.0863323,27.2903,-2.86507e-05,0.000112431,-0.00451605,0,0,0,3.43,-0.07,-0.805,-0.041846,0.035624,-1.01687,-0.23912,0.05894,0.37016
0,0,0,5,5,5,5,-1.34019,-0.086153,27.2945,-3.17803e-05,0.00011484,-0.00451599,0,0,0,3.535,0.175,-0.8225,-0.041846,0.035624,-1.01687,-0.23912,0.05894,0.37016
0,0,0,5,5,5,5,-1.34053,-0.0898451,27.301,-0.002883,0.00023102,-0.00697519,0,0,0,3.5525,0.0525,-0.8575,-0.044774,0.035746,-1.01931,-0.23912,0.05894,0.37016
0,0,0,5,5,5,5,-1.34126,-0.0933663,27.3074,-0.00282154,0.000218274,-0.00697559,0,0,0,3.325,0.105,-0.8925,-0.044774,0.035746,-1.01931,-0.23912,0.05894,0.37016
0,0,0,5,5,5,5,-1.33816,-0.0889851,27.3081,0.00305479,-0.00217026,-0.000826781,0,0,0,3.605,0.105,-0.8925,-0.038796,0.033306,-1.01321,-0.23912,0.05894,0.37016
0,0,0,5,5,5,5,-1.33526,-0.0847092,27.3088,0.00298016,-0.00211963,-0.000825486,0,0,0,3.535,0.105,-0.8925,-0.038796,0.033306,-1.01321,-0.23912,0.05894,0.37016
0,0,0,5,5,5,5,-1.33771,-0.0850591,27.3135,-0.000172359,0.00235631,-0.00808045,0,0,0,3.3775,0.175,-1.015,-0.041968,0.03782,-1.02041,-0.23912,0.05894,0.37016
0,0,0,5,5,5,5,-1.34031,-0.0857792,27.3184,-0.00015979,0.00231108,-0.00808153,0,0,0,3.2725,-0.0525,-0.9275,-0.041968,0.03782,-1.02041,-0.23912,0.05894,0.37016
0,0,0,5,5,5,5,-1.3395,-0.0812726,27.3214,0.00352761,-0.000361719,0.00298428,0,0,0,3.4125,0,-0.91,-0.038186,0.035136,-1.00943,-0.24108,0.05684,0.37282
0,0,0,5,5,5,5,-1.33823,-0.0767783,27.3244,0.00344917,-0.00033948,0.0029849,0,0,0,3.6925,0.0525,-0.91,-0.038186,0.035136,-1.00943,-0.24108,0.05684,0.37282
0,0,0,5,5,5,5,-1.33305,-0.072368,27.326,0.00300774,-0.00403508,0.000405193,0,0,0,3.675,-0.0175,-0.9975,-0.038552,0.031354,-1.01199,-0.24108,0.05684,0.37282
0,0,0,5,5,5,5,-1.3282,-0.067889,27.3275,0.00292957,-0.00395043,0.000407255,0,0,0,3.5525,0.0875,-0.9625,-0.038552,0.031354,-1.01199,-0.24108,0.05684,0.37282
0,0,0,5,5,5,5,-1.32934,-0.0668436,27.3328,0.00096755,0.00128116,0.00298873,0,0,0,3.535,0.07,-0.9975,-0.040504,0.0366,-1.00943,-0.24108,0.05684,0.37282
0,0,0,5,5,5,5,-1.33096,-0.0661419,27.3382,0.000955302,0.0012529,0.00298809,0,0,0,3.255,-0.1225,-0.875,-0.040504,0.0366,-1.00943,-0.24108,0.05684,0.37282
0,0,0,5,5,5,5,-1.3272,-0.0632805,27.341,0.00175576,-0.00356664,0.00594043,0,0,0,3.3425,0.07,-0.8225,-0.03965,0.03172,-1.0065,-0.24108,0.05684,0.37282
0,0,0,5,5,5,5,-1.32355,-0.0602608,27.3434,0.00170306,-0.00350298,0.00594196,0,0,0,3.325,0.21,-0.9975,-0.03965,0.03172,-1.0065,-0.24108,0.05684,0.37282
0,0,0,5,5,5,5,-1.32415,-0.0595316,27.3499,0.000353989,0.000516768,-0.00118928,0,0,0,3.3775,0.2625,-1.1025,-0.040992,0.035746,-1.01358,-0.24066,0.05586,0.37058
0,0,0,5,5,5,5,-1.32606,-0.0593128,27.3569,0.000471655,0.00182694,-0.00266542,0,0,0,3.395,0,-0.945,-0.04087,0.037088,-1.01504,-0.24066,0.05586,0.37058
0,0,0,5,5,5,5,-1.32796,-0.0590685,27.3638,0.000467392,0.00179378,-0.00266619,0,0,0,3.3775,0.0175,-1.0675,-0.04087,0.037088,-1.01504,-0.24066,0.05586,0.37058
0,0,0,5,5,5,5,-1.32919,-0.0618615,27.3725,-0.00203506,0.000673107,0.00348069,0,0,0,3.395,0.035,-0.8925,-0.043432,0.03599,-1.00894,-0.24066,0.05586,0.37058
0,0,0,5,5,5,5,-1.33002,-0.0644712,27.3811,-0.00198951,0.000658631,0.0034803,0,0,0,3.605,0.105,-0.9275,-0.043432,0.03599,-1.00894,-0.24066,0.05586,0.37058
0,0,0,5,5,5,5,-1.33068,-0.0661369,27.3888,-0.00123153,0.000280801,-0.000208455,0,0,0,3.36,0.035,-0.9275,-0.0427,0.035624,-1.0126,-0.24066,0.05586,0.37058
0,0,0,5,5,5,5,-1.33141,-0.0680896,27.3967,-0.00119745,0.000268001,-0.000208792,0,0,0,3.3075,-0.1575,-0.8575,-0.0427,0.035624,-1.0126,-0.24066,0.05586,0.37058
0,0,0,5,5,5,5,-1.33504,-0.0713676,27.4061,-0.00199063,0.00301365,-8.73856e-05,0,0,0,3.395,-0.07,-0.945,-0.043554,0.03843,-1.01248,-0.24066,0.05586,0.37058
0,0,0,5,5,5,5,-1.33874,-0.0742185,27.4139,-0.00194088,0.0029491,-8.89553e-05,0,0,0,3.3075,0.1225,-0.875,-0.043554,0.03843,-1.01248,-0.23688,0.05838,0.36708
0,0,0,5,5,5,5,-1.33918,-0.0737594,27.4189,0.000359338,0.000498743,-0.00377758,0,0,0,3.4125,0.0875,-0.805,-0.041236,0.03599,-1.01614,-0.23688,0.05838,0.36708
0,0,0,5,5,5,5,-1.33938,-0.0735188,27.4238,0.00035514,0.000495397,-0.00377766,0,0,0,3.5525,-0.035,-0.8225,-0.041236,0.03599,-1.01614,-0.23688,0.05838,0.36708
0,0,0,5,5,5,5,-1.33878,-0.0707302,27.4269,0.00212875,-0.000471288,0.00581263,0,0,0,3.395,0.0525,-0.84,-0.039406,0.035014,-1.00662,-0.23688,0.05838,0.36708
0,0,0,5,5,5,5,-1.33846,-0.0674392,27.4299,0.00207132,-0.000465632,0.00581283,0,0,0,3.255,0.385,-0.8925,-0.039406,0.035014,-1.00662,-0.23688,0.05838,0.36708
0,0,0,5,5,5,5,-1.33904,-0.0656896,27.434,0.00106889,0.000501175,0.00593558,0,0,0,3.4125,0.3325,-0.875,-0.040382,0.03599,-1.0065,-0.23688,0.05838,0.36708
0,0,0,5,5,5,5,-1.3399,-0.0640643,27.4383,0.00104053,0.000486172,0.00593526,0,0,0,3.255,0.28,-0.8225,-0.040382,0.03599,-1.0065,-0.23688,0.05838,0.36708
0,0,0,5,5,5,5,-1.33437,-0.0570945,27.4372,0.00468494,-0.00479085,0.0048311,0,0,0,3.3425,0.1575,-0.84,-0.0366,0.030622,-1.0076,-0.23688,0.05838,0.36708
0,0,0,5,5,5,5,-1.3288,-0.0505721,27.4339,0.0045711,-0.00469369,0.00483347,0,0,0,3.4125,-0.035,-0.9975,-0.0366,0.030622,-1.0076,-0.2436,0.05712,0.36386
0,0,0,5,5,5,5,-1.33113,-0.0500764,27.4367,0.000674908,0.00259337,-0.00623283,0,0,0,3.535,0.07,-0.945,-0.040504,0.037942,-1.01858,-0.2436,0.05712,0.36386
0,0,0,5,5,5,5,-1.3335,-0.0497104,27.4391,0.000668519,0.00255191,-0.00623379,0,0,0,3.4825,0,-1.085,-0.040504,0.037942,-1.01858,-0.2436,0.05712,0.36386
0,0,0,5,5,5,5,-1.33425,-0.046943,27.4396,0.0024425,0.0013175,-0.00131611,0,0,0,3.57,-0.035,-1.19,-0.038674,0.036722,-1.0137,-0.2436,0.05712,0.36386
0,0,0,5,5,5,5,-1.33491,-0.0445292,27.4402,0.00240038,0.00130611,-0.00131634,0,0,0,3.6225,-0.21,-1.085,-0.038674,0.036722,-1.0137,-0.2436,0.05712,0.36386
0,0,0,5,5,5,5,-1.33842,-0.0468818,27.4446,-0.000960163,0.00344312,-0.00525216,0,0,0,3.535,-0.28,-0.8575,-0.04209,0.038918,-1.0176,-0.2436,0.05712,0.36386
0,0,0,5,5,5,5,-1.34183,-0.0489317,27.4492,-0.000924385,0.00338363,-0.00525358,0,0,0,3.5525,-0.14,-0.805,-0.04209,0.038918,-1.0176,-0.2436,0.05712,0.36386
0,0,0,5,5,5,5,-1.33877,-0.0435785,27.4475,0.0039631,-0.00242505,-0.00193265,0,0,0,3.3425,-0.035,-0.7875,-0.037088,0.033062,-1.01431,-0.2436,0.05712,0.36386
0,0,0,5,5,5,5,-1.33587,-0.0382627,27.4437,0.00387032,-0.00237451,-0.0019314,0,0,0,3.29,0.0175,-0.805,-0.037088,0.033062,-1.01431,-0.24346,0.05852,0.36176
0,0,0,5,5,5,5,-1.3372,-0.0389074,27.4447,-0.000491915,0.00114398,-0.00500566,0,0,0,3.36,0.14,-0.875,-0.04148,0.0366,-1.01736,-0.24346,0.05852,0.36176
0,0,0,5,5,5,5,-1.33828,-0.0393286,27.4454,-0.000484563,0.00112507,-0.00500611,0,0,0,3.4825,0.2625,-0.9625,-0.04148,0.0366,-1.01736,-0.24346,0.05852,0.36176
0,0,0,5,5,5,5,-1.33999,-0.0402838,27.4464,-0.000710863,0.00170597,-0.00131836,0,0,0,3.5525,0.1925,-1.12,-0.041724,0.03721,-1.0137,-0.24346,0.05852,0.36176
0,0,0,5,5,5,5,-1.34203,-0.0412993,27.4476,-0.000693138,0.00167028,-0.00131921,0,0,0,3.3425,0.14,-1.0325,-0.041724,0.03721,-1.0137,-0.24346,0.05852,0.36176
0,0,0,5,5,5,5,-1.3448,-0.0469484,27.4516,-0.00411763,0.00223259,-0.00869733,0,0,0,3.465,0.0175,-1.0325,-0.045262,0.03782,-1.02102,-0.24346,0.05852,0.36176
0,0,0,5,5,5,5,-1.34732,-0.05264,27.4557,-0.00401829,0.00218868,-0.00869844,0,0,0,3.57,-0.0875,-0.9275,-0.045262,0.03782,-1.02102,-0.24346,0.05852,0.36176
0,0,0,5,5,5,5,-1.34888,-0.0513873,27.4556,0.00130522,0.00179499,-0.00611715,0,0,0,3.43,-0.035,-0.91,-0.039894,0.037454,-1.01846,-0.24346,0.05852,0.36176
0,0,0,5,5,5,5,-1.35011,-0.0500903,27.4518,0.00128258,0.00177361,-0.00611763,0,0,0,3.605,0,-0.84,-0.039894,0.037454,-1.01846,-0.24234,0.06174,0.36428
0,0,0,5,5,5,5,-1.34876,-0.0479956,27.4468,0.00148899,-0.000767558,-0.000707314,0,0,0,3.605,0.0875,-0.8925,-0.03965,0.034892,-1.01309,-0.24234,0.06174,0.36428
0,0,0,5,5,5,5,-1.34788,-0.0458867,27.4419,0.00145218,-0.000752217,-0.000706923,0,0,0,3.36,0.1225,-0.7875,-0.03965,0.034892,-1.01309,-0.24234,0.06174,0.36428
0,0,0,5,5,5,5,-1.35079,-0.0505485,27.442,-0.00332588,0.00237238,-0.00857689,0,0,0,3.395,0,-0.875,-0.04453,0.038064,-1.0209,-0.24234,0.06174,0.36428
0,0,0,5,5,5,5,-1.35344,-0.0551304,27.442,-0.00324591,0.0023261,-0.00857806,0,0,0,3.5,-0.0175,-0.8925,-0.04453,0.038064,-1.0209,-0.24234,0.06174,0.36428
0,0,0,5,5,5,5,-1.35584,-0.060182,27.4423,-0.00364369,0.00191796,-0.00243171,0,0,0,3.535,0,-0.8575,-0.045018,0.037698,-1.0148,-0.24234,0.06174,0.36428
0,0,0,5,5,5,5,-1.3582,-0.0652972,27.4426,-0.00355441,0.00187665,-0.00243278,0,0,0,3.5175,-0.105,-0.91,-0.045018,0.037698,-1.0148,-0.24234,0.06174,0.36428
0,0,0,5,5,5,5,-1.35967,-0.0676211,27.4413,-0.00157008,0.00136256,-0.00390882,0,0,0,3.5175,-0.0175,-0.805,-0.043066,0.03721,-1.01626,-0.24234,0.06174,0.36428
0,0,0,5,5,5,5,-1.3612,-0.0701594,27.4401,-0.00152578,0.00133591,-0.00390951,0,0,0,3.465,-0.175,-0.8225,-0.043066,0.03721,-1.01626,-0.24234,0.06174,0.36428
0,0,0,5,5,5,5,-1.36253,-0.0698403,27.4466,0.00077688,0.00119052,0.00346686,0,0,0,3.395,-0.21,-0.8575,-0.040748,0.037088,-1.00894,-0.24094,0.05558,0.36652
0,0,0,5,5,5,5,-1.36384,-0.0688966,27.4532,0.000760411,0.00116767,0.00346633,0,0,0,3.395,0.1575,-0.84,-0.040748,0.037088,-1.00894,-0.24094,0.05558,0.36652
0,0,0,5,5,5,5,-1.36125,-0.0647324,27.4568,0.00275299,-0.00220661,-0.000835701,0,0,0,3.3425,0.21,-0.7525,-0.038674,0.033672,-1.01321,-0.24094,0.05558,0.36652
0,0,0,5,5,5,5,-1.35852,-0.060819,27.4603,0.00268469,-0.00215908,-0.000834498,0,0,0,3.4475,0.1225,-0.8225,-0.038674,0.033672,-1.01321,-0.24094,0.05558,0.36652
0,0,0,5,5,5,5,-1.35759,-0.0571408,27.4642,0.00286346,-0.000555137,0.00678876,0,0,0,3.4825,0.0175,-0.8925,-0.03843,0.035258,-1.00565,-0.24094,0.05558,0.36652
0,0,0,5,5,5,5,-1.35637,-0.0531322,27.4678,0.0027935,-0.00053386,0.00678933,0,0,0,3.6575,0.2625,-0.9975,-0.03843,0.035258,-1.00565,-0.24094,0.05558,0.36652
0,0,0,5,5,5,5,-1.35666,-0.0531662,27.4742,-0.000243052,0.000315949,0.000272941,0,0,0,3.5,0.245,-0.9275,-0.04148,0.036112,-1.01211,-0.24094,0.05558,0.36652
0,0,0,5,5,5,5,-1.35741,-0.0534672,27.4806,-0.000237797,0.000302794,0.000272625,0,0,0,3.2375,0.0875,-0.9275,-0.04148,0.036112,-1.01211,-0.24094,0.05558,0.36652
0,0,0,5,5,5,5,-1.35666,-0.0543808,27.4808,-0.00107225,-0.00127173,0.00248599,0,0,0,3.255,0.21,-0.8575,-0.042334,0.034526,-1.00992,-0.2436,0.05894,0.36638
0,0,0,5,5,5,5,-1.35857,-0.0518723,27.4799,0.00228557,0.00187017,-0.00058847,0,0,0,3.2725,-0.0175,-0.7175,-0.038918,0.037698,-1.01297,-0.2436,0.05894,0.36638
0,0,0,5,5,5,5,-1.36015,-0.0494508,27.4787,0.0022433,0.00184271,-0.000589084,0,0,0,3.4475,-0.035,-0.8925,-0.038918,0.037698,-1.01297,-0.2436,0.05894,0.36638
0,0,0,5,5,5,5,-1.36053,-0.0498107,27.4791,-0.000180131,0.000736954,0.00162383,0,0,0,3.71,0.0525,-0.875,-0.041358,0.0366,-1.01077,-0.2436,0.05894,0.36638
0,0,0,5,5,5,5,-1.36087,-0.0500087,27.4795,-0.000176674,0.000731022,0.00162368,0,0,0,3.7275,0.14,-0.7875,-0.041358,0.0366,-1.01077,-0.2436,0.05894,0.36638
0,0,0,5,5,5,5,-1.35872,-0.0468985,27.4772,0.00219876,-0.00167406,0.00396064,0,0,0,3.5175,0.07,-0.735,-0.038918,0.03416,-1.00845,-0.2436,0.05894,0.36638
0,0,0,5,5,5,5,-1.35675,-0.0438922,27.4749,0.00214629,-0.00163962,0.0039615,0,0,0,3.4475,0.0525,-0.735,-0.038918,0.03416,-1.00845,-0.2436,0.05894,0.36638
0,0,0,5,5,5,5,-1.35793,-0.0413025,27.474,0.0019796,0.0015151,0.00322335,0,0,0,3.5525,0.2275,-0.7525,-0.03904,0.037332,-1.00918,-0.2436,0.05894,0.36638
0,0,0,5,5,5,5,-1.35903,-0.0390161,27.4739,0.0019397,0.00149581,0.00322292,0,0,0,3.5875,0.0875,-0.8225,-0.03904,0.037332,-1.00918,-0.23982,0.05978,0.36862
0,0,0,5,5,5,5,-1.35741,-0.0362475,27.4725,0.00201286,-0.00140691,0.00851041,0,0,0,3.465,0.0525,-0.875,-0.038918,0.034404,-1.00394,-0.23982,0.05978,0.36862
0,0,0,5,5,5,5,-1.35545,-0.0333625,27.4712,0.00196251,-0.0013727,0.00851125,0,0,0,3.675,0.1575,-0.8225,-0.038918,0.034404,-1.00394,-0.23982,0.05978,0.36862
0,0,0,5,5,5,5,-1.35322,-0.032237,27.4706,0.000728008,-0.00194453,0.00519257,0,0,0,3.5525,0,-0.84,-0.040138,0.033794,-1.00723,-0.23982,0.05978,0.36862
0,0,0,5,5,5,5,-1.35117,-0.0312068,27.4697,0.000710027,-0.00190866,0.00519343,0,0,0,3.4825,-0.035,-0.9625,-0.040138,0.033794,-1.00723,-0.23982,0.05978,0.36862
0,0,0,5,5,5,5,-1.35032,-0.0302719,27.4691,0.000936682,-0.000550523,2.99469e-05,0,0,0,3.5175,-0.14,-1.015,-0.039894,0.035136,-1.01236,-0.23982,0.05978,0.36862
0,0,0,5,5,5,5,-1.34962,-0.0292652,27.4687,0.000919112,-0.000538275,3.02446e-05,0,0,0,3.4475,-0.0875,-0.8925,-0.039894,0.035136,-1.01236,-0.23982,0.05978,0.36862
0,0,0,5,5,5,5,-1.35165,-0.030659,27.4706,-0.000757362,0.00174673,-0.00587213,0,0,0,3.325,-0.0525,-0.8575,-0.041602,0.037454,-1.01821,-0.23982,0.05978,0.36862
0,0,0,5,5,5,5,-1.35345,-0.0315386,27.4693,-0.000742009,0.00171532,-0.00587288,0,0,0,3.43,0.2275,-0.8925,-0.041602,0.037454,-1.01821,-0.24402,0.06062,0.37478
0,0,0,5,5,5,5,-1.34937,-0.0294422,27.4646,0.00116517,-0.00370911,-0.000707343,0,0,0,3.4475,0.07,-0.7875,-0.03965,0.031964,-1.01309,-0.24402,0.06062,0.37478
0,0,0,5,5,5,5,-1.34555,-0.0277607,27.4599,0.00113582,-0.0036425,-0.000705761,0,0,0,3.3425,-0.14,-0.7875,-0.03965,0.031964,-1.01309,-0.24402,0.06062,0.37478
0,0,0,5,5,5,5,-1.34712,-0.0302157,27.4593,-0.00173698,0.000970874,-0.00058348,0,0,0,3.29,0,-0.8575,-0.042578,0.0366,-1.01297,-0.24402,0.06062,0.37478
0,0,0,5,5,5,5,-1.34872,-0.0328576,27.4584,-0.00169087,0.000942952,-0.000584162,0,0,0,3.255,-0.14,-0.9975,-0.042578,0.0366,-1.01297,-0.24402,0.06062,0.37478
0,0,0,5,5,5,5,-1.34983,-0.0344809,27.4569,-0.000933628,0.000312969,0.00703817,0,0,0,3.2025,-0.14,-0.9975,-0.041846,0.03599,-1.0054,-0.24402,0.06062,0.37478
0,0,0,5,5,5,5,-1.35076,-0.0357353,27.4554,-0.000911735,0.000296766,0.00703778,0,0,0,3.29,0.0525,-0.945,-0.041846,0.03599,-1.0054,-0.24402,0.06062,0.37478
0,0,0,5,5,5,5,-1.35085,-0.0347627,27.4523,0.000772089,5.09346e-05,-0.00156864,0,0,0,3.3425,0.0525,-0.9625,-0.040138,0.035746,-1.01394,-0.24402,0.06062,0.37478
0,0,0,5,5,5,5,-1.3506,-0.0338175,27.4589,0.000755592,5.52534e-05,-0.00156853,0,0,0,3.535,0.0525,-0.91,-0.040138,0.035746,-1.01394,-0.23646,0.05684,0.37856
0,0,0,5,5,5,5,-1.34977,-0.0366548,27.4674,-0.00223203,-0.00102935,0.00371856,0,0,0,3.5525,-0.035,-0.9975,-0.043188,0.034648,-1.0087,-0.23646,0.05684,0.37856
0,0,0,5,5,5,5,-1.34897,-0.0393135,27.4757,-0.00218563,-0.0010155,0.00371886,0,0,0,3.535,0.035,-0.9975,-0.043188,0.034648,-1.0087,-0.23646,0.05684,0.37856
0,0,0,5,5,5,5,-1.34978,-0.0408221,27.484,-0.00118741,0.00080239,-0.00021584,0,0,0,3.57,0.1225,-0.98,-0.042212,0.036478,-1.0126,-0.23646,0.05684,0.37856
0,0,0,5,5,5,5,-1.3505,-0.0420514,27.4924,-0.00116596,0.00078979,-0.000216153,0,0,0,3.605,0.2625,-0.84,-0.042212,0.036478,-1.0126,-0.23646,0.05684,0.37856
0,0,0,5,5,5,5,-1.35126,-0.0432672,27.5006,-0.000901764,0.000654462,0.000767108,0,0,0,3.5,0.07,-0.8225,-0.041968,0.036356,-1.01162,-0.23646,0.05684,0.37856
0,0,0,5,5,5,5,-1.352,-0.0446929,27.5088,-0.000876881,0.000641552,0.000766785,0,0,0,3.5,-0.07,-0.805,-0.041968,0.036356,-1.01162,-0.23646,0.05684,0.37856
0,0,0,5,5,5,5,-1.35442,-0.0451375,27.5168,-1.87216e-05,0.00206481,-0.000340756,0,0,0,3.3075,0,-0.805,-0.041114,0.03782,-1.01272,-0.23646,0.05684,0.37856
0,0,0,5,5,5,5,-1.35686,-0.0453583,27.5248,-1.4867e-05,0.00202224,-0.000341767,0,0,0,3.2725,0.1225,-0.84,-0.041114,0.03782,-1.01272,-0.23646,0.05684,0.37856
0,0,0,5,5,5,5,-1.35814,-0.0456535,27.5293,-9.7147e-06,0.00114501,0.00150193,0,0,0,3.43,0,-0.8575,-0.041114,0.036966,-1.01089,-0.23772,0.05838,0.37618
0,0,0,5,5,5,5,-1.35949,-0.0456147,27.5337,-1.0392e-05,0.00112145,0.00150137,0,0,0,3.3775,0.1925,-0.9625,-0.041114,0.036966,-1.01089,-0.23772,0.05838,0.37618
0,0,0,5,5,5,5,-1.3616,-0.0468762,27.539,-0.000960262,0.00206159,-0.00624528,0,0,0,3.465,0.1925,-0.98,-0.04209,0.037942,-1.01858,-0.23772,0.05838,0.37618
0,0,0,5,5,5,5,-1.36402,-0.0483079,27.5446,-0.000935272,0.00201944,-0.0062463,0,0,0,3.2725,0.07,-0.84,-0.04209,0.037942,-1.01858,-0.23772,0.05838,0.37618
0,0,0,5,5,5,5,-1.36349,-0.0488694,27.5486,-0.000561016,-0.00114663,0.000270178,0,0,0,3.1325,0.035,-0.84,-0.041724,0.03477,-1.01211,-0.23772,0.05838,0.37618
0,0,0,5,5,5,5,-1.36288,-0.0490895,27.5527,-0.000557174,-0.00113593,0.000270429,0,0,0,3.185,0.2275,-0.7875,-0.041724,0.03477,-1.01211,-0.23772,0.05838,0.37618
0,0,0,5,5,5,5,-1.36357,-0.0509281,27.5581,-0.00149697,7.32605e-05,0.00481921,0,0,0,3.3075,0.105,-0.7525,-0.0427,0.03599,-1.0076,-0.23772,0.05838,0.37618
0,0,0,5,5,5,5,-1.36387,-0.053146,27.5634,-0.00145826,6.80188e-05,0.00481905,0,0,0,3.5175,-0.14,-0.8225,-0.0427,0.03599,-1.0076,-0.23772,0.05838,0.37618
0,0,0,5,5,5,5,-1.36257,-0.0515846,27.5676,0.00106569,-0.00125277,0.00186885,0,0,0,3.3775,0.07,-0.8225,-0.040138,0.034648,-1.01053,-0.23604,0.05796,0.3766
0,0,0,5,5,5,5,-1.36365,-0.0523225,27.5738,-0.000500749,0.000560321,0.00346672,0,0,0,3.2725,0.0525,-0.77,-0.041724,0.036478,-1.00894,-0.23604,0.05796,0.3766
0,0,0,5,5,5,5,-1.36436,-0.0531325,27.58,-0.00048661,0.00054787,0.00346641,0,0,0,3.465,0,-0.805,-0.041724,0.036478,-1.00894,-0.23604,0.05796,0.3766
0,0,0,5,5,5,5,-1.36545,-0.0531129,27.5853,0.000363447,0.000651047,0.00518724,0,0,0,3.2725,-0.1225,-0.8925,-0.04087,0.0366,-1.00723,-0.23604,0.05796,0.3766
0,0,0,5,5,5,5,-1.36655,-0.0527332,27.5906,0.000356819,0.000631894,0.00518679,0,0,0,3.255,0.0875,-0.91,-0.04087,0.0366,-1.00723,-0.23604,0.05796,0.3766
0,0,0,5,5,5,5,-1.36192,-0.0523807,27.5946,-0.000378246,-0.00429452,0.00100847,0,0,0,3.57,0.14,-0.805,-0.041602,0.031598,-1.01138,-0.23604,0.05796,0.3766
0,0,0,5,5,5,5,-1.35731,-0.0518655,27.5986,-0.000387238,-0.00421412,0.00101038,0,0,0,3.605,0.245,-0.7175,-0.041602,0.031598,-1.01138,-0.23604,0.05796,0.3766
0,0,0,5,5,5,5,-1.35547,-0.0511892,27.6034,-3.45853e-05,-0.00161734,-9.53821e-05,0,0,0,3.535,0.315,-0.665,-0.041236,0.03416,-1.01248,-0.23604,0.05796,0.3766
0,0,0,5,5,5,5,-1.35376,-0.0508987,27.6059,-3.96559e-05,-0.00158746,-9.46711e-05,0,0,0,3.4825,0.105,-0.8575,-0.041236,0.03416,-1.01248,-0.23758,0.05866,0.37254
0,0,0,5,5,5,5,-1.34981,-0.0480624,27.606,0.00185461,-0.00359466,0.00261187,0,0,0,3.43,0.0175,-0.8575,-0.039284,0.032086,-1.00979,-0.23758,0.05866,0.37254
0,0,0,5,5,5,5,-1.3459,-0.0449383,27.6062,0.00180009,-0.00352652,0.00261351,0,0,0,3.4475,0.2275,-0.8225,-0.039284,0.032086,-1.00979,-0.23758,0.05866,0.37254
0,0,0,5,5,5,5,-1.34284,-0.0428825,27.6072,0.00103529,-0.00274039,0.00544261,0,0,0,3.535,0.245,-0.8225,-0.040016,0.032818,-1.00699,-0.23758,0.05866,0.37254
0,0,0,5,5,5,5,-1.33975,-0.0410632,27.6081,0.00100354,-0.00268643,0.0054439,0,0,0,3.5875,0.14,-0.945,-0.040016,0.032818,-1.00699,-0.23758,0.05866,0.37254
0,0,0,5,5,5,5,-1.34015,-0.045247,27.6132,-0.0035399,-0.000373091,-0.00451515,0,0,0,3.255,0.1575,-0.9975,-0.044652,0.035136,-1.01687,-0.23758,0.05866,0.37254
0,0,0,5,5,5,5,-1.34039,-0.0494892,27.6183,-0.00346585,-0.000377118,-0.00451531,0,0,0,3.3425,0.07,-1.015,-0.044652,0.035136,-1.01687,-0.23758,0.05866,0.37254
0,0,0,5,5,5,5,-1.33797,-0.0456096,27.6178,0.00290517,-0.00204479,0.00175611,0,0,0,3.3775,0,-0.9625,-0.038186,0.033428,-1.01065,-0.23758,0.05866,0.37254
0,0,0,5,5,5,5,-1.33564,-0.0416855,27.6133,0.00283669,-0.00200405,0.00175711,0,0,0,3.36,0.07,-0.8925,-0.038186,0.033428,-1.01065,-0.2387,0.0609,0.36498
0,0,0,5,5,5,5,-1.33539,-0.0440403,27.6131,-0.00186016,-0.000289961,-0.00623447,0,0,0,3.5,0,-0.805,-0.042944,0.035136,-1.01858,-0.2387,0.0609,0.36498
0,0,0,5,5,5,5,-1.33523,-0.0464933,27.6131,-0.00181734,-0.000287246,-0.00623444,0,0,0,3.4475,-0.0875,-0.7875,-0.042944,0.035136,-1.01858,-0.2387,0.0609,0.36498
0,0,0,5,5,5,5,-1.33806,-0.0493584,27.6143,-0.00201031,0.00247231,-0.00389962,0,0,0,3.43,0.07,-0.77,-0.043188,0.037942,-1.01626,-0.2387,0.0609,0.36498
0,0,0,5,5,5,5,-1.34074,-0.052277,27.6155,-0.00195937,0.0024256,-0.00390075,0,0,0,3.4825,0,-0.8575,-0.043188,0.037942,-1.01626,-0.2387,0.0609,0.36498
0,0,0,5,5,5,5,-1.34073,-0.0551163,27.6156,-0.00215279,-0.000138892,-0.00217952,0,0,0,3.535,-0.035,-0.945,-0.043432,0.03538,-1.01455,-0.2387,0.0609,0.36498
0,0,0,5,5,5,5,-1.34103,-0.0582817,27.6158,-0.00209754,-0.000144039,-0.00217969,0,0,0,3.36,-0.2625,-0.9275,-0.043432,0.03538,-1.01455,-0.2387,0.0609,0.36498
0,0,0,5,5,5,5,-1.33908,-0.0555722,27.612,0.00235014,-0.00169776,0.00126371,0,0,0,3.36,-0.245,-0.84,-0.038918,0.033794,-1.01114,-0.2387,0.0609,0.36498
0,0,0,5,5,5,5,-1.33722,-0.0524303,27.6107,0.0022953,-0.00166525,0.00126452,0,0,0,3.3425,0.0525,-0.77,-0.038918,0.033794,-1.01114,-0.23786,0.06006,0.37408
0,0,0,5,5,5,5,-1.33811,-0.0548945,27.6133,-0.00191369,0.00063966,-0.00574395,0,0,0,3.4125,0.0525,-0.84,-0.043188,0.036112,-1.01809,-0.23786,0.06006,0.37408
0,0,0,5,5,5,5,-1.33904,-0.0575116,27.616,-0.00186801,0.000623458,-0.00574437,0,0,0,3.3775,-0.07,-0.8225,-0.043188,0.036112,-1.01809,-0.23786,0.06006,0.37408
0,0,0,5,5,5,5,-1.3363,-0.052557,27.6131,0.00375534,-0.00213778,0.000158351,0,0,0,3.4125,0,-0.875,-0.037454,0.033306,-1.01223,-0.23786,0.06006,0.37408
0,0,0,5,5,5,5,-1.33373,-0.0477198,27.61,0.00367092,-0.00209282,0.000159473,0,0,0,3.36,0,-0.9625,-0.037454,0.033306,-1.01223,-0.23786,0.06006,0.37408
0,0,0,5,5,5,5,-1.33563,-0.0534544,27.6146,-0.00436854,0.00117141,-0.00857073,0,0,0,3.325,-0.035,-0.8575,-0.045628,0.0366,-1.0209,-0.23786,0.06006,0.37408
0,0,0,5,5,5,5,-1.33726,-0.0588234,27.6192,-0.00427483,0.00114289,-0.00857149,0,0,0,3.4475,0.105,-0.91,-0.045628,0.0366,-1.0209,-0.23786,0.06006,0.37408
0,0,0,5,5,5,5,-1.33695,-0.0569073,27.6188,0.00140156,4.91325e-05,0.00298583,0,0,0,3.57,0.1575,-1.0325,-0.039894,0.035502,-1.00943,-0.23786,0.06006,0.37408
0,0,0,5,5,5,5,-1.33696,-0.0546615,27.6177,0.00136236,4.89505e-05,0.00298586,0,0,0,3.395,0.3675,-0.8925,-0.039894,0.035502,-1.00943,-0.24052,0.05936,0.36834
0,0,0,5,5,5,5,-1.33718,-0.056185,27.6189,-0.00140522,-0.00044323,-0.00402231,0,0,0,3.15,0.14,-0.77,-0.0427,0.035014,-1.01638,-0.24052,0.05936,0.36834
0,0,0,5,5,5,5,-1.33735,-0.057834,27.6195,-0.00137644,-0.000446216,-0.00402241,0,0,0,3.1675,0.0525,-1.015,-0.0427,0.035014,-1.01638,-0.24052,0.05936,0.36834
0,0,0,5,5,5,5,-1.33595,-0.0566087,27.6181,0.000910402,-0.0013989,0.00310919,0,0,0,3.3775,-0.0175,-1.015,-0.040382,0.034038,-1.00931,-0.24052,0.05936,0.36834
0,0,0,5,5,5,5,-1.33465,-0.0552899,27.6169,0.000887385,-0.00137616,0.00310974,0,0,0,3.3425,0.0525,-0.91,-0.040382,0.034038,-1.00931,-0.24052,0.05936,0.36834
0,0,0,5,5,5,5,-1.33421,-0.0539553,27.6159,0.000985578,-0.000269369,0.00089687,0,0,0,3.465,0.0875,-0.98,-0.04026,0.035136,-1.0115,-0.24052,0.05936,0.36834
0,0,0,5,5,5,5,-1.33363,-0.0527702,27.6149,0.000964894,-0.000259191,0.000897126,0,0,0,3.5525,0.0175,-0.98,-0.04026,0.035136,-1.0115,-0.24052,0.05936,0.36834
0,0,0,5,5,5,5,-1.33677,-0.0583394,27.6187,-0.00379733,0.00212857,-0.00119437,0,0,0,3.255,-0.21,-0.8925,-0.04514,0.037576,-1.01358,-0.24052,0.05936,0.36834
0,0,0,5,5,5,5,-1.33999,-0.0633583,27.6227,-0.00370974,0.00207231,-0.00119578,0,0,0,3.1675,0.035,-0.805,-0.04514,0.037576,-1.01358,-0.24052,0.05936,0.36834
0,0,0,5,5,5,5,-1.33916,-0.0631342,27.6266,0.000173894,-0.000477879,0.00150943,0,0,0,3.64,0.0175,-0.84,-0.041236,0.035014,-1.01089,-0.23968,0.05726,0.3787
0,0,0,5,5,5,5,-1.33853,-0.0623866,27.6302,0.000160846,-0.000466934,0.0015097,0,0,0,3.535,0.3325,-1.015,-0.041236,0.035014,-1.01089,-0.23968,0.05726,0.3787
0,0,0,5,5,5,5,-1.33656,-0.0574616,27.6305,0.00384095,-0.00116529,0.00347777,0,0,0,3.5875,0.0175,-1.015,-0.037454,0.034282,-1.00894,-0.23968,0.05726,0.3787
0,0,0,5,5,5,5,-1.33504,-0.0529074,27.6313,0.00376146,-0.00113881,0.00347847,0,0,0,3.36,-0.14,-0.7875,-0.037454,0.034282,-1.00894,-0.23968,0.05726,0.3787
0,0,0,5,5,5,5,-1.33693,-0.0524297,27.6353,0.000837466,0.00151503,-0.00168613,0,0,0,3.185,-0.14,-0.8225,-0.040382,0.036966,-1.01406,-0.23968,0.05726,0.3787
0,0,0,5,5,5,5,-1.33841,-0.0517164,27.6393,0.000825016,0.00148918,-0.00168672,0,0,0,3.395,0,-0.77,-0.040382,0.036966,-1.01406,-0.23968,0.05726,0.3787
0,0,0,5,5,5,5,-1.33942,-0.0530638,27.6444,-0.000852266,0.000860999,0.00384553,0,0,0,3.5175,-0.0175,-0.7875,-0.04209,0.036356,-1.00857,-0.23968,0.05726,0.3787
0,0,0,5,5,5,5,-1.34031,-0.0540248,27.6493,-0.000835494,0.00084546,0.00384515,0,0,0,3.57,0.1925,-0.875,-0.04209,0.036356,-1.00857,-0.23968,0.05726,0.3787
0,0,0,5,5,5,5,-1.34089,-0.0546066,27.653,-0.000460884,0.000713219,0.00175478,0,0,0,3.605,0.1225,-0.8575,-0.041724,0.036234,-1.01065,-0.24024,0.0574,0.37156
0,0,0,5,5,5,5,-1.34048,-0.0550007,27.6559,-0.000454004,-0.000623102,-0.00377775,0,0,0,3.3075,0.0875,-0.8925,-0.041724,0.034892,-1.01614,-0.24024,0.0574,0.37156
0,0,0,5,5,5,5,-1.34015,-0.0557472,27.6588,-0.000440975,-0.000617226,-0.00377762,0,0,0,3.2725,-0.1225,-0.9275,-0.041724,0.034892,-1.01614,-0.24024,0.0574,0.37156
0,0,0,5,5,5,5,-1.33796,-0.0497636,27.6573,0.00467847,-0.00155602,-0.00328484,0,0,0,3.325,-0.0175,-0.9625,-0.036478,0.033916,-1.01565,-0.24024,0.0574,0.37156
0,0,0,5,5,5,5,-1.33598,-0.0439743,27.6557,0.00457743,-0.00152148,-0.00328395,0,0,0,3.2375,-0.0525,-0.9625,-0.036478,0.033916,-1.01565,-0.24024,0.0574,0.37156
0,0,0,5,5,5,5,-1.3361,-0.0418373,27.6566,0.00198894,6.39605e-05,0.000527431,0,0,0,3.255,-0.14,-1.0325,-0.03904,0.035502,-1.01187,-0.24024,0.0574,0.37156
0,0,0,5,5,5,5,-1.33589,-0.0397966,27.658,0.00195332,6.7681e-05,0.000527543,0,0,0,3.4475,-0.175,-0.805,-0.03904,0.035502,-1.01187,-0.24024,0.0574,0.37156
0,0,0,5,5,5,5,-1.33719,-0.0408167,27.6618,-0.000458591,0.00114421,-0.00144017,0,0,0,3.4125,-0.105,-0.7,-0.04148,0.0366,-1.01382,-0.24024,0.0574,0.37156
0,0,0,5,5,5,5,-1.33799,-0.04163,27.664,-0.000444396,0.00113028,-0.00144051,0,0,0,3.675,0,-0.77,-0.04148,0.0366,-1.01382,-0.23968,0.05894,0.37758
0,0,0,5,5,5,5,-1.33852,-0.0404484,27.6648,0.00111429,0.000876652,-0.00451442,0,0,0,3.5,0,-0.7525,-0.039894,0.036356,-1.01687,-0.23968,0.05894,0.37758
0,0,0,5,5,5,5,-1.33887,-0.0394428,27.6656,0.00109674,0.000870665,-0.00451455,0,0,0,3.605,-0.0875,-0.8225,-0.039894,0.036356,-1.01687,-0.23968,0.05894,0.37758
0,0,0,5,5,5,5,-1.33851,-0.0346684,27.6638,0.00392907,0.000266294,-0.000211155,0,0,0,3.465,0,-0.8575,-0.036966,0.035746,-1.0126,-0.23968,0.05894,0.37758
0,0,0,5,5,5,5,-1.33867,-0.0299639,27.6622,0.00384696,0.000263513,-0.000211173,0,0,0,3.185,0.0175,-0.77,-0.036966,0.035746,-1.0126,-0.23968,0.05894,0.37758
0,0,0,5,5,5,5,-1.34139,-0.0357662,27.6674,-0.00443428,0.00168158,-0.00599092,0,0,0,3.2025,0.0175,-0.805,-0.045384,0.03721,-1.01833,-0.23968,0.05894,0.37758
0,0,0,5,5,5,5,-1.34364,-0.0411426,27.6725,-0.00434045,0.00164232,-0.0059919,0,0,0,3.43,0.1925,-0.91,-0.045384,0.03721,-1.01833,-0.23968,0.05894,0.37758
0,0,0,5,5,5,5,-1.34452,-0.0372435,27.6718,0.00312362,0.0013826,-0.00156607,0,0,0,3.465,0.175,-0.84,-0.03782,0.036966,-1.01394,-0.23968,0.05894,0.37758
0,0,0,5,5,5,5,-1.34491,-0.033432,27.6738,0.00305709,0.00137591,-0.00156619,0,0,0,3.745,0.175,-0.8925,-0.03782,0.036966,-1.01394,-0.24052,0.0567,0.37926
0,0,0,5,5,5,5,-1.34475,-0.0332325,27.6776,0.000137955,0.000279413,-0.00316446,0,0,0,3.64,0.0875,-0.8925,-0.040748,0.035868,-1.01553,-0.24052,0.0567,0.37926
0,0,0,5,5,5,5,-1.34476,-0.0329752,27.6814,0.000133463,0.000279277,-0.00316446,0,0,0,3.5525,0.1225,-0.8225,-0.040748,0.035868,-1.01553,-0.24052,0.0567,0.37926
0,0,0,5,5,5,5,-1.34531,-0.0324084,27.6852,0.000245057,0.00075825,-0.00451711,0,0,0,3.5,0.2625,-0.91,-0.040626,0.036356,-1.01687,-0.24052,0.0567,0.37926
0,0,0,5,5,5,5,-1.34606,-0.0321197,27.689,0.000240018,0.000745048,-0.00451742,0,0,0,3.3775,0.105,-0.875,-0.040626,0.036356,-1.01687,-0.24052,0.0567,0.37926
0,0,0,5,5,5,5,-1.34559,-0.0332756,27.693,-0.000954664,-0.000590048,-0.007468,0,0,0,3.36,0,-0.9625,-0.041846,0.035014,-1.0198,-0.24052,0.0567,0.37926
0,0,0,5,5,5,5,-1.34506,-0.0344046,27.6971,-0.000934961,-0.000580759,-0.00746779,0,0,0,3.395,0,-0.875,-0.041846,0.035014,-1.0198,-0.24052,0.0567,0.37926
0,0,0,5,5,5,5,-1.34694,-0.0350462,27.7014,4.81242e-05,0.00182899,-0.0104193,0,0,0,3.3075,-0.21,-0.875,-0.04087,0.037454,-1.02273,-0.24052,0.0567,0.37926
0,0,0,5,5,5,5,-1.34825,-0.0355858,27.7098,5.75416e-05,0.00180601,-0.0104199,0,0,0,3.605,-0.1575,-0.8575,-0.04087,0.037454,-1.02273,-0.23856,0.05418,0.37282
0,0,0,5,5,5,5,-1.35014,-0.0323602,27.7164,0.0029169,0.00213947,0.00285782,0,0,0,3.43,0.0175,-0.805,-0.037942,0.03782,-1.00955,-0.23856,0.05418,0.37282
0,0,0,5,5,5,5,-1.35225,-0.029468,27.7228,0.00286642,0.00210265,0.00285698,0,0,0,3.29,-0.14,-0.8225,-0.037942,0.03782,-1.00955,-0.23856,0.05418,0.37282
0,0,0,5,5,5,5,-1.35321,-0.026327,27.7289,0.00293309,0.00110892,0.00236481,0,0,0,3.3425,-0.14,-0.735,-0.03782,0.036844,-1.01004,-0.23856,0.05418,0.37282
0,0,0,5,5,5,5,-1.35403,-0.0233459,27.7347,0.00288106,0.00109455,0.0023645,0,0,0,3.4125,-0.1925,-0.875,-0.03782,0.036844,-1.01004,-0.23856,0.05418,0.37282
0,0,0,5,5,5,5,-1.35215,-0.0206113,27.74,0.0022259,-0.00131511,0.00445542,0,0,0,3.605,-0.0875,-0.875,-0.03843,0.034404,-1.00796,-0.23856,0.05418,0.37282
0,0,0,5,5,5,5,-1.3504,-0.0178514,27.7452,0.00217773,-0.00128459,0.00445615,0,0,0,3.5525,-0.035,-0.8925,-0.03843,0.034404,-1.00796,-0.23856,0.05418,0.37282
0,0,0,5,5,5,5,-1.34947,-0.0137632,27.7497,0.00332124,-0.000291437,0.0083909,0,0,0,3.6225,0,-0.9625,-0.03721,0.03538,-1.00406,-0.23856,0.05418,0.37282
0,0,0,5,5,5,5,-1.34879,-0.00952947,27.754,0.00324734,-0.000279584,0.0083912,0,0,0,3.5,0.14,-1.05,-0.03721,0.03538,-1.00406,-0.23856,0.05418,0.37282
0,0,0,5,5,5,5,-1.35212,-0.0120666,27.7557,-0.00181077,0.00320397,-0.0061181,0,0,0,3.5,0.1575,-1.0675,-0.042334,0.038918,-1.01846,-0.24024,0.05936,0.37688
0,0,0,5,5,5,5,-1.35542,-0.0147436,27.7577,-0.00176405,0.00314645,-0.00611947,0,0,0,3.4825,0.035,-0.91,-0.042334,0.038918,-1.01846,-0.24024,0.05936,0.37688
0,0,0,5,5,5,5,-1.3586,-0.0211972,27.7621,-0.00493153,0.0023582,-0.00206352,0,0,0,3.43,0.07,-0.7875,-0.045628,0.038186,-1.01443,-0.24024,0.05936,0.37688
0,0,0,5,5,5,5,-1.3613,-0.0273567,27.7664,-0.00482403,0.00231107,-0.00206469,0,0,0,3.6575,0.1575,-0.8225,-0.045628,0.038186,-1.01443,-0.24024,0.05936,0.37688
0,0,0,5,5,5,5,-1.35828,-0.023908,27.7636,0.00204047,-0.00252125,0.000764408,0,0,0,3.5175,0.35,-0.77,-0.038674,0.033306,-1.01162,-0.24024,0.05936,0.37688
0,0,0,5,5,5,5,-1.35563,-0.0208117,27.7606,0.00198643,-0.00247504,0.000765524,0,0,0,3.3425,0.1925,-0.8225,-0.038674,0.033306,-1.01162,-0.24024,0.05936,0.37688
0,0,0,5,5,5,5,-1.35517,-0.0203068,27.7597,0.000276815,-0.000512943,0.00162636,0,0,0,3.4125,0.105,-0.8925,-0.040382,0.035258,-1.01077,-0.24024,0.05936,0.37688
0,0,0,5,5,5,5,-1.35472,-0.0196063,27.7587,0.000264589,-0.000505041,0.00162655,0,0,0,3.4125,0.2275,-0.9275,-0.040382,0.035258,-1.01077,-0.24024,0.05936,0.37688
0,0,0,5,5,5,5,-1.35587,-0.0216864,27.7621,-0.00176436,0.000696066,-0.00132471,0,0,0,3.3425,0.175,-0.735,-0.042456,0.036478,-1.0137,-0.23996,0.05796,0.37618
0,0,0,5,5,5,5,-1.35923,-0.0249021,27.767,-0.00268012,0.00271369,-0.00673585,0,0,0,3.2725,0.3325,-0.77,-0.043432,0.038552,-1.01907,-0.23996,0.05796,0.37618
0,0,0,5,5,5,5,-1.36223,-0.0284299,27.7717,-0.00261855,0.00266124,-0.00673712,0,0,0,3.43,0.105,-0.805,-0.043432,0.038552,-1.01907,-0.23996,0.05796,0.37618
0,0,0,5,5,5,5,-1.36521,-0.0298461,27.7749,-0.000771549,0.00248721,-0.00489414,0,0,0,3.22,0,-0.8925,-0.041602,0.03843,-1.01724,-0.23996,0.05796,0.37618
0,0,0,5,5,5,5,-1.36769,-0.0313409,27.7782,-0.00074546,0.00244391,-0.00489519,0,0,0,3.465,-0.07,-0.8225,-0.041602,0.03843,-1.01724,-0.23996,0.05796,0.37618
0,0,0,5,5,5,5,-1.37019,-0.0291138,27.7792,0.00213133,0.00276669,-0.00600275,0,0,0,3.3775,0.0525,-0.8925,-0.038674,0.038796,-1.01833,-0.23996,0.05796,0.37618
0,0,0,5,5,5,5,-1.37212,-0.0268118,27.7801,0.00209115,0.00273302,-0.00600354,0,0,0,3.675,0.1225,-0.98,-0.038674,0.038796,-1.01833,-0.23996,0.05796,0.37618
0,0,0,5,5,5,5,-1.37241,-0.0270753,27.782,3.04903e-05,0.00077391,-0.00133162,0,0,0,3.71,-0.0525,-0.91,-0.040748,0.036844,-1.0137,-0.23996,0.05796,0.37618
0,0,0,5,5,5,5,-1.37269,-0.0273864,27.7787,3.59206e-05,0.000768962,-0.00133174,0,0,0,3.71,-0.0875,-0.8575,-0.040748,0.036844,-1.0137,-0.23982,0.06174,0.37506
0,0,0,5,5,5,5,-1.37292,-0.0264127,27.7746,0.000990812,0.000520796,-0.00157772,0,0,0,3.5175,-0.0525,-0.84,-0.039772,0.0366,-1.01394,-0.23982,0.06174,0.37506
0,0,0,5,5,5,5,-1.37317,-0.0250476,27.7703,0.000966986,0.000516366,-0.00157782,0,0,0,3.5,0.1925,-0.9975,-0.039772,0.0366,-1.01394,-0.23982,0.06174,0.37506
0,0,0,5,5,5,5,-1.37072,-0.0190816,27.7626,0.00450743,-0.00176138,0.00395593,0,0,0,3.465,0.105,-0.8575,-0.036112,0.034282,-1.00845,-0.23982,0.06174,0.37506
0,0,0,5,5,5,5,-1.36837,-0.0131337,27.7548,0.00440362,-0.0017203,0.00395694,0,0,0,3.4475,0.175,-0.9625,-0.036112,0.034282,-1.00845,-0.23982,0.06174,0.37506
0,0,0,5,5,5,5,-1.36803,-0.00792399,27.7479,0.00394824,-4.61472e-06,0.00457184,0,0,0,3.36,0.2275,-0.9975,-0.036478,0.03599,-1.00784,-0.23982,0.06174,0.37506
0,0,0,5,5,5,5,-1.36777,-0.00273434,27.7411,0.00385766,-1.38339e-07,0.00457196,0,0,0,3.325,0.28,-0.945,-0.036478,0.03599,-1.00784,-0.23982,0.06174,0.37506
0,0,0,5,5,5,5,-1.3662,-0.000254728,27.7355,0.00162764,-0.00168248,0.00371197,0,0,0,3.2725,0.175,-0.8925,-0.038674,0.034282,-1.0087,-0.23982,0.06174,0.37506
0,0,0,5,5,5,5,-1.36475,0.00208331,27.7332,0.00158683,-0.00165723,0.00371257,0,0,0,3.22,0.1225,-0.9275,-0.038674,0.034282,-1.0087,-0.23786,0.05978,0.36904
0,0,0,5,5,5,5,-1.36667,-0.000137855,27.7346,-0.001776,0.0016068,-0.00932076,0,0,0,3.325,0.1575,-0.9275,-0.04209,0.037576,-1.02163,-0.23786,0.05978,0.36904
0,0,0,5,5,5,5,-1.36786,-0.00212536,27.7362,-0.00174131,0.00158609,-0.00932126,0,0,0,3.71,0.2625,-0.875,-0.04209,0.037576,-1.02163,-0.23786,0.05978,0.36904
0,0,0,5,5,5,5,-1.365,0.00119233,27.733,0.00220981,-0.00239424,0.00604849,0,0,0,3.5525,0.175,-0.98,-0.038064,0.03355,-1.00638,-0.23786,0.05978,0.36904
0,0,0,5,5,5,5,-1.36214,0.00398186,27.7298,0.00216113,-0.00234432,0.00604968,0,0,0,3.5875,-0.0875,-1.0325,-0.038064,0.03355,-1.00638,-0.23786,0.05978,0.36904
