pid_x,pid_y,pid_z,front_left_speed,front_right_speed,back_left_speed,back_right_speed,orientation_x,orientation_y,orientation_z,acceleration_x,acceleration_y,acceleration_z,gyro_x,gyro_y,gyro_z,accel_x,accel_y,accel_z,mag_x,mag_y,mag_z
-0.248995,0,0,5.24899,5.24899,5,5,0.49799,-0.0465897,-0.221226,0.0337796,-0.431398,0.0887926,3.4825,0.0875,-0.3675,-0.007198,-0.427488,-0.924516,-0.06734,0.24766,0.35826
-0.494814,0,0,5.49481,5.49481,5,5,0.989628,-0.0837635,-0.446691,0.0391664,-0.422208,0.0954426,3.605,0.21,-0.595,-0.00244,-0.426878,-0.917806,-0.06734,0.24766,0.35826
-0.736053,0,0,5.73605,5.73605,5,5,1.47211,-0.118401,-0.67061,0.0397709,-0.413789,0.0952607,3.3775,-0.07,-0.56,-0.00244,-0.426878,-0.917806,-0.06734,0.24766,0.35826
-0.973007,0,0,5.97301,5.97301,5,5,1.94601,-0.150823,-0.892,0.0397294,-0.406376,0.0930455,3.5,0.035,-0.4375,-0.00305,-0.427732,-0.919758,-0.06734,0.24766,0.35826
-1.20578,0,0,6.20578,6.20578,5,5,2.41155,-0.180584,-1.11159,0.0402488,-0.398257,0.0927351,3.5875,-0.0525,-0.2975,-0.00305,-0.427732,-0.919758,-0.06734,0.24766,0.35826
-1.43449,0,0,6.43449,6.43449,5,5,2.86897,-0.210922,-1.32687,0.0383486,-0.390893,0.0916278,3.5875,-0.0525,-0.2975,-0.00549,-0.428342,-0.92049,-0.06734,0.24766,0.35826
-1.65879,0,0,6.65879,6.65879,5,5,3.31757,-0.234575,-1.53139,0.0387614,-0.383075,0.0912038,3.395,-0.0525,-0.315,-0.00549,-0.428342,-0.92049,-0.06972,0.24346,0.36022
-1.8778,0,0,6.8778,6.8778,5,5,3.7556,-0.255694,-1.73429,0.0387655,-0.373979,0.0875339,3.6925,0.0875,-0.455,-0.005856,-0.426878,-0.923662,-0.06972,0.24346,0.36022
-2.09212,0,0,7.09212,7.09212,5,5,4.18425,-0.273883,-1.9359,0.039326,-0.365783,0.0851703,3.85,0.1575,-0.4725,-0.005612,-0.426146,-0.925492,-0.06972,0.24346,0.36022
-2.30164,0,0,7.30164,7.30164,5,5,4.60328,-0.291222,-2.13474,0.0384137,-0.357026,0.0848544,3.64,0.1925,-0.525,-0.006832,-0.424682,-0.925248,-0.06972,0.24346,0.36022
-2.50732,0,0,7.50732,7.50732,5,5,5.01463,-0.306488,-2.33188,0.0386802,-0.349872,0.0842512,3.6925,0.175,-0.5075,-0.006832,-0.424682,-0.925248,-0.06972,0.24346,0.36022
-2.71279,0,0,7.71279,7.71279,5,5,5.42558,-0.318559,-2.52846,0.0405916,-0.347126,0.0903597,3.71,0.105,-0.42,-0.005124,-0.429074,-0.918538,-0.06972,0.24346,0.36022
-2.91459,0,0,7.91459,7.91459,5,5,5.82917,-0.328647,-2.72315,0.0407677,-0.340116,0.0896679,3.885,0.14,-0.3325,-0.005124,-0.429074,-0.918538,-0.06972,0.24346,0.36022
-3.11195,0,0,8.11195,8.11195,5,5,6.22391,-0.334709,-2.91775,0.0423313,-0.332654,0.0874686,3.885,0.14,-0.3325,-0.00366,-0.428464,-0.920002,-0.06972,0.24346,0.36022
-3.30613,0,0,8.30613,8.30613,5,5,6.61225,-0.348648,-3.11516,0.0379582,-0.326652,0.0867096,3.9375,0.4025,-0.42,-0.008296,-0.429196,-0.920002,-0.06622,0.24668,0.3542
-3.4941,0,0,8.4941,8.4941,5,5,6.98821,-0.361179,-3.31011,0.037205,-0.316717,0.0838412,3.5,0.455,-0.385,-0.009272,-0.42578,-0.922076,-0.06622,0.24668,0.3542
-3.67852,0,0,8.67852,8.67852,5,5,7.35704,-0.372322,-3.50363,0.0373994,-0.310331,0.0830362,3.4825,0.1575,-0.5425,-0.009272,-0.42578,-0.922076,-0.06622,0.24668,0.3542
-3.86032,0,0,8.86032,8.86032,5,5,7.72064,-0.378423,-3.69812,0.0404216,-0.307826,0.0787604,3.395,0,-0.5425,-0.006344,-0.429562,-0.925492,-0.06622,0.24668,0.3542
-4.03882,0,0,9.03882,9.03882,5,5,8.07763,-0.382151,-3.89037,0.0404866,-0.301654,0.0779037,3.5525,0.455,-0.3675,-0.006344,-0.429562,-0.925492,-0.06622,0.24668,0.3542
-4.21171,0,0,9.21171,9.21171,5,5,8.42341,-0.383891,-4.08118,0.0403955,-0.292018,0.0753162,3.5525,0.3675,-0.4025,-0.006466,-0.425902,-0.9272,-0.06622,0.24668,0.3542
-4.38147,0,0,9.38147,9.38147,5,5,8.76294,-0.384302,-4.27038,0.0404027,-0.286159,0.0744307,3.745,0.28,-0.525,-0.006466,-0.425902,-0.9272,-0.06622,0.24668,0.3542
-4.54999,0,0,9.54999,9.54999,5,5,9.09997,-0.379209,-4.46084,0.0435939,-0.282302,0.0781901,3.745,0.28,-0.525,-0.003172,-0.427854,-0.922564,-0.06622,0.24668,0.3542
-4.71627,0,0,9.71627,9.71627,5,5,9.43255,-0.368078,-4.64288,0.0451005,-0.277428,0.0808223,3.64,0.385,-0.5425,-0.001464,-0.428708,-0.919026,-0.0679,0.24346,0.35756
-4.87614,0,0,9.87614,9.87614,5,5,9.75229,-0.362759,-4.81833,0.0401482,-0.269971,0.0705488,3.5,0.105,-0.49,-0.006344,-0.426756,-0.928298,-0.0679,0.24346,0.35756
-5.03296,0,0,10.033,10.033,5,5,10.0659,-0.356351,-4.99203,0.0400364,-0.264579,0.0696076,3.5,0.105,-0.49,-0.006344,-0.426756,-0.928298,-0.0679,0.24346,0.35756
-5.18764,0,0,10.1876,10.1876,5,5,10.3753,-0.344076,-5.16745,0.0433452,-0.260365,0.0700033,3.64,0.105,-0.5075,-0.002806,-0.427854,-0.926956,-0.0679,0.24346,0.35756
-5.34094,0,0,10.3409,10.3409,5,5,10.6819,-0.333916,-5.33898,0.0413456,-0.255714,0.0745592,3.605,0.07,-0.5425,-0.004636,-0.428464,-0.921466,-0.0679,0.24346,0.35756
-5.49122,0,0,10.4912,10.4912,5,5,10.9824,-0.322846,-5.50844,0.0411524,-0.250562,0.0735744,3.5525,0.105,-0.385,-0.004636,-0.428464,-0.921466,-0.0679,0.24346,0.35756
-5.63748,0,0,10.6375,10.6375,5,5,11.275,-0.311813,-5.6755,0.0401094,-0.243842,0.0713606,3.5525,0.105,-0.385,-0.00549,-0.426756,-0.922686,-0.0679,0.24346,0.35756
-5.78094,0,0,10.7809,10.7809,5,5,11.5619,-0.299928,-5.84082,0.039902,-0.238934,0.0703704,3.605,0.1225,-0.4025,-0.00549,-0.426756,-0.922686,-0.0679,0.24346,0.35756
-5.92351,0,0,10.9235,10.9235,5,5,11.847,-0.288388,-6.00357,0.0393361,-0.236747,0.0716978,3.605,0.1225,-0.4025,-0.005856,-0.42944,-0.920368,-0.0679,0.24346,0.35756
-6.06333,0,0,11.0633,11.0633,5,5,12.1267,-0.276021,-6.16442,0.0391203,-0.231973,0.0706852,3.6225,0.175,-0.315,-0.005856,-0.42944,-0.920368,-0.0679,0.24346,0.35756
-6.20037,0,0,11.2004,11.2004,5,5,12.4007,-0.259309,-6.32621,0.0412583,-0.227176,0.0700393,3.6225,0.175,-0.315,-0.003416,-0.429318,-0.920002,-0.06986,0.24374,0.35574
-6.33292,0,0,11.3329,11.3329,5,5,12.6658,-0.245833,-6.48407,0.0381075,-0.21985,0.0669462,3.6575,0.0875,-0.525,-0.006344,-0.426512,-0.922076,-0.06986,0.24374,0.35574
-6.46371,0,0,11.4637,11.4637,5,5,12.9274,-0.229047,-6.64188,0.0397583,-0.216741,0.0675345,3.4825,0.14,-0.5075,-0.004392,-0.427854,-0.92049,-0.06986,0.24374,0.35574
-6.59202,0,0,11.592,11.592,5,5,13.184,-0.211863,-6.79792,0.0394584,-0.212378,0.0665238,3.5875,0.07,-0.4725,-0.004392,-0.427854,-0.92049,-0.06986,0.24374,0.35574
-6.71685,0,0,11.7169,11.7169,5,5,13.4337,-0.195377,-6.95147,0.0381988,-0.207038,0.0636775,3.5875,0.07,-0.4725,-0.005368,-0.426756,-0.92232,-0.06986,0.24374,0.35574
-6.83937,0,0,11.8394,11.8394,5,5,13.6787,-0.178495,-7.10359,0.0379041,-0.20288,0.062676,3.745,-0.0175,-0.6125,-0.005368,-0.426756,-0.92232,-0.06986,0.24374,0.35574
-6.95226,0,0,11.9523,11.9523,5,5,13.9045,-0.137649,-7.27001,0.0512836,-0.187451,0.05805,3.71,-0.035,-0.525,0.008784,-0.415166,-0.92598,-0.06986,0.24374,0.35574
-7.06286,0,0,12.0629,12.0629,5,5,14.1257,-0.0968443,-7.43446,0.0505714,-0.183705,0.0571165,3.6225,0.105,-0.5425,0.008784,-0.415166,-0.92598,-0.06986,0.24374,0.35574
-7.20087,0,0,12.2009,12.2009,5,5,14.4017,-0.0294561,-7.61283,0.0764865,-0.245228,0.0480621,3.6225,0.105,-0.5425,0.03599,-0.48129,-0.933788,-0.06986,0.24374,0.35574
-7.35489,0,0,12.3549,12.3549,5,5,14.7098,0.188876,-7.89516,0.190517,-0.292418,0.0459681,3.5875,0.21,-0.63,0.15433,-0.533628,-0.93452,-0.0665,0.24878,0.36834
-7.42531,0,0,12.4253,12.4253,5,5,14.8506,0.190003,-8.0406,0.0176233,-0.12517,0.0118989,3.43,-0.1925,-0.8925,-0.019276,-0.368928,-0.967704,-0.0665,0.24878,0.36834
-7.49434,0,0,12.4943,12.4943,5,5,14.9887,0.191634,-8.18466,0.0175948,-0.122842,0.0112785,3.43,-0.1925,-0.8925,-0.019276,-0.368928,-0.967704,-0.0665,0.24878,0.36834
-7.60735,0,0,12.6074,12.6074,5,5,15.2147,0.294492,-8.3902,0.102662,-0.235667,-0.0291001,3.57,-0.0175,-1.155,0.067954,-0.485438,-1.00674,-0.0665,0.24878,0.36834
-7.71818,0,0,12.7182,12.7182,5,5,15.4364,0.395424,-8.59303,0.1009,-0.231938,-0.0301329,3.57,-0.0175,-1.155,0.067954,-0.485438,-1.00674,-0.0665,0.24878,0.36834
-7.87955,0,0,12.8796,12.8796,5,5,15.7591,0.711215,-8.92498,0.222706,-0.225062,0.198707,3.7275,0.0175,-1.3125,0.19581,-0.483974,-0.778116,-0.0665,0.24878,0.36834
-7.9075,0,0,12.9075,12.9075,5,5,15.815,0.711081,-9.06864,0.00622081,-0.0391014,0.0333217,3.605,-0.1575,-1.0325,-0.021594,-0.299144,-0.941962,-0.0665,0.24878,0.36834
-7.93438,0,0,12.9344,12.9344,5,5,15.8688,0.71195,-9.21028,0.00620564,-0.0381987,0.0330654,3.045,0.4025,-0.7525,-0.021594,-0.299144,-0.941962,-0.0665,0.24878,0.36834
-7.99106,0,0,12.9911,12.9911,5,5,15.9821,0.554093,-9.24425,-0.09248,-0.10993,-0.0296602,3.045,0.4025,-0.7525,-0.123464,-0.37271,-1.00369,-0.0665,0.24878,0.36834
-8.04626,0,0,13.0463,13.0463,5,5,16.0925,0.401085,-9.27764,-0.0898096,-0.108072,-0.0301711,2.765,0.56,-0.4025,-0.123464,-0.37271,-1.00369,-0.0665,0.24878,0.36834
-8.24945,0,0,13.2494,13.2494,5,5,16.4989,0.67044,-9.56656,0.234351,-0.361652,0.137834,2.765,0.56,-0.4025,0.20679,-0.632814,-0.834968,-0.06972,0.25564,0.37576
-8.25493,0,0,13.2549,13.2549,5,5,16.5099,0.60732,-9.66899,-0.0387403,-0.0102283,-0.00593486,2.73,0.455,0.105,-0.068564,-0.281942,-0.977586,-0.06972,0.25564,0.37576
-8.26027,0,0,13.2603,13.2603,5,5,16.5205,0.545974,-9.77057,-0.0376697,-0.0100465,-0.00597752,2.73,0.455,0.105,-0.068564,-0.281942,-0.977586,-0.06972,0.25564,0.37576
-8.30123,0,0,13.3012,13.3012,5,5,16.6025,0.24628,-9.71362,-0.187941,-0.0674087,-0.0161863,3.9725,-0.2975,0.5425,-0.224724,-0.340624,-0.987346,-0.06972,0.25564,0.37576
-8.52485,0,0,13.5249,13.5249,5,5,17.0497,0.431805,-9.93649,0.186642,-0.405806,0.133008,4.5325,-0.525,0.6475,0.154696,-0.686128,-0.837042,-0.06972,0.25564,0.37576
-8.74459,0,0,13.7446,13.7446,5,5,17.4892,0.614776,-10.1548,0.183448,-0.39849,0.130704,4.6725,-0.2275,0.49,0.154696,-0.686128,-0.837042,-0.06972,0.25564,0.37576
-8.8604,0,0,13.8604,13.8604,5,5,17.7208,0.579388,-10.2539,0.00633238,-0.199476,0.0409642,4.6725,-0.2275,0.49,-0.02379,-0.491172,-0.924882,-0.06972,0.25564,0.37576
-8.97327,0,0,13.9733,13.9733,5,5,17.9465,0.545999,-10.3519,0.00691512,-0.195724,0.039763,3.99,-0.14,0.665,-0.02379,-0.491172,-0.924882,-0.06972,0.25564,0.37576
-9.02691,0,0,14.0269,14.0269,5,5,18.0538,0.36751,-10.3649,-0.0997928,-0.0837778,0.0151102,3.99,-0.14,0.665,-0.134078,-0.381128,-0.948794,-0.06972,0.25564,0.37576
-9.07872,0,0,14.0787,14.0787,5,5,18.1574,0.194269,-10.378,-0.0967692,-0.082054,0.0145622,3.325,-0.1575,0.875,-0.134078,-0.381128,-0.948794,-0.06972,0.25564,0.37576
-8.93524,0,0,13.9352,13.9352,5,5,17.8705,0.0333357,-10.4124,-0.0629816,0.281519,0.488485,3.325,-0.1575,0.875,-0.102968,-0.013176,-0.48007,-0.063,0.25662,0.37702
-9.00014,0,0,14.0001,14.0001,5,5,18.0003,0.856649,-11.0249,1.54023,-0.823806,-1.13561,3.64,0.6125,1.435,1.52146,-1.11947,-2.09084,-0.063,0.25662,0.37702
-9.06355,0,0,14.0635,14.0635,5,5,18.1271,1.66025,-11.6275,1.52621,-0.821797,-1.13659,3.64,0.6125,1.435,1.52146,-1.11947,-2.09084,-0.063,0.25662,0.37702
-9.12477,0,0,14.1248,14.1248,5,5,18.2495,0.148402,-10.7199,-1.67881,0.0797037,0.466759,3.0275,0.805,0.245,-1.72362,-0.221064,-0.49959,-0.063,0.25662,0.37702
-9.16341,0,0,14.1634,14.1634,5,5,18.3268,1.02804,-11.3629,0.751835,-0.167105,-0.0241327,2.695,0.84,0.35,0.732732,-0.468846,-0.986126,-0.063,0.25662,0.37702
-9.16467,0,0,14.1647,14.1647,5,5,18.3293,1.02711,-11.3615,0.751852,-0.167063,-0.0241462,5.005,-0.1225,0.525,0.732732,-0.468846,-0.986126,-0.063,0.25662,0.37702
-9.1041,0,0,14.1041,14.1041,5,5,18.2082,-0.412024,-10.5127,-0.954567,0.381031,0.602083,5.005,-0.1225,0.525,-1.00613,0.080642,-0.365512,-0.063,0.25662,0.37702
-9.04014,0,0,14.0401,14.0401,5,5,18.0803,-1.84244,-9.6569,-0.929607,0.378757,0.602312,4.1125,-0.3675,-0.3675,-1.00613,0.080642,-0.365512,-0.063,0.25662,0.37702
-9.19097,0,0,14.191,14.191,5,5,18.3819,-1.12377,-10.1854,0.658428,-0.426209,-0.00921976,4.1125,-0.3675,-0.3675,0.601216,-0.728584,-0.970998,-0.063,0.25662,0.37702
-9.3384,0,0,14.3384,14.3384,5,5,18.6768,-0.421793,-10.7036,0.646177,-0.421278,-0.0106983,3.395,-0.5775,-1.435,0.601216,-0.728584,-0.970998,-0.063,0.25662,0.37702
-9.25177,0,0,14.2518,14.2518,5,5,18.5035,-1.54073,-10.0913,-0.569442,0.304602,0.410309,3.395,-0.5775,-1.435,-0.639158,-0.000488,-0.55388,-0.063,0.25662,0.37702
-9.1648,0,0,14.1648,14.1648,5,5,18.3296,-2.64106,-9.48923,-0.55025,0.301503,0.410603,3.6575,0.8225,-1.785,-0.639158,-0.000488,-0.55388,-0.06874,0.26936,0.38612
-9.23913,0,0,14.2391,14.2391,5,5,18.4783,-2.35309,-9.77029,0.256374,-0.305503,-0.288232,3.08,0.4725,-1.68,0.175924,-0.60939,-1.24672,-0.06874,0.26936,0.38612
-9.1717,0,0,14.1717,14.1717,5,5,18.3434,-2.18836,-9.9806,0.0869444,0.11083,-0.000296457,3.395,0.4025,-2.17,0.008662,-0.191296,-0.961848,-0.06874,0.26936,0.38612
-9.10511,0,0,14.1051,14.1051,5,5,18.2102,-2.02828,-10.1906,0.0841525,0.108656,0.000529671,2.7825,0.42,-2.5375,0.008662,-0.191296,-0.961848,-0.06874,0.26936,0.38612
-9.22159,0,0,14.2216,14.2216,5,5,18.4432,-1.87411,-10.3902,0.164195,-0.436051,-0.326598,2.7825,0.42,-2.5375,0.091744,-0.73932,-1.28527,-0.06874,0.26936,0.38612
-9.33544,0,0,14.3354,14.3354,5,5,18.6709,-1.7232,-10.5865,0.161562,-0.432259,-0.327783,2.345,0.5425,-2.485,0.091744,-0.73932,-1.28527,-0.06874,0.26936,0.38612
-9.52793,0,0,14.5279,14.5279,5,5,19.0559,-2.27466,-10.3402,-0.219031,-0.117887,0.379387,2.345,0.5425,-2.485,-0.30012,-0.431514,-0.581086,-0.06874,0.26936,0.38612
-9.71723,0,0,14.7172,14.7172,5,5,19.4345,-2.81134,-10.1011,-0.209673,-0.111792,0.376818,3.535,0,-2.1525,-0.30012,-0.431514,-0.581086,-0.06874,0.26936,0.38612
-9.68056,0,0,14.6806,14.6806,5,5,19.3611,-2.06032,-10.6442,0.495333,0.0336167,0.014087,3.535,0,-2.1525,0.421022,-0.285236,-0.941962,-0.06874,0.26936,0.38612
-9.64322,0,0,14.6432,14.6432,5,5,19.2864,-1.33135,-11.1831,0.482616,0.0325118,0.0148734,2.555,-1.435,-1.68,0.421022,-0.285236,-0.941962,-0.06874,0.26936,0.38612
-9.53303,0,0,14.533,14.533,5,5,19.0661,-1.27817,-11.3266,0.0123886,0.206215,0.121523,3.4125,-0.7,-1.75,-0.050264,-0.108092,-0.837408,-0.06846,0.26572,0.38976
-9.68877,0,0,14.6888,14.6888,5,5,19.3775,-1.04788,-11.5495,0.220484,-0.401092,-0.0707593,3.8325,-0.0175,-1.5925,0.162748,-0.719922,-1.02651,-0.06846,0.26572,0.38976
-9.84282,0,0,14.8428,14.8428,5,5,19.6856,-0.822647,-11.7666,0.216553,-0.396003,-0.0724963,5.1625,0.2975,-0.9275,0.162748,-0.719922,-1.02651,-0.06846,0.26572,0.38976
-9.91392,0,0,14.9139,14.9139,5,5,19.8278,-1.20091,-11.6325,-0.236426,-0.112938,0.0016767,5.1625,0.2975,-0.9275,-0.298778,-0.439444,-0.951966,-0.06846,0.26572,0.38976
-9.98274,0,0,14.9827,14.9827,5,5,19.9655,-1.56915,-11.5001,-0.230001,-0.110732,0.00071332,4.69,-0.0175,-0.455,-0.298778,-0.439444,-0.951966,-0.06846,0.26572,0.38976
-9.99316,0,0,14.9932,14.9932,5,5,19.9863,-1.37626,-11.706,0.148342,-0.124039,-0.240555,4.69,-0.0175,-0.455,0.084546,-0.453108,-1.19133,-0.06846,0.26572,0.38976
-10.002,0,0,15.002,15.002,5,5,20.0041,-1.18967,-11.9098,0.145086,-0.123723,-0.240592,3.0975,-0.525,-0.28,0.084546,-0.453108,-1.19133,-0.06846,0.26572,0.38976
-9.96473,0,0,14.9647,14.9647,5,5,19.9295,-1.09563,-12.0647,0.0547604,0.0227155,-0.126758,3.0975,-0.525,-0.28,-0.004514,-0.30561,-1.07885,-0.06846,0.26572,0.38976
-9.92735,0,0,14.9273,14.9273,5,5,19.8547,-1.00358,-12.2183,0.053154,0.0214987,-0.126286,2.1175,0,-0.35,-0.004514,-0.30561,-1.07885,-0.06846,0.26572,0.38976
-10.0082,0,0,15.0082,15.0082,5,5,20.0164,-0.822024,-12.4089,0.127251,-0.119085,0.100868,2.275,-0.1225,0.385,0.073078,-0.448716,-0.852536,-0.06846,0.26572,0.38976
-10.0963,0,0,15.0963,15.0963,5,5,20.1925,-0.697149,-12.5648,0.0755052,-0.0149463,0.303073,1.785,-0.245,1.085,0.023302,-0.347578,-0.65087,-0.07,0.26866,0.39914
-10.1863,0,0,15.1863,15.1863,5,5,20.3727,-0.804758,-12.5845,-0.044224,-0.126683,0.0788082,3.5525,-0.56,0.4725,-0.09882,-0.462136,-0.8723,-0.07,0.26866,0.39914
-10.2749,0,0,15.2749,15.2749,5,5,20.5498,-0.907808,-12.6043,-0.0424257,-0.123797,0.0777028,3.9725,-0.07,0.42,-0.09882,-0.462136,-0.8723,-0.07,0.26866,0.39914
-10.3268,0,0,15.3268,15.3268,5,5,20.6535,-0.443772,-12.955,0.310896,-0.109978,0.0556391,3.9725,-0.07,0.42,0.26413,-0.450058,-0.89365,-0.07,0.26866,0.39914
-10.3789,0,0,15.3789,15.3789,5,5,20.7578,0.0083803,-13.2987,0.303004,-0.108266,0.0550239,5.2325,0.595,1.085,0.26413,-0.450058,-0.89365,-0.07,0.26866,0.39914
-10.2569,0,0,15.2569,15.2569,5,5,20.5137,0.135631,-13.4881,0.0578121,0.176089,-0.197366,5.2325,0.595,1.085,0.02013,-0.162016,-1.14558,-0.07,0.26866,0.39914
-10.1367,0,0,15.1367,15.1367,5,5,20.2733,0.259165,-13.6786,0.055656,0.172153,-0.195911,4.515,0.5425,0.14,0.02013,-0.162016,-1.14558,-0.07,0.26866,0.39914
-10.2811,0,0,15.2811,15.2811,5,5,20.5623,0.522502,-13.8997,0.200487,-0.234455,0.136228,4.515,0.5425,0.14,0.17019,-0.572912,-0.814228,-0.07,0.26866,0.39914
-10.3364,0,0,15.3364,15.3364,5,5,20.6728,0.155485,-13.7759,-0.190973,-0.0108532,0.14751,4.2,0.0875,-0.245,-0.22936,-0.35136,-0.802394,-0.07,0.26866,0.39914
-10.389,0,0,15.389,15.389,5,5,20.778,-0.199574,-13.6415,-0.184776,-0.00913623,0.146858,3.22,0.385,0.0875,-0.22936,-0.35136,-0.802394,-0.06846,0.2618,0.39998
-10.457,0,0,15.457,15.457,5,5,20.914,-0.409481,-13.5862,-0.0971656,-0.0260994,0.179438,3.4825,0.2975,-0.245,-0.145058,-0.370514,-0.76921,-0.06846,0.2618,0.39998
-10.4566,0,0,15.4566,15.4566,5,5,20.9131,-0.409489,-13.5859,0.0455802,-0.00132194,0.333006,3.115,0.175,-0.315,-0.001708,-0.345748,-0.616832,-0.06846,0.2618,0.39998
-10.456,0,0,15.456,15.456,5,5,20.912,-0.410011,-13.5871,0.0455893,-0.00134061,0.333013,2.9575,-0.4025,-0.98,-0.001708,-0.345748,-0.616832,-0.06846,0.2618,0.39998
-10.5272,0,0,15.5272,15.5272,5,5,21.0544,-0.305769,-13.7125,0.0834958,-0.137873,0.0208275,2.9925,-0.3675,-0.98,0.038186,-0.484462,-0.925736,-0.06846,0.2618,0.39998
-10.5976,0,0,15.5976,15.5976,5,5,21.1952,-0.201893,-13.8353,0.0816829,-0.135578,0.0199494,3.57,0.945,-0.9625,0.038186,-0.484462,-0.925736,-0.06846,0.2618,0.39998
-10.4841,0,0,15.4841,15.4841,5,5,20.9683,0.332862,-14.2393,0.391979,0.118898,-0.255393,3.57,0.945,-0.9625,0.359168,-0.226554,-1.20036,-0.06846,0.2618,0.39998
-10.3724,0,0,15.3724,15.3724,5,5,20.7449,0.852714,-14.643,0.382906,0.115221,-0.254092,3.2725,0.805,-1.225,0.359168,-0.226554,-1.20036,-0.06846,0.2618,0.39998
-10.3508,0,0,15.3508,15.3508,5,5,20.7015,0.993887,-14.818,0.0979881,-0.026679,-0.161528,3.745,1.085,-1.3475,0.075518,-0.367586,-1.10874,-0.06846,0.2618,0.39998
-10.3504,0,0,15.3504,15.3504,5,5,20.7008,0.996142,-14.8192,0.0979487,-0.0266903,-0.161524,3.2375,1.12,-1.5575,0.075518,-0.367586,-1.10874,-0.06846,0.2618,0.39998
-10.343,0,0,15.343,15.343,5,5,20.6861,1.57048,-15.236,0.352645,0.000590351,0.0857292,3.2375,1.12,-1.5575,0.341356,-0.340014,-0.863272,-0.06846,0.2618,0.39998
-10.3466,0,0,15.3466,15.3466,5,5,20.6932,0.80501,-14.8767,-0.351979,0.15847,0.327169,2.4675,0.665,-1.1025,-0.379664,-0.182512,-0.623908,-0.06846,0.2618,0.39998
-10.3491,0,0,15.3491,15.3491,5,5,20.6981,0.059931,-14.547,-0.338975,0.158585,0.327231,3.255,-0.0525,-1.4175,-0.379664,-0.182512,-0.623908,-0.06594,0.27748,0.39928
-10.4777,0,0,15.4777,15.4777,5,5,20.9554,0.801408,-15.0389,0.625558,-0.328569,0.105343,3.255,-0.0525,-1.4175,0.601948,-0.673318,-0.84241,-0.06594,0.27748,0.39928
-10.4795,0,0,15.4795,15.4795,5,5,20.959,0.80076,-15.04,0.625569,-0.328511,0.105321,5.6,-0.455,-0.91,0.601948,-0.673318,-0.84241,-0.06594,0.27748,0.39928
-10.4813,0,0,15.4813,15.4813,5,5,20.9625,0.800113,-15.041,-0.0955587,0.259343,-0.329201,5.6,-0.455,-0.91,-0.122244,-0.086132,-1.27356,-0.06594,0.27748,0.39928
-10.4831,0,0,15.4831,15.4831,5,5,20.9662,0.799307,-15.0424,-0.0955446,0.259402,-0.329224,5.6525,-0.595,-1.015,-0.122244,-0.086132,-1.27356,-0.06594,0.27748,0.39928
-10.7604,0,0,15.7604,15.7604,5,5,21.5209,1.11502,-15.2559,0.29669,-0.469376,0.29336,5.6525,-0.595,-1.015,0.277184,-0.823134,-0.652212,-0.06594,0.27748,0.39928
-10.5403,0,0,15.5403,15.5403,5,5,21.0806,1.22007,-15.472,0.015197,0.37895,-0.459772,5.9325,-0.1225,-1.015,-0.00366,0.031476,-1.40227,-0.06594,0.27748,0.39928
-10.324,0,0,15.324,15.324,5,5,20.648,1.32019,-15.6887,0.01345,0.371883,-0.45712,5.705,-0.63,-0.875,-0.00366,0.031476,-1.40227,-0.06594,0.27748,0.39928
-10.3195,0,0,15.3195,15.3195,5,5,20.6391,1.12738,-15.6957,-0.132856,-0.00609733,-0.0936846,5.705,-0.63,-0.875,-0.153964,-0.345992,-1.04176,-0.06594,0.27748,0.39928
-10.3032,0,0,15.3032,15.3032,5,5,20.6064,1.08965,-15.7917,-0.0275984,0.0261035,-0.016629,3.2725,-0.595,-0.77,-0.048922,-0.313296,-0.965508,-0.06594,0.27748,0.39928
-10.287,0,0,15.287,15.287,5,5,20.574,1.05344,-15.8865,-0.0269665,0.0255782,-0.0164191,3.08,-0.21,-0.77,-0.048922,-0.313296,-0.965508,-0.06594,0.27748,0.39928
-10.2853,0,0,15.2853,15.2853,5,5,20.5705,1.44794,-16.2208,0.347736,-0.144288,-0.275591,3.08,-0.21,-0.77,0.33428,-0.482876,-1.22256,-0.06594,0.27748,0.39928
-10.2821,0,0,15.2821,15.2821,5,5,20.5642,1.83186,-16.5453,0.341038,-0.144458,-0.275732,1.3825,-0.175,0.07,0.33428,-0.482876,-1.22256,-0.06762,0.27538,0.39872
-10.3052,0,0,15.3052,15.3052,5,5,20.6104,1.37407,-16.3827,-0.301531,-0.0186893,-0.0278188,1.89,0.0875,0.6125,-0.31903,-0.35807,-0.976488,-0.06762,0.27538,0.39872
-10.4751,0,0,15.4751,15.4751,5,5,20.9501,1.66648,-16.5983,0.156107,-0.0875705,0.403345,2.275,-0.105,0.525,0.145668,-0.432368,-0.546438,-0.06762,0.27538,0.39872
-10.6431,0,0,15.6431,15.6431,5,5,21.2862,1.95192,-16.8088,0.151127,-0.0821582,0.401086,3.43,-0.42,0.5775,0.145668,-0.432368,-0.546438,-0.06762,0.27538,0.39872
-10.643,0,0,15.643,15.643,5,5,21.286,1.95041,-16.8075,-0.18682,-0.261078,-0.169515,3.43,-0.42,0.5775,-0.193736,-0.611098,-1.11264,-0.06762,0.27538,0.39872
-10.6438,0,0,15.6438,15.6438,5,5,21.2876,1.9497,-16.8059,0.169024,-0.289629,0.431693,4.48,0.07,0.5425,0.163602,-0.639646,-0.51606,-0.06762,0.27538,0.39872
-10.6454,0,0,15.6454,15.6454,5,5,21.2908,1.94875,-16.8044,0.169041,-0.289577,0.431673,5.355,-0.07,0.5775,0.163602,-0.639646,-0.51606,-0.06762,0.27538,0.39872
-10.647,0,0,15.647,15.647,5,5,21.2939,1.9478,-16.8028,-0.204875,-0.179245,-0.155425,5.355,-0.07,0.5775,-0.211914,-0.52948,-1.09861,-0.06762,0.27538,0.39872
-10.6829,0,0,15.6829,15.6829,5,5,21.3659,1.68423,-16.7501,-0.165897,-0.0577282,-0.0428794,6.65,0.14,0.14,-0.177388,-0.40931,-0.986614,-0.06762,0.27538,0.39872
-10.717,0,0,15.717,15.717,5,5,21.4339,1.4287,-16.6983,-0.161439,-0.0565788,-0.0431997,5.705,0.4375,-0.0175,-0.177388,-0.40931,-0.986614,-0.06762,0.27538,0.39872
-10.7482,0,0,15.7482,15.7482,5,5,21.4964,1.10397,-16.6041,-0.211778,-0.048924,-0.0520883,5.705,0.4375,-0.0175,-0.23363,-0.402722,-0.995154,-0.06762,0.27538,0.39872
-10.7779,0,0,15.7779,15.7779,5,5,21.5557,0.789312,-16.5029,-0.206287,-0.0479269,-0.0523841,5.4075,0.245,-0.6825,-0.23363,-0.402722,-0.995154,-0.06468,0.26866,0.39676
-10.8236,0,0,15.8236,15.8236,5,5,21.6472,0.851891,-16.6073,0.0663286,-0.18433,-0.190688,5.4075,0.245,-0.6825,0.041236,-0.54046,-1.13179,-0.06468,0.26866,0.39676
-10.8669,0,0,15.8669,15.8669,5,5,21.7337,0.912383,-16.711,0.0652729,-0.182933,-0.191262,3.64,-0.245,-0.805,0.041236,-0.54046,-1.13179,-0.06468,0.26866,0.39676
-10.7524,0,0,15.7524,15.7524,5,5,21.5047,0.898545,-16.8153,-0.0354402,0.20648,0.0313984,3.64,-0.245,-0.805,-0.060146,-0.147742,-0.912316,-0.06468,0.26866,0.39676
-10.6389,0,0,15.6389,15.6389,5,5,21.2778,0.884793,-16.9185,-0.0352002,0.202793,0.0328466,2.24,0.1575,-0.63,-0.060146,-0.147742,-0.912316,-0.06468,0.26866,0.39676
-10.8252,0,0,15.8252,15.8252,5,5,21.6504,0.784909,-16.8857,-0.0158417,-0.159601,0.300117,1.68,-0.3675,-0.735,-0.042456,-0.515816,-0.64477,-0.06468,0.26866,0.39676
-11.0084,0,0,16.0084,16.0084,5,5,22.0169,0.689501,-16.8544,-0.0141766,-0.153657,0.297758,2.5025,-0.2975,-0.735,-0.042456,-0.515816,-0.64477,-0.06468,0.26866,0.39676
-11.0075,0,0,16.0075,16.0075,5,5,22.0149,0.68901,-16.8551,-0.0218217,0.0154569,0.567028,2.5025,-0.2975,-0.735,-0.050142,-0.346846,-0.37759,-0.06468,0.26866,0.39676
-11.0063,0,0,16.0063,16.0063,5,5,22.0127,0.689273,-16.8556,-0.0559637,-0.0898522,0.367866,2.3625,0.1575,-0.7875,-0.084424,-0.45201,-0.57523,-0.06468,0.26866,0.39676
-11.0064,0,0,16.0064,16.0064,5,5,22.0127,0.690925,-16.8563,-0.0559926,-0.089852,0.367865,3.6225,0.8575,-1.225,-0.084424,-0.45201,-0.57523,-0.06468,0.26866,0.39676
-10.8545,0,0,15.8545,15.8545,5,5,21.7089,0.961735,-17.1223,0.140097,0.229326,-0.107018,3.6225,0.8575,-1.225,0.117242,-0.128222,-1.04835,-0.06468,0.26866,0.39676
-10.7069,0,0,15.7069,15.7069,5,5,21.4138,1.22383,-17.3886,0.135524,0.224505,-0.105206,5.145,0.5075,-1.19,0.117242,-0.128222,-1.04835,-0.06468,0.26866,0.39676
-10.749,0,0,15.749,15.749,5,5,21.4979,1.34947,-17.5257,0.0797562,-0.037086,0.108018,5.005,1.0675,-1.085,0.06344,-0.390888,-0.836188,-0.06468,0.26866,0.39676
-10.7909,0,0,15.7909,15.7909,5,5,21.5818,1.47149,-17.6596,0.0776272,-0.0357444,0.107432,5.705,0.5425,-1.3475,0.06344,-0.390888,-0.836188,-0.06538,0.2681,0.399
-10.6009,0,0,15.6009,15.6009,5,5,21.2017,1.58461,-17.8596,0.0156396,0.321879,0.0352949,5.705,0.5425,-1.3475,0.003172,-0.02745,-0.91012,-0.06538,0.2681,0.399
-10.4139,0,0,15.4139,15.4139,5,5,20.8279,1.69272,-18.0602,0.0137535,0.31577,0.0375837,5.0925,-0.0175,-1.33,0.003172,-0.02745,-0.91012,-0.06538,0.2681,0.399
-10.4152,0,0,15.4152,15.4152,5,5,20.8305,1.69302,-18.0617,0.243235,-0.324131,-0.401605,5.0925,-0.0175,-1.33,0.23363,-0.66673,-1.3459,-0.06538,0.2681,0.399
-10.4168,0,0,15.4168,15.4168,5,5,20.8336,1.69211,-18.0635,0.243251,-0.324081,-0.401623,5.3725,-0.7525,-1.26,0.23363,-0.66673,-1.3459,-0.06538,0.2681,0.399
-10.347,0,0,15.347,15.347,5,5,20.6941,1.1803,-17.8755,-0.368854,0.167359,-0.0546973,5.3725,-0.7525,-1.26,-0.390034,-0.173606,-1.00272,-0.06538,0.2681,0.399
-10.2764,0,0,15.2764,15.2764,5,5,20.5528,0.680394,-17.6858,-0.36013,0.165102,-0.0536964,3.6575,-0.5075,-0.9975,-0.390034,-0.173606,-1.00272,-0.06538,0.2681,0.399
-10.7109,0,0,15.7109,15.7109,5,5,21.4219,0.106464,-17.2782,-0.215022,-0.374557,0.641127,3.115,-0.875,-1.1725,-0.25437,-0.726876,-0.307928,-0.06538,0.2681,0.399
-11.1371,0,0,16.1371,16.1371,5,5,22.2741,-0.451855,-16.8886,-0.205277,-0.360762,0.635565,2.2575,-0.2975,-1.12,-0.25437,-0.726876,-0.307928,-0.06538,0.2681,0.399
-11.1359,0,0,16.1359,16.1359,5,5,22.2717,-0.452093,-16.8899,0.223936,0.0927777,-0.300426,2.2575,-0.2975,-1.12,0.176656,-0.273768,-1.23671,-0.06538,0.2681,0.399
-11.1344,0,0,16.1344,16.1344,5,5,22.2688,-0.453651,-16.8906,0.223963,0.0927299,-0.300407,1.9425,-0.875,-0.49,0.176656,-0.273768,-1.23671,-0.06538,0.2681,0.399
-11.1329,0,0,16.1329,16.1329,5,5,22.2658,-0.45521,-16.8913,0.422012,0.214198,0.73029,1.9425,-0.875,-0.49,0.375516,-0.152378,-0.213988,-0.06538,0.2681,0.399
-11.1323,0,0,16.1323,16.1323,5,5,22.2645,-0.456161,-16.8923,-0.581686,0.0383146,-0.00296684,2.87,-0.6125,-0.7875,-0.632448,-0.328058,-0.941596,-0.06678,0.26978,0.3969
-11.1326,0,0,16.1326,16.1326,5,5,22.2652,-0.456151,-16.8922,-0.581686,0.0383262,-0.00297161,4.0075,0.14,-0.4375,-0.632448,-0.328058,-0.941596,-0.06678,0.26978,0.3969
-11.133,0,0,16.133,16.133,5,5,22.266,-0.456141,-16.8922,-0.077521,-0.0379914,0.389106,4.0075,0.14,-0.4375,-0.126148,-0.404308,-0.552538,-0.06678,0.26978,0.3969
-11.1341,0,0,16.1341,16.1341,5,5,22.2683,-0.457463,-16.892,-0.0774979,-0.0379536,0.389091,4.9175,-0.56,-0.0875,-0.126148,-0.404308,-0.552538,-0.06678,0.26978,0.3969
-11.224,0,0,16.224,16.224,5,5,22.448,-1.20719,-16.503,-0.404696,-0.00190767,0.219037,4.9175,-0.56,-0.0875,-0.46787,-0.371124,-0.719922,-0.06678,0.26978,0.3969
-11.311,0,0,16.311,16.311,5,5,22.622,-1.93861,-16.119,-0.391935,0.000762262,0.21755,5.32,-0.5775,-0.0525,-0.46787,-0.371124,-0.719922,-0.06678,0.26978,0.3969
-11.1554,0,0,16.1554,16.1554,5,5,22.3109,-1.14936,-16.6256,0.490738,0.234279,-0.00748777,5.5125,-0.4025,-0.0525,0.432368,-0.13298,-0.945622,-0.06678,0.26978,0.3969
-11.0028,0,0,16.0028,16.0028,5,5,22.0057,-0.380533,-17.1327,0.477321,0.229414,-0.00531311,6.125,-0.49,0.315,0.432368,-0.13298,-0.945622,-0.06678,0.26978,0.3969
-10.8942,0,0,15.8942,15.8942,5,5,21.7885,0.0420854,-17.4509,0.286259,0.122586,-0.188548,6.125,-0.49,0.315,0.247904,-0.236192,-1.12887,-0.06678,0.26978,0.3969
-10.7867,0,0,15.7867,15.7867,5,5,21.5734,0.45274,-17.7684,0.279091,0.119087,-0.18719,4.8825,-0.49,0.3325,0.247904,-0.236192,-1.12887,-0.06678,0.26978,0.3969
-10.7879,0,0,15.7879,15.7879,5,5,21.5757,0.451266,-17.7675,0.30961,-0.357903,0.064594,4.8825,-0.49,0.3325,0.278526,-0.712724,-0.87901,-0.06678,0.26978,0.3969
-10.791,0,0,15.791,15.791,5,5,21.582,-0.0215267,-17.5629,-0.30293,0.0455945,0.0183541,4.06,-0.21,0.6125,-0.344894,-0.309758,-0.924882,-0.06678,0.26978,0.3969
-10.7934,0,0,15.7934,15.7934,5,5,21.5869,-0.483986,-17.3563,-0.294859,0.0456608,0.0182895,3.745,0.5425,0.5425,-0.344894,-0.309758,-0.924882,-0.07294,0.26978,0.39592
-10.7642,0,0,15.7642,15.7642,5,5,21.5284,0.0345022,-17.6956,0.346162,-0.00290509,-0.0228589,3.745,0.5425,0.5425,0.307928,-0.357338,-0.966118,-0.07294,0.26978,0.39592
-10.7353,0,0,15.7353,15.7353,5,5,21.4705,0.53902,-18.0314,0.337357,-0.00386014,-0.0225301,3.2025,0.735,0.525,0.307928,-0.357338,-0.966118,-0.07294,0.26978,0.39592
-10.6419,0,0,15.6419,15.6419,5,5,21.2837,0.289297,-17.977,-0.130136,0.234804,0.244625,3.2025,0.735,0.525,-0.16592,-0.1159,-0.702232,-0.07294,0.26978,0.39592
-10.5501,0,0,15.5501,15.5501,5,5,21.1002,0.0462097,-17.9227,-0.125893,0.231821,0.245795,3.3075,1.0325,-0.105,-0.16592,-0.1159,-0.702232,-0.07294,0.26978,0.39592
-10.5446,0,0,15.5446,15.5446,5,5,21.0892,0.087689,-17.9993,0.023175,0.020729,0.039064,3.3075,1.0325,-0.105,-0.015494,-0.326594,-0.907436,-0.07294,0.26978,0.39592
-10.5372,0,0,15.5372,15.5372,5,5,21.0743,-0.133593,-17.9306,-0.147052,0.023784,-0.0298183,3.43,0.595,-0.07,-0.19032,-0.3233,-0.975878,-0.07294,0.26978,0.39592
-10.5298,0,0,15.5298,15.5298,5,5,21.0596,-0.349362,-17.8628,-0.143286,0.023538,-0.0297406,3.675,0.28,-0.3325,-0.19032,-0.3233,-0.975878,-0.07294,0.26978,0.39592
-10.5474,0,0,15.5474,15.5474,5,5,21.0949,-0.253197,-17.9591,0.0558514,0.0242386,0.154838,3.675,0.28,-0.3325,0.011346,-0.323178,-0.792512,-0.07294,0.26978,0.39592
-10.5694,0,0,15.5694,15.5694,5,5,21.1388,-0.159575,-18.0546,0.0542174,0.0249553,0.154567,8.75,0.21,-0.5075,0.011346,-0.323178,-0.792512,-0.07294,0.26978,0.39592
-10.574,0,0,15.574,15.574,5,5,21.1479,-0.159409,-18.0546,-0.0153968,0.000190837,0.164714,8.75,0.21,-0.5075,-0.05856,-0.348066,-0.782386,-0.07294,0.26978,0.39592
-10.575,0,0,15.575,15.575,5,5,21.1499,-0.159447,-18.0551,-0.0153961,0.000222912,0.164702,4.7075,0,-0.7175,-0.05856,-0.348066,-0.782386,-0.07294,0.26978,0.39592
-10.5759,0,0,15.5759,15.5759,5,5,21.1518,-0.158511,-18.0552,-0.0346072,0.110534,0.138133,4.6725,0.6125,-0.7175,-0.077836,-0.2379,-0.808738,-0.07294,0.26978,0.39592
-10.5767,0,0,15.5767,15.5767,5,5,21.1535,-0.157601,-18.0563,-0.0346231,0.110561,0.138123,4.515,0.385,-1.26,-0.077836,-0.2379,-0.808738,-0.07196,0.26348,0.39578
-10.5775,0,0,15.5775,15.5775,5,5,21.1551,-0.156691,-18.0574,0.164719,-0.267395,-0.115899,4.515,0.385,-1.26,0.122366,-0.61549,-1.06079,-0.07196,0.26348,0.39578
-10.5789,0,0,15.5789,15.5789,5,5,21.1578,-0.15605,-18.0588,0.164708,-0.267351,-0.115916,5.11,0.175,-1.365,0.122366,-0.61549,-1.06079,-0.07196,0.26348,0.39578
-10.5401,0,0,15.5401,15.5401,5,5,21.0802,-0.0886714,-18.1492,0.0347571,0.0497708,-0.0554269,5.11,0.175,-1.365,-0.006954,-0.297436,-1.00125,-0.07196,0.26348,0.39578
-10.5017,0,0,15.5017,15.5017,5,5,21.0033,-0.023233,-18.2388,0.033615,0.0485194,-0.0549443,4.585,0.2625,-1.3825,-0.006954,-0.297436,-1.00125,-0.07196,0.26348,0.39578
-10.4897,0,0,15.4897,15.4897,5,5,20.9793,0.0147921,-18.3054,0.0203168,0.0268782,0.0193437,4.305,0.2625,-1.435,-0.019642,-0.318664,-0.927688,-0.07196,0.26348,0.39578
-10.4775,0,0,15.4775,15.4775,5,5,20.955,0.052454,-18.3714,0.0196595,0.026481,0.0194956,3.78,0.665,-1.6275,-0.019642,-0.318664,-0.927688,-0.07196,0.26348,0.39578
-10.5324,0,0,15.5324,15.5324,5,5,21.0647,0.206216,-18.4797,0.108819,-0.0948365,0.0555646,3.78,0.665,-1.6275,0.07259,-0.44164,-0.89121,-0.07196,0.26348,0.39578
-10.5852,0,0,15.5852,15.5852,5,5,21.1703,0.354201,-18.5867,0.106236,-0.0931219,0.0548889,2.45,-0.4725,-1.47,0.07259,-0.44164,-0.89121,-0.07196,0.26348,0.39578
-10.6471,0,0,15.6471,15.6471,5,5,21.2942,0.370917,-18.6186,0.0273432,-0.131165,-0.0106895,2.45,-0.4725,-1.47,-0.006344,-0.481656,-0.955504,-0.07196,0.26348,0.39578
-10.7082,0,0,15.7082,15.7082,5,5,21.4165,0.387054,-18.6499,0.0270616,-0.129177,-0.0114687,2.975,-0.735,-1.2075,-0.006344,-0.481656,-0.955504,-0.07196,0.26348,0.39578
-10.6857,0,0,15.6857,15.6857,5,5,21.3714,0.63012,-18.8335,0.136895,0.0481362,0.0839456,2.975,-0.735,-1.2075,0.108214,-0.30378,-0.861076,-0.07196,0.26348,0.39578
-10.6649,0,0,15.6649,15.6649,5,5,21.3297,0.866464,-19.0184,0.13277,0.0474394,0.0841602,4.165,-0.56,-0.945,0.108214,-0.30378,-0.861076,-0.07056,0.2632,0.385
-10.7205,0,0,15.7205,15.7205,5,5,21.4411,0.558046,-18.8792,-0.197634,-0.0890962,-0.0307053,4.8475,-0.385,-0.7,-0.228994,-0.442006,-0.974414,-0.07056,0.2632,0.385
-10.7752,0,0,15.7752,15.7752,5,5,21.5503,0.257886,-18.7414,-0.192395,-0.0873084,-0.0313693,5.53,-0.4725,-0.4025,-0.228994,-0.442006,-0.974414,-0.07056,0.2632,0.385
-10.7438,0,0,15.7438,15.7438,5,5,21.4877,0.0773182,-18.6945,-0.144902,0.018783,-0.194481,5.915,-0.3325,-0.385,-0.184464,-0.335012,-1.13667,-0.07056,0.2632,0.385
-10.7127,0,0,15.7127,15.7127,5,5,21.4254,-0.0983434,-18.6475,-0.141836,0.0177714,-0.194084,5.705,-0.0875,-0.2975,-0.184464,-0.335012,-1.13667,-0.07056,0.2632,0.385
-10.7146,0,0,15.7146,15.7146,5,5,21.4292,-0.0987814,-18.6473,0.0113653,0.0190536,-0.13374,5.705,-0.0875,-0.2975,-0.030622,-0.333792,-1.07677,-0.07056,0.2632,0.385
-10.7149,0,0,15.7149,15.7149,5,5,21.4299,-0.0990939,-18.6465,0.0113708,0.0190653,-0.133745,4.0075,0.1225,0.035,-0.030622,-0.333792,-1.07677,-0.07056,0.2632,0.385
-10.7153,0,0,15.7153,15.7153,5,5,21.4306,-0.0994065,-18.6457,0.287756,-0.171441,-0.113709,4.0075,0.1225,0.035,0.246928,-0.524112,-1.05689,-0.07056,0.2632,0.385
-10.7143,0,0,15.7143,15.7143,5,5,21.4285,-0.0995876,-18.6442,0.287759,-0.171474,-0.113696,2.45,0.35,0.4025,0.246928,-0.524112,-1.05689,-0.07056,0.2632,0.385
-10.7388,0,0,15.7388,15.7388,5,5,21.4777,-0.558757,-18.4171,-0.288573,0.0115206,0.0385266,2.45,0.35,0.4025,-0.339892,-0.342088,-0.905484,-0.07056,0.2632,0.385
-10.7618,0,0,15.7618,15.7618,5,5,21.5237,-1.00693,-18.1913,-0.280752,0.0122276,0.0381332,2.135,0.035,0.875,-0.339892,-0.342088,-0.905484,-0.07056,0.2632,0.385
-10.8392,0,0,15.8392,15.8392,5,5,21.6784,-0.638593,-18.3871,0.303119,-0.252685,-0.0698634,2.135,0.035,0.875,0.252906,-0.609268,-1.01175,-0.06888,0.25746,0.38192
-10.8387,0,0,15.8387,15.8387,5,5,21.6774,-0.64034,-18.3848,0.30315,-0.252702,-0.0698571,3.045,-0.3325,1.155,0.252906,-0.609268,-1.01175,-0.06888,0.25746,0.38192
-10.8382,0,0,15.8382,15.8382,5,5,21.6764,-0.642086,-18.3825,-0.211312,0.157994,0.462762,3.045,-0.3325,1.155,-0.263764,-0.198982,-0.483242,-0.06888,0.25746,0.38192
-10.8391,0,0,15.8391,15.8391,5,5,21.6782,-0.643145,-18.3802,-0.211293,0.158023,0.46275,4.6375,0.0525,1.0325,-0.263764,-0.198982,-0.483242,-0.06888,0.25746,0.38192
-10.8413,0,0,15.8413,15.8413,5,5,21.6826,-0.332926,-18.5706,0.180065,0.0163229,0.117279,4.6375,0.0525,1.0325,0.134688,-0.340624,-0.826062,-0.06888,0.25746,0.38192
-10.8444,0,0,15.8444,15.8444,5,5,21.6887,-0.0300541,-18.7585,0.174779,0.0164281,0.117255,5.285,0.735,0.8925,0.134688,-0.340624,-0.826062,-0.06888,0.25746,0.38192
-10.8125,0,0,15.8125,15.8125,5,5,21.625,0.0485696,-18.8383,0.0483979,0.00794458,-0.136223,5.285,0.735,0.8925,0.00915,-0.348066,-1.07799,-0.06888,0.25746,0.38192
-10.8148,0,0,15.8148,15.8148,5,5,21.6297,0.0478783,-18.8367,0.04841,0.00802062,-0.136253,6.23,0.0875,0.5425,0.00915,-0.348066,-1.07799,-0.06888,0.25746,0.38192
-10.8172,0,0,15.8172,15.8172,5,5,21.6344,0.0471868,-18.8352,0.355052,0.0955394,-0.126447,6.23,0.0875,0.5425,0.317078,-0.260714,-1.06823,-0.06888,0.25746,0.38192
-10.8186,0,0,15.8186,15.8186,5,5,21.6372,0.0476774,-18.8336,0.355043,0.095586,-0.126466,5.215,0.735,0.2975,0.317078,-0.260714,-1.06823,-0.06888,0.25746,0.38192
-10.8201,0,0,15.8201,15.8201,5,5,21.6401,0.048168,-18.832,-0.0465969,-0.118578,-0.114312,5.215,0.735,0.2975,-0.086254,-0.474702,-1.05615,-0.06888,0.25746,0.38192
-10.8214,0,0,15.8214,15.8214,5,5,21.6428,0.0494013,-18.831,-0.0466184,-0.118535,-0.11433,5.0925,1.015,-0.175,-0.086254,-0.474702,-1.05615,-0.06888,0.25746,0.38192
-11.094,0,0,16.094,16.094,5,5,22.188,-0.364911,-18.5362,-0.22198,-0.416862,0.232503,5.0925,1.015,-0.175,-0.26962,-0.781532,-0.708454,-0.06888,0.25746,0.38192
-11.3566,0,0,16.3566,16.3566,5,5,22.7132,-0.768852,-18.2587,-0.214931,-0.408418,0.228939,0.1575,0.595,-0.7,-0.26962,-0.781532,-0.708454,-0.06468,0.26026,0.37968
-11.3974,0,0,16.3974,16.3974,5,5,22.7949,-1.02651,-18.1294,-0.10948,0.069164,0.267174,0.1575,0.595,-0.7,-0.168238,-0.305732,-0.669902,-0.06468,0.26026,0.37968
-11.3978,0,0,16.3978,16.3978,5,5,22.7956,-1.02625,-18.1307,-0.109484,0.0691755,0.267169,3.99,-0.035,-1.225,-0.168238,-0.305732,-0.669902,-0.06468,0.26026,0.37968
-11.2499,0,0,16.2499,16.2499,5,5,22.4998,-0.647797,-18.4037,0.223099,0.216252,-0.10587,3.99,-0.035,-1.225,0.172386,-0.154086,-1.04212,-0.06468,0.26026,0.37968
-11.1049,0,0,16.1049,16.1049,5,5,22.2098,-0.279442,-18.6778,0.216671,0.211591,-0.103897,3.9375,0.1225,-1.6275,0.172386,-0.154086,-1.04212,-0.06468,0.26026,0.37968
-11.2096,0,0,16.2096,16.2096,5,5,22.4192,-0.553144,-18.5261,-0.153093,-0.139698,0.0787377,3.9375,0.1225,-1.6275,-0.20374,-0.508374,-0.85949,-0.06468,0.26026,0.37968
-11.3118,0,0,16.3118,16.3118,5,5,22.6235,-0.818477,-18.3777,-0.148462,-0.136425,0.0773205,4.0075,0.1925,-1.925,-0.20374,-0.508374,-0.85949,-0.06468,0.26026,0.37968
-11.3442,0,0,16.3442,16.3442,5,5,22.6885,-0.460027,-18.5871,0.20816,-0.0181097,0.163504,4.0075,0.1925,-1.925,0.160674,-0.391254,-0.773602,-0.06468,0.26026,0.37968
-11.3453,0,0,16.3453,16.3453,5,5,22.6907,-0.459508,-18.5899,0.208151,-0.0180746,0.163489,4.8125,-0.2275,-2.0825,0.160674,-0.391254,-0.773602,-0.06468,0.26026,0.37968
-11.3419,0,0,16.3419,16.3419,5,5,22.6839,-0.545795,-18.5735,-0.053117,0.0334702,0.0403285,4.8125,-0.2275,-2.0825,-0.103212,-0.339648,-0.895846,-0.06468,0.26026,0.37968
-11.3384,0,0,16.3384,16.3384,5,5,22.6768,-0.630194,-18.5572,-0.051644,0.0333509,0.040362,4.7425,-0.455,-1.9775,-0.103212,-0.339648,-0.895846,-0.06468,0.26026,0.37968
-11.4265,0,0,16.4265,16.4265,5,5,22.853,-0.207341,-18.7839,0.361195,-0.292925,-0.0688498,4.7425,-0.455,-1.9775,0.318786,-0.668438,-1.00308,-0.06468,0.26026,0.37968
-11.4278,0,0,16.4278,16.4278,5,5,22.8555,-0.20712,-18.7867,0.361191,-0.292884,-0.068867,5.0225,-0.385,-1.995,0.318786,-0.668438,-1.00308,-0.07168,0.25886,0.3787
-11.415,0,0,16.415,16.415,5,5,22.83,-0.132237,-18.8537,0.0481519,-0.0165531,-0.0904526,5.495,-0.455,-1.68,0.005734,-0.391986,-1.02468,-0.07168,0.25886,0.3787
-11.4026,0,0,16.4026,16.4026,5,5,22.8051,-0.0601059,-18.9198,0.046893,-0.0169532,-0.090282,5.425,-0.7175,-1.4,0.005734,-0.391986,-1.02468,-0.07168,0.25886,0.3787
-11.3991,0,0,16.3991,16.3991,5,5,22.7983,0.0510685,-19.0041,0.0707076,-0.00582785,-0.00859761,5.425,-0.7175,-1.4,0.031598,-0.380762,-0.94367,-0.07168,0.25886,0.3787
-11.3961,0,0,16.3961,16.3961,5,5,22.7922,0.158841,-19.0864,0.0688266,-0.0059273,-0.00855955,5.6175,-0.6125,-0.7,0.031598,-0.380762,-0.94367,-0.07168,0.25886,0.3787
-11.3987,0,0,16.3987,16.3987,5,5,22.7974,0.246135,-19.1567,0.0581917,-0.0214777,-0.0242143,5.6175,-0.6125,-0.7,0.022448,-0.396378,-0.959164,-0.07168,0.25886,0.3787
-11.4011,0,0,16.4011,16.4011,5,5,22.8023,0.330928,-19.2255,0.0567118,-0.0214015,-0.0242543,5.3725,-0.5075,-0.2975,0.022448,-0.396378,-0.959164,-0.07168,0.25886,0.3787
-11.379,0,0,16.379,16.379,5,5,22.7579,0.154425,-19.1649,-0.11539,0.0617907,-0.00365599,5.3725,-0.5075,-0.2975,-0.153476,-0.312564,-0.939034,-0.07168,0.25886,0.3787
-11.3562,0,0,16.3562,16.3562,5,5,22.7123,-0.0178656,-19.1037,-0.112383,0.0610582,-0.00334519,4.4975,-0.5075,0.2275,-0.153476,-0.312564,-0.939034,-0.07168,0.25886,0.3787
-11.2609,0,0,16.2609,16.2609,5,5,22.5218,0.381122,-19.3695,0.267221,0.0991376,-0.145076,4.4975,-0.5075,0.2275,0.234728,-0.27145,-1.08092,-0.07168,0.25886,0.3787
-11.2613,0,0,16.2613,16.2613,5,5,22.5226,0.379461,-19.3678,0.26725,0.0991505,-0.145081,4.0425,-0.4025,0.805,0.234728,-0.27145,-1.08092,-0.07168,0.25886,0.3787
-11.2617,0,0,16.2617,16.2617,5,5,22.5234,0.377801,-19.3662,-0.0788339,-0.198093,-0.0277936,4.0425,-0.4025,0.805,-0.11285,-0.568398,-0.964532,-0.07056,0.2583,0.37772
-11.262,0,0,16.262,16.262,5,5,22.5241,0.377133,-19.3641,-0.0788223,-0.198083,-0.0277978,3.955,0.2275,0.805,-0.11285,-0.568398,-0.964532,-0.07056,0.2583,0.37772
-11.3856,0,0,16.3856,16.3856,5,5,22.7713,0.473835,-19.3936,0.0947939,-0.226225,0.0762649,3.955,0.2275,0.805,0.063196,-0.600484,-0.859612,-0.07056,0.2583,0.37772
-11.5082,0,0,16.5082,16.5082,5,5,23.0163,0.568185,-19.4221,0.0931472,-0.222291,0.0745874,5.2675,-0.07,0.9975,0.063196,-0.600484,-0.859612,-0.07056,0.2583,0.37772
-11.6267,0,0,16.6267,16.6267,5,5,23.2535,0.0699323,-19.1396,-0.265044,-0.0791195,0.181324,5.2675,-0.07,0.9975,-0.305244,-0.461282,-0.75213,-0.07056,0.2583,0.37772
-11.7429,0,0,16.7429,16.7429,5,5,23.4858,-0.414859,-18.8627,-0.256582,-0.0754073,0.179692,6.3875,-0.21,0.77,-0.305244,-0.461282,-0.75213,-0.07056,0.2583,0.37772
-11.8138,0,0,16.8138,16.8138,5,5,23.6277,0.207856,-19.177,0.49305,-0.231894,0.0230673,6.3875,-0.21,0.77,0.458476,-0.619882,-0.906582,-0.07056,0.2583,0.37772
-11.8177,0,0,16.8177,16.8177,5,5,23.6353,0.20688,-19.1752,0.493067,-0.231772,0.023014,7.875,0.0175,0.7175,0.458476,-0.619882,-0.906582,-0.07056,0.2583,0.37772
-11.8215,0,0,16.8215,16.8215,5,5,23.6429,0.205905,-19.1734,-0.00184902,0.31621,-0.382892,7.875,0.0175,0.7175,-0.038552,-0.07259,-1.3093,-0.07056,0.2583,0.37772
-11.8242,0,0,16.8242,16.8242,5,5,23.6483,0.205056,-19.1723,-0.00183422,0.316296,-0.38293,6.615,-0.07,0.3325,-0.038552,-0.07259,-1.3093,-0.07056,0.2583,0.37772
-11.7986,0,0,16.7986,16.7986,5,5,23.5971,0.474689,-19.3405,0.159409,0.0384831,0.033706,6.615,-0.07,0.3325,0.1281,-0.349286,-0.896212,-0.07056,0.2583,0.37772
-11.7728,0,0,16.7728,16.7728,5,5,23.5456,0.737709,-19.5069,0.154819,0.0376392,0.0340212,5.5125,0.525,0.21,0.1281,-0.349286,-0.896212,-0.07056,0.2583,0.37772
-11.906,0,0,16.906,16.906,5,5,23.812,0.35803,-19.2827,-0.171304,-0.0519925,0.269748,5.5125,0.525,0.21,-0.206058,-0.443104,-0.660508,-0.07056,0.2583,0.37772
-11.9066,0,0,16.9066,16.9066,5,5,23.8133,0.358525,-19.2822,-0.171313,-0.0519725,0.269739,4.305,0.49,-0.35,-0.206058,-0.443104,-0.660508,-0.07224,0.25802,0.37912
-11.9076,0,0,16.9076,16.9076,5,5,23.8152,0.359041,-19.2822,0.0465023,-0.0680623,0.314971,4.69,0.4025,-0.5775,0.012688,-0.459208,-0.615612,-0.07224,0.25802,0.37912
-11.9086,0,0,16.9086,16.9086,5,5,23.8171,0.360021,-19.2823,0.0464852,-0.0680319,0.314957,4.6725,0.63,-0.735,0.012688,-0.459208,-0.615612,-0.07224,0.25802,0.37912
-11.8401,0,0,16.8401,16.8401,5,5,23.6802,0.457457,-19.3736,0.050373,0.0796249,-0.12523,4.6725,0.63,-0.735,0.0183,-0.309514,-1.05335,-0.07224,0.25802,0.37912
-11.9518,0,0,16.9518,16.9518,5,5,23.9036,0.507464,-19.3772,0.0460986,-0.0881534,0.22015,5.8625,0.455,-0.9625,0.014884,-0.48068,-0.709064,-0.07224,0.25802,0.37912
-11.9549,0,0,16.9549,16.9549,5,5,23.9098,0.50833,-19.3778,0.0460835,-0.0880554,0.220107,7.0525,0.455,-0.9625,0.014884,-0.48068,-0.709064,-0.07224,0.25802,0.37912
-12.0017,0,0,17.0017,17.0017,5,5,24.0033,-0.0251987,-19.1032,-0.334817,-0.00704279,0.0434172,7.0525,0.455,-0.9625,-0.37698,-0.401258,-0.883768,-0.07224,0.25802,0.37912
-12.0468,0,0,17.0468,17.0468,5,5,24.0936,-0.545098,-18.8314,-0.325743,-0.00562306,0.0427342,7.4375,0.4375,-0.9625,-0.37698,-0.401258,-0.883768,-0.07224,0.25802,0.37912
-12.0169,0,0,17.0169,17.0169,5,5,24.0339,-0.269666,-18.9914,0.167055,0.0319095,-0.00574321,7.4375,0.4375,-0.9625,0.122732,-0.362828,-0.932324,-0.07224,0.25802,0.37912
-11.9878,0,0,16.9878,16.9878,5,5,23.9756,-0.0024795,-19.1506,0.162392,0.0309858,-0.00531976,7.28,0.035,-1.225,0.122732,-0.362828,-0.932324,-0.07224,0.25802,0.37912
-11.9609,0,0,16.9609,16.9609,5,5,23.9217,0.277113,-19.3183,0.159335,0.0517372,0.058739,7.28,0.035,-1.225,0.124562,-0.341234,-0.869128,-0.07224,0.25802,0.37912
-11.9344,0,0,16.9344,16.9344,5,5,23.8688,0.548338,-19.4883,0.154601,0.0508798,0.0590816,6.8775,0.0525,-1.085,0.124562,-0.341234,-0.869128,-0.07112,0.26068,0.38332
-11.9535,0,0,16.9535,16.9535,5,5,23.907,0.784448,-19.6262,0.190085,-0.141003,-0.158482,6.8775,0.0525,-1.085,0.164334,-0.533506,-1.0847,-0.07112,0.26068,0.38332
-11.9557,0,0,16.9557,16.9557,5,5,23.9115,0.78434,-19.6272,0.190087,-0.140931,-0.158514,6.125,-0.1925,-1.015,0.164334,-0.533506,-1.0847,-0.07112,0.26068,0.38332
-11.958,0,0,16.958,16.958,5,5,23.916,0.784231,-19.6283,-0.0212967,-0.134875,-0.141578,6.125,-0.1925,-1.015,-0.047946,-0.527528,-1.06787,-0.07112,0.26068,0.38332
-11.9601,0,0,16.9601,16.9601,5,5,23.9202,0.783418,-19.6293,-0.0212825,-0.134807,-0.141608,6.0025,-0.5425,-0.7875,-0.047946,-0.527528,-1.06787,-0.07112,0.26068,0.38332
-12.0649,0,0,17.0649,17.0649,5,5,24.1298,0.655327,-19.5492,-0.0599878,-0.183604,0.0288105,6.0025,-0.5425,-0.7875,-0.08906,-0.579622,-0.89731,-0.07112,0.26068,0.38332
-12.1672,0,0,17.1672,17.1672,5,5,24.3343,0.531875,-19.4704,-0.0578332,-0.18034,0.0273657,5.81,-0.28,-0.6825,-0.08906,-0.579622,-0.89731,-0.07112,0.26068,0.38332
-12.4066,0,0,17.4066,17.4066,5,5,24.8133,-0.177089,-19.041,-0.347595,-0.176141,0.357975,5.81,-0.28,-0.6825,-0.392474,-0.583038,-0.565836,-0.07112,0.26068,0.38332
-12.4089,0,0,17.4089,17.4089,5,5,24.8179,-0.17827,-19.0414,-0.347574,-0.176068,0.357942,6.1775,-0.595,-0.3675,-0.392474,-0.583038,-0.565836,-0.07112,0.26068,0.38332
-12.3443,0,0,17.3443,17.3443,5,5,24.6887,0.0497834,-19.1913,0.136089,0.0763984,-0.0726596,6.1775,-0.595,-0.3675,0.097234,-0.32879,-0.994056,-0.07112,0.26068,0.38332
-12.2824,0,0,17.2824,17.2824,5,5,24.5648,0.269983,-19.3408,0.132246,0.0744286,-0.0717685,7.4725,-1.33,-0.2975,0.097234,-0.32879,-0.994056,-0.07112,0.26068,0.38332
-12.0779,0,0,17.0779,17.0779,5,5,24.1559,0.819148,-19.7123,0.309993,0.324234,-0.0557522,7.4725,-1.33,-0.2975,0.285358,-0.072712,-0.981002,-0.07112,0.26068,0.38332
-11.8775,0,0,16.8775,16.8775,5,5,23.7551,1.35205,-20.0767,0.300694,0.317771,-0.0530736,7.49,-0.735,-0.2625,0.285358,-0.072712,-0.981002,-0.07378,0.25774,0.39536
-11.8631,0,0,16.8631,16.8631,5,5,23.7262,1.8015,-20.3321,0.271349,0.0186222,0.0815605,7.77,-0.3325,-0.35,0.263764,-0.371002,-0.847412,-0.07378,0.25774,0.39536
-11.8496,0,0,16.8496,16.8496,5,5,23.6991,2.23836,-20.5845,0.263729,0.018082,0.0815042,8.015,-0.4725,-0.315,0.263764,-0.371002,-0.847412,-0.07378,0.25774,0.39536
-11.8965,0,0,16.8965,16.8965,5,5,23.7931,2.30311,-20.6246,0.0583827,-0.103662,-0.0164488,8.015,-0.4725,-0.315,0.058682,-0.4941,-0.943914,-0.07378,0.25774,0.39536
-11.9423,0,0,16.9423,16.9423,5,5,23.8847,2.36625,-20.664,0.0572817,-0.102219,-0.0171356,7.63,-0.56,-0.245,0.058682,-0.4941,-0.943914,-0.07378,0.25774,0.39536
-12.0375,0,0,17.0375,17.0375,5,5,24.0749,2.47261,-20.7031,0.0862844,-0.131095,0.117426,7.63,-0.56,-0.245,0.08967,-0.525942,-0.808982,-0.07378,0.25774,0.39536
-12.1309,0,0,17.1309,17.1309,5,5,24.2618,2.57665,-20.7405,0.0844704,-0.128155,0.116019,7.63,-0.42,0.2275,0.08967,-0.525942,-0.808982,-0.07378,0.25774,0.39536
-12.0511,0,0,17.0511,17.0511,5,5,24.1021,2.62284,-20.8258,0.0136892,0.111224,-0.127419,7.63,-0.42,0.2275,0.019398,-0.28426,-1.05164,-0.07378,0.25774,0.39536
-12.1339,0,0,17.1339,17.1339,5,5,24.2677,1.97224,-20.4847,-0.384129,-0.0176079,0.126808,6.7725,0.245,0.245,-0.391498,-0.415776,-0.798612,-0.07378,0.25774,0.39536
-12.2135,0,0,17.2135,17.2135,5,5,24.427,1.33822,-20.1481,-0.373068,-0.0149449,0.125954,6.72,0.49,0.1575,-0.391498,-0.415776,-0.798612,-0.07378,0.25774,0.39536
-12.2556,0,0,17.2556,17.2556,5,5,24.5112,1.22206,-20.0845,-0.0613737,-0.0138335,0.0963711,6.72,0.49,0.1575,-0.08052,-0.41602,-0.827404,-0.07378,0.25774,0.39536
-12.2971,0,0,17.2971,17.2971,5,5,24.5941,1.10907,-20.0216,-0.0594021,-0.0125002,0.0958062,7.21,0.3675,0.315,-0.08052,-0.41602,-0.827404,-0.07378,0.25774,0.39536
-12.2787,0,0,17.2787,17.2787,5,5,24.5573,1.12312,-20.048,0.00109558,0.0820504,0.101725,7.21,0.3675,0.315,-0.01952,-0.320982,-0.821792,-0.0707,0.25606,0.385
-12.2507,0,0,17.2507,17.2507,5,5,24.5015,1.72787,-20.3778,0.369215,0.0330594,0.0968492,7.7875,0.07,0.4375,0.360754,-0.368928,-0.826794,-0.0707,0.25606,0.385
-12.2238,0,0,17.2238,17.2238,5,5,24.4475,2.31643,-20.704,0.358949,0.0320527,0.0969092,7.7525,0.105,0.315,0.360754,-0.368928,-0.826794,-0.0707,0.25606,0.385
-12.3262,0,0,17.3262,17.3262,5,5,24.6524,2.60735,-20.8281,0.191085,-0.125507,0.188421,7.7525,0.105,0.315,0.197274,-0.52948,-0.734318,-0.0707,0.25606,0.385
-12.4274,0,0,17.4274,17.4274,5,5,24.8549,2.89193,-20.9488,0.186124,-0.122402,0.186727,8.0325,0.665,0.28,0.197274,-0.52948,-0.734318,-0.0707,0.25606,0.385
-12.3176,0,0,17.3176,17.3176,5,5,24.6352,2.85299,-21.0051,-0.0541031,0.235508,0.111518,8.0325,0.665,0.28,-0.044652,-0.168482,-0.810568,-0.0707,0.25606,0.385
-12.321,0,0,17.321,17.321,5,5,24.6421,2.85296,-21.0038,-0.195269,-0.161906,-0.0337339,7.4025,0.42,0.2275,-0.186416,-0.565592,-0.95465,-0.0707,0.25606,0.385
-12.3244,0,0,17.3244,17.3244,5,5,24.6489,2.85336,-21.0023,-0.195276,-0.161798,-0.0337838,7.385,0.7175,0.2625,-0.186416,-0.565592,-0.95465,-0.0707,0.25606,0.385
-12.3279,0,0,17.3279,17.3279,5,5,24.6557,2.85376,-21.0007,-0.472999,0.100516,-0.213093,7.385,0.7175,0.2625,-0.465308,-0.303658,-1.13253,-0.0707,0.25606,0.385
-12.3314,0,0,17.3314,17.3314,5,5,24.6628,2.85352,-20.9999,-0.472995,0.100628,-0.213144,7.5425,0.1925,0.035,-0.465308,-0.303658,-1.13253,-0.0707,0.25606,0.385
-12.3349,0,0,17.3349,17.3349,5,5,24.6698,2.85327,-20.9991,-0.340936,0.102939,0.178027,7.5425,0.1925,0.035,-0.332694,-0.301462,-0.744322,-0.0707,0.25606,0.385
-12.3391,0,0,17.3391,17.3391,5,5,24.6782,2.85323,-20.9993,-0.340935,0.10307,0.177967,8.2775,0.035,-0.595,-0.332694,-0.301462,-0.744322,-0.0679,0.25452,0.38402
-12.3429,0,0,17.3429,17.3429,5,5,24.6858,2.85349,-20.9994,0.162619,-0.221177,-0.132657,7.8925,0.245,-0.56,0.172996,-0.625494,-1.05249,-0.0679,0.25452,0.38402
-12.3462,0,0,17.3462,17.3462,5,5,24.6924,2.8538,-21.0002,0.162613,-0.221074,-0.132705,7.2975,0.105,-0.945,0.172996,-0.625494,-1.05249,-0.0679,0.25452,0.38402
-12.3495,0,0,17.3495,17.3495,5,5,24.6989,2.85412,-21.0009,-0.228819,-0.297788,-0.187834,7.2975,0.105,-0.945,-0.220088,-0.702232,-1.10715,-0.0679,0.25452,0.38402
-12.3524,0,0,17.3524,17.3524,5,5,24.7048,2.85436,-21.0025,-0.228823,-0.297694,-0.187877,6.965,-0.14,-1.365,-0.220088,-0.702232,-1.10715,-0.0679,0.25452,0.38402
-12.5426,0,0,17.5426,17.5426,5,5,25.0852,2.53742,-20.7855,-0.166078,-0.292547,0.121488,6.965,-0.14,-1.365,-0.162626,-0.703208,-0.797636,-0.0679,0.25452,0.38402
-12.7275,0,0,17.7275,17.7275,5,5,25.455,2.22957,-20.5747,-0.16071,-0.286619,0.118936,6.16,-0.6125,-1.47,-0.162626,-0.703208,-0.797636,-0.0679,0.25452,0.38402
-12.7068,0,0,17.7068,17.7068,5,5,25.4136,2.10291,-20.5413,-0.0914406,0.00953204,-0.12178,6.16,-0.6125,-1.47,-0.095282,-0.406748,-1.03688,-0.0679,0.25452,0.38402
-12.7097,0,0,17.7097,17.7097,5,5,25.4194,2.10283,-20.5438,-0.0914392,0.0096236,-0.121823,6.9125,-0.5425,-1.75,-0.095282,-0.406748,-1.03688,-0.0679,0.25452,0.38402
-12.7126,0,0,17.7126,17.7126,5,5,25.4252,2.10275,-20.5462,-0.0518335,-0.19729,-0.0509252,6.9125,-0.5425,-1.75,-0.05551,-0.613538,-0.966484,-0.0679,0.25452,0.38402
-12.7169,0,0,17.7169,17.7169,5,5,25.4339,2.1027,-20.548,-0.0518326,-0.197153,-0.0509899,8.4875,-0.3325,-1.3475,-0.05551,-0.613538,-0.966484,-0.0679,0.25452,0.38402
-12.6821,0,0,17.6821,17.6821,5,5,25.3641,2.31369,-20.6875,0.139229,0.0138211,-0.0878498,8.4875,-0.3325,-1.3475,0.140056,-0.401624,-1.00345,-0.0679,0.25452,0.38402
-12.6487,0,0,17.6487,17.6487,5,5,25.2974,2.51756,-20.8266,0.135674,0.0127063,-0.087488,9.03,-0.525,-1.1375,0.140056,-0.401624,-1.00345,-0.0644,0.2527,0.38136
-12.6208,0,0,17.6208,17.6208,5,5,25.2416,2.40911,-20.809,-0.0805016,0.0332323,-0.108761,9.03,-0.525,-1.1375,-0.078934,-0.380274,-1.02504,-0.0644,0.2527,0.38136
-12.592,0,0,17.592,17.592,5,5,25.184,2.30276,-20.7912,-0.078647,0.0323558,-0.108263,7.6125,-0.805,-0.9275,-0.078934,-0.380274,-1.02504,-0.0644,0.2527,0.38136
-12.6139,0,0,17.6139,17.6139,5,5,25.2279,2.74711,-21.0253,0.374643,-0.171904,-0.119349,7.6125,-0.805,-0.9275,0.384056,-0.584868,-1.03541,-0.0644,0.2527,0.38136
-12.6167,0,0,17.6167,17.6167,5,5,25.2333,2.74602,-21.0258,0.374662,-0.171817,-0.119389,6.685,-0.5775,-0.455,0.384056,-0.584868,-1.03541,-0.0644,0.2527,0.38136
-12.6194,0,0,17.6194,17.6194,5,5,25.2388,2.74494,-21.0263,-0.0545277,-0.092348,-0.136765,6.685,-0.5775,-0.455,-0.04697,-0.505568,-1.05262,-0.0644,0.2527,0.38136
-12.6217,0,0,17.6217,17.6217,5,5,25.2435,2.74361,-21.0254,-0.0545046,-0.0922739,-0.136798,6.195,-0.3325,0.385,-0.04697,-0.505568,-1.05262,-0.0644,0.2527,0.38136
-12.5416,0,0,17.5416,17.5416,5,5,25.0832,3.09316,-21.2591,0.209951,0.104376,-0.033844,6.195,-0.3325,0.385,0.224724,-0.306464,-0.951356,-0.0644,0.2527,0.38136
-12.4639,0,0,17.4639,17.4639,5,5,24.9279,3.43316,-21.4909,0.204027,0.101781,-0.0330065,6.9475,0.0525,0.56,0.224724,-0.306464,-0.951356,-0.0644,0.2527,0.38136
-12.4959,0,0,17.4959,17.4959,5,5,24.9919,3.34956,-21.4629,-0.0450202,-0.0702252,-0.0452019,6.9475,0.0525,0.56,-0.02684,-0.479338,-0.963068,-0.0644,0.2527,0.38136
-12.5282,0,0,17.5282,17.5282,5,5,25.0565,3.26874,-21.4347,-0.0436121,-0.069171,-0.0456042,8.155,0.3325,0.77,-0.02684,-0.479338,-0.963068,-0.0644,0.2527,0.38136
-12.503,0,0,17.503,17.503,5,5,25.0059,3.41151,-21.5444,0.115841,-0.0475596,-0.204581,8.155,0.3325,0.77,0.135786,-0.45689,-1.12106,-0.0644,0.2527,0.38136
-12.5071,0,0,17.5071,17.5071,5,5,25.0142,3.41039,-21.5423,0.11586,-0.047428,-0.204641,8.19,0.035,0.8925,0.135786,-0.45689,-1.12106,-0.0672,0.25144,0.37604
-12.5632,0,0,17.5632,17.5632,5,5,25.1264,3.52978,-21.5979,0.0843809,-0.0702583,0.0919516,7.56,0.2975,0.9625,0.106262,-0.481412,-0.825818,-0.0672,0.25144,0.37604
-12.6185,0,0,17.6185,17.6185,5,5,25.2371,3.64623,-21.6533,0.0823524,-0.0685681,0.0910163,7.7175,0.07,0.595,0.106262,-0.481412,-0.825818,-0.0672,0.25144,0.37604
-12.5774,0,0,17.5774,17.5774,5,5,25.1549,3.52859,-21.641,-0.0893229,0.0585463,-0.111492,7.7175,0.07,0.595,-0.068198,-0.35319,-1.02748,-0.0672,0.25144,0.37604
-12.4951,0,0,17.4951,17.4951,5,5,24.9901,3.64233,-21.7612,0.0304245,0.182662,0.12346,7.0175,0.21,0.6125,0.054046,-0.226554,-0.79544,-0.0672,0.25144,0.37604
-12.4984,0,0,17.4984,17.4984,5,5,24.9967,3.64166,-21.7603,0.0304361,0.182766,0.123412,7.2625,0,0.1925,0.054046,-0.226554,-0.79544,-0.0672,0.25144,0.37604
-12.4512,0,0,17.4512,17.4512,5,5,24.9024,3.46392,-21.7216,-0.127679,0.105516,-0.031619,7.2625,0,0.1925,-0.107848,-0.302316,-0.950136,-0.0672,0.25144,0.37604
-12.4044,0,0,17.4044,17.4044,5,5,24.8088,3.29144,-21.6834,-0.124674,0.104111,-0.0307726,6.965,0.3675,-0.3675,-0.107848,-0.302316,-0.950136,-0.0672,0.25144,0.37604
-12.4753,0,0,17.4753,17.4753,5,5,24.9505,3.08679,-21.5707,-0.121594,-0.136475,-0.0413444,6.965,0.3675,-0.3675,-0.108336,-0.544974,-0.959774,-0.0672,0.25144,0.37604
-12.4775,0,0,17.4775,17.4775,5,5,24.9551,3.08755,-21.5715,-0.121607,-0.136403,-0.0413787,6.195,0.3325,-1.0675,-0.108336,-0.544974,-0.959774,-0.0672,0.25144,0.37604
-12.5378,0,0,17.5378,17.5378,5,5,25.0757,2.89757,-21.4698,-0.105054,-0.041242,0.0910426,6.195,0.3325,-1.0675,-0.095038,-0.451888,-0.827648,-0.0672,0.25144,0.37604
-12.5969,0,0,17.5969,17.5969,5,5,25.1938,2.71275,-21.375,-0.101832,-0.0393104,0.0903107,6.51,0.2625,-1.4175,-0.095038,-0.451888,-0.827648,-0.06874,0.25536,0.3787
-12.5778,0,0,17.5778,17.5778,5,5,25.1555,2.86534,-21.4808,0.0819886,0.0504039,0.0625682,6.195,0.175,-1.575,0.092232,-0.361608,-0.855342,-0.06874,0.25536,0.3787
-12.5593,0,0,17.5593,17.5593,5,5,25.1185,3.01315,-21.5855,0.0794121,0.0497639,0.0627224,6.265,-0.0525,-1.4525,0.092232,-0.361608,-0.855342,-0.06874,0.25536,0.3787
-12.5822,0,0,17.5822,17.5822,5,5,25.1644,3.34543,-21.7619,0.238599,-0.0877746,0.00492064,6.265,-0.0525,-1.4525,0.257908,-0.49959,-0.912072,-0.06874,0.25536,0.3787
-12.606,0,0,17.606,17.606,5,5,25.2119,3.669,-21.9355,0.232962,-0.0871719,0.0042554,7.175,0.105,-1.4525,0.257908,-0.49959,-0.912072,-0.06874,0.25536,0.3787
-12.5516,0,0,17.5516,17.5516,5,5,25.1033,3.72777,-22.0205,0.0194604,0.0975743,-0.00938481,7.175,0.105,-1.4525,0.04453,-0.313296,-0.926346,-0.06874,0.25536,0.3787
-12.4985,0,0,17.4985,17.4985,5,5,24.9969,3.78374,-22.1045,0.0184857,0.0958696,-0.00865871,7.1925,-0.245,-1.12,0.04453,-0.313296,-0.926346,-0.06874,0.25536,0.3787
-12.3624,0,0,17.3624,17.3624,5,5,24.7247,3.45388,-22.0386,-0.198573,0.323761,0.220381,7.1925,-0.245,-1.12,-0.179218,-0.081496,-0.701378,-0.06874,0.25536,0.3787
-12.3654,0,0,17.3654,17.3654,5,5,24.7307,3.45371,-22.0388,-0.19857,0.323856,0.220338,6.965,0,-0.49,-0.179218,-0.081496,-0.701378,-0.06874,0.25536,0.3787
-12.3845,0,0,17.3845,17.3845,5,5,24.769,3.59901,-22.1283,0.0927724,-0.021101,0.0598385,6.965,0,-0.49,0.1159,-0.426634,-0.860222,-0.06874,0.25536,0.3787
-12.4024,0,0,17.4024,17.4024,5,5,24.8047,3.74062,-22.216,0.0903057,-0.020602,0.0594338,5.705,0.245,-0.175,0.1159,-0.426634,-0.860222,-0.06874,0.25536,0.3787
-12.3972,0,0,17.3972,17.3972,5,5,24.7944,3.40548,-22.0809,-0.228952,0.0347111,-0.0553626,5.705,0.245,-0.175,-0.210572,-0.371368,-0.974536,-0.06874,0.25536,0.3787
-12.3916,0,0,17.3916,17.3916,5,5,24.7832,3.07658,-21.94,-0.223221,0.0346702,-0.0549863,5.5475,-0.21,0.28,-0.210572,-0.371368,-0.974536,-0.07224,0.25368,0.38206
-12.3123,0,0,17.3123,17.3123,5,5,24.6247,3.52639,-22.2145,0.308824,0.0682438,-0.0924797,5.5475,-0.21,0.28,0.331596,-0.335134,-1.01248,-0.07224,0.25368,0.38206
-12.3146,0,0,17.3146,17.3146,5,5,24.6293,3.52466,-22.2136,0.308854,0.0683172,-0.0925113,6.1425,-0.5775,0.4375,0.331596,-0.335134,-1.01248,-0.07224,0.25368,0.38206
-12.3689,0,0,17.3689,17.3689,5,5,24.7378,3.5291,-22.2084,0.018669,-0.0906852,0.0291513,6.1425,-0.5775,0.4375,0.04026,-0.495686,-0.890966,-0.07224,0.25368,0.38206
-12.4226,0,0,17.4226,17.4226,5,5,24.8453,3.53466,-22.2031,0.0185721,-0.0889882,0.0283609,6.72,-0.07,0.385,0.04026,-0.495686,-0.890966,-0.07224,0.25368,0.38206
-12.3749,0,0,17.3749,17.3749,5,5,24.7497,3.51319,-22.2349,-0.0222376,0.0416514,-0.1594,6.72,-0.07,0.385,-0.001098,-0.363682,-1.07799,-0.07224,0.25368,0.38206
-12.3774,0,0,17.3774,17.3774,5,5,24.7547,3.51247,-22.2338,-0.022225,0.0417304,-0.159436,6.3525,0.0175,0.315,-0.001098,-0.363682,-1.07799,-0.07224,0.25368,0.38206
-12.3798,0,0,17.3798,17.3798,5,5,24.7597,3.51175,-22.2327,-0.0931601,-0.0849582,-0.22365,6.3525,0.0175,0.315,-0.072346,-0.490318,-1.14168,-0.07224,0.25368,0.38206
-12.3816,0,0,17.3816,17.3816,5,5,24.7632,3.511,-22.2325,-0.093147,-0.0849029,-0.223675,5.5475,-0.245,-0.21,-0.072346,-0.490318,-1.14168,-0.07224,0.25368,0.38206
-12.3833,0,0,17.3833,17.3833,5,5,24.7666,3.51025,-22.2324,-0.215227,0.0747721,0.105311,5.5475,-0.245,-0.21,-0.194956,-0.330864,-0.815204,-0.07224,0.25368,0.38206
-12.3844,0,0,17.3844,17.3844,5,5,24.7688,3.50988,-22.2329,-0.215221,0.0748069,0.105295,4.8475,-0.1925,-0.63,-0.194956,-0.330864,-0.815204,-0.07224,0.25368,0.38206
-12.4127,0,0,17.4127,17.4127,5,5,24.8255,3.36569,-22.1669,-0.085027,-0.00691385,0.0555928,4.8475,-0.1925,-0.63,-0.066734,-0.413458,-0.864248,-0.07224,0.25368,0.38206
-12.4403,0,0,17.4403,17.4403,5,5,24.8807,3.22591,-22.1097,-0.0825916,-0.00598201,0.0553157,5.075,-0.245,-0.77,-0.066734,-0.413458,-0.864248,-0.06804,0.25578,0.37926
-12.4361,0,0,17.4361,17.4361,5,5,24.8723,3.54312,-22.2916,0.225315,-0.0456991,-0.02668,5.425,-0.385,-0.91,0.248026,-0.452864,-0.945378,-0.06804,0.25578,0.37926
-12.4329,0,0,17.4329,17.4329,5,5,24.8658,3.8525,-22.4717,0.219926,-0.0459474,-0.0269488,5.9675,-0.0875,-1.435,0.248026,-0.452864,-0.945378,-0.06804,0.25578,0.37926
-12.2582,0,0,17.2582,17.2582,5,5,24.5165,4.12759,-22.7247,0.141759,0.269702,-0.129709,5.9675,-0.0875,-1.435,0.174338,-0.131882,-1.04957,-0.06804,0.25578,0.37926
-12.0864,0,0,17.0864,17.0864,5,5,24.1728,4.3948,-22.9782,0.137109,0.264109,-0.127559,5.4425,0.07,-1.6975,0.174338,-0.131882,-1.04957,-0.06804,0.25578,0.37926
-11.9508,0,0,16.9508,16.9508,5,5,23.9017,4.71083,-23.2425,0.194661,0.183294,-0.14571,5.4425,0.07,-1.6975,0.237656,-0.208132,-1.06909,-0.06804,0.25578,0.37926
-11.9523,0,0,16.9523,16.9523,5,5,23.9047,4.71173,-23.2437,0.194646,0.183341,-0.145732,5.32,0.315,-1.33,0.237656,-0.208132,-1.06909,-0.06804,0.25578,0.37926
-11.7987,0,0,16.7987,16.7987,5,5,23.5974,4.75064,-23.3846,-0.0234905,0.263304,-0.0554762,5.32,0.315,-1.33,0.019276,-0.123342,-0.981612,-0.06804,0.25578,0.37926
-11.6468,0,0,16.6468,16.6468,5,5,23.2935,4.7871,-23.5247,-0.0241246,0.258435,-0.0534222,3.99,0.21,-1.2075,0.019276,-0.123342,-0.981612,-0.06804,0.25578,0.37926
-11.7582,0,0,16.7582,16.7582,5,5,23.5164,4.79257,-23.5053,0.0175714,-0.0930344,0.210723,3.99,0.21,-1.2075,0.061244,-0.477996,-0.71797,-0.06804,0.25578,0.37926
-11.7588,0,0,16.7588,16.7588,5,5,23.5176,4.79264,-23.5061,0.0175702,-0.0930146,0.210714,4.34,-0.035,-0.9275,0.061244,-0.477996,-0.71797,-0.06804,0.25578,0.37926
-11.874,0,0,16.874,16.874,5,5,23.7481,4.71097,-23.4397,-0.0206138,-0.189317,0.0643821,3.99,0.175,-0.665,0.021472,-0.577914,-0.861686,-0.06804,0.25578,0.37926
-11.987,0,0,16.987,16.987,5,5,23.974,4.63356,-23.3694,-0.0192672,-0.185677,0.0628925,4.515,0.455,-0.105,0.021472,-0.577914,-0.861686,-0.06594,0.252,0.37926
-12.1078,0,0,17.1078,17.1078,5,5,24.2156,4.42139,-23.2267,-0.104989,-0.10014,0.180826,4.6025,0.35,0.07,-0.06832,-0.496418,-0.743224,-0.06594,0.252,0.37926
-12.109,0,0,17.109,17.109,5,5,24.218,4.42066,-23.225,-0.104976,-0.100102,0.18081,4.865,0.14,0.6125,-0.06832,-0.496418,-0.743224,-0.06594,0.252,0.37926
-12.1102,0,0,17.1102,17.1102,5,5,24.2204,4.41993,-23.2233,-0.0738634,-0.151357,-0.113299,4.865,0.14,0.6125,-0.037088,-0.547658,-1.03505,-0.06594,0.252,0.37926
-12.1107,0,0,17.1107,17.1107,5,5,24.2214,4.4197,-23.2212,-0.0738594,-0.151341,-0.113306,4.0775,0.5075,0.7175,-0.037088,-0.547658,-1.03505,-0.06594,0.252,0.37926
-12.059,0,0,17.059,17.059,5,5,24.118,4.11535,-23.1231,-0.218233,0.124163,-0.0410213,4.0775,0.5075,0.7175,-0.187392,-0.270962,-0.96441,-0.06594,0.252,0.37926
-12.0077,0,0,17.0077,17.0077,5,5,24.0154,3.81789,-23.0251,-0.213053,0.122678,-0.0399644,3.92,0.315,0.6475,-0.187392,-0.270962,-0.96441,-0.06594,0.252,0.37926
-12.1774,0,0,17.1774,17.1774,5,5,24.3548,3.98497,-23.037,0.161008,-0.290053,0.173085,3.92,0.315,0.6475,0.191174,-0.688568,-0.750422,-0.06594,0.252,0.37926
-12.3446,0,0,17.3446,17.3446,5,5,24.6891,4.14913,-23.0478,0.15815,-0.284841,0.170484,4.2525,0.3675,0.5425,0.191174,-0.688568,-0.750422,-0.06594,0.252,0.37926
-12.2619,0,0,17.2619,17.2619,5,5,24.5237,4.22821,-23.1519,0.021195,0.152156,0.0254058,4.2525,0.3675,0.5425,0.055022,-0.249368,-0.89548,-0.06594,0.252,0.37926
-12.1812,0,0,17.1812,17.1812,5,5,24.3623,4.30499,-23.2556,0.0198586,0.149557,0.0264773,4.62,0.49,0.21,0.055022,-0.249368,-0.89548,-0.06594,0.252,0.37926
-12.0263,0,0,17.0263,17.0263,5,5,24.0526,4.47908,-23.4433,0.0894776,0.228935,-0.196397,4.62,0.49,0.21,0.127978,-0.165066,-1.11862,-0.06944,0.24934,0.37142
-12.0265,0,0,17.0265,17.0265,5,5,24.0531,4.47835,-23.4431,-0.00186704,0.0270675,-0.347995,3.8675,-0.2275,-0.21,0.036234,-0.366732,-1.26904,-0.06944,0.24934,0.37142
-12.0265,0,0,17.0265,17.0265,5,5,24.053,4.4782,-23.4441,-0.00186439,0.027066,-0.347995,3.5875,-0.175,-0.91,0.036234,-0.366732,-1.26904,-0.06944,0.24934,0.37142
-11.9728,0,0,16.9728,16.9728,5,5,23.9456,4.0414,-23.28,-0.323974,0.134282,-0.0909841,3.5875,-0.175,-0.91,-0.294874,-0.258152,-1.01528,-0.06944,0.24934,0.37142
-11.919,0,0,16.919,16.919,5,5,23.838,3.61468,-23.1161,-0.316543,0.132771,-0.089771,3.2375,-0.245,-1.295,-0.294874,-0.258152,-1.01528,-0.06944,0.24934,0.37142
-11.8516,0,0,16.8516,16.8516,5,5,23.7033,3.75346,-23.2362,0.0987077,0.0444607,-0.199129,3.2375,-0.245,-1.295,0.124562,-0.344162,-1.1246,-0.06944,0.24934,0.37142
-11.8514,0,0,16.8514,16.8514,5,5,23.7028,3.75366,-23.238,0.0987041,0.0444534,-0.199126,3.4125,-0.175,-1.435,0.124562,-0.344162,-1.1246,-0.06944,0.24934,0.37142
-11.8639,0,0,16.8639,16.8639,5,5,23.7278,3.30676,-23.0257,-0.311422,0.0158565,-0.0481267,3.4125,-0.175,-1.435,-0.295118,-0.37332,-0.975024,-0.06944,0.24934,0.37142
-11.8751,0,0,16.8751,16.8751,5,5,23.7501,2.87114,-22.8151,-0.30383,0.0163778,-0.0479084,3.255,0,-1.575,-0.295118,-0.37332,-0.975024,-0.06944,0.24934,0.37142
-11.7644,0,0,16.7644,16.7644,5,5,23.5287,3.41458,-23.1523,0.348797,0.140623,-0.0215102,3.255,0,-1.575,0.369782,-0.245464,-0.949892,-0.06944,0.24934,0.37142
-11.6558,0,0,16.6558,16.6558,5,5,23.3117,3.94266,-23.4879,0.339599,0.13692,-0.0205504,3.115,-0.28,-1.295,0.369782,-0.245464,-0.949892,-0.06944,0.24934,0.37142
-11.6987,0,0,16.6987,16.6987,5,5,23.3974,3.75355,-23.385,-0.11766,-0.0718027,-0.0225369,3.115,-0.28,-1.295,-0.09272,-0.455426,-0.951478,-0.06664,0.24612,0.37548
-11.7405,0,0,16.7405,16.7405,5,5,23.4809,3.56882,-23.283,-0.114442,-0.0703856,-0.0229268,3.29,-0.595,-0.805,-0.09272,-0.455426,-0.951478,-0.06664,0.24612,0.37548
-11.7628,0,0,16.7628,16.7628,5,5,23.5256,3.7637,-23.3803,0.109099,0.0075474,0.158281,3.29,-0.595,-0.805,0.135176,-0.3782,-0.771162,-0.06664,0.24612,0.37548
-11.7626,0,0,16.7626,16.7626,5,5,23.5253,3.76407,-23.3804,0.109092,0.00754216,0.158283,3.43,0.2975,-0.6125,0.135176,-0.3782,-0.771162,-0.06664,0.24612,0.37548
-11.7625,0,0,16.7625,16.7625,5,5,23.525,3.76445,-23.3805,-0.244195,-0.286544,0.0161565,3.43,0.2975,-0.6125,-0.2196,-0.671976,-0.912194,-0.06664,0.24612,0.37548
-11.7651,0,0,16.7651,16.7651,5,5,23.5302,3.66276,-23.3389,-0.0667554,0.0323359,0.0595034,2.66,0.2625,-0.1225,-0.043188,-0.353556,-0.86925,-0.06664,0.24612,0.37548
-11.7667,0,0,16.7667,16.7667,5,5,23.5334,3.56324,-23.2972,-0.0650219,0.0324315,0.0595811,1.8025,0.105,0.245,-0.043188,-0.353556,-0.86925,-0.06664,0.24612,0.37548
-11.807,0,0,16.807,16.807,5,5,23.6141,3.4947,-23.249,-0.0327276,-0.0950956,-0.0385341,1.8025,0.105,0.245,-0.011956,-0.482266,-0.966118,-0.06664,0.24612,0.37548
-11.8468,0,0,16.8468,16.8468,5,5,23.6937,3.42872,-23.2011,-0.0315782,-0.0937969,-0.0390271,2.2925,0.4375,0.3325,-0.011956,-0.482266,-0.966118,-0.06664,0.24612,0.37548
-11.8321,0,0,16.8321,16.8321,5,5,23.6641,3.2944,-23.1479,-0.0907096,0.0567354,0.034337,2.0125,0.07,0.3325,-0.073688,-0.331474,-0.89365,-0.06664,0.24612,0.37548
-11.8187,0,0,16.8187,16.8187,5,5,23.6375,3.16329,-23.0948,-0.088425,0.0563615,0.0346415,3.57,0.0525,0.5075,-0.073688,-0.331474,-0.89365,-0.06664,0.24612,0.37548
-11.8709,0,0,16.8709,16.8709,5,5,23.7419,2.94444,-22.9758,-0.138793,-0.1009,-0.0482787,3.57,0.0525,0.5075,-0.1281,-0.490318,-0.97539,-0.0693,0.25536,0.3752
-11.9473,0,0,16.9473,16.9473,5,5,23.8946,2.71059,-22.8345,-0.13581,-0.0954516,0.051771,3.815,0.4725,0.56,-0.129198,-0.48739,-0.875228,-0.0693,0.25536,0.3752
-12.0214,0,0,17.0214,17.0214,5,5,24.0428,2.4835,-22.6964,-0.131851,-0.0930178,0.0508856,3.57,0.35,0.0875,-0.129198,-0.48739,-0.875228,-0.0693,0.25536,0.3752
-12.1065,0,0,17.1065,17.1065,5,5,24.213,2.53229,-22.6878,0.0462468,-0.0977744,0.141973,3.57,0.35,0.0875,0.050508,-0.494832,-0.783606,-0.0693,0.25536,0.3752
-12.1891,0,0,17.1891,17.1891,5,5,24.3782,2.57984,-22.6802,0.0454178,-0.0951642,0.140754,2.555,-0.21,-0.315,0.050508,-0.494832,-0.783606,-0.0693,0.25536,0.3752
-12.2236,0,0,17.2236,17.2236,5,5,24.4471,2.61871,-22.6918,0.0480201,-0.136827,-0.108496,2.555,-0.21,-0.315,0.053802,-0.537532,-1.03041,-0.0693,0.25536,0.3752
-12.2227,0,0,17.2227,17.2227,5,5,24.4455,2.61856,-22.6924,0.0480228,-0.136853,-0.108484,2.695,-0.0875,-0.7,0.053802,-0.537532,-1.03041,-0.0693,0.25536,0.3752
-12.2064,0,0,17.2064,17.2064,5,5,24.4128,2.56672,-22.6845,-0.0386646,0.0602463,0.0561713,2.695,-0.0875,-0.7,-0.03416,-0.340136,-0.867298,-0.0693,0.25536,0.3752
-12.1911,0,0,17.1911,17.1911,5,5,24.3822,2.51715,-22.6775,-0.0378002,0.0597765,0.0564266,3.6225,0.2625,-1.365,-0.03416,-0.340136,-0.867298,-0.0693,0.25536,0.3752
-12.2022,0,0,17.2022,17.2022,5,5,24.4044,2.4334,-22.6403,-0.0537124,-0.032662,-0.047444,3.6225,0.2625,-1.365,-0.051606,-0.432856,-0.970266,-0.0693,0.25536,0.3752
-12.2123,0,0,17.2123,17.2123,5,5,24.4246,2.35225,-22.6035,-0.0522972,-0.032317,-0.0475357,2.94,0.4025,-1.4875,-0.051606,-0.432856,-0.970266,-0.0693,0.25536,0.3752
-12.2368,0,0,17.2368,17.2368,5,5,24.4736,2.35829,-22.6026,0.0121063,-0.0612163,-0.019124,3.15,0.07,-1.4875,0.013176,-0.462502,-0.941718,-0.0693,0.25536,0.3752
-12.2601,0,0,17.2601,17.2601,5,5,24.5202,2.36524,-22.5994,0.011985,-0.060479,-0.0194654,2.2925,0.6475,-1.33,0.013176,-0.462502,-0.941718,-0.0672,0.25424,0.3815
-12.4034,0,0,17.4034,17.4034,5,5,24.8068,2.04252,-22.375,-0.181259,-0.197758,0.112045,2.065,0.035,-1.2425,-0.186538,-0.604266,-0.809348,-0.0672,0.25424,0.3815
-12.5433,0,0,17.5433,17.5433,5,5,25.0866,1.72882,-22.1551,-0.175786,-0.193256,0.110149,2.2925,-0.035,-1.0675,-0.186538,-0.604266,-0.809348,-0.0672,0.25424,0.3815
-12.4795,0,0,17.4795,17.4795,5,5,24.959,2.02015,-22.3266,0.197195,0.046589,-0.102867,2.2925,-0.035,-1.0675,0.193126,-0.362584,-1.02151,-0.0672,0.25424,0.3815
-12.479,0,0,17.479,17.479,5,5,24.958,2.01964,-22.3271,0.197204,0.0465735,-0.102859,3.0625,-0.28,-0.6125,0.193126,-0.362584,-1.02151,-0.0672,0.25424,0.3815
-12.489,0,0,17.489,17.489,5,5,24.978,1.90634,-22.2672,-0.0746486,-0.0363725,-0.0647079,3.0625,-0.28,-0.6125,-0.081862,-0.445788,-0.983564,-0.0672,0.25424,0.3815
-12.499,0,0,17.499,17.499,5,5,24.9979,1.79649,-22.2069,-0.0727322,-0.0360311,-0.0647987,3.4825,0.175,-0.175,-0.081862,-0.445788,-0.983564,-0.0672,0.25424,0.3815
-12.5353,0,0,17.5353,17.5353,5,5,25.0706,1.95744,-22.2669,0.114342,-0.0713148,0.0501529,3.4825,0.175,-0.175,0.108824,-0.482144,-0.868884,-0.0672,0.25424,0.3815
-12.5713,0,0,17.5713,17.5713,5,5,25.1426,2.11417,-22.3254,0.111609,-0.0702194,0.0495323,3.535,0.2275,0.1225,0.108824,-0.482144,-0.868884,-0.0672,0.25424,0.3815
-12.6086,0,0,17.6086,17.6086,5,5,25.2173,1.7088,-22.108,-0.289269,-0.0638108,-0.0855599,3.535,0.2275,0.1225,-0.300852,-0.47702,-1.0026,-0.0672,0.25424,0.3815
-12.608,0,0,17.608,17.608,5,5,25.216,1.70842,-22.1069,-0.289263,-0.0638314,-0.08555,2.8525,0.1925,0.21,-0.300852,-0.47702,-1.0026,-0.0672,0.25424,0.3815
-12.5688,0,0,17.5688,17.5688,5,5,25.1377,1.9633,-22.2465,0.168423,0.0230477,-0.0463693,2.8525,0.1925,0.21,0.163236,-0.388936,-0.964166,-0.06636,0.2541,0.38374
-12.5308,0,0,17.5308,17.5308,5,5,25.0616,2.21151,-22.3846,0.164094,0.0217795,-0.0459495,2.87,0.4725,0.245,0.163236,-0.388936,-0.964166,-0.06636,0.2541,0.38374
-12.465,0,0,17.465,17.465,5,5,24.9299,2.36037,-22.4898,0.0790086,0.103067,-0.00978667,2.87,0.4725,0.245,0.080398,-0.30561,-0.929152,-0.06636,0.2541,0.38374
-12.3479,0,0,17.3479,17.3479,5,5,24.6959,2.6734,-22.7052,0.193943,0.155684,-0.105421,3.43,-0.245,0.14,0.2013,-0.249246,-1.02553,-0.06636,0.2541,0.38374
-12.233,0,0,17.233,17.233,5,5,24.4659,2.97785,-22.921,0.188636,0.151931,-0.103992,3.0275,-0.315,-0.455,0.2013,-0.249246,-1.02553,-0.06636,0.2541,0.38374
-12.2166,0,0,17.2166,17.2166,5,5,24.4332,2.78124,-22.8425,-0.139836,0.0296002,-0.0694194,3.0275,-0.315,-0.455,-0.132004,-0.371002,-0.991616,-0.06636,0.2541,0.38374
-12.2003,0,0,17.2003,17.2003,5,5,24.4006,2.59088,-22.764,-0.136517,0.0291461,-0.0690423,3.0975,0.5075,-0.56,-0.132004,-0.371002,-0.991616,-0.06636,0.2541,0.38374
-12.2344,0,0,17.2344,17.2344,5,5,24.4687,2.39021,-22.6535,-0.121113,-0.00939984,0.0660938,3.0975,0.5075,-0.56,-0.120048,-0.410652,-0.857172,-0.06636,0.2541,0.38374
-12.2665,0,0,17.2665,17.2665,5,5,24.533,2.18795,-22.5483,-0.117585,-0.00832102,0.065757,2.2225,-4.1825,-0.945,-0.120048,-0.410652,-0.857172,-0.06636,0.2541,0.38374
-12.3425,0,0,17.3425,17.3425,5,5,24.685,2.27529,-22.5638,0.0781841,-0.117927,0.0987795,2.2225,-4.1825,-0.945,0.07808,-0.522526,-0.823256,-0.06636,0.2541,0.38374
-12.418,0,0,17.418,17.418,5,5,24.836,2.3673,-22.5765,0.0765796,-0.115563,0.0976173,3.1325,-0.175,-1.2425,0.07808,-0.522526,-0.823256,-0.06636,0.2541,0.38374
-12.4151,0,0,17.4151,17.4151,5,5,24.8302,2.10469,-22.452,-0.171895,0.0472164,0.0179051,2.9575,0,-1.26,-0.176046,-0.3599,-0.902556,-0.06636,0.2541,0.38374
-12.4119,0,0,17.4119,17.4119,5,5,24.8239,1.8481,-22.3277,-0.167419,0.0471801,0.0180921,2.9575,0,-1.26,-0.176046,-0.3599,-0.902556,-0.06846,0.25396,0.37954
-12.4815,0,0,17.4815,17.4815,5,5,24.9629,1.8548,-22.2963,0.0193086,-0.0965624,0.0855498,3.745,0.175,-0.84,0.01159,-0.50569,-0.834602,-0.06846,0.25396,0.37954
-12.6414,0,0,17.6414,17.6414,5,5,25.2827,1.47695,-22.0345,-0.222659,-0.237249,0.105486,3.8325,-0.07,-1.05,-0.238022,-0.651358,-0.812642,-0.06846,0.25396,0.37954
-12.7962,0,0,17.7962,17.7962,5,5,25.5924,1.10972,-21.7783,-0.216251,-0.232307,0.103295,2.66,-0.0175,-0.98,-0.238022,-0.651358,-0.812642,-0.06846,0.25396,0.37954
-12.7765,0,0,17.7765,17.7765,5,5,25.553,1.64451,-22.0384,0.324626,0.02564,0.123799,2.66,-0.0175,-0.98,0.314516,-0.392962,-0.79239,-0.06846,0.25396,0.37954
-12.7574,0,0,17.7574,17.7574,5,5,25.5149,2.1648,-22.2944,0.31555,0.02491,0.123813,2.3275,0.035,-0.49,0.314516,-0.392962,-0.79239,-0.06846,0.25396,0.37954
-12.7563,0,0,17.7563,17.7563,5,5,25.5126,2.16468,-22.2945,0.122998,0.0809303,0.108339,2.3275,0.035,-0.49,0.121146,-0.336964,-0.807762,-0.06846,0.25396,0.37954
-12.7555,0,0,17.7555,17.7555,5,5,25.5111,2.16384,-22.2949,0.123012,0.0809068,0.108351,2.765,-0.42,-0.455,0.121146,-0.336964,-0.807762,-0.06846,0.25396,0.37954
-12.7548,0,0,17.7548,17.7548,5,5,25.5096,2.163,-22.2953,0.0995803,-0.0726301,-0.220033,2.765,-0.42,-0.455,0.0976,-0.490318,-1.13362,-0.06846,0.25396,0.37954
-12.7548,0,0,17.7548,17.7548,5,5,25.5097,2.16324,-22.2948,0.099576,-0.0726283,-0.220034,3.6575,0.3675,-0.28,0.0976,-0.490318,-1.13362,-0.06846,0.25396,0.37954
-12.8194,0,0,17.8194,17.8194,5,5,25.6388,1.87255,-22.1208,-0.188013,-0.109355,-0.0231438,3.6575,0.3675,-0.28,-0.196298,-0.529114,-0.937448,-0.06846,0.25396,0.37954
-12.8817,0,0,17.8817,17.8817,5,5,25.7635,1.59006,-21.9368,-0.183084,-0.107332,-0.0239524,3.43,0.2975,0.1925,-0.196298,-0.529114,-0.937448,-0.06916,0.24752,0.38192
-13.0088,0,0,18.0088,18.0088,5,5,26.0175,1.63755,-21.8816,0.0663475,-0.250395,0.0746628,3.675,-0.1575,0.2975,0.055022,-0.676002,-0.837652,-0.06916,0.24752,0.38192
-13.1335,0,0,18.1335,18.1335,5,5,26.267,1.68454,-21.8268,0.0655277,-0.246498,0.0727237,3.675,-0.1575,0.4025,0.055022,-0.676002,-0.837652,-0.06916,0.24752,0.38192
-13.175,0,0,18.175,18.175,5,5,26.35,1.40227,-21.6521,-0.170089,-0.0184737,0.0533897,3.675,-0.1575,0.4025,-0.186538,-0.44957,-0.856318,-0.06916,0.24752,0.38192
-13.2148,0,0,18.2148,18.2148,5,5,26.4296,1.12801,-21.4796,-0.165304,-0.0171826,0.0528671,3.36,0.035,0.21,-0.186538,-0.44957,-0.856318,-0.06916,0.24752,0.38192
-13.359,0,0,18.359,18.359,5,5,26.718,1.26903,-21.4591,0.13267,-0.278208,0.122986,3.36,0.035,0.21,0.115168,-0.714798,-0.78446,-0.06916,0.24752,0.38192
-13.501,0,0,18.501,18.501,5,5,27.002,1.40776,-21.4387,0.130249,-0.273813,0.120697,3.535,0.1575,-0.2625,0.115168,-0.714798,-0.78446,-0.06916,0.24752,0.38192
-13.474,0,0,18.474,18.474,5,5,26.9481,1.35562,-21.4023,-0.0383137,0.0846548,0.053399,3.535,0.1575,-0.2625,-0.055022,-0.355874,-0.851682,-0.06916,0.24752,0.38192
-13.4478,0,0,18.4478,18.4478,5,5,26.8956,1.30492,-21.3666,-0.0374291,0.0838473,0.0538321,3.8675,0.175,-0.525,-0.055022,-0.355874,-0.851682,-0.06916,0.24752,0.38192
-13.4777,0,0,18.4777,18.4777,5,5,26.9553,1.3761,-21.364,0.0541441,-0.0658186,0.0136217,3.8675,0.175,-0.525,0.038186,-0.5063,-0.891088,-0.06916,0.24752,0.38192
-13.5072,0,0,18.5072,18.5072,5,5,27.0144,1.44562,-21.3617,0.0529311,-0.0649145,0.0131278,3.955,0.14,-0.7175,0.038186,-0.5063,-0.891088,-0.06916,0.24752,0.38192
-13.3655,0,0,18.3655,18.3655,5,5,26.731,1.70755,-21.5372,0.132186,0.227876,-0.0427818,3.955,0.14,-0.7175,0.122366,-0.209352,-0.948672,-0.06818,0.25256,0.38094
-13.3656,0,0,18.3656,18.3656,5,5,26.7312,1.70742,-21.5381,-0.216111,-0.102841,-0.104503,3.71,-0.1925,-0.91,-0.227408,-0.539728,-1.00992,-0.06818,0.25256,0.38094
-13.3659,0,0,18.3659,18.3659,5,5,26.7318,1.70742,-21.5392,0.119433,0.0924501,0.133397,3.99,-0.175,-1.05,0.109556,-0.34465,-0.773846,-0.06818,0.25256,0.38094
-13.3662,0,0,18.3662,18.3662,5,5,26.7325,1.70766,-21.5402,0.119429,0.0924599,0.133392,3.9725,0,-1.015,0.109556,-0.34465,-0.773846,-0.06818,0.25256,0.38094
-13.5011,0,0,18.5011,18.5011,5,5,27.0022,1.34463,-21.2989,-0.198362,-0.13897,0.156005,4.2875,-0.14,-0.805,-0.21594,-0.58011,-0.749446,-0.06818,0.25256,0.38094
-13.6326,0,0,18.6326,18.6326,5,5,27.2652,0.991517,-21.0624,-0.1922,-0.13483,0.154025,4.3575,-0.28,-0.7,-0.21594,-0.58011,-0.749446,-0.06818,0.25256,0.38094
-13.5469,0,0,18.5469,18.5469,5,5,27.0938,1.52052,-21.3359,0.356918,0.0801692,-0.0684325,4.3575,-0.28,-0.7,0.344772,-0.362584,-0.971364,-0.06818,0.25256,0.38094
-13.5444,0,0,18.5444,18.5444,5,5,27.0889,1.09573,-21.1238,-0.289871,0.047685,-0.0367684,3.71,-0.07,-0.84,-0.312198,-0.395036,-0.940132,-0.06818,0.25256,0.38094
-13.5411,0,0,18.5411,18.5411,5,5,27.0822,0.681642,-20.9129,-0.282644,0.0476317,-0.0366152,3.6225,0.0875,-0.8575,-0.312198,-0.395036,-0.940132,-0.06818,0.25256,0.38094
-13.5563,0,0,18.5563,18.5563,5,5,27.1126,0.503901,-20.8031,-0.11578,-0.0201493,-0.024288,3.6225,0.0875,-0.8575,-0.147742,-0.463234,-0.927688,-0.06818,0.25256,0.38094
-13.5567,0,0,18.5567,18.5567,5,5,27.1134,0.504506,-20.8028,0.559063,-0.18916,-0.118227,4.06,0.525,-0.455,0.529968,-0.632082,-1.0209,-0.06818,0.25256,0.38094
-13.5572,0,0,18.5572,18.5572,5,5,27.1145,0.50438,-20.8029,0.559065,-0.189144,-0.118235,4.1825,0.035,-0.4725,0.529968,-0.632082,-1.0209,-0.06818,0.25256,0.38094
-13.5096,0,0,18.5096,18.5096,5,5,27.0193,0.37957,-20.743,-0.0983025,0.0680484,-0.114391,4.1825,0.035,-0.4725,-0.13237,-0.373686,-1.01785,-0.06636,0.25102,0.37366
-13.5104,0,0,18.5104,18.5104,5,5,27.0208,0.379963,-20.7428,0.196536,-0.00666881,-0.24645,4.48,0.385,-0.455,0.163724,-0.44835,-1.14887,-0.06636,0.25102,0.37366
-13.5114,0,0,18.5114,18.5114,5,5,27.0228,0.379611,-20.743,0.104092,0.0546689,0.116971,4.69,-0.1225,-0.49,0.070882,-0.387106,-0.788242,-0.06636,0.25102,0.37366
-13.5125,0,0,18.5125,18.5125,5,5,27.0251,0.378639,-20.7427,0.104109,0.0547045,0.116953,4.8825,-0.2975,-0.035,0.070882,-0.387106,-0.788242,-0.06636,0.25102,0.37366
-13.5137,0,0,18.5137,18.5137,5,5,27.0273,0.377666,-20.7424,-0.36493,-0.13651,-0.0350298,4.8825,-0.2975,-0.035,-0.40016,-0.578158,-0.939034,-0.06636,0.25102,0.37366
-13.5145,0,0,18.5145,18.5145,5,5,27.0289,0.377349,-20.742,-0.364925,-0.136486,-0.0350422,4.48,0.0525,-0.1925,-0.40016,-0.578158,-0.939034,-0.06636,0.25102,0.37366
-13.5645,0,0,18.5645,18.5645,5,5,27.1289,0.142779,-20.5893,-0.149932,-0.08131,-0.0108616,4.235,0.245,-0.455,-0.188368,-0.5246,-0.914268,-0.06636,0.25102,0.37366
-13.6127,0,0,18.6127,18.6127,5,5,27.2254,-0.0790865,-20.4352,-0.146059,-0.0798112,-0.0116287,3.8675,4.4275,-0.315,-0.188368,-0.5246,-0.914268,-0.06636,0.25102,0.37366
-13.5697,0,0,18.5697,18.5697,5,5,27.1395,-0.0845451,-20.4182,-0.0174323,0.0622319,-0.0634429,3.8675,4.4275,-0.315,-0.059292,-0.381372,-0.966362,-0.06636,0.25102,0.37366
-13.4916,0,0,18.4916,18.4916,5,5,26.9833,0.151142,-20.5392,0.131526,0.124896,-0.00318934,3.7975,-0.1225,-0.3325,0.094428,-0.316346,-0.907802,-0.06636,0.25102,0.37366
-13.4159,0,0,18.4159,18.4159,5,5,26.8317,0.380141,-20.6602,0.127529,0.122529,-0.00200884,4.4625,-0.245,-0.56,0.094428,-0.316346,-0.907802,-0.06636,0.25102,0.37366
-13.477,0,0,18.477,18.477,5,5,26.9539,0.390522,-20.6264,0.0221416,-0.134477,0.00206598,4.4625,-0.245,-0.56,-0.011224,-0.574986,-0.9028,-0.06496,0.252,0.37408
-13.537,0,0,18.537,18.537,5,5,27.0741,0.402244,-20.5926,0.021937,-0.13261,0.00111233,4.5675,0.49,-0.7,-0.011224,-0.574986,-0.9028,-0.06496,0.252,0.37408
-13.5379,0,0,18.5379,18.5379,5,5,27.0758,0.402987,-20.5927,0.0795083,0.0887104,-0.387296,4.5675,0.49,-0.7,0.046604,-0.353922,-1.2882,-0.06496,0.252,0.37408
-13.5392,0,0,18.5392,18.5392,5,5,27.0785,0.40254,-20.5926,0.0795161,0.0887517,-0.387317,5.0925,-0.105,-0.3325,0.046604,-0.353922,-1.2882,-0.06496,0.252,0.37408
-13.613,0,0,18.613,18.613,5,5,27.226,0.272781,-20.4859,-0.0653384,-0.0766313,0.0997486,5.0925,-0.105,-0.3325,-0.101138,-0.521428,-0.803736,-0.06496,0.252,0.37408
-13.6849,0,0,18.6849,18.6849,5,5,27.3698,0.147176,-20.381,-0.0631462,-0.0743963,0.0986042,4.9175,-0.035,-0.4725,-0.101138,-0.521428,-0.803736,-0.06496,0.252,0.37408
-13.6529,0,0,18.6529,18.6529,5,5,27.3058,0.1903,-20.396,0.0222345,0.0300053,-0.07166,4.9175,-0.035,-0.4725,-0.01464,-0.416142,-0.973194,-0.06496,0.252,0.37408
-13.6541,0,0,18.6541,18.6541,5,5,27.3081,0.189471,-20.3965,0.271781,-0.0181989,-0.0852028,4.9,-0.4375,-0.49,0.235948,-0.464332,-0.986614,-0.06496,0.252,0.37408
-13.6552,0,0,18.6552,18.6552,5,5,27.3104,0.188391,-20.3963,0.271799,-0.0181634,-0.085221,4.8825,-0.3675,-0.035,0.235948,-0.464332,-0.986614,-0.06496,0.252,0.37408
-13.6736,0,0,18.6736,18.6736,5,5,27.3471,0.170731,-20.3633,-0.00706644,-0.0322492,0.00374642,4.8825,-0.3675,-0.035,-0.044408,-0.478972,-0.898042,-0.06496,0.252,0.37408
-13.6908,0,0,18.6908,18.6908,5,5,27.3815,0.154153,-20.3308,-0.00677711,-0.0317151,0.00347089,4.0425,-0.105,-0.1575,-0.044408,-0.478972,-0.898042,-0.06496,0.252,0.37408
-13.7079,0,0,18.7079,18.7079,5,5,27.4159,0.0704767,-20.2659,-0.0522102,-0.0341128,-0.0180724,4.0775,0.07,-0.3325,-0.0915,-0.4819,-0.919148,-0.06496,0.252,0.37408
-13.724,0,0,18.724,18.724,5,5,27.448,-0.0105845,-20.1891,-0.0507954,-0.0336142,-0.0183304,3.43,0.1925,-0.315,-0.0915,-0.4819,-0.919148,-0.06664,0.24528,0.37464
-13.7239,0,0,18.7239,18.7239,5,5,27.4477,-0.0105957,-20.1888,0.267497,0.0593195,0.164988,3.43,0.1925,-0.315,0.22814,-0.389058,-0.737246,-0.06664,0.24528,0.37464
-13.7246,0,0,18.7246,18.7246,5,5,27.4493,-0.0110851,-20.1887,0.267506,0.0593432,0.164976,4.4625,-0.105,-0.28,0.22814,-0.389058,-0.737246,-0.06664,0.24528,0.37464
-13.6596,0,0,18.6596,18.6596,5,5,27.3192,0.00578737,-20.191,-0.0020009,0.0905454,-0.103974,4.4625,-0.105,-0.28,-0.042212,-0.355874,-1.00516,-0.06664,0.24528,0.37464
-13.5957,0,0,18.5957,18.5957,5,5,27.1913,0.0231192,-20.1932,-0.0023034,0.0885622,-0.102953,4.3575,0.5775,-0.5425,-0.042212,-0.355874,-1.00516,-0.06664,0.24528,0.37464
-13.5963,0,0,18.5963,18.5963,5,5,27.1927,0.023872,-20.1929,-0.0453225,-0.0297578,-0.280378,4.3575,0.5775,-0.5425,-0.0854,-0.474092,-1.1812,-0.06664,0.24528,0.37464
-13.5971,0,0,18.5971,18.5971,5,5,27.1941,0.0241859,-20.1929,-0.0453279,-0.0297354,-0.28039,4.41,0.2975,-0.525,-0.0854,-0.474092,-1.1812,-0.06664,0.24528,0.37464
-13.5499,0,0,18.5499,18.5499,5,5,27.0998,0.0805681,-20.2093,0.0286447,0.0541666,-0.0887008,4.935,0,-0.5075,-0.010126,-0.388814,-0.991738,-0.06664,0.24528,0.37464
-13.5036,0,0,18.5036,18.5036,5,5,27.0071,0.134736,-20.2257,0.0276993,0.0527246,-0.0879664,4.725,-0.2275,-0.35,-0.010126,-0.388814,-0.991738,-0.06664,0.24528,0.37464
-13.5046,0,0,18.5046,18.5046,5,5,27.0091,0.134116,-20.2258,0.121376,0.257562,0.138489,4.725,-0.2275,-0.35,0.083936,-0.18422,-0.767014,-0.06664,0.24528,0.37464
-13.5135,0,0,18.5135,18.5135,5,5,27.0271,-0.102766,-20.0799,-0.146497,0.0321518,0.0381445,4.0075,0.07,-0.4025,-0.189222,-0.409676,-0.866444,-0.06664,0.24528,0.37464
-13.5219,0,0,18.5219,18.5219,5,5,27.0438,-0.332788,-19.9355,-0.142482,0.0324052,0.0379981,4.0425,0.4025,-0.63,-0.189222,-0.409676,-0.866444,-0.06664,0.24528,0.37464
-13.5223,0,0,18.5223,18.5223,5,5,27.0446,-0.332233,-19.9355,1.10873e-05,0.0110452,0.122212,4.0425,0.4025,-0.63,-0.046116,-0.431026,-0.782874,-0.06664,0.24528,0.37464
-13.5225,0,0,18.5225,18.5225,5,5,27.045,-0.332113,-19.9361,9.0013e-06,0.0110507,0.122209,3.7975,0.035,-0.7875,-0.046116,-0.431026,-0.782874,-0.0672,0.24584,0.3703
-13.5447,0,0,18.5447,18.5447,5,5,27.0894,-0.591299,-19.7733,-0.155464,0.0189299,0.0603494,3.7975,0.035,-0.7875,-0.20679,-0.423828,-0.843874,-0.0672,0.24584,0.3703
-13.5661,0,0,18.5661,18.5661,5,5,27.1323,-0.844283,-19.6122,-0.151049,0.0195711,0.059959,3.99,-0.3325,-0.7,-0.20679,-0.423828,-0.843874,-0.0672,0.24584,0.3703
-13.5665,0,0,18.5665,18.5665,5,5,27.133,-0.844789,-19.6129,0.302101,-0.165196,-0.132953,3.99,-0.3325,-0.7,0.24827,-0.608414,-1.03529,-0.0672,0.24584,0.3703
-13.567,0,0,18.567,18.567,5,5,27.1339,-0.844555,-19.6129,0.302097,-0.165181,-0.13296,4.13,0.245,-0.525,0.24827,-0.608414,-1.03529,-0.0672,0.24584,0.3703
-13.5678,0,0,18.5678,18.5678,5,5,27.1357,-0.844401,-19.6129,-0.0119459,0.0328134,0.216322,4.585,0.21,-0.49,-0.0671,-0.410652,-0.68869,-0.0672,0.24584,0.3703
-13.5691,0,0,18.5691,18.5691,5,5,27.1382,-0.851173,-19.6163,-0.0118277,0.0328512,0.216301,4.97,-4.3225,-0.4375,-0.0671,-0.410652,-0.68869,-0.0672,0.24584,0.3703
-13.5208,0,0,18.5208,18.5208,5,5,27.0415,-1.12494,-19.4739,-0.196325,0.099825,-0.0968916,4.97,-4.3225,-0.4375,-0.257176,-0.34221,-1.00016,-0.0672,0.24584,0.3703
-13.5034,0,0,18.5034,18.5034,5,5,27.0069,-0.977018,-19.5166,0.0982477,-0.0162237,-0.0707557,4.1825,0.07,-0.5075,0.041236,-0.457622,-0.974536,-0.0672,0.24584,0.3703
-13.4865,0,0,18.4865,18.4865,5,5,26.9729,-0.833311,-19.5587,0.0957398,-0.0167337,-0.0704514,3.955,0.07,-0.315,0.041236,-0.457622,-0.974536,-0.0672,0.24584,0.3703
-13.4868,0,0,18.4868,18.4868,5,5,26.9735,-0.833506,-19.5585,-0.109568,0.29934,0.0234762,3.955,0.07,-0.315,-0.164944,-0.141886,-0.881328,-0.0672,0.24584,0.3703
-13.4864,0,0,18.4864,18.4864,5,5,26.9728,-0.833755,-19.5582,-0.109563,0.299328,0.0234824,3.1675,0.07,-0.245,-0.164944,-0.141886,-0.881328,-0.0672,0.24584,0.3703
-13.4538,0,0,18.4538,18.4538,5,5,26.9075,-0.707905,-19.6082,0.0807953,0.0107177,-0.0884733,3.1675,0.07,-0.245,0.028426,-0.429196,-0.992958,-0.06384,0.25046,0.37296
-13.5331,0,0,18.5331,18.5331,5,5,27.0661,-1.1942,-19.3216,-0.322191,-0.0931297,0.0397327,3.605,-0.1225,-0.5075,-0.384788,-0.535336,-0.86437,-0.06384,0.25046,0.37296
-13.6099,0,0,18.6099,18.6099,5,5,27.2198,-1.66811,-19.039,-0.313922,-0.0908391,0.0383262,3.605,-0.1225,-0.5075,-0.384788,-0.535336,-0.86437,-0.06384,0.25046,0.37296
-13.5989,0,0,18.5989,18.5989,5,5,27.1977,-1.19313,-19.2473,0.315591,-0.0229395,0.0319238,3.3075,0,-0.28,0.255712,-0.46726,-0.87108,-0.06384,0.25046,0.37296
-13.5892,0,0,18.5892,18.5892,5,5,27.1784,-0.731005,-19.4532,0.307526,-0.0231771,0.0321981,4.06,-0.1575,-0.2975,0.255712,-0.46726,-0.87108,-0.06384,0.25046,0.37296
-13.5896,0,0,18.5896,18.5896,5,5,27.1792,-0.73156,-19.4532,-0.219712,0.149034,-0.201288,4.06,-0.1575,-0.2975,-0.273768,-0.29524,-1.10276,-0.06384,0.25046,0.37296
-13.5897,0,0,18.5897,18.5897,5,5,27.1794,-0.731771,-19.454,-0.219708,0.149036,-0.201289,3.6575,-0.1925,-0.805,-0.273768,-0.29524,-1.10276,-0.06384,0.25046,0.37296
-13.5901,0,0,18.5901,18.5901,5,5,27.1803,-0.73145,-19.4545,0.172077,-0.236381,-0.201542,4.13,0.1575,-0.805,0.119682,-0.680272,-1.103,-0.06384,0.25046,0.37296
-13.5907,0,0,18.5907,18.5907,5,5,27.1813,-0.731459,-19.4553,0.172078,-0.236366,-0.20155,4.165,-0.105,-0.8925,0.119682,-0.680272,-1.103,-0.06384,0.25046,0.37296
-13.4884,0,0,18.4884,18.4884,5,5,26.9768,-0.962971,-19.3568,-0.165378,0.222923,-0.031785,4.165,-0.105,-0.8925,-0.22326,-0.218258,-0.936106,-0.06384,0.25046,0.37296
-13.387,0,0,18.387,18.387,5,5,26.774,-1.18952,-19.2574,-0.161425,0.219733,-0.0302514,3.465,-0.0875,-0.6125,-0.22326,-0.218258,-0.936106,-0.06384,0.25046,0.37296
-13.3869,0,0,18.3869,18.3869,5,5,26.7737,-1.18972,-19.2578,0.159422,0.113967,0.179869,3.465,-0.0875,-0.6125,0.098942,-0.32391,-0.727608,-0.06384,0.25046,0.37296
-13.3866,0,0,18.3866,18.3866,5,5,26.7732,-1.18859,-19.2579,0.159402,0.113958,0.179874,3.2725,0.6825,-0.8225,0.098942,-0.32391,-0.727608,-0.063,0.24808,0.38136
-13.3863,0,0,18.3863,18.3863,5,5,26.7726,-1.18746,-19.258,0.102284,-0.121633,-0.116181,3.2725,0.6825,-0.8225,0.041602,-0.559248,-1.02138,-0.063,0.24808,0.38136
-13.3862,0,0,18.3862,18.3862,5,5,26.7724,-1.18788,-19.2584,0.102292,-0.121636,-0.116179,3.5,-0.1925,-0.5425,0.041602,-0.559248,-1.02138,-0.063,0.24808,0.38136
-13.2827,0,0,18.2827,18.2827,5,5,26.5654,-1.08859,-19.3147,0.0435824,0.199764,0.0285848,3.5,-0.1925,-0.5425,-0.015616,-0.234972,-0.879376,-0.063,0.24808,0.38136
-13.1817,0,0,18.1817,18.1817,5,5,26.3633,-0.992872,-19.3712,0.041912,0.196621,0.0301833,4.025,-0.49,-0.385,-0.015616,-0.234972,-0.879376,-0.063,0.24808,0.38136
-13.182,0,0,18.182,18.182,5,5,26.3641,-0.993868,-19.3715,-0.119768,-0.166572,-0.0611735,4.025,-0.49,-0.385,-0.177998,-0.5978,-0.970022,-0.063,0.24808,0.38136
-13.1826,0,0,18.1826,18.1826,5,5,26.3652,-0.994129,-19.3715,0.349779,0.0615779,-0.100649,4.2175,-0.0175,-0.4025,0.293532,-0.369904,-1.00918,-0.063,0.24808,0.38136
-13.1831,0,0,18.1831,18.1831,5,5,26.3661,-0.994081,-19.3713,0.349778,0.061593,-0.100656,4.1475,0.21,-0.35,0.293532,-0.369904,-1.00918,-0.063,0.24808,0.38136
-13.1836,0,0,18.1836,18.1836,5,5,26.3671,-0.994034,-19.3711,-0.130091,0.123526,0.124578,4.1475,0.21,-0.35,-0.188368,-0.30805,-0.78568,-0.063,0.24808,0.38136
-13.1839,0,0,18.1839,18.1839,5,5,26.3679,-0.993746,-19.371,-0.130096,0.123539,0.124572,4.0425,0.2975,-0.49,-0.188368,-0.30805,-0.78568,-0.063,0.24808,0.38136
-13.0122,0,0,18.0122,18.0122,5,5,26.0244,-0.938312,-19.434,0.00414974,0.308441,-0.105509,4.0425,0.2975,-0.49,-0.052582,-0.117974,-1.01663,-0.063,0.24808,0.38136
-12.9983,0,0,17.9983,17.9983,5,5,25.9967,-0.542583,-19.6152,0.274717,-0.029757,-0.0164476,3.885,0.21,-0.4025,0.226066,-0.455426,-0.928542,-0.063,0.24808,0.38136
-12.9841,0,0,17.9841,17.9841,5,5,25.9682,-0.156815,-19.7938,0.267984,-0.0301862,-0.0161927,2.6775,0.595,-0.28,0.226066,-0.455426,-0.928542,-0.063,0.24808,0.38136
-12.9653,0,0,17.9653,17.9653,5,5,25.9307,-0.41367,-19.6578,-0.177637,0.0558033,-0.0333851,2.6775,0.595,-0.28,-0.225944,-0.368928,-0.945866,-0.07168,0.25326,0.38164
-12.965,0,0,17.965,17.965,5,5,25.9299,-0.413971,-19.6578,0.0959535,-0.176616,-0.119935,3.185,-0.035,-0.385,0.0488,-0.601094,-1.03175,-0.07168,0.25326,0.38164
-12.9646,0,0,17.9646,17.9646,5,5,25.9292,-0.414272,-19.6578,0.0959588,-0.176627,-0.119929,3.185,-0.035,-0.385,0.0488,-0.601094,-1.03175,-0.07168,0.25326,0.38164
-12.9643,0,0,17.9643,17.9643,5,5,25.9286,-0.415059,-19.6584,-0.37442,0.122574,-0.0873437,3.2725,-0.4375,-0.56,-0.423584,-0.302194,-0.999424,-0.07168,0.25326,0.38164
-12.9648,0,0,17.9648,17.9648,5,5,25.9296,-0.415685,-19.6588,-0.374409,0.122589,-0.0873512,4.1475,-0.315,-0.525,-0.423584,-0.302194,-0.999424,-0.07168,0.25326,0.38164
-12.9653,0,0,17.9653,17.9653,5,5,25.9306,-0.41631,-19.6592,0.0740054,-0.363948,-0.0872358,4.1475,-0.315,-0.525,0.026718,-0.788242,-0.999302,-0.07168,0.25326,0.38164
-12.9621,0,0,17.9621,17.9621,5,5,25.9242,-0.416709,-19.6597,0.0740124,-0.364048,-0.0871875,0.0525,-0.21,-0.6125,0.026718,-0.788242,-0.999302,-0.07168,0.25326,0.38164
-12.959,0,0,17.959,17.959,5,5,25.9179,-0.417108,-19.6602,-0.0830616,-0.0384352,-0.215866,0.0525,-0.21,-0.6125,-0.131028,-0.462868,-1.12704,-0.07168,0.25326,0.38164
-12.9589,0,0,17.9589,17.9589,5,5,25.9178,-0.416815,-19.6611,-0.0830667,-0.0384361,-0.215866,3.57,0.0525,-0.9975,-0.131028,-0.462868,-1.12704,-0.07168,0.25326,0.38164
-12.9414,0,0,17.9414,17.9414,5,5,25.8829,-0.211667,-19.753,0.141746,-0.0223672,-0.0689041,3.57,0.0525,-0.9975,0.098332,-0.446276,-0.98149,-0.07168,0.25326,0.38164
-12.9245,0,0,17.9245,17.9245,5,5,25.849,-0.0119384,-19.8441,0.13826,-0.022897,-0.0686397,3.4825,0.0875,-1.1025,0.098332,-0.446276,-0.98149,-0.07168,0.25326,0.38164
-12.7631,0,0,17.7631,17.7631,5,5,25.5261,0.168821,-19.9826,0.0845671,0.27502,-0.0807094,3.4825,0.0875,-1.1025,0.04758,-0.143594,-0.995886,-0.07168,0.25326,0.38164
-12.6046,0,0,17.6046,17.6046,5,5,25.2092,0.341514,-20.1171,0.0815531,0.270017,-0.0783518,2.8525,0.105,-0.9625,0.04758,-0.143594,-0.995886,-0.0672,0.24822,0.38514
-12.5232,0,0,17.5232,17.5232,5,5,25.0464,0.539465,-20.2374,0.116488,0.11966,-0.0535633,2.8525,0.105,-0.9625,0.086132,-0.291214,-0.972462,-0.0672,0.24822,0.38514
-12.4439,0,0,17.4439,17.4439,5,5,24.8879,0.732205,-20.3567,0.113124,0.117135,-0.0524291,3.3075,0.4025,-0.7525,0.086132,-0.291214,-0.972462,-0.0672,0.24822,0.38514
-12.4943,0,0,17.4943,17.4943,5,5,24.9885,0.64448,-20.2831,-0.0463136,-0.0508981,0.0823362,3.3075,0.4025,-0.7525,-0.075518,-0.460672,-0.838018,-0.0672,0.24822,0.38514
-12.5443,0,0,17.5443,17.5443,5,5,25.0886,0.558028,-20.2101,-0.0448048,-0.0493086,0.0816112,4.235,-0.21,-0.245,-0.075518,-0.460672,-0.838018,-0.0672,0.24822,0.38514
-12.5109,0,0,17.5109,17.5109,5,5,25.0218,0.338442,-20.1026,-0.15772,0.0787356,-0.0473325,4.235,-0.21,-0.245,-0.19276,-0.331718,-0.966484,-0.0672,0.24822,0.38514
-12.4775,0,0,17.4775,17.4775,5,5,24.9551,0.122982,-19.9954,-0.15396,0.077686,-0.0468266,3.99,-0.8225,0.035,-0.19276,-0.331718,-0.966484,-0.0672,0.24822,0.38514
-12.5495,0,0,17.5495,17.5495,5,5,25.0989,0.170476,-19.979,0.0476066,-0.117519,0.0780085,3.99,-0.8225,0.035,0.010492,-0.528992,-0.841556,-0.0672,0.24822,0.38514
-12.6199,0,0,17.6199,17.6199,5,5,25.2397,0.218165,-19.9622,0.0467742,-0.115296,0.0769607,3.6925,-0.175,0.0175,0.010492,-0.528992,-0.841556,-0.0672,0.24822,0.38514
-12.6199,0,0,17.6199,17.6199,5,5,25.2399,0.217354,-19.9616,-0.163017,-0.0378646,0.1854,3.6925,-0.175,0.0175,-0.200202,-0.451644,-0.733952,-0.0672,0.24822,0.38514
-12.6192,0,0,17.6192,17.6192,5,5,25.2384,0.216902,-19.9606,-0.16301,-0.0378877,0.185411,2.7825,0.14,0.1925,-0.200202,-0.451644,-0.733952,-0.0672,0.24822,0.38514
-12.6411,0,0,17.6411,17.6411,5,5,25.2823,0.466507,-20.064,0.163318,-0.0340318,0.0879318,2.7825,0.14,0.1925,0.131882,-0.448472,-0.830332,-0.0672,0.24822,0.38514
-12.663,0,0,17.663,17.663,5,5,25.326,0.709233,-20.1679,0.159082,-0.0333607,0.0875664,2.7125,0,-0.0525,0.131882,-0.448472,-0.830332,-0.06468,0.2464,0.37492
-12.6621,0,0,17.6621,17.6621,5,5,25.3243,0.70911,-20.167,-0.111221,0.319315,0.0561041,2.66,0.28,0.035,-0.139568,-0.096136,-0.861564,-0.06468,0.2464,0.37492
-12.6617,0,0,17.6617,17.6617,5,5,25.3233,0.708607,-20.1664,-0.111213,0.3193,0.0561114,3.0625,0,-0.035,-0.139568,-0.096136,-0.861564,-0.06468,0.2464,0.37492
-12.6612,0,0,17.6612,17.6612,5,5,25.3224,0.708104,-20.1659,-0.0703847,0.135728,0.19505,3.0625,0,-0.035,-0.098576,-0.279502,-0.723704,-0.06468,0.2464,0.37492
-12.6615,0,0,17.6615,17.6615,5,5,25.3229,0.707951,-20.1658,-0.070382,0.135737,0.195046,3.92,0.0525,-0.4025,-0.098576,-0.279502,-0.723704,-0.06468,0.2464,0.37492
-12.7423,0,0,17.7423,17.7423,5,5,25.4846,0.707765,-20.1258,0.0193991,-0.1641,0.0292082,3.92,0.0525,-0.4025,-0.008418,-0.581574,-0.887062,-0.06468,0.2464,0.37492
-12.822,0,0,17.822,17.822,5,5,25.6439,0.707696,-20.0868,0.0194003,-0.161592,0.028008,4.34,-0.2625,-0.525,-0.008418,-0.581574,-0.887062,-0.06468,0.2464,0.37492
-12.7012,0,0,17.7012,17.7012,5,5,25.4025,0.872263,-20.211,0.0851678,0.197305,-0.0832016,4.34,-0.2625,-0.525,0.060512,-0.219234,-0.99918,-0.06468,0.2464,0.37492
-12.5824,0,0,17.5824,17.5824,5,5,25.1649,1.03284,-20.3356,0.0823656,0.193536,-0.0814729,3.92,0.07,-0.875,0.060512,-0.219234,-0.99918,-0.06468,0.2464,0.37492
-12.637,0,0,17.637,17.637,5,5,25.2741,1.10914,-20.3483,0.0560081,-0.05047,0.130763,3.92,0.07,-0.875,0.03538,-0.464698,-0.787754,-0.06468,0.2464,0.37492
-12.6905,0,0,17.6905,17.6905,5,5,25.381,1.18409,-20.3612,0.0547001,-0.0487944,0.129941,3.675,0.105,-1.225,0.03538,-0.464698,-0.787754,-0.06468,0.2464,0.37492
-12.6906,0,0,17.6906,17.6906,5,5,25.3811,1.18463,-20.3624,-0.0325359,-0.0835989,-0.135752,3.675,0.105,-1.225,-0.052216,-0.499468,-1.0514,-0.06468,0.2464,0.37492
-12.6901,0,0,17.6901,17.6901,5,5,25.3803,1.1856,-20.3634,-0.0325529,-0.0836122,-0.135746,3.15,0.3675,-1.2775,-0.052216,-0.499468,-1.0514,-0.06454,0.24934,0.37982
-12.8282,0,0,17.8282,17.8282,5,5,25.6565,0.859126,-20.1435,-0.200823,-0.228824,0.0780437,3.15,0.3675,-1.2775,-0.22692,-0.648918,-0.837286,-0.06454,0.24934,0.37982
-12.9639,0,0,17.9639,17.9639,5,5,25.9278,0.540656,-19.9278,-0.195265,-0.224531,0.0760445,4.0775,-0.105,-0.8575,-0.22692,-0.648918,-0.837286,-0.06454,0.24934,0.37982
-12.9249,0,0,17.9249,17.9249,5,5,25.8499,1.00196,-20.1684,0.314578,0.0212605,-0.0050969,4.0775,-0.105,-0.8575,0.293166,-0.402112,-0.918294,-0.06454,0.24934,0.37982
-12.8872,0,0,17.8872,17.8872,5,5,25.7744,1.45076,-20.4064,0.306746,0.0200027,-0.00467477,4.2525,-0.21,-0.5775,0.293166,-0.402112,-0.918294,-0.06454,0.24934,0.37982
-12.8878,0,0,17.8878,17.8878,5,5,25.7756,1.45033,-20.4068,-0.169956,0.297737,0.0228572,4.2525,-0.21,-0.5775,-0.185562,-0.124684,-0.890966,-0.06454,0.24934,0.37982
-12.8882,0,0,17.8882,17.8882,5,5,25.7765,1.45019,-20.4063,-0.169953,0.297751,0.0228505,4.095,0.1925,-0.1225,-0.185562,-0.124684,-0.890966,-0.06454,0.24934,0.37982
-12.8887,0,0,17.8887,17.8887,5,5,25.7774,1.45004,-20.4057,0.145912,-0.189521,-0.184693,4.095,0.1925,-0.1225,0.131638,-0.611464,-1.0969,-0.06454,0.24934,0.37982
-12.8885,0,0,17.8885,17.8885,5,5,25.7771,1.4502,-20.405,0.145909,-0.189525,-0.184691,3.43,0.385,-0.14,0.131638,-0.611464,-1.0969,-0.06454,0.24934,0.37982
-12.8884,0,0,17.8884,17.8884,5,5,25.7768,1.45037,-20.4043,-0.216243,-0.0667924,-0.217885,3.43,0.385,-0.14,-0.232044,-0.488854,-1.12984,-0.06454,0.24934,0.37982
-12.888,0,0,17.888,17.888,5,5,25.776,1.45041,-20.4033,-0.216243,-0.0668053,-0.217879,3.1325,0.4025,0.0525,-0.232044,-0.488854,-1.12984,-0.06454,0.24934,0.37982
-12.8876,0,0,17.8876,17.8876,5,5,25.7752,1.45046,-20.4023,-0.138858,-0.230712,0.0274095,3.1325,0.4025,0.0525,-0.15433,-0.652578,-0.886452,-0.06454,0.24934,0.37982
-12.8867,0,0,17.8867,17.8867,5,5,25.7733,1.45046,-20.4014,-0.138858,-0.230741,0.0274235,2.555,0.3675,0.035,-0.15433,-0.652578,-0.886452,-0.06552,0.24738,0.38136
-12.8857,0,0,17.8857,17.8857,5,5,25.7715,1.45047,-20.4004,0.224627,-0.188514,0.0216589,2.555,0.3675,0.035,0.210694,-0.610366,-0.892186,-0.06552,0.24738,0.38136
-12.8858,0,0,17.8858,17.8858,5,5,25.7715,1.44995,-20.4004,0.224636,-0.188513,0.0216586,3.64,-0.14,-0.315,0.210694,-0.610366,-0.892186,-0.06552,0.24738,0.38136
-12.6954,0,0,17.6954,17.6954,5,5,25.3908,1.42925,-20.4686,-0.0580642,0.35971,-0.0537828,3.64,-0.14,-0.315,-0.073566,-0.05673,-0.9699,-0.06552,0.24738,0.38136
-12.5084,0,0,17.5084,17.5084,5,5,25.0168,1.40873,-20.5365,-0.0577062,0.35381,-0.0509962,3.8325,0.21,-0.49,-0.073566,-0.05673,-0.9699,-0.06552,0.24738,0.38136
-12.5812,0,0,17.5812,17.5812,5,5,25.1624,1.40512,-20.503,0.0148837,-0.129465,0.0518193,3.8325,0.21,-0.49,-0.000732,-0.541802,-0.86681,-0.06552,0.24738,0.38136
-12.6524,0,0,17.6524,17.6524,5,5,25.3048,1.40153,-20.4708,0.0149465,-0.127216,0.0507614,3.57,-0.315,-0.84,-0.000732,-0.541802,-0.86681,-0.06552,0.24738,0.38136
-12.5123,0,0,17.5123,17.5123,5,5,25.0246,1.5288,-20.5945,0.0455269,0.257675,0.0160272,3.57,-0.315,-0.84,0.032208,-0.152866,-0.903288,-0.06552,0.24738,0.38136
-12.3742,0,0,17.3742,17.3742,5,5,24.7485,1.65213,-20.719,0.0433753,0.253279,0.0180004,2.9575,-0.5425,-1.2425,0.032208,-0.152866,-0.903288,-0.06552,0.24738,0.38136
-12.3736,0,0,17.3736,17.3736,5,5,24.7473,1.65165,-20.7207,-0.124753,-0.095045,0.240423,2.9575,-0.5425,-1.2425,-0.13664,-0.50081,-0.68259,-0.06552,0.24738,0.38136
-12.3728,0,0,17.3728,17.3728,5,5,24.7455,1.65247,-20.7218,-0.124767,-0.0950729,0.240436,2.6425,0.2975,-1.225,-0.13664,-0.50081,-0.68259,-0.06552,0.24738,0.38136
-12.3719,0,0,17.3719,17.3719,5,5,24.7438,1.65329,-20.7228,-0.0686547,-0.141997,-0.141799,2.6425,0.2975,-1.225,-0.080276,-0.547658,-1.06189,-0.06552,0.24738,0.38136
-12.3723,0,0,17.3723,17.3723,5,5,24.7446,1.65408,-20.7239,-0.0686685,-0.141986,-0.141805,4.0425,0.28,-1.225,-0.080276,-0.547658,-1.06189,-0.06034,0.245,0.37408
-12.244,0,0,17.244,17.244,5,5,24.4879,1.7525,-20.8372,0.0327558,0.230806,-0.0292099,4.1475,-0.14,-1.4175,0.023302,-0.171166,-0.951966,-0.06034,0.245,0.37408
-12.1177,0,0,17.1177,17.1177,5,5,24.2355,1.8408,-20.9529,0.0312154,0.226774,-0.027437,3.8325,-4.4625,-1.05,0.023302,-0.171166,-0.951966,-0.06034,0.245,0.37408
-12.1567,0,0,17.1567,17.1567,5,5,24.3135,2.00212,-21.0338,0.133001,-0.104575,0.00671184,3.8325,-4.4625,-1.05,0.128344,-0.503372,-0.91744,-0.06034,0.245,0.37408
-12.1955,0,0,17.1955,17.1955,5,5,24.391,2.16628,-21.109,0.130137,-0.103386,0.00605919,4.025,0.21,-0.315,0.128344,-0.503372,-0.91744,-0.06034,0.245,0.37408
-12.1959,0,0,17.1959,17.1959,5,5,24.3918,2.16631,-21.1087,0.18189,-0.226722,-0.124149,4.025,0.21,-0.315,0.180316,-0.626592,-1.04664,-0.06034,0.245,0.37408
-12.196,0,0,17.196,17.196,5,5,24.3921,2.16476,-21.1085,0.181917,-0.226717,-0.12415,3.745,-0.6475,0.035,0.180316,-0.626592,-1.04664,-0.06034,0.245,0.37408
-12.2041,0,0,17.2041,17.2041,5,5,24.4083,2.08458,-21.0741,-0.0505446,0.0321044,0.0835635,3.745,-0.6475,0.035,-0.054534,-0.368318,-0.840458,-0.06034,0.245,0.37408
-12.2114,0,0,17.2114,17.2114,5,5,24.4229,2.00709,-21.0394,-0.0491932,0.0323562,0.0835022,3.1325,-0.1575,0.245,-0.054534,-0.368318,-0.840458,-0.06034,0.245,0.37408
-12.211,0,0,17.211,17.211,5,5,24.4221,2.00616,-21.0385,0.0477688,-0.348448,0.0840004,3.1325,-0.1575,0.245,0.042822,-0.748714,-0.83997,-0.06034,0.245,0.37408
-12.2106,0,0,17.2106,17.2106,5,5,24.4212,2.00643,-21.037,0.047764,-0.348461,0.0840063,3.0975,0.63,0.2625,0.042822,-0.748714,-0.83997,-0.06034,0.245,0.37408
-12.303,0,0,17.303,17.303,5,5,24.6061,1.88602,-20.9394,-0.0598373,-0.129455,0.0968724,2.9225,0.7175,0.2625,-0.067344,-0.532896,-0.82594,-0.06034,0.245,0.37408
-12.3945,0,0,17.3945,17.3945,5,5,24.7889,1.76783,-20.8444,-0.0577755,-0.12653,0.0955994,3.85,0.2275,0.14,-0.067344,-0.532896,-0.82594,-0.06608,0.24892,0.38108
-12.3949,0,0,17.3949,17.3949,5,5,24.7898,1.76785,-20.8433,0.126761,0.163535,0.0698969,4.06,0.42,0.1575,0.117974,-0.243146,-0.851438,-0.06608,0.24892,0.38108
-12.3952,0,0,17.3952,17.3952,5,5,24.7904,1.7675,-20.8424,0.126767,0.163544,0.069893,3.9025,0.1575,0.0875,0.117974,-0.243146,-0.851438,-0.06608,0.24892,0.38108
-12.3955,0,0,17.3955,17.3955,5,5,24.7909,1.76716,-20.8415,0.156537,-0.134192,-0.0251501,3.9025,0.1575,0.0875,0.147864,-0.540582,-0.945744,-0.06608,0.24892,0.38108
-12.3959,0,0,17.3959,17.3959,5,5,24.7919,1.76688,-20.8414,0.156542,-0.134177,-0.0251569,4.13,0,-0.3325,0.147864,-0.540582,-0.945744,-0.06608,0.24892,0.38108
-12.3682,0,0,17.3682,17.3682,5,5,24.7364,1.64223,-20.7954,-0.0960391,0.0391231,-0.0889946,4.13,0,-0.3325,-0.10797,-0.36661,-1.00955,-0.06608,0.24892,0.38108
-12.3407,0,0,17.3407,17.3407,5,5,24.6814,1.5203,-20.7509,-0.0939118,0.0382761,-0.0885402,4.0775,-0.4375,-0.9625,-0.10797,-0.36661,-1.00955,-0.06608,0.24892,0.38108
-12.2708,0,0,17.2708,17.2708,5,5,24.5417,1.8184,-20.9372,0.170707,0.122708,0.0508997,4.0775,-0.4375,-0.9625,0.162992,-0.27999,-0.872056,-0.06608,0.24892,0.38108
-12.2018,0,0,17.2018,17.2018,5,5,24.4035,2.10901,-21.1224,0.165638,0.120442,0.0517399,3.2025,-0.1575,-1.0675,0.162992,-0.27999,-0.872056,-0.06608,0.24892,0.38108
-12.2014,0,0,17.2014,17.2014,5,5,24.4028,2.109,-21.1236,-0.103817,-0.186474,-0.0613672,3.2025,-0.1575,-1.0675,-0.107604,-0.586576,-0.984296,-0.06608,0.24892,0.38108
-12.2047,0,0,17.2047,17.2047,5,5,24.4094,2.57455,-21.3668,0.342178,-0.0597392,0.0322155,3.185,0.21,-1.05,0.348432,-0.45994,-0.891088,-0.06608,0.24892,0.38108
-12.2089,0,0,17.2089,17.2089,5,5,24.4178,3.02957,-21.6046,0.334246,-0.059766,0.0318013,3.92,0.3675,-1.3125,0.348432,-0.45994,-0.891088,-0.06692,0.24682,0.37338
-12.2096,0,0,17.2096,17.2096,5,5,24.4192,3.03022,-21.6061,0.0234742,-0.275419,-0.0371836,4.445,0.1225,-1.3825,0.036356,-0.675392,-0.95953,-0.06692,0.24682,0.37338
-12.2105,0,0,17.2105,17.2105,5,5,24.4211,3.02998,-21.6071,0.0234785,-0.27539,-0.0371969,4.69,-0.2625,-0.9625,0.036356,-0.675392,-0.95953,-0.06692,0.24682,0.37338
-12.2115,0,0,17.2115,17.2115,5,5,24.423,3.02973,-21.6082,-0.137121,-0.0351363,-0.185117,4.69,-0.2625,-0.9625,-0.124928,-0.435418,-1.1063,-0.06692,0.24682,0.37338
-12.2126,0,0,17.2126,17.2126,5,5,24.4253,3.0299,-21.6081,-0.137124,-0.0351001,-0.185134,4.8825,0.2275,-0.4725,-0.124928,-0.435418,-1.1063,-0.06692,0.24682,0.37338
-12.2138,0,0,17.2138,17.2138,5,5,24.4275,3.03007,-21.6081,-0.0744406,0.129319,0.107098,4.8825,0.2275,-0.4725,-0.061976,-0.271206,-0.816302,-0.06692,0.24682,0.37338
-12.214,0,0,17.214,17.214,5,5,24.428,3.02905,-21.6077,-0.0744228,0.129326,0.107096,3.85,-0.3325,-0.0175,-0.061976,-0.271206,-0.816302,-0.06692,0.24682,0.37338
-12.2142,0,0,17.2142,17.2142,5,5,24.4285,3.02802,-21.6073,0.161642,-0.255854,-0.0729035,3.85,-0.3325,-0.0175,0.17507,-0.655994,-0.99491,-0.06692,0.24682,0.37338
-12.2143,0,0,17.2143,17.2143,5,5,24.4286,3.02724,-21.6058,0.161655,-0.255852,-0.0729036,3.6225,0.07,0.525,0.17507,-0.655994,-0.99491,-0.06692,0.24682,0.37338
-12.2143,0,0,17.2143,17.2143,5,5,24.4287,3.02646,-21.6043,0.068368,-0.0823074,0.167706,3.6225,0.07,0.525,0.081374,-0.482632,-0.756156,-0.06692,0.24682,0.37338
-12.2142,0,0,17.2142,17.2142,5,5,24.4284,3.02608,-21.6031,0.0683746,-0.0823112,0.167709,3.43,0.21,0.2625,0.081374,-0.482632,-0.756156,-0.06692,0.24682,0.37338
-12.2141,0,0,17.2141,17.2141,5,5,24.4282,3.0257,-21.6019,-0.273601,0.130918,-0.219946,3.43,0.21,0.2625,-0.262056,-0.26962,-1.14082,-0.06692,0.24682,0.37338
-12.2136,0,0,17.2136,17.2136,5,5,24.4272,3.02706,-21.6002,-0.273625,0.130902,-0.21994,3.01,1.26,0.1225,-0.262056,-0.26962,-1.14082,-0.06412,0.24752,0.38122
-12.2096,0,0,17.2096,17.2096,5,5,24.4192,2.6305,-21.4165,-0.263675,0.0819427,0.050301,4.6725,0,0.07,-0.259006,-0.318542,-0.873032,-0.06412,0.24752,0.38122
-12.2106,0,0,17.2106,17.2106,5,5,24.4213,2.62982,-21.416,0.220944,0.0923573,0.235693,4.7775,-0.105,0,0.227652,-0.308172,-0.689056,-0.06412,0.24752,0.38122
-12.2115,0,0,17.2115,17.2115,5,5,24.4231,2.63031,-21.4154,0.220935,0.0923858,0.235679,4.6025,0.525,-0.28,0.227652,-0.308172,-0.689056,-0.06412,0.24752,0.38122
-12.1416,0,0,17.1416,17.1416,5,5,24.2833,2.60227,-21.4461,-0.0379481,0.115699,-0.0925514,4.6025,0.525,-0.28,-0.032818,-0.282674,-1.01577,-0.06412,0.24752,0.38122
-12.069,0,0,17.069,17.069,5,5,24.138,2.57416,-21.4773,-0.0374579,0.113398,-0.0914925,0.1575,0.14,-0.6825,-0.032818,-0.282674,-1.01577,-0.06412,0.24752,0.38122
-12.0481,0,0,17.0481,17.0481,5,5,24.0961,2.46773,-21.4442,-0.0804304,0.0214141,-0.0724314,0.1575,0.14,-0.6825,-0.077836,-0.37393,-0.997228,-0.06412,0.24752,0.38122
-12.0304,0,0,17.0304,17.0304,5,5,24.0608,2.363,-21.4121,-0.0786042,0.0208827,-0.0721096,3.5875,-0.5075,-0.9625,-0.077836,-0.37393,-0.997228,-0.06412,0.24752,0.38122
-12.0303,0,0,17.0303,17.0303,5,5,24.0607,2.36237,-21.4133,-0.401502,-0.164385,0.019611,3.5875,-0.5075,-0.9625,-0.402112,-0.559004,-0.906216,-0.06412,0.24752,0.38122
-12.0293,0,0,17.0293,17.0293,5,5,24.0586,2.36198,-21.4149,-0.401495,-0.164418,0.0196261,2.4675,-0.4725,-1.225,-0.402112,-0.559004,-0.906216,-0.06412,0.24752,0.38122
-12.0283,0,0,17.0283,17.0283,5,5,24.0565,2.36158,-21.4165,-0.0302281,-0.0601548,-0.165396,2.4675,-0.4725,-1.225,-0.02928,-0.454816,-1.08983,-0.06412,0.24752,0.38122
-12.0273,0,0,17.0273,17.0273,5,5,24.0545,2.36193,-21.4182,-0.0302342,-0.0601868,-0.165382,2.52,-0.0875,-1.435,-0.02928,-0.454816,-1.08983,-0.06426,0.2436,0.3808
-12.0815,0,0,17.0815,17.0815,5,5,24.1631,2.0181,-21.2219,-0.230156,-0.0627616,0.0210584,2.52,-0.0875,-1.435,-0.23607,-0.459208,-0.904264,-0.06426,0.2436,0.3808
-12.1357,0,0,17.1357,17.1357,5,5,24.2713,1.68278,-21.028,-0.224306,-0.0609615,0.020456,4.27,-0.14,-1.4,-0.23607,-0.459208,-0.904264,-0.06426,0.2436,0.3808
-12.0891,0,0,17.0891,17.0891,5,5,24.1782,1.8764,-21.1482,0.132156,0.0433977,-0.0768401,4.27,-0.14,-1.4,0.125294,-0.353434,-1.00138,-0.06426,0.2436,0.3808
-12.0443,0,0,17.0443,17.0443,5,5,24.0887,2.06418,-21.2666,0.128881,0.0419261,-0.0763042,5.0575,-0.2625,-0.735,0.125294,-0.353434,-1.00138,-0.06426,0.2436,0.3808
-12.0456,0,0,17.0456,17.0456,5,5,24.0912,2.06377,-21.2673,-0.0156798,0.113655,0.0916254,5.0575,-0.2625,-0.735,-0.019886,-0.28182,-0.834724,-0.06426,0.2436,0.3808
-12.0467,0,0,17.0467,17.0467,5,5,24.0934,2.0638,-21.2669,-0.0156804,0.113689,0.0916101,4.795,0.2275,-0.28,-0.019886,-0.28182,-0.834724,-0.06426,0.2436,0.3808
-12.0477,0,0,17.0477,17.0477,5,5,24.0955,2.06384,-21.2666,0.140064,-0.319826,-0.113114,4.795,0.2275,-0.28,0.136518,-0.71492,-1.03785,-0.06426,0.2436,0.3808
-12.0479,0,0,17.0479,17.0479,5,5,24.0958,2.06377,-21.2655,0.140065,-0.319822,-0.113116,3.7275,0.3325,0.105,0.136518,-0.71492,-1.03785,-0.06426,0.2436,0.3808
-12.048,0,0,17.048,17.048,5,5,24.096,2.0637,-21.2645,-0.0674315,0.043631,0.140894,3.7275,0.3325,0.105,-0.071858,-0.351848,-0.785802,-0.06426,0.2436,0.3808
-12.047,0,0,17.047,17.047,5,5,24.094,2.06303,-21.263,-0.0674199,0.0435993,0.140908,2.45,0.14,0.525,-0.071858,-0.351848,-0.785802,-0.06426,0.2436,0.3808
-12.0656,0,0,17.0656,17.0656,5,5,24.1312,2.24396,-21.347,0.121251,-0.0246151,0.0823806,2.45,0.14,0.525,0.12078,-0.420534,-0.843508,-0.06426,0.2436,0.3808
-12.0844,0,0,17.0844,17.0844,5,5,24.1689,2.42162,-21.4308,0.118152,-0.0240664,0.0819963,2.94,0.6125,0.2975,0.12078,-0.420534,-0.843508,-0.06748,0.24612,0.38108
-12.0838,0,0,17.0838,17.0838,5,5,24.1676,2.42187,-21.4295,-0.16953,-0.241961,-0.264832,2.8525,0.56,0.1575,-0.168116,-0.638182,-1.18767,-0.06748,0.24612,0.38108
-12.0841,0,0,17.0841,17.0841,5,5,24.1682,2.42169,-21.4288,-0.169527,-0.241952,-0.264836,3.9025,0.1925,-0.0525,-0.168116,-0.638182,-1.18767,-0.06748,0.24612,0.38108
-12.0328,0,0,17.0328,17.0328,5,5,24.0655,2.33448,-21.4142,-0.0739762,0.0952193,-0.0584772,3.9025,0.1925,-0.0525,-0.073688,-0.299754,-0.983686,-0.06748,0.24612,0.38108
-11.983,0,0,16.983,16.983,5,5,23.966,2.24933,-21.4001,-0.0724914,0.0936586,-0.0577168,4.7775,0.1925,-0.4025,-0.073688,-0.299754,-0.983686,-0.06748,0.24612,0.38108
-11.9841,0,0,16.9841,16.9841,5,5,23.9681,2.2494,-21.4,-0.0833048,0.113843,0.354392,4.7775,0.1925,-0.4025,-0.084546,-0.279624,-0.574742,-0.06748,0.24612,0.38108
-11.9852,0,0,16.9852,16.9852,5,5,23.9703,2.24951,-21.4007,-0.0833067,0.113878,0.354376,4.865,0.0175,-0.8575,-0.084546,-0.279624,-0.574742,-0.06748,0.24612,0.38108
-11.9181,0,0,16.9181,16.9181,5,5,23.8361,2.53298,-21.5831,0.157273,0.127409,0.0753046,4.865,0.0175,-0.8575,0.162016,-0.263886,-0.852414,-0.06748,0.24612,0.38108
-11.9181,0,0,16.9181,16.9181,5,5,23.8363,2.53339,-21.5842,-0.145234,-0.347661,-0.120431,3.71,0.0875,-1.1375,-0.141764,-0.738466,-1.04664,-0.06748,0.24612,0.38108
-11.9174,0,0,16.9174,16.9174,5,5,23.8348,2.53287,-21.5857,-0.145225,-0.347685,-0.12042,2.8175,-0.5075,-1.1375,-0.141764,-0.738466,-1.04664,-0.06748,0.24612,0.38108
-11.9167,0,0,16.9167,16.9167,5,5,23.8333,2.53235,-21.5872,-0.135132,-0.0511843,-0.219752,2.8175,-0.5075,-1.1375,-0.131638,-0.44225,-1.14521,-0.06748,0.24612,0.38108
-11.9158,0,0,16.9158,16.9158,5,5,23.8316,2.53218,-21.589,-0.135129,-0.0512124,-0.219739,2.66,-0.4025,-1.4,-0.131638,-0.44225,-1.14521,-0.06748,0.24612,0.38108
-11.9665,0,0,16.9665,16.9665,5,5,23.9329,2.20033,-21.4135,-0.21827,-0.0487664,0.0338985,2.66,-0.4025,-1.4,-0.220942,-0.441518,-0.89304,-0.06902,0.25116,0.3773
-11.9664,0,0,16.9664,16.9664,5,5,23.9329,2.20126,-21.4151,0.0458238,-0.227439,-0.0654441,3.605,0.2275,-1.5575,0.044286,-0.620004,-0.991616,-0.06902,0.25116,0.3773
-11.9668,0,0,16.9668,16.9668,5,5,23.9335,2.19466,-21.4194,0.0459388,-0.227426,-0.0654448,4.0775,-4.4275,-1.19,0.044286,-0.620004,-0.991616,-0.06902,0.25116,0.3773
-11.9671,0,0,16.9671,16.9671,5,5,23.9342,2.18807,-21.4237,-0.0717874,0.39641,0.0716419,4.0775,-4.4275,-1.19,-0.074054,0.003172,-0.855586,-0.06902,0.25116,0.3773
-11.968,0,0,16.968,16.968,5,5,23.9361,2.18806,-21.4234,-0.0717873,0.396439,0.0716288,4.6375,0.1925,-0.2975,-0.074054,0.003172,-0.855586,-0.06902,0.25116,0.3773
-11.969,0,0,16.969,16.969,5,5,23.9379,2.18806,-21.4231,0.146401,-0.451579,-0.0182597,4.6375,0.1925,-0.2975,0.145058,-0.843996,-0.944768,-0.06902,0.25116,0.3773
-11.9695,0,0,16.9695,16.9695,5,5,23.9391,2.18762,-21.4224,-0.189985,0.108757,0.137262,4.235,0.0525,0,-0.19276,-0.28426,-0.790438,-0.06902,0.25116,0.3773
-11.9694,0,0,16.9694,16.9694,5,5,23.9388,2.18702,-21.421,-0.189975,0.108752,0.137265,3.4125,0.14,0.4375,-0.19276,-0.28426,-0.790438,-0.06902,0.25116,0.3773
-12.0215,0,0,17.0215,17.0215,5,5,24.0431,2.27088,-21.4497,0.0689066,-0.0833025,0.0759826,3.4125,0.14,0.4375,0.068686,-0.477752,-0.850462,-0.06902,0.25116,0.3773
-12.0729,0,0,17.0729,17.0729,5,5,24.1458,2.35274,-21.4773,0.0674791,-0.0816904,0.0751985,3.465,0.175,0.8225,0.068686,-0.477752,-0.850462,-0.06902,0.25116,0.3773
-12.0728,0,0,17.0728,17.0728,5,5,24.1457,2.35192,-21.4752,-0.122146,0.082812,-0.231679,3.465,0.175,0.8225,-0.121756,-0.313418,-1.15497,-0.06902,0.25116,0.3773
-12.0732,0,0,17.0732,17.0732,5,5,24.1463,2.35186,-21.4736,-0.122145,0.0828225,-0.231684,3.9375,0.4725,0.4025,-0.121756,-0.313418,-1.15497,-0.06972,0.24836,0.3815
-12.0736,0,0,17.0736,17.0736,5,5,24.1472,2.35171,-21.4725,0.1201,-0.142977,-0.0621437,4.0425,0.315,0.175,0.121512,-0.538996,-0.986736,-0.06972,0.24836,0.3815
-12.0741,0,0,17.0741,17.0741,5,5,24.1482,2.3447,-21.4748,0.120223,-0.142959,-0.0621463,4.2175,-4.1825,-0.035,0.121512,-0.538996,-0.986736,-0.06972,0.24836,0.3815
-12.0746,0,0,17.0746,17.0746,5,5,24.1491,2.3377,-21.4772,-0.00502849,-0.0409648,-0.239686,4.2175,-4.1825,-0.035,-0.004392,-0.437126,-1.1629,-0.06972,0.24836,0.3815
-12.0753,0,0,17.0753,17.0753,5,5,24.1505,2.33781,-21.4773,-0.0050304,-0.040943,-0.239696,4.375,0.1575,-0.5425,-0.004392,-0.437126,-1.1629,-0.06972,0.24836,0.3815
-12.0759,0,0,17.0759,17.0759,5,5,24.1519,2.33791,-21.4774,0.00577991,-0.163659,-0.102004,4.375,0.1575,-0.5425,0.006466,-0.559736,-1.02626,-0.06972,0.24836,0.3815
-12.1162,0,0,17.1162,17.1162,5,5,24.2323,2.21772,-21.4038,-0.0712111,-0.0218996,0.0894201,4.13,0.4375,-0.6825,-0.072956,-0.419436,-0.835822,-0.06972,0.24836,0.3815
-12.1548,0,0,17.1548,17.1548,5,5,24.3097,2.10108,-21.3318,-0.0691768,-0.0206381,0.0889355,3.5175,0.4375,-1.0675,-0.072956,-0.419436,-0.835822,-0.06972,0.24836,0.3815
-12.1503,0,0,17.1503,17.1503,5,5,24.3006,2.43861,-21.5073,0.241529,-0.0323578,0.0123138,3.5175,0.4375,-1.0675,0.244976,-0.430904,-0.911706,-0.06972,0.24836,0.3815
-12.146,0,0,17.146,17.146,5,5,24.292,2.76645,-21.6819,0.235813,-0.0326023,0.0121391,3.22,-0.42,-1.4525,0.244976,-0.430904,-0.911706,-0.06972,0.24836,0.3815
-12.1456,0,0,17.1456,17.1456,5,5,24.2912,2.7663,-21.6838,-0.24296,0.299448,0.135093,3.22,-0.42,-1.4525,-0.235826,-0.099186,-0.789706,-0.06972,0.24836,0.3815
-12.1448,0,0,17.1448,17.1448,5,5,24.2897,2.76645,-21.6857,-0.242963,0.299424,0.135104,2.8175,-0.2625,-1.5225,-0.235826,-0.099186,-0.789706,-0.06846,0.24472,0.38164
-12.1148,0,0,17.1148,17.1148,5,5,24.2295,2.66368,-21.6545,-0.0823892,0.0334876,-0.110899,3.465,-0.0175,-1.645,-0.076372,-0.363926,-1.03432,-0.06846,0.24472,0.38164
-12.0849,0,0,17.0849,17.0849,5,5,24.1698,2.56353,-21.6229,-0.0806431,0.0325707,-0.1104,3.2725,0.245,-1.4525,-0.076372,-0.363926,-1.03432,-0.06846,0.24472,0.38164
-12.0846,0,0,17.0846,17.0846,5,5,24.1691,2.56442,-21.6244,-0.0963302,-0.0490207,-0.157116,3.2725,0.245,-1.4525,-0.09211,-0.445422,-1.08068,-0.06846,0.24472,0.38164
-12.0848,0,0,17.0848,17.0848,5,5,24.1696,2.56456,-21.6257,-0.0963326,-0.0490126,-0.15712,3.92,-0.105,-1.1725,-0.09211,-0.445422,-1.08068,-0.06846,0.24472,0.38164
-12.1424,0,0,17.1424,17.1424,5,5,24.2847,2.96685,-21.8042,0.278119,-0.0967834,0.159815,3.92,-0.105,-1.1725,0.29097,-0.494832,-0.765062,-0.06846,0.24472,0.38164
-12.1397,0,0,17.1397,17.1397,5,5,24.2794,2.68214,-21.6685,-0.204561,0.0286573,-0.0377474,3.6575,0.14,-0.7175,-0.198738,-0.369538,-0.96136,-0.06846,0.24472,0.38164
-12.1365,0,0,17.1365,17.1365,5,5,24.2729,2.40364,-21.5325,-0.199705,0.0286422,-0.0375041,3.465,0.105,0.035,-0.198738,-0.369538,-0.96136,-0.06846,0.24472,0.38164
-12.1363,0,0,17.1363,17.1363,5,5,24.2727,2.40326,-21.5317,0.00682708,0.0476907,0.144339,3.465,0.105,0.035,0.008662,-0.350506,-0.780922,-0.06846,0.24472,0.38164
-12.1361,0,0,17.1361,17.1361,5,5,24.2722,2.40218,-21.5305,0.00684596,0.0476824,0.144343,3.2725,-0.1575,0.455,0.008662,-0.350506,-0.780922,-0.06846,0.24472,0.38164
-12.1358,0,0,17.1358,17.1358,5,5,24.2716,2.4011,-21.5292,0.00224839,0.115821,0.0789391,3.2725,-0.1575,0.455,0.004026,-0.28243,-0.845826,-0.06846,0.24472,0.38164
-12.1351,0,0,17.1351,17.1351,5,5,24.2703,2.4003,-21.5268,0.00226228,0.1158,0.0789492,2.8,0.28,1.015,0.004026,-0.28243,-0.845826,-0.06846,0.24472,0.38164
-12.1345,0,0,17.1345,17.1345,5,5,24.269,2.3995,-21.5244,-0.0341695,0.212992,0.115106,2.8,0.28,1.015,-0.032574,-0.185318,-0.809958,-0.06608,0.24542,0.37408
-12.0672,0,0,17.0672,17.0672,5,5,24.1345,2.38019,-21.5507,-0.0310386,0.136361,0.000262896,3.465,0.35,0.56,-0.029768,-0.259738,-0.924882,-0.06608,0.24542,0.37408
-12.001,0,0,17.001,17.001,5,5,24.0019,2.36104,-21.5771,-0.0307046,0.134257,0.00121799,3.2375,0.2975,0.2975,-0.029768,-0.259738,-0.924882,-0.06608,0.24542,0.37408
-12.0811,0,0,17.0811,17.0811,5,5,24.1623,2.5976,-21.6635,0.170603,-0.117409,0.15987,3.2375,0.2975,0.2975,0.176534,-0.51362,-0.76616,-0.06608,0.24542,0.37408
-12.1611,0,0,17.1611,17.1611,5,5,24.3223,2.82854,-21.7491,0.166577,-0.114944,0.158551,4.2525,-0.0875,-0.35,0.176534,-0.51362,-0.76616,-0.06608,0.24542,0.37408
-12.1351,0,0,17.1351,17.1351,5,5,24.2702,2.60374,-21.6578,-0.168571,0.0616333,-0.0618448,4.2525,-0.0875,-0.35,-0.163968,-0.336476,-0.985394,-0.06608,0.24542,0.37408
-12.1352,0,0,17.1352,17.1352,5,5,24.2704,2.60403,-21.658,-0.0596032,0.150666,0.140773,3.6925,0.2275,-0.6475,-0.054534,-0.247538,-0.784338,-0.06608,0.24542,0.37408
-12.1348,0,0,17.1348,17.1348,5,5,24.2696,2.6048,-21.6587,-0.0596166,0.150654,0.140778,3.2025,0.3675,-1.015,-0.054534,-0.247538,-0.784338,-0.06608,0.24542,0.37408
-12.1344,0,0,17.1344,17.1344,5,5,24.2689,2.60557,-21.6594,-0.152931,0.0327894,0.23742,3.2025,0.3675,-1.015,-0.14823,-0.365268,-0.688446,-0.06608,0.24542,0.37408
-12.1339,0,0,17.1339,17.1339,5,5,24.2679,2.60569,-21.6606,-0.152933,0.0327732,0.237427,3.0625,-0.0875,-1.1025,-0.14823,-0.365268,-0.688446,-0.06608,0.24542,0.37408
-12.0909,0,0,17.0909,17.0909,5,5,24.1817,2.64908,-21.7114,0.0168763,0.0823158,0.00404115,3.0625,-0.0875,-1.1025,0.023058,-0.314394,-0.920612,-0.06608,0.24542,0.37408
-12.0482,0,0,17.0482,17.0482,5,5,24.0964,2.69133,-21.7682,0.0161397,0.0809451,0.00461774,2.66,-0.14,-1.365,0.023058,-0.314394,-0.920612,-0.06216,0.24794,0.3794
-12.0477,0,0,17.0477,17.0477,5,5,24.0954,2.69142,-21.7701,0.0584151,-0.0132314,-0.158896,3.0625,-0.28,-1.4875,0.065514,-0.408456,-1.08287,-0.06216,0.24794,0.3794
-12.0471,0,0,17.0471,17.0471,5,5,24.0943,2.69168,-21.7717,0.0584106,-0.0132491,-0.158889,3.0275,-0.14,-1.4175,0.065514,-0.408456,-1.08287,-0.06216,0.24794,0.3794
-12.0148,0,0,17.0148,17.0148,5,5,24.0296,2.91775,-21.9183,0.129791,0.0739411,0.0934388,3.0275,-0.14,-1.4175,0.141154,-0.32025,-0.832772,-0.06216,0.24794,0.3794
-11.9843,0,0,16.9843,16.9843,5,5,23.9686,3.13802,-22.0629,0.125952,0.0728862,0.0936862,4.06,0.07,-1.085,0.141154,-0.32025,-0.832772,-0.06216,0.24794,0.3794
-11.9134,0,0,16.9134,16.9134,5,5,23.8269,3.34594,-22.2232,0.139823,0.0865438,-0.0968088,4.06,0.315,-1.085,0.158722,-0.304268,-1.0226,-0.06216,0.24794,0.3794
-11.8433,0,0,16.8433,16.8433,5,5,23.6866,3.54702,-22.3817,0.136319,0.0842226,-0.0960177,3.2025,-0.0875,-0.245,0.158722,-0.304268,-1.0226,-0.06216,0.24794,0.3794
-11.7758,0,0,16.7758,16.7758,5,5,23.5516,3.62505,-22.4785,0.0454252,0.0856979,-0.124784,3.2025,-0.0875,-0.245,0.068808,-0.300608,-1.05201,-0.06216,0.24794,0.3794
-11.7093,0,0,16.7093,16.7093,5,5,23.4185,3.70102,-22.574,0.044102,0.0835376,-0.123938,2.7475,0.2625,0.0875,0.068808,-0.300608,-1.05201,-0.06216,0.24794,0.3794
-11.7085,0,0,16.7085,16.7085,5,5,23.417,3.70086,-22.5731,-0.0276933,-0.0162633,0.21541,2.7475,0.2625,0.0875,-0.003294,-0.400282,-0.715286,-0.06216,0.24794,0.3794
-11.7076,0,0,16.7076,16.7076,5,5,23.4152,3.69938,-22.5718,-0.0276675,-0.0162923,0.215425,2.52,-0.385,0.5425,-0.003294,-0.400282,-0.715286,-0.06216,0.24794,0.3794
-11.744,0,0,16.744,16.744,5,5,23.4879,3.69168,-22.572,0.00393141,-0.0499324,0.0558329,2.52,-0.385,0.5425,0.028304,-0.435052,-0.873154,-0.06216,0.24794,0.3794
-11.7804,0,0,16.7804,16.7804,5,5,23.5608,3.68467,-22.5777,0.00405352,-0.0487658,0.0553336,3.185,0.1925,0.56,0.028304,-0.435052,-0.873154,-0.07056,0.2562,0.37772
-11.7423,0,0,16.7423,16.7423,5,5,23.4847,3.73207,-22.6487,0.0247309,0.0538051,-0.0472173,3.8325,0.14,0.4375,0.049898,-0.331352,-0.97539,-0.07056,0.2562,0.37772
-11.7055,0,0,16.7055,16.7055,5,5,23.411,3.77856,-22.7194,0.0239212,0.052607,-0.0467555,4.3575,0.3675,0.1575,0.049898,-0.331352,-0.97539,-0.07056,0.2562,0.37772
-11.7062,0,0,16.7062,16.7062,5,5,23.4124,3.77852,-22.7182,-0.0758178,0.280152,0.0330283,4.3575,0.3675,0.1575,-0.050264,-0.104066,-0.896212,-0.07056,0.2562,0.37772
-11.7065,0,0,16.7065,16.7065,5,5,23.413,3.78131,-22.7245,0.0506002,-0.140689,-0.238572,4.1475,0.1575,-4.48,0.076738,-0.524478,-1.16571,-0.07056,0.2562,0.37772
-11.7067,0,0,16.7067,16.7067,5,5,23.4134,3.7815,-22.7251,0.0505969,-0.140683,-0.238575,3.85,0.0875,-0.8225,0.076738,-0.524478,-1.16571,-0.07056,0.2562,0.37772
-11.7847,0,0,16.7847,16.7847,5,5,23.5693,3.51928,-22.5834,-0.159258,-0.0805541,0.089497,3.85,0.0875,-0.8225,-0.138592,-0.467016,-0.83936,-0.07056,0.2562,0.37772
-11.8596,0,0,16.8596,16.8596,5,5,23.7193,3.26462,-22.4449,-0.154821,-0.0780555,0.0886902,2.765,0.2275,-1.435,-0.138592,-0.467016,-0.83936,-0.07056,0.2562,0.37772
