pid_x,pid_y,pid_z,front_left_speed,front_right_speed,back_left_speed,back_right_speed,orientation_x,orientation_y,orientation_z,acceleration_x,acceleration_y,acceleration_z,accel_rejected,mag_rejected,gyro_x,gyro_y,gyro_z,accel_x,accel_y,accel_z,mag_x,mag_y,mag_z
-0.276777,0,0,5.27678,5.27678,5,5,0.485573,-0.0559957,-0.247553,0.0345512,-0.421356,0.0815404,0,0,3.6225,-0.2275,-0.2275,-0.006588,-0.41724,-0.931714,-0.05348,0.25326,0.33278
-0.548629,0,0,5.54863,5.54863,5,5,0.962507,-0.107597,-0.493718,0.0354518,-0.413033,0.0814339,0,0,3.605,0.1925,-0.21,-0.006588,-0.41724,-0.931714,-0.05348,0.25326,0.33278
-0.82044,0,0,5.82044,5.82044,5,5,1.43937,-0.15308,-0.741514,0.0396473,-0.409353,0.0907247,0,0,3.64,0,-0.1925,-0.003172,-0.421876,-0.92232,-0.05348,0.25326,0.33278
-1.08406,0,0,6.08406,6.08406,5,5,1.90186,-0.195466,-0.987432,0.0396581,-0.397376,0.0853233,0,0,3.71,-0.245,-0.1925,-0.003904,-0.417972,-0.927444,-0.05348,0.25326,0.33278
-1.34277,0,0,6.34277,6.34277,5,5,2.35574,-0.234964,-1.23182,0.0403475,-0.38946,0.0850264,0,0,3.535,-0.455,-0.21,-0.003904,-0.417972,-0.927444,-0.05348,0.25326,0.33278
-1.59682,0,0,6.59682,6.59682,5,5,2.80144,-0.262366,-1.45721,0.0420406,-0.382544,0.0838137,0,0,3.5,-0.4725,-0.1575,-0.002684,-0.418826,-0.928298,-0.0504,0.24248,0.33012
-1.84485,0,0,6.84485,6.84485,5,5,3.23657,-0.291406,-1.67675,0.0385384,-0.374106,0.079477,0,0,3.5525,-0.1225,-0.175,-0.00671,-0.417972,-0.932202,-0.0504,0.24248,0.33012
-2.09196,0,0,7.09196,7.09196,5,5,3.67011,-0.313123,-1.89899,0.0432909,-0.370828,0.0836912,0,0,3.7625,-0.105,-0.21,-0.002318,-0.422242,-0.927566,-0.0504,0.24248,0.33012
-2.33434,0,0,7.33434,7.33434,5,5,4.09534,-0.332186,-2.1194,0.0436236,-0.363423,0.0831868,0,0,3.57,0.035,-0.14,-0.002318,-0.422242,-0.927566,-0.0504,0.24248,0.33012
-2.57009,0,0,7.57009,7.57009,5,5,4.50894,-0.34926,-2.33761,0.0430712,-0.352561,0.0821518,0,0,3.57,0.07,-0.175,-0.003172,-0.418582,-0.928054,-0.0504,0.24248,0.33012
-2.80489,0,0,7.80489,7.80489,5,5,4.92086,-0.366599,-2.55249,0.0422805,-0.348206,0.0895506,0,0,3.3775,-0.035,-0.175,-0.00427,-0.421388,-0.920124,-0.0504,0.24248,0.33012
-3.03551,0,0,8.03551,8.03551,5,5,5.32546,-0.381734,-2.76559,0.0425446,-0.341172,0.0889183,0,0,3.5525,-0.035,-0.14,-0.00427,-0.421388,-0.920124,-0.0504,0.24248,0.33012
-3.25999,0,0,8.25999,8.25999,5,5,5.71928,-0.401014,-2.98517,0.0408159,-0.331889,0.0860415,0,0,3.57,-0.1225,-0.1225,-0.006344,-0.418948,-0.92232,-0.04676,0.24794,0.33474
-3.477,0,0,8.477,8.477,5,5,6.10001,-0.416694,-3.20363,0.041454,-0.323325,0.0766261,0,0,3.675,-0.07,-0.07,-0.005978,-0.416996,-0.930982,-0.04676,0.24794,0.33474
-3.69285,0,0,8.69285,8.69285,5,5,6.47868,-0.431452,-3.41959,0.0412256,-0.3181,0.0845066,0,0,3.605,0,-0.1575,-0.006466,-0.418338,-0.922442,-0.04676,0.24794,0.33474
-3.90446,0,0,8.90446,8.90446,5,5,6.84994,-0.444018,-3.63413,0.0414449,-0.311664,0.083753,0,0,3.43,0.0525,-0.385,-0.006466,-0.418338,-0.922442,-0.04676,0.24794,0.33474
-4.11517,0,0,9.11517,9.11517,5,5,7.21959,-0.450435,-3.85028,0.0456874,-0.310757,0.082839,0,0,3.5875,-0.1225,-0.21,-0.002318,-0.423828,-0.922564,-0.04676,0.24794,0.33474
-4.32193,0,0,9.32193,9.32193,5,5,7.58233,-0.455044,-4.06456,0.0457679,-0.304479,0.0820229,0,0,3.5875,-0.1225,-0.21,-0.002318,-0.423828,-0.922564,-0.04676,0.24794,0.33474
-4.51827,0,0,9.51827,9.51827,5,5,7.92679,-0.461375,-4.27342,0.0418693,-0.292416,0.0697766,0,0,3.5,0.07,-0.1225,-0.006344,-0.417728,-0.93391,-0.04676,0.24794,0.33474
-4.71565,0,0,9.71565,9.71565,5,5,8.27306,-0.460887,-4.48475,0.0464773,-0.288754,0.0828184,0,0,3.4125,-0.0175,-0.1225,-0.001708,-0.420046,-0.920124,-0.04676,0.24794,0.33474
-4.90912,0,0,9.90912,9.90912,5,5,8.61249,-0.455956,-4.68516,0.0463912,-0.282894,0.0819493,0,0,3.43,-0.07,-0.1575,-0.001708,-0.420046,-0.920124,-0.05194,0.24416,0.33264
-5.09737,0,0,10.0974,10.0974,5,5,8.94276,-0.454555,-4.87987,0.0424792,-0.275854,0.0778732,0,0,3.465,0.0525,-0.245,-0.005612,-0.418704,-0.923296,-0.05194,0.24416,0.33264
-5.27935,0,0,10.2794,10.2794,5,5,9.26203,-0.455027,-5.07001,0.0395718,-0.268642,0.0705984,0,0,3.43,0.21,-0.2625,-0.00854,-0.416996,-0.92964,-0.05194,0.24416,0.33264
-5.45805,0,0,10.458,10.458,5,5,9.57552,-0.45427,-5.25822,0.0395586,-0.263245,0.0697031,0,0,3.64,0.1575,-0.175,-0.00854,-0.416996,-0.92964,-0.05194,0.24416,0.33264
-5.63691,0,0,10.6369,10.6369,5,5,9.88931,-0.445241,-5.44985,0.0448679,-0.261877,0.0740653,0,0,3.7275,0.2975,-0.315,-0.00305,-0.421022,-0.924394,-0.05194,0.24416,0.33264
-5.81109,0,0,10.8111,10.8111,5,5,10.1949,-0.436453,-5.63844,0.0436211,-0.254915,0.0722758,0,0,3.6925,0.245,-0.175,-0.004148,-0.419314,-0.925248,-0.05194,0.24416,0.33264
-5.98182,0,0,10.9818,10.9818,5,5,10.4944,-0.426685,-5.82502,0.0434506,-0.249773,0.0713384,0,0,3.605,0.2275,-0.0875,-0.004148,-0.419314,-0.925248,-0.05194,0.24416,0.33264
-6.14833,0,0,11.1483,11.1483,5,5,10.7865,-0.413366,-6.00932,0.0443116,-0.24293,0.0707675,0,0,3.7625,0.28,-0.1575,-0.00305,-0.417484,-0.924882,-0.05432,0.24444,0.33558
-6.31144,0,0,11.3114,11.3114,5,5,11.0727,-0.402538,-6.18981,0.0421788,-0.239125,0.0663794,0,0,3.85,0,-0.21,-0.005002,-0.418582,-0.928298,-0.05432,0.24444,0.33558
-6.47171,0,0,11.4717,11.4717,5,5,11.3539,-0.386138,-6.37177,0.0452942,-0.234677,0.0666565,0,0,3.7625,-0.035,-0.14,-0.001586,-0.418948,-0.927078,-0.05432,0.24444,0.33558
-6.62877,0,0,11.6288,11.6288,5,5,11.6294,-0.368727,-6.55197,0.0449903,-0.229964,0.0657004,0,0,3.675,0.1225,-0.245,-0.001586,-0.418948,-0.927078,-0.05432,0.24444,0.33558
-6.78576,0,0,11.7858,11.7858,5,5,11.9048,-0.353793,-6.72793,0.0429074,-0.225624,0.0743117,0,0,3.8325,0.0875,-0.175,-0.003416,-0.419314,-0.917562,-0.05432,0.24444,0.33558
-6.9391,0,0,11.9391,11.9391,5,5,12.1739,-0.339047,-6.90126,0.0420426,-0.222864,0.0679241,0,0,3.675,0.175,-0.175,-0.004026,-0.421144,-0.92293,-0.05432,0.24444,0.33558
-7.08936,0,0,12.0894,12.0894,5,5,12.4375,-0.32383,-7.0733,0.041777,-0.218369,0.0669451,0,0,3.5875,-0.0175,-0.4375,-0.004026,-0.421144,-0.92293,-0.05432,0.24444,0.33558
-7.22496,0,0,12.225,12.225,5,5,12.6754,-0.310846,-7.25814,0.0393636,-0.197584,0.0575602,0,0,3.5525,-0.0875,-0.2975,-0.006222,-0.40443,-0.931348,-0.04788,0.24962,0.33474
-7.38609,0,0,12.3861,12.3861,5,5,12.9581,-0.289448,-7.4525,0.057456,-0.248218,0.0467547,0,0,3.6925,-4.4625,-0.1925,0.012322,-0.459818,-0.940986,-0.04788,0.24962,0.33474
-7.56095,0,0,12.5609,12.5609,5,5,13.2648,-0.541482,-7.44303,-0.137625,-0.268902,0.0446485,0,0,3.5175,-0.175,-0.245,-0.188002,-0.485682,-0.94184,-0.04788,0.24962,0.33474
-7.73241,0,0,12.7324,12.7324,5,5,13.5656,-0.785626,-7.43544,-0.133364,-0.263807,0.0433825,0,0,3.6925,-0.14,-0.2625,-0.188002,-0.485682,-0.94184,-0.04788,0.24962,0.33474
-7.88873,0,0,12.8887,12.8887,5,5,13.8399,-0.648931,-7.69021,0.136621,-0.27576,-0.00825403,0,0,3.57,0.1225,-0.3325,0.085522,-0.502274,-0.991982,-0.04788,0.24962,0.33474
-7.88886,0,0,12.8889,12.8889,5,5,13.8401,-0.648562,-7.69075,0.136615,-0.275755,-0.00825497,1,0,3.7625,0.07,-0.6125,0.085522,-0.502274,-0.991982,-0.04788,0.24962,0.33474
-8.04515,0,0,13.0451,13.0451,5,5,14.1143,-0.627797,-7.86525,0.0474465,-0.221039,0.0839111,0,0,4.0425,-0.28,-0.7175,-0.00366,-0.452254,-0.899384,-0.04788,0.24962,0.33474
-8.21917,0,0,13.2192,13.2192,5,5,14.4196,-0.624444,-8.02505,0.0328097,-0.123303,0.311529,0,0,4.025,-0.5075,-0.84,-0.0183,-0.359778,-0.67222,-0.04788,0.24962,0.33474
-8.21908,0,0,13.2191,13.2191,5,5,14.4194,-0.624437,-8.02596,0.0328096,-0.123306,0.311529,1,0,3.535,-0.1925,-0.77,-0.0183,-0.359778,-0.67222,-0.05054,0.25774,0.34034
-8.40178,0,0,13.4018,13.4018,5,5,14.74,-0.401291,-8.34152,0.178707,-0.232438,0.17024,0,0,3.1325,0.175,-0.4025,0.132126,-0.474214,-0.811056,-0.05054,0.25774,0.34034
-8.35179,0,0,13.3518,13.3518,5,5,14.6523,-0.504085,-8.4384,-0.0896832,0.0547855,-0.133806,0,0,2.9925,0.245,-0.1925,-0.139202,-0.185806,-1.11313,-0.05054,0.25774,0.34034
-8.35112,0,0,13.3511,13.3511,5,5,14.6511,-0.503788,-8.43768,-0.0896884,0.0547656,-0.133801,1,0,2.975,0.21,0.105,-0.139202,-0.185806,-1.11313,-0.05054,0.25774,0.34034
-8.34378,0,0,13.3438,13.3438,5,5,14.6382,-1.14437,-8.14857,-0.390606,0.0680637,0.151955,0,0,3.0975,0.21,0.91,-0.45262,-0.172264,-0.829478,-0.05054,0.25774,0.34034
-8.41993,0,0,13.4199,13.4199,5,5,14.7718,-0.378806,-8.80335,0.923143,-0.372712,-0.42165,0,0,3.885,0.245,0.91,0.880108,-0.61488,-1.39824,-0.05054,0.25774,0.34034
-8.4202,0,0,13.4202,13.4202,5,5,14.7723,-0.379474,-8.80156,0.923155,-0.372704,-0.421653,1,0,3.9025,-0.175,0.8575,0.880108,-0.61488,-1.39824,-0.05054,0.25774,0.34034
-8.42002,0,0,13.42,13.42,5,5,14.772,-0.379654,-8.79846,0.527358,-0.335949,-0.073707,1,0,3.465,0.2975,1.5225,0.482632,-0.578158,-1.05298,-0.05376,0.2576,0.35448
-8.42061,0,0,13.4206,13.4206,5,5,14.773,-0.381421,-8.7959,-0.114177,0.074414,0.093744,1,0,4.2175,-0.6825,1.4525,-0.16165,-0.168238,-0.886818,-0.05376,0.2576,0.35448
-8.42036,0,0,13.4204,13.4204,5,5,14.7726,-0.382672,-8.79389,0.33607,-0.359143,0.0331322,1,0,3.395,-0.4725,1.0675,0.290482,-0.601338,-0.946964,-0.05376,0.2576,0.35448
-8.42017,0,0,13.4202,13.4202,5,5,14.7722,-0.382142,-8.79184,0.336061,-0.359149,0.0331338,1,0,3.4475,0.5425,0.8225,0.290482,-0.601338,-0.946964,-0.05376,0.2576,0.35448
-8.2742,0,0,13.2742,13.2742,5,5,14.5161,-1.19754,-8.35561,-0.615156,0.297672,0.093335,0,0,2.8875,0.8225,0.77,-0.679052,0.05917,-0.88816,-0.05376,0.2576,0.35448
-8.40252,0,0,13.4025,13.4025,5,5,14.7413,-0.841337,-8.73606,0.290621,-0.238666,0.00085324,0,0,3.5525,0.7875,0.77,0.236802,-0.480436,-0.97905,-0.05376,0.2576,0.35448
-8.40285,0,0,13.4028,13.4028,5,5,14.7418,-0.841215,-8.73586,0.290619,-0.238656,0.000850713,1,0,3.955,0.035,-0.1575,0.236802,-0.480436,-0.97905,-0.05376,0.2576,0.35448
-8.40349,0,0,13.4035,13.4035,5,5,14.743,-0.841593,-8.73681,0.0658774,-0.212746,0.217481,1,0,4.2525,-0.42,-0.735,0.011102,-0.454572,-0.764086,-0.04872,0.26558,0.36022
-8.52232,0,0,13.5223,13.5223,5,5,14.9514,-0.481317,-9.14195,0.252752,-0.148392,0.147891,0,0,3.815,-0.4025,-0.5075,0.205082,-0.393816,-0.832284,-0.04872,0.26558,0.36022
-8.63059,0,0,13.6306,13.6306,5,5,15.1414,-0.738195,-9.13373,-0.148891,-0.156316,0.0335024,0,0,3.36,-0.7525,-0.805,-0.202764,-0.404918,-0.94489,-0.04872,0.26558,0.36022
-8.73551,0,0,13.7355,13.7355,5,5,15.3254,-0.986181,-9.12827,-0.144564,-0.153234,0.0325956,0,0,2.3275,-0.245,-1.9425,-0.202764,-0.404918,-0.94489,-0.04872,0.26558,0.36022
-8.73383,0,0,13.7338,13.7338,5,5,15.3225,-0.983952,-9.13057,-0.104148,-0.220331,0.381661,1,0,1.96,0.84,-1.89,-0.162138,-0.471896,-0.598532,-0.04872,0.26558,0.36022
-8.73215,0,0,13.7322,13.7322,5,5,15.3196,-0.981723,-9.13286,-0.104187,-0.22038,0.381675,1,0,1.96,0.84,-1.89,-0.162138,-0.471896,-0.598532,-0.04872,0.26558,0.36022
-8.73008,0,0,13.7301,13.7301,5,5,15.3159,-0.979915,-9.13667,0.671589,-0.139715,-0.39817,1,0,1.5575,0.3675,-2.6775,0.616954,-0.391254,-1.37238,-0.04872,0.26558,0.36022
-8.7305,0,0,13.7305,13.7305,5,5,15.3167,-0.977249,-9.14,0.126558,-0.239603,-0.511163,1,0,4.0075,0.9275,-2.5375,0.069662,-0.49105,-1.4845,-0.04872,0.26558,0.36022
-8.73179,0,0,13.7318,13.7318,5,5,15.3189,-0.977294,-9.14146,0.126559,-0.239565,-0.511173,1,0,4.8825,-0.315,-1.0675,0.069662,-0.49105,-1.4845,-0.05026,0.27006,0.35518
-8.7322,0,0,13.7322,13.7322,5,5,15.3197,-0.977677,-9.14304,0.361276,-0.176046,-0.387613,1,0,4.025,-0.525,-1.085,0.305366,-0.42761,-1.36189,-0.05026,0.27006,0.35518
-8.65608,0,0,13.6561,13.6561,5,5,15.1861,-1.05883,-9.25517,-0.0718624,0.116879,-0.0272771,0,0,4.41,-0.5425,-1.3125,-0.131028,-0.132736,-1.00491,-0.05026,0.27006,0.35518
-8.57965,0,0,13.5797,13.5797,5,5,15.052,-1.1386,-9.36541,-0.0704705,0.114613,-0.0266926,0,0,2.6775,-0.4725,-0.63,-0.131028,-0.132736,-1.00491,-0.05026,0.27006,0.35518
-8.57737,0,0,13.5774,13.5774,5,5,15.048,-1.13986,-9.36514,0.175924,-0.0735297,0.221558,1,0,1.3825,-0.735,0.0875,0.116388,-0.320616,-0.758596,-0.05026,0.27006,0.35518
-8.57526,0,0,13.5753,13.5753,5,5,15.0443,-1.14137,-9.36531,0.175951,-0.0735921,0.221574,1,0,1.5575,-0.945,-0.1225,0.116388,-0.320616,-0.758596,-0.05026,0.27006,0.35518
-8.57388,0,0,13.5739,13.5739,5,5,15.0419,-1.14247,-9.36653,-0.199907,-0.0627638,0.336542,1,0,2.2575,-0.875,-0.77,-0.26108,-0.309758,-0.644526,-0.05026,0.27006,0.35518
-8.57298,0,0,13.573,13.573,5,5,15.0403,-1.14161,-9.36622,-0.199922,-0.0627904,0.336549,1,0,2.7475,0.4725,-0.21,-0.26108,-0.309758,-0.644526,-0.05026,0.27006,0.35518
-8.48399,0,0,13.484,13.484,5,5,14.8842,-0.879365,-9.70151,0.14453,0.13281,0.0538114,0,0,2.7475,0.735,0.4025,0.089426,-0.111752,-0.925858,-0.04844,0.27188,0.36834
-8.4833,0,0,13.4833,13.4833,5,5,14.883,-0.878245,-9.70029,-0.0334657,-0.259237,-0.254292,1,0,2.9575,0.7525,0.2625,-0.089304,-0.503372,-1.23159,-0.04844,0.27188,0.36834
-8.48212,0,0,13.4821,13.4821,5,5,14.8809,-0.879262,-9.69918,-0.033448,-0.259272,-0.254283,1,0,2.485,-0.4725,0.525,-0.089304,-0.503372,-1.23159,-0.04844,0.27188,0.36834
-8.54975,0,0,13.5498,13.5498,5,5,14.9996,-1.20867,-9.63366,-0.213694,-0.0963353,0.0102821,0,0,2.8875,0.0875,0.665,-0.276086,-0.342576,-0.968436,-0.04844,0.27188,0.36834
-8.61659,0,0,13.6166,13.6166,5,5,15.1168,-1.52955,-9.56941,-0.208095,-0.0943944,0.00962134,0,0,3.675,-0.105,0.7175,-0.276086,-0.342576,-0.968436,-0.04844,0.27188,0.36834
-8.61657,0,0,13.6166,13.6166,5,5,15.1168,-1.53036,-9.56734,-0.224725,-0.149719,0.289329,1,0,3.64,-0.21,1.0325,-0.2928,-0.397842,-0.690886,-0.04844,0.27188,0.36834
-8.6158,0,0,13.6158,13.6158,5,5,15.1154,-1.53113,-9.56536,-0.224711,-0.149741,0.289335,1,0,2.905,-0.1925,0.98,-0.2928,-0.397842,-0.690886,-0.04844,0.27188,0.36834
-8.89911,0,0,13.8991,13.8991,5,5,15.6125,-2.10281,-9.31448,-0.297592,-0.329295,0.292511,0,0,2.555,-0.3325,0.77,-0.376004,-0.585478,-0.685152,-0.04382,0.27272,0.36554
-8.9092,0,0,13.9092,13.9092,5,5,15.6302,-2.23961,-9.36705,-0.0880731,-0.00905064,0.022223,0,0,0.735,1.33,0.385,-0.167994,-0.265838,-0.953186,-0.04382,0.27272,0.36554
-8.91918,0,0,13.9192,13.9192,5,5,15.6477,-2.37309,-9.41946,-0.0857453,-0.00878189,0.0220504,0,0,0.8925,1.1375,0.3325,-0.167994,-0.265838,-0.953186,-0.04382,0.27272,0.36554
-8.91739,0,0,13.9174,13.9174,5,5,15.6445,-2.37264,-9.41876,-0.459443,-0.410509,0.0690318,1,0,1.89,0.2975,0.07,-0.543266,-0.667096,-0.906582,-0.04382,0.27272,0.36554
-8.91726,0,0,13.9173,13.9173,5,5,15.6443,-2.37215,-9.41889,-0.459452,-0.410513,0.0690332,1,0,3.5,0.1925,-0.4025,-0.543266,-0.667096,-0.906582,-0.04382,0.27272,0.36554
-9.09146,0,0,14.0915,14.0915,5,5,15.9499,-2.5294,-9.45522,-0.0615167,-0.217953,0.143452,0,0,3.71,-0.035,-0.2625,-0.1464,-0.479826,-0.831186,-0.04382,0.27272,0.36554
-9.26155,0,0,14.2616,14.2616,5,5,16.2483,-2.68117,-9.49268,-0.0588705,-0.212987,0.141893,0,0,3.045,-0.07,-0.525,-0.1464,-0.479826,-0.831186,-0.04382,0.27272,0.36554
-9.26119,0,0,14.2612,14.2612,5,5,16.2477,-2.68153,-9.49395,-0.0787879,-0.237423,0.355704,1,0,3.2375,-0.4725,-0.91,-0.166408,-0.504226,-0.619028,-0.04382,0.27272,0.36554
-9.26012,0,0,14.2601,14.2601,5,5,16.2458,-2.68093,-9.49507,-0.0787983,-0.237454,0.355713,1,0,2.555,0.0875,-0.98,-0.166408,-0.504226,-0.619028,-0.04536,0.2723,0.36568
-9.49558,0,0,14.4956,14.4956,5,5,16.6589,-2.65588,-9.64303,0.0670338,-0.298444,0.206155,0,0,2.3975,0.28,-0.91,-0.01952,-0.572058,-0.765428,-0.04536,0.2723,0.36568
-9.72759,0,0,14.7276,14.7276,5,5,17.0659,-2.62983,-9.78985,0.0665795,-0.291647,0.204116,0,0,3.2725,0.0525,-1.33,-0.01952,-0.572058,-0.765428,-0.04536,0.2723,0.36568
-9.7276,0,0,14.7276,14.7276,5,5,17.066,-2.62949,-9.7918,0.161575,-0.292868,-0.336365,1,0,3.5875,-0.21,-1.4,0.075884,-0.573278,-1.30174,-0.04536,0.2723,0.36568
-9.72737,0,0,14.7274,14.7274,5,5,17.0656,-2.62851,-9.79311,0.161558,-0.292874,-0.336362,1,0,3.3775,0.2625,-1.155,0.075884,-0.573278,-1.30174,-0.04536,0.2723,0.36568
-9.72631,0,0,14.7263,14.7263,5,5,17.0637,-2.6273,-9.79351,0.23783,-0.136094,-0.0666028,1,0,2.5725,0.5425,-0.6825,0.1525,-0.41663,-1.03407,-0.04536,0.2723,0.36568
-9.72434,0,0,14.7243,14.7243,5,5,17.0603,-2.62745,-9.7942,0.237833,-0.136152,-0.0665853,1,0,1.68,-0.2625,-0.6125,0.1525,-0.41663,-1.03407,-0.04536,0.2723,0.36568
-9.72159,0,0,14.7216,14.7216,5,5,17.0554,-2.62852,-9.79479,-0.227803,-0.192289,0.265154,1,0,0.91,-0.77,-0.4025,-0.315126,-0.472628,-0.704916,-0.04536,0.2723,0.36568
-9.72065,0,0,14.7206,14.7206,5,5,17.0538,-2.62953,-9.79502,-0.227786,-0.192316,0.265161,1,0,2.695,-0.665,-0.21,-0.315126,-0.472628,-0.704916,-0.05012,0.26796,0.36218
-9.7205,0,0,14.7205,14.7205,5,5,17.0535,-2.63054,-9.79459,0.385856,-0.260956,-0.00434126,1,0,3.5,-0.56,0.1575,0.301096,-0.541192,-0.97234,-0.05012,0.26796,0.36218
-9.72036,0,0,14.7204,14.7204,5,5,17.0533,-2.63156,-9.79417,0.385874,-0.260961,-0.00434075,1,0,3.5,-0.56,0.1575,0.301096,-0.541192,-0.97234,-0.05012,0.26796,0.36218
-9.72215,0,0,14.7221,14.7221,5,5,17.0564,-2.63208,-9.79353,-0.0422325,-0.350061,0.0589613,1,0,5.4075,-0.245,0.1925,-0.128832,-0.630252,-0.90951,-0.05012,0.26796,0.36218
-9.72394,0,0,14.7239,14.7239,5,5,17.0595,-2.6326,-9.79288,-0.0422234,-0.350009,0.0589448,1,0,5.4075,-0.245,0.1925,-0.128832,-0.630252,-0.90951,-0.05012,0.26796,0.36218
-9.72457,0,0,14.7246,14.7246,5,5,17.0606,-2.63984,-9.79418,-0.369258,-0.288562,-0.20602,1,0,4.2175,-4.34,0.2625,-0.457378,-0.568886,-1.17242,-0.05012,0.26796,0.36218
-9.7252,0,0,14.7252,14.7252,5,5,17.0618,-2.64707,-9.79548,-0.369132,-0.288545,-0.206032,1,0,4.2175,-4.34,0.2625,-0.457378,-0.568886,-1.17242,-0.05012,0.26796,0.36218
-9.91848,0,0,14.9185,14.9185,5,5,17.4008,-2.66177,-9.90069,0.0302047,-0.284612,0.110765,0,0,2.9225,0.315,0.525,-0.056608,-0.570594,-0.856318,-0.05012,0.26796,0.36218
-10.0577,0,0,15.0577,15.0577,5,5,17.6451,-2.2514,-10.2757,0.314736,-0.234172,0.0800222,0,0,3.115,0.1225,0.665,0.236314,-0.524356,-0.885842,-0.05012,0.26796,0.36218
-10.1949,0,0,15.1949,15.1949,5,5,17.8859,-1.8573,-10.655,0.307862,-0.230098,0.0789757,0,0,3.1325,-0.4025,0.42,0.236314,-0.524356,-0.885842,-0.0434,0.27314,0.36988
-10.1945,0,0,15.1945,15.1945,5,5,17.8851,-1.8579,-10.6541,-0.28437,-0.171978,0.37172,1,0,3.22,-0.2275,0.385,-0.358436,-0.466284,-0.59536,-0.0434,0.27314,0.36988
-10.1944,0,0,15.1944,15.1944,5,5,17.885,-1.85874,-10.6535,-0.284355,-0.171981,0.37172,1,0,3.57,-0.42,0.245,-0.358436,-0.466284,-0.59536,-0.0434,0.27314,0.36988
-10.1949,0,0,15.1949,15.1949,5,5,17.8859,-1.85947,-10.6526,0.0529016,-0.358209,-0.102006,1,0,4.1475,-0.315,0.35,-0.019764,-0.652334,-1.06543,-0.0434,0.27314,0.36988
-10.1962,0,0,15.1962,15.1962,5,5,17.888,-1.85908,-10.6523,0.0528949,-0.358174,-0.102017,1,0,4.83,0.21,-0.14,-0.019764,-0.652334,-1.06543,-0.0434,0.27314,0.36988
-10.1978,0,0,15.1978,15.1978,5,5,17.8909,-1.85862,-10.6521,-0.0319102,-0.123031,-0.303545,1,0,5.285,0.2275,-0.2275,-0.10492,-0.417484,-1.26538,-0.0434,0.27314,0.36988
-10.199,0,0,15.199,15.199,5,5,17.893,-1.8575,-10.6525,-0.0319298,-0.122997,-0.303555,1,0,4.76,0.49,-0.6825,-0.10492,-0.417484,-1.26538,-0.0434,0.27314,0.36988
-10.1995,0,0,15.1995,15.1995,5,5,17.8938,-1.85618,-10.6525,-0.0325602,-0.19345,-0.0518836,1,0,4.1125,0.665,-0.5075,-0.10553,-0.487878,-1.01565,-0.0434,0.27314,0.36988
-10.199,0,0,15.199,15.199,5,5,17.893,-1.85507,-10.6526,-0.0325796,-0.193463,-0.0518788,1,0,3.185,0.5425,-0.49,-0.10553,-0.487878,-1.01565,-0.04592,0.27286,0.35588
-10.5473,0,0,15.5473,15.5473,5,5,18.504,-2.29365,-10.4827,-0.225503,-0.501688,0.279196,0,0,2.8525,0.035,-0.6125,-0.306952,-0.80581,-0.683566,-0.04592,0.27286,0.35588
-10.8903,0,0,15.8903,15.8903,5,5,19.1058,-2.71958,-10.3224,-0.218076,-0.49186,0.275506,0,0,3.9375,-0.49,-0.98,-0.306952,-0.80581,-0.683566,-0.04592,0.27286,0.35588
-10.9318,0,0,15.9318,15.9318,5,5,19.1786,-2.31051,-10.7011,0.292806,-0.0973094,-0.00838,0,0,4.0425,-0.35,-0.91,0.213256,-0.41297,-0.965142,-0.04592,0.27286,0.35588
-10.9738,0,0,15.9738,15.9738,5,5,19.2522,-1.9121,-11.0749,0.285857,-0.0960129,-0.00856061,0,0,5.3025,-0.385,-0.8575,0.213256,-0.41297,-0.965142,-0.04592,0.27286,0.35588
-11.1714,0,0,16.1714,16.1714,5,5,19.5989,-1.72867,-11.3073,0.150967,-0.214113,0.235544,0,0,4.865,-0.1575,-0.8225,0.081008,-0.536678,-0.72102,-0.04592,0.27286,0.35588
-11.3646,0,0,16.3646,16.3646,5,5,19.9379,-1.54818,-11.5358,0.147818,-0.208516,0.233628,0,0,4.13,-0.0175,-1.1375,0.081008,-0.536678,-0.72102,-0.04592,0.27286,0.35588
-11.365,0,0,16.365,16.365,5,5,19.9387,-1.5479,-11.5372,-0.325859,-0.474374,-0.012273,1,0,4.025,-0.1925,-1.1025,-0.39467,-0.802272,-0.96502,-0.04592,0.27286,0.35588
-11.3645,0,0,16.3645,16.3645,5,5,19.9378,-1.54695,-11.5382,-0.325876,-0.474388,-0.0122674,1,0,3.1325,0.2625,-0.98,-0.39467,-0.802272,-0.96502,-0.04494,0.27048,0.36372
-11.5924,0,0,16.5924,16.5924,5,5,20.3375,-1.25544,-11.8183,0.249253,-0.33761,0.186223,0,0,3.8675,-0.245,-1.26,0.188002,-0.67222,-0.765794,-0.04494,0.27048,0.36372
-11.8167,0,0,16.8167,16.8167,5,5,20.731,-0.970617,-12.0921,0.244283,-0.331146,0.183905,0,0,4.2875,-0.7,-1.12,0.188002,-0.67222,-0.765794,-0.04494,0.27048,0.36372
-11.9092,0,0,16.9092,16.9092,5,5,20.8933,-0.96928,-12.211,0.0223056,-0.15349,0.0131071,0,0,4.5325,-0.5775,-0.4025,-0.034892,-0.497394,-0.934276,-0.04494,0.27048,0.36372
-12.0006,0,0,17.0006,17.0006,5,5,21.0537,-0.967098,-12.3282,0.0222675,-0.150877,0.0121063,0,0,5.1975,-0.4025,-0.2625,-0.034892,-0.497394,-0.934276,-0.04494,0.27048,0.36372
-12.0022,0,0,17.0022,17.0022,5,5,21.0565,-0.968088,-12.3279,0.351632,-0.203834,-0.232088,1,0,5.2325,-0.56,0.07,0.29585,-0.550342,-1.17657,-0.04494,0.27048,0.36372
-12.0038,0,0,17.0038,17.0038,5,5,21.0594,-0.969077,-12.3277,0.35165,-0.203788,-0.232106,1,0,5.2325,-0.56,0.07,0.29585,-0.550342,-1.17657,-0.04494,0.27048,0.36372
-11.9361,0,0,16.9361,16.9361,5,5,20.9405,-0.470365,-12.7505,0.289371,0.103174,0.0715617,0,0,4.3925,-0.2275,0.4725,0.242048,-0.241804,-0.876082,-0.04494,0.27048,0.36372
-11.8696,0,0,16.8696,16.8696,5,5,20.8239,0.0143867,-13.1605,0.280911,0.101283,0.072319,0,0,4.3925,-0.2275,0.4725,0.242048,-0.241804,-0.876082,-0.04522,0.26404,0.36302
-11.8694,0,0,16.8694,16.8694,5,5,20.8235,0.0142178,-13.1593,0.140233,-0.218695,-0.0100543,1,0,3.43,0.0875,0.42,0.100772,-0.561444,-0.957822,-0.04522,0.26404,0.36302
-11.8692,0,0,16.8692,16.8692,5,5,20.8231,0.0140488,-13.1582,0.140236,-0.2187,-0.0100521,1,0,3.43,0.0875,0.42,0.100772,-0.561444,-0.957822,-0.04522,0.26404,0.36302
-11.8686,0,0,16.8686,16.8686,5,5,20.8221,0.0145094,-13.1558,-0.0235346,0.158655,0.16491,1,0,3.0625,0.6825,0.945,-0.063684,-0.184464,-0.784216,-0.04522,0.26404,0.36302
-11.868,0,0,16.868,16.868,5,5,20.8211,0.01497,-13.1534,-0.0235426,0.158638,0.164916,1,0,3.0625,0.6825,0.945,-0.063684,-0.184464,-0.784216,-0.04522,0.26404,0.36302
-11.7857,0,0,16.7857,16.7857,5,5,20.6767,0.228812,-13.4097,0.125433,0.100954,-0.0741935,0,0,4.9175,0.2625,0.9975,0.08967,-0.23973,-1.02236,-0.04522,0.26404,0.36302
-11.705,0,0,16.705,16.705,5,5,20.5351,0.436494,-13.6648,0.121808,0.098634,-0.0733436,0,0,4.9175,0.2625,0.9975,0.08967,-0.23973,-1.02236,-0.04522,0.26404,0.36302
-11.7078,0,0,16.7078,16.7078,5,5,20.54,0.435914,-13.6631,0.176244,-0.122213,-0.192879,1,0,6.37,-0.035,0.7875,0.144326,-0.460428,-1.14094,-0.04522,0.26404,0.36302
-11.7668,0,0,16.7668,16.7668,5,5,20.6435,0.0680748,-13.553,-0.222734,-0.0496792,0.0490892,0,0,5.7925,-0.1225,0.7,-0.262788,-0.389668,-0.900238,-0.05404,0.26656,0.36414
-11.8231,0,0,16.8231,16.8231,5,5,20.7423,-0.289319,-13.445,-0.216496,-0.0480698,0.0484684,0,0,4.83,0,0.3325,-0.262788,-0.389668,-0.900238,-0.05404,0.26656,0.36414
-11.8445,0,0,16.8445,16.8445,5,5,20.7797,-0.196212,-13.6069,0.0633609,-0.0286486,0.0307845,0,0,3.955,0.175,0.035,0.019886,-0.37088,-0.917562,-0.05404,0.26656,0.36414
-11.8655,0,0,16.8655,16.8655,5,5,20.8166,-0.105502,-13.7672,0.0617777,-0.0280461,0.0305601,0,0,3.955,0.175,0.035,0.019886,-0.37088,-0.917562,-0.05404,0.26656,0.36414
-11.9914,0,0,16.9914,16.9914,5,5,21.0376,-0.414962,-13.6736,-0.168261,-0.145724,0.101207,0,0,3.3775,0.035,-0.4375,-0.21655,-0.492026,-0.84607,-0.05404,0.26656,0.36414
-12.1145,0,0,17.1145,17.1145,5,5,21.2535,-0.715277,-13.5824,-0.163019,-0.142228,0.0997996,0,0,3.3775,0.035,-0.4375,-0.21655,-0.492026,-0.84607,-0.05404,0.26656,0.36414
-12.1158,0,0,17.1158,17.1158,5,5,21.2558,-0.715036,-13.5837,-0.0374073,-0.0218963,0.149702,1,0,4.8825,-0.21,-1.015,-0.090402,-0.371856,-0.796538,-0.05404,0.26656,0.36414
-12.1172,0,0,17.1172,17.1172,5,5,21.2583,-0.714254,-13.5853,-0.17227,0.119324,0.359805,1,0,5.0575,0.035,-1.26,-0.225822,-0.230824,-0.58804,-0.05404,0.26656,0.36414
-12.1189,0,0,17.1189,17.1189,5,5,21.2612,-0.713509,-13.5874,-0.172283,0.11937,0.359788,1,0,5.1975,-0.105,-1.5575,-0.225822,-0.230824,-0.58804,-0.04872,0.27244,0.35742
-12.1206,0,0,17.1206,17.1206,5,5,21.2643,-0.713098,-13.5896,-0.106688,-0.213863,-0.0420277,1,0,5.3725,-0.315,-1.5575,-0.159942,-0.563762,-0.986736,-0.04872,0.27244,0.35742
-12.1225,0,0,17.1225,17.1225,5,5,21.2675,-0.712656,-13.5921,-0.106696,-0.213811,-0.0420479,1,0,5.4075,-0.35,-1.6975,-0.159942,-0.563762,-0.986736,-0.04872,0.27244,0.35742
-12.2532,0,0,17.2532,17.2532,5,5,21.4968,-0.259678,-13.9541,0.336232,-0.207861,0.126101,0,0,4.9525,-0.5075,-1.715,0.2928,-0.561566,-0.818498,-0.04872,0.27244,0.35742
-12.3808,0,0,17.3808,17.3808,5,5,21.7207,0.181967,-14.3089,0.328524,-0.204227,0.124667,0,0,4.025,-0.6825,-1.6625,0.2928,-0.561566,-0.818498,-0.04872,0.27244,0.35742
-12.4712,0,0,17.4712,17.4712,5,5,21.8794,0.366487,-14.5252,0.152551,-0.172961,0.00879053,0,0,3.7975,-0.525,-1.365,0.119316,-0.532896,-0.932446,-0.04872,0.27244,0.35742
-12.5597,0,0,17.5597,17.5597,5,5,22.0345,0.546457,-14.738,0.14941,-0.170459,0.00775471,0,0,3.395,-0.56,-1.155,0.119316,-0.532896,-0.932446,-0.04872,0.27244,0.35742
-12.5595,0,0,17.5595,17.5595,5,5,22.0342,0.546915,-14.7391,-0.16233,-0.140055,0.272711,1,0,3.4475,-0.07,-0.98,-0.193736,-0.502518,-0.669536,-0.04872,0.27244,0.35742
-12.5603,0,0,17.5603,17.5603,5,5,22.0357,0.546555,-14.7401,-0.162324,-0.140031,0.272701,1,0,4.4625,-0.4725,-0.7,-0.193736,-0.502518,-0.669536,-0.04844,0.27216,0.3647
-12.5859,0,0,17.5859,17.5859,5,5,22.0805,0.748101,-14.9716,0.148685,-0.0804559,-0.0461888,0,0,4.3575,-0.1575,-0.455,0.122122,-0.443714,-0.985638,-0.04844,0.27216,0.3647
-12.6123,0,0,17.6123,17.6123,5,5,22.1269,0.943939,-15.1998,0.145267,-0.0797252,-0.04654,0,0,5.5825,-0.245,-0.0875,0.122122,-0.443714,-0.985638,-0.04844,0.27216,0.3647
-12.6133,0,0,17.6133,17.6133,5,5,22.1285,0.943872,-15.1987,-0.270091,0.297307,0.0843891,1,0,4.5675,0.14,0.35,-0.294996,-0.0671,-0.855708,-0.04844,0.27216,0.3647
-12.6137,0,0,17.6137,17.6137,5,5,22.1293,0.942592,-15.1973,-0.270069,0.297319,0.0843846,1,0,4.025,-0.455,0.77,-0.294996,-0.0671,-0.855708,-0.04844,0.27216,0.3647
-12.5586,0,0,17.5586,17.5586,5,5,22.0326,0.948047,-15.3305,-0.00969871,0.0709195,-0.0596928,0,0,4.4275,-0.1575,0.9625,-0.033428,-0.291702,-0.999302,-0.04844,0.27216,0.3647
-12.5047,0,0,17.5047,17.5047,5,5,21.9381,0.953059,-15.4621,-0.00978616,0.0693907,-0.0590772,0,0,4.62,0,1.19,-0.033428,-0.291702,-0.999302,-0.04844,0.27216,0.3647
-12.5064,0,0,17.5064,17.5064,5,5,21.9411,0.952844,-15.4594,0.0180378,0.117923,0.247046,1,0,5.25,0.42,1.2775,-0.00549,-0.243268,-0.695522,-0.04844,0.27216,0.3647
-12.5077,0,0,17.5077,17.5077,5,5,21.9433,0.952991,-15.4568,0.0180352,0.117959,0.247031,1,0,4.8825,0.5775,1.1025,-0.00549,-0.243268,-0.695522,-0.04956,0.26488,0.35014
-12.5089,0,0,17.5089,17.5089,5,5,21.9455,0.953122,-15.4543,0.0316394,-0.409227,-0.302317,1,0,4.795,0.56,1.085,0.008174,-0.769942,-1.24062,-0.04956,0.26488,0.35014
-12.51,0,0,17.51,17.51,5,5,21.9474,0.952677,-15.4523,0.0316471,-0.409196,-0.30233,1,0,4.69,0.14,0.945,0.008174,-0.769942,-1.24062,-0.04956,0.26488,0.35014
-12.6483,0,0,17.6483,17.6483,5,5,22.1901,0.53535,-15.2903,-0.21461,-0.10114,0.187346,0,0,3.9375,0.5775,0.98,-0.24644,-0.466162,-0.753228,-0.04956,0.26488,0.35014
-12.7834,0,0,17.7834,17.7834,5,5,22.4271,0.130369,-15.1325,-0.207542,-0.0972979,0.185814,0,0,4.13,0.7525,0.7,-0.24644,-0.466162,-0.753228,-0.04956,0.26488,0.35014
-12.7882,0,0,17.7882,17.7882,5,5,22.4355,0.0320729,-15.1742,-0.0641744,-0.0136267,-0.0344405,0,0,4.0425,-0.0875,0.5075,-0.104188,-0.382714,-0.97173,-0.04956,0.26488,0.35014
-12.7927,0,0,17.7927,17.7927,5,5,22.4433,-0.0624973,-15.2161,-0.0625238,-0.0134997,-0.0344934,0,0,3.955,0.35,-0.0175,-0.104188,-0.382714,-0.97173,-0.04956,0.26488,0.35014
-12.794,0,0,17.794,17.794,5,5,22.4456,-0.0627801,-15.2164,0.549162,0.331423,-0.0531969,1,0,4.9175,-0.2975,-0.385,0.510082,-0.038186,-0.990274,-0.04956,0.26488,0.35014
-12.7956,0,0,17.7956,17.7956,5,5,22.4484,-0.0622587,-15.2172,0.549152,0.331468,-0.0532155,1,0,5.1975,0.0525,-0.77,0.510082,-0.038186,-0.990274,-0.04956,0.26488,0.35014
-12.8731,0,0,17.8731,17.8731,5,5,22.5844,-0.0254228,-15.3168,0.0392415,-0.097936,0.071038,0,0,5.18,0.385,-0.91,-0.001342,-0.469334,-0.866078,-0.05012,0.26488,0.35616
-12.8744,0,0,17.8744,17.8744,5,5,22.5867,-0.0246093,-15.3183,-0.0267394,-0.0895943,0.278191,1,0,4.9175,0.0175,-1.295,-0.067588,-0.461038,-0.660508,-0.05012,0.26488,0.35616
-12.8759,0,0,17.8759,17.8759,5,5,22.5893,-0.0240439,-15.32,-0.0267493,-0.0895523,0.278173,1,0,5.0925,-0.14,-1.295,-0.067588,-0.461038,-0.660508,-0.05012,0.26488,0.35616
-12.8768,0,0,17.8768,17.8768,5,5,22.5908,-0.0236988,-15.3222,0.120728,-0.0978315,-0.0676913,1,0,4.515,-0.3675,-1.505,0.08052,-0.469334,-1.00369,-0.05012,0.26488,0.35616
-12.8771,0,0,17.8771,17.8771,5,5,22.5914,-0.023487,-15.3244,0.120725,-0.0978226,-0.067695,1,0,3.9375,-0.4375,-1.47,0.08052,-0.469334,-1.00369,-0.05012,0.26488,0.35616
-12.8776,0,0,17.8776,17.8776,5,5,22.5923,-0.0237234,-15.3266,0.063752,-0.131393,-0.0708978,1,0,4.1475,-0.7,-1.4175,0.023302,-0.502884,-1.00687,-0.05012,0.26488,0.35616
-12.8779,0,0,17.8779,17.8779,5,5,22.5929,-0.0237119,-15.3284,0.0637518,-0.131383,-0.0709017,1,0,3.955,-0.455,-1.2075,0.023302,-0.502884,-1.00687,-0.05012,0.26488,0.35616
-12.9841,0,0,17.9841,17.9841,5,5,22.7791,-0.186635,-15.3084,-0.0862337,-0.167467,0.0164857,0,0,4.6025,-0.5775,-0.805,-0.130174,-0.541924,-0.918904,-0.05012,0.26488,0.35616
-13.088,0,0,18.088,18.088,5,5,22.9614,-0.342058,-15.284,-0.0835211,-0.16454,0.0152376,0,0,4.97,-0.21,-0.7,-0.130174,-0.541924,-0.918904,-0.0441,0.26026,0.35658
-13.1286,0,0,18.1286,18.1286,5,5,23.0327,-0.522838,-15.2553,-0.112681,-0.0578873,-0.0110893,0,0,5.285,-0.525,-0.6125,-0.162626,-0.436516,-0.944524,-0.0441,0.26026,0.35658
-13.1682,0,0,18.1682,18.1682,5,5,23.1021,-0.698528,-15.227,-0.109615,-0.0567853,-0.0115942,0,0,5.285,-0.525,-0.6125,-0.162626,-0.436516,-0.944524,-0.0441,0.26026,0.35658
-13.161,0,0,18.161,18.161,5,5,23.0895,-0.810985,-15.2395,-0.0771595,0.00760649,-0.0390718,0,0,4.7775,-0.245,0.0175,-0.132004,-0.371978,-0.971852,-0.0441,0.26026,0.35658
-13.1538,0,0,18.1538,18.1538,5,5,23.0768,-0.920491,-15.2519,-0.0752485,0.00739218,-0.0390118,0,0,4.7775,-0.245,0.0175,-0.132004,-0.371978,-0.971852,-0.0441,0.26026,0.35658
-13.1745,0,0,18.1745,18.1745,5,5,23.1131,-0.727478,-15.4296,0.137506,-0.0706553,-0.0372488,0,0,3.71,-0.1575,0.4025,0.085034,-0.450546,-0.9699,-0.0441,0.26026,0.35658
-13.195,0,0,18.195,18.195,5,5,23.1491,-0.539592,-15.6053,0.134227,-0.0700646,-0.0374617,0,0,3.71,-0.1575,0.4025,0.085034,-0.450546,-0.9699,-0.0441,0.26026,0.35658
-13.1259,0,0,18.1259,18.1259,5,5,23.0278,-0.539688,-15.6932,-0.0147126,0.092494,-0.0733937,0,0,4.9525,-0.875,0.28,-0.064538,-0.286212,-1.00638,-0.0441,0.26026,0.35658
-13.0582,0,0,18.0582,18.0582,5,5,22.9091,-0.540667,-15.7761,-0.0146955,0.0905861,-0.0725852,0,0,4.9525,-0.875,0.28,-0.064538,-0.286212,-1.00638,-0.04452,0.25816,0.3577
-12.7642,0,0,17.7642,17.7642,5,5,22.3933,-0.621642,-15.8412,-0.110714,0.477474,-0.0142963,0,0,5.565,4.1475,0.3325,-0.162382,0.10858,-0.951966,-0.04452,0.25816,0.3577
-12.475,0,0,17.475,17.475,5,5,21.886,-0.701864,-15.906,-0.109314,0.469268,-0.0109747,0,0,5.565,4.1475,0.3325,-0.162382,0.10858,-0.951966,-0.04452,0.25816,0.3577
-12.476,0,0,17.476,17.476,5,5,21.8877,-0.701627,-15.9049,-0.186461,-0.146101,-0.112787,1,0,4.62,0.315,0.315,-0.239852,-0.506178,-1.05298,-0.04452,0.25816,0.3577
-12.5527,0,0,17.5527,17.5527,5,5,22.0223,-0.860424,-15.8656,-0.0979211,-0.13551,-0.0299725,0,0,5.32,0.385,0.14,-0.15372,-0.49776,-0.9699,-0.04452,0.25816,0.3577
-12.628,0,0,17.628,17.628,5,5,22.1543,-1.01422,-15.8269,-0.0952373,-0.133391,-0.0308799,0,0,5.6175,0.595,0.1925,-0.15372,-0.49776,-0.9699,-0.04452,0.25816,0.3577
-12.6298,0,0,17.6298,17.6298,5,5,22.1576,-1.0141,-15.826,0.0482352,-0.131018,-0.0519256,1,0,5.4775,0.21,0.2275,-0.009638,-0.495442,-0.990762,-0.04452,0.25816,0.3577
-12.6316,0,0,17.6316,17.6316,5,5,22.1607,-1.01403,-15.8248,0.048234,-0.130968,-0.0519459,1,0,5.3725,0.2275,0.35,-0.009638,-0.495442,-0.990762,-0.04452,0.25816,0.3577
-12.6328,0,0,17.6328,17.6328,5,5,22.1628,-1.01425,-15.8236,0.282827,0.295167,0.104554,1,0,4.83,0.0875,0.455,0.225944,-0.069784,-0.835456,-0.04746,0.259,0.35672
-12.634,0,0,17.634,17.634,5,5,22.1649,-1.01414,-15.8227,0.231315,0.0442291,0.160605,1,0,4.7775,0.1925,0.21,0.174216,-0.320494,-0.779824,-0.04746,0.259,0.35672
-12.6352,0,0,17.6352,17.6352,5,5,22.1671,-1.01412,-15.8214,0.231315,0.0442648,0.16059,1,0,4.8825,0.245,0.4725,0.174216,-0.320494,-0.779824,-0.04746,0.259,0.35672
-12.7198,0,0,17.7198,17.7198,5,5,22.3155,-1.05255,-15.8465,-0.00770617,-0.112229,0.0579203,0,0,5.74,-0.1575,0.3675,-0.06649,-0.479216,-0.880718,-0.04746,0.259,0.35672
-12.8027,0,0,17.8027,17.8027,5,5,22.4608,-1.08838,-15.8716,-0.00708087,-0.109889,0.0569435,0,0,5.6875,0.385,0.1225,-0.06649,-0.479216,-0.880718,-0.04746,0.259,0.35672
-12.8303,0,0,17.8303,17.8303,5,5,22.5093,-1.06491,-15.9404,0.0202082,-0.0296004,0.0369556,0,0,5.285,0.3325,0.07,-0.038674,-0.399794,-0.900238,-0.04746,0.259,0.35672
-12.8559,0,0,17.8559,17.8559,5,5,22.5542,-1.04247,-16.009,0.0198167,-0.0288724,0.0366614,0,0,3.85,-0.0875,-0.07,-0.038674,-0.399794,-0.900238,-0.04746,0.259,0.35672
-12.8563,0,0,17.8563,17.8563,5,5,22.5548,-1.04296,-16.009,0.327305,-0.124855,-0.0630539,1,0,3.955,-0.3325,-0.1575,0.270108,-0.495686,-0.99918,-0.04746,0.259,0.35672
-12.8571,0,0,17.8571,17.8571,5,5,22.5562,-1.04327,-16.0097,0.327311,-0.124832,-0.0630633,1,0,4.41,-0.385,-0.5425,0.270108,-0.495686,-0.99918,-0.0462,0.26516,0.36316
-12.8578,0,0,17.8578,17.8578,5,5,22.5575,-1.04382,-16.0108,-0.349841,-0.173541,0.0225003,1,0,4.3225,-0.6125,-0.735,-0.40992,-0.544364,-0.914268,-0.0462,0.26516,0.36316
-12.8597,0,0,17.8597,17.8597,5,5,22.5609,-1.04441,-16.0125,-0.34983,-0.173486,0.0224774,1,0,5.5125,-0.77,-1.05,-0.40992,-0.544364,-0.914268,-0.0462,0.26516,0.36316
-12.8609,0,0,17.8609,17.8609,5,5,22.563,-1.04393,-16.0143,0.256496,-0.34736,0.0838145,1,0,4.8125,-0.1925,-1.295,0.198982,-0.718092,-0.85339,-0.0462,0.26516,0.36316
-12.8625,0,0,17.8625,17.8625,5,5,22.5657,-1.04417,-16.0171,0.2565,-0.347317,0.0837964,1,0,5.11,-0.84,-1.75,0.198982,-0.718092,-0.85339,-0.0462,0.26516,0.36316
-12.8641,0,0,17.8641,17.8641,5,5,22.5686,-1.04437,-16.0199,-0.101757,0.204743,0.097424,1,0,5.25,-0.7875,-1.68,-0.160796,-0.166652,-0.839848,-0.0462,0.26516,0.36316
-12.8655,0,0,17.8655,17.8655,5,5,22.571,-1.04448,-16.022,-0.101755,0.204781,0.0974083,1,0,4.9175,-0.595,-1.365,-0.160796,-0.166652,-0.839848,-0.0462,0.26516,0.36316
-12.8668,0,0,17.8668,17.8668,5,5,22.5734,-1.04416,-16.0238,-0.0207299,-0.176704,0.241119,1,0,4.97,-0.315,-1.33,-0.079422,-0.54778,-0.69723,-0.0462,0.26516,0.36316
-12.8679,0,0,17.8679,17.8679,5,5,22.5753,-1.04344,-16.0249,-0.0207426,-0.176673,0.241106,1,0,4.69,0.0875,-0.9975,-0.079422,-0.54778,-0.69723,-0.04172,0.26726,0.36764
-12.8691,0,0,17.8691,17.8691,5,5,22.5774,-1.04365,-16.0262,-0.230788,-0.00615066,0.156258,1,0,4.7775,-0.4725,-0.91,-0.29036,-0.377468,-0.78141,-0.04172,0.26726,0.36764
-12.8705,0,0,17.8705,17.8705,5,5,22.5797,-1.04384,-16.0266,-0.230784,-0.00611256,0.156242,1,0,4.9525,-0.2625,-0.4375,-0.29036,-0.377468,-0.78141,-0.04172,0.26726,0.36764
-12.8274,0,0,17.8274,17.8274,5,5,22.5043,-0.459562,-16.443,0.350776,0.0725929,0.11974,0,0,5.39,-0.455,-0.1225,0.303902,-0.29768,-0.818254,-0.04172,0.26726,0.36764
-12.7856,0,0,17.7856,17.7856,5,5,22.4309,0.109185,-16.855,0.340849,0.071421,0.120258,0,0,5.74,-0.49,0.42,0.303902,-0.29768,-0.818254,-0.04172,0.26726,0.36764
-12.8756,0,0,17.8756,17.8756,5,5,22.5888,0.248048,-16.998,0.117686,-0.151725,0.0378034,0,0,6.055,-0.0525,0.6825,0.082228,-0.523136,-0.899018,-0.04172,0.26726,0.36764
-12.9641,0,0,17.9641,17.9641,5,5,22.744,0.383945,-17.138,0.115314,-0.149231,0.0367474,0,0,6.0725,0.21,1.155,0.082228,-0.523136,-0.899018,-0.04172,0.26726,0.36764
-13.0631,0,0,18.0631,18.0631,5,5,22.9178,0.270254,-17.132,-0.0486507,-0.0885439,0.129514,0,0,5.25,0.6125,1.4175,-0.084424,-0.465308,-0.80581,-0.04172,0.26726,0.36764
-13.1594,0,0,18.1594,18.1594,5,5,23.0866,0.158752,-17.1208,-0.0467047,-0.0858278,0.128369,0,0,4.4975,0.2275,1.5925,-0.084424,-0.465308,-0.80581,-0.05278,0.26656,0.35994
-13.1826,0,0,18.1826,18.1826,5,5,23.1274,0.025714,-17.1129,-0.0870242,-0.0503658,-0.0527641,0,0,4.27,0.3675,1.47,-0.127246,-0.430538,-0.985272,-0.05278,0.26656,0.35994
-13.2056,0,0,18.2056,18.2056,5,5,23.1678,-0.103265,-17.105,-0.0847731,-0.0497186,-0.0530424,0,0,4.69,0.595,1.47,-0.127246,-0.430538,-0.985272,-0.05278,0.26656,0.35994
-13.1151,0,0,18.1151,18.1151,5,5,23.009,-0.172812,-17.1528,-0.0675232,0.139714,-0.0647447,0,0,5.46,0.7875,1.4,-0.111142,-0.238754,-0.99796,-0.05278,0.26656,0.35994
-13.0265,0,0,18.0265,18.0265,5,5,22.8535,-0.241121,-17.2016,-0.066331,0.137214,-0.0636918,0,0,5.7225,0.42,0.5775,-0.111142,-0.238754,-0.99796,-0.05278,0.26656,0.35994
-13.0289,0,0,18.0289,18.0289,5,5,22.8577,-0.240771,-17.2014,0.0976686,-0.126514,-0.116465,1,0,5.95,0.1925,-0.175,0.053558,-0.502274,-1.0503,-0.05278,0.26656,0.35994
-13.0312,0,0,18.0312,18.0312,5,5,22.8618,-0.24042,-17.2011,0.0976625,-0.126447,-0.116493,1,0,5.95,0.1925,-0.175,0.053558,-0.502274,-1.0503,-0.05278,0.26656,0.35994
-13.0327,0,0,18.0327,18.0327,5,5,22.8644,-0.238675,-17.2014,0.0144143,-0.00122617,0.153731,1,0,5.0575,0.805,-0.8225,-0.030012,-0.377224,-0.782142,-0.05278,0.26656,0.35994
-13.0341,0,0,18.0341,18.0341,5,5,22.8669,-0.236929,-17.2017,0.0143839,-0.00118517,0.153714,1,0,5.0575,0.805,-0.8225,-0.030012,-0.377224,-0.782142,-0.04508,0.26082,0.35098
-13.0348,0,0,18.0348,18.0348,5,5,22.8681,-0.235793,-17.204,-0.0735916,0.00689473,0.14055,1,0,4.305,0.0175,-1.7675,-0.11834,-0.369172,-0.795196,-0.04508,0.26082,0.35098
-13.0355,0,0,18.0355,18.0355,5,5,22.8693,-0.234657,-17.2064,-0.0736114,0.00691427,0.140542,1,0,4.305,0.0175,-1.7675,-0.11834,-0.369172,-0.795196,-0.04508,0.26082,0.35098
-13.0369,0,0,18.0369,18.0369,5,5,22.8718,-0.233584,-17.2086,0.18562,-0.256107,0.0084787,1,0,5.005,0,-1.715,0.142008,-0.63196,-0.926224,-0.04508,0.26082,0.35098
-13.0773,0,0,18.0773,18.0773,5,5,22.9426,-0.715455,-16.9928,-0.312687,-0.000850316,0.0489984,0,0,5.67,0.14,-1.6275,-0.366854,-0.378078,-0.885476,-0.04508,0.26082,0.35098
-13.1155,0,0,18.1155,18.1155,5,5,23.0096,-1.1857,-16.7791,-0.30448,0.000172789,0.0484167,0,0,5.145,-0.0875,-1.5925,-0.366854,-0.378078,-0.885476,-0.04508,0.26082,0.35098
-13.1821,0,0,18.1821,18.1821,5,5,23.1266,-1.24352,-16.7906,-0.0262411,-0.109093,0.00554878,0,0,5.0225,-0.6125,-1.225,-0.08845,-0.489098,-0.9272,-0.04508,0.26082,0.35098
-13.2467,0,0,18.2467,18.2467,5,5,23.2398,-1.29921,-16.8006,-0.0252693,-0.107284,0.00475092,0,0,4.305,-0.1925,-0.4725,-0.08845,-0.489098,-0.9272,-0.04508,0.26082,0.35098
-13.2552,0,0,18.2552,18.2552,5,5,23.2547,-0.801171,-17.1153,0.301462,0.00500719,0.142005,0,0,4.4625,-0.3325,-0.21,0.248392,-0.377224,-0.791048,-0.04956,0.2548,0.34636
-13.2456,0,0,18.2456,18.2456,5,5,23.2379,-0.863013,-17.1275,-0.0451512,0.0024107,-0.0547337,0,0,4.9175,-0.0875,0.49,-0.100772,-0.379542,-0.98637,-0.04956,0.2548,0.34636
-13.2367,0,0,18.2367,18.2367,5,5,23.2223,-0.924098,-17.1384,-0.0440852,0.00215478,-0.0546419,0,0,5.5475,-0.245,1.3475,-0.100772,-0.379542,-0.98637,-0.04956,0.2548,0.34636
-13.239,0,0,18.239,18.239,5,5,23.2262,-0.925935,-17.1363,0.0877589,0.0252993,0.107746,1,0,5.845,-0.56,1.3125,0.031598,-0.356484,-0.825208,-0.04956,0.2548,0.34636
-13.2408,0,0,18.2408,18.2408,5,5,23.2295,-0.927098,-17.1338,0.0877792,0.0253519,0.107723,1,0,5.495,-0.1225,1.33,0.031598,-0.356484,-0.825208,-0.04956,0.2548,0.34636
-13.2424,0,0,18.2424,18.2424,5,5,23.2322,-0.927585,-17.1313,0.151082,-0.289936,0.00528774,1,0,5.18,0.2625,1.225,0.09516,-0.671488,-0.926834,-0.04956,0.2548,0.34636
-13.2436,0,0,18.2436,18.2436,5,5,23.2343,-0.928649,-17.1294,0.1511,-0.289903,0.00527316,1,0,4.8125,-0.21,0.98,0.09516,-0.671488,-0.926834,-0.04956,0.2548,0.34636
-13.3029,0,0,18.3029,18.3029,5,5,23.3384,-0.953564,-17.1432,-0.00408811,-0.078057,0.0470888,0,0,4.1825,0.1925,0.875,-0.061122,-0.461526,-0.884622,-0.04956,0.2548,0.34636
-13.3614,0,0,18.3614,18.3614,5,5,23.4411,-0.977596,-17.1653,-0.00366873,-0.0764157,0.0463712,0,0,4.4275,0.175,0.07,-0.061122,-0.461526,-0.884622,-0.05068,0.25998,0.35
-13.412,0,0,18.412,18.412,5,5,23.5298,-0.880892,-17.2555,0.0731234,-0.0729073,0.0486065,0,0,4.69,-0.21,-0.1575,0.01769,-0.459452,-0.881816,-0.05068,0.25998,0.35
-13.4623,0,0,18.4623,18.4623,5,5,23.618,-0.785804,-17.3456,0.071464,-0.0714875,0.0480134,0,0,5.1625,-0.0875,-0.875,0.01769,-0.459452,-0.881816,-0.05068,0.25998,0.35
-13.5531,0,0,18.5531,18.5531,5,5,23.7774,-0.781874,-17.3758,0.020007,-0.0940984,0.11587,0,0,5.5125,0.3325,-1.19,-0.033916,-0.484584,-0.813374,-0.05068,0.25998,0.35
-13.6417,0,0,18.6417,18.6417,5,5,23.9328,-0.777565,-17.4063,0.0199318,-0.0916169,0.114774,0,0,5.0225,0.14,-1.47,-0.033916,-0.484584,-0.813374,-0.05068,0.25998,0.35
-13.6533,0,0,18.6533,18.6533,5,5,23.9532,-0.763064,-17.4597,0.0106888,-0.0186254,-0.000200722,0,0,5.32,0.1225,-1.5575,-0.042944,-0.411994,-0.927322,-0.05068,0.25998,0.35
-13.6646,0,0,18.6646,18.6646,5,5,23.9731,-0.748695,-17.5127,0.010438,-0.0183072,-0.000338557,0,0,5.25,0.21,-1.6275,-0.042944,-0.411994,-0.927322,-0.05068,0.25998,0.35
-13.706,0,0,18.706,18.706,5,5,24.0456,-0.726937,-17.5611,0.0219639,-0.104225,-0.0580203,0,0,4.97,0.7175,-1.54,-0.030988,-0.49898,-0.984052,-0.05068,0.25998,0.35
-13.7469,0,0,18.7469,18.7469,5,5,24.1173,-0.705512,-17.6029,0.02159,-0.103081,-0.0585266,0,0,5.32,0.6475,-1.1725,-0.030988,-0.49898,-0.984052,-0.0455,0.25578,0.35616
-13.7475,0,0,18.7475,18.7475,5,5,24.1184,-0.984889,-17.4874,-0.172771,0.0532287,0.0575866,0,0,4.9525,0.5075,-0.6825,-0.231068,-0.34282,-0.868762,-0.0455,0.25578,0.35616
-13.7474,0,0,18.7474,18.7474,5,5,24.1182,-1.25784,-17.3721,-0.168008,0.0531881,0.0575027,0,0,4.76,0.245,-0.245,-0.231068,-0.34282,-0.868762,-0.0455,0.25578,0.35616
-13.5961,0,0,18.5961,18.5961,5,5,23.8528,-0.653228,-17.7717,0.382948,0.198145,-0.032788,0,0,5.0575,0.1925,0.2625,0.332816,-0.193858,-0.960384,-0.0455,0.25578,0.35616
-13.4468,0,0,18.4468,18.4468,5,5,23.5908,-0.0641781,-18.1706,0.372667,0.193985,-0.0308901,0,0,4.3925,0.385,0.7,0.332816,-0.193858,-0.960384,-0.0455,0.25578,0.35616
-13.4481,0,0,18.4481,18.4481,5,5,23.5931,-0.0642899,-18.168,0.0784309,-0.212049,-0.211394,1,0,4.9175,0.49,1.1725,0.037332,-0.599508,-1.13948,-0.0455,0.25578,0.35616
-13.4494,0,0,18.4494,18.4494,5,5,23.5954,-0.0644019,-18.1653,0.0784328,-0.212013,-0.211411,1,0,4.9175,0.49,1.1725,0.037332,-0.599508,-1.13948,-0.0455,0.25578,0.35616
-13.4512,0,0,18.4512,18.4512,5,5,23.5986,-0.0657117,-18.1631,0.321306,-0.424218,0.172781,1,0,5.4075,-0.245,1.2425,0.28121,-0.811544,-0.75823,-0.0455,0.25578,0.35616
-13.453,0,0,18.453,18.453,5,5,23.6018,-0.0670216,-18.1609,0.321328,-0.424168,0.172759,1,0,5.4075,-0.245,1.2425,0.28121,-0.811544,-0.75823,-0.0455,0.25578,0.35616
-13.5448,0,0,18.5448,18.5448,5,5,23.7629,-0.234504,-18.0991,-0.0850338,-0.0855033,0.106583,0,0,5.005,0.035,0.84,-0.129808,-0.4758,-0.822768,-0.04984,0.26194,0.35168
-13.5459,0,0,18.5459,18.5459,5,5,23.7648,-0.235271,-18.0985,0.180426,-0.0256305,0.163372,1,0,4.7075,-0.35,0.21,0.136762,-0.41602,-0.766404,-0.04984,0.26194,0.35168
-13.547,0,0,18.547,18.547,5,5,23.7667,-0.236039,-18.098,0.180439,-0.0255999,0.163358,1,0,4.7075,-0.35,0.21,0.136762,-0.41602,-0.766404,-0.04984,0.26194,0.35168
-13.6403,0,0,18.6403,18.6403,5,5,23.9304,-0.350479,-18.066,-0.0594414,-0.160261,-0.00255733,0,0,5.285,-0.8225,-0.875,-0.10614,-0.553148,-0.929884,-0.04984,0.26194,0.35168
-13.7317,0,0,18.7317,18.7317,5,5,24.0906,-0.461255,-18.0349,-0.0575081,-0.157712,-0.00370766,0,0,5.285,-0.8225,-0.875,-0.10614,-0.553148,-0.929884,-0.04984,0.26194,0.35168
-13.703,0,0,18.703,18.703,5,5,24.0403,-0.140595,-18.2662,0.22263,-0.00791952,-0.0689774,0,0,6.3175,-1.015,-1.4,0.180804,-0.402722,-0.995032,-0.04984,0.26194,0.35168
-13.6751,0,0,18.6751,18.6751,5,5,23.9915,0.171389,-18.4953,0.217185,-0.00869919,-0.0686316,0,0,6.3175,-1.015,-1.4,0.180804,-0.402722,-0.995032,-0.04984,0.26194,0.35168
-13.6759,0,0,18.6759,18.6759,5,5,23.9928,0.172589,-18.4978,-0.0463388,0.158391,0.112339,1,0,4.375,-0.0175,-1.8725,-0.083814,-0.235826,-0.815448,-0.04466,0.2639,0.35168
-13.7231,0,0,18.7231,18.7231,5,5,24.0756,0.329863,-18.6332,0.109334,-0.0545044,0.0864123,0,0,4.06,-0.385,-1.505,0.075274,-0.449814,-0.84058,-0.04466,0.2639,0.35168
-13.7696,0,0,18.7696,18.7696,5,5,24.1571,0.483264,-18.7667,0.106656,-0.0532131,0.0858134,0,0,4.06,-0.385,-1.505,0.075274,-0.449814,-0.84058,-0.04466,0.2639,0.35168
-13.7716,0,0,18.7716,18.7716,5,5,24.1607,0.483989,-18.7679,-0.06538,-0.0265323,0.165458,1,0,5.6525,0.035,-1.0675,-0.097478,-0.423218,-0.761524,-0.04466,0.2639,0.35168
-13.7737,0,0,18.7737,18.7737,5,5,24.1643,0.484714,-18.7691,-0.0653927,-0.026475,0.165432,1,0,5.6525,0.035,-1.0675,-0.097478,-0.423218,-0.761524,-0.04466,0.2639,0.35168
-13.7755,0,0,18.7755,18.7755,5,5,24.1675,0.484175,-18.7688,-0.0769244,-0.116555,-0.17946,1,0,5.39,-0.28,0.035,-0.109068,-0.513254,-1.10373,-0.04466,0.2639,0.35168
-13.7769,0,0,18.7769,18.7769,5,5,24.17,0.483705,-18.7678,-0.217597,-0.21104,-0.0887426,1,0,5.0575,-0.07,0.4025,-0.250344,-0.607682,-1.0137,-0.04466,0.2639,0.35168
-13.7781,0,0,18.7781,18.7781,5,5,24.1722,0.483546,-18.766,-0.217594,-0.211006,-0.088758,1,0,4.83,0.28,0.735,-0.250344,-0.607682,-1.0137,-0.04466,0.2639,0.35168
-13.8794,0,0,18.8794,18.8794,5,5,24.3498,0.80482,-18.9498,0.233828,-0.154591,0.12507,0,0,4.1825,0.1575,0.77,0.20862,-0.554124,-0.800198,-0.05138,0.2576,0.3514
-13.9804,0,0,18.9804,18.9804,5,5,24.527,1.11725,-19.1299,0.228376,-0.151814,0.123708,0,0,5.32,-0.35,0.9975,0.20862,-0.554124,-0.800198,-0.05138,0.2576,0.3514
-13.9825,0,0,18.9825,18.9825,5,5,24.5306,1.11654,-19.1278,0.250256,-0.0501472,-0.122092,1,0,5.635,0.0875,1.0675,0.23058,-0.45262,-1.04408,-0.05138,0.2576,0.3514
-13.9845,0,0,18.9845,18.9845,5,5,24.5342,1.11584,-19.1256,0.250268,-0.0500896,-0.122118,1,0,5.635,0.0875,1.0675,0.23058,-0.45262,-1.04408,-0.05138,0.2576,0.3514
-13.9867,0,0,18.9867,18.9867,5,5,24.5381,1.11465,-19.1244,-0.0473508,0.0234919,-0.231816,1,0,5.775,-0.42,0.6475,-0.06832,-0.379176,-1.1529,-0.05138,0.2576,0.3514
-13.9881,0,0,18.9881,18.9881,5,5,24.5406,1.11338,-19.1237,-0.19056,-0.306699,-0.109377,1,0,5.0225,-0.56,0.4375,-0.212158,-0.709064,-1.03139,-0.05138,0.2576,0.3514
-13.9899,0,0,18.9899,18.9899,5,5,24.5437,1.11351,-19.123,-0.190563,-0.306649,-0.109399,1,0,5.3725,0.175,0.0875,-0.212158,-0.709064,-1.03139,-0.05138,0.2576,0.3514
-14.0175,0,0,19.0175,19.0175,5,5,24.5921,1.38669,-19.3064,0.18407,-0.0494584,0.0567502,0,0,5.32,0.2625,0.1225,0.168848,-0.452864,-0.866078,-0.05138,0.2576,0.3514
-14.0463,0,0,19.0463,19.0463,5,5,24.6427,1.65054,-19.4964,0.179467,-0.0487068,0.0562715,0,0,6.3875,-0.1575,-0.28,0.168848,-0.452864,-0.866078,-0.04634,0.25942,0.34986
-14.0484,0,0,19.0484,19.0484,5,5,24.6463,1.65045,-19.4968,-0.357741,-0.0900502,-0.0904324,1,0,5.67,-0.21,-0.455,-0.370636,-0.494222,-1.01162,-0.04634,0.25942,0.34986
-14.0491,0,0,19.0491,19.0491,5,5,24.6475,1.6503,-19.4972,-0.357739,-0.0900318,-0.0904407,1,0,4.2875,-0.245,-0.4375,-0.370636,-0.494222,-1.01162,-0.04634,0.25942,0.34986
-14.0801,0,0,19.0801,19.0801,5,5,24.702,1.74162,-19.5966,0.0702418,-0.0604877,0.00981429,0,0,4.1475,-0.2275,-0.4725,0.060756,-0.465552,-0.911706,-0.04634,0.25942,0.34986
-14.111,0,0,19.111,19.111,5,5,24.7562,1.83048,-19.6948,0.0686916,-0.0596489,0.00937475,0,0,4.445,-0.3675,-0.455,0.060756,-0.465552,-0.911706,-0.04634,0.25942,0.34986
-14.0785,0,0,19.0785,19.0785,5,5,24.6992,2.08288,-19.9001,0.153216,0.0450239,0.0357195,0,0,4.8125,-0.6825,-0.455,0.15006,-0.360022,-0.885842,-0.04634,0.25942,0.34986
-14.0473,0,0,19.0473,19.0473,5,5,24.6443,2.3292,-20.1027,0.148921,0.0440861,0.0359682,0,0,5.18,-0.07,-0.2975,0.15006,-0.360022,-0.885842,-0.04634,0.25942,0.34986
-14.0492,0,0,19.0492,19.0492,5,5,24.6477,2.32882,-20.1028,0.139573,-0.00568835,0.2034,1,0,5.5125,-0.28,-0.1925,0.140666,-0.409798,-0.719678,-0.04634,0.25942,0.34986
-14.0505,0,0,19.0505,19.0505,5,5,24.6499,2.32888,-20.1024,0.139572,-0.00565271,0.203383,1,0,4.8825,0.07,-0.0525,0.140666,-0.409798,-0.719678,-0.0455,0.25788,0.3486
-14.0834,0,0,19.0834,19.0834,5,5,24.7078,1.94755,-19.9508,-0.26367,-0.0316227,-0.0411106,0,0,4.7775,0.07,0,-0.270962,-0.43676,-0.962092,-0.0455,0.25788,0.3486
-14.1144,0,0,19.1144,19.1144,5,5,24.7621,1.57567,-19.8007,-0.257183,-0.0306775,-0.0413264,0,0,4.235,-0.035,0.105,-0.270962,-0.43676,-0.962092,-0.0455,0.25788,0.3486
-14.0835,0,0,19.0835,19.0835,5,5,24.7079,1.83397,-20.001,0.171772,0.0140824,-0.0272821,0,0,4.515,-0.035,-0.0175,0.164334,-0.391132,-0.948428,-0.0455,0.25788,0.3486
-14.0547,0,0,19.0547,19.0547,5,5,24.6573,2.08454,-20.1999,0.167401,0.0132185,-0.0270496,0,0,5.7225,-0.5425,-0.1575,0.164334,-0.391132,-0.948428,-0.0455,0.25788,0.3486
-14.0834,0,0,19.0834,19.0834,5,5,24.7078,2.22755,-20.3241,0.102342,-0.0479397,0.0331114,0,0,5.74,-0.3675,-0.1575,0.101504,-0.452986,-0.888282,-0.0455,0.25788,0.3486
-14.1117,0,0,19.1117,19.1117,5,5,24.7574,2.36752,-20.4468,0.099901,-0.0471952,0.0326606,0,0,5.6,-0.07,-0.2975,0.101504,-0.452986,-0.888282,-0.0455,0.25788,0.3486
-14.1132,0,0,19.1132,19.1132,5,5,24.76,2.36684,-20.4473,0.0652893,0.119672,0.104935,1,0,5.1275,-0.5425,-0.35,0.066734,-0.286334,-0.816546,-0.0455,0.25788,0.3486
-14.1144,0,0,19.1144,19.1144,5,5,24.762,2.36683,-20.4479,0.0652897,0.119704,0.104921,1,0,4.7775,-0.21,-0.5425,0.066734,-0.286334,-0.816546,-0.0455,0.25788,0.3486
-14.1158,0,0,19.1158,19.1158,5,5,24.7646,2.36722,-20.448,-0.116338,-0.090069,0.208301,1,0,5.075,0.1225,-0.4025,-0.115656,-0.49593,-0.713944,-0.0406,0.26362,0.34846
-14.0808,0,0,19.0808,19.0808,5,5,24.7031,2.30576,-20.5011,-0.0522154,0.0238969,-0.114811,0,0,4.725,-0.035,-0.42,-0.052338,-0.381128,-1.03505,-0.0406,0.26362,0.34846
-14.0465,0,0,19.0465,19.0465,5,5,24.643,2.246,-20.5538,-0.0511732,0.0229619,-0.114336,0,0,4.9175,0.1575,-0.525,-0.052338,-0.381128,-1.03505,-0.0406,0.26362,0.34846
-14.0476,0,0,19.0476,19.0476,5,5,24.6449,2.24595,-20.5542,-0.220645,-0.271334,-0.158488,1,0,4.6725,-0.1925,-0.4725,-0.222528,-0.675148,-1.07885,-0.0406,0.26362,0.34846
-14.0485,0,0,19.0485,19.0485,5,5,24.6466,2.24691,-20.5539,-0.220662,-0.271308,-0.1585,1,0,4.5675,0.525,-0.315,-0.222528,-0.675148,-1.07885,-0.0406,0.26362,0.34846
-14.0497,0,0,19.0497,19.0497,5,5,24.6486,2.24707,-20.5539,0.124598,0.119531,-0.149909,1,0,4.795,0.0175,-0.2975,0.124196,-0.284748,-1.07031,-0.0406,0.26362,0.34846
-14.0507,0,0,19.0507,19.0507,5,5,24.6504,2.24694,-20.5537,0.1246,0.119558,-0.149922,1,0,4.6025,-0.07,-0.0875,0.124196,-0.284748,-1.07031,-0.0406,0.26362,0.34846
-14.0523,0,0,19.0523,19.0523,5,5,24.6532,2.2467,-20.5538,-0.157243,0.171263,0.0941105,1,0,5.215,-0.2275,-0.28,-0.158844,-0.233142,-0.828136,-0.0406,0.26362,0.34846
-14.0535,0,0,19.0535,19.0535,5,5,24.6552,2.2474,-20.5531,-0.157255,0.171294,0.0940954,1,0,4.7425,0.49,-0.0175,-0.158844,-0.233142,-0.828136,-0.04228,0.25844,0.34776
-14.0995,0,0,19.0995,19.0995,5,5,24.7359,2.39309,-20.6733,0.116342,-0.0966373,0.00796462,0,0,4.655,0.2275,0.2625,0.118462,-0.50203,-0.912926,-0.04228,0.25844,0.34776
-14.1446,0,0,19.1446,19.1446,5,5,24.815,2.5355,-20.7917,0.113858,-0.0954298,0.00728961,0,0,4.3925,0.4025,0.315,0.118462,-0.50203,-0.912926,-0.04228,0.25844,0.34776
-14.1453,0,0,19.1453,19.1453,5,5,24.8164,2.53569,-20.7909,0.296084,-0.18334,0.0129353,1,0,4.3575,0.245,0.14,0.301462,-0.58987,-0.907314,-0.04228,0.25844,0.34776
-14.1465,0,0,19.1465,19.1465,5,5,24.8184,2.53577,-20.79,0.296082,-0.183308,0.0129207,1,0,4.725,0.21,0.2275,0.301462,-0.58987,-0.907314,-0.04228,0.25844,0.34776
-14.0528,0,0,19.0528,19.0528,5,5,24.6541,2.61849,-20.9285,0.0242128,0.159193,0.0391417,0,0,4.7775,0.0525,0.315,0.02989,-0.245098,-0.882426,-0.04228,0.25844,0.34776
-13.962,0,0,18.962,18.962,5,5,24.4948,2.69791,-21.0666,0.0228282,0.156641,0.0402382,0,0,5.74,-0.3325,0.2275,0.02989,-0.245098,-0.882426,-0.04228,0.25844,0.34776
-13.9496,0,0,18.9496,18.9496,5,5,24.473,2.64453,-21.1001,-0.0443946,0.00939491,-0.0515304,0,0,5.0575,4.3225,-0.035,-0.038552,-0.391864,-0.973682,-0.04228,0.25844,0.34776
-13.9374,0,0,18.9374,18.9374,5,5,24.4516,2.59211,-21.1275,-0.0434808,0.00907293,-0.0513381,0,0,5.0575,4.3225,-0.035,-0.038552,-0.391864,-0.973682,-0.04592,0.2583,0.35448
-13.939,0,0,18.939,18.939,5,5,24.4544,2.59861,-21.1238,-0.0772455,0.120005,0.224534,1,0,5.0575,4.2875,0.1225,-0.072346,-0.281088,-0.699914,-0.04592,0.2583,0.35448
-13.9405,0,0,18.9405,18.9405,5,5,24.4571,2.6051,-21.1201,-0.0773588,0.120046,0.22451,1,0,5.0575,4.2875,0.1225,-0.072346,-0.281088,-0.699914,-0.04592,0.2583,0.35448
-13.9422,0,0,18.9422,18.9422,5,5,24.46,2.60508,-21.1203,-0.143933,0.108001,0.280185,1,0,5.25,-0.1225,-0.35,-0.139202,-0.293166,-0.644648,-0.04592,0.2583,0.35448
-13.9438,0,0,18.9438,18.9438,5,5,24.4628,2.60505,-21.1205,-0.143932,0.108047,0.280164,1,0,5.25,-0.1225,-0.35,-0.139202,-0.293166,-0.644648,-0.04592,0.2583,0.35448
-13.9079,0,0,18.9079,18.9079,5,5,24.3997,2.63828,-21.208,0.0117192,0.0574508,-0.00427688,0,0,4.62,0.035,-0.6125,0.01769,-0.342698,-0.927322,-0.04592,0.2583,0.35448
-13.8726,0,0,18.8726,18.8726,5,5,24.3379,2.67039,-21.2947,0.0111594,0.0564588,-0.00385601,0,0,4.62,0.035,-0.6125,0.01769,-0.342698,-0.927322,-0.04592,0.2583,0.35448
-13.8736,0,0,18.8736,18.8736,5,5,24.3396,2.67043,-21.2954,-0.0182409,0.48002,0.0614178,1,0,4.5675,-0.21,-0.63,-0.011834,0.080398,-0.86254,-0.04592,0.2583,0.35448
-13.8745,0,0,18.8745,18.8745,5,5,24.3412,2.67047,-21.2961,-0.0182415,0.480046,0.061406,1,0,4.5675,-0.21,-0.63,-0.011834,0.080398,-0.86254,-0.0469,0.2569,0.35126
-13.8104,0,0,18.8104,18.8104,5,5,24.2288,2.42546,-21.2459,-0.173237,0.149572,0.0359517,0,0,5.355,0.0175,-0.875,-0.171776,-0.248026,-0.88877,-0.0469,0.2569,0.35126
-13.7471,0,0,18.7471,18.7471,5,5,24.1178,2.186,-21.1953,-0.169061,0.147875,0.0368977,0,0,5.355,0.0175,-0.875,-0.171776,-0.248026,-0.88877,-0.0469,0.2569,0.35126
-13.7485,0,0,18.7485,18.7485,5,5,24.1203,2.18614,-21.196,0.3611,-0.313969,-0.0284056,1,0,5.0225,-0.1575,-0.665,0.360632,-0.70943,-0.953552,-0.0469,0.2569,0.35126
-13.7499,0,0,18.7499,18.7499,5,5,24.1227,2.18628,-21.1968,0.361097,-0.31393,-0.0284232,1,0,5.0225,-0.1575,-0.665,0.360632,-0.70943,-0.953552,-0.0469,0.2569,0.35126
-13.901,0,0,18.901,18.901,5,5,24.3878,2.16988,-21.1793,0.0231672,-0.190026,0.143783,0,0,4.3575,0.175,-0.455,0.020984,-0.58987,-0.7808,-0.0469,0.2569,0.35126
-14.0492,0,0,19.0492,19.0492,5,5,24.6478,2.155,-21.1624,0.0234267,-0.185896,0.14191,0,0,4.3575,0.175,-0.455,0.020984,-0.58987,-0.7808,-0.0469,0.2569,0.35126
-14.0505,0,0,19.0505,19.0505,5,5,24.65,2.15473,-21.1612,-0.152723,-0.0901144,-0.288303,1,0,4.83,0.07,0.42,-0.155916,-0.494222,-1.20768,-0.0469,0.2569,0.35126
-14.0517,0,0,19.0517,19.0517,5,5,24.6522,2.15446,-21.1601,-0.152718,-0.0900797,-0.288318,1,0,4.83,0.07,0.42,-0.155916,-0.494222,-1.20768,-0.0497,0.2618,0.3479
-14.0533,0,0,19.0533,19.0533,5,5,24.6549,2.15387,-21.159,0.199844,0.00253552,-0.239896,1,0,5.1275,-0.105,0.4725,0.198128,-0.401746,-1.15961,-0.0497,0.2618,0.3479
-14.0548,0,0,19.0548,19.0548,5,5,24.6576,2.15329,-21.1579,0.199854,0.00257866,-0.239915,1,0,5.1275,-0.105,0.4725,0.198128,-0.401746,-1.15961,-0.0497,0.2618,0.3479
-14.0563,0,0,19.0563,19.0563,5,5,24.6601,2.15268,-21.1569,-0.0890285,-0.211347,-0.185836,1,0,5.04,-0.1575,0.4025,-0.091988,-0.61549,-1.10593,-0.0497,0.2618,0.3479
-14.0577,0,0,19.0577,19.0577,5,5,24.6627,2.15206,-21.1559,-0.0890178,-0.211306,-0.185854,1,0,5.04,-0.1575,0.4025,-0.091988,-0.61549,-1.10593,-0.0497,0.2618,0.3479
-13.9793,0,0,18.9793,18.9793,5,5,24.525,2.02821,-21.1713,-0.109697,0.113111,-0.119375,0,0,5.285,0.2275,0.63,-0.114924,-0.289262,-1.04103,-0.0497,0.2618,0.3479
-13.9021,0,0,18.9021,18.9021,5,5,24.3897,1.90692,-21.1861,-0.107581,0.110992,-0.118331,0,0,5.285,0.2275,0.63,-0.114924,-0.289262,-1.04103,-0.0497,0.2618,0.3479
-13.9304,0,0,18.9304,18.9304,5,5,24.4393,1.85132,-21.2041,-0.0260664,-0.0367131,0.0111734,0,0,4.8125,-4.375,0,-0.034038,-0.437614,-0.912194,-0.0497,0.2618,0.3479
-13.958,0,0,18.958,18.958,5,5,24.4877,1.79767,-21.2189,-0.0251305,-0.0359327,0.010851,0,0,4.8125,-4.375,0,-0.034038,-0.437614,-0.912194,-0.04648,0.2583,0.34748
-13.7532,0,0,18.7532,18.7532,5,5,24.1285,1.73021,-21.3005,-0.0978169,0.333056,-0.0738299,0,0,4.48,0.07,-0.2625,-0.108214,-0.063318,-0.998814,-0.04648,0.2583,0.34748
-13.552,0,0,18.552,18.552,5,5,23.7755,1.66316,-21.3815,-0.0966472,0.327443,-0.0712984,0,0,4.48,0.07,-0.2625,-0.108214,-0.063318,-0.998814,-0.04648,0.2583,0.34748
-13.3948,0,0,18.3948,18.3948,5,5,23.4997,2.02016,-21.6735,0.207643,0.213651,-0.0528317,0,0,4.8475,0.4025,-0.8925,0.203618,-0.172508,-0.982222,-0.04648,0.2583,0.34748
-13.2406,0,0,18.2406,18.2406,5,5,23.2291,2.3674,-21.9654,0.201587,0.209227,-0.0511732,0,0,4.8475,0.4025,-0.8925,0.203618,-0.172508,-0.982222,-0.04648,0.2583,0.34748
-13.3645,0,0,18.3645,18.3645,5,5,23.4464,2.32638,-21.9486,0.00100014,-0.149998,0.118497,0,0,4.97,-0.1925,-0.5425,0.001464,-0.534848,-0.812398,-0.04648,0.2583,0.34748
-13.4858,0,0,18.4858,18.4858,5,5,23.6594,2.28732,-21.9324,0.00168135,-0.146583,0.117038,0,0,4.97,-0.1925,-0.5425,0.001464,-0.534848,-0.812398,-0.04648,0.2583,0.34748
-13.4751,0,0,18.4751,18.4751,5,5,23.6405,2.44979,-22.072,0.118026,-0.0222398,-0.0538357,0,0,5.0925,0.5075,-0.5075,0.121146,-0.410286,-0.981978,-0.04648,0.2583,0.34748
-13.4648,0,0,18.4648,18.4648,5,5,23.6224,2.60799,-22.2102,0.115267,-0.022578,-0.0538207,0,0,5.0925,0.5075,-0.5075,0.121146,-0.410286,-0.981978,-0.04648,0.2583,0.34748
-13.5376,0,0,18.5376,18.5376,5,5,23.7502,2.579,-22.214,0.000968656,-0.128366,0.000386047,0,0,4.6725,-0.3325,0.035,0.005856,-0.518012,-0.927322,-0.0462,0.25578,0.3465
-13.5003,0,0,18.5003,18.5003,5,5,23.6847,2.95184,-22.4712,0.247159,0.0325251,0.0298193,0,0,4.76,-0.455,0.105,0.259616,-0.356118,-0.898286,-0.0462,0.25578,0.3465
-13.4642,0,0,18.4642,18.4642,5,5,23.6213,3.3156,-22.7255,0.24082,0.0313739,0.0299446,0,0,4.83,0.035,0.175,0.259616,-0.356118,-0.898286,-0.0462,0.25578,0.3465
-13.547,0,0,18.547,18.547,5,5,23.7667,3.12588,-22.6441,-0.108061,-0.081641,0.0747107,0,0,4.6375,-0.175,0.14,-0.094062,-0.471408,-0.853024,-0.0462,0.25578,0.3465
-13.628,0,0,18.628,18.628,5,5,23.9088,2.9416,-22.5646,-0.104849,-0.0793071,0.0738656,0,0,4.795,-0.245,-0.1225,-0.094062,-0.471408,-0.853024,-0.0462,0.25578,0.3465
-13.5191,0,0,18.5191,18.5191,5,5,23.7177,3.0522,-22.7161,0.0510328,0.146714,-0.0832392,0,0,4.6375,-0.35,-0.175,0.064416,-0.242536,-1.01016,-0.0462,0.25578,0.3465
-13.4115,0,0,18.4115,18.4115,5,5,23.529,3.16031,-22.8666,0.0491487,0.143661,-0.0820156,0,0,3.92,0.28,-0.2275,0.064416,-0.242536,-1.01016,-0.0462,0.25578,0.3465
-13.6036,0,0,18.6036,18.6036,5,5,23.8659,3.21285,-22.8588,0.0855292,-0.27342,0.164549,0,0,4.3925,0.385,-0.35,0.10187,-0.664534,-0.76311,-0.0462,0.25578,0.3465
-13.792,0,0,18.792,18.792,5,5,24.1965,3.26562,-22.8494,0.0846097,-0.268181,0.162156,0,0,4.5325,-0.245,-0.5425,0.10187,-0.664534,-0.76311,-0.0441,0.25494,0.35644
-13.8763,0,0,18.8763,18.8763,5,5,24.3443,3.22848,-22.8399,-0.00209124,-0.136607,0.0221986,0,0,4.8825,-0.4725,-0.56,0.014152,-0.535458,-0.90097,-0.0441,0.25494,0.35644
-13.959,0,0,18.959,18.959,5,5,24.4894,3.19411,-22.8307,-0.0014923,-0.134291,0.0211839,0,0,5.04,0.1925,-0.805,0.014152,-0.535458,-0.90097,-0.0441,0.25494,0.35644
-13.9605,0,0,18.9605,18.9605,5,5,24.4921,3.19515,-22.8313,0.0911831,-0.0897952,-0.0787932,1,0,5.1275,0.3325,-0.8575,0.107238,-0.49105,-1.00016,-0.0441,0.25494,0.35644
-13.9618,0,0,18.9618,18.9618,5,5,24.4943,3.19549,-22.8326,0.0911771,-0.0897591,-0.07881,1,0,4.9525,-0.1925,-1.015,0.107238,-0.49105,-1.00016,-0.0441,0.25494,0.35644
-13.9356,0,0,18.9356,18.9356,5,5,24.4485,2.96851,-22.7698,-0.165211,0.0638477,-0.0308269,0,0,4.585,-0.21,-0.6825,-0.154208,-0.336964,-0.953064,-0.0441,0.25494,0.35644
-13.9092,0,0,18.9092,18.9092,5,5,24.4021,2.7475,-22.7062,-0.161358,0.0631912,-0.0303175,0,0,4.1825,0.315,-0.3675,-0.154208,-0.336964,-0.953064,-0.0441,0.25494,0.35644
-13.9099,0,0,18.9099,18.9099,5,5,24.4034,2.74839,-22.7059,0.0773456,0.0999714,-0.22225,1,0,4.34,0.49,-0.2975,0.085522,-0.300242,-1.14351,-0.0441,0.25494,0.35644
-13.9112,0,0,18.9112,18.9112,5,5,24.4056,2.74764,-22.7051,0.0773587,0.100007,-0.222266,1,0,4.865,-0.28,0.3325,0.085522,-0.300242,-1.14351,-0.0469,0.2562,0.35532
-13.9126,0,0,18.9126,18.9126,5,5,24.4081,2.74673,-22.7036,-0.01131,-0.00266155,0.124924,1,0,4.9875,-0.1925,0.7525,-0.003538,-0.402844,-0.798978,-0.0469,0.2562,0.35532
-13.9143,0,0,18.9143,18.9143,5,5,24.4111,2.74588,-22.7017,-0.0112953,-0.00261445,0.124903,1,0,5.2325,-0.0525,0.9625,-0.003538,-0.402844,-0.798978,-0.0469,0.2562,0.35532
-13.9751,0,0,18.9751,18.9751,5,5,24.5177,2.60005,-22.6382,-0.0861392,-0.0809877,0.014448,0,0,4.9525,0,0.7,-0.081252,-0.482876,-0.907924,-0.0469,0.2562,0.35532
-14.0338,0,0,19.0338,19.0338,5,5,24.6208,2.45827,-22.5754,-0.083667,-0.0793084,0.0138003,0,0,4.375,0.035,0.875,-0.081252,-0.482876,-0.907924,-0.0469,0.2562,0.35532
-14.0345,0,0,19.0345,19.0345,5,5,24.622,2.45809,-22.5735,0.100873,0.246789,0.181985,1,0,4.2525,0.315,0.8225,0.104066,-0.157136,-0.741028,-0.0469,0.2562,0.35532
-14.0351,0,0,19.0351,19.0351,5,5,24.623,2.45776,-22.5723,0.100879,0.246805,0.181978,1,0,4.165,0.0525,0.455,0.104066,-0.157136,-0.741028,-0.0469,0.2562,0.35532
-13.9831,0,0,18.9831,18.9831,5,5,24.5318,2.3713,-22.5822,-0.0743754,0.0684241,-0.0914779,0,0,4.095,0.0875,0.3675,-0.073444,-0.333914,-1.01309,-0.0469,0.2562,0.35532
-13.9324,0,0,18.9324,18.9324,5,5,24.4429,2.28761,-22.6037,-0.0729159,0.0670373,-0.0907811,0,0,4.795,-0.2975,-0.1925,-0.073444,-0.333914,-1.01309,-0.04438,0.26124,0.35476
-13.8069,0,0,18.8069,18.8069,5,5,24.2227,2.55158,-22.8348,0.153911,0.16458,-0.0629425,0,0,5.0225,-0.3325,-0.5075,0.158966,-0.232898,-0.986858,-0.04438,0.26124,0.35476
-13.6839,0,0,18.6839,18.6839,5,5,24.0069,2.80776,-23.0658,0.149445,0.161061,-0.0615963,0,0,5.005,-0.6825,-0.77,0.158966,-0.232898,-0.986858,-0.04438,0.26124,0.35476
-13.6206,0,0,18.6206,18.6206,5,5,23.8959,2.51145,-22.9869,-0.221266,0.142658,-0.0125181,0,0,4.8825,-0.1575,-1.155,-0.218502,-0.249612,-0.939156,-0.04438,0.26124,0.35476
-13.5579,0,0,18.5579,18.5579,5,5,23.7858,2.22208,-22.9078,-0.21622,0.140987,-0.0115518,0,0,4.7775,-0.0175,-1.435,-0.218502,-0.249612,-0.939156,-0.04438,0.26124,0.35476
-13.5858,0,0,18.5858,18.5858,5,5,23.8347,2.32053,-22.9926,0.066097,-0.0140942,0.0919331,0,0,5.0925,0.1575,-1.3825,0.066734,-0.405284,-0.836066,-0.04438,0.26124,0.35476
-13.6128,0,0,18.6128,18.6128,5,5,23.8821,2.41612,-23.076,0.06443,-0.0133673,0.0915362,0,0,4.5675,-0.035,-1.05,0.066734,-0.405284,-0.836066,-0.04438,0.26124,0.35476
-13.7224,0,0,18.7224,18.7224,5,5,24.0744,2.12382,-22.9219,-0.17563,-0.114882,0.0818739,0,0,4.6725,0.1575,-0.805,-0.179462,-0.509838,-0.844484,-0.04438,0.26124,0.35476
-13.8291,0,0,18.8291,18.8291,5,5,24.2616,1.83829,-22.7661,-0.17065,-0.111833,0.0806946,0,0,4.41,-0.1575,-0.4725,-0.179462,-0.509838,-0.844484,-0.04746,0.26026,0.35546
-13.8253,0,0,18.8253,18.8253,5,5,24.2549,2.14036,-22.9547,0.205425,-0.0107723,0.0463962,0,0,4.55,-0.2625,0.2625,0.203496,-0.4087,-0.8784,-0.04746,0.26026,0.35546
-13.8223,0,0,18.8223,18.8223,5,5,24.2496,2.43421,-23.1406,0.2003,-0.0109405,0.0462475,0,0,4.8475,-0.385,0.595,0.203496,-0.4087,-0.8784,-0.04746,0.26026,0.35546
-13.7665,0,0,18.7665,18.7665,5,5,24.1518,2.25169,-23.1056,-0.14263,0.104311,-0.0496951,0,0,4.9875,-0.0875,0.7,-0.144082,-0.292068,-0.974414,-0.04746,0.26026,0.35546
-13.7115,0,0,18.7115,18.7115,5,5,24.0553,2.07323,-23.0703,-0.139517,0.102823,-0.0489006,0,0,4.9875,-0.0875,0.7,-0.144082,-0.292068,-0.974414,-0.04746,0.26026,0.35546
-13.7118,0,0,18.7118,18.7118,5,5,24.0559,2.07314,-23.0687,0.0481798,-0.0510485,-0.0947642,1,0,3.9025,0.2625,0.6125,0.044408,-0.445788,-1.01992,-0.04746,0.26026,0.35546
-13.7121,0,0,18.7121,18.7121,5,5,24.0564,2.07304,-23.0671,0.0481815,-0.0510398,-0.094768,1,0,3.9025,0.2625,0.6125,0.044408,-0.445788,-1.01992,-0.04746,0.26026,0.35546
-13.7215,0,0,18.7215,18.7215,5,5,24.0727,2.17398,-23.1481,0.0680455,-0.00549715,0.0493977,0,0,4.305,0.14,0.28,0.066124,-0.400526,-0.876692,-0.04746,0.26026,0.35546
-13.7308,0,0,18.7308,18.7308,5,5,24.0891,2.2723,-23.2313,0.0663307,-0.00526364,0.0492204,0,0,4.305,0.14,0.28,0.066124,-0.400526,-0.876692,-0.04662,0.25998,0.34622
-13.7318,0,0,18.7318,18.7318,5,5,24.0909,2.27244,-23.2315,-0.0830991,-0.464554,-0.15292,1,0,4.6375,-0.035,-0.385,-0.083936,-0.859368,-1.07726,-0.04662,0.25998,0.34622
-13.7328,0,0,18.7328,18.7328,5,5,24.0927,2.27257,-23.2317,-0.0831015,-0.464525,-0.152933,1,0,4.6375,-0.035,-0.385,-0.083936,-0.859368,-1.07726,-0.04662,0.25998,0.34622
-13.7681,0,0,18.7681,18.7681,5,5,24.1545,2.31091,-23.2749,0.035529,-0.0561372,0.0221727,0,0,4.4975,0.07,-0.63,0.035868,-0.452376,-0.903044,-0.04662,0.25998,0.34622
-13.8027,0,0,18.8027,18.8027,5,5,24.2153,2.34851,-23.3175,0.0348731,-0.0551811,0.0217141,0,0,4.4975,0.07,-0.63,0.035868,-0.452376,-0.903044,-0.04662,0.25998,0.34622
-13.7,0,0,18.7,18.7,5,5,24.0352,2.41377,-23.4313,0.0198859,0.137946,-0.0956903,0,0,3.955,0.63,-1.2775,0.02196,-0.256566,-1.02077,-0.04662,0.25998,0.34622
-13.5994,0,0,18.5994,18.5994,5,5,23.8585,2.47673,-23.5444,0.0187879,0.135111,-0.0944829,0,0,3.955,0.63,-1.2775,0.02196,-0.256566,-1.02077,-0.04662,0.25998,0.34622
-13.6351,0,0,18.6351,18.6351,5,5,23.9212,2.37777,-23.5176,-0.0601528,-0.032272,0.0337453,0,0,4.41,0.07,-0.5775,-0.059048,-0.424804,-0.893162,-0.04662,0.25998,0.34622
-13.6699,0,0,18.6699,18.6699,5,5,23.9824,2.28153,-23.4911,-0.0584745,-0.0312698,0.0333748,0,0,4.41,0.07,-0.5775,-0.059048,-0.424804,-0.893162,-0.04662,0.25998,0.34622
-13.6709,0,0,18.6709,18.6709,5,5,23.9841,2.28158,-23.4903,0.0185464,-0.0109697,-0.135323,1,0,4.5675,0.1575,0.1575,0.0183,-0.404552,-1.06055,-0.04732,0.26026,0.35448
-13.86,0,0,18.86,18.86,5,5,24.3157,1.93664,-23.2702,-0.190588,-0.225673,0.144434,0,0,4.41,-4.4625,0.77,-0.197762,-0.624396,-0.7808,-0.04732,0.26026,0.35448
-14.0445,0,0,19.0445,19.0445,5,5,24.6396,1.60125,-23.0552,-0.184738,-0.220457,0.142258,0,0,4.41,-4.4625,0.77,-0.197762,-0.624396,-0.7808,-0.04732,0.26026,0.35448
-13.9423,0,0,18.9423,18.9423,5,5,24.4601,1.81184,-23.2266,0.133526,0.113232,-0.119036,0,0,4.27,0.2975,0.805,0.125538,-0.288164,-1.04127,-0.04732,0.26026,0.35448
-13.8421,0,0,18.8421,18.8421,5,5,24.2845,2.01653,-23.3973,0.129955,0.110391,-0.117881,0,0,4.27,0.2975,0.805,0.125538,-0.288164,-1.04127,-0.04732,0.26026,0.35448
-13.814,0,0,18.814,18.814,5,5,24.2351,1.88074,-23.3668,-0.106153,0.0364857,-0.0819213,0,0,4.0075,0.105,0.49,-0.113948,-0.361242,-1.00601,-0.04732,0.26026,0.35448
-13.7862,0,0,18.7862,18.7862,5,5,24.1862,1.74811,-23.3364,-0.103839,0.0357385,-0.0815049,0,0,4.0075,0.105,0.49,-0.113948,-0.361242,-1.00601,-0.04732,0.26026,0.35448
-13.7872,0,0,18.7872,18.7872,5,5,24.188,1.74888,-23.3358,0.106075,0.0161043,-0.177787,1,0,4.62,0.49,-0.1225,0.096868,-0.380884,-1.10154,-0.04732,0.26026,0.35448
-13.7882,0,0,18.7882,18.7882,5,5,24.1898,1.74965,-23.3352,0.106061,0.0161325,-0.1778,1,0,4.62,0.49,-0.1225,0.096868,-0.380884,-1.10154,-0.04704,0.25718,0.3535
-13.7895,0,0,18.7895,18.7895,5,5,24.192,1.75012,-23.3363,-0.110313,0.0454783,0.196931,1,0,4.9,-0.07,-0.945,-0.120414,-0.351604,-0.729682,-0.04704,0.25718,0.3535
-13.7884,0,0,18.7884,18.7884,5,5,24.1901,1.65252,-23.3095,-0.0687628,0.00931853,-0.012882,0,0,3.535,-0.385,-1.12,-0.080398,-0.387716,-0.937936,-0.04704,0.25718,0.3535
-13.7872,0,0,18.7872,18.7872,5,5,24.1881,1.55858,-23.283,-0.0671239,0.00930482,-0.0128255,0,0,3.64,0.28,-1.4175,-0.080398,-0.387716,-0.937936,-0.04704,0.25718,0.3535
-13.7869,0,0,18.7869,18.7869,5,5,24.1875,1.56038,-23.2845,0.127465,-0.380289,0.0266441,1,0,3.3425,0.525,-1.505,0.115046,-0.776896,-0.898774,-0.04704,0.25718,0.3535
-13.7876,0,0,18.7876,18.7876,5,5,24.1888,1.56183,-23.2866,0.12744,-0.380268,0.0266342,1,0,4.3925,0.21,-1.715,0.115046,-0.776896,-0.898774,-0.04704,0.25718,0.3535
-13.8303,0,0,18.8303,18.8303,5,5,24.2637,1.23999,-23.1233,-0.223263,-0.0359662,-0.00463684,0,0,3.745,0.175,-1.4175,-0.24278,-0.434198,-0.929396,-0.04704,0.25718,0.3535
-13.8726,0,0,18.8726,18.8726,5,5,24.338,0.924673,-22.9601,-0.21776,-0.0347421,-0.00507552,0,0,4.8825,-0.2275,-0.2625,-0.24278,-0.434198,-0.929396,-0.04704,0.25718,0.3535
-13.8736,0,0,18.8736,18.8736,5,5,24.3396,0.924868,-22.9595,0.0362629,0.171434,-0.165166,1,0,4.5325,0.1925,0.035,0.012322,-0.228262,-1.08824,-0.05166,0.26754,0.36134
-13.8743,0,0,18.8743,18.8743,5,5,24.341,0.92415,-22.959,0.239035,-0.00782666,-0.0738251,1,0,4.3925,-0.315,0.21,0.21594,-0.407358,-0.997594,-0.05166,0.26754,0.36134
-13.8749,0,0,18.8749,18.8749,5,5,24.3419,0.923157,-22.9572,0.239052,-0.00781192,-0.0738314,1,0,4.13,-0.1575,0.945,0.21594,-0.407358,-0.997594,-0.05166,0.26754,0.36134
-13.8974,0,0,18.8974,18.8974,5,5,24.3814,0.7988,-22.9061,-0.0801071,-0.0147424,0.0175106,0,0,3.9725,0.14,1.12,-0.10675,-0.414922,-0.906704,-0.05166,0.26754,0.36134
-13.919,0,0,18.919,18.919,5,5,24.4193,0.67904,-22.8555,-0.078017,-0.0141285,0.0172617,0,0,3.7625,0.875,0.84,-0.10675,-0.414922,-0.906704,-0.05166,0.26754,0.36134
-13.9189,0,0,18.9189,18.9189,5,5,24.4191,0.679962,-22.8532,0.117194,-0.0204819,-0.379369,1,0,3.5175,0.98,0.735,0.089304,-0.421266,-1.30028,-0.05166,0.26754,0.36134
-13.92,0,0,18.92,18.92,5,5,24.421,0.679312,-22.8522,0.117206,-0.0204517,-0.379383,1,0,4.69,-0.175,0.42,0.089304,-0.421266,-1.30028,-0.05166,0.26754,0.36134
-13.9211,0,0,18.9211,18.9211,5,5,24.4229,0.67926,-22.8514,0.104694,0.0568848,-0.248825,1,0,4.69,0.1225,0.2275,0.076738,-0.34404,-1.17071,-0.05166,0.26754,0.36134
-13.922,0,0,18.922,18.922,5,5,24.4245,0.679475,-22.8516,0.10469,0.0569103,-0.248837,1,0,4.5325,-0.0175,-0.455,0.076738,-0.34404,-1.17071,-0.04956,0.25718,0.35294
-13.9699,0,0,18.9699,18.9699,5,5,24.5086,0.42971,-22.7136,-0.165144,-0.0434682,0.0193594,0,0,4.2,-0.1225,-0.7525,-0.198616,-0.445666,-0.90402,-0.04956,0.25718,0.35294
-14.0153,0,0,19.0153,19.0153,5,5,24.5882,0.18606,-22.578,-0.160892,-0.0421952,0.0188031,0,0,3.115,-0.4725,-1.12,-0.198616,-0.445666,-0.90402,-0.04956,0.25718,0.35294
-14.0153,0,0,19.0153,19.0153,5,5,24.5883,0.186258,-22.58,0.136623,-0.308797,0.067736,1,0,3.675,-0.455,-1.3825,0.100162,-0.711992,-0.855464,-0.04956,0.25718,0.35294
-14.0155,0,0,19.0155,19.0155,5,5,24.5887,0.188681,-22.5811,0.136581,-0.308791,0.0677331,1,0,3.85,0.9625,-1.4175,0.100162,-0.711992,-0.855464,-0.04956,0.25718,0.35294
-14.0168,0,0,19.0168,19.0168,5,5,24.591,0.19012,-22.5824,0.031835,-0.31022,-0.0455192,1,0,4.9175,0.385,-1.295,-0.005002,-0.713456,-0.967826,-0.04956,0.25718,0.35294
-14.0182,0,0,19.0182,19.0182,5,5,24.5933,0.189958,-22.5836,0.0318379,-0.310183,-0.0455361,1,0,4.935,-0.4375,-0.84,-0.005002,-0.713456,-0.967826,-0.04956,0.25718,0.35294
-14.0196,0,0,19.0196,19.0196,5,5,24.5958,0.189821,-22.584,0.114815,0.0666179,-0.143052,1,0,5.04,-0.245,-0.455,0.078324,-0.337086,-1.06457,-0.04956,0.25718,0.35294
-14.0207,0,0,19.0207,19.0207,5,5,24.5977,0.190761,-22.5826,0.114799,0.0666474,-0.143066,1,0,4.6725,0.7875,0.28,0.078324,-0.337086,-1.06457,-0.05166,0.25704,0.35952
-14.0215,0,0,19.0215,19.0215,5,5,24.599,0.190982,-22.5811,0.373924,-0.128,-0.148363,1,0,4.41,0.42,0.49,0.33855,-0.531554,-1.06982,-0.05166,0.25704,0.35952
-14.0222,0,0,19.0222,19.0222,5,5,24.6004,0.189873,-22.5801,0.373943,-0.127979,-0.148373,1,0,4.375,-0.42,0.525,0.33855,-0.531554,-1.06982,-0.05166,0.25704,0.35952
-14.0226,0,0,19.0226,19.0226,5,5,24.601,0.188484,-22.5787,-0.143197,-0.21016,-0.055797,1,0,3.99,-0.4725,0.805,-0.180804,-0.61366,-0.977952,-0.05166,0.25704,0.35952
-14.0223,0,0,19.0223,19.0223,5,5,24.6005,0.188789,-22.5763,-0.143203,-0.210168,-0.0557933,1,0,3.3425,0.7,0.98,-0.180804,-0.61366,-0.977952,-0.05166,0.25704,0.35952
-14.1698,0,0,19.1698,19.1698,5,5,24.8592,0.207967,-22.5267,0.0469522,-0.237088,0.0968629,0,0,4.0425,0.6125,0.805,0.010492,-0.644648,-0.824598,-0.05166,0.25704,0.35952
-14.3146,0,0,19.3146,19.3146,5,5,25.1133,0.227289,-22.4784,0.046615,-0.233069,0.0949886,0,0,4.095,0.315,0.5425,0.010492,-0.644648,-0.824598,-0.05166,0.25704,0.35952
-14.5187,0,0,19.5187,19.5187,5,5,25.4715,0.164215,-22.3668,0.000822359,-0.326216,0.135476,0,0,4.795,-0.035,0.35,-0.0366,-0.743346,-0.781776,-0.05166,0.25704,0.35952
-14.7192,0,0,19.7192,19.7192,5,5,25.8232,0.103167,-22.2633,0.00188785,-0.320681,0.132822,0,0,4.795,-0.035,0.35,-0.0366,-0.743346,-0.781776,-0.04368,0.25676,0.35686
-14.72,0,0,19.72,19.72,5,5,25.8246,0.103997,-22.2642,0.119107,-0.205615,-0.337221,1,0,4.4275,0.1575,-0.91,0.08113,-0.628422,-1.24818,-0.04368,0.25676,0.35686
-14.7208,0,0,19.7208,19.7208,5,5,25.826,0.104827,-22.265,0.119093,-0.205593,-0.337232,1,0,4.4275,0.1575,-0.91,0.08113,-0.628422,-1.24818,-0.04368,0.25676,0.35686
-14.5816,0,0,19.5816,19.5816,5,5,25.5818,0.411715,-22.4749,0.18602,0.18246,-0.070205,0,0,3.0275,-0.14,-1.05,0.15372,-0.236924,-0.985028,-0.04368,0.25676,0.35686
-14.4451,0,0,19.4451,19.4451,5,5,25.3423,0.710362,-22.6846,0.180808,0.178665,-0.0684547,0,0,3.0275,-0.14,-1.05,0.15372,-0.236924,-0.985028,-0.04368,0.25676,0.35686
-14.4548,0,0,19.4548,19.4548,5,5,25.3592,0.663564,-22.6653,-0.0332832,-0.0482203,-0.075457,0,0,3.3425,0.42,-1.5225,-0.062098,-0.463844,-0.99186,-0.04368,0.25676,0.35686
-14.4641,0,0,19.4641,19.4641,5,5,25.3756,0.617997,-22.6463,-0.0324879,-0.0479579,-0.0755716,0,0,3.3425,0.42,-1.5225,-0.062098,-0.463844,-0.99186,-0.04368,0.25676,0.35686
-14.3927,0,0,19.3927,19.3927,5,5,25.2504,0.484801,-22.6058,-0.115203,0.126305,-0.0575273,0,0,4.795,4.2175,0,-0.147498,-0.287798,-0.974902,-0.04368,0.25676,0.35686
-14.3225,0,0,19.3225,19.3225,5,5,25.1273,0.354047,-22.5639,-0.112921,0.124368,-0.0565975,0,0,4.795,4.2175,0,-0.147498,-0.287798,-0.974902,-0.04648,0.25788,0.35938
-14.2536,0,0,19.2536,19.2536,5,5,25.0063,0.794915,-22.8199,0.272755,0.0968987,0.0745522,0,0,4.69,-0.2975,0.455,0.247538,-0.313296,-0.845582,-0.04648,0.25788,0.35938
-14.1864,0,0,19.1864,19.1864,5,5,24.8884,1.22445,-23.074,0.26526,0.0949763,0.0753008,0,0,4.69,-0.2975,0.455,0.247538,-0.313296,-0.845582,-0.04648,0.25788,0.35938
-14.1866,0,0,19.1866,19.1866,5,5,24.8887,1.22384,-23.0715,-0.207795,0.0784953,0.403325,1,0,3.815,0.2275,1.225,-0.22753,-0.329766,-0.520086,-0.04648,0.25788,0.35938
-14.1867,0,0,19.1867,19.1867,5,5,24.8889,1.22392,-23.0695,0.0615374,0.173756,0.302752,1,0,3.675,0.4725,0.7875,0.042944,-0.234606,-0.619882,-0.04648,0.25788,0.35938
-14.1869,0,0,19.1869,19.1869,5,5,24.8893,1.22392,-23.0683,0.0615373,0.173764,0.302748,1,0,3.885,0.2275,0.3675,0.042944,-0.234606,-0.619882,-0.04648,0.25788,0.35938
-14.3055,0,0,19.3055,19.3055,5,5,25.0973,0.708333,-22.7692,-0.305828,-0.0474741,0.180003,0,0,4.375,-0.21,0.3675,-0.335012,-0.458964,-0.740296,-0.04648,0.25788,0.35938
-14.4215,0,0,19.4215,19.4215,5,5,25.3009,0.205701,-22.4744,-0.297056,-0.044229,0.178553,0,0,5.3725,0.1575,0.315,-0.335012,-0.458964,-0.740296,-0.04648,0.25788,0.35938
-14.4235,0,0,19.4235,19.4235,5,5,25.3043,0.205743,-22.4741,0.0874458,-0.0955904,-0.0844595,1,0,5.5475,0.0175,-0.14,0.051118,-0.510326,-1.00125,-0.0434,0.26026,0.35686
-14.5657,0,0,19.5657,19.5657,5,5,25.5539,-0.234039,-22.2066,-0.26557,-0.119747,0.154894,0,0,4.41,-0.1575,-1.085,-0.3111,-0.538386,-0.76189,-0.0434,0.26026,0.35686
-14.7037,0,0,19.7037,19.7037,5,5,25.7959,-0.66316,-21.9441,-0.25808,-0.115965,0.153011,0,0,3.8325,-0.525,-1.26,-0.3111,-0.538386,-0.76189,-0.0434,0.26026,0.35686
-14.7026,0,0,19.7026,19.7026,5,5,25.7941,-0.663672,-21.9465,-0.260015,-0.176935,-0.0527916,1,0,2.6075,-0.9275,-1.3475,-0.313052,-0.599264,-0.966118,-0.0434,0.26026,0.35686
-14.702,0,0,19.702,19.702,5,5,25.7929,-0.663356,-21.9489,-0.260021,-0.176954,-0.0527824,1,0,2.94,-0.525,-1.6275,-0.313052,-0.599264,-0.966118,-0.0434,0.26026,0.35686
-14.7259,0,0,19.7259,19.7259,5,5,25.8348,-0.457852,-22.046,0.132801,-0.00579069,0.124099,0,0,3.0275,0.4725,-1.7675,0.085034,-0.428952,-0.790316,-0.0434,0.26026,0.35686
-14.7512,0,0,19.7512,19.7512,5,5,25.8793,-0.259932,-22.1417,0.129346,-0.00508234,0.12378,0,0,4.5675,-0.8225,-1.1375,0.085034,-0.428952,-0.790316,-0.0434,0.26026,0.35686
-14.7526,0,0,19.7526,19.7526,5,5,25.8817,-0.26017,-22.1425,0.24294,-0.0113959,-0.125332,1,0,4.9525,-0.385,-0.595,0.199104,-0.435296,-1.03749,-0.0434,0.26026,0.35686
-14.7544,0,0,19.7544,19.7544,5,5,25.8849,-0.260714,-22.1418,0.242949,-0.0113457,-0.125356,1,0,5.425,-0.175,0.245,0.199104,-0.435296,-1.03749,-0.0518,0.26012,0.35812
-14.6576,0,0,19.6576,19.6576,5,5,25.7151,-0.215723,-22.1925,0.00964026,0.158308,-0.0182045,0,0,4.55,0.4725,0.42,-0.034404,-0.263154,-0.932446,-0.0518,0.26012,0.35812
-14.5621,0,0,19.5621,19.5621,5,5,25.5475,-0.173665,-22.2426,0.00890621,0.155672,-0.0169369,0,0,3.99,-0.1225,0.98,-0.034404,-0.263154,-0.932446,-0.0518,0.26012,0.35812
-14.6094,0,0,19.6094,19.6094,5,5,25.6305,-0.251533,-22.1812,-0.0412447,-0.0413574,0.0668985,0,0,3.675,0.2625,1.26,-0.086132,-0.461282,-0.848632,-0.0518,0.26012,0.35812
-14.6557,0,0,19.6557,19.6557,5,5,25.7118,-0.327155,-22.1213,-0.0399248,-0.0400807,0.0662774,0,0,3.78,0.105,0.9275,-0.086132,-0.461282,-0.848632,-0.0518,0.26012,0.35812
-14.656,0,0,19.656,19.656,5,5,25.7123,-0.327166,-22.1189,0.104886,0.0159824,0.360121,1,0,3.885,0.525,0.98,0.059292,-0.405284,-0.557052,-0.0518,0.26012,0.35812
-14.6569,0,0,19.6569,19.6569,5,5,25.7139,-0.327633,-22.1176,0.104894,0.0160076,0.360109,1,0,4.5325,0.0175,0.5425,0.059292,-0.405284,-0.557052,-0.0518,0.26012,0.35812
-14.6585,0,0,19.6585,19.6585,5,5,25.7167,-0.328292,-22.1167,0.0944582,-0.117188,0.34312,1,0,5.2325,-0.175,0.4025,0.0488,-0.538386,-0.573888,-0.0518,0.26012,0.35812
-14.6588,0,0,19.6588,19.6588,5,5,25.7172,-0.328266,-22.1165,0.0944577,-0.11718,0.343116,1,0,3.92,0,-0.1575,0.0488,-0.538386,-0.573888,-0.0483,0.25788,0.35602
-14.6593,0,0,19.6593,19.6593,5,5,25.718,-0.327803,-22.1177,0.128101,-0.288756,-0.0300382,1,0,4.06,-0.1225,-0.9975,0.082594,-0.709796,-0.944158,-0.0483,0.25788,0.35602
-14.6597,0,0,19.6597,19.6597,5,5,25.7188,-0.32734,-22.1189,0.128093,-0.288743,-0.030044,1,0,4.06,-0.1225,-0.9975,0.082594,-0.709796,-0.944158,-0.0483,0.25788,0.35602
-14.6709,0,0,19.6709,19.6709,5,5,25.7385,-0.28572,-22.1321,0.0320004,-0.0364847,-0.0166653,0,0,3.0625,-0.28,-1.0325,-0.013176,-0.45811,-0.930738,-0.0483,0.25788,0.35602
-14.682,0,0,19.682,19.682,5,5,25.7579,-0.245092,-22.1452,0.0312914,-0.0361774,-0.0168099,0,0,3.0625,-0.28,-1.0325,-0.013176,-0.45811,-0.930738,-0.0483,0.25788,0.35602
-14.6825,0,0,19.6825,19.6825,5,5,25.7587,-0.243653,-22.1464,-0.144524,-0.178199,-0.153657,1,0,4.06,0.385,-1.26,-0.18971,-0.599996,-1.06652,-0.0483,0.25788,0.35602
-14.6829,0,0,19.6829,19.6829,5,5,25.7595,-0.242214,-22.1476,-0.144549,-0.178186,-0.153663,1,0,4.06,0.385,-1.26,-0.18971,-0.599996,-1.06652,-0.0483,0.25788,0.35602
-14.5522,0,0,19.5522,19.5522,5,5,25.5301,-0.241175,-22.1911,-0.0261183,0.212797,-0.0508671,0,0,4.0775,-0.315,0.035,-0.07076,-0.205814,-0.96624,-0.0483,0.25788,0.35602
-14.4238,0,0,19.4238,19.4238,5,5,25.3049,-0.240689,-22.2333,-0.0261267,0.209246,-0.0491795,0,0,4.0775,-0.315,0.035,-0.07076,-0.205814,-0.96624,-0.0518,0.25942,0.35756
-14.4241,0,0,19.4241,19.4241,5,5,25.3054,-0.247724,-22.2346,0.0549055,0.0447489,0.185279,1,0,3.92,-4.095,0.8575,0.010492,-0.370148,-0.733586,-0.0518,0.25942,0.35756
-14.4244,0,0,19.4244,19.4244,5,5,25.3059,-0.254758,-22.2358,0.0550283,0.0447569,0.185275,1,0,3.92,-4.095,0.8575,0.010492,-0.370148,-0.733586,-0.0518,0.25942,0.35756
-14.4244,0,0,19.4244,19.4244,5,5,25.306,-0.256005,-22.2332,-0.132281,0.129026,0.128717,1,0,3.6925,-0.07,1.435,-0.177632,-0.285968,-0.789706,-0.0518,0.25942,0.35756
-14.4245,0,0,19.4245,19.4245,5,5,25.3061,-0.257252,-22.2306,-0.132259,0.129027,0.128717,1,0,3.6925,-0.07,1.435,-0.177632,-0.285968,-0.789706,-0.0518,0.25942,0.35756
-14.4254,0,0,19.4254,19.4254,5,5,25.3077,-0.256611,-22.2285,-0.0172234,-0.0028442,0.182925,1,0,4.5325,0.7875,0.665,-0.062098,-0.417728,-0.735904,-0.0518,0.25942,0.35756
-14.4263,0,0,19.4263,19.4263,5,5,25.3093,-0.25597,-22.2265,-0.0172345,-0.00281894,0.182913,1,0,4.5325,0.7875,0.665,-0.062098,-0.417728,-0.735904,-0.0518,0.25942,0.35756
-14.4283,0,0,19.4283,19.4283,5,5,25.3128,-0.255736,-22.226,0.312959,-0.266192,-0.22063,1,0,5.565,0.175,-0.07,0.269498,-0.680882,-1.13631,-0.0518,0.25942,0.35756
-14.5641,0,0,19.5641,19.5641,5,5,25.5511,-0.343665,-22.1305,-0.0346558,-0.235205,0.049539,0,0,3.885,-0.35,-0.63,-0.08113,-0.653676,-0.866444,-0.0518,0.25942,0.35756
-14.6967,0,0,19.6967,19.6967,5,5,25.7837,-0.42752,-22.0431,-0.0331923,-0.23155,0.0477715,0,0,3.255,0.2625,-1.295,-0.08113,-0.653676,-0.866444,-0.04592,0.2604,0.35714
-14.6961,0,0,19.6961,19.6961,5,5,25.7827,-0.42641,-22.045,0.134317,0.441596,0.0683121,1,0,3.0275,0.035,-1.54,0.087108,0.018788,-0.84607,-0.04592,0.2604,0.35714
-14.6951,0,0,19.6951,19.6951,5,5,25.7809,-0.426039,-22.0473,0.134311,0.441569,0.0683252,1,0,2.66,-0.455,-1.5575,0.087108,0.018788,-0.84607,-0.04592,0.2604,0.35714
-14.6957,0,0,19.6957,19.6957,5,5,25.7819,-0.425736,-22.0496,0.129932,0.0976754,0.118235,1,0,4.1475,-0.49,-1.54,0.082716,-0.324764,-0.796538,-0.04592,0.2604,0.35714
-14.7009,0,0,19.7009,19.7009,5,5,25.791,-0.424384,-22.0515,0.129908,0.0978187,0.118166,1,0,8.7325,0.175,-1.575,0.082716,-0.324764,-0.796538,-0.04592,0.2604,0.35714
-14.7028,0,0,19.7028,19.7028,5,5,25.7944,-0.424507,-22.0538,0.0477861,0.0440138,-0.216648,1,0,5.5125,-0.7175,-1.435,0.000244,-0.378566,-1.12874,-0.04592,0.2604,0.35714
-14.7033,0,0,19.7033,19.7033,5,5,25.7952,-0.423742,-22.0544,0.0477728,0.0440274,-0.216655,1,0,4.1125,0.175,-0.7875,0.000244,-0.378566,-1.12874,-0.04592,0.2604,0.35714
-14.7031,0,0,19.7031,19.7031,5,5,25.795,-0.42391,-22.0548,0.139619,0.205231,0.184774,1,0,3.4825,-0.245,-0.4025,0.092476,-0.217526,-0.730414,-0.04592,0.2604,0.35714
-14.7025,0,0,19.7025,19.7025,5,5,25.7939,-0.424117,-22.054,0.139622,0.205213,0.184783,1,0,3.01,0.035,0.2275,0.092476,-0.217526,-0.730414,-0.04704,0.25592,0.35546
-14.7604,0,0,19.7604,19.7604,5,5,25.8955,-0.262198,-22.1067,0.115658,-0.0556332,0.13423,0,0,3.115,-0.2625,0.595,0.071248,-0.479704,-0.779824,-0.04704,0.25592,0.35546
-14.8182,0,0,19.8182,19.8182,5,5,25.9968,-0.103485,-22.1572,0.112888,-0.0540398,0.133465,0,0,3.6575,0.3325,1.015,0.071248,-0.479704,-0.779824,-0.04704,0.25592,0.35546
-14.8183,0,0,19.8183,19.8183,5,5,25.997,-0.103815,-22.1548,0.222595,0.105705,0.474153,1,0,3.745,0.385,1.1025,0.181414,-0.320128,-0.441762,-0.04704,0.25592,0.35546
-14.8193,0,0,19.8193,19.8193,5,5,25.9989,-0.104125,-22.1531,0.222601,0.105734,0.474139,1,0,4.6725,0.21,0.7175,0.181414,-0.320128,-0.441762,-0.04704,0.25592,0.35546
-14.9796,0,0,19.9796,19.9796,5,5,26.28,-0.269038,-22.0067,-0.0793286,-0.203853,0.14259,0,0,4.655,-0.3325,0.56,-0.124684,-0.63379,-0.7686,-0.04704,0.25592,0.35546
-15.1369,0,0,20.1369,20.1369,5,5,26.5559,-0.428025,-21.8637,-0.0765538,-0.199548,0.140433,0,0,4.97,0,0.0525,-0.124684,-0.63379,-0.7686,-0.04704,0.25592,0.35546
-15.1375,0,0,20.1375,20.1375,5,5,26.5569,-0.428228,-21.864,-0.180542,0.232553,0.0539916,1,0,4.2175,-0.2625,-0.385,-0.229116,-0.202154,-0.854366,-0.04704,0.25592,0.35546
-15.1375,0,0,20.1375,20.1375,5,5,26.5569,-0.4274,-21.8653,-0.180556,0.232553,0.0539918,1,0,3.6225,0.035,-1.1375,-0.229116,-0.202154,-0.854366,-0.04424,0.25732,0.36218
-15.1368,0,0,20.1368,20.1368,5,5,26.5559,-0.426879,-21.867,0.160323,0.436244,0.125679,1,0,3.0275,-0.245,-1.295,0.113216,0.001342,-0.78324,-0.04424,0.25732,0.36218
-15.1368,0,0,20.1368,20.1368,5,5,26.5558,-0.426358,-21.869,0.160314,0.436242,0.12568,1,0,3.57,-0.2975,-1.4,0.113216,0.001342,-0.78324,-0.04424,0.25732,0.36218
-14.94,0,0,19.94,19.94,5,5,26.2105,-0.232798,-22.0298,0.0891469,0.305916,-0.0474411,0,0,4.445,0.21,-1.2425,0.04514,-0.123464,-0.9577,-0.04424,0.25732,0.36218
-14.747,0,0,19.747,19.747,5,5,25.872,-0.0441817,-22.1911,0.085855,0.300612,-0.0448402,0,0,4.7775,0.5075,-1.1725,0.04514,-0.123464,-0.9577,-0.04424,0.25732,0.36218
-14.7849,0,0,19.7849,19.7849,5,5,25.9385,-0.0853291,-22.156,-0.022764,-0.0753498,-0.023955,0,0,6.055,-0.0875,-0.9625,-0.06466,-0.500078,-0.936472,-0.04424,0.25732,0.36218
-14.8206,0,0,19.8206,19.8206,5,5,26.0011,-0.125658,-22.1197,-0.0220601,-0.0743684,-0.0244345,0,0,4.62,0.105,0,-0.06466,-0.500078,-0.936472,-0.04424,0.25732,0.36218
-14.8215,0,0,19.8215,19.8215,5,5,26.0027,-0.125653,-22.1188,0.00199397,-0.150428,-0.0768228,1,0,4.5325,0.175,0.2275,-0.040504,-0.576084,-0.988444,-0.04424,0.25732,0.36218
-14.8208,0,0,19.8208,19.8208,5,5,26.0014,-0.125226,-22.1169,0.00198651,-0.150448,-0.0768131,1,0,2.9225,0.6475,0.63,-0.040504,-0.576084,-0.988444,-0.04816,0.25788,0.35378
-14.7946,0,0,19.7946,19.7946,5,5,25.9555,-0.274495,-22.0466,-0.0989141,0.092226,0.0625846,0,0,2.66,-0.0175,0.7875,-0.144448,-0.332938,-0.850462,-0.04816,0.25788,0.35378
-14.7692,0,0,19.7692,19.7692,5,5,25.9109,-0.420404,-21.9763,-0.0963675,0.0915189,0.0629113,0,0,3.2025,0.0175,1.05,-0.144448,-0.332938,-0.850462,-0.04816,0.25788,0.35378
-14.7691,0,0,19.7691,19.7691,5,5,25.9107,-0.421195,-21.9736,0.204688,0.0717318,0.21377,1,0,3.5525,0.2275,1.4,0.157868,-0.352702,-0.700768,-0.04816,0.25788,0.35378
-14.7704,0,0,19.7704,19.7704,5,5,25.913,-0.421737,-21.9712,0.204697,0.0717675,0.213753,1,0,4.9175,0.245,1.1025,0.157868,-0.352702,-0.700768,-0.04816,0.25788,0.35378
-14.9035,0,0,19.9035,19.9035,5,5,26.1465,-0.552325,-21.8538,-0.0577409,-0.136469,0.159448,0,0,5.25,-0.07,0.6475,-0.10797,-0.564372,-0.752862,-0.04816,0.25788,0.35378
-15.0343,0,0,20.0343,20.0343,5,5,26.3759,-0.678418,-21.7394,-0.0555403,-0.132889,0.157655,0,0,5.635,-0.07,0.035,-0.10797,-0.564372,-0.752862,-0.04816,0.25788,0.35378
-15.0354,0,0,20.0354,20.0354,5,5,26.3779,-0.678154,-21.7395,-0.223438,0.454939,0.0489531,1,0,4.76,0.0525,-0.3675,-0.276574,0.022814,-0.86071,-0.04816,0.25788,0.35378
-15.036,0,0,20.036,20.036,5,5,26.3789,-0.677303,-21.7408,-0.223453,0.454955,0.0489455,1,0,4.1825,0.0525,-1.1375,-0.276574,0.022814,-0.86071,-0.0469,0.259,0.36372
-14.9069,0,0,19.9069,19.9069,5,5,26.1524,-0.460061,-21.8878,0.135026,0.159177,-0.149063,0,0,3.92,-0.2975,-1.295,0.08723,-0.269132,-1.05896,-0.0469,0.259,0.36372
-14.7792,0,0,19.7792,19.7792,5,5,25.9283,-0.248585,-22.0351,0.131335,0.155673,-0.147325,0,0,2.8175,-0.2975,-1.47,0.08723,-0.269132,-1.05896,-0.0469,0.259,0.36372
-14.7365,0,0,19.7365,19.7365,5,5,25.8535,-0.100734,-22.1232,0.087085,0.0795155,0.0502157,0,0,3.8325,-0.2275,-1.295,0.045384,-0.34404,-0.863516,-0.0469,0.259,0.36372
-14.695,0,0,19.695,19.695,5,5,25.7806,0.0439926,-22.2105,0.084559,0.0783717,0.0507705,0,0,3.99,0.28,-1.33,0.045384,-0.34404,-0.863516,-0.0469,0.259,0.36372
-14.78,0,0,19.78,19.78,5,5,25.9298,0.0784971,-22.1973,0.0388856,-0.0880647,0.128199,0,0,5.0575,0.315,-1.155,0.000122,-0.512644,-0.785558,-0.0469,0.259,0.36372
-14.8634,0,0,19.8634,19.8634,5,5,26.0761,0.111473,-22.183,0.0383101,-0.0857699,0.127078,0,0,4.9175,0.035,-0.175,0.000122,-0.512644,-0.785558,-0.0469,0.259,0.36372
-14.9699,0,0,19.9699,19.9699,5,5,26.263,0.224376,-22.1992,0.109352,-0.200453,0.0554309,0,0,4.7075,0.105,0.3675,0.073444,-0.63013,-0.85522,-0.0469,0.259,0.36372
-15.0744,0,0,20.0744,20.0744,5,5,26.4464,0.336002,-22.214,0.107404,-0.19759,0.0540016,0,0,4.4275,0.8225,0.5775,0.073444,-0.63013,-0.85522,-0.0469,0.259,0.36372
-15.0744,0,0,20.0744,20.0744,5,5,26.4463,0.335706,-22.2126,-0.101182,0.32853,0.0104788,1,0,3.5525,0.14,0.5425,-0.13603,-0.104554,-0.898408,-0.04242,0.25648,0.36442
-15.0745,0,0,20.0745,20.0745,5,5,26.4464,0.335196,-22.2112,-0.214762,0.161952,0.104042,1,0,3.71,0.035,0.6125,-0.2501,-0.270962,-0.805566,-0.04242,0.25648,0.36442
-15.0744,0,0,20.0744,20.0744,5,5,26.4463,0.334338,-22.2096,-0.214747,0.161951,0.104042,1,0,3.5875,-0.105,0.7875,-0.2501,-0.270962,-0.805566,-0.04242,0.25648,0.36442
-15.0799,0,0,20.0799,20.0799,5,5,26.4559,0.26347,-22.1697,-0.0499902,-0.0144916,-0.0306554,0,0,4.1825,0.21,0.6475,-0.085888,-0.447374,-0.939156,-0.04242,0.25648,0.36442
-15.085,0,0,20.085,20.085,5,5,26.4649,0.193944,-22.1319,-0.0487767,-0.0143489,-0.030721,0,0,4.0775,-0.49,-0.175,-0.085888,-0.447374,-0.939156,-0.04242,0.25648,0.36442
-15.2663,0,0,20.2663,20.2663,5,5,26.7831,0.063223,-21.9984,-0.056457,-0.296747,0.106219,0,0,4.725,-0.2275,-0.49,-0.095892,-0.73444,-0.800808,-0.04242,0.25648,0.36442
-15.4429,0,0,20.4429,20.4429,5,5,27.0928,-0.0625505,-21.8679,-0.0542619,-0.291928,0.10377,0,0,3.535,0.0525,-0.77,-0.095892,-0.73444,-0.800808,-0.04242,0.25648,0.36442
-15.4076,0,0,20.4076,20.4076,5,5,27.031,-0.0171196,-21.8976,0.0242754,0.0341667,-0.0574157,0,0,3.955,0.105,-1.085,-0.016226,-0.407724,-0.961238,-0.04242,0.25648,0.36442
-15.3727,0,0,20.3727,20.3727,5,5,26.9697,0.026234,-21.9274,0.0235187,0.0332142,-0.0569305,0,0,3.57,-0.6125,-1.4875,-0.016226,-0.407724,-0.961238,-0.04242,0.2534,0.3514
-15.3724,0,0,20.3724,20.3724,5,5,26.9692,0.0262759,-21.9295,0.00237945,-0.0155224,-0.111024,1,0,3.3425,-0.595,-1.3475,-0.037454,-0.456402,-1.01492,-0.04242,0.2534,0.3514
-15.3728,0,0,20.3728,20.3728,5,5,26.9698,0.0267693,-21.9312,0.00237084,-0.0155124,-0.111029,1,0,3.99,-0.2625,-1.2775,-0.037454,-0.456402,-1.01492,-0.04242,0.2534,0.3514
-15.3925,0,0,20.3925,20.3925,5,5,27.0044,0.294665,-22.0524,0.194381,-0.0606568,0.0310604,0,0,4.06,0.42,-1.12,0.160064,-0.50203,-0.873642,-0.04242,0.2534,0.3514
-15.4132,0,0,20.4132,20.4132,5,5,27.0407,0.555038,-22.1712,0.189836,-0.0601078,0.0307426,0,0,4.97,0.14,-0.595,0.160064,-0.50203,-0.873642,-0.04242,0.2534,0.3514
-15.4135,0,0,20.4135,20.4135,5,5,27.0412,0.55526,-22.1709,-0.216051,0.160705,0.118401,1,0,3.92,0.14,-0.14,-0.247538,-0.281454,-0.786656,-0.04242,0.2534,0.3514
-15.4143,0,0,20.4143,20.4143,5,5,27.0427,0.555305,-22.169,-0.216052,0.160729,0.118389,1,0,4.4625,0.455,0.7,-0.247538,-0.281454,-0.786656,-0.04242,0.2534,0.3514
-15.4078,0,0,20.4078,20.4078,5,5,27.0312,0.709018,-22.2441,0.114744,-0.0391401,-0.0592072,0,0,4.41,0.7,0.805,0.087352,-0.480924,-0.962946,-0.04242,0.2534,0.3514
-15.4011,0,0,20.4011,20.4011,5,5,27.0194,0.859284,-22.3075,0.112121,-0.0393394,-0.0591459,0,0,4.235,0.1575,1.26,0.087352,-0.480924,-0.962946,-0.05432,0.2548,0.35868
-15.4095,0,0,20.4095,20.4095,5,5,27.0342,0.689958,-22.2121,-0.111009,0.0285667,0.0359347,0,0,4.515,0.175,1.225,-0.13969,-0.413336,-0.868518,-0.05432,0.2548,0.35868
-15.4172,0,0,20.4172,20.4172,5,5,27.0477,0.524078,-22.1183,-0.108114,0.0287906,0.0358548,0,0,4.3225,-0.455,0.9975,-0.13969,-0.413336,-0.868518,-0.05432,0.2548,0.35868
-15.4177,0,0,20.4177,20.4177,5,5,27.0485,0.523989,-22.1163,-0.0563593,0.270981,0.186337,1,0,4.0775,0.42,0.805,-0.087718,-0.17141,-0.71919,-0.05432,0.2548,0.35868
-15.4176,0,0,20.4176,20.4176,5,5,27.0484,0.523744,-22.1162,-0.056355,0.270978,0.186338,1,0,3.5525,-0.175,-0.1575,-0.087718,-0.17141,-0.71919,-0.05432,0.2548,0.35868
-15.4793,0,0,20.4793,20.4793,5,5,27.1567,0.275427,-21.9622,-0.158443,-0.058167,0.0455891,0,0,3.4825,-0.21,-0.385,-0.19459,-0.501908,-0.858026,-0.05432,0.2548,0.35868
-15.5394,0,0,20.5394,20.5394,5,5,27.262,0.0335145,-21.811,-0.15422,-0.0565266,0.0447585,0,0,3.535,-0.455,-0.805,-0.19459,-0.501908,-0.858026,-0.05432,0.2548,0.35868
-15.5396,0,0,20.5396,20.5396,5,5,27.2625,0.0337757,-21.8127,0.0840084,0.148288,0.151965,1,0,3.92,-0.385,-1.2075,0.044652,-0.297314,-0.751642,-0.05432,0.2548,0.35868
-15.5399,0,0,20.5399,20.5399,5,5,27.263,0.0341076,-21.8147,0.0840026,0.148295,0.151962,1,0,3.885,-0.42,-1.365,0.044652,-0.297314,-0.751642,-0.04508,0.25956,0.35826
-15.6542,0,0,20.6542,20.6542,5,5,27.4635,0.0837507,-21.8003,0.0649133,-0.222184,0.0412976,0,0,4.4625,-0.245,-1.435,0.026352,-0.670512,-0.859856,-0.04508,0.25956,0.35826
-15.7661,0,0,20.7661,20.7661,5,5,27.6599,0.132964,-21.7855,0.0640544,-0.219146,0.0397101,0,0,4.1125,-0.035,-1.19,0.026352,-0.670512,-0.859856,-0.04508,0.25956,0.35826
-15.8906,0,0,20.8906,20.8906,5,5,27.8783,0.0451254,-21.6977,-0.03233,-0.126009,0.159409,0,0,4.305,0.7,-0.91,-0.07198,-0.580842,-0.73932,-0.04508,0.25956,0.35826
-16.0122,0,0,21.0122,21.0122,5,5,28.0916,-0.0411812,-21.6117,-0.0308237,-0.122721,0.157663,0,0,3.885,-0.1225,-0.665,-0.07198,-0.580842,-0.73932,-0.04508,0.25956,0.35826
-15.9203,0,0,20.9203,20.9203,5,5,27.9303,0.144186,-21.7292,0.11792,0.0929114,-0.129702,0,0,3.325,-0.0175,-0.105,0.080642,-0.36295,-1.02578,-0.04508,0.25956,0.35826
-15.8307,0,0,20.8307,20.8307,5,5,27.7732,0.324855,-21.8448,0.114766,0.0904812,-0.128432,0,0,3.78,0.63,0.6125,0.080642,-0.36295,-1.02578,-0.04508,0.25956,0.35826
-15.8309,0,0,20.8309,20.8309,5,5,27.7734,0.325464,-21.8423,0.1167,0.115398,0.068161,1,0,3.7275,0.9275,0.8575,0.082594,-0.338062,-0.830698,-0.04508,0.25956,0.35826
-15.8316,0,0,20.8316,20.8316,5,5,27.7747,0.32551,-21.8403,0.116699,0.115418,0.0681506,1,0,4.34,0.5075,0.77,0.082594,-0.338062,-0.830698,-0.04424,0.25536,0.35098
-15.8518,0,0,20.8518,20.8518,5,5,27.8102,0.0808508,-21.7086,-0.15857,0.0238887,0.0480807,0,0,4.585,0.0525,0.9975,-0.198128,-0.43005,-0.85034,-0.04424,0.25536,0.35098
-15.8704,0,0,20.8704,20.8704,5,5,27.8428,-0.157763,-21.5783,-0.154405,0.024391,0.0478125,0,0,3.885,0,0.91,-0.198128,-0.43005,-0.85034,-0.04424,0.25536,0.35098
-15.8712,0,0,20.8712,20.8712,5,5,27.8442,-0.157288,-21.5764,-0.0708313,0.11503,0.35923,1,0,4.41,0.6825,0.56,-0.114192,-0.339526,-0.541314,-0.04424,0.25536,0.35098
-15.8703,0,0,20.8703,20.8703,5,5,27.8426,-0.157059,-21.5766,-0.0708353,0.115006,0.359243,1,0,2.7475,0,-0.42,-0.114192,-0.339526,-0.541314,-0.04424,0.25536,0.35098
-16.0798,0,0,21.0798,21.0798,5,5,28.2102,-0.561191,-21.302,-0.23945,-0.248662,0.201028,0,0,3.115,-0.525,-0.7,-0.290604,-0.708454,-0.695278,-0.04424,0.25536,0.35098
-16.2848,0,0,21.2848,21.2848,5,5,28.5698,-0.954101,-21.0339,-0.232593,-0.243185,0.197964,0,0,3.2375,-0.315,-0.98,-0.290604,-0.708454,-0.695278,-0.04424,0.25536,0.35098
-16.2849,0,0,21.2849,21.2849,5,5,28.57,-0.954149,-21.0356,0.152031,0.0837514,0.117063,1,0,3.7275,-0.56,-1.1025,0.095648,-0.38186,-0.775554,-0.04424,0.25536,0.35098
-16.285,0,0,21.285,21.285,5,5,28.5701,-0.95372,-21.0375,0.152024,0.0837536,0.117062,1,0,3.6925,-0.385,-1.365,0.095648,-0.38186,-0.775554,-0.04424,0.25536,0.35098
-16.1782,0,0,21.1782,21.1782,5,5,28.3829,-0.591142,-21.228,0.223325,0.14626,-0.00904894,0,0,3.99,-0.5425,-1.2775,0.173606,-0.31659,-0.902312,-0.04354,0.25144,0.35854
-16.016,0,0,21.016,21.016,5,5,28.0982,-0.445733,-21.3353,0.0635852,0.264021,-0.0120878,0,0,3.815,-0.3325,-0.98,0.015738,-0.19459,-0.90768,-0.04354,0.25144,0.35854
-15.8615,0,0,20.8615,20.8615,5,5,27.8271,-0.303946,-21.4422,0.0611106,0.259849,-0.00985462,0,0,8.4875,0.1575,-0.7,0.015738,-0.19459,-0.90768,-0.04354,0.25144,0.35854
-15.8616,0,0,20.8616,20.8616,5,5,27.8273,-0.30355,-21.442,0.25378,0.306626,-0.369972,1,0,3.745,0.175,-0.2975,0.20923,-0.147864,-1.26502,-0.04354,0.25144,0.35854
-15.8612,0,0,20.8612,20.8612,5,5,27.8267,-0.303634,-21.4409,0.253782,0.306616,-0.369967,1,0,3.2725,0.21,0.3675,0.20923,-0.147864,-1.26502,-0.04354,0.25144,0.35854
-15.7277,0,0,20.7277,20.7277,5,5,27.5925,-0.295325,-21.4736,-0.0244442,0.190031,-0.178233,0,0,4.13,0.6825,0.5425,-0.070028,-0.260714,-1.07665,-0.04354,0.25144,0.35854
-15.5958,0,0,20.5958,20.5958,5,5,27.3611,-0.2886,-21.506,-0.0245616,0.186449,-0.17637,0,0,3.4475,0.35,0.9275,-0.070028,-0.260714,-1.07665,-0.04354,0.25144,0.35854
-15.5966,0,0,20.5966,20.5966,5,5,27.3625,-0.288998,-21.5038,0.0985103,-0.231814,-0.0444572,1,0,4.41,0.3325,1.015,0.053558,-0.678564,-0.945744,-0.04354,0.25144,0.35854
-15.5966,0,0,20.5966,20.5966,5,5,27.3625,-0.290291,-21.5016,0.0985329,-0.231814,-0.0444571,1,0,3.6225,-0.1575,1.2075,0.053558,-0.678564,-0.945744,-0.049,0.25648,0.35294
-15.5973,0,0,20.5973,20.5973,5,5,27.3636,-0.290852,-21.5001,-0.139448,-0.177939,-0.00254078,1,0,4.27,0.0525,0.6825,-0.18544,-0.624762,-0.904142,-0.049,0.25648,0.35294
-15.5973,0,0,20.5973,20.5973,5,5,27.3636,-0.290784,-21.4995,-0.139449,-0.177939,-0.00254088,1,0,3.64,0.1225,0.0175,-0.18544,-0.624762,-0.904142,-0.049,0.25648,0.35294
-15.597,0,0,20.597,20.597,5,5,27.3631,-0.290695,-21.5003,0.228894,-0.00220669,-0.258146,1,0,3.325,-0.21,-0.6475,0.184464,-0.449204,-1.15778,-0.049,0.25648,0.35294
-15.5972,0,0,20.5972,20.5972,5,5,27.3634,-0.28946,-21.5016,0.228873,-0.00220094,-0.258149,1,0,3.8325,0.21,-1.295,0.184464,-0.449204,-1.15778,-0.049,0.25648,0.35294
-15.5968,0,0,20.5968,20.5968,5,5,27.3628,-0.28833,-21.5031,-0.0469197,-0.286033,-0.301668,1,0,3.2725,0.1225,-1.33,-0.092476,-0.732732,-1.20097,-0.049,0.25648,0.35294
-15.597,0,0,20.597,20.597,5,5,27.3632,-0.288109,-21.5054,-0.0469236,-0.286028,-0.301671,1,0,3.815,-0.5775,-1.5225,-0.092476,-0.732732,-1.20097,-0.049,0.25648,0.35294
-15.6367,0,0,20.6367,20.6367,5,5,27.4329,-0.547897,-21.3573,-0.180883,-0.0443732,-0.00656877,0,0,3.6225,-0.14,-1.435,-0.231556,-0.492392,-0.907558,-0.049,0.25648,0.35294
-15.6751,0,0,20.6751,20.6751,5,5,27.5002,-0.801195,-21.2193,-0.176463,-0.043354,-0.00715728,0,0,3.78,-0.525,-0.91,-0.231556,-0.492392,-0.907558,-0.04494,0.26208,0.36036
-15.6749,0,0,20.6749,20.6749,5,5,27.4999,-0.801391,-21.2204,0.0365052,0.172194,0.261242,1,0,3.43,-0.4725,-0.7875,-0.01769,-0.277062,-0.641232,-0.04494,0.26208,0.36036
-15.6754,0,0,20.6754,20.6754,5,5,27.5007,-0.801347,-21.2208,0.0365044,0.172207,0.261236,1,0,4.0775,-0.14,-0.455,-0.01769,-0.277062,-0.641232,-0.04494,0.26208,0.36036
-15.6758,0,0,20.6758,20.6758,5,5,27.5014,-0.80123,-21.2207,0.048408,-0.242036,-0.0131914,1,0,4.0425,0,-0.28,-0.005734,-0.690886,-0.913536,-0.04494,0.26208,0.36036
-15.6767,0,0,20.6767,20.6767,5,5,27.5031,-0.801125,-21.2193,0.0484061,-0.242011,-0.0132044,1,0,4.55,0.385,0.4725,-0.005734,-0.690886,-0.913536,-0.04494,0.26208,0.36036
-15.678,0,0,20.678,20.678,5,5,27.5053,-0.801121,-21.2174,0.0765908,-0.0988434,-0.365962,1,0,4.9,0.4375,0.7,0.02257,-0.547902,-1.26355,-0.04494,0.26208,0.36036
-15.6788,0,0,20.6788,20.6788,5,5,27.5067,-0.801146,-21.2155,0.0765912,-0.0988213,-0.365973,1,0,4.445,0.455,0.77,0.02257,-0.547902,-1.26355,-0.04494,0.26208,0.36036
-15.581,0,0,20.581,20.581,5,5,27.3351,-0.941418,-21.1717,-0.113151,0.190875,-0.0212319,0,0,4.8825,0.245,0.735,-0.170434,-0.255834,-0.922808,-0.04494,0.26208,0.36036
-15.4835,0,0,20.4835,20.4835,5,5,27.1641,-1.0788,-21.1307,-0.110754,0.188202,-0.0199028,0,0,3.8675,-0.1575,0.6825,-0.170434,-0.255834,-0.922808,-0.04284,0.26152,0.3542
-15.4836,0,0,20.4836,20.4836,5,5,27.1642,-1.07868,-21.1296,0.051063,-0.136654,-0.257932,1,0,3.71,0.2975,0.2975,-0.00793,-0.580354,-1.159,-0.04284,0.26152,0.3542
-15.4834,0,0,20.4834,20.4834,5,5,27.1639,-1.07916,-21.1296,0.0510714,-0.136657,-0.25793,1,0,3.5,-0.2975,-0.0875,-0.00793,-0.580354,-1.159,-0.04284,0.26152,0.3542
-15.4832,0,0,20.4832,20.4832,5,5,27.1635,-1.07928,-21.131,0.00320815,0.384084,-0.43571,1,0,3.3775,-0.525,-0.9975,-0.055998,-0.060146,-1.33541,-0.04284,0.26152,0.3542
-15.483,0,0,20.483,20.483,5,5,27.1631,-1.0794,-21.1325,0.00321022,0.384078,-0.435707,1,0,3.3775,-0.525,-0.9975,-0.055998,-0.060146,-1.33541,-0.04284,0.26152,0.3542
-15.3063,0,0,20.3063,20.3063,5,5,26.8532,-1.12594,-21.1626,-0.0784665,0.286803,-0.17827,0,0,3.745,0.14,-1.33,-0.138836,-0.1525,-1.08238,-0.04284,0.26152,0.3542
-15.1326,0,0,20.1326,20.1326,5,5,26.5484,-1.17215,-21.1926,-0.0776601,0.282044,-0.175894,0,0,3.745,0.14,-1.33,-0.138836,-0.1525,-1.08238,-0.04284,0.26152,0.3542
-15.0938,0,0,20.0938,20.0938,5,5,26.4804,-0.822085,-21.3832,0.252989,0.00819795,-0.0402721,0,0,4.235,-0.175,-0.9975,0.199348,-0.425048,-0.948428,-0.04284,0.26152,0.3542
-15.0564,0,0,20.0564,20.0564,5,5,26.4147,-0.481917,-21.5628,0.247053,0.00720235,-0.0397014,0,0,4.235,-0.175,-0.9975,0.199348,-0.425048,-0.948428,-0.0406,0.25494,0.36106
-15.0566,0,0,20.0566,20.0566,5,5,26.415,-0.481545,-21.5625,-0.0690595,-0.26538,0.0391064,1,0,3.7975,0.2275,-0.1575,-0.118096,-0.697352,-0.870226,-0.0406,0.25494,0.36106
-15.0567,0,0,20.0567,20.0567,5,5,26.4153,-0.481173,-21.5621,-0.069066,-0.265375,0.0391041,1,0,3.7975,0.2275,-0.1575,-0.118096,-0.697352,-0.870226,-0.0406,0.25494,0.36106
-15.1461,0,0,20.1461,20.1461,5,5,26.5721,-0.588584,-21.4692,-0.0523702,-0.077057,0.135366,0,0,3.6925,0.5775,0.525,-0.103212,-0.511668,-0.77348,-0.0406,0.25494,0.36106
-15.2336,0,0,20.2336,20.2336,5,5,26.7257,-0.692878,-21.3776,-0.05055,-0.0746704,0.134145,0,0,3.6925,0.5775,0.525,-0.103212,-0.511668,-0.77348,-0.0406,0.25494,0.36106
-15.2211,0,0,20.2211,20.2211,5,5,26.7037,-0.843097,-21.296,-0.115232,0.0183971,-0.0609552,0,0,4.445,-0.035,0.945,-0.1708,-0.418338,-0.967216,-0.0406,0.25494,0.36106
-15.2145,0,0,20.2145,20.2145,5,5,26.6922,-1.28761,-21.0608,-0.323719,0.0795834,0.00293897,0,0,5.0925,0.5075,0.8225,-0.38796,-0.356972,-0.903776,-0.0406,0.25494,0.36106
-15.2066,0,0,20.2066,20.2066,5,5,26.6782,-1.72273,-20.8264,-0.316128,0.0792763,0.00287002,0,0,4.5325,0.2975,0.91,-0.38796,-0.356972,-0.903776,-0.0406,0.25494,0.36106
-15.3138,0,0,20.3138,20.3138,5,5,26.8664,-1.58765,-20.8533,0.123359,-0.203539,0.0674755,0,0,4.2875,-0.1225,0.63,0.055754,-0.642452,-0.838262,-0.0469,0.26208,0.35854
-15.3147,0,0,20.3147,20.3147,5,5,26.8679,-1.58829,-20.8534,-0.00552588,0.00825143,-0.472649,1,0,4.445,-0.4375,-0.1575,-0.073688,-0.430904,-1.37421,-0.0469,0.26208,0.35854
-15.3156,0,0,20.3156,20.3156,5,5,26.8695,-1.58837,-20.8542,-0.00552453,0.00827631,-0.472662,1,0,4.515,-0.315,-0.6475,-0.073688,-0.430904,-1.37421,-0.0469,0.26208,0.35854
-15.3167,0,0,20.3167,20.3167,5,5,26.8714,-1.58808,-20.8555,-0.0718607,0.320951,-0.456202,1,0,4.69,-0.2625,-1.015,-0.1403,-0.118584,-1.35786,-0.0469,0.26208,0.35854
-15.3176,0,0,20.3176,20.3176,5,5,26.873,-1.58727,-20.857,-0.0718748,0.320976,-0.456214,1,0,4.515,-0.035,-1.2425,-0.1403,-0.118584,-1.35786,-0.0469,0.26208,0.35854
-15.3183,0,0,20.3183,20.3183,5,5,26.8742,-1.58661,-20.8583,0.000397605,0.0932282,-0.149589,1,0,4.27,-0.0525,-1.085,-0.06771,-0.346114,-1.05359,-0.0469,0.26208,0.35854
-15.3185,0,0,20.3185,20.3185,5,5,26.8746,-1.58684,-20.86,0.00040164,0.0932346,-0.149593,1,0,3.8325,-0.6475,-1.1025,-0.06771,-0.346114,-1.05359,-0.0469,0.26208,0.35854
-15.319,0,0,20.319,20.319,5,5,26.8754,-1.58742,-20.8616,0.364504,0.113642,-0.31017,1,0,4.0425,-0.7875,-0.9275,0.297924,-0.32574,-1.21292,-0.0469,0.26208,0.35854
-15.3194,0,0,20.3194,20.3194,5,5,26.8762,-1.58762,-20.862,0.364508,0.113654,-0.310176,1,0,4.0775,-0.28,-0.42,0.297924,-0.32574,-1.21292,-0.04172,0.25858,0.35686
-15.2591,0,0,20.2591,20.2591,5,5,26.7704,-1.48328,-20.9236,0.0618889,0.07759,-0.0547969,0,0,4.165,0.2275,-0.28,-0.004148,-0.360144,-0.960384,-0.04172,0.25858,0.35686
-15.2004,0,0,20.2004,20.2004,5,5,26.6673,-1.38215,-20.9839,0.0601243,0.0760035,-0.0539489,0,0,4.48,0.28,0.315,-0.004148,-0.360144,-0.960384,-0.04172,0.25858,0.35686
-15.2173,0,0,20.2173,20.2173,5,5,26.6971,-1.53353,-20.8934,-0.0975956,0.0162285,0.0516167,0,0,4.6025,0.105,0.5075,-0.165188,-0.42029,-0.855342,-0.04172,0.25858,0.35686
-15.2339,0,0,20.2339,20.2339,5,5,26.7261,-1.68156,-20.8036,-0.0950129,0.0166475,0.0513248,0,0,4.76,-0.07,0.6825,-0.165188,-0.42029,-0.855342,-0.04172,0.25858,0.35686
-15.2334,0,0,20.2334,20.2334,5,5,26.7253,-1.52865,-20.8709,0.110303,-0.0255865,-0.0138882,0,0,4.7075,0.35,0.595,0.043676,-0.462502,-0.920124,-0.04172,0.25858,0.35686
-15.2335,0,0,20.2335,20.2335,5,5,26.7254,-1.37983,-20.9379,0.107706,-0.0255558,-0.0138299,0,0,4.9175,0.105,0.4725,0.043676,-0.462502,-0.920124,-0.04172,0.25858,0.35686
-15.2347,0,0,20.2347,20.2347,5,5,26.7275,-1.38035,-20.9372,-0.0781577,0.158523,0.384875,1,0,4.8475,-0.14,0.28,-0.142984,-0.278648,-0.524478,-0.04172,0.25858,0.35686
-15.236,0,0,20.236,20.236,5,5,26.7297,-1.3805,-20.9373,-0.0781551,0.158557,0.384858,1,0,4.865,-0.1925,-0.315,-0.142984,-0.278648,-0.524478,-0.0448,0.26054,0.35714
-15.2373,0,0,20.2373,20.2373,5,5,26.7321,-1.38077,-20.9379,-0.270219,-0.00175806,0.364798,1,0,4.97,-0.35,-0.4725,-0.335866,-0.438834,-0.544364,-0.0448,0.26054,0.35714
-15.2384,0,0,20.2384,20.2384,5,5,26.7341,-1.38055,-20.9394,-0.270223,-0.00172802,0.364783,1,0,4.69,-0.3325,-1.0675,-0.335866,-0.438834,-0.544364,-0.0448,0.26054,0.35714
-15.1688,0,0,20.1688,20.1688,5,5,26.6119,-1.28902,-21.0027,0.0499954,0.0977487,-0.0571694,0,0,4.9525,-0.21,-1.435,-0.012688,-0.337574,-0.964044,-0.0448,0.26054,0.35714
-15.1,0,0,20.1,20.1,5,5,26.4912,-1.20025,-21.0661,0.0484464,0.0958795,-0.0561978,0,0,4.445,-0.35,-1.4525,-0.012688,-0.337574,-0.964044,-0.0448,0.26054,0.35714
-14.8857,0,0,19.8857,19.8857,5,5,26.1152,-0.527512,-21.4749,0.462028,0.31076,-0.0539925,0,0,3.535,0.035,-1.295,0.414434,-0.11712,-0.964898,-0.0448,0.26054,0.35714
-14.6746,0,0,19.6746,19.6746,5,5,25.7449,0.129923,-21.886,0.450553,0.304965,-0.0511308,0,0,3.535,0.035,-1.295,0.414434,-0.11712,-0.964898,-0.0448,0.26054,0.35714
-14.405,0,0,19.405,19.405,5,5,25.2719,0.666957,-22.2672,0.348487,0.417414,-0.10751,0,0,3.5875,-0.21,-0.7,0.321348,0.002684,-1.02431,-0.0448,0.26054,0.35714
-14.139,0,0,19.139,19.139,5,5,24.8053,1.19278,-22.6482,0.339311,0.409974,-0.104199,0,0,3.5875,-0.21,-0.7,0.321348,0.002684,-1.02431,-0.04746,0.2583,0.3486
-14.2549,0,0,19.2549,19.2549,5,5,25.0087,0.638039,-22.3368,-0.343598,-0.0395877,0.190138,0,0,4.4625,0.175,0.315,-0.374174,-0.449692,-0.730902,-0.04746,0.2583,0.3486
-14.3675,0,0,19.3675,19.3675,5,5,25.2061,0.0957707,-22.0297,-0.334134,-0.0364422,0.188731,0,0,4.4625,0.175,0.315,-0.374174,-0.449692,-0.730902,-0.04746,0.2583,0.3486
-14.3684,0,0,19.3684,19.3684,5,5,25.2077,0.0945678,-22.0277,0.331143,-0.274442,-0.0220151,1,0,4.5325,-0.21,1.085,0.293898,-0.68747,-0.94001,-0.04746,0.2583,0.3486
-14.3693,0,0,19.3693,19.3693,5,5,25.2093,0.0933649,-22.0258,0.331164,-0.274416,-0.022027,1,0,4.5325,-0.21,1.085,0.293898,-0.68747,-0.94001,-0.04746,0.2583,0.3486
-14.37,0,0,19.37,19.37,5,5,25.2105,0.0929595,-22.024,-0.0530885,-0.0121906,0.150461,1,0,4.3225,0.1575,0.77,-0.091988,-0.425536,-0.768844,-0.04746,0.2583,0.3486
-14.4093,0,0,19.4093,19.4093,5,5,25.2794,-0.229642,-21.8513,-0.229565,-0.0246617,0.010272,0,0,4.3575,0.2625,0.7525,-0.274866,-0.439078,-0.907436,-0.04746,0.2583,0.3486
-14.4471,0,0,19.4471,19.4471,5,5,25.3458,-0.543771,-21.6804,-0.224083,-0.0236311,0.00974369,0,0,4.27,0.6475,0.4375,-0.274866,-0.439078,-0.907436,-0.04746,0.2583,0.3486
-14.3769,0,0,19.3769,19.3769,5,5,25.2226,-0.302582,-21.8303,0.168359,0.0677429,-0.0888982,0,0,4.9175,-0.14,0.105,0.123464,-0.34587,-1.00626,-0.04746,0.2583,0.3486
-14.3081,0,0,19.3081,19.3081,5,5,25.1019,-0.0677334,-21.9748,0.16426,0.0658427,-0.0879909,0,0,4.7425,-0.14,-0.28,0.123464,-0.34587,-1.00626,-0.04802,0.25606,0.35322
-14.3091,0,0,19.3091,19.3091,5,5,25.1036,-0.0674646,-21.9752,-0.0359533,0.346638,-0.203083,1,0,4.5675,-0.0175,-0.525,-0.077592,-0.065392,-1.12045,-0.04802,0.25606,0.35322
-14.3094,0,0,19.3094,19.3094,5,5,25.1042,-0.0667248,-21.9755,-0.0359662,0.346648,-0.203087,1,0,3.955,0.2625,-0.5775,-0.077592,-0.065392,-1.12045,-0.04802,0.25606,0.35322
-14.3292,0,0,19.3292,19.3292,5,5,25.139,-0.0499269,-21.9786,0.0167084,-0.0506911,-0.019414,0,0,3.6575,0.105,-0.7,-0.0244,-0.462868,-0.937936,-0.04802,0.25606,0.35322
-14.3486,0,0,19.3486,19.3486,5,5,25.173,-0.0340467,-21.9824,0.0164312,-0.0501531,-0.0196665,0,0,3.5525,-0.385,-0.8925,-0.0244,-0.462868,-0.937936,-0.04802,0.25606,0.35322
-14.2082,0,0,19.2082,19.2082,5,5,24.9266,0.424738,-22.2717,0.326717,0.174072,-0.0976638,0,0,3.64,-0.4725,-0.7,0.29524,-0.234972,-1.01711,-0.04802,0.25606,0.35322
-14.0703,0,0,19.0703,19.0703,5,5,24.6848,0.872887,-22.5601,0.318895,0.170204,-0.0959735,0,0,3.64,0.1225,-0.385,0.29524,-0.234972,-1.01711,-0.04802,0.25606,0.35322
-14.0573,0,0,19.0573,19.0573,5,5,24.6619,0.71961,-22.4973,-0.112255,0.050416,0.0105775,0,0,3.9025,-0.0175,-0.5075,-0.140422,-0.354288,-0.911584,-0.04802,0.25606,0.35322
-14.044,0,0,19.044,19.044,5,5,24.6387,0.570423,-22.4371,-0.109651,0.0500602,0.0107731,0,0,3.8325,0.42,0.07,-0.140422,-0.354288,-0.911584,-0.04788,0.25984,0.36162
-14.0706,0,0,19.0706,19.0706,5,5,24.6853,0.697563,-22.5031,0.0990288,-0.0539949,0.0289762,0,0,4.1825,0.2275,0.4025,0.07137,-0.458964,-0.893162,-0.04788,0.25984,0.36162
-14.0969,0,0,19.0969,19.0969,5,5,24.7313,0.821706,-22.568,0.0968623,-0.0532774,0.0286145,0,0,4.0775,0.2625,0.5425,0.07137,-0.458964,-0.893162,-0.04788,0.25984,0.36162
-14.0972,0,0,19.0972,19.0972,5,5,24.7319,0.822008,-22.5668,0.268881,-0.23768,-0.117698,1,0,3.92,0.4025,0.3325,0.244122,-0.643184,-1.03834,-0.04788,0.25984,0.36162
-14.0981,0,0,19.0981,19.0981,5,5,24.7335,0.822078,-22.5666,0.26888,-0.237654,-0.11771,1,0,4.55,0.0175,-0.175,0.244122,-0.643184,-1.03834,-0.04788,0.25984,0.36162
-14.0988,0,0,19.0988,19.0988,5,5,24.7347,0.821743,-22.5669,-0.117196,0.216555,0.173669,1,0,4.3225,-0.3325,-0.3675,-0.143594,-0.189466,-0.749202,-0.04788,0.25984,0.36162
-14.1,0,0,19.1,19.1,5,5,24.7368,0.821851,-22.5677,-0.117198,0.216587,0.173654,1,0,4.7775,-0.1925,-0.6825,-0.143594,-0.189466,-0.749202,-0.04788,0.25984,0.36162
-14.0214,0,0,19.0214,19.0214,5,5,24.5989,0.1353,-22.2561,-0.469916,0.289916,0.149668,0,0,4.795,-0.4725,-0.8225,-0.509838,-0.11407,-0.77409,-0.04788,0.25984,0.36162
-13.9423,0,0,18.9423,18.9423,5,5,24.4602,-0.53834,-21.9383,-0.458159,0.287696,0.150635,0,0,4.6025,-0.525,-1.295,-0.509838,-0.11407,-0.77409,-0.04452,0.25508,0.35812
-13.9437,0,0,18.9437,18.9437,5,5,24.4627,-0.538516,-21.9402,0.0997065,0.0909902,-0.301219,1,0,5.04,-0.6125,-1.2075,0.050386,-0.310612,-1.22244,-0.04452,0.25508,0.35812
-13.9452,0,0,18.9452,18.9452,5,5,24.4652,-0.538691,-21.942,0.0997095,0.0910304,-0.301237,1,0,5.04,-0.6125,-1.2075,0.050386,-0.310612,-1.22244,-0.04452,0.25508,0.35812
-13.945,0,0,18.945,18.945,5,5,24.4649,-0.538037,-21.9435,0.641767,0.180666,-0.177056,1,0,3.43,-0.07,-1.19,0.59475,-0.221064,-1.09922,-0.04452,0.25508,0.35812
-13.9448,0,0,18.9448,18.9448,5,5,24.4645,-0.537382,-21.945,0.641756,0.180661,-0.177054,1,0,3.43,-0.07,-1.19,0.59475,-0.221064,-1.09922,-0.04452,0.25508,0.35812
-13.9439,0,0,18.9439,18.9439,5,5,24.4631,-0.53688,-21.9451,-0.151311,0.0712116,0.175819,1,0,2.8,0.175,-0.4375,-0.201666,-0.330376,-0.74908,-0.04452,0.25508,0.35812
-13.9431,0,0,18.9431,18.9431,5,5,24.4616,-0.536379,-21.9452,-0.15132,0.0711881,0.17583,1,0,2.8,0.175,-0.4375,-0.201666,-0.330376,-0.74908,-0.04452,0.25508,0.35812
-13.9333,0,0,18.9333,18.9333,5,5,24.4444,-0.444346,-21.9953,0.0691494,-0.0234832,-0.0678404,0,0,4.0425,0.07,0.07,0.02135,-0.424682,-0.991006,-0.04452,0.25508,0.35812
-13.9237,0,0,18.9237,18.9237,5,5,24.4275,-0.353956,-22.0432,0.0675718,-0.0237468,-0.0677085,0,0,4.0425,0.07,0.07,0.02135,-0.424682,-0.991006,-0.05068,0.25592,0.3507
-13.9181,0,0,18.9181,18.9181,5,5,24.4176,-0.379239,-22.03,-0.0212789,-0.0201192,-0.0807952,0,0,4.235,-0.0525,0.84,-0.06832,-0.4209,-1.00406,-0.05068,0.25592,0.3507
-13.9125,0,0,18.9125,18.9125,5,5,24.4078,-0.403946,-22.0169,-0.0208477,-0.0202762,-0.0807272,0,0,4.235,-0.0525,0.84,-0.06832,-0.4209,-1.00406,-0.05068,0.25592,0.3507
-13.9128,0,0,18.9128,18.9128,5,5,24.4085,-0.403802,-22.0158,-0.0504927,0.106135,0.0889372,1,0,3.99,0.28,0.2975,-0.098088,-0.29463,-0.8357,-0.05068,0.25592,0.3507
-13.9132,0,0,18.9132,18.9132,5,5,24.4091,-0.403658,-22.0147,-0.0504952,0.106145,0.0889326,1,0,3.99,0.28,0.2975,-0.098088,-0.29463,-0.8357,-0.05068,0.25592,0.3507
-13.8674,0,0,18.8674,18.8674,5,5,24.3288,-0.221738,-22.1235,0.125521,0.0455223,-0.042889,0,0,4.375,0.105,0.245,0.081862,-0.353922,-0.967094,-0.05068,0.25592,0.3507
-13.8801,0,0,18.8801,18.8801,5,5,24.3511,-0.139074,-22.1626,0.0604199,-0.00785739,0.0538384,0,0,4.655,-0.245,0.0175,0.017934,-0.407602,-0.870958,-0.05068,0.25592,0.3507
-13.8927,0,0,18.8927,18.8927,5,5,24.3732,-0.0584427,-22.2019,0.0590126,-0.00750426,0.0536811,0,0,4.6725,-0.4725,-0.35,0.017934,-0.407602,-0.870958,-0.05068,0.25592,0.3507
-13.8934,0,0,18.8934,18.8934,5,5,24.3743,-0.0585054,-22.2025,-0.114103,0.305402,-0.246813,1,0,4.235,-0.2275,-0.525,-0.155916,-0.095038,-1.16913,-0.04662,0.2583,0.35896
-13.8934,0,0,18.8934,18.8934,5,5,24.3743,-0.0585557,-22.203,-0.10657,0.222722,0.0862546,1,0,3.64,-0.2275,-0.5425,-0.148352,-0.177632,-0.838628,-0.04662,0.2583,0.35896
-13.8926,0,0,18.8926,18.8926,5,5,24.373,-0.0580642,-22.2034,-0.106579,0.222702,0.0862639,1,0,2.905,0.105,-0.5775,-0.148352,-0.177632,-0.838628,-0.04662,0.2583,0.35896
-13.8924,0,0,18.8924,18.8924,5,5,24.3727,-0.0582085,-22.204,0.146357,0.107653,-0.147582,1,0,3.4475,-0.28,-0.525,0.105652,-0.292556,-1.07067,-0.04662,0.2583,0.35896
-13.8918,0,0,18.8918,18.8918,5,5,24.3715,-0.0583801,-22.2042,0.14636,0.107634,-0.147573,1,0,2.975,-0.21,-0.3325,0.105652,-0.292556,-1.07067,-0.04662,0.2583,0.35896
-13.8922,0,0,18.8922,18.8922,5,5,24.3722,-0.0582971,-22.2037,0.0873162,-0.0980159,-0.158029,1,0,4.025,0.105,0,0.04636,-0.498004,-1.08104,-0.04662,0.2583,0.35896
-13.892,0,0,18.892,18.892,5,5,24.372,-0.0580632,-22.2027,0.0873121,-0.0980201,-0.158027,1,0,3.4825,0.2975,0.21,0.04636,-0.498004,-1.08104,-0.04662,0.2583,0.35896
-13.8923,0,0,18.8923,18.8923,5,5,24.3725,-0.0582771,-22.2019,0.0887737,0.192405,0.153398,1,0,3.9025,0.0175,0.2275,0.047824,-0.207888,-0.772016,-0.04662,0.2583,0.35896
-13.8923,0,0,18.8923,18.8923,5,5,24.3725,-0.0589907,-22.2012,0.0887861,0.192406,0.153398,1,0,3.6575,-0.28,0.28,0.047824,-0.207888,-0.772016,-0.0525,0.25634,0.36162
-13.8921,0,0,18.8921,18.8921,5,5,24.3721,-0.0594272,-22.2003,0.267256,-0.00227098,0.262825,1,0,3.395,-0.07,0.35,0.227042,-0.402356,-0.663436,-0.0525,0.25634,0.36162
-13.8924,0,0,18.8924,18.8924,5,5,24.3726,-0.0589706,-22.1998,0.267248,-0.00226327,0.262821,1,0,3.9025,0.2975,-0.105,0.227042,-0.402356,-0.663436,-0.0525,0.25634,0.36162
-13.8925,0,0,18.8925,18.8925,5,5,24.3728,-0.0584422,-22.1996,0.0649654,-0.307332,-0.205737,1,0,3.78,0.28,-0.245,0.023912,-0.707112,-1.12838,-0.0525,0.25634,0.36162
-13.8931,0,0,18.8931,18.8931,5,5,24.3738,-0.0581537,-22.1996,0.0649603,-0.307316,-0.205744,1,0,4.1825,0.07,-0.3675,0.023912,-0.707112,-1.12838,-0.0525,0.25634,0.36162
-13.8938,0,0,18.8938,18.8938,5,5,24.375,-0.0585007,-22.2006,-0.148484,-0.0426487,-0.140959,1,0,4.2875,-0.49,-0.7,-0.190442,-0.442738,-1.06408,-0.0525,0.25634,0.36162
-13.894,0,0,18.894,18.894,5,5,24.3754,-0.0591717,-22.2021,-0.148472,-0.0426429,-0.140962,1,0,3.8325,-0.77,-0.8575,-0.190442,-0.442738,-1.06408,-0.0525,0.25634,0.36162
-13.9048,0,0,18.9048,18.9048,5,5,24.3943,-0.33406,-22.055,-0.194213,0.0297067,0.0285555,0,0,3.3775,-0.28,-0.945,-0.241194,-0.370758,-0.895724,-0.0525,0.25634,0.36162
-13.914,0,0,18.914,18.914,5,5,24.4106,-0.601659,-21.9093,-0.189542,0.0299495,0.0284035,0,0,2.87,-0.49,-0.945,-0.241194,-0.370758,-0.895724,-0.0469,0.2527,0.35392
-13.9135,0,0,18.9135,18.9135,5,5,24.4096,-0.601468,-21.9106,0.419827,-0.204794,-0.0473253,1,0,3.045,-0.28,-0.9975,0.370758,-0.605242,-0.970876,-0.0469,0.2527,0.35392
-13.9132,0,0,18.9132,18.9132,5,5,24.4092,-0.600583,-21.9115,0.419811,-0.2048,-0.0473224,1,0,3.4125,0.175,-0.98,0.370758,-0.605242,-0.970876,-0.0469,0.2527,0.35392
-13.9128,0,0,18.9128,18.9128,5,5,24.4085,-0.599527,-21.9122,-0.00625762,0.0189248,-0.181946,1,0,3.2375,0.3325,-0.875,-0.057096,-0.381738,-1.10447,-0.0469,0.2527,0.35392
-13.9128,0,0,18.9128,18.9128,5,5,24.4083,-0.598808,-21.9122,-0.00627017,0.0189222,-0.181945,1,0,3.535,0.315,-0.4375,-0.057096,-0.381738,-1.10447,-0.0469,0.2527,0.35392
-13.8766,0,0,18.8766,18.8766,5,5,24.3448,-0.533576,-21.9531,0.0387559,0.0661573,0.0188063,0,0,3.605,0.0175,-0.035,-0.010736,-0.333548,-0.905728,-0.0469,0.2527,0.35392
-13.8396,0,0,18.8396,18.8396,5,5,24.28,-0.469947,-21.9931,0.0376455,0.0651305,0.0192809,0,0,2.1525,0.21,0.21,-0.010736,-0.333548,-0.905728,-0.0469,0.2527,0.35392
-13.8391,0,0,18.8391,18.8391,5,5,24.2792,-0.470269,-21.9924,0.105319,-0.14714,-0.0532526,1,0,3.15,-0.0525,0.2275,0.057218,-0.545584,-0.977708,-0.0469,0.2527,0.35392
-13.8385,0,0,18.8385,18.8385,5,5,24.2781,-0.47126,-21.9913,0.105336,-0.147157,-0.0532449,1,0,3.0275,-0.3325,0.56,0.057218,-0.545584,-0.977708,-0.04984,0.25522,0.357
-13.8383,0,0,18.8383,18.8383,5,5,24.2778,-0.471708,-21.9903,-0.0109181,-0.102829,0.224621,1,0,3.4825,-0.07,0.3675,-0.059536,-0.501298,-0.701988,-0.04984,0.25522,0.357
-13.8393,0,0,18.8393,18.8393,5,5,24.2794,-0.471693,-21.9899,-0.0109184,-0.102804,0.224609,1,0,4.5325,0.0525,-0.0175,-0.059536,-0.501298,-0.701988,-0.04984,0.25522,0.357
-13.8397,0,0,18.8397,18.8397,5,5,24.2802,-0.471913,-21.9892,-0.087815,0.117403,0.200874,1,0,4.06,-0.035,0.1225,-0.136762,-0.281332,-0.725534,-0.04984,0.25522,0.357
-13.8407,0,0,18.8407,18.8407,5,5,24.2819,-0.471924,-21.9887,-0.0878148,0.11743,0.200862,1,0,4.585,0.0525,0.0175,-0.136762,-0.281332,-0.725534,-0.04984,0.25522,0.357
-13.7365,0,0,18.7365,18.7365,5,5,24.099,-0.177896,-22.1771,0.202871,0.130896,-0.0804623,0,0,4.1475,-0.4025,-0.21,0.160308,-0.264984,-1.00601,-0.04984,0.25522,0.357
-13.6341,0,0,18.6341,18.6341,5,5,23.9195,0.109063,-22.3653,0.197863,0.128036,-0.0791848,0,0,3.9725,-0.28,-0.3675,0.160308,-0.264984,-1.00601,-0.04984,0.25522,0.357
-13.4297,0,0,18.4297,18.4297,5,5,23.5609,0.316282,-22.5552,0.098637,0.33248,-0.00303071,0,0,4.0075,-0.42,-0.5075,0.064294,-0.055022,-0.932934,-0.04984,0.25522,0.357
-13.2282,0,0,18.2282,18.2282,5,5,23.2074,0.517979,-22.7461,0.0951168,0.326807,-0.000605643,0,0,3.5175,-0.525,-0.56,0.064294,-0.055022,-0.932934,-0.04984,0.25522,0.357
-13.3628,0,0,18.3628,18.3628,5,5,23.4435,0.594163,-22.7495,0.0835824,-0.178194,0.168403,0,0,3.5875,0.0175,-0.595,0.054046,-0.563274,-0.763598,-0.04676,0.25746,0.35364
-13.3622,0,0,18.3622,18.3622,5,5,23.4425,0.595172,-22.7496,0.130823,0.0307496,-0.238427,1,0,3.0975,0.455,-0.5425,0.101504,-0.354532,-1.1673,-0.04676,0.25746,0.35364
-13.3624,0,0,18.3624,18.3624,5,5,23.4428,0.595987,-22.7494,0.130809,0.0307543,-0.238429,1,0,3.7975,0.4375,-0.2975,0.101504,-0.354532,-1.1673,-0.04676,0.25746,0.35364
-13.3628,0,0,18.3628,18.3628,5,5,23.4435,0.596453,-22.7484,0.279377,-0.0249246,-0.113395,1,0,4.0075,0.42,0.175,0.25071,-0.410164,-1.04322,-0.04676,0.25746,0.35364
-13.3622,0,0,18.3622,18.3622,5,5,23.4424,0.596902,-22.7466,0.27937,-0.024942,-0.113388,1,0,3.01,0.5775,0.56,0.25071,-0.410164,-1.04322,-0.04676,0.25746,0.35364
-13.4981,0,0,18.4981,18.4981,5,5,23.6809,0.581058,-22.6982,0.0230683,-0.255732,0.051055,0,0,3.0975,0.7175,0.42,-0.006954,-0.644526,-0.8784,-0.04676,0.25746,0.35364
-13.6315,0,0,18.6315,18.6315,5,5,23.9149,0.565401,-22.6512,0.0233415,-0.251994,0.0494096,0,0,3.01,0.0175,0.2975,-0.006954,-0.644526,-0.8784,-0.04676,0.25746,0.35364
-13.6888,0,0,18.6888,18.6888,5,5,24.0155,0.507235,-22.5986,-0.0281252,-0.0542496,0.0940727,0,0,3.08,-0.245,0.07,-0.059658,-0.448594,-0.833382,-0.05012,0.25172,0.35644
-13.6889,0,0,18.6889,18.6889,5,5,24.0156,0.507477,-22.5982,0.0695451,0.0427198,0.130219,1,0,3.6575,0.1575,-0.105,0.03843,-0.351726,-0.797514,-0.05012,0.25172,0.35644
-13.6898,0,0,18.6898,18.6898,5,5,24.0173,0.508359,-22.5981,0.0695297,0.0427469,0.130207,1,0,4.585,0.42,-0.4375,0.03843,-0.351726,-0.797514,-0.05012,0.25172,0.35644
-13.6913,0,0,18.6913,18.6913,5,5,24.0198,0.509667,-22.5985,-0.141878,-0.00862848,0.138058,1,0,5.04,0.56,-0.735,-0.17385,-0.403088,-0.789706,-0.05012,0.25172,0.35644
-13.6927,0,0,18.6927,18.6927,5,5,24.0223,0.510976,-22.5988,-0.141901,-0.00858853,0.13804,1,0,5.04,0.56,-0.735,-0.17385,-0.403088,-0.789706,-0.05012,0.25172,0.35644
-13.6926,0,0,18.6926,18.6926,5,5,24.0222,0.510553,-22.5998,0.0106924,-0.198986,-0.194043,1,0,3.57,-0.5425,-0.7175,-0.020618,-0.593286,-1.11923,-0.05012,0.25172,0.35644
-13.6926,0,0,18.6926,18.6926,5,5,24.0221,0.51013,-22.6009,0.0106997,-0.198988,-0.194042,1,0,3.57,-0.5425,-0.7175,-0.020618,-0.593286,-1.11923,-0.05012,0.25172,0.35644
-13.4707,0,0,18.4707,18.4707,5,5,23.6328,0.593851,-22.7338,0.0127617,0.37062,-0.125165,0,0,2.5375,-0.7,-0.9625,-0.01708,-0.018056,-1.05359,-0.05012,0.25172,0.35644
-13.2523,0,0,18.2523,18.2523,5,5,23.2497,0.675223,-22.8723,0.0113416,0.364479,-0.122519,0,0,2.5375,-0.7,-0.9625,-0.01708,-0.018056,-1.05359,-0.0441,0.25144,0.35588
-13.1819,0,0,18.1819,18.1819,5,5,23.1262,0.957838,-23.0608,0.175032,0.116752,0.0769493,0,0,2.94,-0.035,-0.8575,0.152256,-0.26352,-0.85644,-0.0441,0.25144,0.35588
-13.1131,0,0,18.1131,18.1131,5,5,23.0054,1.2335,-23.2482,0.170221,0.114776,0.0776908,0,0,2.94,-0.035,-0.8575,0.152256,-0.26352,-0.85644,-0.0441,0.25144,0.35588
-13.2256,0,0,18.2256,18.2256,5,5,23.2028,1.26573,-23.2313,0.0507245,-0.177119,0.0945241,0,0,3.71,0.385,-0.42,0.032818,-0.558272,-0.838384,-0.0441,0.25144,0.35588
-13.3362,0,0,18.3362,18.3362,5,5,23.3969,1.29786,-23.2146,0.0501638,-0.174014,0.0931732,0,0,3.71,0.385,-0.42,0.032818,-0.558272,-0.838384,-0.0441,0.25144,0.35588
