pid_x,pid_y,pid_z,front_left_speed,front_right_speed,back_left_speed,back_right_speed,orientation_x,orientation_y,orientation_z,acceleration_x,acceleration_y,acceleration_z,accel_rejected,mag_rejected,gyro_x,gyro_y,gyro_z,accel_x,accel_y,accel_z,mag_x,mag_y,mag_z
0.322805,0,0,9.67719,9.67719,10.3228,10.3228,-0.46115,-0.100684,0.325583,0.0587779,0.394536,0.0848624,0,0,3.465,0.21,-0.4025,0.016958,0.414312,-0.92842,-0.05054,-0.1176,0.4984
0.637205,0,0,9.36279,9.36279,10.6372,10.6372,-0.910293,-0.193466,0.653227,0.0627055,0.382301,0.0853792,0,0,3.57,0.0525,-0.42,0.019276,0.40992,-0.92781,-0.05054,-0.1176,0.4984
0.946507,0,0,9.05349,9.05349,10.9465,10.9465,-1.35215,-0.282635,0.98515,0.0642618,0.374591,0.0852205,0,0,3.4475,0.0175,-0.28,0.019276,0.40992,-0.92781,-0.05054,-0.1176,0.4984
1.25225,0,0,8.74775,8.74775,11.2522,11.2522,-1.78892,-0.373278,1.32458,0.0624422,0.370269,0.0825435,0,0,3.3775,-0.0525,-0.2975,0.01586,0.413214,-0.93025,-0.05054,-0.1176,0.4984
1.55278,0,0,8.44722,8.44722,11.5528,11.5528,-2.21826,-0.457209,1.66495,0.0662152,0.35985,0.0891561,0,0,3.4125,-0.0875,-0.2975,0.018178,0.410286,-0.923418,-0.05054,-0.1176,0.4984
1.84828,0,0,8.15172,8.15172,11.8483,11.8483,-2.64039,-0.537663,2.00893,0.0676194,0.352489,0.0888316,0,0,3.4125,-0.105,-0.4375,0.018178,0.410286,-0.923418,-0.05054,-0.1176,0.4984
2.14064,0,0,7.85936,7.85936,12.1406,12.1406,-3.05806,-0.615647,2.35716,0.0698308,0.348629,0.087472,0,0,3.5175,-0.1225,-0.315,0.019032,0.413702,-0.924394,-0.049,-0.1197,0.50092
2.42766,0,0,7.57234,7.57234,12.4277,12.4277,-3.46808,-0.686587,2.70576,0.0739845,0.340509,0.088649,0,0,3.6225,-0.0525,-0.35,0.02196,0.412726,-0.922808,-0.049,-0.1197,0.50092
2.70899,0,0,7.29101,7.29101,12.709,12.709,-3.86999,-0.759657,3.06416,0.0696714,0.331434,0.0896594,0,0,3.535,0.035,-0.2625,0.016348,0.410652,-0.921344,-0.049,-0.1197,0.50092
2.9854,0,0,7.0146,7.0146,12.9854,12.9854,-4.26486,-0.829341,3.42634,0.0708875,0.324562,0.0891538,0,0,3.675,0.07,-0.175,0.016348,0.410652,-0.921344,-0.049,-0.1197,0.50092
3.25741,0,0,6.74259,6.74259,13.2574,13.2574,-4.65345,-0.891397,3.78786,0.0762224,0.3211,0.0816023,0,0,3.465,0.2275,-0.175,0.020618,0.413946,-0.928298,-0.049,-0.1197,0.50092
3.52203,0,0,6.47797,6.47797,13.522,13.522,-5.03148,-0.95224,4.15658,0.0736396,0.308421,0.0848398,0,0,3.1675,0.2275,-0.175,0.016958,0.407846,-0.924516,-0.049,-0.1197,0.50092
3.7816,0,0,6.2184,6.2184,13.7816,13.7816,-5.40228,-1.01026,4.52854,0.0746522,0.301979,0.0842342,0,0,3.605,0.0875,-0.2625,0.016958,0.407846,-0.924516,-0.049,-0.1197,0.50092
4.03743,0,0,5.96257,5.96257,14.0374,14.0374,-5.76776,-1.06853,4.91066,0.0755475,0.301373,0.0727756,0,0,3.6575,0.0525,-0.2625,0.016836,0.41358,-0.935252,-0.049,-0.12376,0.49924
4.29555,0,0,5.70445,5.70445,14.2956,14.2956,-6.1365,-1.12346,5.29173,0.0793002,0.294975,0.0924996,0,0,3.4475,-0.1575,-0.245,0.019642,0.41358,-0.915,-0.049,-0.12376,0.49924
4.5473,0,0,5.4527,5.4527,14.5473,14.5473,-6.49614,-1.17316,5.67497,0.0817468,0.289839,0.0838002,0,0,3.57,-0.105,-0.2275,0.021228,0.414678,-0.92293,-0.049,-0.12376,0.49924
4.79496,0,0,5.20504,5.20504,14.795,14.795,-6.84994,-1.21995,6.06159,0.0825632,0.283709,0.0830659,0,0,3.395,-0.0875,-0.1575,0.021228,0.414678,-0.92293,-0.049,-0.12376,0.49924
5.03483,0,0,5,5,15.0348,15.0348,-7.19261,-1.26642,6.45582,0.0792435,0.27509,0.0770308,0,0,3.3075,-0.035,-0.245,0.01708,0.411994,-0.928176,-0.049,-0.12376,0.49924
5.27243,0,0,5,5,15.2724,15.2724,-7.53204,-1.3069,6.84866,0.0835944,0.267997,0.0854772,0,0,3.43,-0.0525,-0.2625,0.02074,0.410774,-0.919026,-0.049,-0.12376,0.49924
5.50576,0,0,5,5,15.5058,15.5058,-7.86537,-1.34452,7.24459,0.0842509,0.262235,0.084683,0,0,3.57,0.0525,-0.245,0.02074,0.410774,-0.919026,-0.049,-0.12376,0.49924
5.72234,0,0,5,5,15.7223,15.7223,-8.17478,-1.24915,7.25164,0.0833156,0.258838,0.0768361,0,1,3.5875,-0.0525,-0.2625,0.021472,0.412726,-0.926102,-0.04648,-0.12012,0.50596
5.93456,0,0,5,5,15.9346,15.9346,-8.47794,-1.15776,7.2581,0.0795343,0.2514,0.0813899,0,1,3.78,-0.105,-0.245,0.019276,0.41053,-0.920856,-0.04648,-0.12012,0.50596
6.14355,0,0,5,5,16.1435,16.1435,-8.77649,-1.07165,7.26404,0.075116,0.248566,0.0780554,0,1,3.745,-0.105,-0.2275,0.016348,0.412848,-0.923418,-0.04648,-0.12012,0.50596
6.3486,0,0,5,5,16.3486,16.3486,-9.06942,-0.987234,7.26931,0.0736429,0.243512,0.0772887,0,1,3.64,-0.1225,-0.2975,0.016348,0.412848,-0.923418,-0.04648,-0.12012,0.50596
6.54785,0,0,5,5,16.5478,16.5478,-9.35407,-0.897205,7.27407,0.0781461,0.236772,0.0759043,0,1,3.815,0.07,-0.2275,0.022448,0.411018,-0.924028,-0.04648,-0.12012,0.50596
6.74363,0,0,5,5,16.7436,16.7436,-9.63376,-0.813528,7.27823,0.0725553,0.232199,0.0754896,0,1,3.7275,0.105,-0.28,0.0183,0.411262,-0.923662,-0.04648,-0.12012,0.50596
6.9358,0,0,5,5,16.9358,16.9358,-9.90829,-0.731479,7.28179,0.0711234,0.227474,0.0746955,0,1,3.57,0.105,-0.35,0.0183,0.411262,-0.923662,-0.04648,-0.12012,0.50596
7.12487,0,0,5,5,17.1249,17.1249,-10.1784,-0.649798,7.28506,0.0709127,0.223929,0.0732756,0,1,3.465,0.0525,-0.2625,0.01952,0.41236,-0.924272,-0.04102,-0.11942,0.50512
7.30951,0,0,5,5,17.3095,17.3095,-10.4422,-0.571341,7.2877,0.0680856,0.217809,0.0739415,0,1,3.5175,0,-0.385,0.018056,0.410774,-0.922808,-0.04102,-0.11942,0.50512
7.49191,0,0,5,5,17.4919,17.4919,-10.7027,-0.489372,7.29027,0.0709071,0.213581,0.0768086,0,1,3.43,-0.035,-0.1925,0.022326,0.411018,-0.919148,-0.04102,-0.11942,0.50512
7.66994,0,0,5,5,17.6699,17.6699,-10.9571,-0.411342,7.29227,0.067723,0.21044,0.0711901,0,1,3.57,0.0175,-0.28,0.020496,0.412238,-0.923906,-0.04102,-0.11942,0.50512
7.84448,0,0,5,5,17.8445,17.8445,-11.2064,-0.335077,7.29385,0.0663919,0.206168,0.0703621,0,1,3.5875,-0.1225,-0.3325,0.020496,0.412238,-0.923906,-0.04102,-0.11942,0.50512
7.98368,0,0,5,5,17.9837,17.9837,-11.4053,-0.298949,7.29483,0.0316239,0.166004,0.0492757,0,1,3.36,-0.0875,-0.3675,-0.013786,0.375516,-0.944158,-0.04102,-0.11942,0.50512
8.11984,0,0,5,5,18.1198,18.1198,-11.5998,-0.263531,7.29552,0.0310057,0.162676,0.0486017,0,1,3.5875,-0.07,-0.455,-0.013786,0.375516,-0.944158,-0.04102,-0.11942,0.50512
8.2913,0,0,5,5,18.2913,18.2913,-11.8447,-0.293207,7.29685,-0.0225375,0.165819,0.151622,0,1,3.675,-0.2275,-0.245,-0.068076,0.382836,-0.841068,-0.04102,-0.11942,0.50512
8.42251,0,0,5,5,18.4225,18.4225,-12.0322,-0.271118,7.64809,0.0906662,0.148695,0.0437362,0,0,3.4825,-0.07,-0.4025,0.045994,0.368928,-0.947452,-0.04648,-0.11144,0.50246
8.60973,0,0,5,5,18.6097,18.6097,-12.2996,-0.347273,8.08384,0.0172816,0.226325,0.03918,0,0,3.6575,0.035,-0.4375,-0.029036,0.451034,-0.95099,-0.04648,-0.11144,0.50246
8.75375,0,0,5,5,18.7537,18.7537,-12.5054,-0.314122,8.42195,0.114135,0.178241,0.0113633,0,0,3.85,-0.0175,-0.5425,0.068808,0.406504,-0.97783,-0.04648,-0.11144,0.50246
8.89524,0,0,5,5,18.8952,18.8952,-12.7075,-0.280405,8.76201,0.113546,0.174798,0.0105964,0,0,3.815,-0.07,-0.56,0.068808,0.406504,-0.97783,-0.04648,-0.11144,0.50246
9.2127,0,0,5,5,19.2127,19.2127,-13.161,-0.128653,8.86623,0.313779,0.309481,0.23469,0,0,3.955,-0.2975,-0.7175,0.272548,0.548756,-0.753716,-0.04648,-0.11144,0.50246
8.96585,0,0,5,5,18.9658,18.9658,-12.8084,-0.316288,9.54027,-0.274946,-0.286726,0.172128,0,0,4.0425,-0.5075,-0.6125,-0.321958,-0.052826,-0.817156,-0.04648,-0.11144,0.50246
8.96612,0,0,5,5,18.9661,18.9661,-12.8087,-0.315189,9.53941,-0.274966,-0.286732,0.172126,1,0,3.3425,0.735,-0.63,-0.321958,-0.052826,-0.817156,-0.04648,-0.11144,0.50246
9.2167,0,0,5,5,19.2167,19.2167,-13.1667,-0.60527,9.54253,-0.238074,0.255294,0.202034,0,1,3.01,0.0525,-0.1225,-0.289994,0.49471,-0.786046,-0.04256,-0.10948,0.51268
9.37424,0,0,5,5,19.3742,19.3742,-13.3918,0.00891506,9.54487,0.589701,0.186731,0.14795,0,1,3.2725,0.3675,0.5075,0.55205,0.43005,-0.838872,-0.04256,-0.10948,0.51268
9.684,0,0,5,5,19.684,19.684,-13.8343,-0.174132,9.54715,-0.176351,0.411877,0.102973,0,1,2.7125,-0.1575,0.665,-0.220454,0.66246,-0.881694,-0.04256,-0.10948,0.51268
9.98725,0,0,5,5,19.9872,19.9872,-14.2675,-0.355551,9.55099,-0.173185,0.404546,0.101123,0,1,3.4475,-1.155,0.5425,-0.220454,0.66246,-0.881694,-0.04256,-0.10948,0.51268
10.014,0,0,5,5,20.014,20.014,-14.3057,-0.441189,9.55343,-0.0922387,0.0926019,-0.198063,0,1,3.605,-0.7175,0.84,-0.140666,0.351482,-1.1784,-0.04256,-0.10948,0.51268
10.0124,0,0,5,5,20.0124,20.0124,-14.3034,-0.441778,9.55556,0.00313783,0.227346,-0.0291216,1,1,4.8475,-0.6475,0.84,-0.044896,0.486048,-1.01077,-0.04256,-0.10948,0.51268
10.0102,0,0,5,5,20.0102,20.0102,-14.3003,-0.442815,9.558,0.00315592,0.227399,-0.0291084,1,1,5.3025,-0.945,0.945,-0.044896,0.486048,-1.01077,-0.04256,-0.10948,0.51268
10.0086,0,0,5,5,20.0086,20.0086,-14.298,-0.441719,9.56082,-0.325482,-0.0670101,-0.142088,1,1,4.865,0.21,1.47,-0.374906,0.191906,-1.12289,-0.0448,-0.1106,0.5215
10.0086,0,0,5,5,20.0086,20.0086,-14.298,-0.439644,9.56228,0.414451,0.514435,0.279995,1,1,3.57,0.9625,0.84,0.368196,0.772748,-0.704062,-0.0448,-0.1106,0.5215
10.0091,0,0,5,5,20.0091,20.0091,-14.2987,-0.435467,9.56401,0.0189423,0.155981,0.246919,1,1,3.1675,2.1175,1.295,-0.028914,0.414678,-0.73688,-0.0448,-0.1106,0.5215
10.0114,0,0,5,5,20.0114,20.0114,-14.302,-0.433668,9.5656,0.0189109,0.155925,0.246905,1,1,1.6975,0.7875,0.875,-0.028914,0.414678,-0.73688,-0.0448,-0.1106,0.5215
10.1311,0,0,5,5,20.1311,20.1311,-14.473,-0.730259,9.56806,-0.261283,0.133263,0.0755829,0,1,1.33,-0.8225,-0.035,-0.315492,0.394914,-0.906094,-0.0448,-0.1106,0.5215
10.1665,0,0,5,5,20.1665,20.1665,-14.5235,-0.629536,9.56879,0.0963141,0.0653564,-0.0636726,0,1,3.1325,-0.875,-0.42,0.045384,0.327936,-1.04408,-0.0448,-0.1106,0.5215
10.2015,0,0,5,5,20.2015,20.2015,-14.5736,-0.532457,9.56791,0.0946198,0.0645061,-0.0638755,0,1,2.835,-1.5925,-1.5225,0.045384,0.327936,-1.04408,-0.0448,-0.1106,0.5215
10.2013,0,0,5,5,20.2013,20.2013,-14.5732,-0.533946,9.56536,-0.076406,-0.214791,-0.401859,1,1,3.7625,-0.4725,-1.9425,-0.126392,0.048922,-1.37945,-0.04368,-0.10262,0.53298
10.3632,0,0,5,5,20.3632,20.3632,-14.8045,-0.357388,9.56319,0.14599,0.163189,0.142294,0,1,6.125,0.5075,-2.5725,0.10004,0.430416,-0.838506,-0.04368,-0.10262,0.53298
10.3609,0,0,5,5,20.3609,20.3609,-14.8012,-0.35663,9.55831,0.0559559,-0.24759,0.183865,1,1,5.39,1.155,-2.9225,0.009638,0.020008,-0.79727,-0.04368,-0.10262,0.53298
10.3587,0,0,5,5,20.3587,20.3587,-14.7982,-0.353911,9.55325,0.0559084,-0.247539,0.183879,1,1,5.25,2.2925,-2.73,0.009638,0.020008,-0.79727,-0.04368,-0.10262,0.53298
10.3584,0,0,5,5,20.3584,20.3584,-14.7977,-0.351459,9.54929,-0.134138,0.149503,0.191258,1,1,3.7975,1.9775,-2.1525,-0.18117,0.41663,-0.78995,-0.04368,-0.10262,0.53298
10.5408,0,0,5,5,20.5408,20.5408,-15.0582,-0.195618,9.54708,0.144624,0.235846,0.0478481,0,1,2.66,0.455,-2.24,0.101504,0.507276,-0.931104,-0.04368,-0.10262,0.53298
10.722,0,0,5,5,20.722,20.722,-15.3172,-0.045871,9.5452,0.142011,0.231483,0.0466695,0,1,0.7875,-1.47,-2.135,0.101504,0.507276,-0.931104,-0.04368,-0.10262,0.53298
10.8009,0,0,5,5,20.8009,20.8009,-15.4298,-0.155652,9.54366,-0.0909049,0.0779066,0.064833,0,1,1.155,-1.4175,-1.715,-0.134322,0.355752,-0.91256,-0.04326,-0.0959,0.52584
10.8751,0,0,5,5,20.8751,20.8751,-15.5358,-0.261521,9.54271,-0.0890572,0.0761257,0.0643327,0,1,3.675,-0.4725,-1.225,-0.134322,0.355752,-0.91256,-0.04326,-0.0959,0.52584
10.8386,0,0,5,5,20.8386,20.8386,-15.4837,-0.270288,9.54174,-0.00714433,-0.0329117,-0.0600945,0,1,3.8675,-0.6125,-0.8925,-0.052216,0.245952,-1.03627,-0.04326,-0.0959,0.52584
10.8,0,0,5,5,20.8,20.8,-15.4285,-0.278437,9.5417,-0.00700209,-0.0319833,-0.0598385,0,1,6.16,-0.5075,-0.2975,-0.052216,0.245952,-1.03627,-0.04326,-0.0959,0.52584
10.6655,0,0,5,5,20.6655,20.6655,-15.2364,-0.284191,9.54139,-0.00532236,-0.162355,-0.0454278,0,1,5.8275,0,0.0875,-0.05063,0.112484,-1.02285,-0.04326,-0.0959,0.52584
10.5336,0,0,5,5,20.5336,20.5336,-15.048,-0.286164,9.54217,-0.00528792,-0.159181,-0.044569,0,1,5.81,1.9075,1.26,-0.05063,0.112484,-1.02285,-0.04326,-0.0959,0.52584
10.854,0,0,5,5,20.854,20.854,-15.5057,-0.465451,9.54755,-0.16908,0.39429,0.174982,0,1,5.6175,1.925,1.6625,-0.218258,0.673074,-0.802882,-0.04326,-0.0959,0.52584
11.1707,0,0,5,5,21.1707,21.1707,-15.9582,-0.643157,9.55519,-0.165979,0.386697,0.172812,0,1,4.0775,0.8575,1.925,-0.218258,0.673074,-0.802882,-0.04326,-0.0959,0.52584
11.2342,0,0,5,5,21.2342,21.2342,-16.0489,-0.449378,9.55994,0.162781,0.0561571,0.0835152,0,1,4.0775,-0.14,2.03,0.11529,0.344406,-0.891088,-0.04326,-0.0959,0.52584
11.2974,0,0,5,5,21.2974,21.2974,-16.1392,-0.261527,9.56447,0.159503,0.0546373,0.0830978,0,1,3.3075,-1.3825,1.7325,0.11529,0.344406,-0.891088,-0.03906,-0.0973,0.53312
11.2984,0,0,5,5,21.2984,21.2984,-16.1405,-0.263128,9.56815,0.217844,0.131433,-0.103422,1,1,2.835,-1.505,1.5225,0.17385,0.421144,-1.07616,-0.03906,-0.0973,0.53312
11.2983,0,0,5,5,21.2983,21.2983,-16.1405,-0.263819,9.57154,0.217856,0.131433,-0.103422,1,1,3.57,-0.945,1.505,0.17385,0.421144,-1.07616,-0.03906,-0.0973,0.53312
11.2975,0,0,5,5,21.2975,21.2975,-16.1393,-0.264631,9.57463,0.127728,-0.124403,-0.150382,1,1,4.2175,-0.9625,1.3125,0.083326,0.165554,-1.12277,-0.03906,-0.0973,0.53312
11.2964,0,0,5,5,21.2964,21.2964,-16.1377,-0.265118,9.57765,0.127736,-0.124376,-0.150374,1,1,4.48,-0.77,1.33,0.083326,0.165554,-1.12277,-0.03906,-0.0973,0.53312
11.2939,0,0,5,5,21.2939,21.2939,-16.1342,-0.264342,9.57977,0.00283521,0.0999078,0.254389,1,1,5.53,0.0875,1.0325,-0.04209,0.389546,-0.721142,-0.03906,-0.0973,0.53312
11.2916,0,0,5,5,21.2916,21.2916,-16.1308,-0.262162,9.58083,0.00279716,0.099965,0.254406,1,1,5.4775,1.05,0.665,-0.04209,0.389546,-0.721142,-0.03906,-0.0973,0.53312
11.2903,0,0,5,5,21.2903,21.2903,-16.1289,-0.260106,9.58168,0.224716,0.192324,0.28048,1,1,4.6025,1.015,0.525,0.180804,0.481778,-0.695278,-0.03906,-0.0973,0.53312
11.2892,0,0,5,5,21.2892,21.2892,-16.1275,-0.258892,9.58155,0.224694,0.192348,0.280487,1,1,4.375,0.7,-0.1575,0.180804,0.481778,-0.695278,-0.0378,-0.098,0.53186
11.5465,0,0,5,5,21.5465,21.5465,-16.495,0.0269891,9.58205,0.269757,0.322482,0.132509,0,1,3.78,-0.14,-0.4725,0.231068,0.61793,-0.840336,-0.0378,-0.098,0.53186
11.7999,0,0,5,5,21.7999,21.7999,-16.8569,0.304862,9.58059,0.264907,0.316436,0.130683,0,1,3.29,-1.75,-1.05,0.231068,0.61793,-0.840336,-0.0378,-0.098,0.53186
11.799,0,0,5,5,21.799,21.799,-16.8557,0.300602,9.57969,0.220153,0.101879,-0.0831175,1,1,4.235,-2.24,-1.505,0.18605,0.403576,-1.05249,-0.0378,-0.098,0.53186
11.7964,0,0,5,5,21.7964,21.7964,-16.852,0.298683,9.57787,0.220187,0.10194,-0.0830987,1,1,5.635,-0.77,-1.6275,0.18605,0.403576,-1.05249,-0.0378,-0.098,0.53186
11.8536,0,0,5,5,21.8536,21.8536,-16.9337,0.296268,9.5749,-0.00148237,0.10131,-0.0501933,0,1,5.7925,0.175,-1.7675,-0.0366,0.404308,-1.01943,-0.0378,-0.098,0.53186
11.9108,0,0,5,5,21.9108,21.9108,-17.0155,0.294054,9.57164,-0.00144373,0.0999446,-0.0506099,0,1,4.795,0.315,-1.9075,-0.0366,0.404308,-1.01943,-0.0378,-0.098,0.53186
11.9449,0,0,5,5,21.9449,21.9449,-17.0641,0.621015,9.56837,0.264492,0.000956532,0.134012,0,1,3.9725,0.945,-1.75,0.236192,0.30622,-0.835944,-0.0378,-0.098,0.53186
11.9792,0,0,5,5,21.9792,21.9792,-17.1131,0.942299,9.56529,0.258885,0.000161828,0.133688,0,1,3.2725,1.12,-1.4175,0.236192,0.30622,-0.835944,-0.0462,-0.09086,0.53522
11.9792,0,0,5,5,21.9792,21.9792,-17.1132,0.943355,9.56321,0.047117,0.184572,0.20721,1,1,3.535,0.945,-1.26,0.023546,0.49044,-0.762988,-0.0462,-0.09086,0.53522
11.9782,0,0,5,5,21.9782,21.9782,-17.1117,0.943319,9.56135,0.0471176,0.184596,0.207218,1,1,4.3925,0.2975,-1.33,0.023546,0.49044,-0.762988,-0.0462,-0.09086,0.53522
11.9762,0,0,5,5,21.9762,21.9762,-17.1088,0.94193,9.55955,0.291571,0.21139,-0.08354,1,1,5.1975,-0.4725,-1.5225,0.26901,0.517158,-1.05152,-0.0462,-0.09086,0.53522
11.9733,0,0,5,5,21.9733,21.9733,-17.1048,0.939628,9.55886,0.291611,0.211457,-0.0835187,1,1,5.8275,-1.1725,-1.0675,0.26901,0.517158,-1.05152,-0.0462,-0.09086,0.53522
11.9706,0,0,5,5,21.9706,21.9706,-17.1008,0.938568,9.55844,0.565458,0.0151436,0.0017053,1,1,5.7925,-0.525,-0.7,0.543998,0.320982,-0.966972,-0.0462,-0.09086,0.53522
11.9693,0,0,5,5,21.9693,21.9693,-17.0991,0.935731,9.55844,0.565508,0.0151723,0.00171497,1,1,4.5325,-1.5925,-0.77,0.543998,0.320982,-0.966972,-0.0462,-0.09086,0.53522
11.9684,0,0,5,5,21.9684,21.9684,-17.0977,0.935081,9.55874,0.128049,-0.101558,0.19635,1,1,4.34,-0.42,-0.2275,0.104676,0.20435,-0.773846,-0.0462,-0.09086,0.53522
11.9677,0,0,5,5,21.9677,21.9677,-17.0967,0.935818,9.55867,0.128036,-0.101541,0.196355,1,1,4.13,0.42,-0.1925,0.104676,0.20435,-0.773846,-0.03416,-0.08694,0.53368
11.967,0,0,5,5,21.967,21.967,-17.0958,0.937675,9.55971,-0.192111,0.278166,0.524385,1,1,4.0425,0.8575,0.6125,-0.216794,0.583648,-0.44835,-0.03416,-0.08694,0.53368
11.9647,0,0,5,5,21.9647,21.9647,-17.0924,0.939435,9.56083,-0.192141,0.278222,0.524402,1,1,5.425,0.7875,0.6475,-0.216794,0.583648,-0.44835,-0.03416,-0.08694,0.53368
11.9632,0,0,5,5,21.9632,21.9632,-17.0903,0.94163,9.56327,0.295221,0.20889,0.384497,1,1,4.725,0.805,1.4525,0.27267,0.514352,-0.587186,-0.03416,-0.08694,0.53368
11.9617,0,0,5,5,21.9617,21.9617,-17.0881,0.940807,9.56535,0.295235,0.208926,0.384508,1,1,4.76,-0.8225,0.735,0.27267,0.514352,-0.587186,-0.03416,-0.08694,0.53368
12.286,0,0,5,5,22.286,22.286,-17.5515,1.39157,9.55858,0.438619,0.395315,0.255435,0,1,4.0075,-0.8575,1.085,0.42456,0.70821,-0.712724,-0.03416,-0.08694,0.53368
12.6056,0,0,5,5,22.6056,22.6056,-18.008,1.83423,9.54793,0.430897,0.387797,0.252795,0,1,3.815,-1.295,0.665,0.42456,0.70821,-0.712724,-0.03416,-0.08694,0.53368
12.6491,0,0,5,5,22.6491,22.6491,-18.0702,2.0084,9.54829,0.171281,0.0776944,-0.0395171,0,1,4.2875,-0.5425,1.0675,0.166896,0.399428,-1.00235,-0.03416,-0.08694,0.53368
12.6913,0,0,5,5,22.6913,22.6913,-18.1304,2.17932,9.54737,0.168299,0.07673,-0.039947,0,1,4.7425,-0.2975,0.455,0.166896,0.399428,-1.00235,-0.03416,-0.08694,0.53368
12.7751,0,0,5,5,22.7751,22.7751,-18.2501,2.0128,9.54395,-0.140893,0.0675072,0.119581,0,1,5.565,0.0875,0.42,-0.146522,0.39223,-0.843508,-0.0406,-0.09156,0.53312
12.8565,0,0,5,5,22.8565,22.8565,-18.3665,1.85007,9.5404,-0.138054,0.06555,0.119034,0,1,6.1775,0.5425,0.2275,-0.146522,0.39223,-0.843508,-0.0406,-0.09156,0.53312
12.8539,0,0,5,5,22.8539,22.8539,-18.3627,1.85146,9.54096,-0.0609352,-0.128324,0.151636,1,1,5.67,0.665,0.28,-0.069052,0.198494,-0.811178,-0.0406,-0.09156,0.53312
12.8528,0,0,5,5,22.8528,22.8528,-18.3611,1.85236,9.54073,-0.060951,-0.128298,0.151644,1,1,4.445,0.5425,-0.245,-0.069052,0.198494,-0.811178,-0.0406,-0.09156,0.53312
12.8525,0,0,5,5,22.8525,22.8525,-18.3608,1.85308,9.54031,-0.0359374,-0.0458563,0.121892,1,1,3.78,0.4725,-0.385,-0.04392,0.280844,-0.840702,-0.0406,-0.09156,0.53312
12.853,0,0,5,5,22.853,22.853,-18.3614,1.85263,9.53911,-0.0359295,-0.0458666,0.121889,1,1,3.2375,-0.035,-1.0325,-0.04392,0.280844,-0.840702,-0.0406,-0.09156,0.53312
12.8535,0,0,5,5,22.8535,22.8535,-18.3622,1.85191,9.53834,0.0431702,0.138898,-0.0631528,1,1,3.115,-0.2625,-0.84,0.035502,0.46543,-1.02431,-0.0406,-0.09156,0.53312
12.8524,0,0,5,5,22.8524,22.8524,-18.3606,1.85093,9.53728,0.0431872,0.138924,-0.0631435,1,1,4.48,-0.35,-1.05,0.035502,0.46543,-1.02431,-0.0406,-0.09156,0.53312
12.851,0,0,5,5,22.851,22.851,-18.3586,1.8499,9.53604,-0.156274,-0.00112188,-0.119565,1,1,4.725,-0.35,-1.155,-0.164822,0.325496,-1.08031,-0.0371,-0.0812,0.54166
12.8501,0,0,5,5,22.8501,22.8501,-18.3573,1.8491,9.53455,-0.15626,-0.00110185,-0.119558,1,1,4.27,-0.175,-1.26,-0.164822,0.325496,-1.08031,-0.0371,-0.0812,0.54166
12.9152,0,0,5,5,22.9152,22.9152,-18.4503,1.76584,9.53014,-0.0707397,0.0424104,0.115789,0,1,4.3225,0.1225,-1.12,-0.080398,0.370514,-0.846314,-0.0371,-0.0812,0.54166
12.979,0,0,5,5,22.979,22.979,-18.5414,1.68416,9.52593,-0.0693148,0.040889,0.115325,0,1,4.3225,0.1225,-1.12,-0.080398,0.370514,-0.846314,-0.0371,-0.0812,0.54166
12.9799,0,0,5,5,22.9799,22.9799,-18.5427,1.68538,9.52483,0.0379358,0.194624,-0.177669,1,1,2.8175,0.875,-0.665,0.027328,0.524112,-1.13704,-0.0371,-0.0812,0.54166
12.9809,0,0,5,5,22.9809,22.9809,-18.5441,1.68659,9.52374,0.0379147,0.194602,-0.177677,1,1,2.8175,0.875,-0.665,0.027328,0.524112,-1.13704,-0.0371,-0.0812,0.54166
12.9809,0,0,5,5,22.9809,22.9809,-18.5441,1.68751,9.52372,0.103379,-0.093984,-0.150137,1,1,3.535,0.5075,-0.1225,0.093086,0.235826,-1.10971,-0.0371,-0.0812,0.54166
12.9809,0,0,5,5,22.9809,22.9809,-18.5442,1.68842,9.5237,0.103364,-0.0939846,-0.150138,1,1,3.535,0.5075,-0.1225,0.093086,0.235826,-1.10971,-0.0371,-0.0812,0.54166
12.9802,0,0,5,5,22.9802,22.9802,-18.5432,1.68806,9.52383,-0.381115,0.0761548,-0.0335771,1,1,4.13,-0.2275,-0.28,-0.39345,0.405772,-0.994056,-0.03892,-0.0735,0.54152
12.9797,0,0,5,5,22.9797,22.9797,-18.5425,1.6878,9.52453,0.193031,-0.0143297,0.156259,1,1,3.9375,-0.28,0.0525,0.183122,0.31537,-0.805688,-0.03892,-0.0735,0.54152
12.9795,0,0,5,5,22.9795,22.9795,-18.5421,1.68739,9.52489,0.193038,-0.0143241,0.156261,1,1,3.745,-0.2975,-0.1575,0.183122,0.31537,-0.805688,-0.03892,-0.0735,0.54152
13.0941,0,0,5,5,23.0941,23.0941,-18.7058,2.03823,9.51975,0.300264,0.0989319,0.150366,0,1,3.5175,0.245,-0.0875,0.296948,0.431148,-0.810446,-0.03892,-0.0735,0.54152
13.2059,0,0,5,5,23.2059,23.2059,-18.8656,2.38319,9.51399,0.294248,0.0963688,0.149249,0,1,4.095,0.455,0.14,0.296948,0.431148,-0.810446,-0.03892,-0.0735,0.54152
13.2061,0,0,5,5,23.2061,23.2061,-18.8659,2.38434,9.51484,-0.0586882,0.0417731,-0.116691,1,1,3.36,0.4725,0.4025,-0.057462,0.376614,-1.07433,-0.03892,-0.0735,0.54152
13.2072,0,0,5,5,23.2072,23.2072,-18.8674,2.38389,9.51599,-0.0586803,0.0417489,-0.116699,1,1,2.7125,-0.4725,0.2625,-0.057462,0.376614,-1.07433,-0.03892,-0.0735,0.54152
13.2084,0,0,5,5,23.2084,23.2084,-18.8692,2.38355,9.51738,-0.083336,0.0262085,-0.1038,1,1,2.5025,-0.455,0.42,-0.082228,0.36112,-1.06152,-0.03892,-0.0735,0.54152
13.2099,0,0,5,5,23.2099,23.2099,-18.8712,2.38388,9.51768,-0.0833418,0.0261751,-0.103811,1,1,2.415,0.1225,-0.0525,-0.082228,0.36112,-1.06152,-0.04074,-0.07252,0.54656
13.2111,0,0,5,5,23.2111,23.2111,-18.873,2.38375,9.51811,0.0359595,-0.0653271,0.0868717,1,1,2.555,-0.1575,-0.07,0.037576,0.269742,-0.8723,-0.04074,-0.07252,0.54656
13.2123,0,0,5,5,23.2123,23.2123,-18.8748,2.38362,9.51854,0.0359617,-0.0653564,0.0868618,1,1,2.555,-0.1575,-0.07,0.037576,0.269742,-0.8723,-0.04074,-0.07252,0.54656
13.2122,0,0,5,5,23.2122,23.2122,-18.8746,2.38436,9.51865,-0.102423,-0.0372637,0.113788,1,1,3.675,0.385,-0.0875,-0.101382,0.297802,-0.845582,-0.04074,-0.07252,0.54656
13.2121,0,0,5,5,23.2121,23.2121,-18.8744,2.38509,9.51875,-0.102436,-0.03726,0.113789,1,1,3.675,0.385,-0.0875,-0.101382,0.297802,-0.845582,-0.04074,-0.07252,0.54656
13.4633,0,0,5,5,23.4633,23.4633,-19.2332,2.36275,9.50387,-0.0212586,0.316482,0.124302,0,1,3.92,-0.28,-0.3675,-0.020252,0.657092,-0.833138,-0.04074,-0.07252,0.54656
13.71,0,0,5,5,23.71,23.71,-19.5857,2.34073,9.48941,-0.0208745,0.310681,0.122274,0,1,3.92,-0.28,-0.3675,-0.020252,0.657092,-0.833138,-0.04074,-0.07252,0.54656
13.7454,0,0,5,5,23.7454,23.7454,-19.6362,2.1149,9.48957,-0.186773,0.0102215,0.095074,0,1,2.94,-4.4275,-0.56,-0.190808,0.357826,-0.859978,-0.04074,-0.07252,0.54656
13.7801,0,0,5,5,23.7801,23.7801,-19.6859,1.89331,9.48996,-0.182908,0.00936089,0.0949101,0,1,2.94,-4.4275,-0.56,-0.190808,0.357826,-0.859978,-0.04634,-0.06454,0.55818
14.138,0,0,5,5,24.138,24.138,-20.1971,1.94125,9.47239,0.0428267,0.42037,0.244667,0,1,2.3625,-0.245,-0.7,0.036722,0.776774,-0.708332,-0.04634,-0.06454,0.55818
14.103,0,0,5,5,24.103,24.103,-20.1472,1.99171,9.47388,0.0417035,-0.0615689,0.0387544,0,1,2.52,-0.175,-0.525,0.036478,0.294508,-0.912926,-0.04634,-0.06454,0.55818
14.0682,0,0,5,5,24.0682,24.0682,-20.0975,2.04236,9.47461,0.0408201,-0.0607439,0.0390236,0,1,2.9575,0.6125,-0.7175,0.036478,0.294508,-0.912926,-0.04634,-0.06454,0.55818
14.2391,0,0,5,5,24.2391,24.2391,-20.3415,1.55606,9.46568,-0.466525,0.189926,0.154603,0,1,3.325,0.84,-0.77,-0.481534,0.549,-0.797026,-0.04634,-0.06454,0.55818
14.4068,0,0,5,5,24.4068,24.4068,-20.5812,1.07774,9.45902,-0.458179,0.185941,0.153321,0,1,3.43,0.7875,-0.7175,-0.481534,0.549,-0.797026,-0.04634,-0.06454,0.55818
14.2979,0,0,5,5,24.2979,24.2979,-20.4256,1.15109,9.46129,0.0745922,-0.11658,-0.13136,0,1,3.6225,0.28,-0.6475,0.054778,0.244244,-1.08043,-0.04634,-0.06454,0.55818
14.1921,0,0,5,5,24.1921,24.1921,-20.2745,1.22383,9.46433,0.0733229,-0.114099,-0.130468,0,1,2.7125,0.5775,-0.14,0.054778,0.244244,-1.08043,-0.04634,-0.06454,0.55818
14.2304,0,0,5,5,24.2304,24.2304,-20.3292,1.37259,9.4632,0.147628,0.073224,-0.0468805,0,1,2.695,0.4025,-0.0875,0.132004,0.432246,-0.997106,-0.04452,-0.06412,0.56028
14.2325,0,0,5,5,24.2325,24.2325,-20.3322,1.37321,9.46355,0.0441111,0.0351936,0.194326,1,1,1.8725,0.2625,0.035,0.02806,0.394304,-0.757742,-0.04452,-0.06412,0.56028
14.2347,0,0,5,5,24.2347,24.2347,-20.3353,1.37287,9.46468,0.0441171,0.0351422,0.194307,1,1,1.785,-0.42,0.2625,0.02806,0.394304,-0.757742,-0.04452,-0.06412,0.56028
14.2363,0,0,5,5,24.2363,24.2363,-20.3375,1.37176,9.4657,-0.01199,0.265803,-0.174797,1,1,2.31,-0.8225,0.0525,-0.028304,0.624762,-1.12399,-0.04452,-0.06412,0.56028
14.2379,0,0,5,5,24.2379,24.2379,-20.3399,1.37176,9.46628,-0.01199,0.265764,-0.174812,1,1,2.205,-0.1225,0.035,-0.028304,0.624762,-1.12399,-0.04452,-0.06412,0.56028
14.239,0,0,5,5,24.239,24.239,-20.3415,1.37263,9.46673,0.232302,-0.267466,0.178901,1,1,2.695,0.385,0.14,0.217038,0.09211,-0.772992,-0.04452,-0.06412,0.56028
14.2395,0,0,5,5,24.2395,24.2395,-20.3421,1.37259,9.46727,0.232303,-0.267476,0.178898,1,1,3.2025,-0.14,0,0.217038,0.09211,-0.772992,-0.04452,-0.06412,0.56028
14.2407,0,0,5,5,24.2407,24.2407,-20.3439,1.37226,9.46775,-0.236626,0.206834,-0.135985,1,1,2.52,-0.28,-0.0875,-0.253882,0.565958,-1.08543,-0.04452,-0.06412,0.56028
14.2418,0,0,5,5,24.2418,24.2418,-20.3455,1.37205,9.46838,-0.236622,0.206808,-0.135994,1,1,2.6775,-0.245,0.0175,-0.253882,0.565958,-1.08543,-0.0476,-0.05292,0.58044
14.2427,0,0,5,5,24.2427,24.2427,-20.3467,1.37191,9.46882,0.153835,0.314382,0.0178075,1,1,2.8875,-0.175,-0.07,0.138226,0.67344,-0.932812,-0.0476,-0.05292,0.58044
14.2451,0,0,5,5,24.2451,24.2451,-20.3501,1.37113,9.46927,0.153849,0.314325,0.0177868,1,1,1.61,-0.525,-0.1925,0.138226,0.67344,-0.932812,-0.0476,-0.05292,0.58044
14.2847,0,0,5,5,24.2847,24.2847,-20.4068,1.2965,9.46829,-0.0631586,0.0127126,0.0950516,0,1,2.0125,-0.875,-0.4375,-0.081008,0.373076,-0.85583,-0.0476,-0.05292,0.58044
14.3235,0,0,5,5,24.3235,24.3235,-20.4622,1.22391,9.46704,-0.061892,0.0117964,0.09474,0,1,2.0825,-0.455,-0.5075,-0.081008,0.373076,-0.85583,-0.0476,-0.05292,0.58044
14.3257,0,0,5,5,24.3257,24.3257,-20.4652,1.22342,9.46672,-0.347496,-0.0353939,-0.12511,1,1,1.8725,-0.21,-0.56,-0.36783,0.325984,-1.07397,-0.0476,-0.05292,0.58044
14.3264,0,0,5,5,24.3264,24.3264,-20.4663,1.22309,9.46592,-0.347491,-0.0354118,-0.125117,1,1,2.9575,-0.0175,-0.7875,-0.36783,0.325984,-1.07397,-0.0476,-0.05292,0.58044
14.3222,0,0,5,5,24.3222,24.3222,-20.4603,0.963172,9.46502,-0.233739,-0.0220327,0.0413501,0,1,3.045,0.455,-0.7525,-0.258152,0.339282,-0.9089,-0.0476,-0.05292,0.58044
14.3187,0,0,5,5,24.3187,24.3187,-20.4554,0.707449,9.46459,-0.229277,-0.0219739,0.0414415,0,1,2.555,0.0175,-0.6125,-0.258152,0.339282,-0.9089,-0.04564,-0.0616,0.57036
14.3199,0,0,5,5,24.3199,24.3199,-20.4569,0.707056,9.46394,0.215854,0.292843,-0.0912295,1,1,2.6775,-0.0875,-0.7175,0.188856,0.653798,-1.04054,-0.04564,-0.0616,0.57036
14.3209,0,0,5,5,24.3209,24.3209,-20.4584,0.707089,9.46384,0.215853,0.292819,-0.0912385,1,1,2.73,0.035,-0.3325,0.188856,0.653798,-1.04054,-0.04564,-0.0616,0.57036
14.3222,0,0,5,5,24.3222,24.3222,-20.4602,0.706842,9.46358,0.22096,-0.0153369,-0.115962,1,1,2.5375,-0.0875,-0.4725,0.19398,0.345992,-1.06506,-0.04564,-0.0616,0.57036
14.3246,0,0,5,5,24.3246,24.3246,-20.4638,0.706077,9.46339,0.220973,-0.0153949,-0.115984,1,1,1.575,-0.385,-0.5425,0.19398,0.345992,-1.06506,-0.04564,-0.0616,0.57036
14.2682,0,0,5,5,24.2682,24.2682,-20.3832,0.73768,9.464,0.0293248,-0.0695197,-0.0369353,0,1,1.715,0.1925,-0.49,0.002074,0.290604,-0.987102,-0.04564,-0.0616,0.57036
14.2121,0,0,5,5,24.2121,24.2121,-20.303,0.768068,9.46512,0.0287945,-0.0682046,-0.0364551,0,1,2.345,-0.245,-0.35,0.002074,0.290604,-0.987102,-0.04564,-0.0616,0.57036
14.4187,0,0,5,5,24.4187,24.4187,-20.5982,0.867338,9.46124,0.0896272,0.227897,0.146267,0,1,2.275,-0.5075,-0.28,0.064904,0.591212,-0.80398,-0.04564,-0.0616,0.57036
14.6202,0,0,5,5,24.6202,24.6202,-20.886,0.965753,9.45674,0.0879098,0.223209,0.144462,0,1,3.4125,0.07,-0.1925,0.064904,0.591212,-0.80398,-0.05614,-0.0553,0.5607
14.6201,0,0,5,5,24.6201,24.6201,-20.8858,0.966916,9.45675,0.405332,0.178392,-0.206678,1,1,3.675,0.63,-0.035,0.38369,0.546438,-1.15241,-0.05614,-0.0553,0.5607
14.6215,0,0,5,5,24.6215,24.6215,-20.8879,0.96731,9.45735,0.405325,0.178358,-0.20669,1,1,2.3975,0.0875,0.1225,0.38369,0.546438,-1.15241,-0.05614,-0.0553,0.5607
14.6234,0,0,5,5,24.6234,24.6234,-20.8906,0.967079,9.45815,0.259424,0.393136,-0.223182,1,1,2.065,-0.2975,0.105,0.237168,0.761036,-1.16876,-0.05614,-0.0553,0.5607
14.6254,0,0,5,5,24.6254,24.6254,-20.8935,0.966445,9.45881,0.259435,0.393088,-0.2232,1,1,1.925,-0.49,-0.0525,0.237168,0.761036,-1.16876,-0.05614,-0.0553,0.5607
14.6276,0,0,5,5,24.6276,24.6276,-20.8966,0.966133,9.4599,0.00990934,0.0921167,0.194191,1,1,1.785,-0.4025,0.245,-0.01342,0.460428,-0.75457,-0.05614,-0.0553,0.5607
14.6297,0,0,5,5,24.6297,24.6297,-20.8995,0.965275,9.46107,0.0099243,0.0920689,0.194173,1,1,1.9075,-0.7175,0.175,-0.01342,0.460428,-0.75457,-0.05614,-0.0553,0.5607
14.8425,0,0,5,5,24.8425,24.8425,-21.2035,0.799256,9.45767,-0.145839,0.210694,0.185424,0,1,2.1,-0.7,0.2275,-0.172752,0.583892,-0.761402,-0.05614,-0.0553,0.5607
15.0515,0,0,5,5,25.0515,25.0515,-21.5021,0.636176,9.45522,-0.142993,0.205828,0.18356,0,1,2.1,-0.7,0.2275,-0.172752,0.583892,-0.761402,-0.05614,-0.0553,0.5607
15.126,0,0,5,5,25.126,25.126,-21.6086,0.776975,9.45404,0.126314,0.0742908,0.0686297,0,1,2.66,-0.0525,-0.2275,0.100162,0.454206,-0.87474,-0.04606,-0.06762,0.55314
15.128,0,0,5,5,25.128,25.128,-21.6114,0.777323,9.45352,-0.334731,0.135796,-0.00503507,1,1,1.9425,0.2975,-0.49,-0.362828,0.515694,-0.947818,-0.04606,-0.06762,0.55314
15.13,0,0,5,5,25.13,25.13,-21.6143,0.777671,9.453,-0.334737,0.135749,-0.00505373,1,1,1.9425,0.2975,-0.49,-0.362828,0.515694,-0.947818,-0.04606,-0.06762,0.55314
15.1287,0,0,5,5,25.1287,25.1287,-21.6124,0.869679,9.45189,0.092988,0.0211122,-0.0691187,0,1,1.4175,-0.0525,-1.05,0.06832,0.401136,-1.01138,-0.04606,-0.06762,0.55314
15.1273,0,0,5,5,25.1273,25.1273,-21.6104,0.95997,9.45079,0.0914123,0.0211527,-0.0691298,0,1,1.4175,-0.0525,-1.05,0.06832,0.401136,-1.01138,-0.04606,-0.06762,0.55314
15.1593,0,0,5,5,25.1593,25.1593,-21.6561,1.50215,9.45151,0.49804,-0.0231116,0.16608,0,1,2.415,-4.4275,-0.98,0.48617,0.357582,-0.777506,-0.04606,-0.06762,0.55314
15.1907,0,0,5,5,25.1907,25.1907,-21.701,2.03561,9.45186,0.488734,-0.0237334,0.165524,0,1,2.415,-4.4275,-0.98,0.48617,0.357582,-0.777506,-0.04606,-0.06762,0.55314
15.0899,0,0,5,5,25.0899,25.0899,-21.557,1.92525,9.45299,-0.101462,-0.151854,0.0484807,0,1,1.89,4.2875,-1.0675,-0.108458,0.227286,-0.894626,-0.04606,-0.06762,0.55314
14.991,0,0,5,5,24.991,24.991,-21.4157,1.81693,9.45376,-0.0995727,-0.149583,0.049441,0,1,1.89,4.2875,-1.0675,-0.108458,0.227286,-0.894626,-0.04648,-0.06706,0.55076
14.9887,0,0,5,5,24.9887,24.9887,-21.4124,1.93714,9.45234,0.122472,0.0209835,-0.0719524,0,1,1.68,0.6475,-1.05,0.116632,0.397598,-1.01504,-0.04648,-0.06706,0.55076
14.9865,0,0,5,5,24.9865,24.9865,-21.4092,2.05511,9.45094,0.120414,0.0210615,-0.0719989,0,1,1.68,0.6475,-1.05,0.116632,0.397598,-1.01504,-0.04648,-0.06706,0.55076
14.9885,0,0,5,5,24.9885,24.9885,-21.4122,2.05538,9.44981,0.272266,0.179535,-0.208982,1,1,1.9425,0.385,-0.84,0.269132,0.555954,-1.15095,-0.04648,-0.06706,0.55076
14.9906,0,0,5,5,24.9906,24.9906,-21.4151,2.05565,9.44868,0.272261,0.179487,-0.209001,1,1,1.9425,0.385,-0.84,0.269132,0.555954,-1.15095,-0.04648,-0.06706,0.55076
14.992,0,0,5,5,24.992,24.992,-21.4172,2.05561,9.44815,0.391075,0.21145,0.0571689,1,1,2.38,0.0875,-0.5775,0.388448,0.587918,-0.886818,-0.04648,-0.06706,0.55076
14.9935,0,0,5,5,24.9935,24.9935,-21.4193,2.05557,9.44762,0.391076,0.211415,0.0571554,1,1,2.38,0.0875,-0.5775,0.388448,0.587918,-0.886818,-0.04648,-0.06706,0.55076
14.9965,0,0,5,5,24.9965,24.9965,-21.4236,2.05621,9.44767,0.00243194,-0.0398689,0.147372,1,1,1.155,0.3325,-0.1225,-0.00183,0.336964,-0.79727,-0.04648,-0.06706,0.55076
15.0841,0,0,5,5,25.0841,25.0841,-21.5488,2.22948,9.44371,0.171798,0.124722,0.00778133,0,1,1.0325,0.28,0.175,0.171288,0.503372,-0.934886,-0.04928,-0.07378,0.5453
15.0019,0,0,5,5,25.0019,25.0019,-21.4312,2.34496,9.44943,0.094706,-0.128586,0.0448501,0,1,1.8725,0.28,0.4025,0.095892,0.248392,-0.898774,-0.04928,-0.07378,0.5453
14.9196,0,0,5,5,24.9196,24.9196,-21.3137,2.45838,9.45585,0.0927282,-0.126648,0.0455195,0,1,3.045,0.21,0.7175,0.095892,0.248392,-0.898774,-0.04928,-0.07378,0.5453
14.8808,0,0,5,5,24.8808,24.8808,-21.2582,2.46443,9.4596,0.00430265,-0.0535674,-0.0105667,0,1,1.855,0.2275,0.5775,0.007198,0.320494,-0.954772,-0.04928,-0.07378,0.5453
14.8427,0,0,5,5,24.8427,24.8427,-21.2038,2.47047,9.46333,0.00419739,-0.0526809,-0.0102272,0,1,1.8375,0.28,0.6125,0.007198,0.320494,-0.954772,-0.04928,-0.07378,0.5453
14.9966,0,0,5,5,24.9966,24.9966,-21.4237,2.18632,9.45582,-0.275731,0.190002,0.0847121,0,1,1.2425,0.42,0.665,-0.278892,0.566568,-0.859368,-0.04928,-0.07378,0.5453
15.1486,0,0,5,5,25.1486,25.1486,-21.6408,1.90659,9.44964,-0.270852,0.186416,0.0834847,0,1,0.63,0.0875,0.6125,-0.278892,0.566568,-0.859368,-0.04928,-0.07378,0.5453
15.1509,0,0,5,5,25.1509,25.1509,-21.6442,1.90733,9.45116,0.376775,0.17366,-0.0179701,1,1,1.6275,0.07,0.7,0.37149,0.55388,-0.960018,-0.04928,-0.07378,0.5453
15.1524,0,0,5,5,25.1524,25.1524,-21.6462,1.90697,9.4525,0.376781,0.173627,-0.017983,1,1,2.3975,-0.49,0.3675,0.37149,0.55388,-0.960018,-0.0448,-0.07672,0.54194
15.3199,0,0,5,5,25.3199,25.3199,-21.8856,1.65692,9.44627,-0.252769,0.242365,0.0476019,0,1,2.975,-0.665,0.1925,-0.265106,0.62647,-0.893528,-0.0448,-0.07672,0.54194
15.4843,0,0,5,5,25.4843,25.4843,-22.1204,1.41202,9.44075,-0.248496,0.238523,0.0461726,0,1,3.0625,-0.1575,0.1225,-0.265106,0.62647,-0.893528,-0.0448,-0.07672,0.54194
15.4845,0,0,5,5,25.4845,25.4845,-22.1208,1.41201,9.44086,-0.0193739,-0.180255,-0.230955,1,1,3.3775,-0.035,-0.2275,-0.035014,0.208132,-1.16852,-0.0448,-0.07672,0.54194
15.487,0,0,5,5,25.487,25.487,-22.1243,1.41189,9.43984,-0.0193719,-0.180312,-0.230979,1,1,1.5925,0.1575,-0.8575,-0.035014,0.208132,-1.16852,-0.0448,-0.07672,0.54194
15.4902,0,0,5,5,25.4902,25.4902,-22.1288,1.41215,9.43825,0.155684,0.17708,0.268163,1,1,1.0675,0.49,-1.085,0.140788,0.565226,-0.673196,-0.0448,-0.07672,0.54194
15.4924,0,0,5,5,25.4924,25.4924,-22.1321,1.41168,9.43651,0.155693,0.177027,0.268141,1,1,1.75,0.1225,-1.33,0.140788,0.565226,-0.673196,-0.0448,-0.07672,0.54194
15.4945,0,0,5,5,25.4945,25.4945,-22.135,1.41126,9.4349,-0.0464522,-0.0362544,-0.162198,1,1,1.9075,0.1225,-1.2425,-0.06222,0.352214,-1.1002,-0.0448,-0.07672,0.54194
15.4957,0,0,5,5,25.4957,25.4957,-22.1367,1.41059,9.43301,-0.0464406,-0.0362807,-0.162208,1,1,2.6775,0.0525,-1.4525,-0.06222,0.352214,-1.1002,-0.04452,-0.077,0.54376
15.4966,0,0,5,5,25.4966,25.4966,-22.1381,1.40985,9.43108,-0.207275,-0.129486,0.202448,1,1,2.8,0.0175,-1.4875,-0.223748,0.259128,-0.738344,-0.04452,-0.077,0.54376
15.499,0,0,5,5,25.499,25.499,-22.1415,1.40921,9.4295,-0.207264,-0.129541,0.202426,1,1,1.68,0,-1.2775,-0.223748,0.259128,-0.738344,-0.04452,-0.077,0.54376
15.5813,0,0,5,5,25.5813,25.5813,-22.2591,1.36804,9.42535,-0.0386519,0.1205,-0.000952159,0,1,1.3125,-0.0175,-1.1725,-0.055144,0.510814,-0.9394,-0.04452,-0.077,0.54376
15.661,0,0,5,5,25.661,25.661,-22.3728,1.32864,9.4213,-0.0379645,0.118658,-0.00169089,0,1,2.24,0.5425,-0.9625,-0.055144,0.510814,-0.9394,-0.04452,-0.077,0.54376
15.7537,0,0,5,5,25.7537,25.7537,-22.5053,1.53081,9.41687,0.197106,0.123028,0.0331236,0,1,1.855,0.77,-0.7175,0.184464,0.51728,-0.903898,-0.04452,-0.077,0.54376
15.8444,0,0,5,5,25.8444,25.8444,-22.6349,1.72831,9.41257,0.19366,0.120977,0.032165,0,1,2.1,0.1225,-0.665,0.184464,0.51728,-0.903898,-0.04452,-0.077,0.54376
16.046,0,0,5,5,26.046,26.046,-22.9229,1.85257,9.40307,0.117022,0.240453,0.129623,0,1,2.1175,0.5075,-0.4375,0.109678,0.641232,-0.8052,-0.04452,-0.077,0.54376
16.2446,0,0,5,5,26.2446,26.2446,-23.2065,1.97386,9.39401,0.114906,0.235928,0.127619,0,1,1.6275,-0.07,-0.1225,0.109678,0.641232,-0.8052,-0.0455,-0.08218,0.5362
16.3376,0,0,5,5,26.3376,26.3376,-23.3394,2.18783,9.38973,0.176777,0.0523725,0.155841,0,1,1.68,0.105,0.035,0.175558,0.45994,-0.776164,-0.0455,-0.08218,0.5362
16.4297,0,0,5,5,26.4297,26.4297,-23.471,2.39826,9.38534,0.173107,0.050324,0.154794,0,1,1.015,0.2275,0.2625,0.175558,0.45994,-0.776164,-0.0455,-0.08218,0.5362
16.4324,0,0,5,5,26.4324,26.4324,-23.4748,2.39884,9.38627,0.0179595,-0.0128764,0.257429,1,1,1.4,0.0875,0.35,0.019764,0.396866,-0.674294,-0.0455,-0.08218,0.5362
16.4332,0,0,5,5,26.4332,26.4332,-23.476,2.39972,9.38717,0.0179441,-0.0128952,0.257421,1,1,2.87,0.2625,0.4025,0.019764,0.396866,-0.674294,-0.0455,-0.08218,0.5362
16.5491,0,0,5,5,26.5491,26.5491,-23.6416,2.41356,9.38109,0.00968476,0.115016,0.104662,0,1,2.7125,0.1925,0.315,0.011712,0.527284,-0.82472,-0.0455,-0.08218,0.5362
16.6631,0,0,5,5,26.6631,26.6631,-23.8044,2.42695,9.37434,0.00945111,0.11242,0.10351,0,1,2.52,0.28,-0.1225,0.011712,0.527284,-0.82472,-0.0455,-0.08218,0.5362
16.6273,0,0,5,5,26.6273,26.6273,-23.7533,2.54079,9.37624,0.0944499,-0.0765141,0.058546,0,1,2.17,0.385,-0.385,0.099064,0.337696,-0.869616,-0.0455,-0.08218,0.5362
16.5937,0,0,5,5,26.5937,26.5937,-23.7053,2.65249,9.37768,0.0925024,-0.0757125,0.058802,0,1,0.945,0.49,-0.665,0.099064,0.337696,-0.869616,-0.04536,-0.07378,0.5404
16.4685,0,0,5,5,26.4685,26.4685,-23.5264,2.6228,9.38546,-0.0288301,-0.17374,-0.0119743,0,1,0.875,-0.0875,-0.7525,-0.023302,0.236924,-0.941108,-0.04536,-0.07378,0.5404
16.3454,0,0,5,5,26.3454,26.3454,-23.3506,2.59338,9.39274,-0.0283172,-0.170938,-0.0107341,0,1,0.9275,-0.1575,-0.945,-0.023302,0.236924,-0.941108,-0.04536,-0.07378,0.5404
16.3487,0,0,5,5,26.3487,26.3487,-23.3553,2.59285,9.3918,-0.207135,-0.259433,-0.265761,1,1,0.9625,-0.07,-0.91,-0.202886,0.148596,-1.19414,-0.04536,-0.07378,0.5404
16.3516,0,0,5,5,26.3516,26.3516,-23.3594,2.59212,9.39068,-0.207122,-0.259499,-0.265789,1,1,1.2775,-0.14,-1.05,-0.202886,0.148596,-1.19414,-0.04536,-0.07378,0.5404
16.3541,0,0,5,5,26.3541,26.3541,-23.363,2.5912,9.38974,-0.342927,0.146637,-0.359008,1,1,1.5925,-0.28,-0.9975,-0.339282,0.554368,-1.28661,-0.04536,-0.07378,0.5404
16.3566,0,0,5,5,26.3566,26.3566,-23.3665,2.59028,9.38881,-0.342911,0.14658,-0.359032,1,1,1.5925,-0.28,-0.9975,-0.339282,0.554368,-1.28661,-0.04536,-0.07378,0.5404
16.3591,0,0,5,5,26.3591,26.3591,-23.3701,2.59048,9.38797,-0.170405,-0.0394769,-0.148815,1,1,1.5575,0.2975,-0.6825,-0.166042,0.368562,-1.07799,-0.04536,-0.07378,0.5404
16.3616,0,0,5,5,26.3616,26.3616,-23.3737,2.59069,9.38714,-0.170408,-0.0395346,-0.14884,1,1,1.5575,0.2975,-0.6825,-0.166042,0.368562,-1.07799,-0.03976,-0.08078,0.53578
16.3654,0,0,5,5,26.3654,26.3654,-23.3791,2.5919,9.38714,0.0126493,-0.0811429,0.25427,1,1,0.56,0.6475,0,0.017812,0.327082,-0.677954,-0.03976,-0.08078,0.53578
16.3691,0,0,5,5,26.3691,26.3691,-23.3844,2.59311,9.38715,0.0126282,-0.0812282,0.254232,1,1,0.56,0.6475,0,0.017812,0.327082,-0.677954,-0.03976,-0.08078,0.53578
16.2309,0,0,5,5,26.2309,26.2309,-23.187,2.26934,9.39338,-0.302691,-0.20615,0.0140964,0,1,-0.0525,4.41,0.07,-0.304512,0.199226,-0.917806,-0.03976,-0.08078,0.53578
16.0952,0,0,5,5,26.0952,26.0952,-22.9931,1.95109,9.39837,-0.297141,-0.203118,0.0156112,0,1,-0.0525,4.41,0.07,-0.304512,0.199226,-0.917806,-0.03976,-0.08078,0.53578
16.0982,0,0,5,5,26.0982,26.0982,-22.9974,1.95227,9.39899,0.185016,0.0939475,-0.127654,1,1,1.1375,0.49,0.315,0.179706,0.496052,-1.05994,-0.03976,-0.08078,0.53578
16.1012,0,0,5,5,26.1012,26.1012,-23.0017,1.95345,9.3996,0.184995,0.0938787,-0.127684,1,1,1.1375,0.49,0.315,0.179706,0.496052,-1.05994,-0.03976,-0.08078,0.53578
16.1043,0,0,5,5,26.1043,26.1043,-23.0062,1.95437,9.39954,-0.29088,-0.0246559,-0.271196,1,1,1.05,0.5075,-0.105,-0.298168,0.377712,-1.20231,-0.03976,-0.08078,0.53578
16.1074,0,0,5,5,26.1074,26.1074,-23.0106,1.95529,9.39948,-0.290897,-0.0247276,-0.271227,1,1,1.05,0.5075,-0.105,-0.298168,0.377712,-1.20231,-0.04382,-0.07126,0.54068
16.1116,0,0,5,5,26.1116,26.1116,-23.0166,1.95705,9.39894,0.247254,0.166183,-0.384135,1,1,0.21,1.0675,-0.175,0.242292,0.56852,-1.31431,-0.04382,-0.07126,0.54068
16.1163,0,0,5,5,26.1163,26.1163,-23.0233,1.95747,9.39847,-0.0448046,0.212118,0.353264,1,1,-0.1575,0.3325,-0.4375,-0.050996,0.614514,-0.58255,-0.04382,-0.07126,0.54068
16.1211,0,0,5,5,26.1211,26.1211,-23.0302,1.95737,9.39751,-0.0448027,0.212007,0.353217,1,1,-0.28,0.1575,-0.8225,-0.050996,0.614514,-0.58255,-0.04382,-0.07126,0.54068
16.1803,0,0,5,5,26.1803,26.1803,-23.1148,2.06013,9.39382,0.0869176,0.0298048,0.103611,0,1,0.0175,0.0525,-0.8575,0.083082,0.433832,-0.8296,-0.04382,-0.07126,0.54068
16.2381,0,0,5,5,26.2381,26.2381,-23.1972,2.16111,9.39059,0.0851563,0.0285076,0.102985,0,1,0.3325,-0.0175,-0.5425,0.083082,0.433832,-0.8296,-0.04382,-0.07126,0.54068
16.2412,0,0,5,5,26.2412,26.2412,-23.2017,2.16048,9.39008,0.21455,0.00352196,-0.10114,1,1,1.0675,-0.2275,-0.7,0.213012,0.408944,-1.03212,-0.04382,-0.07126,0.54068
16.2443,0,0,5,5,26.2443,26.2443,-23.2061,2.16089,9.38935,0.214542,0.00345087,-0.10117,1,1,1.085,0.385,-0.5775,0.213012,0.408944,-1.03212,-0.04382,-0.07126,0.54068
16.2467,0,0,5,5,26.2467,26.2467,-23.2096,2.16147,9.38863,-0.0381578,-0.0342192,-0.354468,1,1,1.645,0.4725,-0.5425,-0.040748,0.371368,-1.28344,-0.04382,-0.07126,0.54068
16.2504,0,0,5,5,26.2504,26.2504,-23.2149,2.16265,9.38812,-0.0381785,-0.0343035,-0.354505,1,1,0.6125,0.7525,-0.28,-0.040748,0.371368,-1.28344,-0.04956,-0.08092,0.53424
16.2544,0,0,5,5,26.2544,26.2544,-23.2206,2.16306,9.38799,-0.338498,-0.0732315,0.174134,1,1,0.35,0.245,-0.2625,-0.342332,0.332572,-0.75884,-0.04956,-0.08092,0.53424
16.259,0,0,5,5,26.259,26.259,-23.2271,2.16286,9.38795,-0.338495,-0.0733354,0.174089,1,1,-0.07,-0.105,-0.35,-0.342332,0.332572,-0.75884,-0.04956,-0.08092,0.53424
16.2629,0,0,5,5,26.2629,26.2629,-23.2327,2.16248,9.38773,0.184872,-0.182485,0.207124,1,1,0.4025,-0.1575,-0.49,0.183244,0.223626,-0.726022,-0.04956,-0.08092,0.53424
16.2665,0,0,5,5,26.2665,26.2665,-23.2378,2.16174,9.38805,0.184885,-0.182567,0.207089,1,1,0.7,-0.4725,-0.28,0.183244,0.223626,-0.726022,-0.04956,-0.08092,0.53424
16.2698,0,0,5,5,26.2698,26.2698,-23.2426,2.16075,9.38815,0.0895361,0.282415,-0.101667,1,1,0.875,-0.56,-0.455,0.087474,0.688202,-1.03236,-0.04956,-0.08092,0.53424
16.273,0,0,5,5,26.273,26.273,-23.2471,2.16015,9.38757,0.0895465,0.282343,-0.101697,1,1,1.05,-0.1925,-0.735,0.087474,0.688202,-1.03236,-0.04956,-0.08092,0.53424
16.2762,0,0,5,5,26.2762,26.2762,-23.2518,2.15932,9.38659,-0.00131022,0.0993217,-0.270414,1,1,0.9625,-0.2275,-0.9975,-0.003782,0.505446,-1.19975,-0.04956,-0.08092,0.53424
16.2808,0,0,5,5,26.2808,26.2808,-23.2582,2.15962,9.38507,-0.00131537,0.0992181,-0.270459,1,1,-0.035,0.5075,-1.0325,-0.003782,0.505446,-1.19975,-0.04914,-0.07994,0.5369
16.366,0,0,5,5,26.366,26.366,-23.38,2.32746,9.37891,0.162436,0.103176,0.0450644,0,1,0.5425,0.5775,-1.05,0.163602,0.511302,-0.88572,-0.04914,-0.07994,0.5369
16.4501,0,0,5,5,26.4501,26.4501,-23.5002,2.492,9.37264,0.159567,0.101301,0.0441201,0,1,0.2275,0.4025,-1.0325,0.163602,0.511302,-0.88572,-0.04914,-0.07994,0.5369
16.4092,0,0,5,5,26.4092,26.4092,-23.4417,2.62313,9.37426,0.130067,-0.0500153,-0.0444594,0,1,0.0525,0.0875,-1.05,0.136274,0.359168,-0.973926,-0.04914,-0.07994,0.5369
16.3676,0,0,5,5,26.3676,26.3676,-23.3823,2.75137,9.37661,0.127832,-0.0490227,-0.044144,0,1,1.1725,-0.3325,-0.8225,0.136274,0.359168,-0.973926,-0.04914,-0.07994,0.5369
16.3709,0,0,5,5,26.3709,26.3709,-23.387,2.75067,9.37611,-0.172469,0.380542,0.0174207,1,1,0.8925,-0.2625,-0.7175,-0.16531,0.788364,-0.912804,-0.04914,-0.07994,0.5369
16.3751,0,0,5,5,26.3751,26.3751,-23.393,2.75131,9.37606,-0.17248,0.380448,0.017379,1,1,0.2275,0.35,-0.1575,-0.16531,0.788364,-0.912804,-0.04914,-0.07994,0.5369
16.3689,0,0,5,5,26.3689,26.3689,-23.3841,2.88917,9.37724,0.127981,-0.0210389,0.0145038,0,1,0.4725,0.315,0.1575,0.138836,0.387106,-0.91561,-0.04914,-0.07994,0.5369
16.3628,0,0,5,5,26.3628,26.3628,-23.3755,3.02453,9.37844,0.125621,-0.0208515,0.014452,0,1,0.4725,0.315,0.1575,0.138836,0.387106,-0.91561,-0.0469,-0.08162,0.53116
16.3777,0,0,5,5,26.3777,26.3777,-23.3968,2.9093,9.37859,-0.107567,-0.00499081,0.045752,0,1,0.07,0.2275,0.4025,-0.097356,0.403332,-0.8845,-0.0469,-0.08162,0.53116
16.3924,0,0,5,5,26.3924,26.3924,-23.4177,2.79616,9.37878,-0.105594,-0.00536446,0.0456973,0,1,0.07,0.2275,0.4025,-0.097356,0.403332,-0.8845,-0.0469,-0.08162,0.53116
16.3948,0,0,5,5,26.3948,26.3948,-23.4212,2.79641,9.37986,-0.316012,-0.201922,0.110836,1,1,1.575,-0.1225,0.35,-0.30866,0.207034,-0.81984,-0.0469,-0.08162,0.53116
16.3973,0,0,5,5,26.3973,26.3973,-23.4247,2.79666,9.38094,-0.316016,-0.201978,0.110811,1,1,1.575,-0.1225,0.35,-0.30866,0.207034,-0.81984,-0.0469,-0.08162,0.53116
16.401,0,0,5,5,26.401,26.401,-23.43,2.79649,9.38121,-0.108759,-0.19217,0.0453661,1,1,0.5775,-0.1575,-0.175,-0.100528,0.216916,-0.884744,-0.0469,-0.08162,0.53116
16.405,0,0,5,5,26.405,26.405,-23.4358,2.79598,9.38085,-0.017514,0.0447845,0.144177,1,1,0.315,-0.1925,-0.595,-0.008906,0.453718,-0.786656,-0.0469,-0.08162,0.53116
16.4103,0,0,5,5,26.4103,26.4103,-23.4432,2.79658,9.37913,-0.0175244,0.0446653,0.144125,1,1,-0.5775,0.7175,-1.0675,-0.008906,0.453718,-0.786656,-0.0469,-0.08162,0.53116
16.422,0,0,5,5,26.422,26.422,-23.4599,2.69297,9.37676,-0.103795,0.046806,-0.084965,0,1,-0.77,0.595,-1.26,-0.097356,0.456158,-1.01394,-0.04592,-0.08428,0.53256
16.4323,0,0,5,5,26.4323,26.4323,-23.4747,2.59048,9.37508,-0.102008,0.0465372,-0.0849918,0,1,0.14,0.035,-1.085,-0.097356,0.456158,-1.01394,-0.04592,-0.08428,0.53256
16.3695,0,0,5,5,26.3695,26.3695,-23.385,2.69381,9.37822,0.100529,-0.0853577,-0.0325622,0,1,0.5425,-0.5075,-1.295,0.107848,0.322934,-0.962458,-0.04592,-0.08428,0.53256
16.3079,0,0,5,5,26.3079,26.3079,-23.297,2.79528,9.38144,0.09876,-0.0839144,-0.0320318,0,1,0.5425,-0.5075,-1.295,0.107848,0.322934,-0.962458,-0.04592,-0.08428,0.53256
16.3111,0,0,5,5,26.3111,26.3111,-23.3016,2.79467,9.38099,0.0968268,-0.0600518,-0.133987,1,1,0.98,-0.2275,-0.665,0.105896,0.346846,-1.0636,-0.04592,-0.08428,0.53256
16.4465,0,0,5,5,26.4465,26.4465,-23.4949,2.63177,9.37154,-0.164807,0.200351,0.0229092,0,1,0.42,-0.0525,-0.665,-0.159698,0.610122,-0.906704,-0.04592,-0.08428,0.53256
16.5804,0,0,5,5,26.5804,26.5804,-23.6862,2.47324,9.3624,-0.162043,0.197245,0.0216873,0,1,-0.3675,0.8575,-0.5075,-0.159698,0.610122,-0.906704,-0.04592,-0.08428,0.53256
16.6793,0,0,5,5,26.6793,26.6793,-23.8276,2.61559,9.35562,0.135544,0.112841,0.0626415,0,1,-0.735,0.8225,-0.455,0.141642,0.528016,-0.86498,-0.04592,-0.08428,0.53256
16.7764,0,0,5,5,26.7764,26.7764,-23.9663,2.75603,9.34987,0.133096,0.110678,0.0615574,0,1,-0.6125,0.8925,0.3675,0.141642,0.528016,-0.86498,-0.04396,-0.08428,0.52864
16.8755,0,0,5,5,26.8755,26.8755,-24.1079,2.78972,9.34455,0.0316754,0.116372,0.0575747,0,1,0.2275,-0.105,0.4725,0.040382,0.535946,-0.867908,-0.04396,-0.08428,0.52864
16.9717,0,0,5,5,26.9717,26.9717,-24.2453,2.82145,9.33922,0.0311222,0.114198,0.056569,0,1,1.19,-0.805,0.1225,0.040382,0.535946,-0.867908,-0.04396,-0.08428,0.52864
16.9743,0,0,5,5,26.9743,26.9743,-24.2489,2.81988,9.3403,0.101125,0.169097,0.278835,1,1,1.505,-1.1025,-0.0875,0.110654,0.590846,-0.647332,-0.04396,-0.08428,0.52864
16.9778,0,0,5,5,26.9778,26.9778,-24.254,2.81886,9.34057,0.101143,0.169017,0.2788,1,1,0.7175,-0.6125,-0.385,0.110654,0.590846,-0.647332,-0.04396,-0.08428,0.52864
16.9082,0,0,5,5,26.9082,26.9082,-24.1545,3.03928,9.34563,0.205302,-0.111923,0.0082299,0,1,0.3675,-0.385,-0.6475,0.219112,0.308538,-0.916342,-0.04396,-0.08428,0.52864
16.841,0,0,5,5,26.841,26.841,-24.0586,3.25804,9.349,0.20149,-0.11031,0.00872159,0,1,-0.56,1.295,-1.1725,0.219112,0.308538,-0.916342,-0.04396,-0.08428,0.52864
16.8466,0,0,5,5,26.8466,26.8466,-24.0666,3.25971,9.34655,-0.0806292,-0.139381,-0.215841,1,1,-0.8575,1.47,-1.19,-0.064172,0.279624,-1.13911,-0.04396,-0.08428,0.52864
16.8518,0,0,5,5,26.8518,26.8518,-24.0741,3.26052,9.34484,-0.0806434,-0.1395,-0.215895,1,1,-0.5775,0.84,-0.9975,-0.064172,0.279624,-1.13911,-0.0483,-0.08848,0.52696
16.8486,0,0,5,5,26.8486,26.8486,-24.0695,3.22301,9.34461,-0.0337038,0.0279935,-0.0927569,0,1,-0.3675,0.14,-0.7875,-0.01769,0.446886,-1.01699,-0.0483,-0.08848,0.52696
16.8447,0,0,5,5,26.8447,26.8447,-24.0639,3.18514,9.34503,-0.0330438,0.0280679,-0.0926832,0,1,0.245,-0.5775,-0.6825,-0.01769,0.446886,-1.01699,-0.0483,-0.08848,0.52696
16.8539,0,0,5,5,26.8539,26.8539,-24.077,3.28496,9.34459,0.108327,0.0385237,-0.063113,0,1,1.33,-0.315,-0.3675,0.126026,0.4575,-0.987468,-0.0483,-0.08848,0.52696
16.8632,0,0,5,5,26.8632,26.8632,-24.0903,3.3842,9.34433,0.106598,0.0383529,-0.0632997,0,1,1.1025,0.2975,0.0175,0.126026,0.4575,-0.987468,-0.0483,-0.08848,0.52696
16.7885,0,0,5,5,26.7885,26.7885,-23.9836,3.30705,9.35102,-0.0758659,-0.0877248,-0.0742733,0,1,0.8925,0.5775,0.0875,-0.05856,0.329888,-0.99918,-0.0483,-0.08848,0.52696
16.7161,0,0,5,5,26.7161,26.7161,-23.8802,3.23263,9.35724,-0.0745691,-0.086108,-0.0734746,0,1,0.105,1.3475,0.2975,-0.05856,0.329888,-0.99918,-0.0483,-0.08848,0.52696
16.6713,0,0,5,5,26.6713,26.6713,-23.8161,3.09784,9.36197,-0.13843,-0.0371436,-0.0966336,0,1,-0.2625,1.4875,0.8925,-0.12505,0.377834,-1.02273,-0.0483,-0.08848,0.52696
16.6264,0,0,5,5,26.6264,26.6264,-23.752,2.96238,9.36775,-0.136069,-0.0361721,-0.0960688,0,1,0.3675,-0.4725,0.84,-0.12505,0.377834,-1.02273,-0.04844,-0.08526,0.5257
16.5687,0,0,5,5,26.5687,26.5687,-23.6696,3.11754,9.374,0.152306,-0.0788869,-0.0340255,0,1,0.49,-0.525,0.5075,0.167262,0.333792,-0.961604,-0.04844,-0.08526,0.5257
16.5711,0,0,5,5,26.5711,26.5711,-23.673,3.11675,9.37544,0.00240705,0.387095,0.0550893,1,1,1.6275,-0.77,0.2975,0.016714,0.799344,-0.873154,-0.04844,-0.08526,0.5257
16.5737,0,0,5,5,26.5737,26.5737,-23.6767,3.11567,9.37661,0.00242586,0.387034,0.0550639,1,1,1.4175,-0.8575,0.0875,0.016714,0.799344,-0.873154,-0.04844,-0.08526,0.5257
16.5986,0,0,5,5,26.5986,26.5986,-23.7123,3.37136,9.37491,0.253819,0.0236085,0.0256912,0,1,1.8025,-0.6475,-0.4725,0.273646,0.43676,-0.901824,-0.04844,-0.08526,0.5257
16.6252,0,0,5,5,26.6252,26.6252,-23.7503,3.62388,9.37082,0.24942,0.0231101,0.0251784,0,1,0.1225,0.595,-1.3825,0.273646,0.43676,-0.901824,-0.04844,-0.08526,0.5257
16.6823,0,0,5,5,26.6823,26.6823,-23.8318,3.84687,9.36368,0.207633,0.0442627,0.0746597,0,1,-0.105,0.9625,-1.295,0.235582,0.459086,-0.851926,-0.04844,-0.08526,0.5257
16.7376,0,0,5,5,26.7376,26.7376,-23.9108,4.06546,9.3573,0.203827,0.043111,0.0738622,0,1,0.4725,0.49,-0.8925,0.235582,0.459086,-0.851926,-0.04844,-0.08526,0.5257
16.7416,0,0,5,5,26.7416,26.7416,-23.9165,4.06618,9.3564,-0.0472965,-0.123683,0.0607884,1,1,0.385,0.595,-0.595,-0.016592,0.292556,-0.864858,-0.04634,-0.08876,0.52402
16.8164,0,0,5,5,26.8164,26.8164,-24.0235,4.34817,9.34838,0.287591,0.0930038,0.0508501,0,1,2.1175,-0.4375,-0.7,0.324642,0.51057,-0.873642,-0.04634,-0.08876,0.52402
16.8898,0,0,5,5,26.8898,26.8898,-24.1283,4.62723,9.34031,0.282735,0.0914942,0.0497582,0,1,2.2925,0.5425,-0.07,0.324642,0.51057,-0.873642,-0.04634,-0.08876,0.52402
16.8318,0,0,5,5,26.8318,26.8318,-24.0454,4.71421,9.34732,0.0965636,-0.0490499,-0.108861,0,1,2.31,0.7875,0.1225,0.139202,0.368806,-1.03151,-0.04634,-0.08876,0.52402
16.7758,0,0,5,5,26.7758,26.7758,-23.9655,4.79934,9.3543,0.0950829,-0.0477305,-0.108409,0,1,1.435,0.6475,0.035,0.139202,0.368806,-1.03151,-0.04634,-0.08876,0.52402
16.6621,0,0,5,5,26.6621,26.6621,-23.803,4.58903,9.36809,-0.205337,-0.153717,-0.0482203,0,1,0.8925,0.665,0.07,-0.166164,0.26047,-0.973194,-0.04634,-0.08876,0.52402
16.5501,0,0,5,5,26.5501,26.5501,-23.6431,4.3821,9.3817,-0.201737,-0.151282,-0.0468421,0,1,1.085,0.385,0.3675,-0.166164,0.26047,-0.973194,-0.04634,-0.08876,0.52402
16.5984,0,0,5,5,26.5984,26.5984,-23.712,4.34865,9.37751,-0.0350839,0.0329897,0.0729605,0,1,1.75,0.105,0.28,0.00061,0.445666,-0.853878,-0.04634,-0.08876,0.52402
16.6454,0,0,5,5,26.6454,26.6454,-23.7791,4.31389,9.37258,-0.0344789,0.0319025,0.0725323,0,1,2.1175,-0.7175,-0.63,0.00061,0.445666,-0.853878,-0.0462,-0.08092,0.5271
16.6463,0,0,5,5,26.6463,26.6463,-23.7805,4.31298,9.37168,0.067585,-0.164256,0.1683,1,1,2.8175,-0.28,-0.98,0.10309,0.249734,-0.75884,-0.0462,-0.08092,0.5271
16.6467,0,0,5,5,26.6467,26.6467,-23.781,4.313,9.37052,0.0675846,-0.164264,0.168297,1,1,3.325,0.28,-0.8925,0.10309,0.249734,-0.75884,-0.0462,-0.08092,0.5271
16.4681,0,0,5,5,26.4681,26.4681,-23.5259,4.22344,9.38836,-0.0885451,-0.229979,-0.115548,0,1,2.73,-0.035,-1.1025,-0.055266,0.180072,-1.04237,-0.0462,-0.08092,0.5271
16.2931,0,0,5,5,26.2931,26.2931,-23.2759,4.13502,9.40421,-0.0870059,-0.226029,-0.113716,0,1,2.485,0.07,-1.855,-0.055266,0.180072,-1.04237,-0.0462,-0.08092,0.5271
16.2959,0,0,5,5,26.2959,26.2959,-23.2799,4.13452,9.40197,0.119407,-0.0527956,0.131047,1,1,1.4,0.245,-1.5925,0.152012,0.35319,-0.799466,-0.0462,-0.08092,0.5271
16.2973,0,0,5,5,26.2973,26.2973,-23.2818,4.1344,9.40069,0.119409,-0.0528263,0.131034,1,1,2.5375,0.2275,-0.9975,0.152012,0.35319,-0.799466,-0.0462,-0.08092,0.5271
16.2987,0,0,5,5,26.2987,26.2987,-23.2839,4.13298,9.39993,-0.0663178,-0.0509055,-0.148563,1,1,2.45,-0.595,-1.015,-0.034526,0.355142,-1.07689,-0.0462,-0.08092,0.5271
16.301,0,0,5,5,26.301,26.301,-23.2871,4.13226,9.39855,-0.0663053,-0.0509581,-0.148585,1,1,1.785,-0.07,-1.19,-0.034526,0.355142,-1.07689,-0.04662,-0.091,0.5201
16.3012,0,0,5,5,26.3012,26.3012,-23.2875,4.13287,9.3979,0.15248,-0.351273,-0.172932,1,1,3.3775,0.4725,-0.49,0.185196,0.055144,-1.10105,-0.04662,-0.091,0.5201
16.3007,0,0,5,5,26.3007,26.3007,-23.2867,4.13356,9.39904,0.152468,-0.35126,-0.172927,1,1,3.955,0.105,0.49,0.185196,0.055144,-1.10105,-0.04662,-0.091,0.5201
16.3012,0,0,5,5,26.3012,26.3012,-23.2874,4.13361,9.40021,-0.139342,0.144685,-0.21498,1,1,3.1325,-0.245,0.35,-0.107848,0.550586,-1.14277,-0.04662,-0.091,0.5201
16.3018,0,0,5,5,26.3018,26.3018,-23.2882,4.13365,9.40232,-0.139342,0.144672,-0.214986,1,1,3.01,-0.4725,0.8575,-0.107848,0.550586,-1.14277,-0.04662,-0.091,0.5201
16.3021,0,0,5,5,26.3021,26.3021,-23.2888,4.1354,9.40433,0.178312,-0.116443,0.146969,1,1,3.1675,0.4725,1.19,0.211182,0.28975,-0.783606,-0.04662,-0.091,0.5201
16.3039,0,0,5,5,26.3039,26.3039,-23.2912,4.1353,9.40522,0.178314,-0.116482,0.146952,1,1,2.1525,-0.2625,0.175,0.211182,0.28975,-0.783606,-0.04662,-0.091,0.5201
16.3656,0,0,5,5,26.3656,26.3656,-23.3794,3.98006,9.39905,-0.152097,0.0916022,0.00353084,0,1,2.1525,-0.7175,-0.665,-0.123342,0.499102,-0.925492,-0.04662,-0.091,0.5201
16.4241,0,0,5,5,26.4241,26.4241,-23.463,3.83028,9.39297,-0.149489,0.0901947,0.00311517,0,1,3.7975,0.805,-0.1575,-0.123342,0.499102,-0.925492,-0.04662,-0.091,0.5201
16.4542,0,0,5,5,26.4542,26.4542,-23.5059,4.09142,9.39045,0.221355,-0.0168593,0.137772,0,1,4.62,-0.07,0.0525,0.253638,0.392718,-0.791292,-0.04634,-0.08708,0.52752
16.4849,0,0,5,5,26.4849,26.4849,-23.5498,4.34586,9.38745,0.216926,-0.0174288,0.137168,0,1,3.6925,-1.155,-0.63,0.253638,0.392718,-0.791292,-0.04634,-0.08708,0.52752
16.4519,0,0,5,5,26.4519,26.4519,-23.5027,4.34705,9.39114,-0.00298372,-0.0662603,0.0479871,0,1,3.9025,-0.805,-0.525,0.032818,0.343186,-0.880108,-0.04634,-0.08708,0.52752
16.4195,0,0,5,5,26.4195,26.4195,-23.4565,4.34821,9.39476,-0.00300395,-0.0655214,0.0483063,0,1,3.9025,-0.805,-0.525,0.032818,0.343186,-0.880108,-0.04634,-0.08708,0.52752
16.4674,0,0,5,5,26.4674,26.4674,-23.5249,4.54987,9.38965,0.180453,0.0271671,0.0928266,0,1,2.7475,0.805,0.1225,0.220576,0.43676,-0.835212,-0.04634,-0.08708,0.52752
16.5145,0,0,5,5,26.5145,26.5145,-23.5921,4.748,9.38441,0.177007,0.026207,0.0921022,0,1,2.7475,0.805,0.1225,0.220576,0.43676,-0.835212,-0.04634,-0.08708,0.52752
16.5155,0,0,5,5,26.5155,26.5155,-23.5936,4.75005,9.38542,0.331501,0.0766223,-0.0389742,1,1,2.66,0.8575,0.735,0.37576,0.487146,-0.965264,-0.04634,-0.08708,0.52752
16.5166,0,0,5,5,26.5166,26.5166,-23.5951,4.75209,9.38643,0.331465,0.0765993,-0.0389875,1,1,2.66,0.8575,0.735,0.37576,0.487146,-0.965264,-0.04634,-0.08708,0.52752
16.5148,0,0,5,5,26.5148,26.5148,-23.5926,4.75122,9.38807,-0.0637122,0.291705,-0.16831,1,1,4.9175,-0.8575,0.385,-0.021106,0.701988,-1.09361,-0.04564,-0.08708,0.52486
16.3297,0,0,5,5,26.3297,26.3297,-23.3281,4.59065,9.4111,-0.152155,-0.259354,0.00930088,0,1,3.535,-0.455,0.4725,-0.112728,0.147376,-0.919392,-0.04564,-0.08708,0.52486
16.147,0,0,5,5,26.147,26.147,-23.0672,4.43562,9.43287,-0.149458,-0.255265,0.0112851,0,1,4.1825,1.1375,1.05,-0.112728,0.147376,-0.919392,-0.04564,-0.08708,0.52486
16.1483,0,0,5,5,26.1483,26.1483,-23.069,4.43855,9.43362,-0.153153,-0.0700264,-0.165777,1,1,2.5025,1.4,0.7875,-0.116388,0.33245,-1.09507,-0.04564,-0.08708,0.52486
16.1495,0,0,5,5,26.1495,26.1495,-23.0707,4.43771,9.43278,-0.153138,-0.0700536,-0.165787,1,1,2.66,-0.2625,-0.9275,-0.116388,0.33245,-1.09507,-0.04564,-0.08708,0.52486
16.1502,0,0,5,5,26.1502,26.1502,-23.0717,4.4387,9.43157,0.113991,-0.00888475,0.217189,1,1,3.01,0.805,-0.7,0.15189,0.393572,-0.715042,-0.04564,-0.08708,0.52486
16.1488,0,0,5,5,26.1488,26.1488,-23.0697,4.43837,9.43054,0.113997,-0.00885293,0.217203,1,1,4.725,0.0525,-0.91,0.15189,0.393572,-0.715042,-0.04564,-0.08708,0.52486
16.1485,0,0,5,5,26.1485,26.1485,-23.0693,4.43726,9.42906,0.0303128,0.036462,0.141594,1,1,3.85,-0.2625,-1.33,0.067832,0.438834,-0.790072,-0.04564,-0.08708,0.52486
16.1467,0,0,5,5,26.1467,26.1467,-23.0668,4.43458,9.42688,0.0303594,0.0365016,0.141614,1,1,5.0925,-0.945,-2.065,0.067832,0.438834,-0.790072,-0.04396,-0.08316,0.5222
16.1457,0,0,5,5,26.1457,26.1457,-23.0652,4.43458,9.42502,0.710072,0.281024,0.288548,1,1,4.4975,0.42,-1.2775,0.750422,0.683078,-0.644282,-0.04396,-0.08316,0.5222
16.1457,0,0,5,5,26.1457,26.1457,-23.0653,4.43469,9.42335,0.71007,0.281023,0.288548,1,1,3.5875,0.4375,-1.155,0.750422,0.683078,-0.644282,-0.04396,-0.08316,0.5222
16.1471,0,0,5,5,26.1471,26.1471,-23.0673,4.43196,9.42217,-0.25375,0.348281,-0.387433,1,1,2.5025,-1.2075,-1.54,-0.217526,0.7503,-1.31504,-0.04396,-0.08316,0.5222
16.1459,0,0,5,5,26.1459,26.1459,-23.0656,4.43445,9.4213,-0.253793,0.34831,-0.387425,1,1,4.55,1.54,-0.175,-0.217526,0.7503,-1.31504,-0.04396,-0.08316,0.5222
16.1419,0,0,5,5,26.1419,26.1419,-23.0599,4.43604,9.42158,-0.0328385,0.337289,-0.121204,1,1,6.7725,0.7875,0.2275,0.004392,0.739198,-1.05091,-0.04396,-0.08316,0.5222
16.1427,0,0,5,5,26.1427,26.1427,-23.061,4.43541,9.42306,-0.0328276,0.337271,-0.121211,1,1,2.87,-0.6825,0.3675,0.004392,0.739198,-1.05091,-0.04396,-0.08316,0.5222
15.9183,0,0,5,5,25.9183,25.9183,-22.7404,4.29495,9.4481,-0.143243,-0.297606,-0.141982,0,1,4.8125,-1.12,-0.245,-0.108946,0.099918,-1.07384,-0.04396,-0.08316,0.5222
15.6995,0,0,5,5,25.6995,25.6995,-22.4279,4.1589,9.47186,-0.140875,-0.292652,-0.139732,0,1,3.3425,0.07,0.1925,-0.108946,0.099918,-1.07384,-0.03444,-0.08232,0.52556
15.7014,0,0,5,5,25.7014,25.7014,-22.4306,4.16058,9.47201,-0.322647,0.161862,-0.0919247,1,1,2.065,0.875,0.175,-0.291458,0.554002,-1.02639,-0.03444,-0.08232,0.52556
15.7025,0,0,5,5,25.7025,25.7025,-22.4321,4.16,9.4719,-0.322637,0.161837,-0.0919343,1,1,2.695,-0.2975,-0.4725,-0.291458,0.554002,-1.02639,-0.03444,-0.08232,0.52556
15.7027,0,0,5,5,25.7027,25.7027,-22.4325,4.16128,9.47092,-0.189147,-0.351589,0.0318711,1,1,3.4125,0.91,-0.525,-0.15738,0.041114,-0.903532,-0.03444,-0.08232,0.52556
15.7013,0,0,5,5,25.7013,25.7013,-22.4305,4.1604,9.47113,-0.189131,-0.351557,0.0318854,1,1,4.6725,-0.525,-0.3675,-0.15738,0.041114,-0.903532,-0.03444,-0.08232,0.52556
15.7005,0,0,5,5,25.7005,25.7005,-22.4293,4.15956,9.47181,0.0330807,-0.331632,0.116114,1,1,4.1825,-0.6125,-0.105,0.065758,0.061,-0.819962,-0.03444,-0.08232,0.52556
15.6967,0,0,5,5,25.6967,25.6967,-22.4239,4.15972,9.4721,0.0330779,-0.331546,0.116149,1,1,6.5625,0.0175,-0.0875,0.065758,0.061,-0.819962,-0.03444,-0.08232,0.52556
15.6948,0,0,5,5,25.6948,25.6948,-22.4211,4.16058,9.47221,0.171314,0.0466047,-0.141533,1,1,5.145,0.4375,-0.035,0.204594,0.438712,-1.07567,-0.03444,-0.08232,0.52556
15.6964,0,0,5,5,25.6964,25.6964,-22.4234,4.16274,9.47148,0.171276,0.046568,-0.141551,1,1,2.275,1.33,-0.1925,0.204594,0.438712,-1.07567,-0.04564,-0.0889,0.52976
15.6982,0,0,5,5,25.6982,25.6982,-22.426,4.1626,9.47181,-0.403956,0.0809671,-0.330416,1,1,2.135,-0.1575,-0.14,-0.373076,0.473116,-1.26307,-0.04564,-0.0889,0.52976
15.6997,0,0,5,5,25.6997,25.6997,-22.4281,4.16363,9.47321,-0.403974,0.0809329,-0.330432,1,1,2.2925,0.245,0.7,-0.373076,0.473116,-1.26307,-0.04564,-0.0889,0.52976
15.6983,0,0,5,5,25.6983,25.6983,-22.4262,4.16477,9.47502,-0.22213,-0.0497111,-0.149809,1,1,4.5675,0.21,0.945,-0.190442,0.342576,-1.08385,-0.04564,-0.0889,0.52976
15.6965,0,0,5,5,25.6965,25.6965,-22.4236,4.16633,9.47855,-0.222157,-0.0496688,-0.149794,1,1,4.865,0.0525,1.96,-0.190442,0.342576,-1.08385,-0.04564,-0.0889,0.52976
15.5233,0,0,5,5,25.5233,25.5233,-22.1762,4.02802,9.49988,-0.138475,-0.226863,-0.087632,0,1,5.355,-1.12,1.715,-0.108824,0.16165,-1.02395,-0.04564,-0.0889,0.52976
15.3534,0,0,5,5,25.3534,25.3534,-21.9334,3.89193,9.51876,-0.136106,-0.223007,-0.0858928,0,1,5.215,-0.805,0.8575,-0.108824,0.16165,-1.02395,-0.04564,-0.0889,0.52976
15.4401,0,0,5,5,25.4401,25.4401,-22.0573,3.97021,9.51136,0.0694213,0.0923138,0.081652,0,1,2.8525,1.0325,0.77,0.098942,0.478606,-0.856806,-0.04564,-0.0889,0.52976
15.5269,0,0,5,5,25.5269,25.5269,-22.1813,4.04527,9.50407,0.0681143,0.0903476,0.080754,0,1,1.54,0.0175,0.4375,0.098942,0.478606,-0.856806,-0.04564,-0.0889,0.52976
15.5041,0,0,5,5,25.5041,25.5041,-22.1488,4.02177,9.50636,-0.0234411,-0.0323648,-0.0101105,0,1,2.2925,0.21,-0.2975,0.006588,0.355508,-0.947208,-0.0462,-0.08708,0.52878
15.3957,0,0,5,5,25.3957,25.3957,-21.9939,3.96642,9.51617,-0.0533348,-0.136019,-0.0789924,0,1,3.5875,-0.3325,-1.0325,-0.0244,0.24949,-1.01663,-0.0462,-0.08708,0.52878
15.2875,0,0,5,5,25.2875,25.2875,-21.8393,3.91031,9.52613,-0.0523579,-0.133547,-0.0779254,0,1,4.9175,-1.365,-1.1375,-0.0244,0.24949,-1.01663,-0.0462,-0.08708,0.52878
15.2847,0,0,5,5,25.2847,25.2847,-21.8352,3.90855,9.52477,-0.251928,-0.427319,-0.212894,1,1,5.8975,-0.665,-1.4,-0.224846,-0.044042,-1.15058,-0.0462,-0.08708,0.52878
15.2886,0,0,5,5,25.2886,25.2886,-21.8409,3.90941,9.52207,-0.251943,-0.42741,-0.212932,1,1,0.49,1.05,-1.5575,-0.224846,-0.044042,-1.15058,-0.0462,-0.08708,0.52878
15.1078,0,0,5,5,25.1078,25.1078,-21.5826,3.95233,9.53776,0.0409405,-0.246495,-0.0921791,0,1,2.0475,1.5925,-1.0325,0.070028,0.132492,-1.03236,-0.0462,-0.08708,0.52878
14.9305,0,0,5,5,24.9305,24.9305,-21.3293,3.99198,9.55451,0.0402502,-0.242373,-0.0906103,0,1,1.6975,0,-0.9275,0.070028,0.132492,-1.03236,-0.0462,-0.08708,0.52878
14.9344,0,0,5,5,24.9344,24.9344,-21.3349,3.99101,9.55276,-0.0546134,0.134785,-0.103185,1,1,0.49,-0.1575,-1.435,-0.025254,0.50935,-1.04481,-0.0462,-0.08708,0.52878
14.938,0,0,5,5,24.938,24.938,-21.34,3.99166,9.55177,-0.0546247,0.134703,-0.103218,1,0,0.7525,0.56,-0.6825,-0.025254,0.50935,-1.04481,-0.04172,-0.0861,0.51548
14.9366,0,0,5,5,24.9366,24.9366,-21.338,3.99214,9.55149,0.181778,0.0108989,-0.097059,1,0,4.6725,0.315,-0.3325,0.212158,0.385642,-1.03871,-0.04172,-0.0861,0.51548
14.9362,0,0,5,5,24.9362,24.9362,-21.3374,3.99219,9.55177,0.181777,0.0109091,-0.0970551,1,0,3.9025,-0.035,-0.1225,0.212158,0.385642,-1.03871,-0.04172,-0.0861,0.51548
14.9566,0,0,5,5,24.9566,24.9566,-21.3666,3.89981,9.96973,-0.114983,0.0147907,0.0521222,0,0,4.235,-1.2775,-0.91,-0.087474,0.390034,-0.8906,-0.04172,-0.0861,0.51548
14.9779,0,0,5,5,24.9779,24.9779,-21.397,3.81383,10.3896,-0.113486,0.0142609,0.0520232,0,0,3.22,1.5925,0.0875,-0.087474,0.390034,-0.8906,-0.04172,-0.0861,0.51548
14.625,0,0,5,5,24.625,24.625,-20.8929,3.6952,10.9171,-0.333253,-0.470258,0.0558087,0,0,2.7125,0.455,0.21,-0.310246,-0.102114,-0.890112,-0.04172,-0.0861,0.51548
14.2761,0,0,5,5,24.2761,24.2761,-20.3944,3.57053,11.441,-0.331081,-0.462182,0.0589986,0,0,3.1325,-0.7,-1.4875,-0.310246,-0.102114,-0.890112,-0.04172,-0.0861,0.51548
14.2776,0,0,5,5,24.2776,24.2776,-20.3966,3.57034,11.439,-0.341647,-0.309803,0.144681,1,0,2.4325,0.2975,-1.4,-0.32086,0.050142,-0.805078,-0.04172,-0.0861,0.51548
14.2752,0,0,5,5,24.2752,24.2752,-20.3932,3.56918,11.4384,-0.341627,-0.309748,0.144703,1,1,5.4775,-0.5075,-0.875,-0.32086,0.050142,-0.805078,-0.04116,-0.08582,0.52332
14.275,0,0,5,5,24.275,24.275,-20.3929,3.56827,11.4376,-0.560285,-0.0767256,-0.110167,1,1,3.7625,-0.3325,-0.9275,-0.54046,0.282918,-1.05798,-0.04116,-0.08582,0.52332
14.2745,0,0,5,5,24.2745,24.2745,-20.3921,3.56673,11.4352,-0.560258,-0.0767135,-0.11016,1,1,4.0775,-0.3675,-1.89,-0.54046,0.282918,-1.05798,-0.04116,-0.08582,0.52332
14.2763,0,0,5,5,24.2763,24.2763,-20.3947,3.56908,11.4338,0.445116,0.148569,-0.140916,1,1,2.1525,1.575,-0.5775,0.469212,0.508008,-1.08848,-0.04116,-0.08582,0.52332
14.2784,0,0,5,5,24.2784,24.2784,-20.3977,3.56856,11.435,0.445125,0.14852,-0.140933,1,1,1.855,-0.5425,0.28,0.469212,0.508008,-1.08848,-0.04116,-0.08582,0.52332
14.2807,0,0,5,5,24.2807,24.2807,-20.4009,3.5667,11.4358,-0.276467,0.388079,-0.214843,1,1,1.6975,-1.19,-0.21,-0.255468,0.747372,-1.16181,-0.04116,-0.08582,0.52332
14.2802,0,0,5,5,24.2802,24.2802,-20.4003,3.56786,11.4369,-0.276488,0.38809,-0.21484,1,1,3.885,0.4025,0.56,-0.255468,0.747372,-1.16181,-0.04116,-0.08582,0.52332
14.2778,0,0,5,5,24.2778,24.2778,-20.3968,3.56953,11.439,0.371853,-0.123931,0.188327,1,1,5.425,0.49,1.19,0.395646,0.235826,-0.761768,-0.04116,-0.08582,0.52332
14.2821,0,0,5,5,24.2821,24.2821,-20.403,3.57023,11.4405,0.37184,-0.124031,0.188289,1,1,0.0525,0.0875,0.6475,0.395646,0.235826,-0.761768,-0.03962,-0.08862,0.52024
14.404,0,0,5,5,24.404,24.404,-20.5772,3.5933,11.4304,0.0171861,0.123251,0.123147,0,1,2.1175,-0.315,0,0.039894,0.485682,-0.82533,-0.03962,-0.08862,0.52024
14.5238,0,0,5,5,24.5238,24.5238,-20.7483,3.6196,11.4212,0.0167281,0.120472,0.122068,0,1,2.135,1.5225,1.19,0.039894,0.485682,-0.82533,-0.03962,-0.08862,0.52024
14.5089,0,0,5,5,24.5089,24.5089,-20.727,3.87122,11.425,0.26127,-0.0180589,-0.0172463,0,1,3.045,0.6475,1.435,0.289872,0.346846,-0.963434,-0.03962,-0.08862,0.52024
14.4948,0,0,5,5,24.4948,24.4948,-20.7069,4.11486,11.428,0.257028,-0.0176271,-0.0173996,0,1,2.5725,-1.19,0.175,0.289872,0.346846,-0.963434,-0.03962,-0.08862,0.52024
14.4931,0,0,5,5,24.4931,24.4931,-20.7044,4.11434,11.429,-0.120783,-0.0444551,0.161506,1,1,4.9,-0.49,0.14,-0.089548,0.320006,-0.785924,-0.03962,-0.08862,0.52024
14.4912,0,0,5,5,24.4912,24.4912,-20.7017,4.11367,11.4305,-0.120772,-0.0444112,0.161524,1,1,5.0225,-0.6825,0.4025,-0.089548,0.320006,-0.785924,-0.03962,-0.08862,0.52024
14.4919,0,0,5,5,24.4919,24.4919,-20.7026,4.11328,11.4319,-0.027221,-0.489701,0.25791,1,1,2.975,-0.5075,0.4025,0.004392,-0.124806,-0.690276,-0.03962,-0.08862,0.52024
14.4909,0,0,5,5,24.4909,24.4909,-20.7013,4.11103,11.4311,-0.0271819,-0.489679,0.257921,1,1,4.375,-1.0675,-1.19,0.004392,-0.124806,-0.690276,-0.04816,-0.08904,0.52836
14.4936,0,0,5,5,24.4936,24.4936,-20.7051,4.11161,11.4308,0.300334,0.0346704,0.316297,1,1,1.4,0.3675,-0.315,0.333304,0.399062,-0.632326,-0.04816,-0.08904,0.52836
14.4958,0,0,5,5,24.4958,24.4958,-20.7083,4.1105,11.4315,0.300353,0.0346176,0.316279,1,1,1.7325,-0.7525,-0.14,0.333304,0.399062,-0.632326,-0.04816,-0.08904,0.52836
14.6419,0,0,5,5,24.6419,24.6419,-20.9169,4.26332,11.4171,0.146807,0.163434,0.125712,0,1,1.19,-1.6275,-0.525,0.18178,0.531066,-0.819962,-0.04816,-0.08904,0.52836
14.7812,0,0,5,5,24.7812,24.7812,-21.116,4.41718,11.4017,0.14413,0.160273,0.12428,0,1,4.6375,0.56,-0.1925,0.18178,0.531066,-0.819962,-0.04816,-0.08904,0.52836
14.8464,0,0,5,5,24.8464,24.8464,-21.2091,4.69564,11.3947,0.283489,0.0798857,0.0640737,0,1,5.005,-0.315,-0.0525,0.326594,0.452132,-0.878766,-0.04816,-0.08904,0.52836
14.913,0,0,5,5,24.913,24.913,-21.3042,4.96981,11.3857,0.278721,0.0784898,0.0630981,0,1,3.115,0.245,-0.8225,0.326594,0.452132,-0.878766,-0.04816,-0.08904,0.52836
14.9137,0,0,5,5,24.9137,24.9137,-21.3054,4.96991,11.3842,-0.540338,-0.0824912,-0.0695705,1,1,3.01,0.3675,-1.0675,-0.49593,0.291336,-1.0104,-0.04816,-0.08904,0.52836
14.9161,0,0,5,5,24.9161,24.9161,-21.3087,4.9712,11.3837,-0.54036,-0.0825455,-0.0695937,1,1,1.68,0.805,-0.28,-0.49593,0.291336,-1.0104,-0.04816,-0.08904,0.52836
14.9291,0,0,5,5,24.9291,24.9291,-21.3272,4.79044,11.382,-0.183572,0.0318568,-0.0361414,0,1,2.2575,0.14,-0.49,-0.140788,0.406016,-0.977342,-0.04256,-0.08596,0.51898
14.9426,0,0,5,5,24.9426,24.9426,-21.3466,4.61147,11.3791,-0.180459,0.0314504,-0.0360253,0,1,1.645,-0.3325,-1.4175,-0.140788,0.406016,-0.977342,-0.04256,-0.08596,0.51898
14.943,0,0,5,5,24.943,24.943,-21.3471,4.61068,11.3772,0.0536579,-0.0785949,0.188845,1,1,3.3425,-0.0525,-1.435,0.094306,0.296094,-0.754204,-0.04256,-0.08596,0.51898
14.9413,0,0,5,5,24.9413,24.9413,-21.3447,4.60982,11.3756,0.0536728,-0.0785572,0.188861,1,1,4.9525,-0.1225,-1.3475,0.094306,0.296094,-0.754204,-0.04256,-0.08596,0.51898
15.1651,0,0,5,5,25.1651,25.1651,-21.6644,4.67592,11.3469,0.0550741,0.24458,0.20026,0,1,3.2025,0.56,-1.89,0.096868,0.62403,-0.740784,-0.04256,-0.08596,0.51898
15.3827,0,0,5,5,25.3827,25.3827,-21.9752,4.73941,11.3186,0.0539699,0.239594,0.198166,0,1,5.1975,-0.2625,-1.9775,0.096868,0.62403,-0.740784,-0.04256,-0.08596,0.51898
15.3828,0,0,5,5,25.3828,25.3828,-21.9754,4.74064,11.3179,0.559086,0.757532,0.183409,1,1,3.5,0.8225,-0.4025,0.604144,1.14143,-0.755424,-0.04256,-0.08596,0.51898
15.3839,0,0,5,5,25.3839,25.3839,-21.9769,4.73895,11.3184,0.559115,0.757506,0.183402,1,1,2.6775,-1.0325,-0.3675,0.604144,1.14143,-0.755424,-0.04256,-0.08596,0.51898
15.3853,0,0,5,5,25.3853,25.3853,-21.979,4.73569,11.3191,0.371477,0.132426,0.0281086,1,1,2.3625,-1.925,-0.63,0.415654,0.517036,-0.90951,-0.04354,-0.0903,0.51828
15.2557,0,0,5,5,25.2557,25.2557,-21.7939,4.52622,11.3336,-0.212627,-0.174775,-0.0665626,0,1,3.0975,0.3325,-0.49,-0.174582,0.207278,-1.00491,-0.04354,-0.0903,0.51828
15.1288,0,0,5,5,25.1288,25.1288,-21.6125,4.32072,11.3481,-0.209051,-0.171946,-0.0651387,0,1,2.73,0.385,0.14,-0.174582,0.207278,-1.00491,-0.04354,-0.0903,0.51828
14.9205,0,0,5,5,24.9205,24.9205,-21.315,4.04346,11.3699,-0.264725,-0.303914,0.0290504,0,1,2.6775,0.5775,-0.07,-0.235338,0.07076,-0.913658,-0.04354,-0.0903,0.51828
14.7139,0,0,5,5,24.7139,24.7139,-21.0199,3.7698,11.3913,-0.25996,-0.29924,0.0312094,0,1,4.0425,-0.1225,0.5425,-0.235338,0.07076,-0.913658,-0.04354,-0.0903,0.51828
14.7428,0,0,5,5,24.7428,24.7428,-21.0612,3.80024,11.3903,0.0224503,0.0123791,0.0735814,0,1,3.325,0.5775,0.9625,0.0488,0.382714,-0.871324,-0.04354,-0.0903,0.51828
14.771,0,0,5,5,24.771,24.771,-21.1014,3.82725,11.3895,0.02198,0.0117374,0.0733004,0,1,3.5525,-1.0675,0.5075,0.0488,0.382714,-0.871324,-0.04354,-0.0903,0.51828
14.7719,0,0,5,5,24.7719,24.7719,-21.1028,3.82689,11.3911,0.206037,0.206751,-0.00539485,1,1,2.73,-0.525,0.49,0.23363,0.577548,-0.949404,-0.04354,-0.0903,0.51828
14.772,0,0,5,5,24.772,24.772,-21.1028,3.82767,11.3916,0.206023,0.206751,-0.00539596,1,1,3.5175,0.315,0.1575,0.23363,0.577548,-0.949404,-0.04354,-0.09142,0.51702
14.9801,0,0,5,5,24.9801,24.9801,-21.4002,3.76386,11.3724,-0.0658436,0.279081,0.118818,0,1,3.0275,-0.28,-0.105,-0.040504,0.654652,-0.824354,-0.04354,-0.09142,0.51702
15.1862,0,0,5,5,25.1862,25.1862,-21.6945,3.70198,11.3538,-0.064766,0.274288,0.117,0,1,1.9425,0.28,0.035,-0.040504,0.654652,-0.824354,-0.04354,-0.09142,0.51702
15.2502,0,0,5,5,25.2502,25.2502,-21.786,3.66552,11.3485,-0.0388619,0.0462478,0.112145,0,1,4.6375,-0.07,0.1575,-0.015128,0.428342,-0.828624,-0.04354,-0.09142,0.51702
15.3135,0,0,5,5,25.3135,25.3135,-21.8764,3.63259,11.3434,-0.0382882,0.0447725,0.111594,0,1,4.34,1.505,0.7875,-0.015128,0.428342,-0.828624,-0.04354,-0.09142,0.51702
15.2683,0,0,5,5,25.2683,25.2683,-21.8119,3.57548,11.3492,-0.0573387,-0.0813419,0.0493661,0,1,4.55,-0.2975,0.7875,-0.035258,0.30134,-0.890844,-0.04354,-0.09142,0.51702
15.2258,0,0,5,5,25.2258,25.2258,-21.7511,3.51857,11.3546,-0.0563473,-0.0803809,0.0498163,0,1,3.1325,-0.665,0.455,-0.035258,0.30134,-0.890844,-0.04354,-0.09142,0.51702
15.2644,0,0,5,5,25.2644,25.2644,-21.8063,3.71733,11.3526,0.174415,0.00698179,0.115525,0,1,2.7475,0.7,0.84,0.199958,0.389424,-0.825086,-0.04354,-0.09142,0.51702
15.3151,0,0,5,5,25.3151,25.3151,-21.8788,3.8355,11.5086,0.172357,0.00586182,0.11493,0,0,1.26,0.8225,0.3675,0.199958,0.389424,-0.825086,-0.03906,-0.09198,0.51436
15.3739,0,0,5,5,25.3739,25.3739,-21.9626,3.52917,12.188,-0.393655,0.029292,0.170767,0,0,0.84,0.805,0.245,-0.373808,0.414312,-0.769454,-0.03906,-0.09198,0.51436
15.4256,0,0,5,5,25.4256,25.4256,-22.0365,3.22332,12.8718,-0.388326,0.0279809,0.170577,0,0,5.0575,-0.9625,0.1225,-0.373808,0.414312,-0.769454,-0.03906,-0.09198,0.51436
15.4242,0,0,5,5,25.4242,25.4242,-22.0345,3.22306,12.8727,0.442762,0.130111,0.0754277,1,0,4.6375,-0.35,0.1575,0.460794,0.516304,-0.863882,-0.03906,-0.09198,0.51436
15.4215,0,0,5,5,25.4215,25.4215,-22.0307,3.22058,12.8737,0.442806,0.130172,0.0754553,1,0,5.705,-1.5575,-0.315,0.460794,0.516304,-0.863882,-0.03906,-0.09198,0.51436
15.5956,0,0,5,5,25.5956,25.5956,-22.2795,3.46652,12.8031,0.470714,0.156417,0.183136,0,0,4.9,-0.49,-0.525,0.493124,0.546438,-0.75518,-0.03906,-0.09198,0.51436
15.7699,0,0,5,5,25.7699,25.7699,-22.5285,3.71117,12.7308,0.466452,0.152509,0.181236,0,0,2.555,0.5425,-1.085,0.493124,0.546438,-0.75518,-0.03906,-0.09198,0.51436
15.9346,0,0,5,5,25.9346,25.9346,-22.7637,3.71539,13.0038,0.103623,0.229456,0.0413369,0,0,1.435,-0.1225,-1.54,0.128832,0.62708,-0.89243,-0.03906,-0.09198,0.51436
16.0819,0,0,5,5,26.0819,26.0819,-22.9742,3.80651,12.9885,0.102036,0.226119,0.0398159,0,1,2.0475,0.35,-1.1725,0.128832,0.62708,-0.89243,-0.04326,-0.08708,0.51968
16.1128,0,0,5,5,26.1128,26.1128,-23.0183,4.09527,12.9837,0.284217,0.0165882,0.0770642,0,1,4.5325,-0.1925,-1.4,0.316834,0.418338,-0.854854,-0.04326,-0.08708,0.51968
16.1432,0,0,5,5,26.1432,26.1432,-23.0617,4.37956,12.9788,0.279269,0.0160366,0.0764312,0,1,4.55,-0.0175,-1.295,0.316834,0.418338,-0.854854,-0.04326,-0.08708,0.51968
16.1414,0,0,5,5,26.1414,26.1414,-23.0591,4.37703,12.9779,-0.3105,-0.167236,0.124156,1,1,5.04,-1.155,-1.365,-0.275476,0.235216,-0.807518,-0.04326,-0.08708,0.51968
16.1418,0,0,5,5,26.1418,26.1418,-23.0597,4.3772,12.9765,-0.310503,-0.167245,0.124152,1,1,3.3075,0.4025,-0.98,-0.275476,0.235216,-0.807518,-0.04326,-0.08708,0.51968
16.1434,0,0,5,5,26.1434,26.1434,-23.062,4.37725,12.9748,0.141302,0.298266,0.0729898,1,1,2.3625,0.42,-1.19,0.178242,0.70028,-0.85827,-0.04326,-0.08708,0.51968
16.1469,0,0,5,5,26.1469,26.1469,-23.067,4.3785,12.9731,0.14128,0.298186,0.0729539,1,1,0.805,1.05,-0.8925,0.178242,0.70028,-0.85827,-0.04326,-0.08708,0.51968
15.9115,0,0,5,5,25.9115,25.9115,-22.7307,4.47936,12.9989,0.0960328,-0.337414,-0.0788261,0,1,2.0475,0.9275,-0.105,0.134566,0.059902,-1.01101,-0.04326,-0.08708,0.51968
15.6799,0,0,5,5,25.6799,25.6799,-22.3999,4.57844,13.025,0.0943091,-0.332046,-0.0767432,0,1,2.0475,0.9275,-0.105,0.134566,0.059902,-1.01101,-0.0385,-0.084,0.52094
15.6774,0,0,5,5,25.6774,25.6774,-22.3963,4.57703,13.0255,-0.580519,-0.0581812,-0.00454699,1,1,5.53,-0.8925,-0.2975,-0.543144,0.333426,-0.9394,-0.0385,-0.084,0.52094
15.6749,0,0,5,5,25.6749,25.6749,-22.3928,4.57561,13.0261,-0.580495,-0.0581247,-0.00452159,1,1,5.53,-0.8925,-0.2975,-0.543144,0.333426,-0.9394,-0.0385,-0.084,0.52094
15.805,0,0,5,5,25.805,25.805,-22.5786,4.62516,13.0111,0.0592373,0.214554,0.0150789,0,1,4.585,0.175,-0.1225,0.100162,0.60878,-0.91866,-0.0385,-0.084,0.52094
15.933,0,0,5,5,25.933,25.933,-22.7614,4.67381,12.9963,0.0583909,0.211648,0.0137902,0,1,4.585,0.175,-0.1225,0.100162,0.60878,-0.91866,-0.0385,-0.084,0.52094
16.0281,0,0,5,5,26.0281,26.0281,-22.8973,4.88946,12.9855,0.198844,0.0834324,0.125696,0,1,0.9275,1.155,0.2625,0.244976,0.482754,-0.80642,-0.0385,-0.084,0.52094
16.1218,0,0,5,5,26.1218,26.1218,-23.0311,5.10148,12.9743,0.195157,0.0814163,0.124492,0,1,0.9275,1.155,0.2625,0.244976,0.482754,-0.80642,-0.0385,-0.084,0.52094
16.1181,0,0,5,5,26.1181,26.1181,-23.0258,5.10064,12.9752,-0.246671,0.237823,-0.013911,1,1,6.4925,-0.665,0.0175,-0.198738,0.638914,-0.943792,-0.0385,-0.084,0.52094
16.1161,0,0,5,5,26.1161,26.1161,-23.023,5.09974,12.9765,-0.111078,-0.0615877,0.215039,1,1,5.0575,-0.7875,0.21,-0.062586,0.33977,-0.716628,-0.04326,-0.08848,0.52752
16.1135,0,0,5,5,26.1135,26.1135,-23.0193,5.10084,12.9777,-0.111097,-0.0615271,0.215063,1,1,5.6,0.315,0.6125,-0.062586,0.33977,-0.716628,-0.04326,-0.08848,0.52752
16.1149,0,0,5,5,26.1149,26.1149,-23.0213,5.10259,12.978,0.209959,0.312517,-0.00982533,1,1,2.45,0.875,0.2625,0.25986,0.713456,-0.939766,-0.04326,-0.08848,0.52752
16.1162,0,0,5,5,26.1162,26.1162,-23.0232,5.10434,12.9783,0.209929,0.312487,-0.00984112,1,1,2.45,0.875,0.2625,0.25986,0.713456,-0.939766,-0.04326,-0.08848,0.52752
16.1143,0,0,5,5,26.1143,26.1143,-23.0204,5.29555,12.9808,0.176963,-0.0304044,0.0583818,0,1,2.0475,0.9625,1.4,0.230092,0.370758,-0.871812,-0.04326,-0.08848,0.52752
16.1124,0,0,5,5,26.1124,26.1124,-23.0177,5.48351,12.9833,0.173697,-0.0302399,0.0581169,0,1,2.0475,0.9625,1.4,0.230092,0.370758,-0.871812,-0.04326,-0.08848,0.52752
15.8883,0,0,5,5,25.8883,25.8883,-22.6976,5.2419,13.0154,-0.24451,-0.314343,-0.0586198,0,1,5.285,-1.8375,0.5425,-0.194102,0.081984,-0.990152,-0.04326,-0.08848,0.52752
15.668,0,0,5,5,25.668,25.668,-22.3829,5.00395,13.0458,-0.240374,-0.309432,-0.0561801,0,1,5.285,-1.8375,0.5425,-0.194102,0.081984,-0.990152,-0.04326,-0.08848,0.52752
15.6057,0,0,5,5,25.6057,25.6057,-22.2938,5.05066,13.0549,0.0489218,-0.0714121,-0.054059,0,1,6.125,0.35,0.9625,0.097234,0.318298,-0.988566,-0.049,-0.08694,0.52444
15.5706,0,0,5,5,25.5706,25.5706,-22.2436,5.03868,13.0565,-0.0191449,-0.056079,-0.000105984,0,1,1.9775,3.675,-0.735,0.02867,0.332816,-0.935374,-0.049,-0.08694,0.52444
15.536,0,0,5,5,25.536,25.536,-22.1943,5.0269,13.058,-0.0189401,-0.0552924,0.000234809,0,1,1.9775,3.675,-0.735,0.02867,0.332816,-0.935374,-0.049,-0.08694,0.52444
15.6378,0,0,5,5,25.6378,25.6378,-22.3397,5.29036,13.0452,0.26756,0.117779,0.0995899,0,1,2.66,-0.3675,-0.315,0.320982,0.507886,-0.835456,-0.049,-0.08694,0.52444
15.6349,0,0,5,5,25.6349,25.6349,-22.3355,5.2886,13.045,-0.277394,-0.296288,-0.168039,1,1,5.88,-0.91,-0.7875,-0.22631,0.094184,-1.10105,-0.049,-0.08694,0.52444
15.6324,0,0,5,5,25.6324,25.6324,-22.3321,5.28674,13.0442,-0.277362,-0.296233,-0.168013,1,1,5.5475,-0.8225,-1.155,-0.22631,0.094184,-1.10105,-0.049,-0.08694,0.52444
15.3713,0,0,5,5,25.3713,25.3713,-21.9591,5.39546,13.0776,0.0827761,-0.376018,0.0375002,0,1,4.48,-0.105,-1.0675,0.13725,0.008418,-0.899384,-0.049,-0.08694,0.52444
15.1163,0,0,5,5,25.1163,25.1163,-21.5946,5.50227,13.1099,0.0809204,-0.370073,0.0396848,0,1,2.9925,0.1575,-1.68,0.13725,0.008418,-0.899384,-0.049,-0.08694,0.52444
15.2688,0,0,5,5,25.2688,25.2688,-21.8126,5.27522,13.0869,-0.234399,0.194404,0.0902682,0,1,-0.1225,1.1725,-1.82,-0.183366,0.575962,-0.848144,-0.0455,-0.09506,0.5201
15.2852,0,0,5,5,25.2852,25.2852,-21.8361,5.32605,13.0829,0.0587132,0.0437183,-0.0431125,0,1,3.5,0.84,-1.12,0.111874,0.42578,-0.98027,-0.0455,-0.09506,0.5201
15.3005,0,0,5,5,25.3005,25.3005,-21.8579,5.37488,13.0803,0.0578647,0.0433963,-0.0433272,0,1,4.13,-0.07,-0.63,0.111874,0.42578,-0.98027,-0.0455,-0.09506,0.5201
15.2975,0,0,5,5,25.2975,25.2975,-21.8536,5.37353,13.0802,-0.154712,-0.480704,0.156617,1,1,5.95,-0.7175,-0.63,-0.101626,-0.097844,-0.781898,-0.0455,-0.09506,0.5201
15.2919,0,0,5,5,25.2919,25.2919,-21.8456,5.37263,13.0794,-0.154696,-0.480576,0.15667,1,1,8.0675,-0.3325,-0.875,-0.101626,-0.097844,-0.781898,-0.0455,-0.09506,0.5201
15.2923,0,0,5,5,25.2923,25.2923,-21.8461,5.37426,13.0783,-0.269042,-0.0329878,-0.210583,1,1,3.36,1.12,-0.525,-0.216428,0.349286,-1.14631,-0.0455,-0.09506,0.5201
15.2931,0,0,5,5,25.2931,25.2931,-21.8473,5.37355,13.0781,-0.26903,-0.0330069,-0.21059,1,1,2.9225,-0.3325,-0.5775,-0.216428,0.349286,-1.14631,-0.0455,-0.09506,0.5201
15.5439,0,0,5,5,25.5439,25.5439,-22.2056,5.58233,13.0429,0.194577,0.277049,0.243261,0,1,0.9975,0.9275,-0.77,0.252784,0.664656,-0.693326,-0.0455,-0.09506,0.5201
15.7867,0,0,5,5,25.7867,25.7867,-22.5524,5.78723,13.0076,0.191018,0.271616,0.24064,0,1,4.445,0.6125,-0.5775,0.252784,0.664656,-0.693326,-0.0448,-0.08456,0.52136
15.785,0,0,5,5,25.785,25.785,-22.55,5.78645,13.0074,0.192489,0.233183,0.355737,1,1,4.8825,-0.385,-0.56,0.254248,0.626226,-0.579134,-0.0448,-0.08456,0.52136
15.7817,0,0,5,5,25.7817,25.7817,-22.5452,5.78463,13.0077,0.192521,0.233259,0.355772,1,1,6.2475,-1.0675,-0.5075,0.254248,0.626226,-0.579134,-0.0448,-0.08456,0.52136
15.7795,0,0,5,5,25.7795,25.7795,-22.5422,5.78402,13.0078,0.392011,0.380592,0.0944047,1,1,5.25,-0.35,-0.3675,0.454572,0.773358,-0.838506,-0.0448,-0.08456,0.52136
15.7827,0,0,5,5,25.7827,25.7827,-22.5467,5.78481,13.0073,0.391997,0.38052,0.0943732,1,1,1.05,0.5425,-0.4025,0.454572,0.773358,-0.838506,-0.0448,-0.08456,0.52136
15.8156,0,0,5,5,25.8156,25.8156,-22.5937,5.86441,13.0029,0.0928537,0.0642451,-0.0384856,0,1,0.56,-0.175,-0.4375,0.15555,0.45811,-0.9699,-0.0448,-0.08456,0.52136
15.8451,0,0,5,5,25.8451,25.8451,-22.6359,5.94615,12.9985,0.0914346,0.0636253,-0.0389027,0,1,2.8,1.7325,0.315,0.15555,0.45811,-0.9699,-0.0448,-0.08456,0.52136
15.8448,0,0,5,5,25.8448,25.8448,-22.6355,5.94649,12.9992,-0.108658,0.188202,-0.145251,1,1,3.7625,0.035,0.14,-0.045384,0.58255,-1.07543,-0.0448,-0.08456,0.52136
15.8428,0,0,5,5,25.8428,25.8428,-22.6325,5.94761,13.002,-0.108678,0.188249,-0.145233,1,1,5.04,-0.035,1.4875,-0.045384,0.58255,-1.07543,-0.04368,-0.0952,0.5243
15.6497,0,0,5,5,25.6497,25.6497,-22.3568,5.72567,13.0328,-0.221815,-0.269849,-0.0134497,0,1,7.315,-0.735,1.575,-0.16287,0.120658,-0.946842,-0.04368,-0.0952,0.5243
15.4638,0,0,5,5,25.4638,25.4638,-22.0911,5.5086,13.0618,-0.218044,-0.265718,-0.0113611,0,1,4.2875,0.0875,1.7675,-0.16287,0.120658,-0.946842,-0.04368,-0.0952,0.5243
15.4642,0,0,5,5,25.4642,25.4642,-22.0918,5.51026,13.064,0.0440928,-0.122717,0.247808,1,1,3.08,0.42,1.26,0.100406,0.26352,-0.689666,-0.04368,-0.0952,0.5243
15.4653,0,0,5,5,25.4653,25.4653,-22.0932,5.51112,13.0659,0.044078,-0.12274,0.247797,1,1,2.625,0.035,0.945,0.100406,0.26352,-0.689666,-0.04368,-0.0952,0.5243
15.4672,0,0,5,5,25.4672,25.4672,-22.096,5.51322,13.0673,-0.0627445,0.304416,0.0310169,1,1,1.925,0.84,0.91,-0.006832,0.690276,-0.904752,-0.04368,-0.0952,0.5243
15.4667,0,0,5,5,25.4667,25.4667,-22.0952,5.51331,13.0681,-0.0627461,0.304428,0.0310219,1,1,3.955,-0.14,0.1925,-0.006832,0.690276,-0.904752,-0.04368,-0.0952,0.5243
15.4637,0,0,5,5,25.4637,25.4637,-22.091,5.51353,13.0692,0.0661464,-0.0770277,0.302519,1,1,5.8625,-0.1225,0.35,0.12261,0.309148,-0.635376,-0.04368,-0.0952,0.5243
15.4621,0,0,5,5,25.4621,25.4621,-22.0888,5.51118,13.0704,0.0661872,-0.0769929,0.302538,1,1,4.76,-1.54,-0.1575,0.12261,0.309148,-0.635376,-0.04256,-0.09254,0.51856
15.4628,0,0,5,5,25.4628,25.4628,-22.0898,5.50942,13.0696,-0.219516,-0.0434252,0.20688,1,1,3.045,-0.7875,-1.1025,-0.164334,0.342698,-0.730292,-0.04256,-0.09254,0.51856
15.4659,0,0,5,5,25.4659,25.4659,-22.0942,5.50953,13.068,-0.219518,-0.0434961,0.206851,1,1,1.1725,0.4025,-1.1025,-0.164334,0.342698,-0.730292,-0.04256,-0.09254,0.51856
15.6481,0,0,5,5,25.6481,25.6481,-22.3544,5.61823,13.0414,0.0857092,0.160982,0.215053,0,1,0.07,0.7175,-1.2425,0.144082,0.551074,-0.720288,-0.04256,-0.09254,0.51856
15.8231,0,0,5,5,25.8231,25.8231,-22.6044,5.72555,13.0137,0.0838453,0.15704,0.213221,0,1,3.4475,1.2425,-1.6975,0.144082,0.551074,-0.720288,-0.04256,-0.09254,0.51856
15.8248,0,0,5,5,25.8248,25.8248,-22.6068,5.72577,13.0131,-0.00144155,0.289998,-0.213918,1,1,2.275,0.2625,-0.5775,0.058438,0.683932,-1.14412,-0.04256,-0.09254,0.51856
15.8264,0,0,5,5,25.8264,25.8264,-22.6091,5.726,13.0124,-0.00144548,0.28996,-0.213934,1,1,2.275,0.2625,-0.5775,0.058438,0.683932,-1.14412,-0.04256,-0.09254,0.51856
15.8236,0,0,5,5,25.8236,25.8236,-22.6051,5.7248,13.0124,0.0806996,0.189758,-0.306977,1,1,5.8275,-0.6475,-0.56,0.14091,0.58377,-1.23647,-0.04256,-0.09254,0.51856
15.8207,0,0,5,5,25.8207,25.8207,-22.6011,5.72361,13.0124,0.0807204,0.189822,-0.306948,1,1,5.8275,-0.6475,-0.56,0.14091,0.58377,-1.23647,-0.04256,-0.09254,0.51856
15.9255,0,0,5,5,25.9255,25.9255,-22.7507,5.67544,12.9966,-0.0536566,0.0968956,0.126627,0,1,3.0625,0.5075,-0.7175,0.005124,0.493368,-0.805322,-0.04256,-0.09282,0.5166
16.0076,0,0,5,5,26.0076,26.0076,-22.8679,5.6743,12.9835,-0.00868713,0.0694941,0.110963,0,1,2.31,0.455,-1.1725,0.050264,0.46787,-0.820084,-0.04256,-0.09282,0.5166
16.0882,0,0,5,5,26.0882,26.0882,-22.9831,5.67315,12.9706,-0.00866722,0.0676505,0.110185,0,1,2.31,0.455,-1.1725,0.050264,0.46787,-0.820084,-0.04256,-0.09282,0.5166
16.0869,0,0,5,5,26.0869,26.0869,-22.9812,5.67149,12.9695,0.0674117,-0.123326,0.157659,1,1,4.69,-0.6475,-1.26,0.126636,0.277062,-0.772992,-0.04256,-0.09282,0.5166
16.0855,0,0,5,5,26.0855,26.0855,-22.9793,5.66982,12.9684,0.0674406,-0.123297,0.157674,1,1,4.69,-0.6475,-1.26,0.126636,0.277062,-0.772992,-0.04256,-0.09282,0.5166
16.2956,0,0,5,5,26.2956,26.2956,-23.2795,5.50037,12.937,-0.166149,0.192989,0.234824,0,1,2.73,-0.735,-2.0825,-0.110898,0.597922,-0.694668,-0.04256,-0.09282,0.5166
16.5022,0,0,5,5,26.5022,26.5022,-23.5746,5.33347,12.907,-0.163249,0.188174,0.233038,0,1,2.73,-0.735,-2.0825,-0.110898,0.597922,-0.694668,-0.04256,-0.09282,0.5166
16.584,0,0,5,5,26.584,26.584,-23.6915,5.439,13.0569,0.18103,0.0449604,0.114526,0,0,0.8575,0.9975,-0.2975,0.23668,0.456646,-0.8113,-0.04018,-0.09856,0.51254
16.5179,0,0,5,5,26.5179,26.5179,-23.5969,5.42982,13.4071,-0.0509692,-0.0961853,0.0132747,0,0,2.9575,0.5075,-0.91,0.003538,0.31415,-0.912438,-0.04018,-0.09856,0.51254
16.4527,0,0,5,5,26.4527,26.4527,-23.5039,5.42023,13.7584,-0.0508026,-0.09471,0.013935,0,0,2.9575,0.5075,-0.91,0.003538,0.31415,-0.912438,-0.04018,-0.09856,0.51254
16.3082,0,0,5,5,26.3082,26.3082,-23.2974,5.49748,14.0179,0.0328953,-0.201891,-0.000986916,0,0,4.69,0.0875,1.5925,0.088938,0.20374,-0.928542,-0.04018,-0.09856,0.51254
16.166,0,0,5,5,26.166,26.166,-23.0943,5.57283,14.2779,0.0315863,-0.198597,0.000286371,0,0,4.69,0.0875,1.5925,0.088938,0.20374,-0.928542,-0.04018,-0.09856,0.51254
16.1675,0,0,5,5,26.1675,26.1675,-23.0965,5.57972,14.2775,-0.482661,0.440828,-0.0996965,1,0,2.345,3.7975,1.085,-0.427366,0.842532,-1.02773,-0.04018,-0.09856,0.51254
16.1691,0,0,5,5,26.1691,26.1691,-23.0987,5.58661,14.2772,-0.48278,0.440797,-0.0997223,1,0,2.345,3.7975,1.085,-0.427366,0.842532,-1.02773,-0.04018,-0.09856,0.51254
15.9875,0,0,5,5,25.9875,25.9875,-22.8393,5.70317,14.4808,0.079982,-0.256717,-0.00950232,0,0,3.85,-3.9375,1.5575,0.139812,0.14152,-0.939766,-0.04018,-0.09856,0.51254
15.8142,0,0,5,5,25.8142,25.8142,-22.5917,5.78857,14.511,0.0784989,-0.252694,-0.00798014,0,1,3.85,-3.9375,1.5575,0.139812,0.14152,-0.939766,-0.04228,-0.08848,0.51716
15.4538,0,0,5,5,25.4538,25.4538,-22.0768,5.41742,14.5637,-0.382045,-0.546192,0.0311672,0,1,4.06,-1.1025,0.8575,-0.329156,-0.159698,-0.904874,-0.04228,-0.08848,0.51716
15.0984,0,0,5,5,25.0984,25.0984,-21.5692,5.05066,14.6125,-0.375671,-0.538219,0.0349889,0,1,4.06,-1.1025,0.8575,-0.329156,-0.159698,-0.904874,-0.04228,-0.08848,0.51716
14.9825,0,0,5,5,24.9825,24.9825,-21.4035,4.78752,14.6279,-0.278644,-0.155136,-0.0894889,0,1,3.2375,-1.12,0,-0.236314,0.220454,-1.0298,-0.04228,-0.08848,0.51716
14.9829,0,0,5,5,24.9829,24.9829,-21.4042,4.78609,14.6271,-0.0780466,-0.0206858,-0.168055,1,1,3.22,-0.63,-0.98,-0.034892,0.354776,-1.10776,-0.04228,-0.08848,0.51716
14.9846,0,0,5,5,24.9846,24.9846,-21.4066,4.78833,14.6275,-0.0780856,-0.0207227,-0.168073,1,1,2.2225,1.1375,0.4025,-0.034892,0.354776,-1.10776,-0.04228,-0.08848,0.51716
14.9865,0,0,5,5,24.9865,24.9865,-21.4093,4.78912,14.6273,-0.305399,-0.446501,-0.278623,1,1,2.0125,0.4725,-0.2275,-0.263154,-0.070516,-1.21744,-0.04228,-0.08848,0.51716
14.9867,0,0,5,5,24.9867,24.9867,-21.4095,4.79,14.6263,-0.305414,-0.446504,-0.278625,1,1,3.5,0.7,-0.665,-0.263154,-0.070516,-1.21744,-0.04228,-0.08848,0.51716
14.9842,0,0,5,5,24.9842,24.9842,-21.4061,4.79078,14.6261,-0.180298,0.0659966,-0.314874,1,1,5.5125,0.455,-0.21,-0.137494,0.441396,-1.25343,-0.04228,-0.08848,0.51716
14.9824,0,0,5,5,24.9824,24.9824,-21.4035,4.79084,14.6276,-0.180299,0.0660389,-0.314857,1,1,4.9525,-0.2975,0.56,-0.137494,0.441396,-1.25343,-0.04102,-0.08876,0.52276
14.9821,0,0,5,5,24.9821,24.9821,-21.4029,4.78963,14.6284,-0.722104,0.0219589,-0.102766,1,1,3.815,-0.8225,-0.14,-0.681614,0.397354,-1.04298,-0.04102,-0.08876,0.52276
14.9863,0,0,5,5,24.9863,24.9863,-21.4091,4.79071,14.6278,-0.722123,0.0218605,-0.102807,1,1,0.1575,0.7,-0.35,-0.681614,0.397354,-1.04298,-0.04102,-0.08876,0.52276
14.9892,0,0,5,5,24.9892,24.9892,-21.4132,4.793,14.6272,-0.0535052,-0.153946,0.229002,1,1,1.26,1.3825,-0.14,-0.010126,0.221796,-0.7137,-0.04102,-0.08876,0.52276
14.9904,0,0,5,5,24.9904,24.9904,-21.4149,4.79203,14.6253,-0.0534884,-0.153974,0.228992,1,1,2.695,-0.14,-1.4875,-0.010126,0.221796,-0.7137,-0.04102,-0.08876,0.52276
15.2324,0,0,5,5,25.2324,25.2324,-21.7606,4.78781,14.5946,-0.0147825,0.249558,0.239081,0,1,1.47,0.4025,-1.5225,0.02867,0.630496,-0.7015,-0.04102,-0.08876,0.52276
15.4632,0,0,5,5,25.4632,25.4632,-22.0902,4.78094,14.5649,-0.0146631,0.244236,0.236949,0,1,7.315,-1.1025,-1.7675,0.02867,0.630496,-0.7015,-0.04102,-0.08876,0.52276
15.4612,0,0,5,5,25.4612,25.4612,-22.0874,4.77934,14.5633,0.354924,0.625437,-0.0201154,1,1,5.1975,-0.525,-1.4875,0.399794,1.01126,-0.956602,-0.04102,-0.08876,0.52276
15.463,0,0,5,5,25.463,25.463,-22.09,4.77676,14.5597,0.354969,0.625395,-0.0201287,1,0,2.2925,-0.6125,-2.8,0.399794,1.01126,-0.956602,-0.0406,-0.08624,0.5166
15.4641,0,0,5,5,25.4641,25.4641,-22.0915,4.77514,14.5555,0.342849,0.26363,-0.176158,1,0,2.8875,0.0175,-2.8525,0.387594,0.649894,-1.11142,-0.0406,-0.08624,0.5166
15.4671,0,0,5,5,25.4671,25.4671,-22.0959,4.77591,14.5531,0.342835,0.26356,-0.176188,1,0,1.225,0.9625,-1.4525,0.387594,0.649894,-1.11142,-0.0406,-0.08624,0.5166
15.3699,0,0,5,5,25.3699,25.3699,-21.9569,4.6328,15.0551,-0.271701,-0.0917414,-0.107716,0,0,2.0475,-0.63,-2.0475,-0.232044,0.2928,-1.04456,-0.0406,-0.08624,0.5166
15.2711,0,0,5,5,25.2711,25.2711,-21.8158,4.49369,15.5574,-0.269281,-0.0895349,-0.106621,0,0,4.2875,1.33,-1.435,-0.232044,0.2928,-1.04456,-0.0406,-0.08624,0.5166
15.2316,0,0,5,5,25.2316,25.2316,-21.7594,4.40128,15.9996,-0.151654,-0.0434834,0.011275,0,0,5.74,0.5075,-0.28,-0.115534,0.33794,-0.928054,-0.0406,-0.08624,0.5166
15.1953,0,0,5,5,25.1953,25.1953,-21.7076,4.30833,16.4453,-0.150036,-0.0426916,0.0117233,0,0,3.5,-0.63,0.6825,-0.115534,0.33794,-0.928054,-0.0406,-0.08624,0.5166
14.9836,0,0,5,5,24.9836,24.9836,-21.4051,4.19656,16.9253,-0.245766,-0.273796,0.0455132,0,0,3.5525,-0.91,0.3675,-0.213622,0.102236,-0.896578,-0.0406,-0.08624,0.5166
14.7772,0,0,5,5,24.7772,24.7772,-21.1103,4.08937,17.4132,-0.2439,-0.269064,0.0474993,0,0,1.19,0.56,1.3125,-0.213622,0.102236,-0.896578,-0.03864,-0.09324,0.5145
14.8276,0,0,5,5,24.8276,24.8276,-21.1823,4.22194,17.5764,0.228923,0.0614031,-0.0188862,0,0,2.2225,1.61,0.7,0.26352,0.433466,-0.961848,-0.03864,-0.09324,0.5145
14.8771,0,0,5,5,24.8771,24.8771,-21.253,4.35322,17.7405,0.226638,0.0603177,-0.0194913,0,0,2.2225,1.61,0.7,0.26352,0.433466,-0.961848,-0.03864,-0.09324,0.5145
14.8956,0,0,5,5,24.8956,24.8956,-21.2794,4.2007,18.2607,-0.215466,0.0462616,0.00413321,0,0,3.4825,0.0875,1.015,-0.183122,0.419924,-0.938424,-0.03864,-0.09324,0.5145
14.9135,0,0,5,5,24.9135,24.9135,-21.3051,4.04986,18.7828,-0.21284,0.0457763,0.00414733,0,0,3.4825,0.0875,1.015,-0.183122,0.419924,-0.938424,-0.03864,-0.09324,0.5145
14.9125,0,0,5,5,24.9125,24.9125,-21.3035,4.04982,18.7839,-0.534898,0.174523,-0.115472,1,0,4.3925,-0.245,0.2625,-0.506544,0.548512,-1.05713,-0.03864,-0.09324,0.5145
14.9114,0,0,5,5,24.9114,24.9114,-21.3019,4.04978,18.7849,-0.534898,0.174548,-0.115462,1,0,4.3925,-0.245,0.2625,-0.506544,0.548512,-1.05713,-0.03864,-0.09324,0.5145
14.9111,0,0,5,5,24.9111,24.9111,-21.3016,4.0526,18.7854,0.586488,-0.0119329,0.053837,1,0,3.71,1.4175,0.6125,0.619638,0.362218,-0.889136,-0.03864,-0.09324,0.5145
14.9123,0,0,5,5,24.9123,24.9123,-21.3033,4.05391,18.7863,-0.20708,0.0333501,-0.362601,1,1,2.6075,0.5425,0.4375,-0.177266,0.40748,-1.30235,-0.042,-0.09338,0.51912
14.9118,0,0,5,5,24.9118,24.9118,-21.3026,4.05362,18.7872,-0.207075,0.033361,-0.362597,1,1,3.9025,-0.3675,0.175,-0.177266,0.40748,-1.30235,-0.042,-0.09338,0.51912
14.9088,0,0,5,5,24.9088,24.9088,-21.2984,4.05458,18.7897,0.225276,0.20856,-0.0322084,1,1,5.845,0,1.2425,0.256932,0.582428,-0.974536,-0.042,-0.09338,0.51912
14.9074,0,0,5,5,24.9074,24.9074,-21.2963,4.05441,18.7927,-0.213406,-0.152047,0.178416,1,1,4.6025,-0.735,1.3125,-0.18361,0.222162,-0.76555,-0.042,-0.09338,0.51912
14.9065,0,0,5,5,24.9065,24.9065,-21.295,4.05412,18.7941,-0.213401,-0.152027,0.178424,1,1,4.2,-0.4725,0.455,-0.18361,0.222162,-0.76555,-0.042,-0.09338,0.51912
14.9077,0,0,5,5,24.9077,24.9077,-21.2967,4.05367,18.7962,0.1818,0.184161,-0.138056,1,1,2.5375,-0.6825,0.7175,0.213256,0.558028,-1.07958,-0.042,-0.09338,0.51912
14.9091,0,0,5,5,24.9091,24.9091,-21.2986,4.05647,18.796,0.181752,0.184131,-0.138071,1,1,2.485,1.5575,0.2275,0.213256,0.558028,-1.07958,-0.042,-0.09338,0.51912
14.909,0,0,5,5,24.909,24.909,-21.2985,4.05504,18.7959,-0.247675,-0.335273,-0.178027,1,1,3.64,-0.7525,-0.665,-0.218014,0.039162,-1.11923,-0.042,-0.09338,0.51912
14.9091,0,0,5,5,24.9091,24.9091,-21.2987,4.05608,18.7942,-0.247694,-0.335275,-0.178029,1,1,3.5175,0.91,-0.945,-0.218014,0.039162,-1.11923,-0.04452,-0.08792,0.52794
14.9064,0,0,5,5,24.9064,24.9064,-21.2949,4.05576,18.7928,-0.378407,-0.0925477,-0.220914,1,1,5.7575,0.1225,-1.12,-0.349286,0.281576,-1.16181,-0.04452,-0.08792,0.52794
14.9067,0,0,5,5,24.9067,24.9067,-21.2953,4.05383,18.7905,-0.378373,-0.0925549,-0.220914,1,1,3.43,-0.5775,-1.925,-0.349286,0.281576,-1.16181,-0.04452,-0.08792,0.52794
14.9071,0,0,5,5,24.9071,24.9071,-21.2958,4.05295,18.7867,-0.169038,-0.141659,-0.264194,1,1,3.4125,0.3325,-2.555,-0.13908,0.232532,-1.20475,-0.04452,-0.08792,0.52794
14.9069,0,0,5,5,24.9069,24.9069,-21.2956,4.0533,18.7823,-0.169044,-0.141656,-0.264194,1,1,3.8325,1.12,-2.59,-0.13908,0.232532,-1.20475,-0.04452,-0.08792,0.52794
14.7355,0,0,5,5,24.7355,24.7355,-21.0508,4.23042,18.7957,0.151025,-0.265711,0.061599,0,1,3.3425,1.715,-2.3625,0.18544,0.104554,-0.882792,-0.04452,-0.08792,0.52794
14.567,0,0,5,5,24.567,24.567,-20.81,4.39959,18.8109,0.148081,-0.261718,0.0628884,0,1,3.1325,-1.3475,-2.625,0.18544,0.104554,-0.882792,-0.04452,-0.08792,0.52794
14.4003,0,0,5,5,24.4003,24.4003,-20.5719,4.61043,18.827,0.221069,-0.250779,-0.0507522,0,1,2.7475,0.1225,-1.96,0.262422,0.111508,-0.99674,-0.04452,-0.08792,0.52794
14.2328,0,0,5,5,24.2328,24.2328,-20.3325,4.81746,18.8459,0.217468,-0.246774,-0.0495754,0,1,5.4425,-0.5425,-0.7875,0.262422,0.111508,-0.99674,-0.0434,-0.09058,0.51912
14.2319,0,0,5,5,24.2319,24.2319,-20.3312,4.81802,18.8455,-0.273708,-0.0788288,0.170017,1,1,4.2875,0.385,-0.385,-0.230824,0.279258,-0.778848,-0.0434,-0.09058,0.51912
14.2305,0,0,5,5,24.2305,24.2305,-20.3292,4.81759,18.8456,-0.2737,-0.0787965,0.17003,1,1,4.6725,-0.2625,-0.315,-0.230824,0.279258,-0.778848,-0.0434,-0.09058,0.51912
14.2294,0,0,5,5,24.2294,24.2294,-20.3277,4.81715,18.8461,-0.17371,0.20102,-0.213314,1,1,4.375,-0.35,-0.0875,-0.130418,0.55876,-1.15924,-0.0434,-0.09058,0.51912
14.2293,0,0,5,5,24.2293,24.2293,-20.3275,4.81878,18.847,-0.173738,0.201024,-0.213315,1,1,3.64,0.7175,0.5075,-0.130418,0.55876,-1.15924,-0.0434,-0.09058,0.51912
14.0718,0,0,5,5,24.0718,24.0718,-20.1026,4.71494,18.8671,-0.108638,-0.210831,-0.147888,0,1,4.2525,-1.435,0.175,-0.066856,0.143716,-1.0958,-0.0434,-0.09058,0.51912
13.9173,0,0,5,5,23.9173,23.9173,-19.8818,4.61666,18.8859,-0.106929,-0.20727,-0.146444,0,1,4.06,0.875,0.5775,-0.066856,0.143716,-1.0958,-0.0434,-0.09058,0.51912
13.8742,0,0,5,5,23.8742,23.8742,-19.8203,4.39242,18.8915,-0.238605,-0.0457704,-0.0609567,0,1,4.7425,-0.4725,0.1225,-0.203008,0.304146,-1.01162,-0.0434,-0.09058,0.51912
13.8329,0,0,5,5,23.8329,23.8329,-19.7612,4.17258,18.897,-0.234779,-0.044901,-0.0603394,0,1,3.9025,-0.1225,0.385,-0.203008,0.304146,-1.01162,-0.04046,-0.09072,0.51996
13.7584,0,0,5,5,23.7584,23.7584,-19.6549,3.99197,18.8974,-0.193731,-0.0842679,-0.107454,0,1,4.9175,0.4025,-4.4625,-0.164944,0.263154,-1.0592,-0.04046,-0.09072,0.51996
13.6859,0,0,5,5,23.6859,23.6859,-19.5513,3.81822,18.9041,-0.190706,-0.0826387,-0.106654,0,1,4.0775,1.225,-0.035,-0.164944,0.263154,-1.0592,-0.04046,-0.09072,0.51996
13.679,0,0,5,5,23.679,23.679,-19.5414,3.42632,18.9052,-0.412759,-0.024977,0.0423326,0,1,4.0075,0.98,0.4025,-0.394792,0.320738,-0.911828,-0.04046,-0.09072,0.51996
13.6726,0,0,5,5,23.6726,23.6726,-19.5322,3.03793,18.9077,-0.405991,-0.0249539,0.0427464,0,1,3.6575,-0.7175,0.7175,-0.394792,0.320738,-0.911828,-0.04046,-0.09072,0.51996
13.6364,0,0,5,5,23.6364,23.6364,-19.4806,3.08112,18.9133,0.0471273,-0.0386243,-0.0610051,0,1,2.8175,0.35,1.505,0.061,0.30622,-1.01504,-0.04046,-0.09072,0.51996
13.6008,0,0,5,5,23.6008,23.6008,-19.4297,3.12357,18.9188,0.0463875,-0.0377757,-0.0607479,0,1,2.8175,0.35,1.505,0.061,0.30622,-1.01504,-0.04046,-0.09072,0.51996
13.6004,0,0,5,5,23.6004,23.6004,-19.4292,3.12553,18.9216,0.0940972,0.183893,-0.062222,1,1,3.7625,0.525,1.6625,0.108946,0.52765,-1.0165,-0.04046,-0.09072,0.51996
13.6001,0,0,5,5,23.6001,23.6001,-19.4287,3.12749,18.9245,0.094063,0.183903,-0.0622208,1,1,3.7625,0.525,1.6625,0.108946,0.52765,-1.0165,-0.04032,-0.08946,0.51674
13.7393,0,0,5,5,23.7393,23.7393,-19.6276,3.50469,18.9156,0.409549,0.184305,0.134578,0,1,4.025,-0.21,1.295,0.432368,0.531188,-0.819718,-0.04032,-0.08946,0.51674
13.8766,0,0,5,5,23.8766,23.8766,-19.8237,3.87616,18.9056,0.403079,0.181231,0.133032,0,1,4.025,-0.21,1.295,0.432368,0.531188,-0.819718,-0.04032,-0.08946,0.51674
13.9335,0,0,5,5,23.9335,23.9335,-19.9049,3.85431,18.9014,-0.0194318,0.0853656,0.0173729,0,1,4.48,-1.5925,0.035,0.007686,0.43676,-0.934032,-0.04032,-0.08946,0.51674
13.9894,0,0,5,5,23.9894,23.9894,-19.9848,3.83281,18.8974,-0.0190575,0.0840495,0.016922,0,1,4.48,-1.5925,0.035,0.007686,0.43676,-0.934032,-0.04032,-0.08946,0.51674
13.9888,0,0,5,5,23.9888,23.9888,-19.984,3.83201,18.8966,-0.112466,-0.011318,0.130163,1,1,4.06,-0.2975,-0.84,-0.086132,0.341478,-0.82167,-0.04032,-0.08946,0.51674
13.9882,0,0,5,5,23.9882,23.9882,-19.9831,3.83122,18.8959,-0.112452,-0.0113045,0.130169,1,1,4.06,-0.2975,-0.84,-0.086132,0.341478,-0.82167,-0.04032,-0.08946,0.51674
13.9576,0,0,5,5,23.9576,23.9576,-19.9394,3.65083,18.8951,-0.19508,-0.0172533,-0.092529,0,1,4.165,-0.0175,-2.5375,-0.172264,0.33489,-1.0431,-0.04032,-0.08946,0.51674
13.9578,0,0,5,5,23.9578,23.9578,-19.9398,3.65122,18.8917,0.0354935,0.0280495,0.142177,1,1,3.465,0.8925,-2.0825,0.059292,0.380152,-0.810202,-0.04326,-0.09198,0.51492
13.9576,0,0,5,5,23.9576,23.9576,-19.9395,3.64958,18.8889,0.0355222,0.028054,0.142181,1,1,3.8325,-0.3675,-2.1,0.059292,0.380152,-0.810202,-0.04326,-0.09198,0.51492
13.9589,0,0,5,5,23.9589,23.9589,-19.9413,3.6493,18.8859,-0.507879,0.229899,0.0206969,1,1,2.6425,0.455,-2.0125,-0.486414,0.581818,-0.930738,-0.04326,-0.09198,0.51492
13.9589,0,0,5,5,23.9589,23.9589,-19.9413,3.64871,18.8834,0.384687,0.391228,-0.0497521,1,1,3.64,0.1575,-1.7325,0.40992,0.74298,-1.00064,-0.04326,-0.09198,0.51492
13.9589,0,0,5,5,23.9589,23.9589,-19.9412,3.64947,18.8829,0.384674,0.39123,-0.0497524,1,1,3.6225,0.525,-0.4375,0.40992,0.74298,-1.00064,-0.04326,-0.09198,0.51492
14.0715,0,0,5,5,24.0715,24.0715,-20.1021,3.72994,18.8714,0.0906133,0.182722,0.0196527,0,1,4.6375,0.5775,-0.6825,0.116022,0.537288,-0.930738,-0.04326,-0.09198,0.51492
14.1833,0,0,5,5,24.1833,24.1833,-20.2619,3.80774,18.8603,0.0892584,0.180142,0.0186091,0,1,3.7975,-0.21,-0.7525,0.116022,0.537288,-0.930738,-0.04326,-0.09198,0.51492
14.144,0,0,5,5,24.144,24.144,-20.2057,3.99607,18.8642,0.207465,-0.0471178,-0.0472857,0,1,3.9375,0.42,0,0.238022,0.30927,-0.996252,-0.04326,-0.09198,0.51492
14.1164,0,0,5,5,24.1164,24.1164,-20.1663,4.13855,19.0204,0.204984,-0.0464128,-0.0472145,0,0,2.625,-1.0675,-0.35,0.238022,0.30927,-0.996252,-0.03878,-0.09002,0.51282
14.118,0,0,5,5,24.118,24.118,-20.1686,4.13794,19.0196,-0.00286711,-0.0316736,0.186374,1,0,2.2925,-0.175,-0.8575,0.02928,0.324032,-0.764452,-0.03878,-0.09002,0.51282
14.1182,0,0,5,5,24.1182,24.1182,-20.1689,4.13724,19.0189,-0.00285502,-0.031679,0.186373,1,0,3.4125,-0.245,-0.805,0.02928,0.324032,-0.764452,-0.03878,-0.09002,0.51282
14.1175,0,0,5,5,24.1175,24.1175,-20.1679,4.13774,19.0187,0.0767094,-0.171009,0.138429,1,0,4.13,0.315,-0.2975,0.10919,0.18483,-0.812032,-0.03878,-0.09002,0.51282
14.1173,0,0,5,5,24.1173,24.1173,-20.1675,4.13676,19.0177,0.0767264,-0.171004,0.138432,1,0,3.7975,-0.3325,-1.05,0.10919,0.18483,-0.812032,-0.03878,-0.09002,0.51282
14.1177,0,0,5,5,24.1177,24.1177,-20.1681,4.13668,19.0177,-0.0528973,-0.0757538,0.229288,1,0,3.255,-0.0525,-0.2975,-0.020984,0.27999,-0.721874,-0.03878,-0.09002,0.51282
14.1166,0,0,5,5,24.1166,24.1166,-20.1666,4.13842,19.0181,-0.0529277,-0.0757288,0.229295,1,0,4.375,0.8575,0.3325,-0.020984,0.27999,-0.721874,-0.03878,-0.09002,0.51282
14.4259,0,0,5,5,24.4259,24.4259,-20.6084,4.02654,19.4268,-0.0197582,0.429701,0.162444,0,0,2.9225,0,0.6475,0.01037,0.792146,-0.78568,-0.03878,-0.09002,0.51282
14.7308,0,0,5,5,24.7308,24.7308,-21.044,3.91639,19.8413,-0.0178402,0.422565,0.159871,0,0,2.835,-0.35,0.56,0.01037,0.792146,-0.78568,-0.03878,-0.09002,0.51282
14.73,0,0,5,5,24.73,24.73,-21.0429,3.91797,19.8436,0.0787134,0.509294,0.132213,1,1,4.1125,0.385,1.2775,0.10736,0.878766,-0.81313,-0.0371,-0.09268,0.51772
14.8175,0,0,5,5,24.8175,24.8175,-21.1679,4.06306,19.8387,0.123931,0.0643729,0.159912,0,1,4.655,0.35,2.2925,0.155306,0.436272,-0.784704,-0.0371,-0.09268,0.51772
14.9041,0,0,5,5,24.9041,24.9041,-21.2916,4.20444,19.8334,0.12147,0.0624299,0.158967,0,1,4.2525,-0.35,1.96,0.155306,0.436272,-0.784704,-0.0371,-0.09268,0.51772
14.9363,0,0,5,5,24.9363,24.9363,-21.3376,4.18961,19.8344,-0.0174945,0.035054,0.0429988,0,1,4.69,-0.63,2.2575,0.015494,0.409676,-0.899506,-0.0371,-0.09268,0.51772
14.9708,0,0,5,5,24.9708,24.9708,-21.3869,4.17509,19.8342,-0.0172418,0.034248,0.0427034,0,1,2.4325,-0.35,1.645,0.015494,0.409676,-0.899506,-0.0371,-0.09268,0.51772
14.984,0,0,5,5,24.984,24.984,-21.4057,4.13981,19.8359,-0.0355794,0.0042502,0.0316832,0,1,1.6625,-1.575,0.8925,-0.003538,0.38003,-0.910364,-0.0371,-0.09268,0.51772
14.9949,0,0,5,5,24.9949,24.9949,-21.4213,4.10762,19.8352,-0.035019,0.00398253,0.0316216,0,1,3.3775,0.315,0.0875,-0.003538,0.38003,-0.910364,-0.0371,-0.09268,0.51772
14.8426,0,0,5,5,24.8426,24.8426,-21.2037,4.3245,19.852,0.193244,-0.24348,0.066181,0,1,4.1475,-0.2275,0.1925,0.229482,0.129198,-0.87718,-0.0427,-0.09128,0.52192
14.8404,0,0,5,5,24.8404,24.8404,-21.2005,4.32249,19.8511,-0.267395,0.125515,-0.0792449,1,1,5.355,-0.91,-1.2075,-0.233142,0.49776,-1.02151,-0.0427,-0.09128,0.52192
14.84,0,0,5,5,24.84,24.84,-21.2001,4.32154,19.8494,-0.267379,0.125522,-0.0792407,1,1,3.9025,-0.1575,-1.4175,-0.233142,0.49776,-1.02151,-0.0427,-0.09128,0.52192
14.8156,0,0,5,5,24.8156,24.8156,-21.1651,4.33082,19.8501,0.00337299,-0.0568521,0.0573177,0,1,4.2175,0.35,-1.33,0.038918,0.315004,-0.886208,-0.0427,-0.09128,0.52192
14.7949,0,0,5,5,24.7949,24.7949,-21.1355,4.33905,19.8506,0.00322977,-0.0563684,0.0574932,0,1,1.5225,-0.1225,-1.5575,0.038918,0.315004,-0.886208,-0.0427,-0.09128,0.52192
14.8233,0,0,5,5,24.8233,24.8233,-21.1761,4.20305,19.8455,-0.135327,0.0158187,0.0602309,0,1,1.89,-0.5775,-1.96,-0.102602,0.387838,-0.883402,-0.0427,-0.09128,0.52192
14.849,0,0,5,5,24.849,24.849,-21.2129,4.0723,19.8406,-0.13305,0.015162,0.0601529,0,1,3.6225,1.0325,-1.2775,-0.102602,0.387838,-0.883402,-0.0427,-0.09128,0.52192
14.9084,0,0,5,5,24.9084,24.9084,-21.2978,4.10977,19.8329,0.0364987,0.0712017,0.0528117,0,1,3.4125,0.3325,-1.225,0.06832,0.445178,-0.890112,-0.0427,-0.09128,0.52192
14.966,0,0,5,5,24.966,24.966,-21.3801,4.14616,19.8255,0.0358651,0.0698843,0.0522479,0,1,4.06,0.0175,-1.12,0.06832,0.445178,-0.890112,-0.0378,-0.08876,0.51912
14.9651,0,0,5,5,24.9651,24.9651,-21.3787,4.14612,19.8245,0.00670919,0.0619685,-0.117658,1,1,4.375,0.1925,-0.84,0.03904,0.437248,-1.05872,-0.0378,-0.08876,0.51912
14.9668,0,0,5,5,24.9668,24.9668,-21.3812,4.14623,19.8239,0.00670733,0.0619281,-0.117674,1,1,2.1875,0.1925,-0.6125,0.03904,0.437248,-1.05872,-0.0378,-0.08876,0.51912
14.9332,0,0,5,5,24.9332,24.9332,-21.3332,4.02998,19.8262,-0.123324,-0.0332159,-0.0685474,0,1,1.645,0.4725,-0.9625,-0.093574,0.341478,-1.0104,-0.0378,-0.08876,0.51912
14.8988,0,0,5,5,24.8988,24.8988,-21.284,3.91442,19.8278,-0.121312,-0.0324694,-0.0681062,0,1,2.765,-0.105,-1.4875,-0.093574,0.341478,-1.0104,-0.0378,-0.08876,0.51912
14.8989,0,0,5,5,24.8989,24.8989,-21.2842,3.91471,19.8257,-0.293948,-0.433536,-0.356053,1,1,3.5525,0.6125,-1.3825,-0.266936,-0.05917,-1.29613,-0.0378,-0.08876,0.51912
14.8971,0,0,5,5,24.8971,24.8971,-21.2816,3.91353,19.8241,-0.293927,-0.433495,-0.356035,1,1,5.0575,-0.315,-1.3825,-0.266936,-0.05917,-1.29613,-0.0378,-0.08876,0.51912
14.8064,0,0,5,5,24.8064,24.8064,-21.152,3.44207,19.8303,-0.5248,-0.148737,-0.00924142,0,1,4.2175,-0.14,-1.645,-0.507032,0.223382,-0.953308,-0.0378,-0.08876,0.51912
14.7173,0,0,5,5,24.7173,24.7173,-21.0247,2.97841,19.8364,-0.51672,-0.14683,-0.00802036,0,1,4.025,0.175,-0.8225,-0.507032,0.223382,-0.953308,-0.0378,-0.08876,0.51912
14.6688,0,0,5,5,24.6688,24.6688,-20.9555,2.86406,19.8391,-0.122207,-0.0564645,-0.0633116,0,1,3.1675,0.525,-0.5775,-0.11285,0.312564,-1.0087,-0.04746,-0.09184,0.52164
14.6541,0,0,5,5,24.6541,24.6541,-20.9344,2.53425,19.8405,-0.371212,-0.0111534,-0.0471897,0,1,1.82,0.315,-0.0525,-0.368684,0.357582,-0.99308,-0.04746,-0.09184,0.52164
14.637,0,0,5,5,24.637,24.637,-20.91,2.21159,19.8419,-0.365586,-0.0108398,-0.0468201,0,1,3.85,1.33,0.525,-0.368684,0.357582,-0.99308,-0.04746,-0.09184,0.52164
14.5972,0,0,5,5,24.5972,24.5972,-20.8531,1.96723,19.8454,-0.269845,-0.0437965,-0.0554191,0,1,4.515,0.665,0.8575,-0.276818,0.323788,-1.00211,-0.04746,-0.09184,0.52164
14.5587,0,0,5,5,24.5587,24.5587,-20.7982,1.72653,19.8504,-0.265646,-0.0429495,-0.0549521,0,1,3.8675,0.1225,1.8375,-0.276818,0.323788,-1.00211,-0.04746,-0.09184,0.52164
14.5568,0,0,5,5,24.5568,24.5568,-20.7954,1.72811,19.8535,0.0339102,-0.149886,-0.15563,1,1,5.0925,0.21,1.75,0.024034,0.216916,-1.10203,-0.04746,-0.09184,0.52164
14.5574,0,0,5,5,24.5574,24.5574,-20.7963,1.72902,19.858,0.0338944,-0.149902,-0.155637,1,1,2.94,-0.4375,2.345,0.024034,0.216916,-1.10203,-0.04746,-0.09184,0.52164
14.5592,0,0,5,5,24.5592,24.5592,-20.7989,1.73013,19.8618,0.345,0.104935,-0.0630727,1,1,2.065,-0.175,1.995,0.336476,0.47153,-1.01016,-0.0427,-0.09198,0.52052
14.5591,0,0,5,5,24.5591,24.5591,-20.7988,1.72991,19.8646,-0.00123058,0.19812,-0.0386052,1,1,3.57,-0.7175,1.225,-0.011224,0.564616,-0.985882,-0.0427,-0.09198,0.52052
14.5578,0,0,5,5,24.5578,24.5578,-20.7968,1.73124,19.8659,-0.0012538,0.198152,-0.0385935,1,1,4.655,0.455,0.7,-0.011224,0.564616,-0.985882,-0.0427,-0.09198,0.52052
14.7118,0,0,5,5,24.7118,24.7118,-21.0168,2.07375,19.8594,0.346659,0.172411,0.193945,0,1,6.44,-0.28,0.175,0.344162,0.542412,-0.753594,-0.0427,-0.09198,0.52052
14.8651,0,0,5,5,24.8651,24.8651,-21.2359,2.41074,19.8509,0.340782,0.16893,0.192354,0,1,5.1975,-0.315,-0.2625,0.344162,0.542412,-0.753594,-0.0427,-0.09198,0.52052
14.6875,0,0,5,5,24.6875,24.6875,-20.9821,2.77993,19.8624,0.418049,-0.285668,-0.0538203,0,1,4.3925,-0.56,-0.49,0.42822,0.084058,-0.99918,-0.0427,-0.09198,0.52052
14.5143,0,0,5,5,24.5143,24.5143,-20.7347,3.14376,19.8746,0.411707,-0.281521,-0.0525916,0,1,2.8525,-0.35,-0.805,0.42822,0.084058,-0.99918,-0.0427,-0.09198,0.52052
14.5164,0,0,5,5,24.5164,24.5164,-20.7377,3.13674,19.8759,-0.268733,0.413818,0.0428044,1,1,1.855,-4.13,-0.9975,-0.255224,0.778726,-0.904508,-0.0427,-0.09198,0.52052
14.5185,0,0,5,5,24.5185,24.5185,-20.7407,3.12972,19.8773,-0.268611,0.413767,0.0427923,1,1,1.855,-4.13,-0.9975,-0.255224,0.778726,-0.904508,-0.04634,-0.08904,0.52234
14.5529,0,0,5,5,24.5529,24.5529,-20.7899,3.36407,19.8725,0.220052,0.00612107,0.120221,0,1,4.1475,0.595,-1.295,0.239608,0.372222,-0.82716,-0.04634,-0.08904,0.52234
14.5868,0,0,5,5,24.5868,24.5868,-20.8383,3.59463,19.8675,0.216035,0.00541908,0.119693,0,1,4.1475,0.595,-1.295,0.239608,0.372222,-0.82716,-0.04634,-0.08904,0.52234
14.5853,0,0,5,5,24.5853,24.5853,-20.8362,3.59416,19.8666,-0.323718,-0.172973,0.250155,1,1,4.795,-0.0875,-0.84,-0.302438,0.19398,-0.697718,-0.04634,-0.08904,0.52234
14.5852,0,0,5,5,24.5852,24.5852,-20.836,3.5933,19.8658,0.110609,0.300148,0.0474151,1,1,3.6925,-0.2975,-0.9275,0.133712,0.666608,-0.898896,-0.04634,-0.08904,0.52234
14.5883,0,0,5,5,24.5883,24.5883,-20.8404,3.59299,19.8641,0.110614,0.300077,0.0473882,1,1,1.155,0.175,-1.26,0.133712,0.666608,-0.898896,-0.04634,-0.08904,0.52234
14.4837,0,0,5,5,24.4837,24.4837,-20.691,3.831,19.8721,0.22431,-0.181262,0.0571573,0,1,1.33,0.5775,-1.2425,0.252052,0.183244,-0.889868,-0.04634,-0.08904,0.52234
14.3781,0,0,5,5,24.3781,24.3781,-20.5401,4.06375,19.8801,0.220257,-0.178704,0.0578206,0,1,3.5,-0.105,-1.8375,0.252052,0.183244,-0.889868,-0.04634,-0.08904,0.52234
14.2487,0,0,5,5,24.2487,24.2487,-20.3553,3.88299,19.89,-0.198151,-0.174301,-0.112856,0,1,4.725,0.49,-1.8375,-0.171288,0.184708,-1.06055,-0.05026,-0.09324,0.52626
14.3494,0,0,5,5,24.3494,24.3494,-20.4992,3.54963,19.8782,-0.352827,0.13098,0.0915787,0,1,5.5825,-0.2275,-1.75,-0.33245,0.492148,-0.857172,-0.05026,-0.09324,0.52626
14.4498,0,0,5,5,24.4498,24.4498,-20.6426,3.22211,19.8683,-0.347121,0.128521,0.0910166,0,1,4.445,0,-1.1375,-0.33245,0.492148,-0.857172,-0.05026,-0.09324,0.52626
14.4505,0,0,5,5,24.4505,24.4505,-20.6435,3.22081,19.8666,-0.157702,0.198362,-0.0464443,1,1,3.0975,-0.3675,-1.47,-0.142252,0.561932,-0.993568,-0.05026,-0.09324,0.52626
14.4536,0,0,5,5,24.4536,24.4536,-20.6479,3.22128,19.8654,-0.157711,0.198291,-0.0464719,1,1,1.12,0.49,-0.805,-0.142252,0.561932,-0.993568,-0.05026,-0.09324,0.52626
14.299,0,0,5,5,24.299,24.299,-20.4271,3.42196,19.8778,0.185149,-0.247584,0.042965,0,1,1.47,1.1025,-0.245,0.20557,0.11285,-0.905972,-0.05026,-0.09324,0.52626
14.1438,0,0,5,5,24.1438,24.1438,-20.2054,3.6197,19.8912,0.181704,-0.243888,0.0441071,0,1,3.85,1.19,0.0175,0.20557,0.11285,-0.905972,-0.05026,-0.09324,0.52626
14.1434,0,0,5,5,24.1434,24.1434,-20.2049,3.6211,19.8917,-0.202215,0.178435,-0.0342095,1,1,3.8325,0.665,0.2625,-0.17995,0.534726,-0.983686,-0.05026,-0.09324,0.52626
14.14,0,0,5,5,24.14,24.14,-20.2,3.62232,19.8942,-0.202237,0.178516,-0.0341809,1,1,6.2475,0.1575,1.3475,-0.17995,0.534726,-0.983686,-0.04032,-0.08974,0.52486
14.1374,0,0,5,5,24.1374,24.1374,-20.1963,3.62294,19.8974,-0.0547638,0.19543,-0.170263,1,1,5.5125,-0.315,1.61,-0.031842,0.551562,-1.11874,-0.04032,-0.08974,0.52486
14.1388,0,0,5,5,24.1388,24.1388,-20.1983,3.62358,19.9007,-0.0547748,0.195397,-0.170276,1,1,2.31,-0.315,1.6275,-0.031842,0.551562,-1.11874,-0.04032,-0.08974,0.52486
14.1285,0,0,5,5,24.1285,24.1285,-20.1836,3.95779,19.9044,0.367763,-0.0271111,0.0185447,0,1,2.0475,0.245,1.4,0.39833,0.328912,-0.931104,-0.04032,-0.08974,0.52486
14.1188,0,0,5,5,24.1188,24.1188,-20.1697,4.28787,19.9085,0.362017,-0.0267403,0.0182397,0,1,1.75,0.77,1.8025,0.39833,0.328912,-0.931104,-0.04032,-0.08974,0.52486
14.1186,0,0,5,5,24.1186,24.1186,-20.1694,4.28841,19.9098,-0.398979,-0.11137,-0.119216,1,1,3.64,0.035,0.525,-0.365878,0.244366,-1.0675,-0.04032,-0.08974,0.52486
14.1162,0,0,5,5,24.1162,24.1162,-20.166,4.28858,19.9111,-0.398981,-0.111314,-0.119196,1,1,5.425,-0.175,0.455,-0.365878,0.244366,-1.0675,-0.04032,-0.08974,0.52486
14.1125,0,0,5,5,24.1125,24.1125,-20.1607,4.28871,19.9128,-0.393031,-0.189999,-0.219367,1,1,6.4575,-0.28,0.7,-0.3599,0.165676,-1.16693,-0.04032,-0.08974,0.52486
14.1088,0,0,5,5,24.1088,24.1088,-20.1554,4.28885,19.9146,-0.393033,-0.189912,-0.219335,1,1,6.4575,-0.28,0.7,-0.3599,0.165676,-1.16693,-0.04578,-0.0875,0.525
14.0957,0,0,5,5,24.0957,24.0957,-20.1367,4.19817,19.916,-0.094301,0.00856516,-0.0848533,0,1,3.4825,-0.8925,-0.6125,-0.061488,0.363682,-1.03371,-0.04578,-0.0875,0.525
14.0828,0,0,5,5,24.0828,24.0828,-20.1182,4.10898,19.9173,-0.0927484,0.00882759,-0.084637,0,1,3.4825,-0.8925,-0.6125,-0.061488,0.363682,-1.03371,-0.04578,-0.0875,0.525
14.0852,0,0,5,5,24.0852,24.0852,-20.1217,4.10924,19.9169,-0.0395422,-0.3559,0.0824288,1,1,1.6275,0.2275,-0.4725,-0.008052,-0.00061,-0.867908,-0.04578,-0.0875,0.525
14.0876,0,0,5,5,24.0876,24.0876,-20.1252,4.1095,19.9164,-0.0395467,-0.355956,0.0824077,1,1,1.6275,0.2275,-0.4725,-0.008052,-0.00061,-0.867908,-0.04578,-0.0875,0.525
13.9274,0,0,5,5,23.9274,23.9274,-19.8963,4.28235,19.9324,0.175633,-0.242834,-0.0224179,0,1,4.2175,0.0175,-0.7175,0.21106,0.10858,-0.973072,-0.04578,-0.0875,0.525
13.9232,0,0,5,5,23.9232,23.9232,-19.8903,4.28133,19.9321,-0.125148,-0.0556374,-0.301228,1,1,6.9475,-0.5075,-0.6475,-0.091012,0.295484,-1.24977,-0.04578,-0.0875,0.525
13.9216,0,0,5,5,23.9216,23.9216,-19.888,4.28066,19.9318,-0.125136,-0.0555995,-0.301214,1,1,4.8825,-0.315,-0.5775,-0.091012,0.295484,-1.24977,-0.04578,-0.0875,0.525
13.85,0,0,5,5,23.85,23.85,-19.7857,3.93469,19.9377,-0.372533,-0.112204,-0.0174209,0,1,2.555,-0.1575,-1.295,-0.345504,0.237412,-0.969168,-0.03934,-0.09226,0.5208
13.8531,0,0,5,5,23.8531,23.8531,-19.7902,3.93649,19.9361,0.549877,0.247997,0.128859,1,1,1.1025,1.3125,-0.8225,0.580842,0.597312,-0.823988,-0.03934,-0.09226,0.5208
13.8552,0,0,5,5,23.8552,23.8552,-19.7931,3.93484,19.9341,0.549906,0.247948,0.128844,1,1,1.9775,-0.525,-1.6975,0.580842,0.597312,-0.823988,-0.03934,-0.09226,0.5208
13.9932,0,0,5,5,23.9932,23.9932,-19.9903,3.78461,19.9181,-0.155497,0.178711,0.10276,0,1,3.9375,-0.4725,-2.135,-0.130174,0.531432,-0.848876,-0.03934,-0.09226,0.5208
14.1276,0,0,5,5,24.1276,24.1276,-20.1823,3.63759,19.9032,-0.152936,0.175512,0.101767,0,1,4.9525,-0.0875,-1.75,-0.130174,0.531432,-0.848876,-0.03934,-0.09226,0.5208
14.0511,0,0,5,5,24.0511,24.0511,-20.073,3.73293,19.9084,0.102345,-0.107585,-0.0303395,0,1,5.4075,-0.8575,-1.61,0.127856,0.246806,-0.980514,-0.03934,-0.09226,0.5208
13.9773,0,0,5,5,23.9773,23.9773,-19.9675,3.82795,19.9127,0.10069,-0.105821,-0.0298132,0,1,4.2875,0.0175,-1.8725,0.127856,0.246806,-0.980514,-0.03934,-0.09226,0.5208
13.9793,0,0,5,5,23.9793,23.9793,-19.9705,3.82783,19.9099,0.0732368,0.289577,-0.0842968,1,1,2.0125,0.4725,-1.8025,0.100284,0.641842,-1.03456,-0.03934,-0.09226,0.5208
13.9828,0,0,5,5,23.9828,23.9828,-19.9755,3.82967,19.9087,0.0732049,0.289496,-0.0843285,1,1,0.805,1.26,-0.6125,0.100284,0.641842,-1.03456,-0.0427,-0.09156,0.51898
13.9823,0,0,5,5,23.9823,23.9823,-19.9748,3.83074,19.9074,0.291374,0.206096,-0.000597514,1,1,4.0075,0.84,-0.7525,0.319396,0.558516,-0.951478,-0.0427,-0.09156,0.51898
13.9822,0,0,5,5,23.9822,23.9822,-19.9746,3.83132,19.9078,0.291364,0.206099,-0.000596974,1,1,3.6575,0.245,0.0175,0.319396,0.558516,-0.951478,-0.0427,-0.09156,0.51898
13.9784,0,0,5,5,23.9784,23.9784,-19.9692,3.83277,19.9088,0.376136,-0.20025,0.197503,1,1,6.5275,0.5775,0.595,0.404552,0.1525,-0.754936,-0.0427,-0.09156,0.51898
13.9741,0,0,5,5,23.9741,23.9741,-19.9629,3.83256,19.9111,0.37614,-0.200148,0.197541,1,1,6.9825,-0.5775,0.9275,0.404552,0.1525,-0.754936,-0.0427,-0.09156,0.51898
13.7919,0,0,5,5,23.7919,23.7919,-19.7027,3.67467,19.9303,-0.169861,-0.270321,-0.065091,0,1,2.5375,-0.105,0.91,-0.146522,0.078202,-1.01724,-0.0427,-0.09156,0.51898
13.6117,0,0,5,5,23.6117,23.6117,-19.4452,3.51984,19.9487,-0.167164,-0.266152,-0.0634289,0,1,3.3075,0.21,1.19,-0.146522,0.078202,-1.01724,-0.0427,-0.09156,0.51898
13.6071,0,0,5,5,23.6071,23.6071,-19.4387,3.83856,19.9521,0.340197,-0.0231372,0.0375823,0,1,2.345,1.1375,1.89,0.368562,0.320738,-0.916708,-0.0427,-0.09156,0.51898
13.6026,0,0,5,5,23.6026,23.6026,-19.4323,4.14865,19.9556,0.334798,-0.022907,0.0372638,0,1,2.275,-0.875,1.19,0.368562,0.320738,-0.916708,-0.0427,-0.09156,0.51898
13.6525,0,0,5,5,23.6525,23.6525,-19.5035,4.35203,19.9525,0.204792,0.0494096,0.0840606,0,1,4.5325,-1.015,0.84,0.24156,0.39406,-0.869616,-0.042,-0.09072,0.51506
13.6994,0,0,5,5,23.6994,23.6994,-19.5705,4.55284,19.9493,0.201297,0.0484022,0.0834144,0,1,6.3,-0.595,0.9275,0.24156,0.39406,-0.869616,-0.042,-0.09072,0.51506
13.6968,0,0,5,5,23.6968,23.6968,-19.5669,4.55162,19.952,-0.0352141,0.0524914,0.284212,1,1,5.4775,-1.2075,0.9625,0.004026,0.398086,-0.67039,-0.042,-0.09072,0.51506
13.6971,0,0,5,5,23.6971,23.6971,-19.5673,4.5508,19.952,-0.0351998,0.0524836,0.28421,1,1,3.3075,-0.455,-0.455,0.004026,0.398086,-0.67039,-0.042,-0.09072,0.51506
13.6999,0,0,5,5,23.6999,23.6999,-19.5713,4.5516,19.9518,-0.464423,0.524561,0.0741903,1,1,1.3475,0.4725,-0.2275,-0.427,0.869738,-0.878766,-0.042,-0.09072,0.51506
13.7007,0,0,5,5,23.7007,23.7007,-19.5724,4.55341,19.9517,-0.464454,0.524543,0.0741813,1,1,2.9225,1.015,0.0175,-0.427,0.869738,-0.878766,-0.042,-0.09072,0.51506
13.7493,0,0,5,5,23.7493,23.7493,-19.6419,4.67463,19.946,0.139894,0.0889351,-0.018227,0,1,3.6575,0.0175,-0.3325,0.182024,0.435662,-0.9699,-0.042,-0.09072,0.51506
13.7963,0,0,5,5,23.7963,23.7963,-19.709,4.79357,19.9407,0.137825,0.0878936,-0.0187814,0,1,4.3225,-0.245,-0.1225,0.182024,0.435662,-0.9699,-0.042,-0.09072,0.51506
13.7927,0,0,5,5,23.7927,23.7927,-19.7039,4.79051,19.9342,0.0427548,-0.0568664,0.104939,1,1,6.7375,-0.4025,-4.48,0.086498,0.29097,-0.847168,-0.04382,-0.0889,0.51884
13.9306,0,0,5,5,23.9306,23.9306,-19.9008,4.83183,19.918,0.0546706,0.23328,0.0131089,0,1,2.9925,-0.7525,-0.4025,0.099186,0.584014,-0.937082,-0.04382,-0.0889,0.51884
14.0675,0,0,5,5,24.0675,24.0675,-20.0965,4.87339,19.9001,0.0539479,0.230103,0.0118874,0,1,1.995,0.1225,-1.1725,0.099186,0.584014,-0.937082,-0.04382,-0.0889,0.51884
14.0678,0,0,5,5,24.0678,24.0678,-20.0969,4.87313,19.899,0.288541,0.368711,0.0673352,1,1,3.395,0.0875,-0.9625,0.334768,0.722484,-0.88206,-0.04382,-0.0889,0.51884
14.0701,0,0,5,5,24.0701,24.0701,-20.1002,4.87365,19.8976,0.288532,0.368656,0.0673145,1,1,1.75,0.56,-0.945,0.334768,0.722484,-0.88206,-0.04382,-0.0889,0.51884
14.0177,0,0,5,5,24.0177,24.0177,-20.0253,4.9968,19.9028,0.112909,-0.101466,0.0691858,0,1,3.7975,-1.12,-1.4175,0.160552,0.251564,-0.880474,-0.04382,-0.0889,0.51884
13.9652,0,0,5,5,23.9652,23.9652,-19.9503,5.12043,19.907,0.11076,-0.100176,0.0694528,0,1,4.6025,0.49,-1.5575,0.160552,0.251564,-0.880474,-0.04382,-0.0889,0.51884
13.8102,0,0,5,5,23.8102,23.8102,-19.7289,5.4508,19.9254,0.377511,-0.248057,-0.0494925,0,1,5.3725,0.6825,-1.085,0.434198,0.10004,-0.999302,-0.04382,-0.0889,0.51884
13.6635,0,0,5,5,23.6635,23.6635,-19.5193,5.77424,19.9442,0.371893,-0.244442,-0.0487898,0,1,0.5075,-0.245,-1.7675,0.434198,0.10004,-0.999302,-0.04606,-0.08708,0.5187
13.6084,0,0,5,5,23.6084,23.6084,-19.4405,5.54038,19.9491,-0.244594,-0.0885522,0.00220859,0,1,2.415,0.91,-1.8375,-0.188978,0.254614,-0.949526,-0.04606,-0.08708,0.5187
13.5545,0,0,5,5,23.5545,23.5545,-19.3635,5.31015,19.9544,-0.240594,-0.0874171,0.00301115,0,1,2.1,0.7,-1.4,-0.188978,0.254614,-0.949526,-0.04606,-0.08708,0.5187
13.6206,0,0,5,5,23.6206,23.6206,-19.458,5.16125,19.9445,-0.155031,0.0619045,0.0901057,0,1,1.365,1.575,-0.805,-0.105652,0.405406,-0.862784,-0.04606,-0.08708,0.5187
13.6822,0,0,5,5,23.6822,23.6822,-19.546,5.01165,19.9356,-0.152431,0.0603857,0.0898133,0,1,4.0775,-0.28,-0.98,-0.105652,0.405406,-0.862784,-0.04606,-0.08708,0.5187
13.7956,0,0,5,5,23.7956,23.7956,-19.708,5.07314,19.9213,0.0499887,0.114552,0.144842,0,1,3.9025,0.56,-0.105,0.098698,0.462136,-0.807152,-0.04606,-0.08708,0.5187
13.9047,0,0,5,5,23.9047,23.9047,-19.8639,5.1317,19.9087,0.0489708,0.112033,0.14384,0,1,5.845,-0.8225,0.455,0.098698,0.462136,-0.807152,-0.04606,-0.08708,0.5187
14.0346,0,0,5,5,24.0346,24.0346,-20.0494,5.18572,19.8937,0.0641893,0.208687,0.0331124,0,1,3.71,-0.245,0.6825,0.114924,0.561688,-0.915854,-0.04606,-0.08708,0.5187
14.1628,0,0,5,5,24.1628,24.1628,-20.2326,5.23915,19.8783,0.0632606,0.205727,0.0319367,0,1,3.3775,0.035,0.4725,0.114924,0.561688,-0.915854,-0.03668,-0.0924,0.52052
14.1621,0,0,5,5,24.1621,24.1621,-20.2316,5.23928,19.8802,0.676154,0.416778,0.161776,1,1,4.0075,-0.315,0.77,0.730414,0.772504,-0.787022,-0.03668,-0.0924,0.52052
14.1641,0,0,5,5,24.1641,24.1641,-20.2345,5.24129,19.8822,0.676119,0.416732,0.161756,1,1,1.8375,0.6825,1.26,0.730414,0.772504,-0.787022,-0.03668,-0.0924,0.52052
14.163,0,0,5,5,24.163,24.163,-20.2329,5.24078,19.8853,0.285308,-0.140628,0.170495,1,1,4.305,-0.8925,1.26,0.33794,0.215696,-0.77836,-0.03668,-0.0924,0.52052
14.1613,0,0,5,5,24.1613,24.1613,-20.2305,5.24159,19.8872,0.285294,-0.140589,0.170508,1,1,4.795,0.0525,0.9275,0.33794,0.215696,-0.77836,-0.03668,-0.0924,0.52052
14.3507,0,0,5,5,24.3507,24.3507,-20.5011,4.96884,19.8651,-0.291881,0.241507,0.166195,0,1,5.7575,0.07,1.19,-0.24644,0.601948,-0.78141,-0.03668,-0.0924,0.52052
14.5398,0,0,5,5,24.5398,24.5398,-20.7712,4.69864,19.8441,-0.287182,0.23697,0.164911,0,1,3.6225,-0.63,0.63,-0.24644,0.601948,-0.78141,-0.03668,-0.0924,0.52052
