pid_x,pid_y,pid_z,front_left_speed,front_right_speed,back_left_speed,back_right_speed,orientation_x,orientation_y,orientation_z,acceleration_x,acceleration_y,acceleration_z,accel_rejected,mag_rejected,gyro_x,gyro_y,gyro_z,accel_x,accel_y,accel_z,mag_x,mag_y,mag_z
0.300147,0,0,9.69985,9.69985,10.3001,10.3001,-0.461764,-0.101297,0.328577,0.0597605,0.391839,0.0930999,0,0,3.6225,0.105,-0.2625,0.017934,0.411628,-0.920246,-0.05208,-0.12124,0.4991
0.596263,0,0,9.40374,9.40374,10.5963,10.5963,-0.917328,-0.196833,0.658893,0.0636147,0.385842,0.0917704,0,0,3.4825,0.07,-0.245,0.02013,0.41358,-0.921466,-0.05208,-0.12124,0.4991
0.886742,0,0,9.11326,9.11326,10.8867,10.8867,-1.36422,-0.285812,0.99119,0.0672329,0.377556,0.0900102,0,0,3.3775,0.0875,-0.315,0.022204,0.413092,-0.923052,-0.05208,-0.12124,0.4991
1.17228,0,0,8.82772,8.82772,11.1723,11.1723,-1.8035,-0.37131,1.32751,0.0687251,0.369892,0.0897897,0,0,3.465,0,-0.315,0.022204,0.413092,-0.923052,-0.05208,-0.12124,0.4991
1.45173,0,0,8.54827,8.54827,11.4517,11.4517,-2.23343,-0.456999,1.67206,0.0663331,0.360684,0.088777,0,0,3.4825,-0.0175,-0.385,0.0183,0.411384,-0.923784,-0.05208,-0.12124,0.4991
1.72688,0,0,8.27312,8.27312,11.7269,11.7269,-2.65674,-0.53795,2.01949,0.0684748,0.352815,0.0905396,0,0,3.3425,0.175,-0.3675,0.019032,0.410896,-0.92171,-0.05208,-0.12124,0.4991
1.99708,0,0,8.00292,8.00292,11.9971,11.9971,-3.07243,-0.615676,2.37121,0.0698313,0.34557,0.0901634,0,0,3.605,-0.0525,-0.385,0.019032,0.410896,-0.92171,-0.05572,-0.12152,0.4991
2.26386,0,0,7.73614,7.73614,12.2639,12.2639,-3.48286,-0.685187,2.72151,0.0754179,0.337809,0.0947811,0,0,3.43,-0.035,-0.28,0.023424,0.410286,-0.916708,-0.05572,-0.12152,0.4991
2.5258,0,0,7.4742,7.4742,12.5258,12.5258,-3.88585,-0.756584,3.08078,0.0726549,0.335921,0.0814039,0,0,3.4475,0.0175,-0.2275,0.019398,0.41541,-0.929518,-0.05572,-0.12152,0.4991
2.78321,0,0,7.21679,7.21679,12.7832,12.7832,-4.28187,-0.824793,3.44384,0.0738452,0.329028,0.0808953,0,0,3.535,-0.07,-0.105,0.019398,0.41541,-0.929518,-0.05572,-0.12152,0.4991
3.03591,0,0,6.96409,6.96409,13.0359,13.0359,-4.67064,-0.88604,3.8068,0.0775868,0.319091,0.0869891,0,0,3.605,0.0175,-0.21,0.022082,0.412238,-0.92293,-0.05572,-0.12152,0.4991
3.28338,0,0,6.71662,6.71662,13.2834,13.2834,-5.05136,-0.945691,4.17524,0.0768055,0.311983,0.0849341,0,0,3.7625,0.0875,-0.1925,0.020252,0.41175,-0.924394,-0.05572,-0.12152,0.4991
3.52673,0,0,6.47327,6.47327,13.5267,13.5267,-5.42573,-1.00234,4.54686,0.0777939,0.305479,0.0843209,0,0,3.6925,0.0525,-0.2975,0.020252,0.41175,-0.924394,-0.05572,-0.12152,0.4991
3.76366,0,0,6.23634,6.23634,13.7637,13.7637,-5.79025,-1.05836,4.92951,0.0776783,0.297074,0.0798704,0,0,3.535,-0.07,-0.28,0.019154,0.409676,-0.928176,-0.05208,-0.1267,0.50008
4.0018,0,0,5.9982,5.9982,14.0018,14.0018,-6.15662,-1.11119,5.31182,0.0811513,0.294503,0.0891466,0,0,3.675,0.035,-0.35,0.021716,0.413458,-0.918294,-0.05208,-0.1267,0.50008
4.23329,0,0,5.76671,5.76671,14.2333,14.2333,-6.51275,-1.15747,5.69549,0.0840242,0.286741,0.0837729,0,0,3.745,0.1225,-0.315,0.02379,0.411872,-0.92293,-0.05208,-0.1267,0.50008
4.46074,0,0,5.53926,5.53926,14.4607,14.4607,-6.86267,-1.20107,6.08249,0.084785,0.280678,0.0830463,0,0,3.815,0.035,-0.245,0.02379,0.411872,-0.92293,-0.05208,-0.1267,0.50008
4.68761,0,0,5.31239,5.31239,14.6876,14.6876,-7.2117,-1.25639,6.47848,0.0805263,0.275125,0.0916237,0,0,3.6925,-4.48,-0.2975,0.018544,0.41236,-0.913658,-0.05208,-0.1267,0.50008
4.90833,0,0,5.09167,5.09167,14.9083,14.9083,-7.55128,-1.29715,6.87397,0.0843962,0.269984,0.0815026,0,0,3.57,-0.07,-0.245,0.021716,0.413092,-0.92293,-0.05208,-0.1267,0.50008
5.12539,0,0,5,5,15.1254,15.1254,-7.88521,-1.33542,7.27259,0.085064,0.264212,0.0807049,0,0,3.465,-0.1925,-0.2275,0.021716,0.413092,-0.92293,-0.05208,-0.1267,0.50008
5.33814,0,0,5,5,15.3381,15.3381,-8.21252,-1.37215,7.6754,0.0846115,0.258926,0.0778001,0,0,3.5875,-0.2275,-0.245,0.020618,0.413458,-0.925004,-0.05208,-0.1267,0.50008
5.54715,0,0,5,5,15.5471,15.5471,-8.53408,-1.40644,8.08283,0.0852098,0.253377,0.0769688,0,0,3.64,-0.175,-0.3325,0.020618,0.413458,-0.925004,-0.05572,-0.12796,0.49882
5.75256,0,0,5,5,15.7526,15.7526,-8.8501,-1.44035,8.49554,0.0837362,0.248173,0.0750144,0,0,3.465,-0.245,-0.2275,0.018544,0.413702,-0.926102,-0.05572,-0.12796,0.49882
5.95313,0,0,5,5,15.9531,15.9531,-9.15866,-1.47046,8.9106,0.0842615,0.240171,0.0767406,0,0,3.6225,0.0175,-0.28,0.018544,0.411018,-0.92354,-0.05572,-0.12796,0.49882
6.15184,0,0,5,5,16.1518,16.1518,-9.46437,-1.50002,9.32947,0.0835625,0.234055,0.0831183,0,0,3.605,-0.07,-0.2625,0.017324,0.410164,-0.916342,-0.05572,-0.12796,0.49882
6.34712,0,0,5,5,16.3471,16.3471,-9.7648,-1.52739,9.75117,0.08404,0.228889,0.0822304,0,0,3.5875,-0.21,-0.2625,0.017324,0.410164,-0.916342,-0.05572,-0.12796,0.49882
6.5382,0,0,5,5,16.5382,16.5382,-10.0588,-1.54524,10.1682,0.0912761,0.224082,0.0783885,0,0,3.5875,-0.2625,-0.315,0.024278,0.410408,-0.91927,-0.05572,-0.12796,0.49882
6.72597,0,0,5,5,16.726,16.726,-10.3476,-1.56091,10.5879,0.0915494,0.219123,0.0774885,0,0,3.5875,-0.2625,-0.315,0.024278,0.410408,-0.91927,-0.05572,-0.12796,0.49882
6.91073,0,0,5,5,16.9107,16.9107,-10.6319,-1.57557,11.007,0.0898615,0.217057,0.0717837,0,0,3.5525,-0.1225,-0.245,0.022326,0.413214,-0.924028,-0.05418,-0.12362,0.49924
7.09084,0,0,5,5,17.0908,17.0908,-10.909,-1.59422,11.4358,0.0835051,0.213042,0.06497,0,0,3.57,-0.07,-0.245,0.015616,0.413946,-0.929884,-0.05418,-0.12362,0.49924
7.26693,0,0,5,5,17.2669,17.2669,-11.1799,-1.60904,11.8654,0.0852215,0.207306,0.0643033,0,0,3.675,-0.1575,-0.2275,0.01708,0.412848,-0.92964,-0.05418,-0.12362,0.49924
7.44131,0,0,5,5,17.4413,17.4413,-11.4482,-1.6244,12.2993,0.0836671,0.203695,0.0653448,0,0,3.5525,-0.21,-0.385,0.01525,0.413824,-0.927688,-0.05418,-0.12362,0.49924
7.61252,0,0,5,5,17.6125,17.6125,-11.7116,-1.63728,12.7358,0.0838919,0.199194,0.0644161,0,0,3.6225,0.035,-0.28,0.01525,0.413824,-0.927688,-0.05418,-0.12362,0.49924
7.78156,0,0,5,5,17.7816,17.7816,-11.9716,-1.64069,13.1659,0.0922124,0.194021,0.0677866,0,0,3.64,-0.0875,-0.3325,0.023546,0.413092,-0.923418,-0.05418,-0.12362,0.49924
7.94779,0,0,5,5,17.9478,17.9478,-12.2274,-1.6424,13.5984,0.0922423,0.189659,0.0668506,0,0,3.465,-0.14,-0.3325,0.023546,0.413092,-0.923418,-0.05418,-0.12362,0.49924
8.10024,0,0,5,5,18.1002,18.1002,-12.4619,-1.66321,14.0582,0.0642992,0.171253,0.067195,0,0,3.57,0.0175,-0.525,-0.00488,0.398696,-0.922198,-0.05516,-0.1225,0.49784
8.30786,0,0,5,5,18.3079,18.3079,-12.7813,-1.60832,14.4183,0.178024,0.245314,0.0690777,0,0,3.78,0.0175,-0.42,0.110288,0.478118,-0.919148,-0.05516,-0.1225,0.49784
8.51181,0,0,5,5,18.5118,18.5118,-13.0951,-1.55243,14.7808,0.177049,0.239972,0.0678783,0,0,3.78,0.0175,-0.42,0.110288,0.478118,-0.919148,-0.05516,-0.1225,0.49784
8.72452,0,0,5,5,18.7245,18.7245,-13.4223,-1.66378,15.3227,0.0056315,0.234672,0.108195,0,0,3.745,-0.21,-0.4725,-0.063806,0.478362,-0.87779,-0.05516,-0.1225,0.49784
8.93359,0,0,5,5,18.9336,18.9336,-13.744,-1.77114,15.8686,0.0075045,0.229231,0.106823,0,0,3.745,-0.21,-0.4725,-0.063806,0.478362,-0.87779,-0.05516,-0.1225,0.49784
9.13655,0,0,5,5,19.1365,19.1365,-14.0562,-1.70098,16.23,0.185958,0.211722,0.111821,0,0,3.5875,-0.1575,-0.4025,0.116632,0.466162,-0.871568,-0.05516,-0.1225,0.49784
9.32801,0,0,5,5,19.328,19.328,-14.3508,-1.65299,16.6221,0.172972,0.256317,-0.00523387,0,0,3.7275,-0.315,-0.4025,0.104432,0.515694,-0.986492,-0.05516,-0.1225,0.49784
9.32792,0,0,5,5,19.3279,19.3279,-14.3506,-1.65315,16.6213,0.172975,0.25632,-0.00523333,1,0,3.64,0.0525,-0.77,0.104432,0.515694,-0.986492,-0.05516,-0.1225,0.49784
9.32738,0,0,5,5,19.3274,19.3274,-14.3498,-1.65344,16.6203,0.276121,0.0531151,-0.0727286,1,0,4.025,0,-0.875,0.20801,0.312686,-1.05347,-0.05012,-0.11522,0.50008
9.41917,0,0,5,5,19.4192,19.4192,-14.491,-1.98511,17.4128,-0.269031,0.0742232,0.169918,0,0,4.0775,-0.455,-1.19,-0.34526,0.33611,-0.81191,-0.05012,-0.11522,0.50008
9.50988,0,0,5,5,19.5099,19.5099,-14.6306,-2.30847,18.2072,-0.263391,0.0719207,0.169101,0,0,3.465,0.8575,-0.91,-0.34526,0.33611,-0.81191,-0.05012,-0.11522,0.50008
9.64815,0,0,5,5,19.6481,19.6481,-14.8433,-2.719,19.0787,-0.352449,0.145476,0.155928,0,0,3.1675,0.7,-0.63,-0.441884,0.413092,-0.823744,-0.05012,-0.11522,0.50008
9.78463,0,0,5,5,19.7846,19.7846,-15.0533,-3.12035,19.9538,-0.345454,0.142031,0.154639,0,0,2.59,1.54,-0.0175,-0.441884,0.413092,-0.823744,-0.05012,-0.11522,0.50008
9.99076,0,0,5,5,19.9908,19.9908,-15.3704,-3.25029,20.5822,-0.0279338,0.245791,0.0579054,0,0,2.66,1.015,0.2975,-0.125294,0.522038,-0.918172,-0.05012,-0.11522,0.50008
10.1927,0,0,5,5,20.1927,20.1927,-15.6811,-3.37866,21.2155,-0.025697,0.240609,0.0563314,0,0,3.2025,-0.805,0.56,-0.125294,0.522038,-0.918172,-0.05012,-0.11522,0.50008
10.2147,0,0,5,5,20.2147,20.2147,-15.7149,-3.24573,21.5985,0.159925,0.0257964,-0.0328364,0,0,3.8325,-0.665,0.77,0.06344,0.30805,-1.00662,-0.05012,-0.11522,0.50008
10.2247,0,0,5,5,20.2247,20.2247,-15.7303,-3.07249,21.6016,0.156906,0.0254919,-0.032749,0,1,4.585,-0.665,0.84,0.06344,0.30805,-1.00662,-0.04872,-0.10976,0.51618
10.1566,0,0,5,5,20.1566,20.1566,-15.6256,-2.83206,21.599,0.173125,-0.132794,0.220981,0,1,5.005,-0.175,1.2775,0.083936,0.14823,-0.755546,-0.04872,-0.10976,0.51618
10.1549,0,0,5,5,20.1549,20.1549,-15.6229,-2.83186,21.6012,0.173121,-0.13275,0.220993,1,1,5.1275,-0.21,0.9975,0.083936,0.14823,-0.755546,-0.04872,-0.10976,0.51618
10.1549,0,0,5,5,20.1549,20.1549,-15.6229,-2.8324,21.6036,-0.397244,0.110038,-0.0749442,1,1,3.64,-0.6475,0.945,-0.488854,0.390766,-1.0492,-0.04872,-0.10976,0.51618
10.1552,0,0,5,5,20.1552,20.1552,-15.6234,-2.83065,21.6053,-0.397275,0.11003,-0.0749451,1,1,3.3425,0.735,0.98,-0.488854,0.390766,-1.0492,-0.04872,-0.10976,0.51618
10.3496,0,0,5,5,20.3496,20.3496,-15.9225,-2.87467,21.6219,-0.0395826,0.239118,0.111712,0,1,3.2025,1.75,1.26,-0.130418,0.524722,-0.86254,-0.04872,-0.10976,0.51618
10.5419,0,0,5,5,20.5419,20.5419,-16.2183,-2.91807,21.6389,-0.0388261,0.234174,0.110248,0,1,1.8725,1.505,1.47,-0.130418,0.524722,-0.86254,-0.04872,-0.10976,0.51618
10.5075,0,0,5,5,20.5075,20.5075,-16.1654,-3.09402,21.639,-0.183122,-0.0186747,-0.131489,0,1,2.94,-0.8925,1.2425,-0.278404,0.271206,-1.10251,-0.04872,-0.10976,0.51618
10.5066,0,0,5,5,20.5066,20.5066,-16.1639,-3.09531,21.6403,-0.183099,-0.0186505,-0.131483,1,1,4.41,-0.91,0.2275,-0.278404,0.271206,-1.10251,-0.05796,-0.10206,0.52976
10.5055,0,0,5,5,20.5055,20.5055,-16.1623,-3.09642,21.6411,0.0664519,-0.276677,-0.273236,1,1,4.515,-0.7175,-0.0525,-0.027816,0.01342,-1.24318,-0.05796,-0.10206,0.52976
10.505,0,0,5,5,20.505,20.505,-16.1616,-3.0969,21.6411,0.0664602,-0.276665,-0.273233,1,1,3.9725,-0.245,-0.35,-0.027816,0.01342,-1.24318,-0.05796,-0.10206,0.52976
10.5055,0,0,5,5,20.5055,20.5055,-16.1623,-3.09996,21.639,-0.365733,-0.350807,-0.105661,1,1,3.0975,-1.3475,-1.9775,-0.461892,-0.060634,-1.07689,-0.05796,-0.10206,0.52976
10.506,0,0,5,5,20.506,20.506,-16.1631,-3.10302,21.6368,-0.365679,-0.350818,-0.105667,1,1,3.0975,-1.3475,-1.9775,-0.461892,-0.060634,-1.07689,-0.05796,-0.10206,0.52976
10.5052,0,0,5,5,20.5052,20.5052,-16.1619,-3.10409,21.6345,-0.259118,-0.133413,-0.209922,1,1,4.165,-0.1925,-1.785,-0.354898,0.156526,-1.18035,-0.05796,-0.10206,0.52976
10.5045,0,0,5,5,20.5045,20.5045,-16.1607,-3.10516,21.6321,-0.259099,-0.133393,-0.209918,1,1,4.165,-0.1925,-1.785,-0.354898,0.156526,-1.18035,-0.05796,-0.10206,0.52976
10.3631,0,0,5,5,20.3631,20.3631,-15.9432,-3.56696,21.6149,-0.3661,-0.225002,0.147476,0,1,3.7975,2.87,-2.2575,-0.470432,0.061244,-0.826306,-0.05796,-0.10206,0.52976
10.224,0,0,5,5,20.224,20.224,-15.7292,-4.02058,21.5962,-0.3582,-0.221274,0.147989,0,1,3.7975,2.87,-2.2575,-0.470432,0.061244,-0.826306,-0.05138,-0.09982,0.52304
10.2229,0,0,5,5,20.2229,20.2229,-15.7275,-4.02143,21.5945,0.00444972,0.00371294,-0.351666,1,1,4.48,-0.1925,-1.3475,-0.106262,0.285968,-1.32211,-0.05138,-0.09982,0.52304
10.2217,0,0,5,5,20.2217,20.2217,-15.7257,-4.02228,21.5929,0.00446456,0.00374227,-0.351659,1,1,4.48,-0.1925,-1.3475,-0.106262,0.285968,-1.32211,-0.05138,-0.09982,0.52304
10.0344,0,0,5,5,20.0344,20.0344,-15.4376,-3.37263,21.5722,0.591953,-0.298525,0.113909,0,1,2.275,-1.1375,-1.7675,0.495076,-0.020618,-0.862174,-0.05138,-0.09982,0.52304
9.85026,0,0,5,5,19.8503,19.8503,-15.1542,-2.73271,21.5551,0.5808,-0.293918,0.115785,0,1,2.275,-1.1375,-1.7675,0.495076,-0.020618,-0.862174,-0.05138,-0.09982,0.52304
9.8512,0,0,5,5,19.8512,19.8512,-15.1557,-2.73624,21.554,-0.331982,0.172338,-0.0952037,1,1,2.73,-1.8025,-1.435,-0.421632,0.445178,-1.07153,-0.05138,-0.09982,0.52304
9.85121,0,0,5,5,19.8512,19.8512,-15.1557,-2.73864,21.5535,0.177206,-0.0847384,0.220649,1,1,3.5525,-1.26,-0.91,0.08967,0.188368,-0.758108,-0.05138,-0.09982,0.52304
9.84928,0,0,5,5,19.8493,19.8493,-15.1527,-2.73515,21.5526,0.177145,-0.0846892,0.220665,1,1,5.215,2.135,-0.2625,0.08967,0.188368,-0.758108,-0.05138,-0.09982,0.52304
9.91083,0,0,5,5,19.9108,19.9108,-15.2474,-2.31487,21.5565,0.375978,0.0706878,0.070793,0,1,4.8825,1.6975,-0.0875,0.296704,0.34526,-0.906704,-0.05138,-0.09982,0.52304
9.97079,0,0,5,5,19.9708,19.9708,-15.3397,-1.90258,21.5612,0.368788,0.069066,0.070624,0,1,5.285,1.26,0.77,0.296704,0.34526,-0.906704,-0.05572,-0.09842,0.53242
9.9678,0,0,5,5,19.9678,19.9678,-15.3351,-1.90118,21.5636,-0.033719,0.270164,-0.164554,1,1,6.195,0.455,1.26,-0.107482,0.546072,-1.14009,-0.05572,-0.09842,0.53242
9.9713,0,0,5,5,19.9713,19.9713,-15.3405,-1.90104,21.5668,-0.0337214,0.270073,-0.164579,1,1,0.6125,-0.4025,1.575,-0.107482,0.546072,-1.14009,-0.05572,-0.09842,0.53242
9.79049,0,0,5,5,19.7905,19.7905,-15.0623,-1.68083,21.5611,0.207474,-0.249321,-0.084012,0,1,3.5,-0.455,1.3825,0.138592,0.02257,-1.06152,-0.05572,-0.09842,0.53242
9.61372,0,0,5,5,19.6137,19.6137,-14.7903,-1.46566,21.5561,0.20372,-0.244763,-0.0826904,0,1,2.9225,-0.9275,0.98,0.138592,0.02257,-1.06152,-0.05572,-0.09842,0.53242
9.61379,0,0,5,5,19.6138,19.6138,-14.7904,-1.46834,21.5588,-0.0495313,0.183411,-0.0694135,1,1,3.5525,-1.89,0.8225,-0.115778,0.450302,-1.04835,-0.05572,-0.09842,0.53242
9.6135,0,0,5,5,19.6135,19.6135,-14.79,-1.46979,21.5615,-0.0495059,0.183419,-0.0694121,1,1,3.8675,-1.2075,1.05,-0.115778,0.450302,-1.04835,-0.05572,-0.09842,0.53242
9.63603,0,0,5,5,19.636,19.636,-14.8247,-1.17664,21.5646,0.237917,-0.00392742,0.124314,0,1,3.71,-0.1225,1.0675,0.177998,0.263764,-0.856074,-0.05572,-0.09842,0.53242
9.65642,0,0,5,5,19.6564,19.6564,-14.856,-0.887689,21.5665,0.232874,-0.00447989,0.124262,0,1,5.1625,0.8225,0.6475,0.177998,0.263764,-0.856074,-0.05222,-0.10052,0.53018
9.65476,0,0,5,5,19.6548,19.6548,-14.8535,-0.885634,21.5671,-0.150813,0.365118,-0.117566,1,1,5.005,1.1025,0.35,-0.207278,0.632936,-1.09605,-0.05222,-0.10052,0.53018
9.65335,0,0,5,5,19.6534,19.6534,-14.8513,-0.883125,21.5675,-0.150857,0.365155,-0.117555,1,1,4.795,1.3825,0.3325,-0.207278,0.632936,-1.09605,-0.05222,-0.10052,0.53018
9.58131,0,0,5,5,19.5813,19.5813,-14.7405,-0.697159,21.5662,0.174273,-0.0858324,-0.0748469,0,1,5.39,0.945,0.105,0.122488,0.18056,-1.0542,-0.05222,-0.10052,0.53018
9.51343,0,0,5,5,19.5134,19.5134,-14.6361,-0.517593,21.5653,0.171139,-0.084078,-0.0743527,0,1,2.9925,-0.6475,-0.3675,0.122488,0.18056,-1.0542,-0.05222,-0.10052,0.53018
9.62952,0,0,5,5,19.6295,19.6295,-14.8147,-0.530477,21.5665,-0.00952796,0.170473,0.00870393,0,1,3.8325,-1.5925,-0.945,-0.05917,0.437858,-0.970998,-0.05222,-0.10052,0.53018
9.74202,0,0,5,5,19.742,19.742,-14.9877,-0.542385,21.5674,-0.00932014,0.167555,0.00792534,0,1,5.005,-1.12,-1.0675,-0.05917,0.437858,-0.970998,-0.05222,-0.10052,0.53018
9.74209,0,0,5,5,19.7421,19.7421,-14.9878,-0.546275,21.5661,-0.120898,0.197108,-0.181908,1,1,3.5,-1.9775,-1.61,-0.171288,0.467382,-1.15937,-0.05222,-0.10052,0.53018
9.74213,0,0,5,5,19.7421,19.7421,-14.9879,-0.548435,21.5643,-0.12086,0.197107,-0.181909,1,1,3.535,-0.9275,-1.61,-0.171288,0.467382,-1.15937,-0.0518,-0.10038,0.54054
9.74141,0,0,5,5,19.7414,19.7414,-14.9868,-0.548571,21.5626,0.181034,0.376163,0.0749355,1,1,4.1825,0.21,-1.2775,0.131882,0.646234,-0.904508,-0.0518,-0.10038,0.54054
9.74233,0,0,5,5,19.7423,19.7423,-14.9882,-0.54678,21.5604,0.181003,0.376139,0.0749294,1,1,2.765,1.365,-1.225,0.131882,0.646234,-0.904508,-0.0518,-0.10038,0.54054
9.90145,0,0,5,5,19.9014,19.9014,-15.233,-0.215701,21.5602,0.280431,0.171228,0.164589,0,1,3.9375,1.085,-1.1375,0.237534,0.445666,-0.814472,-0.0518,-0.10038,0.54054
10.0574,0,0,5,5,20.0574,20.0574,-15.473,0.110744,21.5591,0.274734,0.167188,0.163485,0,1,4.1475,1.7675,-0.6125,0.237534,0.445666,-0.814472,-0.0518,-0.10038,0.54054
10.2348,0,0,5,5,20.2348,20.2348,-15.7459,-0.0348187,21.5586,-0.131646,0.226961,0.101714,0,1,4.55,0.875,-0.2625,-0.173118,0.50996,-0.874496,-0.0518,-0.10038,0.54054
10.4082,0,0,5,5,20.4082,20.4082,-16.0127,-0.181079,21.5597,-0.129094,0.222484,0.100436,0,1,5.1275,-1.2075,-0.2625,-0.173118,0.50996,-0.874496,-0.0518,-0.10038,0.54054
10.6295,0,0,5,5,20.6295,20.6295,-16.3531,-0.200194,21.5616,-0.0167502,0.324738,0.0668119,0,1,4.76,-1.12,-0.14,-0.060634,0.617808,-0.906216,-0.0518,-0.10038,0.54054
10.8477,0,0,5,5,20.8477,20.8477,-16.6887,-0.219255,21.5631,-0.0164175,0.319122,0.065145,0,1,3.9025,-1.2075,-0.49,-0.060634,0.617808,-0.906216,-0.0476,-0.09562,0.525
10.8477,0,0,5,5,20.8477,20.8477,-16.6887,-0.220583,21.5635,0.0646366,0.397284,0.0521125,1,1,3.5875,-0.7875,-0.28,0.02074,0.695888,-0.919148,-0.0476,-0.09562,0.525
10.8476,0,0,5,5,20.8476,20.8476,-16.6887,-0.22191,21.5639,0.0646598,0.397284,0.0521126,1,1,3.5875,-0.7875,-0.28,0.02074,0.695888,-0.919148,-0.0476,-0.09562,0.525
10.9696,0,0,5,5,20.9696,20.9696,-16.8764,-0.139119,21.5649,0.074027,0.157954,0.0622364,0,1,4.06,0.14,0,0.031598,0.45994,-0.908168,-0.0476,-0.09562,0.525
11.0893,0,0,5,5,21.0893,21.0893,-17.0605,-0.0578957,21.5656,0.0726094,0.154879,0.0613008,0,1,4.06,0.14,0,0.031598,0.45994,-0.908168,-0.0476,-0.09562,0.525
11.0879,0,0,5,5,21.0879,21.0879,-17.0583,-0.0565094,21.5665,0.281419,0.0959287,-0.0583167,1,1,4.8125,0.6475,0.455,0.241316,0.401014,-1.02687,-0.0476,-0.09562,0.525
11.1714,0,0,5,5,21.1714,21.1714,-17.1868,-0.115747,21.5684,-0.0489599,0.0752228,0.122125,0,1,5.5125,0.21,0.805,-0.0915,0.38247,-0.847168,-0.0476,-0.09562,0.525
11.255,0,0,5,5,21.255,21.255,-17.3153,-0.176216,21.5706,-0.0479046,0.073081,0.121457,0,1,4.095,-1.155,0.5075,-0.0915,0.38247,-0.847168,-0.0476,-0.09562,0.525
11.2898,0,0,5,5,21.2898,21.2898,-17.3689,-0.149965,21.572,0.0234353,0.0166211,0.0936391,0,1,3.465,-1.2775,0.0175,-0.019398,0.32696,-0.874496,-0.05222,-0.09184,0.53494
11.4162,0,0,5,5,21.4162,21.4162,-17.5633,-0.0403309,21.5732,0.10559,0.182039,0.0315179,0,1,3.92,-1.7325,-0.2975,0.065026,0.495442,-0.93513,-0.05222,-0.09184,0.53494
11.5406,0,0,5,5,21.5406,21.5406,-17.7547,0.0696447,21.5734,0.103671,0.178856,0.0305041,0,1,3.5875,-0.28,-0.1925,0.065026,0.495442,-0.93513,-0.05222,-0.09184,0.53494
11.5391,0,0,5,5,21.5391,21.5391,-17.7525,0.0692455,21.5735,0.156402,-0.125568,-0.134604,1,1,4.83,-0.21,-0.315,0.117974,0.191296,-1.09898,-0.05222,-0.09184,0.53494
11.538,0,0,5,5,21.538,21.538,-17.7508,0.0708845,21.573,0.156374,-0.12554,-0.134595,1,1,4.515,1.0325,-0.28,0.117974,0.191296,-1.09898,-0.05222,-0.09184,0.53494
11.5125,0,0,5,5,21.5125,21.5125,-17.7116,-0.146394,21.5727,-0.177564,-0.0646791,0.101426,0,1,4.27,1.2775,-0.035,-0.221186,0.251442,-0.86498,-0.05222,-0.09184,0.53494
11.4867,0,0,5,5,21.4867,21.4867,-17.6719,-0.359492,21.5719,-0.173845,-0.0640141,0.101621,0,1,4.9525,1.3825,-0.245,-0.221186,0.251442,-0.86498,-0.05222,-0.09184,0.53494
11.4858,0,0,5,5,21.4858,21.4858,-17.6705,-0.357879,21.5712,-0.0239599,0.0887893,-0.0985314,1,1,4.34,1.05,-0.385,-0.070638,0.404064,-1.0636,-0.05222,-0.09184,0.53494
11.4859,0,0,5,5,21.4859,21.4859,-17.6706,-0.357717,21.571,-0.0239628,0.0887871,-0.098532,1,1,3.5,0.1575,-0.385,-0.070638,0.404064,-1.0636,-0.04382,-0.08764,0.54278
11.4854,0,0,5,5,21.4854,21.4854,-17.6698,-0.358615,21.5709,0.119285,0.0283488,0.192983,1,1,4.06,-0.455,-0.5075,0.0732,0.343674,-0.774334,-0.04382,-0.08764,0.54278
11.486,0,0,5,5,21.486,21.486,-17.6707,-0.361169,21.571,0.119329,0.0283332,0.192978,1,1,3.045,-1.4175,-0.6825,0.0732,0.343674,-0.774334,-0.04382,-0.08764,0.54278
11.6564,0,0,5,5,21.6564,21.6564,-17.9329,-0.247109,21.572,0.10033,0.191042,0.142287,0,1,3.605,-1.12,-0.84,0.05612,0.51057,-0.823256,-0.04382,-0.08764,0.54278
11.8221,0,0,5,5,21.8221,21.8221,-18.1878,-0.134009,21.5728,0.0983565,0.18681,0.140914,0,1,4.935,-0.5075,-0.525,0.05612,0.51057,-0.823256,-0.04382,-0.08764,0.54278
11.8221,0,0,5,5,21.8221,21.8221,-18.1878,-0.134293,21.5724,0.156189,0.115978,-0.057279,1,1,3.605,-0.0525,-0.5775,0.114192,0.43981,-1.01992,-0.04382,-0.08764,0.54278
11.8224,0,0,5,5,21.8224,21.8224,-18.1883,-0.132514,21.5712,0.156158,0.115969,-0.0572817,1,1,3.29,1.225,-0.595,0.114192,0.43981,-1.01992,-0.04382,-0.08764,0.54278
12.0178,0,0,5,5,22.0178,22.0178,-18.4889,0.0175846,21.5705,0.14066,0.278425,0.0787725,0,1,4.0075,2.0825,-0.21,0.10126,0.607072,-0.88328,-0.04382,-0.08764,0.54278
12.2104,0,0,5,5,22.2104,22.2104,-18.7852,0.163978,21.57,0.138105,0.273526,0.0771161,0,1,3.3075,1.4,0.105,0.10126,0.607072,-0.88328,-0.04522,-0.08582,0.54376
12.251,0,0,5,5,22.251,22.251,-18.8476,0.571631,21.5694,0.371411,0.0342391,0.0763523,0,1,3.465,0.9975,-0.07,0.342698,0.36905,-0.883646,-0.04522,-0.08582,0.54376
12.291,0,0,5,5,22.291,22.291,-18.9092,0.969202,21.5691,0.364473,0.0332525,0.0759163,0,1,3.3425,-0.7,-0.175,0.342698,0.36905,-0.883646,-0.04522,-0.08582,0.54376
12.2975,0,0,5,5,22.2975,22.2975,-18.9193,0.980975,21.5697,0.0098933,-0.0161297,0.0714299,0,1,3.22,-0.945,-0.175,-0.013176,0.319884,-0.888038,-0.04522,-0.08582,0.54376
12.3039,0,0,5,5,22.3039,22.3039,-18.9291,0.991904,21.57,0.00970258,-0.0162902,0.0713714,0,1,3.2725,-1.2425,-0.42,-0.013176,0.319884,-0.888038,-0.04522,-0.08582,0.54376
12.3689,0,0,5,5,22.3689,22.3689,-19.0291,1.12323,21.5686,0.115533,0.0691493,0.0674441,0,1,3.29,-0.6825,-0.28,0.095404,0.40687,-0.891332,-0.04522,-0.08582,0.54376
12.4327,0,0,5,5,22.4327,22.4327,-19.1272,1.25207,21.567,0.113285,0.0675461,0.0668403,0,1,3.29,-0.6825,-0.28,0.095404,0.40687,-0.891332,-0.04522,-0.08582,0.54376
12.364,0,0,5,5,22.364,22.364,-19.0215,1.07464,21.5684,-0.165709,-0.0893729,-0.0419213,0,1,3.5175,0.9625,-0.42,-0.18788,0.248392,-0.999912,-0.04522,-0.08582,0.54376
12.2965,0,0,5,5,22.2965,22.2965,-18.9177,0.900559,21.5694,-0.162671,-0.0876775,-0.0412832,0,1,3.5175,0.9625,-0.42,-0.18788,0.248392,-0.999912,-0.05138,-0.08274,0.5488
12.3675,0,0,5,5,22.3675,22.3675,-19.027,0.799195,21.5683,-0.0892254,0.0661,0.0931191,0,1,3.465,1.2075,0.4375,-0.1159,0.40382,-0.865956,-0.05138,-0.08274,0.5488
12.4372,0,0,5,5,22.4372,22.4372,-19.1342,0.699745,21.5674,-0.0874898,0.0643244,0.0925289,0,1,3.465,1.2075,0.4375,-0.1159,0.40382,-0.865956,-0.05138,-0.08274,0.5488
12.4379,0,0,5,5,22.4379,22.4379,-19.1353,0.699311,21.5676,-0.125021,-0.0740628,0.174407,1,1,2.975,-0.245,-0.28,-0.153598,0.265594,-0.784704,-0.05138,-0.08274,0.5488
12.4384,0,0,5,5,22.4384,22.4384,-19.136,0.69827,21.5677,0.146639,0.200832,-0.0362082,1,1,3.15,-0.56,-0.455,0.119194,0.540216,-0.99369,-0.05138,-0.08274,0.5488
12.4395,0,0,5,5,22.4395,22.4395,-19.1377,0.696139,21.5681,0.146676,0.200804,-0.0362175,1,1,2.625,-1.2425,-0.4375,0.119194,0.540216,-0.99369,-0.05138,-0.08274,0.5488
12.4853,0,0,5,5,22.4853,22.4853,-19.2081,0.72155,21.5671,0.0206164,0.0219515,0.111035,0,1,3.29,-0.6125,-0.6125,-0.006954,0.362706,-0.847168,-0.05138,-0.08274,0.5488
12.53,0,0,5,5,22.53,22.53,-19.2769,0.748426,21.5652,0.0201473,0.02082,0.110634,0,1,3.43,0.63,-0.7,-0.006954,0.362706,-0.847168,-0.05138,-0.08274,0.5488
12.5072,0,0,5,5,22.5072,22.5072,-19.2418,0.895223,21.5643,0.138099,-0.0223121,-0.0414094,0,1,2.6775,1.0675,-0.7875,0.11407,0.31903,-0.998204,-0.05138,-0.08274,0.5488
12.4849,0,0,5,5,22.4849,22.4849,-19.2076,1.03937,21.5644,0.135584,-0.0217332,-0.0412525,0,1,2.625,0.98,-0.28,0.11407,0.31903,-0.998204,-0.04956,-0.06958,0.55678
12.5808,0,0,5,5,22.5808,22.5808,-19.355,1.30401,21.5607,0.236658,0.108865,0.0865358,0,1,2.275,1.4175,-0.2625,0.22021,0.451888,-0.87047,-0.04956,-0.06958,0.55678
12.6744,0,0,5,5,22.6744,22.6744,-19.499,1.56248,21.5571,0.232149,0.106533,0.0855935,0,1,2.6775,0.56,-0.1225,0.22021,0.451888,-0.87047,-0.04956,-0.06958,0.55678
12.6033,0,0,5,5,22.6033,22.6033,-19.3897,1.52618,21.5602,-0.0335146,-0.0998997,-0.0151877,0,1,2.7125,0.2975,-0.0875,-0.047214,0.243878,-0.97112,-0.04956,-0.06958,0.55678
12.5338,0,0,5,5,22.5338,22.5338,-19.2827,1.48988,21.5635,-0.0328812,-0.0981445,-0.0145542,0,1,2.52,-0.1225,-0.105,-0.047214,0.243878,-0.97112,-0.04956,-0.06958,0.55678
12.535,0,0,5,5,22.535,22.535,-19.2846,1.48898,21.5639,-0.255063,0.301423,-0.0471459,1,1,2.52,-0.56,-0.21,-0.270352,0.643062,-1.00345,-0.04956,-0.06958,0.55678
12.5363,0,0,5,5,22.5363,22.5363,-19.2866,1.48816,21.5645,-0.255048,0.301389,-0.0471574,1,1,2.415,-0.5425,-0.1225,-0.270352,0.643062,-1.00345,-0.04956,-0.06958,0.55678
12.3586,0,0,5,5,22.3586,22.3586,-19.0132,1.73597,21.5724,0.244794,-0.252428,-0.0986983,0,1,2.6775,-0.175,-0.2275,0.235948,0.085278,-1.05603,-0.04956,-0.06958,0.55678
12.1851,0,0,5,5,22.1851,22.1851,-18.7463,1.98065,21.5814,0.240525,-0.247977,-0.0973225,0,1,1.7675,0.595,0.035,0.235948,0.085278,-1.05603,-0.04788,-0.05642,0.5621
12.1865,0,0,5,5,22.1865,22.1865,-18.7485,1.98211,21.5816,-0.140236,-0.0176828,0.113275,1,1,2.31,0.805,0.07,-0.1464,0.31537,-0.847046,-0.04788,-0.05642,0.5621
12.1874,0,0,5,5,22.1874,22.1874,-18.7498,1.9841,21.5816,-0.140271,-0.0177041,0.113266,1,1,2.835,1.12,0.1225,-0.1464,0.31537,-0.847046,-0.04788,-0.05642,0.5621
12.1889,0,0,5,5,22.1889,22.1889,-18.7521,1.98576,21.5818,-0.179783,-0.0646381,-0.114448,1,1,2.2925,0.91,0.14,-0.18605,0.268522,-1.07299,-0.04788,-0.05642,0.5621
12.1904,0,0,5,5,22.1904,22.1904,-18.7544,1.98743,21.582,-0.179812,-0.0646754,-0.114462,1,1,2.2925,0.91,0.14,-0.18605,0.268522,-1.07299,-0.04788,-0.05642,0.5621
12.1913,0,0,5,5,22.1913,22.1913,-18.7559,1.98691,21.5824,-0.208109,-0.0629909,-0.126642,1,1,2.7125,-0.3325,-0.175,-0.214476,0.27023,-1.08507,-0.04788,-0.05642,0.5621
12.1923,0,0,5,5,22.1923,22.1923,-18.7574,1.98639,21.5828,-0.2081,-0.0630161,-0.12665,1,1,2.7125,-0.3325,-0.175,-0.214476,0.27023,-1.08507,-0.04788,-0.05642,0.5621
12.2425,0,0,5,5,22.2425,22.2425,-18.8347,2.2099,21.5797,0.186596,0.0266172,0.116833,0,1,2.03,-0.7525,-0.735,0.185806,0.360998,-0.842898,-0.04788,-0.05642,0.5621
12.2918,0,0,5,5,22.2918,22.2918,-18.9105,2.42925,21.5765,0.182771,0.0254164,0.116259,0,1,2.03,-0.7525,-0.735,0.185806,0.360998,-0.842898,-0.04942,-0.06188,0.5649
12.2926,0,0,5,5,22.2926,22.2926,-18.9117,2.42829,21.5761,-0.174258,0.400935,-0.0548914,1,1,2.8875,-0.4375,-0.665,-0.172752,0.736148,-1.01272,-0.04942,-0.06188,0.5649
12.277,0,0,5,5,22.277,22.277,-18.8877,2.61413,21.5767,0.177482,-0.0159302,-0.0255064,0,1,3.2725,0.4025,-0.49,0.183732,0.319274,-0.983564,-0.04942,-0.06188,0.5649
12.2615,0,0,5,5,22.2615,22.2615,-18.8639,2.79686,21.5765,0.174297,-0.0154875,-0.0255141,0,1,3.5,0.7525,-0.8575,0.183732,0.319274,-0.983564,-0.04942,-0.06188,0.5649
12.2633,0,0,5,5,22.2633,22.2633,-18.8666,2.79705,21.5757,-0.206564,0.0820473,-0.102126,1,1,2.0825,0.28,-0.6825,-0.198738,0.416752,-1.05957,-0.04942,-0.06188,0.5649
12.2647,0,0,5,5,22.2647,22.2647,-18.8687,2.79573,21.575,-0.206541,0.0820113,-0.102138,1,1,2.38,-0.5775,-0.8925,-0.198738,0.416752,-1.05957,-0.04942,-0.06188,0.5649
12.3163,0,0,5,5,22.3163,22.3163,-18.9482,2.51561,21.5708,-0.248673,0.0453324,0.0789768,0,1,2.6775,-0.56,-0.8925,-0.245952,0.381494,-0.87962,-0.04942,-0.06188,0.5649
12.3674,0,0,5,5,22.3674,22.3674,-19.0268,2.24078,21.567,-0.24388,0.0439709,0.0787188,0,1,2.31,-0.4725,-0.8225,-0.245952,0.381494,-0.87962,-0.04942,-0.06188,0.5649
12.3238,0,0,5,5,22.3238,22.3238,-18.9596,2.1164,21.5694,-0.116459,-0.0497179,-0.0553273,0,1,2.975,-0.35,-0.5425,-0.12017,0.286822,-1.01309,-0.05642,-0.06804,0.5537
12.281,0,0,5,5,22.281,22.281,-18.8938,1.99489,21.5715,-0.11434,-0.0486567,-0.054883,0,1,2.905,-0.035,-0.49,-0.12017,0.286822,-1.01309,-0.05642,-0.06804,0.5537
12.1837,0,0,5,5,22.1837,22.1837,-18.7442,1.81373,21.576,-0.173745,-0.126823,-0.0844326,0,1,2.345,-0.315,-0.735,-0.183,0.206302,-1.04334,-0.05642,-0.06804,0.5537
12.089,0,0,5,5,22.089,22.089,-18.5984,1.63737,21.58,-0.170668,-0.124445,-0.0835311,0,1,1.6975,0.49,-0.455,-0.183,0.206302,-1.04334,-0.05642,-0.06804,0.5537
12.0905,0,0,5,5,22.0905,22.0905,-18.6007,1.64117,21.5871,-0.238523,-0.215222,0.196162,1,1,2.17,0.805,4.3575,-0.251076,0.115656,-0.765794,-0.05642,-0.06804,0.5537
12.0917,0,0,5,5,22.0917,22.0917,-18.6026,1.64275,21.5872,-0.238551,-0.215253,0.196151,1,1,2.5375,0.8925,0.0525,-0.251076,0.115656,-0.765794,-0.05642,-0.06804,0.5537
12.1418,0,0,5,5,22.1418,22.1418,-18.6797,1.63232,21.5926,-0.0111906,0.0922076,-0.0418104,0,1,2.4675,0.21,4.4625,-0.022936,0.424072,-1.0015,-0.05642,-0.06804,0.5537
12.1906,0,0,5,5,22.1906,22.1906,-18.7548,1.61929,21.5919,-0.0109633,0.090965,-0.0422246,0,1,2.8875,-0.175,0.5075,-0.022936,0.424072,-1.0015,-0.05642,-0.06804,0.5537
12.1915,0,0,5,5,22.1915,22.1915,-18.7562,1.61886,21.5939,0.0774858,-0.120215,0.259606,1,1,2.765,-0.5775,0.7,0.06588,0.213134,-0.701988,-0.0511,-0.07364,0.55244
12.1925,0,0,5,5,22.1925,22.1925,-18.7577,1.61852,21.5956,0.257412,0.0511026,0.234885,1,1,2.66,-0.49,0.6125,0.246562,0.3843,-0.72651,-0.0511,-0.07364,0.55244
12.1934,0,0,5,5,22.1934,22.1934,-18.7591,1.61931,21.597,0.257398,0.0510806,0.234877,1,1,2.8,0.21,0.6125,0.246562,0.3843,-0.72651,-0.0511,-0.07364,0.55244
12.1942,0,0,5,5,22.1942,22.1942,-18.7603,1.61968,21.5983,-0.00246606,-0.0925605,-0.229752,1,1,2.87,-0.0175,0.5075,-0.014396,0.240828,-1.18755,-0.0511,-0.07364,0.55244
12.1956,0,0,5,5,22.1956,22.1956,-18.7624,1.62073,21.5992,-0.00248444,-0.0925956,-0.229765,1,1,2.3625,0.4375,0.42,-0.014396,0.240828,-1.18755,-0.0511,-0.07364,0.55244
12.1966,0,0,5,5,22.1966,22.1966,-18.764,1.62174,21.5999,-0.0129499,0.23309,-0.0301058,1,1,2.66,0.455,0.2975,-0.024888,0.566202,-0.98942,-0.0511,-0.07364,0.55244
12.1974,0,0,5,5,22.1974,22.1974,-18.7653,1.6225,21.6006,-0.0129632,0.23307,-0.0301131,1,1,2.87,0.315,0.245,-0.024888,0.566202,-0.98942,-0.0511,-0.07364,0.55244
12.3361,0,0,5,5,22.3361,22.3361,-18.9787,1.54937,21.5954,-0.0651409,0.147711,0.131992,0,1,2.17,-0.2975,-0.0175,-0.078568,0.484462,-0.827404,-0.0511,-0.07364,0.55244
12.4723,0,0,5,5,22.4723,22.4723,-19.1882,1.47635,21.5899,-0.0638669,0.144245,0.130828,0,1,2.135,-0.84,-0.63,-0.078568,0.484462,-0.827404,-0.05124,-0.07406,0.54474
12.4094,0,0,5,5,22.4094,22.4094,-19.0914,1.69339,21.5924,0.180663,-0.116087,0.0822266,0,1,2.5725,-1.015,-0.77,0.1708,0.222772,-0.876082,-0.05124,-0.07406,0.54474
12.3477,0,0,5,5,22.3477,22.3477,-18.9965,1.90627,21.5942,0.17695,-0.114484,0.0826565,0,1,2.52,-0.91,-1.365,0.1708,0.222772,-0.876082,-0.05124,-0.07406,0.54474
12.3688,0,0,5,5,22.3688,22.3688,-19.0289,1.81103,21.5914,-0.0907229,0.0578946,-0.072269,0,1,2.87,-0.77,-1.6275,-0.099674,0.395524,-1.02968,-0.05124,-0.07406,0.54474
12.3892,0,0,5,5,22.3892,22.3892,-19.0604,1.71861,21.5878,-0.0891105,0.0573599,-0.0724011,0,1,3.0975,-0.0175,-1.96,-0.099674,0.395524,-1.02968,-0.05124,-0.07406,0.54474
12.3909,0,0,5,5,22.3909,22.3909,-19.0629,1.71811,21.5848,-0.0993067,-0.0118062,-0.216019,1,1,2.1875,0.3325,-2.0475,-0.109922,0.326472,-1.17218,-0.05124,-0.07406,0.54474
12.393,0,0,5,5,22.393,22.393,-19.0662,1.7178,21.5815,-0.0993012,-0.0118594,-0.216037,1,1,1.82,0.4725,-2.135,-0.109922,0.326472,-1.17218,-0.05124,-0.07406,0.54474
12.3477,0,0,5,5,22.3477,22.3477,-18.9964,1.6746,21.5806,-0.039141,-0.0730009,0.0104827,0,1,1.5575,0.35,-2.0825,-0.050264,0.264252,-0.947818,-0.05124,-0.07406,0.54474
12.3031,0,0,5,5,22.3031,22.3031,-18.9279,1.632,21.5805,-0.0383978,-0.0718778,0.0108913,0,1,1.575,0.07,-1.6625,-0.050264,0.264252,-0.947818,-0.04802,-0.0791,0.5439
12.3055,0,0,5,5,22.3055,22.3055,-18.9315,1.63104,21.5784,-0.0127476,0.313984,-0.103593,1,1,1.61,-0.105,-1.6275,-0.024522,0.649772,-1.0614,-0.04802,-0.0791,0.5439
12.3071,0,0,5,5,22.3071,22.3071,-18.934,1.6303,21.577,-0.0127348,0.313941,-0.103608,1,1,2.1525,-0.1225,-1.1725,-0.024522,0.649772,-1.0614,-0.04802,-0.0791,0.5439
12.3084,0,0,5,5,22.3084,22.3084,-18.936,1.62947,21.5763,0.174368,0.0407111,-0.140872,1,1,2.485,-0.2975,-0.84,0.163358,0.376858,-1.09837,-0.04802,-0.0791,0.5439
12.31,0,0,5,5,22.31,22.31,-18.9385,1.62991,21.5763,0.17436,0.0406709,-0.140886,1,1,2.205,0.2625,-0.1925,0.163358,0.376858,-1.09837,-0.04802,-0.0791,0.5439
12.3107,0,0,5,5,22.3107,22.3107,-18.9395,1.63072,21.5768,-0.225585,0.16852,-0.096016,1,1,2.975,0.385,0.14,-0.238266,0.504592,-1.05384,-0.04802,-0.0791,0.5439
12.3122,0,0,5,5,22.3122,22.3122,-18.9418,1.63264,21.5781,-0.225619,0.168483,-0.0960298,1,1,2.275,0.84,0.805,-0.238266,0.504592,-1.05384,-0.04802,-0.0791,0.5439
12.3138,0,0,5,5,22.3138,22.3138,-18.9443,1.63514,21.5794,0.487702,0.292523,-0.0771112,1,1,2.135,1.1725,0.875,0.478118,0.628544,-1.03505,-0.04802,-0.0791,0.5439
12.3153,0,0,5,5,22.3153,22.3153,-18.9466,1.63762,21.5817,0.487659,0.292485,-0.0771253,1,1,2.2575,0.9625,1.4525,0.478118,0.628544,-1.03505,-0.04802,-0.0791,0.5439
12.6475,0,0,5,5,22.6475,22.6475,-19.4577,1.73621,21.5696,0.0806623,0.371525,0.304723,0,1,2.5375,0.595,1.75,0.071126,0.715896,-0.653188,-0.05348,-0.08428,0.54516
12.9752,0,0,5,5,22.9752,22.9752,-19.9618,1.83163,21.5572,0.0789978,0.363263,0.301708,0,1,1.75,-0.245,1.575,0.071126,0.715896,-0.653188,-0.05348,-0.08428,0.54516
13.0779,0,0,5,5,23.0779,23.0779,-20.1199,1.508,21.5558,-0.292448,0.103295,0.122643,0,1,1.9425,-0.6825,1.4175,-0.307562,0.458842,-0.830088,-0.05348,-0.08428,0.54516
13.1788,0,0,5,5,23.1788,23.1788,-20.2751,1.19006,21.5554,-0.2869,0.100707,0.12183,0,1,1.9425,-0.6825,1.4175,-0.307562,0.458842,-0.830088,-0.05348,-0.08428,0.54516
13.0401,0,0,5,5,23.0401,23.0401,-20.0617,1.69464,21.5633,0.463339,-0.240363,0.0795049,0,1,2.9225,-0.945,0.875,0.454694,0.114558,-0.873154,-0.05348,-0.08428,0.54516
12.9035,0,0,5,5,22.9035,22.9035,-19.8516,2.19111,21.5729,0.454679,-0.236817,0.0804798,0,1,2.9225,-0.945,0.875,0.454694,0.114558,-0.873154,-0.05348,-0.08428,0.54516
12.9043,0,0,5,5,22.9043,22.9043,-19.8528,2.19145,21.5728,-0.306314,-0.0780719,0.172561,1,1,2.905,0.2275,-0.2625,-0.309514,0.273158,-0.781776,-0.05348,-0.08428,0.54516
12.9051,0,0,5,5,22.9051,22.9051,-19.854,2.19179,21.5727,-0.30632,-0.0780914,0.172554,1,1,2.905,0.2275,-0.2625,-0.309514,0.273158,-0.781776,-0.05348,-0.08428,0.54516
13.0088,0,0,5,5,23.0088,23.0088,-20.0136,1.93926,21.5653,-0.248704,0.156774,0.0231093,0,1,2.2225,0.315,-1.2425,-0.256078,0.510448,-0.929274,-0.04984,-0.0868,0.5355
13.0101,0,0,5,5,23.0101,23.0101,-20.0156,1.93826,21.5634,-0.0967082,0.151978,-0.145588,1,1,2.485,-0.14,-1.54,-0.103456,0.50569,-1.09666,-0.04984,-0.0868,0.5355
13.012,0,0,5,5,23.012,23.012,-20.0185,1.93728,21.561,-0.0966912,0.151931,-0.145604,1,1,1.995,-0.035,-1.785,-0.103456,0.50569,-1.09666,-0.04984,-0.0868,0.5355
13.0132,0,0,5,5,23.0132,23.0132,-20.0203,1.93606,21.5585,0.247499,0.178768,-0.0309038,1,1,2.5725,-0.14,-1.9075,0.24217,0.53253,-0.982832,-0.04984,-0.0868,0.5355
13.0138,0,0,5,5,23.0138,23.0138,-20.0212,1.93414,21.5565,0.247533,0.178753,-0.0309078,1,1,3.1325,-0.63,-1.7675,0.24217,0.53253,-0.982832,-0.04984,-0.0868,0.5355
13.1795,0,0,5,5,23.1795,23.1795,-20.2761,1.83406,21.546,-0.0913676,0.198861,0.128308,0,1,3.2025,-0.3325,-1.75,-0.099918,0.556808,-0.823378,-0.04984,-0.0868,0.5355
13.3426,0,0,5,5,23.3426,23.3426,-20.527,1.73664,21.5366,-0.089668,0.19474,0.126832,0,1,2.87,0.0525,-1.295,-0.099918,0.556808,-0.823378,-0.04984,-0.0868,0.5355
13.4102,0,0,5,5,23.4102,23.4102,-20.6311,1.41804,21.5321,-0.291364,0.0630445,0.0947392,0,1,2.38,0.63,-1.085,-0.30805,0.427,-0.854732,-0.04984,-0.0868,0.5355
13.4763,0,0,5,5,23.4763,23.4763,-20.7328,1.10638,21.5287,-0.285926,0.0613424,0.0942247,0,1,2.6425,1.2425,-0.595,-0.30805,0.427,-0.854732,-0.049,-0.09156,0.53466
13.6852,0,0,5,5,23.6852,23.6852,-21.0542,1.31991,21.5211,0.205159,0.278034,0.140346,0,1,2.2925,1.0675,-0.42,0.188856,0.648674,-0.806908,-0.049,-0.09156,0.53466
13.8903,0,0,5,5,23.8903,23.8903,-21.3696,1.52854,21.5143,0.201519,0.272937,0.138271,0,1,2.555,0.0525,0.3325,0.188856,0.648674,-0.806908,-0.049,-0.09156,0.53466
14.0865,0,0,5,5,24.0865,24.0865,-21.6716,1.58458,21.5078,0.0469834,0.214554,0.181313,0,1,2.73,-0.1925,0.7,0.034648,0.595238,-0.762256,-0.049,-0.09156,0.53466
14.2791,0,0,5,5,24.2791,24.2791,-21.9679,1.63948,21.5017,0.0460257,0.209765,0.179366,0,1,2.87,-0.35,0.91,0.034648,0.595238,-0.762256,-0.049,-0.09156,0.53466
14.3296,0,0,5,5,24.3296,24.3296,-22.0455,2.09944,21.5014,0.403188,0.00404604,0.172715,0,1,3.325,-0.5775,0.91,0.40138,0.390888,-0.768112,-0.049,-0.09156,0.53466
14.3784,0,0,5,5,24.3784,24.3784,-22.1207,2.55171,21.5006,0.395301,0.00295099,0.171925,0,1,3.955,-0.56,0.875,0.40138,0.390888,-0.768112,-0.049,-0.09156,0.53466
14.3782,0,0,5,5,24.3782,24.3782,-22.1204,2.55167,21.5029,0.0251348,-0.137245,0.127174,1,1,3.6925,-0.5075,0.9625,0.029646,0.250832,-0.81252,-0.049,-0.09156,0.53466
14.3783,0,0,5,5,24.3783,24.3783,-22.1204,2.55182,21.5042,0.0251322,-0.137247,0.127173,1,1,3.5,-0.175,0.4375,0.029646,0.250832,-0.81252,-0.05236,-0.08666,0.53466
14.3788,0,0,5,5,24.3788,24.3788,-22.1212,2.55247,21.5045,0.203219,0.0411694,-0.141106,1,1,3.1675,0.2975,0.0525,0.208498,0.429074,-1.07872,-0.05236,-0.08666,0.53466
14.3797,0,0,5,5,24.3797,24.3797,-22.1226,2.55256,21.5042,0.203217,0.0411468,-0.141115,1,1,2.8,0.1575,-0.4725,0.208498,0.429074,-1.07872,-0.05236,-0.08666,0.53466
14.3807,0,0,5,5,24.3807,24.3807,-22.1241,2.55283,21.5034,0.0834277,-0.0551143,0.120878,1,1,2.7125,0.35,-0.6475,0.088206,0.332938,-0.818742,-0.05236,-0.08666,0.53466
14.3821,0,0,5,5,24.3821,24.3821,-22.1263,2.55266,21.502,0.0834306,-0.0551498,0.120864,1,1,2.38,0.245,-1.085,0.088206,0.332938,-0.818742,-0.05236,-0.08666,0.53466
14.4539,0,0,5,5,24.4539,24.4539,-22.2367,2.61176,21.4959,0.0572527,0.0961104,0.0356283,0,1,2.485,-0.3325,-1.19,0.062952,0.485804,-0.902556,-0.05236,-0.08666,0.53466
14.5229,0,0,5,5,24.5229,24.5229,-22.3429,2.66993,21.4897,0.0562386,0.0944142,0.0348825,0,1,3.675,-0.2275,-1.19,0.062952,0.485804,-0.902556,-0.05236,-0.08666,0.53466
14.5186,0,0,5,5,24.5186,24.5186,-22.3363,2.62309,21.4893,-0.0421986,0.00694261,-0.0330289,0,1,3.7625,-0.665,-0.9975,-0.036722,0.39833,-0.970022,-0.05236,-0.08666,0.53466
14.5146,0,0,5,5,24.5146,24.5146,-22.3302,2.57742,21.4888,-0.0414024,0.00702682,-0.0329553,0,1,3.5,-0.4725,-0.9975,-0.036722,0.39833,-0.970022,-0.05292,-0.0868,0.53494
14.4685,0,0,5,5,24.4685,24.4685,-22.2593,2.35186,21.4909,-0.209372,-0.070909,0.000989648,0,1,3.7625,-0.07,-0.9275,-0.209352,0.319396,-0.93696,-0.05292,-0.0868,0.53494
14.4233,0,0,5,5,24.4233,24.4233,-22.1896,2.13036,21.4926,-0.205509,-0.069842,0.00158895,0,1,3.7625,-0.07,-0.9275,-0.209352,0.319396,-0.93696,-0.05292,-0.0868,0.53494
14.4249,0,0,5,5,24.4249,24.4249,-22.1922,2.13142,21.4916,0.10001,0.216749,-0.0413374,1,1,2.17,0.8225,-0.595,0.097478,0.60573,-0.979538,-0.05292,-0.0868,0.53494
14.4266,0,0,5,5,24.4266,24.4266,-22.1947,2.13248,21.4906,0.0999911,0.216708,-0.0413548,1,1,2.17,0.8225,-0.595,0.097478,0.60573,-0.979538,-0.05292,-0.0868,0.53494
14.428,0,0,5,5,24.428,24.428,-22.1969,2.13306,21.4909,-0.0560068,0.0767151,-0.0889508,1,1,2.3275,0.28,0,-0.05917,0.465918,-1.02675,-0.05292,-0.0868,0.53494
14.4294,0,0,5,5,24.4294,24.4294,-22.1991,2.13365,21.4912,-0.056017,0.0766796,-0.0889657,1,1,2.3275,0.28,0,-0.05917,0.465918,-1.02675,-0.05292,-0.0868,0.53494
14.4465,0,0,5,5,24.4465,24.4465,-22.2254,2.35637,21.4914,0.189023,-0.0193117,0.105225,0,1,3.045,-0.385,0.3325,0.190808,0.370392,-0.833748,-0.05292,-0.0868,0.53494
14.4632,0,0,5,5,24.4632,24.4632,-22.2511,2.57507,21.4916,0.18521,-0.0196654,0.104903,0,1,3.045,-0.385,0.3325,0.190808,0.370392,-0.833748,-0.04368,-0.08554,0.53886
14.4515,0,0,5,5,24.4515,24.4515,-22.233,2.80738,21.4938,0.212624,-0.0356663,0.0416505,0,1,3.185,-0.7,0.2275,0.222406,0.354044,-0.896456,-0.04368,-0.08554,0.53886
14.4399,0,0,5,5,24.4399,24.4399,-22.2153,3.03552,21.496,0.208647,-0.0353026,0.0415799,0,1,3.185,-0.7,0.2275,0.222406,0.354044,-0.896456,-0.04368,-0.08554,0.53886
14.4414,0,0,5,5,24.4414,24.4414,-22.2175,3.03694,21.4949,-0.143807,-0.0506048,0.274428,1,1,2.3275,1.05,-0.595,-0.131516,0.338794,-0.665388,-0.04368,-0.08554,0.53886
14.4429,0,0,5,5,24.4429,24.4429,-22.2198,3.03836,21.4937,-0.143832,-0.0506412,0.274412,1,1,2.3275,1.05,-0.595,-0.131516,0.338794,-0.665388,-0.04368,-0.08554,0.53886
14.5608,0,0,5,5,24.5608,24.5608,-22.4012,3.01475,21.4831,-0.0257009,0.100183,0.155324,0,1,2.0475,0.2975,-0.9275,-0.013298,0.492392,-0.782386,-0.04368,-0.08554,0.53886
14.5715,0,0,5,5,24.5715,24.5715,-22.4177,2.69168,21.4813,-0.314065,0.0117568,0.00584554,0,1,1.9425,0.175,-0.9275,-0.308538,0.40443,-0.93086,-0.04368,-0.08554,0.53886
14.5814,0,0,5,5,24.5814,24.5814,-22.4329,2.37389,21.4796,-0.308524,0.0114181,0.00597089,0,1,2.5025,-0.035,-1.015,-0.308538,0.40443,-0.93086,-0.04368,-0.08554,0.53886
14.5832,0,0,5,5,24.5832,24.5832,-22.4357,2.37284,21.479,-0.101372,0.0900226,-0.18056,1,1,2.03,-0.4025,-0.8575,-0.100528,0.482998,-1.11593,-0.04466,-0.0896,0.53396
14.5844,0,0,5,5,24.5844,24.5844,-22.4376,2.37212,21.4788,-0.10136,0.0899925,-0.180572,1,1,2.5375,-0.3325,-0.525,-0.100528,0.482998,-1.11593,-0.04466,-0.0896,0.53396
14.5855,0,0,5,5,24.5855,24.5855,-22.4393,2.37207,21.479,-0.0728096,0.163119,-0.12501,1,1,2.625,-0.035,-0.21,-0.071858,0.556076,-1.06079,-0.04466,-0.0896,0.53396
14.5871,0,0,5,5,24.5871,24.5871,-22.4417,2.37305,21.4791,0.216552,-0.129901,0.216524,1,1,2.2225,0.525,0,0.218746,0.263398,-0.721874,-0.04466,-0.0896,0.53396
14.5882,0,0,5,5,24.5882,24.5882,-22.4435,2.37461,21.479,0.216525,-0.12993,0.216511,1,1,2.5725,0.8925,0.0175,0.218746,0.263398,-0.721874,-0.04466,-0.0896,0.53396
14.6166,0,0,5,5,24.6166,24.6166,-22.4871,2.25078,21.4775,-0.115644,0.0184504,0.0516729,0,1,1.925,1.015,0.21,-0.116998,0.41236,-0.885232,-0.04466,-0.0896,0.53396
14.645,0,0,5,5,24.645,24.645,-22.5308,2.12862,21.4774,-0.113514,0.0177156,0.0514566,0,1,1.435,0.42,0.7525,-0.116998,0.41236,-0.885232,-0.04466,-0.0896,0.53396
14.6975,0,0,5,5,24.6975,24.6975,-22.6115,1.78939,21.4765,-0.330158,0.0629902,0.0452016,0,1,1.96,-0.2975,0.7,-0.340502,0.458964,-0.891088,-0.04466,-0.0896,0.53396
14.7488,0,0,5,5,24.7488,24.7488,-22.6904,1.455,21.476,-0.324324,0.0616558,0.0448237,0,1,2.17,-0.8575,0.42,-0.340502,0.458964,-0.891088,-0.04802,-0.0861,0.53578
14.75,0,0,5,5,24.75,24.75,-22.6923,1.45397,21.4774,0.326736,0.0627241,-0.102358,1,1,2.485,-0.84,0.21,0.313296,0.460062,-1.03712,-0.04802,-0.0861,0.53578
14.75,0,0,5,5,24.75,24.75,-22.6923,1.45305,21.4786,0.326752,0.0627238,-0.102358,1,1,3.5525,-0.7525,0.175,0.313296,0.460062,-1.03712,-0.04802,-0.0861,0.53578
14.7507,0,0,5,5,24.7507,24.7507,-22.6934,1.45159,21.479,0.205777,0.211823,-0.143183,1,1,2.9575,-0.84,-0.42,0.191784,0.609024,-1.07763,-0.04802,-0.0861,0.53578
14.7521,0,0,5,5,24.7521,24.7521,-22.6955,1.45061,21.4778,0.205794,0.211789,-0.143197,1,1,2.415,-0.2275,-1.1725,0.191784,0.609024,-1.07763,-0.04802,-0.0861,0.53578
14.7913,0,0,5,5,24.7913,24.7913,-22.7559,1.17928,21.4744,-0.271284,0.0666658,-0.00776856,0,1,2.3975,0.035,-1.575,-0.292068,0.465064,-0.942938,-0.04802,-0.0861,0.53578
14.8319,0,0,5,5,24.8319,24.8319,-22.8183,0.913401,21.471,-0.266644,0.0656291,-0.00811218,0,1,0.6475,0.455,-1.61,-0.292068,0.465064,-0.942938,-0.04802,-0.0861,0.53578
14.681,0,0,5,5,24.681,24.681,-22.5861,1.07748,21.4725,0.137591,-0.237886,0.0484863,0,1,1.3475,0.2975,-1.785,0.116754,0.158112,-0.888282,-0.04802,-0.0861,0.53578
14.5324,0,0,5,5,24.5324,24.5324,-22.3575,1.23878,21.4747,0.134777,-0.234177,0.0499588,0,1,1.6975,0.3675,-1.75,0.116754,0.158112,-0.888282,-0.05348,-0.08792,0.53606
14.5339,0,0,5,5,24.5339,24.5339,-22.3598,1.23777,21.4727,0.0622675,0.128991,-0.0902176,1,1,2.2925,-0.0875,-1.5575,0.04392,0.52094,-1.02736,-0.05348,-0.08792,0.53606
14.5354,0,0,5,5,24.5354,24.5354,-22.3622,1.23709,21.472,0.0622794,0.128952,-0.0902332,1,1,2.24,-0.175,-0.84,0.04392,0.52094,-1.02736,-0.05348,-0.08792,0.53606
14.5362,0,0,5,5,24.5362,24.5362,-22.3634,1.23611,21.4714,-0.0414522,0.0337955,-0.128355,1,1,2.905,-0.3675,-0.84,-0.060268,0.425902,-1.06518,-0.05348,-0.08792,0.53606
14.5378,0,0,5,5,24.5378,24.5378,-22.3658,1.23676,21.4708,-0.0414636,0.0337565,-0.128371,1,1,2.2225,0.5075,-0.455,-0.060268,0.425902,-1.06518,-0.05348,-0.08792,0.53606
14.606,0,0,5,5,24.606,24.606,-22.4708,1.4812,21.4685,0.240978,0.0951193,0.0334976,0,1,1.8375,0.5425,0.035,0.227652,0.488854,-0.903776,-0.05348,-0.08792,0.53606
14.6736,0,0,5,5,24.6736,24.6736,-22.5747,1.72144,21.4668,0.236786,0.0934893,0.0326948,0,1,1.3825,0.42,0.5425,0.227652,0.488854,-0.903776,-0.05348,-0.08792,0.53606
14.6765,0,0,5,5,24.6765,24.6765,-22.5792,1.72235,21.4684,0.322175,0.0283232,0.26393,1,1,1.015,0.1575,0.77,0.313418,0.423828,-0.674294,-0.05348,-0.08792,0.53606
14.6794,0,0,5,5,24.6794,24.6794,-22.5837,1.72185,21.4702,0.322183,0.0282515,0.263901,1,1,1.05,-0.6475,0.5775,0.313418,0.423828,-0.674294,-0.05348,-0.08792,0.53606
14.681,0,0,5,5,24.681,24.681,-22.5862,1.72106,21.4724,0.000624553,-0.0414012,-0.182665,1,1,2.135,-0.8925,0.7175,-0.009516,0.354288,-1.1174,-0.04858,-0.0875,0.546
14.6826,0,0,5,5,24.6826,24.6826,-22.5886,1.72159,21.4741,0.0392478,-0.26078,0.150878,1,1,2.17,-0.0875,0.7875,0.02928,0.135176,-0.786412,-0.04858,-0.0875,0.546
14.6836,0,0,5,5,24.6836,24.6836,-22.5901,1.72056,21.4755,0.0392657,-0.260804,0.150869,1,1,2.73,-0.84,0.2275,0.02928,0.135176,-0.786412,-0.04858,-0.0875,0.546
14.6854,0,0,5,5,24.6854,24.6854,-22.593,1.72007,21.4762,-0.178063,-0.11845,-0.162546,1,1,1.96,-0.4025,-0.0175,-0.188978,0.277428,-1.09739,-0.04858,-0.0875,0.546
14.6871,0,0,5,5,24.6871,24.6871,-22.5956,1.72028,21.4755,-0.178067,-0.118493,-0.162564,1,1,2.1,0.2975,-0.6125,-0.188978,0.277428,-1.09739,-0.04858,-0.0875,0.546
14.6896,0,0,5,5,24.6896,24.6896,-22.5994,1.72007,21.4741,0.0400032,0.0463166,-0.199228,1,1,1.4525,0.245,-1.12,0.030012,0.442128,-1.13375,-0.04858,-0.0875,0.546
14.6928,0,0,5,5,24.6928,24.6928,-22.6043,1.72011,21.4724,0.0400026,0.0462388,-0.19926,1,1,0.8925,0.42,-1.1725,0.030012,0.442128,-1.13375,-0.04858,-0.0875,0.546
14.7828,0,0,5,5,24.7828,24.7828,-22.7428,1.73487,21.4665,0.0133827,0.108617,0.0659844,0,1,0.9975,0.4025,-1.3125,0.003538,0.506666,-0.869616,-0.04886,-0.08848,0.54026
14.7854,0,0,5,5,24.7854,24.7854,-22.7468,1.73421,21.4652,0.23219,0.333876,0.463081,1,1,1.33,-0.035,-1.1375,0.22326,0.731756,-0.475556,-0.04886,-0.08848,0.54026
14.7882,0,0,5,5,24.7882,24.7882,-22.751,1.73418,21.4641,0.23219,0.333808,0.463053,1,1,1.2425,0.2625,-0.8925,0.22326,0.731756,-0.475556,-0.04886,-0.08848,0.54026
14.6229,0,0,5,5,24.6229,24.6229,-22.4968,1.64593,21.4714,-0.0835906,-0.241973,-0.0389191,0,1,1.7675,0.175,-0.385,-0.095404,0.1525,-0.97539,-0.04886,-0.08848,0.54026
14.4606,0,0,5,5,24.4606,24.4606,-22.2471,1.5592,21.4782,-0.0820775,-0.23796,-0.0372216,0,1,1.7675,0.175,-0.385,-0.095404,0.1525,-0.97539,-0.04886,-0.08848,0.54026
14.4634,0,0,5,5,24.4634,24.4634,-22.2514,1.56024,21.4786,0.0104765,0.266231,-0.111143,1,1,1.12,0.5075,0.14,-0.00244,0.656238,-1.04871,-0.04886,-0.08848,0.54026
14.4663,0,0,5,5,24.4663,24.4663,-22.2558,1.56127,21.479,0.0104584,0.26616,-0.111172,1,1,1.12,0.5075,0.14,-0.00244,0.656238,-1.04871,-0.04886,-0.08848,0.54026
14.4701,0,0,5,5,24.4701,24.4701,-22.2618,1.56177,21.4794,0.0334106,0.199017,-0.181907,1,1,0.2275,0.1925,0.07,0.020618,0.58926,-1.11886,-0.04886,-0.08848,0.54026
14.474,0,0,5,5,24.474,24.474,-22.2677,1.56226,21.4799,0.033402,0.198921,-0.181947,1,1,0.2275,0.1925,0.07,0.020618,0.58926,-1.11886,-0.0441,-0.08694,0.53228
14.4769,0,0,5,5,24.4769,24.4769,-22.2722,1.56123,21.4803,-0.119652,0.208007,-0.121486,1,1,1.0325,-0.63,-0.28,-0.133102,0.59841,-1.05884,-0.0441,-0.08694,0.53228
14.4799,0,0,5,5,24.4799,24.4799,-22.2767,1.5602,21.4807,-0.119634,0.207934,-0.121515,1,1,1.0325,-0.63,-0.28,-0.133102,0.59841,-1.05884,-0.0441,-0.08694,0.53228
14.482,0,0,5,5,24.482,24.482,-22.28,1.55962,21.4804,0.113143,-0.0621406,0.213376,1,1,1.7675,-0.21,-0.595,0.10065,0.328668,-0.72651,-0.0441,-0.08694,0.53228
14.4841,0,0,5,5,24.4841,24.4841,-22.2832,1.55905,21.4801,0.113153,-0.0621928,0.213354,1,1,1.7675,-0.21,-0.595,0.10065,0.328668,-0.72651,-0.0441,-0.08694,0.53228
14.5105,0,0,5,5,24.5105,24.5105,-22.3238,1.64231,21.4774,0.0716098,-0.00396713,0.0934194,0,1,1.295,-0.3675,-1.505,0.06039,0.387472,-0.845216,-0.0441,-0.08694,0.53228
14.5364,0,0,5,5,24.5364,24.5364,-22.3636,1.72407,21.4746,0.0701834,-0.00459406,0.0931164,0,1,1.295,-0.3675,-1.505,0.06039,0.387472,-0.845216,-0.0441,-0.08694,0.53228
14.6387,0,0,5,5,24.6387,24.6387,-22.5211,1.77862,21.4677,0.0519808,0.125508,0.072738,0,1,0.42,0.0875,-1.715,0.043066,0.519964,-0.86437,-0.0441,-0.08694,0.53228
14.6421,0,0,5,5,24.6421,24.6421,-22.5263,1.77778,21.4658,-0.229244,-0.0108693,0.190611,1,1,0.7,0,-1.505,-0.239364,0.383812,-0.747372,-0.0441,-0.08694,0.53228
14.6452,0,0,5,5,24.6452,24.6452,-22.5311,1.77765,21.4648,-0.229242,-0.0109479,0.190579,1,1,0.8575,0.175,-0.84,-0.239364,0.383812,-0.747372,-0.04886,-0.091,0.52822
14.6474,0,0,5,5,24.6474,24.6474,-22.5345,1.77746,21.4641,-0.0547849,-0.1705,0.147156,1,1,1.6975,0.07,-0.6825,-0.064172,0.22448,-0.790438,-0.04886,-0.091,0.52822
14.6491,0,0,5,5,24.6491,24.6491,-22.5371,1.77916,21.4635,-0.0548144,-0.170542,0.147137,1,1,2.1,1.085,-0.245,-0.064172,0.22448,-0.790438,-0.04886,-0.091,0.52822
14.6521,0,0,5,5,24.6521,24.6521,-22.5416,1.78129,21.4635,0.0437946,0.342562,-0.231698,1,1,1.05,1.19,0.175,0.034892,0.737124,-1.16632,-0.04886,-0.091,0.52822
14.6558,0,0,5,5,24.6558,24.6558,-22.5473,1.783,21.4642,0.0437648,0.342472,-0.231737,1,1,0.385,0.7875,0.49,0.034892,0.737124,-1.16632,-0.04886,-0.091,0.52822
14.66,0,0,5,5,24.66,24.66,-22.5539,1.78478,21.4653,-0.0635381,0.177862,-0.181988,1,1,-0.1225,0.7525,0.6825,-0.072834,0.57279,-1.11691,-0.04886,-0.091,0.52822
14.6645,0,0,5,5,24.6645,24.6645,-22.5608,1.78559,21.4666,-0.0635522,0.177751,-0.182034,1,1,-0.315,0.1575,0.63,-0.072834,0.57279,-1.11691,-0.04886,-0.091,0.52822
14.594,0,0,5,5,24.594,24.594,-22.4522,1.85025,21.4718,0.0551047,-0.122628,0.0322188,0,1,0.8925,-0.2625,0.595,0.047458,0.270962,-0.904996,-0.04886,-0.091,0.52822
14.5232,0,0,5,5,24.5232,24.5232,-22.3435,1.91383,21.477,0.0539956,-0.12086,0.0329082,0,1,2.135,-0.1925,0.5775,0.047458,0.270962,-0.904996,-0.04536,-0.08806,0.53074
14.5244,0,0,5,5,24.5244,24.5244,-22.3453,1.9135,21.4779,0.168319,-0.0750923,-0.157428,1,1,2.52,-0.3675,0.1575,0.16226,0.316712,-1.09385,-0.04536,-0.08806,0.53074
14.5255,0,0,5,5,24.5255,24.5255,-22.347,1.91363,21.4778,0.168317,-0.0751191,-0.157439,1,1,2.6425,0.1225,-0.315,0.16226,0.316712,-1.09385,-0.04536,-0.08806,0.53074
14.5275,0,0,5,5,24.5275,24.5275,-22.35,1.91392,21.4775,0.0599468,0.119135,-0.0673386,1,1,1.855,0.245,-0.3675,0.053436,0.510814,-1.00443,-0.04536,-0.08806,0.53074
14.5306,0,0,5,5,24.5306,24.5306,-22.3547,1.91316,21.477,0.0599601,0.119059,-0.0673692,1,1,0.9625,-0.2625,-0.7525,0.053436,0.510814,-1.00443,-0.04536,-0.08806,0.53074
14.5363,0,0,5,5,24.5363,24.5363,-22.3635,1.97852,21.4756,0.0650159,0.011095,-0.0142264,0,1,1.505,0.07,-1.0325,0.059658,0.403088,-0.9516,-0.04536,-0.08806,0.53074
14.5417,0,0,5,5,24.5417,24.5417,-22.3719,2.04228,21.4743,0.0639036,0.0109743,-0.0143183,0,1,1.61,-0.175,-1.0675,0.059658,0.403088,-0.9516,-0.04536,-0.08806,0.53074
14.5433,0,0,5,5,24.5433,24.5433,-22.3742,2.04106,21.4731,-0.223875,0.213666,0.0145596,1,1,2.275,-0.3675,-1.2075,-0.22936,0.605608,-0.92293,-0.04536,-0.08806,0.53074
14.5451,0,0,5,5,24.5451,24.5451,-22.3771,2.04047,21.4728,-0.223864,0.21362,0.0145408,1,1,1.96,-0.2275,-0.5775,-0.22936,0.605608,-0.92293,-0.0483,-0.09492,0.52682
14.5471,0,0,5,5,24.5471,24.5471,-22.3801,2.03948,21.4729,-0.166627,-0.224131,0.0601353,1,1,1.89,-0.525,-0.4725,-0.171898,0.16836,-0.877668,-0.0483,-0.09492,0.52682
14.5493,0,0,5,5,24.5493,24.5493,-22.3835,2.0404,21.4727,-0.166643,-0.224186,0.0601123,1,1,1.68,0.56,-0.1575,-0.171898,0.16836,-0.877668,-0.0483,-0.09492,0.52682
14.5523,0,0,5,5,24.5523,24.5523,-22.3881,2.04199,21.4734,0.226821,0.0474721,0.185611,1,1,0.9625,0.735,0.4375,0.22326,0.43981,-0.753106,-0.0483,-0.09492,0.52682
14.5549,0,0,5,5,24.5549,24.5549,-22.3922,2.04339,21.4746,0.226797,0.0474066,0.185583,1,1,1.26,0.5075,0.6825,0.22326,0.43981,-0.753106,-0.0483,-0.09492,0.52682
14.5843,0,0,5,5,24.5843,24.5843,-22.4374,2.05256,21.4741,0.0111211,0.0617018,-0.0397184,0,1,1.3125,0.0175,0.315,0.006832,0.454816,-0.976366,-0.0483,-0.09492,0.52682
14.6125,0,0,5,5,24.6125,24.6125,-22.4808,2.06147,21.4735,0.0109656,0.0610038,-0.040013,0,1,1.8375,0,0.21,0.006832,0.454816,-0.976366,-0.0483,-0.09492,0.52682
14.613,0,0,5,5,24.613,24.613,-22.4815,2.06232,21.4744,0.206178,-0.130868,0.18215,1,1,3.1675,0.28,0.4025,0.202886,0.263154,-0.755912,-0.0483,-0.09492,0.52682
14.6142,0,0,5,5,24.6142,24.6142,-22.4834,2.06133,21.4751,0.206196,-0.130898,0.182138,1,1,2.5375,-0.665,-0.14,0.202886,0.263154,-0.755912,-0.04578,-0.0889,0.5257
14.4713,0,0,5,5,24.4713,24.4713,-22.2636,2.10953,21.4831,0.0424426,-0.216738,-0.00650914,0,1,1.96,-0.6825,-0.6475,0.039284,0.17385,-0.944524,-0.04578,-0.0889,0.5257
14.3314,0,0,5,5,24.3314,24.3314,-22.0482,2.15765,21.4898,0.0416033,-0.213248,-0.00512188,0,1,1.6275,0.035,-1.1725,0.039284,0.17385,-0.944524,-0.04578,-0.0889,0.5257
14.3334,0,0,5,5,24.3334,24.3334,-22.0513,2.15674,21.4885,-0.213258,-0.0650362,-0.260014,1,1,1.8725,-0.1925,-1.1725,-0.216672,0.321958,-1.19743,-0.04578,-0.0889,0.5257
14.3344,0,0,5,5,24.3344,24.3344,-22.0529,2.15568,21.4869,-0.213239,-0.0650618,-0.260023,1,1,2.73,-0.1925,-1.4,-0.216672,0.321958,-1.19743,-0.04578,-0.0889,0.5257
14.3577,0,0,5,5,24.3577,24.3577,-22.0887,1.85014,21.4838,-0.290399,0.0124499,0.0571216,0,1,3.0275,-0.4025,-1.6275,-0.29951,0.400038,-0.88267,-0.04578,-0.0889,0.5257
14.3806,0,0,5,5,24.3806,24.3806,-22.1239,1.54983,21.481,-0.28516,0.0118223,0.0570345,0,1,3.0275,-0.4025,-1.6275,-0.29951,0.400038,-0.88267,-0.04578,-0.0889,0.5257
14.4498,0,0,5,5,24.4498,24.4498,-22.2304,1.68639,21.4793,0.125145,0.0509175,0.123155,0,1,3.01,-4.1825,-1.1725,0.114924,0.440786,-0.816302,-0.04578,-0.0889,0.5257
14.5178,0,0,5,5,24.5178,24.5178,-22.3351,1.82052,21.4774,0.122805,0.0492558,0.122396,0,1,3.01,-4.1825,-1.1725,0.114924,0.440786,-0.816302,-0.04872,-0.09142,0.52836
14.5208,0,0,5,5,24.5208,24.5208,-22.3397,1.82693,21.4739,0.483263,0.138091,-0.0575113,1,1,1.0325,4.2875,-0.77,0.47702,0.529602,-0.994788,-0.04872,-0.09142,0.52836
14.5238,0,0,5,5,24.5238,24.5238,-22.3444,1.83334,21.4704,0.483151,0.138017,-0.0575454,1,1,1.0325,4.2875,-0.77,0.47702,0.529602,-0.994788,-0.04872,-0.09142,0.52836
14.526,0,0,5,5,24.526,24.526,-22.3477,1.83384,21.4707,-0.0956158,0.166785,-0.0608874,1,1,1.6975,0.2275,0,-0.104188,0.558394,-0.998082,-0.04872,-0.09142,0.52836
14.5274,0,0,5,5,24.5274,24.5274,-22.3499,1.83451,21.4709,-0.00341983,0.0830932,0.154258,1,1,2.345,0.3325,0,-0.01159,0.474824,-0.784582,-0.04872,-0.09142,0.52836
14.5274,0,0,5,5,24.5274,24.5274,-22.3499,1.83489,21.4719,-0.00342642,0.0830932,0.154257,1,1,3.5525,0.0175,0.315,-0.01159,0.474824,-0.784582,-0.04872,-0.09142,0.52836
14.63,0,0,5,5,24.63,24.63,-22.5077,2.21969,21.4674,0.377766,0.116178,0.128275,0,1,3.5175,0.49,0.595,0.377956,0.510326,-0.809104,-0.04872,-0.09142,0.52836
14.732,0,0,5,5,24.732,24.732,-22.6646,2.59689,21.4614,0.371188,0.113759,0.126969,0,1,2.6775,-0.07,0.035,0.377956,0.510326,-0.809104,-0.04872,-0.09142,0.52836
14.7699,0,0,5,5,24.7699,24.7699,-22.7228,2.44976,21.4595,-0.144262,0.0600189,-0.000693524,0,1,2.03,-0.665,-0.2625,-0.142252,0.457622,-0.935496,-0.0469,-0.09254,0.52612
14.6764,0,0,5,5,24.6764,24.6764,-22.5791,2.72301,21.4659,0.286257,-0.134332,-0.0798435,0,1,1.435,0.945,-0.0875,0.294874,0.26108,-1.0148,-0.0469,-0.09254,0.52612
14.5833,0,0,5,5,24.5833,24.5833,-22.4358,2.98951,21.4733,0.281612,-0.131935,-0.0791011,0,1,2.5375,-0.28,-0.28,0.294874,0.26108,-1.0148,-0.0469,-0.09254,0.52612
14.5836,0,0,5,5,24.5836,24.5836,-22.4364,2.98866,21.4735,-0.253396,0.0771366,-0.175496,1,1,3.2375,-0.4725,-0.385,-0.242414,0.469944,-1.11044,-0.0469,-0.09254,0.52612
14.5836,0,0,5,5,24.5836,24.5836,-22.4363,2.98769,21.474,-0.253379,0.0771366,-0.175495,1,1,3.57,-0.6125,-0.2275,-0.242414,0.469944,-1.11044,-0.0469,-0.09254,0.52612
14.513,0,0,5,5,24.513,24.513,-22.3277,3.20252,21.48,0.20185,-0.113263,0.00835481,0,1,4.7075,0.385,0.035,0.218502,0.277916,-0.928542,-0.0469,-0.09254,0.52612
14.4445,0,0,5,5,24.4445,24.4445,-22.2223,3.41245,21.4879,0.198192,-0.111484,0.00885529,0,1,3.885,-0.5775,0.6125,0.218502,0.277916,-0.928542,-0.0469,-0.09254,0.52612
14.4452,0,0,5,5,24.4452,24.4452,-22.2234,3.41058,21.4893,-0.356965,-0.0190515,-0.130327,1,1,2.94,-1.3125,0.0875,-0.339038,0.37027,-1.06665,-0.0469,-0.09254,0.52612
14.4469,0,0,5,5,24.4469,24.4469,-22.226,3.41171,21.4902,-0.356985,-0.0190931,-0.130346,1,1,2.0825,0.4375,0.455,-0.339038,0.37027,-1.06665,-0.04844,-0.09268,0.52178
14.1931,0,0,5,5,24.1931,24.1931,-21.8355,3.25316,21.5145,-0.151098,-0.38228,0.0198937,0,1,1.68,0.665,0.8225,-0.135054,0.00122,-0.920246,-0.04844,-0.09268,0.52178
13.9422,0,0,5,5,23.9422,23.9422,-21.4495,3.09495,21.5378,-0.148341,-0.376084,0.0225165,0,1,2.765,-0.5775,0.6475,-0.135054,0.00122,-0.920246,-0.04844,-0.09268,0.52178
14.1074,0,0,5,5,24.1074,24.1074,-21.7037,2.88665,21.5257,-0.209584,0.235,0.0955704,0,1,2.2575,-0.6825,0.07,-0.200202,0.615856,-0.846314,-0.04844,-0.09268,0.52178
14.2679,0,0,5,5,24.2679,24.2679,-21.9506,2.68256,21.515,-0.206026,0.23094,0.0941306,0,1,3.8675,-0.35,0.4025,-0.200202,0.615856,-0.846314,-0.04844,-0.09268,0.52178
14.2663,0,0,5,5,24.2663,24.2663,-21.9482,2.68339,21.5169,0.198507,-0.0420951,0.219185,1,1,4.9,0.0525,0.945,0.206058,0.343064,-0.72224,-0.04844,-0.09268,0.52178
14.2661,0,0,5,5,24.2661,24.2661,-21.9479,2.68235,21.5176,0.198525,-0.0420914,0.219187,1,1,3.6925,-0.7,-0.1225,0.206058,0.343064,-0.72224,-0.04844,-0.09268,0.52178
14.271,0,0,5,5,24.271,24.271,-21.9554,2.85552,21.5175,0.157967,-0.0216412,0.0681447,0,1,2.66,-1.015,-0.63,0.16836,0.36356,-0.871934,-0.04844,-0.09268,0.52178
14.2749,0,0,5,5,24.2749,24.2749,-21.9614,3.02946,21.5159,0.154935,-0.02168,0.0679611,0,1,3.4825,1.3825,-0.56,0.16836,0.36356,-0.871934,-0.05026,-0.08974,0.5313
14.1768,0,0,5,5,24.1768,24.1768,-21.8104,3.01405,21.5226,-0.0159697,-0.128546,-0.0916151,0,1,3.57,1.47,-0.49,-0.003538,0.25437,-1.03127,-0.05026,-0.08974,0.5313
14.0814,0,0,5,5,24.0814,24.0814,-21.6636,2.99543,21.5276,-0.0156452,-0.126176,-0.0906519,0,1,2.7125,-0.0875,-2.0475,-0.003538,0.25437,-1.03127,-0.05026,-0.08974,0.5313
14.0822,0,0,5,5,24.0822,24.0822,-21.665,2.99335,21.5246,-0.218976,-0.242952,-0.333851,1,1,2.905,-0.455,-2.3625,-0.207766,0.137738,-1.27258,-0.05026,-0.08974,0.5313
14.0797,0,0,5,5,24.0797,24.0797,-21.6611,2.99476,21.5225,-0.219001,-0.242889,-0.333827,1,1,5.7925,1.26,-1.155,-0.207766,0.137738,-1.27258,-0.05026,-0.08974,0.5313
14.0774,0,0,5,5,24.0774,24.0774,-21.6575,2.99594,21.5208,-0.430649,0.00179021,-0.0783181,1,1,5.6525,1.015,-0.91,-0.42029,0.382104,-1.01907,-0.05026,-0.08974,0.5313
14.0776,0,0,5,5,24.0776,24.0776,-21.6578,2.99353,21.5204,-0.430607,0.0017849,-0.0783178,1,1,3.43,-1.19,-1.0325,-0.42029,0.382104,-1.01907,-0.05026,-0.08974,0.5313
14.1323,0,0,5,5,24.1323,24.1323,-21.742,2.98253,21.5148,-0.0133551,0.0465818,0.0930309,0,1,4.515,0.1225,-0.945,-0.001464,0.42822,-0.84851,-0.05026,-0.08974,0.5313
14.1887,0,0,5,5,24.1887,24.1887,-21.8287,2.974,21.5105,-0.0132065,0.0451744,0.0924768,0,1,2.1875,1.12,0.175,-0.001464,0.42822,-0.84851,-0.05026,-0.08974,0.5313
14.1911,0,0,5,5,24.1911,24.1911,-21.8324,2.97175,21.5039,0.290425,-0.129771,0.324828,1,1,1.715,0.245,-4.3575,0.303414,0.253516,-0.61793,-0.0462,-0.08806,0.52962
14.1924,0,0,5,5,24.1924,24.1924,-21.8344,2.97058,21.5028,-0.151519,-0.0473686,-0.427752,1,1,2.4675,-0.385,-1.1025,-0.140422,0.335866,-1.36469,-0.0462,-0.08806,0.52962
14.1913,0,0,5,5,24.1913,24.1913,-21.8328,2.97073,21.5031,-0.151522,-0.0473417,-0.427742,1,1,4.4975,0.0525,-0.1225,-0.140422,0.335866,-1.36469,-0.0462,-0.08806,0.52962
14.2081,0,0,5,5,24.2081,24.2081,-21.8586,2.94549,21.5022,-0.0236433,0.0576268,-0.0597805,0,1,5.7575,0.455,0.3325,-0.012444,0.441152,-0.999424,-0.0462,-0.08806,0.52962
14.2275,0,0,5,5,24.2275,24.2275,-21.8885,2.91808,21.5016,-0.0231655,0.0571347,-0.0599517,0,1,3.255,-0.9975,-0.175,-0.012444,0.441152,-0.999424,-0.0462,-0.08806,0.52962
14.2273,0,0,5,5,24.2273,24.2273,-21.8882,2.9168,21.5019,-0.308756,-0.0262736,-0.124374,1,1,3.7275,-0.735,-0.4025,-0.299266,0.357826,-1.06335,-0.0462,-0.08806,0.52962
14.2278,0,0,5,5,24.2278,24.2278,-21.8889,2.91974,21.5019,-0.308807,-0.0262837,-0.124381,1,1,3.185,1.61,0.385,-0.299266,0.357826,-1.06335,-0.0462,-0.08806,0.52962
14.3377,0,0,5,5,24.3377,24.3377,-22.058,2.96166,21.4861,0.042892,0.159805,0.0520194,0,1,2.94,1.47,-4.2175,0.054656,0.546438,-0.887184,-0.0462,-0.08806,0.52962
14.4468,0,0,5,5,24.4468,24.4468,-22.2259,3.00318,21.4766,0.0421685,0.157109,0.0508816,0,1,1.7675,0.315,-0.805,0.054656,0.546438,-0.887184,-0.05264,-0.09268,0.53018
14.4573,0,0,5,5,24.4573,24.4573,-22.242,3.28462,21.4753,0.248892,-0.0336894,0.116057,0,1,2.45,0.035,-0.595,0.26718,0.355996,-0.822158,-0.05264,-0.09268,0.53018
14.4641,0,0,5,5,24.4641,24.4641,-22.2525,3.56418,21.4748,0.244021,-0.0337483,0.115718,0,1,5.4425,1.4525,0.4725,0.26718,0.355996,-0.822158,-0.05264,-0.09268,0.53018
14.4631,0,0,5,5,24.4631,24.4631,-22.2509,3.56498,21.4752,-0.126889,-0.0166242,-0.20234,1,1,4.4625,0.3675,0.1225,-0.105286,0.373076,-1.13777,-0.05264,-0.09268,0.53018
14.4637,0,0,5,5,24.4637,24.4637,-22.2518,3.56299,21.4767,-0.126854,-0.0166402,-0.202344,1,1,2.9925,-1.3825,0.07,-0.105286,0.373076,-1.13777,-0.05264,-0.09268,0.53018
14.3094,0,0,5,5,24.3094,24.3094,-22.0145,3.8848,21.494,0.321047,-0.244227,-0.0325622,0,1,4.7425,1.0675,1.4175,0.35014,0.141764,-0.97051,-0.05264,-0.09268,0.53018
14.1576,0,0,5,5,24.1576,24.1576,-21.7809,4.20129,21.5123,0.315537,-0.240308,-0.0314066,0,1,4.7425,1.0675,1.4175,0.35014,0.141764,-0.97051,-0.05264,-0.09268,0.53018
14.0579,0,0,5,5,24.0579,24.0579,-21.6275,3.81436,21.5244,-0.409677,-0.14897,-0.0778071,0,1,0.945,-0.2975,0.21,-0.38491,0.230702,-1.01797,-0.05264,-0.09268,0.53018
13.9598,0,0,5,5,23.9598,23.9598,-21.4767,3.43365,21.5352,-0.403046,-0.146681,-0.0764516,0,1,0.945,-0.2975,0.21,-0.38491,0.230702,-1.01797,-0.05054,-0.0987,0.52472
13.8929,0,0,5,5,23.8929,23.8929,-21.3737,3.89499,21.5438,0.402508,-0.161188,0.162491,0,1,4.62,-0.315,0.9275,0.432124,0.214354,-0.781044,-0.05054,-0.0987,0.52472
13.8269,0,0,5,5,23.8269,23.8269,-21.2722,4.34909,21.5532,0.394603,-0.159335,0.162602,0,1,4.62,-0.315,0.9275,0.432124,0.214354,-0.781044,-0.05054,-0.0987,0.52472
13.8268,0,0,5,5,23.8268,23.8268,-21.272,4.3458,21.5541,-0.0847219,-0.29233,0.108756,1,1,3.605,-1.96,-0.49,-0.049288,0.081496,-0.83448,-0.05054,-0.0987,0.52472
13.8267,0,0,5,5,23.8267,23.8267,-21.2719,4.34252,21.555,-0.0846647,-0.29233,0.108761,1,1,3.605,-1.96,-0.49,-0.049288,0.081496,-0.83448,-0.05054,-0.0987,0.52472
14.0491,0,0,5,5,24.0491,24.0491,-21.614,4.43626,21.5284,0.0988482,0.337233,0.121713,0,1,1.7675,0.9975,-0.2975,0.13664,0.715896,-0.819352,-0.05054,-0.0987,0.52472
14.2679,0,0,5,5,24.2679,24.2679,-21.9506,4.52829,21.5017,0.0972469,0.331842,0.119424,0,1,1.7675,0.9975,-0.2975,0.13664,0.715896,-0.819352,-0.05054,-0.0987,0.52472
14.269,0,0,5,5,24.269,24.269,-21.9523,4.52665,21.5004,-0.20656,0.156439,-0.0902129,1,1,2.6425,-0.5775,-1.3475,-0.168482,0.540704,-1.02736,-0.05054,-0.0987,0.52472
14.2702,0,0,5,5,24.2702,24.2702,-21.9541,4.52502,21.4991,-0.206532,0.15641,-0.0902223,1,1,2.6425,-0.5775,-1.3475,-0.168482,0.540704,-1.02736,-0.05082,-0.0959,0.52626
14.2685,0,0,5,5,24.2685,24.2685,-21.9516,4.52516,21.4982,0.16424,0.0289499,0.248517,1,1,5.0225,0.2975,-0.735,0.203862,0.413336,-0.691252,-0.05082,-0.0959,0.52626
14.2669,0,0,5,5,24.2669,24.2669,-21.9491,4.5253,21.4973,0.164237,0.0289906,0.248533,1,1,5.0225,0.2975,-0.735,0.203862,0.413336,-0.691252,-0.05082,-0.0959,0.52626
14.2603,0,0,5,5,24.2603,24.2603,-21.9389,4.65724,21.4962,0.107881,-0.051135,0.0958496,0,1,2.0825,1.1375,-1.2075,0.149572,0.33306,-0.842654,-0.05082,-0.0959,0.52626
14.2613,0,0,5,5,24.2613,24.2613,-21.9405,4.6593,21.4939,0.168345,0.298855,-0.0644887,1,1,2.7475,1.645,-1.0675,0.210328,0.682712,-1.00174,-0.05082,-0.0959,0.52626
14.2646,0,0,5,5,24.2646,24.2646,-21.9455,4.65989,21.4928,0.168335,0.298774,-0.0645222,1,1,0.805,0.595,-0.77,0.210328,0.682712,-1.00174,-0.05082,-0.0959,0.52626
14.1931,0,0,5,5,24.1931,24.1931,-21.8355,4.42217,21.5008,-0.236693,-0.101857,-0.0412497,0,1,3.255,-0.1925,-0.8575,-0.200568,0.280844,-0.97966,-0.05082,-0.0959,0.52626
14.121,0,0,5,5,24.121,24.121,-21.7246,4.18845,21.5089,-0.232626,-0.100179,-0.0402493,0,1,4.76,-0.3675,-0.4725,-0.200568,0.280844,-0.97966,-0.05082,-0.0959,0.52626
14.119,0,0,5,5,24.119,24.119,-21.7215,4.18824,21.5086,-0.164833,-0.138232,0.19325,1,1,5.3375,-0.0175,-0.5075,-0.132492,0.24278,-0.747982,-0.04634,-0.0917,0.52374
14.1181,0,0,5,5,24.1181,24.1181,-21.7202,4.18578,21.5093,0.0868068,0.203742,-0.0906268,1,1,4.2525,-1.47,-0.42,0.12017,0.58438,-1.02968,-0.04634,-0.0917,0.52374
14.119,0,0,5,5,24.119,24.119,-21.7215,4.18713,21.5087,0.0867834,0.203721,-0.0906369,1,1,2.8525,0.8925,-0.3325,0.12017,0.58438,-1.02968,-0.04634,-0.0917,0.52374
14.1196,0,0,5,5,24.1196,24.1196,-21.7225,4.18837,21.5072,-0.331392,0.591092,0.105581,1,1,3.08,1.015,-0.805,-0.299754,0.971364,-0.834968,-0.04634,-0.0917,0.52374
14.1284,0,0,5,5,24.1284,24.1284,-21.736,4.18911,21.5058,-0.331405,0.590874,0.105493,1,1,-3.9375,0.735,-0.8925,-0.299754,0.971364,-0.834968,-0.04634,-0.0917,0.52374
14.1294,0,0,5,5,24.1294,24.1294,-21.7376,4.18905,21.5045,-0.0274465,-0.128844,0.327405,1,1,2.765,0.28,-1.015,0.00549,0.252418,-0.614758,-0.04634,-0.0917,0.52374
14.1271,0,0,5,5,24.1271,24.1271,-21.734,4.18816,21.5038,-0.0274312,-0.128786,0.327429,1,1,5.6,-0.315,-0.8225,0.00549,0.252418,-0.614758,-0.04634,-0.0917,0.52374
14.0074,0,0,5,5,24.0074,24.0074,-21.5498,4.38813,21.5174,0.184361,-0.190927,0.0149731,0,1,4.76,-0.35,-0.49,0.221674,0.18727,-0.925736,-0.04634,-0.0917,0.52374
13.8891,0,0,5,5,23.8891,23.8891,-21.3679,4.58417,21.5326,0.18095,-0.187882,0.0158824,0,1,5.1975,-0.8925,0.14,0.221674,0.18727,-0.925736,-0.04578,-0.0945,0.51954
13.7687,0,0,5,5,23.7687,23.7687,-21.1826,4.69128,21.5488,0.103644,-0.179939,-0.0453011,0,1,2.8525,0.2975,0.525,0.145912,0.19215,-0.987468,-0.04578,-0.0945,0.51954
13.6534,0,0,5,5,23.6534,23.6534,-21.0052,4.79762,21.5632,0.101795,-0.177005,-0.0443339,0,1,0.2975,1.3125,-0.2625,0.145912,0.19215,-0.987468,-0.04578,-0.0945,0.51954
13.6587,0,0,5,5,23.6587,23.6587,-21.0134,4.7994,21.5627,-0.29756,0.257023,-0.254629,1,1,-0.98,1.1025,-0.1925,-0.255102,0.62586,-1.19609,-0.04578,-0.0945,0.51954
13.6601,0,0,5,5,23.6601,23.6601,-21.0155,4.80036,21.5646,-0.297577,0.256991,-0.254643,1,1,2.3275,0.1575,0.945,-0.255102,0.62586,-1.19609,-0.04578,-0.0945,0.51954
13.6585,0,0,5,5,23.6585,23.6585,-21.013,4.80056,21.5668,-0.0179199,0.0534447,-0.15295,1,1,4.83,-0.3325,0.9625,0.025742,0.422486,-1.09519,-0.04578,-0.0945,0.51954
13.6554,0,0,5,5,23.6554,23.6554,-21.0083,4.79994,21.5698,-0.0179091,0.0535214,-0.15292,1,1,6.09,-0.945,1.225,0.025742,0.422486,-1.09519,-0.04578,-0.0945,0.51954
13.4774,0,0,5,5,23.4774,23.4774,-20.7345,4.86662,21.5949,0.0573456,-0.262455,-0.014842,0,1,7.8575,-0.9625,0.98,0.10248,0.102358,-0.959774,-0.04578,-0.0945,0.51954
13.3078,0,0,5,5,23.3078,23.3078,-20.4735,4.93271,21.6202,0.0561965,-0.258172,-0.0133371,0,1,3.2375,-0.6825,1.3125,0.10248,0.102358,-0.959774,-0.05054,-0.09646,0.52234
13.3283,0,0,5,5,23.3283,23.3283,-20.5051,4.71652,21.62,-0.214116,0.0220935,0.0192262,0,1,1.54,-0.0525,0.9975,-0.172752,0.382958,-0.927566,-0.05054,-0.09646,0.52234
13.3501,0,0,5,5,23.3501,23.3501,-20.5386,4.50421,21.6171,-0.210422,0.0214435,0.019301,0,1,0.2975,0.6125,-0.5075,-0.172752,0.382958,-0.927566,-0.05054,-0.09646,0.52234
13.355,0,0,5,5,23.355,23.355,-20.5462,4.50559,21.6167,-0.0652705,0.228325,-0.142424,1,1,-0.665,0.8575,-0.21,-0.026962,0.589748,-1.088,-0.05054,-0.09646,0.52234
13.3533,0,0,5,5,23.3533,23.3533,-20.5436,4.50504,21.6166,-0.065261,0.228367,-0.142408,1,1,5.0225,-0.2625,-0.42,-0.026962,0.589748,-1.088,-0.05054,-0.09646,0.52234
13.3505,0,0,5,5,23.3505,23.3505,-20.5392,4.50264,21.6164,0.0942915,0.114982,0.212574,1,1,6.0375,-1.2425,-0.91,0.133224,0.47641,-0.735782,-0.05054,-0.09646,0.52234
13.3482,0,0,5,5,23.3482,23.3482,-20.5357,4.50018,21.6161,0.0943343,0.115037,0.212599,1,1,5.5475,-1.26,-0.9625,0.133224,0.47641,-0.735782,-0.05054,-0.09646,0.52234
13.4241,0,0,5,5,23.4241,23.4241,-20.6524,4.71116,21.6069,0.206683,0.0916247,0.0852168,0,1,4.235,-1.155,-0.56,0.249734,0.454816,-0.861198,-0.05054,-0.09646,0.52234
13.501,0,0,5,5,23.501,23.501,-20.7708,4.923,21.5953,0.202999,0.089808,0.084198,0,1,2.275,1.7325,-0.7525,0.249734,0.454816,-0.861198,-0.0462,-0.09576,0.52612
13.5056,0,0,5,5,23.5056,23.5056,-20.7778,4.92502,21.5927,-0.083014,0.612398,-0.312849,1,1,-0.21,1.68,-1.295,-0.037454,0.976976,-1.25514,-0.0462,-0.09576,0.52612
13.5101,0,0,5,5,23.5101,23.5101,-20.7848,4.92705,21.5901,-0.0830493,0.612286,-0.312894,1,1,-0.21,1.68,-1.295,-0.037454,0.976976,-1.25514,-0.0462,-0.09576,0.52612
13.5903,0,0,5,5,23.5903,23.5903,-20.9081,5.02371,21.5785,0.0965267,0.111324,0.0502561,0,1,3.0975,0.1575,-0.8575,0.14457,0.478484,-0.893894,-0.0462,-0.09576,0.52612
13.6691,0,0,5,5,23.6691,23.6691,-21.0294,5.11868,21.5668,0.0948756,0.109408,0.049365,0,1,3.0975,0.1575,-0.8575,0.14457,0.478484,-0.893894,-0.0462,-0.09576,0.52612
13.4696,0,0,5,5,23.4696,23.4696,-20.7224,4.66889,21.5926,-0.424551,-0.324889,0.0768512,0,1,5.005,-1.4875,-0.9975,-0.38491,0.039894,-0.869128,-0.0462,-0.09576,0.52612
13.2733,0,0,5,5,23.2733,23.2733,-20.4204,4.22561,21.6156,-0.416837,-0.32018,0.0792596,0,1,5.005,-1.4875,-0.9975,-0.38491,0.039894,-0.869128,-0.0462,-0.09576,0.52612
12.9781,0,0,5,5,22.9781,22.9781,-19.9663,4.53568,21.6494,0.268778,-0.476881,0.0765583,0,1,2.8,1.0675,-0.525,0.309026,-0.124196,-0.87413,-0.0462,-0.09576,0.52612
12.6871,0,0,5,5,22.6871,22.6871,-19.5186,4.84092,21.6851,0.263468,-0.469403,0.0787795,0,1,2.8,1.0675,-0.525,0.309026,-0.124196,-0.87413,-0.049,-0.09184,0.52556
12.6915,0,0,5,5,22.6915,22.6915,-19.5253,4.84246,21.6838,0.336697,0.395144,0.0642302,1,1,-0.1575,1.12,-0.665,0.382592,0.739564,-0.888526,-0.049,-0.09184,0.52556
12.6908,0,0,5,5,22.6908,22.6908,-19.5243,4.84341,21.6829,0.0581139,0.0742119,-0.153138,1,1,4.1825,0.735,-0.63,0.102846,0.418948,-1.10422,-0.049,-0.09184,0.52556
12.6899,0,0,5,5,22.6899,22.6899,-19.5228,4.84123,21.682,0.0581517,0.0742351,-0.153127,1,1,4.445,-0.9975,-1.2075,0.102846,0.418948,-1.10422,-0.049,-0.09184,0.52556
12.4902,0,0,5,5,22.4902,22.4902,-19.2157,4.77418,21.7059,-0.0683637,-0.296787,-0.0450351,0,1,5.7575,-0.805,-1.47,-0.025376,0.04331,-0.998814,-0.049,-0.09184,0.52556
12.2964,0,0,5,5,22.2964,22.2964,-18.9175,4.70906,21.7308,-0.067231,-0.291915,-0.0432518,0,1,3.5875,-0.6125,-0.35,-0.025376,0.04331,-0.998814,-0.049,-0.09184,0.52556
12.2989,0,0,5,5,22.2989,22.2989,-18.9214,4.70964,21.7311,0.469118,-0.30187,0.240491,1,1,1.4,0.2975,-0.035,0.513254,0.033428,-0.717238,-0.049,-0.09184,0.52556
12.3015,0,0,5,5,22.3015,22.3015,-18.9253,4.71065,21.7297,0.469101,-0.301935,0.240467,1,1,1.4,0.84,-0.84,0.513254,0.033428,-0.717238,-0.049,-0.09184,0.52556
12.3062,0,0,5,5,22.3062,22.3062,-18.9326,4.71338,21.7288,0.283302,0.295269,-0.0935057,1,1,-0.4375,1.715,-0.28,0.326716,0.63013,-1.04859,-0.049,-0.09184,0.52556
12.3045,0,0,5,5,22.3045,22.3045,-18.9301,4.71485,21.7307,0.283276,0.295311,-0.0934935,1,1,4.9,0.49,1.015,0.326716,0.63013,-1.04859,-0.0462,-0.09562,0.52066
12.3025,0,0,5,5,22.3025,22.3025,-18.9269,4.71512,21.733,-0.0155834,0.416513,-0.0350755,1,1,5.2325,-0.2625,1.0325,0.026596,0.751154,-0.99064,-0.0462,-0.09562,0.52066
12.3019,0,0,5,5,22.3019,22.3019,-18.926,4.71295,21.7352,-0.0155458,0.416527,-0.0350672,1,1,4.0075,-1.5925,0.525,0.026596,0.751154,-0.99064,-0.0462,-0.09562,0.52066
12.2605,0,0,5,5,22.2605,22.2605,-18.8623,4.98161,21.7423,0.236603,-0.0949852,0.107168,0,1,5.215,-0.9625,0.6125,0.284504,0.238998,-0.849486,-0.0462,-0.09562,0.52066
12.2236,0,0,5,5,22.2236,22.2236,-18.8055,5.24992,21.7498,0.231938,-0.0939163,0.107091,0,1,1.925,1.33,1.4875,0.284504,0.238998,-0.849486,-0.0462,-0.09562,0.52066
12.3155,0,0,5,5,22.3155,22.3155,-18.9469,5.01063,21.7393,-0.238061,0.116748,0.0738221,0,1,1.68,-0.0175,0.8225,-0.191662,0.451888,-0.88206,-0.0462,-0.09562,0.52066
12.4054,0,0,5,5,22.4054,22.4054,-19.0852,4.77587,21.7281,-0.233978,0.114362,0.0733693,0,1,2.135,0.5425,0.1575,-0.191662,0.451888,-0.88206,-0.0462,-0.09562,0.52066
12.2811,0,0,5,5,22.2811,22.2811,-18.894,5.00625,21.7458,0.195234,-0.209194,0.0790448,0,1,3.9725,1.1725,0.98,0.24339,0.125416,-0.87718,-0.0462,-0.09562,0.52066
12.157,0,0,5,5,22.157,22.157,-18.703,5.22933,21.7643,0.191356,-0.20594,0.0797857,0,1,5.5475,-0.77,0.5425,0.24339,0.125416,-0.87718,-0.04872,-0.09044,0.525
12.1557,0,0,5,5,22.1557,22.1557,-18.7011,5.22634,21.7655,-0.612828,0.0379783,-0.21798,1,1,4.62,-1.855,-0.1925,-0.56425,0.36905,-1.17266,-0.04872,-0.09044,0.525
12.1531,0,0,5,5,22.1531,22.1531,-18.6971,5.22542,21.7657,-0.612811,0.0380433,-0.217956,1,1,5.7925,-0.525,-0.35,-0.56425,0.36905,-1.17266,-0.04872,-0.09044,0.525
12.1529,0,0,5,5,22.1529,22.1529,-18.6968,5.22615,21.7658,0.0835317,0.198522,-0.103245,1,1,3.71,0.4025,-0.0525,0.135054,0.529358,-1.05884,-0.04872,-0.09044,0.525
12.1561,0,0,5,5,22.1561,22.1561,-18.7018,5.22541,21.7655,0.0835446,0.198441,-0.103272,1,1,0.8225,-0.315,-0.63,0.135054,0.529358,-1.05884,-0.04872,-0.09044,0.525
12.1588,0,0,5,5,22.1588,22.1588,-18.7058,5.22535,21.7635,-0.0116992,0.254919,-0.255627,1,1,1.4175,0.3675,-1.4,0.039406,0.585844,-1.21,-0.04872,-0.09044,0.525
12.1599,0,0,5,5,22.1599,22.1599,-18.7075,5.22672,21.7635,-0.011723,0.254892,-0.255639,1,1,2.6075,0.77,0.0175,0.039406,0.585844,-1.21,-0.04872,-0.09044,0.525
12.1587,0,0,5,5,22.1587,22.1587,-18.7057,5.22686,21.7644,0.25858,0.0460854,0.256206,1,1,4.5675,-0.0525,0.1925,0.310856,0.377224,-0.70211,-0.04872,-0.09044,0.525
12.1577,0,0,5,5,22.1577,22.1577,-18.7042,5.22559,21.7644,0.258602,0.0461088,0.256216,1,1,4.3925,-0.6825,-0.5075,0.310856,0.377224,-0.70211,-0.05488,-0.09758,0.52556
12.2853,0,0,5,5,22.2853,22.2853,-18.9005,5.03713,21.7467,-0.187133,0.176146,0.0864633,0,1,4.165,-1.295,-0.7525,-0.140056,0.510448,-0.869738,-0.05488,-0.09758,0.52556
12.4116,0,0,5,5,22.4116,22.4116,-19.0948,4.85545,21.7298,-0.183974,0.172863,0.0856221,0,1,3.4125,0.77,-0.14,-0.140056,0.510448,-0.869738,-0.05488,-0.09758,0.52556
12.4583,0,0,5,5,22.4583,22.4583,-19.1667,4.67573,21.722,-0.184006,0.079024,-0.00773636,0,1,2.695,0.735,-1.26,-0.143228,0.417972,-0.962214,-0.05488,-0.09758,0.52556
12.5042,0,0,5,5,22.5042,22.5042,-19.2373,4.49906,21.7145,-0.180933,0.0777828,-0.00790752,0,1,2.695,0.735,-1.26,-0.143228,0.417972,-0.962214,-0.05488,-0.09758,0.52556
12.5059,0,0,5,5,22.5059,22.5059,-19.2399,4.5003,21.7126,0.0544848,-0.155643,-0.140708,1,1,2.205,1.085,-1.1025,0.093208,0.18483,-1.09397,-0.05488,-0.09758,0.52556
12.5076,0,0,5,5,22.5076,22.5076,-19.2425,4.50155,21.7107,0.0544632,-0.155685,-0.140725,1,1,2.205,1.085,-1.1025,0.093208,0.18483,-1.09397,-0.05488,-0.09758,0.52556
12.5429,0,0,5,5,22.5429,22.5429,-19.2967,4.50293,21.7042,-0.00435994,0.0202635,0.0956377,0,1,4.4625,-0.14,-1.6275,0.03416,0.361486,-0.859124,-0.05488,-0.09758,0.52556
12.5775,0,0,5,5,22.5775,22.5775,-19.35,4.50428,21.6978,-0.00438346,0.0193886,0.0953289,0,1,4.4625,-0.14,-1.6275,0.03416,0.361486,-0.859124,-0.04942,-0.09436,0.5236
12.5763,0,0,5,5,22.5763,22.5763,-19.3482,4.50543,21.6963,0.0207442,0.286877,0.294761,1,1,4.6725,0.9625,-0.9275,0.059414,0.628666,-0.66124,-0.04942,-0.09436,0.5236
12.5779,0,0,5,5,22.5779,22.5779,-19.3506,4.50545,21.6954,0.0304627,0.0408744,-0.207621,1,1,2.275,0.21,-0.77,0.069174,0.382958,-1.15973,-0.04942,-0.09436,0.5236
12.5805,0,0,5,5,22.5805,22.5805,-19.3546,4.50575,21.6932,0.0304574,0.0408092,-0.207644,1,1,1.435,0.6125,-1.4175,0.069174,0.382958,-1.15973,-0.04942,-0.09436,0.5236
12.5818,0,0,5,5,22.5818,22.5818,-19.3566,4.50782,21.6909,-0.189832,0.0655685,-0.117906,1,1,2.5375,1.6275,-1.1725,-0.152012,0.407724,-1.07067,-0.04942,-0.09436,0.5236
12.5823,0,0,5,5,22.5823,22.5823,-19.3573,4.50789,21.6919,-0.189833,0.0655569,-0.11791,1,1,3.1325,-0.14,0.2975,-0.152012,0.407724,-1.07067,-0.04942,-0.09436,0.5236
12.5813,0,0,5,5,22.5813,22.5813,-19.3558,4.50711,21.6934,-0.25773,-0.0509274,0.106112,1,1,4.3575,-0.7,0.4025,-0.22021,0.291336,-0.848388,-0.04942,-0.09436,0.5236
12.5795,0,0,5,5,22.5795,22.5795,-19.353,4.50576,21.6956,-0.257707,-0.0508823,0.106129,1,1,5.04,-1.1375,0.63,-0.22021,0.291336,-0.848388,-0.04942,-0.09436,0.5236
12.657,0,0,5,5,22.657,22.657,-19.4724,4.8566,21.688,0.338638,0.0744596,0.145541,0,1,4.2525,-0.98,0.77,0.384788,0.418338,-0.808128,-0.04774,-0.09198,0.51954
12.6574,0,0,5,5,22.6574,22.6574,-19.4729,4.85806,21.6896,-0.184991,0.191326,-0.0693782,1,1,3.185,0.525,0.8575,-0.141032,0.535092,-1.02138,-0.04774,-0.09198,0.51954
12.6599,0,0,5,5,22.6599,22.6599,-19.4767,4.85898,21.6909,-0.185007,0.191265,-0.0694015,1,1,1.3825,0.28,0.6125,-0.141032,0.535092,-1.02138,-0.04774,-0.09198,0.51954
12.6612,0,0,5,5,22.6612,22.6612,-19.4787,4.86051,21.6917,-0.0560157,-0.042518,-0.207241,1,1,2.415,0.7175,0.455,-0.011468,0.301584,-1.15815,-0.04774,-0.09198,0.51954
12.6602,0,0,5,5,22.6602,22.6602,-19.4773,4.86115,21.6936,-0.0560269,-0.0424941,-0.207233,1,1,4.2875,0,0.91,-0.011468,0.301584,-1.15815,-0.04774,-0.09198,0.51954
12.5389,0,0,5,5,22.5389,22.5389,-19.2906,4.73347,21.7111,-0.126333,-0.184946,-0.00532776,0,1,4.445,-0.8925,0.63,-0.084302,0.156282,-0.959042,-0.04774,-0.09198,0.51954
12.4188,0,0,5,5,22.4188,22.4188,-19.1059,4.60648,21.7275,-0.124124,-0.18197,-0.00410052,0,1,5.1975,-1.5925,0.1225,-0.084302,0.156282,-0.959042,-0.04774,-0.09198,0.51954
12.4785,0,0,5,5,22.4785,22.4785,-19.1977,4.5752,21.7188,-0.0397547,0.0664992,0.0782838,0,1,4.6025,3.57,0.21,-0.000122,0.406016,-0.876814,-0.04774,-0.09198,0.51954
12.5585,0,0,5,5,22.5585,22.5585,-19.3208,4.49303,21.7097,-0.0833963,0.099612,0.0712909,0,1,2.765,0.3675,0.175,-0.045384,0.441152,-0.883158,-0.0504,-0.09744,0.51898
12.6386,0,0,5,5,22.6386,22.6386,-19.444,4.41308,21.7006,-0.0820051,0.0975536,0.0706816,0,1,1.54,0.91,0.0875,-0.045384,0.441152,-0.883158,-0.0504,-0.09744,0.51898
12.5677,0,0,5,5,22.5677,22.5677,-19.3349,4.25287,21.7086,-0.161463,-0.112004,-0.00447082,0,1,2.9225,1.47,0.035,-0.127978,0.230092,-0.958554,-0.0504,-0.09744,0.51898
12.4976,0,0,5,5,22.4976,22.4976,-19.2271,4.09334,21.7177,-0.158686,-0.110299,-0.00365959,0,1,3.22,0.0525,0.49,-0.127978,0.230092,-0.958554,-0.0504,-0.09744,0.51898
12.4437,0,0,5,5,22.4437,22.4437,-19.1441,4.07088,21.7249,-0.0225953,-0.0797563,-0.019265,0,1,3.85,-0.42,0.35,0.008296,0.25925,-0.974536,-0.0504,-0.09744,0.51898
12.3891,0,0,5,5,22.3891,22.3891,-19.0601,4.04742,21.7321,-0.0221868,-0.0783837,-0.0187589,0,1,5.25,-1.225,0.21,0.008296,0.25925,-0.974536,-0.0504,-0.09744,0.51898
12.4151,0,0,5,5,22.4151,22.4151,-19.1002,4.03819,21.7301,-0.00841977,0.0377058,0.0138508,0,1,3.6225,-0.6125,0,0.02196,0.375882,-0.941962,-0.0504,-0.09744,0.51898
12.4417,0,0,5,5,22.4417,22.4417,-19.1411,4.02965,21.727,-0.00827112,0.0370306,0.0136278,0,1,2.87,-0.105,-0.5075,0.02196,0.375882,-0.941962,-0.0504,-0.09744,0.51898
12.3884,0,0,5,5,22.3884,22.3884,-19.0591,3.88144,21.7319,-0.155118,-0.0607247,-0.0950381,0,1,3.36,0.1575,-0.7175,-0.1281,0.27694,-1.05042,-0.05264,-0.0854,0.5201
12.4068,0,0,5,5,22.4068,22.4068,-19.0874,3.78812,21.7287,-0.0971235,0.0616331,-0.0852604,0,1,3.255,0.7,-0.91,-0.071492,0.399672,-1.04066,-0.05264,-0.0854,0.5201
12.4229,0,0,5,5,22.4229,22.4229,-19.1122,3.69521,21.7254,-0.0955053,0.0611908,-0.0853016,0,1,4.97,0.07,-1.225,-0.071492,0.399672,-1.04066,-0.05264,-0.0854,0.5201
12.3723,0,0,5,5,22.3723,22.3723,-19.0343,3.82928,21.7288,0.124236,-0.0908678,0.0426173,0,1,4.795,-0.2625,-1.3125,0.151524,0.24644,-0.914024,-0.05264,-0.0854,0.5201
12.3226,0,0,5,5,22.3226,22.3226,-18.9578,3.95908,21.7317,0.121975,-0.0895583,0.0429054,0,1,4.76,-1.225,-2.0825,0.151524,0.24644,-0.914024,-0.05264,-0.0854,0.5201
12.3217,0,0,5,5,22.3217,22.3217,-18.9565,3.95708,21.7289,0.172913,0.438417,0.118406,1,1,4.445,-0.5425,-2.2225,0.202642,0.773846,-0.839116,-0.05264,-0.0854,0.5201
12.3224,0,0,5,5,22.3224,22.3224,-18.9576,3.95666,21.7264,0.17292,0.438399,0.1184,1,1,3.045,0.2625,-1.7325,0.202642,0.773846,-0.839116,-0.05264,-0.0854,0.5201
12.318,0,0,5,5,22.318,22.318,-18.9507,3.79504,21.7251,-0.152398,-0.0350361,0.0811195,0,1,3.3075,-0.7525,-1.645,-0.12688,0.300852,-0.876326,-0.05264,-0.0854,0.5201
12.3139,0,0,5,5,22.3139,22.3139,-18.9444,3.63875,21.7229,-0.149676,-0.0349896,0.0813225,0,1,3.115,0.84,-1.645,-0.12688,0.300852,-0.876326,-0.05012,-0.098,0.51478
12.2864,0,0,5,5,22.2864,22.2864,-18.9022,3.47118,21.7241,-0.160121,-0.0641518,0.0704212,0,1,4.1475,0.5075,-0.98,-0.1403,0.271084,-0.88755,-0.05012,-0.098,0.51478
12.2594,0,0,5,5,22.2594,22.2594,-18.8607,3.30598,21.7272,-0.157243,-0.0635221,0.0708167,0,1,4.1125,-0.1575,0.105,-0.1403,0.271084,-0.88755,-0.05012,-0.098,0.51478
12.1908,0,0,5,5,22.1908,22.1908,-18.7551,3.0602,21.7341,-0.261325,-0.0936104,-0.070862,0,1,4.0425,0.2275,0.4725,-0.249124,0.239364,-1.02895,-0.05012,-0.098,0.51478
12.1228,0,0,5,5,22.1228,22.1228,-18.6505,2.8172,21.7403,-0.257089,-0.0919533,-0.0700715,0,1,4.515,-0.455,0.1225,-0.249124,0.239364,-1.02895,-0.05012,-0.098,0.51478
12.1241,0,0,5,5,22.1241,22.1241,-18.6525,2.81784,21.7414,0.166763,0.0824116,0.207289,1,1,2.45,0.175,0.4375,0.176534,0.41358,-0.753716,-0.05012,-0.098,0.51478
12.1229,0,0,5,5,22.1229,22.1229,-18.6507,2.81814,21.7436,0.166758,0.0824417,0.207299,1,1,4.5325,-0.21,0.9625,0.176534,0.41358,-0.753716,-0.05012,-0.098,0.51478
12.3014,0,0,5,5,22.3014,22.3014,-18.9252,2.83745,21.7313,0.0217318,0.301775,0.0541463,0,1,4.76,0.63,0.77,0.031232,0.637206,-0.904142,-0.05012,-0.098,0.51478
12.4788,0,0,5,5,22.4788,22.4788,-19.1982,2.85603,21.7192,0.0214079,0.297282,0.0525767,0,1,3.045,0.4375,0.7,0.031232,0.637206,-0.904142,-0.05068,-0.0924,0.51968
12.3734,0,0,5,5,22.3734,22.3734,-19.0359,2.58067,21.7284,-0.285038,-0.161393,-0.0382469,0,1,4.6025,-0.175,0.63,-0.281332,0.176412,-0.995398,-0.05068,-0.0924,0.51968
12.2707,0,0,5,5,22.2707,22.2707,-18.878,2.30957,21.7372,-0.280311,-0.158853,-0.0371612,0,1,3.6925,-0.385,0.8925,-0.281332,0.176412,-0.995398,-0.05068,-0.0924,0.51968
12.2708,0,0,5,5,22.2708,22.2708,-18.8781,2.30877,21.7385,-0.431668,0.0618268,-0.305189,1,1,3.4475,-0.665,0.28,-0.433344,0.396866,-1.26136,-0.05068,-0.0924,0.51968
12.2707,0,0,5,5,22.2707,22.2707,-18.878,2.30998,21.7385,-0.431689,0.0618291,-0.305189,1,1,3.64,0.7,-0.07,-0.433344,0.396866,-1.26136,-0.05068,-0.0924,0.51968
12.0057,0,0,5,5,22.0057,22.0057,-18.4703,2.68237,21.7574,0.352568,-0.445011,0.0763605,0,1,3.185,0.3325,0.5075,0.360754,-0.116266,-0.884744,-0.05068,-0.0924,0.51968
11.7434,0,0,5,5,21.7434,21.7434,-18.0667,3.04796,21.7783,0.346195,-0.43823,0.078263,0,1,4.025,-0.35,0.07,0.360754,-0.116266,-0.884744,-0.05068,-0.0924,0.51968
11.7435,0,0,5,5,21.7435,21.7435,-18.0669,3.04923,21.7783,0.182289,-0.0355811,0.15203,1,1,3.465,0.735,-0.07,0.196176,0.285968,-0.811544,-0.05068,-0.0924,0.51968
11.743,0,0,5,5,21.743,21.743,-18.0662,3.05026,21.7796,0.182271,-0.0355684,0.152033,1,1,3.955,0.3675,0.6125,0.196176,0.285968,-0.811544,-0.04732,-0.09562,0.52332
11.7434,0,0,5,5,21.7434,21.7434,-18.0667,3.05066,21.782,0.1819,0.32433,0.0421139,1,1,3.2025,-0.1925,1.1375,0.19581,0.645502,-0.920612,-0.04732,-0.09562,0.52332
11.7427,0,0,5,5,21.7427,21.7427,-18.0657,3.05089,21.7837,0.181896,0.324348,0.0421194,1,1,4.1125,-0.14,0.665,0.19581,0.645502,-0.920612,-0.04732,-0.09562,0.52332
11.7425,0,0,5,5,21.7425,21.7425,-18.0653,3.05006,21.7847,0.109748,0.349878,-0.11599,1,1,3.7275,-0.63,0.1575,0.123342,0.671,-1.0775,-0.04732,-0.09562,0.52332
11.7421,0,0,5,5,21.7421,21.7421,-18.0648,3.05031,21.7862,0.109743,0.349887,-0.115987,1,1,3.8325,-0.105,0.5775,0.123342,0.671,-1.0775,-0.04732,-0.09562,0.52332
11.7393,0,0,5,5,21.7393,21.7393,-18.0604,3.0508,21.787,-0.00701284,0.284132,0.00145169,1,1,5.985,0.1575,0.2275,0.0061,0.605242,-0.960994,-0.04732,-0.09562,0.52332
11.7407,0,0,5,5,21.7407,21.7407,-18.0626,3.05148,21.786,-0.00702476,0.284097,0.00143931,1,1,2.38,0.5775,-0.6825,0.0061,0.605242,-0.960994,-0.04732,-0.09562,0.52332
11.7415,0,0,5,5,21.7415,21.7415,-18.0639,3.05157,21.7846,0.0993951,-0.0805954,0.171962,1,1,2.8875,0.3325,-1.05,0.112972,0.24095,-0.79178,-0.04732,-0.09562,0.52332
11.7428,0,0,5,5,21.7428,21.7428,-18.0658,3.05054,21.7831,0.0994131,-0.0806266,0.171953,1,1,2.5725,-0.28,-1.295,0.112972,0.24095,-0.79178,-0.04732,-0.09562,0.52332
11.9615,0,0,5,5,21.9615,21.9615,-18.4023,2.8737,21.7638,-0.188341,0.330815,0.128835,0,1,2.38,0.0525,-1.54,-0.179096,0.65758,-0.832894,-0.04662,-0.08946,0.52458
12.1757,0,0,5,5,22.1757,22.1757,-18.7319,2.69788,21.7449,-0.185276,0.325321,0.127147,0,1,3.2725,-0.7175,-2.3275,-0.179096,0.65758,-0.832894,-0.04662,-0.08946,0.52458
12.1757,0,0,5,5,22.1757,22.1757,-18.7318,2.69773,21.7423,0.201658,-0.138881,0.202146,1,1,3.675,0.4375,-1.7675,0.209474,0.193858,-0.758474,-0.04662,-0.08946,0.52458
12.1757,0,0,5,5,22.1757,22.1757,-18.7318,2.69758,21.7396,0.201661,-0.138881,0.202147,1,1,3.675,0.4375,-1.7675,0.209474,0.193858,-0.758474,-0.04662,-0.08946,0.52458
12.1762,0,0,5,5,22.1762,22.1762,-18.7326,2.69573,21.7371,-0.0039822,0.102061,-0.100064,1,1,3.15,-0.525,-2.03,0.002928,0.434564,-1.05835,-0.04662,-0.08946,0.52458
12.1768,0,0,5,5,22.1768,22.1768,-18.7335,2.69388,21.7346,-0.00394993,0.102046,-0.100068,1,1,3.15,-0.525,-2.03,0.002928,0.434564,-1.05835,-0.04662,-0.08946,0.52458
12.1771,0,0,5,5,22.1771,22.1771,-18.734,2.69482,21.7345,-0.0299643,0.0276633,-0.193143,1,1,3.325,0.56,-0.14,-0.02318,0.360266,-1.1507,-0.04662,-0.08946,0.52458
12.1774,0,0,5,5,22.1774,22.1774,-18.7344,2.69577,21.7345,-0.0299807,0.0276562,-0.193146,1,1,3.325,0.56,-0.14,-0.02318,0.360266,-1.1507,-0.04662,-0.08946,0.52458
12.1768,0,0,5,5,22.1768,22.1768,-18.7335,2.6951,21.7346,0.0886008,0.356924,0.000257124,1,1,4.06,-0.3675,-0.3325,0.095892,0.689178,-0.958798,-0.04788,-0.09254,0.51688
12.176,0,0,5,5,22.176,22.176,-18.7323,2.69533,21.7356,-0.227873,-0.120816,0.158621,1,1,4.2175,-0.035,0.2975,-0.221918,0.211914,-0.801662,-0.04788,-0.09254,0.51688
12.1743,0,0,5,5,22.1743,22.1743,-18.7297,2.69588,21.7371,-0.227883,-0.120773,0.158635,1,1,4.9875,0.0525,0.6475,-0.221918,0.211914,-0.801662,-0.04788,-0.09254,0.51688
12.1742,0,0,5,5,22.1742,22.1742,-18.7296,2.69686,21.7379,-0.324117,0.0425134,-0.202956,1,1,3.64,0.42,0.3325,-0.318542,0.375028,-1.16046,-0.04788,-0.09254,0.51688
12.1745,0,0,5,5,22.1745,22.1745,-18.73,2.69792,21.7386,-0.324135,0.042507,-0.202959,1,1,3.325,0.4725,0.3325,-0.318542,0.375028,-1.16046,-0.04788,-0.09254,0.51688
12.1754,0,0,5,5,22.1754,22.1754,-18.7314,2.69799,21.74,0.423122,-0.058882,-0.123543,1,1,2.73,-0.1925,0.49,0.43188,0.273768,-1.08165,-0.04788,-0.09254,0.51688
12.1747,0,0,5,5,22.1747,22.1747,-18.7303,2.69782,21.7411,0.423125,-0.0588632,-0.123536,1,1,4.1825,-0.28,0.2975,0.43188,0.273768,-1.08165,-0.04788,-0.09254,0.51688
12.1744,0,0,5,5,22.1744,22.1744,-18.7298,2.69801,21.7416,0.146499,0.463602,0.0193325,1,1,3.815,0.0525,-0.0175,0.154086,0.795684,-0.939888,-0.04788,-0.09254,0.51688
12.1732,0,0,5,5,22.1732,22.1732,-18.7281,2.69749,21.7424,0.146508,0.463632,0.0193429,1,1,4.55,-0.42,0.0875,0.154086,0.795684,-0.939888,-0.04788,-0.09576,0.52542
12.3291,0,0,5,5,22.3291,22.3291,-18.9678,2.73196,21.7318,0.0252717,0.174275,0.184684,0,1,5.7925,0.4025,0.4025,0.03294,0.51057,-0.774456,-0.04788,-0.09576,0.52542
12.486,0,0,5,5,22.486,22.486,-19.2093,2.76381,21.7214,0.0247165,0.170306,0.183282,0,1,2.6075,-0.7525,0.1575,0.03294,0.51057,-0.774456,-0.04788,-0.09576,0.52542
12.4869,0,0,5,5,22.4869,22.4869,-19.2107,2.76312,21.7223,-0.0972432,0.0333786,0.173562,1,1,2.7475,-0.525,0.07,-0.089548,0.373808,-0.784094,-0.04788,-0.09576,0.52542
12.4868,0,0,5,5,22.4868,22.4868,-19.2104,2.76453,21.7242,-0.0972678,0.033383,0.173562,1,1,3.6575,0.4375,1.05,-0.089548,0.373808,-0.784094,-0.04788,-0.09576,0.52542
12.4083,0,0,5,5,22.4083,22.4083,-19.0897,2.77957,21.7329,0.00755508,-0.137435,0.0558407,0,1,3.1675,0.42,1.5575,0.015982,0.201178,-0.90158,-0.04788,-0.09576,0.52542
12.3299,0,0,5,5,22.3299,22.3299,-18.9691,2.79204,21.7408,0.0073378,-0.135443,0.0565164,0,1,4.305,-0.735,0.77,0.015982,0.201178,-0.90158,-0.04788,-0.09576,0.52542
12.339,0,0,5,5,22.339,22.339,-18.9831,2.80993,21.742,0.0212397,0.0265162,-0.0307476,0,1,3.7275,-0.6125,0.665,0.030256,0.363194,-0.988078,-0.04788,-0.09576,0.52542
12.3468,0,0,5,5,22.3468,22.3468,-18.995,2.82972,21.743,0.0208947,0.0263241,-0.0308317,0,1,4.7075,0.6475,0.98,0.030256,0.363194,-0.988078,-0.0448,-0.0952,0.51898
12.359,0,0,5,5,22.359,22.359,-19.0139,2.85117,21.7435,0.0218572,0.0258975,-0.0142352,0,1,3.71,0.5425,0.77,0.031598,0.363072,-0.971486,-0.0448,-0.0952,0.51898
12.3718,0,0,5,5,22.3718,22.3718,-19.0335,2.87083,21.7422,0.0215144,0.02558,-0.0143628,0,1,3.15,0.0875,-0.455,0.031598,0.363072,-0.971486,-0.0448,-0.0952,0.51898
12.3728,0,0,5,5,22.3728,22.3728,-19.0351,2.87014,21.7418,-0.130817,0.0693971,-0.132156,1,1,2.695,-0.2625,-0.6825,-0.12139,0.40687,-1.08836,-0.0448,-0.0952,0.51898
12.3732,0,0,5,5,22.3732,22.3732,-19.0356,2.86971,21.7412,-0.130809,0.0693877,-0.132159,1,1,3.2725,-0.105,-0.6825,-0.12139,0.40687,-1.08836,-0.0448,-0.0952,0.51898
12.3727,0,0,5,5,22.3727,22.3727,-19.0349,2.86817,21.7385,-0.0260615,0.236836,-0.0380975,1,1,4.0775,-0.315,-2.065,-0.016226,0.574132,-0.995032,-0.0448,-0.0952,0.51898
12.3742,0,0,5,5,22.3742,22.3742,-19.0372,2.86685,21.7358,-0.0260385,0.236796,-0.0381098,1,1,2.3275,-0.1925,-2.0125,-0.016226,0.574132,-0.995032,-0.0448,-0.0952,0.51898
12.3737,0,0,5,5,22.3737,22.3737,-19.0365,2.86528,21.7328,0.186589,-0.0793784,0.191686,1,1,4.06,-0.2625,-2.2575,0.197274,0.258274,-0.767014,-0.0448,-0.0952,0.51898
12.3733,0,0,5,5,22.3733,22.3733,-19.0358,2.86371,21.7297,0.186616,-0.079367,0.191692,1,1,4.06,-0.2625,-2.2575,0.197274,0.258274,-0.767014,-0.04578,-0.09548,0.51842
12.3573,0,0,5,5,22.3573,22.3573,-19.0112,2.82991,21.7278,-0.0312259,-0.00789359,-0.0702672,0,1,1.6975,-0.42,-2.485,-0.022082,0.329278,-1.02712,-0.04578,-0.09548,0.51842
12.3416,0,0,5,5,22.3416,22.3416,-18.987,2.79668,21.7259,-0.0306467,-0.00750445,-0.0701031,0,1,1.6975,-0.42,-2.485,-0.022082,0.329278,-1.02712,-0.04578,-0.09548,0.51842
12.4911,0,0,5,5,22.4911,22.4911,-19.2171,2.74897,21.7132,-0.0519253,0.244915,0.0518172,0,1,4.0775,1.3125,-0.77,-0.044286,0.585234,-0.904874,-0.04578,-0.09548,0.51842
12.6381,0,0,5,5,22.6381,22.6381,-19.4433,2.70199,21.7009,-0.0511063,0.241181,0.0505486,0,1,4.0775,1.3125,-0.77,-0.044286,0.585234,-0.904874,-0.04578,-0.09548,0.51842
12.745,0,0,5,5,22.745,22.745,-19.6076,2.69187,21.6929,-0.0103537,0.13638,0.0987781,0,1,3.85,-0.9275,-0.7875,-0.003538,0.483242,-0.856074,-0.04578,-0.09548,0.51842
12.85,0,0,5,5,22.85,22.85,-19.7692,2.6819,21.685,-0.0101799,0.133724,0.0978365,0,1,3.85,-0.9275,-0.7875,-0.003538,0.483242,-0.856074,-0.04578,-0.09548,0.51842
12.849,0,0,5,5,22.849,22.849,-19.7676,2.68354,21.6854,-0.0404583,0.357121,-0.0501852,1,1,4.4625,0.84,0.28,-0.033916,0.70638,-1.00296,-0.04578,-0.09548,0.51842
12.8479,0,0,5,5,22.8479,22.8479,-19.766,2.68517,21.6859,-0.0404869,0.357147,-0.050177,1,1,4.4625,0.84,0.28,-0.033916,0.70638,-1.00296,-0.0427,-0.09352,0.51492
12.8481,0,0,5,5,22.8481,22.8481,-19.7663,2.68538,21.6865,-0.0611429,-0.0318299,-0.140669,1,1,3.43,0.0175,0.0875,-0.054656,0.31781,-1.09275,-0.0427,-0.09352,0.51492
13.0139,0,0,5,5,23.0139,23.0139,-20.0214,2.52462,21.6762,-0.169864,0.247399,0.101007,0,1,3.185,-0.035,0.5075,-0.166652,0.600972,-0.85156,-0.0427,-0.09352,0.51492
13.176,0,0,5,5,23.176,23.176,-20.2707,2.36615,21.6657,-0.167101,0.243278,0.0996203,0,1,4.1825,0.0525,-0.175,-0.166652,0.600972,-0.85156,-0.0427,-0.09352,0.51492
13.1767,0,0,5,5,23.1767,23.1767,-20.2719,2.36549,21.6653,-0.25055,0.303712,-0.046449,1,1,2.94,-0.2625,-0.63,-0.250466,0.661362,-0.996496,-0.0427,-0.09352,0.51492
13.1753,0,0,5,5,23.1753,23.1753,-20.2697,2.3658,21.6658,-0.250555,0.303746,-0.0464365,1,1,4.7425,0.105,0.035,-0.250466,0.661362,-0.996496,-0.0427,-0.09352,0.51492
13.173,0,0,5,5,23.173,23.173,-20.2662,2.36696,21.6657,0.49729,0.231872,0.00805016,1,1,5.5475,0.6825,-0.105,0.500566,0.589504,-0.94245,-0.0427,-0.09352,0.51492
13.1752,0,0,5,5,23.1752,23.1752,-20.2696,2.36546,21.6669,0.497317,0.231816,0.0080309,1,1,1.6625,-1.05,0.0875,0.500566,0.589504,-0.94245,-0.0427,-0.09352,0.51492
13.1165,0,0,5,5,23.1165,23.1165,-20.1792,2.35858,21.6722,-0.0025985,-0.0694594,-0.0988768,0,1,3.2025,-1.3125,0.1575,-0.001586,0.287066,-1.04908,-0.0427,-0.09352,0.51492
13.0571,0,0,5,5,23.0571,23.0571,-20.0879,2.35568,21.6783,-0.00254803,-0.067964,-0.0983264,0,1,4.62,0.63,1.4525,-0.001586,0.287066,-1.04908,-0.0476,-0.10066,0.52122
13.1587,0,0,5,5,23.1587,23.1587,-20.2442,2.19986,21.675,-0.164322,0.158061,0.0471439,0,1,3.7975,-0.0875,1.505,-0.166774,0.51545,-0.903898,-0.0476,-0.10066,0.52122
13.2583,0,0,5,5,23.2583,23.2583,-20.3975,2.04543,21.6716,-0.161629,0.155519,0.0463092,0,1,4.0775,-0.595,0.91,-0.166774,0.51545,-0.903898,-0.0476,-0.10066,0.52122
13.2868,0,0,5,5,23.2868,23.2868,-20.4413,1.66014,21.6726,-0.416831,0.0384625,0.0348121,0,1,4.06,0.1225,1.2775,-0.429806,0.399306,-0.915244,-0.0476,-0.10066,0.52122
13.3147,0,0,5,5,23.3147,23.3147,-20.4842,1.28292,21.6743,-0.410249,0.0377014,0.0347085,0,1,4.165,1.19,1.9075,-0.429806,0.399306,-0.915244,-0.0476,-0.10066,0.52122
13.3145,0,0,5,5,23.3145,23.3145,-20.4838,1.28448,21.6766,0.0493039,-0.028729,0.137372,1,1,3.7625,0.4025,1.3125,0.03172,0.332938,-0.813374,-0.0476,-0.10066,0.52122
13.3144,0,0,5,5,23.3144,23.3144,-20.4837,1.28355,21.6779,0.0493201,-0.0287272,0.137373,1,1,3.6225,-0.735,0.1925,0.03172,0.332938,-0.813374,-0.0476,-0.10066,0.52122
13.3146,0,0,5,5,23.3146,23.3146,-20.4841,1.284,21.6786,0.504884,0.0751973,0.00999653,1,1,3.3775,0.1225,0.21,0.48922,0.43676,-0.939766,-0.0476,-0.10066,0.52122
13.3139,0,0,5,5,23.3139,23.3139,-20.483,1.28283,21.6789,0.504904,0.0752145,0.0100034,1,1,4.165,-0.6825,-0.35,0.48922,0.43676,-0.939766,-0.0525,-0.09534,0.51674
13.3136,0,0,5,5,23.3136,23.3136,-20.4824,1.28041,21.678,0.00418225,0.0940309,-0.13753,1,1,3.9025,-1.1025,-1.3125,-0.013664,0.455548,-1.08617,-0.0525,-0.09534,0.51674
13.3145,0,0,5,5,23.3145,23.3145,-20.4839,1.27986,21.6753,0.00419177,0.0940068,-0.137539,1,1,2.7825,0.28,-1.8725,-0.013664,0.455548,-1.08617,-0.0525,-0.09534,0.51674
13.3138,0,0,5,5,23.3138,23.3138,-20.4827,1.27889,21.6722,-0.0417128,-0.0144222,0.169594,1,1,4.2875,0.1225,-2.17,-0.05978,0.347212,-0.78141,-0.0525,-0.09534,0.51674
13.315,0,0,5,5,23.315,23.315,-20.4846,1.27899,21.6683,-0.0417146,-0.0144538,0.169582,1,1,2.5375,0.875,-2.38,-0.05978,0.347212,-0.78141,-0.0525,-0.09534,0.51674
13.1317,0,0,5,5,23.1317,23.1317,-20.2026,0.99329,21.6708,-0.30011,-0.300657,-0.0552082,0,1,1.9775,-0.7875,-2.5725,-0.324276,0.05673,-1.00626,-0.0525,-0.09534,0.51674
12.9484,0,0,5,5,22.9484,22.9484,-19.9206,0.714653,21.6715,-0.295248,-0.296059,-0.053452,0,1,4.3925,0.7175,-2.1525,-0.324276,0.05673,-1.00626,-0.0525,-0.09534,0.51674
12.9085,0,0,5,5,22.9085,22.9085,-19.8592,0.978387,21.6703,0.272955,-0.0672633,0.000576629,0,1,4.06,1.3475,-1.12,0.250954,0.28426,-0.952942,-0.0525,-0.09534,0.51674
12.8693,0,0,5,5,22.8693,22.8693,-19.7989,1.23783,21.6694,0.268428,-0.0662433,0.000851361,0,1,4.06,1.3475,-1.12,0.250954,0.28426,-0.952942,-0.05026,-0.09842,0.52122
12.9431,0,0,5,5,22.9431,22.9431,-19.9125,1.198,21.6636,-0.0495343,0.143168,-0.0287006,0,1,3.22,4.13,-0.875,-0.069052,0.49532,-0.981612,-0.05026,-0.09842,0.52122
13.0157,0,0,5,5,23.0157,23.0157,-20.0241,1.15883,21.658,-0.0488507,0.141332,-0.0293526,0,1,3.22,4.13,-0.875,-0.069052,0.49532,-0.981612,-0.05026,-0.09842,0.52122
13.016,0,0,5,5,23.016,23.016,-20.0246,1.15942,21.6582,0.336856,0.0480193,0.402194,1,1,3.3075,0.315,-0.07,0.318298,0.402112,-0.553392,-0.05026,-0.09842,0.52122
13.0163,0,0,5,5,23.0163,23.0163,-20.025,1.16001,21.6584,0.336846,0.0480117,0.402191,1,1,3.3075,0.315,-0.07,0.318298,0.402112,-0.553392,-0.05026,-0.09842,0.52122
13.0437,0,0,5,5,23.0437,23.0437,-20.0673,1.29311,21.6576,0.149257,0.0702957,-0.0548626,0,1,3.6225,0.42,-0.0875,0.132248,0.425048,-1.00662,-0.05026,-0.09842,0.52122
13.0709,0,0,5,5,23.0709,23.0709,-20.109,1.40031,21.6573,0.0996432,0.00990691,0.0858679,0,1,3.0275,0.245,0.21,0.084302,0.36539,-0.866688,-0.05026,-0.09842,0.52122
13.0975,0,0,5,5,23.0975,23.0975,-20.1499,1.50351,21.6564,0.0978426,0.00925268,0.0855795,0,1,3.115,-0.8575,-0.5075,0.084302,0.36539,-0.866688,-0.05026,-0.09842,0.52122
13.0984,0,0,5,5,23.0984,23.0984,-20.1514,1.50293,21.6558,0.0823025,-0.0059155,0.175446,1,1,2.7475,-0.175,-0.7175,0.068686,0.350262,-0.777506,-0.04942,-0.09128,0.51562
13.0981,0,0,5,5,23.0981,23.0981,-20.151,1.50259,21.6558,0.0823085,-0.00590851,0.175449,1,1,3.815,-0.1575,-0.3675,0.068686,0.350262,-0.777506,-0.04942,-0.09128,0.51562
13.098,0,0,5,5,23.098,23.098,-20.1508,1.50348,21.656,0.315302,-0.0134777,0.253522,1,1,3.6575,0.4725,0.0175,0.302682,0.342698,-0.700036,-0.04942,-0.09128,0.51562
13.0979,0,0,5,5,23.0979,23.0979,-20.1507,1.50438,21.6563,0.315287,-0.013475,0.253522,1,1,3.6575,0.4725,0.0175,0.302682,0.342698,-0.700036,-0.04942,-0.09128,0.51562
13.0985,0,0,5,5,23.0985,23.0985,-20.1516,1.50621,21.6577,0.165342,0.17141,-0.0553305,1,1,3.045,0.7525,0.84,0.152134,0.527406,-1.0065,-0.04942,-0.09128,0.51562
13.0969,0,0,5,5,23.0969,23.0969,-20.1491,1.50837,21.6594,0.305377,0.325086,0.124434,1,1,4.9175,0.8575,1.12,0.2928,0.680882,-0.828136,-0.04942,-0.09128,0.51562
13.0972,0,0,5,5,23.0972,23.0972,-20.1496,1.50752,21.6628,0.305392,0.325079,0.124432,1,1,3.29,-1.12,1.3825,0.2928,0.680882,-0.828136,-0.04942,-0.09128,0.51562
12.955,0,0,5,5,22.955,22.955,-19.9308,1.30628,21.6714,-0.198178,-0.230583,0.0125853,0,1,3.8325,-0.595,1.4875,-0.216428,0.122244,-0.940498,-0.04942,-0.09128,0.51562
12.8193,0,0,5,5,22.8193,22.8193,-19.722,1.1108,21.6798,-0.194767,-0.22718,0.0138884,0,1,0.21,0.665,2.38,-0.216428,0.122244,-0.940498,-0.04452,-0.09702,0.52192
12.8195,0,0,5,5,22.8195,22.8195,-19.7223,1.11333,21.6838,0.0645604,-0.107378,0.346462,1,1,3.395,0.63,2.415,0.044042,0.241926,-0.610488,-0.04452,-0.09702,0.52192
12.8189,0,0,5,5,22.8189,22.8189,-19.7213,1.11224,21.6875,0.0645794,-0.107362,0.346468,1,1,4.06,-1.295,1.505,0.044042,0.241926,-0.610488,-0.04452,-0.09702,0.52192
12.8189,0,0,5,5,22.8189,22.8189,-19.7214,1.11208,21.6903,0.262604,-0.241581,-0.207662,1,1,3.4825,-0.6125,1.2075,0.242902,0.107848,-1.16034,-0.04452,-0.09702,0.52192
12.8189,0,0,5,5,22.8189,22.8189,-19.7214,1.11256,21.691,0.262596,-0.241581,-0.207662,1,1,3.57,0.14,0.2275,0.242902,0.107848,-1.16034,-0.04452,-0.09702,0.52192
12.8202,0,0,5,5,22.8202,22.8202,-19.7234,1.11218,21.6915,-0.187259,0.0778705,-0.29054,1,1,2.485,-0.28,-0.0875,-0.208864,0.427,-1.24257,-0.04452,-0.09702,0.52192
12.8195,0,0,5,5,22.8195,22.8195,-19.7224,1.11144,21.6904,-0.187246,0.0778869,-0.290534,1,1,4.1475,-0.1575,-1.0675,-0.208864,0.427,-1.24257,-0.04452,-0.09702,0.52192
12.8903,0,0,5,5,22.8903,22.8903,-19.8312,1.02098,21.6864,-0.0861711,0.0704712,0.112491,0,1,4.165,-0.3325,-1.575,-0.108946,0.421388,-0.842044,-0.04452,-0.09702,0.52192
12.9635,0,0,5,5,22.9635,22.9635,-19.9438,0.923287,22.1765,-0.0844663,0.0686145,0.11185,0,0,3.5525,0.2625,-1.96,-0.108946,0.421388,-0.842044,-0.0553,-0.09898,0.5089
12.9634,0,0,5,5,22.9634,22.9634,-19.9436,0.922537,22.173,-0.323416,0.0308799,-0.0803177,1,0,3.6925,0.315,-2.3625,-0.34892,0.38369,-1.03273,-0.0553,-0.09898,0.5089
12.964,0,0,5,5,22.964,22.964,-19.9446,0.921843,22.1695,-0.323403,0.0308634,-0.0803235,1,0,3.045,0.35,-2.3625,-0.34892,0.38369,-1.03273,-0.0553,-0.09898,0.5089
12.8942,0,0,5,5,22.8942,22.8942,-19.8373,1.19885,22.2214,0.342607,-0.140276,-0.00673878,0,0,3.535,0.9975,-2.2225,0.324764,0.210938,-0.960262,-0.0553,-0.09898,0.5089
12.8257,0,0,5,5,22.8257,22.8257,-19.7318,1.47134,22.2752,0.337852,-0.138507,-0.00622041,0,0,3.255,0.2975,-1.645,0.324764,0.210938,-0.960262,-0.0553,-0.09898,0.5089
12.8468,0,0,5,5,22.8468,22.8468,-19.7644,1.6127,22.4876,0.205639,0.00741087,0.0102463,0,0,3.2725,-0.0875,-1.4175,0.194468,0.357216,-0.94367,-0.0553,-0.09898,0.5089
12.866,0,0,5,5,22.866,22.866,-19.7939,1.75212,22.7012,0.203207,0.00695069,0.0100049,0,0,4.62,-0.385,-1.2425,0.194468,0.357216,-0.94367,-0.0553,-0.09898,0.5089
12.9008,0,0,5,5,22.9008,22.9008,-19.8473,1.92043,22.8773,0.234894,-8.48752e-07,0.0762383,0,0,4.515,-0.0525,-1.0325,0.229238,0.351116,-0.877546,-0.0553,-0.09898,0.5089
12.9165,0,0,5,5,22.9165,22.9165,-19.8716,2.15551,22.8757,0.230794,-0.000349606,0.0759572,0,1,4.3575,0.245,-0.6125,0.229238,0.351116,-0.877546,-0.0448,-0.09324,0.52024
12.9163,0,0,5,5,22.9163,22.9163,-19.8713,2.15467,22.8756,-0.00754644,0.241467,-0.142397,1,1,3.7625,-0.4025,-0.5425,-0.010126,0.592676,-1.09422,-0.0448,-0.09324,0.52024
12.9163,0,0,5,5,22.9163,22.9163,-19.8712,2.15613,22.8747,-0.00757191,0.241468,-0.142397,1,1,3.64,0.9975,-0.455,-0.010126,0.592676,-1.09422,-0.0448,-0.09324,0.52024
13.0076,0,0,5,5,23.0076,23.0076,-20.0117,2.15805,22.8686,0.00162766,0.141097,0.0431555,0,1,3.7275,0.525,-0.595,-0.000854,0.49471,-0.909266,-0.0448,-0.09324,0.52024
13.0983,0,0,5,5,23.0983,23.0983,-20.1513,2.15847,22.8634,0.0016203,0.138811,0.0423195,0,1,2.9575,-0.42,-0.4725,-0.000854,0.49471,-0.909266,-0.0448,-0.09324,0.52024
13.097,0,0,5,5,23.097,23.097,-20.1492,2.15738,22.8628,0.227481,0.222624,-0.0229528,1,1,4.76,-0.455,-0.8225,0.225944,0.578402,-0.974048,-0.0448,-0.09324,0.52024
13.0961,0,0,5,5,23.0961,23.0961,-20.1478,2.15686,22.8626,0.22749,0.222646,-0.0229444,1,1,4.34,-0.21,-0.525,0.225944,0.578402,-0.974048,-0.0448,-0.09324,0.52024
12.9848,0,0,5,5,22.9848,22.9848,-19.9766,2.20361,22.8693,0.0488198,-0.167664,-0.0584647,0,1,4.3225,-0.0175,-0.14,0.047336,0.185684,-1.01028,-0.0448,-0.09324,0.52024
12.8753,0,0,5,5,22.8753,22.8753,-19.8081,2.24957,22.876,0.0480182,-0.164891,-0.0574946,0,1,4.3225,-0.0175,-0.14,0.047336,0.185684,-1.01028,-0.04844,-0.09618,0.51884
12.8757,0,0,5,5,22.8757,22.8757,-19.8087,2.25139,22.8771,-0.411715,0.0511416,-0.0647532,1,1,3.22,0.8225,0.6475,-0.414312,0.401502,-1.01748,-0.04844,-0.09618,0.51884
12.8761,0,0,5,5,22.8761,22.8761,-19.8093,2.25322,22.8781,-0.411747,0.0511324,-0.0647579,1,1,3.22,0.8225,0.6475,-0.414312,0.401502,-1.01748,-0.04844,-0.09618,0.51884
12.8974,0,0,5,5,22.8974,22.8974,-19.8421,2.12296,22.8803,-0.140871,0.047267,-0.0287235,0,1,3.15,0.245,1.925,-0.14457,0.398208,-0.981612,-0.04844,-0.09618,0.51884
12.9184,0,0,5,5,22.9184,22.9184,-19.8744,1.99487,22.8826,-0.138636,0.0467102,-0.0288392,0,1,3.15,0.245,1.925,-0.14457,0.398208,-0.981612,-0.04844,-0.09618,0.51884
12.9165,0,0,5,5,22.9165,22.9165,-19.8716,1.99663,22.8865,0.527074,0.309697,0.150682,1,1,5.11,0.2275,2.1875,0.52399,0.660874,-0.803492,-0.04844,-0.09618,0.51884
12.9146,0,0,5,5,22.9146,22.9146,-19.8687,1.9984,22.8904,0.527044,0.309744,0.150698,1,1,5.11,0.2275,2.1875,0.52399,0.660874,-0.803492,-0.04844,-0.09618,0.51884
13.042,0,0,5,5,23.042,23.042,-20.0646,1.96243,22.8874,-0.0399101,0.228119,0.0199633,0,1,4.8825,0.14,2.135,-0.045994,0.58255,-0.93208,-0.04844,-0.09618,0.51884
13.1673,0,0,5,5,23.1673,23.1673,-20.2574,1.92704,22.8846,-0.0392929,0.224956,0.0188242,0,1,4.8825,0.14,2.135,-0.045994,0.58255,-0.93208,-0.04844,-0.09618,0.51884
13.2409,0,0,5,5,23.2409,23.2409,-20.3706,2.02858,22.8815,0.105691,0.111623,0.0397201,0,1,3.4125,0.35,0.3675,0.101382,0.471164,-0.910608,-0.04704,-0.0952,0.5187
13.3569,0,0,5,5,23.3569,23.3569,-20.549,1.90752,22.8735,-0.142215,0.211024,0.00599592,0,1,3.08,4.305,0.07,-0.149694,0.5734,-0.94306,-0.04704,-0.0952,0.5187
13.4709,0,0,5,5,23.4709,23.4709,-20.7245,1.7884,22.8658,-0.140137,0.208136,0.00497974,0,1,3.08,4.305,0.07,-0.149694,0.5734,-0.94306,-0.04704,-0.0952,0.5187
13.4691,0,0,5,5,23.4691,23.4691,-20.7218,1.78712,22.8641,0.179028,0.332505,0.0538079,1,1,5.145,-0.315,-1.4875,0.1708,0.697596,-0.894626,-0.04704,-0.0952,0.5187
13.4674,0,0,5,5,23.4674,23.4674,-20.719,1.78585,22.8624,0.17905,0.33255,0.0538255,1,1,5.145,-0.315,-1.4875,0.1708,0.697596,-0.894626,-0.04704,-0.0952,0.5187
13.5396,0,0,5,5,23.5396,23.5396,-20.8301,1.97529,22.8559,0.187287,0.0794397,0.101478,0,1,3.4825,0.1925,-1.995,0.18239,0.44652,-0.846558,-0.04704,-0.0952,0.5187
13.6106,0,0,5,5,23.6106,23.6106,-20.9394,2.16164,22.8491,0.184037,0.0777003,0.100689,0,1,3.4825,0.1925,-1.995,0.18239,0.44652,-0.846558,-0.04704,-0.0952,0.5187
13.6119,0,0,5,5,23.6119,23.6119,-20.9414,2.16061,22.8455,-0.181375,0.398372,-0.155056,1,0,2.52,0.2275,-2.485,-0.184586,0.766892,-1.10032,-0.04984,-0.09492,0.5075
13.6141,0,0,5,5,23.6141,23.6141,-20.9448,2.16096,22.8429,0.398228,0.143195,-0.0493411,1,0,1.75,0.7525,-1.61,0.397476,0.512034,-0.995398,-0.04984,-0.09492,0.5075
13.6163,0,0,5,5,23.6163,23.6163,-20.9481,2.1613,22.8404,0.398222,0.14314,-0.0493621,1,0,1.75,0.7525,-1.61,0.397476,0.512034,-0.995398,-0.04984,-0.09492,0.5075
13.6157,0,0,5,5,23.6157,23.6157,-20.9473,2.16089,22.839,0.229607,0.216674,-0.128413,1,0,4.06,0.0875,-1.12,0.22814,0.585478,-1.07384,-0.04984,-0.09492,0.5075
13.6152,0,0,5,5,23.6152,23.6152,-20.9465,2.16048,22.8376,0.229614,0.216687,-0.128407,1,0,4.06,0.0875,-1.12,0.22814,0.585478,-1.07384,-0.04984,-0.09492,0.5075
13.7633,0,0,5,5,23.7633,23.7633,-21.1743,2.05251,23.3291,-0.073918,0.220893,0.0623981,0,0,4.1475,0.21,-0.35,-0.078568,0.593408,-0.883158,-0.04984,-0.09492,0.5075
13.909,0,0,5,5,23.909,23.909,-21.3985,1.94683,23.8239,-0.0720747,0.217225,0.0610383,0,0,4.1475,0.21,-0.35,-0.078568,0.593408,-0.883158,-0.04984,-0.09492,0.5075
13.9096,0,0,5,5,23.9096,23.9096,-21.3994,1.94691,23.8227,-0.115932,0.167749,-0.0724898,1,0,3.0625,0.3325,-0.9275,-0.12261,0.543998,-1.01565,-0.04984,-0.09492,0.5075
13.9787,0,0,5,5,23.9787,23.9787,-21.5057,2.3326,23.8176,0.406289,0.0730551,0.115816,0,1,2.31,0.665,-0.735,0.408578,0.451034,-0.827892,-0.05222,-0.0931,0.51982
14.044,0,0,5,5,24.044,24.044,-21.6062,2.71033,23.8128,0.399703,0.0715316,0.114903,0,1,4.6375,-0.63,-0.77,0.408578,0.451034,-0.827892,-0.05222,-0.0931,0.51982
14.2299,0,0,5,5,24.2299,24.2299,-21.8922,2.9484,23.7978,0.265199,0.288638,0.139053,0,1,4.3575,-0.21,-0.8575,0.277672,0.672464,-0.801906,-0.05222,-0.0931,0.51982
14.1143,0,0,5,5,24.1143,24.1143,-21.7144,2.69822,23.8058,-0.268864,-0.176432,-0.0681168,0,1,4.4975,-0.035,-0.7875,-0.263032,0.205082,-1.00882,-0.05222,-0.0931,0.51982
14.001,0,0,5,5,24.001,24.001,-21.54,2.45391,23.8138,-0.264605,-0.173677,-0.0668183,0,1,4.1475,0.805,0.1575,-0.263032,0.205082,-1.00882,-0.05222,-0.0931,0.51982
13.8339,0,0,5,5,23.8339,23.8339,-21.283,2.58373,23.8257,0.119092,-0.27352,0.011691,0,1,2.835,1.05,0.4725,0.124562,0.101138,-0.932446,-0.05222,-0.0931,0.51982
13.6699,0,0,5,5,23.6699,23.6699,-21.0306,2.71038,23.8389,0.116884,-0.26938,0.0131836,0,1,2.4325,0.2975,0.735,0.124562,0.101138,-0.932446,-0.05222,-0.0931,0.51982
13.671,0,0,5,5,23.671,23.671,-21.0323,2.71223,23.8409,-0.0806844,0.10308,0.49931,1,1,2.59,0.6125,1.2075,-0.07381,0.473238,-0.450058,-0.05222,-0.0931,0.51982
13.6694,0,0,5,5,23.6694,23.6694,-21.0298,2.71402,23.844,-0.0807156,0.103121,0.499324,1,1,4.8825,0.35,1.785,-0.07381,0.473238,-0.450058,-0.04886,-0.0924,0.52346
13.8197,0,0,5,5,23.8197,23.8197,-21.2611,2.70014,23.8366,-0.0142638,0.264593,0.0422332,0,1,4.2525,-0.1225,1.855,-0.00732,0.638304,-0.90219,-0.04886,-0.0924,0.52346
13.9671,0,0,5,5,23.9671,23.9671,-21.4878,2.68665,23.8298,-0.0140287,0.260909,0.0408032,0,1,4.7425,-0.1225,2.1875,-0.00732,0.638304,-0.90219,-0.04886,-0.0924,0.52346
14.061,0,0,5,5,24.061,24.061,-21.6323,3.17452,23.8266,0.5329,0.10509,0.175699,0,1,4.795,-0.49,2.17,0.550464,0.484828,-0.767014,-0.04886,-0.0924,0.52346
14.1559,0,0,5,5,24.1559,24.1559,-21.7783,3.65603,23.8213,0.524511,0.102912,0.174293,0,1,2.9225,0,1.82,0.550464,0.484828,-0.767014,-0.04886,-0.0924,0.52346
14.2422,0,0,5,5,24.2422,24.2422,-21.9111,3.77094,23.8157,0.129139,0.148445,0.0204878,0,1,3.255,-0.6125,1.3125,0.155428,0.532408,-0.91866,-0.04886,-0.0924,0.52346
14.3275,0,0,5,5,24.3275,24.3275,-22.0424,3.88454,23.808,0.127161,0.146374,0.0195094,0,1,2.9225,0.14,0.3675,0.155428,0.532408,-0.91866,-0.04886,-0.0924,0.52346
14.3267,0,0,5,5,24.3267,24.3267,-22.0411,3.88447,23.809,0.00749867,-0.262486,0.0463204,1,1,4.235,-0.2275,0.2275,0.035258,0.123952,-0.892064,-0.04886,-0.0924,0.52346
14.3264,0,0,5,5,24.3264,24.3264,-22.0406,3.88225,23.8085,0.00753726,-0.262479,0.0463263,1,1,3.885,-1.085,-0.9975,0.035258,0.123952,-0.892064,-0.05712,-0.09212,0.5194
14.3256,0,0,5,5,24.3256,24.3256,-22.0394,3.88008,23.8071,-0.0706616,-0.00147608,0.126745,1,1,4.2875,-0.84,-1.54,-0.04331,0.384666,-0.812276,-0.05712,-0.09212,0.5194
14.3253,0,0,5,5,24.3253,24.3253,-22.0389,3.878,23.8052,-0.0706255,-0.0014696,0.12675,1,1,3.9025,-0.6825,-1.7675,-0.04331,0.384666,-0.812276,-0.05712,-0.09212,0.5194
14.3263,0,0,5,5,24.3263,24.3263,-22.0405,3.87736,23.8027,0.0943633,-0.00528033,0.151453,1,1,2.8175,0.2275,-1.785,0.122366,0.380884,-0.787754,-0.05712,-0.09212,0.5194
14.3271,0,0,5,5,24.3271,24.3271,-22.0417,3.87683,23.7989,0.0943724,-0.00529984,0.151446,1,1,3.045,0.56,-2.415,0.122366,0.380884,-0.787754,-0.05712,-0.09212,0.5194
14.3287,0,0,5,5,24.3287,24.3287,-22.0441,3.87587,23.7955,0.02004,0.217541,-0.209423,1,1,2.3275,0.2625,-2.3625,0.047702,0.603534,-1.14582,-0.05712,-0.09212,0.5194
14.329,0,0,5,5,24.329,24.329,-22.0446,3.87625,23.7924,0.0200334,0.217534,-0.209426,1,1,3.43,0.91,-1.8725,0.047702,0.603534,-1.14582,-0.05712,-0.09212,0.5194
14.4369,0,0,5,5,24.4369,24.4369,-22.2106,3.82477,23.7784,-0.0541484,0.173799,0.0458885,0,1,3.7275,0.735,-1.75,-0.027694,0.562542,-0.891454,-0.05712,-0.09212,0.5194
14.5438,0,0,5,5,24.5438,24.5438,-22.3751,3.773,23.7658,-0.0532468,0.171125,0.0448569,0,1,2.975,-0.0875,-1.4525,-0.027694,0.562542,-0.891454,-0.05712,-0.09212,0.5194
14.5436,0,0,5,5,24.5436,24.5436,-22.3748,3.77269,23.7646,0.153406,-0.103166,0.200512,1,0,3.815,0.14,-1.0325,0.179828,0.28853,-0.737002,-0.04634,-0.09296,0.5124
14.5736,0,0,5,5,24.5736,24.5736,-22.4209,3.69621,24.2167,-0.0974665,0.0769284,-0.0370036,0,0,3.22,0.2275,-0.77,-0.073444,0.469212,-0.972462,-0.04634,-0.09296,0.5124
14.6033,0,0,5,5,24.6033,24.6033,-22.4665,3.62046,24.6706,-0.0961471,0.0761606,-0.0372295,0,0,2.975,0.035,-0.7525,-0.073444,0.469212,-0.972462,-0.04634,-0.09296,0.5124
14.6042,0,0,5,5,24.6042,24.6042,-22.468,3.61939,24.6698,0.118051,-0.00104791,-0.116909,1,0,2.765,-0.385,-0.9275,0.141642,0.392108,-1.05152,-0.04634,-0.09296,0.5124
14.6044,0,0,5,5,24.6044,24.6044,-22.4684,3.61968,24.6689,0.118046,-0.00105331,-0.116912,1,0,3.4125,0.385,-0.7,0.141642,0.392108,-1.05152,-0.04634,-0.09296,0.5124
14.6765,0,0,5,5,24.6765,24.6765,-22.5793,3.69515,24.943,0.151719,0.0880569,0.0177601,0,0,3.3775,-0.035,-0.6825,0.176778,0.482876,-0.917074,-0.04634,-0.09296,0.5124
14.7469,0,0,5,5,24.7469,24.7469,-22.6875,3.76945,25.2186,0.150425,0.0863499,0.016957,0,0,3.8675,-0.455,-0.8225,0.176778,0.482876,-0.917074,-0.04634,-0.09296,0.5124
14.7461,0,0,5,5,24.7461,24.7461,-22.6863,3.77877,25.2193,0.0163855,0.0330045,-0.0807887,0,1,3.885,-0.14,0.035,0.042334,0.429562,-1.01406,-0.04844,-0.09534,0.5243
14.7739,0,0,5,5,24.7739,24.7739,-22.7291,3.6955,25.2168,-0.0874923,0.0524302,-0.00635971,0,1,3.7275,0.07,-0.035,-0.06344,0.449692,-0.94001,-0.04844,-0.09534,0.5243
14.8015,0,0,5,5,24.8015,24.8015,-22.7715,3.61422,25.2153,-0.0860766,0.0517146,-0.00656173,0,1,3.57,0.21,0.56,-0.06344,0.449692,-0.94001,-0.04844,-0.09534,0.5243
14.8659,0,0,5,5,24.8659,24.8659,-22.8706,3.54376,25.2107,-0.0754949,0.140589,-0.0433078,0,1,3.36,0,0.7,-0.054046,0.540094,-0.975878,-0.04844,-0.09534,0.5243
14.9293,0,0,5,5,24.9293,24.9293,-22.9681,3.47545,25.207,-0.0743049,0.138997,-0.0439016,0,1,3.3775,0.4025,1.2425,-0.054046,0.540094,-0.975878,-0.04844,-0.09534,0.5243
14.9296,0,0,5,5,24.9296,24.9296,-22.9686,3.47732,25.2093,-0.485202,-0.0771742,-0.120012,1,1,3.2375,0.5075,1.3825,-0.46665,0.324154,-1.0514,-0.04844,-0.09534,0.5243
14.9295,0,0,5,5,24.9295,24.9295,-22.9685,3.479,25.2127,-0.485231,-0.0771723,-0.120013,1,1,3.5,0.1575,1.9075,-0.46665,0.324154,-1.0514,-0.04844,-0.09534,0.5243
14.9288,0,0,5,5,24.9288,24.9288,-22.9674,3.48015,25.2163,-0.0871427,-0.0126715,-0.225373,1,1,4.06,-0.175,1.9075,-0.066856,0.38857,-1.15595,-0.04844,-0.09534,0.5243
14.9279,0,0,5,5,24.9279,24.9279,-22.966,3.4812,25.2201,-0.0871611,-0.0126489,-0.225365,1,1,4.2175,-0.28,2.0125,-0.066856,0.38857,-1.15595,-0.04956,-0.09198,0.5194
14.7182,0,0,5,5,24.7182,24.7182,-22.6434,3.51838,25.2432,0.0426669,-0.328158,-0.152159,0,1,3.815,-0.735,1.5575,0.064172,0.068198,-1.08543,-0.04956,-0.09198,0.5194
14.5118,0,0,5,5,24.5118,24.5118,-22.3258,3.55485,25.2661,0.0420317,-0.323031,-0.15008,0,1,3.815,-0.735,1.5575,0.064172,0.068198,-1.08543,-0.04956,-0.09198,0.5194
14.5124,0,0,5,5,24.5124,24.5124,-22.3268,3.55444,25.2672,-0.112248,0.106351,-0.168405,1,1,3.01,-0.42,0.175,-0.090768,0.49715,-1.10361,-0.04956,-0.09198,0.5194
14.513,0,0,5,5,24.513,24.513,-22.3277,3.55404,25.2682,-0.112241,0.106336,-0.168411,1,1,3.01,-0.42,0.175,-0.090768,0.49715,-1.10361,-0.04956,-0.09198,0.5194
14.381,0,0,5,5,24.381,24.381,-22.1246,3.6968,25.2804,0.166512,-0.197479,-0.124309,0,1,3.6575,-0.6125,-0.9275,0.191662,0.19032,-1.06103,-0.04956,-0.09198,0.5194
14.2511,0,0,5,5,24.2511,24.2511,-21.9247,3.83724,25.2929,0.164066,-0.194191,-0.123153,0,1,3.6575,-0.6125,-0.9275,0.191662,0.19032,-1.06103,-0.04956,-0.09198,0.5194
14.2502,0,0,5,5,24.2502,24.2502,-21.9235,3.83547,25.2906,-0.00124543,0.276749,0.0315262,1,1,4.375,-0.4375,-1.9075,0.02562,0.660752,-0.907558,-0.04956,-0.09198,0.5194
14.2494,0,0,5,5,24.2494,24.2494,-21.9222,3.8337,25.2884,-0.00121457,0.276769,0.0315364,1,1,4.375,-0.4375,-1.9075,0.02562,0.660752,-0.907558,-0.05376,-0.09044,0.52094
14.2796,0,0,5,5,24.2796,24.2796,-21.9686,3.82448,25.2826,-0.00469865,0.0746286,-0.0470738,0,1,3.605,0.21,-1.89,0.02196,0.459574,-0.985272,-0.05376,-0.09044,0.52094
14.2805,0,0,5,5,24.2805,24.2805,-21.9699,3.82371,25.2797,-0.0520646,-0.102844,0.158611,1,1,2.9225,0.245,-2.03,-0.02562,0.282308,-0.781166,-0.05376,-0.09044,0.52094
14.2814,0,0,5,5,24.2814,24.2814,-21.9714,3.82359,25.2765,-0.0520626,-0.102868,0.158602,1,1,2.87,0.665,-2.0475,-0.02562,0.282308,-0.781166,-0.05376,-0.09044,0.52094
14.2525,0,0,5,5,24.2525,24.2525,-21.927,3.73997,25.2772,-0.0889958,-0.0273217,-0.0682286,0,1,2.5725,0.7875,-1.435,-0.064172,0.357094,-1.00662,-0.05376,-0.09044,0.52094
14.223,0,0,5,5,24.223,24.223,-21.8815,3.65718,25.2785,-0.0875539,-0.0266221,-0.0678468,0,1,3.5175,0.3325,-1.1725,-0.064172,0.357094,-1.00662,-0.05376,-0.09044,0.52094
14.0948,0,0,5,5,24.0948,24.0948,-21.6843,3.81428,25.2898,0.172119,-0.200694,-0.0764509,0,1,3.5875,0.0525,-1.2775,0.199348,0.17995,-1.01626,-0.05376,-0.09044,0.52094
13.9691,0,0,5,5,23.9691,23.9691,-21.4909,3.96951,25.3021,0.169416,-0.197495,-0.0753827,0,1,3.15,0.2625,-0.7175,0.199348,0.17995,-1.01626,-0.05376,-0.09044,0.52094
14.0238,0,0,5,5,24.0238,24.0238,-21.5751,3.75895,25.2959,-0.215185,0.0591037,0.0786096,0,1,3.325,0.14,-0.595,-0.190564,0.437736,-0.86315,-0.05376,-0.09044,0.52094
14.0779,0,0,5,5,24.0779,24.0779,-21.6583,3.5515,25.2898,-0.211572,0.057672,0.0782905,0,1,3.15,0.0525,-0.805,-0.190564,0.437736,-0.86315,-0.0497,-0.08932,0.52066
14.0787,0,0,5,5,24.0787,24.0787,-21.6595,3.55187,25.2883,0.0897059,0.0907486,0.184879,1,1,2.94,0.56,-1.05,0.111996,0.470798,-0.757376,-0.0497,-0.08932,0.52066
14.0786,0,0,5,5,24.0786,24.0786,-21.6594,3.55168,25.2874,0.0897092,0.0907506,0.18488,1,1,3.675,0.1225,-0.8225,0.111996,0.470798,-0.757376,-0.0497,-0.08932,0.52066
14.0783,0,0,5,5,24.0783,24.0783,-21.6589,3.55106,25.2876,0.340588,0.12129,-0.0233914,1,1,3.8325,-0.3675,-0.28,0.363926,0.501298,-0.964044,-0.0497,-0.08932,0.52066
14.0774,0,0,5,5,24.0774,24.0774,-21.6575,3.55017,25.2876,0.340603,0.121312,-0.0233816,1,1,4.3575,-0.455,-0.49,0.363926,0.501298,-0.964044,-0.0497,-0.08932,0.52066
14.1574,0,0,5,5,24.1574,24.1574,-21.7806,3.44182,25.2803,-0.114295,0.131856,0.0299063,0,1,4.305,-0.595,-0.3675,-0.094794,0.513864,-0.910486,-0.0497,-0.08932,0.52066
14.2354,0,0,5,5,24.2354,24.2354,-21.9006,3.33773,25.2735,-0.112482,0.129875,0.0292281,0,1,4.8825,0.7175,0.2975,-0.094794,0.513864,-0.910486,-0.0497,-0.08932,0.52066
14.3739,0,0,5,5,24.3739,24.3739,-22.1137,3.31407,25.2616,-0.0247211,0.252337,0.0284738,0,1,4.095,0.6475,0.245,-0.007076,0.639646,-0.909876,-0.0497,-0.08932,0.52066
14.5262,0,0,5,5,24.5262,24.5262,-22.3481,3.24545,25.7091,-0.0235255,0.248531,0.0269922,0,0,2.5375,0.385,0.525,-0.007076,0.639646,-0.909876,-0.05012,-0.09198,0.51254
14.6087,0,0,5,5,24.6087,24.6087,-22.4749,3.62211,25.5792,0.618403,-0.0122706,0.154882,0,0,3.115,0.7875,1.575,0.64416,0.381006,-0.781776,-0.05012,-0.09198,0.51254
14.6894,0,0,5,5,24.6894,24.6894,-22.5991,3.99468,25.4489,0.611915,-0.0141038,0.153653,0,0,3.115,0.7875,1.575,0.64416,0.381006,-0.781776,-0.05012,-0.09198,0.51254
14.6889,0,0,5,5,24.6889,24.6889,-22.5983,3.99581,25.4515,0.00313034,-0.0299654,0.107921,1,0,3.9725,0.0525,1.365,0.032818,0.365146,-0.82716,-0.05012,-0.09198,0.51254
14.6883,0,0,5,5,24.6883,24.6883,-22.5974,3.99694,25.4541,0.00311069,-0.0299505,0.107926,1,0,3.9725,0.0525,1.365,0.032818,0.365146,-0.82716,-0.05012,-0.09198,0.51254
14.6695,0,0,5,5,24.6695,24.6695,-22.5685,3.96785,25.8532,-0.0521448,-0.0358509,0.037702,0,0,3.92,-0.35,1.505,-0.02318,0.358802,-0.897066,-0.05012,-0.09198,0.51254
14.6511,0,0,5,5,24.6511,24.6511,-22.5401,3.93891,26.2531,-0.0516409,-0.035408,0.0379236,0,0,3.92,-0.35,1.505,-0.02318,0.358802,-0.897066,-0.05012,-0.09198,0.51254
14.5408,0,0,5,5,24.5408,24.5408,-22.3704,3.92122,26.6318,-0.0874142,-0.146141,-0.0235088,0,0,2.905,4.0075,-0.0525,-0.059414,0.245464,-0.959164,-0.05012,-0.09198,0.51254
14.4323,0,0,5,5,24.4323,24.4323,-22.2036,3.90259,27.0097,-0.0870897,-0.143461,-0.0223867,0,0,2.905,4.0075,-0.0525,-0.059414,0.245464,-0.959164,-0.04956,-0.09114,0.51352
14.4789,0,0,5,5,24.4789,24.4789,-22.2752,3.92351,27.3469,0.0611229,0.053118,0.0281423,0,0,4.27,-4.2,-0.35,0.089792,0.442982,-0.908534,-0.04956,-0.09114,0.51352
14.5246,0,0,5,5,24.5246,24.5246,-22.3455,3.94452,27.6856,0.0607572,0.0519937,0.0276538,0,0,4.27,-4.2,-0.35,0.089792,0.442982,-0.908534,-0.04956,-0.09114,0.51352
14.5931,0,0,5,5,24.5931,24.5931,-22.451,4.03852,27.9391,0.176476,0.0774525,0.0199637,0,0,4.3225,-0.84,-1.6625,0.207644,0.470066,-0.915366,-0.04956,-0.09114,0.51352
14.6605,0,0,5,5,24.6605,24.6605,-22.5546,4.13183,28.194,0.174851,0.0758298,0.0191659,0,0,4.3225,-0.84,-1.6625,0.207644,0.470066,-0.915366,-0.04956,-0.09114,0.51352
14.9299,0,0,5,5,24.9299,24.9299,-22.9691,4.07523,28.625,0.0361279,0.324027,0.21537,0,0,4.34,0.5775,-1.5225,0.067344,0.72468,-0.71797,-0.04956,-0.09114,0.51352
14.9312,0,0,5,5,24.9312,24.9312,-22.971,4.07417,28.6226,-0.200386,-0.0762134,-0.130988,1,0,2.6075,0.0175,-1.855,-0.17019,0.324886,-1.06164,-0.04956,-0.09114,0.51352
14.9331,0,0,5,5,24.9331,24.9331,-22.974,4.07485,28.6201,-0.200398,-0.0762605,-0.131009,1,0,2.0125,0.9625,-1.47,-0.17019,0.324886,-1.06164,-0.04956,-0.09114,0.51352
15.0267,0,0,5,5,25.0267,25.0267,-23.1179,4.22515,28.6082,0.169339,0.15648,0.0350457,0,1,2.275,0.9625,-0.91,0.20374,0.559614,-0.895724,-0.04242,-0.09072,0.5194
14.9293,0,0,5,5,24.9293,24.9293,-22.9681,4.08419,28.6182,-0.14079,-0.170689,0.0358614,0,1,3.3425,-0.525,-1.0675,-0.110166,0.230458,-0.89609,-0.04242,-0.09072,0.5194
14.8332,0,0,5,5,24.8332,24.8332,-22.8203,3.94618,28.6272,-0.138387,-0.168382,0.0370184,0,1,3.675,-0.035,-1.155,-0.110166,0.230458,-0.89609,-0.04242,-0.09072,0.5194
14.8331,0,0,5,5,24.8331,24.8331,-22.8201,3.94645,28.6268,0.120495,0.114099,0.359267,1,1,3.675,0.2625,-0.4375,0.149816,0.512644,-0.576328,-0.04242,-0.09072,0.5194
14.833,0,0,5,5,24.833,24.833,-22.82,3.94578,28.626,0.120506,0.114101,0.359269,1,1,3.6925,-0.14,-0.8925,0.149816,0.512644,-0.576328,-0.04242,-0.09072,0.5194
14.8347,0,0,5,5,24.8347,24.8347,-22.8227,3.9446,28.6246,0.0292909,0.229956,-0.0697152,1,1,2.1175,-0.2975,-1.295,0.058194,0.628422,-1.00199,-0.04242,-0.09072,0.5194
14.8348,0,0,5,5,24.8348,24.8348,-22.8228,3.9461,28.6233,0.0292649,0.229954,-0.0697179,1,1,3.535,1.12,-0.63,0.058194,0.628422,-1.00199,-0.04242,-0.09072,0.5194
15.0153,0,0,5,5,25.0153,25.0153,-23.1004,4.02221,28.6038,0.08929,0.31054,0.089866,0,1,4.655,0.6125,-0.1225,0.119804,0.713334,-0.841678,-0.04242,-0.09072,0.5194
15.1948,0,0,5,5,25.1948,25.1948,-23.3765,4.09471,28.5846,0.0880278,0.306158,0.0878867,0,1,3.01,-0.735,-0.42,0.119804,0.713334,-0.841678,-0.05124,-0.08988,0.52276
15.1572,0,0,5,5,25.1572,25.1572,-23.3187,4.40076,28.5887,0.308664,-0.0932147,0.069726,0,1,4.2,-0.7875,-0.6825,0.346724,0.313296,-0.859734,-0.05124,-0.08988,0.52276
15.1185,0,0,5,5,25.1185,25.1185,-23.2593,4.70461,28.5937,0.303378,-0.0920987,0.0697481,0,1,5.5475,0.455,0.2275,0.346724,0.313296,-0.859734,-0.05124,-0.08988,0.52276
