pid_x,pid_y,pid_z,front_left_speed,front_right_speed,back_left_speed,back_right_speed,orientation_x,orientation_y,orientation_z,acceleration_x,acceleration_y,acceleration_z,accel_rejected,mag_rejected,ahrs_initialized,gyro_x,gyro_y,gyro_z,accel_x,accel_y,accel_z,mag_x,mag_y,mag_z
-1.63385,0,0,11.6339,11.6339,8.36615,8.36615,0.0238634,0.0233143,0.684374,0.00607571,-0.0196794,0.0119877,0,0,0,3.78,0.2625,-0.8925,-0.033794,-0.00793,-1.00077,-0.17416,-0.23842,0.32704
-1.66206,0,0,11.6621,11.6621,8.33794,8.33794,0.0475114,0.0477558,1.36372,0.00698547,-0.0197551,-0.000430593,0,0,0,3.675,0.315,-1.05,-0.032452,-0.008418,-1.01309,-0.17416,-0.23842,0.32704
-1.50759,0,0,11.5076,11.5076,8.49241,8.49241,0.0682813,0.0679654,2.04079,0.0052964,-0.0173165,0.000798169,0,0,0,3.5875,0.2625,-0.98,-0.033794,-0.006344,-1.01187,-0.17416,-0.23842,0.32704
-1.66625,0,0,11.6663,11.6663,8.33375,8.33375,0.0908224,0.0869667,2.71685,0.00411437,-0.0185107,0.00178076,0,0,0,3.6925,0.0525,-1.0675,-0.034648,-0.00793,-1.01089,-0.16772,-0.23786,0.32494
-1.59743,0,0,11.5974,11.5974,8.40257,8.40257,0.111765,0.101119,3.39108,0.00143765,-0.0172903,-0.0053513,0,0,0,3.6575,0.035,-1.2775,-0.037088,-0.007076,-1.01797,-0.16772,-0.23786,0.32494
-1.46778,0,0,11.4678,11.4678,8.53222,8.53222,0.130264,0.111584,4.06286,-0.000324308,-0.0152577,-0.000557331,0,0,0,3.5525,0.14,-1.365,-0.038674,-0.005368,-1.01321,-0.16772,-0.23786,0.32494
-1.48662,0,0,11.4866,11.4866,8.51338,8.51338,0.148551,0.121741,4.73075,-0.000501577,-0.0149385,-0.000558469,0,0,0,3.5875,0.245,-1.4175,-0.038674,-0.005368,-1.01321,-0.16772,-0.23786,0.32494
-1.87934,0,0,11.8793,11.8793,8.12066,8.12066,0.172093,0.143661,5.38869,0.00579755,-0.0190463,0.00472628,0,0,0,3.465,0.14,-1.2775,-0.031964,-0.009882,-1.00796,-0.16772,-0.23786,0.32494
-1.71887,0,0,11.7189,11.7189,8.28113,8.28113,0.192672,0.154201,6.04369,0.0046417,-0.0164889,0.00238864,0,0,0,3.57,-4.34,-1.3125,-0.03294,-0.007686,-1.01028,-0.16772,-0.23786,0.32494
-1.70406,0,0,11.7041,11.7041,8.29594,8.29594,0.212492,0.16254,6.70007,-0.00182109,-0.0156544,0.00902623,0,0,0,3.6575,-0.07,-1.435,-0.039284,-0.007198,-1.00369,-0.16772,-0.23786,0.32494
-1.71099,0,0,11.711,11.711,8.28901,8.28901,0.231893,0.170724,7.34662,-0.00196393,-0.0153158,0.0090245,0,0,0,3.605,0.1575,-1.4525,-0.039284,-0.007198,-1.00369,-0.17052,-0.23786,0.33152
-1.8185,0,0,11.8185,11.8185,8.1815,8.1815,0.252353,0.188713,7.98279,0.00476829,-0.0159358,0.00717778,0,0,0,3.57,0.0525,-1.4175,-0.032208,-0.008174,-1.00552,-0.17052,-0.23786,0.33152
-1.81049,0,0,11.8105,11.8105,8.18951,8.18951,0.272158,0.202685,8.61696,0.00233768,-0.015468,0.00520819,0,0,0,3.5525,-0.035,-1.2775,-0.034404,-0.008052,-1.00748,-0.17052,-0.23786,0.33152
-2.06666,0,0,12.0667,12.0667,7.93334,7.93334,0.295183,0.221883,9.2443,0.00479679,-0.0176308,0.00409842,0,0,0,3.6925,0.1225,-1.1725,-0.031598,-0.010614,-1.00857,-0.17052,-0.23786,0.33152
-1.88849,0,0,11.8885,11.8885,8.11151,8.11151,0.314999,0.234636,9.87058,0.00129409,-0.0153309,0.00987427,0,0,0,3.4825,0.14,-1.12,-0.034892,-0.008662,-1.00284,-0.17052,-0.23786,0.33152
-1.90781,0,0,11.9078,11.9078,8.09219,8.09219,0.334576,0.247067,10.4924,0.00107713,-0.0149893,0.00987143,0,0,0,3.535,0.28,-1.2775,-0.034892,-0.008662,-1.00284,-0.17052,-0.23786,0.33152
-1.91226,0,0,11.9123,11.9123,8.08774,8.08774,0.353703,0.259897,11.109,0.00182509,-0.0145333,0.00384395,0,0,0,3.6225,0.175,-1.2775,-0.033916,-0.00854,-1.00882,-0.17052,-0.23786,0.33152
-1.7429,0,0,11.7429,11.7429,8.2571,8.2571,0.369852,0.26446,11.7274,-0.002871,-0.0125417,-0.003781,0,0,0,3.605,0.105,-1.225,-0.038552,-0.006832,-1.01638,-0.16744,-0.23842,0.3318
-1.66124,0,0,11.6612,11.6612,8.33876,8.33876,0.384384,0.276904,12.3358,0.00359353,-0.0109447,0.00469975,0,0,0,3.5,-0.035,-1.225,-0.031842,-0.00549,-1.00796,-0.16744,-0.23842,0.3318
-1.92727,0,0,11.9273,11.9273,8.07273,8.07273,0.402417,0.290877,12.939,0.00347114,-0.0134389,0.0108438,0,0,0,3.4825,-0.1225,-1.26,-0.03172,-0.008296,-1.00186,-0.16744,-0.23842,0.3318
-1.9081,0,0,11.9081,11.9081,8.0919,8.0919,0.419696,0.30455,13.5383,0.0032325,-0.0131373,0.0108404,0,0,0,3.2375,0.035,-1.05,-0.03172,-0.008296,-1.00186,-0.16744,-0.23842,0.3318
-1.8151,0,0,11.8151,11.8151,8.1849,8.1849,0.435162,0.316988,14.1334,0.00325839,-0.011524,0.00198492,0,0,0,3.5,0.0875,-0.945,-0.031476,-0.006954,-1.01065,-0.16744,-0.23842,0.3318
-1.91867,0,0,11.9187,11.9187,8.08133,8.08133,0.451732,0.326232,14.7261,0.000424375,-0.0120897,0.00714562,0,0,0,3.675,0.2625,-0.9625,-0.03416,-0.007808,-1.00552,-0.16744,-0.23842,0.3318
-1.94019,0,0,11.9402,11.9402,8.05981,8.05981,0.46818,0.335162,15.3142,0.000268516,-0.0118027,0.00714241,0,0,0,3.78,0.3325,-1.0675,-0.03416,-0.007808,-1.00552,-0.16744,-0.23842,0.3318
-1.84263,0,0,11.8426,11.8426,8.15737,8.15737,0.48277,0.346916,15.8954,0.00310051,-0.0104489,0.00320473,0,0,0,3.6575,0.2275,-1.1725,-0.03111,-0.00671,-1.00943,-0.1729,-0.238,0.32606
-2.02815,0,0,12.0282,12.0282,7.97185,7.97185,0.499684,0.353819,16.4748,-0.00102899,-0.0124741,-0.00245417,0,0,0,3.6575,0.0875,-1.19,-0.035136,-0.009028,-1.01504,-0.1729,-0.238,0.32606
-2.15551,0,0,12.1555,12.1555,7.84449,7.84449,0.518013,0.369889,17.0439,0.00500781,-0.0130092,0.00467223,0,0,0,3.605,0.175,-1.1725,-0.028792,-0.009882,-1.00796,-0.1729,-0.238,0.32606
-1.96301,0,0,11.963,11.963,8.03699,8.03699,0.533048,0.383421,17.609,0.00477163,-0.0104264,-0.000618517,0,0,0,3.78,0.0175,-1.155,-0.028792,-0.007564,-1.01321,-0.1729,-0.238,0.32606
-1.93775,0,0,11.9377,11.9377,8.06225,8.06225,0.547317,0.396767,18.1692,0.0045387,-0.0101774,-0.000622451,0,0,0,3.5175,0.21,-1.365,-0.028792,-0.007564,-1.01321,-0.1729,-0.238,0.32606
-2.09152,0,0,12.0915,12.0915,7.90848,7.90848,0.563455,0.408006,18.7258,0.00227729,-0.0113613,0.0127748,0,0,0,3.5,0.175,-1.3125,-0.030866,-0.009028,-0.999912,-0.1729,-0.238,0.32606
-2.07562,0,0,12.0756,12.0756,7.92438,7.92438,0.578936,0.412939,19.2816,-0.00218229,-0.0113354,0.00330448,0,0,0,3.5,0.3325,-1.19,-0.035258,-0.009272,-1.00931,-0.1729,-0.238,0.32606
-2.08333,0,0,12.0833,12.0833,7.91667,7.91667,0.594121,0.417378,19.8384,-0.00225977,-0.0110704,0.00330121,0,0,0,3.5,0.1925,-1.295,-0.035258,-0.009272,-1.00931,-0.16996,-0.24136,0.32578
-2.18408,0,0,12.1841,12.1841,7.81592,7.81592,0.610377,0.424556,20.3886,-0.000319774,-0.0115194,0.00452679,0,0,0,3.5875,0.035,-1.1725,-0.033184,-0.010004,-1.00809,-0.16996,-0.24136,0.32578
-1.99217,0,0,11.9922,11.9922,8.00783,8.00783,0.623401,0.427297,20.9364,-0.00255436,-0.00933811,0.00181912,0,0,0,3.6225,0.1575,-1.2425,-0.03538,-0.008052,-1.01077,-0.16996,-0.24136,0.32578
-1.99514,0,0,11.9951,11.9951,8.00486,8.00486,0.636125,0.429932,21.4792,-0.00260034,-0.00911606,0.00181634,0,0,0,3.605,0.2275,-1.3475,-0.03538,-0.008052,-1.01077,-0.16996,-0.24136,0.32578
-1.95371,0,0,11.9537,11.9537,8.04629,8.04629,0.647908,0.43335,22.0167,-0.00193109,-0.00842192,0.00144474,0,0,0,3.57,0.42,-1.33,-0.034648,-0.007564,-1.01114,-0.16996,-0.24136,0.32578
-1.9302,0,0,11.9302,11.9302,8.0698,8.0698,0.659036,0.433495,22.551,-0.00387739,-0.00798346,0.000335967,0,0,0,3.6575,0.28,-1.3475,-0.0366,-0.00732,-1.01223,-0.16996,-0.24136,0.32578
-1.88728,0,0,11.8873,11.8873,8.11272,8.11272,0.669244,0.433533,23.0806,-0.00387806,-0.00780533,0.000333897,0,0,0,3.2725,0.2975,-1.365,-0.0366,-0.00732,-1.01223,-0.16996,-0.24136,0.32578
-2.12482,0,0,12.1248,12.1248,7.87518,7.87518,0.68265,0.432826,23.5978,-0.00544502,-0.0100139,0.00623276,0,0,0,3.29,0.2975,-1.2425,-0.038186,-0.00976,-1.00638,-0.17136,-0.23968,0.33446
0.324622,0,0,9.67538,9.67538,10.3246,10.3246,0.659928,0.408632,24.123,-0.0102467,0.0153583,-0.0104805,0,0,0,3.71,-0.105,-1.3125,-0.043432,0.015982,-1.02297,-0.17136,-0.23968,0.33446
3.24997,0,0,6.75003,6.75003,13.25,13.25,0.595075,0.384976,24.6435,0.00352964,0.0452468,0.0137556,0,0,0,3.71,0.175,-1.155,-0.030012,0.04697,-0.998936,-0.17136,-0.23968,0.33446
3.26276,0,0,6.73724,6.73724,13.2628,13.2628,0.531738,0.362957,25.1592,0.00391392,0.0441414,0.013769,0,0,0,3.78,0.35,-1.47,-0.030012,0.04697,-0.998936,-0.17136,-0.23968,0.33446
0.632264,0,0,9.36774,9.36774,10.6323,10.6323,0.508486,0.285657,25.7022,-0.0523212,0.0127155,-0.045112,0,0,0,3.92,-0.0875,-1.6975,-0.08784,0.015982,-1.05737,-0.17136,-0.23968,0.33446
-7.13546,0,0,17.1355,17.1355,2.86454,2.86454,0.599297,0.436075,26.105,0.0665393,-0.0423666,0.199401,0,0,0,4.095,-0.035,-1.785,0.03416,-0.040626,-0.814716,-0.17136,-0.23968,0.33446
-1.05656,0,0,11.0566,11.0566,8.94344,8.94344,0.598932,0.4355,26.1042,0.0665493,-0.042373,0.199401,1,0,0,3.3425,-0.245,-1.645,0.03416,-0.040626,-0.814716,-0.17136,-0.23968,0.33446
-1.01147,0,0,11.0115,11.0115,8.98853,8.98853,0.597917,0.435276,26.1041,-0.415502,0.111245,0.284973,1,0,0,2.975,-0.035,-1.2425,-0.449936,0.11285,-0.729804,-0.1638,-0.23702,0.34496
-0.9909,0,0,10.9909,10.9909,9.0091,9.0091,0.596628,0.436896,26.1048,0.474595,0.0313513,-0.149896,1,0,0,2.8175,1.05,-0.805,0.443958,0.033062,-1.16132,-0.1638,-0.23702,0.34496
-0.928825,0,0,10.9288,10.9288,9.07117,9.07117,0.594464,0.43774,26.1054,-0.321515,-0.0128963,-0.0581758,1,0,0,2.3275,0.595,-0.805,-0.355508,-0.011102,-1.07031,-0.1638,-0.23702,0.34496
-0.989316,0,0,10.9893,10.9893,9.01068,9.01068,0.593239,0.437564,26.1064,-0.321512,-0.0129177,-0.0581755,1,0,0,2.8525,0,-0.595,-0.355508,-0.011102,-1.07031,-0.1638,-0.23702,0.34496
-1.08781,0,0,11.0878,11.0878,8.91219,8.91219,0.593484,0.436758,26.1077,-0.087152,-0.0533373,-0.135264,1,0,0,3.675,-0.3675,-0.4025,-0.12017,-0.051484,-1.1468,-0.1638,-0.23702,0.34496
-1.08834,0,0,11.0883,11.0883,8.91166,8.91166,0.593729,0.435951,26.1091,-0.087138,-0.0533331,-0.135264,1,0,0,3.675,-0.3675,-0.4025,-0.12017,-0.051484,-1.1468,-0.1638,-0.23702,0.34496
-2.32958,0,0,12.3296,12.3296,7.67042,7.67042,0.612095,0.408085,26.6115,-0.0263947,-0.0133213,-0.0328478,0,0,0,5.25,-0.21,0,-0.059658,-0.011834,-1.04517,-0.1638,-0.23702,0.34496
-4.27946,0,0,14.2795,14.2795,5.72054,5.72054,0.658456,0.287584,27.1601,-0.0947533,-0.0321745,0.10744,0,0,0,6.0025,-0.385,-0.0525,-0.130418,-0.031476,-0.905972,-0.1638,-0.23702,0.34496
-1.34229,0,0,11.3423,11.3423,8.65771,8.65771,0.660697,0.286831,27.1619,-0.0947402,-0.0321354,0.10744,1,0,0,4.795,-0.3325,-0.1225,-0.130418,-0.031476,-0.905972,-0.16744,-0.23576,0.34608
-13.8203,0,0,23.8203,23.8203,1,1,0.845127,-0.149162,27.8352,-0.359016,-0.143594,0.170479,0,0,0,4.095,-0.0875,-0.1225,-0.403454,-0.146034,-0.843386,-0.16744,-0.23576,0.34608
-13.6758,0,0,23.6758,23.6758,1,1,1.0226,-0.575393,28.4983,-0.351577,-0.140498,0.170382,0,0,0,2.0125,1.225,-0.175,-0.403454,-0.146034,-0.843386,-0.16744,-0.23576,0.34608
-9.36246,0,0,19.3625,19.3625,1,1,1.1324,-0.615865,28.9809,-0.0724251,-0.0888761,-0.0498624,0,0,0,1.435,1.015,-0.42,-0.12383,-0.09638,-1.06189,-0.16744,-0.23576,0.34608
-9.41157,0,0,19.4116,19.4116,1,1,1.24003,-0.658303,29.4577,-0.0716845,-0.0869983,-0.0499095,0,0,0,1.575,0.07,-0.7525,-0.12383,-0.09638,-1.06189,-0.16744,-0.23576,0.34608
-2.09784,0,0,12.0978,12.0978,7.90216,7.90216,1.238,-0.658402,29.4587,-0.0845603,-0.0484416,-0.229782,1,0,0,2.415,0.0525,-0.56,-0.136762,-0.057828,-1.24037,-0.16744,-0.23576,0.34608
-2.31695,0,0,12.317,12.317,7.68305,7.68305,1.23923,-0.65891,29.4594,-0.0845514,-0.0484202,-0.229783,1,0,0,4.235,-0.1925,-0.7875,-0.136762,-0.057828,-1.24037,-0.16744,-0.23576,0.34608
-12.5453,0,0,22.5453,22.5453,1,1,1.38981,-0.800564,29.9744,-0.144887,-0.105514,0.071472,0,0,0,5.6525,-0.42,-1.365,-0.199836,-0.117486,-0.941352,-0.16744,-0.23576,0.34608
-12.574,0,0,22.574,22.574,1,1,1.53685,-0.941278,30.4748,-0.142432,-0.102949,0.0713692,0,0,0,5.6525,-0.42,-1.365,-0.199836,-0.117486,-0.941352,-0.16128,-0.22288,0.34664
-3.01514,0,0,13.0151,13.0151,6.98486,6.98486,1.54041,-0.942198,30.474,-0.0412181,-0.0994678,0.248044,1,0,0,5.53,-0.455,-1.645,-0.09821,-0.11407,-0.766038,-0.16128,-0.22288,0.34664
-3.02177,0,0,13.0218,13.0218,6.97823,6.97823,1.54396,-0.943118,30.4732,-0.041202,-0.0994058,0.248042,1,0,0,5.53,-0.455,-1.645,-0.09821,-0.11407,-0.766038,-0.16128,-0.22288,0.34664
-2.73881,0,0,12.7388,12.7388,7.26119,7.26119,1.54329,-0.941862,30.4714,-0.101359,-0.00867737,0.331771,1,0,0,3.15,0.805,-2.2225,-0.1586,-0.023424,-0.682956,-0.16128,-0.22288,0.34664
-2.73783,0,0,12.7378,12.7378,7.26217,7.26217,1.54262,-0.940605,30.4697,-0.101381,-0.0086891,0.331772,1,0,0,3.15,0.805,-2.2225,-0.1586,-0.023424,-0.682956,-0.16128,-0.22288,0.34664
-3.70532,0,0,13.7053,13.7053,6.29468,6.29468,1.55609,-1.05221,30.966,-0.102835,-0.02482,-0.0896131,0,0,0,1.1725,0.77,-2.3625,-0.162016,-0.039772,-1.10105,-0.16128,-0.22288,0.34664
-3.72017,0,0,13.7202,13.7202,6.27983,6.27983,1.56942,-1.16132,31.4571,-0.100931,-0.0245884,-0.0896562,0,0,0,1.1725,0.77,-2.3625,-0.162016,-0.039772,-1.10105,-0.16128,-0.22288,0.34664
-2.68084,0,0,12.6808,12.6808,7.31916,7.31916,1.56722,-1.16186,31.4557,-0.0184331,-0.052716,-0.163424,1,0,0,2.2925,-0.245,-1.995,-0.079178,-0.067832,-1.17425,-0.16128,-0.22288,0.34664
-2.78243,0,0,12.7824,12.7824,7.21757,7.21757,1.56655,-1.16284,31.4539,0.0177867,-0.0131585,-0.182359,1,0,0,3.15,-0.5075,-2.24,-0.042822,-0.028304,-1.19304,-0.16842,-0.22176,0.34468
-2.95493,0,0,12.9549,12.9549,7.04507,7.04507,1.56842,-1.16447,31.4518,0.0178152,-0.013126,-0.18236,1,0,0,4.5675,-0.8925,-2.38,-0.042822,-0.028304,-1.19304,-0.16842,-0.22176,0.34468
-9.37157,0,0,19.3716,19.3716,1,1,1.66396,-1.26083,31.9121,-0.090205,-0.0634866,0.0981258,0,0,0,4.55,-0.5775,-1.995,-0.152988,-0.080276,-0.914634,-0.16842,-0.22176,0.34468
-3.19173,0,0,13.1917,13.1917,6.80827,6.80827,1.66672,-1.26159,31.9108,0.169545,0.0971582,0.202139,1,0,0,5.075,-0.3675,-1.9075,0.107848,0.080154,-0.811422,-0.16842,-0.22176,0.34468
-3.12122,0,0,13.1212,13.1212,6.87878,6.87878,1.66837,-1.26078,31.9102,0.169531,0.0971871,0.202138,1,0,0,4.4625,0.56,-1.575,0.107848,0.080154,-0.811422,-0.16842,-0.22176,0.34468
23.6492,0,0,1,1,33.6492,33.6492,1.27898,-1.32083,32.3969,0.0691378,0.26589,0.0411037,0,0,0,3.745,0.7,-1.4175,0.005978,0.255468,-0.971364,-0.16842,-0.22176,0.34468
23.8564,0,0,1,1,33.8564,33.8564,0.896797,-1.37541,32.8824,0.07009,0.259223,0.0412079,0,0,0,3.15,0.8925,-1.19,0.005978,0.255468,-0.971364,-0.16842,-0.22176,0.34468
-1.55703,0,0,11.557,11.557,8.44297,8.44297,0.895839,-1.37486,32.8826,0.0755473,0.0448735,-0.283622,1,0,0,3.01,0.42,-1.0325,0.011468,0.041358,-1.29369,-0.16842,-0.22176,0.34468
-1.4671,0,0,11.4671,11.4671,8.5329,8.5329,0.893591,-1.37539,32.8833,0.0755567,0.0448343,-0.283621,1,0,0,2.2925,-0.21,-0.77,0.011468,0.041358,-1.29369,-0.16198,-0.22302,0.34986
-1.42234,0,0,11.4223,11.4223,8.57766,8.57766,0.890747,-1.37608,32.8842,-0.127191,-0.112881,-0.188336,1,0,0,1.96,-0.2975,-0.6825,-0.19215,-0.116144,-1.19914,-0.16198,-0.22302,0.34986
-1.43418,0,0,11.4342,11.4342,8.56582,8.56582,0.888148,-1.37764,32.8852,-0.127164,-0.112926,-0.188336,1,0,0,2.1,-0.805,-0.5775,-0.19215,-0.116144,-1.19914,-0.16198,-0.22302,0.34986
-15.0032,0,0,25.0032,25.0032,1,1,1.0838,-0.938163,33.022,0.30859,-0.115006,-0.0333242,0,0,0,3.045,-0.49,-0.3325,0.25315,-0.121634,-1.04542,-0.16198,-0.22302,0.34986
-15.196,0,0,25.196,25.196,1,1,1.27712,-0.50942,33.1596,0.301108,-0.111631,-0.0332992,0,0,0,4.7775,-0.07,0.0175,0.25315,-0.121634,-1.04542,-0.16198,-0.22302,0.34986
-2.57726,0,0,12.5773,12.5773,7.42274,7.42274,1.28105,-0.509422,33.1616,0.276082,0.0483017,0.251325,1,0,0,5.7575,0.1225,0.0175,0.228018,0.038064,-0.762988,-0.16198,-0.22302,0.34986
-2.70415,0,0,12.7041,12.7041,7.29585,7.29585,1.28673,-0.508799,33.1638,0.276071,0.0484008,0.251323,1,0,0,6.7375,0.49,0.07,0.228018,0.038064,-0.762988,-0.16198,-0.22302,0.34986
-2.62488,0,0,12.6249,12.6249,7.37512,7.37512,1.2911,-0.507247,33.1658,-0.0366602,-0.0857403,0.325828,1,0,0,6.0025,1.0325,-0.0175,-0.08601,-0.096014,-0.689056,-0.16198,-0.22302,0.34986
-2.38548,0,0,12.3855,12.3855,7.61452,7.61452,1.29185,-0.506575,33.1671,-0.036672,-0.0857271,0.325828,1,0,0,3.9725,0.5075,-0.4375,-0.08601,-0.096014,-0.689056,-0.16408,-0.22624,0.3591
0.910604,0,0,9.0894,9.0894,10.9106,10.9106,1.24444,-0.500541,33.5732,0.0186202,0.0336184,-0.0597192,0,0,0,3.0975,0.2275,-0.875,-0.030378,0.024034,-1.07165,-0.16408,-0.22624,0.3591
1.08955,0,0,8.91045,8.91045,11.0896,11.0896,1.19566,-0.495774,33.9748,0.018537,0.0327673,-0.0597003,0,0,0,1.715,-0.735,-1.26,-0.030378,0.024034,-1.07165,-0.16408,-0.22624,0.3591
-1.92034,0,0,11.9203,11.9203,8.07966,8.07966,1.19212,-0.496708,33.9744,0.127647,0.00889081,-0.167156,1,0,0,1.5575,-0.455,-1.4,0.079178,0.000244,-1.17828,-0.16408,-0.22624,0.3591
-2.05323,0,0,12.0532,12.0532,7.94677,7.94677,1.19062,-0.498204,33.9737,0.127674,0.0088645,-0.167156,1,0,0,2.695,-0.7875,-1.5575,0.079178,0.000244,-1.17828,-0.16408,-0.22624,0.3591
-2.13833,0,0,12.1383,12.1383,7.86167,7.86167,1.19039,-0.49961,33.973,-0.136898,0.215621,0.135051,1,0,0,3.4125,-0.735,-1.575,-0.186538,0.20679,-0.8784,-0.16408,-0.22624,0.3591
-2.3283,0,0,12.3283,12.3283,7.6717,7.6717,1.19294,-0.499043,33.9723,-0.136908,0.215666,0.135051,1,0,0,4.97,0.42,-1.5925,-0.186538,0.20679,-0.8784,-0.16408,-0.22624,0.3591
-2.38023,0,0,12.3802,12.3802,7.61977,7.61977,1.19618,-0.497247,33.9714,0.119031,-0.0155859,0.401602,1,0,0,5.355,1.1375,-1.75,0.070516,-0.024278,-0.613904,-0.16408,-0.22624,0.3591
-2.40161,0,0,12.4016,12.4016,7.59839,7.59839,1.19964,-0.495526,33.9697,0.119001,-0.0155255,0.401601,1,0,0,5.4775,1.085,-2.1525,0.070516,-0.024278,-0.613904,-0.16226,-0.22078,0.3626
37.8487,0,0,1,1,47.8487,47.8487,0.615132,-0.495747,34.4043,0.154479,0.379613,0.171972,0,0,0,5.3025,0.3675,-2.17,0.10614,0.38064,-0.841922,-0.16226,-0.22078,0.3626
38.1521,0,0,1,1,48.1521,48.1521,0.0415564,-0.491991,34.8399,0.154413,0.369603,0.17203,0,0,0,5.1625,0.105,-2.1,0.10614,0.38064,-0.841922,-0.16226,-0.22078,0.3626
-0.233473,0,0,10.2335,10.2335,9.76653,9.76653,0.0437069,-0.492573,34.8385,0.0094912,0.0791011,0.168833,1,0,0,4.7425,-0.245,-1.9775,-0.039406,0.090402,-0.845094,-0.16226,-0.22078,0.3626
0.0081162,0,0,9.99188,9.99188,10.0081,10.0081,0.0422722,-0.493872,34.8367,0.00951387,0.079076,0.168833,1,0,0,2.73,-0.665,-2.275,-0.039406,0.090402,-0.845094,-0.16226,-0.22078,0.3626
0.0190071,0,0,9.98099,9.98099,10.019,10.019,0.0407161,-0.49553,34.8344,-0.0408738,0.0254353,0.145718,1,0,0,2.66,-0.875,-2.5025,-0.090036,0.036844,-0.86803,-0.16226,-0.22078,0.3626
0.222956,0,0,9.77704,9.77704,10.223,10.223,0.036222,-0.496291,34.8326,-0.0408605,0.0253568,0.145718,1,0,0,1.015,-0.35,-2.24,-0.090036,0.036844,-0.86803,-0.16226,-0.22078,0.3626
0.252553,0,0,9.74745,9.74745,10.2526,10.2526,0.0314137,-0.496516,34.831,-0.00149519,-0.00135073,0.173382,1,0,0,0.84,-0.035,-2.1,-0.050508,0.010248,-0.84058,-0.16226,-0.22078,0.3626
-0.0273066,0,0,10.0273,10.0273,9.97269,9.97269,0.0308192,-0.495455,34.8294,-0.0015137,-0.0013611,0.173382,1,0,0,3.2025,0.7175,-2.1,-0.050508,0.010248,-0.84058,-0.16422,-0.2296,0.34748
-0.132563,0,0,10.1326,10.1326,9.86744,9.86744,0.0317777,-0.494097,34.8287,0.00137825,0.0769389,0.31551,1,0,0,4.0775,0.8925,-1.575,-0.04758,0.08845,-0.699548,-0.16422,-0.2296,0.34748
-0.424711,0,0,10.4247,10.4247,9.57529,9.57529,0.0369779,-0.492231,34.8284,0.00134568,0.0770296,0.315511,1,0,0,6.4575,1.19,-1.3475,-0.04758,0.08845,-0.699548,-0.16422,-0.2296,0.34748
4.79239,0,0,5.20761,5.20761,14.7924,14.7924,-0.0341577,-0.459757,35.2254,0.0439063,0.0508743,0.079946,0,0,0,6.5625,0.98,-0.9975,-0.00427,0.063562,-0.9333,-0.16422,-0.2296,0.34748
4.90515,0,0,5.09485,5.09485,14.9052,14.9052,-0.10507,-0.428682,35.6192,0.043364,0.0496366,0.0799487,0,0,0,5.7925,0.1575,-0.8575,-0.00427,0.063562,-0.9333,-0.16422,-0.2296,0.34748
14.4182,0,0,1,1,24.4182,24.4182,-0.313061,-0.57917,36.1246,-0.0666268,0.146883,-0.0839779,0,0,0,4.5325,-0.1575,-0.98,-0.117364,0.164334,-1.09593,-0.16422,-0.2296,0.34748
14.6796,0,0,1,1,24.6796,24.6796,-0.519402,-0.724689,36.6267,-0.0640872,0.143283,-0.084033,0,0,0,2.7125,-0.5425,-0.7875,-0.117364,0.164334,-1.09593,-0.16422,-0.2296,0.34748
0.378558,0,0,9.62144,9.62144,10.3786,10.3786,-0.51144,-0.727254,37.0185,-0.0048789,-0.00838192,-0.022681,0,0,0,1.26,-0.63,-0.9275,-0.05795,0.012688,-1.03505,-0.16422,-0.2296,0.34748
0.376446,0,0,9.62355,9.62355,10.3764,10.3764,-0.503655,-0.729853,37.4064,-0.00483356,-0.00824606,-0.0226804,0,0,0,1.26,-0.63,-0.9275,-0.05795,0.012688,-1.03505,-0.16422,-0.2296,0.34748
7.35147,0,0,2.64853,2.64853,17.3515,17.3515,-0.597949,-0.670255,37.7776,0.0641021,0.0599648,0.0651017,0,0,0,0.77,4.1475,-1.0325,0.012322,0.082472,-0.94794,-0.16324,-0.22862,0.35
-6.59799,0,0,16.598,16.598,3.40201,3.40201,-0.486022,-0.475944,38.0308,0.129229,-0.0663153,-0.0281638,0,0,0,1.8725,0.105,-1.19,0.08113,-0.045628,-1.04054,-0.16324,-0.22862,0.35
-6.95687,0,0,16.9569,16.9569,3.04313,3.04313,-0.371795,-0.285937,38.2823,0.125913,-0.0643219,-0.0281268,0,0,0,4.9,0.7525,-0.9975,0.08113,-0.045628,-1.04054,-0.16324,-0.22862,0.35
-10.201,0,0,20.201,20.201,1,1,-0.213187,-0.161721,38.5558,0.0576565,-0.098314,-0.014211,0,0,0,5.4425,0.8925,-0.6825,0.014762,-0.08235,-1.02675,-0.16324,-0.22862,0.35
-10.2018,0,0,20.2018,20.2018,1,1,-0.0587382,-0.0418437,38.8268,0.0555642,-0.0956184,-0.0142009,0,0,0,5.4425,0.8925,-0.6825,0.014762,-0.08235,-1.02675,-0.16324,-0.22862,0.35
-0.216149,0,0,10.2161,10.2161,9.78385,9.78385,-0.0541963,-0.0352278,38.8272,-0.211698,0.0165733,-0.338908,1,0,0,6.09,3.9725,-0.945,-0.253516,0.029646,-1.34895,-0.16324,-0.22862,0.35
-0.22432,0,0,10.2243,10.2243,9.77568,9.77568,-0.0496543,-0.028612,38.8276,-0.211814,0.0166525,-0.338908,1,0,0,6.09,3.9725,-0.945,-0.253516,0.029646,-1.34895,-0.16324,-0.22862,0.35
0.109456,0,0,9.89054,9.89054,10.1095,10.1095,-0.0501066,-0.0298821,38.8281,-0.27788,0.107018,-0.212885,1,0,0,3.29,-0.6475,-0.84,-0.319884,0.119926,-1.2239,-0.16324,-0.22862,0.35
0.110279,0,0,9.88972,9.88972,10.1103,10.1103,-0.0505589,-0.0311522,38.8287,-0.277858,0.107011,-0.212885,1,0,0,3.29,-0.6475,-0.84,-0.319884,0.119926,-1.2239,-0.16506,-0.231,0.3423
0.365413,0,0,9.63459,9.63459,10.3654,10.3654,-0.0547257,-0.0312575,38.8291,-0.353663,-0.175053,-0.0955926,1,0,0,1.2075,0.035,-0.9275,-0.396012,-0.161772,-1.10752,-0.16506,-0.231,0.3423
0.372922,0,0,9.62708,9.62708,10.3729,10.3729,-0.0588924,-0.0313627,38.8296,-0.353661,-0.175126,-0.0955927,1,0,0,1.2075,0.035,-0.9275,-0.396012,-0.161772,-1.10752,-0.16506,-0.231,0.3423
-8.80937,0,0,18.8094,18.8094,1.19063,1.19063,0.0711635,-0.169894,39.2284,-0.150063,-0.102633,0.0189908,0,0,0,0.84,1.26,-0.91,-0.19398,-0.091622,-0.993812,-0.16506,-0.231,0.3423
-0.133573,0,0,10.1336,10.1336,9.86643,9.86643,0.0710845,-0.168089,39.2289,0.228334,-0.0564702,0.131489,1,0,0,3.5,1.155,-0.875,0.18605,-0.045506,-0.882182,-0.16506,-0.231,0.3423
-0.315008,0,0,10.315,10.315,9.68499,9.68499,0.0736574,-0.167031,39.2299,0.228315,-0.0564253,0.131489,1,0,0,4.9875,0.7175,-0.6125,0.18605,-0.045506,-0.882182,-0.16506,-0.231,0.3423
-18.4529,0,0,28.4529,28.4529,1,1,0.341077,0.122437,39.3801,0.16495,-0.155688,0.0170088,0,0,0,7.385,-0.1225,-0.665,0.12749,-0.149328,-0.995764,-0.16506,-0.231,0.3423
-18.4107,0,0,28.4107,28.4107,1,1,0.60085,0.402334,39.5295,0.160065,-0.151154,0.0169491,0,0,0,7.175,-0.6125,-0.91,0.12749,-0.149328,-0.995764,-0.16506,-0.231,0.3423
8.40529,0,0,1.59471,1.59471,18.4053,18.4053,0.462126,0.307738,39.944,-0.036306,0.0870143,0.0316127,0,0,0,5.425,-0.9625,-0.84,-0.07137,0.091012,-0.981246,-0.16338,-0.23016,0.34412
8.70226,0,0,1.29774,1.29774,18.7023,18.7023,0.322712,0.420695,40.2493,0.121476,0.0981372,0.0673949,0,0,0,2.9925,-0.4375,-1.2425,0.08906,0.104554,-0.945744,-0.16338,-0.23016,0.34412
8.97502,0,0,1.02498,1.02498,18.975,18.975,0.182978,0.533132,40.5521,0.119514,0.0956984,0.0673893,0,0,0,1.0675,0,-1.19,0.08906,0.104554,-0.945744,-0.16338,-0.23016,0.34412
-3.77459,0,0,13.7746,13.7746,6.22541,6.22541,0.233134,0.623194,40.8275,0.055134,-0.0273849,0.0685997,0,0,0,1.155,-0.5425,-1.155,0.025986,-0.019276,-0.944524,-0.16338,-0.23016,0.34412
-3.82294,0,0,13.8229,13.8229,6.17706,6.17706,0.282677,0.713424,41.0999,0.0535593,-0.0265204,0.0685775,0,0,0,1.61,1.015,-1.3475,0.025986,-0.019276,-0.944524,-0.16338,-0.23016,0.34412
2.74046,0,0,7.25954,7.25954,12.7405,12.7405,0.235054,0.658239,41.4615,-0.0336762,0.0254073,0.0415441,0,0,0,2.555,1.19,-1.1375,-0.062586,0.033428,-0.971364,-0.16338,-0.23016,0.34412
2.41786,0,0,7.58214,7.58214,12.4179,12.4179,0.193395,0.604175,41.819,-0.0327326,0.0246803,0.0415572,0,0,0,5.18,0.8575,-1.33,-0.062586,0.033428,-0.971364,-0.16338,-0.23016,0.34412
-9.24957,0,0,19.2496,19.2496,1,1,0.32324,0.475708,42.1669,-0.136912,-0.0953024,0.0161178,0,0,0,5.705,0.175,-1.365,-0.169458,-0.088694,-0.996618,-0.16338,-0.23016,0.34412
-9.37914,0,0,19.3791,19.3791,1,1,0.451564,0.349301,42.5156,-0.134706,-0.0930627,0.0161185,0,0,0,6.1425,0,-1.8725,-0.169458,-0.088694,-0.996618,-0.161,-0.23352,0.34258
-7.79614,0,0,17.7961,17.7961,2.20386,2.20386,0.553391,0.447653,42.7613,0.055282,-0.056846,0.0167057,0,0,0,5.39,-0.5075,-1.9425,0.023058,-0.05429,-0.996008,-0.161,-0.23352,0.34258
-7.54524,0,0,17.5452,17.5452,2.45476,2.45476,0.648876,0.542165,43.0036,0.0536325,-0.0551798,0.016674,0,0,0,3.4125,-0.945,-2.4675,0.023058,-0.05429,-0.996008,-0.161,-0.23352,0.34258
-5.73259,0,0,15.7326,15.7326,4.26741,4.26741,0.715374,0.53315,43.2959,-0.0228676,-0.0475465,-0.0160426,0,0,0,2.415,-1.3475,-2.9575,-0.053924,-0.047824,-1.02846,-0.161,-0.23352,0.34258
-5.73883,0,0,15.7388,15.7388,4.26117,4.26117,0.780213,0.523713,43.5849,-0.0227029,-0.046415,-0.0160559,0,0,0,2.415,-1.3475,-2.9575,-0.053924,-0.047824,-1.02846,-0.161,-0.23352,0.34258
6.17035,0,0,3.82965,3.82965,16.1703,16.1703,0.669404,0.571372,43.8856,0.0700093,0.0793957,-0.0493584,0,0,0,1.61,-0.035,-2.5725,0.040016,0.079788,-1.06152,-0.161,-0.23352,0.34258
3.9396,0,0,6.0604,6.0604,13.9396,13.9396,0.594089,0.624938,44.1742,0.0568044,0.0509691,0.0777751,0,0,0,2.975,0.1225,-2.45,0.027694,0.052704,-0.935374,-0.161,-0.23352,0.34258
3.83798,0,0,6.16202,6.16202,13.838,13.838,0.522238,0.680526,44.4564,0.0558343,0.0497151,0.0777762,0,0,0,3.7625,1.47,-1.8725,0.027694,0.052704,-0.935374,-0.16338,-0.23212,0.34482
-5.8083,0,0,15.8083,15.8083,4.1917,4.1917,0.593164,0.829352,44.6567,0.105111,-0.034292,-0.00181773,0,0,0,3.99,0.8575,-1.68,0.079788,-0.032452,-1.01431,-0.16338,-0.23212,0.34482
-5.85515,0,0,15.8552,15.8552,4.14485,4.14485,0.662908,0.973629,44.8556,0.102594,-0.0330753,-0.00187069,0,0,0,4.5325,0.455,-1.435,0.079788,-0.032452,-1.01431,-0.16338,-0.23212,0.34482
10.1683,0,0,1,1,20.1683,20.1683,0.496784,0.859082,45.2272,-0.0562545,0.106792,-0.0514806,0,0,0,4.165,-0.035,-1.12,-0.08174,0.110166,-1.0636,-0.16338,-0.23212,0.34482
10.1656,0,0,1,1,20.1656,20.1656,0.335068,0.749194,45.596,-0.0543368,0.10397,-0.0514332,0,0,0,4.1825,0.3325,-0.8575,-0.08174,0.110166,-1.0636,-0.16338,-0.23212,0.34482
-2.62061,0,0,12.6206,12.6206,7.37939,7.37939,0.364352,0.84531,45.8218,0.0819936,-0.0122719,-0.0947375,0,0,0,3.78,-0.49,-0.77,0.056852,-0.006466,-1.10654,-0.16338,-0.23212,0.34482
-2.5107,0,0,12.5107,12.5107,7.4893,7.4893,0.391261,0.938774,46.0456,0.0803625,-0.0118025,-0.094766,0,0,0,2.9925,-0.665,-0.665,0.056852,-0.006466,-1.10654,-0.16338,-0.23212,0.34482
1.99184,0,0,8.00816,8.00816,11.9918,11.9918,0.351698,0.98975,46.3027,0.0554188,0.030862,-0.0503921,0,0,0,2.45,-0.455,-0.455,0.032696,0.036844,-1.0625,-0.16338,-0.23212,0.34482
1.9673,0,0,8.0327,8.0327,11.9673,11.9673,0.313534,1.04187,46.5577,0.0545093,0.0301959,-0.0504043,0,0,0,2.73,0.6825,-0.245,0.032696,0.036844,-1.0625,-0.16338,-0.23212,0.34482
-0.490955,0,0,10.491,10.491,9.50904,9.50904,0.312276,1.04259,46.5598,0.0280129,-0.10099,-0.13905,1,0,0,2.8175,0.525,0.0175,0.0061,-0.094184,-1.15046,-0.16422,-0.23338,0.33936
-0.60408,0,0,10.6041,10.6041,9.39592,9.39592,0.312703,1.04447,46.5618,-0.155342,-0.0825416,0.156148,1,0,0,3.7625,1.2075,-0.0175,-0.177998,-0.075762,-0.857538,-0.16422,-0.23338,0.33936
-0.708643,0,0,10.7086,10.7086,9.29136,9.29136,0.314646,1.04612,46.563,-0.155371,-0.0825077,0.156148,1,0,0,4.62,1.0675,-0.4725,-0.177998,-0.075762,-0.857538,-0.16422,-0.23338,0.33936
-0.729205,0,0,10.7292,10.7292,9.2708,9.2708,0.316837,1.04688,46.5642,0.0218637,0.0274446,0.106599,1,0,0,4.76,0.5425,-0.5075,0,0.034038,-0.906704,-0.16422,-0.23338,0.33936
-0.632821,0,0,10.6328,10.6328,9.36718,9.36718,0.317562,1.04673,46.5654,0.0218662,0.0274573,0.106599,1,0,0,3.9375,0.0175,-0.4725,0,0.034038,-0.906704,-0.16422,-0.23338,0.33936
5.75865,0,0,4.24135,4.24135,15.7587,15.7587,0.224916,1.00682,46.8727,-0.0118176,0.0533192,0.0810458,0,0,0,3.325,-0.07,-0.6825,-0.034526,0.061488,-0.93208,-0.16422,-0.23338,0.33936
5.75474,0,0,4.24526,4.24526,15.7547,15.7547,0.134762,0.968427,47.1762,-0.0111477,0.051746,0.0810623,0,0,0,3.36,-0.1575,-1.2075,-0.034526,0.061488,-0.93208,-0.16422,-0.23338,0.33936
22.2165,0,0,1,1,32.2165,32.2165,-0.193456,0.914658,47.5432,0.0308528,0.208447,0.0408706,0,0,0,3.395,-0.6125,-1.26,0.00671,0.223748,-0.971974,-0.16422,-0.23338,0.33936
22.2496,0,0,1,1,32.2496,32.2496,-0.513528,0.865575,47.9046,0.0317093,0.202861,0.0408495,0,0,0,3.2025,-0.3325,-1.5225,0.00671,0.223748,-0.971974,-0.16632,-0.23352,0.34286
-21.2347,0,0,31.2347,31.2347,1,1,-0.190067,1.04277,47.9888,0.0759966,-0.202084,0.000382575,0,0,0,3.7625,-0.175,-1.61,0.05429,-0.186416,-1.01211,-0.16632,-0.23352,0.34286
-21.2392,0,0,31.2392,31.2392,1,1,0.124954,1.21585,48.0725,0.0729764,-0.196587,0.000326161,0,0,0,4.06,1.085,-1.9075,0.05429,-0.186416,-1.01211,-0.16632,-0.23352,0.34286
-3.09855,0,0,13.0986,13.0986,6.90145,6.90145,0.166738,1.00679,48.39,-0.185663,-0.0473515,0.0123211,0,0,0,3.465,0.77,-2.0125,-0.209108,-0.038064,-1.00028,-0.16632,-0.23352,0.34286
-3.1614,0,0,13.1614,13.1614,6.8386,6.8386,0.208341,0.801658,48.7028,-0.182083,-0.0466253,0.0123752,0,0,0,3.6575,0.6125,-2.17,-0.209108,-0.038064,-1.00028,-0.16632,-0.23352,0.34286
-0.147618,0,0,10.1476,10.1476,9.85238,9.85238,0.204831,0.8876,48.9078,0.0762746,0.0104687,-0.0426047,0,0,0,3.4475,0.2975,-2.1525,0.05185,0.019032,-1.05481,-0.16632,-0.23352,0.34286
-0.132351,0,0,10.1324,10.1324,9.86765,9.86765,0.20119,0.971715,49.1108,0.0748068,0.0104051,-0.0426283,0,0,0,3.4475,0.2975,-2.1525,0.05185,0.019032,-1.05481,-0.16632,-0.23352,0.34286
-1.07206,0,0,11.0721,11.0721,8.92794,8.92794,0.211369,0.864062,49.3852,-0.0926656,-0.0172621,-0.0187468,0,0,0,3.43,-0.8925,-2.0125,-0.118218,-0.008784,-1.03114,-0.16632,-0.23352,0.34286
-1.10859,0,0,11.1086,11.1086,8.89141,8.89141,0.221814,0.758883,49.6546,-0.0908301,-0.0170797,-0.0187215,0,0,0,3.43,-0.8925,-2.0125,-0.118218,-0.008784,-1.03114,-0.1624,-0.22722,0.34636
-3.28003,0,0,13.28,13.28,6.71997,6.71997,0.263699,0.751205,49.8726,-0.0134312,-0.0292942,-0.0429437,0,0,0,3.675,-1.365,-1.9425,-0.040626,-0.021716,-1.05518,-0.1624,-0.22722,0.34636
-3.28192,0,0,13.2819,13.2819,6.71808,6.71808,0.30451,0.743361,50.0882,-0.0132943,-0.028582,-0.0429454,0,0,0,3.675,-1.365,-1.9425,-0.040626,-0.021716,-1.05518,-0.1624,-0.22722,0.34636
-0.468682,0,0,10.4687,10.4687,9.53132,9.53132,0.303158,0.776383,50.3023,0.023304,0.00326949,-0.0301663,0,0,0,3.5175,4.0775,-1.26,-0.003294,0.010126,-1.04249,-0.1624,-0.22722,0.34636
-0.462624,0,0,10.4626,10.4626,9.53738,9.53738,0.301752,0.808708,50.5141,0.0227399,0.00324492,-0.030174,0,0,0,3.5175,4.0775,-1.26,-0.003294,0.010126,-1.04249,-0.1624,-0.22722,0.34636
-4.2735,0,0,14.2735,14.2735,5.7265,5.7265,0.356043,0.745407,50.7426,-0.0664193,-0.0416051,0.00376936,0,0,0,3.6225,1.1725,-0.77,-0.09394,-0.035624,-1.00882,-0.1624,-0.22722,0.34636
-4.28513,0,0,14.2851,14.2851,5.71487,5.71487,0.409076,0.683039,50.9685,-0.0653308,-0.0406795,0.00377675,0,0,0,3.6225,1.1725,-0.77,-0.09394,-0.035624,-1.00882,-0.1624,-0.22722,0.34636
-1.59015,0,0,11.5902,11.5902,8.40985,8.40985,0.421351,0.738891,51.1577,0.0448539,-0.00382732,-0.02931,0,0,0,2.975,0.8575,-0.5425,0.01769,0.000976,-1.04164,-0.1624,-0.22722,0.34636
0.80804,0,0,9.19196,9.19196,10.808,10.808,0.398276,0.759755,51.3708,0.0227438,0.0161651,-0.0214432,0,0,0,2.6075,0.21,-0.5075,-0.004148,0.02135,-1.03383,-0.16576,-0.23282,0.34202
0.80687,0,0,9.19313,9.19313,10.8069,10.8069,0.375824,0.779979,51.5824,0.0223909,0.0157733,-0.0214453,0,0,0,2.6425,0,-0.0525,-0.004148,0.02135,-1.03383,-0.16576,-0.23282,0.34202
-0.193872,0,0,10.1939,10.1939,9.80613,9.80613,0.368578,0.805291,51.7848,0.0249863,0.00722002,-0.0274751,0,0,0,3.43,-0.63,-0.21,-0.001098,0.012932,-1.03981,-0.16576,-0.23282,0.34202
-0.189207,0,0,10.1892,10.1892,9.81079,9.81079,0.361453,0.830112,51.985,0.0245531,0.00709564,-0.0274805,0,0,0,3.43,-0.63,-0.21,-0.001098,0.012932,-1.03981,-0.16576,-0.23282,0.34202
-10.62,0,0,20.62,20.62,1,1,0.506862,0.767679,52.1693,-0.0867316,-0.0974718,0.0373094,0,0,0,4.1825,4.095,0.0525,-0.113948,-0.094062,-0.975512,-0.16576,-0.23282,0.34202
-10.6264,0,0,20.6264,20.6264,1,1,0.648541,0.705435,52.3513,-0.0856453,-0.0949993,0.0372984,0,0,0,4.1825,4.095,0.0525,-0.113948,-0.094062,-0.975512,-0.16576,-0.23282,0.34202
-8.55182,0,0,18.5518,18.5518,1.44818,1.44818,0.756193,0.740703,52.5014,0.00618979,-0.0668635,0.00222727,0,0,0,3.3775,0.91,-0.77,-0.021106,-0.067832,-1.01028,-0.16576,-0.23282,0.34202
-8.54104,0,0,18.541,18.541,1.45896,1.45896,0.860856,0.774421,52.6499,0.00560134,-0.0650373,0.00219371,0,0,0,3.3775,0.91,-0.77,-0.021106,-0.067832,-1.01028,-0.16576,-0.23282,0.34202
9.01094,0,0,1,1,19.0109,19.0109,0.706407,0.75108,52.9027,0.00953178,0.0932307,0.0543662,0,0,0,3.115,0.735,-0.91,-0.017568,0.092964,-0.958554,-0.16394,-0.2338,0.34538
-0.0854442,0,0,10.0854,10.0854,9.91456,9.91456,0.688876,0.700239,53.1201,-0.0385397,0.00609281,0.0626187,0,0,0,3.08,0.49,-1.19,-0.066734,0.006222,-0.95038,-0.16394,-0.2338,0.34538
-0.110562,0,0,10.1106,10.1106,9.88944,9.88944,0.672172,0.649526,53.3344,-0.0376546,0.00580142,0.0626326,0,0,0,3.2025,-0.1575,-1.4875,-0.066734,0.006222,-0.95038,-0.16394,-0.2338,0.34538
-1.2057,0,0,11.2057,11.2057,8.7943,8.7943,0.6719,0.64892,53.3338,0.11397,0.100567,-0.103471,1,0,0,3.395,-0.2625,-1.54,0.085522,0.100894,-1.1152,-0.16394,-0.2338,0.34538
-1.29241,0,0,11.2924,11.2924,8.70759,8.70759,0.6729,0.647336,53.3325,0.113998,0.100584,-0.103471,1,0,0,4.1125,-0.84,-1.925,0.085522,0.100894,-1.1152,-0.16394,-0.2338,0.34538
2.78098,0,0,7.21902,7.21902,12.781,12.781,0.614378,0.593227,53.5592,-0.033149,0.0344698,-0.0289421,0,0,0,4.48,-0.805,-2.2225,-0.063196,0.035868,-1.04127,-0.16394,-0.2338,0.34538
2.83533,0,0,7.16467,7.16467,12.8353,12.8353,0.5566,0.542001,53.7833,-0.032255,0.0334615,-0.0289229,0,0,0,3.9375,-0.0525,-2.3275,-0.063196,0.035868,-1.04127,-0.16394,-0.2338,0.34538
-7.2175,0,0,17.2175,17.2175,2.7825,2.7825,0.647167,0.48319,53.9574,-0.0682817,-0.0642468,0.00119203,0,0,0,3.9025,-0.035,-2.415,-0.100406,-0.063318,-1.01138,-0.16394,-0.2338,0.34538
-7.13849,0,0,17.1385,17.1385,2.86151,2.86151,0.734198,0.425057,54.1247,-0.0672671,-0.0627279,0.00118176,0,0,0,3.4125,0.175,-2.45,-0.100406,-0.063318,-1.01138,-0.16464,-0.23044,0.34944
-1.12359,0,0,11.1236,11.1236,8.87641,8.87641,0.731087,0.346046,54.3284,-0.0726914,-0.00880208,-0.0838886,0,0,0,2.6775,0.3325,-2.3275,-0.107238,-0.009394,-1.0958,-0.16464,-0.23044,0.34944
-1.1854,0,0,11.1854,11.1854,8.8146,8.8146,0.72896,0.268207,54.5298,-0.0713328,-0.00883912,-0.0838809,0,0,0,3.045,0.0175,-2.1875,-0.107238,-0.009394,-1.0958,-0.16464,-0.23044,0.34944
-10.5403,0,0,20.5403,20.5403,1,1,0.863521,0.325808,54.6337,0.023757,-0.084652,-0.0295755,0,0,0,3.3775,-0.0875,-1.995,-0.010736,-0.087474,-1.04188,-0.16464,-0.23044,0.34944
-10.5424,0,0,20.5424,20.5424,1,1,0.994573,0.380529,54.7371,0.022802,-0.0823652,-0.0296185,0,0,0,3.5525,-0.525,-1.5925,-0.010736,-0.087474,-1.04188,-0.16464,-0.23044,0.34944
-6.94143,0,0,16.9414,16.9414,3.05857,3.05857,1.06958,0.404419,54.8688,0.00732082,-0.0485706,-0.043784,0,0,0,3.8325,-0.5075,-1.4875,-0.025864,-0.055022,-1.05591,-0.16464,-0.23044,0.34944
-7.05279,0,0,17.0528,17.0528,2.94721,2.94721,1.14424,0.427124,54.9997,0.00692454,-0.0472678,-0.043812,0,0,0,4.8125,-0.595,-1.05,-0.025864,-0.055022,-1.05591,-0.16464,-0.23044,0.34944
1.26632,0,0,8.73368,8.73368,11.2663,11.2663,1.09543,0.312451,55.2191,-0.0921502,0.0213708,-0.0585363,0,0,0,4.865,-0.525,-0.9625,-0.127368,0.014396,-1.07055,-0.16464,-0.23044,0.34944
1.33549,0,0,8.66451,8.66451,11.3355,11.3355,1.0469,0.201413,55.4357,-0.0902122,0.020524,-0.0585117,0,0,0,4.1475,0,-0.98,-0.127368,0.014396,-1.07055,-0.16548,-0.23128,0.34832
0.123472,0,0,9.87653,9.87653,10.1235,10.1235,1.01733,0.160497,55.6214,-0.0305775,0.0151231,-0.0444841,0,0,0,3.9725,0.2625,-0.7875,-0.068198,0.009516,-1.05664,-0.16548,-0.23128,0.34832
0.102548,0,0,9.89745,9.89745,10.1025,10.1025,0.98885,0.121132,55.8054,-0.0298905,0.0146261,-0.0444737,0,0,0,4.06,0.5425,-0.5425,-0.068198,0.009516,-1.05664,-0.16548,-0.23128,0.34832
2.59492,0,0,7.40508,7.40508,12.5949,12.5949,0.924712,0.0970258,55.9958,-0.00906016,0.0384207,0.017266,0,0,0,3.6575,0.665,-0.42,-0.047702,0.034404,-0.995398,-0.16548,-0.23128,0.34832
2.61943,0,0,7.38057,7.38057,12.6194,12.6194,0.8619,0.0739632,56.1843,-0.00865765,0.0373245,0.0172837,0,0,0,3.395,0.7175,-0.315,-0.047702,0.034404,-0.995398,-0.16548,-0.23128,0.34832
-0.0586271,0,0,10.0586,10.0586,9.94137,9.94137,0.839853,0.0119994,56.37,-0.0479094,0.00799574,0.0465519,0,0,0,3.675,0.91,-0.1575,-0.088206,0.00549,-0.966362,-0.16548,-0.23128,0.34832
-0.0216482,0,0,10.0216,10.0216,9.97835,9.97835,0.817843,-0.0502556,56.5536,-0.0468229,0.00761163,0.0465571,0,0,0,3.255,-0.1225,-0.14,-0.088206,0.00549,-0.966362,-0.16548,-0.23128,0.34832
-4.16631,0,0,14.1663,14.1663,5.83369,5.83369,0.856945,0.0685543,56.653,0.091298,-0.0117348,0.0455632,0,0,0,3.22,-0.245,-0.175,0.052582,-0.014518,-0.967338,-0.16548,-0.23128,0.34832
-4.25878,0,0,14.2588,14.2588,5.74122,5.74122,0.896368,0.184361,56.752,0.0892768,-0.0110469,0.0455482,0,0,0,4.095,-0.4725,-0.2975,0.052582,-0.014518,-0.967338,-0.16548,-0.231,0.34272
-3.63025,0,0,13.6303,13.6303,6.36975,6.36975,0.925572,0.0219587,56.941,-0.141627,-0.0347182,0.0299308,0,0,0,3.675,-0.49,-0.42,-0.182146,-0.038674,-0.982832,-0.16548,-0.231,0.34272
-3.66301,0,0,13.663,13.663,6.33699,6.33699,0.954486,-0.136591,57.1269,-0.13886,-0.0342137,0.0299197,0,0,0,3.6575,-0.1225,-0.7175,-0.182146,-0.038674,-0.982832,-0.16548,-0.231,0.34272
7.80239,0,0,2.19761,2.19761,17.8024,17.8024,0.815177,-0.288818,57.372,-0.109598,0.075101,-0.0285761,0,0,0,3.675,0.2975,-1.1025,-0.155428,0.072956,-1.0409,-0.16548,-0.231,0.34272
7.81046,0,0,2.18954,2.18954,17.8105,17.8105,0.679412,-0.437326,57.6138,-0.107006,0.0727315,-0.0285616,0,0,0,3.29,0,-1.5225,-0.155428,0.072956,-1.0409,-0.16548,-0.231,0.34272
4.62128,0,0,5.37872,5.37872,14.6213,14.6213,0.593794,-0.435485,57.7902,0.0166344,0.0518192,0.0642814,0,0,0,3.4475,0.1925,-1.575,-0.031232,0.053558,-0.948794,-0.16548,-0.231,0.34272
4.68143,0,0,5.31857,5.31857,14.6814,14.6814,0.509548,-0.433804,57.9645,0.0166051,0.0503489,0.0642957,0,0,0,2.9225,-0.21,-1.715,-0.031232,0.053558,-0.948794,-0.16548,-0.231,0.34272
-5.33381,0,0,15.3338,15.3338,4.66619,4.66619,0.573794,-0.516011,58.1065,-0.0762331,-0.0459871,0.0686994,0,0,0,3.185,-0.63,-1.8025,-0.125904,-0.043798,-0.944402,-0.16548,-0.231,0.34272
-5.4002,0,0,15.4002,15.4002,4.5998,4.5998,0.63732,-0.595939,58.2457,-0.0748382,-0.0448786,0.0686742,0,0,0,3.6575,-0.035,-1.925,-0.125904,-0.043798,-0.944402,-0.1652,-0.23072,0.35
3.18362,0,0,6.81638,6.81638,13.1836,13.1836,0.573802,-0.845286,58.4822,-0.212139,0.0140987,-0.00907231,0,0,0,3.2725,0.07,-1.8725,-0.268156,0.016226,-1.02151,-0.1652,-0.23072,0.35
3.13186,0,0,6.86814,6.86814,13.1319,13.1319,0.512709,-1.08944,58.7151,-0.207878,0.013032,-0.00913414,0,0,0,3.2025,-0.1925,-2.17,-0.268156,0.016226,-1.02151,-0.1652,-0.23072,0.35
-2.08785,0,0,12.0879,12.0879,7.91215,7.91215,0.529458,-1.02576,58.8261,0.0524478,-0.00426184,-0.00223117,0,0,0,3.2725,0.035,-2.0825,-0.005612,-0.001342,-1.01467,-0.1652,-0.23072,0.35
-2.0068,0,0,12.0068,12.0068,7.9932,7.9932,0.544582,-0.963749,58.936,0.0513656,-0.00399775,-0.00221486,0,0,0,2.73,-0.105,-2.065,-0.005612,-0.001342,-1.01467,-0.1652,-0.23072,0.35
8.21659,0,0,1.78341,1.78341,18.2166,18.2166,0.409988,-1.12146,59.1691,-0.10758,0.0660744,0.0475488,0,0,0,3.185,-0.3675,-1.925,-0.167994,0.071004,-0.965264,-0.1652,-0.23072,0.35
8.12773,0,0,1.87227,1.87227,18.1277,18.1277,0.28023,-1.27364,59.3998,-0.104924,0.0638098,0.0475069,0,0,0,3.57,0.4025,-1.8025,-0.167994,0.071004,-0.965264,-0.1652,-0.23072,0.35
6.30118,0,0,3.69882,3.69882,16.3012,16.3012,0.180561,-1.23484,59.5626,0.0481996,0.0606053,0.100397,0,0,0,3.5175,0.4375,-1.6625,-0.013542,0.06954,-0.912804,-0.1652,-0.23072,0.35
6.28954,0,0,3.71046,3.71046,16.2895,16.2895,0.083682,-1.19676,59.7242,0.0475352,0.0589148,0.100415,0,0,0,3.64,0.1225,-1.3475,-0.013542,0.06954,-0.912804,-0.1652,-0.23072,0.35
-2.55479,0,0,12.5548,12.5548,7.44521,7.44521,0.118527,-1.17805,59.8474,0.010277,-0.0194931,0.0190284,0,0,0,3.6225,0.1925,-1.155,-0.05063,-0.009394,-0.993568,-0.16184,-0.23646,0.34552
2.17333,0,0,7.82667,7.82667,12.1733,12.1733,0.083398,-1.11519,59.9834,0.0628767,0.029111,-0.0255789,0,0,0,3.535,-0.14,-0.91,0.003294,0.039772,-1.03785,-0.16184,-0.23646,0.34552
2.20265,0,0,7.79735,7.79735,12.2027,12.2027,0.0487644,-1.05262,60.1183,0.0617849,0.0285066,-0.0255576,0,0,0,3.3775,0.315,-0.77,0.003294,0.039772,-1.03785,-0.16184,-0.23646,0.34552
-1.87768,0,0,11.8777,11.8777,8.12232,8.12232,0.0746371,-1.00108,60.2315,0.0410833,-0.0119543,-0.0623035,0,0,0,3.5525,0.77,-0.5425,-0.016592,-0.001098,-1.07433,-0.16184,-0.23646,0.34552
-1.89248,0,0,11.8925,11.8925,8.10752,8.10752,0.100045,-0.951492,60.3436,0.040218,-0.0115109,-0.0622895,0,0,0,3.78,0.3325,-0.5075,-0.016592,-0.001098,-1.07433,-0.16184,-0.23646,0.34552
-0.241212,0,0,10.2412,10.2412,9.75879,9.75879,0.100668,-0.95142,60.3447,-0.0646254,-0.0960117,-0.149091,1,0,0,3.9025,0.14,-0.5425,-0.121878,-0.085522,-1.16046,-0.16184,-0.23646,0.34552
-0.269891,0,0,10.2699,10.2699,9.73011,9.73011,0.101692,-0.950542,60.346,-0.0646407,-0.0959938,-0.149091,1,0,0,4.13,0.6125,-0.42,-0.121878,-0.085522,-1.16046,-0.16184,-0.23646,0.34552
-10.2046,0,0,20.2046,20.2046,1,1,0.247793,-0.850485,60.3928,0.0657896,-0.0886812,-0.080343,0,0,0,3.9375,0.6475,-0.4025,0.010858,-0.080764,-1.09227,-0.16184,-0.23646,0.34552
-10.2016,0,0,20.2016,20.2016,1,1,0.390007,-0.753698,60.4315,0.0641005,-0.0861993,-0.0803332,0,0,0,4.0425,0.2975,-0.35,0.010858,-0.080764,-1.09227,-0.1666,-0.23366,0.34328
6.06726,0,0,3.93274,3.93274,16.0673,16.0673,0.290865,-0.850495,60.6185,-0.0707601,0.0538596,-0.0298147,0,0,0,3.6225,0.21,-0.5425,-0.12627,0.060878,-1.04212,-0.1666,-0.23366,0.34328
6.01633,0,0,3.98367,3.98367,16.0163,16.0163,0.195072,-0.945455,60.8028,-0.069103,0.0521878,-0.0298336,0,0,0,3.7975,-0.2625,-0.8575,-0.12627,0.060878,-1.04212,-0.1666,-0.23366,0.34328
-12.11,0,0,22.11,22.11,1,1,0.366545,-0.822094,60.8173,0.0789005,-0.0940585,0.0114957,0,0,0,3.8675,0.0525,-0.84,0.024522,-0.088206,-1.00113,-0.1666,-0.23366,0.34328
-12.0201,0,0,22.0201,22.0201,1,1,0.532194,-0.702213,60.8309,0.0768084,-0.0911676,0.0115008,0,0,0,3.4825,0,-1.4875,0.024522,-0.088206,-1.00113,-0.1666,-0.23366,0.34328
3.50744,0,0,6.49256,6.49256,13.5074,13.5074,0.466698,-0.745606,60.9804,-0.0284913,0.0367773,-0.0283341,0,0,0,2.975,0.21,-1.61,-0.081984,0.040748,-1.04066,-0.1666,-0.23366,0.34328
3.45759,0,0,6.54241,6.54241,13.4576,13.4576,0.403651,-0.787705,61.1279,-0.0277566,0.035677,-0.0283356,0,0,0,3.255,0.21,-1.785,-0.081984,0.040748,-1.04066,-0.1666,-0.23366,0.34328
8.15109,0,0,1.84891,1.84891,18.1511,18.1511,0.273709,-0.829525,61.3019,-0.016579,0.0807945,-0.0476354,0,0,0,3.325,0.21,-1.715,-0.071492,0.088084,-1.05981,-0.1666,-0.23366,0.34328
8.17063,0,0,1.82937,1.82937,18.1706,18.1706,0.146898,-0.871088,61.4782,-0.0158537,0.0785814,-0.047638,0,0,0,3.255,-0.4725,-1.9075,-0.071492,0.088084,-1.05981,-0.16646,-0.24024,0.34314
-7.05937,0,0,17.0594,17.0594,2.94063,2.94063,0.245864,-0.887078,61.5568,-0.0320967,-0.0658772,-0.036214,0,0,0,3.92,-0.175,-1.855,-0.088084,-0.05795,-1.04847,-0.16646,-0.24024,0.34314
-7.08909,0,0,17.0891,17.0891,2.91091,2.91091,0.342662,-0.903284,61.6344,-0.0318139,-0.064188,-0.0362271,0,0,0,4.235,-0.1575,-1.8375,-0.088084,-0.05795,-1.04847,-0.16646,-0.24024,0.34314
11.0031,0,0,1,1,21.0031,21.0031,0.172666,-1.07431,61.8582,-0.121523,0.0885568,0.0145124,0,0,0,3.85,-0.2975,-2.0825,-0.18117,0.0976,-0.998082,-0.16646,-0.24024,0.34314
10.9977,0,0,1,1,20.9977,20.9977,0.00721731,-1.24024,62.08,-0.118627,0.0856697,0.0144585,0,0,0,3.4825,-0.0175,-1.8725,-0.18117,0.0976,-0.998082,-0.16646,-0.24024,0.34314
2.13813,0,0,7.86187,7.86187,12.1381,12.1381,-0.0244808,-1.17209,62.1866,0.0627763,0.0251524,0.0564089,0,0,0,3.325,0.3325,-1.6975,0.002196,0.037698,-0.95648,-0.16646,-0.24024,0.34314
2.27319,0,0,7.72681,7.72681,12.2732,12.2732,-0.057318,-1.10573,62.2917,0.0616184,0.0245793,0.0564315,0,0,0,2.31,-0.0175,-1.8725,0.002196,0.037698,-0.95648,-0.16646,-0.24024,0.34314
-3.64512,0,0,13.6451,13.6451,6.35488,6.35488,-0.00285121,-1.04127,62.3609,0.0471301,-0.0274732,0.0237488,0,0,0,2.8,0.175,-1.75,-0.011224,-0.01525,-0.988932,-0.16646,-0.24024,0.34314
-3.65918,0,0,13.6592,13.6592,6.34082,6.34082,0.0503888,-0.978962,62.4404,0.0460428,-0.0265441,0.0237675,0,0,0,3.29,-0.035,-1.3125,-0.011224,-0.01525,-0.988932,-0.15946,-0.24164,0.34244
-3.25623,0,0,13.2562,13.2562,6.74377,6.74377,0.0963437,-1.01693,62.5476,-0.0379702,-0.0308715,0.0555986,0,0,0,3.3075,-0.0875,-1.19,-0.096258,-0.020374,-0.957334,-0.15946,-0.24164,0.34244
-3.33259,0,0,13.3326,13.3326,6.66741,6.66741,0.142205,-1.05341,62.6543,-0.0373336,-0.0300713,0.0555855,0,0,0,3.92,0.49,-0.7875,-0.096258,-0.020374,-0.957334,-0.15946,-0.24164,0.34244
6.83305,0,0,3.16695,3.16695,16.833,16.833,0.0383855,-1.19671,62.8482,-0.114771,0.0517738,-0.0208118,0,0,0,3.745,0.2975,-0.7175,-0.176534,0.063196,-1.0331,-0.15946,-0.24164,0.34244
6.7286,0,0,3.2714,3.2714,16.7286,16.7286,-0.0611792,-1.33708,63.04,-0.112321,0.0500365,-0.0208663,0,0,0,4.27,-0.07,-0.63,-0.176534,0.063196,-1.0331,-0.15946,-0.24164,0.34244
0.0106666,0,0,9.98933,9.98933,10.0107,10.0107,-0.0600065,-1.33662,63.0412,0.137324,0.112097,0.152122,1,0,0,4.2175,0.3675,-0.4375,0.074176,0.125172,-0.861442,-0.15946,-0.24164,0.34244
0.121833,0,0,9.87817,9.87817,10.1218,10.1218,-0.0604881,-1.3369,63.0425,0.137329,0.112089,0.152122,1,0,0,3.29,-0.07,-0.4375,0.074176,0.125172,-0.861442,-0.15946,-0.24164,0.34244
2.55853,0,0,7.44147,7.44147,12.5585,12.5585,-0.0965465,-1.34808,63.1745,-0.00242774,0.0193763,0.0647005,0,0,0,3.1675,0.0875,-0.42,-0.066368,0.033184,-0.948184,-0.15946,-0.24164,0.34244
2.57892,0,0,7.42108,7.42108,12.5789,12.5789,-0.131954,-1.35775,63.2931,-0.00225904,0.0187585,0.0646953,0,0,0,2.905,0.7,-0.3325,-0.066368,0.033184,-0.948184,-0.16534,-0.23534,0.34132
3.20781,0,0,6.79219,6.79219,13.2078,13.2078,-0.175616,-1.26813,63.3889,0.0821891,0.0335066,0.0676798,0,0,0,3.0625,0.385,-0.315,0.020008,0.048678,-0.945256,-0.16534,-0.23534,0.34132
3.15852,0,0,6.84148,6.84148,13.1585,13.1585,-0.21741,-1.1801,63.4837,0.080653,0.0327772,0.0677102,0,0,0,3.5875,0.3675,-0.3325,0.020008,0.048678,-0.945256,-0.16534,-0.23534,0.34132
-8.79371,0,0,18.7937,18.7937,1.20629,1.20629,-0.0835346,-0.951873,63.4667,0.171429,-0.0558712,0.0781181,0,0,0,3.815,0.5775,-0.525,0.115168,-0.042212,-0.935008,-0.16534,-0.23534,0.34132
-8.78899,0,0,18.789,18.789,1.21101,1.21101,0.0467521,-0.729598,63.4499,0.16755,-0.0535976,0.0781757,0,0,0,4.2175,0.035,-0.6825,0.115168,-0.042212,-0.935008,-0.16534,-0.23534,0.34132
3.47855,0,0,6.52145,6.52145,13.4785,13.4785,-0.00556176,-0.545237,63.5163,0.166155,0.0513733,0.0559582,0,0,0,4.4275,0.2275,-0.945,0.116998,0.063562,-0.95709,-0.16534,-0.23534,0.34132
3.5711,0,0,6.4289,6.4289,13.5711,13.5711,-0.057852,-0.365201,63.5816,0.163013,0.0504607,0.0559826,0,0,0,3.955,-0.3325,-1.155,0.116998,0.063562,-0.95709,-0.16534,-0.23534,0.34132
5.64203,0,0,4.35797,4.35797,15.642,15.642,-0.139014,-0.16946,63.6532,0.175511,0.0673632,0.0869792,0,0,0,3.9025,-0.1575,-1.2075,0.13298,0.081862,-0.926346,-0.16534,-0.23534,0.34132
5.64301,0,0,4.35699,4.35699,15.643,15.643,-0.218057,0.0231599,63.7195,0.172149,0.0659836,0.0869792,0,0,0,3.745,-0.1925,-1.3475,0.13298,0.081862,-0.926346,-0.16828,-0.23464,0.33922
6.1257,0,0,3.8743,3.8743,16.1257,16.1257,-0.302071,0.0224436,63.835,0.0113148,0.0480302,0.0802103,0,0,0,3.22,0.07,-1.925,-0.028548,0.065392,-0.933056,-0.16828,-0.23464,0.33922
6.11978,0,0,3.88022,3.88022,16.1198,16.1198,-0.383788,0.0221804,63.9494,0.0113194,0.046604,0.0802018,0,0,0,3.22,0.07,-1.925,-0.028548,0.065392,-0.933056,-0.16828,-0.23464,0.33922
5.32441,0,0,4.67559,4.67559,15.3244,15.3244,-0.45174,-0.0887772,64.0865,-0.092801,0.0294194,0.0302749,0,0,0,3.8325,4.2525,-2.1525,-0.135054,0.04941,-0.982588,-0.16828,-0.23464,0.33922
5.29287,0,0,4.70713,4.70713,15.2929,15.2929,-0.517443,-0.197133,64.222,-0.0909099,0.0282728,0.0302605,0,0,0,3.8325,4.2525,-2.1525,-0.135054,0.04941,-0.982588,-0.16828,-0.23464,0.33922
9.63046,0,0,1,1,19.6305,19.6305,-0.644771,-0.400597,64.4038,-0.171184,0.0625667,-0.0344514,0,0,0,4.2525,-0.14,-2.3625,-0.219234,0.085888,-1.04676,-0.16828,-0.23464,0.33922
9.57414,0,0,1,1,19.5741,19.5741,-0.767927,-0.599274,64.5836,-0.167717,0.0604179,-0.0345082,0,0,0,4.2525,-0.14,-2.3625,-0.219234,0.085888,-1.04676,-0.16828,-0.23464,0.33922
1.2589,0,0,8.7411,8.7411,11.2589,11.2589,-0.766394,-0.599642,64.5818,-0.00564818,-0.039455,-0.142703,1,0,0,4.3925,-0.105,-2.205,-0.056486,-0.013908,-1.15412,-0.16828,-0.23464,0.33922
1.25626,0,0,8.74374,8.74374,11.2563,11.2563,-0.764862,-0.60001,64.5801,-0.00564175,-0.0394283,-0.142702,1,0,0,4.3925,-0.105,-2.205,-0.056486,-0.013908,-1.15412,-0.16828,-0.23464,0.33922
-24.1308,0,0,34.1308,34.1308,1,1,-0.392574,-0.534089,64.4798,0.00207621,-0.246653,-0.057299,0,0,0,3.325,0.1225,-1.855,-0.04758,-0.227408,-1.06945,-0.17052,-0.23324,0.34664
-10.33,0,0,20.33,20.33,1,1,-0.231643,-0.49754,64.476,0.00812005,-0.102788,-0.0484257,0,0,0,3.3425,0.21,-1.4875,-0.04087,-0.086498,-1.06067,-0.17052,-0.23324,0.34664
6.29517,0,0,3.70483,3.70483,16.2952,16.2952,-0.317763,-0.45736,64.5747,0.0476306,0.0558169,0.0330878,0,0,0,2.625,0.07,-1.365,-0.000488,0.073444,-0.979782,-0.17052,-0.23324,0.34664
6.26448,0,0,3.73552,3.73552,16.2645,16.2645,-0.40117,-0.417851,64.6728,0.046941,0.0543612,0.0330839,0,0,0,2.905,-0.105,-1.05,-0.000488,0.073444,-0.979782,-0.17052,-0.23324,0.34664
3.36133,0,0,6.63867,6.63867,13.3613,13.3613,-0.439981,-0.364592,64.7494,0.0524502,0.0298691,0.0241101,0,0,0,3.92,0.28,-0.9975,0.005978,0.049654,-0.988688,-0.17052,-0.23324,0.34664
3.34872,0,0,6.65128,6.65128,13.3487,13.3487,-0.477587,-0.311514,64.8254,0.0515239,0.0292127,0.0241103,0,0,0,4.095,0.6825,-0.875,0.005978,0.049654,-0.988688,-0.17052,-0.23324,0.34664
-17.7496,0,0,27.7496,27.7496,1,1,-0.206049,-0.246887,64.7648,0.0175948,-0.175251,-0.0540512,0,0,0,3.955,0.5775,-0.6475,-0.026962,-0.159332,-1.06628,-0.17052,-0.23324,0.34664
-17.7505,0,0,27.7505,27.7505,1,1,0.0583641,-0.184149,64.7121,0.0164998,-0.170637,-0.0540411,0,0,0,3.8325,0.6475,-0.2975,-0.026962,-0.159332,-1.06628,-0.16674,-0.23366,0.33852
1.66233,0,0,8.33767,8.33767,11.6623,11.6623,0.0322882,-0.266324,64.8132,-0.0758529,0.00782405,-0.074087,0,0,0,3.5525,0.1925,-0.49,-0.121146,0.019398,-1.08617,-0.16674,-0.23366,0.33852
1.66222,0,0,8.33778,8.33778,11.6622,11.6622,0.00689937,-0.346899,64.9133,-0.0744466,0.00738094,-0.0740944,0,0,0,3.3775,0.0875,-0.3325,-0.121146,0.019398,-1.08617,-0.16674,-0.23366,0.33852
-2.54302,0,0,12.543,12.543,7.45698,7.45698,0.0435982,-0.210878,64.9366,0.117799,-0.00870991,-0.00744503,0,0,0,3.185,0.49,-0.1225,0.074298,0.002684,-1.02004,-0.16674,-0.23366,0.33852
-2.44347,0,0,12.4435,12.4435,7.55653,7.55653,0.077878,-0.0784026,64.9592,0.115487,-0.00811161,-0.00743983,0,0,0,2.625,0.07,-0.385,0.074298,0.002684,-1.02004,-0.16674,-0.23366,0.33852
-4.91738,0,0,14.9174,14.9174,5.08262,5.08262,0.147389,-0.0931475,64.9999,-0.0239639,-0.0475666,-0.0280979,0,0,0,3.01,-0.2625,-0.455,-0.066002,-0.037942,-1.04054,-0.16674,-0.23366,0.33852
-4.941,0,0,14.941,14.941,5.059,5.059,0.215418,-0.10686,65.0401,-0.0237245,-0.0463793,-0.0281021,0,0,0,3.2375,0.3675,-0.42,-0.066002,-0.037942,-1.04054,-0.16674,-0.23366,0.33852
-1.86692,0,0,11.8669,11.8669,8.13308,8.13308,0.236758,-0.183152,65.1126,-0.0787624,-0.0250011,-0.0898271,0,0,0,3.15,-0.035,-0.5425,-0.12261,-0.016958,-1.10178,-0.16674,-0.23366,0.33852
-1.9126,0,0,11.9126,11.9126,8.0874,8.0874,0.258204,-0.257196,65.1837,-0.0774701,-0.0246268,-0.0898337,0,0,0,3.395,0.455,-0.7875,-0.12261,-0.016958,-1.10178,-0.16674,-0.23366,0.33852
-0.443317,0,0,10.4433,10.4433,9.55668,9.55668,0.257626,-0.256048,65.184,-0.0494269,0.011879,-0.100776,1,0,0,3.22,0.77,-1.015,-0.094428,0.01952,-1.11264,-0.1666,-0.23366,0.34524
-12.5033,0,0,22.5033,22.5033,1,1,0.433206,-0.180857,65.1527,0.0437766,-0.109992,-0.0537002,0,0,0,3.15,0.245,-1.4,0.000488,-0.105286,-1.06591,-0.1666,-0.23366,0.34524
-12.4538,0,0,22.4538,22.4538,1,1,0.603445,-0.108331,65.122,0.0425108,-0.107021,-0.0537239,0,0,0,3.0275,-0.0175,-1.4,0.000488,-0.105286,-1.06591,-0.1666,-0.23366,0.34524
-9.39855,0,0,19.3985,19.3985,1,1,0.724584,-0.0338738,65.1099,0.0477715,-0.0663149,0.0353909,0,0,0,3.08,-0.07,-1.4175,0.007076,-0.066734,-0.977464,-0.1666,-0.23366,0.34524
-9.3747,0,0,19.3747,19.3747,1,1,0.842187,0.0382118,65.0979,0.0465134,-0.0642625,0.0353628,0,0,0,3.115,-0.2975,-1.54,0.007076,-0.066734,-0.977464,-0.1666,-0.23366,0.34524
-5.58482,0,0,15.5848,15.5848,4.41518,4.41518,0.901343,-0.0115368,65.1361,-0.0535729,-0.0443005,0.00215121,0,0,0,2.8,-0.0525,-1.68,-0.094306,-0.047824,-1.0104,-0.1666,-0.23366,0.34524
-5.62301,0,0,15.623,15.623,4.37699,4.37699,0.9595,-0.0613491,65.1735,-0.0527035,-0.0432857,0.00213417,0,0,0,3.0625,-0.5075,-1.9075,-0.094306,-0.047824,-1.0104,-0.1666,-0.23366,0.34524
-0.122442,0,0,10.1224,10.1224,9.87756,9.87756,0.935786,-0.081224,65.2387,-0.0133597,0.0128452,-0.00548222,0,0,0,3.5175,-0.6475,-1.8725,-0.055144,0.008662,-1.01797,-0.1666,-0.23366,0.34524
-0.182049,0,0,10.182,10.182,9.81795,9.81795,0.913565,-0.0985681,65.3057,-0.013057,0.0124574,-0.00547644,0,0,0,3.99,0.56,-1.715,-0.055144,0.008662,-1.01797,-0.16562,-0.23478,0.33796
-14.1942,0,0,24.1942,24.1942,1,1,1.09658,-0.179976,65.2985,-0.107731,-0.133466,-0.0447565,0,0,0,4.2,0.6825,-1.96,-0.151646,-0.1403,-1.05689,-0.16562,-0.23478,0.33796
-14.1153,0,0,24.1153,24.1153,1,1,1.27363,-0.261118,65.2913,-0.106315,-0.130376,-0.0448259,0,0,0,3.57,0.4025,-1.9075,-0.151646,-0.1403,-1.05689,-0.16562,-0.23478,0.33796
-3.21241,0,0,13.2124,13.2124,6.78759,6.78759,1.28678,-0.28041,65.3392,-0.0185088,-0.00899724,0.054141,0,0,0,3.465,0.385,-1.785,-0.063806,-0.019276,-0.958676,-0.16562,-0.23478,0.33796
-3.27146,0,0,13.2715,13.2715,6.72854,6.72854,1.30044,-0.300045,65.3869,-0.0181661,-0.00875889,0.0541339,0,0,0,3.92,0,-1.5925,-0.063806,-0.019276,-0.958676,-0.16562,-0.23478,0.33796
5.77384,0,0,4.22616,4.22616,15.7738,15.7738,1.18163,-0.326499,65.492,-0.00604178,0.0719698,0.00930004,0,0,0,3.7275,-0.0175,-1.2775,-0.052094,0.06344,-1.00321,-0.16562,-0.23478,0.33796
5.72233,0,0,4.27767,4.27767,15.7223,15.7223,1.06669,-0.351538,65.5959,-0.00560477,0.0699642,0.00933681,0,0,0,4.025,0.1575,-1.365,-0.052094,0.06344,-1.00321,-0.16562,-0.23478,0.33796
3.51919,0,0,6.48081,6.48081,13.5192,13.5192,0.986954,-0.35504,65.6809,0.00867018,0.0500094,0.0298938,0,0,0,4.34,0.0875,-1.365,-0.03782,0.044896,-0.982832,-0.16562,-0.23478,0.33796
3.49388,0,0,6.50612,6.50612,13.4939,13.4939,0.909677,-0.357859,65.7674,0.00871936,0.0486609,0.0299158,0,0,0,4.375,0.175,-1.0325,-0.03782,0.044896,-0.982832,-0.16408,-0.23464,0.34538
-5.96271,0,0,15.9627,15.9627,4.03729,4.03729,0.97255,-0.241741,65.7673,0.0911253,-0.0231514,0.0606455,0,0,0,4.2875,0.105,-0.945,0.04697,-0.027938,-0.952332,-0.16408,-0.23464,0.34538
-5.86643,0,0,15.8664,15.8664,4.13357,4.13357,1.03236,-0.128143,65.7672,0.0891427,-0.0221076,0.0606336,0,0,0,3.745,0.105,-1.0325,0.04697,-0.027938,-0.952332,-0.16408,-0.23464,0.34538
-10.6953,0,0,20.6953,20.6953,1,1,1.16113,0.0106525,65.7304,0.11369,-0.0709095,-0.0544867,0,0,0,3.7275,0.28,-1.05,0.074054,-0.078934,-1.06652,-0.16408,-0.23464,0.34538
-10.6662,0,0,20.6662,20.6662,1,1,1.28608,0.14652,65.6944,0.111319,-0.0687293,-0.0545365,0,0,0,3.815,0.4375,-0.98,0.074054,-0.078934,-1.06652,-0.16408,-0.23464,0.34538
-5.71183,0,0,15.7118,15.7118,4.28817,4.28817,1.33538,0.141353,65.7197,-0.012871,-0.0363603,-0.0761949,0,0,0,3.57,0.2975,-0.9625,-0.050752,-0.047458,-1.088,-0.16408,-0.23464,0.34538
-5.70903,0,0,15.709,15.709,4.29097,4.29097,1.38334,0.136067,65.7446,-0.0127787,-0.0355234,-0.0762145,0,0,0,3.57,0.2975,-0.9625,-0.050752,-0.047458,-1.088,-0.16408,-0.23464,0.34538
1.70847,0,0,8.29153,8.29153,11.7085,11.7085,1.3217,0.132183,65.8156,0.00660532,0.0400967,-0.0177885,0,0,0,4.2175,-0.4725,-0.8925,-0.031354,0.029158,-1.03005,-0.16408,-0.23464,0.34538
1.72676,0,0,8.27324,8.27324,11.7268,11.7268,1.26142,0.128505,65.8833,0.00666951,0.0390447,-0.0177646,0,0,0,4.2175,-0.4725,-0.8925,-0.031354,0.029158,-1.03005,-0.16856,-0.23982,0.3367
-2.28842,0,0,12.2884,12.2884,7.71158,7.71158,1.26135,0.176284,65.9139,0.0472622,0.00497022,-0.065102,0,0,0,3.57,-0.4375,-1.19,0.010248,-0.00488,-1.07702,-0.16856,-0.23982,0.3367
-2.27706,0,0,12.2771,12.2771,7.72294,7.72294,1.26113,0.223126,65.9441,0.0464447,0.00496616,-0.0651047,0,0,0,3.57,-0.4375,-1.19,0.010248,-0.00488,-1.07702,-0.16856,-0.23982,0.3367
-5.99821,0,0,15.9982,15.9982,4.00179,4.00179,1.31525,0.231783,65.9601,-0.00655268,-0.0382993,-0.0697986,0,0,0,3.5,4.13,-1.5225,-0.042822,-0.049044,-1.08165,-0.16856,-0.23982,0.3367
-5.99091,0,0,15.9909,15.9909,4.00909,4.00909,1.36784,0.240029,65.976,-0.0066966,-0.0373817,-0.0698207,0,0,0,3.5,4.13,-1.5225,-0.042822,-0.049044,-1.08165,-0.16856,-0.23982,0.3367
9.57424,0,0,1,1,19.5742,19.5742,1.19171,0.144936,66.1069,-0.0620137,0.100601,-0.00126414,0,0,0,3.36,0.525,-1.5225,-0.10004,0.091866,-1.0137,-0.16856,-0.23982,0.3367
9.53992,0,0,1,1,19.5399,19.5399,1.02071,0.0525988,66.2366,-0.0604021,0.0976175,-0.00120374,0,0,0,3.36,0.525,-1.5225,-0.10004,0.091866,-1.0137,-0.16856,-0.23982,0.3367
5.54541,0,0,4.45459,4.45459,15.5454,15.5454,0.912539,0.0456243,66.3228,0.00884496,0.063977,0.068663,0,0,0,3.1675,-0.21,-1.68,-0.030622,0.060146,-0.944402,-0.16856,-0.23982,0.3367
-7.91231,0,0,17.9123,17.9123,2.08769,2.08769,1.00377,0.0854123,66.3094,0.025037,-0.0583896,-0.0600915,0,0,0,2.87,-0.245,-1.715,-0.013664,-0.063684,-1.07214,-0.17122,-0.23716,0.3388
-7.96028,0,0,17.9603,17.9603,2.03972,2.03972,1.0933,0.124281,66.2963,0.0243586,-0.0568272,-0.0601214,0,0,0,3.4125,-0.105,-1.6275,-0.013664,-0.063684,-1.07214,-0.17122,-0.23716,0.3388
-1.98414,0,0,11.9841,11.9841,8.01586,8.01586,1.0932,0.124177,66.2963,0.189217,-0.0994514,-0.126514,1,0,0,3.4825,0.035,-1.2075,0.15189,-0.106262,-1.13802,-0.17122,-0.23716,0.3388
-0.122597,0,0,10.1226,10.1226,9.8774,9.8774,1.0659,-0.0198679,66.3696,-0.135916,-0.00173775,-0.0665034,0,0,0,3.4475,-0.35,-1.2775,-0.177144,-0.008174,-1.07848,-0.17122,-0.23716,0.3388
-0.145795,0,0,10.1458,10.1458,9.85421,9.85421,1.03966,-0.160264,66.4422,-0.133466,-0.00219577,-0.0664988,0,0,0,3.3075,0.0525,-1.12,-0.177144,-0.008174,-1.07848,-0.17122,-0.23716,0.3388
0.929957,0,0,9.07004,9.07004,10.93,10.93,0.998388,-0.205878,66.5031,-0.0368176,0.020166,-0.00857982,0,0,0,3.2025,0.56,-0.8575,-0.080886,0.014884,-1.02102,-0.17122,-0.23716,0.3388
0.938225,0,0,9.06177,9.06177,10.9382,10.9382,0.958083,-0.250885,66.5635,-0.0360321,0.0194626,-0.00857094,0,0,0,3.01,0.28,-0.7175,-0.080886,0.014884,-1.02102,-0.17122,-0.23716,0.3388
-1.8234,0,0,11.8234,11.8234,8.1766,8.1766,0.95917,-0.216246,66.5903,0.030302,0.00336089,0.0238896,0,0,0,3.1325,0.3325,-0.595,-0.013664,-0.00122,-0.98881,-0.17122,-0.23716,0.3388
-1.83396,0,0,11.834,11.834,8.16604,8.16604,0.960381,-0.18258,66.6213,0.0297144,0.00338205,0.0238913,0,0,0,3.3775,0.21,-0.315,-0.013664,-0.00122,-0.98881,-0.1673,-0.23534,0.34272
-0.54978,0,0,10.5498,10.5498,9.45022,9.45022,0.942802,-0.136203,66.6572,0.0479782,0.0168756,-0.0593375,0,0,0,3.535,-0.245,-0.2975,0.00549,0.012566,-1.0714,-0.1673,-0.23534,0.34272
-0.559556,0,0,10.5596,10.5596,9.44044,9.44044,0.925826,-0.0899375,66.6926,0.0471707,0.0165794,-0.0593311,0,0,0,3.6925,0.175,-0.3325,0.00549,0.012566,-1.0714,-0.1673,-0.23534,0.34272
-1.6924,0,0,11.6924,11.6924,8.3076,8.3076,0.92584,-0.0900959,66.6941,-0.0262039,-0.1511,-0.159657,1,0,0,3.5525,0.0175,-0.35,-0.068198,-0.15494,-1.17096,-0.1673,-0.23534,0.34272
-1.72034,0,0,11.7203,11.7203,8.27966,8.27966,0.92626,-0.090793,66.6955,-0.0261917,-0.151093,-0.159657,1,0,0,3.78,-0.2975,-0.315,-0.068198,-0.15494,-1.17096,-0.1673,-0.23534,0.34272
-1.75971,0,0,11.7597,11.7597,8.24029,8.24029,0.927241,-0.0912197,66.6969,-0.118756,-0.163533,-0.208468,1,0,0,4.095,-0.14,-0.3675,-0.161162,-0.167384,-1.21939,-0.1673,-0.23534,0.34272
-1.72105,0,0,11.7211,11.7211,8.27895,8.27895,0.92763,-0.0910429,66.6979,-0.118759,-0.163526,-0.208468,1,0,0,3.7625,0.21,-0.595,-0.161162,-0.167384,-1.21939,-0.1673,-0.23534,0.34272
-1.69199,0,0,11.692,11.692,8.30801,8.30801,0.927583,-0.0913704,66.6987,-0.192131,-0.111134,-0.156461,1,0,0,3.5175,-0.0875,-0.7175,-0.23485,-0.115046,-1.16778,-0.1673,-0.23534,0.34272
-1.71132,0,0,11.7113,11.7113,8.28868,8.28868,0.927817,-0.0907666,66.6992,-0.192142,-0.11113,-0.156461,1,0,0,3.675,0.455,-0.91,-0.23485,-0.115046,-1.16778,-0.1659,-0.23772,0.343
-10.1764,0,0,20.1764,20.1764,1,1,1.05168,-0.0397123,66.6741,0.0319588,-0.0803912,-0.0786709,0,0,0,3.605,-0.1225,-1.05,-0.008906,-0.086498,-1.09056,-0.1659,-0.23772,0.343
-12.5356,0,0,22.5356,22.5356,1,1,1.20674,-0.0375353,66.6431,-0.0206825,-0.104553,-0.0375365,0,0,0,3.08,-0.14,-1.3125,-0.061732,-0.113338,-1.04969,-0.1659,-0.23772,0.343
-12.6096,0,0,22.6096,22.6096,1,1,1.35881,-0.0355139,66.6121,-0.0207178,-0.1019,-0.0375958,0,0,0,3.815,0.1575,-1.5925,-0.061732,-0.113338,-1.04969,-0.1659,-0.23772,0.343
-2.50332,0,0,12.5033,12.5033,7.49668,7.49668,1.35926,-0.0358949,66.6111,-0.109517,-0.102381,-0.0968572,1,0,0,3.7975,-0.14,-1.75,-0.150914,-0.113826,-1.10849,-0.1659,-0.23772,0.343
-2.46588,0,0,12.4659,12.4659,7.53412,7.53412,1.35915,-0.0360605,66.6098,-0.109514,-0.102382,-0.0968572,1,0,0,3.4825,-0.0175,-1.9075,-0.150914,-0.113826,-1.10849,-0.1659,-0.23772,0.343
-14.6864,0,0,24.6864,24.6864,1,1,1.53753,-0.0556406,66.5691,-0.0447851,-0.121497,-0.0246424,0,0,0,3.465,-0.0175,-2.0475,-0.086254,-0.13603,-1.03676,-0.1659,-0.23772,0.343
-14.6923,0,0,24.6923,24.6923,1,1,1.71131,-0.0757741,66.5289,-0.0444337,-0.118465,-0.0247288,0,0,0,3.6225,-0.14,-2.0825,-0.086254,-0.13603,-1.03676,-0.1659,-0.23772,0.343
-2.56862,0,0,12.5686,12.5686,7.43138,7.43138,1.70343,-0.023025,66.5524,0.0541424,0.00999664,-0.0919767,0,0,0,3.5875,-0.035,-2.275,0.013664,-0.007564,-1.10349,-0.16268,-0.2338,0.3311
-10.168,0,0,20.168,20.168,1,1,1.80676,0.0475661,66.524,0.0476865,-0.0546378,0.0405062,0,0,0,3.01,0.175,-2.3275,0.008418,-0.073932,-0.971974,-0.16268,-0.2338,0.3311
-10.2388,0,0,20.2388,20.2388,1,1,1.90839,0.115813,66.4962,0.0464954,-0.0528649,0.040447,0,0,0,3.7975,-0.1575,-2.24,0.008418,-0.073932,-0.971974,-0.16268,-0.2338,0.3311
-3.63903,0,0,13.639,13.639,6.36097,6.36097,1.91096,0.0462354,66.537,-0.064786,-0.0108085,-0.00725674,0,0,0,3.5,0.14,-2.1,-0.104554,-0.031964,-1.01931,-0.16268,-0.2338,0.3311
-3.69552,0,0,13.6955,13.6955,6.30448,6.30448,1.91428,-0.0229426,66.5771,-0.0635787,-0.0107506,-0.00725843,0,0,0,3.815,-0.42,-2.205,-0.104554,-0.031964,-1.01931,-0.16268,-0.2338,0.3311
-6.86526,0,0,16.8653,16.8653,3.13474,3.13474,1.9638,-0.155312,66.6098,-0.13501,-0.0521427,-0.0420857,0,0,0,3.745,-0.1225,-2.135,-0.178608,-0.074176,-1.05384,-0.16268,-0.2338,0.3311
-6.80137,0,0,16.8014,16.8014,3.19863,3.19863,2.01109,-0.285128,66.6429,-0.132744,-0.0513182,-0.042123,0,0,0,2.975,0.0175,-1.575,-0.178608,-0.074176,-1.05384,-0.16268,-0.2338,0.3311
-3.60781,0,0,13.6078,13.6078,6.39219,6.39219,2.01048,-0.285282,66.6426,-0.162384,-0.115445,0.137259,1,0,0,3.2025,0,-1.365,-0.208376,-0.138226,-0.875838,-0.16268,-0.2338,0.3311
-3.60702,0,0,13.607,13.607,6.39298,6.39298,2.00988,-0.285436,66.6422,-0.162382,-0.115456,0.13726,1,0,0,3.2025,0,-1.365,-0.208376,-0.138226,-0.875838,-0.16702,-0.23548,0.34174
10.6451,0,0,1,1,20.6451,20.6451,1.80112,-0.388358,66.7772,-0.0590233,0.113798,0.0854859,0,0,0,3.5175,0.0875,-0.805,-0.106384,0.094428,-0.927322,-0.16702,-0.23548,0.34174
10.6115,0,0,1,1,20.6115,20.6115,1.59834,-0.488254,66.911,-0.0572798,0.11026,0.0855775,0,0,0,3.5175,0.0875,-0.805,-0.106384,0.094428,-0.927322,-0.16702,-0.23548,0.34174
12.3375,0,0,1,1,22.3375,22.3375,1.37568,-0.463868,67.0317,0.0526036,0.144601,0.0217487,0,0,0,3.99,0.525,-0.525,0.004392,0.132614,-0.990762,-0.16702,-0.23548,0.34174
12.3422,0,0,1,1,22.3422,22.3422,1.1588,-0.438935,67.1512,0.0521684,0.140817,0.0218358,0,0,0,3.99,0.525,-0.525,0.004392,0.132614,-0.990762,-0.16702,-0.23548,0.34174
-2.12963,0,0,12.1296,12.1296,7.87037,7.87037,1.15899,-0.439732,67.1529,-0.0228958,0.0135643,0.102736,1,0,0,3.6575,-0.35,-0.1925,-0.071004,0.00549,-0.910486,-0.16702,-0.23548,0.34174
-2.13014,0,0,12.1301,12.1301,7.86986,7.86986,1.15918,-0.440529,67.1545,-0.0228819,0.0135676,0.102736,1,0,0,3.6575,-0.35,-0.1925,-0.071004,0.00549,-0.910486,-0.16702,-0.23548,0.34174
2.77767,0,0,7.22233,7.22233,12.7777,12.7777,1.08768,-0.515764,67.2316,-0.0580146,0.0361345,0.0230785,0,0,0,3.5175,0.1925,-0.315,-0.107604,0.02928,-0.989542,-0.16702,-0.23548,0.34174
2.76485,0,0,7.23515,7.23515,12.7648,12.7648,1.01825,-0.589277,67.3063,-0.0567316,0.0349227,0.0230884,0,0,0,3.5175,0.1925,-0.315,-0.107604,0.02928,-0.989542,-0.16828,-0.23576,0.33992
1.16572,0,0,8.83428,8.83428,11.1657,11.1657,0.973993,-0.635404,67.3648,-0.0368533,0.0226704,-0.00579971,0,0,0,3.5875,0.2275,-0.5075,-0.08845,0.017812,-1.01821,-0.16828,-0.23576,0.33992
1.15099,0,0,8.84901,8.84901,11.151,11.151,0.931115,-0.680442,67.4226,-0.0360673,0.021922,-0.00579629,0,0,0,3.5875,0.2275,-0.5075,-0.08845,0.017812,-1.01821,-0.16828,-0.23576,0.33992
-2.47117,0,0,12.4712,12.4712,7.52883,7.52883,0.942267,-0.839274,67.4781,-0.141539,-0.0245364,0.053302,0,0,0,3.6225,0.1225,-0.63,-0.197152,-0.028792,-0.95953,-0.16828,-0.23576,0.33992
-2.51062,0,0,12.5106,12.5106,7.48938,7.48938,0.953699,-0.995109,67.5328,-0.13882,-0.0243376,0.0532552,0,0,0,3.6225,0.1225,-0.63,-0.197152,-0.028792,-0.95953,-0.16828,-0.23576,0.33992
0.723956,0,0,9.27604,9.27604,10.724,10.724,0.917586,-1.04293,67.5878,-0.0387313,0.0177764,-0.0028139,0,0,0,4.0075,-0.2275,-0.945,-0.097478,0.013908,-1.01516,-0.16828,-0.23576,0.33992
0.70921,0,0,9.29079,9.29079,10.7092,10.7092,0.882636,-1.08968,67.6422,-0.0379156,0.0171663,-0.0028195,0,0,0,4.0075,-0.2275,-0.945,-0.097478,0.013908,-1.01516,-0.16828,-0.23576,0.33992
8.25546,0,0,1.74454,1.74454,18.2555,18.2555,0.738385,-0.982191,67.7148,0.11729,0.10307,0.0359788,0,0,0,3.955,-0.105,-1.3475,0.060268,0.102236,-0.976732,-0.16828,-0.23576,0.33992
8.31862,0,0,1.68138,1.68138,18.3186,18.3186,0.597002,-0.876398,67.7907,0.115444,0.100603,0.0360375,0,0,0,3.955,-0.105,-1.3475,0.060268,0.102236,-0.976732,-0.16548,-0.23646,0.33824
-9.3368,0,0,19.3368,19.3368,1,1,0.717204,-0.845128,67.7665,0.00543921,-0.0736505,0.00405502,0,0,0,3.4475,4.375,-1.6275,-0.049654,-0.073932,-1.00845,-0.16548,-0.23646,0.33824
-9.31784,0,0,19.3178,19.3178,1,1,0.833967,-0.814922,67.7426,0.00491208,-0.0716129,0.00403508,0,0,0,3.4475,4.375,-1.6275,-0.049654,-0.073932,-1.00845,-0.16548,-0.23646,0.33824
-6.7106,0,0,16.7106,16.7106,3.2894,3.2894,0.909578,-0.868688,67.7498,-0.0625461,-0.0568598,-0.0338669,0,0,0,3.815,-0.2625,-1.925,-0.11834,-0.060512,-1.04603,-0.16548,-0.23646,0.33824
-6.71655,0,0,16.7166,16.7166,3.28345,3.28345,0.983286,-0.921741,67.7569,-0.0616202,-0.055574,-0.0339026,0,0,0,3.815,-0.2625,-1.925,-0.11834,-0.060512,-1.04603,-0.16548,-0.23646,0.33824
10.3223,0,0,1,1,20.3223,20.3223,0.80619,-0.975765,67.8764,-0.035044,0.11158,-0.0518205,0,0,0,4.27,4.3225,-1.8025,-0.092598,0.109556,-1.06384,-0.16548,-0.23646,0.33824
10.3003,0,0,1,1,20.3003,20.3003,0.63407,-1.02792,67.9947,-0.0341339,0.108577,-0.0517986,0,0,0,4.27,4.3225,-1.8025,-0.092598,0.109556,-1.06384,-0.16548,-0.23646,0.33824
-6.21491,0,0,16.2149,16.2149,3.78509,3.78509,0.70769,-0.843807,67.96,0.161768,-0.027042,-0.0436466,0,0,0,4.235,4.4625,-1.96,0.10736,-0.027206,-1.05579,-0.16548,-0.23646,0.33824
-6.2004,0,0,16.2004,16.2004,3.7996,3.7996,0.77916,-0.663227,67.9238,0.158617,-0.0257943,-0.0436213,0,0,0,4.235,4.4625,-1.96,0.10736,-0.027206,-1.05579,-0.16758,-0.23758,0.33768
-15.5213,0,0,25.5213,25.5213,1,1,0.984887,-0.548566,67.838,0.081659,-0.123691,-0.0339425,0,0,0,3.29,-0.21,-1.6275,0.032086,-0.128588,-1.04615,-0.16758,-0.23758,0.33768
-15.48,0,0,25.48,25.48,1,1,1.1846,-0.436743,67.7534,0.0797074,-0.120206,-0.0339917,0,0,0,3.29,-0.21,-1.6275,0.032086,-0.128588,-1.04615,-0.16758,-0.23758,0.33768
-6.37563,0,0,16.3756,16.3756,3.62437,3.62437,1.24608,-0.293985,67.7222,0.125446,-0.022775,-0.0102695,0,0,0,3.2025,0.4025,-1.365,0.08052,-0.03233,-1.0226,-0.16758,-0.23758,0.33768
-6.34043,0,0,16.3404,16.3404,3.65957,3.65957,1.30543,-0.154133,67.6914,0.123005,-0.0217392,-0.010283,0,0,0,3.2025,0.4025,-1.365,0.08052,-0.03233,-1.0226,-0.16758,-0.23758,0.33768
2.98204,0,0,7.01796,7.01796,12.982,12.982,1.22706,-0.148124,67.7454,0.0159926,0.0502915,0.0268779,0,0,0,3.5175,0.0875,-0.9625,-0.02684,0.040992,-0.98576,-0.16758,-0.23758,0.33768
2.97951,0,0,7.02049,7.02049,12.9795,12.9795,1.15078,-0.141901,67.7988,0.0158839,0.0489605,0.0269058,0,0,0,3.5175,0.0875,-0.9625,-0.02684,0.040992,-0.98576,-0.16758,-0.23758,0.33768
4.222,0,0,5.778,5.778,14.222,14.222,1.05836,-0.0667236,67.8479,0.0777444,0.0693306,-0.0254368,0,0,0,3.5175,4.3575,-1.0675,0.0366,0.062952,-1.03773,-0.16758,-0.23758,0.33768
4.23674,0,0,5.76326,5.76326,14.2367,14.2367,0.96815,0.00739859,67.8964,0.0764507,0.0677564,-0.0254083,0,0,0,3.5175,4.3575,-1.0675,0.0366,0.062952,-1.03773,-0.16758,-0.23758,0.33768
-2.63517,0,0,12.6352,12.6352,7.36483,7.36483,0.980678,0.0893066,67.8958,0.0733204,0.00288142,0.00765996,0,0,0,4.13,0.595,-0.9975,0.034892,-0.002074,-1.00491,-0.17108,-0.2408,0.34048
-1.74355,0,0,11.7435,11.7435,8.25645,8.25645,0.979852,0.0891653,67.8962,-0.1428,-0.0258328,0.112412,1,0,0,3.08,0.0175,-0.98,-0.182146,-0.030744,-0.90097,-0.17108,-0.2408,0.34048
-1.83411,0,0,11.8341,11.8341,8.16589,8.16589,0.980368,0.0892922,67.8965,-0.142802,-0.0258238,0.112412,1,0,0,3.8325,0.175,-0.9625,-0.182146,-0.030744,-0.90097,-0.17108,-0.2408,0.34048
17.2369,0,0,1,1,27.2369,27.2369,0.702325,-0.252813,68.0994,-0.284072,0.137492,0.0387058,0,0,0,3.15,0.2275,-0.84,-0.33001,0.13725,-0.97417,-0.17108,-0.2408,0.34048
17.177,0,0,1,1,27.177,27.177,0.432465,-0.587501,68.3002,-0.278231,0.132782,0.0387096,0,0,0,2.9225,-0.035,-1.0325,-0.33001,0.13725,-0.97417,-0.17108,-0.2408,0.34048
12.2896,0,0,1,1,22.2896,22.2896,0.241083,-0.727333,68.4345,-0.0936836,0.0953689,0.103372,0,0,0,2.94,0.035,-0.9975,-0.147132,0.103212,-0.909998,-0.17108,-0.2408,0.34048
12.2522,0,0,1,1,22.2522,22.2522,0.0552787,-0.86406,68.5672,-0.0912975,0.0921263,0.103347,0,0,0,2.8875,-0.245,-1.1725,-0.147132,0.103212,-0.909998,-0.17108,-0.2408,0.34048
-0.112534,0,0,10.1125,10.1125,9.88747,9.88747,0.0549541,-0.864823,68.567,-0.0321206,0.0928534,0.129904,1,0,0,3.36,-0.35,-1.2775,-0.087718,0.103944,-0.883646,-0.17108,-0.2408,0.34048
-0.128837,0,0,10.1288,10.1288,9.87116,9.87116,0.054876,-0.864391,68.567,-0.0321282,0.092852,0.129904,1,0,0,3.5,0.35,-1.155,-0.087718,0.103944,-0.883646,-0.17052,-0.23324,0.3451
3.20166,0,0,6.79834,6.79834,13.2017,13.2017,0.00615596,-1.05137,68.6473,-0.158733,0.00871134,0.0675152,0,0,0,3.78,0.2275,-1.155,-0.218136,0.02074,-0.9455,-0.17052,-0.23324,0.3451
3.23129,0,0,6.76871,6.76871,13.2313,13.2313,-0.0417159,-1.23474,68.7262,-0.155534,0.00787601,0.0674511,0,0,0,3.1325,0.14,-1.2775,-0.218136,0.02074,-0.9455,-0.17052,-0.23324,0.3451
0.321667,0,0,9.67833,9.67833,10.3217,10.3217,-0.0458322,-1.42758,68.7875,-0.164439,-0.01943,0.0935609,0,0,0,2.94,0.035,-1.1025,-0.230458,-0.006466,-0.919514,-0.17052,-0.23324,0.3451
0.23971,0,0,9.76029,9.76029,10.2397,10.2397,-0.0486432,-1.61727,68.8477,-0.161129,-0.019479,0.0934729,0,0,0,3.22,-0.2625,-1.155,-0.230458,-0.006466,-0.919514,-0.17052,-0.23324,0.3451
6.04979,0,0,3.95021,3.95021,16.0498,16.0498,-0.13624,-1.68099,68.9243,-0.04327,0.0448192,0.0591358,0,0,0,2.905,-0.2625,-1.2775,-0.113216,0.059292,-0.953552,-0.17052,-0.23324,0.3451
5.93022,0,0,4.06978,4.06978,15.9302,15.9302,-0.219787,-1.74243,68.9999,-0.0421982,0.0433617,0.0590992,0,0,0,3.71,0.14,-1.33,-0.113216,0.059292,-0.953552,-0.17052,-0.23324,0.3451
6.60275,0,0,3.39725,3.39725,16.6027,16.6027,-0.310959,-1.83063,69.0841,-0.0631343,0.0445804,0.0685109,0,0,0,3.675,-0.525,-1.3475,-0.135786,0.062098,-0.944158,-0.17052,-0.23324,0.3451
6.56376,0,0,3.43624,3.43624,16.5638,16.5638,-0.399165,-1.91538,69.1689,-0.0616559,0.0430421,0.068453,0,0,0,3.745,0.2625,-1.0675,-0.135786,0.062098,-0.944158,-0.1715,-0.23702,0.35028
0.293178,0,0,9.70682,9.70682,10.2932,10.2932,-0.393464,-1.91448,69.1959,0.000772038,-0.00326664,0.0300943,0,0,0,3.9025,0.35,-0.9975,-0.073078,0.015738,-0.982222,-0.1715,-0.23702,0.35028
0.333979,0,0,9.66602,9.66602,10.334,10.334,-0.388509,-1.91386,69.2223,0.000761257,-0.0031802,0.0300953,0,0,0,3.57,0.21,-1.1375,-0.073078,0.015738,-0.982222,-0.1715,-0.23702,0.35028
0.6201,0,0,9.3799,9.3799,10.6201,10.6201,-0.387862,-1.91397,69.2221,0.0838593,0.0107535,0.1062,1,0,0,3.9025,0.035,-1.295,0.01037,0.029646,-0.906704,-0.1715,-0.23702,0.35028
0.60251,0,0,9.39749,9.39749,10.6025,10.6025,-0.386974,-1.91387,69.2222,0.0838575,0.010769,0.106201,1,0,0,4.0425,0.1575,-1.1375,0.01037,0.029646,-0.906704,-0.1715,-0.23702,0.35028
14.297,0,0,1,1,24.297,24.297,-0.586125,-2.11437,69.3788,-0.147842,0.0962048,0.0916631,0,0,0,4.2,-0.175,-1.0675,-0.225822,0.118462,-0.920978,-0.1715,-0.23702,0.35028
14.2635,0,0,1,1,24.2635,24.2635,-0.77955,-2.30931,69.5339,-0.144442,0.0928332,0.0914916,0,0,0,4.025,0.2975,-0.9975,-0.225822,0.118462,-0.920978,-0.1715,-0.23702,0.35028
-10.4337,0,0,20.4337,20.4337,1,1,-0.60717,-2.20391,69.4671,0.07531,-0.0935802,0.0398391,0,0,0,4.1475,0.3325,-0.9975,-0.003294,-0.07076,-0.97234,-0.1715,-0.23702,0.35028
-10.3831,0,0,20.3831,20.3831,1,1,-0.440059,-2.10158,69.405,0.0735253,-0.0906664,0.0399328,0,0,0,3.675,-0.14,-1.015,-0.003294,-0.07076,-0.97234,-0.17122,-0.24206,0.34594
-19.766,0,0,29.766,29.766,1,1,-0.140298,-1.94394,69.2699,0.103334,-0.15676,0.104113,0,0,0,3.395,-0.4725,-1.1025,0.029402,-0.142008,-0.908778,-0.17122,-0.24206,0.34594
-19.7471,0,0,29.7471,29.7471,1,1,0.151307,-1.78922,69.1375,0.100635,-0.151674,0.1042,0,0,0,3.71,-0.0175,-0.8925,0.029402,-0.142008,-0.908778,-0.17122,-0.24206,0.34594
1.65991,0,0,8.34009,8.34009,11.6599,11.6599,0.122581,-2.07477,69.2243,-0.268196,-0.0160038,0.0295264,0,0,0,3.4125,-0.1225,-1.085,-0.345992,-0.005978,-0.98271,-0.17122,-0.24206,0.34594
1.5826,0,0,8.4174,8.4174,11.5826,11.5826,0.0957388,-2.35445,69.3097,-0.263318,-0.0164723,0.0293387,0,0,0,3.4475,0.14,-1.12,-0.345992,-0.005978,-0.98271,-0.17122,-0.24206,0.34594
-1.80085,0,0,11.8008,11.8008,8.19915,8.19915,0.11902,-2.37082,69.3283,-0.0181174,-0.0163106,0.00424465,0,0,0,3.7625,0.0175,-1.12,-0.10004,-0.006222,-1.0076,-0.17122,-0.24206,0.34594
-1.77704,0,0,11.777,11.777,8.22296,8.22296,0.141341,-2.38726,69.3466,-0.0178306,-0.0159214,0.00423186,0,0,0,3.5525,-0.1575,-1.19,-0.10004,-0.006222,-1.0076,-0.17122,-0.24206,0.34594
1.97712,0,0,8.02288,8.02288,11.9771,11.9771,0.108243,-2.31592,69.3748,0.0724041,0.0295433,0.00711202,0,0,0,3.78,-0.4375,-1.295,-0.008174,0.039772,-1.00479,-0.17122,-0.24206,0.34594
1.96731,0,0,8.03269,8.03269,11.9673,11.9673,0.0761579,-2.24464,69.4028,0.071161,0.0289839,0.00716242,0,0,0,3.9725,0.245,-1.435,-0.008174,0.039772,-1.00479,-0.16912,-0.23786,0.34384
5.51304,0,0,4.48696,4.48696,15.513,15.513,-0.00687108,-2.30876,69.4769,-0.0447116,0.043046,0.0517491,0,0,0,3.6225,-0.14,-1.47,-0.12566,0.055266,-0.960506,-0.16912,-0.23786,0.34384
5.50549,0,0,4.49451,4.49451,15.5055,15.5055,-0.0876068,-2.37148,69.5498,-0.0436178,0.0416381,0.0517033,0,0,0,3.5,-0.245,-1.68,-0.12566,0.055266,-0.960506,-0.16912,-0.23786,0.34384
-3.41877,0,0,13.4188,13.4188,6.58123,6.58123,-0.0358752,-2.31106,69.5406,0.0511808,-0.0258508,-0.0102187,0,0,0,3.535,-0.4025,-1.6975,-0.029402,-0.013054,-1.02199,-0.16912,-0.23786,0.34384
-3.31103,0,0,13.311,13.311,6.68897,6.68897,0.0129227,-2.25103,69.5316,0.0501339,-0.0249998,-0.0101768,0,0,0,2.8,0.14,-1.68,-0.029402,-0.013054,-1.02199,-0.16912,-0.23786,0.34384
-5.82873,0,0,15.8287,15.8287,4.17127,4.17127,0.0972102,-2.30953,69.5254,-0.0674159,-0.0618777,-0.00370261,0,0,0,2.7125,0.0525,-1.645,-0.148474,-0.051362,-1.01553,-0.16912,-0.23786,0.34384
-5.82373,0,0,15.8237,15.8237,4.17627,4.17627,0.179208,-2.3669,69.5191,-0.0664155,-0.0604479,-0.0037469,0,0,0,2.625,0.2625,-1.7675,-0.148474,-0.051362,-1.01553,-0.16912,-0.23786,0.34384
4.89424,0,0,5.10576,5.10576,14.8942,14.8942,0.102508,-2.2522,69.5568,0.12341,0.0649823,-0.0592357,0,0,0,2.6775,0.1925,-1.5225,0.044164,0.075274,-1.07067,-0.16912,-0.23786,0.34384
4.81987,0,0,5.18013,5.18013,14.8199,14.8199,0.0289094,-2.1392,69.594,0.121439,0.0636988,-0.0591586,0,0,0,3.465,0.28,-1.5225,0.044164,0.075274,-1.07067,-0.16912,-0.23786,0.34384
-6.51231,0,0,16.5123,16.5123,3.48769,3.48769,0.12276,-1.78091,69.516,0.32864,-0.0189314,0.0426085,0,0,0,3.36,0.455,-1.47,0.258518,-0.008906,-0.9699,-0.16394,-0.23632,0.3381
-0.294925,0,0,10.2949,10.2949,9.70507,9.70507,0.123334,-1.92002,69.566,-0.122318,-0.0152577,0.0661362,0,0,0,3.675,-0.0175,-1.4525,-0.196786,-0.005246,-0.946476,-0.16394,-0.23632,0.3381
-0.26219,0,0,10.2622,10.2622,9.73781,9.73781,0.123414,-2.05583,69.6159,-0.119949,-0.0152565,0.066054,0,0,0,3.15,0.385,-1.1375,-0.196786,-0.005246,-0.946476,-0.16394,-0.23632,0.3381
-11.8954,0,0,21.8954,21.8954,1,1,0.293402,-1.94215,69.5451,0.0821642,-0.0904523,0.0577519,0,0,0,2.8,0.3325,-0.875,0.008174,-0.083326,-0.954772,-0.16394,-0.23632,0.3381
-11.8813,0,0,21.8813,21.8813,1,1,0.458715,-1.83144,69.4752,0.0802329,-0.0875683,0.0577966,0,0,0,2.9925,0.14,-0.98,0.008174,-0.083326,-0.954772,-0.16394,-0.23632,0.3381
-9.03811,0,0,19.0381,19.0381,1,1,0.578153,-1.65885,69.414,0.145861,-0.0560514,0.0213538,0,0,0,2.5375,0.21,-0.805,0.077104,-0.053924,-0.991006,-0.16394,-0.23632,0.3381
-9.10729,0,0,19.1073,19.1073,1,1,0.69546,-1.49024,69.3535,0.14292,-0.054004,0.0214119,0,0,0,3.4475,-0.0525,-0.875,0.077104,-0.053924,-0.991006,-0.16394,-0.23632,0.3381
-1.23715,0,0,11.2372,11.2372,8.76285,8.76285,0.694733,-1.49027,69.3545,-0.0383363,0.090215,-0.113954,1,0,0,3.15,0.0875,-0.6125,-0.10492,0.090158,-1.12533,-0.16394,-0.23632,0.3381
-1.31096,0,0,11.311,11.311,8.68904,8.68904,0.695102,-1.49018,69.3553,-0.0383379,0.0902214,-0.113954,1,0,0,3.7625,0.1575,-0.6825,-0.10492,0.090158,-1.12533,-0.17052,-0.2422,0.3437
-0.17377,0,0,10.1738,10.1738,9.82623,9.82623,0.67885,-1.6631,69.4077,-0.152433,-0.00959636,0.0620283,0,0,0,3.6925,0.1925,-0.63,-0.222528,-0.009272,-0.950624,-0.17052,-0.2422,0.3437
-0.227371,0,0,10.2274,10.2274,9.77263,9.77263,0.663807,-1.83378,69.4591,-0.149456,-0.00985984,0.0619405,0,0,0,3.7625,-0.4375,-0.735,-0.222528,-0.009272,-0.950624,-0.17052,-0.2422,0.3437
-5.09586,0,0,15.0959,15.0959,4.90414,4.90414,0.720265,-1.98557,69.4754,-0.142556,-0.0513763,0.0575371,0,0,0,3.8675,-0.2625,-0.595,-0.218258,-0.051728,-0.954894,-0.17052,-0.2422,0.3437
-5.11398,0,0,15.114,15.114,4.88602,4.88602,0.775502,-2.13422,69.4912,-0.139963,-0.0504141,0.0574313,0,0,0,3.745,0.0525,-0.63,-0.218258,-0.051728,-0.954894,-0.17052,-0.2422,0.3437
-1.41402,0,0,11.414,11.414,8.58598,8.58598,0.775244,-2.1341,69.4918,-0.0662235,0.129108,-0.105475,1,0,0,3.4125,0.175,-0.805,-0.144204,0.127612,-1.11654,-0.17052,-0.2422,0.3437
-1.44359,0,0,11.4436,11.4436,8.55641,8.55641,0.775424,-2.1338,69.4925,-0.0662288,0.129111,-0.105475,1,0,0,3.6575,0.28,-0.805,-0.144204,0.127612,-1.11654,-0.17052,-0.2422,0.3437
-1.479,0,0,11.479,11.479,8.521,8.521,0.776114,-2.13403,69.4928,-0.118828,0.0228726,-0.148507,1,0,0,3.9375,-0.035,-0.98,-0.19703,0.021472,-1.15924,-0.17052,-0.2422,0.3437
-1.43634,0,0,11.4363,11.4363,8.56366,8.56366,0.776161,-2.13464,69.4928,-0.118817,0.0228734,-0.148508,1,0,0,3.57,-0.2625,-1.1725,-0.19703,0.021472,-1.15924,-0.16968,-0.23422,0.34426
-7.80334,0,0,17.8033,17.8033,2.19666,2.19666,0.8692,-1.95082,69.4312,0.157151,-0.0335125,0.0519893,0,0,0,4.2525,-0.1925,-1.295,0.083326,-0.036478,-0.960384,-0.16968,-0.23422,0.34426
-7.76024,0,0,17.7602,17.7602,2.23976,2.23976,0.95916,-1.77064,69.3704,0.154007,-0.0319418,0.0520663,0,0,0,4.2525,-0.1925,-1.295,0.083326,-0.036478,-0.960384,-0.16968,-0.23422,0.34426
-3.71823,0,0,13.7182,13.7182,6.28177,6.28177,0.987718,-1.86306,69.3812,-0.0856509,-0.0279029,0.0488101,0,0,0,3.5525,-0.0875,-1.505,-0.158966,-0.03294,-0.963556,-0.16968,-0.23422,0.34426
-3.57675,0,0,13.5768,13.5768,6.42325,6.42325,1.01346,-1.63217,69.3395,0.215493,0.0134607,0.022983,0,0,0,3.92,-0.35,-1.54,0.147498,0.00793,-0.989298,-0.16968,-0.23422,0.34426
-3.5022,0,0,13.5022,13.5022,6.4978,6.4978,1.03743,-1.40511,69.2979,0.211532,0.0138807,0.0230805,0,0,0,3.71,-0.105,-1.6625,0.147498,0.00793,-0.989298,-0.16968,-0.23422,0.34426
-6.53543,0,0,16.5354,16.5354,3.46457,3.46457,1.10507,-1.27945,69.2521,0.116767,-0.0306138,-0.0602493,0,0,0,3.5,-0.455,-1.715,0.054534,-0.037698,-1.07201,-0.16968,-0.23422,0.34426
-6.53364,0,0,16.5336,16.5336,3.46636,3.46636,1.1709,-1.15505,69.2071,0.114596,-0.0294643,-0.060226,0,0,0,3.745,0.2975,-1.645,0.054534,-0.037698,-1.07201,-0.16968,-0.23422,0.34426
2.49944,0,0,7.50056,7.50056,12.4994,12.4994,1.10306,-1.20151,69.2532,-0.0383939,0.0389641,-0.0550553,0,0,0,3.535,0.2275,-1.575,-0.099918,0.031842,-1.06689,-0.16814,-0.23548,0.34132
-10.7543,0,0,20.7543,20.7543,1,1,1.23059,-1.08838,69.1843,0.0891357,-0.0657932,0.0266995,0,0,0,3.7975,-0.0525,-1.715,0.030134,-0.07503,-0.98576,-0.16814,-0.23548,0.34132
-10.6505,0,0,20.6505,20.6505,1,1,1.35325,-0.977034,69.1172,0.0871928,-0.0636526,0.0266863,0,0,0,3.22,0.3675,-1.295,0.030134,-0.07503,-0.98576,-0.16814,-0.23548,0.34132
-10.9136,0,0,20.9136,20.9136,1,1,1.47651,-1.08266,69.0851,-0.114574,-0.0917904,0.0307803,0,0,0,3.185,0.35,-1.19,-0.174338,-0.105286,-0.981612,-0.16814,-0.23548,0.34132
-10.9702,0,0,20.9702,20.9702,1,1,1.59737,-1.18722,69.0532,-0.112749,-0.0896833,0.0306876,0,0,0,3.5,0.0875,-1.2075,-0.174338,-0.105286,-0.981612,-0.16814,-0.23548,0.34132
-8.26185,0,0,18.2619,18.2619,1.73815,1.73815,1.67548,-1.15555,69.0172,0.0193602,-0.0529037,-0.0738462,0,0,0,2.9925,0.105,-0.98,-0.041114,-0.069906,-1.08531,-0.16814,-0.23548,0.34132
-8.28533,0,0,18.2853,18.2853,1.71467,1.71467,1.75188,-1.12502,68.982,0.0188275,-0.0515709,-0.0738755,0,0,0,3.29,-0.0525,-0.805,-0.041114,-0.069906,-1.08531,-0.16814,-0.23548,0.34132
-2.31381,0,0,12.3138,12.3138,7.68619,7.68619,1.73905,-1.19268,69.0028,-0.0627235,-0.00086854,-0.00344306,0,0,0,3.395,0.035,-0.8575,-0.124196,-0.019032,-1.01541,-0.16814,-0.23548,0.34132
-2.3732,0,0,12.3732,12.3732,7.6268,7.6268,1.72742,-1.25876,69.0272,-0.0615706,-0.00107214,-0.00346158,0,0,0,3.6575,0.1575,-1.015,-0.124196,-0.019032,-1.01541,-0.1652,-0.23618,0.33306
-3.1167,0,0,13.1167,13.1167,6.8833,6.8833,1.72695,-1.25904,69.028,-0.303201,0.232548,-0.0515343,1,0,0,3.29,-0.0525,-0.7175,-0.366854,0.214354,-1.06311,-0.1652,-0.23618,0.33306
-3.1073,0,0,13.1073,13.1073,6.8927,6.8927,1.72635,-1.25848,69.0289,-0.30321,0.232538,-0.0515338,1,0,0,3.22,0.4375,-0.63,-0.366854,0.214354,-1.06311,-0.1652,-0.23618,0.33306
11.0013,0,0,1,1,21.0013,21.0013,1.5197,-1.3728,69.1492,-0.073916,0.112179,0.0765119,0,0,0,3.29,0.4375,-0.7175,-0.138592,0.097722,-0.936106,-0.1652,-0.23618,0.33306
10.9677,0,0,1,1,20.9677,20.9677,1.31897,-1.48403,69.2684,-0.0719752,0.108676,0.0765503,0,0,0,3.29,0.4375,-0.7175,-0.138592,0.097722,-0.936106,-0.1652,-0.23618,0.33306
10.1413,0,0,1,1,20.1413,20.1413,1.13558,-1.48401,69.3627,0.0243626,0.113172,0.0503079,0,0,0,3.1675,0.245,-0.805,-0.041846,0.105408,-0.962214,-0.1652,-0.23618,0.33306
10.1385,0,0,1,1,20.1385,20.1385,0.957058,-1.48322,69.456,0.0243488,0.110057,0.0503651,0,0,0,3.1675,0.245,-0.805,-0.041846,0.105408,-0.962214,-0.1652,-0.23618,0.33306
3.05993,0,0,6.94007,6.94007,13.0599,13.0599,0.886612,-1.45646,69.497,0.0351801,0.0486201,-0.0148888,0,0,0,3.0625,-0.0875,-0.9975,-0.0305,0.045262,-1.027,-0.1652,-0.23618,0.33306
3.05893,0,0,6.94107,6.94107,13.0589,13.0589,0.81803,-1.42991,69.5414,0.0347168,0.0474238,-0.0148593,0,0,0,3.0625,-0.0875,-0.9975,-0.0305,0.045262,-1.027,-0.16268,-0.23674,0.34342
-1.48306,0,0,11.4831,11.4831,8.51694,8.51694,0.817588,-1.43013,69.541,0.01832,0.0283643,-0.130431,1,0,0,3.29,-0.035,-1.4175,-0.04697,0.02623,-1.14168,-0.16268,-0.23674,0.34342
-1.48239,0,0,11.4824,11.4824,8.51761,8.51761,0.817147,-1.43035,69.5406,0.0183238,0.0283566,-0.130431,1,0,0,3.29,-0.035,-1.4175,-0.04697,0.02623,-1.14168,-0.16268,-0.23674,0.34342
-16.6328,0,0,26.6328,26.6328,1,1,1.038,-1.41269,69.4525,-0.00482359,-0.139012,0.016069,0,0,0,3.395,-4.2875,-1.47,-0.069906,-0.144814,-0.996252,-0.16268,-0.23674,0.34342
-16.6152,0,0,26.6152,26.6152,1,1,1.25278,-1.39604,69.3656,-0.00511405,-0.135265,0.0160012,0,0,0,3.395,-4.2875,-1.47,-0.069906,-0.144814,-0.996252,-0.16268,-0.23674,0.34342
-6.48619,0,0,16.4862,16.4862,3.51381,3.51381,1.31397,-1.24376,69.3252,0.135946,-0.02013,0.0187434,0,0,0,3.5175,0.0175,-1.6975,0.07442,-0.030866,-0.993568,-0.16268,-0.23674,0.34342
-6.45208,0,0,16.4521,16.4521,3.54792,3.54792,1.37306,-1.09445,69.2853,0.133341,-0.019098,0.0187723,0,0,0,3.5175,0.0175,-1.6975,0.07442,-0.030866,-0.993568,-0.16268,-0.23674,0.34342
-1.19392,0,0,11.1939,11.1939,8.80608,8.80608,1.35378,-0.968178,69.2837,0.127007,0.0289289,-0.0306053,0,0,0,3.7975,0.0175,-1.9075,0.070272,0.017446,-1.04261,-0.16268,-0.23674,0.34342
-1.24751,0,0,11.2475,11.2475,8.75249,8.75249,1.3358,-0.843712,69.2731,0.124835,0.0286159,-0.0305636,0,0,0,3.7975,0.0175,-1.9075,0.070272,0.017446,-1.04261,-0.1694,-0.23632,0.33432
-10.8055,0,0,20.8055,20.8055,1,1,1.45788,-0.718366,69.2002,0.101873,-0.0619476,0.0171183,0,0,0,3.5875,0.2625,-1.54,0.04941,-0.075152,-0.995276,-0.1694,-0.23632,0.33432
-2.66428,0,0,12.6643,12.6643,7.33572,7.33572,1.45785,-0.71872,69.1994,-0.0285961,0.0292804,-0.106322,1,0,0,3.5175,-0.1225,-1.645,-0.081618,0.015982,-1.11776,-0.1694,-0.23632,0.33432
-2.68986,0,0,12.6899,12.6899,7.31014,7.31014,1.45818,-0.718632,69.1988,-0.0285976,0.0292863,-0.106322,1,0,0,3.7275,0.14,-1.505,-0.081618,0.015982,-1.11776,-0.1694,-0.23632,0.33432
4.74387,0,0,5.25613,5.25613,14.7439,14.7439,1.34993,-0.83617,69.268,-0.0945784,0.0551198,0.0298003,0,0,0,4.2,0.0875,-1.4175,-0.149938,0.043676,-0.98271,-0.1694,-0.23632,0.33432
4.70735,0,0,5.29265,5.29265,14.7074,14.7074,1.24506,-0.951509,69.3368,-0.0925656,0.0532894,0.0298103,0,0,0,4.2175,-0.175,-1.19,-0.149938,0.043676,-0.98271,-0.1694,-0.23632,0.33432
-3.68079,0,0,13.6808,13.6808,6.31921,6.31921,1.26545,-0.922039,69.3272,0.0256117,-0.00766225,0.019975,0,0,0,4.48,-0.035,-1.1375,-0.030744,-0.017568,-0.99247,-0.1694,-0.23632,0.33432
-3.62986,0,0,13.6299,13.6299,6.37014,6.37014,1.28456,-0.892838,69.318,0.0251021,-0.00732863,0.0199757,0,0,0,4.13,0.175,-0.9975,-0.030744,-0.017568,-0.99247,-0.1694,-0.23632,0.33432
5.18293,0,0,4.81707,4.81707,15.1829,15.1829,1.17445,-1.00012,69.3895,-0.0872223,0.0576751,0.0123632,0,0,0,3.99,0.42,-0.875,-0.145424,0.049288,-1.00003,-0.1708,-0.24136,0.33348
1.63299,0,0,8.36701,8.36701,11.633,11.633,1.11908,-0.88614,69.402,0.109175,0.0490157,0.0721682,0,0,0,3.8675,0.2975,-0.63,0.053802,0.041602,-0.940742,-0.1708,-0.24136,0.33348
1.70149,0,0,8.29851,8.29851,11.7015,11.7015,1.06417,-0.774753,69.4142,0.107231,0.0480581,0.0722147,0,0,0,3.5175,-0.105,-0.6125,0.053802,0.041602,-0.940742,-0.1708,-0.24136,0.33348
0.501493,0,0,9.49851,9.49851,10.5015,10.5015,1.02822,-0.841959,69.4473,-0.0610688,0.0145784,-0.0257804,0,0,0,3.5175,-0.105,-0.6125,-0.116388,0.008784,-1.03798,-0.1708,-0.24136,0.33348
4.32944,0,0,5.67056,5.67056,14.3294,14.3294,0.937307,-0.821089,69.4911,0.0322325,0.0637969,-0.0534113,0,0,0,3.325,0.49,-0.42,-0.022326,0.059536,-1.06543,-0.1708,-0.24136,0.33348
4.33217,0,0,5.66783,5.66783,14.3322,14.3322,0.848741,-0.800255,69.5344,0.0318689,0.0622516,-0.053382,0,0,0,3.325,0.49,-0.42,-0.022326,0.059536,-1.06543,-0.1708,-0.24136,0.33348
-1.60443,0,0,11.6044,11.6044,8.39557,8.39557,0.84921,-0.800198,69.5356,-0.0421169,0.105737,0.124647,1,0,0,3.815,0.14,-0.525,-0.096624,0.102968,-0.88877,-0.1708,-0.24136,0.33348
-1.62685,0,0,11.6269,11.6269,8.37315,8.37315,0.849992,-0.799751,69.5366,0.107667,0.0286885,-0.104037,1,0,0,3.99,0.3675,-0.5775,0.053802,0.025986,-1.11569,-0.1708,-0.24136,0.33348
-1.59613,0,0,11.5961,11.5961,8.40387,8.40387,0.850303,-0.799546,69.5378,0.107664,0.028694,-0.104037,1,0,0,3.7275,0.2275,-0.455,0.053802,0.025986,-1.11569,-0.1673,-0.238,0.34118
-14.0432,0,0,24.0432,24.0432,1,1,1.0324,-0.847055,69.4737,-0.0760441,-0.135809,-0.0622987,0,0,0,3.2725,0.1925,-0.6475,-0.131516,-0.14152,-1.07421,-0.1673,-0.238,0.34118
-14.0718,0,0,24.0718,24.0718,1,1,1.21013,-0.893852,69.4098,-0.0752274,-0.132708,-0.0623718,0,0,0,3.5,0.455,-1.015,-0.131516,-0.14152,-1.07421,-0.1673,-0.238,0.34118
-6.12161,0,0,16.1216,16.1216,3.87839,3.87839,1.26706,-0.708719,69.3596,0.178727,-0.0164261,-0.0489467,0,0,0,2.835,0.455,-1.155,0.126758,-0.026352,-1.06091,-0.1673,-0.238,0.34118
-6.07357,0,0,16.0736,16.0736,3.92643,3.92643,1.32179,-0.528382,69.3095,0.17558,-0.0154704,-0.0489343,0,0,0,2.765,-0.2975,-1.3825,0.126758,-0.026352,-1.06091,-0.1673,-0.238,0.34118
-6.60518,0,0,16.6052,16.6052,3.39482,3.39482,1.38284,-0.445145,69.2725,0.0756021,-0.0333345,-0.0628403,0,0,0,3.0625,0.105,-1.26,0.027816,-0.045262,-1.0747,-0.1673,-0.238,0.34118
-6.54836,0,0,16.5484,16.5484,3.45164,3.45164,1.44146,-0.36417,69.2356,0.0741888,-0.0323116,-0.0628555,0,0,0,2.765,-0.21,-1.4525,0.027816,-0.045262,-1.0747,-0.1673,-0.238,0.34118
-8.10747,0,0,18.1075,18.1075,1.89253,1.89253,1.5213,-0.391856,69.2065,-0.0395245,-0.0609618,-0.0461738,0,0,0,2.8525,0.14,-1.8025,-0.086864,-0.075274,-1.05811,-0.1673,-0.238,0.34118
-8.15757,0,0,18.1576,18.1576,1.84243,1.84243,1.59978,-0.419847,69.1791,-0.039036,-0.0595928,-0.0462145,0,0,0,3.2375,-0.175,-1.8025,-0.086864,-0.075274,-1.05811,-0.16604,-0.23786,0.34342
-2.8318,0,0,12.8318,12.8318,7.1682,7.1682,1.5984,-0.419772,69.178,-0.092491,-0.162203,-0.147769,1,0,0,2.765,0.1225,-1.82,-0.140544,-0.177754,-1.15888,-0.16604,-0.23786,0.34342
-2.84901,0,0,12.849,12.849,7.15099,7.15099,1.5973,-0.419686,69.1765,-0.0924925,-0.162223,-0.147769,1,0,0,2.9225,0.1225,-2.0825,-0.140544,-0.177754,-1.15888,-0.16604,-0.23786,0.34342
-8.49833,0,0,18.4983,18.4983,1.50167,1.50167,1.67874,-0.594794,69.1713,-0.189784,-0.0831299,-0.0363221,0,0,0,2.73,0.0175,-1.995,-0.241316,-0.100162,-1.04822,-0.16604,-0.23786,0.34342
-8.5491,0,0,18.5491,18.5491,1.4509,1.4509,1.75878,-0.767008,69.1661,-0.186778,-0.0817348,-0.0363997,0,0,0,2.8,0.0175,-1.96,-0.241316,-0.100162,-1.04822,-0.16604,-0.23786,0.34342
-0.455749,0,0,10.4557,10.4557,9.54425,9.54425,1.7185,-0.837469,69.1984,-0.0636983,0.0168511,-0.0161091,0,0,0,3.43,0.21,-1.8725,-0.11895,-0.000976,-1.02809,-0.16604,-0.23786,0.34342
-0.427936,0,0,10.4279,10.4279,9.57206,9.57206,1.67887,-0.906201,69.2306,-0.0624989,0.0161593,-0.0161069,0,0,0,3.045,0.3675,-1.6975,-0.11895,-0.000976,-1.02809,-0.16604,-0.23786,0.34342
12.9033,0,0,1,1,22.9033,22.9033,1.44557,-0.950432,69.3469,-0.00948814,0.141421,0.0578837,0,0,0,3.78,-0.1225,-1.6625,-0.06649,0.128222,-0.954772,-0.16604,-0.23786,0.34342
12.8671,0,0,1,1,22.8671,22.8671,1.21892,-0.992775,69.4623,-0.00874921,0.137467,0.0579631,0,0,0,4.025,-0.07,-1.5925,-0.06649,0.128222,-0.954772,-0.16604,-0.23786,0.34342
-0.474461,0,0,10.4745,10.4745,9.52554,9.52554,1.1931,-1.13656,69.5035,-0.135258,-0.00098775,0.00210736,0,0,0,4.06,-0.175,-1.5225,-0.196054,-0.009638,-1.01016,-0.16674,-0.23646,0.33516
-0.458443,0,0,10.4584,10.4584,9.54156,9.54156,1.16772,-1.277,69.5445,-0.132807,-0.00143163,0.00206488,0,0,0,3.6225,0.175,-1.3825,-0.196054,-0.009638,-1.01016,-0.16674,-0.23646,0.33516
-8.85295,0,0,18.8529,18.8529,1.14705,1.14705,1.2656,-1.22315,69.4993,0.0398561,-0.0629852,-0.0770068,0,0,0,3.6925,0.245,-0.98,-0.021716,-0.072834,-1.08861,-0.16674,-0.23646,0.33516
-8.83631,0,0,18.8363,18.8363,1.16369,1.16369,1.36067,-1.17061,69.4546,0.0389394,-0.0613262,-0.0770256,0,0,0,3.6925,0.245,-0.98,-0.021716,-0.072834,-1.08861,-0.16674,-0.23646,0.33516
-2.53242,0,0,12.5324,12.5324,7.46758,7.46758,1.36117,-1.16342,69.4556,-0.0343205,-0.00623838,-0.121899,1,0,0,3.8325,4.3225,-0.6825,-0.09516,-0.017812,-1.13314,-0.16674,-0.23646,0.33516
-2.53353,0,0,12.5335,12.5335,7.46647,7.46647,1.36166,-1.15623,69.4566,-0.034446,-0.00622969,-0.121897,1,0,0,3.8325,4.3225,-0.6825,-0.09516,-0.017812,-1.13314,-0.16674,-0.23646,0.33516
-2.56679,0,0,12.5668,12.5668,7.43321,7.43321,1.36263,-1.15621,69.4576,0.00795217,-0.0634903,-0.145995,1,0,0,4.095,0.1225,-0.63,-0.052582,-0.07503,-1.15705,-0.16674,-0.23646,0.33516
-2.56873,0,0,12.5687,12.5687,7.43127,7.43127,1.36359,-1.15619,69.4585,0.00795179,-0.0634735,-0.145996,1,0,0,4.095,0.1225,-0.63,-0.052582,-0.07503,-1.15705,-0.16674,-0.23646,0.33516
-6.79542,0,0,16.7954,16.7954,3.20458,3.20458,1.42626,-1.20993,69.4417,-0.0579276,-0.0456493,0.0258402,0,0,0,4.235,0.0525,-0.5425,-0.119682,-0.058316,-0.986492,-0.16996,-0.2366,0.33474
-2.65321,0,0,12.6532,12.6532,7.34679,7.34679,1.42678,-1.21001,69.443,0.0520183,-0.0682337,-0.0995676,1,0,0,3.85,0.07,-0.42,-0.009272,-0.080886,-1.11093,-0.16996,-0.2366,0.33474
-2.70405,0,0,12.704,12.704,7.29595,7.29595,1.42803,-1.21053,69.444,0.0520274,-0.068212,-0.0995683,1,0,0,4.2525,-0.1925,-0.63,-0.009272,-0.080886,-1.11093,-0.16996,-0.2366,0.33474
-6.15069,0,0,16.1507,16.1507,3.84931,3.84931,1.47958,-1.12903,69.4101,0.0702859,-0.0209039,0.0240012,0,0,0,4.305,0.1925,-0.595,0.010492,-0.034526,-0.988322,-0.16996,-0.2366,0.33474
-6.11957,0,0,16.1196,16.1196,3.88043,3.88043,1.52931,-1.05003,69.3764,0.0689074,-0.0200356,0.0240046,0,0,0,4.2175,-0.2975,-0.665,0.010492,-0.034526,-0.988322,-0.16996,-0.2366,0.33474
-6.35368,0,0,16.3537,16.3537,3.64632,3.64632,1.58116,-0.917451,69.3322,0.11859,-0.014245,0.0334868,0,0,0,3.99,-0.4725,-0.735,0.062708,-0.029646,-0.978928,-0.16996,-0.2366,0.33474
-6.34646,0,0,16.3465,16.3465,3.65354,3.65354,1.63153,-0.786513,69.2883,0.116305,-0.0133654,0.0334961,0,0,0,4.1825,0.07,-0.9275,0.062708,-0.029646,-0.978928,-0.16996,-0.2366,0.33474
5.18785,0,0,4.81215,4.81215,15.1879,15.1879,1.51211,-0.686099,69.3234,0.11601,0.0949545,-0.0258083,0,0,0,3.9375,0,-1.19,0.064172,0.080642,-1.03785,-0.16996,-0.2366,0.33474
5.34335,0,0,4.65665,4.65665,15.3434,15.3434,1.39355,-0.587314,69.3663,0.114286,0.0928866,-0.0257367,0,0,0,3.57,0.14,-1.3125,0.064172,0.080642,-1.03785,-0.16688,-0.2443,0.3374
-4.65802,0,0,14.658,14.658,5.34198,5.34198,1.42419,-0.532905,69.3511,0.0456689,-0.00928728,0.0887244,0,0,0,3.8325,-0.4025,-1.4175,-0.003782,-0.02196,-0.924272,-0.16688,-0.2443,0.3374
-4.5019,0,0,14.5019,14.5019,5.4981,5.4981,1.45174,-0.480094,69.3355,0.0447472,-0.00880648,0.0887205,0,0,0,2.66,-0.7,-1.75,-0.003782,-0.02196,-0.924272,-0.16688,-0.2443,0.3374
3.09457,0,0,6.90543,6.90543,13.0946,13.0946,1.3676,-0.348406,69.3557,0.138787,0.0719173,0.00910264,0,0,0,2.905,-0.35,-1.75,0.092964,0.060146,-1.00333,-0.16688,-0.2443,0.3374
3.12257,0,0,6.87743,6.87743,13.1226,13.1226,1.28527,-0.217888,69.3753,0.136509,0.070481,0.00914716,0,0,0,2.94,0.1925,-1.9075,0.092964,0.060146,-1.00333,-0.16688,-0.2443,0.3374
-2.29954,0,0,12.2995,12.2995,7.70046,7.70046,1.28429,-0.218411,69.374,-0.175821,0.147037,-0.0878589,1,0,0,2.9925,-0.2275,-1.96,-0.220698,0.13664,-1.09959,-0.16688,-0.2443,0.3374
-2.3407,0,0,12.3407,12.3407,7.6593,7.6593,1.28394,-0.218966,69.3727,-0.175812,0.147031,-0.0878588,1,0,0,3.3425,-0.245,-1.925,-0.220698,0.13664,-1.09959,-0.16688,-0.2443,0.3374
5.4905,0,0,4.5095,4.5095,15.4905,15.4905,1.16921,-0.37394,69.4547,-0.129251,0.0546553,0.0404054,0,0,0,3.535,-0.28,-2.0475,-0.176656,0.04636,-0.97234,-0.16688,-0.2443,0.3374
5.53992,0,0,4.46008,4.46008,15.5399,15.5399,1.05678,-0.524876,69.5322,-0.126616,0.052693,0.0404229,0,0,0,2.765,0.1225,-1.855,-0.176656,0.04636,-0.97234,-0.16926,-0.24178,0.34328
2.02643,0,0,7.97357,7.97357,12.0264,12.0264,0.998614,-0.616114,69.5767,-0.0769158,0.0250541,0.0449743,0,0,0,2.5375,0.1575,-1.89,-0.128344,0.019764,-0.967826,-0.16926,-0.24178,0.34328
2.00239,0,0,7.99761,7.99761,12.0024,12.0024,0.942329,-0.705448,69.6206,-0.0753567,0.0240717,0.044973,0,0,0,2.5375,0.1575,-1.89,-0.128344,0.019764,-0.967826,-0.16926,-0.24178,0.34328
2.20218,0,0,7.79782,7.79782,12.2022,12.2022,0.884603,-0.860753,69.6766,-0.129866,0.0165911,0.0905659,0,0,0,2.2225,-0.035,-1.82,-0.185806,0.013298,-0.922564,-0.16926,-0.24178,0.34328
-1.58391,0,0,11.5839,11.5839,8.41609,8.41609,0.883691,-0.860641,69.676,-0.122336,-0.195925,-0.10775,1,0,0,3.0275,0.1575,-1.505,-0.178242,-0.198982,-1.11935,-0.16926,-0.24178,0.34328
-1.61582,0,0,11.6158,11.6158,8.38418,8.38418,0.883267,-0.860391,69.6762,-0.12234,-0.195933,-0.10775,1,0,0,3.3075,0.245,-1.0675,-0.178242,-0.198982,-1.11935,-0.16926,-0.24178,0.34328
-13.9558,0,0,23.9558,23.9558,1,1,1.06309,-0.694432,69.5756,0.148106,-0.107916,-0.0776412,0,0,0,3.3775,0.1925,-0.9975,0.096258,-0.114192,-1.08946,-0.16926,-0.24178,0.34328
3.69873,0,0,6.30127,6.30127,13.6987,13.6987,0.980319,-0.794194,69.6335,-0.0785459,0.0396337,0.074941,0,0,0,3.2725,0.14,-1.1375,-0.133102,0.034648,-0.938058,-0.1687,-0.2387,0.34006
-2.52007,0,0,12.5201,12.5201,7.47993,7.47993,0.990555,-0.832266,69.6405,-0.0377912,-0.0119696,0.00558555,0,0,0,3.1325,-0.035,-0.8575,-0.092842,-0.01708,-1.00687,-0.1687,-0.2387,0.34006
-2.51797,0,0,12.518,12.518,7.48203,7.48203,1.00049,-0.868877,69.6479,-0.0371523,-0.0117964,0.00557305,0,0,0,3.045,0.4375,-0.63,-0.092842,-0.01708,-1.00687,-0.1687,-0.2387,0.34006
-6.46457,0,0,16.4646,16.4646,3.53543,3.53543,1.0678,-0.809845,69.6139,0.0507451,-0.0428631,-0.092423,0,0,0,2.87,0.3675,-0.42,-0.003538,-0.049288,-1.1041,-0.1687,-0.2387,0.34006
-6.50965,0,0,16.5097,16.5097,3.49035,3.49035,1.134,-0.753722,69.5802,0.0497656,-0.0417077,-0.0924318,0,0,0,3.36,-0.5775,-0.49,-0.003538,-0.049288,-1.1041,-0.1687,-0.2387,0.34006
-2.08998,0,0,12.09,12.09,7.91002,7.91002,1.13391,-0.754243,69.5815,-0.0349008,-0.165302,-0.104604,1,0,0,3.5,-0.1925,-0.385,-0.088572,-0.172752,-1.11618,-0.1687,-0.2387,0.34006
-2.12011,0,0,12.1201,12.1201,7.87989,7.87989,1.13425,-0.754579,69.5826,-0.0348949,-0.165296,-0.104604,1,0,0,3.745,-0.0875,-0.525,-0.088572,-0.172752,-1.11618,-0.1687,-0.2387,0.34006
-2.07596,0,0,12.076,12.076,7.92404,7.92404,1.13394,-0.75432,69.5838,0.127041,-0.137334,-0.180955,1,0,0,3.3775,0.2625,-0.49,0.074054,-0.144814,-1.19194,-0.1687,-0.2387,0.34006
-2.14604,0,0,12.146,12.146,7.85396,7.85396,1.13466,-0.753793,69.5851,0.127032,-0.137322,-0.180955,1,0,0,3.955,0.42,-0.455,0.074054,-0.144814,-1.19194,-0.17038,-0.238,0.34286
-2.92029,0,0,12.9203,12.9203,7.07971,7.07971,1.14666,-0.75072,69.5821,0.00184787,-0.00594795,0.0356768,0,0,0,4.0775,0.1575,-0.42,-0.051606,-0.013786,-0.976976,-0.17038,-0.238,0.34286
-2.97137,0,0,12.9714,12.9714,7.02863,7.02863,1.1591,-0.748032,69.5785,0.00180096,-0.00573101,0.035673,0,0,0,4.4975,-0.0175,-0.7875,-0.051606,-0.013786,-0.976976,-0.17038,-0.238,0.34286
-2.50003,0,0,12.5,12.5,7.49997,7.49997,1.16432,-0.596723,69.5535,0.144822,0.0176869,0.0155386,0,0,0,4.445,0.28,-0.91,0.094672,0.009516,-0.996984,-0.17038,-0.238,0.34286
-2.37293,0,0,12.3729,12.3729,7.62707,7.62707,1.16754,-0.448507,69.5286,0.142235,0.0177436,0.0155611,0,0,0,3.675,0.07,-1.015,0.094672,0.009516,-0.996984,-0.17038,-0.238,0.34286
-7.3168,0,0,17.3168,17.3168,2.6832,2.6832,1.24288,-0.345424,69.4784,0.0947572,-0.039318,-0.0562561,0,0,0,4.0075,0.2625,-1.1375,0.0488,-0.0488,-1.06823,-0.17038,-0.238,0.34286
-7.3301,0,0,17.3301,17.3301,2.6699,2.6699,1.31644,-0.244735,69.4285,0.0929999,-0.0380344,-0.0562757,0,0,0,4.305,0.0875,-1.2775,0.0488,-0.0488,-1.06823,-0.17038,-0.238,0.34286
1.52987,0,0,8.47013,8.47013,11.5299,11.5299,1.25865,-0.161437,69.4386,0.0844999,0.0490108,0.0594467,0,0,0,4.235,-0.4725,-1.5575,0.041724,0.039162,-0.95343,-0.17038,-0.238,0.34286
1.52732,0,0,8.47268,8.47268,11.5273,11.5273,1.20241,-0.0789487,69.4484,0.0830602,0.0480296,0.0594708,0,0,0,4.4275,-0.175,-1.6275,0.041724,0.039162,-0.95343,-0.17038,-0.238,0.34286
12.5025,0,0,1,1,22.5025,22.5025,0.987358,0.0530429,69.5304,0.142957,0.147596,0.112042,0,0,0,4.375,-0.245,-1.505,0.104188,0.142374,-0.901336,-0.16128,-0.23814,0.33138
-12.9506,0,0,22.9506,22.9506,1,1,1.14971,-0.0713048,69.4903,-0.151784,-0.132172,-0.0453852,0,0,0,3.64,-0.035,-1.8725,-0.19398,-0.139934,-1.0575,-0.16128,-0.23814,0.33138
-12.99,0,0,22.99,22.99,1,1,1.30837,-0.19414,69.4503,-0.14964,-0.129404,-0.0454496,0,0,0,3.7625,-0.1225,-1.9775,-0.19398,-0.139934,-1.0575,-0.16128,-0.23814,0.33138
-2.42511,0,0,12.4251,12.4251,7.57489,7.57489,1.30854,-0.19377,69.4491,-0.143572,-0.0582008,-0.110612,1,0,0,3.64,0.2975,-1.89,-0.18788,-0.068808,-1.12216,-0.16128,-0.23814,0.33138
-2.47907,0,0,12.4791,12.4791,7.52093,7.52093,1.3095,-0.194414,69.4478,-0.143561,-0.0581841,-0.110613,1,0,0,4.0775,-0.2975,-1.925,-0.18788,-0.068808,-1.12216,-0.16128,-0.23814,0.33138
-12.4259,0,0,22.4259,22.4259,1,1,1.45571,-0.0968845,69.376,0.0792427,-0.0900727,-0.0493187,0,0,0,3.99,0.1925,-1.82,0.037576,-0.103212,-1.06128,-0.16128,-0.23814,0.33138
-12.3823,0,0,22.3823,22.3823,1,1,1.59743,-0.00170448,69.305,0.0775815,-0.0876,-0.0493832,0,0,0,3.815,0.105,-1.8025,0.037576,-0.103212,-1.06128,-0.16128,-0.23814,0.33138
-6.22334,0,0,16.2233,16.2233,3.77666,3.77666,1.64547,0.102112,69.2723,0.103711,-0.0228896,-0.0928093,0,0,0,3.5875,0.0875,-1.785,0.065636,-0.039406,-1.10434,-0.16128,-0.23814,0.33138
-6.2189,0,0,16.2189,16.2189,3.7811,3.7811,1.69218,0.20374,69.2352,0.101938,-0.0220749,-0.0928378,0,0,0,3.605,-0.0525,-1.68,0.065636,-0.039406,-1.10434,-0.16646,-0.2415,0.3416
-5.56122,0,0,15.5612,15.5612,4.43878,4.43878,1.72805,0.0916831,69.2381,-0.121827,-0.0437982,-0.0633438,0,0,0,3.4125,0.2625,-1.7325,-0.16104,-0.061732,-1.07506,-0.16646,-0.2415,0.3416
-5.55495,0,0,15.5549,15.5549,4.44505,4.44505,1.76288,-0.0189783,69.2411,-0.119896,-0.0431905,-0.0633611,0,0,0,3.1325,-0.035,-1.5575,-0.16104,-0.061732,-1.07506,-0.16646,-0.2415,0.3416
-12.1881,0,0,22.1881,22.1881,1,1,1.89368,0.00876323,69.1794,0.00875939,-0.095011,-0.0866711,0,0,0,3.0975,0.805,-1.3475,-0.031354,-0.115778,-1.09812,-0.16646,-0.2415,0.3416
-12.1263,0,0,22.1263,22.1263,1,1,2.02012,0.0346386,69.1188,0.00830778,-0.0928054,-0.0867467,0,0,0,2.66,0.2625,-1.12,-0.031354,-0.115778,-1.09812,-0.16646,-0.2415,0.3416
-3.58247,0,0,13.5825,13.5825,6.41753,6.41753,2.01845,0.034859,69.1189,0.0259194,-0.209832,-0.0852703,1,0,0,2.6075,0.2275,-1.1375,-0.013664,-0.232654,-1.09666,-0.16646,-0.2415,0.3416
-3.61612,0,0,13.6161,13.6161,6.38388,6.38388,2.01732,0.0351499,69.1195,0.0259143,-0.209852,-0.0852696,1,0,0,2.905,0.28,-0.8225,-0.013664,-0.232654,-1.09666,-0.16646,-0.2415,0.3416
-14.5136,0,0,24.5136,24.5136,1,1,2.17537,-0.104515,69.0722,-0.171249,-0.138704,-0.0620117,0,0,0,3.115,0.245,-0.98,-0.21411,-0.164334,-1.07348,-0.16646,-0.2415,0.3416
-14.5016,0,0,24.5016,24.5016,1,1,2.32908,-0.242951,69.0164,-0.168833,-0.136024,-0.0621245,0,0,0,3.64,0.175,-0.875,-0.21411,-0.164334,-1.07348,-0.17164,-0.23674,0.3367
-9.25603,0,0,19.256,19.256,1,1,2.40214,-0.0351259,68.9398,0.195763,-0.0203167,-0.00610381,0,0,0,3.3425,0.14,-0.7175,0.155672,-0.05002,-1.01785,-0.17164,-0.23674,0.3367
-9.21665,0,0,19.2166,19.2166,1,1,2.47269,0.168701,68.8642,0.192206,-0.0190866,-0.00616033,0,0,0,3.3775,0.0875,-0.56,0.155672,-0.05002,-1.01785,-0.17164,-0.23674,0.3367
-11.1199,0,0,21.1199,21.1199,1,1,2.56918,0.179168,68.8073,-0.00271873,-0.0600264,0.0361823,0,0,0,3.2725,-0.0875,-0.6125,-0.039894,-0.092598,-0.975756,-0.17164,-0.23674,0.3367
-11.0677,0,0,21.0677,21.0677,1,1,2.66237,0.18998,68.7512,-0.00290742,-0.0584017,0.0361074,0,0,0,2.87,0.42,-0.5075,-0.039894,-0.092598,-0.975756,-0.17164,-0.23674,0.3367
12.4225,0,0,1,1,22.4225,22.4225,2.41001,0.13025,68.8565,-0.0232464,0.155927,0.0446658,0,0,0,2.835,0.28,-0.6125,-0.061366,0.125904,-0.96746,-0.17164,-0.23674,0.3367
12.3617,0,0,1,1,22.3617,22.3617,2.16517,0.0727026,68.9612,-0.022242,0.151657,0.0448381,0,0,0,3.325,0.315,-0.5425,-0.061366,0.125904,-0.96746,-0.17164,-0.23674,0.3367
-3.92623,0,0,13.9262,13.9262,6.07377,6.07377,2.16466,0.07258,68.9625,-0.0224829,0.217597,0.126845,1,0,0,3.255,0.0525,-0.455,-0.06161,0.191784,-0.886086,-0.17164,-0.23674,0.3367
-3.91064,0,0,13.9106,13.9106,6.08936,6.08936,2.16392,0.0725606,68.9633,-0.0224825,0.217584,0.126846,1,0,0,3.1325,0.105,-0.665,-0.06161,0.191784,-0.886086,-0.16926,-0.23464,0.34328
13.1674,0,0,1,1,23.1674,23.1674,1.91377,0.00207985,69.0778,-0.0314572,0.148738,0.0906089,0,0,0,3.7275,-0.245,-0.7875,-0.071858,0.127368,-0.922198,-0.16926,-0.23464,0.34328
13.1377,0,0,1,1,23.1377,23.1377,1.67063,-0.0647075,69.1912,-0.0302916,0.144496,0.090741,0,0,0,3.955,0.56,-0.9625,-0.071858,0.127368,-0.922198,-0.16926,-0.23464,0.34328
-3.08409,0,0,13.0841,13.0841,6.91591,6.91591,1.6708,-0.0653772,69.1911,0.094,0.0508283,0.122462,1,0,0,3.64,-0.2975,-1.2425,0.052948,0.033794,-0.890722,-0.16926,-0.23464,0.34328
-3.10175,0,0,13.1017,13.1017,6.89825,6.89825,1.67122,-0.0652987,69.1909,0.0939986,0.0508356,0.122461,1,0,0,3.78,0.14,-1.2775,0.052948,0.033794,-0.890722,-0.16926,-0.23464,0.34328
11.6357,0,0,1,1,21.6357,21.6357,1.45638,0.074722,69.2587,0.162381,0.162497,0.0383438,0,0,0,3.745,-0.07,-1.12,0.124074,0.149084,-0.974292,-0.16926,-0.23464,0.34328
11.7605,0,0,1,1,21.7605,21.7605,1.24536,0.213209,69.3253,0.159964,0.158815,0.0384246,0,0,0,3.2025,0.0525,-1.365,0.124074,0.149084,-0.974292,-0.16926,-0.23464,0.34328
0.765756,0,0,9.23424,9.23424,10.7658,10.7658,1.20047,0.362251,69.3172,0.164652,0.0531246,-0.0717336,0,0,0,3.64,-0.0525,-1.5575,0.131394,0.044286,-1.0836,-0.16926,-0.23464,0.34328
0.796499,0,0,9.2035,9.2035,10.7965,10.7965,1.15631,0.508905,69.3114,0.162092,0.0523536,-0.0717372,0,0,0,3.8675,0.105,-1.505,0.131394,0.044286,-1.0836,-0.16814,-0.23604,0.34328
-2.21661,0,0,12.2166,12.2166,7.78339,7.78339,1.15732,0.50846,69.3104,-0.130559,-0.0930817,-0.208333,1,0,0,4.1125,-0.175,-1.7325,-0.162504,-0.101016,-1.21915,-0.16814,-0.23604,0.34328
-2.25932,0,0,12.2593,12.2593,7.74068,7.74068,1.15892,0.50834,69.3097,-0.130557,-0.0930538,-0.208334,1,0,0,4.445,0.0175,-1.6275,-0.162504,-0.101016,-1.21915,-0.16814,-0.23604,0.34328
-14.479,0,0,24.479,24.479,1,1,1.33895,0.327017,69.2598,-0.211946,-0.15354,-0.0223582,0,0,0,4.2175,0.1225,-1.8375,-0.247416,-0.164578,-1.03456,-0.16814,-0.23604,0.34328
-14.5291,0,0,24.5291,24.5291,1,1,1.51498,0.14806,69.2104,-0.208823,-0.150468,-0.0224217,0,0,0,4.2525,0,-1.7675,-0.247416,-0.164578,-1.03456,-0.16814,-0.23604,0.34328
-20.9937,0,0,30.9937,30.9937,1,1,1.7808,0.251452,69.0729,0.0695185,-0.176119,-0.0400201,0,0,0,4.1475,-0.035,-1.75,0.033916,-0.194834,-1.05188,-0.16814,-0.23604,0.34328
-20.8773,0,0,30.8773,30.8773,1,1,2.03792,0.351915,68.9373,0.0677651,-0.171634,-0.0401789,0,0,0,3.3425,-0.2625,-1.68,0.033916,-0.194834,-1.05188,-0.16814,-0.23604,0.34328
-12.649,0,0,22.649,22.649,1,1,2.1681,0.342942,68.8745,-0.0265941,-0.0926677,-0.0199748,0,0,0,3.4125,-0.105,-1.54,-0.061,-0.118218,-1.03175,-0.16814,-0.23604,0.34328
-12.7016,0,0,22.7016,22.7016,1,1,2.29562,0.334236,68.8164,-0.0264422,-0.0904438,-0.0200606,0,0,0,3.7275,0.175,-1.3825,-0.061,-0.118218,-1.03175,-0.16576,-0.2373,0.34398
-4.20165,0,0,14.2017,14.2017,5.79835,5.79835,2.29563,0.334857,68.8162,0.0254214,0.0492695,-0.178541,1,0,0,3.5525,0.455,-1.33,-0.008906,0.02135,-1.18901,-0.16576,-0.2373,0.34398
-4.21264,0,0,14.2126,14.2126,5.78736,5.78736,2.2958,0.3342,68.8158,0.0254328,0.0492725,-0.178541,1,0,0,3.64,-0.2975,-1.4,-0.008906,0.02135,-1.18901,-0.16576,-0.2373,0.34398
-4.24334,0,0,14.2433,14.2433,5.75666,5.75666,2.29641,0.333559,68.8157,0.0222854,-0.147952,-0.0991169,1,0,0,3.885,-0.28,-1.2075,-0.012078,-0.17568,-1.1102,-0.16576,-0.2373,0.34398
-4.18307,0,0,14.1831,14.1831,5.81693,5.81693,2.29612,0.334178,68.8163,0.0222746,-0.147957,-0.0991168,1,0,0,3.3775,0.4725,-0.8575,-0.012078,-0.17568,-1.1102,-0.16576,-0.2373,0.34398
-15.6813,0,0,25.6813,25.6813,1,1,2.46377,0.212164,68.7593,-0.142396,-0.130866,0.0165893,0,0,0,3.36,-0.035,-0.945,-0.179584,-0.161528,-0.995276,-0.16576,-0.2373,0.34398
-15.6442,0,0,25.6442,25.6442,1,1,2.62646,0.0920963,68.7031,-0.1403,-0.128029,0.0164688,0,0,0,2.8,0.175,-0.805,-0.179584,-0.161528,-0.995276,-0.16576,-0.2373,0.34398
-0.936094,0,0,10.9361,10.9361,9.06391,9.06391,2.57005,-0.0492239,68.746,-0.12933,0.0176616,0.0120882,0,0,0,2.695,0.1225,-0.7175,-0.171044,-0.015006,-0.999668,-0.16576,-0.2373,0.34398
-0.964587,0,0,10.9646,10.9646,9.03541,9.03541,2.51553,-0.18794,68.7884,-0.126909,0.0167108,0.0121254,0,0,0,2.625,0,-0.7525,-0.171044,-0.015006,-0.999668,-0.16576,-0.2373,0.34398
-4.46993,0,0,14.4699,14.4699,5.53007,5.53007,2.51364,-0.187434,68.7895,-0.0961816,0.0765199,0.109256,1,0,0,2.485,0.42,-0.5775,-0.140178,0.044774,-0.903288,-0.1631,-0.2394,0.3388
-4.53319,0,0,14.5332,14.5332,5.46681,5.46681,2.51272,-0.187102,68.7904,-0.0961874,0.0765038,0.109257,1,0,0,3.0275,0.315,-0.6475,-0.140178,0.044774,-0.903288,-0.1631,-0.2394,0.3388
6.43127,0,0,3.56873,3.56873,16.4313,16.4313,2.35167,-0.254412,68.8736,-0.0409514,0.0955561,0.0593317,0,0,0,3.3775,0.245,-0.7525,-0.085888,0.066612,-0.952942,-0.1631,-0.2394,0.3388
6.42015,0,0,3.57985,3.57985,16.4201,16.4201,2.19502,-0.319836,68.956,-0.0398096,0.0928239,0.0594344,0,0,0,3.3775,0.245,-0.7525,-0.085888,0.066612,-0.952942,-0.1631,-0.2394,0.3388
-4.0248,0,0,14.0248,14.0248,5.9752,5.9752,2.19503,-0.319393,68.9565,-0.025482,0.0942896,0.119925,1,0,0,3.5525,0.3675,-0.8925,-0.071492,0.068076,-0.892918,-0.1631,-0.2394,0.3388
-4.02515,0,0,14.0252,14.0252,5.97485,5.97485,2.19504,-0.318951,68.957,-0.0254897,0.0942899,0.119925,1,0,0,3.5525,0.3675,-0.8925,-0.071492,0.068076,-0.892918,-0.1631,-0.2394,0.3388
11.5685,0,0,1,1,21.5685,21.5685,1.9673,-0.340257,69.0635,0.0097485,0.147595,0.0210938,0,0,0,2.8175,0.2975,-1.2075,-0.036478,0.125294,-0.991128,-0.1631,-0.2394,0.3388
11.5784,0,0,1,1,21.5784,21.5784,1.74539,-0.360254,69.1692,0.0100975,0.143724,0.0212171,0,0,0,2.8175,0.2975,-1.2075,-0.036478,0.125294,-0.991128,-0.1631,-0.2394,0.3388
-3.15074,0,0,13.1507,13.1507,6.84926,6.84926,1.74444,-0.360138,69.1688,0.112994,0.0968108,0.118224,1,0,0,3.01,0.1575,-1.4175,0.066856,0.078446,-0.89487,-0.16394,-0.238,0.34048
8.38245,0,0,1.61755,1.61755,18.3825,18.3825,1.57506,-0.278968,69.2335,0.0955411,0.117304,0.0783593,0,0,0,2.87,0.0175,-1.5225,0.050752,0.10187,-0.93452,-0.16394,-0.238,0.34048
8.36077,0,0,1.63923,1.63923,18.3608,18.3608,1.41045,-0.19804,69.2975,0.0941287,0.114433,0.07844,0,0,0,3.3075,0.3675,-1.5925,0.050752,0.10187,-0.93452,-0.16394,-0.238,0.34048
-2.66606,0,0,12.6661,12.6661,7.33394,7.33394,1.41122,-0.197918,69.2968,0.0157682,0.0495967,0.209134,1,0,0,3.9725,0.1575,-1.6275,-0.027938,0.037088,-0.804834,-0.16394,-0.238,0.34048
-2.57791,0,0,12.5779,12.5779,7.42209,7.42209,1.41068,-0.197913,69.2959,0.0157682,0.0495873,0.209134,1,0,0,3.2375,0.0875,-1.68,-0.027938,0.037088,-0.804834,-0.16394,-0.238,0.34048
-2.667,0,0,12.667,12.667,7.333,7.333,1.41145,-0.198286,69.2946,0.116,0.183818,0.143356,1,0,0,3.9725,-0.14,-1.9075,0.072712,0.171166,-0.870104,-0.16394,-0.238,0.34048
-2.63642,0,0,12.6364,12.6364,7.36358,7.36358,1.41175,-0.197477,69.2939,0.115986,0.183823,0.143356,1,0,0,3.71,0.56,-1.6275,0.072712,0.171166,-0.870104,-0.16394,-0.238,0.34048
6.75865,0,0,3.24135,3.24135,16.7586,16.7586,1.27482,-0.0949115,69.3428,0.118205,0.105471,0.0139521,0,0,0,3.5875,0.315,-1.715,0.076738,0.095282,-0.99857,-0.16394,-0.238,0.34048
6.71695,0,0,3.28305,3.28305,16.717,16.717,1.14209,0.00564437,69.3889,0.11645,0.103155,0.0140023,0,0,0,4.1475,-0.0875,-1.785,0.076738,0.095282,-0.99857,-0.16898,-0.24556,0.34706
-2.21604,0,0,12.216,12.216,7.78396,7.78396,1.14332,0.00510611,69.3881,0.0806213,0.106352,0.148876,1,0,0,4.235,-0.2275,-1.6275,0.040748,0.098454,-0.864736,-0.16898,-0.24556,0.34706
-2.23553,0,0,12.2355,12.2355,7.76447,7.76447,1.14481,0.00444002,69.3877,0.0806329,0.106378,0.148876,1,0,0,4.375,-0.2975,-1.3825,0.040748,0.098454,-0.864736,-0.16898,-0.24556,0.34706
-2.25761,0,0,12.2576,12.2576,7.74239,7.74239,1.14657,0.00362941,69.3871,-0.021158,0.176021,0.16535,1,0,0,4.5325,-0.385,-1.5225,-0.061488,0.167994,-0.848388,-0.16898,-0.24556,0.34706
-2.246,0,0,12.246,12.246,7.754,7.754,1.14812,0.00418964,69.3867,-0.0211678,0.176048,0.16535,1,0,0,4.41,0.42,-1.435,-0.061488,0.167994,-0.848388,-0.16898,-0.24556,0.34706
-2.2169,0,0,12.2169,12.2169,7.7831,7.7831,1.14919,0.00436162,69.3863,0.200662,0.174357,0.253749,1,0,0,4.1475,0.1925,-1.435,0.161284,0.166286,-0.76067,-0.16898,-0.24556,0.34706
-2.19977,0,0,12.1998,12.1998,7.80023,7.80023,1.14999,0.0043508,69.386,0.200662,0.174371,0.253749,1,0,0,3.99,0.0875,-1.33,0.161284,0.166286,-0.76067,-0.16898,-0.24556,0.34706
8.29526,0,0,1.70474,1.70474,18.2953,18.2953,0.997477,-0.0531964,69.4688,-0.0362023,0.0972122,-0.0134915,0,0,0,4.0425,-0.14,-1.4175,-0.077592,0.091866,-1.0259,-0.16898,-0.24556,0.34706
8.31112,0,0,1.68888,1.68888,18.3111,18.3111,0.84874,-0.108196,69.5567,-0.0352424,0.0946165,-0.013451,0,0,0,3.7975,0.3675,-1.26,-0.077592,0.091866,-1.0259,-0.16282,-0.24178,0.3409
-9.78615,0,0,19.7861,19.7861,1,1,0.968233,-0.117646,69.5194,-0.0276668,-0.0901521,-0.0914337,0,0,0,4.0425,-0.035,-1.1375,-0.07015,-0.094794,-1.10325,-0.16282,-0.24178,0.3409
-9.7561,0,0,19.7561,19.7561,1,1,1.08414,-0.126598,69.4835,-0.0275106,-0.0881294,-0.0914703,0,0,0,3.78,0.4025,-0.56,-0.07015,-0.094794,-1.10325,-0.16282,-0.24178,0.3409
-6.96408,0,0,16.9641,16.9641,3.03592,3.03592,1.15623,-0.264478,69.4881,-0.141973,-0.0636677,0.0351339,0,0,0,3.6925,-0.07,-0.3325,-0.187514,-0.071614,-0.977586,-0.16282,-0.24178,0.3409
-6.99658,0,0,16.9966,16.9966,3.00342,3.00342,1.22688,-0.400173,69.4925,-0.139605,-0.062435,0.0350945,0,0,0,3.6925,-0.07,-0.3325,-0.187514,-0.071614,-0.977586,-0.16282,-0.24178,0.3409
-2.25881,0,0,12.2588,12.2588,7.74119,7.74119,1.22648,-0.399833,69.494,0.0584107,-0.0302005,-0.170967,1,0,0,3.325,0.315,-0.2975,0.011346,-0.039406,-1.18206,-0.16282,-0.24178,0.3409
-2.25827,0,0,12.2583,12.2583,7.74173,7.74173,1.22608,-0.399493,69.4956,0.0584047,-0.0302075,-0.170967,1,0,0,3.325,0.315,-0.2975,0.011346,-0.039406,-1.18206,-0.16282,-0.24178,0.3409
-2.26642,0,0,12.2664,12.2664,7.73358,7.73358,1.22581,-0.399715,69.4968,0.173942,-0.130967,-0.0778947,1,0,0,3.395,-0.0175,-0.455,0.127368,-0.140056,-1.0897,-0.16282,-0.24178,0.3409
-2.26611,0,0,12.2661,12.2661,7.73389,7.73389,1.22554,-0.399937,69.498,0.173945,-0.130972,-0.0778947,1,0,0,3.395,-0.0175,-0.455,0.127368,-0.140056,-1.0897,-0.16534,-0.23688,0.33572
-2.20831,0,0,12.2083,12.2083,7.79169,7.79169,1.22442,-0.399791,69.4988,0.0796699,-0.0909335,-0.221621,1,0,0,2.9225,0.1925,-0.7175,0.032696,-0.10004,-1.23232,-0.16534,-0.23688,0.33572
-2.20649,0,0,12.2065,12.2065,7.79351,7.79351,1.22331,-0.399644,69.4996,0.0796674,-0.0909529,-0.221621,1,0,0,2.9225,0.1925,-0.7175,0.032696,-0.10004,-1.23232,-0.16534,-0.23688,0.33572
-2.24336,0,0,12.2434,12.2434,7.75664,7.75664,1.22276,-0.398831,69.4999,-0.144852,-0.0681248,-0.269078,1,0,0,3.2375,0.5775,-0.9975,-0.19276,-0.077226,-1.27941,-0.16534,-0.23688,0.33572
-2.24256,0,0,12.2426,12.2426,7.75744,7.75744,1.22221,-0.398017,69.5003,-0.144867,-0.0681343,-0.269078,1,0,0,3.2375,0.5775,-0.9975,-0.19276,-0.077226,-1.27941,-0.16534,-0.23688,0.33572
-2.22086,0,0,12.2209,12.2209,7.77914,7.77914,1.22136,-0.405548,69.4996,-0.0768246,-0.211892,-0.140352,1,0,0,3.0625,-4.3225,-1.47,-0.124562,-0.22082,-1.15168,-0.16534,-0.23688,0.33572
-2.21951,0,0,12.2195,12.2195,7.78049,7.78049,1.22051,-0.41308,69.4989,-0.0766932,-0.211907,-0.140352,1,0,0,3.0625,-4.3225,-1.47,-0.124562,-0.22082,-1.15168,-0.16534,-0.23688,0.33572
-17.9641,0,0,27.9641,27.9641,1,1,1.44963,-0.306121,69.3826,0.075241,-0.143426,0.00194065,0,0,0,2.59,-0.0525,-1.7675,0.02989,-0.156404,-1.0104,-0.16534,-0.23688,0.33572
-17.8751,0,0,27.8751,27.8751,1,1,1.67143,-0.20206,69.2722,0.0734248,-0.139556,0.00184328,0,0,0,2.59,-0.0525,-1.7675,0.02989,-0.156404,-1.0104,-0.16156,-0.23772,0.34398
-1.54983,0,0,11.5498,11.5498,8.45017,8.45017,1.64896,-0.116005,69.2716,0.0821276,0.0258997,0.0742755,0,0,0,2.73,-0.315,-2.0475,0.040138,0.009272,-0.938546,-0.16156,-0.23772,0.34398
-1.52948,0,0,11.5295,11.5295,8.47052,8.47052,1.62677,-0.0314095,69.271,0.0806511,0.0255127,0.0742884,0,0,0,2.73,-0.315,-2.0475,0.040138,0.009272,-0.938546,-0.16156,-0.23772,0.34398
-2.2769,0,0,12.2769,12.2769,7.7231,7.7231,1.61608,0.159214,69.2476,0.198688,0.0328979,-0.0336588,0,0,0,3.57,0.455,-2.1525,0.162016,0.016836,-1.04566,-0.16156,-0.23772,0.34398
-13.8325,0,0,23.8325,23.8325,1,1,1.77444,0.0717674,69.1961,-0.110303,-0.122127,-0.0064429,0,0,0,3.465,0.1575,-2.2575,-0.149816,-0.140788,-1.01858,-0.16156,-0.23772,0.34398
-13.8442,0,0,23.8442,23.8442,1,1,1.92881,-0.0148469,69.1453,-0.108791,-0.119434,-0.0065292,0,0,0,3.3775,0.0525,-2.1175,-0.149816,-0.140788,-1.01858,-0.16156,-0.23772,0.34398
-3.54168,0,0,13.5417,13.5417,6.45832,6.45832,1.92864,-0.0153831,69.1439,-0.251649,0.0366408,-0.0890275,1,0,0,3.4475,-0.245,-1.995,-0.293288,0.015128,-1.10044,-0.16156,-0.23772,0.34398
-3.53098,0,0,13.531,13.531,6.46902,6.46902,1.92831,-0.0158555,69.1424,-0.251641,0.0366351,-0.0890274,1,0,0,3.36,-0.21,-2.065,-0.293288,0.015128,-1.10044,-0.16156,-0.23772,0.34398
-3.57129,0,0,13.5713,13.5713,6.42871,6.42871,1.92858,-0.0159657,69.1407,-0.334492,-0.143131,-0.127142,1,0,0,3.6925,0,-2.135,-0.376492,-0.164456,-1.13826,-0.16156,-0.23772,0.34398
-3.58486,0,0,13.5849,13.5849,6.41514,6.41514,1.92903,-0.0153936,69.1401,-0.334502,-0.143123,-0.127142,1,0,0,3.7975,0.42,-1.54,-0.376492,-0.164456,-1.13826,-0.168,-0.24332,0.34776
-3.59024,0,0,13.5902,13.5902,6.40976,6.40976,1.92955,-0.0154166,69.1394,0.128845,-0.167295,-0.188862,1,0,0,3.8325,0.07,-1.575,0.088816,-0.188612,-1.1995,-0.168,-0.24332,0.34776
-3.6235,0,0,13.6235,13.6235,6.3765,6.3765,1.93053,-0.0149643,69.1397,0.128837,-0.167278,-0.188863,1,0,0,4.095,0.3675,-1.015,0.088816,-0.188612,-1.1995,-0.168,-0.24332,0.34776
-28.0552,0,0,38.0552,38.0552,1,1,2.28832,0.138626,68.9566,0.111335,-0.244816,-0.0512703,0,0,0,4.095,0.35,-0.9275,0.073932,-0.272304,-1.06274,-0.168,-0.24332,0.34776
-28.086,0,0,38.086,38.086,1,1,2.63716,0.288333,68.7767,0.108722,-0.238734,-0.0515416,0,0,0,4.4625,0.1225,-0.6475,0.073932,-0.272304,-1.06274,-0.168,-0.24332,0.34776
-23.2923,0,0,33.2923,33.2923,1,1,2.9068,0.328342,68.6477,0.00196685,-0.17468,0.0292501,0,0,0,4.8825,0.175,-0.6475,-0.032574,-0.213012,-0.982344,-0.168,-0.24332,0.34776
-23.249,0,0,33.249,33.249,1,1,3.16871,0.366515,68.5206,0.00130063,-0.170116,0.0290038,0,0,0,4.55,-0.0175,-0.4725,-0.032574,-0.213012,-0.982344,-0.168,-0.24332,0.34776
-18.0024,0,0,28.0024,28.0024,1,1,3.34709,0.583446,68.3983,0.196751,-0.0942218,-0.0126381,0,0,0,4.34,-0.2625,-0.4725,0.167506,-0.1403,-1.02346,-0.168,-0.24332,0.34776
-17.9919,0,0,27.9919,27.9919,1,1,3.52063,0.797004,68.2774,0.193024,-0.0912014,-0.0128643,0,0,0,4.1475,0.105,-0.2625,0.167506,-0.1403,-1.02346,-0.16688,-0.23898,0.33656
2.74774,0,0,7.25226,7.25226,12.7477,12.7477,3.38668,0.694103,68.3382,-0.0839897,0.0778105,-0.0336014,0,0,0,3.9375,-0.035,-0.1925,-0.112484,0.030866,-1.0442,-0.16688,-0.23898,0.33656
2.71977,0,0,7.28023,7.28023,12.7198,12.7198,3.25666,0.593088,68.399,-0.0822268,0.0755462,-0.0334502,0,0,0,3.99,-0.3325,0,-0.112484,0.030866,-1.0442,-0.16688,-0.23898,0.33656
-6.04971,0,0,16.0497,16.0497,3.95029,3.95029,3.25813,0.592678,68.4006,0.0669648,-0.0358078,-0.192178,1,0,0,4.3575,-0.0875,-0.1925,0.037332,-0.080398,-1.2017,-0.16688,-0.23898,0.33656
-5.97374,0,0,15.9737,15.9737,4.02626,4.02626,3.25844,0.59206,68.4023,0.0669756,-0.0358023,-0.192178,1,0,0,3.71,-0.21,-0.21,0.037332,-0.080398,-1.2017,-0.16688,-0.23898,0.33656
-5.95752,0,0,15.9575,15.9575,4.04248,4.04248,3.2585,0.591337,68.4036,-0.361613,-0.0267639,-0.193162,1,0,0,3.57,-0.28,-0.35,-0.393084,-0.07137,-1.20268,-0.16688,-0.23898,0.33656
-5.99616,0,0,15.9962,15.9962,4.00384,4.00384,3.25912,0.591487,68.4044,-0.361616,-0.0267531,-0.193162,1,0,0,3.885,0.21,-0.735,-0.393084,-0.07137,-1.20268,-0.16688,-0.23898,0.33656
-5.94399,0,0,15.944,15.944,4.05601,4.05601,3.25895,0.591125,68.4047,-0.315931,-0.0361598,-0.142876,1,0,0,3.4475,-0.105,-0.9975,-0.347212,-0.080764,-1.15278,-0.16688,-0.23898,0.33656
-5.91827,0,0,15.9183,15.9183,4.08173,4.08173,3.2584,0.591263,68.4046,-0.315933,-0.0361693,-0.142876,1,0,0,3.2375,0.175,-1.225,-0.347212,-0.080764,-1.15278,-0.16576,-0.2394,0.33908
-1.00856,0,0,11.0086,11.0086,8.99144,8.99144,3.18616,0.505777,68.4384,-0.0723205,0.0369478,0.0177801,0,0,0,3.15,-0.175,-1.26,-0.104066,-0.006466,-0.993446,-0.16576,-0.2394,0.33908
-0.928261,0,0,10.9283,10.9283,9.07174,9.07174,3.11463,0.422893,68.4715,-0.0708739,0.0357019,0.0178604,0,0,0,2.3275,0.2625,-1.5225,-0.104066,-0.006466,-0.993446,-0.16576,-0.2394,0.33908
-5.56326,0,0,15.5633,15.5633,4.43674,4.43674,3.11267,0.422335,68.4704,-0.179351,0.0817096,0.172286,1,0,0,2.45,-0.2625,-1.7675,-0.213012,0.039528,-0.840214,-0.16576,-0.2394,0.33908
