pid_x,pid_y,pid_z,front_left_speed,front_right_speed,back_left_speed,back_right_speed,orientation_x,orientation_y,orientation_z,acceleration_x,acceleration_y,acceleration_z,accel_rejected,mag_rejected,ahrs_initialized,gyro_x,gyro_y,gyro_z,accel_x,accel_y,accel_z,mag_x,mag_y,mag_z
-0.0138254,0,0,15.0138,15.0138,14.9862,14.9862,0.00987532,0.000257444,0.194081,-0.000932498,-0.00844359,-0.00202825,0,0,1,3.5,0.105,-0.7525,-0.041236,0.003538,-1.01467,-0.22526,0.06538,0.37394
-0.0263421,0,0,15.0263,15.0263,14.9737,14.9737,0.0188158,0.000404078,0.386352,-0.000813572,-0.00816543,0.00719285,0,0,1,3.115,-0.035,-0.875,-0.041114,0.00366,-1.00552,-0.22526,0.06538,0.37394
-0.0390913,0,0,15.0391,15.0391,14.9609,14.9609,0.0279223,0.000934298,0.577527,-0.000822826,-0.00800649,0.00719279,0,0,1,3.3075,0.21,-0.6825,-0.041114,0.00366,-1.00552,-0.22526,0.06538,0.37394
-0.0523462,0,0,15.0523,15.0523,14.9477,14.9477,0.0373902,0.00708784,0.763326,0.00271435,-0.00820762,-0.00153666,0,0,1,3.4125,0.21,-0.7175,-0.037454,0.003294,-1.01419,-0.22526,0.06538,0.37394
-0.065605,0,0,15.0656,15.0656,14.9344,14.9344,0.0468607,0.0132512,0.947235,0.00260677,-0.00804233,-0.0015368,0,0,1,3.5175,0.3325,-1.015,-0.037454,0.003294,-1.01419,-0.22526,0.06538,0.37394
-0.070304,0,0,15.0703,15.0703,14.9297,14.9297,0.0502171,0.00997345,1.13555,-0.00268139,-0.00285443,-0.00301222,0,0,1,3.5175,0.2975,-0.9625,-0.042822,0.008418,-1.01565,-0.22526,0.06538,0.37394
-0.0748172,0,0,15.0748,15.0748,14.9252,14.9252,0.0534408,0.00617631,1.32271,-0.00261512,-0.00279816,-0.00301226,0,0,1,3.4825,-0.0525,-0.8225,-0.042822,0.008418,-1.01565,-0.22526,0.06538,0.37394
-0.0847946,0,0,15.0848,15.0848,14.9152,14.9152,0.0605675,0.00278854,1.5087,-0.00292045,-0.00621545,-0.000799307,0,0,1,3.43,0.07,-0.8575,-0.043188,0.00488,-1.01345,-0.22526,0.06538,0.37394
-0.0978842,0,0,15.0979,15.0979,14.9021,14.9021,0.0699173,-0.00594837,1.70833,-0.00677699,-0.00825055,-0.00694692,0,0,1,3.4125,0.21,-0.77,-0.047214,0.002684,-1.01955,-0.2268,0.06118,0.36106
-0.106995,0,0,15.107,15.107,14.893,14.893,0.0764249,-0.0127806,1.90505,-0.00519991,-0.00606082,-0.00608645,0,0,1,3.2375,0.14,-0.7175,-0.04575,0.004758,-1.0187,-0.2268,0.06118,0.36106
-0.121138,0,0,15.1211,15.1211,14.8789,14.8789,0.0865272,-0.0130721,2.09613,-0.00167174,-0.00881554,0.00338034,0,0,1,3.36,0.3675,-0.9275,-0.042212,0.00183,-1.00931,-0.2268,0.06118,0.36106
-0.134791,0,0,15.1348,15.1348,14.8652,14.8652,0.0962792,-0.0126259,2.28482,-0.000950613,-0.0080347,-0.0038739,0,0,1,3.71,0.2275,-1.015,-0.04148,0.00244,-1.0165,-0.2268,0.06118,0.36106
-0.14817,0,0,15.1482,15.1482,14.8518,14.8518,0.105836,-0.0127047,2.47237,-0.000949237,-0.00786791,-0.00387419,0,0,1,3.71,-0.0525,-0.84,-0.04148,0.00244,-1.0165,-0.2268,0.06118,0.36106
-0.157559,0,0,15.1576,15.1576,14.8424,14.8424,0.112542,-0.0134132,2.65889,-0.00117984,-0.00530833,0.00153532,0,0,1,3.7625,0.105,-0.7875,-0.041724,0.00488,-1.01114,-0.2268,0.06118,0.36106
-0.165754,0,0,15.1658,15.1658,14.8342,14.8342,0.118396,-0.0141845,2.84402,-0.00116638,-0.00520616,0.00153511,0,0,1,3.36,0.07,-0.77,-0.041724,0.00488,-1.01114,-0.2268,0.06118,0.36106
-0.174525,0,0,15.1745,15.1745,14.8255,14.8255,0.124661,-0.0227183,3.0302,-0.00611984,-0.00570745,-0.008424,0,0,1,3.3775,0,-0.7875,-0.046848,0.00427,-1.02102,-0.22372,0.06216,0.3647
-0.187997,0,0,15.188,15.188,14.812,14.812,0.134284,-0.0250229,3.2112,-0.0027995,-0.00847054,0.000181999,0,0,1,3.36,0.28,-0.91,-0.043554,0.001342,-1.01248,-0.22372,0.06216,0.3647
-0.202078,0,0,15.2021,15.2021,14.7979,14.7979,0.144341,-0.0241315,3.38878,-0.000749802,-0.00890564,-0.00203149,0,0,1,3.3075,0.21,-0.805,-0.04148,0.000732,-1.01467,-0.22372,0.06216,0.3647
-0.212657,0,0,15.2127,15.2127,14.7873,14.7873,0.151898,-0.0287438,3.56841,-0.00394942,-0.0066976,-0.00424495,0,0,1,3.4125,0.1925,-0.875,-0.044774,0.002806,-1.01687,-0.22372,0.06216,0.3647
-0.222846,0,0,15.2228,15.2228,14.7772,14.7772,0.159176,-0.0335853,3.74663,-0.00386492,-0.00657057,-0.00424534,0,0,1,3.3425,0,-0.8925,-0.044774,0.002806,-1.01687,-0.22372,0.06216,0.3647
-0.232855,0,0,15.2329,15.2329,14.7671,14.7671,0.166325,-0.0363857,3.92237,-0.00284415,-0.00632368,-0.00375393,0,0,1,3.4125,0.28,-0.945,-0.043798,0.002928,-1.01638,-0.22372,0.06216,0.3647
-0.242518,0,0,15.2425,15.2425,14.7575,14.7575,0.173227,-0.0384718,4.09609,-0.00207883,-0.00620321,-0.00350841,0,0,1,3.3425,0.0175,-0.8925,-0.043066,0.002928,-1.01614,-0.22372,0.06216,0.3647
-0.251631,0,0,15.2516,15.2516,14.7484,14.7484,0.179737,-0.0407781,4.26211,-0.00203858,-0.0060896,-0.00350879,0,0,1,3.2025,-0.105,-0.84,-0.043066,0.002928,-1.01614,-0.22708,0.0651,0.36932
-0.257414,0,0,15.2574,15.2574,14.7426,14.7426,0.183867,-0.0369496,4.42294,0.00190363,-0.00357497,-0.00596794,0,0,1,3.4475,0.1575,-0.805,-0.03904,0.005368,-1.01858,-0.22708,0.0651,0.36932
-0.265311,0,0,15.2653,15.2653,14.7347,14.7347,0.189508,-0.0423589,4.58872,-0.00407624,-0.00506417,-0.00129628,0,0,1,3.4125,0.07,-0.7875,-0.04514,0.003782,-1.01394,-0.22708,0.0651,0.36932
-0.276968,0,0,15.277,15.277,14.723,14.723,0.197834,-0.0473155,4.75285,-0.00386825,-0.00723926,-0.000313256,0,0,1,3.4825,-0.105,-0.805,-0.045018,0.001464,-1.01297,-0.22708,0.0651,0.36932
-0.288304,0,0,15.2883,15.2883,14.7117,14.7117,0.205932,-0.0519258,4.91548,-0.00378779,-0.00709793,-0.000313823,0,0,1,3.4475,0.035,-0.945,-0.045018,0.001464,-1.01297,-0.22708,0.0651,0.36932
-0.297818,0,0,15.2978,15.2978,14.7022,14.7022,0.212727,-0.0550511,5.07562,-0.00263987,-0.00588018,-0.00412571,0,0,1,3.5175,-0.0175,-1.0325,-0.04392,0.002562,-1.01675,-0.22708,0.0651,0.36932
-0.308713,0,0,15.3087,15.3087,14.6913,14.6913,0.220509,-0.0579787,5.23453,-0.00258877,-0.00672138,0.0016523,0,0,1,3.4825,-0.035,-0.98,-0.04392,0.001586,-1.01101,-0.22708,0.0651,0.36932
-0.319303,0,0,15.3193,15.3193,14.6807,14.6807,0.228074,-0.0608074,5.3948,-0.0025394,-0.00658936,0.00165174,0,0,1,3.4475,-0.0175,-0.8925,-0.04392,0.001586,-1.01101,-0.2275,0.0637,0.36974
-0.330433,0,0,15.3304,15.3304,14.6696,14.6696,0.236023,-0.0603908,5.55177,-0.000481416,-0.00693911,-0.00179138,0,0,1,3.4125,-0.0525,-0.805,-0.041846,0.001098,-1.01443,-0.2275,0.0637,0.36974
-0.341342,0,0,15.3413,15.3413,14.6587,14.6587,0.243816,-0.0600125,5.70755,-0.000488018,-0.00680312,-0.00179194,0,0,1,3.4125,-0.0525,-0.805,-0.041846,0.001098,-1.01443,-0.2275,0.0637,0.36974
-0.351247,0,0,15.3512,15.3512,14.6488,14.6488,0.25089,-0.0623261,5.86379,-0.00202695,-0.006069,0.00251068,0,0,1,3.5,-0.1225,-0.805,-0.043432,0.001708,-1.01016,-0.2275,0.0637,0.36974
-0.360955,0,0,15.361,15.361,14.639,14.639,0.257825,-0.0646016,6.01883,-0.00198724,-0.00594797,0.0025101,0,0,1,3.5,-0.1225,-0.805,-0.043432,0.001708,-1.01016,-0.2275,0.0637,0.36974
-0.372725,0,0,15.3727,15.3727,14.6273,14.6273,0.266232,-0.0648233,6.1713,-0.00076851,-0.00677825,0.00238648,0,0,1,3.745,-0.14,-0.7875,-0.042212,0.000732,-1.01028,-0.2275,0.0637,0.36974
-0.384262,0,0,15.3843,15.3843,14.6157,14.6157,0.274473,-0.0650678,6.3226,-0.000764244,-0.00663444,0.00238579,0,0,1,3.745,-0.14,-0.7875,-0.042212,0.000732,-1.01028,-0.2275,0.0637,0.36974
-0.391411,0,0,15.3914,15.3914,14.6086,14.6086,0.279579,-0.0604871,6.46944,0.00243592,-0.0042249,-0.0015489,0,0,1,3.5175,0.035,-0.875,-0.038918,0.00305,-1.01419,-0.2275,0.0637,0.36974
-0.402776,0,0,15.4028,15.4028,14.5972,14.5972,0.287697,-0.055312,6.6205,0.00246708,-0.00701426,0.00213894,0,0,1,3.3425,-0.035,-0.9275,-0.038796,0.000122,-1.01053,-0.23296,0.06118,0.35952
-0.410205,0,0,15.4102,15.4102,14.5898,14.5898,0.293004,-0.0547847,6.77327,-9.33173e-05,-0.00447911,0.000417205,0,0,1,3.5175,-0.07,-0.91,-0.041358,0.002562,-1.01223,-0.23296,0.06118,0.35952
-0.417705,0,0,15.4177,15.4177,14.5823,14.5823,0.29836,-0.0541132,6.92515,-0.000105037,-0.00438562,0.000416733,0,0,1,3.605,0.035,-0.7175,-0.041358,0.002562,-1.01223,-0.23296,0.06118,0.35952
-0.429015,0,0,15.429,15.429,14.571,14.571,0.30644,-0.0597441,7.07992,-0.00450173,-0.00717566,-0.00351846,0,0,1,3.465,0.0525,-0.7525,-0.045872,-0.000366,-1.01614,-0.23296,0.06118,0.35952
-0.440015,0,0,15.44,15.44,14.56,14.56,0.314296,-0.0650414,7.23348,-0.00440928,-0.00703853,-0.0035193,0,0,1,3.43,0.175,-0.735,-0.045872,-0.000366,-1.01614,-0.23296,0.06118,0.35952
-0.45366,0,0,15.4537,15.4537,14.5463,14.5463,0.324043,-0.0304059,7.3593,0.0208627,-0.00699055,0.00988164,0,0,1,3.605,0.0525,-0.6825,-0.019886,-0.000488,-1.00284,-0.23296,0.06118,0.35952
-0.466533,0,0,15.4665,15.4665,14.5335,14.5335,0.333238,0.00325742,7.48376,0.0202751,-0.00683007,0.00988086,0,0,1,3.4125,0.0525,-0.8925,-0.019886,-0.000488,-1.00284,-0.23296,0.06118,0.35952
-0.614532,0,0,15.6145,15.6145,14.3855,14.3855,0.438951,0.164945,7.52028,0.0842703,-0.0786275,0.0835104,0,0,1,3.4825,0.0175,-1.05,0.047214,-0.074054,-0.929762,-0.23296,0.06118,0.35952
-0.759826,0,0,15.7598,15.7598,14.2402,14.2402,0.542733,0.319096,7.54519,0.0815799,-0.0768164,0.0834835,0,0,1,3.9025,0.1225,-0.6475,0.047214,-0.074054,-0.929762,-0.2268,0.06636,0.37604
-0.63225,0,0,15.6322,15.6322,14.3678,14.3678,0.451607,0.472413,7.56839,0.109397,0.0832889,-3.16113e-06,0,0,1,3.115,0.1225,-0.7525,0.077836,0.087474,-1.0126,-0.2268,0.06636,0.37604
-0.679764,0,0,15.6798,15.6798,14.3202,14.3202,0.485545,0.00578419,8.00214,-0.321387,-0.0475269,0.00162431,0,0,1,3.2725,0.315,-0.63,-0.36295,-0.043798,-1.01101,-0.2268,0.06636,0.37604
-0.725863,0,0,15.7259,15.7259,14.2741,14.2741,0.518473,-0.448839,8.43167,-0.313452,-0.0469525,0.0015886,0,0,1,3.2725,0.315,-0.63,-0.36295,-0.043798,-1.01101,-0.2268,0.06636,0.37604
-0.72618,0,0,15.7262,15.7262,14.2738,14.2738,0.5187,-0.296767,8.46305,0.0963377,0.00519977,0.0307446,0,0,1,3.535,-0.175,-0.6475,0.05124,0.008296,-0.9821,-0.2268,0.06636,0.37604
-0.726306,0,0,15.7263,15.7263,14.2737,14.2737,0.51879,-0.148706,8.4942,0.0937535,0.00520144,0.0307547,0,0,1,3.535,-0.175,-0.6475,0.05124,0.008296,-0.9821,-0.2268,0.06636,0.37604
-0.780573,0,0,15.7806,15.7806,14.2194,14.2194,0.557552,-0.00871173,8.52542,0.0783112,-0.0233103,0.106857,0,0,1,4.3575,-0.4025,-1.4,0.038186,-0.020862,-0.906582,-0.2268,0.06636,0.37604
-0.719474,0,0,15.7195,15.7195,14.2805,14.2805,0.51391,-0.323445,8.85937,-0.195005,0.0268547,0.0387345,0,0,1,4.1475,-0.2625,-1.4,-0.241804,0.030012,-0.97417,-0.22974,0.0658,0.3787
-0.746184,0,0,15.7462,15.7462,14.2538,14.2538,0.532989,-0.21522,8.9142,0.0662438,-0.0104273,0.027552,0,0,1,4.48,0.42,-1.4875,0.022448,-0.007564,-0.985272,-0.22974,0.0658,0.3787
-0.771089,0,0,15.7711,15.7711,14.2289,14.2289,0.550778,-0.109523,8.96868,0.0643991,-0.0101168,0.0275543,0,0,1,4.025,0.665,-1.47,0.022448,-0.007564,-0.985272,-0.22974,0.0658,0.3787
-0.504473,0,0,15.5045,15.5045,14.4955,14.4955,0.360338,-0.127563,9.10874,0.00870902,0.169628,-0.0229517,0,0,1,3.92,0.4025,-1.5225,-0.033794,0.175314,-1.03541,-0.22974,0.0658,0.3787
-0.241889,0,0,15.2419,15.2419,14.7581,14.7581,0.172778,-0.145044,9.2482,0.00901411,0.166354,-0.0229372,0,0,1,3.43,0.14,-1.575,-0.033794,0.175314,-1.03541,-0.22974,0.0658,0.3787
-0.264491,0,0,15.2645,15.2645,14.7355,14.7355,0.188922,-0.227133,9.42492,-0.0607438,-0.019119,-0.089212,0,0,1,3.3425,0.0875,-1.6275,-0.105286,-0.010248,-1.10117,-0.22974,0.0658,0.3787
-0.284502,0,0,15.2845,15.2845,14.7155,14.7155,0.203216,-0.3078,9.60112,-0.0593359,-0.0188695,-0.0892194,0,0,1,2.4675,-0.3325,-1.085,-0.105286,-0.010248,-1.10117,-0.22974,0.0658,0.3787
-0.328808,0,0,15.3288,15.3288,14.6712,14.6712,0.234863,-0.402571,9.78528,-0.0627843,-0.0313848,0.0287988,0,0,1,2.59,-0.7,-1.1375,-0.11041,-0.023302,-0.984052,-0.22974,0.0658,0.3787
-0.374762,0,0,15.3748,15.3748,14.6252,14.6252,0.267687,-0.494992,9.96369,-0.0611713,-0.030812,0.0287836,0,0,1,3.5875,-0.7,-0.9625,-0.11041,-0.023302,-0.984052,-0.23254,0.06748,0.38766
-0.542908,0,0,15.5429,15.5429,14.4571,14.4571,0.387791,-0.288926,9.93718,0.122685,-0.0941757,0.00863267,0,0,1,4.305,-0.3675,-0.6475,0.077836,-0.088694,-1.00406,-0.23254,0.06748,0.38766
-0.707299,0,0,15.7073,15.7073,14.2927,14.2927,0.505213,-0.0886932,9.91142,0.11919,-0.0921263,0.00862821,0,0,1,4.305,-0.3675,-0.6475,0.077836,-0.088694,-1.00406,-0.23254,0.06748,0.38766
-0.664417,0,0,15.6644,15.6644,14.3356,14.3356,0.474583,-0.358725,10.2058,-0.167055,0.0173752,0.050171,0,0,1,5.1275,0.595,-0.1575,-0.214354,0.021228,-0.962824,-0.23254,0.06748,0.38766
-0.622345,0,0,15.6223,15.6223,14.3777,14.3777,0.444532,-0.621566,10.498,-0.162468,0.0168504,0.0501359,0,0,1,5.1275,0.595,-0.1575,-0.214354,0.021228,-0.962824,-0.23254,0.06748,0.38766
-0.622126,0,0,15.6221,15.6221,14.3779,14.3779,0.444376,-0.620793,10.5,0.128963,-0.0206452,-0.302357,1,0,1,3.4125,0.5425,0.35,0.078324,-0.016226,-1.3126,-0.23254,0.06748,0.38766
-0.621907,0,0,15.6219,15.6219,14.3781,14.3781,0.444219,-0.62002,10.5021,0.128949,-0.0206479,-0.302357,1,0,1,3.4125,0.5425,0.35,0.078324,-0.016226,-1.3126,-0.23254,0.06748,0.38766
-0.615204,0,0,15.6152,15.6152,14.3848,14.3848,0.439431,-0.62744,10.5053,0.307298,0.0174942,0.162387,1,0,1,0.8225,-4.2525,1.0325,0.257298,0.02196,-0.851438,-0.23254,0.06748,0.38766
-0.606662,0,0,15.6067,15.6067,14.3933,14.3933,0.43333,-0.628498,10.5086,-0.162104,0.134507,0.147511,1,0,1,0.0875,-0.525,1.1025,-0.21411,0.138958,-0.8662,-0.22862,0.08442,0.4046
-0.855453,0,0,15.8555,15.8555,14.1445,14.1445,0.611038,-0.616512,10.5731,-0.00875536,-0.170029,-0.0813218,0,0,1,2.835,-1.19,0.8925,-0.059902,-0.16836,-1.09324,-0.22862,0.08442,0.4046
-1.10505,0,0,16.1051,16.1051,13.8949,13.8949,0.789324,-0.603678,10.6371,-0.00897934,-0.166917,-0.0813575,0,0,1,5.145,-0.1925,0.9625,-0.059902,-0.16836,-1.09324,-0.22862,0.08442,0.4046
-1.10898,0,0,16.109,16.109,13.891,13.891,0.792125,-0.603496,10.6399,-0.276494,0.185956,-0.144554,1,0,1,5.075,0.21,0.805,-0.328546,0.184098,-1.15595,-0.22862,0.08442,0.4046
-1.11365,0,0,16.1137,16.1137,13.8863,13.8863,0.795465,-0.602287,10.642,-0.276515,0.186014,-0.144554,1,0,1,5.3725,0.805,0.3675,-0.328546,0.184098,-1.15595,-0.22862,0.08442,0.4046
-1.24709,0,0,16.2471,16.2471,13.7529,13.7529,0.890781,-0.593232,10.7137,-0.00296589,-0.0797803,-0.00257153,0,0,1,5.4425,0.455,-0.1575,-0.05368,-0.083082,-1.01504,-0.22862,0.08442,0.4046
-1.37321,0,0,16.3732,16.3732,13.6268,13.6268,0.980865,-0.58361,10.7828,-0.0031338,-0.0782083,-0.00259548,0,0,1,3.57,1.0675,-1.3125,-0.05368,-0.083082,-1.01504,-0.22862,0.08442,0.4046
-1.37015,0,0,16.3702,16.3702,13.6298,13.6298,0.978681,-0.582384,10.7817,-0.191944,0.162221,0.214041,1,0,1,2.2575,0.7875,-1.4875,-0.243268,0.157136,-0.800076,-0.22862,0.08442,0.4046
-1.36257,0,0,16.3626,16.3626,13.6374,13.6374,0.973268,-0.582596,10.7791,-0.19194,0.162127,0.214042,1,0,1,0.4375,-0.07,-2.38,-0.243268,0.157136,-0.800076,-0.22862,0.08638,0.40754
-1.3311,0,0,16.3311,16.3311,13.6689,13.6689,0.950789,-0.626689,10.8844,-0.023642,0.0134724,0.089248,0,0,1,0.6475,-0.3675,-3.2375,-0.07503,0.009028,-0.923906,-0.22862,0.08638,0.40754
-1.30031,0,0,16.3003,16.3003,13.6997,13.6997,0.928796,-0.669567,10.989,-0.0228937,0.0130885,0.0892458,0,0,1,0.6475,-0.3675,-3.2375,-0.07503,0.009028,-0.923906,-0.22862,0.08638,0.40754
-1.30187,0,0,16.3019,16.3019,13.6981,13.6981,0.929905,-0.670939,10.9841,-0.115563,0.106168,-0.187266,1,0,1,4.0775,-0.77,-3.71,-0.168116,0.101992,-1.19828,-0.22862,0.08638,0.40754
-1.30342,0,0,16.3034,16.3034,13.6966,13.6966,0.931015,-0.67231,10.9792,-0.115539,0.106188,-0.187267,1,0,1,4.0775,-0.77,-3.71,-0.168116,0.101992,-1.19828,-0.22862,0.08638,0.40754
-1.3105,0,0,16.3105,16.3105,13.6895,13.6895,0.936074,-0.672268,10.9755,-0.0283134,0.031046,-0.25907,1,0,1,6.3,0.07,-2.975,-0.08052,0.02684,-1.26953,-0.22862,0.08638,0.40754
-1.31759,0,0,16.3176,16.3176,13.6824,13.6824,0.941133,-0.672225,10.9719,-0.0283141,0.0311343,-0.259071,1,0,1,6.3,0.07,-2.975,-0.08052,0.02684,-1.26953,-0.22862,0.08638,0.40754
-1.32094,0,0,16.3209,16.3209,13.6791,13.6791,0.943526,-0.670349,10.9694,-0.105733,0.0546243,0.150839,1,0,1,4.8125,1.155,-2.3275,-0.158234,0.050264,-0.862784,-0.22862,0.08638,0.40754
-1.31737,0,0,16.3174,16.3174,13.6826,13.6826,0.940978,-0.667946,10.9676,-0.24597,-0.00978089,0.366246,1,0,1,2.0475,1.47,-1.9425,-0.299022,-0.01403,-0.64904,-0.231,0.08498,0.40726
-1.31421,0,0,16.3142,16.3142,13.6858,13.6858,0.938724,-0.667362,10.9674,0.0848257,-0.0118964,0.298994,1,0,1,2.2225,0.42,-0.98,0.033184,-0.016104,-0.715774,-0.231,0.08498,0.40726
-1.31083,0,0,16.3108,16.3108,13.6892,13.6892,0.936304,-0.668406,10.968,0.0848439,-0.0119386,0.298994,1,0,1,2.135,-0.525,-0.4725,0.033184,-0.016104,-0.715774,-0.231,0.08498,0.40726
-1.30766,0,0,16.3077,16.3077,13.6923,13.6923,0.934041,-0.669269,10.9686,-0.0490183,0.0564129,-0.0998504,1,0,1,2.2225,-0.42,-0.49,-0.10126,0.052216,-1.11154,-0.231,0.08498,0.40726
-1.3182,0,0,16.3182,16.3182,13.6818,13.6818,0.941574,-0.669899,10.9696,-0.0490073,0.0565443,-0.0998527,1,0,1,7.7175,-0.28,-0.2975,-0.10126,0.052216,-1.11154,-0.231,0.08498,0.40726
-1.32459,0,0,16.3246,16.3246,13.6754,13.6754,0.946135,-0.67042,10.9711,-0.201827,-0.0663577,-0.481732,1,0,1,6.055,-0.21,0.07,-0.254736,-0.070638,-1.49047,-0.231,0.08498,0.40726
-1.32868,0,0,16.3287,16.3287,13.6713,13.6713,0.94906,-0.669824,10.9738,-0.201838,-0.0663067,-0.481733,1,0,1,5.145,0.455,0.6825,-0.254736,-0.070638,-1.49047,-0.231,0.08498,0.40726
-1.33116,0,0,16.3312,16.3312,13.6688,13.6688,0.95083,-0.670005,10.9765,-0.45003,-0.0576048,-0.0255945,1,0,1,4.4975,0,0.7175,-0.503982,-0.061976,-1.03785,-0.231,0.08498,0.40726
-1.33128,0,0,16.3313,16.3313,13.6687,13.6687,0.950913,-0.669801,10.9793,-0.450033,-0.0576033,-0.0255945,1,0,1,3.5525,0.2275,0.805,-0.503982,-0.061976,-1.03785,-0.22848,0.08862,0.41342
-1.32959,0,0,16.3296,16.3296,13.6704,13.6704,0.949708,-0.669876,10.9828,-0.0251965,0.195911,0.362554,1,0,1,2.835,0.07,1.19,-0.077348,0.191296,-0.6527,-0.22848,0.08862,0.41342
-1.32503,0,0,16.325,16.325,13.675,13.675,0.946451,-0.669281,10.9856,-0.0252069,0.195854,0.362555,1,0,1,1.68,0.455,0.7525,-0.077348,0.191296,-0.6527,-0.22848,0.08862,0.41342
-1.32118,0,0,16.3212,16.3212,13.6788,13.6788,0.9437,-0.668202,10.9879,0.177169,0.137185,0.245878,1,0,1,1.96,0.735,0.49,0.125904,0.132736,-0.768478,-0.22848,0.08862,0.41342
-1.32061,0,0,16.3206,16.3206,13.6794,13.6794,0.943292,-0.668492,10.9899,0.177175,0.137178,0.245878,1,0,1,3.2725,-0.07,0.35,0.125904,0.132736,-0.768478,-0.22848,0.08862,0.41342
-1.32193,0,0,16.3219,16.3219,13.6781,13.6781,0.944233,-0.669161,10.9914,0.647214,-0.121959,-0.10514,1,0,1,4.025,-0.2975,0.035,0.597922,-0.126148,-1.11679,-0.22848,0.08862,0.41342
-1.32441,0,0,16.3244,16.3244,13.6756,13.6756,0.946006,-0.669083,10.9911,0.647213,-0.121928,-0.105141,1,0,1,4.48,0.1225,-1.0325,0.597922,-0.126148,-1.11679,-0.22848,0.08862,0.41342
-1.32838,0,0,16.3284,16.3284,13.6716,13.6716,0.948844,-0.668285,10.9906,0.432412,-0.0897588,-0.410299,1,0,1,5.075,0.5425,-1.1725,0.382226,-0.094062,-1.41959,-0.22848,0.08862,0.41342
-1.32974,0,0,16.3297,16.3297,13.6703,13.6703,0.949813,-0.667839,10.9897,0.432405,-0.0897419,-0.4103,1,0,1,4.025,0.3325,-1.3825,0.382226,-0.094062,-1.41959,-0.23422,0.09464,0.42112
-1.2204,0,0,16.2204,16.2204,13.7796,13.7796,0.871716,-0.816876,11.1598,-0.0933358,0.0606984,0.00537722,0,0,1,2.765,0.5425,-1.505,-0.148352,0.057584,-1.00711,-0.23422,0.09464,0.42112
-1.11344,0,0,16.1134,16.1134,13.8866,13.8866,0.795317,-0.962477,11.3288,-0.0907948,0.0593647,0.00535716,0,0,1,2.8175,0.1925,-1.5925,-0.148352,0.057584,-1.00711,-0.23422,0.09464,0.42112
-1.1126,0,0,16.1126,16.1126,13.8874,13.8874,0.794712,-0.961484,11.3271,0.233069,-0.00793769,0.248673,1,0,1,3.1325,0.6475,-1.8725,0.1769,-0.009638,-0.765672,-0.23422,0.09464,0.42112
-1.11609,0,0,16.1161,16.1161,13.8839,13.8839,0.797204,-0.960631,11.3268,0.233054,-0.00789421,0.248672,1,0,1,4.8825,0.5775,-0.9975,0.1769,-0.009638,-0.765672,-0.23422,0.09464,0.42112
-1.12109,0,0,16.1211,16.1211,13.8789,13.8789,0.800781,-0.959968,11.3252,0.100623,0.12834,0.114289,1,0,1,5.4775,0.455,-1.82,0.04392,0.126392,-0.899018,-0.23422,0.09464,0.42112
-1.12178,0,0,16.1218,16.1218,13.8782,13.8782,0.801271,-0.960169,11.3234,0.100626,0.128348,0.114289,1,0,1,3.745,-0.0525,-1.9075,0.04392,0.126392,-0.899018,-0.23422,0.09464,0.42112
-1.13493,0,0,16.1349,16.1349,13.8651,13.8651,0.810662,-0.961972,11.3862,-0.00272653,-0.00961341,-0.0995215,0,0,1,3.9725,-0.77,-2.205,-0.059902,-0.01159,-1.11118,-0.23422,0.09464,0.42112
-1.1444,0,0,16.1444,16.1444,13.8556,13.8556,0.81743,-0.963951,11.4416,-0.002692,-0.00949532,-0.0995238,0,0,1,2.6075,-0.8575,-2.415,-0.059902,-0.01159,-1.11118,-0.22428,0.09968,0.4228
-1.00748,0,0,16.0075,16.0075,13.9925,13.9925,0.719626,-1.2692,11.715,-0.212638,0.0750182,-0.0441549,0,0,1,2.6775,-0.6475,-2.555,-0.276086,0.074542,-1.05615,-0.22428,0.09968,0.4228
-0.873181,0,0,15.8732,15.8732,14.1268,14.1268,0.6237,-1.56537,11.9883,-0.207471,0.0733432,-0.0442631,0,0,1,2.6775,0.0525,-1.925,-0.276086,0.074542,-1.05615,-0.22428,0.09968,0.4228
-0.443973,0,0,15.444,15.444,14.556,14.556,0.317123,-1.7321,12.2049,-0.0907297,0.271824,8.14601e-05,0,0,1,3.2375,0.5075,-1.7675,-0.161772,0.27816,-1.01211,-0.22428,0.09968,0.4228
-0.0243863,0,0,15.0244,15.0244,14.9756,14.9756,0.0174188,-1.89536,12.424,-0.0878817,0.266595,6.53942e-06,0,0,1,3.92,-0.1575,-0.665,-0.161772,0.27816,-1.01211,-0.22428,0.09968,0.4228
0.546563,0,0,14.4534,14.4534,15.5466,15.5466,-0.390402,-2.30333,12.8292,-0.21598,0.308822,0.178859,0,0,1,4.025,0.455,-0.63,-0.297558,0.327448,-0.834358,-0.22428,0.09968,0.4228
1.10903,0,0,13.891,13.891,16.109,16.109,-0.792162,-2.7013,13.2381,-0.20904,0.301821,0.178483,0,0,1,3.745,0.4725,-0.1225,-0.297558,0.327448,-0.834358,-0.22428,0.09968,0.4228
0.784359,0,0,14.2156,14.2156,15.7844,15.7844,-0.560257,-2.80489,13.3561,-0.091094,-0.202916,0.0454136,0,0,1,4.725,0.2975,-0.3325,-0.180926,-0.180804,-0.966362,-0.22428,0.09968,0.4228
0.462583,0,0,14.5374,14.5374,15.4626,15.4626,-0.330417,-2.90793,13.4733,-0.089298,-0.198909,0.0453551,0,0,1,6.02,-0.5075,0.175,-0.180926,-0.180804,-0.966362,-0.22428,0.09968,0.4228
0.45783,0,0,14.5422,14.5422,15.4578,15.4578,-0.327021,-2.90916,13.4751,0.00329558,0.0182917,-0.343163,1,0,1,5.4425,-0.6475,0.1925,-0.087962,0.036112,-1.35188,-0.22274,0.10458,0.43414
0.683569,0,0,14.3164,14.3164,15.6836,15.6836,-0.488264,-3.29122,13.8423,-0.263753,0.127597,0.00206472,0,0,1,3.36,-0.0175,0.0525,-0.362828,0.148108,-1.00894,-0.22274,0.10458,0.43414
0.907343,0,0,14.0927,14.0927,15.9073,15.9073,-0.648102,-3.66414,14.2085,-0.257256,0.124816,0.00164231,0,0,1,2.555,-0.3325,0.0525,-0.362828,0.148108,-1.00894,-0.22274,0.10458,0.43414
0.908686,0,0,14.0913,14.0913,15.9087,15.9087,-0.649061,-3.66406,14.2097,0.548192,-0.00587624,-0.0394226,1,0,1,2.9925,0.1225,-0.1575,0.446032,0.017568,-1.04969,-0.22274,0.10458,0.43414
0.911491,0,0,14.0885,14.0885,15.9115,15.9115,-0.651065,-3.66233,14.2111,0.548162,-0.00591115,-0.039421,1,0,1,2.415,1.085,-0.0175,0.446032,0.017568,-1.04969,-0.22274,0.10458,0.43414
0.839977,0,0,14.16,14.16,15.84,15.84,-0.599984,-3.03224,13.843,0.458947,-0.0157754,0.0239345,0,0,1,3.15,1.645,-0.245,0.367464,0.006832,-0.987468,-0.22274,0.10458,0.43414
0.770373,0,0,14.2296,14.2296,15.7704,15.7704,-0.550266,-2.41803,13.4778,0.448239,-0.0149138,0.0244528,0,0,1,3.85,0.4375,0.2625,0.367464,0.006832,-0.987468,-0.22274,0.10458,0.43414
0.76513,0,0,14.2349,14.2349,15.7651,15.7651,-0.546521,-2.41755,13.4791,0.701893,-0.0656532,-0.011939,1,0,1,5.6175,0.35,-0.105,0.6222,-0.04392,-1.02358,-0.22274,0.10458,0.43414
0.759069,0,0,14.2409,14.2409,15.7591,15.7591,-0.542192,-2.4181,13.4798,0.701902,-0.0655777,-0.0119387,1,0,1,5.9325,-0.245,-0.42,0.6222,-0.04392,-1.02358,-0.22232,0.10976,0.44534
0.753348,0,0,14.2467,14.2467,15.7533,15.7533,-0.538106,-2.41866,13.4796,0.350454,-0.0520725,-0.16378,1,0,1,5.775,-0.245,-0.945,0.269254,-0.0305,-1.17425,-0.22232,0.10976,0.44534
0.747941,0,0,14.2521,14.2521,15.7479,15.7479,-0.534244,-2.42015,13.4789,0.35048,-0.0520052,-0.16378,1,0,1,5.635,-0.7875,-1.295,0.269254,-0.0305,-1.17425,-0.22232,0.10976,0.44534
0.745537,0,0,14.2545,14.2545,15.7455,15.7455,-0.532527,-2.42014,13.4779,0.650793,0.104591,-0.0100944,1,0,1,4.4275,0.0875,-1.4175,0.570838,0.125904,-1.02175,-0.22232,0.10976,0.44534
0.747003,0,0,14.253,14.253,15.747,15.747,-0.533573,-2.42026,13.4766,0.650795,0.104573,-0.0100946,1,0,1,2.87,0.0175,-1.61,0.570838,0.125904,-1.02175,-0.22232,0.10976,0.44534
0.6665,0,0,14.3335,14.3335,15.6665,15.6665,-0.476071,-1.96052,13.1994,0.298608,-0.0305982,0.103702,0,0,1,1.89,0.7875,-1.6625,0.225212,-0.010126,-0.909144,-0.22232,0.10976,0.44534
0.587432,0,0,14.4126,14.4126,15.5874,15.5874,-0.419594,-1.51212,12.9247,0.290785,-0.0296148,0.103947,0,0,1,2.5375,0.4375,-1.2775,0.225212,-0.010126,-0.909144,-0.22232,0.10976,0.44534
0.584889,0,0,14.4151,14.4151,15.5849,15.5849,-0.417778,-1.51104,12.9229,0.212044,-0.0328806,0.145382,1,0,1,4.48,0.7175,-1.8725,0.146156,-0.01342,-0.86803,-0.22232,0.10976,0.44534
0.571252,0,0,14.4287,14.4287,15.5713,15.5713,-0.408037,-1.51101,12.9213,0.212043,-0.0327106,0.145383,1,0,1,8.925,0.105,-1.785,0.146156,-0.01342,-0.86803,-0.21714,0.11186,0.44744
0.566163,0,0,14.4338,14.4338,15.5662,15.5662,-0.404402,-1.51077,12.9193,0.392445,-0.000405751,-0.223708,1,0,1,5.495,0.2275,-2.0475,0.327326,0.018788,-1.23427,-0.21714,0.11186,0.44744
0.561304,0,0,14.4387,14.4387,15.5613,15.5613,-0.400931,-1.51257,12.9175,0.392476,-0.000345188,-0.223708,1,0,1,5.4075,-0.9625,-1.89,0.327326,0.018788,-1.23427,-0.21714,0.11186,0.44744
0.711766,0,0,14.2882,14.2882,15.7118,15.7118,-0.508404,-1.09225,12.6748,0.310915,0.117707,0.0337746,0,0,1,4.4625,-0.7175,-1.9075,0.252784,0.138592,-0.978928,-0.21714,0.11186,0.44744
0.86228,0,0,14.1377,14.1377,15.8623,15.8623,-0.615914,-0.680765,12.4317,0.303734,0.11583,0.0338673,0,0,1,3.745,-0.49,-1.8375,0.252784,0.138592,-0.978928,-0.21714,0.11186,0.44744
0.699087,0,0,14.3009,14.3009,15.6991,15.6991,-0.499348,0.0127775,11.9467,0.490988,-0.077906,0.109694,0,0,1,3.7625,-0.0175,-1.61,0.452986,-0.056974,-0.903776,-0.21714,0.11186,0.44744
0.540819,0,0,14.4592,14.4592,15.5408,15.5408,-0.3863,0.692104,11.4659,0.479131,-0.0759325,0.109636,0,0,1,4.0075,0.245,-1.295,0.452986,-0.056974,-0.903776,-0.21714,0.11186,0.44744
0.539274,0,0,14.4607,14.4607,15.5393,15.5393,-0.385196,0.693246,11.465,0.189611,-0.0469692,-0.0967944,1,0,1,4.1125,0.7525,-1.365,0.16226,-0.02806,-1.10861,-0.21714,0.11186,0.44744
0.538633,0,0,14.4614,14.4614,15.5386,15.5386,-0.384738,0.694542,11.465,0.189588,-0.0469612,-0.0967946,1,0,1,3.745,0.84,-0.8925,0.16226,-0.02806,-1.10861,-0.22848,0.10262,0.43848
0.636167,0,0,14.3638,14.3638,15.6362,15.6362,-0.454405,0.743725,11.4659,0.0400315,0.0688205,-0.0416104,0,0,1,4.1125,0.6125,-1.0325,0.012932,0.088816,-1.05384,-0.22848,0.10262,0.43848
0.73224,0,0,14.2678,14.2678,15.7322,15.7322,-0.523029,0.790823,11.4667,0.0392096,0.0676231,-0.0416316,0,0,1,3.9725,0.035,-1.0675,0.012932,0.088816,-1.05384,-0.22848,0.10262,0.43848
0.730808,0,0,14.2692,14.2692,15.7308,15.7308,-0.522006,0.79033,11.4669,-0.333257,-0.0620577,-0.241669,1,0,1,4.06,-0.21,-0.77,-0.36112,-0.040748,-1.25233,-0.22848,0.10262,0.43848
0.727411,0,0,14.2726,14.2726,15.7274,15.7274,-0.519579,0.789447,11.4669,-0.333241,-0.0620153,-0.241668,1,0,1,4.8475,-0.4375,-0.8225,-0.36112,-0.040748,-1.25233,-0.22848,0.10262,0.43848
0.768119,0,0,14.2319,14.2319,15.7681,15.7681,-0.548657,0.950016,11.3833,0.126331,0.038965,-0.0844641,0,0,1,4.62,-0.455,-0.42,0.103212,0.060634,-1.09629,-0.22848,0.10262,0.43848
0.808363,0,0,14.1916,14.1916,15.8084,15.8084,-0.577402,1.10673,11.3001,0.123596,0.0384639,-0.0845181,0,0,1,4.62,-0.455,-0.42,0.103212,0.060634,-1.09629,-0.22848,0.10262,0.43848
0.808165,0,0,14.1918,14.1918,15.8082,15.8082,-0.577261,1.10694,11.3014,-0.329914,-0.121886,-0.0711168,1,0,1,3.5525,0.1925,-0.0875,-0.352214,-0.099552,-1.08299,-0.22848,0.10262,0.43848
0.807618,0,0,14.1924,14.1924,15.8076,15.8076,-0.57687,1.10765,11.3027,-0.329926,-0.121879,-0.0711169,1,0,1,3.6925,0.49,-0.0875,-0.352214,-0.099552,-1.08299,-0.23086,0.10178,0.42686
0.806686,0,0,14.1933,14.1933,15.8067,15.8067,-0.576204,1.10869,11.3037,-0.470503,0.161589,-0.0611583,1,0,1,3.85,0.6825,-0.2625,-0.493368,0.18361,-1.07311,-0.23086,0.10178,0.42686
0.803575,0,0,14.1964,14.1964,15.8036,15.8036,-0.573982,1.10964,11.3045,-0.47052,0.161627,-0.0611583,1,0,1,4.725,0.63,-0.385,-0.493368,0.18361,-1.07311,-0.23086,0.10178,0.42686
0.43147,0,0,14.5685,14.5685,15.4315,15.4315,-0.308193,1.22929,11.2168,0.0699477,-0.240661,-0.00657604,0,0,1,4.69,0.0175,-0.2625,0.051484,-0.222894,-1.01894,-0.23086,0.10178,0.42686
0.0666212,0,0,14.9334,14.9334,15.0666,15.0666,-0.0475865,1.34545,11.1307,0.0679208,-0.236113,-0.00660748,0,0,1,4.69,0.0175,-0.2625,0.051484,-0.222894,-1.01894,-0.23086,0.10178,0.42686
0.395528,0,0,14.6045,14.6045,15.3955,15.3955,-0.28252,0.83716,11.5248,-0.343915,0.190039,0.0567452,0,0,1,2.9225,-0.5775,0.1575,-0.371002,0.206912,-0.956236,-0.23086,0.10178,0.42686
0.719073,0,0,14.2809,14.2809,15.7191,15.7191,-0.513624,0.340796,11.9198,-0.335252,0.186005,0.0568062,0,0,1,2.9225,-0.5775,0.1575,-0.371002,0.206912,-0.956236,-0.23086,0.10178,0.42686
0.720601,0,0,14.2794,14.2794,15.7206,15.7206,-0.514715,0.33945,11.9215,0.0302006,-0.17441,0.275163,1,0,1,2.87,-0.7175,0.1575,-0.004026,-0.15311,-0.739564,-0.23086,0.10178,0.42686
0.722129,0,0,14.2779,14.2779,15.7221,15.7221,-0.515806,0.338104,11.9233,0.0302241,-0.174429,0.275163,1,0,1,2.87,-0.7175,0.1575,-0.004026,-0.15311,-0.739564,-0.22932,0.0952,0.42504
0.721045,0,0,14.279,14.279,15.721,15.721,-0.515032,0.338091,11.9237,-0.308721,-0.213618,-0.122207,1,0,1,3.92,0.07,-0.5775,-0.344406,-0.192272,-1.13387,-0.22932,0.0952,0.42504
0.719961,0,0,14.28,14.28,15.72,15.72,-0.514258,0.338078,11.9242,-0.30872,-0.213605,-0.122207,1,0,1,3.92,0.07,-0.5775,-0.344406,-0.192272,-1.13387,-0.22932,0.0952,0.42504
0.71753,0,0,14.2825,14.2825,15.7175,15.7175,-0.512521,0.338864,11.9238,0.535348,-0.31726,-0.0410604,1,0,1,4.4625,0.5425,-1.0675,0.50325,-0.29585,-1.05335,-0.22932,0.0952,0.42504
0.715099,0,0,14.2849,14.2849,15.7151,15.7151,-0.510785,0.33965,11.9235,0.535335,-0.31723,-0.0410602,1,0,1,4.4625,0.5425,-1.0675,0.50325,-0.29585,-1.05335,-0.22932,0.0952,0.42504
0.71608,0,0,14.2839,14.2839,15.7161,15.7161,-0.511486,0.347094,11.9226,0.253722,0.00541705,-0.168067,1,0,1,3.0975,4.445,-1.3125,0.220576,0.026474,-1.17937,-0.22932,0.0952,0.42504
0.717062,0,0,14.2829,14.2829,15.7171,15.7171,-0.512187,0.354537,11.9217,0.253592,0.00540482,-0.168068,1,0,1,3.0975,4.445,-1.3125,0.220576,0.026474,-1.17937,-0.22932,0.0952,0.42504
0.718531,0,0,14.2815,14.2815,15.7185,15.7185,-0.513236,0.353579,11.9201,-0.546374,0.156579,-0.00466931,1,0,1,2.905,-0.4725,-1.82,-0.582794,0.17751,-1.01724,-0.22932,0.0952,0.42504
0.72,0,0,14.28,14.28,15.72,15.72,-0.514286,0.352621,11.9184,-0.546357,0.156561,-0.00466937,1,0,1,2.905,-0.4725,-1.82,-0.582794,0.17751,-1.01724,-0.22932,0.0952,0.42504
0.721471,0,0,14.2785,14.2785,15.7215,15.7215,-0.515336,0.351691,11.9166,0.0319308,-0.0525382,-0.123192,1,0,1,2.905,-0.455,-1.9425,-0.002074,-0.031354,-1.13484,-0.22722,0.0917,0.41734
0.721544,0,0,14.2785,14.2785,15.7215,15.7215,-0.515388,0.351806,11.9147,-0.176905,-0.0402043,-0.139421,1,0,1,3.465,0.1575,-1.9775,-0.211792,-0.019032,-1.15095,-0.22722,0.0917,0.41734
0.718517,0,0,14.2815,14.2815,15.7185,15.7185,-0.513227,0.352007,11.9124,-0.176909,-0.0401666,-0.139421,1,0,1,4.7075,0.21,-2.1875,-0.211792,-0.019032,-1.15095,-0.22722,0.0917,0.41734
0.716013,0,0,14.284,14.284,15.716,15.716,-0.511438,0.35245,11.9103,-0.371293,0.0711221,-0.0533565,1,0,1,4.4975,0.35,-2.065,-0.406992,0.09211,-1.06555,-0.22722,0.0917,0.41734
0.714856,0,0,14.2851,14.2851,15.7149,15.7149,-0.510611,0.35308,11.9092,-0.371304,0.0711365,-0.0533565,1,0,1,3.955,0.455,-1.505,-0.406992,0.09211,-1.06555,-0.22722,0.0917,0.41734
0.713699,0,0,14.2863,14.2863,15.7137,15.7137,-0.509785,0.353291,11.908,0.0145304,-0.125351,0.156394,1,0,1,3.955,0.21,-1.54,-0.01952,-0.104188,-0.857416,-0.22722,0.0917,0.41734
0.715598,0,0,14.2844,14.2844,15.7156,15.7156,-0.511141,0.353625,11.9072,0.0145246,-0.125375,0.156394,1,0,1,2.73,0.28,-1.33,-0.01952,-0.104188,-0.857416,-0.22722,0.0917,0.41734
0.719022,0,0,14.281,14.281,15.719,15.719,-0.513587,0.353604,11.9068,-0.123847,-0.0255177,0.136598,1,0,1,2.1175,0.07,-1.0675,-0.158478,-0.004392,-0.877058,-0.22722,0.0917,0.41734
0.720874,0,0,14.2791,14.2791,15.7209,15.7209,-0.51491,0.352927,11.9064,-0.123835,-0.0255408,0.136598,1,0,1,2.7475,-0.315,-1.085,-0.158478,-0.004392,-0.877058,-0.23002,0.08792,0.40768
0.72189,0,0,14.2781,14.2781,15.7219,15.7219,-0.515635,0.352374,11.9067,-0.218342,-0.0817317,-0.0923318,1,0,1,3.08,-0.245,-0.7,-0.253394,-0.060512,-1.10422,-0.23002,0.08792,0.40768
0.719579,0,0,14.2804,14.2804,15.7196,15.7196,-0.513985,0.352096,11.9076,-0.218337,-0.0817029,-0.0923315,1,0,1,4.41,-0.0875,-0.3325,-0.253394,-0.060512,-1.10422,-0.23002,0.08792,0.40768
0.55765,0,0,14.4423,14.4423,15.5577,15.5577,-0.398322,0.184049,12.0661,-0.125261,-0.111193,0.0210568,0,0,1,3.78,-0.07,-0.14,-0.16287,-0.091988,-0.991738,-0.23002,0.08792,0.40768
0.398647,0,0,14.6014,14.6014,15.3986,15.3986,-0.284748,0.0207029,12.2227,-0.122411,-0.109211,0.0210737,0,0,1,3.7625,0.3675,-0.14,-0.16287,-0.091988,-0.991738,-0.23002,0.08792,0.40768
0.474363,0,0,14.5256,14.5256,15.4744,15.4744,-0.338831,0.00631072,12.2982,-0.00541163,0.0455567,0.0612728,0,0,1,4.0075,0.455,0.1575,-0.045628,0.063562,-0.951844,-0.23002,0.08792,0.40768
0.548082,0,0,14.4519,14.4519,15.5481,15.5481,-0.391487,-0.00837497,12.3739,-0.00515532,0.0446377,0.0612669,0,0,1,4.2175,0,0.5075,-0.045628,0.063562,-0.951844,-0.23002,0.08792,0.40768
0.66249,0,0,14.3375,14.3375,15.6625,15.6625,-0.473207,-0.270919,12.6221,-0.168466,0.0579889,0.0597696,0,0,1,3.9725,0.2275,0.6125,-0.214232,0.078324,-0.953308,-0.23002,0.08792,0.40768
0.773143,0,0,14.2269,14.2269,15.7731,15.7731,-0.552245,-0.526951,12.8623,-0.163998,0.0566098,0.0597261,0,0,1,4.55,0.0525,0.56,-0.214232,0.078324,-0.953308,-0.23058,0.09212,0.40768
0.771562,0,0,14.2284,14.2284,15.7716,15.7716,-0.551116,-0.527011,12.8641,-0.0457912,-0.155505,-0.123836,1,0,1,4.13,0.035,0.175,-0.095526,-0.13359,-1.13545,-0.23058,0.09212,0.40768
0.772249,0,0,14.2278,14.2278,15.7722,15.7722,-0.551607,-0.527013,12.8656,-0.0457911,-0.155513,-0.123836,1,0,1,3.22,0.07,0.0175,-0.095526,-0.13359,-1.13545,-0.23058,0.09212,0.40768
0.774329,0,0,14.2257,14.2257,15.7743,15.7743,-0.553092,-0.5272,12.8666,-0.0948681,0.0934773,-0.137975,1,0,1,2.66,-0.035,-0.2625,-0.144814,0.115168,-1.14948,-0.23058,0.09212,0.40768
0.776967,0,0,14.223,14.223,15.777,15.777,-0.554976,-0.527095,12.8668,-0.0948699,0.0934444,-0.137976,1,0,1,2.4325,0.14,-0.7,-0.144814,0.115168,-1.14948,-0.23058,0.09212,0.40768
0.574025,0,0,14.426,14.426,15.574,15.574,-0.410018,-0.143835,12.641,0.253665,-0.11213,0.0435569,0,0,1,3.2375,0.1575,-0.84,0.211914,-0.09272,-0.969412,-0.23058,0.09212,0.40768
0.374025,0,0,14.626,14.626,15.374,15.374,-0.26716,0.230742,12.4173,0.247128,-0.109637,0.0435667,0,0,1,4.0775,0.6125,-1.2075,0.211914,-0.09272,-0.969412,-0.23058,0.09212,0.40768
0.323456,0,0,14.6765,14.6765,15.3235,15.3235,-0.23104,-0.372799,12.8651,-0.436265,-0.0658955,0.0735558,0,0,1,4.305,0.56,-1.365,-0.48495,-0.049654,-0.939644,-0.23058,0.09212,0.40768
0.272071,0,0,14.7279,14.7279,15.2721,15.2721,-0.194336,-0.957431,13.3185,-0.426062,-0.0652545,0.0734397,0,0,1,4.4625,0.4025,-1.365,-0.48495,-0.049654,-0.939644,-0.22274,0.0868,0.406
0.238699,0,0,14.7613,14.7613,15.2387,15.2387,-0.170499,-1.02921,13.4332,-0.0516052,-0.0234375,0.0176007,0,0,1,4.41,0.14,-1.5575,-0.110166,-0.008296,-0.995032,-0.22274,0.0868,0.406
0.207721,0,0,14.7923,14.7923,15.2077,15.2077,-0.148372,-1.09889,13.546,-0.0503894,-0.0230513,0.0175792,0,0,1,3.6575,0.3675,-2.0825,-0.110166,-0.008296,-0.995032,-0.22274,0.0868,0.406
0.208286,0,0,14.7917,14.7917,15.2083,15.2083,-0.148776,-1.09819,13.5438,0.572091,-0.05933,0.0231121,1,0,1,3.2375,0.49,-2.135,0.514962,-0.04453,-0.989542,-0.22274,0.0868,0.406
0.210594,0,0,14.7894,14.7894,15.2106,15.2106,-0.150425,-1.0981,13.5414,0.57209,-0.0593588,0.0231121,1,0,1,2.5375,0.14,-2.2575,0.514962,-0.04453,-0.989542,-0.22274,0.0868,0.406
0.213209,0,0,14.7868,14.7868,15.2132,15.2132,-0.152292,-1.0977,13.539,-0.112611,0.11354,-0.225367,1,0,1,2.415,0.315,-2.24,-0.17263,0.128222,-1.2361,-0.22274,0.0868,0.406
0.214793,0,0,14.7852,14.7852,15.2148,15.2148,-0.153423,-1.09776,13.5373,-0.11261,0.11352,-0.225367,1,0,1,2.835,0.0525,-1.855,-0.17263,0.128222,-1.2361,-0.22274,0.0868,0.406
0.138879,0,0,14.8611,14.8611,15.1389,15.1389,-0.0991992,-1.22195,13.683,-0.0976867,-0.0583427,-0.0341008,0,0,1,3.22,0.1575,-1.75,-0.15982,-0.044408,-1.04627,-0.22274,0.0868,0.406
0.0610204,0,0,14.939,14.939,15.061,15.061,-0.043586,-1.3438,13.8259,-0.0955604,-0.0573723,-0.0341472,0,0,1,4.5675,0,-1.26,-0.15982,-0.044408,-1.04627,-0.22386,0.08806,0.40404
0.179596,0,0,14.8204,14.8204,15.1796,15.1796,-0.128283,-1.35125,13.9128,0.00370174,0.0764663,0.00949423,0,0,1,4.1475,-0.035,-0.8225,-0.060268,0.090768,-1.00296,-0.22386,0.08806,0.40404
0.295805,0,0,14.7042,14.7042,15.2958,15.2958,-0.211289,-1.35838,13.9995,0.00382618,0.075018,0.009487,0,0,1,4.1825,-0.0875,-0.7175,-0.060268,0.090768,-1.00296,-0.22386,0.08806,0.40404
0.294928,0,0,14.7051,14.7051,15.2949,15.2949,-0.210663,-1.35845,14.0003,-0.0141524,0.0327731,-0.314974,1,0,1,3.85,0.035,-0.35,-0.078324,0.048556,-1.32492,-0.22386,0.08806,0.40404
0.294052,0,0,14.7059,14.7059,15.2941,15.2941,-0.210037,-1.35853,14.0012,-0.0141511,0.032784,-0.314974,1,0,1,3.85,0.035,-0.35,-0.078324,0.048556,-1.32492,-0.22386,0.08806,0.40404
-0.396753,0,0,15.3968,15.3968,14.6032,14.6032,0.283395,-1.09638,13.8161,0.140421,-0.445403,0.0799061,0,0,1,3.3075,0.4025,0.2275,0.081496,-0.437736,-0.933178,-0.22386,0.08806,0.40404
-1.07354,0,0,16.0735,16.0735,13.9265,13.9265,0.766817,-0.842165,13.6366,0.135985,-0.436967,0.0799038,0,0,1,2.9925,0.1925,0.315,0.081496,-0.437736,-0.933178,-0.22386,0.08806,0.40404
-1.34881,0,0,16.3488,16.3488,13.6512,13.6512,0.963433,-0.820031,13.6544,-0.00228792,-0.172795,0.0416206,0,0,1,2.9575,-0.1575,0.315,-0.056974,-0.177266,-0.97112,-0.22386,0.08806,0.40404
-1.61952,0,0,16.6195,16.6195,13.3805,13.3805,1.1568,-0.799205,13.672,-0.00265136,-0.169421,0.0415633,0,0,1,3.255,-0.28,0.21,-0.056974,-0.177266,-0.97112,-0.22386,0.08806,0.40404
-1.56765,0,0,16.5676,16.5676,13.4324,13.4324,1.11975,-0.480332,13.527,0.230382,0.0541583,-0.000901897,0,0,1,4.1475,-0.5425,0.0175,0.182634,0.046726,-1.01333,-0.23058,0.08484,0.40124
-1.56701,0,0,16.567,16.567,13.433,13.433,1.11929,-0.480408,13.5285,-0.0930121,-0.0102105,-0.145366,1,0,1,3.2375,0.0525,0.0175,-0.14213,-0.017568,-1.15668,-0.23058,0.08484,0.40124
-1.56655,0,0,16.5665,16.5665,13.4335,13.4335,1.11896,-0.480289,13.5291,-0.0930141,-0.0102162,-0.145366,1,0,1,3.3075,0.1575,-0.455,-0.14213,-0.017568,-1.15668,-0.23058,0.08484,0.40124
-1.56648,0,0,16.5665,16.5665,13.4335,13.4335,1.11891,-0.480562,13.53,-0.0764873,0.217305,-0.0988916,1,0,1,3.465,-0.07,-0.35,-0.125538,0.209718,-1.11057,-0.23058,0.08484,0.40124
-1.56642,0,0,16.5664,16.5664,13.4336,13.4336,1.11887,-0.480639,13.53,-0.076486,0.217304,-0.0988916,1,0,1,3.465,0.035,-0.84,-0.125538,0.209718,-1.11057,-0.23058,0.08484,0.40124
-1.56957,0,0,16.5696,16.5696,13.4304,13.4304,1.12112,-0.48043,13.5291,0.0477902,-0.0740509,-0.153113,1,0,1,4.7425,0.1925,-1.365,-0.000732,-0.081374,-1.16437,-0.23058,0.08484,0.40124
-1.57062,0,0,16.5706,16.5706,13.4294,13.4294,1.12187,-0.479734,13.5278,0.0477781,-0.0740378,-0.153113,1,0,1,3.9025,0.4725,-1.6275,-0.000732,-0.081374,-1.16437,-0.23058,0.08484,0.40124
-1.57251,0,0,16.5725,16.5725,13.4275,13.4275,1.12322,-0.479952,13.5259,0.309462,-0.126529,-0.137622,1,0,1,4.235,-0.07,-1.995,0.262056,-0.133834,-1.149,-0.23058,0.08484,0.40124
-1.5737,0,0,16.5737,16.5737,13.4263,13.4263,1.12407,-0.480472,13.5241,0.309471,-0.126514,-0.137622,1,0,1,3.955,-0.245,-1.8725,0.262056,-0.133834,-1.149,-0.2275,0.08442,0.40796
-1.5745,0,0,16.5745,16.5745,13.4255,13.4255,1.12464,-0.481732,13.522,0.138563,0.281033,0.181675,1,0,1,3.7975,-0.6825,-2.0825,0.090402,0.27328,-0.832162,-0.2275,0.08442,0.40796
-1.57298,0,0,16.573,16.573,13.427,13.427,1.12355,-0.48165,13.52,0.138561,0.281014,0.181675,1,0,1,2.87,0.105,-2.03,0.090402,0.27328,-0.832162,-0.2275,0.08442,0.40796
-1.7773,0,0,16.7773,16.7773,13.2227,13.2227,1.2695,-0.190455,13.3621,0.182802,-0.109931,0.0594409,0,0,1,4.41,0.1225,-2.0475,0.139934,-0.119804,-0.95343,-0.2275,0.08442,0.40796
-1.97649,0,0,16.9765,16.9765,13.0235,13.0235,1.41178,0.0932871,13.2071,0.17785,-0.107448,0.059387,0,0,1,4.27,0.14,-1.575,0.139934,-0.119804,-0.95343,-0.2275,0.08442,0.40796
-1.97774,0,0,16.9777,16.9777,13.0223,13.0223,1.41267,0.0944294,13.2062,0.135432,0.112273,0.202007,1,0,1,3.99,0.735,-1.435,0.097356,0.099674,-0.81191,-0.2275,0.08442,0.40796
-1.97908,0,0,16.9791,16.9791,13.0209,13.0209,1.41363,0.0956637,13.2063,0.13541,0.11229,0.202006,1,0,1,4.025,0.805,-0.7875,0.097356,0.099674,-0.81191,-0.2275,0.08442,0.40796
-2.28504,0,0,17.285,17.285,12.715,12.715,1.63217,0.0880022,13.2334,-0.0265181,-0.210464,-0.0250577,0,0,1,3.9375,0.735,-0.735,-0.065392,-0.226554,-1.03712,-0.2275,0.08442,0.40796
-2.58455,0,0,17.5845,17.5845,12.4155,12.4155,1.84611,0.0809792,13.2724,-0.0263955,-0.206732,-0.0251708,0,0,1,3.3775,0.0875,-0.28,-0.065392,-0.226554,-1.03712,-0.2212,0.07812,0.4039
-2.64119,0,0,17.6412,17.6412,12.3588,12.3588,1.88656,-0.00692576,13.3849,-0.0667739,-0.0454295,-0.0218732,0,0,1,2.5025,0.0875,-0.1225,-0.107482,-0.066124,-1.03383,-0.2212,0.07812,0.4039
-2.6975,0,0,17.6975,17.6975,12.3025,12.3025,1.92679,-0.0930896,13.4968,-0.06527,-0.0447279,-0.0218979,0,0,1,2.7475,-0.1225,0.07,-0.107482,-0.066124,-1.03383,-0.2212,0.07812,0.4039
-2.69666,0,0,17.6967,17.6967,12.3033,12.3033,1.92618,-0.0933481,13.4986,0.0213538,0.0584586,-0.191075,1,0,1,3.15,-0.035,0.2275,-0.020496,0.036966,-1.2017,-0.2212,0.07812,0.4039
-2.69668,0,0,17.6967,17.6967,12.3033,12.3033,1.9262,-0.0927448,13.5006,0.0213433,0.058459,-0.191075,1,0,1,3.5,0.4725,0.2975,-0.020496,0.036966,-1.2017,-0.2212,0.07812,0.4039
-2.19998,0,0,17.2,17.2,12.8,12.8,1.57142,0.0553658,13.5023,0.135142,0.330352,0.0732085,0,0,1,4.165,0.1925,0,0.09638,0.31476,-0.939644,-0.2212,0.07812,0.4039
-1.71104,0,0,16.711,16.711,13.289,13.289,1.22217,0.199994,13.5035,0.132617,0.324259,0.0733515,0,0,1,3.8325,-0.3325,0.2625,0.09638,0.31476,-0.939644,-0.2212,0.07812,0.4039
-1.54622,0,0,16.5462,16.5462,13.4538,13.4538,1.10444,0.367307,13.4627,0.122165,0.1141,0.0637888,0,0,1,4.6725,-0.21,-0.245,0.088816,0.106872,-0.94916,-0.2212,0.07812,0.4039
-1.38156,0,0,16.3816,16.3816,13.6184,13.6184,0.986828,0.53365,13.4138,0.119262,0.112047,0.0638034,0,0,1,3.29,-0.1225,-0.8925,0.088816,0.106872,-0.94916,-0.23478,0.08078,0.40726
-1.38132,0,0,16.3813,16.3813,13.6187,13.6187,0.986655,0.533229,13.413,0.0912061,0.110945,0.168802,1,0,1,3.395,-0.175,-1.3475,0.060634,0.105774,-0.844972,-0.23478,0.08078,0.40726
-1.38046,0,0,16.3805,16.3805,13.6195,13.6195,0.986042,0.532963,13.4118,0.0912107,0.110934,0.168802,1,0,1,3.15,-0.0875,-1.54,0.060634,0.105774,-0.844972,-0.23478,0.08078,0.40726
-0.94418,0,0,15.9442,15.9442,14.0558,14.0558,0.674415,0.618646,13.4333,0.0815758,0.275863,0.0936211,0,0,1,2.9575,-0.14,-1.855,0.05246,0.275964,-0.919636,-0.23478,0.08078,0.40726
-0.518329,0,0,15.5183,15.5183,14.4817,14.4817,0.370235,0.703219,13.4543,0.0800998,0.270554,0.0936525,0,0,1,4.0425,0.035,-1.96,0.05246,0.275964,-0.919636,-0.23478,0.08078,0.40726
-0.373962,0,0,15.374,15.374,14.626,14.626,0.267116,0.753057,13.4766,0.0422984,0.0964339,0.0314395,0,0,1,4.3925,0.1925,-1.785,0.015372,0.103822,-0.981368,-0.23478,0.08078,0.40726
-0.229731,0,0,15.2297,15.2297,14.7703,14.7703,0.164093,0.801815,13.4985,0.0414475,0.0946359,0.0314347,0,0,1,3.395,0.14,-1.89,0.015372,0.103822,-0.981368,-0.23478,0.08078,0.40726
-0.227933,0,0,15.2279,15.2279,14.7721,14.7721,0.16281,0.80264,13.4966,-0.497477,-0.0657389,-0.142415,1,0,1,2.7825,0.56,-1.9425,-0.52582,-0.056364,-1.15388,-0.23478,0.08078,0.40726
-0.229899,0,0,15.2299,15.2299,14.7701,14.7701,0.164213,0.802627,13.495,-0.497477,-0.0657144,-0.142415,1,0,1,4.2875,0.07,-1.8025,-0.52582,-0.056364,-1.15388,-0.22456,0.0826,0.40614
-0.231437,0,0,15.2314,15.2314,14.7686,14.7686,0.165312,0.802793,13.4939,-0.191579,0.0206484,-0.0934813,1,0,1,4.1125,0.175,-1.5225,-0.218624,0.02989,-1.10532,-0.22456,0.0826,0.40614
-0.235056,0,0,15.2351,15.2351,14.7649,14.7649,0.167897,0.803282,13.4941,-0.191588,0.0206935,-0.0934815,1,0,1,4.935,0.3675,-0.7,-0.218624,0.02989,-1.10532,-0.22456,0.0826,0.40614
-0.239343,0,0,15.2393,15.2393,14.7607,14.7607,0.17096,0.803083,13.495,-0.341133,0.0532326,-0.0874572,1,0,1,5.1975,-0.035,-0.3325,-0.368806,0.062342,-1.09934,-0.22456,0.0826,0.40614
-0.241405,0,0,15.2414,15.2414,14.7586,14.7586,0.172432,0.803242,13.4961,-0.341136,0.0532583,-0.0874573,1,0,1,4.305,0.175,-0.245,-0.368806,0.062342,-1.09934,-0.22456,0.0826,0.40614
-0.341108,0,0,15.3411,15.3411,14.6589,14.6589,0.243649,0.898674,13.4678,0.0571296,-0.0556572,0.063986,0,0,1,3.955,0.175,0.28,0.032818,-0.047702,-0.949038,-0.22456,0.0826,0.40614
-0.436451,0,0,15.4365,15.4365,14.5635,14.5635,0.311751,0.992421,13.44,0.0554937,-0.0544689,0.0639533,0,0,1,3.045,0.6475,0.3325,0.032818,-0.047702,-0.949038,-0.22456,0.0826,0.40614
-0.603876,0,0,15.6039,15.6039,14.3961,14.3961,0.43134,0.817283,13.5861,-0.135463,-0.120406,0.00964476,0,0,1,3.5875,0.4725,0.4375,-0.162016,-0.115656,-1.00296,-0.22456,0.0826,0.40614
-0.768219,0,0,15.7682,15.7682,14.2318,14.2318,0.548728,0.646276,13.7309,-0.132478,-0.118357,0.00966535,0,0,1,3.5,0.525,0.77,-0.162016,-0.115656,-1.00296,-0.22456,0.0826,0.40614
-0.413059,0,0,15.4131,15.4131,14.5869,14.5869,0.295042,1.1151,13.4854,0.358889,0.264967,0.09121,0,0,1,3.57,0.21,0.595,0.339648,0.271694,-0.921954,-0.22582,0.08344,0.4053
-0.414425,0,0,15.4144,15.4144,14.5856,14.5856,0.296018,1.11447,13.4879,-0.0735887,-0.0259218,-0.212596,1,0,1,4.0075,-0.28,0.595,-0.094672,-0.01891,-1.22342,-0.22582,0.08344,0.4053
-0.418633,0,0,15.4186,15.4186,14.5814,14.5814,0.299023,1.11481,13.4888,-0.0735946,-0.0258693,-0.212596,1,0,1,5.1625,0.28,-0.315,-0.094672,-0.01891,-1.22342,-0.22582,0.08344,0.4053
-0.423074,0,0,15.4231,15.4231,14.5769,14.5769,0.302195,1.1147,13.4887,0.0679381,0.224912,0.349032,1,0,1,5.2675,0.0175,-0.9275,0.047458,0.231556,-0.66612,-0.22582,0.08344,0.4053
-0.427312,0,0,15.4273,15.4273,14.5727,14.5727,0.305223,1.11383,13.4876,0.0679534,0.224965,0.349032,1,0,1,5.1975,-0.4375,-1.5225,0.047458,0.231556,-0.66612,-0.22582,0.08344,0.4053
-0.284605,0,0,15.2846,15.2846,14.7154,14.7154,0.203289,1.03212,13.5884,-0.0495553,0.0933657,-0.00182793,0,0,1,5.4775,-0.2625,-2.135,-0.07198,0.10187,-1.01431,-0.22582,0.08344,0.4053
-0.142114,0,0,15.1421,15.1421,14.8579,14.8579,0.10151,0.952772,13.688,-0.0481706,0.0915896,-0.00179922,0,0,1,4.4625,-0.14,-2.695,-0.07198,0.10187,-1.01431,-0.22582,0.08344,0.4053
-0.163716,0,0,15.1637,15.1637,14.8363,14.8363,0.11694,1.39621,13.4175,0.297736,0.0127204,0.105499,0,0,1,5.6175,-0.28,-3.0625,0.283162,0.022814,-0.90768,-0.22582,0.08344,0.4053
-0.183271,0,0,15.1833,15.1833,14.8167,14.8167,0.130908,1.83199,13.1431,0.290134,0.0129637,0.105284,0,0,1,5.25,-0.2625,-3.0275,0.283162,0.022814,-0.90768,-0.22904,0.08694,0.4011
-0.187865,0,0,15.1879,15.1879,14.8121,14.8121,0.13419,1.8315,13.1396,0.0698886,0.161283,0.256634,1,0,1,5.39,-0.21,-2.8875,0.061976,0.170922,-0.757498,-0.22904,0.08694,0.4011
-0.193921,0,0,15.1939,15.1939,14.8061,14.8061,0.138515,1.83078,13.1355,0.0699012,0.161358,0.256634,1,0,1,5.985,-0.35,-3.2025,0.061976,0.170922,-0.757498,-0.22904,0.08694,0.4011
-0.19809,0,0,15.1981,15.1981,14.8019,14.8019,0.141493,1.83032,13.1323,-0.330629,-0.202405,-0.0540569,1,0,1,5.215,-0.1925,-2.7475,-0.340258,-0.192516,-1.06579,-0.22904,0.08694,0.4011
-0.204302,0,0,15.2043,15.2043,14.7957,14.7957,0.14593,1.83088,13.1298,-0.330639,-0.202328,-0.0540574,1,0,1,6.02,0.4025,-2.31,-0.340258,-0.192516,-1.06579,-0.22904,0.08694,0.4011
-0.208184,0,0,15.2082,15.2082,14.7918,14.7918,0.148703,1.83098,13.1289,-0.0179365,-0.0591471,-0.328479,1,0,1,5.0575,0.14,-1.3475,-0.02623,-0.049532,-1.3381,-0.22904,0.08694,0.4011
-0.214548,0,0,15.2145,15.2145,14.7855,14.7855,0.153249,1.83076,13.1289,-0.0179326,-0.0590678,-0.328479,1,0,1,6.0375,-0.0525,-0.8925,-0.02623,-0.049532,-1.3381,-0.22904,0.08694,0.4011
-0.221906,0,0,15.2219,15.2219,14.7781,14.7781,0.158504,1.83059,13.1295,-0.222026,-0.312878,0.229953,1,0,1,6.4225,-0.0175,-0.4725,-0.23119,-0.30317,-0.783972,-0.22904,0.08694,0.4011
-0.226484,0,0,15.2265,15.2265,14.7735,14.7735,0.161774,1.83116,13.1315,-0.222036,-0.312821,0.229953,1,0,1,5.285,0.42,0.315,-0.23119,-0.30317,-0.783972,-0.22834,0.07868,0.39858
-0.230146,0,0,15.2301,15.2301,14.7699,14.7699,0.16439,1.83215,13.1346,0.270936,-0.292624,-0.0793864,1,0,1,4.9,0.665,0.91,0.263886,-0.28304,-1.09092,-0.22834,0.07868,0.39858
-0.232942,0,0,15.2329,15.2329,14.7671,14.7671,0.166387,1.83272,13.1378,0.270926,-0.292589,-0.0793868,1,0,1,4.55,0.42,1.015,0.263886,-0.28304,-1.09092,-0.22834,0.07868,0.39858
-0.0502811,0,0,15.0503,15.0503,14.9497,14.9497,0.0359151,1.91232,13.1346,0.0631335,0.12293,0.0448728,0,0,1,4.41,0.1925,1.12,0.056608,0.134322,-0.967582,-0.22834,0.07868,0.39858
0.130323,0,0,14.8697,14.8697,15.1303,15.1303,-0.0930882,1.98956,13.1322,0.0617862,0.12068,0.0448257,0,0,1,3.92,-0.2275,1.61,0.056608,0.134322,-0.967582,-0.22834,0.07868,0.39858
0.253701,0,0,14.7463,14.7463,15.2537,15.2537,-0.181215,1.52442,13.4916,-0.330273,0.0588116,0.0376941,0,0,1,5.285,0.175,1.3475,-0.34526,0.074054,-0.974902,-0.22834,0.07868,0.39858
0.373851,0,0,14.6261,14.6261,15.3739,15.3739,-0.267037,1.07002,13.8484,-0.322345,0.0573135,0.0378677,0,0,1,5.7575,0.035,0.805,-0.34526,0.074054,-0.974902,-0.22834,0.07868,0.39858
0.409431,0,0,14.5906,14.5906,15.4094,15.4094,-0.292451,1.09196,13.8831,0.0177968,0.0292694,0.00392456,0,0,1,6.2125,0.42,0.35,-0.003294,0.046482,-1.00857,-0.22834,0.07868,0.39858
0.444181,0,0,14.5558,14.5558,15.4442,15.4442,-0.317272,1.11273,13.9156,0.0174344,0.0288363,0.00391528,0,0,1,6.2825,-0.035,0.21,-0.003294,0.046482,-1.00857,-0.22904,0.0798,0.39592
0.439624,0,0,14.5604,14.5604,15.4396,15.4396,-0.314017,1.11254,13.9165,-0.280445,0.148699,-0.209892,1,0,1,5.3025,-0.035,-0.315,-0.302438,0.166164,-1.22073,-0.22904,0.0798,0.39592
0.429503,0,0,14.5705,14.5705,15.4295,15.4295,-0.306788,1.11145,13.9163,-0.280426,0.148826,-0.209891,1,0,1,7.5425,-0.56,-0.9625,-0.302438,0.166164,-1.22073,-0.22904,0.0798,0.39592
0.442992,0,0,14.557,14.557,15.443,15.443,-0.316423,1.37798,13.7759,0.205847,0.0322712,-0.0355288,0,0,1,7.1925,-0.4725,-1.715,0.190564,0.049898,-1.04761,-0.22904,0.0798,0.39592
0.461724,0,0,14.5383,14.5383,15.4617,15.4617,-0.329803,1.63891,13.6356,0.201294,0.0320384,-0.03565,0,0,1,5.285,-0.14,-2.0475,0.190564,0.049898,-1.04761,-0.22904,0.0798,0.39592
-0.182879,0,0,15.1829,15.1829,14.8171,14.8171,0.130628,1.46928,13.7248,-0.157652,-0.426575,0.129441,0,0,1,5.005,-0.455,-2.3625,-0.172874,-0.416264,-0.88389,-0.22904,0.0798,0.39592
-0.816905,0,0,15.8169,15.8169,14.1831,14.1831,0.583503,1.30298,13.8098,-0.15475,-0.418673,0.129462,0,0,1,4.9875,-0.1225,-3.29,-0.172874,-0.416264,-0.88389,-0.22904,0.0798,0.39592
-1.03031,0,0,16.0303,16.0303,13.9697,13.9697,0.735934,1.60708,13.62,0.192617,-0.114728,0.0799944,0,0,1,5.25,-0.5425,-3.08,0.181292,-0.11529,-0.932812,-0.22904,0.0798,0.39592
-1.24317,0,0,16.2432,16.2432,13.7568,13.7568,0.887979,1.90389,13.4297,0.187439,-0.112078,0.0797981,0,0,1,7.0175,-0.28,-2.6775,0.181292,-0.11529,-0.932812,-0.22974,0.0819,0.3962
-1.25136,0,0,16.2514,16.2514,13.7486,13.7486,0.893828,1.90428,13.4266,-0.139,0.186868,0.214671,1,0,1,6.825,0.28,-2.6775,-0.146522,0.183244,-0.798978,-0.22974,0.0819,0.3962
-1.26066,0,0,16.2607,16.2607,13.7393,13.7393,0.900469,1.90457,13.4238,-0.139005,0.186984,0.214669,1,0,1,7.2625,0.2275,-2.485,-0.146522,0.183244,-0.798978,-0.22974,0.0819,0.3962
-1.27133,0,0,16.2713,16.2713,13.7287,13.7287,0.908093,1.90459,13.4215,-0.236072,-0.0934086,-0.124302,1,0,1,7.805,0.07,-2.1875,-0.244,-0.09699,-1.13533,-0.22974,0.0819,0.3962
-1.27705,0,0,16.2771,16.2771,13.7229,13.7229,0.91218,1.90488,13.4208,-0.236078,-0.0933373,-0.124304,1,0,1,5.7925,0.245,-1.2775,-0.244,-0.09699,-1.13533,-0.22974,0.0819,0.3962
-1.28093,0,0,16.2809,16.2809,13.7191,13.7191,0.914952,1.90504,13.4208,-0.186636,0.0732919,-0.196106,1,0,1,5.04,0.175,-0.805,-0.194346,0.069418,-1.20658,-0.22974,0.0819,0.3962
-1.28697,0,0,16.287,16.287,13.713,13.713,0.919261,1.90508,13.4212,-0.186636,0.0733671,-0.196108,1,0,1,5.8975,0.105,-0.665,-0.194346,0.069418,-1.20658,-0.22974,0.0819,0.3962
-1.29233,0,0,16.2923,16.2923,13.7077,13.7077,0.923093,1.90544,13.4221,0.210251,0.0255602,-0.166724,1,0,1,5.6175,0.2975,-0.28,0.204228,0.021594,-1.17742,-0.22974,0.0819,0.3962
-1.29832,0,0,16.2983,16.2983,13.7017,13.7017,0.927374,1.90538,13.4244,0.210252,0.0256349,-0.166725,1,0,1,5.845,0.07,0.49,0.204228,0.021594,-1.17742,-0.22708,0.08148,0.39788
-1.30436,0,0,16.3044,16.3044,13.6956,13.6956,0.931685,1.90497,13.4267,0.124976,-0.162854,0.196341,1,0,1,5.8625,-0.14,0.4725,0.118584,-0.166774,-0.817156,-0.22708,0.08148,0.39788
-1.31059,0,0,16.3106,16.3106,13.6894,13.6894,0.936133,1.90431,13.4293,0.124988,-0.162776,0.19634,1,0,1,5.9325,-0.28,0.6825,0.118584,-0.166774,-0.817156,-0.22708,0.08148,0.39788
-1.44266,0,0,16.4427,16.4427,13.5573,13.5573,1.03047,1.72131,13.5664,-0.141032,-0.0986,-0.0306734,0,0,1,6.37,-0.21,0.56,-0.151768,-0.10431,-1.04249,-0.22708,0.08148,0.39788
-1.57056,0,0,16.5706,16.5706,13.4294,13.4294,1.12183,1.54283,13.7013,-0.137918,-0.0970047,-0.0306146,0,0,1,5.5825,-0.0875,0.21,-0.151768,-0.10431,-1.04249,-0.22708,0.08148,0.39788
-1.57762,0,0,16.5776,16.5776,13.4224,13.4224,1.12687,1.5428,13.7034,-0.118723,-0.0577141,-0.0947954,1,0,1,6.2825,0.0875,0.3675,-0.132492,-0.065148,-1.10617,-0.22708,0.08148,0.39788
-1.5878,0,0,16.5878,16.5878,13.4122,13.4122,1.13414,1.54222,13.7049,-0.118713,-0.0575872,-0.0947977,1,0,1,7.5425,-0.245,0.0175,-0.132492,-0.065148,-1.10617,-0.22708,0.08148,0.39788
-1.73619,0,0,16.7362,16.7362,13.2638,13.2638,1.24014,1.53359,13.7268,-0.0128697,-0.0961622,-0.034956,0,0,1,8.155,-0.2625,-0.2275,-0.026352,-0.10553,-1.04676,-0.22708,0.08148,0.39788
-1.88272,0,0,16.8827,16.8827,13.1173,13.1173,1.3448,1.52503,13.7484,-0.0127203,-0.0943365,-0.0349932,0,0,1,8.505,-0.21,-0.2275,-0.026352,-0.10553,-1.04676,-0.22708,0.08148,0.39788
-1.64509,0,0,16.6451,16.6451,13.3549,13.3549,1.17507,1.73784,13.6465,0.153404,0.172967,0.0758657,0,0,1,8.015,-0.07,-0.5775,0.144204,0.164456,-0.936716,-0.23282,0.08694,0.40292
-1.61043,0,0,16.6104,16.6104,13.3896,13.3896,1.15031,1.59987,13.7547,-0.0961505,0.0197562,-0.00593912,0,0,1,6.405,0.175,-0.8925,-0.108824,0.011834,-1.01797,-0.23282,0.08694,0.40292
-1.57346,0,0,16.5735,16.5735,13.4265,13.4265,1.1239,1.46407,13.8619,-0.0937811,0.0192968,-0.00586662,0,0,1,5.145,-0.56,-1.085,-0.108824,0.011834,-1.01797,-0.23282,0.08694,0.40292
-1.58629,0,0,16.5863,16.5863,13.4137,13.4137,1.13307,1.48665,13.8619,0.0186851,-0.00582378,-0.0528462,0,0,1,5.0225,-0.665,-1.26,0.004514,-0.01342,-1.06457,-0.23282,0.08694,0.40292
-1.60151,0,0,16.6015,16.6015,13.3985,13.3985,1.14393,1.50982,13.8621,0.0182808,-0.0056344,-0.0528606,0,0,1,6.09,0.0175,-1.1375,0.004514,-0.01342,-1.06457,-0.23282,0.08694,0.40292
-1.6117,0,0,16.6117,16.6117,13.3883,13.3883,1.15121,1.50982,13.8615,-0.0442843,0.270011,-0.163517,1,0,1,7.5775,0.07,-1.1725,-0.058316,0.261812,-1.17437,-0.23282,0.08694,0.40292
-1.62429,0,0,16.6243,16.6243,13.3757,13.3757,1.16021,1.50886,13.8607,-0.0442676,0.270167,-0.163519,1,0,1,8.54,-0.49,-1.3125,-0.058316,0.261812,-1.17437,-0.23282,0.08694,0.40292
-1.37789,0,0,16.3779,16.3779,13.6221,13.6221,0.98421,1.38193,13.9819,-0.0770407,0.166344,0.00798405,0,0,1,8.295,-0.1575,-1.5225,-0.093452,0.161162,-1.0043,-0.23282,0.08694,0.40292
-1.13451,0,0,16.1345,16.1345,13.8655,13.8655,0.810367,1.25784,14.1108,-0.0748756,0.163311,0.00808143,0,0,1,7.77,0.105,-1.645,-0.093452,0.161162,-1.0043,-0.23044,0.08218,0.40306
-1.14509,0,0,16.1451,16.1451,13.8549,13.8549,0.817924,1.25766,14.1099,-0.211908,-0.0674983,0.136684,1,0,1,7.735,-0.035,-1.3475,-0.231068,-0.06954,-0.876692,-0.23044,0.08218,0.40306
-1.15546,0,0,16.1555,16.1555,13.8445,13.8445,0.825327,1.25783,14.1092,-0.211911,-0.0673692,0.136682,1,0,1,7.6475,0.175,-1.295,-0.231068,-0.06954,-0.876692,-0.23044,0.08218,0.40306
-1.1632,0,0,16.1632,16.1632,13.8368,13.8368,0.830857,1.25833,14.1084,0.167844,-0.0405269,-0.201428,1,0,1,6.5975,0.3675,-1.3125,0.150304,-0.042822,-1.21219,-0.23044,0.08218,0.40306
-1.17024,0,0,16.1702,16.1702,13.8298,13.8298,0.835887,1.25809,14.1075,0.167848,-0.0404392,-0.201429,1,0,1,6.3175,-0.07,-1.33,0.150304,-0.042822,-1.21219,-0.23044,0.08218,0.40306
-1.35663,0,0,16.3566,16.3566,13.6434,13.6434,0.969023,1.60227,13.8904,0.225502,-0.0951521,0.075756,0,0,1,6.16,-0.07,-1.155,0.214232,-0.099796,-0.93696,-0.23044,0.08218,0.40306
-1.25023,0,0,16.2502,16.2502,13.7498,13.7498,0.893022,1.29822,14.123,-0.213588,0.0575261,0.00546235,0,0,1,5.985,-0.315,-1.1025,-0.232044,0.054046,-1.00687,-0.23044,0.08218,0.40306
-1.14668,0,0,16.1467,16.1467,13.8533,13.8533,0.819059,1.00284,14.3548,-0.208434,0.0562371,0.00558514,0,0,1,6.265,0.4375,-1.015,-0.232044,0.054046,-1.00687,-0.23044,0.08218,0.40306
-0.992969,0,0,15.993,15.993,14.007,14.007,0.709264,0.9615,14.4378,-0.0195308,0.10708,-0.0155241,0,0,1,6.475,0.315,-0.875,-0.043066,0.10675,-1.02785,-0.23254,0.07476,0.39872
-0.652289,0,0,15.6523,15.6523,14.3477,14.3477,0.465921,0.906353,14.5464,-0.0167462,0.252317,-0.0647672,0,0,1,7.6825,-0.2275,-0.7175,-0.041236,0.256078,-1.07677,-0.23254,0.07476,0.39872
-0.319336,0,0,15.3193,15.3193,14.6807,14.6807,0.228097,0.852604,14.6561,-0.0158082,0.248167,-0.0647277,0,0,1,8.295,-0.4025,-0.14,-0.041236,0.256078,-1.07677,-0.23254,0.07476,0.39872
-0.19439,0,0,15.1944,15.1944,14.8056,14.8056,0.13885,0.585696,14.89,-0.183295,0.0755101,0.0162359,0,0,1,8.785,-0.385,-0.28,-0.21411,0.085156,-0.996496,-0.23254,0.07476,0.39872
-0.0725512,0,0,15.0726,15.0726,14.9274,14.9274,0.0518223,0.325321,15.1231,-0.178751,0.0739913,0.0162746,0,0,1,9.0475,-0.3675,-0.21,-0.21411,0.085156,-0.996496,-0.23254,0.07476,0.39872
-0.0861397,0,0,15.0861,15.0861,14.9139,14.9139,0.0615283,0.324646,15.1244,0.0785674,0.16429,-0.140116,1,0,1,8.925,-0.315,-0.07,0.044286,0.175192,-1.15168,-0.23254,0.07476,0.39872
-0.0949231,0,0,15.0949,15.0949,14.9051,14.9051,0.0678022,0.325135,15.126,0.0785588,0.1644,-0.140116,1,0,1,7,0.3675,0.07,0.044286,0.175192,-1.15168,-0.23254,0.07476,0.39872
-0.0746413,0,0,15.0746,15.0746,14.9254,14.9254,0.0533152,0.502825,15.0623,0.130855,0.0280977,0.00641627,0,0,1,5.3375,0.0875,0.105,0.099918,0.039284,-1.00626,-0.23254,0.07476,0.39872
-0.0543826,0,0,15.0544,15.0544,14.9456,14.9456,0.0388447,0.675903,14.9883,0.127834,0.0278451,0.0063854,0,0,1,5.4425,0.0525,-0.315,0.099918,0.039284,-1.00626,-0.2261,0.0819,0.39522
-0.0606405,0,0,15.0606,15.0606,14.9394,14.9394,0.0433147,0.675706,14.9896,-0.229937,-0.142322,0.340191,1,0,1,5.985,-0.035,-0.0875,-0.259372,-0.130784,-0.675026,-0.2261,0.0819,0.39522
-0.0715738,0,0,15.0716,15.0716,14.9284,14.9284,0.0511242,0.675628,14.9909,-0.229936,-0.142185,0.34019,1,0,1,7.8575,0.035,-0.105,-0.259372,-0.130784,-0.675026,-0.2261,0.0819,0.39522
0.0478737,0,0,14.9521,14.9521,15.0479,15.0479,-0.0341955,0.0543486,15.4535,-0.452224,0.0473319,0.0909202,0,0,1,8.155,0.07,-0.1575,-0.49349,0.060024,-0.922442,-0.2261,0.0819,0.39522
0.163581,0,0,14.8364,14.8364,15.1636,15.1636,-0.116843,-0.553289,15.9128,-0.441619,0.0458895,0.0908721,0,0,1,9.0125,-0.0525,-0.6125,-0.49349,0.060024,-0.922442,-0.2261,0.0819,0.39522
0.150572,0,0,14.8494,14.8494,15.1506,15.1506,-0.107552,-0.553305,15.9129,0.297379,0.285054,-0.0684688,1,0,1,8.6975,0.07,-0.7875,0.248636,0.298778,-1.08055,-0.2261,0.0819,0.39522
0.138569,0,0,14.8614,14.8614,15.1386,15.1386,-0.098978,-0.553681,15.913,0.297385,0.285203,-0.0684686,1,0,1,8.295,-0.14,-0.7875,0.248636,0.298778,-1.08055,-0.2261,0.0819,0.39522
0.125944,0,0,14.8741,14.8741,15.1259,15.1259,-0.0899601,-0.553998,15.9124,-0.0535812,-0.226228,-0.0811321,1,0,1,8.54,-0.105,-1.225,-0.103822,-0.21228,-1.09312,-0.2261,0.0819,0.39522
0.113917,0,0,14.8861,14.8861,15.1139,15.1139,-0.0813694,-0.554316,15.9107,-0.0535757,-0.226078,-0.0811319,1,0,1,8.295,-0.105,-1.82,-0.103822,-0.21228,-1.09312,-0.22582,0.07658,0.39312
0.287672,0,0,14.7123,14.7123,15.2877,15.2877,-0.20548,-1.09923,16.3466,-0.421765,0.0929495,0.00294515,0,0,1,7.5775,-0.385,-1.6275,-0.48312,0.10858,-1.00955,-0.22582,0.07658,0.39312
0.458453,0,0,14.5415,14.5415,15.4585,15.4585,-0.327466,-1.63181,16.7806,-0.412473,0.0908222,0.00271374,0,0,1,7.6825,-0.49,-1.6275,-0.48312,0.10858,-1.00955,-0.22582,0.07658,0.39312
0.447306,0,0,14.5527,14.5527,15.4473,15.4473,-0.319504,-1.63268,16.7791,0.192177,0.187808,-0.0912186,1,0,1,7.9275,-0.42,-1.7325,0.124074,0.205326,-1.10276,-0.22582,0.07658,0.39312
0.435898,0,0,14.5641,14.5641,15.4359,15.4359,-0.311356,-1.63246,16.7776,0.192173,0.18795,-0.0912177,1,0,1,8.0325,0.21,-1.715,0.124074,0.205326,-1.10276,-0.22582,0.07658,0.39312
0.133571,0,0,14.8664,14.8664,15.1336,15.1336,-0.095408,-1.91487,16.9935,-0.248145,-0.225956,-0.0019733,0,0,1,8.4175,0.315,-1.645,-0.323056,-0.211914,-1.01406,-0.22582,0.07658,0.39312
-0.165304,0,0,15.1653,15.1653,14.8347,14.8347,0.118074,-2.1915,17.2062,-0.24332,-0.222233,-0.00214701,0,0,1,8.96,0.21,-1.4,-0.323056,-0.211914,-1.01406,-0.22582,0.07658,0.39312
-0.569274,0,0,15.5693,15.5693,14.4307,14.4307,0.406624,-1.94795,17.066,0.152849,-0.257745,-0.0274669,0,0,1,8.8375,0.1225,-1.3825,0.079056,-0.252418,-1.03932,-0.22582,0.07658,0.39312
-0.968989,0,0,15.969,15.969,14.031,14.031,0.692135,-1.71093,16.9298,0.148714,-0.252763,-0.0273826,0,0,1,10.3075,-0.5775,-1.0325,0.079056,-0.252418,-1.03932,-0.23366,0.07504,0.40082
-1.45176,0,0,16.4518,16.4518,13.5482,13.5482,1.03697,-1.58162,16.8493,0.055465,-0.289736,0.0796796,0,0,1,10.185,-0.56,-0.77,-0.012322,-0.295362,-0.933056,-0.23366,0.07504,0.40082
-1.9253,0,0,16.9253,16.9253,13.0747,13.0747,1.37522,-1.45591,16.7714,0.0532718,-0.283834,0.0796135,0,0,1,10.22,-0.2275,-0.5075,-0.012322,-0.295362,-0.933056,-0.23366,0.07504,0.40082
-1.9406,0,0,16.9406,16.9406,13.0594,13.0594,1.38614,-1.45663,16.7722,0.00371826,-0.108636,-0.218664,1,0,1,9.625,-0.3325,-0.3675,-0.062098,-0.120536,-1.22903,-0.23366,0.07504,0.40082
-1.95115,0,0,16.9511,16.9511,13.0489,13.0489,1.39368,-1.45783,16.7738,0.00373905,-0.108505,-0.218668,1,0,1,7.735,-0.595,0.105,-0.062098,-0.120536,-1.22903,-0.23366,0.07504,0.40082
-2.20882,0,0,17.2088,17.2088,12.7912,12.7912,1.57773,-1.39759,16.7643,0.0240695,-0.146573,0.0859412,0,0,1,7.5775,-0.5075,0.0175,-0.040626,-0.161772,-0.926712,-0.23366,0.07504,0.40082
-2.46303,0,0,17.463,17.463,12.537,12.537,1.75931,-1.33938,16.7552,0.0230539,-0.143405,0.0858732,0,0,1,8.19,-0.5075,0,-0.040626,-0.161772,-0.926712,-0.23366,0.07504,0.40082
-2.24311,0,0,17.2431,17.2431,12.7569,12.7569,1.60222,-1.45877,16.9174,-0.0606319,0.139264,0.0717636,0,0,1,8.68,-0.1225,0.035,-0.126758,0.123342,-0.940742,-0.23366,0.07504,0.40082
-2.02984,0,0,17.0298,17.0298,12.9702,12.9702,1.44988,-1.57335,17.0789,-0.0586329,0.136606,0.0717815,0,0,1,9.485,0.1225,0.0875,-0.126758,0.123342,-0.940742,-0.22624,0.077,0.40124
-2.04505,0,0,17.0451,17.0451,12.9549,12.9549,1.46075,-1.57353,17.0806,0.228441,-0.204061,0.18243,1,0,1,9.6075,0,0.1575,0.161528,-0.21716,-0.830942,-0.22624,0.077,0.40124
-2.30534,0,0,17.3053,17.3053,12.6947,12.6947,1.64667,-1.68501,17.1778,-0.11026,-0.186165,-0.0507004,0,0,1,9.9575,-0.3325,-0.14,-0.18056,-0.20252,-1.06213,-0.22624,0.077,0.40124
-2.56187,0,0,17.5619,17.5619,12.4381,12.4381,1.8299,-1.79483,17.2731,-0.108344,-0.182971,-0.0508555,0,0,1,10.2375,-0.6125,-0.4725,-0.18056,-0.20252,-1.06213,-0.22624,0.077,0.40124
-2.57875,0,0,17.5787,17.5787,12.4213,12.4213,1.84196,-1.79585,17.2735,-0.44144,0.0545312,-0.0581168,1,0,1,10.255,-0.5075,-0.595,-0.515084,0.034526,-1.06933,-0.22624,0.077,0.40124
-2.52045,0,0,17.5205,17.5205,12.4795,12.4795,1.80032,-1.38335,17.0763,0.304574,0.083244,0.0496859,0,0,1,11.0075,-0.0875,-0.945,0.241316,0.063928,-0.96258,-0.22624,0.077,0.40124
-2.46188,0,0,17.4619,17.4619,12.5381,12.5381,1.75849,-0.979658,16.8793,0.29753,0.0825189,0.0498537,0,0,1,11.0075,-0.0875,-0.945,0.241316,0.063928,-0.96258,-0.22624,0.077,0.40124
-2.48006,0,0,17.4801,17.4801,12.5199,12.5199,1.77147,-0.980738,16.8789,-0.0750475,0.0348717,0.181155,1,0,1,10.7625,-0.56,-1.085,-0.132858,0.016104,-0.832284,-0.22624,0.077,0.40124
-2.49619,0,0,17.4962,17.4962,12.5038,12.5038,1.78299,-0.981266,16.878,-0.372921,0.139125,-0.0331502,1,0,1,9.94,-0.245,-1.3475,-0.432002,0.120048,-1.04493,-0.23128,0.07784,0.39914
-2.51133,0,0,17.5113,17.5113,12.4887,12.4887,1.79381,-0.980765,16.8768,-0.223988,-0.113123,-0.249545,1,0,1,9.5375,0.35,-1.61,-0.28243,-0.132126,-1.25965,-0.23128,0.07784,0.39914
-2.01057,0,0,17.0106,17.0106,12.9894,12.9894,1.43612,-1.22633,17.1423,-0.124459,0.305026,0.135008,0,0,1,10.0275,0.5075,-1.2425,-0.186782,0.291824,-0.878156,-0.23128,0.07784,0.39914
-1.51663,0,0,16.5166,16.5166,13.4834,13.4834,1.08331,-1.46637,17.4091,-0.12027,0.29887,0.135045,0,0,1,9.38,0.1575,-1.2775,-0.186782,0.291824,-0.878156,-0.23128,0.07784,0.39914
-1.39316,0,0,16.3932,16.3932,13.6068,13.6068,0.995114,-1.58995,17.5591,-0.0848271,0.0877605,-0.0569072,0,0,1,9.59,-0.4025,-1.19,-0.153354,0.082472,-1.0686,-0.23128,0.07784,0.39914
-1.27471,0,0,16.2747,16.2747,13.7253,13.7253,0.910506,-1.71075,17.7085,-0.0827195,0.0862836,-0.0569434,0,0,1,10.6225,-0.63,-1.12,-0.153354,0.082472,-1.0686,-0.23128,0.07784,0.39914
-1.16079,0,0,16.1608,16.1608,13.8392,13.8392,0.829139,-1.45936,17.6192,0.190975,0.105261,0.0478287,0,0,1,10.8325,-0.4725,-1.2425,0.125904,0.102846,-0.964776,-0.23128,0.07784,0.39914
-1.04893,0,0,16.0489,16.0489,13.9511,13.9511,0.749233,-1.21344,17.5308,0.186684,0.103868,0.047948,0,0,1,11.095,-0.5075,-0.595,0.125904,0.102846,-0.964776,-0.23128,0.07784,0.39914
-1.05566,0,0,16.0557,16.0557,13.9443,13.9443,0.754046,-1.31224,17.6454,-0.0663472,0.00209826,0.0508596,0,0,1,11.375,-0.5425,-0.5775,-0.12993,0.001098,-0.961848,-0.22652,0.07966,0.40152
-1.0723,0,0,16.0723,16.0723,13.9277,13.9277,0.765931,-0.978147,17.4766,0.262759,0.0274653,-0.0357053,0,0,1,10.8675,-1.015,-0.4725,0.206424,0.02623,-1.04786,-0.22652,0.07966,0.40152
-1.08529,0,0,16.0853,16.0853,13.9147,13.9147,0.77521,-0.651161,17.3095,0.257053,0.0276283,-0.0356263,0,0,1,9.9575,-0.8225,0.1225,0.206424,0.02623,-1.04786,-0.22652,0.07966,0.40152
-1.10126,0,0,16.1013,16.1013,13.8987,13.8987,0.786617,-0.651934,17.3102,-0.113222,-0.179544,0.205473,1,0,1,9.8875,-0.3675,-0.4375,-0.165432,-0.180926,-0.808616,-0.22652,0.07966,0.40152
-1.11513,0,0,16.1151,16.1151,13.8849,13.8849,0.796522,-0.65113,17.3113,-0.113236,-0.179371,0.205471,1,0,1,9.0475,0.56,-0.21,-0.165432,-0.180926,-0.808616,-0.22652,0.07966,0.40152
-1.03944,0,0,16.0394,16.0394,13.9606,13.9606,0.742456,-0.775242,17.4465,-0.079727,0.0489171,0.0554591,0,0,1,8.9075,0.1575,-0.1575,-0.133956,0.048068,-0.957456,-0.22652,0.07966,0.40152
-0.970871,0,0,15.9709,15.9709,14.0291,14.0291,0.69348,-0.897892,17.5814,-0.0775866,0.048062,0.0554386,0,0,1,11.13,-0.77,0.14,-0.133956,0.048068,-0.957456,-0.22652,0.07966,0.40152
-0.695265,0,0,15.6953,15.6953,14.3047,14.3047,0.496618,-0.693157,17.5311,0.165942,0.20327,0.0932691,0,0,1,12.1275,-1.1725,0.245,0.114192,0.206546,-0.920002,-0.22652,0.07966,0.40152
-0.425987,0,0,15.426,15.426,14.574,14.574,0.304276,-0.492949,17.4891,0.162448,0.199913,0.0933287,0,0,1,13.16,-0.4375,-0.385,0.114192,0.206546,-0.920002,-0.22834,0.07266,0.39718
-0.449563,0,0,15.4496,15.4496,14.5504,14.5504,0.321117,-0.493418,17.4898,-0.26651,0.018849,-0.176176,1,0,1,12.9325,-0.1925,-0.4375,-0.31659,0.025376,-1.18743,-0.22834,0.07266,0.39718
-0.470051,0,0,15.4701,15.4701,14.5299,14.5299,0.335751,-0.494269,17.4894,-0.266495,0.0191044,-0.176178,1,0,1,11.69,-0.42,-1.1025,-0.31659,0.025376,-1.18743,-0.22834,0.07266,0.39718
-0.488309,0,0,15.4883,15.4883,14.5117,14.5117,0.348792,-0.494673,17.489,-0.0623917,0.176021,-0.109787,1,0,1,10.7975,-0.1575,-1.0675,-0.11163,0.181902,-1.12155,-0.22834,0.07266,0.39718
-0.507444,0,0,15.5074,15.5074,14.4926,14.4926,0.36246,-0.496001,17.4884,-0.0623685,0.176259,-0.109789,1,0,1,11.1475,-0.7,-1.19,-0.11163,0.181902,-1.12155,-0.22834,0.07266,0.39718
-0.878609,0,0,15.8786,15.8786,14.1214,14.1214,0.627578,-0.468237,17.473,-0.00757708,-0.253641,-0.0508092,0,0,1,11.585,-0.385,-1.3475,-0.05612,-0.252174,-1.06299,-0.22834,0.07266,0.39718
-1.24568,0,0,16.2457,16.2457,13.7543,13.7543,0.889775,-0.441519,17.4575,-0.00804338,-0.249065,-0.0508661,0,0,1,12.6875,-0.1575,-1.6625,-0.05612,-0.252174,-1.06299,-0.22834,0.07266,0.39718
-1.18228,0,0,16.1823,16.1823,13.8177,13.8177,0.844488,-0.212896,17.3655,0.170195,0.0732922,0.0444537,0,0,1,12.1975,-0.14,-1.47,0.12688,0.070638,-0.968436,-0.22834,0.07266,0.39718
-1.11719,0,0,16.1172,16.1172,13.8828,13.8828,0.797993,0.0102562,17.2734,0.1663,0.0724809,0.0444722,0,0,1,11.305,-0.4025,-1.54,0.12688,0.070638,-0.968436,-0.22834,0.07266,0.39718
-1.13605,0,0,16.1361,16.1361,13.8639,13.8639,0.811468,0.00933137,17.2721,0.0856499,0.266531,0.341513,1,0,1,11.0425,-0.4725,-1.61,0.045872,0.264252,-0.673684,-0.2275,0.0679,0.39536
-1.15418,0,0,16.1542,16.1542,13.8458,13.8458,0.824412,0.00867394,17.2709,-0.397001,-0.100722,-0.164178,1,0,1,10.745,-0.315,-1.54,-0.438834,-0.102846,-1.17547,-0.2275,0.0679,0.39536
-1.17877,0,0,16.1788,16.1788,13.8212,13.8212,0.841977,0.00754917,17.2711,-0.396982,-0.100416,-0.164182,1,0,1,13.335,-0.5775,-0.7525,-0.438834,-0.102846,-1.17547,-0.2275,0.0679,0.39536
-1.20296,0,0,16.203,16.203,13.797,13.797,0.85926,0.00648766,17.271,-0.414943,0.0620702,-0.176851,1,0,1,13.1775,-0.5425,-0.8925,-0.45689,0.05917,-1.18804,-0.2275,0.0679,0.39536
-1.23022,0,0,16.2302,16.2302,13.7698,13.7698,0.878729,0.00540843,17.2721,-0.414924,0.0624099,-0.176856,1,0,1,14.4025,-0.5425,-0.21,-0.45689,0.05917,-1.18804,-0.2275,0.0679,0.39536
-1.3536,0,0,16.3536,16.3536,13.6464,13.6464,0.966859,0.0434834,17.2851,0.0228532,-0.0700251,-0.0744646,0,0,1,13.0725,-0.6125,0.0175,-0.016592,-0.074664,-1.08641,-0.2275,0.0679,0.39536
-1.47103,0,0,16.471,16.471,13.529,13.529,1.05074,0.0810331,17.2985,0.0221978,-0.0685614,-0.0744911,0,0,1,11.6375,-0.245,0.2975,-0.016592,-0.074664,-1.08641,-0.2275,0.0679,0.39536
-1.49055,0,0,16.4906,16.4906,13.5094,13.5094,1.06468,0.080895,17.3002,0.0220787,-0.0982391,-0.108183,1,0,1,11.305,0.0175,0.14,-0.016714,-0.104554,-1.11984,-0.2275,0.0679,0.39536
-1.51047,0,0,16.5105,16.5105,13.4895,13.4895,1.07891,0.079248,17.3027,0.0221075,-0.0979909,-0.108188,1,0,1,11.4625,-0.8575,0.6125,-0.016714,-0.104554,-1.11984,-0.22582,0.0742,0.39522
-1.53157,0,0,16.5316,16.5316,13.4684,13.4684,1.09398,0.0779368,17.3048,-0.0103063,0.079478,0.150245,1,0,1,11.935,-0.665,0.3675,-0.049288,0.072468,-0.863394,-0.22582,0.0742,0.39522
-1.55883,0,0,16.5588,16.5588,13.4412,13.4412,1.11345,0.0752736,17.3072,-0.0102598,0.0798178,0.150238,1,0,1,14.4025,-1.4525,0.595,-0.049288,0.072468,-0.863394,-0.22582,0.0742,0.39522
-1.56912,0,0,16.5691,16.5691,13.4309,13.4309,1.1208,-0.0967431,17.4577,-0.131173,-0.00151253,-0.0518922,0,0,1,14.875,-1.1725,0.2275,-0.173728,-0.008906,-1.06396,-0.22582,0.0742,0.39522
-1.57711,0,0,16.5771,16.5771,13.4229,13.4229,1.1265,-0.26372,17.6061,-0.128259,-0.00141314,-0.0519033,0,0,1,13.9125,-0.595,-0.4025,-0.173728,-0.008906,-1.06396,-0.22582,0.0742,0.39522
-1.60174,0,0,16.6017,16.6017,13.3983,13.3983,1.1441,-0.265418,17.6064,0.43267,0.0737576,-0.110556,1,0,1,13.3525,-0.91,-0.6125,0.389546,0.06588,-1.12216,-0.22582,0.0742,0.39522
-1.6252,0,0,16.6252,16.6252,13.3748,13.3748,1.16085,-0.266707,17.6058,0.432693,0.0740499,-0.110562,1,0,1,12.88,-0.6825,-1.2075,0.389546,0.06588,-1.12216,-0.22582,0.0742,0.39522
-1.36111,0,0,16.3611,16.3611,13.6389,13.6389,0.972223,-0.340783,17.7273,-0.0326408,0.196304,-0.0168208,0,0,1,13.5625,-0.9625,-2.0125,-0.079056,0.191296,-1.02919,-0.22582,0.0742,0.39522
-1.10448,0,0,16.1045,16.1045,13.8955,13.8955,0.788911,-0.414431,17.8534,-0.0313554,0.193105,-0.0167801,0,0,1,14.91,-0.945,-2.31,-0.079056,0.191296,-1.02919,-0.23002,0.06958,0.39144
-0.732034,0,0,15.732,15.732,14.268,14.268,0.522882,-0.557374,18.0413,-0.0789128,0.278836,-0.0403542,0,0,1,14.49,-0.525,-1.7325,-0.12932,0.281576,-1.05262,-0.23002,0.06958,0.39144
-0.761373,0,0,15.7614,15.7614,14.2386,14.2386,0.543838,-0.55752,18.0392,0.169771,0.0135764,-0.103307,1,0,1,15.225,-0.0175,-2.1,0.120414,0.016226,-1.11508,-0.23002,0.06958,0.39144
-0.786039,0,0,15.786,15.786,14.214,14.214,0.561457,-0.558709,18.0368,0.169792,0.0138839,-0.10331,1,0,1,13.3525,-0.63,-2.24,0.120414,0.016226,-1.11508,-0.23002,0.06958,0.39144
-0.809701,0,0,15.8097,15.8097,14.1903,14.1903,0.578358,-0.559569,18.0344,0.102261,-0.0631274,0.359834,1,0,1,12.95,-0.4375,-2.24,0.052582,-0.061,-0.655506,-0.23002,0.06958,0.39144
-0.835974,0,0,15.836,15.836,14.164,14.164,0.597124,-0.560017,18.0327,0.102268,-0.0627999,0.35983,1,0,1,14,-0.1925,-1.82,0.052582,-0.061,-0.655506,-0.23002,0.06958,0.39144
-0.862274,0,0,15.8623,15.8623,14.1377,14.1377,0.61591,-0.560538,18.0323,-0.00620916,-0.184599,0.153396,1,0,1,14.0175,-0.2275,-1.1025,-0.056364,-0.183,-0.860344,-0.23002,0.06958,0.39144
-0.892754,0,0,15.8928,15.8928,14.1072,14.1072,0.637682,-0.561757,18.033,-0.00618787,-0.184219,0.153392,1,0,1,15.6975,-0.63,-0.4375,-0.056364,-0.183,-0.860344,-0.23002,0.06958,0.39144
-0.922878,0,0,15.9229,15.9229,14.0771,14.0771,0.659199,-0.563042,18.0342,0.112283,0.212702,0.279532,1,0,1,15.5575,-0.665,-0.1575,0.062586,0.213134,-0.735172,-0.22708,0.06818,0.3906
-0.952455,0,0,15.9525,15.9525,14.0475,14.0475,0.680325,-0.564855,18.037,0.113408,-0.0221453,0.224201,1,0,1,15.3475,-0.9625,0.805,0.063684,-0.021838,-0.790072,-0.22708,0.06818,0.3906
-0.9843,0,0,15.9843,15.9843,14.0157,14.0157,0.703072,-0.565746,18.0401,0.113424,-0.0217483,0.224196,1,0,1,16.2575,-0.42,0.945,0.063684,-0.021838,-0.790072,-0.22708,0.06818,0.3906
-1.01457,0,0,16.0146,16.0146,13.9854,13.9854,0.724694,-0.566848,18.0432,-0.203513,0.303975,-0.0912948,1,0,1,15.6275,-0.5425,0.9975,-0.254614,0.30317,-1.10312,-0.22708,0.06818,0.3906
-1.04222,0,0,16.0422,16.0422,13.9578,13.9578,0.744444,-0.568069,18.0463,-0.203492,0.304319,-0.0912994,1,0,1,14.5775,-0.6125,0.9275,-0.254614,0.30317,-1.10312,-0.22708,0.06818,0.3906
-0.726888,0,0,15.7269,15.7269,14.2731,14.2731,0.519206,-0.432916,18.0568,0.122525,0.229311,0.0983511,0,0,1,15.3475,-0.665,0.875,0.075152,0.232166,-0.915,-0.22708,0.06818,0.3906
-0.415745,0,0,15.4157,15.4157,14.5843,14.5843,0.296961,-0.299877,18.0659,0.120203,0.225432,0.0983936,0,0,1,14.8925,-0.525,0.42,0.075152,0.232166,-0.915,-0.22708,0.06818,0.3906
-0.509947,0,0,15.5099,15.5099,14.4901,14.4901,0.364248,-0.193637,18.0403,0.0820247,-0.0375533,-0.0914377,0,0,1,16.0825,-0.665,0.1225,0.038674,-0.03172,-1.10337,-0.22708,0.06818,0.3906
-0.602822,0,0,15.6028,15.6028,14.3972,14.3972,0.430587,-0.0896308,18.0109,0.0802095,-0.0363955,-0.0914413,0,0,1,16.275,-0.7,-0.6825,0.038674,-0.03172,-1.10337,-0.22946,0.06958,0.38472
-0.632307,0,0,15.6323,15.6323,14.3677,14.3677,0.451648,-0.0914396,18.0109,0.0203486,-0.093916,-0.258408,1,0,1,15.295,-0.98,-0.8925,-0.021472,-0.089548,-1.26904,-0.22946,0.06958,0.38472
-0.661009,0,0,15.661,15.661,14.339,14.339,0.472149,-0.0938304,18.0089,0.0203903,-0.0935582,-0.258411,1,0,1,14.98,-1.33,-2.0125,-0.021472,-0.089548,-1.26904,-0.22946,0.06958,0.38472
-0.758748,0,0,15.7587,15.7587,14.2413,14.2413,0.541963,-0.0950489,18.0418,-0.0051004,-0.0480078,-0.0270329,0,0,1,14.9625,-1.05,-1.9425,-0.047092,-0.045262,-1.03944,-0.22946,0.06958,0.38472
-0.86239,0,0,15.8624,15.8624,14.1376,14.1376,0.615993,-0.0961806,18.0735,-0.00508065,-0.0467158,-0.027046,0,0,1,18.0425,-0.91,-2.52,-0.047092,-0.045262,-1.03944,-0.22946,0.06958,0.38472
-0.870847,0,0,15.8708,15.8708,14.1292,14.1292,0.622034,-0.275506,18.2306,-0.127446,0.0061483,0.022368,0,0,1,18.62,-1.015,-2.415,-0.173118,0.007442,-0.990396,-0.22946,0.06958,0.38472
-0.876806,0,0,15.8768,15.8768,14.1232,14.1232,0.62629,-0.449175,18.387,-0.124415,0.00622237,0.022348,0,0,1,17.5525,-0.14,-2.2225,-0.173118,0.007442,-0.990396,-0.22946,0.06958,0.38472
-0.912385,0,0,15.9124,15.9124,14.0876,14.0876,0.651703,-0.450038,18.3852,0.149308,-0.0467035,0.216233,1,0,1,17.7275,-0.4375,-1.9075,0.101748,-0.045872,-0.798002,-0.22946,0.06958,0.38472
-0.944239,0,0,15.9442,15.9442,14.0558,14.0558,0.674456,-0.451867,18.3843,0.14934,-0.0463064,0.216228,1,0,1,16.24,-0.9975,-1.3825,0.101748,-0.045872,-0.798002,-0.23072,0.06118,0.39172
-0.831151,0,0,15.8312,15.8312,14.1688,14.1688,0.593679,-0.151672,18.2655,0.252101,0.128147,-0.0314701,0,0,1,15.155,0.1575,-1.505,0.210206,0.129808,-1.04383,-0.23072,0.06118,0.39172
-0.722014,0,0,15.722,15.722,14.278,14.278,0.515724,0.141259,18.1481,0.246989,0.126786,-0.0314565,0,0,1,16.2575,-0.4375,-0.5075,0.210206,0.129808,-1.04383,-0.23072,0.06118,0.39172
-0.507826,0,0,15.5078,15.5078,14.4922,14.4922,0.362733,-0.231278,18.4682,-0.231966,0.127047,0.133679,0,0,1,17.64,-0.7875,-0.0875,-0.277306,0.132736,-0.879986,-0.23072,0.06118,0.39172
-0.30155,0,0,15.3016,15.3016,14.6984,14.6984,0.215393,-0.595055,18.7892,-0.225617,0.124475,0.133646,0,0,1,19.285,-0.7525,0.8225,-0.277306,0.132736,-0.879986,-0.23072,0.06118,0.39172
-0.340026,0,0,15.34,15.34,14.66,14.66,0.242876,-0.597178,18.793,0.0591822,0.119826,0.20938,1,0,1,18.9175,-1.155,1.3475,0.008662,0.127612,-0.804834,-0.23072,0.06118,0.39172
-0.375613,0,0,15.3756,15.3756,14.6244,14.6244,0.268295,-0.597871,18.7971,0.0591943,0.120269,0.209378,1,0,1,17.7625,-0.315,1.5225,0.008662,0.127612,-0.804834,-0.23072,0.06118,0.39172
0.0256104,0,0,14.9744,14.9744,15.0256,15.0256,-0.0182931,-0.646581,18.947,0.00306758,0.299313,0.0193011,0,0,1,17.8325,-0.525,1.4,-0.048556,0.311466,-0.993446,-0.23072,0.06118,0.39172
0.418866,0,0,14.5811,14.5811,15.4189,15.4189,-0.29919,-0.695307,19.104,0.00391794,0.294411,0.0192775,0,0,1,18.48,-0.805,1.19,-0.048556,0.311466,-0.993446,-0.22358,0.0581,0.3899
0.455948,0,0,14.5441,14.5441,15.4559,15.4559,-0.325677,-0.823383,19.2692,-0.0960164,0.0440771,-0.0582122,0,0,1,18.8125,-0.84,1.1025,-0.151158,0.061854,-1.07031,-0.22358,0.0581,0.3899
0.488879,0,0,14.5111,14.5111,15.4889,15.4889,-0.349199,-0.948986,19.4327,-0.0938244,0.0436668,-0.0582485,0,0,1,20.125,-1.1375,0.63,-0.151158,0.061854,-1.07031,-0.22358,0.0581,0.3899
0.172779,0,0,14.8272,14.8272,15.1728,15.1728,-0.123413,-0.719998,19.3156,0.158879,-0.175641,-0.0369039,0,0,1,20.4925,-1.015,0.0875,0.106628,-0.161162,-1.0492,-0.22358,0.0581,0.3899
-0.131364,0,0,15.1314,15.1314,14.8686,14.8686,0.0938318,-0.496248,19.1987,0.154974,-0.171849,-0.0368615,0,0,1,18.3225,-0.6825,-0.945,0.106628,-0.161162,-1.0492,-0.22358,0.0581,0.3899
-0.232874,0,0,15.2329,15.2329,14.7671,14.7671,0.166339,-0.712837,19.3904,-0.178734,-0.0656772,-0.0344453,0,0,1,17.4475,-0.84,-1.4175,-0.232288,-0.056364,-1.04676,-0.22358,0.0581,0.3899
-0.331484,0,0,15.3315,15.3315,14.6685,14.6685,0.236774,-0.926132,19.5788,-0.175011,-0.0644482,-0.0345029,0,0,1,16.8525,-1.6975,-2.2225,-0.232288,-0.056364,-1.04676,-0.22358,0.0581,0.3899
-0.365176,0,0,15.3652,15.3652,14.6348,14.6348,0.26084,-0.929126,19.5763,0.156454,-0.0653717,0.243973,1,0,1,16.9575,-1.68,-2.2925,0.100528,-0.057706,-0.77043,-0.22358,0.0581,0.3899
-0.409281,0,0,15.4093,15.4093,14.5907,14.5907,0.292343,-0.930532,19.5733,0.156479,-0.0648219,0.24397,1,0,1,21.1225,-0.7525,-2.6075,0.100528,-0.057706,-0.77043,-0.22708,0.05992,0.38752
-0.458005,0,0,15.458,15.458,14.542,14.542,0.327147,-0.932568,19.5708,0.104275,-0.0545666,0.110321,1,0,1,22.9775,-1.12,-2.275,0.048068,-0.048068,-0.903044,-0.22708,0.05992,0.38752
-0.50567,0,0,15.5057,15.5057,14.4943,14.4943,0.361193,-0.934007,19.5688,0.1043,-0.0539724,0.110317,1,0,1,22.5575,-0.77,-2.0125,0.048068,-0.048068,-0.903044,-0.22708,0.05992,0.38752
-0.550574,0,0,15.5506,15.5506,14.4494,14.4494,0.393267,-0.935537,19.5672,0.13895,0.0955819,-0.17751,1,0,1,21.455,-0.8225,-1.785,0.082838,0.100772,-1.18865,-0.22708,0.05992,0.38752
-0.588944,0,0,15.5889,15.5889,14.4111,14.4111,0.420674,-0.93776,19.5666,0.138989,0.0960602,-0.177514,1,0,1,18.8475,-1.225,-1.2075,0.082838,0.100772,-1.18865,-0.22708,0.05992,0.38752
-0.628352,0,0,15.6284,15.6284,14.3716,14.3716,0.448823,-0.939478,19.5664,0.178502,0.100826,0.140673,1,0,1,19.2675,-0.9275,-0.945,0.122488,0.105042,-0.87291,-0.22708,0.05992,0.38752
-0.669917,0,0,15.6699,15.6699,14.3301,14.3301,0.478512,-0.940132,19.5675,0.178513,0.101344,0.140668,1,0,1,20.1425,-0.2975,-0.2275,0.122488,0.105042,-0.87291,-0.22708,0.05992,0.38752
-0.853382,0,0,15.8534,15.8534,14.1466,14.1466,0.609558,-1.10859,19.7167,-0.144128,-0.112656,-0.00522276,0,0,1,20.16,0.245,0.175,-0.204472,-0.11102,-1.0176,-0.22708,0.05992,0.38752
-1.03699,0,0,16.037,16.037,13.963,13.963,0.740709,-1.27475,19.8658,-0.141229,-0.110369,-0.00531003,0,0,1,21.42,-0.42,1.12,-0.204472,-0.11102,-1.0176,-0.22708,0.05992,0.38752
-1.08,0,0,16.08,16.08,13.92,13.92,0.771427,-1.27655,19.8694,-0.0893233,-0.00333825,0.209104,1,0,1,20.755,-0.945,1.295,-0.152378,-0.004636,-0.804834,-0.23184,0.05838,0.38234
-1.11982,0,0,16.1198,16.1198,13.8802,13.8802,0.79987,-1.27849,19.8729,-0.0953637,0.23958,0.146393,1,0,1,19.4775,-1.0325,1.19,-0.158478,0.237534,-0.867054,-0.23184,0.05838,0.38234
-1.16144,0,0,16.1614,16.1614,13.8386,13.8386,0.829598,-1.28065,19.8761,-0.0953261,0.240098,0.146385,1,0,1,20.195,-1.155,1.05,-0.158478,0.237534,-0.867054,-0.23184,0.05838,0.38234
-0.897659,0,0,15.8977,15.8977,14.1023,14.1023,0.641185,-1.14623,19.9004,0.131693,0.220935,0.0418476,0,0,1,22.9075,-1.33,1.155,0.071858,0.221674,-0.970876,-0.23184,0.05838,0.38234
-0.641624,0,0,15.6416,15.6416,14.3584,14.3584,0.458303,-1.01393,19.9229,0.129385,0.217744,0.0419217,0,0,1,24.22,-1.2075,0.525,0.071858,0.221674,-0.970876,-0.23184,0.05838,0.38234
-0.692044,0,0,15.692,15.692,14.308,14.308,0.494317,-1.01623,19.9246,-0.0955667,0.0572875,-0.156154,1,0,1,23.695,-1.26,0.105,-0.154086,0.060756,-1.16742,-0.23184,0.05838,0.38234
-0.736739,0,0,15.7367,15.7367,14.2633,14.2633,0.526242,-1.01807,19.9244,-0.0955346,0.0578446,-0.15616,1,0,1,21.385,-0.9975,-0.91,-0.154086,0.060756,-1.16742,-0.23184,0.05838,0.38234
-0.685352,0,0,15.6854,15.6854,14.3146,14.3146,0.489537,-0.628282,19.7466,0.319097,0.101048,0.00758808,0,0,1,20.2475,-1.365,-1.085,0.269132,0.104554,-1.00504,-0.2261,0.0595,0.38416
-0.634128,0,0,15.6341,15.6341,14.3659,14.3659,0.452949,-0.246544,19.5679,0.312435,0.10041,0.00764419,0,0,1,20.4225,-1.4525,-1.4875,0.269132,0.104554,-1.00504,-0.2261,0.0595,0.38416
-0.949453,0,0,15.9495,15.9495,14.0505,14.0505,0.678181,-0.81407,19.9316,-0.417144,-0.2138,0.207059,0,0,1,21.875,-1.7325,-1.82,-0.473482,-0.213256,-0.80703,-0.2261,0.0595,0.38416
-1.26063,0,0,16.2606,16.2606,13.7394,13.7394,0.900449,-1.37022,20.2882,-0.407439,-0.209925,0.206821,0,0,1,21.875,-1.7325,-1.82,-0.473482,-0.213256,-0.80703,-0.2261,0.0595,0.38416
-1.21422,0,0,16.2142,16.2142,13.7858,13.7858,0.867301,-1.33318,20.3384,0.0389818,0.0691676,0.0189796,0,0,1,24.01,-1.3825,-1.575,-0.024522,0.066124,-0.993446,-0.2261,0.0595,0.38416
-1.16858,0,0,16.1686,16.1686,13.8314,13.8314,0.834698,-1.29687,20.3883,0.0383483,0.0685991,0.0190026,0,0,1,24.01,-1.3825,-1.575,-0.024522,0.066124,-0.993446,-0.2261,0.0595,0.38416
-0.996558,0,0,15.9966,15.9966,14.0034,14.0034,0.711827,-1.30067,20.482,0.0200702,0.152555,-2.70213e-05,0,0,1,23.8875,-1.12,-1.365,-0.042944,0.152134,-1.01236,-0.2261,0.0595,0.38416
-1.21746,0,0,16.2175,16.2175,13.7825,13.7825,0.869611,-1.13806,20.412,0.11673,-0.108607,-0.0740196,0,0,1,24.2025,-1.4,-0.98,0.056974,-0.111508,-1.0858,-0.2261,0.0595,0.38416
-1.43685,0,0,16.4368,16.4368,13.5632,13.5632,1.02632,-0.977175,20.3477,0.113922,-0.105872,-0.074013,0,0,1,25.2875,-0.455,-0.1925,0.056974,-0.111508,-1.0858,-0.23044,0.05642,0.38598
-1.22201,0,0,16.222,16.222,13.778,13.778,0.872864,-1.2885,20.6375,-0.227487,0.167088,-0.0477651,0,0,1,25.41,-0.805,0.07,-0.291336,0.163846,-1.05969,-0.23044,0.05642,0.38598
-1.01025,0,0,16.0103,16.0103,13.9897,13.9897,0.721608,-1.59221,20.9271,-0.222188,0.164448,-0.0478616,0,0,1,25.0775,-0.665,0.2275,-0.291336,0.163846,-1.05969,-0.23044,0.05642,0.38598
-0.878192,0,0,15.8782,15.8782,14.1218,14.1218,0.62728,-1.49464,20.9587,0.087842,0.121158,0.0883076,0,0,1,22.505,-0.875,0.21,0.021716,0.122244,-0.924638,-0.23044,0.05642,0.38598
-0.745579,0,0,15.7456,15.7456,14.2544,14.2544,0.532556,-1.39948,20.9899,0.0861818,0.119505,0.0883663,0,0,1,21.4025,-1.2075,0.14,0.021716,0.122244,-0.924638,-0.23044,0.05642,0.38598
-0.667586,0,0,15.6676,15.6676,14.3324,14.3324,0.476847,-1.65531,21.2306,-0.167512,0.0600336,0.0789118,0,0,1,23.3625,-1.3125,0.2625,-0.237534,0.063806,-0.93391,-0.23044,0.05642,0.38598
-0.600187,0,0,15.6002,15.6002,14.3998,14.3998,0.428705,-1.90507,21.4701,-0.163155,0.0591928,0.078783,0,0,1,26.915,-1.26,0.2975,-0.237534,0.063806,-0.93391,-0.23044,0.05642,0.38598
-0.887618,0,0,15.8876,15.8876,14.1124,14.1124,0.634013,-1.61744,21.3194,0.208433,-0.133848,-0.0343315,0,0,1,27.3875,-1.26,0.035,0.140666,-0.132614,-1.04627,-0.23044,0.05642,0.38598
-1.16857,0,0,16.1686,16.1686,13.8314,13.8314,0.834695,-1.3369,21.1708,0.203538,-0.130346,-0.0342502,0,0,1,27.3525,-1.3475,0.0175,0.140666,-0.132614,-1.04627,-0.23044,0.05642,0.38598
-1.22655,0,0,16.2266,16.2266,13.7734,13.7734,0.876109,-1.3401,21.172,-0.340419,-0.0689262,0.218028,1,0,1,26.7225,-1.785,-0.105,-0.40565,-0.07198,-0.795928,-0.2233,0.05362,0.3787
-1.28042,0,0,16.2804,16.2804,13.7196,13.7196,0.914588,-1.3423,21.1719,-0.34038,-0.0682549,0.218017,1,0,1,25.06,-1.2075,-0.875,-0.40565,-0.07198,-0.795928,-0.2233,0.05362,0.3787
-1.33306,0,0,16.3331,16.3331,13.6669,13.6669,0.952186,-1.34468,21.1722,-0.310089,0.170304,-0.194487,1,0,1,24.57,-1.3125,-0.6825,-0.375272,0.165676,-1.20524,-0.2233,0.05362,0.3787
-1.3899,0,0,16.3899,16.3899,13.6101,13.6101,0.992783,-1.34715,21.1724,-0.310046,0.171012,-0.1945,1,0,1,26.25,-1.365,-0.735,-0.375272,0.165676,-1.20524,-0.2233,0.05362,0.3787
-1.44642,0,0,16.4464,16.4464,13.5536,13.5536,1.03316,-1.35058,21.1727,-0.07236,-0.0345556,0.231257,1,0,1,26.1275,-1.925,-0.63,-0.13664,-0.040382,-0.782752,-0.2233,0.05362,0.3787
-1.50612,0,0,16.5061,16.5061,13.4939,13.4939,1.0758,-1.35362,21.1733,-0.0723068,-0.0338116,0.231242,1,0,1,27.405,-1.6975,-0.455,-0.13664,-0.040382,-0.782752,-0.2233,0.05362,0.3787
-1.56404,0,0,16.564,16.564,13.436,13.436,1.11717,-1.35574,21.1738,-0.0259838,0.0648557,-0.214584,1,0,1,26.6875,-1.155,-0.525,-0.090158,0.057462,-1.22512,-0.2233,0.05362,0.3787
-1.62244,0,0,16.6224,16.6224,13.3776,13.3776,1.15889,-1.35812,21.1741,-0.0259422,0.0655834,-0.2146,1,0,1,26.88,-1.3125,-0.6475,-0.090158,0.057462,-1.22512,-0.2233,0.05362,0.3787
-1.03326,0,0,16.0333,16.0333,13.9667,13.9667,0.738042,-1.61655,21.4941,-0.113763,0.380899,0.176012,0,0,1,27.3525,-1.4175,-0.4375,-0.182878,0.379786,-0.83753,-0.22554,0.05138,0.38276
-0.993068,0,0,15.9931,15.9931,14.0069,14.0069,0.709334,-1.36305,21.4206,0.206546,0.0930351,0.0186364,0,0,1,28.0525,-1.0675,-0.21,0.143228,0.09272,-0.993812,-0.22554,0.05138,0.38276
-0.961192,0,0,15.9612,15.9612,14.0388,14.0388,0.686566,-1.11502,21.3472,0.202218,0.092639,0.0187348,0,0,1,31.36,-1.1725,-0.105,0.143228,0.09272,-0.993812,-0.22554,0.05138,0.38276
-1.02879,0,0,16.0288,16.0288,13.9712,13.9712,0.734852,-1.11711,21.3484,0.0630318,0.0646596,-0.152175,1,0,1,30.5725,-1.1375,-0.14,0.003416,0.063928,-1.16339,-0.22554,0.05138,0.38276
-1.08779,0,0,16.0878,16.0878,13.9122,13.9122,0.77699,-1.11953,21.3496,0.0630741,0.0653948,-0.152185,1,0,1,27.125,-1.33,-0.1225,0.003416,0.063928,-1.16339,-0.22554,0.05138,0.38276
-1.14696,0,0,16.147,16.147,13.853,13.853,0.819259,-1.12222,21.3504,0.00335,0.232591,-0.202728,1,0,1,27.195,-1.4875,-0.3325,-0.056608,0.230214,-1.21353,-0.22554,0.05138,0.38276
-1.20827,0,0,16.2083,16.2083,13.7917,13.7917,0.863047,-1.12522,21.3502,0.00340238,0.233355,-0.202741,1,0,1,28.035,-1.68,-0.945,-0.056608,0.230214,-1.21353,-0.22554,0.05138,0.38276
-1.30654,0,0,16.3065,16.3065,13.6935,13.6935,0.933243,-0.60634,21.0787,0.358926,0.0252568,0.1661,0,0,1,29.1725,-1.54,-0.7875,0.309514,0.021106,-0.847656,-0.22554,0.05138,0.38276
-1.40493,0,0,16.4049,16.4049,13.5951,13.5951,1.00352,-0.0939838,20.8126,0.349984,0.0264841,0.166134,0,0,1,29.9775,-1.1375,-0.665,0.309514,0.021106,-0.847656,-0.2303,0.0483,0.37688
-1.47243,0,0,16.4724,16.4724,13.5276,13.5276,1.05174,-0.0960947,20.8128,0.393026,0.203554,-0.103631,1,0,1,30.52,-1.155,-0.7525,0.352702,0.197152,-1.11532,-0.2303,0.0483,0.37688
-1.53893,0,0,16.5389,16.5389,13.4611,13.4611,1.09923,-0.0996753,20.8132,0.393089,0.204383,-0.103646,1,0,1,30.1175,-2.0125,-0.56,0.352702,0.197152,-1.11532,-0.2303,0.0483,0.37688
-1.60534,0,0,16.6053,16.6053,13.3947,13.3947,1.14667,-0.10403,20.8135,-0.13955,-0.196464,0.303051,1,0,1,30.0825,-2.4675,-0.6475,-0.182268,-0.204106,-0.711748,-0.2303,0.0483,0.37688
-1.67293,0,0,16.6729,16.6729,13.3271,13.3271,1.19495,-0.10771,20.8143,-0.139486,-0.195621,0.303034,1,0,1,30.555,-2.065,-0.2975,-0.182268,-0.204106,-0.711748,-0.2303,0.0483,0.37688
-1.74187,0,0,16.7419,16.7419,13.2581,13.2581,1.24419,-0.110559,20.8154,-0.123278,0.0805115,-0.457175,1,0,1,31.0975,-1.575,-0.175,-0.166042,0.070882,-1.46607,-0.2303,0.0483,0.37688
-1.81151,0,0,16.8115,16.8115,13.1885,13.1885,1.29394,-0.112874,20.8167,-0.123238,0.0813795,-0.457195,1,0,1,31.3775,-1.26,-0.105,-0.166042,0.070882,-1.46607,-0.2303,0.0483,0.37688
-1.87953,0,0,16.8795,16.8795,13.1205,13.1205,1.34252,-0.116439,20.8189,-0.0446959,-0.0617602,-0.190662,1,0,1,30.73,-1.9775,0.5075,-0.08723,-0.072956,-1.20158,-0.2303,0.0483,0.37688
-1.9476,0,0,16.9476,16.9476,13.0524,13.0524,1.39114,-0.119844,20.8206,-0.0446364,-0.0609119,-0.190682,1,0,1,30.7475,-1.89,0.1925,-0.08723,-0.072956,-1.20158,-0.22176,0.04452,0.38262
-2.01658,0,0,17.0166,17.0166,12.9834,12.9834,1.44042,-0.122649,20.8222,0.353278,0.137793,0.194494,1,0,1,31.115,-1.54,0.105,0.31232,0.124684,-0.819352,-0.22176,0.04452,0.38262
-2.08565,0,0,17.0857,17.0857,12.9143,12.9143,1.48975,-0.124701,20.8247,0.353314,0.138654,0.194472,1,0,1,31.15,-1.085,0.6125,0.31232,0.124684,-0.819352,-0.22176,0.04452,0.38262
-2.28281,0,0,17.2828,17.2828,12.7172,12.7172,1.63058,-0.239083,20.9392,-0.0899348,-0.0842131,0.0906301,0,0,1,32.6025,-0.7525,0.63,-0.13481,-0.100406,-0.92232,-0.22176,0.04452,0.38262
-2.47665,0,0,17.4767,17.4767,12.5233,12.5233,1.76904,-0.351356,21.0525,-0.0879752,-0.0817979,0.0905484,0,0,1,32.6025,-0.7525,0.63,-0.13481,-0.100406,-0.92232,-0.22176,0.04452,0.38262
-2.55236,0,0,17.5524,17.5524,12.4476,12.4476,1.82312,-0.354871,21.0535,-0.0882784,0.171459,-0.138658,1,0,1,33.81,-1.96,-0.21,-0.135176,0.151646,-1.14973,-0.22176,0.04452,0.38262
-2.62851,0,0,17.6285,17.6285,12.3715,12.3715,1.87751,-0.358342,21.054,-0.286604,0.191094,0.165117,1,0,1,33.985,-1.9425,-0.49,-0.334402,0.170312,-0.848266,-0.22176,0.04452,0.38262
-2.9245,0,0,17.9245,17.9245,12.0755,12.0755,2.08893,0.0118571,20.8504,0.274273,-0.117618,0.00259399,0,0,1,34.895,-1.8725,-0.91,0.235338,-0.141764,-1.00943,-0.22176,0.04452,0.38262
-3.00083,0,0,18.0008,18.0008,11.9992,11.9992,2.14345,0.00877678,20.8492,-0.179665,0.228463,-0.0792019,1,0,1,34.055,-1.75,-1.505,-0.220576,0.203008,-1.09056,-0.22876,0.042,0.37898
-2.9537,0,0,17.9537,17.9537,12.0463,12.0463,2.10979,0.28757,20.7468,0.214307,0.107702,0.0708045,0,0,1,32.795,-2.0125,-1.575,0.17995,0.08296,-0.941718,-0.22876,0.042,0.37898
-3.0281,0,0,18.0281,18.0281,11.9719,11.9719,2.16293,0.284163,20.7455,-0.309966,0.00592075,-0.169963,1,0,1,33.285,-1.9425,-1.5225,-0.346602,-0.019642,-1.18059,-0.22876,0.042,0.37898
-3.10464,0,0,18.1046,18.1046,11.8954,11.8954,2.2176,0.28161,20.7446,-0.309922,0.00687428,-0.169999,1,0,1,34.1425,-1.435,-1.33,-0.346602,-0.019642,-1.18059,-0.22876,0.042,0.37898
-3.18255,0,0,18.1825,18.1825,11.8175,11.8175,2.27325,0.278681,20.7449,0.195631,0.256861,-0.338722,1,0,1,34.685,-1.6275,-0.6125,0.16104,0.229116,-1.34798,-0.22876,0.042,0.37898
-3.26255,0,0,18.2626,18.2626,11.7374,11.7374,2.33039,0.276282,20.7454,0.195673,0.257858,-0.338762,1,0,1,35.525,-1.3125,-0.5075,0.16104,0.229116,-1.34798,-0.22876,0.042,0.37898
-3.34413,0,0,18.3441,18.3441,11.6559,11.6559,2.38867,0.272575,20.7464,0.132687,-0.405618,0.310364,1,0,1,36.155,-2.065,-0.1575,0.097722,-0.434686,-0.703818,-0.22876,0.042,0.37898
-3.42703,0,0,18.427,18.427,11.573,11.573,2.44788,0.268672,20.7478,0.132755,-0.404585,0.310321,1,0,1,36.68,-2.17,0.0525,0.097722,-0.434686,-0.703818,-0.22876,0.042,0.37898
-3.08619,0,0,18.0862,18.0862,11.9138,11.9138,2.20442,-0.335301,21.2327,-0.429509,0.241616,0.0771311,0,0,1,36.085,-1.925,0.14,-0.477508,0.215086,-0.935374,-0.21826,0.03192,0.37198
-3.16927,0,0,18.1693,18.1693,11.8307,11.8307,2.26377,-0.338868,21.2356,0.128416,0.108312,0.13463,1,0,1,36.7675,-1.9425,0.8925,0.082716,0.080886,-0.878278,-0.21826,0.03192,0.37198
-3.25112,0,0,18.2511,18.2511,11.7489,11.7489,2.32223,-0.34261,21.239,0.128481,0.109331,0.134589,1,0,1,36.2775,-2.03,1.2425,0.082716,0.080886,-0.878278,-0.21826,0.03192,0.37198
-3.24717,0,0,18.2472,18.2472,11.7528,11.7528,2.31941,-0.274095,21.2864,0.0586459,0.0628741,0.0910737,0,0,1,35.665,-1.82,1.365,0.013786,0.034526,-0.921466,-0.21826,0.03192,0.37198
-3.24546,0,0,18.2455,18.2455,11.7545,11.7545,2.31819,-0.207566,21.3329,0.0574847,0.0628529,0.0910795,0,0,1,36.5925,-2.1175,1.0325,0.013786,0.034526,-0.921466,-0.21826,0.03192,0.37198
-3.32995,0,0,18.3299,18.3299,11.6701,11.6701,2.37854,-0.210757,21.336,-0.312505,0.259186,-0.0362156,1,0,1,37.3275,-1.715,0.9975,-0.357826,0.229604,-1.04774,-0.21826,0.03192,0.37198
-3.41614,0,0,18.4161,18.4161,11.5839,11.5839,2.4401,-0.213493,21.3387,-0.312457,0.26026,-0.0362609,1,0,1,38.01,-1.4525,0.84,-0.357826,0.229604,-1.04774,-0.21826,0.03192,0.37198
-3.54716,0,0,18.5472,18.5472,11.4528,11.4528,2.53369,-0.0475681,21.3053,0.124304,-0.0102068,0.0070756,0,0,1,39.4975,-1.6275,0.3325,0.083692,-0.042212,-1.00467,-0.21826,0.03192,0.37198
-3.67751,0,0,18.6775,18.6775,11.3225,11.3225,2.6268,0.114016,21.2651,0.121483,-0.0085834,0.00700081,0,0,1,40.075,-2.73,-0.77,0.083692,-0.042212,-1.00467,-0.2282,0.03276,0.37352
-3.76905,0,0,18.769,18.769,11.231,11.231,2.69218,0.108599,21.2642,0.444608,0.0184474,-0.0234202,1,0,1,40.145,-3.115,-1.2425,0.40809,-0.016348,-1.0348,-0.2282,0.03276,0.37352
-3.85779,0,0,18.8578,18.8578,11.1422,11.1422,2.75556,0.104532,21.2626,0.444679,0.0195524,-0.0234727,1,0,1,39.025,-2.345,-1.68,0.40809,-0.016348,-1.0348,-0.2282,0.03276,0.37352
-3.94643,0,0,18.9464,18.9464,11.0536,11.0536,2.81888,0.10118,21.2604,-0.0156929,0.55838,-0.0636075,1,0,1,38.99,-1.9425,-2.0125,-0.05429,0.520818,-1.07458,-0.2282,0.03276,0.37352
-4.03635,0,0,19.0364,19.0364,10.9636,10.9636,2.88311,0.0976296,21.2587,-0.0156309,0.5595,-0.0636632,1,0,1,39.4975,-2.0475,-1.75,-0.05429,0.520818,-1.07458,-0.2282,0.03276,0.37352
-3.92595,0,0,18.9259,18.9259,11.0741,11.0741,2.80425,-0.291439,21.5724,-0.295304,0.108332,-0.0547541,0,0,1,41.3875,-2.065,-1.2075,-0.341966,0.071492,-1.06579,-0.2282,0.03276,0.37352
-3.81725,0,0,18.8172,18.8172,11.1828,11.1828,2.72661,-0.671009,21.8856,-0.288679,0.106976,-0.0547443,0,0,1,41.1775,-1.6975,-0.595,-0.341966,0.071492,-1.06579,-0.2282,0.03276,0.37352
-3.80359,0,0,18.8036,18.8036,11.1964,11.1964,2.71685,-0.932883,22.1211,-0.190565,0.0472047,-0.014473,0,0,1,40.6525,-1.61,-0.4025,-0.248026,0.011956,-1.02578,-0.2282,0.03276,0.37352
-3.79377,0,0,18.7938,18.7938,11.2062,11.2062,2.70984,-1.18785,22.3667,-0.186116,0.0470786,-0.0145494,0,0,1,41.6675,-1.785,0.1225,-0.248026,0.011956,-1.02578,-0.2212,0.02772,0.37184
-3.88761,0,0,18.8876,18.8876,11.1124,11.1124,2.77687,-1.19173,22.3687,-0.190786,0.147292,-0.127105,1,0,1,41.09,-2.135,0.42,-0.252784,0.110898,-1.13741,-0.2212,0.02772,0.37184
-3.98333,0,0,18.9833,18.9833,11.0167,11.0167,2.84523,-1.19601,22.3707,-0.190711,0.148483,-0.127165,1,0,1,41.8425,-2.3625,0.4725,-0.252784,0.110898,-1.13741,-0.2212,0.02772,0.37184
-3.44851,0,0,18.4485,18.4485,11.5515,11.5515,2.46322,-1.6197,22.7901,-0.264228,0.413548,0.0378364,0,0,1,43.1025,-2.135,0.8925,-0.334036,0.382348,-0.973804,-0.2212,0.02772,0.37184
-2.92239,0,0,17.9224,17.9224,12.0776,12.0776,2.08742,-2.03366,23.2134,-0.257007,0.406989,0.0378665,0,0,1,43.5225,-2.03,1.68,-0.334036,0.382348,-0.973804,-0.2212,0.02772,0.37184
-3.0136,0,0,18.0136,18.0136,11.9864,11.9864,2.15257,-2.09703,23.3461,-0.0479183,0.00131885,-0.0463121,0,0,1,44.765,-2.2925,1.6625,-0.125172,-0.024034,-1.05725,-0.2212,0.02772,0.37184
-3.10095,0,0,18.1009,18.1009,11.8991,11.8991,2.21496,-2.15959,23.4783,-0.0468271,0.00240469,-0.0463941,0,0,1,43.855,-2.485,1.96,-0.125172,-0.024034,-1.05725,-0.2212,0.02772,0.37184
-2.95801,0,0,17.958,17.958,12.042,12.042,2.11286,-1.90374,23.4547,0.246472,0.201896,-0.0426032,0,0,1,42.4375,-2.3625,1.6975,0.17385,0.177022,-1.05371,-0.2212,0.02772,0.37184
-2.81822,0,0,17.8182,17.8182,12.1818,12.1818,2.01301,-1.65291,23.4292,0.242096,0.20016,-0.0424047,0,0,1,42.875,-2.5025,1.05,0.17385,0.177022,-1.05371,-0.2212,0.02772,0.37184
-2.92065,0,0,17.9206,17.9206,12.0794,12.0794,2.08618,-1.65724,23.4312,-0.0970166,0.0563491,-0.14327,1,0,1,44.5375,-2.415,0.385,-0.166774,0.032086,-1.15375,-0.22106,0.02352,0.3724
-2.67248,0,0,17.6725,17.6725,12.3275,12.3275,1.90892,-1.58291,23.5292,0.108941,0.260265,-0.0145217,0,0,1,47.845,-2.5025,-0.6125,0.041358,0.238876,-1.02614,-0.22106,0.02352,0.3724
-2.43101,0,0,17.431,17.431,12.569,12.569,1.73643,-1.50939,23.6255,0.107659,0.257258,-0.0143914,0,0,1,48.8075,-2.4675,-1.295,0.041358,0.238876,-1.02614,-0.22106,0.02352,0.3724
-2.54298,0,0,17.543,17.543,12.457,12.457,1.81641,-1.51404,23.6236,0.388736,0.0058502,-0.0586983,1,0,1,48.3,-2.6775,-1.8725,0.323544,-0.013664,-1.07006,-0.22106,0.02352,0.3724
-2.65105,0,0,17.6511,17.6511,12.3489,12.3489,1.89361,-1.5197,23.6207,0.388835,0.00719627,-0.0587445,1,0,1,46.725,-3.29,-2.415,0.323544,-0.013664,-1.07006,-0.22106,0.02352,0.3724
-2.75707,0,0,17.7571,17.7571,12.2429,12.2429,1.96934,-1.52504,23.618,0.221764,0.166304,0.248949,1,0,1,45.9025,-3.0975,-2.3275,0.155672,0.14396,-0.764696,-0.22106,0.02352,0.3724
-2.86583,0,0,17.8658,17.8658,12.1342,12.1342,2.04702,-1.53033,23.6168,0.221856,0.167659,0.248899,1,0,1,47.0225,-3.045,-1.435,0.155672,0.14396,-0.764696,-0.22106,0.02352,0.3724
-2.97798,0,0,17.978,17.978,12.022,12.022,2.12713,-1.53539,23.6158,-0.0659767,0.05389,0.181224,1,0,1,48.3875,-2.905,-1.3475,-0.133468,0.028914,-0.831796,-0.22106,0.02352,0.3724
-3.09514,0,0,18.0951,18.0951,11.9049,11.9049,2.21081,-1.53917,23.6157,-0.0659108,0.0553488,0.181167,1,0,1,50.4,-2.135,-0.84,-0.133468,0.028914,-0.831796,-0.21966,0.02128,0.378
-3.21083,0,0,18.2108,18.2108,11.7892,11.7892,2.29345,-1.54247,23.6169,0.266775,-0.0902511,-0.0788046,1,0,1,49.84,-1.82,-0.035,0.200568,-0.117974,-1.0897,-0.21966,0.02128,0.378
-3.32426,0,0,18.3243,18.3243,11.6757,11.6757,2.37447,-1.54585,23.6195,0.266834,-0.0888388,-0.0788638,1,0,1,48.9475,-1.8375,0.7175,0.200568,-0.117974,-1.0897,-0.21966,0.02128,0.378
-3.43763,0,0,18.4376,18.4376,11.5624,11.5624,2.45545,-1.54963,23.6222,-0.031105,0.21447,-0.221914,1,0,1,48.93,-2.065,0.805,-0.098698,0.18361,-1.23159,-0.21966,0.02128,0.378
-3.55921,0,0,18.5592,18.5592,11.4408,11.4408,2.5423,-1.55442,23.6262,-0.0310213,0.215984,-0.221983,1,0,1,52.2375,-2.625,1.5925,-0.098698,0.18361,-1.23159,-0.21966,0.02128,0.378
-3.15386,0,0,18.1539,18.1539,11.8461,11.8461,2.25276,-1.89684,23.998,-0.187717,0.313394,0.0995593,0,0,1,53.13,-2.4325,2.065,-0.262056,0.285968,-0.91256,-0.21966,0.02128,0.378
-2.75242,0,0,17.7524,17.7524,12.2476,12.2476,1.96601,-2.23091,24.3713,-0.18189,0.308388,0.0995335,0,0,1,52.1675,-2.24,2.275,-0.262056,0.285968,-0.91256,-0.21966,0.02128,0.378
-2.67429,0,0,17.6743,17.6743,12.3257,12.3257,1.91021,-2.24957,24.5139,0.0146345,0.131675,0.00402273,0,0,1,51.24,-2.73,2.5375,-0.065026,0.11041,-1.00735,-0.21966,0.02128,0.378
-2.59193,0,0,17.5919,17.5919,12.4081,12.4081,1.85138,-2.27096,24.6698,0.0150077,0.130649,0.00404168,0,0,1,49.595,-3.22,1.0675,-0.065026,0.11041,-1.00735,-0.2247,0.00784,0.36694
-2.41306,0,0,17.4131,17.4131,12.5869,12.5869,1.72361,-1.96941,24.6455,0.285278,0.234922,0.0441411,0,0,1,50.8025,-3.6575,0.42,0.21167,0.216794,-0.967826,-0.2247,0.00784,0.36694
-2.23674,0,0,17.2367,17.2367,12.7633,12.7633,1.59767,-1.67317,24.6199,0.28011,0.232731,0.044369,0,0,1,50.8025,-3.6575,0.42,0.21167,0.216794,-0.967826,-0.2247,0.00784,0.36694
-1.88292,0,0,16.8829,16.8829,13.1171,13.1171,1.34494,-1.85708,24.9032,-0.0723918,0.297078,0.0671289,0,0,1,54.81,-2.8,-0.525,-0.145546,0.28548,-0.945256,-0.2247,0.00784,0.36694
-1.53504,0,0,16.535,16.535,13.465,13.465,1.09646,-2.03623,25.1867,-0.0692668,0.292743,0.067115,0,0,1,54.81,-2.8,-0.525,-0.145546,0.28548,-0.945256,-0.2247,0.00784,0.36694
-1.7715,0,0,16.7715,16.7715,13.2285,13.2285,1.26536,-1.53425,24.9743,0.353007,-0.00608128,0.157448,0,0,1,58.3625,-2.8525,-0.9975,0.28731,-0.015982,-0.85583,-0.2247,0.00784,0.36694
-2.00203,0,0,17.002,17.002,12.998,12.998,1.43002,-1.04229,24.7635,0.344423,-0.00320434,0.157574,0,0,1,58.3625,-2.8525,-0.9975,0.28731,-0.015982,-0.85583,-0.2247,0.00784,0.36694
-1.98124,0,0,16.9812,16.9812,13.0188,13.0188,1.41517,-0.741873,24.6997,0.269326,0.140892,0.00397628,0,0,1,56.07,-3.7625,-0.9275,0.21716,0.128222,-1.00833,-0.2247,0.00784,0.36694
-1.96062,0,0,16.9606,16.9606,13.0394,13.0394,1.40045,-0.446479,24.6355,0.264171,0.140637,0.00403604,0,0,1,56.07,-3.7625,-0.9275,0.21716,0.128222,-1.00833,-0.2233,0.00938,0.35546
-2.08975,0,0,17.0898,17.0898,12.9102,12.9102,1.49268,-0.453921,24.6349,-0.0996701,0.407139,-0.0390376,1,0,1,55.195,-4.2875,-1.1025,-0.148352,0.39284,-1.05103,-0.2233,0.00938,0.35546
-2.22062,0,0,17.2206,17.2206,12.7794,12.7794,1.58616,-0.461319,24.6349,-0.0937097,-0.0190403,0.125791,1,0,1,55.895,-4.2525,-0.735,-0.142496,-0.034526,-0.887428,-0.2233,0.00938,0.35546
-2.36824,0,0,17.3682,17.3682,12.6318,12.6318,1.6916,-0.468272,24.6371,-0.0935883,-0.0172008,0.125738,1,0,1,62.615,-3.955,0.525,-0.142496,-0.034526,-0.887428,-0.2233,0.00938,0.35546
-2.50935,0,0,17.5094,17.5094,12.4906,12.4906,1.7924,-0.47248,24.6393,-0.0699467,0.252015,-0.0852958,1,0,1,60.0075,-2.345,0.5075,-0.118828,0.232654,-1.09678,-0.2233,0.00938,0.35546
-2.66508,0,0,17.6651,17.6651,12.3349,12.3349,1.90363,-0.476031,24.6432,-0.0698847,0.253955,-0.085359,1,0,1,65.87,-1.925,1.505,-0.118828,0.232654,-1.09678,-0.2233,0.00938,0.35546
-2.32831,0,0,17.3283,17.3283,12.6717,12.6717,1.66308,-0.287898,24.6891,0.211473,0.350759,0.0769626,0,0,1,63.035,-2.94,2.24,0.167018,0.333548,-0.935862,-0.2233,0.00938,0.35546
-1.98526,0,0,16.9853,16.9853,13.0147,13.0147,1.41804,-0.102987,24.7336,0.208246,0.346484,0.0770886,0,0,1,58.38,-3.22,2.1,0.167018,0.333548,-0.935862,-0.2233,0.00938,0.35546
-2.12337,0,0,17.1234,17.1234,12.8766,12.8766,1.51669,-0.109247,24.7382,-0.0881918,0.232673,-0.39348,1,0,1,58.8,-3.5175,1.89,-0.130784,0.218136,-1.40276,-0.22036,0.00448,0.35966
-2.26572,0,0,17.2657,17.2657,12.7343,12.7343,1.61837,-0.114681,24.7406,-0.0527446,-0.191653,0.132445,1,0,1,60.4975,-3.0625,0.6825,-0.095282,-0.207522,-0.88084,-0.22036,0.00448,0.35966
-2.41109,0,0,17.4111,17.4111,12.5889,12.5889,1.72221,-0.121957,24.7426,-0.0526176,-0.189842,0.132392,1,0,1,61.705,-4.1475,0.42,-0.095282,-0.207522,-0.88084,-0.22036,0.00448,0.35966
-2.55747,0,0,17.5575,17.5575,12.4425,12.4425,1.82676,-0.128679,24.7439,-0.0775263,0.312702,0.179548,1,0,1,62.1075,-3.8325,0.0175,-0.120414,0.292678,-0.833992,-0.22036,0.00448,0.35966
-2.7149,0,0,17.7149,17.7149,12.2851,12.2851,1.93922,-0.135244,24.744,-0.0774118,0.314664,0.179483,1,0,1,66.535,-3.7625,-0.6825,-0.120414,0.292678,-0.833992,-0.22036,0.00448,0.35966
-2.8685,0,0,17.8685,17.8685,12.1315,12.1315,2.04893,-0.141686,24.7439,0.108088,-0.079602,0.155564,1,0,1,64.995,-3.6925,-0.7525,0.065758,-0.10309,-0.85766,-0.22036,0.00448,0.35966
-3.02654,0,0,18.0265,18.0265,11.9735,11.9735,2.16182,-0.148061,24.7445,0.108199,-0.077633,0.155491,1,0,1,66.78,-3.64,-0.385,0.065758,-0.10309,-0.85766,-0.22036,0.00448,0.35966
-3.18336,0,0,18.1834,18.1834,11.8166,11.8166,2.27383,-0.153947,24.7455,0.165157,0.398417,-0.0279007,1,0,1,66.29,-3.3425,-0.1225,0.122854,0.370514,-1.03956,-0.22036,0.00448,0.35966
-3.34237,0,0,18.3424,18.3424,11.6576,11.6576,2.38741,-0.160181,24.747,0.165266,0.400397,-0.0279816,1,0,1,67.165,-3.535,0.14,0.122854,0.370514,-1.03956,-0.22036,-0.00014,0.35252
-3.48148,0,0,18.4815,18.4815,11.5185,11.5185,2.48677,-0.0223101,24.7613,0.110985,0.0333072,0.0459635,0,0,1,67.8475,-3.9375,-0.2625,0.07076,0.002074,-0.966118,-0.22036,-0.00014,0.35252
-3.61415,0,0,18.6142,18.6142,11.3858,11.3858,2.58154,0.112268,24.7757,0.108636,0.0349595,0.0458885,0,0,1,66.4475,-3.92,-0.1225,0.07076,0.002074,-0.966118,-0.22036,-0.00014,0.35252
-3.69405,0,0,18.694,18.694,11.306,11.306,2.63861,0.0650197,24.9006,-0.0199212,0.0497549,0.0361315,0,0,1,66.7975,-4.34,0.385,-0.05917,0.01586,-0.975756,-0.22036,-0.00014,0.35252
-3.77233,0,0,18.7723,18.7723,11.2277,11.2277,2.69452,0.0198368,25.0244,-0.0191326,0.0507298,0.0360867,0,0,1,66.71,-3.605,0.245,-0.05917,0.01586,-0.975756,-0.22036,-0.00014,0.35252
-3.93335,0,0,18.9334,18.9334,11.0666,11.0666,2.80954,0.0127938,25.0269,0.248988,0.158863,-0.117081,1,0,1,67.97,-3.9725,0.77,0.209962,0.121878,-1.12765,-0.22036,-0.00014,0.35252
-4.10525,0,0,19.1053,19.1053,10.8947,10.8947,2.93232,0.00539785,25.0303,0.249117,0.161003,-0.117188,1,0,1,72.3275,-4.1475,1.3475,0.209962,0.121878,-1.12765,-0.22036,-0.00014,0.35252
-4.27659,0,0,19.2766,19.2766,10.7234,10.7234,3.0547,-0.00145739,25.034,-0.465585,0.38101,-0.0260716,1,0,1,72.1,-3.815,1.5575,-0.507886,0.339526,-1.03712,-0.22036,-0.00014,0.35252
-4.44543,0,0,19.4454,19.4454,10.5546,10.5546,3.17531,-0.00676698,25.0389,-0.465493,0.383112,-0.026186,1,0,1,71.1025,-2.87,2.17,-0.507886,0.339526,-1.03712,-0.22036,-0.0091,0.3521
-4.12047,0,0,19.1205,19.1205,10.8795,10.8795,2.94319,-0.339441,25.3902,-0.177475,0.281609,0.105813,0,0,1,71.1025,-2.695,1.61,-0.22448,0.24217,-0.906338,-0.22036,-0.0091,0.3521
-3.8008,0,0,18.8008,18.8008,11.1992,11.1992,2.71486,-0.664384,25.7419,-0.171804,0.277626,0.105961,0,0,1,71.1025,-2.695,1.61,-0.22448,0.24217,-0.906338,-0.22036,-0.0091,0.3521
-3.97726,0,0,18.9773,18.9773,11.0227,11.0227,2.8409,-0.672742,25.7437,0.401147,0.0840542,-0.231396,1,0,1,74.165,-4.76,0.42,0.35075,0.046604,-1.24098,-0.22036,-0.0091,0.3521
-4.15372,0,0,19.1537,19.1537,10.8463,10.8463,2.96695,-0.681104,25.7455,0.401293,0.086251,-0.231509,1,0,1,74.165,-4.76,0.42,0.35075,0.046604,-1.24098,-0.22036,-0.0091,0.3521
-4.33132,0,0,19.3313,19.3313,10.6687,10.6687,3.0938,-0.687879,25.7449,-0.347791,-8.02594e-05,-0.207898,1,0,1,74.6025,-3.9025,-0.9975,-0.401624,-0.041846,-1.21744,-0.22036,-0.0091,0.3521
-4.51131,0,0,19.5113,19.5113,10.4887,10.4887,3.22236,-0.695027,25.7445,-0.10591,0.162757,-0.12491,1,0,1,75.565,-4.1125,-0.8225,-0.158844,0.118584,-1.13497,-0.22036,-0.0091,0.3521
-4.68673,0,0,19.6867,19.6867,10.3133,10.3133,3.34767,-0.704377,25.7455,-0.105747,0.16494,-0.125037,1,0,1,73.745,-5.355,0.035,-0.158844,0.118584,-1.13497,-0.22036,-0.0091,0.3521
-4.86164,0,0,19.8616,19.8616,10.1384,10.1384,3.4726,-0.713717,25.7463,-0.0470277,0.0997021,0.527196,1,0,1,73.535,-5.355,-0.07,-0.10004,0.05124,-0.487634,-0.21924,-0.0196,0.34692
-5.04573,0,0,20.0457,20.0457,9.95427,9.95427,3.60409,-0.720744,25.7464,-0.12417,0.110175,0.160174,1,0,1,77.21,-4.025,-0.5425,-0.177632,0.059414,-0.851682,-0.21924,-0.0196,0.34692
-5.24592,0,0,20.2459,20.2459,9.75408,9.75408,3.74708,-0.727759,25.7481,-0.124048,0.112665,0.160013,1,0,1,83.6675,-3.955,0.4375,-0.177632,0.059414,-0.851682,-0.21924,-0.0196,0.34692
-5.10683,0,0,20.1068,20.1068,9.89317,9.89317,3.64774,-0.996878,26.0548,-0.154217,0.193732,0.0288679,0,0,1,82.285,-3.815,0.9975,-0.212646,0.14213,-0.981856,-0.21924,-0.0196,0.34692
-4.96919,0,0,19.9692,19.9692,10.0308,10.0308,3.54942,-1.2604,26.3612,-0.149619,0.192015,0.0288852,0,0,1,81.865,-4.1475,1.4525,-0.212646,0.14213,-0.981856,-0.21924,-0.0196,0.34692
-5.16374,0,0,20.1637,20.1637,9.83626,9.83626,3.68839,-1.26875,26.3651,0.26698,-0.0250275,-0.455565,1,0,1,81.445,-4.655,1.7325,0.20557,-0.077104,-1.46241,-0.21924,-0.0196,0.34692
-5.36183,0,0,20.3618,20.3618,9.63817,9.63817,3.82988,-1.27583,26.3689,0.267103,-0.022564,-0.45573,1,0,1,82.8625,-3.92,1.5925,0.20557,-0.077104,-1.46241,-0.21924,-0.0196,0.34692
-5.55432,0,0,20.5543,20.5543,9.44568,9.44568,3.96737,-1.28281,26.373,-0.252369,0.53343,0.312041,1,0,1,80.6225,-3.8325,1.855,-0.316224,0.475922,-0.700402,-0.21924,-0.0196,0.34692
-5.74353,0,0,20.7435,20.7435,9.25647,9.25647,4.10252,-1.29209,26.3783,-0.252207,0.535782,0.311871,1,0,1,79.3275,-5.1275,2.5725,-0.316224,0.475922,-0.700402,-0.22456,-0.02212,0.34412
-5.39438,0,0,20.3944,20.3944,9.60562,9.60562,3.85313,-1.25093,26.5431,0.129147,0.395515,-0.0299768,0,0,1,80.64,-5.3375,1.82,0.067466,0.340136,-1.03993,-0.22456,-0.02212,0.34412
-5.05156,0,0,20.0516,20.0516,9.94844,9.94844,3.60826,-1.20908,26.7056,0.128417,0.391252,-0.0296831,0,0,1,80.85,-5.145,0.63,0.067466,0.340136,-1.03993,-0.22456,-0.02212,0.34412
-5.2527,0,0,20.2527,20.2527,9.7473,9.7473,3.75193,-1.21789,26.7069,0.0725654,0.149744,0.197484,1,0,1,84.0525,-5.0225,0.2275,0.011224,0.09638,-0.81435,-0.22456,-0.02212,0.34412
-5.45955,0,0,20.4596,20.4596,9.54045,9.54045,3.89968,-1.22643,26.7086,0.0727145,0.152317,0.197309,1,0,1,86.345,-4.8475,0.4725,0.011224,0.09638,-0.81435,-0.22456,-0.02212,0.34412
-5.37901,0,0,20.379,20.379,9.62099,9.62099,3.84215,-1.44723,26.9791,-0.109306,0.16572,0.0910599,0,0,1,91.0525,-4.83,-0.0525,-0.175436,0.110776,-0.919758,-0.22456,-0.02212,0.34412
-5.30957,0,0,20.3096,20.3096,9.69043,9.69043,3.79255,-1.66355,27.2479,-0.105532,0.16485,0.0910152,0,0,1,94.8675,-5.1625,-0.3675,-0.175436,0.110776,-0.919758,-0.22456,-0.02212,0.34412
-5.53167,0,0,20.5317,20.5317,9.46833,9.46833,3.9512,-1.6726,27.2482,0.140877,0.150269,-0.2329,1,0,1,92.435,-5.1975,-0.315,0.071858,0.093452,-1.24098,-0.22456,-0.02212,0.34412
-5.7365,0,0,20.7365,20.7365,9.2635,9.2635,4.0975,-1.68023,27.2488,0.141011,0.152815,-0.233083,1,0,1,85.5225,-4.3575,-0.2275,0.071858,0.093452,-1.24098,-0.22022,-0.03374,0.3409
-5.93545,0,0,20.9355,20.9355,9.06455,9.06455,4.23961,-1.68863,27.2499,-0.22658,0.174094,-0.184457,1,0,1,83.1775,-4.7775,0.175,-0.297436,0.11224,-1.19255,-0.22022,-0.03374,0.3409
-5.62985,0,0,20.6299,20.6299,9.37015,9.37015,4.02132,-1.58688,27.3902,0.170482,0.356543,0.036315,0,0,1,84.805,-5.2325,-0.5075,0.10309,0.29829,-0.973804,-0.22022,-0.03374,0.3409
-5.34075,0,0,20.3408,20.3408,9.65925,9.65925,3.81482,-1.4877,27.5308,0.168752,0.352952,0.0366075,0,0,1,89.425,-6.1075,0.28,0.10309,0.29829,-0.973804,-0.22022,-0.03374,0.3409
-5.56372,0,0,20.5637,20.5637,9.43628,9.43628,3.97409,-1.49845,27.5337,0.0683493,0.369891,0.416202,1,0,1,92.82,-6.09,1.225,0.002074,0.312442,-0.596946,-0.22022,-0.03374,0.3409
-5.80272,0,0,20.8027,20.8027,9.19728,9.19728,4.1448,-1.50653,27.5381,0.0684904,0.372861,0.415987,1,0,1,99.26,-4.4625,2.03,0.002074,0.312442,-0.596946,-0.22022,-0.03374,0.3409
-6.12881,0,0,21.1288,21.1288,8.87119,8.87119,4.37772,-1.06605,27.4134,0.335605,0.0111575,0.0663148,0,0,1,101.728,-4.06,2.4675,0.278038,-0.052948,-0.943792,-0.22022,-0.03374,0.3409
-6.44685,0,0,21.4468,21.4468,8.55315,8.55315,4.60489,-0.637066,27.2905,0.328119,0.0151184,0.0661153,0,0,1,101.43,-5.2325,2.94,0.278038,-0.052948,-0.943792,-0.22022,-0.03374,0.3409
-5.84402,0,0,20.844,20.844,9.15598,9.15598,4.1743,-0.911865,27.6633,-0.0786791,0.530934,0.101789,0,0,1,96.915,-5.4775,3.57,-0.135298,0.469822,-0.9089,-0.21994,-0.0392,0.33852
-6.06345,0,0,21.0635,21.0635,8.93655,8.93655,4.33104,-0.922148,27.6697,-0.071089,0.156534,-0.238492,1,0,1,91.42,-5.6525,3.2725,-0.127856,0.093086,-1.24635,-0.21994,-0.0392,0.33852
-6.28871,0,0,21.2887,21.2887,8.71129,8.71129,4.49194,-0.934176,27.6735,-0.0708791,0.159333,-0.238712,1,0,1,93.73,-6.7725,1.925,-0.127856,0.093086,-1.24635,-0.21994,-0.0392,0.33852
-5.86631,0,0,20.8663,20.8663,9.13369,9.13369,4.19022,-1.35797,28.1028,-0.247049,0.41005,-0.0139566,0,0,1,94.36,-6.02,1.2075,-0.312198,0.348798,-1.02358,-0.21994,-0.0392,0.33852
-5.46348,0,0,20.4635,20.4635,9.53652,9.53652,3.90248,-1.77235,28.5333,-0.239819,0.405029,-0.0137994,0,0,1,99.715,-6.2125,1.05,-0.312198,0.348798,-1.02358,-0.21994,-0.0392,0.33852
-5.60861,0,0,20.6086,20.6086,9.39139,9.39139,4.00615,-1.59696,28.5828,0.178798,0.0979806,-0.0917837,0,0,1,103.338,-6.4575,0.56,0.111264,0.04026,-1.10093,-0.21994,-0.0392,0.33852
-5.76447,0,0,20.7645,20.7645,9.23553,9.23553,4.11748,-1.42468,28.6315,0.175792,0.0999237,-0.0918422,0,0,1,108.903,-5.9325,0.2975,0.111264,0.04026,-1.10093,-0.21994,-0.0392,0.33852
-6.02722,0,0,21.0272,21.0272,8.97278,8.97278,4.30516,-1.43482,28.6327,-0.145118,0.245833,0.317085,1,0,1,108.728,-5.7925,0.28,-0.211182,0.182756,-0.694912,-0.21994,-0.0392,0.33852
-6.28312,0,0,21.2831,21.2831,8.71688,8.71688,4.48794,-1.44469,28.6338,-0.144946,0.249013,0.316837,1,0,1,105.98,-5.635,0.2275,-0.211182,0.182756,-0.694912,-0.21924,-0.04396,0.3346
-6.53505,0,0,21.5351,21.5351,8.46495,8.46495,4.66789,-1.45564,28.6346,0.188116,0.688012,-0.175336,1,0,1,104.388,-6.2825,0.105,0.123098,0.618174,-1.18303,-0.21924,-0.04396,0.3346
-6.78699,0,0,21.787,21.787,8.21301,8.21301,4.84785,-1.4666,28.6353,0.188307,0.691141,-0.175601,1,0,1,104.388,-6.2825,0.105,0.123098,0.618174,-1.18303,-0.21924,-0.04396,0.3346
-6.56619,0,0,21.5662,21.5662,8.43381,8.43381,4.69013,-1.39464,28.79,0.150606,0.343637,-0.0311223,0,0,1,105.823,-5.95,1.085,0.086498,0.273768,-1.03993,-0.21924,-0.04396,0.3346
-6.34902,0,0,21.349,21.349,8.65098,8.65098,4.53501,-1.32329,28.9438,0.149361,0.340942,-0.0308752,0,0,1,105.823,-5.95,1.085,0.086498,0.273768,-1.03993,-0.21924,-0.04396,0.3346
-6.30387,0,0,21.3039,21.3039,8.69613,8.69613,4.50277,-1.5902,29.2487,-0.162816,0.169272,-0.0302113,0,0,1,105.858,-5.9675,1.82,-0.231678,0.102846,-1.0392,-0.21924,-0.04396,0.3346
-6.64335,0,0,21.6433,21.6433,8.35665,8.35665,4.74525,-1.32326,29.2232,0.220308,-0.00395144,-0.0322785,0,0,1,113.61,-6.475,2.1525,0.157746,-0.07442,-1.04103,-0.21924,-0.04396,0.3346
-6.99306,0,0,21.9931,21.9931,8.00694,8.00694,4.99504,-1.06161,29.1992,0.215743,0.00039966,-0.0325539,0,0,1,120.645,-5.67,2.66,0.157746,-0.07442,-1.04103,-0.21924,-0.04396,0.3346
-7.27249,0,0,22.2725,22.2725,7.72751,7.72751,5.19464,-1.07253,29.2048,0.0105009,0.492742,0.295529,1,0,1,115.448,-6.0025,2.975,-0.048556,0.413946,-0.715164,-0.22008,-0.06048,0.32018
-7.54209,0,0,22.5421,22.5421,7.45791,7.45791,5.38721,-1.08212,29.2103,0.0106683,0.496088,0.295216,1,0,1,111.51,-5.215,2.905,-0.048556,0.413946,-0.715164,-0.22008,-0.06048,0.32018
-7.81198,0,0,22.812,22.812,7.18802,7.18802,5.57998,-1.09321,29.2132,-0.0544974,0.308308,0.242637,1,0,1,111.598,-6.23,1.4,-0.114192,0.223016,-0.767014,-0.22008,-0.06048,0.32018
-8.08186,0,0,23.0819,23.0819,6.91814,6.91814,5.77276,-1.10431,29.2159,-0.0543037,0.311655,0.242301,1,0,1,111.598,-6.23,1.4,-0.114192,0.223016,-0.767014,-0.22008,-0.06048,0.32018
-7.63111,0,0,22.6311,22.6311,7.36889,7.36889,5.45079,-1.25464,29.5166,0.0184167,0.448091,0.119848,0,0,1,119.035,-7.945,1.645,-0.043798,0.364902,-0.889014,-0.22008,-0.06048,0.32018
-7.18718,0,0,22.1872,22.1872,7.81282,7.81282,5.1337,-1.40065,29.8184,0.0209644,0.442577,0.1203,0,0,1,119.035,-7.945,1.645,-0.043798,0.364902,-0.889014,-0.22008,-0.06048,0.32018
-7.4905,0,0,22.4905,22.4905,7.5095,7.5095,5.35035,-1.41157,29.8205,0.0318456,0.381125,-0.322419,1,0,1,124.985,-6.1775,0.945,-0.033062,0.299754,-1.32797,-0.22008,-0.06048,0.32018
-7.79382,0,0,22.7938,22.7938,7.20618,7.20618,5.56701,-1.4225,29.8225,0.0320363,0.384888,-0.322783,1,0,1,124.985,-6.1775,0.945,-0.033062,0.299754,-1.32797,-0.22008,-0.06048,0.32018
-7.159,0,0,22.159,22.159,7.841,7.841,5.11357,-1.42356,30.0705,0.174679,0.629569,0.124256,0,0,1,117.338,-6.545,0.735,0.110166,0.55205,-0.88511,-0.2212,-0.06454,0.3178
-7.4426,0,0,22.4426,22.4426,7.5574,7.5574,5.31614,-1.43641,30.0732,-0.186881,0.565063,0.433882,1,0,1,117.093,-7.28,1.365,-0.25315,0.484096,-0.577548,-0.2212,-0.06454,0.3178
-7.74421,0,0,22.7442,22.7442,7.25579,7.25579,5.53158,-1.44864,30.0753,-0.186668,0.568805,0.433521,1,0,1,124.303,-6.93,1.0675,-0.25315,0.484096,-0.577548,-0.2212,-0.06454,0.3178
-8.05131,0,0,23.0513,23.0513,6.94869,6.94869,5.75094,-1.46164,30.078,0.259776,0.398338,0.443344,1,0,1,126.508,-7.35,1.4175,0.194956,0.310002,-0.567422,-0.2212,-0.06454,0.3178
-8.37038,0,0,23.3704,23.3704,6.62962,6.62962,5.97884,-1.47668,30.0833,0.260038,0.402293,0.442931,1,0,1,131.338,-8.365,3.15,0.194956,0.310002,-0.567422,-0.2212,-0.06454,0.3178
-8.27999,0,0,23.28,23.28,6.72001,6.72001,5.91428,-1.41047,30.2437,0.14578,0.302619,-0.0413403,0,0,1,137.305,-9.31,3.325,0.081374,0.211548,-1.0481,-0.2212,-0.06454,0.3178
-8.19097,0,0,23.191,23.191,6.80903,6.80903,5.85069,-1.34512,30.403,0.14464,0.301519,-0.0411993,0,0,1,137.305,-9.31,3.325,0.081374,0.211548,-1.0481,-0.2212,-0.06454,0.3178
-8.35528,0,0,23.3553,23.3553,6.64472,6.64472,5.96805,-1.24179,30.5083,0.111858,0.125743,0.07162,0,0,1,135.87,-6.16,2.24,0.050264,0.033916,-0.935984,-0.2212,-0.06454,0.3178
-8.51343,0,0,23.5134,23.5134,6.48657,6.48657,6.08102,-1.14447,30.637,0.11016,0.127707,0.0714483,0,0,1,135.87,-6.16,2.24,0.050264,0.033916,-0.935984,-0.21672,-0.07826,0.30688
-8.80664,0,0,23.8066,23.8066,6.19336,6.19336,6.29046,-1.15599,30.6416,0.073429,0.396111,0.155393,1,0,1,120.96,-6.335,2.5725,0.013176,0.298412,-0.852292,-0.21672,-0.07826,0.30688
-9.09985,0,0,24.0998,24.0998,5.90015,5.90015,6.49989,-1.16752,30.6462,0.0736303,0.399742,0.154982,1,0,1,120.96,-6.335,2.5725,0.013176,0.298412,-0.852292,-0.21672,-0.07826,0.30688
-9.42034,0,0,24.4203,24.4203,5.57966,5.57966,6.72881,-1.18129,30.6489,0.104606,0.376353,-0.109699,1,0,1,131.863,-7.7525,1.5925,0.044042,0.271084,-1.11447,-0.21672,-0.07826,0.30688
-9.76131,0,0,24.7613,24.7613,5.23869,5.23869,6.97236,-1.19331,30.6521,0.119516,0.194573,0.239209,1,0,1,140.07,-6.685,1.8725,0.058804,0.085278,-0.767746,-0.21672,-0.07826,0.30688
-10.1189,0,0,25.1189,25.1189,5,5,7.22777,-1.20797,30.654,0.119772,0.198995,0.238653,1,0,1,146.703,-8.3125,1.2775,0.058804,0.085278,-0.767746,-0.21672,-0.07826,0.30688
-10.4666,0,0,25.4666,25.4666,5,5,7.47614,-0.709405,30.5518,0.395712,0.108176,0.112098,0,0,1,153.475,-9.38,1.68,0.34465,-0.00976,-0.892918,-0.21672,-0.07826,0.30688
-10.8008,0,0,25.8008,25.8008,5,5,7.71484,-0.220163,30.4478,0.387174,0.112314,0.111616,0,0,1,151.078,-9.17,0.42,0.34465,-0.00976,-0.892918,-0.21672,-0.07826,0.30688
-11.1416,0,0,26.1416,26.1416,5,5,7.9583,-0.235097,30.4477,0.401527,0.722394,0.0703392,1,0,1,139.983,-8.5925,0.2975,0.358802,0.595482,-0.9333,-0.21476,-0.08344,0.29708
-11.4694,0,0,26.4694,26.4694,5,5,8.19242,-0.249439,30.4489,0.401777,0.72644,0.0697641,1,0,1,134.75,-8.1375,1.0325,0.358802,0.595482,-0.9333,-0.21476,-0.08344,0.29708
-11.8041,0,0,26.8041,26.8041,5,5,8.4315,-0.264,30.452,0.124072,0.0552074,-0.19936,1,0,1,137.533,-8.1025,2.135,0.079666,-0.079178,-1.19975,-0.21476,-0.08344,0.29708
-12.1388,0,0,27.1388,27.1388,5,5,8.67057,-0.278573,30.455,0.124326,0.0593335,-0.199981,1,0,1,137.533,-8.1025,2.135,0.079666,-0.079178,-1.19975,-0.21476,-0.08344,0.29708
-12.4938,0,0,27.4938,27.4938,5,5,8.92414,-0.294546,30.4635,0.294442,0.0618747,-0.180619,1,0,1,145.67,-8.4,5.5125,0.250222,-0.081008,-1.17986,-0.21476,-0.08344,0.29708
-12.8488,0,0,27.8488,27.8488,5,5,9.17769,-0.310556,30.472,0.294722,0.0662448,-0.181317,1,0,1,145.67,-8.4,5.5125,0.250222,-0.081008,-1.17986,-0.21476,-0.08344,0.29708
-13.245,0,0,28.245,28.245,5,5,9.4607,-0.326149,30.4782,0.165733,0.584539,0.226686,1,0,1,162.173,-8.3475,4.1825,0.120414,0.43188,-0.774212,-0.21476,-0.08344,0.29708
-13.6412,0,0,28.6412,28.6412,5,5,9.7437,-0.341772,30.4843,0.166006,0.589409,0.22586,1,0,1,162.173,-8.3475,4.1825,0.120414,0.43188,-0.774212,-0.21476,-0.08344,0.29708
-14.0189,0,0,29.0189,29.0189,5,5,10.0135,-0.365407,30.4874,0.0202708,0.799587,0.454595,1,0,1,154.753,-13.2475,3.3075,-0.026352,0.637206,-0.546438,-0.21518,-0.09702,0.29386
-14.2216,0,0,29.2216,29.2216,5,5,10.1583,-0.13734,30.5437,0.242375,0.141616,-0.0871727,0,0,1,146.685,-11.0775,2.9575,0.20069,-0.02257,-1.0836,-0.21518,-0.09702,0.29386
-14.4374,0,0,29.4374,29.4374,5,5,10.3125,0.0846872,30.5962,0.2385,0.144265,-0.0876491,0,0,1,153.773,-11.7425,1.3825,0.20069,-0.02257,-1.0836,-0.21518,-0.09702,0.29386
-14.8191,0,0,29.8191,29.8191,5,5,10.585,0.0657364,30.5964,0.0263523,1.03815,0.19427,1,0,1,156.31,-10.815,1.2775,-0.012688,0.865712,-0.803004,-0.21518,-0.09702,0.29386
-15.2255,0,0,30.2255,30.2255,5,5,10.8754,0.0517167,30.597,0.026597,1.04313,0.193327,1,0,1,166.25,-7.9275,0.9975,-0.012688,0.865712,-0.803004,-0.21518,-0.09702,0.29386
-15.6481,0,0,30.6481,30.6481,5,5,11.1772,0.0353583,30.5979,-0.594881,0.381242,-0.303409,1,0,1,172.725,-9.2225,1.505,-0.637084,0.199348,-1.29491,-0.21518,-0.09702,0.29386
-16.0657,0,0,31.0657,31.0657,5,5,11.4755,0.0218038,30.5967,-0.594645,0.386346,-0.304431,1,0,1,170.713,-7.84,0.035,-0.637084,0.199348,-1.29491,-0.21518,-0.09702,0.29386
-15.4082,0,0,30.4082,30.4082,5,5,11.0058,0.0433368,30.8034,0.214196,0.737603,0.166707,0,0,1,165.533,-7.14,-1.05,0.175558,0.558272,-0.82899,-0.21518,-0.09702,0.29386
