pid_x,pid_y,pid_z,front_left_speed,front_right_speed,back_left_speed,back_right_speed,orientation_x,orientation_y,orientation_z,acceleration_x,acceleration_y,acceleration_z,accel_rejected,mag_rejected,gyro_x,gyro_y,gyro_z,accel_x,accel_y,accel_z,mag_x,mag_y,mag_z
-0.045271,0,0,15.0453,15.0453,14.9547,14.9547,0.0150903,0.063106,0.0231382,0.0482657,-0.0132376,0.00129074,0,0,3.2375,0.1925,-0.8925,0.009272,-0.001342,-1.01138,-0.0721,0.1071,0.45556
-0.0821441,0,0,15.0821,15.0821,14.9179,14.9179,0.0273814,0.127413,0.043534,0.049816,-0.0105806,-0.00153903,0,0,3.43,0,-0.7875,0.011956,0.001098,-1.01419,-0.0721,0.1071,0.45556
-0.109824,0,0,15.1098,15.1098,14.8902,14.8902,0.036608,0.183937,0.0694905,0.04397,-0.00797702,-0.0015418,0,0,3.4125,-0.0525,-0.735,0.007076,0.003538,-1.01419,-0.0721,0.1071,0.45556
-0.137979,0,0,15.138,15.138,14.862,14.862,0.0459931,0.239374,0.0953948,0.0430025,-0.00781323,-0.00154549,0,0,3.605,0.0525,-0.735,0.007076,0.003538,-1.01419,-0.0721,0.1071,0.45556
-0.180533,0,0,15.1805,15.1805,14.8195,14.8195,0.0601777,0.294827,0.120331,0.0425206,-0.0119622,0.00312181,0,0,3.5525,0.0875,-0.805,0.007564,-0.000854,-1.00955,-0.0721,0.1071,0.45556
-0.209694,0,0,15.2097,15.2097,14.7903,14.7903,0.0698981,0.351582,0.142824,0.0438383,-0.00837304,-0.00340024,0,0,3.4475,0.28,-0.875,0.009882,0.002562,-1.01602,-0.0721,0.1071,0.45556
-0.238069,0,0,15.2381,15.2381,14.7619,14.7619,0.0793563,0.406765,0.16047,0.0428752,-0.00820797,-0.00340683,0,0,3.4125,0.14,-0.945,0.009882,0.002562,-1.01602,-0.07196,0.10962,0.45766
-0.27197,0,0,15.272,15.272,14.728,14.728,0.0906566,0.457894,0.180711,0.0399176,-0.0100869,-0.00931538,0,0,3.2725,0.1225,-0.9625,0.007808,0.000488,-1.02187,-0.07196,0.10962,0.45766
-0.309169,0,0,15.3092,15.3092,14.6908,14.6908,0.103056,0.518378,0.191281,0.0470015,-0.0109697,-0.00280847,0,0,3.2725,0.0875,-1.015,0.015982,-0.00061,-1.01541,-0.07196,0.10962,0.45766
-0.346836,0,0,15.3468,15.3468,14.6532,14.6532,0.115612,0.577627,0.201898,0.0459675,-0.0107506,-0.00281878,0,0,3.5,0.1575,-0.98,0.015982,-0.00061,-1.01541,-0.07196,0.10962,0.45766
-0.383615,0,0,15.3836,15.3836,14.6164,14.6164,0.127872,0.623065,0.22354,0.0352126,-0.0105366,0.000492069,0,0,3.4475,-0.0175,-0.9975,0.005978,-0.00061,-1.01211,-0.07196,0.10962,0.45766
-0.418853,0,0,15.4189,15.4189,14.5811,14.5811,0.139618,0.676064,0.237645,0.0407264,-0.0102095,0.00281712,0,0,3.36,0.2275,-1.0325,0.012444,-0.000488,-1.00979,-0.07196,0.10962,0.45766
-0.454047,0,0,15.454,15.454,14.546,14.546,0.151349,0.727846,0.251995,0.0398227,-0.0100048,0.00280553,0,0,3.4825,0.21,-0.875,0.012444,-0.000488,-1.00979,-0.07196,0.10962,0.45766
-0.490657,0,0,15.4907,15.4907,14.5093,14.5093,0.163552,0.775789,0.268608,0.0370423,-0.0105246,-0.00126333,0,0,3.4475,0.1925,-0.9625,0.010492,-0.00122,-1.01382,-0.07196,0.10962,0.45766
-0.52718,0,0,15.5272,15.5272,14.4728,14.4728,0.175727,0.822048,0.286001,0.036235,-0.0103122,-0.00127522,0,0,3.57,-0.035,-0.9275,0.010492,-0.00122,-1.01382,-0.0686,0.10878,0.4585
-0.560349,0,0,15.5603,15.5603,14.4397,14.4397,0.186783,0.871068,0.299997,0.0385381,-0.00963079,-0.00374744,0,0,3.4125,0.0175,-0.8925,0.013664,-0.000732,-1.01626,-0.0686,0.10878,0.4585
-0.604365,0,0,15.6044,15.6044,14.3956,14.3956,0.201455,0.919718,0.313193,0.0379321,-0.0126722,0.00066457,0,0,3.43,-0.0175,-1.05,0.013908,-0.004026,-1.01187,-0.0686,0.10878,0.4585
-0.638961,0,0,15.639,15.639,14.361,14.361,0.212987,0.96476,0.328708,0.0350808,-0.00990636,0.00298694,0,0,3.4475,0,-0.945,0.011834,-0.001464,-1.00955,-0.0686,0.10878,0.4585
-0.67361,0,0,15.6736,15.6736,14.3264,14.3264,0.224537,1.00901,0.344163,0.0343086,-0.00970486,0.00297287,0,0,3.5875,0.1225,-0.9625,0.011834,-0.001464,-1.00955,-0.0686,0.10878,0.4585
-0.699822,0,0,15.6998,15.6998,14.3002,14.3002,0.233274,1.05179,0.360072,0.0330762,-0.00735416,0.00861446,0,0,3.5,0.0525,-0.7875,0.011346,0.000732,-1.00394,-0.0686,0.10878,0.4585
-0.725511,0,0,15.7255,15.7255,14.2745,14.2745,0.241837,1.09363,0.375951,0.0323461,-0.00720479,0.00860017,0,0,3.5,0.0525,-0.7875,0.011346,0.000732,-1.00394,-0.0686,0.10878,0.4585
-0.751955,0,0,15.752,15.752,14.248,14.248,0.250652,1.12993,0.395449,0.0281896,-0.00741741,0.000349668,0,0,3.57,0.21,-0.945,0.007808,0.000366,-1.01211,-0.06944,0.10892,0.46452
-0.782462,0,0,15.7825,15.7825,14.2175,14.2175,0.260821,1.16492,0.415657,0.027093,-0.00846129,-0.000401045,0,0,3.6575,0.2625,-0.8575,0.00732,-0.000854,-1.01284,-0.06944,0.10892,0.46452
-0.811746,0,0,15.8117,15.8117,14.1883,14.1883,0.270582,1.20492,0.430508,0.031376,-0.0081689,-0.00496537,0,0,3.6575,0.2275,-0.84,0.012322,-0.000732,-1.01736,-0.06944,0.10892,0.46452
-0.835206,0,0,15.8352,15.8352,14.1648,14.1648,0.278402,1.23433,0.454057,0.0232092,-0.00656698,-0.00509989,0,0,3.605,0.105,-0.735,0.004636,0.000732,-1.01748,-0.06944,0.10892,0.46452
-0.85791,0,0,15.8579,15.8579,14.1421,14.1421,0.28597,1.26273,0.477462,0.0227135,-0.00643498,-0.00511135,0,0,3.5525,-0.105,-0.7875,0.004636,0.000732,-1.01748,-0.06944,0.10892,0.46452
-0.886175,0,0,15.8862,15.8862,14.1138,14.1138,0.295392,1.2986,0.493445,0.0282835,-0.00773618,-0.00180656,0,0,3.7275,0.0175,-0.945,0.010858,-0.000732,-1.01419,-0.06944,0.10892,0.46452
-0.912786,0,0,15.9128,15.9128,14.0872,14.0872,0.304262,1.3348,0.508627,0.0283808,-0.00758148,0.000882978,0,0,3.5,0.0525,-0.8225,0.01159,-0.000732,-1.0115,-0.06944,0.10892,0.46452
-0.938496,0,0,15.9385,15.9385,14.0615,14.0615,0.312832,1.37031,0.528524,0.0277611,-0.00743203,0.000867543,0,0,3.43,-0.0175,-0.84,0.01159,-0.000732,-1.0115,-0.07322,0.10682,0.45934
-0.960899,0,0,15.9609,15.9609,14.0391,14.0391,0.3203,1.40015,0.552979,0.0234745,-0.00669117,-0.00308012,0,0,3.325,0.0175,-0.735,0.007808,-0.000122,-1.01541,-0.07322,0.10682,0.45934
-0.940766,0,0,15.9408,15.9408,14.0592,14.0592,0.313589,1.42931,0.57641,0.0229656,0.00589285,0.0100635,0,0,3.4825,-0.07,-0.7525,0.007808,0.012566,-1.00235,-0.07322,0.10682,0.45934
-0.921477,0,0,15.9215,15.9215,14.0785,14.0785,0.307159,1.45823,0.599402,0.022461,0.0057806,0.0100513,0,0,3.57,0.1575,-0.98,0.007808,0.012566,-1.00235,-0.07322,0.10682,0.45934
-0.991145,0,0,15.9911,15.9911,14.0089,14.0089,0.330382,1.4895,0.621174,0.0210651,-0.0184839,0.0557719,0,0,3.605,0.105,-0.98,0.006954,-0.012078,-0.956968,-0.07322,0.10682,0.45934
-1.05908,0,0,16.0591,16.0591,13.9409,13.9409,0.353026,1.52021,0.643281,0.0205293,-0.0180889,0.0557555,0,0,3.535,0.1925,-0.7525,0.006954,-0.012078,-0.956968,-0.07322,0.10682,0.45934
-0.961353,0,0,15.9614,15.9614,14.0386,14.0386,0.320451,1.22266,0.956084,-0.223082,0.0260418,0.0729729,0,0,3.2725,-0.0525,-1.05,-0.242902,0.032574,-0.94001,-0.07322,0.10682,0.45934
-1.44563,0,0,16.4456,16.4456,13.5544,13.5544,0.481878,1.06779,1.15487,-0.173486,-0.201106,-0.381902,0,0,3.465,0.175,-1.085,-0.19581,-0.197152,-1.39141,-0.07322,0.10682,0.45934
-1.44431,0,0,16.4443,16.4443,13.5557,13.5557,0.481435,1.06692,1.15389,-0.173471,-0.201113,-0.381902,1,0,3.22,-0.42,-1.4875,-0.19581,-0.197152,-1.39141,-0.07364,0.11984,0.46774
-1.44151,0,0,16.4415,16.4415,13.5585,13.5585,0.480504,1.06632,1.15348,0.23291,-0.600118,-0.0276869,1,0,2.94,-0.2625,-1.155,0.21228,-0.595726,-1.03993,-0.07364,0.11984,0.46774
-5.24714e-05,0,0,15.0001,15.0001,14.9999,14.9999,1.74905e-05,1.16061,1.08297,0.0875466,0.431041,0.0741176,0,0,3.92,-0.07,-1.505,0.067954,0.442738,-0.938912,-0.07364,0.11984,0.46774
1.41901,0,0,13.581,13.581,16.419,16.419,-0.473004,1.25349,1.01082,0.085926,0.422787,0.0740494,0,0,3.2725,0.1225,-1.9075,0.067954,0.442738,-0.938912,-0.07364,0.11984,0.46774
1.42592,0,0,13.5741,13.5741,16.4259,16.4259,-0.475308,1.24618,1.04604,-0.00603263,0.00275282,-0.00377453,0,0,3.92,0.315,-1.4,-0.024522,0.02318,-1.01614,-0.07364,0.11984,0.46774
1.09647,0,0,13.9035,13.9035,16.0965,16.0965,-0.365489,1.23709,1.08657,-0.0102475,-0.0979175,-0.0117487,0,0,2.9925,0.5075,-1.2775,-0.028914,-0.0793,-1.02407,-0.07364,0.11984,0.46774
0.773046,0,0,14.227,14.227,15.773,15.773,-0.257682,1.22852,1.12748,-0.0100981,-0.0960364,-0.0117352,0,0,3.08,0.735,-0.9275,-0.028914,-0.0793,-1.02407,-0.07364,0.11984,0.46774
0.678738,0,0,14.3213,14.3213,15.6787,15.6787,-0.226246,1.57768,0.836051,0.30927,-0.0299052,-0.0485208,0,0,3.7275,0.385,-0.8925,0.297924,-0.013786,-1.06042,-0.07084,0.1197,0.4753
0.270366,0,0,14.7296,14.7296,15.2704,15.2704,-0.0901219,1.4555,0.97426,-0.0946035,-0.109844,0.0814988,0,0,3.92,-0.35,-0.5775,-0.1098,-0.096014,-0.93147,-0.07084,0.1197,0.4753
-0.0555045,0,0,15.0555,15.0555,14.9445,14.9445,0.0185015,1.78965,0.69566,0.239484,-0.0863322,0.131867,0,0,3.85,-0.49,-0.385,0.231556,-0.07442,-0.881328,-0.07084,0.1197,0.4753
-0.370822,0,0,15.3708,15.3708,14.6292,14.6292,0.123607,2.11745,0.419261,0.233766,-0.0844991,0.131669,0,0,3.08,-0.0875,-0.07,0.231556,-0.07442,-0.881328,-0.07084,0.1197,0.4753
-0.997184,0,0,15.9972,15.9972,14.0028,14.0028,0.332395,1.7901,0.739693,-0.32033,-0.226554,-0.176382,0,0,3.8675,0.4725,0.3325,-0.33062,-0.219966,-1.18718,-0.07084,0.1197,0.4753
-0.6229,0,0,15.6229,15.6229,14.3771,14.3771,0.207633,2.06507,0.505198,0.234558,0.112858,-0.0138726,0,0,2.24,-0.2625,0.8225,0.231434,0.121268,-1.02578,-0.07084,0.1197,0.4753
-0.263231,0,0,15.2632,15.2632,14.7368,14.7368,0.0877438,2.33662,0.270763,0.229822,0.110766,-0.0140492,0,0,3.675,1.085,1.1725,0.231434,0.121268,-1.02578,-0.07084,0.1197,0.4753
-0.41941,0,0,15.4194,15.4194,14.5806,14.5806,0.139803,2.71946,-0.0858379,0.367107,-0.0528311,-0.0824592,0,0,4.1125,-3.9375,0.7525,0.376004,-0.043066,-1.09336,-0.07112,0.1281,0.48356
-0.424281,0,0,15.4243,15.4243,14.5757,14.5757,0.141427,2.71846,-0.0841159,-0.236781,0.0276787,0.538063,1,0,4.3225,-0.49,0.0875,-0.230458,0.037332,-0.47763,-0.07112,0.1281,0.48356
-0.429153,0,0,15.4292,15.4292,14.5708,14.5708,0.143051,2.71747,-0.0823938,-0.236763,0.0277071,0.538063,1,0,4.3225,-0.49,0.0875,-0.230458,0.037332,-0.47763,-0.07112,0.1281,0.48356
-0.429086,0,0,15.4291,15.4291,14.5709,14.5709,0.143029,2.71707,-0.0818112,-0.967736,0.763032,0.0897935,1,0,3.43,-0.14,-0.5775,-0.964532,0.771894,-0.922442,-0.07112,0.1281,0.48356
-0.42902,0,0,15.429,15.429,14.571,14.571,0.143007,2.71667,-0.0812286,-0.967729,0.763031,0.0897938,1,0,3.43,-0.14,-0.5775,-0.964532,0.771894,-0.922442,-0.07112,0.1281,0.48356
-0.434755,0,0,15.4348,15.4348,14.5652,14.5652,0.144918,2.71816,-0.0813318,-0.151249,0.765263,-0.17344,1,0,4.5325,0.9625,-0.98,-0.14457,0.77409,-1.18364,-0.07112,0.1281,0.48356
-0.440491,0,0,15.4405,15.4405,14.5595,14.5595,0.14683,2.71965,-0.0814349,-0.151275,0.765296,-0.173442,1,0,4.5325,0.9625,-0.98,-0.14457,0.77409,-1.18364,-0.07112,0.1281,0.48356
-0.446187,0,0,15.4462,15.4462,14.5538,14.5538,0.148729,2.72168,-0.0831278,0.0928755,-0.250765,0.318474,1,0,4.5675,1.2775,-1.9075,0.10065,-0.24095,-0.695522,-0.07112,0.1281,0.48356
-0.451883,0,0,15.4519,15.4519,14.5481,14.5481,0.150628,2.72371,-0.0848207,0.0928401,-0.250732,0.318472,1,0,4.5675,1.2775,-1.9075,0.10065,-0.24095,-0.695522,-0.07406,0.13076,0.49042
-0.0411654,0,0,15.0412,15.0412,14.9588,14.9588,0.0137218,2.69236,-0.0791097,-0.0289496,0.11375,0.0627683,0,0,3.745,0.595,-2.205,-0.022204,0.125538,-0.949282,-0.07406,0.13076,0.49042
0.361519,0,0,14.6385,14.6385,15.3615,15.3615,-0.120506,2.66163,-0.0731953,-0.0284138,0.11141,0.0627911,0,0,3.745,0.595,-2.205,-0.022204,0.125538,-0.949282,-0.07406,0.13076,0.49042
0.362487,0,0,14.6375,14.6375,15.3625,15.3625,-0.120829,2.66075,-0.0770531,0.0321015,-0.11795,-0.240645,1,0,3.3775,-0.42,-3.1675,0.038552,-0.103578,-1.25038,-0.07406,0.13076,0.49042
0.365931,0,0,14.6341,14.6341,15.3659,15.3659,-0.121977,2.66017,-0.0812117,0.0464469,0.0299256,-0.139212,1,0,2.9225,-0.245,-3.3425,0.052948,0.044164,-1.14973,-0.07406,0.13076,0.49042
0.371143,0,0,14.6289,14.6289,15.3711,15.3711,-0.123714,2.65896,-0.0846185,0.046468,0.0298954,-0.139211,1,0,2.5725,-0.6125,-2.905,0.052948,0.044164,-1.14973,-0.07406,0.13076,0.49042
0.374517,0,0,14.6255,14.6255,15.3745,15.3745,-0.124839,2.65859,-0.0876067,0.107339,0.262405,-0.088802,1,0,2.905,-0.1225,-2.66,0.11407,0.276452,-1.09971,-0.07406,0.13076,0.49042
0.382023,0,0,14.618,14.618,15.382,15.382,-0.127341,2.65962,-0.0899975,0.0979664,0.0607302,0.128201,1,0,2.1175,0.7,-2.31,0.104676,0.07503,-0.884378,-0.07406,0.13076,0.49042
0.387888,0,0,14.6121,14.6121,15.3879,15.3879,-0.129296,2.66105,-0.0913686,-0.0648492,-0.0130684,0.228526,1,0,2.3975,0.9275,-1.715,-0.058804,0.001342,-0.784826,-0.07406,0.13076,0.49042
0.392495,0,0,14.6075,14.6075,15.3925,15.3925,-0.130832,2.66098,-0.0917755,-0.0648481,-0.0130952,0.228526,1,0,2.6075,0.0525,-1.155,-0.058804,0.001342,-0.784826,-0.07616,0.13426,0.49154
0.390037,0,0,14.61,14.61,15.39,15.39,-0.130012,2.66097,-0.0918824,-0.0429805,-0.0151571,0.162134,1,0,3.92,0.0875,-0.98,-0.036844,-0.000732,-0.850706,-0.07616,0.13426,0.49154
0.378554,0,0,14.6214,14.6214,15.3786,15.3786,-0.126185,2.66004,-0.0910566,-0.0429643,-0.0150903,0.162135,1,0,5.5825,-0.455,-0.4375,-0.036844,-0.000732,-0.850706,-0.07616,0.13426,0.49154
0.134708,0,0,14.8653,14.8653,15.1347,15.1347,-0.0449028,2.65122,-0.100523,-0.00272032,-0.0726605,-0.0666633,0,0,5.705,-0.2625,-0.1225,0.003416,-0.059658,-1.07775,-0.07616,0.13426,0.49154
-0.102937,0,0,15.1029,15.1029,14.8971,14.8971,0.0343122,2.64122,-0.110122,-0.00254587,-0.0712794,-0.0666551,0,0,5.4425,-1.085,-0.175,0.003416,-0.059658,-1.07775,-0.07616,0.13426,0.49154
-0.103103,0,0,15.1031,15.1031,14.8969,14.8969,0.0343675,2.63912,-0.108519,-0.0366468,0.0188511,-0.11989,1,0,3.4475,-1.1375,0.0175,-0.030866,0.030378,-1.13057,-0.07616,0.13426,0.49154
-0.0976414,0,0,15.0976,15.0976,14.9024,14.9024,0.0325471,2.63735,-0.106976,-0.0366159,0.0188194,-0.119889,1,0,2.3975,-0.945,-0.0175,-0.030866,0.030378,-1.13057,-0.07616,0.13426,0.49154
0.214513,0,0,14.7855,14.7855,15.2145,15.2145,-0.0715044,2.643,-0.135331,0.00616997,0.0930902,-0.0435428,0,0,1.47,-0.56,-0.28,0.0122,0.106384,-1.05481,-0.07616,0.13426,0.49154
0.520852,0,0,14.4791,14.4791,15.5209,15.5209,-0.173617,2.65117,-0.169991,0.00602756,0.0913099,-0.0435532,0,0,1.4,0.6475,0.0175,0.0122,0.106384,-1.05481,-0.077,0.1386,0.49448
0.520983,0,0,14.479,14.479,15.521,15.521,-0.173661,2.65198,-0.16851,-0.0243579,-0.07747,0.171483,1,0,3.395,0.56,-0.0525,-0.0183,-0.06222,-0.841434,-0.077,0.1386,0.49448
0.521124,0,0,14.4789,14.4789,15.5211,15.5211,-0.173708,2.65114,-0.166422,-0.0243433,-0.0774708,0.171484,1,0,3.3775,-0.4025,0.2975,-0.0183,-0.06222,-0.841434,-0.077,0.1386,0.49448
0.510375,0,0,14.4896,14.4896,15.5104,15.5104,-0.170125,2.65003,-0.164815,-0.487063,-0.0633637,-0.0332244,1,0,5.425,-0.56,0.0175,-0.482998,-0.04819,-1.04456,-0.077,0.1386,0.49448
0.49953,0,0,14.5005,14.5005,15.4995,15.4995,-0.16651,2.65209,-0.163186,-0.487099,-0.0633007,-0.0332259,1,0,5.4425,1.295,0.035,-0.482998,-0.04819,-1.04456,-0.077,0.1386,0.49448
0.493774,0,0,14.5062,14.5062,15.4938,15.4938,-0.164591,2.65343,-0.161796,-0.0064034,-0.0300488,-0.129373,1,0,4.4975,0.875,-0.105,-0.000244,-0.015006,-1.13997,-0.077,0.1386,0.49448
0.490443,0,0,14.5096,14.5096,15.4904,15.4904,-0.163481,2.65208,-0.161689,-0.00637985,-0.0300294,-0.129371,1,0,4.0775,-0.7,-0.8575,-0.000244,-0.015006,-1.13997,-0.077,0.1386,0.49448
0.493259,0,0,14.5067,14.5067,15.4933,15.4933,-0.16442,2.65139,-0.162004,0.104306,0.0105003,-0.2415,1,0,2.94,-0.315,-1.1025,0.110898,0.025498,-1.25123,-0.077,0.1386,0.49448
0.495221,0,0,14.5048,14.5048,15.4952,15.4952,-0.165074,2.65219,-0.161573,0.104292,0.0104889,-0.241501,1,0,3.08,0.56,-0.665,0.110898,0.025498,-1.25123,-0.0672,0.14168,0.49294
0.734688,0,0,14.2653,14.2653,15.7347,15.7347,-0.244896,2.52583,-0.0800954,-0.111815,0.0765107,-0.074319,0,0,3.4125,0.6475,-1.155,-0.108336,0.092842,-1.08543,-0.0672,0.14168,0.49294
0.971293,0,0,14.0287,14.0287,15.9713,15.9713,-0.323764,2.40211,0.000694966,-0.109658,0.0751351,-0.074233,0,0,3.0975,0.6825,-1.68,-0.108336,0.092842,-1.08543,-0.0672,0.14168,0.49294
0.61776,0,0,14.3822,14.3822,15.6178,15.6178,-0.20592,2.48014,-0.0994916,0.0584543,-0.0981838,0.0738714,0,0,3.5175,0.77,-1.925,0.061854,-0.08235,-0.938424,-0.0672,0.14168,0.49294
0.271135,0,0,14.7289,14.7289,15.2711,15.2711,-0.0903782,2.55533,-0.198397,0.0571433,-0.096169,0.073819,0,0,3.4825,0.035,-1.4525,0.061854,-0.08235,-0.938424,-0.0672,0.14168,0.49294
1.24784,0,0,13.7522,13.7522,16.2478,16.2478,-0.415946,2.3726,-0.0688369,-0.16369,0.298973,0.0216779,0,0,3.885,-0.5075,-1.7325,-0.163114,0.318054,-0.990274,-0.0672,0.14168,0.49294
2.20537,0,0,12.7946,12.7946,17.2054,17.2054,-0.735124,2.19413,0.0617694,-0.160578,0.293406,0.0217461,0,0,4.0775,0.035,-2.205,-0.163114,0.318054,-0.990274,-0.0672,0.14168,0.49294
2.19957,0,0,12.8004,12.8004,17.1996,17.1996,-0.733192,2.19461,0.0597355,-0.0546504,0.174366,-0.217757,1,0,4.585,0.385,-2.1,-0.05673,0.199104,-1.22793,-0.0672,0.14168,0.49294
2.19663,0,0,12.8034,12.8034,17.1966,17.1966,-0.73221,2.1936,0.0589511,-0.0546329,0.174383,-0.217757,1,0,4.025,-0.49,-1.3825,-0.05673,0.199104,-1.22793,-0.06902,0.14546,0.5054
2.8159,0,0,12.1841,12.1841,17.8159,17.8159,-0.938632,2.4216,-0.188486,0.203557,0.20144,-0.0369891,0,0,4.3225,-0.4725,-1.5575,0.206546,0.229726,-1.04835,-0.06902,0.14546,0.5054
3.426,0,0,11.574,11.574,18.426,18.426,-1.142,2.64626,-0.43694,0.19964,0.197898,-0.0372268,0,0,3.9375,0.2975,-1.435,0.206546,0.229726,-1.04835,-0.06902,0.14546,0.5054
3.64531,0,0,11.3547,11.3547,18.6453,18.6453,-1.2151,2.60455,-0.438023,-0.0389596,0.0593525,0.0735569,0,0,3.78,0.9275,-1.365,-0.033794,0.092598,-0.938424,-0.06902,0.14546,0.5054
3.86129,0,0,11.1387,11.1387,18.8613,18.8613,-1.2871,2.56242,-0.437763,-0.0382251,0.0580968,0.0735626,0,0,3.57,0.1925,-0.665,-0.033794,0.092598,-0.938424,-0.06902,0.14546,0.5054
3.96476,0,0,11.0352,11.0352,18.9648,18.9648,-1.32159,2.62882,-0.538091,0.0557405,0.0314838,-0.00359223,0,0,3.7275,-0.1225,-0.455,0.061732,0.066612,-1.01492,-0.06902,0.14546,0.5054
4.06627,0,0,10.9337,10.9337,19.0663,19.0663,-1.35542,2.69338,-0.638514,0.0546149,0.0308953,-0.00365831,0,0,3.7275,-0.385,-0.56,0.061732,0.066612,-1.01492,-0.06902,0.14546,0.5054
4.05813,0,0,10.9419,10.9419,19.0581,19.0581,-1.35271,2.6936,-0.637485,0.538853,-0.106694,-0.0299684,1,0,4.9525,0.21,-0.315,0.548024,-0.070882,-1.04103,-0.06902,0.14546,0.5054
4.05144,0,0,10.9486,10.9486,19.0514,19.0514,-1.35048,2.6919,-0.63614,0.538883,-0.106655,-0.029966,1,0,4.6725,-0.9275,-0.1575,0.548024,-0.070882,-1.04103,-0.06902,0.14546,0.5054
4.04799,0,0,10.952,10.952,19.048,19.048,-1.34933,2.68988,-0.635149,-0.110302,0.104033,0.160483,1,0,4.0775,-1.1025,-0.3675,-0.103944,0.139568,-0.852048,-0.06566,0.14938,0.50778
4.04474,0,0,10.9553,10.9553,19.0447,19.0447,-1.34825,2.68888,-0.634271,-0.110284,0.104052,0.160485,1,0,4.0425,-0.5075,-0.42,-0.103944,0.139568,-0.852048,-0.06566,0.14938,0.50778
4.32537,0,0,10.6746,10.6746,19.3254,19.3254,-1.44179,2.44098,-0.446235,-0.224289,0.0903263,-0.038784,0,0,4.0425,-0.14,-0.35,-0.222772,0.12749,-1.04993,-0.06566,0.14938,0.50778
4.60198,0,0,10.398,10.398,19.602,19.602,-1.53399,2.19811,-0.258272,-0.220054,0.0887145,-0.0386543,0,0,3.815,-0.0175,-0.7175,-0.222772,0.12749,-1.04993,-0.06566,0.14938,0.50778
4.13077,0,0,10.8692,10.8692,19.1308,19.1308,-1.37692,2.34447,-0.430773,0.112209,-0.129838,0.105041,0,0,4.2525,0.8575,-0.8225,0.11346,-0.093574,-0.907314,-0.06566,0.14938,0.50778
3.66459,0,0,11.3354,11.3354,18.6646,18.6646,-1.22153,2.48758,-0.602181,0.109713,-0.127127,0.104997,0,0,4.97,0.63,-0.77,0.11346,-0.093574,-0.907314,-0.06566,0.14938,0.50778
3.67519,0,0,11.3248,11.3248,18.6752,18.6752,-1.22506,2.51548,-0.669807,0.0216353,0.00470888,0.0117795,0,0,4.6025,0.7875,-0.6125,0.025498,0.038186,-0.99979,-0.06566,0.14938,0.50778
3.68593,0,0,11.3141,11.3141,18.6859,18.6859,-1.22864,2.54011,-0.737857,0.0212059,0.00464687,0.0117592,0,0,4.55,-0.7875,-0.945,0.025498,0.038186,-0.99979,-0.06566,0.14938,0.50778
3.68569,0,0,11.3143,11.3143,18.6857,18.6857,-1.22856,2.53952,-0.738402,0.135656,0.0782907,0.289869,1,0,3.5175,-0.245,-1.2425,0.140422,0.111752,-0.723826,-0.06664,0.1526,0.51366
3.69081,0,0,11.3092,11.3092,18.6908,18.6908,-1.23027,2.53938,-0.739166,0.374378,0.186587,-0.145984,1,0,2.52,0.0175,-1.365,0.380152,0.219966,-1.15632,-0.06664,0.1526,0.51366
3.69663,0,0,11.3034,11.3034,18.6966,18.6966,-1.23221,2.53975,-0.739581,0.374371,0.186554,-0.145985,1,0,2.38,0.315,-1.155,0.380152,0.219966,-1.15632,-0.06664,0.1526,0.51366
3.5552,0,0,11.4448,11.4448,18.5552,18.5552,-1.18507,2.45603,-0.708958,-0.0703861,-0.0438118,-0.0382009,0,0,3.01,0.315,-1.5575,-0.067954,-0.01098,-1.04944,-0.06664,0.1526,0.51366
3.42031,0,0,11.5797,11.5797,18.4203,18.4203,-1.1401,2.37487,-0.678918,-0.0689708,-0.0430292,-0.0381253,0,0,2.31,0.7875,-1.785,-0.067954,-0.01098,-1.04944,-0.06664,0.1526,0.51366
2.86396,0,0,12.136,12.136,17.864,17.864,-0.954654,2.71335,-1.03696,0.302827,-0.172787,0.0315064,0,0,4.795,0.4375,-1.715,0.311344,-0.143838,-0.980148,-0.06664,0.1526,0.51366
2.31504,0,0,12.685,12.685,17.315,17.315,-0.771681,3.04614,-1.3921,0.297025,-0.169594,0.0312627,0,0,5.2675,0.8925,-1.5575,0.311344,-0.143838,-0.980148,-0.06664,0.1526,0.51366
2.30556,0,0,12.6944,12.6944,17.3056,17.3056,-0.76852,3.04752,-1.39337,-0.436651,-0.219244,-0.147505,1,0,5.2675,0.91,-1.645,-0.425414,-0.193492,-1.15754,-0.06664,0.1526,0.51366
2.2958,0,0,12.7042,12.7042,17.2958,17.2958,-0.765266,3.04775,-1.39405,-0.436655,-0.219188,-0.147504,1,0,5.3025,0.2275,-1.3125,-0.425414,-0.193492,-1.15754,-0.07224,0.15484,0.50596
2.3588,0,0,12.6412,12.6412,17.3588,17.3588,-0.786265,3.22071,-1.61441,0.153303,0.0196948,-0.0325946,0,0,3.5,-0.0875,-1.4175,0.170068,0.045506,-1.04334,-0.07224,0.15484,0.50596
2.42278,0,0,12.5772,12.5772,17.4228,17.4228,-0.807594,3.38933,-1.83396,0.150365,0.0193256,-0.0327694,0,0,3.0975,-0.5425,-1.1025,0.170068,0.045506,-1.04334,-0.07224,0.15484,0.50596
2.50067,0,0,12.4993,12.4993,17.5007,17.5007,-0.833556,3.49386,-1.99836,0.1008,0.0243706,-0.0802206,0,0,2.45,-0.9975,-1.1025,0.122122,0.050996,-1.09031,-0.07224,0.15484,0.50596
2.58114,0,0,12.4189,12.4189,17.5811,17.5811,-0.86038,3.59761,-2.16246,0.0989924,0.023905,-0.0803395,0,0,1.6975,-0.175,-1.0325,0.122122,0.050996,-1.09031,-0.07224,0.15484,0.50596
3.04506,0,0,11.9549,11.9549,18.0451,18.0451,-1.01502,3.76256,-2.38888,0.140583,0.146029,-0.0320037,0,0,2.73,0.0525,-0.84,0.166774,0.17568,-1.04212,-0.07224,0.15484,0.50596
3.49981,0,0,11.5002,11.5002,18.4998,18.4998,-1.1666,3.92411,-2.61536,0.13777,0.143393,-0.0322429,0,0,2.8525,0.1225,-0.595,0.166774,0.17568,-1.04212,-0.07224,0.15484,0.50596
2.98941,0,0,12.0106,12.0106,17.9894,17.9894,-0.99647,3.97749,-2.72891,0.0573888,-0.156885,-0.0167596,0,0,3.675,0.49,-0.665,0.086986,-0.127246,-1.02675,-0.07224,0.15484,0.50596
2.48758,0,0,12.5124,12.5124,17.4876,17.4876,-0.829193,4.02937,-2.84711,0.0564857,-0.153972,-0.0167764,0,0,3.8325,0.6825,-0.35,0.086986,-0.127246,-1.02675,-0.07154,0.15862,0.51422
2.48539,0,0,12.5146,12.5146,17.4854,17.4854,-0.828464,4.02988,-2.84623,0.0603643,0.195323,0.146499,1,0,3.8325,0.385,-0.4025,0.09089,0.221674,-0.864736,-0.07154,0.15862,0.51422
2.48392,0,0,12.5161,12.5161,17.4839,17.4839,-0.827974,4.02928,-2.84567,0.0603747,0.195332,0.1465,1,0,3.71,-0.2625,-0.595,0.09089,0.221674,-0.864736,-0.07154,0.15862,0.51422
3.30424,0,0,11.6958,11.6958,18.3042,18.3042,-1.10141,3.7636,-2.6883,-0.244301,0.244668,0.0526789,0,0,3.6225,-0.525,-0.6475,-0.219722,0.27572,-0.958066,-0.07154,0.15862,0.51422
4.10981,0,0,10.8902,10.8902,19.1098,19.1098,-1.36994,3.50324,-2.52886,-0.239767,0.239986,0.0528659,0,0,3.5175,-0.14,-0.6825,-0.219722,0.27572,-0.958066,-0.07154,0.15862,0.51422
4.11165,0,0,10.8884,10.8884,19.1116,19.1116,-1.37055,3.50271,-2.52838,0.084002,0.0638684,0.213314,1,0,3.0975,-0.2275,-0.6475,0.105408,0.099796,-0.798856,-0.07154,0.15862,0.51422
4.1171,0,0,10.8829,10.8829,19.1171,19.1171,-1.37237,3.5032,-2.52769,0.0839935,0.0638368,0.213313,1,0,2.415,0.3675,-0.5075,0.105408,0.099796,-0.798856,-0.07154,0.15862,0.51422
3.47507,0,0,11.5249,11.5249,18.4751,18.4751,-1.15836,3.29415,-2.39335,-0.158859,-0.183044,0.0858678,0,0,2.1525,0.175,-0.7175,-0.14213,-0.150548,-0.925614,-0.07154,0.15862,0.51422
2.84249,0,0,12.1575,12.1575,17.8425,17.8425,-0.947496,3.09104,-2.26168,-0.155319,-0.179374,0.0861328,0,0,2.73,0.735,-0.7,-0.14213,-0.150548,-0.925614,-0.06972,0.15918,0.5222
3.53989,0,0,11.4601,11.4601,18.5399,18.5399,-1.17996,2.97331,-2.22224,-0.109654,0.191624,0.102518,0,0,3.5525,0.5775,-0.875,-0.098332,0.224114,-0.909388,-0.06972,0.15918,0.5222
4.19625,0,0,10.8038,10.8038,19.1962,19.1962,-1.39875,2.8577,-2.18219,-0.107639,0.187809,0.102535,0,0,8.7675,0.63,-0.98,-0.098332,0.224114,-0.909388,-0.06972,0.15918,0.5222
4.31721,0,0,10.6828,10.6828,19.3172,19.3172,-1.43907,2.60262,-2.00333,-0.237555,0.043358,-0.0741931,0,0,4.3575,0.3675,-1.12,-0.233264,0.08052,-1.08495,-0.06972,0.15918,0.5222
4.43827,0,0,10.5617,10.5617,19.4383,19.4383,-1.47942,2.35192,-1.8254,-0.233184,0.0426498,-0.074022,0,0,3.955,0.035,-1.75,-0.233264,0.08052,-1.08495,-0.06972,0.15918,0.5222
4.43857,0,0,10.5614,10.5614,19.4386,19.4386,-1.47952,2.352,-1.82665,0.289932,0.0239627,0.224497,1,0,3.43,0.1575,-1.645,0.292068,0.061854,-0.78873,-0.06972,0.15918,0.5222
4.44095,0,0,10.5591,10.5591,19.4409,19.4409,-1.48032,2.35193,-1.82798,0.289934,0.0239489,0.224497,1,0,3.045,0.07,-1.6975,0.292068,0.061854,-0.78873,-0.06972,0.15918,0.5222
4.86358,0,0,10.1364,10.1364,19.8636,19.8636,-1.62119,2.60612,-2.12441,0.202648,0.118223,0.0736263,0,0,2.0825,-0.0525,-2.03,0.208864,0.158478,-0.93818,-0.06972,0.15918,0.5222
5.27882,0,0,9.72118,9.72118,20.2788,20.2788,-1.75961,2.85904,-2.42961,0.198239,0.115817,0.0733448,0,0,2.17,0.1575,-2.275,0.208864,0.158478,-0.93818,-0.07602,0.1652,0.5131
6.11392,0,0,8.88608,8.88608,21.1139,21.1139,-2.03797,2.73111,-2.38531,-0.12329,0.234312,0.0951777,0,0,3.0625,0.525,-1.9075,-0.116266,0.281698,-0.916464,-0.07602,0.1652,0.5131
6.9316,0,0,8.0684,8.0684,21.9316,21.9316,-2.31053,2.60531,-2.33947,-0.121097,0.229559,0.0950995,0,0,3.395,0.5075,-1.5925,-0.116266,0.281698,-0.916464,-0.07602,0.1652,0.5131
6.68552,0,0,8.31448,8.31448,21.6855,21.6855,-2.22851,2.10342,-1.92363,-0.430516,-0.076663,0.0813766,0,0,4.41,-0.105,-1.5225,-0.435784,-0.02562,-0.930494,-0.07602,0.1652,0.5131
6.44908,0,0,8.55092,8.55092,21.4491,21.4491,-2.14969,1.61051,-1.50942,-0.421918,-0.0752999,0.0817077,0,0,3.535,-0.245,-1.47,-0.435784,-0.02562,-0.930494,-0.07602,0.1652,0.5131
6.45203,0,0,8.54797,8.54797,21.452,21.452,-2.15068,1.60951,-1.51042,0.33532,-0.0655469,-0.126813,1,0,2.9225,-0.4725,-1.5225,0.324642,-0.01586,-1.13741,-0.07602,0.1652,0.5131
6.45641,0,0,8.54359,8.54359,21.4564,21.4564,-2.15214,1.60926,-1.51058,0.335324,-0.0655723,-0.126814,1,0,2.6425,-0.0525,-1.015,0.324642,-0.01586,-1.13741,-0.07602,0.1652,0.5131
6.46145,0,0,8.53855,8.53855,21.4614,21.4614,-2.15382,1.60948,-1.51082,0.307743,-0.326464,-0.168126,1,0,2.52,0.2275,-1.05,0.296948,-0.276452,-1.1784,-0.07602,0.1652,0.5131
6.4665,0,0,8.5335,8.5335,21.4665,21.4665,-2.1555,1.60879,-1.51015,0.307755,-0.326494,-0.168127,1,0,2.5025,-0.3325,-0.5425,0.296948,-0.276452,-1.1784,-0.07602,0.1652,0.5131
6.46854,0,0,8.53146,8.53146,21.4685,21.4685,-2.15618,1.60813,-1.50918,-0.457714,-0.130126,-0.212634,1,0,3.0625,-0.315,-0.3675,-0.471774,-0.080276,-1.22256,-0.0651,0.15372,0.51128
6.46775,0,0,8.53225,8.53225,21.4677,21.4677,-2.15592,1.60719,-1.50691,-0.457698,-0.130121,-0.212633,1,0,3.57,-0.5075,0.385,-0.471774,-0.080276,-1.22256,-0.0651,0.15372,0.51128
6.46731,0,0,8.53269,8.53269,21.4673,21.4673,-2.15577,1.60647,-1.50443,-0.147168,-0.219027,-0.14956,1,0,3.5,-0.385,0.5075,-0.159942,-0.169092,-1.15998,-0.0651,0.15372,0.51128
6.46688,0,0,8.53312,8.53312,21.4669,21.4669,-2.15563,1.60575,-1.50196,-0.147156,-0.219024,-0.14956,1,0,3.5,-0.385,0.5075,-0.159942,-0.169092,-1.15998,-0.0651,0.15372,0.51128
6.44751,0,0,8.55249,8.55249,21.4475,21.4475,-2.14917,1.6114,-1.53665,0.00338816,-0.00897587,0.0567491,0,0,2.59,-0.0525,0.56,-0.008662,0.040626,-0.95526,-0.0651,0.15372,0.51128
6.4285,0,0,8.5715,8.5715,21.4285,21.4285,-2.14283,1.61694,-1.57129,0.00329145,-0.00886531,0.0567505,0,0,2.59,-0.0525,0.56,-0.008662,0.040626,-0.95526,-0.0651,0.15372,0.51128
5.76888,0,0,9.23112,9.23112,20.7689,20.7689,-1.92296,1.75813,-1.73026,0.113324,-0.188219,0.120993,0,0,1.54,-0.1225,-0.14,0.10431,-0.142374,-0.891576,-0.0651,0.15372,0.51128
5.12126,0,0,9.87874,9.87874,20.1213,20.1213,-1.70709,1.89669,-1.888,0.110907,-0.184453,0.121035,0,0,1.54,-0.1225,-0.14,0.10431,-0.142374,-0.891576,-0.0651,0.15372,0.51128
5.12979,0,0,9.87021,9.87021,20.1298,20.1298,-1.70993,1.897,-1.88662,0.0343657,-0.253138,0.143041,1,0,1.8375,0.245,-0.105,0.02745,-0.210938,-0.869738,-0.06888,0.15582,0.50792
5.77325,0,0,9.22675,9.22675,20.7733,20.7733,-1.92442,2.14706,-2.16731,0.197654,0.182784,0.097155,0,0,3.29,-0.1925,-0.3675,0.19581,0.228262,-0.915,-0.06888,0.15582,0.50792
6.40605,0,0,8.59395,8.59395,21.4061,21.4061,-2.13535,2.39352,-2.45081,0.193356,0.179114,0.0968544,0,0,3.2025,0.595,-1.12,0.19581,0.228262,-0.915,-0.06888,0.15582,0.50792
6.54293,0,0,8.45707,8.45707,21.5429,21.5429,-2.18098,2.45173,-2.55544,0.0398765,0.0340886,0.0923554,0,0,3.325,0.735,-1.1025,0.0427,0.08418,-0.919392,-0.06888,0.15582,0.50792
6.68025,0,0,8.31975,8.31975,21.6802,21.6802,-2.22675,2.50841,-2.66081,0.0388881,0.0332927,0.092282,0,0,2.7825,0.56,-1.5575,0.0427,0.08418,-0.919392,-0.06888,0.15582,0.50792
6.87763,0,0,8.12237,8.12237,21.8776,21.8776,-2.29254,2.25294,-2.47022,-0.236317,0.0618158,-0.0259776,0,0,2.2225,0.2975,-2.065,-0.238144,0.113826,-1.03688,-0.06888,0.15582,0.50792
7.07249,0,0,7.92751,7.92751,22.0725,22.0725,-2.3575,2.00182,-2.28021,-0.231937,0.0606773,-0.025861,0,0,2.03,0.0175,-2.625,-0.238144,0.113826,-1.03688,-0.06888,0.15582,0.50792
6.49286,0,0,8.50714,8.50714,21.4929,21.4929,-2.16429,2.12258,-2.43107,0.100164,-0.169337,0.0971447,0,0,1.75,0.0175,-2.485,0.097478,-0.119316,-0.914878,-0.06888,0.15582,0.50792
5.91867,0,0,9.08133,9.08133,20.9187,20.9187,-1.97289,2.2401,-2.58809,0.0981141,-0.165998,0.0971871,0,0,2.7125,-0.0875,-2.38,0.097478,-0.119316,-0.914878,-0.07378,0.16212,0.5264
5.63185,0,0,9.36815,9.36815,20.6319,20.6319,-1.87728,2.41907,-2.80698,0.144559,-0.0865326,0.0874033,0,0,2.45,0.42,-2.38,0.147254,-0.041602,-0.924516,-0.07378,0.16212,0.5264
5.34736,0,0,9.65264,9.65264,20.3474,20.3474,-1.78245,2.59471,-3.02503,0.141497,-0.0848756,0.0873221,0,0,3.01,0.49,-2.4325,0.147254,-0.041602,-0.924516,-0.07378,0.16212,0.5264
5.45228,0,0,9.54772,9.54772,20.4523,20.4523,-1.81743,2.62726,-3.1167,0.0296482,0.0341999,-0.0566956,0,0,2.765,0.8225,-2.2575,0.035502,0.077958,-1.06738,-0.07378,0.16212,0.5264
5.55299,0,0,9.44701,9.44701,20.553,20.553,-1.851,2.65917,-3.20765,0.0290918,0.0336158,-0.05674,0,0,3.1675,0.84,-1.89,0.035502,0.077958,-1.06738,-0.07378,0.16212,0.5264
5.46135,0,0,9.53865,9.53865,20.4613,20.4613,-1.82045,2.75386,-3.35559,0.0853897,-0.0293553,-0.0105723,0,0,2.9575,0.3325,-1.785,0.093696,0.014518,-1.02151,-0.07378,0.16212,0.5264
5.37225,0,0,9.62775,9.62775,20.3722,20.3722,-1.79075,2.84582,-3.50244,0.0837866,-0.0288354,-0.0106344,0,0,2.7825,-0.1925,-1.365,0.093696,0.014518,-1.02151,-0.07378,0.16212,0.5264
5.37215,0,0,9.62785,9.62785,20.3722,20.3722,-1.79072,2.84477,-3.5033,-0.311995,0.0562875,0.358704,1,0,3.5,-0.5075,-1.435,-0.30378,0.099552,-0.655018,-0.07378,0.16212,0.5264
5.3792,0,0,9.6208,9.6208,20.3792,20.3792,-1.79307,2.84467,-3.50247,-0.311994,0.0562465,0.358703,1,0,2.1175,0.0175,-0.4375,-0.30378,0.099552,-0.655018,-0.0665,0.16086,0.50988
5.7486,0,0,9.2514,9.2514,20.7486,20.7486,-1.9162,2.89598,-3.62,0.0315239,0.0995339,0.0917901,0,0,2.94,-0.525,-0.175,0.04209,0.144936,-0.919758,-0.0665,0.16086,0.50988
6.11542,0,0,8.88458,8.88458,21.1154,21.1154,-2.03847,2.94598,-3.73699,0.0306524,0.0974054,0.0916721,0,0,2.1175,-0.63,0.1925,0.04209,0.144936,-0.919758,-0.0665,0.16086,0.50988
5.67439,0,0,9.32561,9.32561,20.6744,20.6744,-1.89146,2.89199,-3.74072,-0.0372889,-0.145632,-0.0880657,0,0,2.345,-0.6125,0.3675,-0.027084,-0.100406,-1.09824,-0.0665,0.16086,0.50988
5.239,0,0,9.761,9.761,20.239,20.239,-1.74633,2.84009,-3.74418,-0.0363843,-0.143105,-0.0879401,0,0,2.835,-0.1225,0.7,-0.027084,-0.100406,-1.09824,-0.0665,0.16086,0.50988
4.30943,0,0,10.6906,10.6906,19.3094,19.3094,-1.43648,2.99118,-3.92492,0.160583,-0.306482,-0.0180895,0,0,2.8525,0.2275,0.875,0.173362,-0.26901,-1.02895,-0.0665,0.16086,0.50988
3.39274,0,0,11.6073,11.6073,18.3927,18.3927,-1.13091,3.13887,-4.10445,0.158009,-0.301154,-0.018108,0,0,3.5,-0.2625,0.525,0.173362,-0.26901,-1.02895,-0.0665,0.16086,0.50988
3.39354,0,0,11.6065,11.6065,18.3935,18.3935,-1.13118,3.13879,-4.10212,0.110753,0.0527643,-0.138106,1,0,3.2375,0.0175,0.4375,0.125904,0.084546,-1.14802,-0.0665,0.16086,0.50988
3.39515,0,0,11.6049,11.6049,18.3951,18.3951,-1.13172,3.13793,-4.1002,0.110768,0.0527549,-0.138105,1,0,3.0975,-0.4375,0.1925,0.125904,0.084546,-1.14802,-0.06972,0.15512,0.50316
3.3992,0,0,11.6008,11.6008,18.3992,18.3992,-1.13307,3.1373,-4.09831,-0.25465,0.102925,0.229265,1,0,2.6425,-0.2975,0.175,-0.241072,0.134688,-0.783484,-0.06972,0.15512,0.50316
3.40256,0,0,11.5974,11.5974,18.4026,18.4026,-1.13419,3.13673,-4.0979,-0.254641,0.102906,0.229265,1,0,2.8175,-0.245,-0.6825,-0.241072,0.134688,-0.783484,-0.06972,0.15512,0.50316
3.40699,0,0,11.593,11.593,18.407,18.407,-1.13566,3.13679,-4.09774,0.0360737,0.134877,-0.113147,1,0,2.625,0.1225,-0.8225,0.050874,0.166652,-1.12325,-0.06972,0.15512,0.50316
3.40903,0,0,11.591,11.591,18.409,18.409,-1.13634,3.13771,-4.09786,0.0360577,0.134866,-0.113148,1,0,3.08,0.63,-0.98,0.050874,0.166652,-1.12325,-0.06972,0.15512,0.50316
3.82073,0,0,11.1793,11.1793,18.8207,18.8207,-1.27358,3.29429,-4.31018,0.135742,0.131623,-0.0234761,0,0,3.36,0.7175,-1.4,0.15372,0.165798,-1.03407,-0.06972,0.15512,0.50316
4.22237,0,0,10.7776,10.7776,19.2224,19.2224,-1.40746,3.44727,-4.52375,0.133076,0.129295,-0.0236876,0,0,3.885,0.5075,-1.9075,0.15372,0.165798,-1.03407,-0.06972,0.15512,0.50316
4.86614,0,0,10.1339,10.1339,19.8661,19.8661,-1.62205,3.60405,-4.75085,0.109328,0.180031,0.106248,0,0,3.9375,0.4025,-2.1875,0.132614,0.22021,-0.904874,-0.06972,0.15512,0.50316
5.50144,0,0,9.49856,9.49856,20.5014,20.5014,-1.83381,3.75718,-4.97372,0.106661,0.176349,0.105965,0,0,3.3425,0.665,-2.24,0.132614,0.22021,-0.904874,-0.07014,0.15162,0.49532
5.50149,0,0,9.49851,9.49851,20.5015,20.5015,-1.83383,3.75865,-4.97607,-0.00829019,0.187707,0.225961,1,0,3.535,0.9975,-2.2575,0.017202,0.231556,-0.785802,-0.07014,0.15162,0.49532
5.50553,0,0,9.49447,9.49447,20.5055,20.5055,-1.83518,3.76056,-4.97873,-0.00832346,0.187683,0.225958,1,0,2.8,1.26,-2.4325,0.017202,0.231556,-0.785802,-0.07014,0.15162,0.49532
6.08726,0,0,8.91274,8.91274,21.0873,21.0873,-2.02909,3.81716,-5.11375,0.0355191,0.173441,0.035086,0,0,2.8875,0.735,-2.3975,0.06222,0.220698,-0.975024,-0.07014,0.15162,0.49532
6.65874,0,0,8.34126,8.34126,21.6587,21.6587,-2.21958,3.87324,-5.24812,0.0345426,0.170129,0.0348974,0,0,2.7825,1.19,-1.8725,0.06222,0.220698,-0.975024,-0.07014,0.15162,0.49532
6.50728,0,0,8.49272,8.49272,21.5073,21.5073,-2.16909,4.2822,-5.69156,0.318746,-0.0522212,0.174339,0,0,3.185,0.35,-1.645,0.354776,-0.002318,-0.836188,-0.07014,0.15162,0.49532
6.35794,0,0,8.64206,8.64206,21.3579,21.3579,-2.11931,4.68379,-6.1326,0.311758,-0.0513351,0.173824,0,0,3.255,0.4025,-1.155,0.354776,-0.002318,-0.836188,-0.07014,0.15162,0.49532
6.23848,0,0,8.76152,8.76152,21.2385,21.2385,-2.07949,4.86883,-6.3812,0.168953,-0.0380541,0.00772334,0,0,3.885,-0.0525,-1.12,0.214598,0.010248,-1.00077,-0.07014,0.15162,0.49532
6.1207,0,0,8.8793,8.8793,21.1207,21.1207,-2.04023,5.05049,-6.62843,0.165794,-0.037362,0.00747394,0,0,3.9375,0.035,-0.7,0.214598,0.010248,-1.00077,-0.07014,0.15162,0.49532
6.31357,0,0,8.68643,8.68643,21.3136,21.3136,-2.10452,5.01345,-6.6768,-0.0380225,0.0573884,0.0234735,0,0,3.71,0.175,-0.1925,0.009272,0.106018,-0.984906,-0.07812,0.14742,0.48762
6.31413,0,0,8.68587,8.68587,21.3141,21.3141,-2.10471,5.01257,-6.67516,-0.197518,0.0643463,0.264823,1,0,3.2725,-0.455,0.0175,-0.150914,0.112972,-0.74542,-0.07812,0.14742,0.48762
6.31994,0,0,8.68006,8.68006,21.3199,21.3199,-2.10665,5.01239,-6.67351,-0.197515,0.0643127,0.264822,1,0,2.2925,-0.0525,0.035,-0.150914,0.112972,-0.74542,-0.07812,0.14742,0.48762
6.84731,0,0,8.15269,8.15269,21.8473,21.8473,-2.28244,5.43276,-7.15635,0.36847,0.160574,0.0756802,0,0,2.905,-0.49,-0.0175,0.424804,0.212158,-0.932324,-0.07812,0.14742,0.48762
7.36984,0,0,7.63016,7.63016,22.3698,22.3698,-2.45661,5.8455,-7.63988,0.361301,0.157581,0.0748479,0,0,2.31,-0.315,0.385,0.424804,0.212158,-0.932324,-0.07812,0.14742,0.48762
7.67562,0,0,7.32438,7.32438,22.6756,22.6756,-2.55854,5.7908,-7.69228,-0.0545667,0.0960885,-0.0212786,0,0,2.975,-0.4375,0.0875,0.006222,0.1525,-1.02773,-0.07812,0.14742,0.48762
7.97229,0,0,7.02771,7.02771,22.9723,22.9723,-2.65743,5.73657,-7.74487,-0.0536249,0.0943687,-0.0212618,0,0,3.6225,-0.6825,-0.1925,0.006222,0.1525,-1.02773,-0.07812,0.14742,0.48762
8.28664,0,0,6.71336,6.71336,23.2866,23.2866,-2.76221,5.8442,-7.94899,0.0686645,0.081691,0.111247,0,0,4.0425,-0.4725,-0.42,0.130906,0.141642,-0.895968,-0.07812,0.14742,0.48762
8.59334,0,0,6.40666,6.40666,23.5933,23.5933,-2.86445,5.9482,-8.1438,0.0668591,0.0799274,0.110974,0,0,4.27,-0.245,-0.525,0.130906,0.141642,-0.895968,-0.0735,0.13986,0.48944
8.05143,0,0,6.94857,6.94857,23.0514,23.0514,-2.68381,5.75185,-8.0101,-0.1659,-0.169515,-0.0481125,0,0,3.9725,-0.1575,-1.0325,-0.106262,-0.110654,-1.05432,-0.0735,0.13986,0.48944
7.52284,0,0,7.47716,7.47716,22.5228,22.5228,-2.50761,5.55982,-7.87872,-0.162565,-0.166473,-0.047644,0,0,3.5,0.0525,-1.5225,-0.106262,-0.110654,-1.05432,-0.0735,0.13986,0.48944
7.52357,0,0,7.47643,7.47643,22.5236,22.5236,-2.50786,5.55934,-7.88008,0.133504,0.0290477,0.200221,1,0,3.395,-0.1575,-1.715,0.191052,0.084668,-0.808372,-0.0735,0.13986,0.48944
7.5243,0,0,7.4757,7.4757,22.5243,22.5243,-2.5081,5.55885,-7.88143,0.133513,0.0290435,0.200221,1,0,3.395,-0.1575,-1.715,0.191052,0.084668,-0.808372,-0.0735,0.13986,0.48944
7.5286,0,0,7.4714,7.4714,22.5286,22.5286,-2.50953,5.55907,-7.88378,-0.326922,-0.19484,-0.125102,1,0,2.7825,0.28,-2.275,-0.271328,-0.138958,-1.13118,-0.0735,0.13986,0.48944
7.44269,0,0,7.55731,7.55731,22.4427,22.4427,-2.4809,5.62569,-8.0186,0.061647,-0.0272684,-0.00224477,0,0,3.3775,0.385,-2.5025,0.120048,0.027938,-1.00918,-0.0735,0.13986,0.48944
7.35299,0,0,7.64701,7.64701,22.353,22.353,-2.451,5.69061,-8.15276,0.0605194,-0.0267448,-0.00233405,0,0,4.3575,0.1225,-2.275,0.120048,0.027938,-1.00918,-0.0735,0.13986,0.48944
7.34916,0,0,7.65084,7.65084,22.3492,22.3492,-2.44972,5.69232,-8.15451,-0.0108225,-0.461494,-0.119998,1,0,4.27,1.1375,-1.89,0.048434,-0.406382,-1.12594,-0.07266,0.15008,0.50176
7.57334,0,0,7.42666,7.42666,22.5733,22.5733,-2.52445,5.53074,-8.10482,-0.150397,0.0657621,0.0430052,0,0,4.2875,1.4175,-1.8725,-0.09455,0.121634,-0.96441,-0.07266,0.15008,0.50176
7.79934,0,0,7.20066,7.20066,22.7993,22.7993,-2.59978,5.37124,-8.05439,-0.147626,0.0644427,0.0432109,0,0,3.1325,0.8925,-1.68,-0.09455,0.121634,-0.96441,-0.07266,0.15008,0.50176
7.80523,0,0,7.19477,7.19477,22.8052,22.8052,-2.60174,5.3722,-8.05548,0.211226,-0.0342696,-0.257278,1,0,2.415,0.6825,-1.5225,0.265838,0.023058,-1.26258,-0.07266,0.15008,0.50176
7.81263,0,0,7.18737,7.18737,22.8126,22.8126,-2.60421,5.37177,-8.05497,0.211234,-0.0343125,-0.25728,1,0,2.0475,-0.175,-0.63,0.265838,0.023058,-1.26258,-0.07266,0.15008,0.50176
6.82016,0,0,8.17984,8.17984,21.8202,21.8202,-2.27339,5.0989,-7.82991,-0.230605,-0.324011,-0.0200478,0,0,1.96,-0.0875,-0.6125,-0.182634,-0.27206,-1.02785,-0.07266,0.15008,0.50176
5.84112,0,0,9.15888,9.15888,20.8411,20.8411,-1.94704,4.83158,-7.60791,-0.225957,-0.318355,-0.0194354,0,0,2.9225,-0.035,-0.3325,-0.182634,-0.27206,-1.02785,-0.07266,0.15008,0.50176
5.84366,0,0,9.15634,9.15634,20.8437,20.8437,-1.94789,4.83138,-7.60666,-0.253531,-0.465777,-0.0992292,1,0,2.9225,-0.0525,-0.1925,-0.210328,-0.419314,-1.10703,-0.07266,0.15008,0.50176
5.8425,0,0,9.1575,9.1575,20.8425,20.8425,-1.9475,4.83201,-7.60444,-0.253542,-0.46577,-0.0992299,1,0,3.57,0.42,0.385,-0.210328,-0.419314,-1.10703,-0.0714,0.14378,0.50442
5.847,0,0,9.153,9.153,20.847,20.847,-1.949,4.83327,-7.60239,0.289963,-0.101614,-0.302344,1,0,2.52,0.7875,0.2975,0.3355,-0.05551,-1.30857,-0.0714,0.14378,0.50442
5.85078,0,0,9.14922,9.14922,20.8508,20.8508,-1.95026,4.83383,-7.6008,0.289954,-0.101636,-0.302345,1,0,2.6775,0.385,0.0175,0.3355,-0.05551,-1.30857,-0.0714,0.14378,0.50442
5.854,0,0,9.146,9.146,20.854,20.854,-1.95133,4.83339,-7.59926,0.0296173,0.127455,-0.161569,1,0,2.7825,-0.1925,-0.035,0.074054,0.173362,-1.16888,-0.0714,0.14378,0.50442
5.85825,0,0,9.14175,9.14175,20.8582,20.8582,-1.95275,4.83213,-7.59767,0.0296394,0.12743,-0.161568,1,0,2.59,-0.6825,-0.0175,0.074054,0.173362,-1.16888,-0.0714,0.14378,0.50442
5.35094,0,0,9.64906,9.64906,20.3509,20.3509,-1.78365,4.447,-7.27492,-0.316212,-0.147119,0.103902,0,0,3.605,-0.8225,-0.14,-0.27999,-0.103822,-0.906094,-0.0714,0.14378,0.50442
4.85579,0,0,10.1442,10.1442,19.8558,19.8558,-1.6186,4.07005,-6.95517,-0.309651,-0.144262,0.104476,0,0,3.22,-0.2625,-0.4375,-0.27999,-0.103822,-0.906094,-0.0714,0.14378,0.50442
5.01378,0,0,9.98622,9.98622,20.0138,20.0138,-1.67126,4.40997,-7.33042,0.316644,0.0463287,0.0133982,0,0,2.485,-0.1925,-0.735,0.354898,0.087474,-0.996008,-0.0714,0.14378,0.50442
5.17022,0,0,9.82978,9.82978,20.1702,20.1702,-1.72341,4.74643,-7.70978,0.31079,0.0454358,0.0129028,0,0,2.5725,-0.21,-1.0675,0.354898,0.087474,-0.996008,-0.07728,0.14812,0.50218
5.55069,0,0,9.44931,9.44931,20.5507,20.5507,-1.85023,4.48485,-7.55302,-0.254184,0.129441,-0.0665924,0,0,2.205,-0.0875,-1.295,-0.217038,0.173606,-1.07519,-0.07728,0.14812,0.50218
5.92171,0,0,9.07829,9.07829,20.9217,20.9217,-1.9739,4.22916,-7.39597,-0.249735,0.127278,-0.0663254,0,0,2.695,0.5775,-1.6625,-0.217038,0.173606,-1.07519,-0.07728,0.14812,0.50218
5.5449,0,0,9.4551,9.4551,20.5449,20.5449,-1.8483,4.336,-7.53826,0.113713,-0.125655,-0.0595065,0,0,2.835,0.14,-1.68,0.149816,-0.081252,-1.06835,-0.07728,0.14812,0.50218
5.173,0,0,9.827,9.827,20.173,20.173,-1.72433,4.44069,-7.67993,0.111892,-0.123494,-0.059579,0,0,3.185,0.0175,-1.6975,0.149816,-0.081252,-1.06835,-0.07728,0.14812,0.50218
5.17575,0,0,9.82425,9.82425,20.1757,20.1757,-1.72525,4.43983,-7.68143,-0.0478472,0.102668,0.274227,1,0,3.01,-0.385,-1.8025,-0.010614,0.144692,-0.737124,-0.07728,0.14812,0.50218
5.17983,0,0,9.82017,9.82017,20.1798,20.1798,-1.72661,4.43994,-7.68265,-0.0478491,0.102645,0.274226,1,0,2.7475,0.175,-1.6275,-0.010614,0.144692,-0.737124,-0.07728,0.14812,0.50218
5.72733,0,0,9.27267,9.27267,20.7273,20.7273,-1.90911,4.365,-7.70421,-0.0770379,0.173965,-0.0241704,0,0,1.435,-0.4725,-2.0125,-0.041236,0.219112,-1.03322,-0.07728,0.14812,0.50218
6.26182,0,0,8.73818,8.73818,21.2618,21.2618,-2.08727,4.2914,-7.71499,-0.0757571,0.170862,-0.0241817,0,0,1.8725,0.385,-2.0125,-0.041236,0.219112,-1.03322,-0.0714,0.13972,0.49014
6.3916,0,0,8.6084,8.6084,21.3916,21.3916,-2.13053,4.16729,-7.65667,-0.112958,0.0383293,0.00717919,0,0,2.2925,0.385,-1.8725,-0.080764,0.087474,-1.00223,-0.0714,0.13972,0.49014
6.51992,0,0,8.48008,8.48008,21.5199,21.5199,-2.17331,4.04556,-7.5973,-0.110839,0.0375795,0.00730326,0,0,2.0825,0.385,-1.33,-0.080764,0.087474,-1.00223,-0.0714,0.13972,0.49014
6.37656,0,0,8.62344,8.62344,21.3766,21.3766,-2.12552,3.83122,-7.43463,-0.194577,-0.0458661,-0.0294163,0,0,2.345,0.455,-1.47,-0.168604,0.003294,-1.03895,-0.0714,0.13972,0.49014
6.23484,0,0,8.76516,8.76516,21.2348,21.2348,-2.07828,3.62066,-7.27207,-0.190909,-0.0450527,-0.0291474,0,0,2.555,0.245,-1.2425,-0.168604,0.003294,-1.03895,-0.0714,0.13972,0.49014
6.28012,0,0,8.71988,8.71988,21.2801,21.2801,-2.09337,3.41277,-7.1166,-0.193605,0.0141522,-0.0419671,0,0,1.6625,0.5775,-1.12,-0.174948,0.062708,-1.05188,-0.0714,0.13972,0.49014
6.2872,0,0,8.7128,8.7128,21.2872,21.2872,-2.09573,3.41202,-7.11662,0.182649,-0.144409,0.238969,1,0,2.135,-0.35,-0.945,0.202886,-0.095648,-0.773114,-0.0714,0.13972,0.49014
6.2939,0,0,8.7061,8.7061,21.2939,21.2939,-2.09797,3.41102,-7.11657,-0.292586,-0.41386,-0.0815577,1,0,2.205,-0.49,-0.91,-0.274378,-0.36478,-1.09117,-0.0714,0.13972,0.49014
6.29862,0,0,8.70138,8.70138,21.2986,21.2986,-2.09954,3.41092,-7.11592,-0.0819276,0.37725,-0.138361,1,0,2.555,0.0175,-0.5425,-0.06283,0.425536,-1.14753,-0.0714,0.14196,0.48944
6.30223,0,0,8.69777,8.69777,21.3022,21.3022,-2.10074,3.4105,-7.1149,0.0738243,0.181337,-0.227253,1,0,2.7475,-0.175,-0.3325,0.093574,0.229848,-1.23574,-0.0714,0.14196,0.48944
6.30422,0,0,8.69578,8.69578,21.3042,21.3042,-2.10141,3.41087,-7.11364,-0.0598164,-0.0120008,0.255811,1,0,3.045,0.28,-0.175,-0.040626,0.036722,-0.7564,-0.0714,0.14196,0.48944
5.55589,0,0,9.44411,9.44411,20.5559,20.5559,-1.85196,2.99891,-6.72747,-0.354408,-0.230552,0.0914887,0,0,2.975,-0.28,-0.35,-0.343674,-0.185928,-0.920002,-0.0714,0.14196,0.48944
4.70978,0,0,10.2902,10.2902,19.7098,19.7098,-1.56993,3.06647,-6.78157,0.0694929,-0.271678,0.0186647,0,0,2.31,-0.07,-0.2625,0.083204,-0.231922,-0.992348,-0.0714,0.14196,0.48944
4.71581,0,0,10.2842,10.2842,19.7158,19.7158,-1.57194,3.0661,-6.77974,0.000981546,-0.112704,-0.334444,1,0,2.275,-0.1575,0.14,0.014396,-0.073078,-1.34273,-0.0714,0.14196,0.48944
4.72495,0,0,10.275,10.275,19.725,19.725,-1.57498,3.06714,-6.77741,0.076406,0.142976,0.232838,1,0,1.68,0.665,0.455,0.090158,0.18239,-0.779824,-0.0714,0.14196,0.48944
4.49522,0,0,10.5048,10.5048,19.4952,19.4952,-1.49841,3.05406,-6.78351,-0.00852757,-0.0744192,-0.0216175,0,0,2.38,0.3325,0.56,0.004636,-0.036112,-1.03236,-0.0714,0.14196,0.48944
4.04403,0,0,10.956,10.956,19.044,19.044,-1.34801,2.95542,-6.69451,-0.082494,-0.142268,0.00632416,0,0,2.3625,-0.035,0.21,-0.07137,-0.106506,-1.00479,-0.07812,0.13944,0.49126
4.05031,0,0,10.9497,10.9497,19.0503,19.0503,-1.3501,2.95575,-6.69298,-0.278699,0.223587,-0.0994127,1,0,2.24,0.2625,-0.0175,-0.2684,0.259006,-1.10971,-0.07812,0.13944,0.49126
4.05266,0,0,10.9473,10.9473,19.0527,19.0527,-1.35089,2.95572,-6.69149,0.111999,-0.0705076,0.279022,1,0,2.975,0.0525,-0.0525,0.123952,-0.03477,-0.734196,-0.07812,0.13944,0.49126
4.61953,0,0,10.3805,10.3805,19.6195,19.6195,-1.53984,2.95614,-6.73917,-0.00512007,0.17827,0.00427209,0,0,2.2925,0.2625,-0.175,0.006344,0.217038,-1.00674,-0.07812,0.13944,0.49126
4.80605,0,0,10.1939,10.1939,19.8061,19.8061,-1.60202,3.04523,-6.85307,0.0831052,0.0612902,-0.0429283,0,0,3.08,0.21,-0.7525,0.096502,0.10126,-1.05347,-0.07812,0.13944,0.49126
4.80913,0,0,10.1909,10.1909,19.8091,19.8091,-1.60304,3.04578,-6.85323,-0.0541834,0.120382,-0.135632,1,0,2.8875,0.42,-0.9975,-0.041358,0.160308,-1.14546,-0.07812,0.13944,0.49126
4.80326,0,0,10.1967,10.1967,19.8033,19.8033,-1.60109,3.01796,-6.85318,-0.0245419,-0.00256658,0.0028342,0,0,2.975,0.1225,-1.4525,-0.012078,0.037454,-1.00809,-0.07812,0.13944,0.49126
5.1578,0,0,9.8422,9.8422,20.1578,20.1578,-1.71927,2.67431,-6.57705,-0.282904,0.0964866,0.136963,0,0,2.625,-0.1575,-1.9775,-0.27755,0.13847,-0.875228,-0.07812,0.13944,0.49126
4.34556,0,0,10.6544,10.6544,19.3456,19.3456,-1.44852,2.64923,-6.53868,-0.0145911,-0.271404,-0.0352599,0,0,2.7825,-0.3675,-2.3975,-0.00854,-0.233752,-1.04627,-0.07812,0.13944,0.49126
4.351,0,0,10.649,10.649,19.351,19.351,-1.45033,2.64855,-6.54168,0.149426,0.077236,-0.116775,1,0,2.52,-0.2625,-2.6775,0.15616,0.114558,-1.12716,-0.07728,0.14308,0.4872
3.75563,0,0,11.2444,11.2444,18.7556,18.7556,-1.25188,2.18309,-6.11418,-0.404693,-0.187869,0.0893418,0,0,2.6425,-0.5775,-3.255,-0.408456,-0.15372,-0.923052,-0.07728,0.14308,0.4872
3.76144,0,0,11.2386,11.2386,18.7614,18.7614,-1.25381,2.18188,-6.11867,0.0536938,0.0469468,-0.21053,1,0,2.4675,-0.56,-3.5525,0.05185,0.080886,-1.22061,-0.07728,0.14308,0.4872
3.62738,0,0,11.3726,11.3726,18.6274,18.6274,-1.20913,2.16071,-6.11358,-0.0163986,-0.0453348,-0.040461,0,0,2.135,-0.1225,-3.29,-0.01891,-0.012078,-1.05188,-0.07728,0.14308,0.4872
3.65201,0,0,11.348,11.348,18.652,18.652,-1.21734,2.03345,-6.01768,-0.110153,0.00886664,0.0164194,0,0,3.99,-0.35,-3.3075,-0.11529,0.042212,-0.99552,-0.07728,0.14308,0.4872
2.91504,0,0,12.085,12.085,17.915,17.915,-0.97168,1.9839,-5.95802,-0.0400417,-0.227439,0.0448097,0,0,3.3775,0.3675,-2.66,-0.04575,-0.198128,-0.96746,-0.07728,0.14308,0.4872
3.26933,0,0,11.7307,11.7307,18.2693,18.2693,-1.08978,2.1275,-6.1184,0.122067,0.109282,0.0268552,0,0,3.64,0.0525,-2.5025,0.11956,0.1403,-0.98515,-0.07728,0.14308,0.4872
3.2665,0,0,11.7335,11.7335,18.2665,18.2665,-1.08883,2.12708,-6.11946,0.0143163,0.0904911,-0.153141,1,0,4.0075,-0.14,-1.54,0.011346,0.121512,-1.16376,-0.07728,0.14308,0.4872
4.18611,0,0,10.8139,10.8139,19.1861,19.1861,-1.39537,2.33375,-6.36545,0.157224,0.261134,0.145983,0,0,3.0625,0.3675,-1.0325,0.158478,0.297314,-0.866688,-0.06958,0.14336,0.48832
4.18721,0,0,10.8128,10.8128,19.1872,19.1872,-1.39574,2.33366,-6.36402,0.0522616,0.0576645,-0.211183,1,0,3.22,0.0175,-0.0875,0.05307,0.094062,-1.2211,-0.06958,0.14336,0.48832
4.19442,0,0,10.8056,10.8056,19.1944,19.1944,-1.39814,2.33351,-6.36277,-0.0528208,0.200755,0.219136,1,0,2.0825,-0.0175,-0.1925,-0.05246,0.237046,-0.794098,-0.06958,0.14336,0.48832
4.19996,0,0,10.8,10.8,19.2,19.2,-1.39999,2.33425,-6.36011,-0.0988769,-0.161871,-0.194833,1,0,2.3625,0.49,0.6475,-0.098698,-0.125172,-1.20487,-0.06958,0.14336,0.48832
3.96536,0,0,11.0346,11.0346,18.9654,18.9654,-1.32179,2.18723,-6.23028,-0.128264,-0.0742889,0.0199687,0,0,2.2925,0.2625,1.3125,-0.130784,-0.03904,-0.99186,-0.06958,0.14336,0.48832
3.96866,0,0,11.0313,11.0313,18.9687,18.9687,-1.32289,2.17994,-6.22508,-0.148182,-0.204007,-0.139368,1,0,2.73,-4.2525,2.0125,-0.150914,-0.168604,-1.14997,-0.06958,0.14336,0.48832
3.47952,0,0,11.5205,11.5205,18.4795,18.4795,-1.15984,2.38745,-6.41091,0.189574,-0.159271,0.0261608,0,0,2.6075,-0.2275,2.1525,0.191906,-0.126758,-0.985638,-0.06958,0.14336,0.48832
3.25443,0,0,11.7456,11.7456,18.2544,18.2544,-1.08481,2.30916,-6.35233,-0.0630869,-0.0773607,-0.0976897,0,0,2.415,-4.27,1.8725,-0.063196,-0.046238,-1.10861,-0.06958,0.14336,0.48832
3.21232,0,0,11.7877,11.7877,18.2123,18.2123,-1.07077,2.34708,-6.38829,0.0342907,-0.015075,0.00851553,0,0,2.5025,-0.49,1.9075,0.035258,0.015738,-1.00321,-0.06524,0.13356,0.47698
3.21586,0,0,11.7841,11.7841,18.2159,18.2159,-1.07195,2.34674,-6.38389,0.123224,-0.133436,-0.0946384,1,0,2.695,-0.1575,1.645,0.124562,-0.10248,-1.10556,-0.06524,0.13356,0.47698
3.22031,0,0,11.7797,11.7797,18.2203,18.2203,-1.07344,2.34636,-6.37999,-0.194819,0.345275,0.261789,1,0,2.5375,-0.175,1.3475,-0.194834,0.37576,-0.751886,-0.06524,0.13356,0.47698
3.22007,0,0,11.7799,11.7799,18.2201,18.2201,-1.07336,2.34587,-6.37832,0.0778036,-0.210034,-0.085663,1,0,3.465,-0.21,0.0525,0.078934,-0.178974,-1.09666,-0.06524,0.13356,0.47698
3.4396,0,0,11.5604,11.5604,18.4396,18.4396,-1.14653,2.26684,-6.32087,-0.0719463,0.0703129,-0.00633044,0,0,3.2025,0.0175,-0.2275,-0.072834,0.102358,-1.01797,-0.06524,0.13356,0.47698
3.58448,0,0,11.4155,11.4155,18.5845,18.5845,-1.19483,2.45714,-6.51113,0.162726,0.0419952,0.0505636,0,0,3.4125,0.3675,-1.05,0.166164,0.074908,-0.96136,-0.06524,0.13356,0.47698
3.6808,0,0,11.3192,11.3192,18.6808,18.6808,-1.22693,2.23154,-6.31519,-0.190022,0.0266547,0.0938677,0,0,3.29,0.1225,-1.6275,-0.192028,0.060146,-0.918538,-0.06524,0.13356,0.47698
4.0783,0,0,10.9217,10.9217,19.0783,19.0783,-1.35943,2.2624,-6.37233,0.0296931,0.131084,-0.0284164,0,0,3.29,-0.5425,-2.8875,0.029158,0.166774,-1.03981,-0.06524,0.13356,0.47698
4.12968,0,0,10.8703,10.8703,19.1297,19.1297,-1.37656,2.22615,-6.35499,-0.0310249,0.0169625,-0.02053,0,0,3.3425,-0.77,-3.22,-0.032452,0.05307,-1.032,-0.0707,0.13622,0.48468
4.06734,0,0,10.9327,10.9327,19.0673,19.0673,-1.35578,2.14022,-6.28504,-0.073747,-0.0199252,0.0722389,0,0,3.325,0.21,-3.71,-0.07686,0.01586,-0.94001,-0.0707,0.13622,0.48468
4.06759,0,0,10.9324,10.9324,19.0676,19.0676,-1.35586,2.14072,-6.29011,0.10337,-0.0333606,-0.120791,1,0,3.5175,0.455,-3.8675,0.101016,0.00244,-1.13155,-0.0707,0.13622,0.48468
3.79321,0,0,11.2068,11.2068,18.7932,18.7932,-1.2644,2.1563,-6.30454,0.0139281,-0.0862342,0.0235772,0,0,3.29,0.07,-4.095,0.011468,-0.051972,-0.988322,-0.0707,0.13622,0.48468
3.79416,0,0,11.2058,11.2058,18.7942,18.7942,-1.26472,2.15677,-6.30994,0.229679,0.0733799,-0.0977734,1,0,3.395,0.4375,-4.06,0.22814,0.107482,-1.10874,-0.0707,0.13622,0.48468
3.54944,0,0,11.4506,11.4506,18.5494,18.5494,-1.18315,2.32325,-6.46456,0.162631,-0.0842043,-0.0523656,0,0,3.2375,0.14,-3.5875,0.163724,-0.051362,-1.0636,-0.0707,0.13622,0.48468
3.41079,0,0,11.5892,11.5892,18.4108,18.4108,-1.13693,2.20897,-6.36485,-0.103374,-0.0462736,-0.024607,0,0,2.205,0.42,-3.2375,-0.105408,-0.014274,-1.03615,-0.0707,0.13622,0.48468
2.9377,0,0,12.0623,12.0623,17.9377,17.9377,-0.979235,2.26032,-6.40117,0.0530547,-0.160032,-0.0494267,0,0,2.9575,-0.0875,-2.5025,0.052582,-0.130662,-1.06079,-0.0707,0.13622,0.48468
2.90648,0,0,12.0935,12.0935,17.9065,17.9065,-0.968827,2.18691,-6.34134,-0.0643565,-0.0114675,0.0288213,0,0,2.3975,0.1225,-1.9775,-0.066612,0.017568,-0.983198,-0.0707,0.13622,0.48468
2.90906,0,0,12.0909,12.0909,17.9091,17.9091,-0.969687,2.18698,-6.34214,0.128319,0.0868295,-0.148717,1,0,2.9925,0.14,-1.3825,0.12688,0.115778,-1.15937,-0.07462,0.1337,0.4865
2.80835,0,0,12.1916,12.1916,17.8084,17.8084,-0.936118,2.23071,-6.37974,0.0403291,-0.0310475,-0.0126323,0,0,4.3575,-0.07,-0.9975,0.039284,-0.002562,-1.02431,-0.07462,0.1337,0.4865
2.52772,0,0,12.4723,12.4723,17.5277,17.5277,-0.842574,2.08769,-6.23633,-0.133088,-0.09329,-0.0774298,0,0,4.06,-0.14,0.1225,-0.137372,-0.066368,-1.08873,-0.07462,0.1337,0.4865
3.0705,0,0,11.9295,11.9295,18.0705,18.0705,-1.0235,1.9877,-6.16813,-0.0854221,0.160142,0.0886843,0,0,3.8325,-0.7,0.1925,-0.091256,0.189954,-0.923906,-0.07462,0.1337,0.4865
2.59429,0,0,12.4057,12.4057,17.5943,17.5943,-0.864765,1.83058,-5.99768,-0.130425,-0.140698,0.091772,0,0,3.0625,0.0525,0.8225,-0.139202,-0.113338,-0.920978,-0.07462,0.1337,0.4865
1.92032,0,0,13.0797,13.0797,16.9203,16.9203,-0.640107,2.07691,-6.18516,0.198027,-0.203337,0.121799,0,0,3.045,0.385,0.91,0.194956,-0.179828,-0.891088,-0.07462,0.1337,0.4865
1.44854,0,0,13.5515,13.5515,16.4485,16.4485,-0.482847,2.1514,-6.22598,0.0702616,-0.157971,-0.0251452,0,0,2.6775,0.175,1.6975,0.067954,-0.13725,-1.03688,-0.07462,0.1337,0.4865
1.90679,0,0,13.0932,13.0932,16.9068,16.9068,-0.635595,2.31692,-6.39437,0.142696,0.143095,0.0355757,0,0,3.5175,-0.21,1.5925,0.143594,0.166164,-0.976488,-0.07462,0.1337,0.4865
1.86189,0,0,13.1381,13.1381,16.8619,16.8619,-0.620629,2.50097,-6.5636,0.165242,-0.0162622,0.0154029,0,0,3.3425,-0.5425,1.1375,0.169458,0.00671,-0.996374,-0.0679,0.13314,0.47992
1.17499,0,0,13.825,13.825,16.175,16.175,-0.391664,2.39771,-6.44046,-0.0852838,-0.199979,0.101825,0,0,3.9725,-0.21,1.12,-0.083936,-0.180804,-0.91073,-0.0679,0.13314,0.47992
0.502779,0,0,14.4972,14.4972,15.5028,15.5028,-0.167593,2.29769,-6.31854,-0.0835396,-0.196072,0.101916,0,0,3.535,0.5075,1.12,-0.083936,-0.180804,-0.91073,-0.0679,0.13314,0.47992
-0.142863,0,0,15.1429,15.1429,14.8571,14.8571,0.0476209,2.29548,-6.28658,0.00311837,-0.226514,-0.0722969,0,0,2.87,0.245,0.805,0.00305,-0.214964,-1.0836,-0.0679,0.13314,0.47992
-0.773965,0,0,15.774,15.774,14.226,14.226,0.257988,2.29374,-6.25633,0.00314865,-0.222846,-0.0723055,0,0,2.3275,0.49,-0.0175,0.00305,-0.214964,-1.0836,-0.0679,0.13314,0.47992
-0.76642,0,0,15.7664,15.7664,14.2336,14.2336,0.255473,2.29421,-6.25553,0.087816,-0.196266,-0.0902561,1,0,2.03,0.3675,-0.455,0.088084,-0.188368,-1.10142,-0.0679,0.13314,0.47992
-0.942453,0,0,15.9425,15.9425,14.0575,14.0575,0.314151,2.46274,-6.40111,0.133471,-0.0543092,0.0894904,0,0,2.7475,0.665,-0.6475,0.136884,-0.04758,-0.92293,-0.0679,0.13314,0.47992
-1.12083,0,0,16.1208,16.1208,13.8792,13.8792,0.37361,2.62791,-6.54747,0.130592,-0.0532732,0.0893562,0,0,3.7975,0.6125,-1.47,0.136884,-0.04758,-0.92293,-0.0679,0.13314,0.47992
-1.12214,0,0,16.1221,16.1221,13.8779,13.8779,0.374048,2.62791,-6.54908,0.0133578,-0.0988189,0.131773,1,0,3.745,0.0875,-1.855,0.019154,-0.093086,-0.88084,-0.06986,0.13482,0.48356
-1.122,0,0,16.122,16.122,13.878,13.878,0.374001,2.62849,-6.55174,0.0133477,-0.0988197,0.131773,1,0,3.5,0.42,-2.4675,0.019154,-0.093086,-0.88084,-0.06986,0.13482,0.48356
-0.870941,0,0,15.8709,15.8709,14.1291,14.1291,0.290314,2.92597,-6.84464,0.265226,0.078025,0.023581,0,0,3.15,0.4025,-3.0275,0.277306,0.085034,-0.987956,-0.06986,0.13482,0.48356
-0.623852,0,0,15.6239,15.6239,14.3761,14.3761,0.207951,3.21778,-7.13764,0.26014,0.0765884,0.0233143,0,0,3.15,0.4025,-3.0275,0.277306,0.085034,-0.987956,-0.06986,0.13482,0.48356
-0.892975,0,0,15.893,15.893,14.107,14.107,0.297658,3.06016,-7.00416,-0.1334,-0.0814673,0.0447281,0,0,3.15,0.1575,-3.0975,-0.120658,-0.07442,-0.96685,-0.06986,0.13482,0.48356
-0.896263,0,0,15.8963,15.8963,14.1037,14.1037,0.298754,3.06005,-7.00784,0.242357,0.239745,-0.161948,1,0,4.1825,0.0175,-3.0625,0.256688,0.24644,-1.17193,-0.06986,0.13482,0.48356
-0.897302,0,0,15.8973,15.8973,14.1027,14.1027,0.299101,3.05884,-7.01153,0.242379,0.239751,-0.161947,1,0,3.7625,-0.63,-3.0625,0.256688,0.24644,-1.17193,-0.06986,0.13482,0.48356
-0.637885,0,0,15.6379,15.6379,14.3621,14.3621,0.212628,2.9187,-6.91806,-0.125589,0.086319,0.00072498,0,0,4.6725,-0.2275,-2.8525,-0.11529,0.094672,-1.01065,-0.06986,0.13482,0.48356
-0.375324,0,0,15.3753,15.3753,14.6247,14.6247,0.125108,2.78157,-6.82809,-0.123198,0.0847937,0.000848488,0,0,3.2375,-0.3325,-2.555,-0.11529,0.094672,-1.01065,-0.06902,0.13748,0.48524
-0.699522,0,0,15.6995,15.6995,14.3005,14.3005,0.233174,2.57855,-6.64654,-0.178215,-0.103962,0.00875403,0,0,2.59,0.35,-2.17,-0.174094,-0.09577,-1.00296,-0.06902,0.13748,0.48524
-1.02286,0,0,16.0229,16.0229,13.9771,13.9771,0.340953,2.37887,-6.46541,-0.174733,-0.102082,0.00889534,0,0,3.5525,-0.0175,-1.785,-0.174094,-0.09577,-1.00296,-0.06902,0.13748,0.48524
-1.02279,0,0,16.0228,16.0228,13.9772,13.9772,0.34093,2.37847,-6.46552,-0.119329,-0.072283,-0.10434,1,0,3.4475,-0.14,-0.98,-0.118462,-0.066002,-1.11532,-0.06902,0.13748,0.48524
-1.02394,0,0,16.0239,16.0239,13.9761,13.9761,0.341312,2.37894,-6.4649,-0.119337,-0.0722763,-0.10434,1,0,3.6575,0.3675,-0.56,-0.118462,-0.066002,-1.11532,-0.06902,0.13748,0.48524
-0.674931,0,0,15.6749,15.6749,14.3251,14.3251,0.224977,2.55815,-6.65164,0.139704,0.101801,0.100121,0,0,3.535,-0.07,-0.21,0.144814,0.109922,-0.912316,-0.06902,0.13748,0.48524
-0.330104,0,0,15.3301,15.3301,14.6699,14.6699,0.110035,2.73293,-6.83727,0.136657,0.0997968,0.0999864,0,0,3.15,-0.63,0.595,0.144814,0.109922,-0.912316,-0.06902,0.13748,0.48524
-1.45379,0,0,16.4538,16.4538,13.5462,13.5462,0.484598,2.7386,-6.80073,0.0122785,-0.372288,0.0392112,0,0,3.045,0.245,0.7175,0.020008,-0.368196,-0.972584,-0.06902,0.13748,0.48524
-2.5574,0,0,17.5574,17.5574,12.4426,12.4426,0.852466,2.74654,-6.75641,0.01214,-0.365875,0.0391297,0,0,3.01,-0.0875,1.295,0.020008,-0.368196,-0.972584,-0.06706,0.13188,0.48244
-2.55029,0,0,17.5503,17.5503,12.4497,12.4497,0.850095,2.74653,-6.75207,0.177847,-0.0340984,0.210521,1,0,2.0125,0.1225,1.61,0.186416,-0.036722,-0.802516,-0.06706,0.13188,0.48244
-2.55072,0,0,17.5507,17.5507,12.4493,12.4493,0.850241,2.74607,-6.74798,0.177855,-0.0340958,0.210521,1,0,3.43,-0.14,1.47,0.186416,-0.036722,-0.802516,-0.06706,0.13188,0.48244
-3.06279,0,0,18.0628,18.0628,11.9372,11.9372,1.02093,2.16169,-6.20006,-0.518759,-0.158857,0.133697,0,0,3.85,0.1925,1.5925,-0.52338,-0.164334,-0.879132,-0.06706,0.13188,0.48244
-3.56699,0,0,18.567,18.567,11.433,11.433,1.189,1.58759,-5.65611,-0.508745,-0.15592,0.133968,0,0,4.2525,0.4725,1.505,-0.52338,-0.164334,-0.879132,-0.06706,0.13188,0.48244
-4.23239,0,0,19.2324,19.2324,10.7676,10.7676,1.4108,1.6119,-5.6342,0.0208734,-0.214092,0.0196497,0,0,4.375,0,1.295,0.008906,-0.22631,-0.99247,-0.06706,0.13188,0.48244
-4.88499,0,0,19.885,19.885,10.115,10.115,1.62833,1.63764,-5.61408,0.0204243,-0.210298,0.0195363,0,0,4.1825,1.12,0.28,0.008906,-0.22631,-0.99247,-0.06706,0.13188,0.48244
-4.88675,0,0,19.8867,19.8867,10.1133,10.1133,1.62892,1.6381,-5.61255,0.434318,-0.0667893,-0.0585365,1,0,3.7625,0.385,-0.035,0.42456,-0.08296,-1.06994,-0.06706,0.13188,0.48244
-4.88935,0,0,19.8894,19.8894,10.1106,10.1106,1.62978,1.6388,-5.61213,0.434306,-0.0667742,-0.0585373,1,0,3.9375,0.5075,-0.6825,0.42456,-0.08296,-1.06994,-0.07308,0.14322,0.48006
-4.77397,0,0,19.774,19.774,10.226,10.226,1.59132,1.57795,-5.56739,-0.0530051,0.0384398,0.00667406,0,0,3.955,0.2975,-1.96,-0.06588,0.022814,-1.00528,-0.07308,0.14322,0.48006
-4.66124,0,0,19.6612,19.6612,10.3388,10.3388,1.55375,1.51883,-5.52313,-0.0519737,0.0377852,0.00671993,0,0,4.0775,0.595,-2.24,-0.06588,0.022814,-1.00528,-0.07308,0.14322,0.48006
-4.66568,0,0,19.6657,19.6657,10.3343,10.3343,1.55523,1.51922,-5.52674,0.0136218,-0.060501,-0.111434,1,0,4.34,0.2625,-3.0275,0,-0.075396,-1.12252,-0.07308,0.14322,0.48006
-4.67011,0,0,19.6701,19.6701,10.3299,10.3299,1.5567,1.51961,-5.53035,0.013615,-0.0604753,-0.111435,1,0,4.34,0.2625,-3.0275,0,-0.075396,-1.12252,-0.07308,0.14322,0.48006
-4.68065,0,0,19.6806,19.6806,10.3194,10.3194,1.56022,1.69441,-5.68981,0.144443,-0.0027725,0.0459745,0,0,4.2525,0.1575,-3.7275,0.134444,-0.017812,-0.96624,-0.07308,0.14322,0.48006
-4.69093,0,0,19.6909,19.6909,10.3091,10.3091,1.56364,1.86574,-5.84886,0.141454,-0.00271526,0.04588,0,0,4.2525,0.1575,-3.7275,0.134444,-0.017812,-0.96624,-0.07308,0.14322,0.48006
-4.7713,0,0,19.7713,19.7713,10.2287,10.2287,1.59043,1.78854,-5.7947,-0.0578938,-0.0209323,0.0728358,0,0,3.7625,-4.06,-3.2375,-0.0671,-0.036478,-0.939522,-0.07308,0.14322,0.48006
-4.84994,0,0,19.8499,19.8499,10.1501,10.1501,1.61665,1.71358,-5.72774,-0.0565862,-0.0204741,0.072863,0,0,3.7625,-4.06,-3.2375,-0.0671,-0.036478,-0.939522,-0.06916,0.13384,0.47544
-4.85268,0,0,19.8527,19.8527,10.1473,10.1473,1.61756,1.71367,-5.72992,0.0887092,0.16322,-0.138117,1,0,4.0075,0.105,-2.1875,0.078812,0.14701,-1.14887,-0.06916,0.13384,0.47544
-4.85543,0,0,19.8554,19.8554,10.1446,10.1446,1.61848,1.71375,-5.73209,0.0887078,0.163236,-0.138118,1,0,4.0075,0.105,-2.1875,0.078812,0.14701,-1.14887,-0.06916,0.13384,0.47544
-4.57516,0,0,19.5752,19.5752,10.4248,10.4248,1.52505,1.86761,-5.87182,0.132796,0.0899166,0.0133157,0,0,3.885,0.1575,-1.155,0.125782,0.075396,-0.99857,-0.06916,0.13384,0.47544
-4.57966,0,0,19.5797,19.5797,10.4203,10.4203,1.52655,1.86621,-5.87221,0.210328,0.113635,-0.142091,1,0,4.305,-0.735,-1.12,0.203618,0.099064,-1.15278,-0.06916,0.13384,0.47544
-4.58051,0,0,19.5805,19.5805,10.4195,10.4195,1.52684,1.86547,-5.87056,0.210341,0.11364,-0.142091,1,0,3.5875,-0.315,0.0525,0.203618,0.099064,-1.15278,-0.06916,0.13384,0.47544
-4.53758,0,0,19.5376,19.5376,10.4624,10.4624,1.51253,1.56271,-5.59594,-0.25805,0.0192352,0.0520866,0,0,4.5675,0.14,0.3675,-0.27206,0.005002,-0.960262,-0.06916,0.13384,0.47544
-4.49392,0,0,19.4939,19.4939,10.5061,10.5061,1.49797,1.26384,-5.32062,-0.252835,0.0189848,0.0522219,0,0,4.3925,-0.945,0.9625,-0.27206,0.005002,-0.960262,-0.06916,0.13384,0.47544
-4.4976,0,0,19.4976,19.4976,10.5024,10.5024,1.4992,1.26325,-5.31786,0.00423872,-0.234407,-0.0860955,1,0,4.1125,-0.21,0.7,-0.013908,-0.248148,-1.09751,-0.06958,0.1407,0.48804
-4.50231,0,0,19.5023,19.5023,10.4977,10.4977,1.50077,1.2621,-5.31529,0.276508,-0.0555859,-0.116833,1,0,4.305,-0.5425,0.595,0.259494,-0.06954,-1.12801,-0.06958,0.1407,0.48804
-4.50445,0,0,19.5045,19.5045,10.4955,10.4955,1.50148,1.26075,-5.31313,0.276532,-0.0555734,-0.116833,1,0,3.8325,-0.665,0.3675,0.259494,-0.06954,-1.12801,-0.06958,0.1407,0.48804
-4.50894,0,0,19.5089,19.5089,10.4911,10.4911,1.50298,1.25991,-5.31091,0.0486393,-0.0835143,0.146523,1,0,4.27,-0.3675,0.385,0.030622,-0.097478,-0.866688,-0.06958,0.1407,0.48804
-4.51674,0,0,19.5167,19.5167,10.4833,10.4833,1.50558,1.25849,-5.30965,0.048664,-0.0834689,0.146522,1,0,4.9,-0.7175,-0.1575,0.030622,-0.097478,-0.866688,-0.06958,0.1407,0.48804
-4.52424,0,0,19.5242,19.5242,10.4758,10.4758,1.50808,1.25772,-5.30873,-0.146307,-0.138749,-0.150277,1,0,4.8475,-0.35,-0.3675,-0.165188,-0.152744,-1.1612,-0.06958,0.1407,0.48804
-4.53241,0,0,19.5324,19.5324,10.4676,10.4676,1.5108,1.25825,-5.30891,-0.146316,-0.138701,-0.150278,1,0,4.9875,0.4025,-1.0325,-0.165188,-0.152744,-1.1612,-0.06958,0.1407,0.48804
-4.53764,0,0,19.5376,19.5376,10.4624,10.4624,1.51255,1.25889,-5.30969,0.278751,-0.131343,-0.179541,1,0,4.445,0.455,-1.3825,0.26169,-0.145424,-1.19023,-0.06958,0.1407,0.48804
-4.54136,0,0,19.5414,19.5414,10.4586,10.4586,1.51379,1.25996,-5.31079,0.278732,-0.131322,-0.179542,1,0,4.165,0.7,-1.575,0.26169,-0.145424,-1.19023,-0.07,0.13622,0.4865
-4.54313,0,0,19.5431,19.5431,10.4569,10.4569,1.51438,1.26102,-5.31138,0.235222,-0.0946733,0.149837,1,0,3.7975,0.7,-1.2775,0.218014,-0.108824,-0.863394,-0.07,0.13622,0.4865
-4.54908,0,0,19.5491,19.5491,10.4509,10.4509,1.51636,1.26149,-5.31258,0.235214,-0.0946387,0.149835,1,0,4.585,0.35,-1.6275,0.218014,-0.108824,-0.863394,-0.07,0.13622,0.4865
-3.80523,0,0,18.8052,18.8052,11.1948,11.1948,1.26841,1.11405,-5.1977,-0.130801,0.245801,0.0290126,0,0,4.62,0.9625,-1.365,-0.152134,0.235582,-0.983442,-0.07,0.13622,0.4865
-3.07965,0,0,18.0797,18.0797,11.9203,11.9203,1.02655,0.968312,-5.08148,-0.128258,0.241582,0.0291433,0,0,5.67,0.3675,-1.19,-0.152134,0.235582,-0.983442,-0.07,0.13622,0.4865
-3.08811,0,0,18.0881,18.0881,11.9119,11.9119,1.02937,0.968994,-5.08157,-0.406351,-0.0471982,0.202991,1,0,5.04,0.49,-0.98,-0.431392,-0.052948,-0.810934,-0.07,0.13622,0.4865
-3.09636,0,0,18.0964,18.0964,11.9036,11.9036,1.03212,0.969804,-5.08212,-0.406365,-0.0471503,0.20299,1,0,5.005,0.56,-1.2425,-0.431392,-0.052948,-0.810934,-0.07,0.13622,0.4865
-3.10004,0,0,18.1,18.1,11.9,11.9,1.03335,0.971832,-5.08231,0.106998,-0.176095,0.252783,1,0,4.1475,1.2775,-1.05,0.08418,-0.18178,-0.761524,-0.07,0.13622,0.4865
-3.10534,0,0,18.1053,18.1053,11.8947,11.8947,1.03511,0.973642,-5.08196,0.106967,-0.176064,0.252782,1,0,4.445,1.155,-0.735,0.08418,-0.18178,-0.761524,-0.06874,0.13986,0.48146
-3.10953,0,0,18.1095,18.1095,11.8905,11.8905,1.03651,0.973714,-5.08138,0.0163373,-0.0132446,-0.269995,1,0,4.235,0.14,-0.5775,-0.006832,-0.019154,-1.28027,-0.06874,0.13986,0.48146
-3.1184,0,0,18.1184,18.1184,11.8816,11.8816,1.03947,0.974025,-5.08082,0.0163318,-0.013193,-0.269996,1,0,5.11,0.28,-0.595,-0.006832,-0.019154,-1.28027,-0.06874,0.13986,0.48146
-3.1309,0,0,18.1309,18.1309,11.8691,11.8691,1.04363,0.973689,-5.08075,-0.0355367,0.198647,0.164749,1,0,5.7925,-0.105,-0.875,-0.058926,0.192394,-0.848876,-0.06874,0.13986,0.48146
-3.14139,0,0,18.1414,18.1414,11.8586,11.8586,1.04713,0.9742,-5.0813,-0.0355456,0.198708,0.164747,1,0,5.425,0.385,-1.2425,-0.058926,0.192394,-0.848876,-0.06874,0.13986,0.48146
-3.15338,0,0,18.1534,18.1534,11.8466,11.8466,1.05113,0.973163,-5.08214,-0.150453,0.0831241,0.113969,1,0,5.705,-0.525,-1.4,-0.174338,0.07686,-0.899262,-0.06874,0.13986,0.48146
-3.15983,0,0,18.1598,18.1598,11.8402,11.8402,1.05328,0.972693,-5.08298,-0.150445,0.0831617,0.113968,1,0,4.6725,-0.1925,-1.4,-0.174338,0.07686,-0.899262,-0.06874,0.13986,0.48146
-2.1996,0,0,17.1996,17.1996,12.8004,12.8004,0.733199,1.15002,-5.26887,0.149325,0.301923,0.0993669,0,0,4.6725,-0.21,-1.5925,0.129808,0.300974,-0.91378,-0.06874,0.13986,0.48146
-1.254,0,0,16.254,16.254,13.746,13.746,0.417999,1.32394,-5.45627,0.14629,0.296422,0.0993566,0,0,4.4625,-0.3325,-1.5575,0.129808,0.300974,-0.91378,-0.06874,0.13986,0.48146
-1.25957,0,0,16.2596,16.2596,13.7404,13.7404,0.419856,1.32385,-5.45748,-0.179047,-0.223561,0.150749,1,0,4.515,0.035,-1.6275,-0.196908,-0.218502,-0.862784,-0.0721,0.13272,0.48566
-1.26685,0,0,16.2669,16.2669,13.7331,13.7331,0.422285,1.3234,-5.45828,-0.179039,-0.223518,0.150749,1,0,4.83,-0.175,-1.3825,-0.196908,-0.218502,-0.862784,-0.0721,0.13272,0.48566
-1.49493,0,0,16.4949,16.4949,13.5051,13.5051,0.49831,1.56097,-5.64932,0.224521,-0.0805258,-0.0257974,0,0,3.99,-0.28,-1.4,0.212524,-0.076982,-1.03785,-0.0721,0.13272,0.48566
-1.62739,0,0,16.6274,16.6274,13.3726,13.3726,0.542462,1.98769,-6.0171,0.38412,-0.0455622,0.0717091,0,0,5.1275,0.0525,-0.9625,0.380274,-0.042822,-0.940864,-0.0721,0.13272,0.48566
-1.75705,0,0,16.757,16.757,13.243,13.243,0.585683,2.40748,-6.38229,0.376799,-0.0448112,0.0714208,0,0,5.0575,0.5425,-0.35,0.380274,-0.042822,-0.940864,-0.0721,0.13272,0.48566
-1.84342,0,0,16.8434,16.8434,13.1566,13.1566,0.614473,2.33736,-6.31549,-0.0602987,-0.0208603,0.0915068,0,0,5.32,0.3325,-0.07,-0.059902,-0.019398,-0.920978,-0.0721,0.13272,0.48566
-1.85498,0,0,16.855,16.855,13.145,13.145,0.618325,2.3374,-6.31395,0.0978751,0.327512,0.313797,1,0,5.5825,0.1225,-0.0175,0.098942,0.328546,-0.700402,-0.0721,0.13272,0.48566
-1.86205,0,0,16.862,16.862,13.138,13.138,0.620682,2.33672,-6.31235,-0.00756264,0.0686447,0.207815,1,0,4.7425,-0.2975,0.0175,-0.006954,0.069906,-0.805566,-0.0721,0.13272,0.48566
-2.19676,0,0,17.1968,17.1968,12.8032,12.8032,0.732252,2.24381,-6.21266,-0.0835717,-0.107348,-0.0175074,0,0,5.425,0.5425,0.1575,-0.084912,-0.107848,-1.02919,-0.06888,0.13272,0.4872
-2.03051,0,0,17.0305,17.0305,12.9695,12.9695,0.676836,2.20677,-6.18471,-0.033967,0.0575344,-0.00357727,0,0,5.04,0.3675,0.245,-0.035746,0.057828,-1.01541,-0.06888,0.13272,0.4872
-1.8652,0,0,16.8652,16.8652,13.1348,13.1348,0.621735,2.16897,-6.15681,-0.0333077,0.0565738,-0.00354119,0,0,4.6725,-0.49,0.1925,-0.035746,0.057828,-1.01541,-0.06888,0.13272,0.4872
-1.74101,0,0,16.741,16.741,13.259,13.259,0.580338,2.29125,-6.27177,0.12322,0.0446153,-0.0787382,0,0,4.8125,-0.735,-0.035,0.123586,0.046604,-1.08995,-0.06888,0.13272,0.4872
-1.6173,0,0,16.6173,16.6173,13.3827,13.3827,0.5391,2.41274,-6.38749,0.121101,0.0438954,-0.0788182,0,0,4.515,0.175,-0.5425,0.123586,0.046604,-1.08995,-0.06888,0.13272,0.4872
-0.546182,0,0,15.5462,15.5462,14.4538,14.4538,0.182061,2.58075,-6.59373,0.156683,0.374495,0.0141653,0,0,4.585,-0.0875,-1.015,0.16226,0.38308,-0.997594,-0.06888,0.13272,0.4872
0.508425,0,0,14.4916,14.4916,15.5084,15.5084,-0.169475,2.74533,-6.80285,0.153813,0.368366,0.0140325,0,0,4.4975,-0.2975,-1.715,0.16226,0.38308,-0.997594,-0.06888,0.13272,0.4872
0.502953,0,0,14.497,14.497,15.503,15.503,-0.167651,2.7452,-6.80478,0.0592999,0.0281525,0.140916,1,0,4.5325,0.0175,-2.0475,0.067344,0.043188,-0.87169,-0.06888,0.13272,0.4872
0.50016,0,0,14.4998,14.4998,15.5002,15.5002,-0.16672,2.74587,-6.80711,0.0592881,0.0281688,0.140915,1,0,4.0425,0.49,-2.275,0.067344,0.043188,-0.87169,-0.06888,0.12824,0.48216
0.919988,0,0,14.08,14.08,15.92,15.92,-0.306663,2.7128,-6.80375,-0.0330719,0.127338,0.0835155,0,0,4.0775,0.0525,-2.3625,-0.025986,0.144692,-0.928664,-0.06888,0.12824,0.48216
1.33461,0,0,13.6654,13.6654,16.3346,16.3346,-0.444871,2.68063,-6.79957,-0.0325111,0.124929,0.0835261,0,0,3.6575,0.245,-2.0125,-0.025986,0.144692,-0.928664,-0.06888,0.12824,0.48216
1.33357,0,0,13.6664,13.6664,16.3336,16.3336,-0.444524,2.68154,-6.8011,-0.101652,-0.0983128,-0.10852,1,0,3.6925,0.63,-1.8025,-0.095404,-0.078324,-1.11923,-0.06888,0.12824,0.48216
1.33265,0,0,13.6674,13.6674,16.3326,16.3326,-0.444217,2.6814,-6.80214,-0.10165,-0.0983075,-0.10852,1,0,3.6575,0.0175,-1.5225,-0.095404,-0.078324,-1.11923,-0.06888,0.12824,0.48216
1.84937,0,0,13.1506,13.1506,16.8494,16.8494,-0.616455,2.71051,-6.85893,0.0211506,0.161385,0.061589,0,0,4.165,-0.14,-1.4,0.028426,0.184098,-0.95038,-0.06888,0.12824,0.48216
2.35788,0,0,12.6421,12.6421,17.3579,17.3579,-0.78596,2.74006,-6.9146,0.0206355,0.15843,0.0615283,0,0,3.99,0.455,-0.7175,0.028426,0.184098,-0.95038,-0.06888,0.12824,0.48216
2.35523,0,0,12.6448,12.6448,17.3552,17.3552,-0.785078,2.74098,-6.91403,0.229089,-0.264601,-0.116502,1,0,3.9375,0.63,-0.5775,0.237778,-0.23851,-1.12704,-0.06888,0.12824,0.48216
2.35353,0,0,12.6465,12.6465,17.3535,17.3535,-0.784511,2.74162,-6.91288,0.229078,-0.264592,-0.116502,1,0,3.745,0.455,-0.245,0.237778,-0.23851,-1.12704,-0.06874,0.12768,0.47838
2.35023,0,0,12.6498,12.6498,17.3502,17.3502,-0.783409,2.74238,-6.91165,-0.0933585,-0.0506063,-0.102486,1,0,4.0425,0.525,-0.1925,-0.08601,-0.024766,-1.11313,-0.06874,0.12768,0.47838
2.34535,0,0,12.6546,12.6546,17.3454,17.3454,-0.781784,2.74292,-6.91056,-0.093368,-0.050578,-0.102486,1,0,4.34,0.4025,-0.28,-0.08601,-0.024766,-1.11313,-0.06874,0.12768,0.47838
1.82973,0,0,13.1703,13.1703,16.8297,16.8297,-0.60991,2.74194,-6.88343,0.00335171,-0.179112,-0.0634745,0,0,4.2875,0.4375,0.0875,0.011102,-0.15616,-1.07445,-0.06874,0.12768,0.47838
1.32183,0,0,13.6782,13.6782,16.3218,16.3218,-0.440611,2.73973,-6.85694,0.00339029,-0.176161,-0.0634456,0,0,4.5325,-0.2975,-0.1575,0.011102,-0.15616,-1.07445,-0.06874,0.12768,0.47838
1.31674,0,0,13.6833,13.6833,16.3167,16.3167,-0.438913,2.73853,-6.85629,0.358878,0.0119437,-0.179139,1,0,4.3925,-0.6125,-0.5425,0.368074,0.03172,-1.18926,-0.06874,0.12768,0.47838
1.31783,0,0,13.6822,13.6822,16.3178,16.3178,-0.439278,2.73697,-6.85635,0.358905,0.0119373,-0.179138,1,0,3.255,-0.8225,-0.9625,0.368074,0.03172,-1.18926,-0.06874,0.12768,0.47838
1.48898,0,0,13.511,13.511,16.489,16.489,-0.496328,2.65647,-6.7955,-0.0719372,0.0550299,0.0108758,0,0,2.9225,-1.1025,-1.155,-0.066002,0.075762,-1.00077,-0.06874,0.12768,0.47838
1.65644,0,0,13.3436,13.3436,16.6564,16.6564,-0.552148,2.57843,-6.7408,-0.0705765,0.0540562,0.0109291,0,0,3.08,-0.6475,-1.5225,-0.066002,0.075762,-1.00077,-0.07,0.13174,0.47936
0.962897,0,0,14.0371,14.0371,15.9629,15.9629,-0.320966,2.61264,-6.74577,0.0391361,-0.24149,-0.0307468,0,0,3.115,-0.7525,-1.855,0.044774,-0.223504,-1.04212,-0.07,0.13174,0.47936
0.277411,0,0,14.7226,14.7226,15.2774,15.2774,-0.0924705,2.64725,-6.75111,0.0385325,-0.237506,-0.0307601,0,0,3.8325,-0.1575,-2.0825,0.044774,-0.223504,-1.04212,-0.07,0.13174,0.47936
0.196167,0,0,14.8038,14.8038,15.1962,15.1962,-0.0653889,2.6548,-6.76205,0.00280572,-0.0234342,0.0856667,0,0,4.165,-0.035,-2.2225,0.009028,-0.010126,-0.92659,-0.07,0.13174,0.47936
0.116971,0,0,14.883,14.883,15.117,15.117,-0.0389902,2.66265,-6.77274,0.00266876,-0.0229739,0.0856607,0,0,4.0425,0.2275,-2.0825,0.009028,-0.010126,-0.92659,-0.07,0.13174,0.47936
0.119294,0,0,14.8807,14.8807,15.1193,15.1193,-0.0397647,2.6636,-6.77423,-0.0765564,-0.037032,-0.172778,1,0,3.0625,0.6475,-1.785,-0.070516,-0.024156,-1.18303,-0.07,0.13174,0.47936
0.121879,0,0,14.8781,14.8781,15.1219,15.1219,-0.0406263,2.6638,-6.77491,-0.07656,-0.037047,-0.172778,1,0,2.9925,0.21,-1.3125,-0.070516,-0.024156,-1.18303,-0.07,0.13174,0.47936
0.123968,0,0,14.876,14.876,15.124,15.124,-0.0413226,2.66409,-6.77471,0.126316,0.0741983,-0.160483,1,0,3.0625,0.2625,-0.805,0.133224,0.086986,-1.17083,-0.07,0.13174,0.47936
0.126847,0,0,14.8732,14.8732,15.1268,15.1268,-0.0422822,2.66388,-6.77347,0.12632,0.0741816,-0.160483,1,0,2.8875,-0.035,-0.1925,0.133224,0.086986,-1.17083,-0.07,0.13174,0.47936
-0.870058,0,0,15.8701,15.8701,14.1299,14.1299,0.290019,2.52396,-6.58668,-0.131341,-0.341484,0.0196114,0,0,2.73,0.2625,0.0525,-0.127978,-0.334036,-0.992226,-0.07154,0.12432,0.4774
-0.549112,0,0,15.5491,15.5491,14.4509,14.4509,0.183037,2.4216,-6.4988,-0.0901952,0.0971623,0.0851048,0,0,2.8175,1.155,0,-0.08845,0.106018,-0.927322,-0.07154,0.12432,0.4774
-0.23277,0,0,15.2328,15.2328,14.7672,14.7672,0.07759,2.31961,-6.41048,-0.0884167,0.0953236,0.0851826,0,0,2.6425,0.245,0.0875,-0.08845,0.106018,-0.927322,-0.07154,0.12432,0.4774
-0.230108,0,0,15.2301,15.2301,14.7699,14.7699,0.0767028,2.32019,-6.40804,0.104614,0.189956,0.188828,1,0,2.905,0.4375,0.5075,0.105408,0.200568,-0.824476,-0.07154,0.12432,0.4774
-0.230378,0,0,15.2304,15.2304,14.7696,14.7696,0.0767926,2.32132,-6.40613,0.104594,0.189958,0.188827,1,0,3.465,0.7525,0.1925,0.105408,0.200568,-0.824476,-0.07154,0.12432,0.4774
-0.395482,0,0,15.3955,15.3955,14.6045,14.6045,0.131827,2.64063,-6.67338,0.313692,-0.0624959,-0.0241169,0,0,3.78,0.77,-0.21,0.320982,-0.052582,-1.03554,-0.07154,0.12432,0.4774
-0.557905,0,0,15.5579,15.5579,14.4421,14.4421,0.185968,2.95297,-6.94057,0.308247,-0.0615528,-0.0243855,0,0,3.8325,0.14,-0.8575,0.320982,-0.052582,-1.03554,-0.07154,0.12432,0.4774
-0.387983,0,0,15.388,15.388,14.612,14.612,0.129328,2.805,-6.81519,-0.132232,0.0566559,0.0270164,0,0,3.885,-0.07,-1.225,-0.123952,0.06649,-0.984662,-0.07154,0.12432,0.4774
-0.216183,0,0,15.2162,15.2162,14.7838,14.7838,0.0720609,2.65882,-6.70527,-0.129684,0.0556578,0.0271398,0,0,2.975,-0.2975,-1.7675,-0.123952,0.06649,-0.984662,-0.07882,0.13594,0.47866
-0.208919,0,0,15.2089,15.2089,14.7911,14.7911,0.0696397,2.65766,-6.70727,0.00652195,0.0109172,-0.113635,1,0,2.1525,-0.595,-2.0825,0.01281,0.021838,-1.12435,-0.07882,0.13594,0.47866
-0.200403,0,0,15.2004,15.2004,14.7996,14.7996,0.0668009,2.65622,-6.7102,0.00654701,0.0108677,-0.113634,1,0,1.9425,-0.7525,-2.625,0.01281,0.021838,-1.12435,-0.07882,0.13594,0.47866
-0.194061,0,0,15.1941,15.1941,14.8059,14.8059,0.064687,2.65595,-6.71298,-0.238606,-0.382417,-0.086831,1,0,2.345,-0.07,-2.5375,-0.233386,-0.371002,-1.09776,-0.07882,0.13594,0.47866
-0.192585,0,0,15.1926,15.1926,14.8074,14.8074,0.0641949,2.65496,-6.71579,-0.238589,-0.382426,-0.0868302,1,0,3.255,-0.49,-2.555,-0.233386,-0.371002,-1.09776,-0.07882,0.13594,0.47866
-0.451617,0,0,15.4516,15.4516,14.5484,14.5484,0.150539,2.78871,-6.83447,0.123536,-0.0898927,0.00477572,0,0,2.4325,-0.2975,-2.6775,0.132614,-0.080276,-1.00674,-0.07882,0.13594,0.47866
-0.706862,0,0,15.7069,15.7069,14.2931,14.2931,0.235621,2.92081,-6.9514,0.121233,-0.08841,0.00465589,0,0,2.52,0.2275,-2.0125,0.132614,-0.080276,-1.00674,-0.07882,0.13594,0.47866
-0.700447,0,0,15.7004,15.7004,14.2996,14.2996,0.233482,2.92075,-6.95196,-0.0228475,-0.0298265,-0.19452,1,0,2.275,0.0525,-1.2425,-0.012078,-0.021716,-1.20438,-0.07882,0.13594,0.47866
-0.691601,0,0,15.6916,15.6916,14.3084,14.3084,0.230534,2.92055,-6.95065,-0.0228441,-0.0298778,-0.19452,1,0,1.7675,-0.0175,-0.1575,-0.012078,-0.021716,-1.20438,-0.07392,0.1288,0.47922
0.0328711,0,0,14.9671,14.9671,15.0329,15.0329,-0.010957,2.70836,-6.80043,-0.186552,0.224333,0.0990249,0,0,2.66,-0.7525,-0.315,-0.180194,0.236436,-0.913292,-0.07392,0.1288,0.47922
0.749981,0,0,14.25,14.25,15.75,15.75,-0.249994,2.50115,-6.64762,-0.18294,0.220165,0.0991798,0,0,1.75,0,0.2625,-0.180194,0.236436,-0.913292,-0.07392,0.1288,0.47922
0.376135,0,0,14.6239,14.6239,15.3761,15.3761,-0.125378,2.46855,-6.59248,-0.0311216,-0.118274,0.0583927,0,0,2.4325,1.05,0.7175,-0.028304,-0.103822,-0.953796,-0.07392,0.1288,0.47922
0.00727399,0,0,14.9927,14.9927,15.0073,15.0073,-0.00242466,2.43512,-6.538,-0.0305386,-0.11613,0.05842,0,0,2.73,0.1925,0.5425,-0.028304,-0.103822,-0.953796,-0.07392,0.1288,0.47922
0.0472961,0,0,14.9527,14.9527,15.0473,15.0473,-0.0157654,2.3305,-6.43827,-0.0944379,0.0119928,0.0196442,0,0,2.3275,0.4725,0.595,-0.094306,0.0244,-0.992348,-0.07392,0.1288,0.47922
0.0820337,0,0,14.918,14.918,15.082,15.082,-0.0273446,2.22785,-6.33852,-0.0926479,0.0117908,0.0197154,0,0,3.2025,0.4725,0.665,-0.094306,0.0244,-0.992348,-0.07392,0.1288,0.47922
0.723765,0,0,14.2762,14.2762,15.7238,15.7238,-0.241255,2.19055,-6.32568,-0.0359923,0.209447,0.0291988,0,0,2.66,0.4725,0.63,-0.038064,0.225578,-0.982954,-0.07392,0.1288,0.47922
1.3552,0,0,13.6448,13.6448,16.3552,16.3552,-0.451732,2.15154,-6.31343,-0.0353121,0.205776,0.0292023,0,0,2.555,-0.805,-0.3325,-0.038064,0.225578,-0.982954,-0.0756,0.12852,0.4858
1.3545,0,0,13.6455,13.6455,16.3545,16.3545,-0.4515,2.15088,-6.31341,-0.146217,-0.00317867,0.265141,1,0,3.5875,-0.2975,-0.91,-0.14945,0.016836,-0.748836,-0.0756,0.12852,0.4858
1.35366,0,0,13.6463,13.6463,16.3537,16.3537,-0.451222,2.15092,-6.31547,-0.146218,-0.00317381,0.265141,1,0,3.6575,0.1225,-2.1175,-0.14945,0.016836,-0.748836,-0.0756,0.12852,0.4858
1.3563,0,0,13.6437,13.6437,16.3563,16.3563,-0.452101,2.14988,-6.31761,-0.160535,0.0323497,0.206987,1,0,3.01,-0.5075,-2.17,-0.163846,0.052338,-0.806542,-0.0756,0.12852,0.4858
1.36029,0,0,13.6397,13.6397,16.3603,16.3603,-0.453429,2.14943,-6.3209,-0.160527,0.0323266,0.206987,1,0,2.7825,-0.1575,-2.835,-0.163846,0.052338,-0.806542,-0.0756,0.12852,0.4858
1.00033,0,0,13.9997,13.9997,16.0003,16.0003,-0.333443,2.31082,-6.44439,0.14997,-0.125444,0.001076,0,0,2.4675,0.5775,-2.8875,0.150792,-0.10736,-1.01077,-0.0756,0.12852,0.4858
0.643152,0,0,14.3568,14.3568,15.6432,15.6432,-0.214384,2.46788,-6.5676,0.147231,-0.123367,0.000971644,0,0,3.0975,-0.175,-3.2025,0.150792,-0.10736,-1.01077,-0.0756,0.12852,0.4858
0.647451,0,0,14.3525,14.3525,15.6475,15.6475,-0.215817,2.4669,-6.57146,0.0533398,0.36255,0.403752,1,0,2.7475,-0.4725,-3.1675,0.056486,0.378078,-0.611098,-0.0756,0.12852,0.4858
0.651806,0,0,14.3482,14.3482,15.6518,15.6518,-0.217269,2.46665,-6.57429,0.0533442,0.362525,0.403752,1,0,2.7125,-0.0525,-2.5725,0.056486,0.378078,-0.611098,-0.07224,0.12754,0.47726
0.648008,0,0,14.352,14.352,15.648,15.648,-0.216003,2.46792,-6.57636,0.329216,0.343739,-0.0515275,1,0,4.2175,0.84,-2.1175,0.333548,0.35929,-1.06286,-0.07224,0.12754,0.47726
0.648757,0,0,14.3512,14.3512,15.6488,15.6488,-0.216252,2.46794,-6.57664,0.329216,0.343735,-0.0515275,1,0,3.325,0.105,-1.085,0.333548,0.35929,-1.06286,-0.07224,0.12754,0.47726
0.646746,0,0,14.3533,14.3533,15.6467,15.6467,-0.215582,2.46757,-6.5766,-0.146516,0.29685,0.253631,1,0,3.8325,-0.1225,-0.8925,-0.144204,0.312442,-0.76006,-0.07224,0.12754,0.47726
0.64818,0,0,14.3518,14.3518,15.6482,15.6482,-0.21606,2.4685,-6.57494,-0.146532,0.296842,0.25363,1,0,3.15,0.63,0.0525,-0.144204,0.312442,-0.76006,-0.07224,0.12754,0.47726
1.16352,0,0,13.8365,13.8365,16.1635,16.1635,-0.387839,2.59833,-6.71063,0.115193,0.168301,0.0264284,0,0,2.8175,1.19,0.7175,0.120902,0.187026,-0.985394,-0.07224,0.12754,0.47726
1.67031,0,0,13.3297,13.3297,16.6703,16.6703,-0.556768,2.72406,-6.84643,0.113001,0.165356,0.0263023,0,0,2.7825,0.1925,0.8925,0.120902,0.187026,-0.985394,-0.07224,0.12754,0.47726
1.20121,0,0,13.7988,13.7988,16.2012,16.2012,-0.400403,2.75639,-6.84842,0.0253318,-0.146028,0.0769528,0,0,3.3775,0.1575,1.085,0.033428,-0.126758,-0.93513,-0.07224,0.12754,0.47726
0.710661,0,0,14.2893,14.2893,15.7107,15.7107,-0.236887,2.7888,-6.85058,0.0247668,-0.143177,0.0769413,0,0,8.89,0.56,0.98,0.033428,-0.126758,-0.93513,-0.07224,0.12754,0.47726
0.710677,0,0,14.2893,14.2893,15.7107,15.7107,-0.236892,2.82264,-6.88331,0.0355964,0.00300887,-0.0623882,0,0,4.9875,0.35,0.9275,0.044896,0.019276,-1.07336,-0.07168,0.1302,0.47768
0.712437,0,0,14.2876,14.2876,15.7124,15.7124,-0.237479,2.85504,-6.91715,0.0350317,0.00299876,-0.0624163,0,0,4.69,-0.1225,0.245,0.044896,0.019276,-1.07336,-0.07168,0.1302,0.47768
0.707884,0,0,14.2921,14.2921,15.7079,15.7079,-0.235961,2.85462,-6.91701,0.255171,-0.0157823,-0.0664731,1,0,4.305,-0.1575,-0.84,0.26596,0.000488,-1.07738,-0.07168,0.1302,0.47768
0.70558,0,0,14.2944,14.2944,15.7056,15.7056,-0.235193,2.85476,-6.91751,0.255169,-0.0157689,-0.0664732,1,0,3.9025,0.175,-1.2075,0.26596,0.000488,-1.07738,-0.07168,0.1302,0.47768
0.853953,0,0,14.146,14.146,15.854,15.854,-0.284651,2.86156,-6.9407,0.00636881,0.0500502,0.0019993,0,0,4.0775,-0.525,-2.17,0.016226,0.0671,-1.00943,-0.07168,0.1302,0.47768
0.999755,0,0,14.0002,14.0002,15.9998,15.9998,-0.333252,2.86822,-6.96384,0.00625269,0.0492031,0.00198892,0,0,4.0775,-0.525,-2.17,0.016226,0.0671,-1.00943,-0.07168,0.1302,0.47768
0.999637,0,0,14.0004,14.0004,15.9996,15.9996,-0.333212,2.86814,-6.96767,0.144991,-0.146321,-0.158336,1,0,3.5875,0.0525,-3.15,0.15555,-0.128222,-1.16852,-0.07168,0.1302,0.47768
0.999518,0,0,14.0005,14.0005,15.9995,15.9995,-0.333173,2.86805,-6.9715,0.144992,-0.14632,-0.158336,1,0,3.5875,0.0525,-3.15,0.15555,-0.128222,-1.16852,-0.07168,0.1302,0.47768
1.20255,0,0,13.7974,13.7974,16.2026,16.2026,-0.400851,3.13083,-7.23197,0.227275,0.0614604,0.0822728,0,0,3.7975,-0.245,-3.325,0.24278,0.08052,-0.929518,-0.07322,0.13034,0.48272
1.19733,0,0,13.8027,13.8027,16.1973,16.1973,-0.39911,3.13038,-7.23577,-0.0585734,-0.107166,0.180509,1,0,4.55,-0.1575,-3.1325,-0.044286,-0.087962,-0.83204,-0.07322,0.13034,0.48272
1.19549,0,0,13.8045,13.8045,16.1955,16.1955,-0.398497,3.13083,-7.23849,-0.0585813,-0.107156,0.180509,1,0,3.885,0.3675,-2.5025,-0.044286,-0.087962,-0.83204,-0.07322,0.13034,0.48272
1.19514,0,0,13.8049,13.8049,16.1951,16.1951,-0.398379,3.13114,-7.23998,-0.0860425,-0.0132381,-0.110387,1,0,3.57,0.28,-1.785,-0.071858,0.005856,-1.12069,-0.07322,0.13034,0.48272
1.19628,0,0,13.8037,13.8037,16.1963,16.1963,-0.398761,3.13167,-7.23979,-0.0860517,-0.0132448,-0.110388,1,0,3.2375,0.4025,-0.805,-0.071858,0.005856,-1.12069,-0.07322,0.13034,0.48272
1.47843,0,0,13.5216,13.5216,16.4784,16.4784,-0.49281,3.10464,-7.23823,-0.0305475,0.0856263,0.0832688,0,0,3.4125,1.05,-0.35,-0.016592,0.106262,-0.928542,-0.07322,0.13034,0.48272
1.75457,0,0,13.2454,13.2454,16.7546,16.7546,-0.584856,3.07724,-7.23532,-0.0300701,0.084022,0.0832795,0,0,3.5875,0.56,0.35,-0.016592,0.106262,-0.928542,-0.07322,0.13034,0.48272
1.75628,0,0,13.2437,13.2437,16.7563,16.7563,-0.585427,3.07792,-7.23282,-0.132737,0.0529919,-0.129422,1,0,3.0625,0.4725,0.5425,-0.119682,0.075274,-1.1396,-0.07322,0.13034,0.48272
1.75137,0,0,13.2486,13.2486,16.7514,16.7514,-0.583789,3.07813,-7.2293,-0.132741,0.0530204,-0.129422,1,0,4.27,0.1925,1.1375,-0.119682,0.075274,-1.1396,-0.07084,0.13216,0.48062
1.74364,0,0,13.2564,13.2564,16.7436,16.7436,-0.581214,3.07923,-7.22575,-0.150011,-0.0430485,0.114507,1,0,4.795,0.7175,1.155,-0.137006,-0.02074,-0.897554,-0.07084,0.13216,0.48062
1.73442,0,0,13.2656,13.2656,16.7344,16.7344,-0.57814,3.07985,-7.2228,-0.150022,-0.0429949,0.114507,1,0,5.0925,0.4375,0.805,-0.137006,-0.02074,-0.897554,-0.07084,0.13216,0.48062
1.72611,0,0,13.2739,13.2739,16.7261,16.7261,-0.57537,3.08056,-7.22027,-0.0342584,-0.0937513,-0.237618,1,0,4.935,0.49,0.56,-0.02074,-0.071492,-1.24696,-0.07084,0.13216,0.48062
1.72332,0,0,13.2767,13.2767,16.7233,16.7233,-0.574442,3.08017,-7.2195,-0.0342517,-0.0937351,-0.237617,1,0,3.955,-0.14,-0.4725,-0.02074,-0.071492,-1.24696,-0.07084,0.13216,0.48062
1.29182,0,0,13.7082,13.7082,16.2918,16.2918,-0.430608,2.96381,-7.10333,-0.103414,-0.136538,0.0500886,0,0,3.6225,0.4025,-0.805,-0.092232,-0.116754,-0.961604,-0.07084,0.13216,0.48062
0.868828,0,0,14.1312,14.1312,15.8688,15.8688,-0.289609,2.84847,-6.98975,-0.101404,-0.134081,0.0502061,0,0,3.5,-0.28,-1.82,-0.092232,-0.116754,-0.961604,-0.07084,0.13216,0.48062
0.709281,0,0,14.2907,14.2907,15.7093,15.7093,-0.236427,3.02366,-7.15271,0.165605,-0.0556031,0.00566929,0,0,3.745,-0.07,-2.205,0.178974,-0.039284,-1.00565,-0.07084,0.13216,0.48062
0.55028,0,0,14.4497,14.4497,15.5503,15.5503,-0.183427,3.1955,-7.31007,0.162611,-0.0546789,0.00550999,0,0,4.2,-0.42,-2.66,0.178974,-0.039284,-1.00565,-0.07196,0.12838,0.48174
1.14287,0,0,13.8571,13.8571,16.1429,16.1429,-0.380955,3.20163,-7.36008,0.00457241,0.209581,-0.0365613,0,0,3.92,-0.0875,-2.7825,0.020374,0.22814,-1.04737,-0.07196,0.12838,0.48174
1.72549,0,0,13.2745,13.2745,16.7255,16.7255,-0.575162,3.20709,-7.4105,0.00447717,0.206197,-0.0365949,0,0,3.92,-0.35,-3.08,0.020374,0.22814,-1.04737,-0.07196,0.12838,0.48174
1.54663,0,0,13.4534,13.4534,16.5466,16.5466,-0.515545,3.45222,-7.63896,0.236739,-0.0625401,0.0113623,0,0,4.6375,-0.84,-3.045,0.257908,-0.041358,-0.999546,-0.07196,0.12838,0.48174
1.37464,0,0,13.6254,13.6254,16.3746,16.3746,-0.458215,3.69371,-7.86557,0.232532,-0.0615393,0.0111082,0,0,3.885,-0.3675,-2.5025,0.257908,-0.041358,-0.999546,-0.07196,0.12838,0.48174
1.37151,0,0,13.6285,13.6285,16.3715,16.3715,-0.457172,3.69216,-7.8675,0.35939,0.0465611,-0.143436,1,0,4.1125,-0.805,-2.0475,0.385276,0.066612,-1.1529,-0.07196,0.12838,0.48174
1.37548,0,0,13.6245,13.6245,16.3755,16.3755,-0.458494,3.69144,-7.86787,0.359403,0.046538,-0.143436,1,0,2.73,-0.3325,-1.1375,0.385276,0.066612,-1.1529,-0.07196,0.12838,0.48174
1.37889,0,0,13.6211,13.6211,16.3789,16.3789,-0.459631,3.69092,-7.8678,-0.0750211,-0.129466,-0.236261,1,0,2.8175,-0.21,-0.875,-0.050996,-0.10919,-1.24501,-0.07196,0.12838,0.48174
1.37779,0,0,13.6222,13.6222,16.3778,16.3778,-0.459262,3.69135,-7.86613,-0.0750285,-0.12946,-0.236262,1,0,3.605,0.3325,0.0525,-0.050996,-0.10919,-1.24501,-0.06986,0.12488,0.47348
1.37899,0,0,13.621,13.621,16.379,16.379,-0.459663,3.69208,-7.86384,0.285164,-0.0205299,-0.112945,1,0,3.15,0.5075,0.42,0.310734,-0.000366,-1.12264,-0.06986,0.12488,0.47348
1.37599,0,0,13.624,13.624,16.376,16.376,-0.458663,3.69224,-7.86062,0.285161,-0.0205125,-0.112945,1,0,3.9025,0.175,0.9625,0.310734,-0.000366,-1.12264,-0.06986,0.12488,0.47348
1.36997,0,0,13.63,13.63,16.37,16.37,-0.456655,3.69247,-7.85727,-0.093028,-0.193043,-0.164338,1,0,4.4625,0.21,1.0325,-0.069052,-0.172752,-1.17364,-0.06986,0.12488,0.47348
1.36556,0,0,13.6344,13.6344,16.3656,16.3656,-0.455186,3.69324,-7.85405,-0.0930413,-0.193017,-0.164338,1,0,4.165,0.525,0.9625,-0.069052,-0.172752,-1.17364,-0.06986,0.12488,0.47348
1.60071,0,0,13.3993,13.3993,16.6007,16.6007,-0.533569,3.6387,-7.82662,-0.0533374,0.0854097,-0.0430621,0,0,4.7075,0.7875,0.7875,-0.030134,0.10675,-1.05335,-0.06986,0.12488,0.47348
1.8358,0,0,13.1642,13.1642,16.8358,16.8358,-0.611933,3.58363,-7.80029,-0.0523782,0.0840441,-0.0430152,0,0,4.0075,-0.0875,0.0525,-0.030134,0.10675,-1.05335,-0.06986,0.12488,0.47348
1.5317,0,0,13.4683,13.4683,16.5317,16.5317,-0.510566,3.27847,-7.51289,-0.267315,-0.092376,0.101294,0,0,3.57,0.14,-0.5775,-0.25132,-0.071248,-0.910486,-0.06986,0.12488,0.47348
1.23199,0,0,13.768,13.768,16.232,16.232,-0.410664,2.97584,-7.23475,-0.262041,-0.0906374,0.101596,0,0,3.675,-0.035,-1.75,-0.25132,-0.071248,-0.910486,-0.07434,0.13006,0.47376
2.03196,0,0,12.968,12.968,17.032,17.032,-0.67732,3.26303,-7.54764,0.241857,0.248627,0.134475,0,0,3.3425,-0.2625,-1.89,0.259738,0.272304,-0.877546,-0.07434,0.13006,0.47376
2.81777,0,0,12.1822,12.1822,17.8178,17.8178,-0.939255,3.54472,-7.8638,0.23695,0.244068,0.134119,0,0,3.78,-0.5075,-2.695,0.259738,0.272304,-0.877546,-0.07434,0.13006,0.47376
2.81709,0,0,12.1829,12.1829,17.8171,17.8171,-0.939029,3.54421,-7.86741,-0.179494,0.243462,0.241576,1,0,3.71,-0.175,-3.0275,-0.158478,0.271694,-0.770918,-0.07434,0.13006,0.47376
2.82125,0,0,12.1788,12.1788,17.8212,17.8212,-0.940415,3.54342,-7.87135,-0.179481,0.243437,0.241577,1,0,2.8175,-0.3325,-3.22,-0.158478,0.271694,-0.770918,-0.07434,0.13006,0.47376
2.82391,0,0,12.1761,12.1761,17.8239,17.8239,-0.941302,3.54339,-7.87479,0.00590704,-0.0775271,-0.151367,1,0,3.08,0.105,-2.9225,0.027694,-0.048922,-1.16083,-0.07434,0.13006,0.47376
2.82657,0,0,12.1734,12.1734,17.8266,17.8266,-0.942189,3.54335,-7.87824,0.00590763,-0.0775426,-0.151367,1,0,3.08,0.105,-2.9225,0.027694,-0.048922,-1.16083,-0.07434,0.13006,0.47376
2.82766,0,0,12.1723,12.1723,17.8277,17.8277,-0.942554,3.54266,-7.8798,-0.205222,-0.0395675,0.144079,1,0,3.3075,-0.2975,-1.8375,-0.184342,-0.01098,-0.867664,-0.07434,0.13006,0.47376
2.82876,0,0,12.1712,12.1712,17.8288,17.8288,-0.942919,3.54197,-7.88137,-0.20521,-0.0395739,0.144079,1,0,3.3075,-0.2975,-1.8375,-0.184342,-0.01098,-0.867664,-0.07672,0.12684,0.4746
2.83351,0,0,12.1665,12.1665,17.8335,17.8335,-0.944503,3.54237,-7.88043,0.22144,0.42387,-0.0259593,1,0,2.5375,0.315,-0.3675,0.244122,0.45201,-1.03639,-0.07672,0.12684,0.4746
2.84127,0,0,12.1587,12.1587,17.8413,17.8413,-0.947092,3.54228,-7.87859,0.0239063,0.115699,-0.103786,1,0,1.9425,0.0175,0.1575,0.04575,0.144204,-1.11362,-0.07672,0.12684,0.4746
2.84788,0,0,12.1521,12.1521,17.8479,17.8479,-0.949294,3.5439,-7.87554,0.023878,0.11566,-0.103789,1,0,2.1175,1.015,0.875,0.04575,0.144204,-1.11362,-0.07672,0.12684,0.4746
2.33879,0,0,12.6612,12.6612,17.3388,17.3388,-0.779598,3.56081,-7.86744,0.0161727,-0.169114,0.0371366,0,0,2.0475,0.2625,1.1375,0.038308,-0.143228,-0.973804,-0.07672,0.12684,0.4746
1.8344,0,0,13.1656,13.1656,16.8344,16.8344,-0.611468,3.57716,-7.85858,0.0158881,-0.166186,0.0371544,0,0,2.7475,0.0875,1.645,0.038308,-0.143228,-0.973804,-0.07672,0.12684,0.4746
1.83576,0,0,13.1642,13.1642,16.8358,16.8358,-0.611922,3.5774,-7.85455,-0.271916,-0.0710567,0.174979,1,0,3.0625,0.21,1.435,-0.25071,-0.04819,-0.837042,-0.07672,0.12684,0.4746
1.83255,0,0,13.1674,13.1674,16.8326,16.8326,-0.610851,3.57811,-7.8516,-0.271928,-0.0710381,0.174979,1,0,3.955,0.49,0.805,-0.25071,-0.04819,-0.837042,-0.07672,0.12684,0.4746
1.83386,0,0,13.1661,13.1661,16.8339,16.8339,-0.611287,3.57924,-7.84928,-0.2157,-0.147008,-0.219441,1,0,3.1325,0.735,0.4375,-0.194224,-0.124074,-1.22842,-0.07672,0.12684,0.4746
1.83829,0,0,13.1617,13.1617,16.8383,16.8383,-0.612763,3.57912,-7.84812,-0.215698,-0.147034,-0.219442,1,0,2.59,0.0175,-0.245,-0.194224,-0.124074,-1.22842,-0.0728,0.12418,0.4725
2.00554,0,0,12.9945,12.9945,17.0055,17.0055,-0.668512,3.63541,-7.91796,0.0531414,0.0544816,-0.0065674,0,0,2.555,-0.1925,-0.945,0.076738,0.078202,-1.01711,-0.0728,0.12418,0.4725
2.17311,0,0,12.8269,12.8269,17.1731,17.1731,-0.724372,3.6909,-7.99024,0.0521749,0.0535095,-0.0066411,0,0,2.0475,-0.0175,-2.3975,0.076738,0.078202,-1.01711,-0.0728,0.12418,0.4725
2.18065,0,0,12.8193,12.8193,17.1807,17.1807,-0.726885,3.69103,-7.99311,0.12069,-0.368482,-0.0497967,1,0,2.1525,0.1925,-2.59,0.145546,-0.343308,-1.05994,-0.0728,0.12418,0.4725
2.18713,0,0,12.8129,12.8129,17.1871,17.1871,-0.729043,3.69109,-7.99725,0.120689,-0.36852,-0.0497973,1,0,2.3975,0.1575,-3.325,0.145546,-0.343308,-1.05994,-0.0728,0.12418,0.4725
1.53077,0,0,13.4692,13.4692,16.5308,16.5308,-0.510257,3.85025,-8.11646,0.15983,-0.233299,0.00698643,0,0,2.345,-0.385,-3.3775,0.187636,-0.212036,-1.00345,-0.0728,0.12418,0.4725
0.884961,0,0,14.115,14.115,15.885,15.885,-0.294987,4.00657,-8.23452,0.157108,-0.22955,0.00682585,0,0,2.345,-0.385,-3.3775,0.187636,-0.212036,-1.00345,-0.0728,0.12418,0.4725
0.886877,0,0,14.1131,14.1131,15.8869,15.8869,-0.295626,4.01333,-8.23803,0.117386,-0.0667659,-0.311373,1,0,3.2375,4.06,-2.94,0.147864,-0.04941,-1.31919,-0.0728,0.12418,0.4725
0.890256,0,0,14.1097,14.1097,15.8903,15.8903,-0.296752,4.01268,-8.24048,0.365836,0.132037,-0.0807211,1,0,2.9225,-0.28,-2.345,0.397354,0.149206,-1.09031,-0.07644,0.12768,0.48202
0.896031,0,0,14.104,14.104,15.896,15.896,-0.298677,4.01305,-8.24185,0.0951592,-0.206166,-0.154122,1,0,2.4325,0.315,-1.715,0.125538,-0.188612,-1.16315,-0.07644,0.12768,0.48202
0.903707,0,0,14.0963,14.0963,15.9037,15.9037,-0.301236,4.014,-8.24157,0.0951426,-0.20621,-0.154123,1,0,2.0125,0.6475,-0.7525,0.125538,-0.188612,-1.16315,-0.07644,0.12768,0.48202
0.947765,0,0,14.0522,14.0522,15.9478,15.9478,-0.315922,3.80694,-8.07462,-0.188565,0.0139715,0.0338641,0,0,2.0825,-0.3675,-0.245,-0.162992,0.031598,-0.976854,-0.07644,0.12768,0.48202
0.993381,0,0,14.0066,14.0066,15.9934,15.9934,-0.331127,3.60542,-7.90629,-0.185056,0.0137054,0.0340899,0,0,1.645,0.665,0.63,-0.162992,0.031598,-0.976854,-0.07644,0.12768,0.48202
0.963737,0,0,14.0363,14.0363,15.9637,15.9637,-0.321246,3.78527,-8.07499,0.181371,-0.0134777,-0.0401264,0,0,3.045,-0.1225,1.4175,0.208132,0.00427,-1.0503,-0.07644,0.12768,0.48202
0.934536,0,0,14.0655,14.0655,15.9345,15.9345,-0.311512,3.96181,-8.24327,0.178297,-0.0133071,-0.0403336,0,0,3.045,-0.1225,1.4175,0.208132,0.00427,-1.0503,-0.07644,0.12768,0.48202
0.637573,0,0,14.3624,14.3624,15.6376,15.6376,-0.212524,3.52462,-7.84362,-0.40864,-0.0962192,0.0632033,0,0,3.3775,0,1.085,-0.388936,-0.080276,-0.948062,-0.07364,0.12768,0.47572
0.639293,0,0,14.3607,14.3607,15.6393,15.6393,-0.213098,3.52534,-7.84096,0.0542083,0.0310268,0.191069,1,0,3.045,0.5075,0.63,0.075884,0.046848,-0.821182,-0.07364,0.12768,0.47572
0.714066,0,0,14.2859,14.2859,15.7141,15.7141,-0.238022,3.66916,-7.98535,0.115119,0.020701,0.105092,0,0,3.3775,-0.28,0.1225,0.139568,0.036966,-0.906338,-0.07364,0.12768,0.47572
0.789715,0,0,14.2103,14.2103,15.7897,15.7897,-0.263238,3.81064,-8.13141,0.112655,0.0202626,0.104929,0,0,3.045,-0.0875,-0.9625,0.139568,0.036966,-0.906338,-0.07364,0.12768,0.47572
0.792841,0,0,14.2072,14.2072,15.7928,15.7928,-0.26428,3.81062,-8.13272,0.0636962,-0.154763,-0.196541,1,0,2.9225,0.0875,-1.68,0.090402,-0.13786,-1.20548,-0.07364,0.12768,0.47572
0.795186,0,0,14.2048,14.2048,15.7952,15.7952,-0.265062,3.81046,-8.13481,0.0636991,-0.154777,-0.196541,1,0,3.0975,0,-2.135,0.090402,-0.13786,-1.20548,-0.07364,0.12768,0.47572
1.49445,0,0,13.5055,13.5055,16.4945,16.4945,-0.498151,4.10613,-8.4639,0.246246,0.217928,0.136881,0,0,4.305,-0.4375,-2.625,0.278892,0.23851,-0.874252,-0.07364,0.12768,0.47572
2.19012,0,0,12.8099,12.8099,17.1901,17.1901,-0.730038,4.39689,-8.79573,0.241186,0.213896,0.136461,0,0,3.0975,-0.245,-3.3075,0.278892,0.23851,-0.874252,-0.07364,0.12768,0.47572
2.19118,0,0,12.8088,12.8088,17.1912,17.1912,-0.730395,4.39755,-8.79973,-0.173092,-0.1829,-0.22218,1,0,3.43,0.5075,-3.2375,-0.137128,-0.157868,-1.23013,-0.077,0.1281,0.48748
2.19116,0,0,12.8088,12.8088,17.1912,17.1912,-0.730385,4.39699,-8.80344,-0.205398,-0.0192496,-0.465249,1,0,3.6225,-0.21,-3.08,-0.16958,0.005612,-1.47132,-0.077,0.1281,0.48748
2.18899,0,0,12.811,12.811,17.189,17.189,-0.729662,4.39639,-8.80516,-0.205387,-0.019237,-0.465248,1,0,3.9375,-0.245,-1.925,-0.16958,0.005612,-1.47132,-0.077,0.1281,0.48748
1.87737,0,0,13.1226,13.1226,16.8774,16.8774,-0.625791,4.40323,-8.81992,0.00344927,-0.0951021,0.0912294,0,0,4.34,-0.735,-1.8725,0.04026,-0.07198,-0.919148,-0.077,0.1281,0.48748
1.57486,0,0,13.4251,13.4251,16.5749,16.5749,-0.524953,4.41113,-8.83292,0.00331178,-0.0933473,0.0912364,0,0,3.5525,-0.0875,-0.805,0.04026,-0.07198,-0.919148,-0.077,0.1281,0.48748
1.57813,0,0,13.4219,13.4219,16.5781,16.5781,-0.526042,3.92551,-8.41536,-0.48499,0.00530651,0.0191897,0,0,3.2375,0.1575,-0.3325,-0.458598,0.026596,-0.99125,-0.077,0.1281,0.48748
1.58263,0,0,13.4174,13.4174,16.5826,16.5826,-0.527542,3.44898,-7.99626,-0.47669,0.00527547,0.0197243,0,0,3.1325,0.8225,0.63,-0.458598,0.026596,-0.99125,-0.077,0.1281,0.48748
1.46153,0,0,13.5385,13.5385,16.4615,16.4615,-0.487178,3.48212,-8.02439,0.0295706,-0.0420169,0.0070319,0,0,2.8,1.12,1.0325,0.050386,-0.02135,-1.00382,-0.077,0.1281,0.48748
1.33297,0,0,13.667,13.667,16.333,16.333,-0.444324,3.5125,-8.05245,0.0290414,-0.0412701,0.00700562,0,0,4.5325,0.0175,1.4,0.050386,-0.02135,-1.00382,-0.06916,0.12656,0.48496
1.32657,0,0,13.6734,13.6734,16.3266,16.3266,-0.442189,3.51178,-8.04889,-0.0182039,0.0870002,-0.110778,1,0,4.5325,-0.35,1.155,0.002928,0.10675,-1.12069,-0.06916,0.12656,0.48496
1.32016,0,0,13.6798,13.6798,16.3202,16.3202,-0.440054,3.51105,-8.04532,-0.0181912,0.0870374,-0.110777,1,0,4.5325,-0.35,1.155,0.002928,0.10675,-1.12069,-0.06916,0.12656,0.48496
1.31351,0,0,13.6865,13.6865,16.3135,16.3135,-0.437838,3.51166,-8.04246,-0.179778,0.0282109,-0.102294,1,0,4.6025,0.4375,0.7525,-0.159332,0.047946,-1.11227,-0.06916,0.12656,0.48496
1.30686,0,0,13.6931,13.6931,16.3069,16.3069,-0.435621,3.51228,-8.0396,-0.179789,0.0282495,-0.102294,1,0,4.6025,0.4375,0.7525,-0.159332,0.047946,-1.11227,-0.06916,0.12656,0.48496
0.951441,0,0,14.0486,14.0486,15.9514,15.9514,-0.317147,3.62183,-8.13175,0.106953,-0.121123,0.0086229,0,0,4.165,-0.2275,-1.505,0.13054,-0.103334,-1.00211,-0.06916,0.12656,0.48496
0.601875,0,0,14.3981,14.3981,15.6019,15.6019,-0.200625,3.72943,-8.22342,0.105079,-0.119093,0.00851169,0,0,4.165,-0.2275,-1.505,0.13054,-0.103334,-1.00211,-0.06916,0.12656,0.48496
0.173567,0,0,14.8264,14.8264,15.1736,15.1736,-0.0578556,3.6037,-8.0996,-0.116386,-0.144452,-0.00376017,0,0,3.815,0.4375,-2.38,-0.094062,-0.13115,-1.01443,-0.06916,0.12656,0.48496
0.837752,0,0,14.1622,14.1622,15.8378,15.8378,-0.279251,3.23455,-7.82091,-0.36714,0.238832,0.0346038,0,0,4.5675,-0.4725,-2.8875,-0.352336,0.25559,-0.976732,-0.07224,0.12824,0.4851
1.49355,0,0,13.5065,13.5065,16.4935,16.4935,-0.497848,2.87185,-7.5411,-0.360819,0.23502,0.0349151,0,0,4.2525,-0.14,-3.78,-0.352336,0.25559,-0.976732,-0.07224,0.12824,0.4851
1.55328,0,0,13.4467,13.4467,16.5533,16.5533,-0.517759,3.05535,-7.72043,0.154362,0.0170444,0.0988027,0,0,4.3575,-0.1225,-3.6925,0.168238,0.038186,-0.91317,-0.07224,0.12824,0.4851
1.61401,0,0,13.386,13.386,16.614,16.614,-0.538003,3.23516,-7.89871,0.151229,0.0166932,0.0986272,0,0,3.9725,-0.3325,-3.22,0.168238,0.038186,-0.91317,-0.07224,0.12824,0.4851
1.60886,0,0,13.3911,13.3911,16.6089,16.6089,-0.536286,3.23435,-7.90169,0.00631036,0.106975,-0.256324,1,0,4.515,-0.3675,-2.66,0.022692,0.128344,-1.26538,-0.07224,0.12824,0.4851
1.60428,0,0,13.3957,13.3957,16.6043,16.6043,-0.53476,3.23386,-7.90308,0.00631904,0.107001,-0.256323,1,0,4.3575,-0.1925,-1.7325,0.022692,0.128344,-1.26538,-0.07224,0.12824,0.4851
1.47971,0,0,13.5203,13.5203,16.4797,16.4797,-0.493237,3.13085,-7.81059,-0.0992794,-0.0429804,-0.0631878,0,0,3.535,0.3325,-1.05,-0.085156,-0.022204,-1.07384,-0.07224,0.12824,0.4851
1.36023,0,0,13.6398,13.6398,16.3602,16.3602,-0.45341,3.02952,-7.71696,-0.0975134,-0.042287,-0.0630871,0,0,2.9575,0.1925,-0.21,-0.085156,-0.022204,-1.07384,-0.07224,0.12824,0.4851
1.11572,0,0,13.8843,13.8843,16.1157,16.1157,-0.371908,2.54778,-7.26877,-0.425752,-0.0760418,0.161836,0,0,2.5375,0.56,0.4375,-0.423218,-0.05734,-0.851072,-0.07028,0.13048,0.4781
1.11435,0,0,13.8856,13.8856,16.1144,16.1144,-0.37145,2.54863,-7.26507,0.477844,-0.0765223,-0.151437,1,0,3.6225,0.5775,1.2425,0.484218,-0.057828,-1.16193,-0.07028,0.13048,0.4781
0.84566,0,0,14.1543,14.1543,15.8457,15.8457,-0.281887,2.32201,-7.04227,-0.220635,-0.0923035,-0.0275741,0,0,3.8325,-0.035,1.3475,-0.221186,-0.075152,-1.0392,-0.07028,0.13048,0.4781
0.581836,0,0,14.4182,14.4182,15.5818,15.5818,-0.193945,2.09945,-6.82045,-0.216753,-0.0907704,-0.0274179,0,0,3.8325,-0.035,1.3475,-0.221186,-0.075152,-1.0392,-0.07028,0.13048,0.4781
0.573611,0,0,14.4264,14.4264,15.5736,15.5736,-0.191204,2.10683,-6.81668,0.0543953,0.0426398,0.196098,1,0,4.9175,4.41,1.295,0.05124,0.058072,-0.8174,-0.07028,0.13048,0.4781
0.567057,0,0,14.4329,14.4329,15.5671,15.5671,-0.189019,2.10731,-6.81364,0.0247444,-0.299643,-0.0656596,1,0,4.62,0.3675,0.8575,0.021472,-0.283894,-1.07714,-0.07028,0.13048,0.4781
0.788528,0,0,14.2115,14.2115,15.7885,15.7885,-0.262843,1.99674,-6.71704,-0.111335,0.0852335,-0.0903082,0,0,4.095,0.2625,-0.1225,-0.11712,0.10187,-1.10166,-0.07028,0.13048,0.4781
0.789134,0,0,14.2109,14.2109,15.7891,15.7891,-0.263045,1.99652,-6.71693,0.292852,-0.0452014,-0.128422,1,0,3.3425,-0.035,-0.8575,0.288774,-0.028426,-1.13948,-0.07028,0.13048,0.4781
0.929119,0,0,14.0709,14.0709,15.9291,15.9291,-0.309706,2.14529,-6.85035,0.129046,0.0430157,0.0723778,0,0,3.535,0.0175,-1.6975,0.12688,0.060512,-0.940132,-0.07252,0.12852,0.47922
1.06977,0,0,13.9302,13.9302,16.0698,16.0698,-0.35659,2.4458,-7.12509,0.268859,0.0432984,0.0850726,0,0,4.165,0.4025,-2.1875,0.272548,0.06161,-0.927322,-0.07252,0.12852,0.47922
1.20697,0,0,13.793,13.793,16.207,16.207,-0.402323,2.73985,-7.4011,0.263732,0.0425026,0.0848351,0,0,4.4625,-0.2625,-3.01,0.272548,0.06161,-0.927322,-0.07252,0.12852,0.47922
1.49203,0,0,13.508,13.508,16.492,16.492,-0.497343,2.63553,-7.32804,-0.100607,0.103252,-0.0243937,0,0,4.7775,-0.2625,-3.465,-0.09516,0.123952,-1.03578,-0.07252,0.12852,0.47922
1.77806,0,0,13.2219,13.2219,16.7781,16.7781,-0.592686,2.53384,-7.25503,-0.0988341,0.101589,-0.0243295,0,0,3.71,0.1925,-3.6575,-0.09516,0.123952,-1.03578,-0.07252,0.12852,0.47922
1.70734,0,0,13.2927,13.2927,16.7073,16.7073,-0.569113,2.79401,-7.49136,0.243836,-0.0268415,0.0422247,0,0,3.9725,0.175,-3.4475,0.253516,-0.004758,-0.969534,-0.07252,0.12852,0.47922
1.63722,0,0,13.3628,13.3628,16.6372,16.6372,-0.545741,3.04869,-7.72583,0.239397,-0.0264319,0.0420021,0,0,4.06,-0.3325,-2.765,0.253516,-0.004758,-0.969534,-0.07252,0.12852,0.47922
0.995758,0,0,14.0042,14.0042,15.9958,15.9958,-0.331919,2.3411,-7.05341,-0.728292,-0.234721,0.196051,0,0,3.22,-0.2275,-2.3275,-0.730658,-0.21655,-0.817278,-0.07252,0.12852,0.47922
0.362395,0,0,14.6376,14.6376,15.3624,15.3624,-0.120798,1.63952,-6.38427,-0.716055,-0.23104,0.196491,0,0,3.3425,0.245,-1.3475,-0.730658,-0.21655,-0.817278,-0.07742,0.12908,0.48286
0.365485,0,0,14.6345,14.6345,15.3655,15.3655,-0.121828,1.64009,-6.38363,-0.0601634,-0.0312587,0.106984,1,0,2.87,0.42,-0.5425,-0.07198,-0.016958,-0.906094,-0.07742,0.12908,0.48286
0.369558,0,0,14.6304,14.6304,15.3696,15.3696,-0.123186,1.64149,-6.38134,-0.0601878,-0.0312824,0.106983,1,0,2.66,0.91,0.42,-0.07198,-0.016958,-0.906094,-0.07742,0.12908,0.48286
0.21059,0,0,14.7894,14.7894,15.2106,15.2106,-0.0701966,1.87346,-6.56316,0.197081,-0.0539282,0.100836,0,0,2.8875,0.105,0.6475,0.190442,-0.040504,-0.912072,-0.07742,0.12908,0.48286
0.0537489,0,0,14.9463,14.9463,15.0537,15.0537,-0.0179163,2.10107,-6.74342,0.193111,-0.0530162,0.100699,0,0,2.9575,0.035,1.1025,0.190442,-0.040504,-0.912072,-0.07742,0.12908,0.48286
0.036215,0,0,14.9638,14.9638,15.0362,15.0362,-0.0120717,1.82866,-6.48564,-0.239486,-0.00296445,0.082174,0,0,3.6575,-0.9625,1.33,-0.248758,0.009394,-0.930616,-0.07742,0.12908,0.48286
0.0162425,0,0,14.9838,14.9838,15.0162,15.0162,-0.00541417,1.5621,-6.22787,-0.234835,-0.00284833,0.0823116,0,0,4.2525,-0.385,1.5225,-0.248758,0.009394,-0.930616,-0.07742,0.12908,0.48286
0.0142236,0,0,14.9858,14.9858,15.0142,15.0142,-0.00474119,1.56191,-6.22426,0.0416692,0.256561,0.232555,1,0,3.78,-0.0175,1.19,0.028914,0.268522,-0.781532,-0.07742,0.12908,0.48286
0.0149047,0,0,14.9851,14.9851,15.0149,15.0149,-0.00496824,1.56175,-6.22275,0.0416719,0.256557,0.232555,1,0,3.3075,0,-0.035,0.028914,0.268522,-0.781532,-0.07336,0.12894,0.4816
0.0191811,0,0,14.9808,14.9808,15.0192,15.0192,-0.00639369,1.5619,-6.22168,-0.389362,0.143076,-0.049612,1,0,2.6425,0.175,-0.2975,-0.403942,0.155184,-1.06152,-0.07336,0.12894,0.4816
0.0202605,0,0,14.9797,14.9797,15.0203,15.0203,-0.00675349,1.56279,-6.22275,-0.389377,0.14307,-0.0496124,1,0,3.2725,0.6125,-1.54,-0.403942,0.155184,-1.06152,-0.07336,0.12894,0.4816
0.0512596,0,0,14.9487,14.9487,15.0513,15.0513,-0.0170865,1.49949,-6.1506,-0.05686,0.00989345,0.0973405,0,0,3.395,0.7,-1.925,-0.071126,0.022326,-0.915732,-0.07336,0.12894,0.4816
0.0796387,0,0,14.9204,14.9204,15.0796,15.0796,-0.0265462,1.43658,-6.07991,-0.0557624,0.00972839,0.0973686,0,0,3.815,0.245,-2.73,-0.071126,0.022326,-0.915732,-0.07336,0.12894,0.4816
0.0774314,0,0,14.9226,14.9226,15.0774,15.0774,-0.0258105,1.43633,-6.08344,-0.197532,-0.173571,0.142122,1,0,3.92,-0.0525,-2.975,-0.2135,-0.160796,-0.871324,-0.07336,0.12894,0.4816
0.0776057,0,0,14.9224,14.9224,15.0776,15.0776,-0.0258686,1.43692,-6.0875,-0.197542,-0.173572,0.142122,1,0,3.4825,0.4375,-3.29,-0.2135,-0.160796,-0.871324,-0.07336,0.12894,0.4816
0.0781478,0,0,14.9219,14.9219,15.0781,15.0781,-0.0260493,1.43634,-6.09148,0.250993,0.0140115,-0.140414,1,0,3.4125,-0.245,-3.2375,0.236924,0.026596,-1.15168,-0.07336,0.12894,0.4816
0.0820914,0,0,14.9179,14.9179,15.0821,15.0821,-0.0273638,1.43618,-6.09462,0.250996,0.0139886,-0.140414,1,0,2.765,0,-2.7475,0.236924,0.026596,-1.15168,-0.07336,0.12894,0.4816
0.0828996,0,0,14.9171,14.9171,15.0829,15.0829,-0.0276332,1.4351,-6.09715,0.0668424,0.0658877,-0.384589,1,0,3.3425,-0.5425,-2.3975,0.051972,0.078446,-1.39397,-0.07462,0.12754,0.48048
0.0903103,0,0,14.9097,14.9097,15.0903,15.0903,-0.0301034,1.43521,-6.09783,0.0668405,0.0658446,-0.384589,1,0,2.0825,0.1575,-1.3125,0.051972,0.078446,-1.39397,-0.07462,0.12754,0.48048
1.20883,0,0,13.7912,13.7912,16.2088,16.2088,-0.402943,1.37174,-6.07347,-0.056089,0.375403,0.0947898,0,0,2.9225,-0.175,-0.77,-0.07259,0.394182,-0.918294,-0.07462,0.12754,0.48048
2.31144,0,0,12.6886,12.6886,17.3114,17.3114,-0.77048,1.31036,-6.04704,-0.0550179,0.36899,0.0947492,0,0,2.625,0.4375,-0.0175,-0.07259,0.394182,-0.918294,-0.07462,0.12754,0.48048
2.31623,0,0,12.6838,12.6838,17.3162,17.3162,-0.772077,1.31086,-6.04509,-0.424586,0.0296944,-0.0911495,1,0,2.5375,0.3675,0.2275,-0.443714,0.055266,-1.10276,-0.07462,0.12754,0.48048
2.319,0,0,12.681,12.681,17.319,17.319,-0.773,1.31017,-6.04231,-0.424574,0.0296783,-0.0911495,1,0,2.905,-0.3325,0.7,-0.443714,0.055266,-1.10276,-0.07462,0.12754,0.48048
1.79364,0,0,13.2064,13.2064,16.7936,16.7936,-0.597881,1.28131,-5.96567,-0.029971,-0.175737,0.0486909,0,0,2.415,0.1575,1.1725,-0.047946,-0.152988,-0.964044,-0.07462,0.12754,0.48048
1.26873,0,0,13.7313,13.7313,16.2687,16.2687,-0.42291,1.2522,-5.88896,-0.0294629,-0.172684,0.0487293,0,0,3.955,-0.2625,1.4875,-0.047946,-0.152988,-0.964044,-0.07462,0.12754,0.48048
1.27031,0,0,13.7297,13.7297,16.2703,16.2703,-0.423436,1.25129,-5.88501,0.295649,0.0367543,-0.276961,1,0,3.115,-0.455,1.3825,0.278526,0.056242,-1.28722,-0.0658,0.13062,0.4795
1.27386,0,0,13.7261,13.7261,16.2739,16.2739,-0.424621,1.25163,-5.88272,0.295643,0.0367336,-0.276961,1,0,2.765,0.28,0.42,0.278526,0.056242,-1.28722,-0.0658,0.13062,0.4795
1.27664,0,0,13.7234,13.7234,16.2766,16.2766,-0.425545,1.25152,-5.8813,-0.080961,0.021818,0.107253,1,0,2.9225,0.0175,-0.0875,-0.099674,0.041358,-0.905972,-0.0658,0.13062,0.4795
1.2824,0,0,13.7176,13.7176,16.2824,16.2824,-0.427466,1.25148,-5.88119,-0.0809604,0.0217845,0.107253,1,0,2.38,0.07,-0.8575,-0.099674,0.041358,-0.905972,-0.0658,0.13062,0.4795
1.44069,0,0,13.5593,13.5593,16.4407,16.4407,-0.480231,1.32075,-5.9368,0.0717533,0.0572578,-0.0527379,0,0,3.465,0.105,-1.4175,0.0549,0.077714,-1.06469,-0.0658,0.13062,0.4795
1.5962,0,0,13.4038,13.4038,16.5962,16.5962,-0.532067,1.38969,-5.9945,0.0705504,0.0563537,-0.0527744,0,0,3.5175,0.6475,-2.625,0.0549,0.077714,-1.06469,-0.0658,0.13062,0.4795
1.72173,0,0,13.2783,13.2783,16.7217,16.7217,-0.57391,1.4637,-6.05763,0.0690161,0.0417015,0.0197261,0,0,3.5525,0.4725,-2.94,0.054656,0.063806,-0.992714,-0.0658,0.13062,0.4795
1.84472,0,0,13.1553,13.1553,16.8447,16.8447,-0.614908,1.53468,-6.12118,0.0677777,0.0409865,0.0196862,0,0,3.64,-0.525,-3.2025,0.054656,0.063806,-0.992714,-0.0658,0.13062,0.4795
1.8439,0,0,13.1561,13.1561,16.8439,16.8439,-0.614632,1.53445,-6.12534,0.057091,0.313578,-0.194367,1,0,3.675,-0.0175,-3.3425,0.04392,0.33611,-1.20512,-0.07784,0.13342,0.47978
1.84332,0,0,13.1567,13.1567,16.8433,16.8433,-0.614441,1.53398,-6.12919,0.13813,0.0760451,0.176692,1,0,3.6225,-0.1575,-3.1675,0.125294,0.09882,-0.83692,-0.07784,0.13342,0.47978
1.84333,0,0,13.1567,13.1567,16.8433,16.8433,-0.614442,1.53314,-6.13202,0.138145,0.076045,0.176692,1,0,3.5,-0.385,-2.5725,0.125294,0.09882,-0.83692,-0.07784,0.13342,0.47978
1.84551,0,0,13.1545,13.1545,16.8455,16.8455,-0.61517,1.53197,-6.13403,0.0430418,0.35497,0.310215,1,0,3.08,-0.5775,-2.1,0.029768,0.377468,-0.704428,-0.07784,0.13342,0.47978
1.84633,0,0,13.1537,13.1537,16.8463,16.8463,-0.615443,1.53161,-6.13419,0.0430483,0.354965,0.310215,1,0,3.3075,-0.1225,-1.015,0.029768,0.377468,-0.704428,-0.07784,0.13342,0.47978
1.8478,0,0,13.1522,13.1522,16.8478,16.8478,-0.615933,1.53206,-6.13317,-0.0731,0.125847,-0.161785,1,0,3.1675,0.35,-0.315,-0.086864,0.148596,-1.17279,-0.07784,0.13342,0.47978
1.85109,0,0,13.1489,13.1489,16.8511,16.8511,-0.61703,1.53153,-6.13147,-0.0730908,0.125828,-0.161785,1,0,2.8175,-0.2275,0.07,-0.086864,0.148596,-1.17279,-0.07784,0.13342,0.47978
1.85817,0,0,13.1418,13.1418,16.8582,16.8582,-0.619389,1.53176,-6.12912,-0.270388,-0.161578,0.266444,1,0,2.1,0.21,0.455,-0.284992,-0.13847,-0.74786,-0.07784,0.13342,0.47978
1.8587,0,0,13.1413,13.1413,16.8587,16.8587,-0.619567,1.53206,-6.12575,-0.270393,-0.161581,0.266444,1,0,3.3075,0.245,1.05,-0.284992,-0.13847,-0.74786,-0.06482,0.13006,0.4788
1.86119,0,0,13.1388,13.1388,16.8612,16.8612,-0.620397,1.53254,-6.12223,0.0110813,-0.121538,-0.218957,1,0,2.94,0.35,1.1375,-0.002318,-0.098454,-1.22952,-0.06482,0.13006,0.4788
1.86316,0,0,13.1368,13.1368,16.8632,16.8632,-0.621052,1.53227,-6.11918,0.011086,-0.121549,-0.218957,1,0,3.045,-0.0875,0.8575,-0.002318,-0.098454,-1.22952,-0.06482,0.13006,0.4788
1.12493,0,0,13.8751,13.8751,16.1249,16.1249,-0.374977,1.4414,-5.98724,-0.0884048,-0.250741,0.0470592,0,0,2.8175,0.105,0.5775,-0.103822,-0.2318,-0.96563,-0.06482,0.13006,0.4788
0.394809,0,0,14.6052,14.6052,15.3948,15.3948,-0.131603,1.35199,-5.85741,-0.0868446,-0.246495,0.047116,0,0,3.57,0.0525,0.035,-0.103822,-0.2318,-0.96563,-0.06482,0.13006,0.4788
0.153558,0,0,14.8464,14.8464,15.1536,15.1536,-0.051186,1.16703,-5.66071,-0.19259,-0.0895021,-0.0777264,0,0,3.43,0.28,-0.4725,-0.213256,-0.076372,-1.08958,-0.06482,0.13006,0.4788
-0.090404,0,0,15.0904,15.0904,14.9096,14.9096,0.0301347,0.984811,-5.46687,-0.18941,-0.0880831,-0.0776665,0,0,4.7425,-0.035,-1.68,-0.213256,-0.076372,-1.08958,-0.06482,0.13006,0.4788
0.55773,0,0,14.4423,14.4423,15.5577,15.5577,-0.18591,1.25828,-5.72774,0.288602,0.242652,-0.0176432,0,0,4.445,0.1925,-2.1,0.271572,0.257786,-1.02992,-0.06482,0.13006,0.4788
1.19804,0,0,13.802,13.802,16.198,16.198,-0.399346,1.53161,-5.99043,0.283833,0.238929,-0.0177783,0,0,4.2875,0.49,-2.45,0.271572,0.257786,-1.02992,-0.07364,0.13216,0.47152
1.22601,0,0,13.774,13.774,16.226,16.226,-0.40867,1.29684,-5.7701,-0.238468,0.014785,-0.061448,0,0,4.585,-0.35,-2.695,-0.257054,0.034038,-1.07336,-0.07364,0.13216,0.47152
1.25833,0,0,13.7417,13.7417,16.2583,16.2583,-0.419444,1.06652,-5.55095,-0.234449,0.0145964,-0.0613665,0,0,3.745,-0.175,-3.29,-0.257054,0.034038,-1.07336,-0.07364,0.13216,0.47152
1.2575,0,0,13.7425,13.7425,16.2575,16.2575,-0.419167,1.06642,-5.55522,0.00536505,0.057712,0.314118,1,0,3.6575,0.0525,-3.4125,-0.016226,0.077104,-0.700768,-0.07364,0.13216,0.47152
1.2565,0,0,13.7435,13.7435,16.2565,16.2565,-0.418834,1.06675,-5.55815,0.00535929,0.0577178,0.314118,1,0,3.675,0.2975,-2.625,-0.016226,0.077104,-0.700768,-0.07364,0.13216,0.47152
1.2553,0,0,13.7447,13.7447,16.2553,16.2553,-0.418434,1.06535,-5.5608,-0.115738,-0.179201,-0.323246,1,0,3.71,-0.7175,-2.4675,-0.13786,-0.159576,-1.33322,-0.07364,0.13216,0.47152
1.2541,0,0,13.7459,13.7459,16.2541,16.2541,-0.418032,1.0654,-5.56169,-0.115738,-0.179194,-0.323246,1,0,3.6925,0.1225,-1.435,-0.13786,-0.159576,-1.33322,-0.07364,0.13216,0.47152
1.14337,0,0,13.8566,13.8566,16.1434,16.1434,-0.381123,1.63679,-6.06086,0.531044,-0.045064,0.185284,0,0,4.1125,0.07,-0.945,0.521672,-0.02623,-0.82838,-0.07364,0.13216,0.47152
1.04214,0,0,13.9579,13.9579,16.0421,16.0421,-0.34738,2.20004,-6.55678,0.521219,-0.0444733,0.184959,0,0,2.7475,0.49,-0.14,0.521672,-0.02623,-0.82838,-0.07364,0.13216,0.47152
1.08703,0,0,13.913,13.913,16.087,16.087,-0.362342,2.1523,-6.50699,-0.045287,0.0158404,0.0106477,0,0,3.5525,-0.0875,0.2975,-0.048068,0.034282,-1.00138,-0.06762,0.12768,0.47432
1.35471,0,0,13.6453,13.6453,16.3547,16.3547,-0.451571,2.09519,-6.45805,-0.0560751,0.099162,-0.0586694,0,0,3.5525,0.07,0.665,-0.059902,0.119072,-1.07018,-0.06762,0.12768,0.47432
1.62093,0,0,13.3791,13.3791,16.6209,16.6209,-0.540309,2.03922,-6.40866,-0.0550989,0.097614,-0.0586475,0,0,2.9925,0.14,0.84,-0.059902,0.119072,-1.07018,-0.06762,0.12768,0.47432
1.35452,0,0,13.6455,13.6455,16.3545,16.3545,-0.451506,1.84185,-6.20382,-0.176058,-0.0825626,0.0971353,0,0,4.0425,-0.3325,0.735,-0.18483,-0.062464,-0.915732,-0.06762,0.12768,0.47432
1.09576,0,0,13.9042,13.9042,16.0958,16.0958,-0.365253,1.64871,-5.99988,-0.172688,-0.0810587,0.0972487,0,0,3.4825,0.105,0.7175,-0.18483,-0.062464,-0.915732,-0.06762,0.12768,0.47432
1.0943,0,0,13.9057,13.9057,16.0943,16.0943,-0.364768,1.64953,-5.99757,-0.206354,0.0537777,0.135362,1,0,3.6925,0.56,0.4375,-0.218624,0.072224,-0.877912,-0.06762,0.12768,0.47432
1.06658,0,0,13.9334,13.9334,16.0666,16.0666,-0.355526,1.64902,-5.99683,-0.206345,0.0539389,0.135364,1,0,8.6275,-0.21,-0.49,-0.218624,0.072224,-0.877912,-0.06762,0.12768,0.47432
0.76623,0,0,14.2338,14.2338,15.7662,15.7662,-0.25541,1.79815,-6.10545,0.136194,-0.100392,0.048493,0,0,4.34,0.105,-1.085,0.127978,-0.083692,-0.964044,-0.06762,0.12768,0.47432
0.469459,0,0,14.5305,14.5305,15.4695,15.4695,-0.156486,1.94544,-6.22273,0.133625,-0.0986662,0.0484153,0,0,4.6025,0.77,-1.9425,0.127978,-0.083692,-0.964044,-0.07042,0.13384,0.47684
0.464565,0,0,14.5354,14.5354,15.4646,15.4646,-0.154855,1.94548,-6.2247,-0.131579,-0.0643201,0.11075,1,0,4.41,0.1225,-2.065,-0.138348,-0.04941,-0.90219,-0.07042,0.13384,0.47684
0.462168,0,0,14.5378,14.5378,15.4622,15.4622,-0.154056,1.94493,-6.2282,-0.13157,-0.0643062,0.110751,1,0,3.9725,-0.2275,-2.9575,-0.138348,-0.04941,-0.90219,-0.07042,0.13384,0.47684
-0.0984798,0,0,15.0985,15.0985,14.9015,14.9015,0.0328266,1.93134,-6.19227,-0.0106971,-0.202835,-0.0293992,0,0,3.325,-0.2275,-3.185,-0.017202,-0.191052,-1.04127,-0.07042,0.13384,0.47684
-0.652707,0,0,15.6527,15.6527,14.3473,14.3473,0.217569,1.91908,-6.15676,-0.0104834,-0.199613,-0.0293991,0,0,3.85,0.4025,-3.255,-0.017202,-0.191052,-1.04127,-0.07042,0.13384,0.47684
-0.652623,0,0,15.6526,15.6526,14.3474,14.3474,0.217541,1.91846,-6.15984,-0.036349,0.103749,-0.114971,1,0,3.5,-0.28,-2.7125,-0.043188,0.111996,-1.12618,-0.07042,0.13384,0.47684
-0.654103,0,0,15.6541,15.6541,14.3459,14.3459,0.218034,1.91754,-6.16226,-0.0363329,0.103758,-0.11497,1,0,3.78,-0.455,-2.3275,-0.043188,0.111996,-1.12618,-0.07042,0.13384,0.47684
-0.274149,0,0,15.2741,15.2741,14.7259,14.7259,0.0913831,1.81476,-6.08554,-0.0958903,0.130371,0.0305421,0,0,4.13,-0.63,-1.9425,-0.104798,0.140788,-0.981856,-0.07042,0.13384,0.47684
0.102588,0,0,14.8974,14.8974,15.1026,15.1026,-0.0341961,1.71504,-6.00127,-0.0941507,0.12818,0.0305968,0,0,3.535,0.07,-0.8575,-0.104798,0.140788,-0.981856,-0.0644,0.12866,0.48006
0.103675,0,0,14.8963,14.8963,15.1037,15.1037,-0.0345583,1.71507,-6.00023,-0.061593,0.226852,-0.260914,1,0,3.2375,0.105,-0.315,-0.072102,0.239364,-1.27112,-0.0644,0.12866,0.48006
0.103094,0,0,14.8969,14.8969,15.1031,15.1031,-0.0343647,1.71437,-5.99836,-0.0615809,0.226856,-0.260914,1,0,3.535,-0.315,0.175,-0.072102,0.239364,-1.27112,-0.0644,0.12866,0.48006
-0.190578,0,0,15.1906,15.1906,14.8094,14.8094,0.063526,1.37209,-5.65697,-0.321784,-0.0978813,0.0814124,0,0,2.7825,0.665,0.35,-0.339404,-0.086742,-0.931592,-0.0644,0.12866,0.48006
-0.478459,0,0,15.4785,15.4785,14.5215,14.5215,0.159486,1.03405,-5.31674,-0.315886,-0.0962066,0.081533,0,0,2.6775,-0.245,0.5425,-0.339404,-0.086742,-0.931592,-0.0644,0.12866,0.48006
-0.474359,0,0,15.4744,15.4744,14.5256,14.5256,0.15812,1.0346,-5.31361,0.306233,-0.264399,-0.030965,1,0,2.66,0.42,0.91,0.285358,-0.254736,-1.04322,-0.0644,0.12866,0.48006
-0.475884,0,0,15.4759,15.4759,14.5241,14.5241,0.158628,1.03462,-5.31036,0.306233,-0.26439,-0.030965,1,0,3.71,0.105,0.98,0.285358,-0.254736,-1.04322,-0.0644,0.12866,0.48006
0.382097,0,0,14.6179,14.6179,15.3821,15.3821,-0.127366,1.30152,-5.56786,0.236095,0.270664,0.159389,0,0,3.36,0.21,0.9975,0.2196,0.284748,-0.854244,-0.0644,0.12866,0.48006
1.22794,0,0,13.7721,13.7721,16.2279,16.2279,-0.409313,1.56405,-5.82865,0.231514,0.265745,0.159251,0,0,3.29,-0.385,0,0.2196,0.284748,-0.854244,-0.06734,0.12894,0.48216
0.948533,0,0,14.0515,14.0515,15.9485,15.9485,-0.316178,1.6304,-5.86288,0.0665937,-0.0996207,-0.0288822,0,0,3.92,-0.0525,-0.3675,0.055144,-0.081862,-1.0409,-0.06734,0.12894,0.48216
0.675333,0,0,14.3247,14.3247,15.6753,15.6753,-0.225111,1.69688,-5.89832,0.0654339,-0.0980319,-0.0289084,0,0,3.64,0.735,-1.1725,0.055144,-0.081862,-1.0409,-0.06734,0.12894,0.48216
0.799377,0,0,14.2006,14.2006,15.7994,15.7994,-0.266459,1.8668,-6.04958,0.1582,0.0419372,0.0418146,0,0,4.445,0.1575,-1.645,0.15128,0.058682,-0.970632,-0.06734,0.12894,0.48216
0.926585,0,0,14.0734,14.0734,15.9266,15.9266,-0.308862,2.0335,-6.20264,0.155293,0.0411981,0.0417119,0,0,3.5175,0.035,-2.7125,0.15128,0.058682,-0.970632,-0.06734,0.12894,0.48216
0.9277,0,0,14.0723,14.0723,15.9277,15.9277,-0.309233,2.03356,-6.20643,-0.130078,0.0885768,-0.155006,1,0,3.325,0.14,-3.1325,-0.135298,0.106018,-1.16583,-0.06734,0.12894,0.48216
0.930205,0,0,14.0698,14.0698,15.9302,15.9302,-0.310068,2.03333,-6.21008,-0.130074,0.0885622,-0.155006,1,0,3.0625,-0.035,-3.045,-0.135298,0.106018,-1.16583,-0.06734,0.12894,0.48216
0.912902,0,0,14.0871,14.0871,15.9129,15.9129,-0.304301,2.24459,-6.3995,0.200084,-0.0089157,0.0337061,0,0,3.1675,0.5775,-3.0275,0.199958,0.00854,-0.97844,-0.06734,0.12894,0.48216
0.895949,0,0,14.1041,14.1041,15.8959,15.8959,-0.29865,2.45028,-6.5923,0.196497,-0.00881638,0.0335596,0,0,3.2025,-0.805,-2.9925,0.199958,0.00854,-0.97844,-0.0686,0.13216,0.47698
0.0029318,0,0,14.9971,14.9971,15.0029,15.0029,-0.000977268,2.47865,-6.58122,0.0357624,-0.338131,-0.0391107,0,0,3.4475,0.0525,-2.45,0.03904,-0.325618,-1.05054,-0.0686,0.13216,0.47698
-0.879044,0,0,15.879,15.879,14.121,14.121,0.293015,2.50637,-6.56894,0.035279,-0.333005,-0.0391448,0,0,3.99,-0.0525,-1.715,0.03904,-0.325618,-1.05054,-0.0686,0.13216,0.47698
-0.874494,0,0,15.8745,15.8745,14.1255,14.1255,0.291498,2.50574,-6.56893,0.125675,-0.0598337,0.280645,1,0,2.6075,-0.28,-0.91,0.129808,-0.052704,-0.73322,-0.0686,0.13216,0.47698
-0.8758,0,0,15.8758,15.8758,14.1242,14.1242,0.291933,2.50636,-6.56783,0.125665,-0.0598261,0.280644,1,0,3.675,0.455,-0.28,0.129808,-0.052704,-0.73322,-0.0686,0.13216,0.47698
-0.872143,0,0,15.8721,15.8721,14.1279,14.1279,0.290714,2.50706,-6.56601,0.26609,0.0374877,-0.319714,1,0,2.73,0.5075,0.14,0.27084,0.04453,-1.32895,-0.0686,0.13216,0.47698
-0.865397,0,0,15.8654,15.8654,14.1346,14.1346,0.288466,2.50677,-6.56348,0.266095,0.0374485,-0.319713,1,0,2.135,-0.07,0.56,0.27084,0.04453,-1.32895,-0.0686,0.13216,0.47698
-0.657856,0,0,15.6579,15.6579,14.3421,14.3421,0.219285,2.75998,-6.8035,0.237626,0.066651,0.0462298,0,0,2.38,-0.1225,0.7525,0.246684,0.074908,-0.96563,-0.0686,0.13216,0.47698
-0.457136,0,0,15.4571,15.4571,14.5429,14.5429,0.152379,3.00906,-7.04303,0.233284,0.065484,0.0460148,0,0,3.045,0.07,1.05,0.246684,0.074908,-0.96563,-0.0686,0.13216,0.47698
-0.623552,0,0,15.6236,15.6236,14.3764,14.3764,0.207851,2.84407,-6.89913,-0.161341,-0.0589728,-0.0394134,0,0,3.2025,-0.1925,1.0675,-0.1525,-0.050386,-1.05054,-0.06538,0.13594,0.48118
