pid_x,pid_y,pid_z,front_left_speed,front_right_speed,back_left_speed,back_right_speed,orientation_x,orientation_y,orientation_z,acceleration_x,acceleration_y,acceleration_z,accel_rejected,mag_rejected,gyro_x,gyro_y,gyro_z,accel_x,accel_y,accel_z,mag_x,mag_y,mag_z
-0.197609,0,0,15.1976,15.1976,14.8024,14.8024,0.493838,-0.0544158,-0.261002,0.0396261,-0.425487,0.0916209,0,0,3.535,-0.035,-0.4375,-0.001464,-0.42151,-0.92171,-0.05754,0.25858,0.33348
-0.392025,0,0,15.392,15.392,14.608,14.608,0.97951,-0.111305,-0.515176,0.0360025,-0.419331,0.0884368,0,0,3.3775,-0.07,-0.42,-0.0061,-0.423828,-0.92476,-0.05754,0.25858,0.33348
-0.584363,0,0,15.5844,15.5844,14.4156,14.4156,1.45981,-0.158989,-0.77268,0.0414512,-0.412294,0.0920678,0,0,3.605,-0.0875,-0.42,-0.001464,-0.42517,-0.920978,-0.05754,0.25858,0.33348
-0.773456,0,0,15.7735,15.7735,14.2265,14.2265,1.93182,-0.20258,-1.02834,0.042212,-0.404059,0.0918216,0,0,3.7275,0.2275,-0.2975,-0.001464,-0.42517,-0.920978,-0.05754,0.25858,0.33348
-0.957841,0,0,15.9578,15.9578,14.0422,14.0422,2.39188,-0.248403,-1.27763,0.0383953,-0.394326,0.0875812,0,0,3.64,0.0875,-0.3675,-0.0061,-0.423462,-0.924882,-0.05754,0.25858,0.33348
-1.13848,0,0,16.1385,16.1385,13.8615,13.8615,2.84241,-0.290364,-1.52553,0.0391277,-0.384029,0.0895548,0,0,3.6575,0.1225,-0.385,-0.0061,-0.421022,-0.922564,-0.05754,0.25858,0.33348
-1.31582,0,0,16.3158,16.3158,13.6842,13.6842,3.28454,-0.332221,-1.77922,0.0398582,-0.376323,0.0891384,0,0,3.4825,0.1575,-0.3675,-0.0061,-0.421022,-0.922564,-0.05558,0.2611,0.32886
-1.4903,0,0,16.4903,16.4903,13.5097,13.5097,3.71934,-0.371927,-2.03031,0.0400652,-0.371924,0.0828921,0,0,3.6575,0.0875,-0.3675,-0.006588,-0.424194,-0.928298,-0.05558,0.2611,0.32886
-1.66083,0,0,16.6608,16.6608,13.3392,13.3392,4.14411,-0.406205,-2.28137,0.0421213,-0.36233,0.0822567,0,0,3.7275,-0.0175,-0.35,-0.005124,-0.421998,-0.92842,-0.05558,0.2611,0.32886
-1.8283,0,0,16.8283,16.8283,13.1717,13.1717,4.56107,-0.437541,-2.53058,0.0426682,-0.355075,0.0817004,0,0,3.6925,-0.0525,-0.3675,-0.005124,-0.421998,-0.92842,-0.05558,0.2611,0.32886
-1.99157,0,0,16.9916,16.9916,13.0084,13.0084,4.96737,-0.47119,-2.77347,0.0387605,-0.346054,0.0786479,0,0,3.675,0.07,-0.455,-0.009638,-0.420046,-0.93086,-0.05558,0.2611,0.32886
-2.15396,0,0,17.154,17.154,12.846,12.846,5.37134,-0.497803,-3.01808,0.0431125,-0.343063,0.0810824,0,0,3.6925,0.07,-0.49,-0.005734,-0.424072,-0.92781,-0.05558,0.2611,0.32886
-2.3133,0,0,17.3133,17.3133,12.6867,12.6867,5.76753,-0.521924,-3.26051,0.0435335,-0.336182,0.0804076,0,0,3.5175,-0.035,-0.35,-0.005734,-0.424072,-0.92781,-0.05558,0.2611,0.32886
-2.46997,0,0,17.47,17.47,12.53,12.53,6.15691,-0.541415,-3.50345,0.045453,-0.328813,0.0827723,0,0,3.4475,0.035,-0.4025,-0.004148,-0.423462,-0.92476,-0.05726,0.26138,0.32662
-2.62209,0,0,17.6221,17.6221,12.3779,12.3779,6.53475,-0.560779,-3.74264,0.0437257,-0.318962,0.0792124,0,0,3.57,-0.1925,-0.4025,-0.006222,-0.420168,-0.927566,-0.05726,0.26138,0.32662
-2.77272,0,0,17.7727,17.7727,12.2273,12.2273,6.90872,-0.578446,-3.97897,0.0436695,-0.314068,0.0816421,0,0,3.6925,0.0175,-0.3675,-0.006588,-0.421754,-0.924394,-0.05726,0.26138,0.32662
-2.92053,0,0,17.9205,17.9205,12.0795,12.0795,7.27553,-0.593783,-4.21341,0.0439372,-0.307716,0.080849,0,0,3.605,0.0175,-0.4725,-0.006588,-0.421754,-0.924394,-0.05726,0.26138,0.32662
-3.06578,0,0,18.0658,18.0658,11.9342,11.9342,7.6358,-0.608064,-4.44521,0.0439435,-0.302703,0.0781863,0,0,3.6575,-0.35,-0.35,-0.006832,-0.422974,-0.926224,-0.05726,0.26138,0.32662
-3.20988,0,0,18.2099,18.2099,11.7901,11.7901,7.99304,-0.614561,-4.67932,0.0483089,-0.296404,0.0861897,0,0,3.6225,-0.28,-0.455,-0.002562,-0.422852,-0.91744,-0.05726,0.26138,0.32662
-3.35134,0,0,18.3513,18.3513,11.6487,11.6487,8.34355,-0.618975,-4.91122,0.0483859,-0.290349,0.0853198,0,0,3.64,-0.1925,-0.455,-0.002562,-0.422852,-0.91744,-0.05726,0.26138,0.32662
-3.48895,0,0,18.489,18.489,11.511,11.511,8.68434,-0.626355,-5.1369,0.0448701,-0.28691,0.0728807,0,0,3.5875,-0.035,-0.4025,-0.006222,-0.425292,-0.928908,-0.05726,0.26138,0.32662
-3.6239,0,0,18.6239,18.6239,11.3761,11.3761,9.01833,-0.637029,-5.3539,0.0409259,-0.279685,0.0749325,0,0,3.4475,-0.0875,-0.28,-0.01037,-0.423828,-0.92598,-0.05628,0.25956,0.32452
-3.75611,0,0,18.7561,18.7561,11.2439,11.2439,9.34534,-0.635425,-5.57683,0.0480656,-0.271731,0.0788172,0,0,3.325,-0.1225,-0.4725,-0.003172,-0.42151,-0.921222,-0.05628,0.25956,0.32452
-3.88733,0,0,18.8873,18.8873,11.1127,11.1127,9.66978,-0.634634,-5.79596,0.0469584,-0.270299,0.0761608,0,0,3.535,-0.105,-0.5425,-0.00427,-0.425658,-0.92293,-0.05628,0.25956,0.32452
-4.01598,0,0,19.016,19.016,10.984,10.984,9.98765,-0.632495,-6.0127,0.046921,-0.264832,0.0752142,0,0,3.3425,-0.1925,-0.385,-0.00427,-0.425658,-0.92293,-0.05628,0.25956,0.32452
-4.13972,0,0,19.1397,19.1397,10.8603,10.8603,10.2931,-0.629947,-6.22595,0.0451758,-0.257752,0.0649319,0,0,3.325,0.0875,-0.3675,-0.005978,-0.423828,-0.932202,-0.05628,0.25956,0.32452
-4.26128,0,0,19.2613,19.2613,10.7387,10.7387,10.5931,-0.625935,-6.43715,0.0451058,-0.252605,0.0639839,0,0,3.5,0.1225,-0.42,-0.005978,-0.423828,-0.932202,-0.05628,0.25956,0.32452
-4.38217,0,0,19.3822,19.3822,10.6178,10.6178,10.8912,-0.624493,-6.6503,0.0478748,-0.245538,0.0754321,0,0,3.6575,-4.4625,-0.3675,-0.003172,-0.421876,-0.91988,-0.05628,0.25956,0.32452
-4.50073,0,0,19.5007,19.5007,10.4993,10.4993,11.1834,-0.616467,-6.85609,0.0461554,-0.243708,0.0685557,0,0,3.4125,0,-0.2975,-0.004758,-0.425048,-0.925736,-0.056,0.25942,0.32802
-4.61927,0,0,19.6193,19.6193,10.3807,10.3807,11.4755,-0.610198,-7.05751,0.0444667,-0.239687,0.0767768,0,0,3.43,0.0525,-0.245,-0.006344,-0.426024,-0.916586,-0.056,0.25942,0.32802
-4.73554,0,0,19.7355,19.7355,10.2645,10.2645,11.7617,-0.602746,-7.25693,0.0443366,-0.234793,0.075772,0,0,3.3775,0.035,-0.28,-0.006344,-0.426024,-0.916586,-0.056,0.25942,0.32802
-4.84379,0,0,19.8438,19.8438,10.1562,10.1562,12.0278,-0.578058,-7.46584,0.0536246,-0.224874,0.0569915,0,0,3.3425,-0.0175,-0.4025,0.003416,-0.420656,-0.934276,-0.056,0.25942,0.32802
-4.98042,0,0,19.9804,19.9804,10.0196,10.0196,12.3648,-0.688863,-7.57613,-0.0251081,-0.23513,0.161833,0,0,3.5875,0.0525,-0.3675,-0.077592,-0.436638,-0.82899,-0.056,0.25942,0.32802
-5.1143,0,0,20.1143,20.1143,9.8857,9.8857,12.6947,-0.795519,-7.68628,-0.0232468,-0.229514,0.16056,0,0,3.3775,-0.1575,-0.4025,-0.077592,-0.436638,-0.82899,-0.056,0.25942,0.32802
-5.27149,0,0,20.2715,20.2715,9.72851,9.72851,13.0828,-1.01633,-7.71197,-0.101518,-0.338824,0.0736639,0,0,3.85,-0.1225,-0.49,-0.160064,-0.552416,-0.913658,-0.056,0.25942,0.32802
-5.42583,0,0,20.4258,20.4258,9.57417,9.57417,13.4636,-1.23229,-7.74975,-0.0977493,-0.332374,0.0720663,0,0,3.85,-0.1225,-0.49,-0.160064,-0.552416,-0.913658,-0.05362,0.26502,0.3318
-5.62884,0,0,20.6288,20.6288,9.37116,9.37116,13.9659,-1.27345,-7.90203,0.0465651,-0.545157,0.00837587,0,0,3.64,-0.35,-0.98,-0.01586,-0.77348,-0.97478,-0.05362,0.26502,0.3318
-5.64993,0,0,20.6499,20.6499,9.35007,9.35007,14.0133,-1.35911,-8.02179,-0.0498578,-0.0365584,0.00949476,0,0,3.64,-0.2975,-0.945,-0.114192,-0.266204,-0.973438,-0.05362,0.26502,0.3318
-5.6705,0,0,20.6705,20.6705,9.3295,9.3295,14.0595,-1.44104,-8.13988,-0.0484281,-0.0357859,0.0092656,0,0,3.465,0.525,-0.665,-0.114192,-0.266204,-0.973438,-0.05362,0.26502,0.3318
-5.71352,0,0,20.7135,20.7135,9.28648,9.28648,14.1617,-1.36875,-8.36206,0.0663293,-0.140543,-0.129825,0,0,3.4475,0.385,-0.5425,0.002318,-0.372588,-1.11105,-0.05362,0.26502,0.3318
-5.71557,0,0,20.7156,20.7156,9.28443,9.28443,14.1615,-1.36809,-8.36215,0.0663179,-0.140546,-0.129824,1,0,3.4475,0.385,-0.5425,0.002318,-0.372588,-1.11105,-0.05362,0.26502,0.3318
-5.82399,0,0,20.824,20.824,9.17601,9.17601,14.4272,-1.68339,-8.31816,-0.176984,-0.213397,0.0702791,0,0,3.08,0.14,-0.6825,-0.247538,-0.449814,-0.911218,-0.05362,0.26502,0.3318
-5.97156,0,0,20.9716,20.9716,9.02844,9.02844,14.7906,-1.87997,-8.35029,-0.0647034,-0.203504,0.249926,0,0,3.43,0.4725,-0.315,-0.138226,-0.446032,-0.731268,-0.05362,0.26502,0.3318
-5.97384,0,0,20.9738,20.9738,9.02616,9.02616,14.7907,-1.87947,-8.34933,-0.0647121,-0.203501,0.249926,1,0,3.6575,0.455,0.07,-0.138226,-0.446032,-0.731268,-0.05348,0.26446,0.33628
-5.97595,0,0,20.9759,20.9759,9.02405,9.02405,14.7904,-1.8802,-8.34895,0.460483,-0.477925,0.240951,1,0,3.4125,-0.3325,-0.07,0.38918,-0.720166,-0.740174,-0.05348,0.26446,0.33628
-5.97782,0,0,20.9778,20.9778,9.02218,9.02218,14.7896,-1.88176,-8.34816,-0.117154,-0.105453,0.295298,1,0,3.08,-0.735,0.28,-0.19093,-0.348066,-0.68625,-0.05348,0.26446,0.33628
-5.9799,0,0,20.9799,20.9799,9.0201,9.0201,14.7892,-1.88354,-8.3464,-0.117123,-0.105459,0.295298,1,0,3.395,-0.7175,0.8575,-0.19093,-0.348066,-0.68625,-0.05348,0.26446,0.33628
-5.98222,0,0,20.9822,20.9822,9.01778,9.01778,14.7895,-1.8837,-8.34397,0.144682,-0.0766328,0.448122,1,0,3.745,0.2975,0.9975,0.07198,-0.319274,-0.534604,-0.05348,0.26446,0.33628
-5.98475,0,0,20.9848,20.9848,9.01525,9.01525,14.7903,-1.88292,-8.34126,-0.292681,-0.139271,-0.0794532,1,0,4.0425,0.875,1.015,-0.36722,-0.38186,-1.05811,-0.05348,0.26446,0.33628
-5.98758,0,0,20.9876,20.9876,9.01242,9.01242,14.7918,-1.88399,-8.33891,-0.292662,-0.139245,-0.0794605,1,0,4.445,-0.2275,1.085,-0.36722,-0.38186,-1.05811,-0.05348,0.26446,0.33628
-5.99068,0,0,20.9907,20.9907,9.00932,9.00932,14.794,-1.88474,-8.33673,0.239094,-0.360746,-0.169223,1,0,4.83,-0.07,0.945,0.166774,-0.603168,-1.14717,-0.0546,0.27118,0.34888
-5.95485,0,0,20.9548,20.9548,9.04515,9.04515,14.6989,-1.54404,-8.72263,0.216871,0.0633068,-0.0161728,0,0,0.1925,-0.28,0.6475,0.150426,-0.177998,-0.995886,-0.0546,0.27118,0.34888
-6.13051,0,0,21.1305,21.1305,8.86949,8.86949,15.1324,-1.55112,-8.87981,0.0565122,-0.400551,0.0842935,0,0,3.9375,0.07,0.5075,-0.010736,-0.648674,-0.89426,-0.0546,0.27118,0.34888
-6.13173,0,0,21.1317,21.1317,8.86827,8.86827,15.1298,-1.55045,-8.87811,0.0565006,-0.400595,0.0843056,1,0,2.1175,0.665,0.455,-0.010736,-0.648674,-0.89426,-0.0546,0.27118,0.34888
-6.1988,0,0,21.1988,21.1988,8.8012,8.8012,15.2917,-0.843108,-9.49834,0.520503,-0.150983,0.128689,0,0,2.4325,-3.5175,0.4025,0.467626,-0.402112,-0.84973,-0.0546,0.27118,0.34888
-6.24173,0,0,21.2417,21.2417,8.75827,8.75827,15.3933,-1.41862,-9.27532,-0.339292,-0.0273215,0.139464,0,0,3.22,-0.9275,-0.35,-0.405894,-0.280234,-0.838384,-0.0546,0.27118,0.34888
-6.28436,0,0,21.2844,21.2844,8.71564,8.71564,15.494,-1.97843,-9.05693,-0.329525,-0.0257042,0.138716,0,0,4.4625,-0.5775,-1.68,-0.405894,-0.280234,-0.838384,-0.0546,0.27118,0.34888
-6.20582,0,0,21.2058,21.2058,8.79418,8.79418,15.2919,-1.06697,-9.78933,0.775278,0.151879,-0.156984,0,0,5.1275,-0.42,-1.9775,0.719556,-0.099552,-1.13314,-0.0546,0.27118,0.34888
-6.20872,0,0,21.2087,21.2087,8.79128,8.79128,15.2935,-1.06525,-9.7941,0.775248,0.151904,-0.15699,1,0,4.3575,0.2625,-3.3425,0.719556,-0.099552,-1.13314,-0.05432,0.28168,0.3437
-6.21148,0,0,21.2115,21.2115,8.78852,8.78852,15.2946,-1.06353,-9.79808,0.369577,0.0893952,-0.775057,1,0,4.165,0.385,-2.905,0.312198,-0.162016,-1.74643,-0.05432,0.28168,0.3437
-6.21339,0,0,21.2134,21.2134,8.78661,8.78661,15.2936,-1.06412,-9.80289,0.369587,0.0893787,-0.775053,1,0,2.9575,-1.05,-3.01,0.312198,-0.162016,-1.74643,-0.05432,0.28168,0.3437
-6.21479,0,0,21.2148,21.2148,8.78521,8.78521,15.2914,-1.06351,-9.80758,-0.131187,0.0641832,0.688782,1,0,2.2575,-0.35,-3.1325,-0.190686,-0.187148,-0.293898,-0.05432,0.28168,0.3437
-6.21536,0,0,21.2154,21.2154,8.78464,8.78464,15.2871,-1.061,-9.81116,-0.131231,0.0641109,0.688803,1,0,1.1025,0.8925,-2.8,-0.190686,-0.187148,-0.293898,-0.05432,0.28168,0.3437
-6.21495,0,0,21.215,21.215,8.78505,8.78505,15.2804,-1.05947,-9.8142,1.12733,-0.584251,0.548919,1,0,-0.2625,0.42,-2.345,1.07323,-0.834724,-0.432734,-0.05432,0.28168,0.3437
-6.21726,0,0,21.2173,21.2173,8.78274,8.78274,15.2804,-1.06078,-9.81728,1.12736,-0.584251,0.548918,1,0,3.5525,-1.19,-1.925,1.07323,-0.834724,-0.432734,-0.05432,0.28168,0.3437
-6.21875,0,0,21.2188,21.2188,8.78125,8.78125,15.2784,-1.06285,-9.82021,0.290114,-0.083565,-0.0701187,1,0,2.3975,-1.5925,-1.7325,0.23241,-0.334524,-1.047,-0.05432,0.28168,0.3437
-6.22265,0,0,21.2226,21.2226,8.77735,8.77735,15.2824,-1.06252,-9.82272,0.290108,-0.0834975,-0.0701371,1,0,5.775,-0.175,-1.855,0.23241,-0.334524,-1.047,-0.05796,0.28784,0.36218
-6.22596,0,0,21.226,21.226,8.77404,8.77404,15.285,-1.06126,-9.82434,0.21683,-0.688715,-0.466166,1,0,4.97,0.49,-1.505,0.158844,-0.939156,-1.43997,-0.05796,0.28784,0.36218
-6.22909,0,0,21.2291,21.2291,8.77091,8.77091,15.287,-1.05976,-9.824,0.216804,-0.688679,-0.466175,1,0,4.725,0.9275,-0.4375,0.158844,-0.939156,-1.43997,-0.05796,0.28784,0.36218
-6.23181,0,0,21.2318,21.2318,8.76819,8.76819,15.2881,-1.06076,-9.82323,-0.0666048,-0.120528,-1.11006,1,0,4.165,-0.42,0.1925,-0.125782,-0.371612,-2.07888,-0.05796,0.28784,0.36218
-6.23479,0,0,21.2348,21.2348,8.76521,8.76521,15.2898,-1.06351,-9.82218,-0.0665569,-0.120499,-1.11007,1,0,4.5325,-1.365,0.6125,-0.125782,-0.371612,-2.07888,-0.05796,0.28784,0.36218
-6.23649,0,0,21.2365,21.2365,8.76351,8.76351,15.2884,-1.06493,-9.82,-0.0637379,0.61761,-0.177253,1,0,2.7475,-0.4375,1.05,-0.122976,0.365756,-1.15327,-0.05796,0.28784,0.36218
-6.23907,0,0,21.2391,21.2391,8.76093,8.76093,15.2891,-1.06487,-9.8162,-0.063739,0.617622,-0.177257,1,0,3.99,0.6475,1.7325,-0.122976,0.365756,-1.15327,-0.05796,0.28784,0.36218
-6.24105,0,0,21.2411,21.2411,8.75895,8.75895,15.2883,-1.06514,-9.81177,0.49182,0.0844035,-0.14959,1,0,3.1675,0.56,2.135,0.43493,-0.166896,-1.12582,-0.05796,0.28784,0.36218
-6.2428,0,0,21.2428,21.2428,8.7572,8.7572,15.2869,-1.06742,-9.80724,0.491859,0.0843802,-0.149584,1,0,2.835,-0.56,2.5025,0.43493,-0.166896,-1.12582,-0.05404,0.294,0.3647
-6.24498,0,0,21.245,21.245,8.75502,8.75502,15.2867,-1.07155,-9.80431,-0.0752851,0.21273,-0.285196,1,0,3.43,-1.855,1.89,-0.134688,-0.038674,-1.26038,-0.05404,0.294,0.3647
-6.24647,0,0,21.2465,21.2465,8.75353,8.75353,15.2846,-1.07027,-9.80033,-0.0753074,0.212697,-0.285187,1,0,2.4675,1.365,1.645,-0.134688,-0.038674,-1.26038,-0.05404,0.294,0.3647
-6.2492,0,0,21.2492,21.2492,8.7508,8.7508,15.2857,-1.06804,-9.79609,-0.118109,0.187802,-0.303756,1,0,4.2175,1.9425,1.645,-0.177632,-0.063562,-1.2788,-0.05404,0.294,0.3647
-6.25129,0,0,21.2513,21.2513,8.74871,8.74871,15.2852,-1.06635,-9.79237,-0.118139,0.187793,-0.303753,1,0,3.3075,1.5575,1.435,-0.177632,-0.063562,-1.2788,-0.05404,0.294,0.3647
-6.25459,0,0,21.2546,21.2546,8.74541,8.74541,15.2877,-1.06651,-9.78944,-0.239865,-0.419379,-0.174423,1,0,4.9875,0.385,1.2775,-0.299876,-0.670146,-1.15046,-0.05404,0.294,0.3647
-6.25764,0,0,21.2576,21.2576,8.74236,8.74236,15.2896,-1.06845,-9.78799,-0.239831,-0.419347,-0.174432,1,0,4.6375,-0.84,0.7175,-0.299876,-0.670146,-1.15046,-0.05404,0.294,0.3647
-6.26094,0,0,21.2609,21.2609,8.73906,8.73906,15.2921,-1.06949,-9.78707,0.606578,-0.308048,0.194278,1,0,4.97,-0.42,0.28,0.550098,-0.559004,-0.784582,-0.05404,0.294,0.3647
-6.26475,0,0,21.2648,21.2648,8.73525,8.73525,15.2959,-1.07083,-9.78698,0.606602,-0.307984,0.19426,1,0,5.6875,-0.7175,-0.14,0.550098,-0.559004,-0.784582,-0.05558,0.29036,0.36946
-6.2683,0,0,21.2683,21.2683,8.7317,8.7317,15.2991,-1.07209,-9.78721,-0.205265,-0.128283,0.350513,1,0,5.3025,-0.7175,-0.3325,-0.265228,-0.379542,-0.62952,-0.05558,0.29036,0.36946
-6.27076,0,0,21.2708,21.2708,8.72924,8.72924,15.2995,-1.07178,-9.78816,-0.205271,-0.128276,0.350511,1,0,3.78,0.0525,-0.98,-0.265228,-0.379542,-0.62952,-0.05558,0.29036,0.36946
-6.27309,0,0,21.2731,21.2731,8.72691,8.72691,15.2996,-1.07133,-9.78975,-0.302224,0.160556,0.359486,1,0,3.5875,0.035,-1.365,-0.362584,-0.091012,-0.620614,-0.05558,0.29036,0.36946
-6.27492,0,0,21.2749,21.2749,8.72508,8.72508,15.2984,-1.06977,-9.79201,-0.302251,0.160536,0.359492,1,0,2.8875,0.56,-1.9075,-0.362584,-0.091012,-0.620614,-0.05558,0.29036,0.36946
-6.27646,0,0,21.2765,21.2765,8.72354,8.72354,15.2965,-1.06734,-9.79406,0.361625,-0.140294,-0.138071,1,0,2.4675,1.085,-1.925,0.304146,-0.391498,-1.11435,-0.05558,0.29036,0.36946
-6.27791,0,0,21.2779,21.2779,8.72209,8.72209,15.2944,-1.06565,-9.79827,0.361596,-0.140329,-0.138061,1,0,2.3275,0.3325,-3.0275,0.304146,-0.391498,-1.11435,-0.05558,0.29036,0.36946
-6.27875,0,0,21.2787,21.2787,8.72125,8.72125,15.2908,-1.0646,-9.8025,0.0242119,-0.286209,-0.302549,1,0,1.47,-0.035,-2.94,-0.034648,-0.537166,-1.27758,-0.05558,0.29036,0.36946
-6.28088,0,0,21.2809,21.2809,8.71912,8.71912,15.2904,-1.06373,-9.80607,0.0241968,-0.286216,-0.302547,1,0,3.29,-0.035,-2.5375,-0.034648,-0.537166,-1.27758,-0.05558,0.29036,0.36946
-6.29123,0,0,21.2912,21.2912,8.70877,8.70877,15.3105,-1.47621,-9.73164,-0.274264,0.00974941,0.0349462,0,0,4.7775,-0.945,-2.59,-0.3416,-0.241804,-0.94245,-0.05292,0.30142,0.37856
-6.61049,0,0,21.6105,21.6105,8.38951,8.38951,16.1026,-1.55585,-9.84879,0.0742102,-0.53129,0.475014,0,0,6.4925,-0.9275,-2.065,0.006954,-0.795562,-0.50203,-0.05292,0.30142,0.37856
-6.92555,0,0,21.9256,21.9256,8.07445,8.07445,16.8839,-1.6301,-9.96669,0.0755056,-0.51823,0.471109,0,0,7.0525,-1.4175,-1.6975,0.006954,-0.795562,-0.50203,-0.05292,0.30142,0.37856
-6.93,0,0,21.93,21.93,8.07,8.07,16.8887,-1.63201,-9.96941,-0.0941766,-0.389428,-0.231444,1,0,6.195,-1.505,-1.5925,-0.16348,-0.666974,-1.19914,-0.05292,0.30142,0.37856
-6.93478,0,0,21.9348,21.9348,8.06522,8.06522,16.8944,-1.63349,-9.97097,-0.0941508,-0.389335,-0.231473,1,0,6.685,-1.0675,-1.015,-0.16348,-0.666974,-1.19914,-0.05292,0.30142,0.37856
-6.93755,0,0,21.9376,21.9376,8.06245,8.06245,16.8949,-1.63449,-9.97203,0.139727,-0.00499211,-0.379506,1,0,3.8675,-0.7175,-0.8225,0.07137,-0.28304,-1.34603,-0.05292,0.30142,0.37856
-6.94004,0,0,21.94,21.94,8.05996,8.05996,16.8948,-1.6333,-9.97243,0.139706,-0.0049939,-0.379505,1,0,3.4825,0.63,-0.8225,0.07137,-0.28304,-1.34603,-0.05292,0.30142,0.37856
-6.9421,0,0,21.9421,21.9421,8.0579,8.0579,16.8936,-1.63373,-9.97167,-0.182831,-0.0685196,-0.210322,1,0,2.905,-0.0875,0.105,-0.25254,-0.34648,-1.17815,-0.05292,0.30142,0.37856
-6.94426,0,0,21.9443,21.9443,8.05574,8.05574,16.8927,-1.63419,-9.97031,-0.182823,-0.0685355,-0.210318,1,0,3.045,0,0.4375,-0.25254,-0.34648,-1.17815,-0.05306,0.29918,0.36358
-6.94656,0,0,21.9466,21.9466,8.05344,8.05344,16.8921,-1.63596,-9.96897,0.544786,-0.172842,0.439221,1,0,3.255,-0.735,0.6475,0.478118,-0.450668,-0.533628,-0.05306,0.29918,0.36358
-6.94876,0,0,21.9488,21.9488,8.05124,8.05124,16.8913,-1.63701,-9.9667,0.544804,-0.172856,0.439225,1,0,3.115,-0.175,1.05,0.478118,-0.450668,-0.533628,-0.05306,0.29918,0.36358
-6.95035,0,0,21.9504,21.9504,8.04965,8.04965,16.8889,-1.63925,-9.96338,-0.119441,0.241114,0.222355,1,0,2.2925,-0.665,1.8375,-0.188978,-0.037088,-0.748836,-0.05306,0.29918,0.36358
-6.95234,0,0,21.9523,21.9523,8.04766,8.04766,16.8876,-1.64082,-9.96063,-0.119413,0.241091,0.222361,1,0,2.835,-0.385,1.4,-0.188978,-0.037088,-0.748836,-0.05306,0.29918,0.36358
-6.98609,0,0,21.9861,21.9861,8.01391,8.01391,16.9656,-1.40956,-10.2977,0.175528,-0.096599,-0.0294853,0,0,3.3775,-0.105,1.645,0.111264,-0.37576,-0.998448,-0.05306,0.29918,0.36358
-7.01965,0,0,22.0197,22.0197,7.98035,7.98035,17.0431,-1.18131,-10.6308,0.171545,-0.0952794,-0.0297947,0,0,3.9375,1.4875,1.295,0.111264,-0.37576,-0.998448,-0.05306,0.29918,0.36358
-7.02263,0,0,22.0226,22.0226,7.97737,7.97737,17.0441,-1.18004,-10.6274,0.00338699,-0.598424,0.0121258,1,0,4.1825,1.3125,1.2425,-0.057584,-0.8784,-0.956846,-0.05306,0.29918,0.36358
-7.02284,0,0,22.0228,22.0228,7.97716,7.97716,17.0383,-1.17863,-10.6246,0.0033625,-0.598522,0.0121563,1,0,0.2975,1.295,0.9275,-0.057584,-0.8784,-0.956846,-0.04354,0.29442,0.36722
-7.20669,0,0,22.2067,22.2067,7.79331,7.79331,17.4913,-0.67599,-11.1056,0.372533,-0.285002,0.357152,0,0,4.305,0.805,0.7875,0.321958,-0.57279,-0.612318,-0.04354,0.29442,0.36722
-7.38817,0,0,22.3882,22.3882,7.61183,7.61183,17.9383,-0.183743,-11.5753,0.363942,-0.277551,0.35484,0,0,4.9525,0.2625,0.805,0.321958,-0.57279,-0.612318,-0.04354,0.29442,0.36722
-7.392,0,0,22.392,22.392,7.608,7.608,17.9412,-0.184651,-11.5737,0.0954743,-0.810099,0.119009,1,0,5.145,-0.1925,0.6475,0.052338,-1.10483,-0.846314,-0.04354,0.29442,0.36722
-7.39563,0,0,22.3956,22.3956,7.60437,7.60437,17.9435,-0.184467,-11.5725,0.0954711,-0.81006,0.118996,1,0,4.8825,0.3325,0.1925,0.052338,-1.10483,-0.846314,-0.04354,0.29442,0.36722
-7.39916,0,0,22.3992,22.3992,7.60084,7.60084,17.9456,-0.184354,-11.5722,0.0262223,-0.26021,-0.175354,1,0,4.725,0.1575,-0.21,-0.017202,-0.555588,-1.13838,-0.04354,0.29442,0.36722
-7.40248,0,0,22.4025,22.4025,7.59752,7.59752,17.9472,-0.184625,-11.5726,0.026227,-0.260184,-0.175362,1,0,4.4275,-0.1925,-0.56,-0.017202,-0.555588,-1.13838,-0.04354,0.29442,0.36722
-7.4052,0,0,22.4052,22.4052,7.5948,7.5948,17.9473,-0.184934,-11.573,0.0815084,0.26081,-0.579125,1,0,3.605,-0.2275,-0.595,0.038308,-0.035136,-1.53903,-0.04354,0.29442,0.36722
-7.40767,0,0,22.4077,22.4077,7.59233,7.59233,17.9467,-0.184896,-11.575,0.0815077,0.2608,-0.579122,1,0,3.2375,-0.315,-1.5225,0.038308,-0.035136,-1.53903,-0.04536,0.29456,0.37968
-7.40952,0,0,22.4095,22.4095,7.59048,7.59048,17.9446,-0.184243,-11.577,-0.237768,0.192619,0.437796,1,0,2.3625,0.035,-1.61,-0.282308,-0.103212,-0.529968,-0.04536,0.29456,0.37968
-7.41171,0,0,22.4117,22.4117,7.58829,7.58829,17.9433,-0.182938,-11.5789,-0.237791,0.192598,0.437803,1,0,2.8525,0.4025,-1.715,-0.282308,-0.103212,-0.529968,-0.04536,0.29456,0.37968
-7.41459,0,0,22.4146,22.4146,7.58541,7.58541,17.9438,-0.183038,-11.5817,-0.291243,-0.31593,0.398334,1,0,3.815,-0.525,-1.9075,-0.335988,-0.61122,-0.56913,-0.04536,0.29456,0.37968
-7.41859,0,0,22.4186,22.4186,7.58141,7.58141,17.9471,-0.183273,-11.5837,-0.291239,-0.315876,0.398316,1,0,5.39,-0.4725,-1.4875,-0.335988,-0.61122,-0.56913,-0.04536,0.29456,0.37968
-7.42296,0,0,22.423,22.423,7.57704,7.57704,17.9513,-0.184786,-11.5859,0.119895,0.0978372,-0.220629,1,0,5.8975,-1.2075,-1.33,0.07686,-0.198006,-1.18328,-0.04536,0.29456,0.37968
-7.42773,0,0,22.4277,22.4277,7.57227,7.57227,17.9565,-0.185564,-11.5885,0.119909,0.0979233,-0.220657,1,0,6.4575,-0.875,-1.6975,0.07686,-0.198006,-1.18328,-0.04536,0.29456,0.37968
-7.38136,0,0,22.3814,22.3814,7.61864,7.61864,17.8339,-0.193512,-11.7747,-0.0230626,0.119213,0.0320445,0,0,5.8275,-0.9275,-1.5925,-0.066856,-0.174704,-0.933178,-0.04536,0.29456,0.37968
-7.33513,0,0,22.3351,22.3351,7.66487,7.66487,17.7116,-0.200216,-11.9618,-0.0229456,0.117181,0.0326953,0,0,4.725,-0.14,-1.7325,-0.066856,-0.174704,-0.933178,-0.04802,0.29694,0.3801
-7.33798,0,0,22.338,22.338,7.66202,7.66202,17.7121,-0.200173,-11.9635,-0.189625,-0.53399,0.244656,1,0,3.8325,-0.245,-1.33,-0.23424,-0.825208,-0.72285,-0.04802,0.29694,0.3801
-7.33935,0,0,22.3394,22.3394,7.66065,7.66065,17.7089,-0.199319,-11.9645,-0.18964,-0.534044,0.244673,1,0,1.75,0.315,-1.1375,-0.23424,-0.825208,-0.72285,-0.04802,0.29694,0.3801
-7.34057,0,0,22.3406,22.3406,7.65943,7.65943,17.7053,-0.199734,-11.9658,-0.177362,-0.0858981,0.645627,1,0,1.54,-0.4375,-1.05,-0.221918,-0.377468,-0.325008,-0.04802,0.29694,0.3801
-7.34249,0,0,22.3425,22.3425,7.65751,7.65751,17.7035,-0.200311,-11.9663,-0.177352,-0.0859287,0.645637,1,0,2.52,-0.385,-0.5775,-0.221918,-0.377468,-0.325008,-0.04802,0.29694,0.3801
-7.24047,0,0,22.2405,22.2405,7.75953,7.75953,17.4419,0.585037,-12.6349,0.487196,0.220273,0.0819001,0,0,3.5,-0.3675,-0.5425,0.459208,-0.067222,-0.88572,-0.04802,0.29694,0.3801
-7.14092,0,0,22.1409,22.1409,7.85908,7.85908,17.1866,1.35089,-13.3032,0.473831,0.215952,0.0830105,0,0,5.5125,-0.6825,-0.2625,0.459208,-0.067222,-0.88572,-0.04802,0.29694,0.3801
-7.14522,0,0,22.1452,22.1452,7.85478,7.85478,17.1909,1.34992,-13.3027,0.163088,0.443547,-0.162662,1,0,5.9675,-0.4375,0.035,0.147132,0.160064,-1.12948,-0.04802,0.29694,0.3801
-7.14983,0,0,22.1498,22.1498,7.85017,7.85017,17.1959,1.34883,-13.3023,0.163106,0.443631,-0.162688,1,0,6.3875,-0.5075,0.0175,0.147132,0.160064,-1.12948,-0.04802,0.29694,0.3801
-7.39122,0,0,22.3912,22.3912,7.60878,7.60878,17.7927,0.752059,-13.0666,-0.312301,-0.442911,0.27538,0,0,6.125,-0.6825,0.315,-0.340746,-0.735538,-0.691862,-0.05264,0.30016,0.38122
-7.62655,0,0,22.6266,22.6266,7.37345,7.37345,18.3742,0.174065,-12.8411,-0.302213,-0.43324,0.272307,0,0,4.4275,0.6125,0.6475,-0.340746,-0.735538,-0.691862,-0.05264,0.30016,0.38122
-7.81803,0,0,22.818,22.818,7.18197,7.18197,18.8458,-0.403984,-12.6257,-0.298563,-0.303563,0.256998,0,0,4.41,0.56,0.5075,-0.347212,-0.613782,-0.704428,-0.05264,0.30016,0.38122
-8.00491,0,0,23.0049,23.0049,6.99509,6.99509,19.3058,-0.964722,-12.4179,-0.288777,-0.296014,0.254264,0,0,3.6225,1.295,0.91,-0.347212,-0.613782,-0.704428,-0.05264,0.30016,0.38122
-8.0077,0,0,23.0077,23.0077,6.9923,6.9923,19.3055,-0.964791,-12.415,0.196316,0.177222,0.417172,1,0,3.43,0.5425,1.19,0.139934,-0.141032,-0.542778,-0.05264,0.30016,0.38122
-8.011,0,0,23.011,23.011,6.989,6.989,19.3065,-0.965539,-12.4123,0.196329,0.177239,0.417166,1,0,4.1475,0.14,1.2425,0.139934,-0.141032,-0.542778,-0.05264,0.30016,0.38122
-8.01404,0,0,23.014,23.014,6.98596,6.98596,19.3069,-0.966599,-12.4095,0.0471634,0.351764,0.613512,1,0,3.78,-0.0175,1.3475,-0.009882,0.033306,-0.347944,-0.05264,0.30016,0.38122
-8.01784,0,0,23.0178,23.0178,6.98216,6.98216,19.3091,-0.967131,-12.4067,0.0471726,0.351801,0.613499,1,0,4.8475,0.28,1.26,-0.009882,0.033306,-0.347944,-0.05264,0.30016,0.38122
-8.15514,0,0,23.1551,23.1551,6.84486,6.84486,19.645,-1.05824,-12.4995,-0.00554165,-0.202756,0.207386,0,0,5.11,0.0175,0.9625,-0.064416,-0.526186,-0.748958,-0.04816,0.2996,0.38598
-8.15956,0,0,23.1596,23.1596,6.84044,6.84044,19.6487,-1.05859,-12.4985,0.0814483,-0.338378,-0.113162,1,0,5.6175,0.0175,0.1925,0.022936,-0.661728,-1.06701,-0.04816,0.2996,0.38598
-8.16532,0,0,23.1653,23.1653,6.83468,6.83468,19.6557,-1.05992,-12.4982,0.0814716,-0.338263,-0.113204,1,0,7.5075,-0.6475,0.035,0.022936,-0.661728,-1.06701,-0.04816,0.2996,0.38598
-8.12497,0,0,23.125,23.125,6.87503,6.87503,19.5475,-1.15622,-12.6017,-0.0809753,0.102291,-0.0293646,0,0,7.1575,0.245,-0.2275,-0.141886,-0.219844,-0.984418,-0.04816,0.2996,0.38598
-8.08479,0,0,23.0848,23.0848,6.91521,6.91521,19.4398,-1.24962,-12.7054,-0.0793454,0.100507,-0.0287695,0,0,6.2825,0.525,-0.9275,-0.141886,-0.219844,-0.984418,-0.04816,0.2996,0.38598
-8.08901,0,0,23.089,23.089,6.91099,6.91099,19.4431,-1.24946,-12.707,0.0907318,0.443493,-0.167597,1,0,5.3725,-0.1925,-1.295,0.028914,0.122732,-1.12216,-0.04816,0.2996,0.38598
-8.0921,0,0,23.0921,23.0921,6.9079,6.9079,19.4435,-1.2482,-12.7091,0.0907097,0.4435,-0.167599,1,0,3.7625,0.315,-1.8025,0.028914,0.122732,-1.12216,-0.04816,0.2996,0.38598
-7.98601,0,0,22.986,22.986,7.01399,7.01399,19.1711,-1.33712,-12.8165,-0.107583,0.237737,-0.117988,0,0,4.445,-0.84,-2.03,-0.171776,-0.078324,-1.07445,-0.04816,0.2996,0.38598
-7.8823,0,0,22.8823,22.8823,7.1177,7.1177,18.9047,-1.42488,-12.9196,-0.106051,0.233332,-0.116507,0,0,4.8825,-0.3675,-2.1175,-0.171776,-0.078324,-1.07445,-0.04606,0.29204,0.3689
-7.88724,0,0,22.8872,22.8872,7.11276,7.11276,18.91,-1.42529,-12.9229,0.0331783,-0.0805693,-0.28682,1,0,6.4575,-0.84,-2.1875,-0.031964,-0.391986,-1.24342,-0.04606,0.29204,0.3689
-7.89192,0,0,22.8919,22.8919,7.10808,7.10808,18.9146,-1.42628,-12.927,0.0331955,-0.0804932,-0.286847,1,0,6.09,-1.295,-2.4675,-0.031964,-0.391986,-1.24342,-0.04606,0.29204,0.3689
-7.897,0,0,22.897,22.897,7.103,7.103,18.9202,-1.4283,-12.9311,0.278389,-0.29742,-0.060777,1,0,6.6325,-1.8725,-2.275,0.214232,-0.60878,-1.01907,-0.04606,0.29204,0.3689
-7.90136,0,0,22.9014,22.9014,7.09864,7.09864,18.924,-1.42888,-12.9341,0.278399,-0.297357,-0.0607988,1,0,5.6525,-0.8575,-1.925,0.214232,-0.60878,-1.01907,-0.04606,0.29204,0.3689
-7.98808,0,0,22.9881,22.9881,7.01192,7.01192,19.1336,-1.41005,-13.0905,0.0429958,-0.158215,0.0888743,0,0,5.7225,-0.6125,-1.715,-0.021838,-0.473238,-0.869372,-0.04606,0.29204,0.3689
-8.07344,0,0,23.0734,23.0734,6.92656,6.92656,19.3397,-1.39077,-13.2441,0.0426593,-0.154816,0.0876969,0,0,6.0725,-0.4725,-1.2075,-0.021838,-0.473238,-0.869372,-0.04606,0.29204,0.3689
-8.07828,0,0,23.0783,23.0783,6.92172,6.92172,19.3446,-1.39127,-13.2451,-0.303445,-0.362718,-0.243186,1,0,6.265,-0.4375,-0.8225,-0.369416,-0.681004,-1.19767,-0.04606,0.29204,0.3689
-8.08456,0,0,23.0846,23.0846,6.91544,6.91544,19.353,-1.39091,-13.2444,-0.303451,-0.362579,-0.243234,1,0,8.295,0.3675,-0.07,-0.369416,-0.681004,-1.19767,-0.04746,0.29036,0.37072
-8.09069,0,0,23.0907,23.0907,6.90931,6.90931,19.3611,-1.38976,-13.2431,0.0552762,-0.0418634,0.215563,1,0,8.085,0.91,0.07,-0.00915,-0.360754,-0.74237,-0.04746,0.29036,0.37072
-8.09684,0,0,23.0968,23.0968,6.90316,6.90316,19.3692,-1.39038,-13.2412,0.055287,-0.0417297,0.215516,1,0,8.1375,0.0525,0.77,-0.00915,-0.360754,-0.74237,-0.04746,0.29036,0.37072
-8.10209,0,0,23.1021,23.1021,6.89791,6.89791,19.3751,-1.39179,-13.2386,0.292573,-0.384565,-0.0628739,1,0,6.8775,-0.245,1.3125,0.229116,-0.70333,-1.01858,-0.04746,0.29036,0.37072
-8.10678,0,0,23.1068,23.1068,6.89322,6.89322,19.3795,-1.39452,-13.2351,0.292621,-0.384493,-0.0629007,1,0,6.09,-0.805,2.0475,0.229116,-0.70333,-1.01858,-0.04746,0.29036,0.37072
-8.11006,0,0,23.1101,23.1101,6.88994,6.88994,19.3805,-1.05523,-13.5807,0.218547,0.00307291,0.0626208,0,0,5.67,-0.4025,2.17,0.160674,-0.316224,-0.894138,-0.04746,0.29036,0.37072
-8.11431,0,0,23.1143,23.1143,6.88569,6.88569,19.3838,-0.723725,-13.9225,0.212762,0.00315797,0.0626861,0,0,6.9825,0.2625,2.1175,0.160674,-0.316224,-0.894138,-0.04746,0.29036,0.37072
-8.16313,0,0,23.1631,23.1631,6.83687,6.83687,19.4985,-1.06729,-13.8463,-0.227945,-0.087435,-0.0139279,0,0,8.1375,0.105,1.995,-0.28792,-0.408578,-0.969412,-0.04746,0.29036,0.37072
-8.21161,0,0,23.2116,23.2116,6.78839,6.78839,19.6124,-1.3995,-13.7791,-0.222149,-0.0856048,-0.0147105,0,0,9.4325,0.7525,1.8375,-0.28792,-0.408578,-0.969412,-0.04368,0.294,0.37212
-8.21864,0,0,23.2186,23.2186,6.78136,6.78136,19.6226,-1.39918,-13.7757,0.191262,-0.23492,-0.0775969,1,0,9.3275,0.8575,1.365,0.127246,-0.557906,-1.03175,-0.04368,0.294,0.37212
-8.22583,0,0,23.2258,23.2258,6.77417,6.77417,19.6332,-1.39923,-13.7737,0.191263,-0.234746,-0.0776591,1,0,9.5375,0.4025,0.7525,0.127246,-0.557906,-1.03175,-0.04368,0.294,0.37212
-8.2327,0,0,23.2327,23.2327,6.7673,6.7673,19.643,-1.39891,-13.7716,0.154325,0.101631,0.285104,1,0,9.0825,0.6125,0.6825,0.090158,-0.22204,-0.671732,-0.04368,0.294,0.37212
-8.23969,0,0,23.2397,23.2397,6.76031,6.76031,19.6532,-1.39885,-13.7706,0.154324,0.101797,0.285045,1,0,9.24,0.2625,0.14,0.090158,-0.22204,-0.671732,-0.04368,0.294,0.37212
-8.24684,0,0,23.2468,23.2468,6.75316,6.75316,19.6637,-1.39898,-13.77,-0.007857,-0.314483,-0.164639,1,0,9.45,0.07,-0.0525,-0.072712,-0.63806,-1.11789,-0.04368,0.294,0.37212
-8.25381,0,0,23.2538,23.2538,6.74619,6.74619,19.6737,-1.40005,-13.7711,-0.00783825,-0.314318,-0.164699,1,0,9.17,-0.7875,-0.805,-0.072712,-0.63806,-1.11789,-0.04368,0.294,0.37212
-8.20835,0,0,23.2084,23.2084,6.79165,6.79165,19.5527,-1.20347,-14.044,0.106451,0.118857,0.0481696,0,0,9.7125,-1.54,-0.9975,0.045506,-0.203374,-0.907436,-0.04368,0.294,0.37212
-8.16352,0,0,23.1635,23.1635,6.83648,6.83648,19.4333,-1.01157,-14.3139,0.103103,0.116915,0.0489257,0,0,9.1525,-0.665,-1.54,0.045506,-0.203374,-0.907436,-0.04088,0.29106,0.3703
-8.17081,0,0,23.1708,23.1708,6.82919,6.82919,19.4443,-1.01236,-14.3165,0.100079,0.108424,0.263407,1,0,9.66,-0.9275,-1.6975,0.042456,-0.212036,-0.694546,-0.04088,0.29106,0.3703
-8.17803,0,0,23.178,23.178,6.82197,6.82197,19.455,-1.01227,-14.3193,0.100078,0.108601,0.263345,1,0,9.555,-0.4725,-1.96,0.042456,-0.212036,-0.694546,-0.04088,0.29106,0.3703
-8.35492,0,0,23.3549,23.3549,6.64508,6.64508,19.8898,-1.04575,-14.4115,0.0416198,-0.304497,0.215905,0,0,9.7125,-0.385,-1.855,-0.016836,-0.631838,-0.739076,-0.04088,0.29106,0.3703
-8.5294,0,0,23.5294,23.5294,6.4706,6.4706,20.3184,-1.07542,-14.503,0.0421377,-0.297476,0.213325,0,0,10.815,0,-1.9425,-0.016836,-0.631838,-0.739076,-0.04088,0.29106,0.3703
-8.45501,0,0,23.455,23.455,6.54499,6.54499,20.1249,-0.613471,-14.9296,0.261254,0.169217,0.0548935,0,0,10.29,0.1575,-1.4875,0.211304,-0.162504,-0.897554,-0.04088,0.29106,0.3703
-8.38291,0,0,23.3829,23.3829,6.61709,6.61709,19.9371,-0.164965,-15.3552,0.253427,0.166157,0.0560658,0,0,11.6375,-0.525,-1.3475,0.211304,-0.162504,-0.897554,-0.04088,0.29106,0.3703
-8.39147,0,0,23.3915,23.3915,6.60853,6.60853,19.951,-0.166243,-15.357,-0.178919,0.147211,0.103441,1,0,11.3575,-1.0325,-1.12,-0.222894,-0.181658,-0.850462,-0.04088,0.29106,0.3703
-8.39996,0,0,23.4,23.4,6.60004,6.60004,19.9648,-0.166941,-15.3586,-0.178907,0.147437,0.103359,1,0,11.2525,-0.665,-1.1025,-0.222894,-0.181658,-0.850462,-0.04088,0.29106,0.3703
-8.40827,0,0,23.4083,23.4083,6.59173,6.59173,19.9781,-0.16817,-15.36,-0.423314,0.350385,0.373398,1,0,11.0075,-0.945,-0.9625,-0.468358,0.020862,-0.582428,-0.04368,0.28364,0.36134
-8.41598,0,0,23.416,23.416,6.58402,6.58402,19.9898,-0.17023,-15.3609,0.0242749,-0.417965,-0.114532,1,0,10.15,-1.2775,-0.455,-0.01891,-0.746884,-1.06652,-0.04368,0.28364,0.36134
-8.42385,0,0,23.4238,23.4238,6.57615,6.57615,20.002,-0.171858,-15.3609,0.0243034,-0.417766,-0.114605,1,0,10.3775,-0.875,-0.0875,-0.01891,-0.746884,-1.06652,-0.04368,0.28364,0.36134
-8.4323,0,0,23.4323,23.4323,6.5677,6.5677,20.0157,-0.172806,-15.3606,-0.3665,-0.329123,-0.0722692,1,0,11.2,-0.4375,-0.0525,-0.411384,-0.658556,-1.02443,-0.04368,0.28364,0.36134
-8.44148,0,0,23.4415,23.4415,6.55852,6.55852,20.0311,-0.173289,-15.3591,-0.366491,-0.328869,-0.0723615,1,0,12.215,0.07,0.5425,-0.411384,-0.658556,-1.02443,-0.04368,0.28364,0.36134
-8.45082,0,0,23.4508,23.4508,6.54918,6.54918,20.0469,-0.173882,-15.3573,0.0064803,0.00992535,0.153277,1,0,12.425,0.0525,0.6825,-0.036844,-0.320372,-0.800442,-0.04368,0.28364,0.36134
-8.46009,0,0,23.4601,23.4601,6.53991,6.53991,20.0626,-0.174141,-15.3551,0.0064848,0.0101821,0.153184,1,0,12.3375,0.3325,0.875,-0.036844,-0.320372,-0.800442,-0.04368,0.28364,0.36134
-8.64136,0,0,23.6414,23.6414,6.35864,6.35864,20.508,0.141839,-15.6239,0.298853,-0.384688,0.209751,0,0,11.76,0,1.05,0.2623,-0.722118,-0.741638,-0.04368,0.28364,0.36134
-8.81908,0,0,23.8191,23.8191,6.18092,6.18092,20.9445,0.455867,-15.8776,0.293372,-0.377574,0.207028,0,0,11.5675,-0.6125,1.7325,0.2623,-0.722118,-0.741638,-0.05054,0.28224,0.36274
-8.8279,0,0,23.8279,23.8279,6.1721,6.1721,20.9587,0.453883,-15.8748,0.132924,-0.201358,-0.0492849,1,0,11.4975,-0.4725,1.54,0.101138,-0.546316,-0.995886,-0.05054,0.28224,0.36274
-8.83715,0,0,23.8371,23.8371,6.16285,6.16285,20.9739,0.45283,-15.8717,0.132943,-0.201109,-0.04938,1,0,12.0925,0.105,1.5225,0.101138,-0.546316,-0.995886,-0.05054,0.28224,0.36274
-8.84663,0,0,23.8466,23.8466,6.15337,6.15337,20.9898,0.451066,-15.869,0.185091,0.27349,-0.235254,1,0,12.425,-0.3675,1.4525,0.153476,-0.072468,-1.18023,-0.05054,0.28224,0.36274
-8.85677,0,0,23.8568,23.8568,6.14323,6.14323,21.0073,0.449635,-15.8665,0.185116,0.273774,-0.235363,1,0,13.335,-0.245,1.225,0.153476,-0.072468,-1.18023,-0.05054,0.28224,0.36274
-8.86676,0,0,23.8668,23.8668,6.13324,6.13324,21.0243,0.448393,-15.8641,-0.46141,-0.0661925,0.400543,1,0,13.125,-0.14,1.19,-0.495808,-0.41236,-0.549122,-0.05054,0.28224,0.36274
-8.8759,0,0,23.8759,23.8759,6.1241,6.1241,21.0393,0.44904,-15.8624,-0.461421,-0.0659488,0.400449,1,0,11.935,0.735,0.385,-0.495808,-0.41236,-0.549122,-0.05054,0.28224,0.36274
-8.976,0,0,23.976,23.976,6.024,6.024,21.2816,0.578746,-16.0424,0.120176,-0.197085,0.0885816,0,0,11.0425,0.7175,-4.4625,0.090524,-0.547292,-0.85705,-0.05054,0.28224,0.36274
-9.07397,0,0,24.074,24.074,5.92603,5.92603,21.5184,0.704519,-16.208,0.117981,-0.193245,0.0870505,0,0,10.6225,0.525,-0.56,0.090524,-0.547292,-0.85705,-0.04984,0.28028,0.36974
-9.08249,0,0,24.0825,24.0825,5.91751,5.91751,21.5317,0.704599,-16.2087,0.0154454,0.0685648,-0.353067,1,0,10.9725,-0.07,-0.77,-0.012444,-0.285968,-1.29369,-0.04984,0.28028,0.36974
-9.09249,0,0,24.0925,24.0925,5.90751,5.90751,21.5486,0.704989,-16.2096,0.0154385,0.0688392,-0.353175,1,0,13.0375,0.035,-0.9975,-0.012444,-0.285968,-1.29369,-0.04984,0.28028,0.36974
-9.03295,0,0,24.0329,24.0329,5.96705,5.96705,21.3917,0.620304,-16.3001,-0.0800291,0.162412,-0.0145408,0,0,13.7375,-0.28,-1.225,-0.1098,-0.189954,-0.958676,-0.04984,0.28028,0.36974
-8.97454,0,0,23.9745,23.9745,6.02546,6.02546,21.2377,0.537125,-16.3897,-0.0785774,0.159913,-0.0135503,0,0,13.7375,-0.28,-1.225,-0.1098,-0.189954,-0.958676,-0.04984,0.28028,0.36974
-8.98493,0,0,23.9849,23.9849,6.01507,6.01507,21.2557,0.536587,-16.3909,-0.0169748,-0.0311664,0.164857,1,0,13.65,-0.525,-0.945,-0.047946,-0.381128,-0.781532,-0.04984,0.28028,0.36974
-8.99532,0,0,23.9953,23.9953,6.00468,6.00468,21.2737,0.536048,-16.3922,-0.0169654,-0.0308737,0.164743,1,0,13.65,-0.525,-0.945,-0.047946,-0.381128,-0.781532,-0.04984,0.28028,0.36974
-9.01027,0,0,24.0103,24.0103,5.98973,5.98973,21.3031,0.809601,-16.6642,0.183085,-0.0250425,0.0322123,0,0,11.4975,0.14,-0.735,0.157746,-0.37576,-0.912804,-0.04984,0.28028,0.36974
-9.02503,0,0,24.025,24.025,5.97497,5.97497,21.332,1.07686,-16.9301,0.178422,-0.0246008,0.0319575,0,0,11.4975,0.14,-0.735,0.157746,-0.37576,-0.912804,-0.0511,0.27608,0.35644
-9.0345,0,0,24.0345,24.0345,5.9655,5.9655,21.3477,1.07633,-16.9299,0.0386007,0.0387934,0.219601,1,0,12.3375,-0.21,-0.1575,0.017324,-0.312686,-0.72651,-0.0511,0.27608,0.35644
-9.04421,0,0,24.0442,24.0442,5.95579,5.95579,21.3639,1.07642,-16.9292,0.321661,-0.0779395,0.324003,1,0,12.67,0.2275,-0.035,0.301584,-0.429562,-0.62281,-0.0511,0.27608,0.35644
-9.05376,0,0,24.0538,24.0538,5.94624,5.94624,21.3798,1.07526,-16.9283,0.321681,-0.0776815,0.323903,1,0,12.4425,-0.42,0.3325,0.301584,-0.429562,-0.62281,-0.0511,0.27608,0.35644
-9.06293,0,0,24.0629,24.0629,5.93707,5.93707,21.3947,1.07409,-16.9274,-0.0932936,0.035528,0.291473,1,0,11.9,-0.42,0.3325,-0.115168,-0.316712,-0.654896,-0.0511,0.27608,0.35644
-9.07205,0,0,24.0721,24.0721,5.92795,5.92795,21.4095,1.07199,-16.9269,-0.0932571,0.0357682,0.291379,1,0,11.83,-0.9975,0.35,-0.115168,-0.316712,-0.654896,-0.0511,0.27608,0.35644
-9.12536,0,0,24.1254,24.1254,5.87464,5.87464,21.5347,1.13139,-17.0637,0.0606008,-0.112178,0.00777974,0,0,11.515,-1.015,0.21,0.040382,-0.466528,-0.935496,-0.0511,0.27608,0.35644
-9.17797,0,0,24.178,24.178,5.82203,5.82203,21.6581,1.19109,-17.199,0.0595589,-0.110183,0.00696738,0,0,11.8475,-0.315,-0.1225,0.040382,-0.466528,-0.935496,-0.0511,0.27608,0.35644
-9.17721,0,0,24.1772,24.1772,5.82279,5.82279,21.648,1.12004,-17.293,-0.0495103,0.0442758,0.0384071,0,0,12.1975,-0.35,-0.3325,-0.070394,-0.312076,-0.904386,-0.04508,0.28392,0.36106
-9.15824,0,0,24.1582,24.1582,5.84176,5.84176,21.5925,1.04434,-17.3877,-0.0643469,0.0520553,-0.0675632,0,0,12.81,0,-0.735,-0.08662,-0.303414,-1.00992,-0.04508,0.28392,0.36106
-9.13976,0,0,24.1398,24.1398,5.86024,5.86024,21.5383,0.970495,-17.4816,-0.0630582,0.0511828,-0.067194,0,0,12.9675,0.0875,-0.77,-0.08662,-0.303414,-1.00992,-0.04508,0.28392,0.36106
-9.11529,0,0,24.1153,24.1153,5.88471,5.88471,21.469,1.2924,-17.8007,0.192883,0.0668715,0.0439223,0,0,12.5125,0.035,-0.63,0.176046,-0.286578,-0.899994,-0.04508,0.28392,0.36106
-9.09081,0,0,24.0908,24.0908,5.90919,5.90919,21.3998,1.60476,-18.1173,0.187433,0.0656972,0.0442352,0,0,11.655,-0.4375,-0.4725,0.176046,-0.286578,-0.899994,-0.04508,0.28392,0.36106
-9.09971,0,0,24.0997,24.0997,5.90029,5.90029,21.414,1.60412,-18.1171,0.14541,-0.445783,-0.22462,1,0,11.515,-0.2625,-0.1225,0.133834,-0.797758,-1.16669,-0.04508,0.28392,0.36106
-9.10848,0,0,24.1085,24.1085,5.89152,5.89152,21.4279,1.60363,-18.1157,0.145419,-0.445557,-0.224709,1,0,11.3225,0.0525,0.455,0.133834,-0.797758,-1.16669,-0.04508,0.28392,0.36106
-9.07772,0,0,24.0777,24.0777,5.92228,5.92228,21.343,1.78421,-18.3607,0.10886,0.0642521,-0.0382342,0,0,11.76,0.07,0.665,0.100284,-0.287066,-0.9821,-0.04508,0.28392,0.36106
-9.04821,0,0,24.0482,24.0482,5.95179,5.95179,21.2612,1.95928,-18.593,0.105806,0.0628871,-0.0378091,0,0,12.46,-0.035,1.05,0.100284,-0.287066,-0.9821,-0.04844,0.27958,0.36162
-9.05782,0,0,24.0578,24.0578,5.94218,5.94218,21.2773,1.95837,-18.5903,0.177134,-0.267204,-0.095819,1,0,12.5125,0.105,1.26,0.171898,-0.617076,-1.03956,-0.04844,0.27958,0.36162
-9.06783,0,0,24.0678,24.0678,5.93217,5.93217,21.2943,1.95784,-18.5872,0.177143,-0.266928,-0.0959265,1,0,13.0375,0.4025,1.4175,0.171898,-0.617076,-1.03956,-0.04844,0.27958,0.36162
-9.07769,0,0,24.0777,24.0777,5.92231,5.92231,21.311,1.95714,-18.5845,-0.0682456,-0.248582,0.00835159,1,0,12.845,0.21,1.19,-0.074542,-0.59902,-0.935984,-0.04844,0.27958,0.36162
-9.0873,0,0,24.0873,24.0873,5.9127,5.9127,21.327,1.95588,-18.5824,-0.0682234,-0.248321,0.0082507,1,0,12.495,-0.21,1.0325,-0.074542,-0.59902,-0.935984,-0.04844,0.27958,0.36162
-9.01242,0,0,24.0124,24.0124,5.98758,5.98758,21.1319,2.10939,-18.8198,0.0741527,0.159307,-0.0866284,0,0,12.495,0.1225,0.84,0.071126,-0.188612,-1.03127,-0.04844,0.27958,0.36162
-8.93866,0,0,23.9387,23.9387,6.06134,6.06134,20.9397,2.25906,-19.0573,0.0715426,0.156141,-0.0855177,0,0,11.9525,0.4025,0.1225,0.071126,-0.188612,-1.03127,-0.04844,0.27958,0.36162
-8.9477,0,0,23.9477,23.9477,6.0523,6.0523,20.9544,2.25937,-19.057,-0.295593,0.00115807,0.180082,1,0,11.8125,0.2625,-0.2975,-0.297558,-0.343674,-0.767624,-0.04844,0.27958,0.36162
-8.9568,0,0,23.9568,23.9568,6.0432,6.0432,20.9693,2.25939,-19.0586,-0.295593,0.00140046,0.179989,1,0,11.935,-0.2975,-1.2775,-0.297558,-0.343674,-0.767624,-0.05096,0.27594,0.35616
-8.99408,0,0,23.9941,23.9941,6.00592,6.00592,21.0546,2.18453,-19.1239,-0.0390461,-0.0530045,0.014506,0,0,12.32,-0.735,-1.47,-0.041236,-0.399428,-0.931348,-0.05096,0.27594,0.35616
-9.03144,0,0,24.0314,24.0314,5.96856,5.96856,21.14,2.11191,-19.1893,-0.0377794,-0.0515967,0.0140137,0,0,13.475,-0.91,-1.715,-0.041236,-0.399428,-0.931348,-0.05096,0.27594,0.35616
-9.02032,0,0,24.0203,24.0203,5.97968,5.97968,21.1043,2.09293,-19.3028,-0.0204404,0.0275755,-0.0753799,0,0,14.0175,-0.5775,-1.715,-0.024156,-0.319762,-1.02029,-0.05096,0.27594,0.35616
-9.00946,0,0,24.0095,24.0095,5.99054,5.99054,21.0693,2.07427,-19.4153,-0.0201149,0.0270094,-0.075149,0,0,14.0175,-0.5775,-1.715,-0.024156,-0.319762,-1.02029,-0.05096,0.27594,0.35616
-9.05009,0,0,24.0501,24.0501,5.94991,5.94991,21.1629,2.09435,-19.5256,0.029101,-0.0844388,-0.0187012,0,0,13.51,-0.6475,-1.19,0.02562,-0.432612,-0.963678,-0.05096,0.27594,0.35616
-9.09002,0,0,24.09,24.09,5.90998,5.90998,21.2548,2.11435,-19.6349,0.0287522,-0.0829501,-0.0192926,0,0,13.51,-0.6475,-1.19,0.02562,-0.432612,-0.963678,-0.05096,0.27594,0.35616
-9.09956,0,0,24.0996,24.0996,5.90044,5.90044,21.2707,2.11296,-19.6342,0.223639,0.152646,-0.310288,1,0,12.4425,-0.595,0.245,0.221308,-0.197518,-1.25233,-0.05096,0.27594,0.35616
-9.1091,0,0,24.1091,24.1091,5.8909,5.8909,21.2865,2.11157,-19.6336,0.223664,0.152905,-0.310388,1,0,12.4425,-0.595,0.245,0.221308,-0.197518,-1.25233,-0.0511,0.2737,0.35938
-9.11918,0,0,24.1192,24.1192,5.88082,5.88082,21.3037,2.10956,-19.6322,-0.11148,0.0211661,-0.3282,1,0,13.1775,-0.77,0.7875,-0.11529,-0.3294,-1.2699,-0.0511,0.2737,0.35938
-9.12927,0,0,24.1293,24.1293,5.87073,5.87073,21.321,2.10756,-19.6308,-0.111445,0.0214463,-0.328308,1,0,13.1775,-0.77,0.7875,-0.11529,-0.3294,-1.2699,-0.0511,0.2737,0.35938
-9.14042,0,0,24.1404,24.1404,5.85958,5.85958,21.3408,2.10465,-19.629,0.120036,-0.166427,-0.0336023,1,0,14.665,-1.1725,1.2075,0.11712,-0.517402,-0.977342,-0.0511,0.2737,0.35938
-9.01059,0,0,24.0106,24.0106,5.98941,5.98941,21.0084,2.28592,-19.8909,0.0737467,0.288784,-0.105636,0,0,14.5775,-1.47,1.085,0.07381,-0.057218,-1.05079,-0.0511,0.2737,0.35938
-8.88213,0,0,23.8821,23.8821,6.11787,6.11787,20.6795,2.46325,-20.1536,0.0706545,0.283379,-0.103715,0,0,13.1425,-0.6475,0.385,0.07381,-0.057218,-1.05079,-0.0511,0.2737,0.35938
-8.89154,0,0,23.8915,23.8915,6.10846,6.10846,20.6952,2.46181,-20.1529,-0.110456,0.169814,-0.174383,1,0,12.3725,-0.6125,0.28,-0.108092,-0.170922,-1.12081,-0.0511,0.2737,0.35938
-8.90061,0,0,23.9006,23.9006,6.09939,6.09939,20.7101,2.46146,-20.1526,-0.110449,0.170057,-0.174475,1,0,11.9,-0.105,-0.1575,-0.108092,-0.170922,-1.12081,-0.0511,0.2737,0.35938
-9.0414,0,0,24.0414,24.0414,5.9586,5.9586,21.0542,2.24492,-20.0728,-0.0984124,-0.248183,0.113813,0,0,13.7025,-0.35,-0.315,-0.099796,-0.594384,-0.832772,-0.0483,0.27342,0.3612
-9.18048,0,0,24.1805,24.1805,5.81952,5.81952,21.3939,2.03592,-19.9959,-0.0947671,-0.242611,0.111795,0,0,15.4525,-0.14,-0.5075,-0.099796,-0.594384,-0.832772,-0.0483,0.27342,0.3612
-9.45009,0,0,24.4501,24.4501,5.54991,5.54991,22.0597,1.74096,-19.7983,-0.108574,-0.477235,0.329452,0,0,16.31,-0.385,-0.5075,-0.118828,-0.839604,-0.612684,-0.0483,0.27342,0.3612
-9.71463,0,0,24.7146,24.7146,5.28537,5.28537,22.7125,1.45579,-19.6087,-0.103598,-0.466651,0.325243,0,0,16.31,-0.385,-0.5075,-0.118828,-0.839604,-0.612684,-0.0483,0.27342,0.3612
-9.6414,0,0,24.6414,24.6414,5.3586,5.3586,22.521,2.1417,-20.0985,0.439626,0.148692,0.0440143,0,0,13.4575,-0.2975,0.1225,0.438712,-0.221674,-0.892674,-0.0483,0.27342,0.3612
-9.56942,0,0,24.5694,24.5694,5.43058,5.43058,22.3327,2.81018,-20.586,0.42797,0.145465,0.0448012,0,0,13.4575,-0.2975,0.1225,0.438712,-0.221674,-0.892674,-0.0483,0.27342,0.3612
-9.74633,0,0,24.7463,24.7463,5.25367,5.25367,22.7664,2.66043,-20.5189,-0.0315514,-0.329661,0.1689,0,0,11.6025,-4.1825,1.12,-0.025376,-0.70333,-0.76677,-0.0483,0.27342,0.3612
-9.75772,0,0,24.7577,24.7577,5.24228,5.24228,22.7863,2.6593,-20.5158,-0.205499,0.18347,-0.307905,1,0,14.6475,0.1225,1.5225,-0.20008,-0.191052,-1.23976,-0.0483,0.27342,0.3612
-9.77058,0,0,24.7706,24.7706,5.22942,5.22942,22.8099,2.65731,-20.5127,-0.0791194,-0.201338,0.378235,1,0,16.695,-0.3325,1.75,-0.0732,-0.57584,-0.55876,-0.05124,0.26698,0.36344
-9.78442,0,0,24.7844,24.7844,5.21558,5.21558,22.8359,2.65475,-20.5099,-0.159012,-0.525287,-0.00148093,1,0,18.0775,-0.735,1.645,-0.153476,-0.899872,-0.935374,-0.05124,0.26698,0.36344
-9.79722,0,0,24.7972,24.7972,5.20278,5.20278,22.8594,2.65311,-20.5081,-0.158984,-0.52491,-0.00163831,1,0,16.6425,-0.4375,0.98,-0.153476,-0.899872,-0.935374,-0.05124,0.26698,0.36344
-9.78955,0,0,24.7896,24.7896,5.21045,5.21045,22.8316,2.75857,-20.6539,0.0686641,0.0191737,-0.0371858,0,0,14.455,-0.84,0.8225,0.076982,-0.355874,-0.970754,-0.05124,0.26698,0.36344
-9.78102,0,0,24.781,24.781,5.21898,5.21898,22.8018,2.862,-20.7992,0.066861,0.0186594,-0.0370654,0,0,12.845,-0.56,0.175,0.076982,-0.355874,-0.970754,-0.05124,0.26698,0.36344
-9.79013,0,0,24.7901,24.7901,5.20987,5.20987,22.816,2.86102,-20.7996,-0.105753,-0.189094,0.34816,1,0,11.5325,-0.595,-0.385,-0.09638,-0.56364,-0.588406,-0.05124,0.26698,0.36344
-9.80108,0,0,24.8011,24.8011,5.19892,5.19892,22.8348,2.85991,-20.801,-0.105734,-0.188791,0.348034,1,0,14.14,-0.8925,-0.91,-0.09638,-0.56364,-0.588406,-0.05124,0.26698,0.36344
-9.89697,0,0,24.897,24.897,5.10303,5.10303,23.0659,2.835,-20.8258,0.0169152,-0.176647,0.0634554,0,0,16.135,-1.2075,-1.12,0.026352,-0.555222,-0.86925,-0.05124,0.26698,0.36344
-9.99296,0,0,24.993,24.993,5.00704,5.00704,23.2971,2.81299,-20.8464,0.0172989,-0.172934,0.061886,0,0,19.075,-1.1725,-1.155,0.026352,-0.555222,-0.86925,-0.04634,0.26124,0.36008
-10.0082,0,0,25.0082,25.0082,5,5,23.3266,2.8117,-20.8489,0.36963,-0.247325,0.0669705,1,0,20.1425,-1.2425,-1.435,0.380152,-0.630008,-0.864004,-0.04634,0.26124,0.36008
-10.0209,0,0,25.0209,25.0209,5,5,23.3495,2.81031,-20.8511,0.369654,-0.246958,0.0668133,1,0,16.4675,-1.225,-1.2425,0.380152,-0.630008,-0.864004,-0.04634,0.26124,0.36008
-10.103,0,0,25.103,25.103,5,5,23.5458,2.90077,-20.9355,0.0908469,-0.157139,0.0632891,0,0,15.575,-1.54,-0.7875,0.101748,-0.543388,-0.866078,-0.04634,0.26124,0.36008
-10.1809,0,0,25.1809,25.1809,5,5,23.7316,2.99005,-21.017,0.0892907,-0.154205,0.0619174,0,0,11.6025,-0.945,0.07,0.101748,-0.543388,-0.866078,-0.04634,0.26124,0.36008
-10.4598,0,0,25.4598,25.4598,5,5,24.4198,2.74716,-20.8027,-0.0713314,-0.480847,0.382908,0,0,12.145,-1.1025,0.21,-0.063806,-0.880718,-0.5429,-0.04634,0.26124,0.36008
-10.7357,0,0,25.7357,25.7357,5,5,25.1001,2.51395,-20.595,-0.0672654,-0.469998,0.37811,0,0,15.015,-0.0875,0.63,-0.063806,-0.880718,-0.5429,-0.04634,0.26124,0.36008
-10.7488,0,0,25.7488,25.7488,5,5,25.1235,2.51253,-20.5932,-0.1637,-0.471583,0.157737,1,0,16.625,-0.2625,0.9275,-0.160674,-0.88267,-0.761402,-0.04634,0.26124,0.36008
-10.7654,0,0,25.7654,25.7654,5,5,25.1556,2.50938,-20.5923,-0.163645,-0.471074,0.157502,1,0,21.5425,-1.4175,0.875,-0.160674,-0.88267,-0.761402,-0.05222,0.26628,0.35924
-10.7612,0,0,25.7612,25.7612,5,5,25.1357,2.55777,-20.6897,0.0264863,0.0333457,-0.0243486,0,0,20.7375,-0.7175,0.7875,0.03111,-0.378444,-0.941962,-0.05222,0.26628,0.35924
-10.7555,0,0,25.7555,25.7555,5,5,25.1119,2.60413,-20.7872,0.025678,0.0329549,-0.0242055,0,0,18.2875,-1.295,0.4725,0.03111,-0.378444,-0.941962,-0.05222,0.26628,0.35924
-10.768,0,0,25.768,25.768,5,5,25.1338,2.60285,-20.7867,-0.176087,0.0572378,0.188211,1,0,15.82,-0.525,0.1925,-0.171532,-0.354532,-0.731024,-0.05222,0.26628,0.35924
-10.7789,0,0,25.7789,25.7789,5,5,25.1515,2.60109,-20.7868,-0.176057,0.0575171,0.188082,1,0,13.4575,-0.945,-0.0525,-0.171532,-0.354532,-0.731024,-0.05222,0.26628,0.35924
-10.6038,0,0,25.6038,25.6038,5,5,24.7047,2.68452,-20.9826,-0.0142345,0.405325,-0.158116,0,0,14.49,-0.525,-0.14,-0.007564,0,-1.07775,-0.05222,0.26628,0.35924
-10.4341,0,0,25.4341,25.4341,5,5,24.2711,2.76482,-21.1795,-0.0156345,0.398419,-0.155043,0,0,17.535,-0.5075,-0.595,-0.007564,0,-1.07775,-0.05222,0.26628,0.35924
-10.4496,0,0,25.4496,25.4496,5,5,24.3009,2.76374,-21.1802,0.389782,0.0885681,-0.206034,1,0,20.265,-0.735,-0.5425,0.39955,-0.310002,-1.12813,-0.05222,0.26628,0.35924
-10.4656,0,0,25.4656,25.4656,5,5,24.3318,2.76396,-21.1804,0.389778,0.0890593,-0.206256,1,0,20.895,0.105,-0.5425,0.39955,-0.310002,-1.12813,-0.05222,0.26628,0.35924
-10.4708,0,0,25.4708,25.4708,5,5,24.3357,3.18108,-21.4651,0.289936,-0.0207039,0.0133271,0,0,20.265,-0.2275,-0.42,0.306586,-0.419558,-0.909876,-0.0518,0.26698,0.36246
-10.4957,0,0,25.4957,25.4957,5,5,24.3888,3.28467,-21.5804,0.061317,0.0119708,0.10863,0,0,16.66,-0.385,0.1225,0.078812,-0.387716,-0.814838,-0.0518,0.26698,0.36246
-10.5188,0,0,25.5188,25.5188,5,5,24.4373,3.38509,-21.6925,0.0595674,0.0126982,0.108188,0,0,14.49,-0.2975,1.2425,0.078812,-0.387716,-0.814838,-0.0518,0.26698,0.36246
-10.5309,0,0,25.5309,25.5309,5,5,24.4583,3.38327,-21.6901,0.35894,-0.196659,-0.0232711,1,0,15.26,-0.35,1.33,0.37942,-0.59719,-0.945134,-0.0518,0.26698,0.36246
-10.5459,0,0,25.5459,25.5459,5,5,24.4867,3.38163,-21.6871,0.358968,-0.196208,-0.0234744,1,0,19.3725,-0.1225,1.5925,0.37942,-0.59719,-0.945134,-0.0518,0.26698,0.36246
-10.5628,0,0,25.5628,25.5628,5,5,24.5198,3.37928,-21.6844,0.26996,-0.218885,-0.121456,1,0,22.0675,-0.5775,1.5925,0.289994,-0.62037,-1.04212,-0.0518,0.26698,0.36246
-10.5811,0,0,25.5811,25.5811,5,5,24.5563,3.37766,-21.6823,0.269988,-0.218307,-0.121718,1,0,23.905,-0.315,1.12,0.289994,-0.62037,-1.04212,-0.0518,0.26698,0.36246
-10.6236,0,0,25.6236,25.6236,5,5,24.6534,3.62077,-21.8578,0.158238,-0.0362513,0.108239,0,0,22.9775,-0.105,0.665,0.182024,-0.439932,-0.813008,-0.0518,0.26698,0.36246
-10.6619,0,0,25.6619,25.6619,5,5,24.7398,3.85768,-22.0317,0.154112,-0.0349969,0.107366,0,0,17.6225,-0.2625,0.175,0.182024,-0.439932,-0.813008,-0.05012,0.26544,0.3598
-10.6746,0,0,25.6746,25.6746,5,5,24.7622,3.85618,-22.0314,-0.00816627,0.140121,0.249332,1,0,16.1,-0.7,0.1225,0.019032,-0.26535,-0.671976,-0.05012,0.26544,0.3598
-10.6872,0,0,25.6872,25.6872,5,5,24.7845,3.85439,-22.0326,-0.0081352,0.140474,0.249172,1,0,16.0825,-1.2075,-0.5775,0.019032,-0.26535,-0.671976,-0.05012,0.26544,0.3598
-10.7016,0,0,25.7016,25.7016,5,5,24.8112,3.85253,-22.0338,0.0312587,-0.0336205,0.389631,1,0,18.62,-1.2775,-0.6125,0.05856,-0.439688,-0.532408,-0.05012,0.26544,0.3598
-10.7192,0,0,25.7192,25.7192,5,5,24.8458,3.85139,-22.0358,0.0312785,-0.033073,0.389379,1,0,23.03,-1.0675,-1.1725,0.05856,-0.439688,-0.532408,-0.05012,0.26544,0.3598
-10.776,0,0,25.776,25.776,5,5,24.9785,4.23292,-22.2741,0.26372,-0.0839354,0.122044,0,0,24.3775,-0.7525,-1.19,0.298656,-0.492392,-0.796294,-0.05012,0.26544,0.3598
-10.8317,0,0,25.8317,25.8317,5,5,25.1084,4.60531,-22.5078,0.25724,-0.0820994,0.120633,0,0,23.695,-0.56,-1.12,0.298656,-0.492392,-0.796294,-0.05012,0.26544,0.3598
-10.8398,0,0,25.8398,25.8398,5,5,25.1192,4.9099,-22.7375,0.218655,-0.0293571,-0.0186552,0,0,21.2975,-0.2975,-0.84,0.265228,-0.439688,-0.934032,-0.05012,0.26544,0.3598
-10.8458,0,0,25.8458,25.8458,5,5,25.1247,5.20604,-22.958,0.213507,-0.029464,-0.0191084,0,0,18.0425,-0.4375,-0.28,0.265228,-0.439688,-0.934032,-0.05152,0.26488,0.3717
-10.774,0,0,25.774,25.774,5,5,24.9359,5.02074,-22.9892,-0.158056,0.208395,-0.0312286,0,0,17.01,-0.35,-0.0875,-0.111142,-0.199226,-0.947696,-0.05152,0.26488,0.3717
-10.7048,0,0,25.7048,25.7048,5,5,24.7535,4.83921,-23.0173,-0.154899,0.205633,-0.0296493,0,0,18.7425,0.1925,0.945,-0.111142,-0.199226,-0.947696,-0.05152,0.26488,0.3717
-10.7214,0,0,25.7214,25.7214,5,5,24.7859,4.83865,-23.0156,-0.1165,-0.0185693,0.122941,1,0,21.6125,0.1575,0.665,-0.07259,-0.423706,-0.79605,-0.05152,0.26488,0.3717
-10.7406,0,0,25.7406,25.7406,5,5,24.8244,4.83674,-23.0139,-0.116467,-0.0179599,0.122662,1,0,25.0775,-0.5775,0.945,-0.07259,-0.423706,-0.79605,-0.05152,0.26488,0.3717
-10.7612,0,0,25.7612,25.7612,5,5,24.8666,4.83413,-23.0128,0.422732,-0.0122852,-0.177022,1,0,27.16,-1.1025,0.805,0.468846,-0.418704,-1.09312,-0.05152,0.26488,0.3717
-10.7795,0,0,25.7795,25.7795,5,5,24.903,4.83155,-23.0122,0.422777,-0.0117096,-0.177285,1,0,23.9225,-1.19,0.56,0.468846,-0.418704,-1.09312,-0.05152,0.26488,0.3717
-10.8858,0,0,25.8858,25.8858,5,5,25.1593,4.82742,-23.0177,0.0408979,-0.210887,0.0470594,0,0,22.19,-1.1375,0.455,0.085278,-0.621712,-0.86864,-0.05152,0.26488,0.3717
-10.9881,0,0,25.9881,25.9881,5,5,25.4056,4.82607,-23.0194,0.0409213,-0.207013,0.0452322,0,0,19.6875,-1.0675,0.14,0.085278,-0.621712,-0.86864,-0.04718,0.2604,0.37548
-11.2123,0,0,26.2123,26.2123,5,5,25.9564,4.58385,-22.8153,-0.0881352,-0.322064,0.298969,0,0,19.67,-1.3125,0.35,-0.048556,-0.74542,-0.61305,-0.04718,0.2604,0.37548
-11.4344,0,0,26.4344,26.4344,5,5,26.5018,4.35061,-22.6181,-0.0840767,-0.313412,0.29506,0,0,23.1525,-0.98,-0.035,-0.048556,-0.74542,-0.61305,-0.04718,0.2604,0.37548
-11.4533,0,0,26.4533,26.4533,5,5,26.5391,4.34937,-22.618,0.137899,0.198636,0.153504,1,0,24.4475,-0.595,-0.0175,0.174338,-0.234484,-0.753228,-0.04718,0.2604,0.37548
-11.4744,0,0,26.4744,26.4744,5,5,26.5817,4.34896,-22.6176,0.137906,0.1993,0.153173,1,0,27.44,-0.07,-0.0525,0.174338,-0.234484,-0.753228,-0.04718,0.2604,0.37548
-11.3109,0,0,26.3109,26.3109,5,5,26.1633,4.63193,-22.9168,0.106499,0.379338,-0.0490181,0,0,26.215,0.4725,0.2275,0.147742,-0.047946,-0.956724,-0.04718,0.2604,0.37548
-11.1494,0,0,26.1494,26.1494,5,5,25.7499,4.90584,-23.2165,0.101735,0.372698,-0.0462281,0,0,24.9025,0.245,0.7525,0.147742,-0.047946,-0.956724,-0.04718,0.2604,0.37548
-10.9766,0,0,25.9766,25.9766,5,5,25.3083,5.66753,-23.7687,0.395249,0.390893,0.0958889,0,0,24.5875,0.0875,0.84,0.455792,-0.022326,-0.817888,-0.04718,0.2604,0.37548
-10.8039,0,0,25.8039,25.8039,5,5,24.8672,6.41358,-24.321,0.3823,0.383378,0.0978941,0,0,22.925,-0.77,1.33,0.455792,-0.022326,-0.817888,-0.05236,0.26306,0.36918
-10.8226,0,0,25.8226,25.8226,5,5,24.9047,6.411,-24.319,0.176305,-0.20578,0.0306183,1,0,24.43,-0.84,1.3125,0.24888,-0.611464,-0.884378,-0.05236,0.26306,0.36918
-10.8432,0,0,25.8432,25.8432,5,5,24.9469,6.40958,-24.3173,0.17633,-0.205115,0.0303123,1,0,27.1075,-0.315,0.84,0.24888,-0.611464,-0.884378,-0.05236,0.26306,0.36918
-10.9343,0,0,25.9343,25.9343,5,5,25.165,6.27623,-24.2708,-0.0605622,-0.132455,0.0398855,0,0,29.2775,-0.1925,0.8925,0.008662,-0.542412,-0.87352,-0.05236,0.26306,0.36918
-11.0234,0,0,26.0234,26.0234,5,5,25.3783,6.14592,-24.2271,-0.0583014,-0.129003,0.0385278,0,0,29.4875,-1.2775,0.525,0.008662,-0.542412,-0.87352,-0.05236,0.26306,0.36918
-10.9936,0,0,25.9936,25.9936,5,5,25.2944,5.40187,-23.9571,-0.574208,0.226116,-0.0437643,0,0,28.7175,-1.4525,0.3325,-0.522404,-0.186904,-0.956968,-0.05236,0.26306,0.36918
-10.961,0,0,25.961,25.961,5,5,25.2035,4.67295,-23.6851,-0.561535,0.225163,-0.0420801,0,0,25.305,-0.8225,-0.1225,-0.522404,-0.186904,-0.956968,-0.05236,0.26306,0.36918
-10.8454,0,0,25.8454,25.8454,5,5,24.9051,4.01465,-23.4895,-0.530641,0.423924,-0.0260599,0,0,24.2375,-0.7875,-0.1925,-0.502884,0.015982,-0.944036,-0.05236,0.26306,0.36918
-10.7326,0,0,25.7326,25.7326,5,5,24.6138,3.36713,-23.2889,-0.519364,0.419621,-0.0232744,0,0,26.32,-0.7875,-0.455,-0.502884,0.015982,-0.944036,-0.05236,0.26306,0.36918
-10.7279,0,0,25.7279,25.7279,5,5,24.5929,3.12749,-23.2283,-0.171991,0.0824409,-0.0293007,0,0,27.93,-1.3825,-0.595,-0.158234,-0.320616,-0.95038,-0.04914,0.26264,0.37198
-10.8632,0,0,25.8632,25.8632,5,5,24.9218,2.58207,-22.9225,-0.312032,-0.106458,0.185241,0,0,30.5375,-1.1725,-0.5425,-0.308416,-0.514718,-0.735538,-0.04914,0.26264,0.37198
-10.9956,0,0,25.9956,25.9956,5,5,25.2433,2.04941,-22.622,-0.302743,-0.10122,0.183204,0,0,31.3425,-1.505,0.175,-0.308416,-0.514718,-0.735538,-0.04914,0.26264,0.37198
-11.0188,0,0,26.0188,26.0188,5,5,25.2917,2.04755,-22.6211,-0.474977,0.0815131,0.350915,1,0,30.6775,-0.735,0.5425,-0.481412,-0.332938,-0.568764,-0.04914,0.26264,0.37198
-11.0402,0,0,26.0402,26.0402,5,5,25.3357,2.04471,-22.6193,-0.474928,0.0822078,0.350589,1,0,28.1925,-1.0325,1.2425,-0.481412,-0.332938,-0.568764,-0.04914,0.26264,0.37198
-11.0392,0,0,26.0392,26.0392,5,5,25.3238,2.0334,-22.6537,-0.0128418,0.0494144,-0.0154562,0,0,27.755,-1.505,1.365,-0.017568,-0.365512,-0.93208,-0.04914,0.26264,0.37198
-11.0383,0,0,26.0383,26.0383,5,5,25.312,2.02233,-22.6877,-0.0126488,0.049232,-0.0153623,0,0,27.755,-1.505,1.365,-0.017568,-0.365512,-0.93208,-0.04914,0.26264,0.37198
-11.0621,0,0,26.0621,26.0621,5,5,25.3621,2.02048,-22.686,0.337141,-0.282163,-0.259419,1,0,31.5875,-0.5425,0.9275,0.33367,-0.697352,-1.17388,-0.05306,0.26068,0.37604
-11.0655,0,0,26.0655,26.0655,5,5,25.3609,1.71445,-22.5627,-0.20858,0.0967306,0.000291194,0,0,34.6675,-0.49,0.9975,-0.219722,-0.318908,-0.916342,-0.05306,0.26068,0.37604
-11.0684,0,0,26.0684,26.0684,5,5,25.3588,1.41575,-22.4397,-0.203369,0.0967579,0.000435846,0,0,34.6675,-0.49,0.9975,-0.219722,-0.318908,-0.916342,-0.05306,0.26068,0.37604
-11.094,0,0,26.094,26.094,5,5,25.4134,1.26356,-22.3758,-0.0976932,0.0330396,0.0265177,0,0,34.2125,-1.05,0.665,-0.116266,-0.383446,-0.890112,-0.05306,0.26068,0.37604
-11.1191,0,0,26.1191,26.1191,5,5,25.4664,1.11539,-22.3124,-0.0951077,0.0338978,0.0261689,0,0,34.2125,-1.05,0.665,-0.116266,-0.383446,-0.890112,-0.05306,0.26068,0.37604
-11.0368,0,0,26.0368,26.0368,5,5,25.2512,1.49417,-22.5725,0.238807,0.181756,-0.099734,0,0,30.4675,-1.9075,0.2275,0.2257,-0.232288,-1.0165,-0.05306,0.26068,0.37604
-10.9562,0,0,25.9562,25.9562,5,5,25.0404,1.86285,-22.8323,0.232376,0.178347,-0.098342,0,0,30.4675,-1.9075,0.2275,0.2257,-0.232288,-1.0165,-0.05306,0.26068,0.37604
-11.0024,0,0,26.0024,26.0024,5,5,25.1464,1.9243,-22.8698,0.0517478,-0.053378,0.0133399,0,0,34.475,-1.925,0.2975,0.045384,-0.46543,-0.904874,-0.05306,0.26068,0.37604
-11.0478,0,0,26.0478,26.0478,5,5,25.2503,1.98501,-22.8971,0.0506889,-0.0517532,0.0125354,0,0,34.475,-1.925,0.2975,0.045384,-0.46543,-0.904874,-0.05068,0.2527,0.3731
-11.0753,0,0,26.0753,26.0753,5,5,25.3098,1.98332,-22.8952,-0.250566,0.0897525,0.113772,1,0,36.8375,-0.385,1.0325,-0.257176,-0.325008,-0.80398,-0.05068,0.2527,0.3731
-11.1029,0,0,26.1029,26.1029,5,5,25.3692,1.98164,-22.8933,-0.250537,0.0906898,0.113329,1,0,36.8375,-0.385,1.0325,-0.257176,-0.325008,-0.80398,-0.05068,0.2527,0.3731
-11.1282,0,0,26.1282,26.1282,5,5,25.4228,1.97912,-22.8911,0.104974,-0.0326677,-0.124115,1,0,33.565,-0.7525,1.4,0.099796,-0.449082,-1.0392,-0.05068,0.2527,0.3731
-11.1528,0,0,26.1528,26.1528,5,5,25.4748,1.97658,-22.8885,-0.0650616,0.282873,0.0224198,1,0,32.6725,-0.665,1.5925,-0.071004,-0.134688,-0.893406,-0.05068,0.2527,0.3731
-11.1787,0,0,26.1787,26.1787,5,5,25.5301,1.97362,-22.8861,-0.0650099,0.283745,0.0220059,1,0,34.5275,-0.9275,1.6275,-0.071004,-0.134688,-0.893406,-0.05068,0.2527,0.3731
-11.0526,0,0,26.0526,26.0526,5,5,25.2052,2.15977,-23.0772,0.0775261,0.325227,-0.09776,0,0,38.605,-0.4725,1.5575,0.075396,-0.088084,-1.01455,-0.05068,0.2527,0.3731
-10.9304,0,0,25.9304,25.9304,5,5,24.8904,2.33887,-23.2694,0.0744026,0.3202,-0.0955466,0,0,40.9325,-1.54,1.6625,0.075396,-0.088084,-1.01455,-0.05068,0.2527,0.3731
-10.9292,0,0,25.9292,25.9292,5,5,24.8781,2.56596,-23.4165,0.153903,0.0339135,-0.0404062,0,0,41.79,-1.365,1.5575,0.15921,-0.373808,-0.959774,-0.04858,0.2541,0.38136
-10.9254,0,0,25.9254,25.9254,5,5,24.8592,2.78653,-23.563,0.150058,0.0335395,-0.040431,0,0,37.695,-1.8725,1.4525,0.15921,-0.373808,-0.959774,-0.04858,0.2541,0.38136
-10.953,0,0,25.953,25.953,5,5,24.9189,2.78326,-23.5619,-0.036487,0.230986,-0.376393,1,0,36.9775,-1.435,0.9975,-0.028182,-0.17751,-1.29271,-0.04858,0.2541,0.38136
-10.9806,0,0,25.9806,25.9806,5,5,24.9786,2.77999,-23.5608,-0.0364299,0.23193,-0.376829,1,0,36.9775,-1.435,0.9975,-0.028182,-0.17751,-1.29271,-0.04858,0.2541,0.38136
-11.0095,0,0,26.0095,26.0095,5,5,25.0414,2.77614,-23.5606,-0.249449,0.512473,-0.495689,1,0,38.78,-1.9775,0.63,-0.24217,0.101748,-1.4102,-0.04858,0.2541,0.38136
-11.1921,0,0,26.1921,26.1921,5,5,25.4885,2.6279,-23.4047,-0.0492071,-0.214287,0.243704,0,0,43.0675,-2.695,0.6825,-0.043676,-0.63135,-0.673318,-0.04858,0.2541,0.38136
-11.3728,0,0,26.3728,26.3728,5,5,25.9304,2.48651,-23.252,-0.0467418,-0.207296,0.24046,0,0,45.36,-1.7675,0.56,-0.043676,-0.63135,-0.673318,-0.04858,0.2541,0.38136
-11.4051,0,0,26.4051,26.4051,5,5,26.0015,2.48292,-23.2512,0.019166,0.511802,0.00803993,1,0,43.3475,-1.6625,0.9275,0.022448,0.085888,-0.90341,-0.04858,0.2541,0.38136
-11.4348,0,0,26.4348,26.4348,5,5,26.066,2.47895,-23.2497,0.0192352,0.512815,0.00754839,1,0,39.725,-1.68,1.4,0.022448,0.085888,-0.90341,-0.05222,0.2506,0.38122
-11.278,0,0,26.278,26.278,5,5,25.6644,2.66122,-23.4579,0.0670812,0.399957,-0.125998,0,0,38.4125,-1.8375,1.2775,0.073688,-0.020496,-1.03883,-0.05222,0.2506,0.38122
-11.1255,0,0,26.1255,26.1255,5,5,25.2737,2.83648,-23.6691,0.0640259,0.393745,-0.123201,0,0,40.7225,-3.29,0.5775,0.073688,-0.020496,-1.03883,-0.05222,0.2506,0.38122
-11.1583,0,0,26.1583,26.1583,5,5,25.3462,2.83234,-23.6692,0.284473,0.182143,-0.120787,1,0,44.1875,-2.1875,0.5775,0.294996,-0.23302,-1.0359,-0.05222,0.2506,0.38122
-11.1951,0,0,26.1951,26.1951,5,5,25.4286,2.83017,-23.6685,0.284511,0.183442,-0.121402,1,0,49.7525,-0.945,0.525,0.294996,-0.23302,-1.0359,-0.05222,0.2506,0.38122
-11.2326,0,0,26.2326,26.2326,5,5,25.5128,2.82918,-23.6672,0.201432,-0.1407,0.331033,1,0,50.715,-0.175,0.525,0.211548,-0.55815,-0.586332,-0.05222,0.2506,0.38122
-11.2668,0,0,26.2668,26.2668,5,5,25.5886,2.82526,-23.6667,0.2015,-0.139507,0.330466,1,0,46.025,-1.9075,0.875,0.211548,-0.55815,-0.586332,-0.05222,0.2506,0.38122
-11.299,0,0,26.299,26.299,5,5,25.6594,2.82074,-23.6665,-0.0967899,0.197458,0.345427,1,0,43.295,-2.31,0.84,-0.088084,-0.22265,-0.57096,-0.05222,0.2506,0.38122
-11.3285,0,0,26.3285,26.3285,5,5,25.7235,2.81704,-23.6666,-0.0967253,0.198465,0.344946,1,0,39.4625,-1.9425,0.5075,-0.088084,-0.22265,-0.57096,-0.05124,0.24584,0.39018
-11.3377,0,0,26.3377,26.3377,5,5,25.7368,3.42282,-23.9746,0.406237,0.0174329,0.1047,0,0,41.335,-1.6975,0.84,0.42761,-0.403454,-0.808738,-0.05124,0.24584,0.39018
-11.3521,0,0,26.3521,26.3521,5,5,25.7633,4.01268,-24.2783,0.395964,0.0175577,0.103899,0,0,48.1775,-2.2225,1.2075,0.42761,-0.403454,-0.808738,-0.05124,0.24584,0.39018
-11.1999,0,0,26.1999,26.1999,5,5,25.3734,4.39785,-24.6097,0.189416,0.395555,-0.0378354,0,0,51.7125,-2.555,1.365,0.22692,-0.01952,-0.951844,-0.05124,0.24584,0.39018
-11.0517,0,0,26.0517,26.0517,5,5,24.9935,4.77362,-24.9427,0.182879,0.389352,-0.0354978,0,0,53.76,-2.205,1.3125,0.22692,-0.01952,-0.951844,-0.05124,0.24584,0.39018
-11.1939,0,0,26.1939,26.1939,5,5,25.3394,4.57497,-24.7767,-0.0963631,-0.125953,0.180187,0,0,50.6975,-2.4675,1.9075,-0.056974,-0.53985,-0.735538,-0.05124,0.24584,0.39018
-11.3291,0,0,26.3291,26.3291,5,5,25.6679,4.38497,-24.6132,-0.0930571,-0.120683,0.17796,0,0,45.185,-0.875,1.855,-0.056974,-0.53985,-0.735538,-0.05124,0.24584,0.39018
-11.3622,0,0,26.3622,26.3622,5,5,25.7408,4.38146,-24.61,0.0759906,-0.455752,-0.433764,1,0,44.31,-1.015,2.17,0.112728,-0.875716,-1.342,-0.05124,0.24584,0.39018
-11.3952,0,0,26.3952,26.3952,5,5,25.8138,4.37794,-24.6068,0.0760518,-0.454607,-0.434311,1,0,44.31,-1.015,2.17,0.112728,-0.875716,-1.342,-0.05124,0.24584,0.39018
-11.4326,0,0,26.4326,26.4326,5,5,25.8976,4.37327,-24.6051,-0.501288,-0.237982,-0.211421,1,0,50.47,-2.0125,1.6625,-0.467138,-0.66063,-1.1202,-0.04858,0.23982,0.38906
-11.4762,0,0,26.4762,26.4762,5,5,25.9968,4.37029,-24.6035,0.281374,-0.237648,-0.0175464,1,0,59.15,-1.1375,1.19,0.318786,-0.66185,-0.927078,-0.04858,0.23982,0.38906
-11.5178,0,0,26.5178,26.5178,5,5,26.0909,4.367,-24.6021,0.281431,-0.236176,-0.0182609,1,0,56.21,-1.33,1.2075,0.318786,-0.66185,-0.927078,-0.04858,0.23982,0.38906
-11.4042,0,0,26.4042,26.4042,5,5,25.7974,4.77394,-24.9117,0.250783,0.292923,-0.126698,0,0,52.675,-1.2775,1.1025,0.295118,-0.128466,-1.03639,-0.04858,0.23982,0.38906
-11.2927,0,0,26.2927,26.2927,5,5,25.509,5.17038,-25.222,0.24389,0.288144,-0.125068,0,0,52.675,-1.2775,1.1025,0.295118,-0.128466,-1.03639,-0.04858,0.23982,0.38906
-11.3278,0,0,26.3278,26.3278,5,5,25.5871,5.16334,-25.2231,-0.103801,-0.192905,-0.448629,1,0,47.4075,-3.9725,0.7875,-0.054168,-0.610244,-1.35688,-0.04858,0.23982,0.38906
-11.3629,0,0,26.3629,26.3629,5,5,25.6653,5.15631,-25.2243,-0.103679,-0.191676,-0.449206,1,0,47.4075,-3.9725,0.7875,-0.054168,-0.610244,-1.35688,-0.04858,0.23982,0.38906
-11.405,0,0,26.405,26.405,5,5,25.7608,5.15072,-25.2243,0.32174,0.00864618,-0.348486,1,0,57.1025,-2.9225,1.015,0.372954,-0.411628,-1.25623,-0.04858,0.23982,0.38906
-11.4471,0,0,26.4471,26.4471,5,5,25.8563,5.14513,-25.2243,0.321837,0.0101446,-0.349201,1,0,57.1025,-2.9225,1.015,0.372954,-0.411628,-1.25623,-0.05418,0.23632,0.39788
-11.6929,0,0,26.6929,26.6929,5,5,26.4609,4.91756,-24.9424,-0.0943038,-0.355074,0.267859,0,0,58.1525,-1.89,2.135,-0.048922,-0.786046,-0.639646,-0.05418,0.23632,0.39788
-11.7304,0,0,26.7304,26.7304,5,5,26.5447,4.91295,-24.9402,-0.00213749,0.403175,0.177217,1,0,50.435,-1.82,1.9425,0.043554,-0.02989,-0.72895,-0.05418,0.23632,0.39788
-11.7694,0,0,26.7694,26.7694,5,5,26.6322,4.90659,-24.9375,-0.00202701,0.40454,0.176544,1,0,52.5,-2.6075,2.6425,0.043554,-0.02989,-0.72895,-0.05418,0.23632,0.39788
-11.8096,0,0,26.8096,26.8096,5,5,26.7226,4.90153,-24.9339,-0.223164,0.980922,-0.157715,1,0,54.0925,-1.68,2.8,-0.178608,0.544486,-1.05994,-0.05418,0.23632,0.39788
-11.8548,0,0,26.8548,26.8548,5,5,26.8256,4.89542,-24.9317,-0.223058,0.982524,-0.158513,1,0,61.18,-2.59,2.345,-0.178608,0.544486,-1.05994,-0.05418,0.23632,0.39788
-11.9032,0,0,26.9032,26.9032,5,5,26.9366,4.8915,-24.9285,0.448826,-0.771689,0.460525,1,0,65.6425,-1.1725,2.31,0.496052,-1.20963,-0.444812,-0.05418,0.23632,0.39788
-11.9501,0,0,26.9501,26.9501,5,5,27.0436,4.88532,-24.9265,0.448933,-0.770027,0.459689,1,0,63.4375,-2.66,2.2925,0.496052,-1.20963,-0.444812,-0.04816,0.2324,0.39564
-11.9961,0,0,26.9961,26.9961,5,5,27.1486,4.87895,-24.9266,0.454875,0.625679,-0.207761,1,0,62.44,-3.3425,1.2075,0.501908,0.183,-1.1063,-0.04816,0.2324,0.39564
-12.0422,0,0,27.0422,27.0422,5,5,27.2536,4.87257,-24.9268,0.454986,0.627308,-0.208587,1,0,62.44,-3.3425,1.2075,0.501908,0.183,-1.1063,-0.04816,0.2324,0.39564
-12.0852,0,0,27.0852,27.0852,5,5,27.3509,4.86628,-24.925,0.287689,0.105379,-0.302304,1,0,57.9775,-2.765,2.2225,0.333792,-0.339892,-1.19853,-0.04816,0.2324,0.39564
-12.2355,0,0,27.2355,27.2355,5,5,27.7162,3.50646,-24.1903,-0.907144,0.181065,0.487221,0,0,57.26,-2.1875,1.75,-0.889868,-0.270718,-0.413702,-0.04816,0.2324,0.39564
-12.3866,0,0,27.3866,27.3866,5,5,28.0834,2.15568,-23.4618,-0.883597,0.187266,0.485255,0,0,64.0675,-3.0975,1.435,-0.889868,-0.270718,-0.413702,-0.04816,0.2324,0.39564
-12.4362,0,0,27.4362,27.4362,5,5,28.1967,2.15089,-23.462,-0.0742976,0.244456,0.431212,1,0,67.095,-2.5025,0.8225,-0.077226,-0.21533,-0.466406,-0.04816,0.2324,0.39564
-12.4853,0,0,27.4853,27.4853,5,5,28.309,2.14759,-23.4615,-0.07424,0.246181,0.430287,1,0,66.465,-1.54,0.77,-0.077226,-0.21533,-0.466406,-0.04816,0.2324,0.39564
-12.5317,0,0,27.5317,27.5317,5,5,28.4143,2.14526,-23.4609,0.558012,1.30077,-0.113401,1,0,62.58,-1.015,0.5425,0.557662,0.836554,-1.00504,-0.04816,0.2324,0.39564
-12.5794,0,0,27.5794,27.5794,5,5,28.5228,2.1379,-23.4617,0.55814,1.30244,-0.1143,1,0,64.4175,-3.9725,1.26,0.557662,0.836554,-1.00504,-0.04942,0.22932,0.40404
-12.6268,0,0,27.6268,27.6268,5,5,28.6305,2.13288,-23.4608,-0.147968,0.597589,-0.926041,1,0,63.9275,-2.31,1.4525,-0.151524,0.130784,-1.80963,-0.04942,0.22932,0.40404
-12.6749,0,0,27.6749,27.6749,5,5,28.74,2.12681,-23.4584,-0.147862,0.599267,-0.926954,1,0,64.9075,-2.415,2.5375,-0.151524,0.130784,-1.80963,-0.04942,0.22932,0.40404
-12.7265,0,0,27.7265,27.7265,5,5,28.8583,2.12162,-23.4544,-0.394388,0.308584,-0.339022,1,0,69.8075,-1.505,3.115,-0.399184,-0.161406,-1.22525,-0.04942,0.22932,0.40404
-12.7799,0,0,27.7799,27.7799,5,5,28.9809,2.11756,-23.4525,-0.394317,0.310455,-0.340053,1,0,72.205,-1.54,1.68,-0.399184,-0.161406,-1.22525,-0.04942,0.22932,0.40404
-12.8329,0,0,27.8329,27.8329,5,5,29.1026,2.11578,-23.4505,-0.368167,0.18359,-0.148422,1,0,71.75,-0.315,1.12,-0.372954,-0.289994,-1.03407,-0.04942,0.22932,0.40404
-12.886,0,0,27.886,27.886,5,5,29.2243,2.114,-23.4486,-0.368136,0.185444,-0.149456,1,0,71.75,-0.315,1.12,-0.372954,-0.289994,-1.03407,-0.04942,0.22932,0.40404
-12.9347,0,0,27.9347,27.9347,5,5,29.3349,2.11077,-23.4448,-0.176253,-0.663485,-0.182364,1,0,65.485,-0.5425,2.45,-0.180316,-1.13972,-1.06579,-0.04942,0.22932,0.40404
-12.9832,0,0,27.9832,27.9832,5,5,29.4453,2.10695,-23.4441,-0.618516,0.748636,-0.356541,1,0,65.4325,-1.7325,1.0325,-0.624518,0.269254,-1.23769,-0.05096,0.22148,0.40334
-12.9839,0,0,27.9839,27.9839,5,5,29.4359,2.40325,-23.5457,0.211774,0.0519041,-0.103118,0,0,74.76,-5.145,3.71,0.214476,-0.426512,-0.986126,-0.05096,0.22148,0.40334
-12.9868,0,0,27.9868,27.9868,5,5,29.4322,2.69581,-23.6488,0.206673,0.0517369,-0.103284,0,0,77.49,-3.85,1.5575,0.214476,-0.426512,-0.986126,-0.05096,0.22148,0.40334
-13.0433,0,0,28.0433,28.0433,5,5,29.5623,2.69193,-23.6477,0.194592,0.353534,-0.738321,1,0,76.475,-1.645,1.26,0.202276,-0.127002,-1.61516,-0.05096,0.22148,0.40334
-13.0934,0,0,28.0934,28.0934,5,5,29.6764,2.68549,-23.6463,0.194704,0.355266,-0.739299,1,0,67.48,-2.835,2.1875,0.202276,-0.127002,-1.61516,-0.05096,0.22148,0.40334
-13.1461,0,0,28.1461,28.1461,5,5,29.7969,2.67634,-23.6455,0.597953,-0.791265,0.0248968,1,0,71.0675,-4.3925,2.66,0.607072,-1.27417,-0.85583,-0.05096,0.22148,0.40334
-13.197,0,0,28.197,28.197,5,5,29.9129,2.6711,-23.6456,0.598044,-0.789508,0.0238931,1,0,68.635,-2.6775,1.05,0.607072,-1.27417,-0.85583,-0.05096,0.22148,0.40334
-13.2522,0,0,28.2522,28.2522,5,5,30.0397,2.66021,-23.6461,0.742316,0.321322,0.476599,1,0,74.6375,-5.6525,2.52,0.751764,-0.166408,-0.405528,-0.05026,0.21602,0.41342
-13.3166,0,0,28.3166,28.3166,5,5,30.1895,2.6555,-23.6444,-1.41094,0.0152123,-0.14363,1,0,87.465,-1.8375,1.8725,-1.41069,-0.474458,-1.01968,-0.05026,0.21602,0.41342
-13.3787,0,0,28.3787,28.3787,5,5,30.3333,2.65424,-23.6406,-1.41091,0.0173795,-0.144893,1,0,84.1225,0.49,1.855,-1.41069,-0.474458,-1.01968,-0.05026,0.21602,0.41342
-13.1131,0,0,28.1131,28.1131,5,5,29.6581,3.50916,-24.2175,0.440693,0.763728,0.1207,0,0,77.9275,-0.245,2.03,0.463722,0.281698,-0.76128,-0.05026,0.21602,0.41342
-12.8442,0,0,27.8442,27.8442,5,5,28.9751,4.34253,-24.8103,0.426182,0.752872,0.125655,0,0,71.715,-5.1975,3.0625,0.463722,0.281698,-0.76128,-0.05026,0.21602,0.41342
-12.8988,0,0,27.8988,27.8988,5,5,29.1008,4.33485,-24.8069,0.363994,1.0551,-1.43193,1,0,73.8675,-2.94,3.5175,0.401136,0.581696,-2.3058,-0.05026,0.21602,0.41342
-12.9536,0,0,27.9536,27.9536,5,5,29.2266,4.32803,-24.8041,0.364113,1.05702,-1.43299,1,0,74.0075,-2.66,2.975,0.401136,0.581696,-2.3058,-0.05026,0.21602,0.41342
-13.0155,0,0,28.0155,28.0155,5,5,29.3705,4.32097,-24.798,0.400195,0.59903,-0.800895,1,0,83.9475,-1.8375,4.7075,0.437248,0.122,-1.67738,-0.05026,0.21602,0.41342
-13.0805,0,0,28.0805,28.0805,5,5,29.5218,4.31701,-24.7949,0.400264,0.601326,-0.802185,1,0,88.2525,-1.085,2.345,0.437248,0.122,-1.67738,-0.04718,0.21056,0.41412
-13.2746,0,0,28.2746,28.2746,5,5,29.9959,3.86145,-24.4047,-0.281844,-0.212774,0.139684,0,0,82.8625,0.1225,1.47,-0.255712,-0.698694,-0.739198,-0.04718,0.21056,0.41412
-13.4599,0,0,28.4599,28.4599,5,5,30.4476,3.40768,-24.0266,-0.27394,-0.205723,0.136158,0,0,76.8075,-6.0025,2.2225,-0.255712,-0.698694,-0.739198,-0.04718,0.21056,0.41412
-13.5186,0,0,28.5186,28.5186,5,5,30.583,3.39667,-24.0254,0.116585,-0.268168,-0.195762,1,0,79.415,-5.1625,3.4825,0.136274,-0.76311,-1.06738,-0.04718,0.21056,0.41412
-13.5819,0,0,28.5819,28.5819,5,5,30.7298,3.38727,-24.0237,0.116749,-0.265964,-0.197057,1,0,85.7675,-4.2,3.255,0.136274,-0.76311,-1.06738,-0.04718,0.21056,0.41412
-13.6463,0,0,28.6463,28.6463,5,5,30.8791,3.38022,-24.0215,1.00262,-0.672239,-0.228505,1,0,87.2025,-2.87,2.8,1.02578,-1.1712,-1.09727,-0.04718,0.21056,0.41412
-13.7166,0,0,28.7166,28.7166,5,5,31.0434,3.37284,-24.018,1.00275,-0.669781,-0.229971,1,0,95.5325,-2.625,3.57,1.02578,-1.1712,-1.09727,-0.04718,0.21056,0.41412
-13.7858,0,0,28.7858,28.7858,5,5,31.2045,3.36196,-24.0176,-0.164778,0.0953096,0.72193,1,0,93.8875,-5.32,3.0625,-0.146888,-0.40931,-0.15128,-0.04718,0.21056,0.41412
-13.8494,0,0,28.8494,28.8494,5,5,31.3517,3.35512,-24.018,-0.164659,0.0975049,0.720604,1,0,86.0825,-3.5,1.505,-0.146888,-0.40931,-0.15128,-0.05012,0.20818,0.42182
-13.9105,0,0,28.9105,28.9105,5,5,31.4927,3.34374,-24.0197,-0.339279,-0.199969,0.51696,1,0,82.67,-6.1775,2.2225,-0.322446,-0.708576,-0.352092,-0.05012,0.20818,0.42182
-13.9763,0,0,28.9763,28.9763,5,5,31.6455,3.33688,-24.0169,-0.339159,-0.197698,0.515573,1,0,89.11,-2.5375,3.0975,-0.322446,-0.708576,-0.352092,-0.05012,0.20818,0.42182
-14.045,0,0,29.045,29.045,5,5,31.8053,3.32648,-24.018,0.373536,1.09739,-0.264762,1,0,93.205,-5.495,2.24,0.393084,0.582794,-1.12496,-0.05012,0.20818,0.42182
-14.1184,0,0,29.1184,29.1184,5,5,31.9768,3.31974,-24.015,0.373653,1.09993,-0.266335,1,0,99.61,-2.3975,3.1675,0.393084,0.582794,-1.12496,-0.05012,0.20818,0.42182
-14.3324,0,0,29.3324,29.3324,5,5,32.4996,3.77371,-24.0127,0.32286,-0.25251,0.358627,0,0,98.315,-3.85,3.85,0.350018,-0.775676,-0.49959,-0.05012,0.20818,0.42182
-14.5388,0,0,29.5388,29.5388,5,5,33.0032,4.22327,-24.0087,0.315033,-0.245432,0.353423,0,0,91.0875,-2.0475,0.91,0.350018,-0.775676,-0.49959,-0.05012,0.20818,0.42182
-14.6032,0,0,29.6032,29.6032,5,5,33.1518,4.21727,-24.0084,0.597713,1.19429,-0.478007,1,0,86.835,-2.8175,1.6625,0.63379,0.660386,-1.32321,-0.05012,0.20818,0.42182
-14.6677,0,0,29.6677,29.6677,5,5,33.3004,4.21128,-24.0081,0.597818,1.19646,-0.479418,1,0,86.835,-2.8175,1.6625,0.63379,0.660386,-1.32321,-0.05012,0.20818,0.42182
-14.7412,0,0,29.7412,29.7412,5,5,33.4717,4.2067,-24.0046,-1.25452,0.538981,-0.240198,1,0,99.505,-1.1025,2.7475,-1.22647,0.001098,-1.08421,-0.0497,0.19964,0.43232
-14.8193,0,0,29.8193,29.8193,5,5,33.6544,4.20159,-23.999,0.945435,1.07142,-0.424037,1,0,105.7,-0.63,4.0075,0.98271,0.530334,-1.2649,-0.0497,0.19964,0.43232
-14.8974,0,0,29.8974,29.8974,5,5,33.837,4.19647,-23.9933,0.945525,1.07407,-0.425797,1,0,105.7,-0.63,4.0075,0.98271,0.530334,-1.2649,-0.0497,0.19964,0.43232
-14.9722,0,0,29.9722,29.9722,5,5,34.0111,4.18602,-23.9937,0.572624,-0.78157,0.602831,1,0,101.185,-5.18,2.8175,0.608048,-1.3259,-0.242536,-0.0497,0.19964,0.43232
-15.0436,0,0,30.0436,30.0436,5,5,34.1767,4.17704,-23.9925,0.57278,-0.779176,0.601225,1,0,96.355,-3.9375,3.115,0.608048,-1.3259,-0.242536,-0.0497,0.19964,0.43232
-15.1155,0,0,30.1155,30.1155,5,5,34.3437,4.16373,-23.9914,0.175146,0.341673,-0.709308,1,0,97.1775,-6.0725,4.48,0.208498,-0.20862,-1.54135,-0.0497,0.19964,0.43232
-15.194,0,0,30.194,30.194,5,5,34.5269,4.15374,-23.9877,0.17532,0.34431,-0.711101,1,0,106.103,-3.5525,4.7075,0.208498,-0.20862,-1.54135,-0.0497,0.19964,0.43232
-15.2731,0,0,30.2731,30.2731,5,5,34.7118,4.14489,-23.9874,0.174381,1.10562,-0.531079,1,0,107.17,-4.165,2.6425,0.2074,0.549244,-1.36091,-0.04788,0.1897,0.43764
-15.3532,0,0,30.3532,30.3532,5,5,34.8987,4.13414,-23.9861,0.848328,-0.0947745,-0.910623,1,0,108.325,-4.69,3.8325,0.884012,-0.652578,-1.73569,-0.04788,0.1897,0.43764
-15.4331,0,0,30.4331,30.4331,5,5,35.0855,4.12294,-23.9901,-0.685356,-0.231206,0.231191,1,0,108.413,-6.685,1.4525,-0.65636,-0.791536,-0.60085,-0.04788,0.1897,0.43764
-15.5119,0,0,30.5119,30.5119,5,5,35.2692,4.11532,-23.9931,0.38458,0.506983,-0.275102,1,0,106.68,-4.655,0.7,0.417972,-0.05673,-1.10142,-0.04788,0.1897,0.43764
-15.5894,0,0,30.5894,30.5894,5,5,35.4496,4.10251,-23.9931,0.495112,0.211931,0.274026,1,0,104.685,-6.09,3.9375,0.528748,-0.354044,-0.554734,-0.04788,0.1897,0.43764
-15.6691,0,0,30.6691,30.6691,5,5,35.6356,4.09152,-23.9879,0.592006,0.830215,-0.117469,1,0,107.643,-3.43,5.81,0.62586,0.260958,-0.941352,-0.04788,0.1897,0.43764
-15.7551,0,0,30.7551,30.7551,5,5,35.8372,4.08378,-23.9884,-0.981464,0.250646,0.158476,1,0,116.585,-3.8325,1.995,-0.954406,-0.32086,-0.66551,-0.04788,0.1897,0.43764
-15.782,0,0,30.782,30.782,5,5,35.8909,4.30706,-23.9832,0.128066,0.121661,-0.0243898,0,0,120.663,-2.065,3.5175,0.163724,-0.450302,-0.846192,-0.04788,0.1897,0.43764
-15.872,0,0,30.872,30.872,5,5,36.1023,4.29965,-23.9783,0.216758,0.360715,0.0748881,1,0,121.87,-1.785,4.48,0.252662,-0.214476,-0.745542,-0.04788,0.1897,0.43764
-15.9586,0,0,30.9586,30.9586,5,5,36.3052,4.29113,-23.9768,-0.687676,-0.0512939,-0.100423,1,0,117.25,-3.4825,3.2375,-0.65575,-0.62891,-0.91744,-0.05138,0.17794,0.44072
-16.0413,0,0,31.0413,31.0413,5,5,36.4983,4.27789,-23.9731,-0.0339738,0.61982,0.0633317,1,0,111.615,-4.9525,5.8975,0.000488,0.038796,-0.752984,-0.05138,0.17794,0.44072
-16.1569,0,0,31.1569,31.1569,5,5,36.7735,3.51369,-23.5039,-0.507946,0.0367772,-0.0233899,0,0,110.25,-6.16,7.455,-0.488854,-0.548024,-0.83692,-0.05138,0.17794,0.44072
-16.279,0,0,31.279,31.279,5,5,37.0649,2.77156,-23.0399,-0.495013,0.0412634,-0.0258724,0,0,124.338,-3.5525,5.145,-0.488854,-0.548024,-0.83692,-0.05138,0.17794,0.44072
-16.0998,0,0,31.0998,31.0998,5,5,36.6032,2.9985,-23.1969,0.114291,0.643748,-0.264645,0,0,122.693,-1.9425,3.01,0.127002,0.06039,-1.07848,-0.05138,0.17794,0.44072
-15.9237,0,0,30.9237,30.9237,5,5,36.1494,3.21808,-23.3544,0.110464,0.637258,-0.260122,0,0,123.55,-2.45,4.9875,0.127002,0.06039,-1.07848,-0.05138,0.17794,0.44072
-16.0143,0,0,31.0143,31.0143,5,5,36.3622,3.20627,-23.3552,0.346231,0.550369,-0.733813,1,0,122.868,-5.81,3.325,0.36356,-0.029402,-1.54635,-0.05138,0.17794,0.44072
-16.1028,0,0,31.1028,31.1028,5,5,36.5697,3.19306,-23.3582,0.346461,0.553284,-0.735951,1,0,119.98,-7.2625,2.7475,0.36356,-0.029402,-1.54635,-0.05138,0.17794,0.44072
-16.1896,0,0,31.1896,31.1896,5,5,36.7731,3.17451,-23.3609,-0.475795,1.10754,-1.36435,1,0,117.688,-9.6425,4.795,-0.462502,0.521428,-2.16782,-0.05124,0.1666,0.4536
-16.2838,0,0,31.2838,31.2838,5,5,36.9946,3.16183,-23.3563,-0.475574,1.11064,-1.36666,1,0,127.61,-4.27,6.23,-0.462502,0.521428,-2.16782,-0.05124,0.1666,0.4536
-16.3831,0,0,31.3831,31.3831,5,5,37.2288,3.15319,-23.3519,0.313626,-0.10383,-1.19982,1,0,134.733,-2.4675,4.6725,0.329888,-0.695034,-1.99982,-0.05124,0.1666,0.4536
-16.4819,0,0,31.4819,31.4819,5,5,37.4617,3.14263,-23.346,0.31381,-0.100597,-1.20227,1,0,133.945,-2.7825,6.09,0.329888,-0.695034,-1.99982,-0.05124,0.1666,0.4536
-16.5803,0,0,31.5803,31.5803,5,5,37.6937,3.12834,-23.3447,0.0224931,0.506288,0.17783,1,0,133.595,-6.16,5.2675,0.037088,-0.091988,-0.627934,-0.05124,0.1666,0.4536
-16.6758,0,0,31.6758,31.6758,5,5,37.9181,3.11389,-23.3481,0.022745,0.509386,0.175444,1,0,129.448,-7.875,3.22,0.037088,-0.091988,-0.627934,-0.05124,0.1666,0.4536
-16.7708,0,0,31.7708,31.7708,5,5,38.1413,3.09715,-23.3494,0.521128,0.631778,-0.836102,1,0,128.748,-8.19,4.9875,0.537288,0.027206,-1.62931,-0.05124,0.1666,0.4536
-16.8674,0,0,31.8674,31.8674,5,5,38.3684,3.08493,-23.3411,0.521341,0.634893,-0.838543,1,0,130.62,-2.555,7.8575,0.537288,0.027206,-1.62931,-0.05124,0.1666,0.4536
-16.9707,0,0,31.9707,31.9707,5,5,38.6124,3.07357,-23.3354,-0.702672,-0.277479,-0.15476,1,0,140.158,-3.1325,6.3,-0.692106,-0.88755,-0.948184,-0.04592,0.15904,0.46088
-17.0751,0,0,32.0751,32.0751,5,5,38.8588,3.06523,-23.3341,-0.702527,-0.274124,-0.157441,1,0,141.68,-3.3075,3.2375,-0.692106,-0.88755,-0.948184,-0.04592,0.15904,0.46088
-17.1786,0,0,32.1786,32.1786,5,5,39.1028,3.05781,-23.3356,0.626291,1.69543,-0.843213,1,0,140.42,-3.9025,1.645,0.642208,1.07665,-1.62602,-0.04592,0.15904,0.46088
-17.2821,0,0,32.2821,32.2821,5,5,39.3469,3.0504,-23.3372,0.62642,1.69873,-0.845897,1,0,140.42,-3.9025,1.645,0.642208,1.07665,-1.62602,-0.04592,0.15904,0.46088
-17.3817,0,0,32.3817,32.3817,5,5,39.5809,3.03521,-23.3364,1.14713,-0.0865402,-0.281071,1,0,134.715,-6.545,5.6,1.16486,-0.709918,-1.06299,-0.04592,0.15904,0.46088
-17.4807,0,0,32.4807,32.4807,5,5,39.8136,3.01868,-23.333,1.14742,-0.0834096,-0.28365,1,0,133.928,-6.16,7.28,1.16486,-0.709918,-1.06299,-0.04592,0.15904,0.46088
-17.586,0,0,32.586,32.586,5,5,40.0617,3.00486,-23.3355,0.299324,-1.26191,1.0129,1,0,142.713,-7.1225,3.6575,0.31293,-1.89051,0.22631,-0.04592,0.15904,0.46088
-17.6923,0,0,32.6923,32.6923,5,5,40.3123,3.00201,-23.3324,0.299374,-1.25857,1.01009,1,0,143.973,-0.07,2.065,0.31293,-1.89051,0.22631,-0.04592,0.15904,0.46088
-17.8014,0,0,32.8014,32.8014,5,5,40.5699,2.99453,-23.3262,-0.637879,1.68054,-0.336279,1,0,147.823,-0.9625,5.18,-0.628422,1.04212,-1.10678,-0.04312,0.1435,0.47334
-17.912,0,0,32.912,32.912,5,5,40.8311,2.98351,-23.3258,0.0660794,1.21784,0.427591,1,0,149.94,-4.725,3.955,0.078324,0.57645,-0.34587,-0.04312,0.1435,0.47334
-18.0184,0,0,33.0184,33.0184,5,5,41.0816,2.96201,-23.3284,0.0664542,1.22115,0.424743,1,0,144.095,-10.4825,6.685,0.078324,0.57645,-0.34587,-0.04312,0.1435,0.47334
-18.1259,0,0,33.1259,33.1259,5,5,41.335,2.94053,-23.3276,-0.336382,1.55459,-0.331089,1,0,145.583,-9.135,8.2075,-0.326594,0.906216,-1.093,-0.04312,0.1435,0.47334
-18.2351,0,0,33.2351,33.2351,5,5,41.5923,2.92752,-23.3231,0.292047,1.06652,0.400199,1,0,147.683,-3.92,6.615,0.304268,0.415288,-0.364414,-0.04312,0.1435,0.47334
-18.353,0,0,33.353,33.353,5,5,41.8714,2.92068,-23.3159,-0.718959,0.290743,-1.97139,1,0,159.863,-0.175,5.3725,-0.711138,-0.363316,-2.7145,-0.04312,0.1435,0.47334
-18.1547,0,0,33.1547,33.1547,5,5,41.3602,2.5304,-23.3198,-0.279059,1.00985,-0.194281,0,0,158.848,-2.52,3.92,-0.276208,0.361486,-0.957212,-0.04312,0.1435,0.47334
-18.2703,0,0,33.2703,33.2703,5,5,41.6334,2.51685,-23.3233,1.02921,0.45262,-1.19688,1,0,156.835,-7.2975,3.29,1.03737,-0.198738,-1.94895,-0.04312,0.1435,0.47334
-18.3866,0,0,33.3866,33.3866,5,5,41.9086,2.49682,-23.3306,-0.884322,-0.413578,0.882561,1,0,158.008,-11.5675,4.2175,-0.884622,-1.06762,0.117608,-0.0483,0.12362,0.47586
-18.4989,0,0,33.4989,33.4989,5,5,42.1734,2.4782,-23.3303,0.128464,0.814792,-0.767539,1,0,152.023,-7.9625,7,0.132126,0.156038,-1.5167,-0.0483,0.12362,0.47586
-18.6224,0,0,33.6224,33.6224,5,5,42.4663,2.46334,-23.3243,0.128723,0.818575,-0.770968,1,0,167.598,-4.025,8.05,0.132126,0.156038,-1.5167,-0.0483,0.12362,0.47586
-18.7489,0,0,33.7489,33.7489,5,5,42.7665,2.45428,-23.319,-0.0743646,0.0720849,-1.50667,1,0,171.728,-1.8025,5.425,-0.07198,-0.59353,-2.24321,-0.0483,0.12362,0.47586
-18.8749,0,0,33.8749,33.8749,5,5,43.0654,2.44461,-23.3212,-0.074196,0.0759073,-1.51021,1,0,171.203,-4.97,2.5375,-0.07198,-0.59353,-2.24321,-0.0483,0.12362,0.47586
-19.001,0,0,34.001,34.001,5,5,43.3643,2.43177,-23.3229,1.00239,0.314073,-0.671452,1,0,171.168,-6.16,3.99,1.00894,-0.359412,-1.40739,-0.0483,0.12362,0.47586
-19.1213,0,0,34.1213,34.1213,5,5,43.6489,2.40941,-23.3247,1.00278,0.317684,-0.674856,1,0,163.135,-10.1675,7.8575,1.00894,-0.359412,-1.40739,-0.0483,0.12362,0.47586
-19.2403,0,0,34.2403,34.2403,5,5,43.9299,2.38439,-23.3221,0.828642,1.70004,-0.826632,1,0,161.035,-9.5025,10.7975,0.833626,1.01797,-1.55465,-0.0483,0.12362,0.47586
-19.3645,0,0,34.3645,34.3645,5,5,44.2236,2.36213,-23.3199,0.829031,1.70374,-0.830184,1,0,168.193,-8.4525,9.555,0.833626,1.01797,-1.55465,-0.04774,0.11228,0.48426
-19.4929,0,0,34.4929,34.4929,5,5,44.5279,2.35095,-23.3147,-0.892956,1.31978,-0.427176,1,0,174.038,-2.52,6.335,-0.895846,0.630618,-1.15107,-0.04774,0.11228,0.48426
-19.62,0,0,34.62,34.62,5,5,44.829,2.34129,-23.3112,-0.892787,1.32352,-0.430862,1,0,172.27,-2.5725,5.005,-0.895846,0.630618,-1.15107,-0.04774,0.11228,0.48426
-19.7396,0,0,34.7396,34.7396,5,5,45.111,2.73299,-23.1419,0.257534,-0.0558115,0.00904607,0,0,174.93,-3.675,4.725,0.266204,-0.750544,-0.710894,-0.04774,0.11228,0.48426
-19.8579,0,0,34.8579,34.8579,5,5,45.3897,3.10538,-22.9827,0.251043,-0.0526272,0.00536367,0,0,174.65,-11.06,4.7775,0.266204,-0.750544,-0.710894,-0.04774,0.11228,0.48426
-19.9854,0,0,34.9854,34.9854,5,5,45.6914,3.08252,-22.9865,0.140647,0.515663,-0.687255,1,0,172.848,-10.955,7.56,0.15494,-0.186538,-1.39446,-0.04774,0.11228,0.48426
-20.1178,0,0,35.1178,35.1178,5,5,46.005,3.06126,-22.9829,0.141017,0.519485,-0.691163,1,0,179.27,-7.14,9.9575,0.15494,-0.186538,-1.39446,-0.04774,0.11228,0.48426
-20.2558,0,0,35.2558,35.2558,5,5,46.3328,3.04764,-22.976,-0.256246,-0.0803442,-0.49991,1,0,187.128,-2.5725,8.1375,-0.244244,-0.789706,-1.2006,-0.04774,0.11228,0.48426
-20.3943,0,0,35.3943,35.3943,5,5,46.6615,3.0418,-22.9717,-0.256145,-0.0763975,-0.504061,1,0,187.67,-0.5075,3.7975,-0.244244,-0.789706,-1.2006,-0.04774,0.11228,0.48426
-20.6517,0,0,35.6517,35.6517,5,5,47.2872,3.02451,-22.5601,-0.0121431,-0.15309,0.250012,0,0,189.91,-4.7775,4.97,0.000488,-0.873764,-0.444446,-0.04256,0.09338,0.49672
-20.9077,0,0,35.9077,35.9077,5,5,47.9093,2.99682,-22.1593,-0.0116605,-0.145759,0.242022,0,0,193.708,-10.9375,7.525,0.000488,-0.873764,-0.444446,-0.04256,0.09338,0.49672
-21.0453,0,0,36.0453,36.0453,5,5,48.2351,2.9681,-22.1598,0.268014,0.364636,-0.481925,1,0,186.218,-11.4275,11.8825,0.280844,-0.367708,-1.15863,-0.04256,0.09338,0.49672
-21.1828,0,0,36.1828,36.1828,5,5,48.5609,2.93938,-22.1605,0.268515,0.368425,-0.486154,1,0,186.218,-11.4275,11.8825,0.280844,-0.367708,-1.15863,-0.04256,0.09338,0.49672
-21.3251,0,0,36.3251,36.3251,5,5,48.8981,2.92888,-22.1586,-0.468356,1.47975,-0.553639,1,0,192.57,-3.2025,4.935,-0.45933,0.738588,-1.22122,-0.04256,0.09338,0.49672
-21.4674,0,0,36.4674,36.4674,5,5,49.2353,2.91836,-22.1568,-0.468173,1.48361,-0.558073,1,0,192.57,-3.2025,4.935,-0.45933,0.738588,-1.22122,-0.04256,0.09338,0.49672
-21.6111,0,0,36.6111,36.6111,5,5,49.576,2.90168,-22.1666,0.0634967,1.20061,0.387696,1,0,194.845,-10.6925,3.2725,0.074298,0.45201,-0.278282,-0.04256,0.09338,0.49672
-21.7548,0,0,36.7548,36.7548,5,5,49.9167,2.88506,-22.1765,0.0637864,1.20446,0.383173,1,0,194.845,-10.6925,3.2725,0.074298,0.45201,-0.278282,-0.04256,0.09338,0.49672
-21.591,0,0,36.591,36.591,5,5,49.4885,4.16302,-22.7264,0.726582,0.995861,0.117243,0,0,197.715,-12.005,10.325,0.762256,0.24949,-0.546926,-0.03962,0.07378,0.50792
-21.7385,0,0,36.7385,36.7385,5,5,49.8386,4.15148,-22.72,-0.0088127,-0.92893,-0.579102,1,0,199.623,-1.505,7.14,0.023546,-1.67726,-1.2333,-0.03962,0.07378,0.50792
-21.8861,0,0,36.8861,36.8861,5,5,50.1888,4.1399,-22.7137,-0.00861117,-0.925002,-0.583763,1,0,199.623,-1.505,7.14,0.023546,-1.67726,-1.2333,-0.03962,0.07378,0.50792
-22.031,0,0,37.031,37.031,5,5,50.5322,4.13132,-22.7091,0.148619,1.82118,0.0469151,1,0,195.913,-1.12,5.1625,0.181292,1.06225,-0.602924,-0.03962,0.07378,0.50792
-22.1761,0,0,37.1761,37.1761,5,5,50.8757,4.1227,-22.7046,0.148769,1.82497,0.0422954,1,0,195.913,-1.12,5.1625,0.181292,1.06225,-0.602924,-0.03962,0.07378,0.50792
-22.336,0,0,37.336,37.336,5,5,51.2563,4.09754,-22.7094,0.451099,1.46437,-0.701759,1,0,217.123,-11.41,9.275,0.484462,0.69784,-1.33614,-0.03962,0.07378,0.50792
-22.496,0,0,37.496,37.496,5,5,51.6368,4.07241,-22.7143,0.451537,1.46852,-0.706921,1,0,217.123,-11.41,9.275,0.484462,0.69784,-1.33614,-0.03962,0.07378,0.50792
-22.4996,0,0,37.4996,37.4996,5,5,51.6267,4.16646,-22.5286,0.0734153,0.295779,-0.266699,0,0,216.143,-1.435,9.73,0.106384,-0.473482,-0.899384,-0.03962,0.07378,0.50792
-22.6574,0,0,37.6574,37.6574,5,5,52.0017,4.15173,-22.5285,0.784849,2.47625,-1.09103,1,0,213.815,-5.2325,6.4225,0.820572,1.70068,-1.71227,-0.04592,0.0616,0.52542
-22.8108,0,0,37.8108,37.8108,5,5,52.3654,4.14382,-22.5334,0.784987,2.48014,-1.09602,1,0,207.69,-5.0925,1.4875,0.820572,1.70068,-1.71227,-0.04592,0.0616,0.52542
-22.9714,0,0,37.9714,37.9714,5,5,52.7472,4.12005,-22.5414,1.55951,-1.71561,-0.545061,1,0,217.928,-12.1625,7.77,1.59796,-2.49478,-1.16034,-0.04592,0.0616,0.52542
-23.1321,0,0,38.1321,38.1321,5,5,53.129,4.09634,-22.5496,1.55992,-1.71158,-0.550346,1,0,217.928,-12.1625,7.77,1.59796,-2.49478,-1.16034,-0.04592,0.0616,0.52542
-23.2982,0,0,38.2982,38.2982,5,5,53.5241,4.06941,-22.5499,0.481474,-0.0468904,-0.290889,1,0,225.068,-9.5025,12.1275,0.514474,-0.835944,-0.897432,-0.04592,0.0616,0.52542
-23.4643,0,0,38.4643,38.4643,5,5,53.9192,4.04249,-22.5503,0.481943,-0.0427938,-0.296414,1,0,225.068,-9.5025,12.1275,0.514474,-0.835944,-0.897432,-0.04592,0.0616,0.52542
-23.6267,0,0,38.6267,38.6267,5,5,54.3047,4.03058,-22.5571,0.257645,2.94068,0.653958,1,0,219.993,-7.315,2.8875,0.289018,2.14049,0.050996,-0.04592,0.0616,0.52542
-23.792,0,0,38.792,38.792,5,5,54.6977,4.01257,-22.5637,-0.195669,-0.420044,0.170008,1,0,224.123,-9.205,5.95,-0.16653,-1.22073,-0.423706,-0.04256,0.03542,0.52696
-23.9627,0,0,38.9627,38.9627,5,5,55.1038,3.98216,-22.5736,-0.390246,3.24126,-1.35478,1,0,231.613,-14.945,10.815,-0.362462,2.43268,-1.93102,-0.04256,0.03542,0.52696
-24.1429,0,0,39.1429,39.1429,5,5,55.5335,3.9468,-22.5803,-0.38963,3.24555,-1.36091,1,0,244.72,-14.98,14.35,-0.362462,2.43268,-1.93102,-0.04256,0.03542,0.52696
-24.3203,0,0,39.3203,39.3203,5,5,55.9559,3.92289,-22.5744,-1.29914,-0.535237,-1.1528,1,0,240.135,-5.005,13.0725,-1.27624,-1.34834,-1.71849,-0.04256,0.03542,0.52696
-24.4909,0,0,39.4909,39.4909,5,5,56.3612,3.9125,-22.5779,-1.29896,-0.531296,-1.15865,1,0,230.948,-5.0925,3.4825,-1.27624,-1.34834,-1.71849,-0.04256,0.03542,0.52696
-24.6609,0,0,39.6609,39.6609,5,5,56.765,3.90331,-22.5831,0.516074,1.57072,-0.775507,1,0,230.16,-5.46,2.415,0.546316,0.747616,-1.33248,-0.04256,0.03542,0.52696
-24.8421,0,0,39.8421,39.8421,5,5,57.1966,3.87699,-22.5947,0.516532,1.57485,-0.78179,1,0,245.945,-14.0875,8.785,0.546316,0.747616,-1.33248,-0.04256,0.03542,0.52696
-25.0224,0,0,40.0224,40.0224,5,5,57.6257,3.84951,-22.6017,-3.35583,3.75178,0.876777,1,0,244.388,-12.0925,10.92,-3.34292,2.91824,0.319518,-0.04256,0.03542,0.52696
-25.2097,0,0,40.2097,40.2097,5,5,58.0722,3.81856,-22.5996,-3.35529,3.75594,0.870213,1,0,253.82,-8.5575,15.5575,-3.34292,2.91824,0.319518,-0.03836,0.01568,0.53634
-25.4017,0,0,40.4017,40.4017,5,5,58.5301,3.80268,-22.5871,-2.97877,-0.789803,-0.190353,1,0,259.788,1.3475,11.305,-2.96509,-1.62699,-0.726144,-0.03836,0.01568,0.53634
-25.5819,0,0,40.5819,40.5819,5,5,58.9586,3.7912,-22.5936,-2.97857,-0.78592,-0.196726,1,0,244.055,-6.72,3.36,-2.96509,-1.62699,-0.726144,-0.03836,0.01568,0.53634
-25.7656,0,0,40.7656,40.7656,5,5,59.3954,3.77675,-22.6002,-0.804094,-0.528472,-0.741888,1,0,248.71,-7.6125,4.8825,-0.781654,-1.37372,-1.26063,-0.03836,0.01568,0.53634
-25.9607,0,0,40.9607,40.9607,5,5,59.8607,3.746,-22.6107,-0.803558,-0.524345,-0.748862,1,0,264.81,-14.385,11.9875,-0.781654,-1.37372,-1.26063,-0.03836,0.01568,0.53634
-26.1498,0,0,41.1498,41.1498,5,5,60.311,3.69949,-22.6155,-0.959951,0.0713153,-1.51472,1,0,256.148,-15.995,21.735,-0.939522,-0.78263,-2.01385,-0.03836,0.01568,0.53634
-26.3477,0,0,41.3477,41.3477,5,5,60.783,3.67375,-22.6118,-0.959502,0.075383,-1.52186,1,0,268.065,-5.4775,13.755,-0.939522,-0.78263,-2.01385,-0.03836,0.01568,0.53634
-26.5401,0,0,41.5401,41.5401,5,5,61.2408,3.66824,-22.612,0.0973977,2.90893,-0.930689,1,0,260.26,-1.6275,2.3625,0.121756,2.04411,-1.42032,-0.03836,0.01568,0.53634
-26.7251,0,0,41.7251,41.7251,5,5,61.6802,3.65361,-22.623,0.0976525,2.9126,-0.937404,1,1,250.285,-9.7475,4.025,0.121756,2.04411,-1.42032,-0.0392,-0.01806,0.54264
-26.9195,0,0,41.9195,41.9195,5,5,62.1431,3.62456,-22.6408,0.870807,0.0143274,-1.09081,1,1,263.725,-17.1675,9.6775,0.897676,-0.854976,-1.5655,-0.0392,-0.01806,0.54264
-27.1141,0,0,42.1141,42.1141,5,5,62.6061,3.59566,-22.6589,0.871311,0.0180945,-1.09794,1,1,263.725,-17.1675,9.6775,0.897676,-0.854976,-1.5655,-0.0392,-0.01806,0.54264
-27.312,0,0,42.312,42.312,5,5,63.0771,3.56846,-22.6611,-0.413291,1.87807,2.62356,1,1,267.698,-8.4175,13.125,-0.39284,0.999302,2.13451,-0.0392,-0.01806,0.54264
-27.5099,0,0,42.5099,42.5099,5,5,63.548,3.54128,-22.6636,-0.412817,1.88178,2.61624,1,1,267.698,-8.4175,13.125,-0.39284,0.999302,2.13451,-0.0392,-0.01806,0.54264
-27.7121,0,0,42.7121,42.7121,5,5,64.0295,3.53699,-22.6618,0.738091,2.16357,1.09633,1,1,273.42,-0.14,2.31,0.762866,1.2771,0.63379,-0.0392,-0.01806,0.54264
-27.9138,0,0,42.9138,42.9138,5,5,64.5096,3.52921,-22.6518,3.86782,2.33147,-0.199705,1,1,272.405,3.29,6.2125,3.90571,1.44119,-0.64477,-0.0392,-0.01806,0.54264
-28.1265,0,0,43.1265,43.1265,5,5,65.0169,3.501,-22.6538,3.86831,2.33527,-0.207686,1,1,288.033,-8.0675,14,3.90571,1.44119,-0.64477,-0.0392,-0.01806,0.54264
-28.3387,0,0,43.3387,43.3387,5,5,65.5229,3.46742,-22.6542,0.134912,0.878717,1.67011,1,1,287.228,-8.4,17.3075,0.155916,-0.017568,1.22647,-0.0392,-0.01806,0.54264
-28.5516,0,0,43.5516,43.5516,5,5,66.0303,3.45031,-22.6379,0.13521,0.88236,1.66205,1,1,287.508,4.6025,12.6,0.155916,-0.017568,1.22647,-0.02968,-0.04704,0.53438
-28.7604,0,0,43.7604,43.7604,5,5,66.5274,3.44781,-22.6311,-1.72518,2.65778,-0.661856,1,1,282.013,3.08,2.5375,-1.71239,1.75253,-1.07165,-0.02968,-0.04704,0.53438
-28.9622,0,0,43.9622,43.9622,5,5,67.0068,3.44582,-22.6381,-1.72514,2.66108,-0.66953,1,1,272.562,-4.2,-0.945,-1.71239,1.75253,-1.07165,-0.02968,-0.04704,0.53438
-29.165,0,0,44.165,44.165,5,5,67.4884,3.42981,-22.6463,3.31266,-3.09137,-1.43044,1,1,273.84,-8.0325,6.37,3.34646,-3.99721,-1.81902,-0.02968,-0.04704,0.53438
-29.3716,0,0,44.3716,44.3716,5,5,67.9796,3.39876,-22.6794,3.3132,-3.0881,-1.43835,1,1,280.053,-24.78,9.065,3.34646,-3.99721,-1.81902,-0.02968,-0.04704,0.53438
-29.5669,0,0,44.5669,44.5669,5,5,68.442,3.3612,-22.7141,0.759863,1.11926,-0.888983,1,1,263.953,-26.95,12.46,0.781654,0.202764,-1.26648,-0.02968,-0.04704,0.53438
-29.7694,0,0,44.7694,44.7694,5,5,68.9224,3.36311,-22.71,0.759829,1.1223,-0.896782,1,1,272.755,2.6425,-0.5775,0.781654,0.202764,-1.26648,-0.02968,-0.04704,0.53438
-29.9626,0,0,44.9626,44.9626,5,5,69.3796,3.36582,-22.7089,2.39571,-1.38457,-0.476119,1,1,259.823,1.19,-1.645,2.42451,-2.30434,-0.841678,-0.02968,-0.04704,0.53438
-30.1707,0,0,45.1707,45.1707,5,5,69.8736,3.36021,-22.7176,2.39581,-1.38157,-0.484187,1,1,280.823,-5.88,0.91,2.42451,-2.30434,-0.841678,-0.03934,-0.07238,0.546
-30.3835,0,0,45.3835,45.3835,5,5,70.3791,3.34614,-22.7322,0.746154,3.56,-1.23507,1,1,287.42,-10.815,4.4275,0.767624,2.6291,-1.57856,-0.03934,-0.07238,0.546
-30.5962,0,0,45.5962,45.5962,5,5,70.8842,3.33187,-22.7366,0.746403,3.56294,-1.24337,1,1,286.913,-5.1625,6.615,0.767624,2.6291,-1.57856,-0.03934,-0.07238,0.546
-30.8053,0,0,45.8053,45.8053,5,5,71.3803,3.33586,-22.7211,0.319311,-0.865764,-3.35077,1,1,281.173,9.3625,0.315,0.338794,-1.79779,-3.66159,-0.03934,-0.07238,0.546
-30.9726,0,0,45.9726,45.9726,5,5,71.7717,3.3415,-22.7329,0.319213,-0.863615,-3.35725,1,1,223.353,-5.4775,-5.6875,0.338794,-1.79779,-3.66159,-0.03934,-0.07238,0.546
-31.1444,0,0,46.1444,46.1444,5,5,72.174,3.34576,-22.7549,1.27936,-2.73793,-1.63772,1,1,229.863,-11.41,-6.72,1.30308,-3.67232,-1.94871,-0.03934,-0.07238,0.546
-31.3349,0,0,46.3349,46.3349,5,5,72.623,3.35182,-22.774,1.27926,-2.73557,-1.64518,1,1,255.903,-9.5725,-7.14,1.30308,-3.67232,-1.94871,-0.03934,-0.07238,0.546
-31.5336,0,0,46.5336,46.5336,5,5,73.0925,3.34914,-22.7863,-0.442879,2.38909,0.522091,1,1,267.173,-7.2975,-1.015,-0.42639,1.4446,0.209596,-0.03934,-0.07238,0.546
-31.7146,0,0,46.7146,46.7146,5,5,73.5174,3.35382,-22.7704,-0.44296,2.39121,0.514999,1,1,241.238,9.73,-0.35,-0.42639,1.4446,0.209596,-0.02856,-0.11046,0.54264
-31.8825,0,0,46.8825,46.8825,5,5,73.9094,3.37025,-22.7422,-0.76737,1.00636,-2.62933,1,1,222.443,18.515,-5.005,-0.751886,0.059292,-2.90397,-0.02856,-0.11046,0.54264
-32.0326,0,0,47.0326,47.0326,5,5,74.2569,3.39335,-22.7374,-0.767773,1.008,-2.63516,1,1,198.188,6.475,-12.5825,-0.751886,0.059292,-2.90397,-0.02856,-0.11046,0.54264
-32.1831,0,0,47.1831,47.1831,5,5,74.605,3.41154,-22.7344,-2.05572,2.20486,-2.3581,1,1,198.625,4.585,-10.15,-2.04496,1.25331,-2.62324,-0.02856,-0.11046,0.54264
-32.3457,0,0,47.3457,47.3457,5,5,74.9835,3.4111,-22.7334,-2.05571,2.20659,-2.36447,1,1,215.705,0.5075,0,-2.04496,1.25331,-2.62324,-0.02856,-0.11046,0.54264
-32.5067,0,0,47.5067,47.5067,5,5,75.3577,3.40306,-22.7286,-1.69184,-0.47498,2.78582,1,1,213.203,1.5225,4.8475,-1.6797,-1.42716,2.49356,-0.02856,-0.11046,0.54264
-32.6376,0,0,47.6376,47.6376,5,5,75.6565,3.43062,-22.69,-1.69232,-0.473705,2.78077,1,1,169.785,25.9175,-10.3425,-1.6797,-1.42716,2.49356,-0.02856,-0.11046,0.54264
-32.7509,0,0,47.7509,47.7509,5,5,75.9114,3.45895,-22.6749,1.20802,-0.320595,1.04842,1,1,145.968,12.6525,-14.2625,1.23342,-1.27527,0.778848,-0.02856,-0.11046,0.54264
-32.8642,0,0,47.8642,47.8642,5,5,76.1661,3.47571,-22.6671,1.20773,-0.319541,1.04411,1,1,146.09,6.86,-8.785,1.23342,-1.27527,0.778848,-0.03248,-0.12824,0.54152
-32.9755,0,0,47.9755,47.9755,5,5,76.4156,3.48221,-22.6699,3.03391,4.50073,-0.746683,1,1,143.518,-0.7,-4.48,3.06745,3.53898,-0.993934,-0.03248,-0.12824,0.54152
-33.0883,0,0,48.0883,48.0883,5,5,76.6689,3.47307,-22.6671,3.03407,4.50176,-0.750972,1,1,145.46,0.42,5.18,3.06745,3.53898,-0.993934,-0.03248,-0.12824,0.54152
-33.1935,0,0,48.1935,48.1935,5,5,76.9031,3.47461,-22.6496,0.729702,2.01827,-1.91128,1,1,134.295,10.15,1.05,0.75335,1.05713,-2.14134,-0.03248,-0.12824,0.54152
-33.2689,0,0,48.2689,48.2689,5,5,77.0627,3.47791,-22.629,0.729645,2.01889,-1.91399,1,1,92.3475,12.2325,0.4375,0.75335,1.05713,-2.14134,-0.03248,-0.12824,0.54152
-33.3437,0,0,48.3437,48.3437,5,5,77.2208,3.46986,-22.6092,1.45663,-1.11328,0.550293,1,1,91.49,10.2375,6.7375,1.48328,-2.07241,0.306586,-0.03248,-0.12824,0.54152
-33.4177,0,0,48.4177,48.4177,5,5,77.3768,3.44941,-22.6161,1.45699,-1.11266,0.547647,1,1,91.245,-6.545,10.36,1.48328,-2.07241,0.306586,-0.03248,-0.12824,0.54152
-33.492,0,0,48.492,48.492,5,5,77.5334,3.42444,-22.6194,-1.2415,1.12788,1.13945,1,1,91.455,-4.9875,13.4225,-1.22708,0.165188,0.896456,-0.03248,-0.12824,0.54152
-33.5548,0,0,48.5548,48.5548,5,5,77.6613,3.40601,-22.6035,-1.24118,1.12838,1.13727,1,1,74.76,6.7725,12.0925,-1.22708,0.165188,0.896456,-0.03136,-0.14252,0.54782
-33.599,0,0,48.599,48.599,5,5,77.7425,3.38652,-22.5761,0.562979,3.1074,1.50806,1,1,48.1425,13.23,14.105,0.58438,2.14183,1.26575,-0.03136,-0.14252,0.54782
-33.6359,0,0,48.6359,48.6359,5,5,77.8055,3.36464,-22.5506,0.56336,3.10765,1.50699,1,1,38.08,11.8825,15.225,0.58438,2.14183,1.26575,-0.03136,-0.14252,0.54782
-33.6757,0,0,48.6757,48.6757,5,5,77.876,3.33996,-22.5446,-0.252715,4.88512,-1.86312,1,1,42.875,0.4025,14.42,-0.235582,3.91718,-2.07717,-0.03136,-0.14252,0.54782
-33.7073,0,0,48.7073,48.7073,5,5,77.9256,3.30765,-22.5486,-0.252152,4.88534,-1.86395,1,1,31.4825,-6.195,17.5525,-0.235582,3.91718,-2.07717,-0.03136,-0.14252,0.54782
-33.7395,0,0,48.7395,48.7395,5,5,77.977,3.27661,-22.5506,0.913923,2.2685,-0.457186,1,1,32.445,-4.9,17.08,0.934886,1.30284,-0.680394,-0.03136,-0.14252,0.54782
-33.7588,0,0,48.7588,48.7588,5,5,77.9959,3.24879,-22.542,0.914407,2.26859,-0.457501,1,1,13.8425,1.5575,16.52,0.934886,1.30284,-0.680394,-0.03136,-0.14252,0.54782
-33.7721,0,0,48.7721,48.7721,5,5,78,3.21955,-22.5362,0.904955,3.32809,0.663232,1,1,5.705,-0.245,16.9925,0.924882,2.36119,0.431758,-0.03136,-0.14252,0.54782
-33.7889,0,0,48.7889,48.7889,5,5,78.0127,3.19634,-22.5348,0.905359,3.32816,0.663022,1,1,10.5875,-1.995,13.02,0.924882,2.36119,0.431758,-0.03136,-0.14252,0.54782
-33.8074,0,0,48.8074,48.8074,5,5,78.0297,3.17514,-22.5363,1.16474,2.99288,0.112048,1,1,13.1775,-3.43,11.515,1.18499,2.02618,-0.11468,-0.02912,-0.147,0.54432
-33.8211,0,0,48.8211,48.8211,5,5,78.0347,3.16518,-22.5373,1.17815,2.84025,-0.284666,1,1,6.37,-1.715,5.18,1.19828,1.87368,-0.508252,-0.02912,-0.147,0.54432
-33.831,0,0,48.831,48.831,5,5,78.0301,3.1667,-22.5361,1.17813,2.84023,-0.284588,1,1,0.945,0.91,-1.12,1.19828,1.87368,-0.508252,-0.02912,-0.147,0.54432
-33.8367,0,0,48.8367,48.8367,5,5,78.0152,3.17249,-22.536,-0.215173,3.86151,0.136026,1,1,-4.8125,0.77,-3.6925,-0.200812,2.89396,-0.091134,-0.02912,-0.147,0.54432
-33.8374,0,0,48.8374,48.8374,5,5,77.9877,3.18481,-22.532,-0.215388,3.8614,0.136493,1,1,-12.005,3.815,-6.9475,-0.200812,2.89396,-0.091134,-0.02912,-0.147,0.54432
-33.8328,0,0,48.8328,48.8328,5,5,77.9469,3.20296,-22.5407,-0.699582,3.57925,-1.46238,1,1,-19.005,-2.73,-11.8125,-0.686738,2.61226,-1.67835,-0.02912,-0.147,0.54432
-33.8298,0,0,48.8298,48.8298,5,5,77.9102,3.22394,-22.5433,-0.699948,3.57909,-1.46175,1,1,-16.975,1.1025,-12.6875,-0.686738,2.61226,-1.67835,-0.02912,-0.147,0.54432
-33.834,0,0,48.834,48.834,5,5,77.8916,3.244,-22.5454,0.0299535,1.04072,0.496144,1,1,-6.8075,1.3125,-12.0925,0.046604,0.076616,0.26413,-0.02912,-0.147,0.54432
-33.8273,0,0,48.8273,48.8273,5,5,77.8455,3.26233,-22.5445,0.029634,1.04054,0.496925,1,1,-22.295,2.8,-10.745,0.046604,0.076616,0.26413,-0.02422,-0.15302,0.54292
-33.8121,0,0,48.8121,48.8121,5,5,77.7784,3.28496,-22.5317,-1.19315,1.56859,0.628512,1,1,-34.4925,10.0975,-11.7425,-1.18096,0.604388,0.393572,-0.02422,-0.15302,0.54292
-33.7929,0,0,48.7929,48.7929,5,5,77.7013,3.31324,-22.5257,-1.19364,1.56828,0.629819,1,1,-39.865,7.0175,-15.7675,-1.18096,0.604388,0.393572,-0.02422,-0.15302,0.54292
-33.7725,0,0,48.7725,48.7725,5,5,77.6212,3.33804,-22.5208,-0.671078,2.14256,0.158193,1,1,-41.4925,5.9325,-13.93,-0.65575,1.1784,-0.075762,-0.02422,-0.15302,0.54292
-33.7556,0,0,48.7556,48.7556,5,5,77.5498,3.36059,-22.5189,-0.671471,2.14227,0.159403,1,1,-36.5225,3.9025,-13.02,-0.65575,1.1784,-0.075762,-0.02422,-0.15302,0.54292
-33.4413,0,0,48.4413,48.4413,5,5,76.7352,3.44525,-22.5595,-0.0265208,1.84812,-0.429104,0,1,-44.8525,4.0075,-10.9025,-0.006588,0.887794,-0.67344,-0.02422,-0.15302,0.54292
-33.1097,0,0,48.1097,48.1097,5,5,75.8779,3.53102,-22.5947,-0.028015,1.8445,-0.414615,0,1,-64.085,8.26,-10.36,-0.006588,0.887794,-0.67344,-0.02422,-0.15302,0.54292
-33.0685,0,0,48.0685,48.0685,5,5,75.7464,3.54965,-22.5866,-0.20498,1.75891,-1.1603,1,1,-70.4375,7.2975,-9.7825,-0.183976,0.802882,-1.41557,-0.02422,-0.15302,0.54292
-33.03,0,0,48.03,48.03,5,5,75.6219,3.56161,-22.5754,-0.205188,1.75837,-1.1582,1,1,-66.6225,8.085,-5.5475,-0.183976,0.802882,-1.41557,-0.0217,-0.14938,0.54124
-32.995,0,0,47.995,47.995,5,5,75.5059,3.56884,-22.5614,-0.27942,1.74833,-1.33698,1,1,-61.985,9.0125,-2.45,-0.258396,0.793366,-1.59491,-0.0217,-0.14938,0.54124
-32.9535,0,0,47.9535,47.9535,5,5,75.374,3.56882,-22.5499,-0.27942,1.74775,-1.33475,1,1,-70.7875,6.5275,1.295,-0.258396,0.793366,-1.59491,-0.0217,-0.14938,0.54124
-32.9053,0,0,47.9053,47.9053,5,5,75.2253,3.56732,-22.5383,-0.618825,1.82171,-1.02352,1,1,-80.255,6.3875,2.17,-0.599264,0.867908,-1.28856,-0.0217,-0.14938,0.54124
-32.8455,0,0,47.8455,47.8455,5,5,75.0478,3.56743,-22.526,-0.618827,1.82092,-1.02053,1,1,-96.3725,6.9475,1.365,-0.599264,0.867908,-1.28856,-0.0217,-0.14938,0.54124
-32.7874,0,0,47.7874,47.7874,5,5,74.8743,3.56555,-22.5162,-0.790818,0.455739,-0.934872,1,1,-94.0275,5.3025,2.1525,-0.772016,-0.495076,-1.20646,-0.0217,-0.14938,0.54124
-32.7383,0,0,47.7383,47.7383,5,5,74.7236,3.56455,-22.5064,-0.7908,0.455052,-0.932337,1,1,-81.305,5.4075,1.6625,-0.772016,-0.495076,-1.20646,-0.0217,-0.14938,0.54124
-32.6837,0,0,47.6837,47.6837,5,5,74.559,3.56633,-22.4967,0.0671007,2.4314,-0.768019,1,1,-89.04,5.74,0.0875,0.089548,1.47998,-1.04615,-0.0217,-0.14938,0.54124
-32.6117,0,0,47.6117,47.6117,5,5,74.3513,3.57565,-22.4841,0.0669384,2.43042,-0.764536,1,1,-113.348,8.6275,-3.6575,0.089548,1.47998,-1.04615,-0.02436,-0.13986,0.54012
-32.5323,0,0,47.5323,47.5323,5,5,74.1249,3.58667,-22.4818,-1.60733,1.22175,-1.95052,1,1,-123.445,3.0625,-6.23,-1.59161,0.273646,-2.22674,-0.02436,-0.13986,0.54012
-32.4594,0,0,47.4594,47.4594,5,5,73.9149,3.59561,-22.4825,-1.60748,1.22073,-1.947,1,1,-114.188,1.05,-5.53,-1.59161,0.273646,-2.22674,-0.02436,-0.13986,0.54012
-32.395,0,0,47.395,47.395,5,5,73.7263,3.60555,-22.482,-0.768189,2.32725,-1.73041,1,1,-102.183,1.96,-5.88,-0.748592,1.37994,-2.01495,-0.02436,-0.13986,0.54012
-32.3308,0,0,47.3308,47.3308,5,5,73.5382,3.61395,-22.4807,-0.768336,2.32632,-1.72727,1,1,-101.938,2.1525,-4.8825,-0.748592,1.37994,-2.01495,-0.02436,-0.13986,0.54012
-32.2633,0,0,47.2633,47.2633,5,5,73.3419,3.62487,-22.4814,0.365057,0.607499,-0.764384,1,1,-106.47,1.4175,-6.6325,0.38979,-0.33611,-1.06274,-0.02436,-0.13986,0.54012
-32.1797,0,0,47.1797,47.1797,5,5,73.1056,3.64018,-22.4845,0.36479,0.606295,-0.760448,1,1,-128.818,0.91,-9.4675,0.38979,-0.33611,-1.06274,-0.02436,-0.13986,0.54012
-32.0973,0,0,47.0973,47.0973,5,5,72.8724,3.65627,-22.4925,-0.59219,0.222832,-1.13918,1,1,-126.945,-1.715,-10.745,-0.57096,-0.71797,-1.44241,-0.02436,-0.13986,0.54012
-32.0285,0,0,47.0285,47.0285,5,5,72.6729,3.67084,-22.5035,-0.592443,0.221788,-1.13587,1,1,-107.87,-3.57,-10.4125,-0.57096,-0.71797,-1.44241,-0.02548,-0.12698,0.53984
-31.9564,0,0,46.9564,46.9564,5,5,72.4655,3.68483,-22.51,0.0808297,3.40051,0.426927,1,1,-112.473,-1.12,-9.31,0.105408,2.45854,0.10492,-0.02548,-0.12698,0.53984
-31.8759,0,0,46.8759,46.8759,5,5,72.2372,3.70267,-22.5182,0.0805191,3.39928,0.430711,1,1,-124.18,-1.4175,-11.7775,0.105408,2.45854,0.10492,-0.02548,-0.12698,0.53984
-31.7887,0,0,46.7887,46.7887,5,5,71.9922,3.72377,-22.5255,0.638743,1.44416,-1.14156,1,1,-133.508,-0.2275,-13.4225,0.666364,0.506788,-1.45924,-0.02548,-0.12698,0.53984
-31.7059,0,0,46.7059,46.7059,5,5,71.7584,3.73466,-22.5383,0.638553,1.44288,-1.13769,1,1,-127.103,-5.0925,-8.75,0.666364,0.506788,-1.45924,-0.02548,-0.12698,0.53984
-31.6323,0,0,46.6323,46.6323,5,5,71.5476,3.73495,-22.565,0.805348,1.16365,-1.18376,1,1,-113.645,-14.7525,-5.46,0.83387,0.228994,-1.50841,-0.02548,-0.12698,0.53984
-31.5612,0,0,46.5612,46.5612,5,5,71.343,3.73759,-22.5862,0.805302,1.16251,-1.18038,1,1,-110.338,-11.2,-5.775,0.83387,0.228994,-1.50841,-0.02548,-0.12698,0.53984
-31.488,0,0,46.488,46.488,5,5,71.1333,3.74528,-22.5957,0.764349,-0.578491,-1.19869,1,1,-113.698,-3.78,-6.4225,0.792878,-1.50902,-1.53,-0.02548,-0.12698,0.53984
-31.4104,0,0,46.4104,46.4104,5,5,70.9128,3.756,-22.5998,0.764162,-0.579751,-1.19506,1,1,-119.91,-0.1925,-7.0875,0.792878,-1.50902,-1.53,-0.02604,-0.11074,0.55412
-31.3379,0,0,46.3379,46.3379,5,5,70.7049,3.75727,-22.6164,-0.221473,1.10917,0.274768,1,1,-112.403,-8.925,-4.2875,-0.196908,0.17934,-0.074908,-0.02604,-0.11074,0.55412
-31.2766,0,0,46.2766,46.2766,5,5,70.5254,3.75562,-22.6354,-0.221445,1.10813,0.277717,1,1,-96.39,-10.745,-3.15,-0.196908,0.17934,-0.074908,-0.02604,-0.11074,0.55412
-31.2103,0,0,46.2103,46.2103,5,5,70.3332,3.75251,-22.6524,0.51129,2.55312,0.391525,1,1,-103.548,-9.975,-2.0125,0.538874,1.62394,0.034892,-0.02604,-0.11074,0.55412
-31.1499,0,0,46.1499,46.1499,5,5,70.1558,3.75345,-22.6601,0.511273,2.55207,0.394433,1,1,-95.62,-3.9725,-2.415,0.538874,1.62394,0.034892,-0.02604,-0.11074,0.55412
-31.0868,0,0,46.0868,46.0868,5,5,69.9719,3.75536,-22.6683,-0.750632,0.861722,-2.47549,1,1,-99.2775,-4.1125,-3.08,-0.72834,-0.063562,-2.81588,-0.02604,-0.11074,0.55412
-31.0276,0,0,46.0276,46.0276,5,5,69.7975,3.7486,-22.6764,-0.750514,0.860685,-2.47264,1,1,-93.8875,-5.7925,1.68,-0.72834,-0.063562,-2.81588,-0.02604,-0.11074,0.55412
-30.9747,0,0,45.9747,45.9747,5,5,69.6393,3.7383,-22.6789,-0.265607,2.33015,0.171989,1,1,-85.05,-3.43,4.7425,-0.24156,1.40532,-0.194224,-0.02604,-0.11074,0.55412
-30.9219,0,0,45.9219,45.9219,5,5,69.4811,3.72798,-22.6813,-0.265427,2.3292,0.174574,1,1,-85.05,-3.43,4.7425,-0.24156,1.40532,-0.194224,-0.02604,-0.11074,0.55412
-30.861,0,0,45.861,45.861,5,5,69.3031,3.7255,-22.6815,-0.0299447,0.084394,-0.61554,1,1,-96.2675,-0.56,0.9275,-0.005124,-0.836066,-0.981124,-0.03192,-0.08918,0.55412
-30.8003,0,0,45.8003,45.8003,5,5,69.1253,3.71691,-22.6929,-0.208986,1.02319,-0.524487,1,1,-95.725,-8.015,1.925,-0.185074,0.102846,-0.89365,-0.03192,-0.08918,0.55412
-30.7395,0,0,45.7395,45.7395,5,5,68.9474,3.70828,-22.7044,-0.208836,1.02209,-0.521591,1,1,-95.725,-8.015,1.925,-0.185074,0.102846,-0.89365,-0.03192,-0.08918,0.55412
-30.698,0,0,45.698,45.698,5,5,68.818,3.70253,-22.7022,0.305513,3.56164,-0.222074,1,1,-69.0725,-0.0175,3.185,0.331352,2.64057,-0.598532,-0.03192,-0.08918,0.55412
-30.6566,0,0,45.6566,45.6566,5,5,68.6886,3.69678,-22.7,0.305613,3.56083,-0.219971,1,1,-69.0725,-0.0175,3.185,0.331352,2.64057,-0.598532,-0.03192,-0.08918,0.55412
-30.6075,0,0,45.6075,45.6075,5,5,68.5403,3.69586,-22.7014,0.536695,1.01404,-0.176131,1,1,-79.5725,-0.9275,-0.1925,0.563396,0.097356,-0.557418,-0.03192,-0.08918,0.55412
-30.5584,0,0,45.5584,45.5584,5,5,68.3919,3.69493,-22.7028,0.536711,1.01309,-0.173727,1,1,-79.5725,-0.9275,-0.1925,0.563396,0.097356,-0.557418,-0.03192,-0.08918,0.55412
-30.5232,0,0,45.5232,45.5232,5,5,68.2782,3.68409,-22.7071,-0.0407645,3.02929,-0.110407,1,1,-60.06,-4.6375,4.5675,-0.016714,2.11219,-0.496418,-0.02856,-0.08862,0.54838
-30.487,0,0,45.487,45.487,5,5,68.1621,3.67384,-22.7081,0.328123,2.69149,0.552076,1,1,-61.46,-2.7475,4.935,0.353556,1.77547,0.159088,-0.02856,-0.08862,0.54838
-30.4508,0,0,45.4508,45.4508,5,5,68.0461,3.6636,-22.7091,0.328301,2.69074,0.553955,1,1,-61.46,-2.7475,4.935,0.353556,1.77547,0.159088,-0.02856,-0.08862,0.54838
-30.4183,0,0,45.4183,45.4183,5,5,67.9393,3.65743,-22.7202,-0.288253,0.83629,-1.34744,1,1,-55.93,-7.3675,0.5075,-0.265716,-0.076372,-1.72935,-0.02856,-0.08862,0.54838
-30.3857,0,0,45.3857,45.3857,5,5,67.8325,3.65124,-22.7314,-0.288145,0.835596,-1.34571,1,1,-55.93,-7.3675,0.5075,-0.265716,-0.076372,-1.72935,-0.02856,-0.08862,0.54838
-30.368,0,0,45.368,45.368,5,5,67.7628,3.6503,-22.7383,0.202066,2.00243,-0.949308,1,1,-35.245,-3.9375,-1.4175,0.226554,1.0897,-1.33712,-0.02856,-0.08862,0.54838
-30.3503,0,0,45.3503,45.3503,5,5,67.6932,3.64936,-22.7453,0.202083,2.00197,-0.948185,1,1,-35.245,-3.9375,-1.4175,0.226554,1.0897,-1.33712,-0.02856,-0.08862,0.54838
-30.3312,0,0,45.3312,45.3312,5,5,67.6201,3.651,-22.7562,0.149329,1.45887,-1.13217,1,1,-37.03,-5.53,-3.71,0.173606,0.547658,-1.52085,-0.02856,-0.08862,0.54838
-30.3121,0,0,45.3121,45.3121,5,5,67.547,3.65263,-22.7672,0.149301,1.45839,-1.13099,1,1,-37.03,-5.53,-3.71,0.173606,0.547658,-1.52085,-0.0273,-0.08484,0.54936
-30.0747,0,0,45.0747,45.0747,5,5,66.9285,4.13102,-22.8196,0.421967,0.621768,-0.312032,0,1,-27.2825,-7.7175,-3.0975,0.455792,-0.283406,-0.717848,-0.0273,-0.08484,0.54936
-29.8395,0,0,44.8395,44.8395,5,5,66.3156,4.60376,-22.8762,0.41374,0.616959,-0.302492,0,1,-27.2825,-7.7175,-3.0975,0.455792,-0.283406,-0.717848,-0.0273,-0.08484,0.54936
-29.6434,0,0,44.6434,44.6434,5,5,65.8007,5.16141,-22.9247,0.607896,0.519386,-0.347512,0,1,-24.22,-3.92,-3.92,0.660508,-0.376492,-0.770308,-0.0273,-0.08484,0.54936
-29.4491,0,0,44.4491,44.4491,5,5,65.2904,5.71253,-22.9771,0.59832,0.514886,-0.339819,0,1,-24.22,-3.92,-3.92,0.660508,-0.376492,-0.770308,-0.0273,-0.08484,0.54936
-29.4455,0,0,44.4455,44.4455,5,5,65.2568,5.71937,-22.9908,-0.0483453,0.304329,-0.653182,1,1,-14.5075,-5.5475,-7.35,0.011224,-0.586576,-1.08177,-0.0273,-0.08484,0.54936
-29.4482,0,0,44.4482,44.4482,5,5,65.2392,5.72453,-23.0085,0.115085,1.13832,-0.40197,1,1,-5.32,-8.05,-7.42,0.175436,0.246684,-0.832772,-0.0273,-0.08484,0.54936
-29.4522,0,0,44.4522,44.4522,5,5,65.2247,5.73238,-23.0207,0.114948,1.1382,-0.401747,1,1,-3.885,-4.5325,-7.5425,0.175436,0.246684,-0.832772,-0.0273,-0.08484,0.54936
-29.3644,0,0,44.3644,44.3644,5,5,64.9808,6.26664,-23.0537,0.558938,0.297989,-0.139757,0,1,-3.3775,-2.3975,-7.3325,0.630618,-0.589992,-0.576206,-0.02548,-0.0784,0.55314
-29.3698,0,0,44.3698,44.3698,5,5,64.9699,6.27706,-23.0595,-0.128973,1.30788,-0.612822,1,1,-2.2225,-0.455,-7.3325,-0.060024,0.418948,-1.04578,-0.02548,-0.0784,0.55314
-29.3817,0,0,44.3817,44.3817,5,5,64.9752,6.28254,-23.0685,-0.129068,1.30791,-0.612911,1,1,7.105,-3.3425,-5.495,-0.060024,0.418948,-1.04578,-0.02548,-0.0784,0.55314
-29.395,0,0,44.395,44.395,5,5,64.9842,6.28733,-23.0737,0.143584,0.691348,-0.78088,1,1,8.8725,-1.5225,-4.2,0.213866,-0.19703,-1.21231,-0.02548,-0.0784,0.55314
-29.4092,0,0,44.4092,44.4092,5,5,64.9953,6.2912,-23.0755,0.143517,0.691423,-0.781058,1,1,9.905,0.035,-2.8875,0.213866,-0.19703,-1.21231,-0.02548,-0.0784,0.55314
-29.425,0,0,44.425,44.425,5,5,65.0106,6.29526,-23.076,-0.0545753,0.506994,-0.607206,1,1,12.145,0.7525,-2.6775,0.015006,-0.381372,-1.03956,-0.02548,-0.0784,0.55314
-29.4446,0,0,44.4446,44.4446,5,5,65.0351,6.29791,-23.0825,-0.0546211,0.507169,-0.607593,1,1,17.6925,-2.765,-3.395,0.015006,-0.381372,-1.03956,-0.02548,-0.0784,0.55314
-29.4653,0,0,44.4653,44.4653,5,5,65.0625,6.30183,-23.0889,-0.0323357,1.32976,-0.640855,1,1,19.32,-2.3975,-4.0425,0.037454,0.440176,-1.07214,-0.02548,-0.0784,0.55314
-29.4866,0,0,44.4866,44.4866,5,5,65.0913,6.30307,-23.0926,-0.0323574,1.32997,-0.641309,1,1,19.9325,-1.575,-1.9425,0.037454,0.440176,-1.07214,-0.02828,-0.08218,0.54838
-29.51,0,0,44.51,44.51,5,5,65.1254,6.304,-23.0943,-0.0433071,0.836096,-0.718075,1,1,22.8025,-0.665,-1.3125,0.026474,-0.053436,-1.14778,-0.02828,-0.08218,0.54838
-29.5347,0,0,44.5347,44.5347,5,5,65.1628,6.30354,-23.0932,-0.0432991,0.836369,-0.718663,1,1,24.43,0.5075,0.1225,0.026474,-0.053436,-1.14778,-0.02828,-0.08218,0.54838
-29.5611,0,0,44.5611,44.5611,5,5,65.2041,6.30085,-23.0926,0.302374,0.517069,-0.862301,1,1,26.6875,-0.315,1.1725,0.373564,-0.37271,-1.28966,-0.02828,-0.08218,0.54838
-29.5906,0,0,44.5906,44.5906,5,5,65.2534,6.29335,-23.0896,0.302504,0.51744,-0.863071,1,1,31.01,-0.2625,4.2875,0.373564,-0.37271,-1.28966,-0.02828,-0.08218,0.54838
-29.6202,0,0,44.6202,44.6202,5,5,65.303,6.28555,-23.0856,0.315396,0.694165,-1.05663,1,1,31.115,0.2625,4.725,0.386374,-0.196542,-1.48096,-0.02828,-0.08218,0.54838
-29.6516,0,0,44.6516,44.6516,5,5,65.3569,6.27737,-23.0802,0.315538,0.694569,-1.05747,1,1,33.4425,0.8575,5.2325,0.386374,-0.196542,-1.48096,-0.02828,-0.08218,0.54838
-29.6833,0,0,44.6833,44.6833,5,5,65.4116,6.26736,-23.0789,-0.0928451,0.230778,-0.732269,1,1,34.16,-1.715,5.2325,-0.023912,-0.660264,-1.15741,-0.02828,-0.08218,0.54838
-29.7151,0,0,44.7151,44.7151,5,5,65.4667,6.25904,-23.0803,-0.0927008,0.23119,-0.733132,1,1,34.5275,-2.7125,3.6925,-0.023912,-0.660264,-1.15741,-0.02828,-0.08218,0.54838
-29.4316,0,0,44.4316,44.4316,5,5,64.7337,6.52343,-23.1707,0.21238,0.838325,-0.476041,0,1,34.7375,-3.5525,3.535,0.287066,-0.047946,-0.913536,-0.03066,-0.08106,0.54768
-29.1274,0,0,44.1274,44.1274,5,5,63.9492,6.9021,-23.2684,0.330461,1.13352,-0.476414,0,1,37.9225,-1.5225,4.13,0.412238,0.253516,-0.925736,-0.03066,-0.08106,0.54768
-28.8222,0,0,43.8222,43.8222,5,5,63.1624,7.28003,-23.3693,0.323915,1.12672,-0.464575,0,1,35.5425,0.1225,3.6225,0.412238,0.253516,-0.925736,-0.03066,-0.08106,0.54768
-28.8553,0,0,43.8553,43.8553,5,5,63.2215,7.27449,-23.3658,-0.0585472,0.746399,-0.7431,1,1,36.4175,0.3675,3.395,0.02806,-0.12688,-1.20121,-0.03066,-0.08106,0.54768
-28.8883,0,0,43.8883,43.8883,5,5,63.2803,7.26603,-23.362,-0.0584006,0.746874,-0.744,1,1,36.2425,-0.2275,5.005,0.02806,-0.12688,-1.20121,-0.03066,-0.08106,0.54768
-28.9221,0,0,43.9221,43.9221,5,5,63.3412,7.25724,-23.3577,-0.0734342,0.244569,-1.32919,1,1,37.3975,-0.0525,5.3025,0.01281,-0.629154,-1.78096,-0.03066,-0.08106,0.54768
-28.9588,0,0,43.9588,43.9588,5,5,63.409,7.25208,-23.3516,-0.0733448,0.245106,-1.33023,1,1,41.1425,1.82,3.8675,0.01281,-0.629154,-1.78096,-0.03066,-0.08106,0.54768
-28.8512,0,0,43.8512,43.8512,5,5,63.1163,6.97579,-23.3919,-0.293187,0.257404,-0.282094,0,1,42.4025,1.6625,2.5725,-0.212768,-0.615124,-0.745664,-0.03066,-0.08106,0.54768
-28.7457,0,0,43.7457,43.7457,5,5,62.8291,6.70502,-23.4354,-0.288495,0.255643,-0.277404,0,1,43.19,-0.805,0.2275,-0.212768,-0.615124,-0.745664,-0.02884,-0.0854,0.55328
-28.4186,0,0,43.4186,43.4186,5,5,61.988,6.97642,-23.5451,0.189586,1.27987,-0.446711,0,1,40.8275,-1.12,-0.3675,0.27206,0.415288,-0.926224,-0.02884,-0.0854,0.55328
-28.0953,0,0,43.0953,43.0953,5,5,61.1569,7.24978,-23.6548,0.184852,1.2725,-0.434335,0,1,45.955,2.1,-1.3125,0.27206,0.415288,-0.926224,-0.02884,-0.0854,0.55328
-27.8365,0,0,42.8365,42.8365,5,5,60.4871,7.8123,-23.7477,0.474581,1.52684,-0.114522,0,1,45.675,3.36,-1.085,0.57279,0.676124,-0.618296,-0.02884,-0.0854,0.55328
-27.5736,0,0,42.5736,42.5736,5,5,59.8075,8.37518,-23.8461,0.464855,1.51979,-0.105025,0,1,42.14,4.48,-0.315,0.57279,0.676124,-0.618296,-0.02884,-0.0854,0.55328
-27.6105,0,0,42.6105,42.6105,5,5,59.8774,8.37593,-23.8388,0.157605,1.69406,-0.243034,1,1,42.1575,3.92,1.3475,0.264252,0.849608,-0.754204,-0.02884,-0.0854,0.55328
-27.6475,0,0,42.6475,42.6475,5,5,59.9473,8.37667,-23.8315,0.157592,1.69466,-0.24408,1,1,42.1575,3.92,1.3475,0.264252,0.849608,-0.754204,-0.02884,-0.0854,0.55328
-27.6874,0,0,42.6874,42.6874,5,5,60.0246,8.37881,-23.822,0.366025,1.39917,-0.378391,1,1,46.095,5.4075,1.26,0.473604,0.553758,-0.88633,-0.02884,-0.0854,0.55328
-27.7273,0,0,42.7273,42.7273,5,5,60.1018,8.38093,-23.8125,0.365988,1.39983,-0.37955,1,1,46.095,5.4075,1.26,0.473604,0.553758,-0.88633,-0.02688,-0.09282,0.5467
-27.7677,0,0,42.7677,42.7677,5,5,60.1802,8.3843,-23.803,0.390227,1.3481,-0.628468,1,1,46.69,5.8275,0.6475,0.498004,0.50142,-1.13216,-0.02688,-0.09282,0.5467
-27.8081,0,0,42.8081,42.8081,5,5,60.2587,8.38647,-23.7951,0.115753,0.0945314,-0.323629,1,1,46.9525,4.6025,0.7525,0.222406,-0.75152,-0.828502,-0.02688,-0.09282,0.5467
-27.8524,0,0,42.8524,42.8524,5,5,60.3467,8.39012,-23.7857,0.11569,0.0952763,-0.324954,1,1,52.1325,5.81,0.4375,0.222406,-0.75152,-0.828502,-0.02688,-0.09282,0.5467
-27.8951,0,0,42.8951,42.8951,5,5,60.4307,8.39343,-23.7753,0.00265122,1.76008,-0.146591,1,1,49.7875,6.265,0.91,0.108946,0.910852,-0.65026,-0.02688,-0.09282,0.5467
-27.9398,0,0,42.9398,42.9398,5,5,60.5199,8.39447,-23.7614,0.0026333,1.76084,-0.147933,1,1,52.43,7.3325,3.0275,0.108946,0.910852,-0.65026,-0.02688,-0.09282,0.5467
-27.9847,0,0,42.9847,42.9847,5,5,60.6095,8.39306,-23.7477,-0.467006,2.01709,0.0909641,1,1,52.6225,6.5275,4.2,-0.362706,1.16608,-0.411872,-0.02688,-0.09282,0.5467
-28.0278,0,0,43.0278,43.0278,5,5,60.6943,8.38934,-23.7318,-0.466942,2.01782,0.0896913,1,1,49.84,7,6.0025,-0.362706,1.16608,-0.411872,-0.02688,-0.09282,0.5467
-27.7409,0,0,42.7409,42.7409,5,5,59.9547,8.59652,-23.8395,0.00193984,1.64893,-0.00951926,0,1,52.6575,6.0725,6.125,0.111752,0.804346,-0.521062,-0.02688,-0.09842,0.5474
-27.7856,0,0,42.7856,42.7856,5,5,60.044,8.59086,-23.8265,0.368195,1.09269,0.1153,1,1,52.5,4.865,6.195,0.47946,0.247904,-0.39589,-0.02688,-0.09842,0.5474
-27.83,0,0,42.83,42.83,5,5,60.1322,8.58498,-23.818,0.368297,1.09346,0.113987,1,1,52.3425,2.5725,5.0225,0.47946,0.247904,-0.39589,-0.02688,-0.09842,0.5474
-27.8745,0,0,42.8745,42.8745,5,5,60.221,8.57832,-23.8102,0.306576,0.502904,-0.55482,1,1,52.64,2.0125,5.215,0.417362,-0.34282,-1.05823,-0.02688,-0.09842,0.5474
-27.9246,0,0,42.9246,42.9246,5,5,60.3236,8.57485,-23.7997,0.306635,0.50379,-0.556355,1,1,60.235,4.3225,4.375,0.417362,-0.34282,-1.05823,-0.02688,-0.09842,0.5474
-27.9744,0,0,42.9744,42.9744,5,5,60.4254,8.57014,-23.7866,-0.0579834,1.91682,-0.0284596,1,1,59.535,5.25,5.7225,0.051118,1.06787,-0.532896,-0.02688,-0.09842,0.5474
-28.0242,0,0,43.0242,43.0242,5,5,60.5272,8.56541,-23.7735,-0.0579017,1.9177,-0.0299823,1,1,59.535,5.25,5.7225,0.051118,1.06787,-0.532896,-0.02688,-0.09842,0.5474
-28.0706,0,0,43.0706,43.0706,5,5,60.6206,8.55518,-23.7634,-0.343216,2.1304,-0.0591596,1,1,55.0725,2.205,7.6825,-0.235582,1.27954,-0.560468,-0.03276,-0.1022,0.54432
-28.1181,0,0,43.1181,43.1181,5,5,60.7164,8.54682,-23.7518,0.0296459,1.26047,0.487514,1,1,56.2975,3.465,7.1225,0.138714,0.409676,-0.016592,-0.03276,-0.1022,0.54432
-27.8554,0,0,42.8554,42.8554,5,5,60.0372,8.60707,-23.8562,-0.16407,1.81339,0.0499711,0,1,54.5825,3.045,6.8425,-0.054778,0.967948,-0.460794,-0.03276,-0.1022,0.54432
-27.5908,0,0,42.5908,42.5908,5,5,59.3536,8.66554,-23.9667,-0.165079,1.8073,0.0600771,0,1,56.21,0.49,6.1075,-0.054778,0.967948,-0.460794,-0.03276,-0.1022,0.54432
-27.637,0,0,42.637,42.637,5,5,59.4466,8.65641,-23.9638,-0.226879,1.44457,-0.7439,1,1,55.44,-1.225,5.0575,-0.116998,0.604754,-1.25721,-0.03276,-0.1022,0.54432
-27.6837,0,0,42.6837,42.6837,5,5,59.5412,8.64842,-23.9596,-0.226742,1.44542,-0.745294,1,1,56.21,-0.28,4.83,-0.116998,0.604754,-1.25721,-0.03276,-0.1022,0.54432
-27.7317,0,0,42.7317,42.7317,5,5,59.6388,8.64318,-23.9532,0.0570179,2.01026,-0.744404,1,1,57.75,1.68,4.1125,0.167872,1.16815,-1.25489,-0.03276,-0.1022,0.54432
-27.7766,0,0,42.7766,42.7766,5,5,59.7287,8.63782,-23.9427,0.0571105,2.01106,-0.745736,1,1,53.06,3.71,5.3725,0.167872,1.16815,-1.25489,-0.03276,-0.1022,0.54432
