pid_x,pid_y,pid_z,front_left_speed,front_right_speed,back_left_speed,back_right_speed,orientation_x,orientation_y,orientation_z,acceleration_x,acceleration_y,acceleration_z,accel_rejected,mag_rejected,gyro_x,gyro_y,gyro_z,accel_x,accel_y,accel_z,mag_x,mag_y,mag_z
-0.0327936,0,0,15.0328,15.0328,14.9672,14.9672,0.0149062,0.0624089,0.027812,0.0481563,-0.013363,0.000798956,0,0,3.0625,0.07,-0.875,0.00915,-0.001464,-1.01187,-0.0686,0.10458,0.448
-0.0702897,0,0,15.0703,15.0703,14.9297,14.9297,0.0319499,0.1245,0.0547418,0.047923,-0.014531,-0.00375203,0,0,3.535,0.1925,-0.945,0.010004,-0.002928,-1.01638,-0.0686,0.10458,0.448
-0.106894,0,0,15.1069,15.1069,14.8931,14.8931,0.0485881,0.185044,0.081835,0.0468664,-0.0142407,-0.00375509,0,0,3.5,0.105,-0.8225,0.010004,-0.002928,-1.01638,-0.0686,0.10458,0.448
-0.139848,0,0,15.1398,15.1398,14.8602,14.8602,0.0635672,0.239363,0.113129,0.0421523,-0.012758,-0.00941448,0,0,3.5875,0.245,-0.9975,0.006222,-0.001708,-1.02199,-0.0686,0.10458,0.448
-0.175566,0,0,15.1756,15.1756,14.8244,14.8244,0.0798026,0.299646,0.13781,0.046567,-0.0134516,-0.00253467,0,0,3.78,0.21,-0.9975,0.011712,-0.002684,-1.01516,-0.0686,0.10458,0.448
-0.210495,0,0,15.2105,15.2105,14.7895,14.7895,0.0956797,0.358454,0.162477,0.0455406,-0.0131745,-0.00254099,0,0,3.7625,0.14,-0.98,0.011712,-0.002684,-1.01516,-0.0686,0.10458,0.448
-0.240086,0,0,15.2401,15.2401,14.7599,14.7599,0.10913,0.402345,0.192184,0.0405226,-0.0109858,-0.00930866,0,0,3.885,-4.41,-1.015,0.007442,-0.000732,-1.02187,-0.0686,0.10458,0.448
-0.26969,0,0,15.2697,15.2697,14.7303,14.7303,0.122586,0.45202,0.218485,0.0391697,-0.0113616,-0.0055042,0,0,3.6225,-0.1575,-1.05,0.006954,-0.001342,-1.01809,-0.06664,0.10654,0.4445
-0.305879,0,0,15.3059,15.3059,14.6941,14.6941,0.139036,0.508969,0.237459,0.0441286,-0.0136391,0.00407679,0,0,3.7275,-0.0175,-1.05,0.012932,-0.003904,-1.00857,-0.06664,0.10654,0.4445
-0.341344,0,0,15.3413,15.3413,14.6587,14.6587,0.155156,0.56465,0.256404,0.0431568,-0.0133578,0.00406697,0,0,3.7275,-0.0175,-1.05,0.012932,-0.003904,-1.00857,-0.06664,0.10654,0.4445
-0.368202,0,0,15.3682,15.3682,14.6318,14.6318,0.167365,0.611356,0.282555,0.0363889,-0.010458,0.000984288,0,0,3.465,0.0175,-0.8575,0.006954,-0.00122,-1.01162,-0.06664,0.10654,0.4445
-0.401912,0,0,15.4019,15.4019,14.5981,14.5981,0.182687,0.662483,0.303732,0.0395056,-0.0127553,0.00466201,0,0,3.675,0.07,-0.9625,0.01098,-0.003782,-1.00796,-0.06664,0.10654,0.4445
-0.434734,0,0,15.4347,15.4347,14.5653,14.5653,0.197607,0.712466,0.32472,0.0386333,-0.0124949,0.00465068,0,0,3.6225,0.07,-1.05,0.01098,-0.003782,-1.00796,-0.06664,0.10654,0.4445
-0.46162,0,0,15.4616,15.4616,14.5384,14.5384,0.209827,0.759248,0.347649,0.036602,-0.0103277,-0.00372107,0,0,3.605,0.1225,-0.9625,0.00976,-0.00183,-1.01626,-0.06664,0.10654,0.4445
-0.487968,0,0,15.488,15.488,14.512,14.512,0.221804,0.805127,0.371717,0.0358014,-0.0101187,-0.00373278,0,0,3.605,0.1225,-0.9625,0.00976,-0.00183,-1.01626,-0.0686,0.10612,0.44408
-0.50996,0,0,15.51,15.51,14.49,14.49,0.2318,0.848598,0.397295,0.0337064,-0.00884517,-0.00337558,0,0,3.325,0.315,-0.91,0.008418,-0.000732,-1.01589,-0.0686,0.10612,0.44408
-0.531907,0,0,15.5319,15.5319,14.4681,14.4681,0.241776,0.888258,0.425494,0.030706,-0.00879325,-0.0026491,0,0,3.3425,0.2975,-0.84,0.0061,-0.000854,-1.01516,-0.0686,0.10612,0.44408
-0.5541,0,0,15.5541,15.5541,14.4459,14.4459,0.251864,0.926853,0.453601,0.0300325,-0.00861725,-0.00266053,0,0,3.5175,0.1925,-0.8575,0.0061,-0.000854,-1.01516,-0.0686,0.10612,0.44408
-0.579262,0,0,15.5793,15.5793,14.4207,14.4207,0.263301,0.973708,0.473316,0.0363825,-0.00988325,0.000398727,0,0,3.43,0.175,-0.91,0.013298,-0.002318,-1.01211,-0.0686,0.10612,0.44408
-0.603922,0,0,15.6039,15.6039,14.3961,14.3961,0.27451,1.01952,0.492992,0.035583,-0.00968771,0.0003839,0,0,3.43,0.175,-0.91,0.013298,-0.002318,-1.01211,-0.0686,0.10612,0.44408
-0.626851,0,0,15.6269,15.6269,14.3731,14.3731,0.284932,1.06224,0.514578,0.0330154,-0.00865102,0.000861265,0,0,3.6575,0.2975,-0.945,0.011468,-0.001464,-1.01162,-0.0686,0.10612,0.44408
-0.64947,0,0,15.6495,15.6495,14.3505,14.3505,0.295214,1.09662,0.542661,0.0270699,-0.00871592,-0.0121835,0,0,3.6575,0.2975,-1.0325,0.0061,-0.001708,-1.02456,-0.0686,0.10612,0.44408
-0.671769,0,0,15.6718,15.6718,14.3282,14.3282,0.305349,1.13012,0.573239,0.0264853,-0.00853911,-0.0121958,0,0,3.6925,0.28,-1.05,0.0061,-0.001708,-1.02456,-0.06594,0.10458,0.44044
-0.691955,0,0,15.692,15.692,14.308,14.308,0.314525,1.17401,0.593574,0.0338591,-0.00764633,0.0046319,0,0,3.5875,0.35,-1.1025,0.014274,-0.000976,-1.00784,-0.06594,0.10458,0.44044
-0.716643,0,0,15.7166,15.7166,14.2834,14.2834,0.325747,1.20768,0.622061,0.0263468,-0.00977099,-0.00411075,0,0,3.4475,0.1925,-1.1725,0.00732,-0.003294,-1.0165,-0.06594,0.10458,0.44044
-0.740088,0,0,15.7401,15.7401,14.2599,14.2599,0.336404,1.24076,0.650635,0.0257697,-0.00958511,-0.00412416,0,0,3.255,0.28,-1.085,0.00732,-0.003294,-1.0165,-0.06594,0.10458,0.44044
-0.763986,0,0,15.764,15.764,14.236,14.236,0.347266,1.27772,0.674886,0.0286478,-0.00951778,0.0028686,0,0,3.3425,0.1925,-1.0325,0.010858,-0.003416,-1.00955,-0.06594,0.10458,0.44044
-0.78696,0,0,15.787,15.787,14.213,14.213,0.357709,1.31184,0.70118,0.0262302,-0.0090914,0.00359171,0,0,3.3775,0.315,-0.98,0.009028,-0.003172,-1.00882,-0.06594,0.10458,0.44044
-0.809817,0,0,15.8098,15.8098,14.1902,14.1902,0.368099,1.34491,0.727412,0.0256532,-0.0089102,0.00357719,0,0,3.465,0.14,-0.98,0.009028,-0.003172,-1.00882,-0.06594,0.10458,0.44044
-0.830248,0,0,15.8302,15.8302,14.1698,14.1698,0.377386,1.3796,0.751938,0.0272345,-0.00789337,-0.00172505,0,0,3.5525,0.175,-0.805,0.011224,-0.002318,-1.01406,-0.06692,0.10416,0.44842
-0.852054,0,0,15.8521,15.8521,14.1479,14.1479,0.387297,1.41439,0.775441,0.0271135,-0.00881968,0.00416052,0,0,3.255,0.07,-0.8575,0.011712,-0.003416,-1.00821,-0.06692,0.10416,0.44842
-0.875356,0,0,15.8754,15.8754,14.1246,14.1246,0.397889,1.44627,0.800668,0.0249779,-0.0092456,0.00266998,0,0,3.3775,0,-0.91,0.010126,-0.004026,-1.00967,-0.06692,0.10416,0.44842
-0.898254,0,0,15.8983,15.8983,14.1017,14.1017,0.408297,1.47771,0.825689,0.0244294,-0.00906411,0.0026547,0,0,3.395,0.1575,-0.9975,0.010126,-0.004026,-1.00967,-0.06692,0.10416,0.44842
-0.913783,0,0,15.9138,15.9138,14.0862,14.0862,0.415356,1.50994,0.849301,0.0254464,-0.00625427,-0.00227878,0,0,3.3775,0.1575,-0.8925,0.011712,-0.001342,-1.01455,-0.06692,0.10416,0.44842
-0.929004,0,0,15.929,15.929,14.071,14.071,0.422274,1.54146,0.872863,0.0248965,-0.00613368,-0.00229431,0,0,3.3775,0.1575,-0.8925,0.011712,-0.001342,-1.01455,-0.06692,0.10416,0.44842
-0.944164,0,0,15.9442,15.9442,14.0558,14.0558,0.429165,1.56686,0.90117,0.0200799,-0.00601354,-0.00255312,0,0,3.4475,0.14,-0.945,0.00732,-0.001342,-1.0148,-0.06692,0.10416,0.44842
-0.964742,0,0,15.9647,15.9647,14.0353,14.0353,0.438519,1.59445,0.923618,0.0216638,-0.00817086,-0.00146111,0,0,3.43,0.1225,-0.8925,0.009394,-0.00366,-1.0137,-0.06888,0.10654,0.44422
-0.980082,0,0,15.9801,15.9801,14.0199,14.0199,0.445492,1.62336,0.944197,0.0224957,-0.00633955,0.00479416,0,0,3.22,0.105,-0.8575,0.010736,-0.001952,-1.00748,-0.06888,0.10654,0.44422
-0.996194,0,0,15.9962,15.9962,14.0038,14.0038,0.452816,1.64848,0.967973,0.0197492,-0.00645614,-0.00505524,0,0,3.43,0.28,-0.7875,0.008418,-0.002196,-1.01724,-0.06888,0.10654,0.44422
-1.01123,0,0,16.0112,16.0112,13.9888,13.9888,0.459649,1.67304,0.991662,0.0193207,-0.00633702,-0.00506861,0,0,3.2375,0.28,-0.805,0.008418,-0.002196,-1.01724,-0.06888,0.10654,0.44422
-1.02399,0,0,16.024,16.024,13.976,13.976,0.465451,1.70102,1.01139,0.0219913,-0.00525892,-0.00213304,0,0,3.325,0.245,-0.9275,0.01159,-0.00122,-1.01431,-0.06888,0.10654,0.44422
-1.03788,0,0,16.0379,16.0379,13.9621,13.9621,0.471765,1.7287,1.03122,0.0215083,-0.00514888,-0.0021484,0,0,3.675,0.4375,-0.84,0.01159,-0.00122,-1.01431,-0.06888,0.10654,0.44422
-1.08151,0,0,16.0815,16.0815,13.9185,13.9185,0.491595,1.70876,1.09414,-0.0167762,-0.0173819,-0.00484573,0,0,3.5,0.455,-0.8925,-0.027206,-0.013786,-1.01699,-0.06888,0.10654,0.44422
-1.09355,0,0,16.0936,16.0936,13.9064,13.9064,0.497068,1.73563,1.11382,0.0205371,-0.0047075,0.00792599,0,0,3.4125,0.315,-1.0325,0.010736,-0.00122,-1.0043,-0.06888,0.10654,0.44422
-1.10548,0,0,16.1055,16.1055,13.8945,13.8945,0.502489,1.76175,1.13816,0.0200814,-0.00461306,0.00791126,0,0,3.4475,0.21,-1.155,0.010736,-0.00122,-1.0043,-0.06874,0.10388,0.44184
-1.36338,0,0,16.3634,16.3634,13.6366,13.6366,0.619718,1.37949,1.5334,-0.301018,-0.100512,0.0728679,0,0,3.5525,0.0175,-1.015,-0.31842,-0.099064,-0.94001,-0.06874,0.10388,0.44184
-1.12746,0,0,16.1275,16.1275,13.8725,13.8725,0.512483,1.76856,1.22772,0.361702,0.105597,-0.0745924,0,0,2.8175,0.2275,-1.295,0.353922,0.108702,-1.08617,-0.06874,0.10388,0.44184
-1.12737,0,0,16.1274,16.1274,13.8726,13.8726,0.512441,1.76839,1.22721,0.361705,0.105597,-0.0745923,1,0,3.4475,0.07,-1.225,0.353922,0.108702,-1.08617,-0.06874,0.10388,0.44184
-0.898321,0,0,15.8983,15.8983,14.1017,14.1017,0.408328,1.68629,1.34175,-0.0644926,0.0980409,-0.094944,0,0,2.905,-0.14,-1.54,-0.075518,0.102968,-1.10642,-0.06874,0.10388,0.44184
-1.13143,0,0,16.1314,16.1314,13.8686,13.8686,0.514288,1.88266,1.21439,0.160718,-0.0968578,-0.0188375,0,0,3.2725,-0.735,-1.575,0.154086,-0.093574,-1.03078,-0.06874,0.10388,0.44184
-1.36136,0,0,16.3614,16.3614,13.6386,13.6386,0.618802,2.07546,1.08801,0.157355,-0.095036,-0.0189717,0,0,3.64,-0.28,-1.505,0.154086,-0.093574,-1.03078,-0.06874,0.10388,0.44184
-1.81103,0,0,16.811,16.811,13.189,13.189,0.823198,2.07339,1.12091,-0.00418501,-0.188196,-0.0320478,0,0,3.745,-0.21,-1.6975,-0.008174,-0.190198,-1.04371,-0.06776,0.11214,0.45766
-1.69821,0,0,16.6982,16.6982,13.3018,13.3018,0.771914,1.23116,1.8969,-0.769916,0.0490629,0.139041,0,0,5.1625,0,-1.61,-0.791902,0.047702,-0.874374,-0.06776,0.11214,0.45766
-1.70483,0,0,16.7048,16.7048,13.2952,13.2952,0.774922,1.23089,1.89572,-0.769911,0.0491153,0.13904,1,0,5.1625,0,-1.61,-0.791902,0.047702,-0.874374,-0.06776,0.11214,0.45766
-2.13669,0,0,17.1367,17.1367,12.8633,12.8633,0.971221,1.48825,1.70742,0.200278,-0.176205,0.0271214,0,0,2.2575,0.7525,-1.47,0.186904,-0.180804,-0.985272,-0.06776,0.11214,0.45766
-2.33994,0,0,17.3399,17.3399,12.6601,12.6601,1.06361,1.59972,1.64597,0.0905756,-0.0892277,-0.0520155,0,0,2.1,1.6275,-1.645,0.07869,-0.095526,-1.06372,-0.06776,0.11214,0.45766
-2.54361,0,0,17.5436,17.5436,12.4564,12.4564,1.15619,1.70575,1.5856,0.0887259,-0.0876139,-0.0521002,0,0,3.22,-0.0875,-1.225,0.07869,-0.095526,-1.06372,-0.06776,0.11214,0.45766
-1.59124,0,0,16.5912,16.5912,13.4088,13.4088,0.723289,1.48843,1.79709,-0.21885,0.531713,-0.292112,0,0,4.2875,-0.7875,-0.2275,-0.233996,0.5307,-1.30211,-0.06776,0.11214,0.45766
-1.78652,0,0,16.7865,16.7865,13.2135,13.2135,0.812054,1.68535,1.65678,0.146909,-0.0737098,0.0689948,0,0,2.87,-1.2425,0.63,0.136762,-0.07564,-0.94367,-0.06776,0.11214,0.45766
-1.99127,0,0,16.9913,16.9913,13.0087,13.0087,0.905122,1.87717,1.49774,0.143563,-0.072088,0.0688664,0,0,6.3525,-0.6475,-0.4025,0.136762,-0.07564,-0.94367,-0.06608,0.12222,0.46256
-1.99647,0,0,16.9965,16.9965,13.0035,13.0035,0.907488,1.87722,1.49927,0.377908,0.370541,-0.641654,1,0,4.76,0.21,-0.035,0.3721,0.366488,-1.64871,-0.06608,0.12222,0.46256
-2.00146,0,0,17.0015,17.0015,12.9985,12.9985,0.909755,1.87602,1.50159,0.248182,-0.188394,-0.4501,1,0,4.69,-0.5075,0.4375,0.241804,-0.191906,-1.45863,-0.06608,0.12222,0.46256
-1.99661,0,0,16.9966,16.9966,13.0034,13.0034,0.907551,1.87746,1.50368,0.248157,-0.188432,-0.4501,1,0,2.1875,1.0325,0.28,0.241804,-0.191906,-1.45863,-0.06608,0.12222,0.46256
-1.98593,0,0,16.9859,16.9859,13.0141,13.0141,0.902696,1.87769,1.50681,0.759486,0.337116,0.0838665,1,0,0.6825,0.3325,0.8925,0.755302,0.333182,-0.928786,-0.06608,0.12222,0.46256
-1.97954,0,0,16.9795,16.9795,13.0205,13.0205,0.899789,1.87908,1.51031,0.759462,0.337066,0.0838665,1,0,1.7675,1.015,1.1025,0.755302,0.333182,-0.928786,-0.06608,0.12222,0.46256
-1.61533,0,0,16.6153,16.6153,13.3847,13.3847,0.734241,1.41195,1.94391,-0.343861,0.128642,0.155083,0,0,0.7175,0.385,1.05,-0.360876,0.127856,-0.858392,-0.06608,0.12222,0.46256
-1.26525,0,0,16.2652,16.2652,13.7348,13.7348,0.575113,0.958232,2.37209,-0.335944,0.125867,0.155279,0,0,2.73,1.3825,-0.315,-0.360876,0.127856,-0.858392,-0.06454,0.12502,0.4746
-1.27585,0,0,16.2758,16.2758,13.7242,13.7242,0.579931,0.958009,2.37431,0.0926614,-0.0270735,-0.218977,1,0,6.1425,0.0525,0.3675,0.06954,-0.02501,-1.22976,-0.06454,0.12502,0.4746
-1.29141,0,0,16.2914,16.2914,13.7086,13.7086,0.587007,0.958586,2.37708,0.0926513,-0.02695,-0.218979,1,0,7.4025,0.525,0.6825,0.06954,-0.02501,-1.22976,-0.06454,0.12502,0.4746
-1.30507,0,0,16.3051,16.3051,13.6949,13.6949,0.593214,0.957386,2.37832,0.329569,0.0439918,-0.111891,1,0,6.93,-0.525,-0.1925,0.30744,0.04575,-1.1235,-0.06454,0.12502,0.4746
-1.30921,0,0,16.3092,16.3092,13.6908,13.6908,0.595094,0.955601,2.37839,0.3296,0.0440246,-0.111891,1,0,4.515,-0.875,-0.875,0.30744,0.04575,-1.1235,-0.06454,0.12502,0.4746
-1.40714,0,0,16.4071,16.4071,13.5929,13.5929,0.639609,1.39325,1.99702,0.345775,-0.0391014,0.0922842,0,0,2.4675,-0.7175,-1.3825,0.331352,-0.038064,-0.920734,-0.06454,0.12502,0.4746
-1.50277,0,0,16.5028,16.5028,13.4972,13.4972,0.683078,1.82214,1.61688,0.338292,-0.0383455,0.0920654,0,0,2.4675,-0.7175,-1.3825,0.331352,-0.038064,-0.920734,-0.06454,0.12502,0.4746
-1.14375,0,0,16.1437,16.1437,13.8563,13.8563,0.519885,2.03189,1.43208,0.149975,0.130517,0.0993491,0,0,0.665,3.85,-2.625,0.145912,0.133468,-0.913414,-0.06454,0.12502,0.4746
-0.791384,0,0,15.7914,15.7914,14.2086,14.2086,0.35972,2.23824,1.23708,0.146376,0.127722,0.0992364,0,0,0.665,3.85,-2.625,0.145912,0.133468,-0.913414,-0.06314,0.13062,0.47978
-0.792056,0,0,15.7921,15.7921,14.2079,14.2079,0.360026,2.23917,1.23276,0.0297339,-0.0618129,-0.148997,1,0,3.7275,0.7,-3.4475,0.028792,-0.055876,-1.15973,-0.06314,0.13062,0.47978
-0.792728,0,0,15.7927,15.7927,14.2073,14.2073,0.360331,2.2401,1.22844,0.0297176,-0.0618076,-0.148998,1,0,3.7275,0.7,-3.4475,0.028792,-0.055876,-1.15973,-0.06314,0.13062,0.47978
-0.803072,0,0,15.8031,15.8031,14.1969,14.1969,0.365033,2.24142,1.22401,0.169403,-0.0661221,-0.236293,1,0,6.195,0.9275,-3.5175,0.169092,-0.060268,-1.24635,-0.06314,0.13062,0.47978
-0.813238,0,0,15.8132,15.8132,14.1868,14.1868,0.369654,2.24172,1.2199,-0.237458,-0.246667,-0.115804,1,0,6.1425,0.3325,-3.325,-0.239486,-0.240706,-1.12679,-0.06314,0.13062,0.47978
-0.809365,0,0,15.8094,15.8094,14.1906,14.1906,0.367893,2.23984,1.21704,-0.237425,-0.246698,-0.115803,1,0,2.5375,-0.945,-2.59,-0.239486,-0.240706,-1.12679,-0.06314,0.13062,0.47978
-0.796629,0,0,15.7966,15.7966,14.2034,14.2034,0.362104,2.07335,1.35366,-0.138669,0.000508691,-0.0438906,0,0,1.0675,-1.3825,-2.52,-0.143228,0.006344,-1.05554,-0.06314,0.13062,0.47978
-0.791889,0,0,15.7919,15.7919,14.2081,14.2081,0.35995,1.91064,1.49024,-0.135831,0.000471737,-0.0437917,0,0,3.045,-1.225,-2.3975,-0.143228,0.006344,-1.05554,-0.06314,0.13062,0.47978
-0.788219,0,0,15.7882,15.7882,14.2118,14.2118,0.358281,1.9092,1.48777,0.398488,0.468921,-0.054856,1,0,2.5725,-0.6825,-2.3625,0.393328,0.474336,-1.06652,-0.06314,0.13062,0.47978
-0.788473,0,0,15.7885,15.7885,14.2115,14.2115,0.358397,1.91003,1.48543,0.398474,0.468923,-0.0548565,1,0,3.57,0.6475,-2.2925,0.393328,0.474336,-1.06652,-0.06412,0.13216,0.47404
-0.798,0,0,15.798,15.798,14.202,14.202,0.362727,1.91268,1.48314,0.276577,0.128387,-0.357066,1,0,5.9325,1.715,-2.275,0.270962,0.134078,-1.3664,-0.06412,0.13216,0.47404
-0.804049,0,0,15.804,15.804,14.196,14.196,0.365477,1.91572,1.48118,0.276524,0.128435,-0.357068,1,0,5.04,1.9425,-2.0825,0.270962,0.134078,-1.3664,-0.06412,0.13216,0.47404
-0.812184,0,0,15.8122,15.8122,14.1878,14.1878,0.369175,1.91806,1.4805,-0.413434,-0.13102,-0.310103,1,0,5.5475,1.54,-1.33,-0.421876,-0.125172,-1.3198,-0.06412,0.13216,0.47404
-0.814341,0,0,15.8143,15.8143,14.1857,14.1857,0.370155,1.91765,1.48071,-0.413426,-0.131003,-0.310103,1,0,4.0075,-0.07,-0.805,-0.421876,-0.125172,-1.3198,-0.06412,0.13216,0.47404
-0.80876,0,0,15.8088,15.8088,14.1912,14.1912,0.367618,1.91547,1.4812,-0.193985,0.410707,-0.034943,1,0,2.03,-1.1025,-0.63,-0.201544,0.41602,-1.04676,-0.06412,0.13216,0.47404
-0.801489,0,0,15.8015,15.8015,14.1985,14.1985,0.364313,1.91269,1.48395,-0.193937,0.410649,-0.034941,1,0,1.5575,-1.4525,0.6825,-0.201544,0.41602,-1.04676,-0.06412,0.13216,0.47404
-0.795474,0,0,15.7955,15.7955,14.2045,14.2045,0.361579,1.91064,1.48696,-0.51924,-0.0791265,-0.0612505,1,0,1.8725,-1.015,0.84,-0.52826,-0.0732,-1.07287,-0.06412,0.13216,0.47404
-0.800111,0,0,15.8001,15.8001,14.1999,14.1999,0.363687,1.90746,1.49102,-0.519184,-0.0790897,-0.0612489,1,0,4.5675,-1.68,1.4525,-0.52826,-0.0732,-1.07287,-0.06846,0.13734,0.48034
-0.809152,0,0,15.8092,15.8092,14.1908,14.1908,0.367796,1.90547,1.49521,1.21567,-0.0170998,-0.0598958,1,0,5.6875,-0.98,1.5225,1.2139,-0.011346,-1.07153,-0.06846,0.13734,0.48034
-0.835879,0,0,15.8359,15.8359,14.1641,14.1641,0.379945,1.90684,1.50086,1.21564,-0.0168878,-0.059898,1,0,10.1675,0.9975,2.3625,1.2139,-0.011346,-1.07153,-0.06846,0.13734,0.48034
-0.866901,0,0,15.8669,15.8669,14.1331,14.1331,0.394046,1.91016,1.507,-0.0444652,0.351204,-0.0887944,1,0,11.2525,2.135,2.6425,-0.051484,0.356118,-1.1002,-0.06846,0.13734,0.48034
-0.879513,0,0,15.8795,15.8795,14.1205,14.1205,0.399779,1.91211,1.51119,-0.0444992,0.351304,-0.0887963,1,0,6.5975,1.33,1.505,-0.051484,0.356118,-1.1002,-0.06846,0.13734,0.48034
-0.893562,0,0,15.8936,15.8936,14.1064,14.1064,0.406164,1.91603,1.5153,-0.965308,-0.188996,-0.34527,1,0,6.965,2.485,1.4525,-0.976122,-0.183732,-1.35469,-0.06846,0.13734,0.48034
-0.892824,0,0,15.8928,15.8928,14.1072,14.1072,0.405829,1.91845,1.52096,-0.96535,-0.189001,-0.345271,1,0,3.1675,1.61,2.3625,-0.976122,-0.183732,-1.35469,-0.06846,0.13734,0.48034
-0.880578,0,0,15.8806,15.8806,14.1194,14.1194,0.400263,1.9203,1.52607,0.239877,0.143453,0.290618,1,0,0.245,1.2775,2.0475,0.23424,0.148474,-0.723704,-0.06846,0.13734,0.48034
-0.859343,0,0,15.8593,15.8593,14.1407,14.1407,0.39061,1.92062,1.52847,0.239872,0.143284,0.290619,1,0,-1.995,0.3675,0.4725,0.23424,0.148474,-0.723704,-0.06692,0.14126,0.4837
-0.838534,0,0,15.8385,15.8385,14.1615,14.1615,0.381152,1.91798,1.53106,0.541567,-0.00245588,0.402505,1,0,-1.89,-1.365,0.595,0.537166,0.00305,-0.612684,-0.06692,0.14126,0.4837
-0.817724,0,0,15.8177,15.8177,14.1823,14.1823,0.371693,1.91534,1.53366,0.541613,-0.00262086,0.402507,1,0,-1.89,-1.365,0.595,0.537166,0.00305,-0.612684,-0.06692,0.14126,0.4837
-0.778563,0,0,15.7786,15.7786,14.2214,14.2214,0.353892,1.52336,1.86619,-0.330133,0.0179536,0.00940232,0,0,5.425,-2.065,-1.365,-0.345138,0.023912,-1.00296,-0.06692,0.14126,0.4837
-0.739834,0,0,15.7398,15.7398,14.2602,14.2602,0.336288,1.13917,2.19832,-0.32343,0.0176474,0.00955996,0,0,5.425,-2.065,-1.365,-0.345138,0.023912,-1.00296,-0.06692,0.14126,0.4837
-0.779257,0,0,15.7793,15.7793,14.2207,14.2207,0.354208,1.14119,2.1966,0.108538,-0.204677,-0.368632,1,0,13.5275,1.3475,-1.9425,0.088694,-0.198494,-1.37823,-0.06692,0.14126,0.4837
-0.81868,0,0,15.8187,15.8187,14.1813,14.1813,0.372127,1.14321,2.19487,0.108503,-0.204364,-0.368635,1,0,13.5275,1.3475,-1.9425,0.088694,-0.198494,-1.37823,-0.06692,0.14126,0.4837
-0.845971,0,0,15.846,15.846,14.154,14.154,0.384532,1.14518,2.19053,0.313415,-0.180822,-0.242861,1,0,10.465,1.3125,-3.465,0.294508,-0.175192,-1.25343,-0.06692,0.14126,0.4837
-0.873261,0,0,15.8733,15.8733,14.1267,14.1267,0.396937,1.14716,2.1862,0.31338,-0.180605,-0.242863,1,0,10.465,1.3125,-3.465,0.294508,-0.175192,-1.25343,-0.07364,0.1512,0.4963
-0.868716,0,0,15.8687,15.8687,14.1313,14.1313,0.394871,1.14959,2.18249,-0.0808832,-0.0215101,0.108277,1,0,2.345,1.575,-3.0975,-0.101382,-0.016226,-0.904996,-0.07364,0.1512,0.4963
-0.86417,0,0,15.8642,15.8642,14.1358,14.1358,0.392805,1.15201,2.17879,-0.0809254,-0.0215462,0.108277,1,0,2.345,1.575,-3.0975,-0.101382,-0.016226,-0.904996,-0.07364,0.1512,0.4963
-0.831448,0,0,15.8314,15.8314,14.1686,14.1686,0.377931,1.14718,2.17459,-0.235978,-0.0602756,0.175533,1,0,-4.83,-2.6775,-3.36,-0.257176,-0.054656,-0.838262,-0.07364,0.1512,0.4963
-0.798726,0,0,15.7987,15.7987,14.2013,14.2013,0.363057,1.14234,2.17039,-0.235894,-0.0605352,0.175536,1,0,-4.83,-2.6775,-3.36,-0.257176,-0.054656,-0.838262,-0.07364,0.1512,0.4963
-0.314308,0,0,15.3143,15.3143,14.6857,14.6857,0.142867,1.19649,2.09897,0.0448865,0.199538,0.0078324,0,0,2.8,-2.2575,-2.5725,0.025742,0.208986,-1.00467,-0.07364,0.1512,0.4963
0.161052,0,0,14.8389,14.8389,15.1611,15.1611,-0.0732052,1.24943,2.0273,0.0439626,0.195768,0.00781497,0,0,2.8,-2.2575,-2.5725,0.025742,0.208986,-1.00467,-0.07364,0.1512,0.4963
0.142166,0,0,14.8578,14.8578,15.1422,15.1422,-0.0646209,1.33464,1.92394,0.0750341,0.00857552,-0.0635285,0,0,12.985,0.875,-2.1525,0.058438,0.021838,-1.07543,-0.07364,0.1512,0.4963
0.114971,0,0,14.885,14.885,15.115,15.115,-0.0522595,1.33781,1.92238,0.571369,-0.219464,-0.031563,1,0,10.4125,2.03,-1.8375,0.55693,-0.20618,-1.04371,-0.07196,0.14994,0.511
0.103699,0,0,14.8963,14.8963,15.1037,15.1037,-0.047136,1.3423,1.92231,-0.164305,0.00533893,-0.226315,1,0,6.335,2.8,-0.9625,-0.18178,0.0183,-1.23696,-0.07196,0.14994,0.511
0.121526,0,0,14.8785,14.8785,15.1215,15.1215,-0.055239,1.3444,1.92393,-0.164342,0.00519755,-0.226316,1,0,-1.1025,1.4,0.0175,-0.18178,0.0183,-1.23696,-0.07196,0.14994,0.511
0.146199,0,0,14.8538,14.8538,15.1462,15.1462,-0.0664542,1.34504,1.92594,-0.537071,-0.103325,0.331378,1,0,-2.8525,0.5425,0.245,-0.556076,-0.089914,-0.683566,-0.07196,0.14994,0.511
0.166857,0,0,14.8331,14.8331,15.1669,15.1669,-0.0758442,1.34433,1.92858,-0.537058,-0.103488,0.331378,1,0,-1.8375,-0.245,0.6125,-0.556076,-0.089914,-0.683566,-0.07196,0.14994,0.511
0.174817,0,0,14.8252,14.8252,15.1748,15.1748,-0.0794624,1.34162,1.9311,-0.097719,-0.158386,0.19884,1,0,1.4,-1.4175,0.5425,-0.114924,-0.144692,-0.815082,-0.07196,0.14994,0.511
0.165234,0,0,14.8348,14.8348,15.1652,15.1652,-0.0751065,1.33823,1.93426,-0.0976597,-0.15831,0.198842,1,0,5.8625,-1.82,0.91,-0.114924,-0.144692,-0.815082,-0.07196,0.14994,0.511
0.149279,0,0,14.8507,14.8507,15.1493,15.1493,-0.0678541,1.3354,1.93714,-0.203667,-0.242085,-0.225329,1,0,7.49,-1.4875,0.7525,-0.22143,-0.228506,-1.23598,-0.07196,0.14994,0.511
0.123805,0,0,14.8762,14.8762,15.1238,15.1238,-0.056275,1.335,1.93951,-0.20366,-0.241883,-0.225329,1,0,9.9225,-0.07,0.455,-0.22143,-0.228506,-1.23598,-0.0693,0.1568,0.51226
0.101788,0,0,14.8982,14.8982,15.1018,15.1018,-0.0462671,1.3359,1.94143,-0.0791533,-0.320969,-0.239468,1,0,9.0475,0.7,0.1925,-0.09638,-0.307684,-1.25001,-0.0693,0.1568,0.51226
0.0937853,0,0,14.9062,14.9062,15.0938,15.0938,-0.0426297,1.33961,1.94322,-0.0792181,-0.320905,-0.239469,1,0,5.4775,2.345,0.1225,-0.09638,-0.307684,-1.25001,-0.0693,0.1568,0.51226
0.071165,0,0,14.9288,14.9288,15.0712,15.0712,-0.0323477,1.44263,1.81893,0.0788597,-0.00783695,0.0367523,0,0,4.095,2.6075,0.21,0.064172,0.00488,-0.975878,-0.0693,0.1568,0.51226
0.0683544,0,0,14.9316,14.9316,15.0684,15.0684,-0.0310702,1.54303,1.69401,0.077108,-0.00781464,0.0367066,0,0,-0.8225,2.3275,-0.2975,0.064172,0.00488,-0.975878,-0.0693,0.1568,0.51226
0.085991,0,0,14.914,14.914,15.086,15.086,-0.0390868,1.54501,1.69515,-0.0435618,0.063856,0.193465,1,0,-1.05,1.33,-0.2625,-0.056974,0.076616,-0.820328,-0.0693,0.1568,0.51226
0.0987614,0,0,14.9012,14.9012,15.0988,15.0988,-0.0448915,1.54307,1.69497,-0.0435281,0.0637547,0.193466,1,0,0.21,-0.9625,-1.0325,-0.056974,0.076616,-0.820328,-0.0693,0.1568,0.51226
0.106468,0,0,14.8935,14.8935,15.1065,15.1065,-0.0483945,1.54078,1.69449,-0.0355915,-0.0907967,0.140722,1,0,1.505,-1.1725,-1.2075,-0.049044,-0.077714,-0.872666,-0.0693,0.1568,0.51226
0.0980614,0,0,14.9019,14.9019,15.0981,15.0981,-0.0445734,1.53723,1.69359,-0.0355296,-0.09073,0.140724,1,0,5.6175,-1.9075,-1.4525,-0.049044,-0.077714,-0.872666,-0.06776,0.15974,0.5201
-0.121393,0,0,15.1214,15.1214,14.8786,14.8786,0.0551786,1.33518,1.83067,-0.171591,-0.0891117,-0.0379553,0,0,7.2975,-1.19,-1.5575,-0.189222,-0.077836,-1.05005,-0.06776,0.15974,0.5201
-0.33922,0,0,15.3392,15.3392,14.6608,14.6608,0.154191,1.13965,1.96625,-0.168179,-0.0873839,-0.0378847,0,0,7.9625,0.175,-1.925,-0.189222,-0.077836,-1.05005,-0.06776,0.15974,0.5201
-0.352867,0,0,15.3529,15.3529,14.6471,14.6471,0.160394,1.14023,1.96397,0.216556,-0.0367152,-0.0953022,1,0,6.965,0.5075,-2.2575,0.197152,-0.027328,-1.10703,-0.06776,0.15974,0.5201
-0.356959,0,0,15.357,15.357,14.643,14.643,0.162254,1.1429,1.96146,0.216509,-0.0366827,-0.0953032,1,0,4.5325,1.7325,-2.3975,0.197152,-0.027328,-1.10703,-0.06776,0.15974,0.5201
-0.354526,0,0,15.3545,15.3545,14.6455,14.6455,0.161148,1.14566,1.95895,-0.267903,-0.0153298,0.182314,1,0,2.87,1.785,-2.3975,-0.289262,-0.005978,-0.831552,-0.06776,0.15974,0.5201
-0.337306,0,0,15.3373,15.3373,14.6627,14.6627,0.153321,1.14735,1.95589,-0.267932,-0.0154664,0.182313,1,0,-0.8925,1.155,-2.7125,-0.289262,-0.005978,-0.831552,-0.06776,0.15974,0.5201
-0.321532,0,0,15.3215,15.3215,14.6785,14.6785,0.146151,1.14755,1.95295,-0.357106,-0.0483215,0.172355,1,0,-0.525,0.28,-2.6425,-0.37881,-0.038674,-0.841434,-0.06776,0.15974,0.5201
-0.313389,0,0,15.3134,15.3134,14.6866,14.6866,0.14245,1.14502,1.95019,-0.357062,-0.0483861,0.172356,1,0,1.4175,-1.3125,-2.5375,-0.37881,-0.038674,-0.841434,-0.06776,0.15974,0.5201
-0.404113,0,0,15.4041,15.4041,14.5959,14.5959,0.183688,1.39476,1.66607,0.216002,-0.0398507,0.00553905,0,0,2.5375,-1.7325,-2.59,0.201056,-0.030866,-1.00687,-0.07336,0.16926,0.50946
-0.508286,0,0,15.5083,15.5083,14.4917,14.4917,0.231039,1.6392,1.38371,0.211737,-0.039025,0.00542312,0,0,6.44,-1.8725,-2.1,0.201056,-0.030866,-1.00687,-0.07336,0.16926,0.50946
-0.523887,0,0,15.5239,15.5239,14.4761,14.4761,0.23813,1.63641,1.38262,0.0451074,-0.0605177,-0.0973609,1,0,7.455,-1.47,-1.5575,0.033672,-0.05246,-1.10886,-0.07336,0.16926,0.50946
-0.539488,0,0,15.5395,15.5395,14.4605,14.4605,0.245222,1.63361,1.38153,0.0451561,-0.0603939,-0.0973601,1,0,7.455,-1.47,-1.5575,0.033672,-0.05246,-1.10886,-0.07336,0.16926,0.50946
-0.550617,0,0,15.5506,15.5506,14.4494,14.4494,0.25028,1.63535,1.38139,-0.304996,0.0785524,-0.137811,1,0,6.3,1.19,-1.015,-0.317932,0.086254,-1.149,-0.07336,0.16926,0.50946
-0.561746,0,0,15.5617,15.5617,14.4383,14.4383,0.255339,1.6371,1.38124,-0.305026,0.0786406,-0.137813,1,0,6.3,1.19,-1.015,-0.317932,0.086254,-1.149,-0.07336,0.16926,0.50946
-0.55321,0,0,15.5532,15.5532,14.4468,14.4468,0.251459,1.63838,1.3829,-0.153192,0.150994,0.346727,1,0,1.26,0.9275,0.035,-0.165432,0.1586,-0.668194,-0.07336,0.16926,0.50946
-0.544675,0,0,15.5447,15.5447,14.4553,14.4553,0.247579,1.63967,1.38455,-0.153214,0.150926,0.346727,1,0,1.26,0.9275,0.035,-0.165432,0.1586,-0.668194,-0.07336,0.16926,0.50946
-0.52924,0,0,15.5292,15.5292,14.4708,14.4708,0.240563,1.63868,1.38569,0.141163,0.06788,0.232386,1,0,-0.49,-0.4025,-0.2625,0.130174,0.075762,-0.781654,-0.07168,0.15036,0.50372
-0.910987,0,0,15.911,15.911,14.089,14.089,0.414085,1.68278,1.31349,0.0357944,-0.148188,0.0857914,0,0,2.1175,-0.4025,-0.1925,0.025132,-0.143106,-0.927078,-0.07168,0.15036,0.50372
-1.29339,0,0,16.2934,16.2934,13.7066,13.7066,0.587904,1.72669,1.2415,0.0350284,-0.145156,0.0857421,0,0,4.1125,-0.0175,-0.315,0.025132,-0.143106,-0.927078,-0.07168,0.15036,0.50372
-1.15417,0,0,16.1542,16.1542,13.8458,13.8458,0.524621,1.81416,1.13347,0.0698266,0.0608663,0.0134119,0,0,5.53,0.28,-0.28,0.06161,0.063806,-0.998814,-0.07168,0.15036,0.50372
-1.02469,0,0,16.0247,16.0247,13.9753,13.9753,0.465769,1.90084,1.02573,0.0683145,0.0598393,0.0133718,0,0,7.35,0.8925,-0.1225,0.06161,0.063806,-0.998814,-0.07168,0.15036,0.50372
-1.03994,0,0,16.0399,16.0399,13.9601,13.9601,0.472701,1.90263,1.02752,0.38524,-0.0255285,-0.160479,1,0,7.315,1.225,0.105,0.379908,-0.021594,-1.17132,-0.07168,0.15036,0.50372
-1.04889,0,0,16.0489,16.0489,13.9511,13.9511,0.47677,1.90439,1.02861,0.385209,-0.0254575,-0.160481,1,0,5.7225,1.2075,-0.2975,0.379908,-0.021594,-1.17132,-0.07168,0.15036,0.50372
-1.05274,0,0,16.0527,16.0527,13.9473,13.9473,0.478517,1.90589,1.02934,0.250212,-0.188466,-0.10159,1,0,4.4275,1.05,-0.5075,0.244366,-0.184464,-1.11288,-0.07168,0.15036,0.50372
-1.0419,0,0,16.0419,16.0419,13.9581,13.9581,0.473592,1.90592,1.02937,0.250211,-0.188552,-0.101589,1,0,0.7,0.1925,-0.91,0.244366,-0.184464,-1.11288,-0.0749,0.14014,0.49952
-1.02712,0,0,16.0271,16.0271,13.9729,13.9729,0.466871,1.90594,1.02889,-0.553781,-0.0898689,-0.0460155,1,0,-0.2975,0.175,-1.2075,-0.56303,-0.085766,-1.05774,-0.0749,0.14014,0.49952
-1.00934,0,0,16.0093,16.0093,13.9907,13.9907,0.458792,1.90512,1.02793,-0.553767,-0.0900098,-0.0460138,1,0,-1.05,-0.315,-1.4875,-0.56303,-0.085766,-1.05774,-0.0749,0.14014,0.49952
-1.24315,0,0,16.2431,16.2431,13.7569,13.7569,0.565067,2.05307,0.8759,0.132841,-0.111239,-0.0359149,0,0,-1.33,-0.28,-1.435,0.129076,-0.108824,-1.04761,-0.0749,0.14014,0.49952
-1.48561,0,0,16.4856,16.4856,13.5144,13.5144,0.675279,2.19781,0.725142,0.130316,-0.109318,-0.0360293,0,0,1.995,-0.3675,-1.2075,0.129076,-0.108824,-1.04761,-0.0749,0.14014,0.49952
-1.4882,0,0,16.4882,16.4882,13.5118,13.5118,0.676455,2.19707,0.724713,0.137011,-0.194908,-0.119511,1,0,4.13,-0.2625,-1.1725,0.135786,-0.194346,-1.13045,-0.0749,0.14014,0.49952
-1.50245,0,0,16.5024,16.5024,13.4976,13.4976,0.682932,2.1981,0.724155,0.136993,-0.194795,-0.119513,1,0,7.105,0.77,-1.26,0.135786,-0.194346,-1.13045,-0.0749,0.14014,0.49952
-1.51845,0,0,16.5184,16.5184,13.4816,13.4816,0.690204,2.19976,0.723994,0.0847253,-0.276493,-0.180006,1,0,7.5425,1.1375,-1.0325,0.083326,-0.276086,-1.19048,-0.0749,0.14014,0.49952
-1.5274,0,0,16.5274,16.5274,13.4726,13.4726,0.694271,2.20185,0.724079,0.0846887,-0.276422,-0.180009,1,0,5.74,1.4,-0.8925,0.083326,-0.276086,-1.19048,-0.06552,0.1337,0.49252
-1.53002,0,0,16.53,16.53,13.47,13.47,0.695464,2.20279,0.724091,-0.280514,-0.18212,-0.194026,1,0,4.13,0.7175,-0.9275,-0.283406,-0.181902,-1.20438,-0.06552,0.1337,0.49252
-1.51858,0,0,16.5186,16.5186,13.4814,13.4814,0.690264,2.20262,0.723458,-0.280511,-0.18221,-0.194025,1,0,0.56,0.07,-1.295,-0.283406,-0.181902,-1.20438,-0.06552,0.1337,0.49252
-1.68086,0,0,16.6809,16.6809,13.3191,13.3191,0.764027,2.42722,0.504548,0.176489,-0.0706457,0.0818202,0,0,-1.3475,-0.5425,-1.4175,0.179462,-0.071736,-0.930494,-0.06552,0.1337,0.49252
-1.84069,0,0,16.8407,16.8407,13.1593,13.1593,0.836676,2.646,0.286969,0.172675,-0.0693815,0.0816336,0,0,-1.19,-1.26,-1.225,0.179462,-0.071736,-0.930494,-0.06552,0.1337,0.49252
-1.68957,0,0,16.6896,16.6896,13.3104,13.3104,0.767987,2.87349,0.055112,0.17454,0.053255,0.0901885,0,0,-0.7525,-0.9625,-1.2075,0.185318,0.051972,-0.921832,-0.06552,0.1337,0.49252
-1.55783,0,0,16.5578,16.5578,13.4422,13.4422,0.708103,3.09819,-0.176338,0.170624,0.0522087,0.0899977,0,0,3.5175,0.1225,-0.9975,0.185318,0.051972,-0.921832,-0.06552,0.1337,0.49252
-1.8412,0,0,16.8412,16.8412,13.1588,13.1588,0.836909,3.13875,-0.237067,0.0338529,-0.110907,0.0306678,0,0,6.09,0.665,-0.7875,0.048678,-0.113216,-0.980636,-0.06552,0.1337,0.49252
-2.12836,0,0,17.1284,17.1284,12.8716,12.8716,0.967435,3.17823,-0.301683,0.0331649,-0.108633,0.030594,0,0,8.4,0.805,-0.6125,0.048678,-0.113216,-0.980636,-0.06426,0.13636,0.48608
-2.14592,0,0,17.1459,17.1459,12.8541,12.8541,0.975417,3.17942,-0.301393,-0.212136,-0.255901,-0.0634651,1,0,7.9275,0.875,-0.77,-0.19764,-0.26047,-1.07397,-0.06426,0.13636,0.48608
-2.15021,0,0,17.1502,17.1502,12.8498,12.8498,0.977368,3.17955,-0.30121,-0.212138,-0.255867,-0.0634658,1,0,4.55,0.245,-0.8225,-0.19764,-0.26047,-1.07397,-0.06426,0.13636,0.48608
-2.23231,0,0,17.2323,17.2323,12.7677,12.7677,1.01469,3.13646,-0.296478,-0.032317,-0.0416164,-0.0968777,0,0,2.17,-0.2625,-1.015,-0.017812,-0.047092,-1.10715,-0.06426,0.13636,0.48608
-2.29978,0,0,17.2998,17.2998,12.7002,12.7002,1.04535,3.09383,-0.292582,-0.0315741,-0.0410813,-0.0968469,0,0,-1.1375,-0.5425,-1.4525,-0.017812,-0.047092,-1.10715,-0.06426,0.13636,0.48608
-2.39738,0,0,17.3974,17.3974,12.6026,12.6026,1.08972,3.30294,-0.515978,0.19767,-0.0547231,-0.0572296,0,0,-1.3475,-1.2425,-1.4525,0.216062,-0.061488,-1.06762,-0.06426,0.13636,0.48608
-2.50338,0,0,17.5034,17.5034,12.4966,12.4966,1.1379,3.50902,-0.738544,0.19408,-0.053888,-0.0574595,0,0,1.2775,-0.5075,-1.47,0.216062,-0.061488,-1.06762,-0.06426,0.13636,0.48608
-2.2762,0,0,17.2762,17.2762,12.7238,12.7238,1.03464,3.77964,-1.02835,0.199935,0.0875627,0.11391,0,0,2.59,-0.35,-1.54,0.226676,0.081618,-0.89731,-0.06426,0.13636,0.48608
-2.06942,0,0,17.0694,17.0694,12.9306,12.9306,0.940644,4.04855,-1.31714,0.195253,0.0859208,0.113618,0,0,6.8425,0.385,-1.4,0.226676,0.081618,-0.89731,-0.07042,0.13678,0.47544
-2.0861,0,0,17.0861,17.0861,12.9139,12.9139,0.948227,4.04881,-1.31813,-0.133613,-0.113747,-0.226091,1,0,7.7525,0.315,-1.505,-0.103578,-0.117974,-1.2344,-0.07042,0.13678,0.47544
-2.09821,0,0,17.0982,17.0982,12.9018,12.9018,0.953733,4.04949,-1.31893,-0.133625,-0.113651,-0.226093,1,0,6.58,0.56,-1.4,-0.103578,-0.117974,-1.2344,-0.07042,0.13678,0.47544
-2.1049,0,0,17.1049,17.1049,12.8951,12.8951,0.956772,4.05065,-1.32017,0.0451814,-0.0977214,-0.101303,1,0,5.215,0.84,-1.6625,0.076006,-0.102114,-1.11057,-0.07042,0.13678,0.47544
-2.09811,0,0,17.0981,17.0981,12.9019,12.9019,0.953686,4.05044,-1.32153,0.0451851,-0.0977751,-0.101302,1,0,1.785,0.035,-1.715,0.076006,-0.102114,-1.11057,-0.07042,0.13678,0.47544
-2.18394,0,0,17.1839,17.1839,12.8161,12.8161,0.992701,3.7773,-1.12263,-0.24126,-0.0455528,-0.0807014,0,0,0.735,-0.1225,-1.505,-0.216428,-0.05063,-1.09044,-0.07042,0.13678,0.47544
-2.26661,0,0,17.2666,17.2666,12.7334,12.7334,1.03028,3.50874,-0.924218,-0.236582,-0.0448932,-0.0804151,0,0,0.385,-0.7175,-1.295,-0.216428,-0.05063,-1.09044,-0.07042,0.13678,0.47544
-2.16293,0,0,17.1629,17.1629,12.8371,12.8371,0.983151,3.49366,-0.953089,-0.00877689,0.0418511,-0.0862862,0,0,1.4,-0.56,-1.2775,0.012078,0.036844,-1.09629,-0.07042,0.13678,0.47544
-2.07582,0,0,17.0758,17.0758,12.9242,12.9242,0.943555,3.48011,-0.980904,-0.00854071,0.0411617,-0.0862602,0,0,5.0925,0.175,-0.735,0.012078,0.036844,-1.09629,-0.07042,0.13678,0.47544
-2.08715,0,0,17.0872,17.0872,12.9128,12.9128,0.948706,3.48058,-0.979965,-0.188834,-0.0791656,-0.169621,1,0,6.3175,0.455,-0.385,-0.16897,-0.083448,-1.17901,-0.06846,0.13594,0.48538
-2.10199,0,0,17.102,17.102,12.898,12.898,0.955448,3.48256,-0.978519,0.0837456,-0.232684,-0.106799,1,0,7.1925,1.3475,-0.105,0.104798,-0.236924,-1.11667,-0.06846,0.13594,0.48538
-2.11469,0,0,17.1147,17.1147,12.8853,12.8853,0.961224,3.48424,-0.976538,0.0837164,-0.232583,-0.106802,1,0,6.6325,1.1725,0.21,0.104798,-0.236924,-1.11667,-0.06846,0.13594,0.48538
-2.12131,0,0,17.1213,17.1213,12.8787,12.8787,0.96423,3.48612,-0.974434,-0.242384,0.030286,-0.0988133,1,0,5.075,1.295,0.28,-0.22265,0.02562,-1.10874,-0.06846,0.13594,0.48538
-2.12058,0,0,17.1206,17.1206,12.8794,12.8794,0.9639,3.48663,-0.972262,-0.242393,0.0302803,-0.0988138,1,0,3.2025,0.49,0.3325,-0.22265,0.02562,-1.10874,-0.06846,0.13594,0.48538
-1.6115,0,0,16.6115,16.6115,13.3885,13.3885,0.732501,3.54756,-1.07268,0.0404578,0.207973,0.0462599,0,0,2.7125,-0.175,0.28,0.062464,0.207156,-0.964776,-0.06846,0.13594,0.48538
-1.10992,0,0,16.1099,16.1099,13.8901,13.8901,0.504511,3.60574,-1.17389,0.0394443,0.204001,0.0462394,0,0,2.2925,-0.98,-0.0525,0.062464,0.207156,-0.964776,-0.06846,0.13594,0.48538
-0.790427,0,0,15.7904,15.7904,14.2096,14.2096,0.359285,3.52702,-1.14779,-0.0709512,0.134058,0.0040497,0,0,3.1675,-0.5075,-0.14,-0.049776,0.139812,-1.00674,-0.06846,0.13594,0.48538
-0.486585,0,0,15.4866,15.4866,14.5134,14.5134,0.221175,3.44981,-1.11924,-0.0696062,0.131653,0.00414387,0,0,5.6525,-0.8225,-0.4025,-0.049776,0.139812,-1.00674,-0.05978,0.13314,0.4837
-0.720788,0,0,15.7208,15.7208,14.2792,14.2792,0.327631,3.45582,-1.15347,0.00257303,-0.086565,0.0842911,0,0,5.705,0.0875,-0.595,0.022814,-0.080032,-0.9272,-0.05978,0.13314,0.4837
-0.958389,0,0,15.9584,15.9584,14.0416,14.0416,0.435631,3.46256,-1.18872,0.0024557,-0.0846835,0.0842715,0,0,7.7175,0.5425,-1.2075,0.022814,-0.080032,-0.9272,-0.05978,0.13314,0.4837
-0.723213,0,0,15.7232,15.7232,14.2768,14.2768,0.328733,3.38986,-1.16102,-0.0669825,0.109346,-0.042769,0,0,6.965,0.6125,-1.2075,-0.04819,0.115656,-1.05335,-0.05978,0.13314,0.4837
-0.48592,0,0,15.4859,15.4859,14.5141,14.5141,0.220873,3.3192,-1.13359,-0.0657512,0.107467,-0.0426879,0,0,5.32,0.9975,-1.5225,-0.04819,0.115656,-1.05335,-0.05978,0.13314,0.4837
-0.492242,0,0,15.4922,15.4922,14.5078,14.5078,0.223747,3.31906,-1.13527,0.0808843,0.118264,0.123293,1,0,5.1275,0.0875,-1.9075,0.099064,0.126392,-0.888648,-0.05978,0.13314,0.4837
-0.48961,0,0,15.4896,15.4896,14.5104,14.5104,0.22255,3.31828,-1.13771,0.0808981,0.118243,0.123293,1,0,2.87,-0.2975,-2.345,0.099064,0.126392,-0.888648,-0.05978,0.13314,0.4837
-0.488958,0,0,15.489,15.489,14.511,14.511,0.222253,3.31692,-1.14078,-0.161199,-0.124916,0.206285,1,0,3.395,-0.63,-2.7125,-0.144082,-0.11651,-0.806298,-0.05978,0.13314,0.4837
-0.489587,0,0,15.4896,15.4896,14.5104,14.5104,0.22254,3.31542,-1.14403,-0.161173,-0.124911,0.206287,1,0,3.7275,-0.7175,-2.8175,-0.144082,-0.11651,-0.806298,-0.06076,0.13328,0.4767
-0.617385,0,0,15.6174,15.6174,14.3826,14.3826,0.28063,3.3996,-1.25478,0.0640525,-0.0468374,0.0860754,0,0,5.1975,-0.5775,-2.8,0.08357,-0.039528,-0.925492,-0.06076,0.13328,0.4767
-0.742818,0,0,15.7428,15.7428,14.2572,14.2572,0.337644,3.48213,-1.36522,0.0626147,-0.0458446,0.0859836,0,0,5.1975,-0.5775,-2.8,0.08357,-0.039528,-0.925492,-0.06076,0.13328,0.4767
-0.754256,0,0,15.7543,15.7543,14.2457,14.2457,0.342844,3.48253,-1.36709,0.0142563,0.0281327,-0.126595,1,0,6.44,0.4025,-2.0125,0.035014,0.034282,-1.13643,-0.06076,0.13328,0.4767
-0.765694,0,0,15.7657,15.7657,14.2343,14.2343,0.348043,3.48294,-1.36895,0.0142492,0.0282232,-0.126596,1,0,6.44,0.4025,-2.0125,0.035014,0.034282,-1.13643,-0.06076,0.13328,0.4767
-0.927701,0,0,15.9277,15.9277,14.0723,14.0723,0.421682,3.58875,-1.4954,0.0995112,-0.0675855,-0.0445892,0,0,6.44,1.225,-1.19,0.122488,-0.062708,-1.05493,-0.06076,0.13328,0.4767
-1.08674,0,0,16.0867,16.0867,13.9133,13.9133,0.493972,3.69249,-1.62143,0.0977042,-0.0663273,-0.0447143,0,0,6.44,1.225,-1.19,0.122488,-0.062708,-1.05493,-0.06076,0.13328,0.4767
-1.12405,0,0,16.124,16.124,13.876,13.876,0.510931,3.74477,-1.70401,0.0469845,-0.0143729,-0.0174815,0,0,4.5675,0.525,-0.035,0.072468,-0.011102,-1.02785,-0.06076,0.13328,0.4767
-1.16062,0,0,16.1606,16.1606,13.8394,13.8394,0.527554,3.7969,-1.77503,0.0460768,-0.0140839,-0.0175439,0,0,4.5675,0.525,-0.035,0.072468,-0.011102,-1.02785,-0.07126,0.12782,0.4739
-1.4857,0,0,16.4857,16.4857,13.5143,13.5143,0.675316,3.73415,-1.73364,-0.050505,-0.126798,0.0812286,0,0,2.905,-0.1225,0.455,-0.02562,-0.12627,-0.929884,-0.07126,0.12782,0.4739
-1.80473,0,0,16.8047,16.8047,13.1953,13.1953,0.820334,3.67275,-1.69275,-0.0494356,-0.124271,0.0812649,0,0,2.905,-0.1225,0.455,-0.02562,-0.12627,-0.929884,-0.07126,0.12782,0.4739
-1.25668,0,0,16.2567,16.2567,13.7433,13.7433,0.57122,3.60869,-1.6736,-0.0616831,0.242168,-0.0125441,0,0,4.5325,0.2625,0.9975,-0.03904,0.244122,-1.02309,-0.07126,0.12782,0.4739
-1.26976,0,0,16.2698,16.2698,13.7302,13.7302,0.577163,3.60791,-1.67003,-0.0193926,0.069584,-0.190943,1,0,6.6675,-0.2625,1.155,0.003416,0.071614,-1.20011,-0.07126,0.12782,0.4739
-1.28613,0,0,16.2861,16.2861,13.7139,13.7139,0.584604,3.60819,-1.66696,-0.0193974,0.0697136,-0.190944,1,0,7.525,0.35,0.8575,0.003416,0.071614,-1.20011,-0.07126,0.12782,0.4739
-0.751206,0,0,15.7512,15.7512,14.2488,14.2488,0.341457,3.47418,-1.58206,-0.126157,0.246227,-0.0278587,0,0,7.455,1.26,0.525,-0.10614,0.252174,-1.03846,-0.07126,0.12782,0.4739
-0.221014,0,0,15.221,15.221,14.779,14.779,0.100461,3.34118,-1.49683,-0.12384,0.242029,-0.0277045,0,0,6.2125,0.42,0.07,-0.10614,0.252174,-1.03846,-0.07126,0.12782,0.4739
-0.222147,0,0,15.2221,15.2221,14.7779,14.7779,0.100976,3.34139,-1.4956,-0.0632223,-0.0156497,0.369665,1,0,3.71,0.2975,-0.21,-0.045262,-0.005246,-0.64416,-0.06902,0.1274,0.47362
-0.217055,0,0,15.2171,15.2171,14.7829,14.7829,0.0986613,3.34077,-1.49578,-0.0632115,-0.01569,0.369665,1,0,2.17,-0.1925,-1.0325,-0.045262,-0.005246,-0.64416,-0.06902,0.1274,0.47362
-0.00382227,0,0,15.0038,15.0038,14.9962,14.9962,0.00173739,3.46019,-1.63351,0.106367,0.0902148,-0.0194657,0,0,1.8725,-0.4375,-1.82,0.127124,0.102236,-1.03017,-0.06902,0.1274,0.47362
0.490035,0,0,14.51,14.51,15.49,15.49,-0.222743,3.39484,-1.61302,-0.0608734,0.212339,0.0120697,0,0,4.1125,-0.6475,-1.82,-0.041968,0.22814,-0.998936,-0.06902,0.1274,0.47362
0.973791,0,0,14.0262,14.0262,15.9738,15.9738,-0.442632,3.33079,-1.59259,-0.0597575,0.208507,0.0121131,0,0,4.41,-0.5425,-2.1875,-0.041968,0.22814,-0.998936,-0.06902,0.1274,0.47362
1.45936,0,0,13.5406,13.5406,16.4594,16.4594,-0.663346,3.52682,-1.81082,0.148334,0.195016,0.113058,0,0,6.6325,-0.1225,-2.0825,0.170434,0.218502,-0.89853,-0.06902,0.1274,0.47362
1.93934,0,0,13.0607,13.0607,16.9393,16.9393,-0.881519,3.71916,-2.03016,0.144984,0.191219,0.112795,0,0,5.9325,-0.035,-2.1175,0.170434,0.218502,-0.89853,-0.06902,0.1274,0.47362
1.20934,0,0,13.7907,13.7907,16.2093,16.2093,-0.549699,3.18612,-1.53706,-0.45571,-0.302018,0.155721,0,0,5.775,0.175,-1.7325,-0.442128,-0.27999,-0.856562,-0.06902,0.1274,0.47362
0.49892,0,0,14.5011,14.5011,15.4989,15.4989,-0.226782,2.66706,-1.04494,-0.446662,-0.296392,0.156222,0,0,4.1125,0.735,-1.8375,-0.442128,-0.27999,-0.856562,-0.06622,0.12278,0.46704
0.27471,0,0,14.7253,14.7253,15.2747,15.2747,-0.124868,2.80333,-1.16696,0.10518,-0.0915185,0.0900906,0,0,1.715,0.07,-1.68,0.114436,-0.077104,-0.922076,-0.06622,0.12278,0.46704
0.056504,0,0,14.9435,14.9435,15.0565,15.0565,-0.0256837,2.93724,-1.28761,0.102846,-0.0897894,0.0899758,0,0,1.2075,0.28,-1.2425,0.114436,-0.077104,-0.922076,-0.06622,0.12278,0.46704
0.063893,0,0,14.9361,14.9361,15.0639,15.0639,-0.0290423,2.93719,-1.28809,0.00444318,-0.222233,0.166327,1,0,1.5925,0.14,-1.2075,0.015616,-0.209352,-0.846314,-0.06622,0.12278,0.46704
0.0641906,0,0,14.9358,14.9358,15.0642,15.0642,-0.0291776,2.93815,-1.28719,0.00442637,-0.222236,0.166326,1,0,3.36,0.735,-0.4025,0.015616,-0.209352,-0.846314,-0.06622,0.12278,0.46704
0.061955,0,0,14.938,14.938,15.062,15.062,-0.0281614,2.93792,-1.28575,0.354066,0.15894,-0.249363,1,0,3.99,0.035,-0.0875,0.366732,0.17141,-1.2588,-0.06622,0.12278,0.46704
0.0586487,0,0,14.9414,14.9414,15.0586,15.0586,-0.0266585,2.93787,-1.28395,0.354067,0.158966,-0.249363,1,0,4.2525,0.14,0.1225,0.366732,0.17141,-1.2588,-0.06622,0.12278,0.46704
0.0530415,0,0,14.947,14.947,15.053,15.053,-0.0241098,2.93713,-1.28244,-0.11935,0.383479,-0.0686276,1,0,4.8475,-0.2625,-0.0525,-0.108702,0.395646,-1.07946,-0.06622,0.12278,0.46704
0.0524023,0,0,14.9476,14.9476,15.0524,15.0524,-0.0238192,2.93678,-1.28115,-0.119344,0.383484,-0.0686273,1,0,3.5875,-0.035,-0.175,-0.108702,0.395646,-1.07946,-0.07126,0.12684,0.47222
0.0514749,0,0,14.9485,14.9485,15.0515,15.0515,-0.0233977,2.93754,-1.27974,-0.292595,-0.0625153,0.239358,1,0,3.6575,0.6125,-0.105,-0.282674,-0.049898,-0.773846,-0.07126,0.12684,0.47222
0.0571626,0,0,14.9428,14.9428,15.0572,15.0572,-0.025983,2.93775,-1.27914,-0.292599,-0.0625604,0.239358,1,0,1.995,0.2975,-0.5775,-0.282674,-0.049898,-0.773846,-0.07126,0.12684,0.47222
0.0647315,0,0,14.9353,14.9353,15.0647,15.0647,-0.0294234,2.93785,-1.27878,0.285428,0.092847,0.213661,1,0,1.5225,0.2275,-0.7175,0.297802,0.105408,-0.799344,-0.07126,0.12684,0.47222
0.0719383,0,0,14.9281,14.9281,15.0719,15.0719,-0.0326992,2.93789,-1.27947,0.285427,0.0927899,0.213661,1,0,1.645,0.1925,-1.33,0.297802,0.105408,-0.799344,-0.07126,0.12684,0.47222
0.0794153,0,0,14.9206,14.9206,15.0794,15.0794,-0.0360979,2.93784,-1.28073,0.0049178,0.228169,-0.0901443,1,0,1.5925,0.14,-1.6625,0.016104,0.240706,-1.10081,-0.07126,0.12684,0.47222
0.0792003,0,0,14.9208,14.9208,15.0792,15.0792,-0.0360001,2.93766,-1.2826,0.00492081,0.228171,-0.0901442,1,0,3.57,0.07,-2.0125,0.016104,0.240706,-1.10081,-0.07126,0.12684,0.47222
0.0790123,0,0,14.921,14.921,15.079,15.079,-0.0359147,2.93806,-1.2847,0.0565453,-0.217468,-0.105759,1,0,3.57,0.4025,-2.1525,0.067954,-0.204472,-1.1163,-0.07126,0.12684,0.47222
0.0751476,0,0,14.9249,14.9249,15.0751,15.0751,-0.034158,2.93741,-1.28647,0.0565567,-0.217437,-0.105758,1,0,4.4975,-0.21,-1.96,0.067954,-0.204472,-1.1163,-0.06916,0.12222,0.47082
-0.22844,0,0,15.2284,15.2284,14.7716,14.7716,0.103836,2.9267,-1.27488,-0.00655065,-0.134917,-0.0367762,0,0,3.885,-0.105,-2.3625,0.004392,-0.12444,-1.04786,-0.06916,0.12222,0.47082
-0.522624,0,0,15.5226,15.5226,14.4774,14.4774,0.237556,2.91603,-1.26286,-0.00636467,-0.132586,-0.0367736,0,0,2.8875,-0.21,-2.0125,0.004392,-0.12444,-1.04786,-0.06916,0.12222,0.47082
-0.517676,0,0,15.5177,15.5177,14.4823,14.4823,0.235307,2.9156,-1.26484,-0.111199,0.125795,-0.143124,1,0,2.2575,-0.0875,-2.0825,-0.100894,0.133712,-1.15339,-0.06916,0.12222,0.47082
-0.509629,0,0,15.5096,15.5096,14.4904,14.4904,0.23165,2.91471,-1.26569,-0.111184,0.125731,-0.143123,1,0,1.435,-0.35,-1.4175,-0.100894,0.133712,-1.15339,-0.06916,0.12222,0.47082
0.215164,0,0,14.7848,14.7848,15.2152,15.2152,-0.097802,2.69699,-1.09224,-0.200568,0.321375,0.00928046,0,0,0.665,0.2275,-1.225,-0.194468,0.33489,-1.00235,-0.06916,0.12222,0.47082
0.923514,0,0,14.0765,14.0765,15.9235,15.9235,-0.419779,2.48273,-0.915602,-0.196832,0.315761,0.00942407,0,0,1.6275,-0.0175,-0.7175,-0.194468,0.33489,-1.00235,-0.06916,0.12222,0.47082
1.37596,0,0,13.624,13.624,16.376,16.376,-0.625435,2.47482,-0.915398,-0.0111857,0.171607,0.11292,0,0,1.8025,0.42,0.21,-0.008174,0.194468,-0.899628,-0.06916,0.12222,0.47082
1.8158,0,0,13.1842,13.1842,16.8158,16.8158,-0.825362,2.46629,-0.91575,-0.011037,0.168121,0.112882,0,0,2.9225,-0.105,0.21,-0.008174,0.194468,-0.899628,-0.07056,0.12278,0.47628
1.81734,0,0,13.1827,13.1827,16.8173,16.8173,-0.826065,2.46663,-0.913353,-0.023313,-0.106799,-0.124409,1,0,3.01,0.35,0.4725,-0.020496,-0.080154,-1.13509,-0.07056,0.12278,0.47628
1.81889,0,0,13.1811,13.1811,16.8189,16.8189,-0.826767,2.46697,-0.910957,-0.0233189,-0.106811,-0.124409,1,0,3.01,0.35,0.4725,-0.020496,-0.080154,-1.13509,-0.07056,0.12278,0.47628
1.81908,0,0,13.1809,13.1809,16.8191,16.8191,-0.826856,2.46686,-0.908794,0.137409,0.0327785,-0.0894918,1,0,3.36,0.0875,0.3325,0.14091,0.059292,-1.10044,-0.07056,0.12278,0.47628
1.81928,0,0,13.1807,13.1807,16.8193,16.8193,-0.826944,2.46675,-0.906631,0.13741,0.0327769,-0.0894917,1,0,3.36,0.0875,0.3325,0.14091,0.059292,-1.10044,-0.07056,0.12278,0.47628
1.82422,0,0,13.1758,13.1758,16.8242,16.8242,-0.829189,2.46697,-0.904533,-0.0280568,-0.107464,0.128864,1,0,2.1525,0.28,0.2975,-0.025254,-0.080764,-0.883768,-0.07056,0.12278,0.47628
1.82915,0,0,13.1708,13.1708,16.8292,16.8292,-0.831434,2.46719,-0.902435,-0.0280606,-0.107503,0.128863,1,0,2.1525,0.28,0.2975,-0.025254,-0.080764,-0.883768,-0.07056,0.12278,0.47628
2.103,0,0,12.897,12.897,17.103,17.103,-0.95591,2.5304,-0.966156,0.0579423,0.116262,-0.0118717,0,0,1.05,0,-0.7525,0.06222,0.144936,-1.02334,-0.07056,0.12278,0.47628
2.37192,0,0,12.6281,12.6281,17.3719,17.3719,-1.07815,2.59239,-1.02995,0.0568616,0.114132,-0.0119578,0,0,1.05,0,-0.7525,0.06222,0.144936,-1.02334,-0.07056,0.12278,0.47628
3.19251,0,0,11.8075,11.8075,18.1925,18.1925,-1.45114,2.58707,-1.05243,-0.00755466,0.368737,0.0247874,0,0,2.7125,0.105,-1.7675,-0.002562,0.405772,-0.986736,-0.06398,0.12488,0.47362
3.18885,0,0,11.8111,11.8111,18.1889,18.1889,-1.44948,2.586,-1.0551,-0.196689,0.335181,-0.109348,1,0,4.4625,-0.42,-2.5025,-0.192516,0.372222,-1.11984,-0.06398,0.12488,0.47362
3.18519,0,0,11.8148,11.8148,18.1852,18.1852,-1.44781,2.58492,-1.05778,-0.19667,0.33521,-0.109346,1,0,4.4625,-0.42,-2.5025,-0.192516,0.372222,-1.11984,-0.06398,0.12488,0.47362
3.28548,0,0,11.7145,11.7145,18.2855,18.2855,-1.4934,2.29851,-0.79662,-0.255456,0.0425273,0.0382615,0,0,4.3225,0.2275,-2.66,-0.256566,0.080642,-0.97356,-0.06398,0.12488,0.47362
3.38407,0,0,11.6159,11.6159,18.3841,18.3841,-1.53821,2.01739,-0.535244,-0.250553,0.0417411,0.0384255,0,0,4.3225,0.2275,-2.66,-0.256566,0.080642,-0.97356,-0.06398,0.12488,0.47362
3.74779,0,0,11.2522,11.2522,18.7478,18.7478,-1.70354,2.04277,-0.566482,0.0286643,0.168191,-0.0658092,0,0,1.6275,-0.1575,-3.0625,0.024278,0.20984,-1.07689,-0.06398,0.12488,0.47362
4.10498,0,0,10.895,10.895,19.105,19.105,-1.8659,2.06765,-0.59773,0.0282303,0.165361,-0.0659129,0,0,1.6275,-0.1575,-3.0625,0.024278,0.20984,-1.07689,-0.06398,0.12488,0.47362
4.11107,0,0,10.8889,10.8889,19.1111,19.1111,-1.86867,2.0657,-0.600189,0.0218257,-0.0447451,0.101788,1,0,1.96,-0.9275,-2.3975,0.017812,0,-0.910486,-0.06398,0.12488,0.47362
4.11716,0,0,10.8828,10.8828,19.1172,19.1172,-1.87144,2.06374,-0.602647,0.0218598,-0.0447933,0.101788,1,0,1.96,-0.9275,-2.3975,0.017812,0,-0.910486,-0.06734,0.12838,0.46858
4.11378,0,0,10.8862,10.8862,19.1138,19.1138,-1.8699,2.07065,-0.603564,0.314763,-0.0343857,-0.255627,1,0,4.34,4.235,-1.33,0.312076,0.01037,-1.26514,-0.06734,0.12838,0.46858
4.11041,0,0,10.8896,10.8896,19.1104,19.1104,-1.86837,2.07757,-0.60448,0.314642,-0.0343588,-0.25563,1,0,4.34,4.235,-1.33,0.312076,0.01037,-1.26514,-0.06734,0.12838,0.46858
4.10757,0,0,10.8924,10.8924,19.1076,19.1076,-1.86708,2.07806,-0.603416,0.39445,-0.354675,-0.00727373,1,0,4.165,0.4375,-0.2975,0.39223,-0.309636,-1.0187,-0.06734,0.12838,0.46858
4.10472,0,0,10.8953,10.8953,19.1047,19.1047,-1.86578,2.07855,-0.602351,0.394441,-0.354652,-0.0072733,1,0,4.165,0.4375,-0.2975,0.39223,-0.309636,-1.0187,-0.06734,0.12838,0.46858
4.10822,0,0,10.8918,10.8918,19.1082,19.1082,-1.86737,2.07884,-0.599929,-0.161604,-0.352237,-0.125059,1,0,2.52,0.2975,0.49,-0.166164,-0.307196,-1.13558,-0.06734,0.12838,0.46858
4.11172,0,0,10.8883,10.8883,19.1117,19.1117,-1.86897,2.07914,-0.597507,-0.161609,-0.352265,-0.12506,1,0,2.52,0.2975,0.49,-0.166164,-0.307196,-1.13558,-0.06734,0.12838,0.46858
3.53759,0,0,11.4624,11.4624,18.5376,18.5376,-1.608,2.22194,-0.718269,0.12127,-0.244882,0.0747758,0,0,1.0325,-0.21,0.8925,0.120414,-0.204472,-0.937326,-0.06734,0.12838,0.46858
3.21669,0,0,11.7833,11.7833,18.2167,18.2167,-1.46213,2.52648,-0.98678,0.25749,-0.138159,0.0977381,0,0,2.0825,-0.3325,0.8225,0.262544,-0.100406,-0.91439,-0.06622,0.12082,0.47348
2.89824,0,0,12.1018,12.1018,17.8982,17.8982,-1.31738,2.82626,-1.25379,0.252264,-0.135631,0.0975551,0,0,2.87,0.21,0.6825,0.262544,-0.100406,-0.91439,-0.06622,0.12082,0.47348
2.89463,0,0,12.1054,12.1054,17.8946,17.8946,-1.31574,2.82739,-1.25169,-0.171741,-0.184819,-0.138629,1,0,4.3225,0.805,0.315,-0.163236,-0.149572,-1.14875,-0.06622,0.12082,0.47348
2.8897,0,0,12.1103,12.1103,17.8897,17.8897,-1.3135,2.82795,-1.24996,0.147392,-0.171224,-0.179817,1,0,4.6725,0.4725,0.0875,0.157258,-0.13603,-1.18962,-0.06622,0.12082,0.47348
2.88512,0,0,12.1149,12.1149,17.8851,17.8851,-1.31142,2.82807,-1.24906,0.14739,-0.171188,-0.179816,1,0,4.6025,0.2275,-0.4025,0.157258,-0.13603,-1.18962,-0.06622,0.12082,0.47348
2.88047,0,0,12.1195,12.1195,17.8805,17.8805,-1.3093,2.82874,-1.24869,-0.0651,-0.20156,0.197022,1,0,4.6375,0.56,-0.7,-0.05612,-0.166408,-0.815692,-0.06622,0.12082,0.47348
2.88039,0,0,12.1196,12.1196,17.8804,17.8804,-1.30927,2.82997,-1.24874,-0.0651215,-0.20156,0.19702,1,0,3.4825,0.8925,-0.945,-0.05612,-0.166408,-0.815692,-0.06622,0.12082,0.47348
2.36202,0,0,12.638,12.638,17.362,17.362,-1.07365,2.33571,-0.770884,-0.468705,-0.236907,0.0668003,0,0,4.2,0.77,-1.365,-0.470066,-0.205814,-0.945378,-0.06622,0.12082,0.47348
1.85443,0,0,13.1456,13.1456,16.8544,16.8544,-0.842923,1.84013,-0.329065,-0.460061,-0.232889,0.0671827,0,0,3.6575,0.5075,-2.205,-0.470066,-0.205814,-0.945378,-0.06832,0.14294,0.48244
1.59992,0,0,13.4001,13.4001,16.5999,16.5999,-0.727236,2.0413,-0.534619,0.167427,-0.105812,0.0817223,0,0,3.3075,0.245,-2.38,0.163602,-0.080886,-0.93086,-0.06832,0.14294,0.48244
1.34874,0,0,13.6513,13.6513,16.3487,16.3487,-0.613065,2.23871,-0.739326,0.163984,-0.103819,0.0816169,0,0,3.6225,0.28,-2.52,0.163602,-0.080886,-0.93086,-0.06832,0.14294,0.48244
0.89592,0,0,14.1041,14.1041,15.8959,15.8959,-0.407236,2.18624,-0.714265,-0.0413841,-0.188406,0.0634879,0,0,2.835,-0.315,-2.8,-0.043554,-0.16897,-0.948916,-0.06832,0.14294,0.48244
0.451317,0,0,14.5487,14.5487,15.4513,15.4513,-0.205144,2.13603,-0.689448,-0.0405084,-0.184881,0.0635398,0,0,2.8,0.35,-2.6775,-0.043554,-0.16897,-0.948916,-0.06832,0.14294,0.48244
0.455613,0,0,14.5444,14.5444,15.4556,15.4556,-0.207097,2.13561,-0.692598,0.498652,0.185495,-0.210143,1,0,2.4325,-0.07,-2.765,0.497882,0.201056,-1.22049,-0.06832,0.14294,0.48244
0.459545,0,0,14.5405,14.5405,15.4595,15.4595,-0.208884,2.13462,-0.695475,0.49867,0.185464,-0.210143,1,0,2.52,-0.4025,-2.6075,0.497882,0.201056,-1.22049,-0.06832,0.14294,0.48244
0.463255,0,0,14.5367,14.5367,15.4633,15.4633,-0.21057,2.1345,-0.698176,-0.0171564,0.0122589,0.152186,1,0,2.5725,0.105,-2.5025,-0.02013,0.02806,-0.860954,-0.06832,0.14294,0.48244
0.462242,0,0,14.5378,14.5378,15.4622,15.4622,-0.21011,2.13366,-0.700214,-0.0171418,0.012267,0.152187,1,0,3.7625,-0.315,-2.1175,-0.02013,0.02806,-0.860954,-0.06412,0.12978,0.47642
-0.0238242,0,0,15.0238,15.0238,14.9762,14.9762,0.0108292,1.90221,-0.482399,-0.20566,-0.21128,0.0354118,0,0,3.6575,0.2975,-1.96,-0.2135,-0.199104,-0.976976,-0.06412,0.12978,0.47642
-0.501233,0,0,15.5012,15.5012,14.4988,14.4988,0.227833,1.67434,-0.265542,-0.201684,-0.207494,0.035528,0,0,3.64,-0.175,-1.2425,-0.2135,-0.199104,-0.976976,-0.06412,0.12978,0.47642
-0.498215,0,0,15.4982,15.4982,14.5018,14.5018,0.226461,1.6742,-0.265693,0.0184502,0.0797244,-0.148649,1,0,2.695,0.0875,-1.015,0.007564,0.08784,-1.15973,-0.06412,0.12978,0.47642
-0.494927,0,0,15.4949,15.4949,14.5051,14.5051,0.224967,1.67492,-0.264701,0.0184376,0.0796984,-0.148649,1,0,2.6075,0.595,-0.35,0.007564,0.08784,-1.15973,-0.06412,0.12978,0.47642
-0.234374,0,0,15.2344,15.2344,14.7656,14.7656,0.106534,1.59827,-0.185287,-0.0686668,0.112194,-0.00832053,0,0,1.8375,0.595,4.305,-0.081252,0.122366,-1.02053,-0.06412,0.12978,0.47642
0.0214575,0,0,14.9785,14.9785,15.0215,15.0215,-0.00975343,1.52254,-0.112553,-0.0673455,0.110165,-0.00828282,0,0,1.96,0.245,0.2625,-0.081252,0.122366,-1.02053,-0.06412,0.12978,0.47642
-0.442501,0,0,15.4425,15.4425,14.5575,14.5575,0.201137,1.09316,0.29628,-0.405966,-0.218339,0.0317174,0,0,2.5375,-0.1925,0.2975,-0.42883,-0.209474,-0.981002,-0.06412,0.12978,0.47642
-0.89882,0,0,15.8988,15.8988,14.1012,14.1012,0.408555,0.672841,0.71038,-0.398631,-0.214719,0.0318112,0,0,2.6775,0.0525,0.7875,-0.42883,-0.209474,-0.981002,-0.0651,0.12404,0.46662
-0.934733,0,0,15.9347,15.9347,14.0653,14.0653,0.424879,1.12325,0.328309,0.425807,-0.0181775,0.0182845,0,0,3.255,0.0175,0.4025,0.406992,-0.01342,-0.9943,-0.0651,0.12404,0.46662
-0.969606,0,0,15.9696,15.9696,14.0304,14.0304,0.44073,1.56551,-0.0529318,0.41809,-0.0179023,0.0181013,0,0,3.255,0.0175,0.4025,0.406992,-0.01342,-0.9943,-0.0651,0.12404,0.46662
-0.971015,0,0,15.971,15.971,14.029,14.029,0.441371,1.5661,-0.0502574,0.0991803,0.0186247,0.171787,1,0,3.78,0.525,0.63,0.086742,0.023058,-0.8418,-0.0651,0.12404,0.46662
-0.972425,0,0,15.9724,15.9724,14.0276,14.0276,0.442011,1.56668,-0.0475831,0.0991701,0.0186359,0.171786,1,0,3.78,0.525,0.63,0.086742,0.023058,-0.8418,-0.0651,0.12404,0.46662
-0.977034,0,0,15.977,15.977,14.023,14.023,0.444106,1.5674,-0.0465278,0.0951486,-0.0441007,-0.210707,1,0,4.62,0.595,-0.315,0.082716,-0.03965,-1.22134,-0.0651,0.12404,0.46662
-0.981643,0,0,15.9816,15.9816,14.0184,14.0184,0.446201,1.56811,-0.0454724,0.0951361,-0.0440641,-0.210708,1,0,4.62,0.595,-0.315,0.082716,-0.03965,-1.22134,-0.0651,0.12404,0.46662
-0.684747,0,0,15.6847,15.6847,14.3153,14.3153,0.311249,1.3449,0.167412,-0.193385,0.128956,0.0301399,0,0,3.9375,-0.07,-0.6475,-0.210938,0.135542,-0.982466,-0.0651,0.12404,0.46662
-0.393013,0,0,15.393,15.393,14.607,14.607,0.178642,1.12646,0.371926,-0.189574,0.126642,0.0302321,0,0,3.9375,-0.07,-0.6475,-0.210938,0.135542,-0.982466,-0.06748,0.1302,0.47096
-0.39104,0,0,15.391,15.391,14.609,14.609,0.177746,1.12582,0.370484,-0.0186322,-0.203848,0.166213,1,0,2.975,-0.21,-1.7675,-0.039284,-0.19459,-0.847534,-0.06748,0.1302,0.47096
-0.389068,0,0,15.3891,15.3891,14.6109,14.6109,0.176849,1.12517,0.369042,-0.0186209,-0.203864,0.166214,1,0,2.975,-0.21,-1.7675,-0.039284,-0.19459,-0.847534,-0.06748,0.1302,0.47096
-0.25561,0,0,15.2556,15.2556,14.7444,14.7444,0.116186,1.39763,0.127384,0.226035,0.0525206,0.0871787,0,0,2.0125,0.07,-2.45,0.211182,0.062586,-0.925858,-0.06748,0.1302,0.47096
-0.12424,0,0,15.1242,15.1242,14.8758,14.8758,0.056473,1.66494,-0.11439,0.221371,0.0514786,0.0870556,0,0,2.0125,0.07,-2.45,0.211182,0.062586,-0.925858,-0.06748,0.1302,0.47096
0.183781,0,0,14.8162,14.8162,15.1838,15.1838,-0.083537,1.76583,-0.21146,0.0789308,0.121579,0.099789,0,0,2.8,0.0875,-2.66,0.069906,0.135054,-0.91317,-0.06748,0.1302,0.47096
0.583607,0,0,14.4164,14.4164,15.5836,15.5836,-0.265276,1.53891,-0.0107142,-0.216451,0.188998,-0.0523167,0,0,3.2375,-0.035,-2.835,-0.230702,0.20557,-1.06421,-0.06748,0.1302,0.47096
0.956385,0,0,14.0436,14.0436,15.9564,15.9564,-0.434721,1.31729,0.192182,-0.212584,0.186041,-0.0522384,0,0,8.3475,0.6125,-2.24,-0.230702,0.20557,-1.06421,-0.06748,0.1302,0.47096
1.06239,0,0,13.9376,13.9376,16.0624,16.0624,-0.482902,1.18869,0.327201,-0.125179,0.0514708,-0.0890806,0,0,3.5875,0.8925,-1.995,-0.14518,0.07198,-1.10081,-0.06118,0.12418,0.47138
1.16919,0,0,13.8308,13.8308,16.1692,16.1692,-0.531452,1.06174,0.462161,-0.122964,0.0506233,-0.0890446,0,0,2.905,0.42,-2.065,-0.14518,0.07198,-1.10081,-0.06118,0.12418,0.47138
0.646454,0,0,14.3535,14.3535,15.6465,15.6465,-0.293843,1.30546,0.262651,0.214887,-0.233327,0.0449113,0,0,2.415,0.63,-1.5925,0.198372,-0.215818,-0.967826,-0.06118,0.12418,0.47138
0.132661,0,0,14.8673,14.8673,15.1327,15.1327,-0.0603005,1.54455,0.0652365,0.210716,-0.229252,0.0448201,0,0,2.415,0.63,-1.5925,0.198372,-0.215818,-0.967826,-0.06118,0.12418,0.47138
0.137245,0,0,14.8628,14.8628,15.1372,15.1372,-0.0623843,1.54411,0.0652967,-5.43411e-05,0.196201,-0.135791,1,0,2.2925,-0.0875,-0.8925,-0.013298,0.20923,-1.14704,-0.06118,0.12418,0.47138
-0.508856,0,0,15.5089,15.5089,14.4911,14.4911,0.231298,1.78905,-0.136691,0.221028,-0.293655,0.0445654,0,0,2.5725,-0.035,-0.63,0.213012,-0.285236,-0.967948,-0.06118,0.12418,0.47138
-1.14944,0,0,16.1494,16.1494,13.8506,13.8506,0.522471,2.02973,-0.334865,0.21683,-0.288577,0.0443921,0,0,3.9025,0.21,0.0875,0.213012,-0.285236,-0.967948,-0.06118,0.12418,0.47138
-1.71915,0,0,16.7191,16.7191,13.2809,13.2809,0.78143,2.13654,-0.412464,0.0916591,-0.249377,0.0423057,0,0,3.2725,0.42,0.525,0.089182,-0.250588,-0.9699,-0.06118,0.12418,0.47138
-2.28236,0,0,17.2824,17.2824,12.7176,12.7176,1.03743,2.24047,-0.489311,0.0898465,-0.244914,0.0421656,0,0,4.13,0.07,0.455,0.089182,-0.250588,-0.9699,-0.06048,0.12404,0.47432
-2.67868,0,0,17.6787,17.6787,12.3213,12.3213,1.21758,2.44929,-0.666429,0.181936,-0.173019,0.0442907,0,0,3.4475,0.1225,0.14,0.185318,-0.181902,-0.967582,-0.06048,0.12404,0.47432
-3.06891,0,0,18.0689,18.0689,11.9311,11.9311,1.39496,2.65456,-0.841332,0.178357,-0.169931,0.0440608,0,0,3.6225,0.4375,0.56,0.185318,-0.181902,-0.967582,-0.06048,0.12404,0.47432
-2.9997,0,0,17.9997,17.9997,12.0003,12.0003,1.3635,2.75083,-0.934648,0.0961332,0.0315169,-0.0702244,0,0,3.7975,-0.9625,0.245,0.104432,0.019886,-1.08092,-0.06048,0.12404,0.47432
-2.92965,0,0,17.9297,17.9297,12.0703,12.0703,1.33166,2.84543,-1.02783,0.0944842,0.0309602,-0.0702919,0,0,3.2725,-0.84,0.2625,0.104432,0.019886,-1.08092,-0.06048,0.12404,0.47432
-2.93096,0,0,17.931,17.931,12.069,12.069,1.33226,2.84365,-1.02664,0.136428,0.192178,-0.152789,1,0,3.7625,-0.8575,-0.21,0.146522,0.180926,-1.16278,-0.06048,0.12404,0.47432
-2.92957,0,0,17.9296,17.9296,12.0704,12.0704,1.33162,2.84206,-1.02632,0.136455,0.192167,-0.152787,1,0,3.0975,-0.7525,-0.7175,0.146522,0.180926,-1.16278,-0.06048,0.12404,0.47432
-3.15154,0,0,18.1515,18.1515,11.8485,11.8485,1.43252,2.77246,-0.965544,-0.0597455,-0.095758,0.0210788,0,0,3.15,-0.1925,-1.0325,-0.051728,-0.108458,-0.990274,-0.06048,0.12404,0.47432
-3.3667,0,0,18.3667,18.3667,11.6333,11.6333,1.53032,2.70439,-0.904788,-0.0585588,-0.0940521,0.0210915,0,0,2.4675,0,-1.6625,-0.051728,-0.108458,-0.990274,-0.06398,0.12362,0.47012
-3.33034,0,0,18.3303,18.3303,11.6697,11.6697,1.51379,2.4115,-0.647549,-0.241633,0.0149693,0.0891947,0,0,2.24,0.105,-1.75,-0.240706,0.000732,-0.92293,-0.06398,0.12362,0.47012
-3.29573,0,0,18.2957,18.2957,11.7043,11.7043,1.49806,2.1238,-0.391608,-0.236616,0.0147002,0.0894006,0,0,2.6075,-0.1575,-2.2925,-0.240706,0.000732,-0.92293,-0.06398,0.12362,0.47012
-3.136,0,0,18.136,18.136,11.864,11.864,1.42545,2.40332,-0.643656,0.260124,0.0713176,-0.0164955,0,0,2.52,-0.0875,-2.205,0.263032,0.05856,-1.02785,-0.06398,0.12362,0.47012
-2.98412,0,0,17.9841,17.9841,12.0159,12.0159,1.35642,2.67937,-0.896249,0.255311,0.070109,-0.0166798,0,0,3.9025,0.9975,-2.485,0.263032,0.05856,-1.02785,-0.06398,0.12362,0.47012
-3.33827,0,0,18.3383,18.3383,11.6617,11.6617,1.5174,2.69697,-0.907949,0.0138546,-0.153387,0.0306935,0,0,3.08,0.63,-2.5375,0.020862,-0.167506,-0.980758,-0.06398,0.12362,0.47012
-3.69211,0,0,18.6921,18.6921,11.3079,11.3079,1.67823,2.71464,-0.919296,0.0135466,-0.150584,0.0306008,0,0,4.585,0.875,-2.345,0.020862,-0.167506,-0.980758,-0.06398,0.12362,0.47012
-3.74389,0,0,18.7439,18.7439,11.2561,11.2561,1.70177,2.6618,-0.875144,-0.046761,-0.0279237,-0.0978492,0,0,3.4475,0.7175,-1.9075,-0.040626,-0.045384,-1.10825,-0.06398,0.12362,0.47012
-3.79378,0,0,18.7938,18.7938,11.2062,11.2062,1.72444,2.61005,-0.830452,-0.0458587,-0.0275273,-0.0978195,0,0,3.185,0.7525,-1.505,-0.040626,-0.045384,-1.10825,-0.06398,0.12362,0.47012
-3.7947,0,0,18.7947,18.7947,11.2053,11.2053,1.72486,2.61072,-0.831633,0.0488884,0.0799515,-0.112205,1,0,3.7275,0.5425,-1.6275,0.054534,0.061976,-1.12252,-0.06174,0.1239,0.4676
-3.79207,0,0,18.7921,18.7921,11.2079,11.2079,1.72367,2.61214,-0.832011,0.0770483,0.0750456,0.188034,1,0,2.8,0.9975,-1.1725,0.082838,0.057096,-0.824598,-0.06174,0.1239,0.4676
-3.79086,0,0,18.7909,18.7909,11.2091,11.2091,1.72312,2.61344,-0.831162,0.0770256,0.075036,0.188034,1,0,3.1325,0.945,-0.455,0.082838,0.057096,-0.824598,-0.06174,0.1239,0.4676
-3.52325,0,0,18.5232,18.5232,11.4768,11.4768,1.60148,2.45108,-0.69461,-0.15048,0.124213,-0.0688649,0,0,3.045,0.0175,-0.665,-0.148474,0.108336,-1.0797,-0.06174,0.1239,0.4676
-3.25769,0,0,18.2577,18.2577,11.7423,11.7423,1.48077,2.29257,-0.557025,-0.147716,0.122112,-0.0686939,0,0,2.3625,0.455,-0.35,-0.148474,0.108336,-1.0797,-0.06174,0.1239,0.4676
-3.25857,0,0,18.2586,18.2586,11.7414,11.7414,1.48117,2.29138,-0.555765,-0.0522076,0.239482,-0.268116,1,0,3.6575,-0.5075,-0.175,-0.052582,0.225578,-1.27758,-0.06174,0.1239,0.4676
-3.26143,0,0,18.2614,18.2614,11.7386,11.7386,1.48247,2.28966,-0.553799,-0.0521777,0.239505,-0.268115,1,0,4.1475,-0.805,0.245,-0.052582,0.225578,-1.27758,-0.06174,0.1239,0.4676
-2.88868,0,0,17.8887,17.8887,12.1113,12.1113,1.31304,2.36996,-0.63229,0.0640202,0.157412,0.0787378,0,0,4.6375,-0.63,0.245,0.065514,0.146522,-0.933422,-0.06174,0.1239,0.4676
-2.52264,0,0,17.5226,17.5226,12.4774,12.4774,1.14665,2.44899,-0.713159,0.0626421,0.15451,0.0787421,0,0,4.7075,-0.91,-0.1925,0.065514,0.146522,-0.933422,-0.0658,0.12544,0.46522
-2.52695,0,0,17.527,17.527,12.473,12.473,1.14861,2.44742,-0.71199,-0.0200623,0.101541,0.107021,1,0,4.5325,-0.735,-0.2275,-0.017568,0.093574,-0.905362,-0.0658,0.12544,0.46522
-2.52792,0,0,17.5279,17.5279,12.4721,12.4721,1.14906,2.4461,-0.711296,-0.0200393,0.101549,0.107022,1,0,3.6925,-0.595,-0.5075,-0.017568,0.093574,-0.905362,-0.0658,0.12544,0.46522
-2.52618,0,0,17.5262,17.5262,12.4738,12.4738,1.14826,2.44532,-0.711012,0.0302693,-0.0633362,0.162349,1,0,3.01,-0.28,-0.7525,0.03294,-0.071126,-0.850462,-0.0658,0.12544,0.46522
-2.52368,0,0,17.5237,17.5237,12.4763,12.4763,1.14713,2.44477,-0.711354,0.030279,-0.0633559,0.16235,1,0,2.835,-0.1575,-1.12,0.03294,-0.071126,-0.850462,-0.0658,0.12544,0.46522
-2.5436,0,0,17.5436,17.5436,12.4564,12.4564,1.15618,2.04541,-0.353923,-0.354548,-0.0112887,0.0444663,0,0,2.03,-0.315,-1.12,-0.36051,-0.019276,-0.967704,-0.0658,0.12544,0.46522
-2.57043,0,0,17.5704,17.5704,12.4296,12.4296,1.16838,1.65391,0.00225439,-0.347718,-0.0110715,0.0446825,0,0,4.0075,-0.035,-1.365,-0.36051,-0.019276,-0.967704,-0.0658,0.12544,0.46522
-2.5726,0,0,17.5726,17.5726,12.4274,12.4274,1.16936,1.65391,0.00153375,0.258009,0.0128825,-0.250394,1,0,4.025,0.1575,-1.3475,0.247782,0.004636,-1.2605,-0.0658,0.12544,0.46522
-2.57935,0,0,17.5793,17.5793,12.4207,12.4207,1.17243,1.65403,0.00051559,0.258007,0.012936,-0.250395,1,0,5.1975,0.2275,-1.5225,0.247782,0.004636,-1.2605,-0.07,0.12082,0.4718
-2.58983,0,0,17.5898,17.5898,12.4102,12.4102,1.1772,1.65401,-0.00107554,0.13312,0.0958211,-0.158432,1,0,6.16,0.14,-1.855,0.122366,0.087352,-1.16925,-0.07,0.12082,0.4718
-2.59443,0,0,17.5944,17.5944,12.4056,12.4056,1.17929,1.65416,-0.00239302,0.133118,0.0958575,-0.158432,1,0,4.655,0.245,-1.6975,0.122366,0.087352,-1.16925,-0.07,0.12082,0.4718
-2.89892,0,0,17.8989,17.8989,12.1011,12.1011,1.31769,1.79628,-0.105307,0.123714,-0.134748,0.00360937,0,0,4.935,0.7,-1.4875,0.115412,-0.145424,-1.00833,-0.07,0.12082,0.4718
-3.19526,0,0,18.1953,18.1953,11.8047,11.8047,1.45239,1.93609,-0.20708,0.121275,-0.132401,0.00347314,0,0,4.2175,1.015,-1.2775,0.115412,-0.145424,-1.00833,-0.07,0.12082,0.4718
-3.19703,0,0,18.197,18.197,11.803,11.803,1.45319,1.93841,-0.207531,-0.499922,0.0820677,-0.108166,1,0,3.92,1.5225,-1.225,-0.508374,0.068808,-1.11911,-0.07,0.12082,0.4718
-3.19814,0,0,18.1981,18.1981,11.8019,11.8019,1.4537,1.93946,-0.207595,-0.49994,0.0820764,-0.108167,1,0,3.745,0.7875,-0.98,-0.508374,0.068808,-1.11911,-0.07,0.12082,0.4718
-3.1978,0,0,18.1978,18.1978,11.8022,11.8022,1.45355,1.94132,-0.207608,-0.133815,-0.114062,0.130967,1,0,3.3775,1.26,-0.9625,-0.140666,-0.127124,-0.881816,-0.07,0.12082,0.4718
-3.20246,0,0,18.2025,18.2025,11.7975,11.7975,1.45566,1.94155,-0.207993,-0.133819,-0.114025,0.130966,1,0,4.655,0.2975,-1.155,-0.140666,-0.127124,-0.881816,-0.06888,0.11914,0.46928
-3.2094,0,0,18.2094,18.2094,11.7906,11.7906,1.45882,1.94115,-0.207193,0.24656,0.0509012,-0.117145,1,0,5.215,-0.0525,-0.455,0.241316,0.037576,-1.12801,-0.06888,0.11914,0.46928
-3.21634,0,0,18.2163,18.2163,11.7837,11.7837,1.46197,1.94075,-0.206393,0.246567,0.0509562,-0.117146,1,0,5.215,-0.0525,-0.455,0.241316,0.037576,-1.12801,-0.06888,0.11914,0.46928
-3.22396,0,0,18.224,18.224,11.776,11.776,1.46544,1.94005,-0.205601,-0.108402,-0.128388,0.14461,1,0,5.39,-0.2275,-0.455,-0.115168,-0.141642,-0.868274,-0.06888,0.11914,0.46928
-3.23159,0,0,18.2316,18.2316,11.7684,11.7684,1.4689,1.93935,-0.204809,-0.10839,-0.128327,0.144609,1,0,5.39,-0.2275,-0.455,-0.115168,-0.141642,-0.868274,-0.06888,0.11914,0.46928
-3.24062,0,0,18.2406,18.2406,11.7594,11.7594,1.47301,1.77729,-0.0435243,-0.136299,-0.00111921,0.0558068,0,0,4.2875,0.0875,-0.6125,-0.146034,-0.01464,-0.95648,-0.06888,0.11914,0.46928
-3.24939,0,0,18.2494,18.2494,11.7506,11.7506,1.477,1.61838,0.117407,-0.133527,-0.00104754,0.0558872,0,0,4.2875,0.0875,-0.6125,-0.146034,-0.01464,-0.95648,-0.06888,0.11914,0.46928
-3.25034,0,0,18.2503,18.2503,11.7497,11.7497,1.47743,1.619,0.117003,0.256675,0.121819,0.153754,1,0,3.71,0.525,-1.1725,0.24583,0.108092,-0.859368,-0.06888,0.11914,0.46928
-3.25129,0,0,18.2513,18.2513,11.7487,11.7487,1.47786,1.61961,0.116598,0.256664,0.121827,0.153753,1,0,3.71,0.525,-1.1725,0.24583,0.108092,-0.859368,-0.06734,0.1267,0.46984
-3.40069,0,0,18.4007,18.4007,11.5993,11.5993,1.54577,1.63008,0.117594,0.00743574,-0.0600568,0.0661774,0,0,3.6575,-0.665,-0.875,-0.00427,-0.074786,-0.946232,-0.06734,0.1267,0.46984
-3.54746,0,0,18.5475,18.5475,11.4525,11.4525,1.61248,1.64033,0.118571,0.00725692,-0.0588935,0.0661403,0,0,3.6575,-0.665,-0.875,-0.00427,-0.074786,-0.946232,-0.06734,0.1267,0.46984
-3.55014,0,0,18.5501,18.5501,11.4499,11.4499,1.6137,1.63858,0.118431,0.22584,0.00487798,0.230646,1,0,4.1475,-0.8575,-0.98,0.215208,-0.011102,-0.782996,-0.06734,0.1267,0.46984
-3.55282,0,0,18.5528,18.5528,11.4472,11.4472,1.61492,1.63683,0.118292,0.225871,0.00489927,0.230646,1,0,4.1475,-0.8575,-0.98,0.215208,-0.011102,-0.782996,-0.06734,0.1267,0.46984
-3.55739,0,0,18.5574,18.5574,11.4426,11.4426,1.617,1.63739,0.117557,0.227562,0.0211783,-0.168569,1,0,4.6375,0.49,-1.365,0.216916,0.005124,-1.17913,-0.06734,0.1267,0.46984
-3.56196,0,0,18.562,18.562,11.438,11.438,1.61907,1.63796,0.116822,0.227552,0.0212145,-0.16857,1,0,4.6375,0.49,-1.365,0.216916,0.005124,-1.17913,-0.06734,0.1267,0.46984
-3.82723,0,0,18.8272,18.8272,11.1728,11.1728,1.73965,1.56765,0.192811,-0.0638806,-0.116761,0.00254649,0,0,4.6375,0.735,-1.1725,-0.076982,-0.13481,-1.00931,-0.06734,0.1267,0.46984
-3.8819,0,0,18.8819,18.8819,11.1181,11.1181,1.7645,1.72598,0.0632835,0.126398,-0.0210713,0.0752394,0,0,3.2025,0.8225,-1.5575,0.116876,-0.03965,-0.937082,-0.0686,0.12656,0.47194
-3.93519,0,0,18.9352,18.9352,11.0648,11.0648,1.78872,1.88081,-0.0649772,0.123697,-0.0206516,0.0751413,0,0,3.0975,0.6125,-1.05,0.116876,-0.03965,-0.937082,-0.0686,0.12656,0.47194
-3.93272,0,0,18.9327,18.9327,11.0673,11.0673,1.7876,1.88163,-0.065132,-0.00837225,-0.0651254,-0.132887,1,0,2.835,0.6475,-1.0325,-0.015738,-0.084058,-1.14351,-0.0686,0.12656,0.47194
-3.93025,0,0,18.9302,18.9302,11.0698,11.0698,1.78648,1.88245,-0.0652868,-0.00838655,-0.0651449,-0.132887,1,0,2.835,0.6475,-1.0325,-0.015738,-0.084058,-1.14351,-0.0686,0.12656,0.47194
-3.96375,0,0,18.9637,18.9637,11.0363,11.0363,1.8017,1.66646,0.132641,-0.200332,-0.0179791,-0.0522477,0,0,3.43,0.4375,-1.015,-0.21228,-0.03721,-1.0636,-0.0686,0.12656,0.47194
-3.99651,0,0,18.9965,18.9965,11.0035,11.0035,1.8166,1.45464,0.33002,-0.196637,-0.0177162,-0.0521553,0,0,3.43,0.4375,-1.015,-0.21228,-0.03721,-1.0636,-0.0686,0.12656,0.47194
-3.99924,0,0,18.9992,18.9992,11.0008,11.0008,1.81784,1.45379,0.330713,-0.0105056,0.0979594,-0.190964,1,0,4.1475,-0.315,-0.5075,-0.025376,0.078324,-1.20133,-0.0686,0.12656,0.47194
-3.41864,0,0,18.4186,18.4186,11.5814,11.5814,1.55393,1.55733,0.240336,0.102856,0.277156,-0.0337482,0,0,3.99,-0.91,-0.7875,0.09028,0.261934,-1.04542,-0.0686,0.12656,0.47194
-2.84548,0,0,17.8455,17.8455,12.1545,12.1545,1.2934,1.65959,0.152204,0.101072,0.272611,-0.0336854,0,0,3.3775,0.2275,-0.6125,0.09028,0.261934,-1.04542,-0.06482,0.12432,0.47656
-2.84662,0,0,17.8466,17.8466,12.1534,12.1534,1.29392,1.66004,0.152603,0.188291,-0.131131,-0.13893,1,0,3.745,0.4375,-0.7,0.177876,-0.141398,-1.14985,-0.06482,0.12432,0.47656
-2.84329,0,0,17.8433,17.8433,12.1567,12.1567,1.29241,1.66127,0.153021,0.18827,-0.131157,-0.13893,1,0,2.6075,0.8925,-0.7,0.177876,-0.141398,-1.14985,-0.06482,0.12432,0.47656
-2.82617,0,0,17.8262,17.8262,12.1738,12.1738,1.28462,1.6537,0.171326,-0.0071901,0.00585546,0.02841,0,0,2.1875,0.105,-0.7175,-0.018544,-0.004392,-0.983808,-0.06482,0.12432,0.47656
-2.81182,0,0,17.8118,17.8118,12.1882,12.1882,1.2781,1.64594,0.189773,-0.00705485,0.00574185,0.0284165,0,0,2.8175,-0.0875,-0.6125,-0.018544,-0.004392,-0.983808,-0.06482,0.12432,0.47656
-2.77418,0,0,17.7742,17.7742,12.2258,12.2258,1.26099,1.56476,0.273853,-0.0684466,0.0154586,0.0678063,0,0,2.485,-0.1925,-0.7,-0.081618,0.005612,-0.944768,-0.06482,0.12432,0.47656
-2.74526,0,0,17.7453,17.7453,12.2547,12.2547,1.24784,1.48477,0.357539,-0.067051,0.0152302,0.0678484,0,0,4.55,-0.42,-0.8575,-0.081618,0.005612,-0.944768,-0.06482,0.12432,0.47656
-2.47829,0,0,17.4783,17.4783,12.5217,12.5217,1.1265,1.35441,0.485013,-0.122968,0.129868,-0.08795,0,0,4.0075,-0.1925,-0.7525,-0.140056,0.122244,-1.09946,-0.06482,0.12432,0.47656
-2.21815,0,0,17.2182,17.2182,12.7818,12.7818,1.00825,1.22719,0.611401,-0.120748,0.127806,-0.0878616,0,0,4.585,0.5775,-1.4875,-0.140056,0.122244,-1.09946,-0.06902,0.12488,0.47656
-1.65517,0,0,16.6552,16.6552,13.3448,13.3448,0.752349,1.4542,0.415325,0.216909,0.266228,0.0069076,0,0,4.27,0.3675,-1.47,0.203008,0.264984,-1.0054,-0.06902,0.12488,0.47656
-1.09668,0,0,16.0967,16.0967,13.9033,13.9033,0.498493,1.67786,0.217153,0.213006,0.261798,0.00684927,0,0,3.0975,0.77,-1.8375,0.203008,0.264984,-1.0054,-0.06902,0.12488,0.47656
-1.42906,0,0,16.4291,16.4291,13.5709,13.5709,0.649571,1.42,0.465333,-0.221544,-0.139927,0.0915331,0,0,3.1675,0.5075,-2.0125,-0.2379,-0.138958,-0.921466,-0.06902,0.12488,0.47656
-1.7567,0,0,16.7567,16.7567,13.2433,13.2433,0.798501,1.16707,0.711968,-0.217131,-0.137327,0.0915999,0,0,3.4475,0.5775,-1.82,-0.2379,-0.138958,-0.921466,-0.06902,0.12488,0.47656
-1.3821,0,0,16.3821,16.3821,13.6179,13.6179,0.628226,0.925573,0.943985,-0.194937,0.151342,0.123803,0,0,2.9225,0.4375,-1.505,-0.219844,0.152378,-0.889624,-0.06902,0.12488,0.47656
-1.01808,0,0,16.0181,16.0181,13.9819,13.9819,0.462765,0.687426,1.17668,-0.190781,0.148455,0.123889,0,0,4.0425,-0.2275,-1.715,-0.219844,0.152378,-0.889624,-0.06902,0.12488,0.47656
-0.819906,0,0,15.8199,15.8199,14.1801,14.1801,0.372685,0.790445,1.10568,0.100445,0.0930247,-0.0317751,0,0,3.92,-0.595,-1.365,0.07442,0.098576,-1.04408,-0.06902,0.12488,0.47656
-0.623245,0,0,15.6232,15.6232,14.3768,14.3768,0.283293,0.892454,1.03942,0.0986648,0.0914646,-0.0317923,0,0,3.43,0.2275,-1.1375,0.07442,0.098576,-1.04408,-0.06748,0.12194,0.46676
-0.622232,0,0,15.6222,15.6222,14.3778,14.3778,0.282833,0.891984,1.03954,0.0508076,0.0982956,0.109476,1,0,3.2025,-0.105,-0.8575,0.026352,0.105408,-0.903898,-0.06748,0.12194,0.46676
-0.621219,0,0,15.6212,15.6212,14.3788,14.3788,0.282372,0.891513,1.03966,0.0508159,0.0982876,0.109476,1,0,3.2025,-0.105,-0.8575,0.026352,0.105408,-0.903898,-0.06748,0.12194,0.46676
-0.618194,0,0,15.6182,15.6182,14.3818,14.3818,0.280997,0.890617,1.04118,-0.0784293,0.244694,-0.122528,1,0,2.6775,-0.35,-0.035,-0.103456,0.251686,-1.13411,-0.06748,0.12194,0.46676
-0.615169,0,0,15.6152,15.6152,14.3848,14.3848,0.279622,0.889721,1.04271,-0.0784137,0.24467,-0.122527,1,0,2.6775,-0.35,-0.035,-0.103456,0.251686,-1.13411,-0.06748,0.12194,0.46676
-0.739296,0,0,15.7393,15.7393,14.2607,14.2607,0.336043,0.957356,1.0123,0.0551337,-0.0500148,0.0628547,0,0,4.5325,0.07,0.5075,0.031842,-0.043676,-0.950136,-0.06748,0.12194,0.46676
-0.861255,0,0,15.8613,15.8613,14.1387,14.1387,0.391479,1.02367,0.982027,0.0539765,-0.0490475,0.0628286,0,0,4.5325,0.07,0.5075,0.031842,-0.043676,-0.950136,-0.06748,0.12194,0.46676
-0.863559,0,0,15.8636,15.8636,14.1364,14.1364,0.392527,1.02372,0.984427,0.0483873,-0.0210622,-0.148274,1,0,4.025,0.21,0.4725,0.02623,-0.015738,-1.15961,-0.06748,0.12194,0.46676
-0.865864,0,0,15.8659,15.8659,14.1341,14.1341,0.393575,1.02377,0.986826,0.0483864,-0.021044,-0.148274,1,0,4.025,0.21,0.4725,0.02623,-0.015738,-1.15961,-0.06748,0.12194,0.46676
-0.860431,0,0,15.8604,15.8604,14.1396,14.1396,0.391105,1.02359,0.988025,-0.00968064,0.202283,-0.1452,1,0,2.065,0.07,-0.2275,-0.032086,0.2074,-1.15656,-0.06692,0.12096,0.46914
-1.08735,0,0,16.0873,16.0873,13.9127,13.9127,0.494248,1.08712,0.960356,0.0523834,-0.100868,0.0264016,0,0,2.73,0.6475,-0.8925,0.031354,-0.097234,-0.986248,-0.06692,0.12096,0.46914
-1.31032,0,0,16.3103,16.3103,13.6897,13.6897,0.595599,1.14937,0.932886,0.0512971,-0.0990998,0.0263635,0,0,2.73,0.6475,-0.8925,0.031354,-0.097234,-0.986248,-0.06692,0.12096,0.46914
-1.3134,0,0,16.3134,16.3134,13.6866,13.6866,0.597001,1.14862,0.930898,-0.15315,-0.137301,-0.118839,1,0,4.27,-0.28,-2.0825,-0.173972,-0.13542,-1.13033,-0.06692,0.12096,0.46914
-1.31649,0,0,16.3165,16.3165,13.6835,13.6835,0.598403,1.14787,0.92891,-0.153137,-0.137276,-0.118839,1,0,4.27,-0.28,-2.0825,-0.173972,-0.13542,-1.13033,-0.06692,0.12096,0.46914
-1.17015,0,0,16.1702,16.1702,13.8298,13.8298,0.531886,1.26054,0.847173,0.100624,0.0683231,0.0193256,0,0,5.2325,0.84,-2.59,0.082838,0.071126,-0.993202,-0.06692,0.12096,0.46914
-1.0263,0,0,16.0263,16.0263,13.9737,13.9737,0.4665,1.37112,0.765357,0.0986947,0.0671818,0.0192912,0,0,5.2325,0.84,-2.59,0.082838,0.071126,-0.993202,-0.06692,0.12096,0.46914
-1.02716,0,0,16.0272,16.0272,13.9728,13.9728,0.46689,1.37119,0.761817,-0.0644618,-0.0259941,-0.133165,1,0,3.7275,0.1925,-2.9925,-0.081008,-0.02196,-1.14448,-0.06692,0.12096,0.46914
-1.02801,0,0,16.028,16.028,13.972,13.972,0.467279,1.37125,0.758278,-0.0644629,-0.0259873,-0.133165,1,0,3.7275,0.1925,-2.9925,-0.081008,-0.02196,-1.14448,-0.06692,0.1197,0.46788
-1.17845,0,0,16.1785,16.1785,13.8215,13.8215,0.53566,1.4959,0.666954,0.123001,-0.0774314,-0.0724934,0,0,1.7325,-0.21,-2.415,0.109434,-0.074542,-1.08421,-0.06692,0.1197,0.46788
-1.32625,0,0,16.3262,16.3262,13.6738,13.6738,0.602839,1.61813,0.576037,0.120869,-0.0762599,-0.072563,0,0,1.7325,-0.21,-2.415,0.109434,-0.074542,-1.08421,-0.06692,0.1197,0.46788
-1.52686,0,0,16.5269,16.5269,13.4731,13.4731,0.694029,1.73263,0.494049,0.113283,-0.101293,-0.0779262,0,0,2.52,0.175,-1.1375,0.103822,-0.101138,-1.08946,-0.06692,0.1197,0.46788
-1.724,0,0,16.724,16.724,13.276,13.276,0.783637,1.84491,0.412496,0.111324,-0.0997312,-0.0780075,0,0,2.52,0.175,-1.1375,0.103822,-0.101138,-1.08946,-0.06692,0.1197,0.46788
-2.0571,0,0,17.0571,17.0571,12.9429,12.9429,0.935046,1.79837,0.477753,-0.0433655,-0.14191,0.0577138,0,0,3.535,-0.105,0.5425,-0.052338,-0.145912,-0.954772,-0.06692,0.1197,0.46788
-2.0418,0,0,17.0418,17.0418,12.9582,12.9582,0.928089,1.97286,0.338326,0.156472,0.00830471,0.0165508,0,0,4.095,0.1575,0.6825,0.151402,0.00427,-0.99552,-0.06692,0.1197,0.46788
-2.02631,0,0,17.0263,17.0263,12.9737,12.9737,0.921052,2.14355,0.200399,0.153495,0.00818025,0.0164458,0,0,3.9725,-0.1225,1.435,0.151402,0.00427,-0.99552,-0.06692,0.1197,0.46788
-2.01612,0,0,17.0161,17.0161,12.9839,12.9839,0.916416,2.26378,0.102341,0.10171,0.00419007,0.0560788,0,0,2.7825,-0.2975,1.4175,0.101504,0.000366,-0.956114,-0.06538,0.12152,0.46256
-2.00328,0,0,17.0033,17.0033,12.9967,12.9967,0.910581,2.38247,0.00389604,0.0996403,0.00408698,0.0559965,0,0,2.0825,0.14,1.085,0.101504,0.000366,-0.956114,-0.06538,0.12152,0.46256
-1.49569,0,0,16.4957,16.4957,13.5043,13.5043,0.679858,2.56862,-0.167886,0.149484,0.21012,0.118985,0,0,2.24,0.7875,0.8225,0.154818,0.210206,-0.893528,-0.06538,0.12152,0.46256
-0.996362,0,0,15.9964,15.9964,14.0036,14.0036,0.452892,2.7514,-0.340655,0.146297,0.206162,0.118876,0,0,2.24,0.7875,0.8225,0.154818,0.210206,-0.893528,-0.06538,0.12152,0.46256
-1.26988,0,0,16.2699,16.2699,13.7301,13.7301,0.577219,2.58871,-0.188047,-0.145834,-0.120068,0.0262853,0,0,4.1475,-0.1925,-0.5775,-0.141398,-0.117852,-0.985516,-0.06538,0.12152,0.46256
-1.53859,0,0,16.5386,16.5386,13.4614,13.4614,0.699358,2.42908,-0.0364671,-0.14305,-0.117937,0.0263835,0,0,4.1475,-0.1925,-0.5775,-0.141398,-0.117852,-0.985516,-0.06538,0.12152,0.46256
-1.62741,0,0,16.6274,16.6274,13.3726,13.3726,0.73973,2.36096,0.0277152,-0.062168,-0.0324767,-0.0344352,0,0,8.5575,0.035,-2.135,-0.061366,-0.033184,-1.04591,-0.06538,0.12152,0.46256
-1.4978,0,0,16.4978,16.4978,13.5022,13.5022,0.680819,2.4175,-0.0249581,0.0477624,0.0582128,0.038199,0,0,4.3225,0.2975,-2.7125,0.05002,0.058438,-0.973804,-0.06538,0.12152,0.46256
-1.36516,0,0,16.3652,16.3652,13.6348,13.6348,0.620528,2.47228,-0.0753189,0.0468072,0.057161,0.0381701,0,0,3.01,-0.1575,-3.4825,0.05002,0.058438,-0.973804,-0.06986,0.11956,0.46816
-0.658816,0,0,15.6588,15.6588,14.3412,14.3412,0.299462,2.744,-0.337745,0.228307,0.301067,0.140907,0,0,2.73,0.035,-3.6575,0.237046,0.307684,-0.87169,-0.06986,0.11956,0.46816
0.0364455,0,0,14.9636,14.9636,15.0364,15.0364,-0.0165661,3.01198,-0.602246,0.223636,0.295557,0.140686,0,0,2.8175,0.6125,-3.5175,0.237046,0.307684,-0.87169,-0.06986,0.11956,0.46816
0.0353844,0,0,14.9646,14.9646,15.0354,15.0354,-0.0160838,3.01288,-0.606842,-0.061871,-0.0440688,-0.179842,1,0,3.8675,0.7,-3.605,-0.049654,-0.031598,-1.18974,-0.06986,0.11956,0.46816
0.0308891,0,0,14.9691,14.9691,15.0309,15.0309,-0.0140405,3.01313,-0.610836,-0.0618753,-0.0440332,-0.179842,1,0,4.725,0.315,-3.255,-0.049654,-0.031598,-1.18974,-0.06986,0.11956,0.46816
0.0456816,0,0,14.9543,14.9543,15.0457,15.0457,-0.0207644,2.89296,-0.50734,-0.111291,0.00934111,-0.0331792,0,0,4.865,-0.035,-2.7475,-0.101382,0.021838,-1.04432,-0.06986,0.11956,0.46816
0.0628944,0,0,14.9371,14.9371,15.0629,15.0629,-0.0285884,2.7755,-0.401274,-0.109243,0.00920468,-0.0330779,0,0,4.1125,0.2275,-1.1725,-0.101382,0.021838,-1.04432,-0.06986,0.11956,0.46816
0.212096,0,0,14.7879,14.7879,15.2121,15.2121,-0.0964074,2.72076,-0.352087,-0.0507047,0.0650555,0.0358178,0,0,3.5175,0.7,-0.5075,-0.043554,0.078812,-0.976,-0.06986,0.11956,0.46816
0.361681,0,0,14.6383,14.6383,15.3617,15.3617,-0.1644,2.66669,-0.305051,-0.0497619,0.06387,0.0358594,0,0,2.7125,0.4725,0.455,-0.043554,0.078812,-0.976,-0.07308,0.1225,0.46956
0.36638,0,0,14.6336,14.6336,15.3664,15.3664,-0.166536,2.66706,-0.30211,0.0638207,-0.0758802,0.158316,1,0,2.1875,0.385,0.7875,0.070516,-0.060756,-0.854488,-0.07308,0.1225,0.46956
0.368344,0,0,14.6317,14.6317,15.3683,15.3683,-0.167429,2.66762,-0.297279,0.0638109,-0.0758958,0.158315,1,0,2.835,0.49,1.89,0.070516,-0.060756,-0.854488,-0.07308,0.1225,0.46956
0.561413,0,0,14.4386,14.4386,15.5614,15.5614,-0.255188,2.65829,-0.28922,-0.00928217,0.0859798,0.0148362,0,0,3.2375,0.21,1.855,-0.00305,0.10248,-0.996862,-0.07308,0.1225,0.46956
0.746337,0,0,14.2537,14.2537,15.7463,15.7463,-0.339244,2.64832,-0.281193,-0.00910834,0.0845143,0.0148367,0,0,4.4625,-0.2625,1.785,-0.00305,0.10248,-0.996862,-0.07308,0.1225,0.46956
0.737715,0,0,14.2623,14.2623,15.7377,15.7377,-0.335325,2.64712,-0.276893,-0.12705,0.0365868,-0.233641,1,0,5.5475,-0.5425,1.575,-0.121512,0.054534,-1.24342,-0.07308,0.1225,0.46956
0.727086,0,0,14.2729,14.2729,15.7271,15.7271,-0.330494,2.64685,-0.273109,-0.127045,0.036671,-0.23364,1,0,6.0725,0,1.2775,-0.121512,0.054534,-1.24342,-0.07308,0.1225,0.46956
1.27009,0,0,13.7299,13.7299,16.2701,16.2701,-0.577313,2.77714,-0.40341,0.118271,0.251098,0.0413769,0,0,5.8975,0.0175,0.735,0.127124,0.273036,-0.970388,-0.07308,0.1225,0.46956
1.81126,0,0,13.1887,13.1887,16.8113,16.8113,-0.823299,2.90485,-0.542796,0.116045,0.246812,0.041214,0,0,4.165,-0.1575,-0.9275,0.127124,0.273036,-0.970388,-0.0658,0.1253,0.46984
1.88553,0,0,13.1145,13.1145,16.8855,16.8855,-0.857057,2.72158,-0.385018,-0.179615,0.0366515,-0.0584718,0,0,3.5525,0.0875,-1.6625,-0.172996,0.063684,-1.06945,-0.0658,0.1253,0.46984
1.96653,0,0,13.0335,13.0335,16.9665,16.9665,-0.893876,2.54192,-0.228655,-0.176483,0.0360074,-0.0583376,0,0,1.5575,0.2625,-2.5025,-0.172996,0.063684,-1.06945,-0.0658,0.1253,0.46984
1.97633,0,0,13.0237,13.0237,16.9763,16.9763,-0.898334,2.54178,-0.232166,-0.172714,0.123006,0.139117,1,0,1.05,0.1225,-2.975,-0.169214,0.15067,-0.87352,-0.0658,0.1253,0.46984
1.9764,0,0,13.0236,13.0236,16.9764,16.9764,-0.898365,2.53984,-0.236519,-0.17268,0.123006,0.139118,1,0,3.5525,-0.9275,-3.4825,-0.169214,0.15067,-0.87352,-0.0658,0.1253,0.46984
1.97476,0,0,13.0252,13.0252,16.9748,16.9748,-0.897618,2.53852,-0.240942,-0.0834871,0.141826,-0.121532,1,0,3.99,-0.56,-3.5175,-0.079666,0.169458,-1.13216,-0.0658,0.1253,0.46984
1.96671,0,0,13.0333,13.0333,16.9667,16.9667,-0.89396,2.53804,-0.245168,-0.0834787,0.14189,-0.12153,1,0,5.6175,-0.07,-3.395,-0.079666,0.169458,-1.13216,-0.0658,0.1253,0.46984
2.02179,0,0,12.9782,12.9782,17.0218,17.0218,-0.918994,2.83953,-0.535784,0.30087,0.0299556,-0.00842539,0,0,5.67,0.3325,-2.9575,0.311588,0.058072,-1.01968,-0.0658,0.1253,0.46984
2.07951,0,0,12.9205,12.9205,17.0795,17.0795,-0.945232,3.13759,-0.81317,0.295675,0.0295028,-0.00870402,0,0,4.795,0.28,-2.485,0.311588,0.058072,-1.01968,-0.07154,0.11774,0.4662
2.06252,0,0,12.9375,12.9375,17.0625,17.0625,-0.937508,3.00424,-0.691714,-0.122706,-0.00578144,0.0260943,0,0,4.7425,0.6475,-2.0125,-0.110898,0.022692,-0.985272,-0.07154,0.11774,0.4662
2.05481,0,0,12.9452,12.9452,17.0548,17.0548,-0.934004,2.87473,-0.568919,-0.120449,-0.00572226,0.0262112,0,0,2.415,1.435,-1.1025,-0.110898,0.022692,-0.985272,-0.07154,0.11774,0.4662
2.05878,0,0,12.9412,12.9412,17.0588,17.0588,-0.93581,2.87672,-0.568321,-0.133361,0.106359,-0.184894,1,0,2.4325,1.33,-0.56,-0.12383,0.134688,-1.19475,-0.07154,0.11774,0.4662
2.06602,0,0,12.934,12.934,17.066,17.066,-0.9391,2.8776,-0.566203,-0.133376,0.106301,-0.184895,1,0,1.5575,0.665,0.315,-0.12383,0.134688,-1.19475,-0.07154,0.11774,0.4662
2.07331,0,0,12.9267,12.9267,17.0733,17.0733,-0.942413,2.87908,-0.563915,-0.298137,-0.0661994,-0.085924,1,0,1.54,1.015,0.42,-0.289262,-0.037576,-1.09654,-0.07154,0.11774,0.4662
2.07397,0,0,12.926,12.926,17.074,17.074,-0.942715,2.88053,-0.561357,-0.298162,-0.0662046,-0.0859254,1,0,3.22,0.9975,0.5775,-0.289262,-0.037576,-1.09654,-0.07154,0.11774,0.4662
2.07125,0,0,12.9288,12.9288,17.0712,17.0712,-0.941476,2.88026,-0.55856,0.0949705,-0.337549,-0.0677284,1,0,4.0775,-0.0175,0.7,0.10553,-0.30866,-1.07848,-0.07154,0.11774,0.4662
2.06952,0,0,12.9305,12.9305,17.0695,17.0695,-0.940689,2.87971,-0.556059,0.09498,-0.337535,-0.0677277,1,0,3.8325,-0.175,0.525,0.10553,-0.30866,-1.07848,-0.07154,0.11774,0.4662
2.06813,0,0,12.9319,12.9319,17.0681,17.0681,-0.940059,2.88023,-0.554205,0.0369009,0.082592,0.132924,1,0,3.7625,0.455,0.1575,0.047214,0.11102,-0.879376,-0.06272,0.12712,0.46494
2.06368,0,0,12.9363,12.9363,17.0637,17.0637,-0.938037,2.87915,-0.552596,0.0369195,0.0826273,0.132926,1,0,4.55,-0.4725,0,0.047214,0.11102,-0.879376,-0.06272,0.12712,0.46494
2.07845,0,0,12.9215,12.9215,17.0785,17.0785,-0.944752,2.81525,-0.507146,-0.059398,0.00947753,-0.0353375,0,0,4.4975,-0.5075,-0.875,-0.05063,0.038064,-1.04639,-0.06272,0.12712,0.46494
2.09298,0,0,12.907,12.907,17.093,17.093,-0.951353,2.75251,-0.461727,-0.0583042,0.00936159,-0.0352862,0,0,4.4975,-0.5075,-0.875,-0.05063,0.038064,-1.04639,-0.06272,0.12712,0.46494
1.97666,0,0,13.0233,13.0233,16.9767,16.9767,-0.898483,2.89783,-0.608108,0.138885,-0.0560297,0.00480779,0,0,2.31,0.1225,-1.8025,0.149938,-0.028182,-1.0065,-0.06272,0.12712,0.46494
1.86234,0,0,13.1377,13.1377,16.8623,16.8623,-0.84652,3.04052,-0.75407,0.136398,-0.0551221,0.0046926,0,0,2.31,0.1225,-1.8025,0.149938,-0.028182,-1.0065,-0.06272,0.12712,0.46494
1.48582,0,0,13.5142,13.5142,16.4858,16.4858,-0.675374,2.86657,-0.60075,-0.150921,-0.160101,0.104108,0,0,1.89,-0.42,-1.96,-0.141642,-0.13603,-0.908046,-0.06272,0.12712,0.46494
1.11578,0,0,13.8842,13.8842,16.1158,16.1158,-0.507171,2.6958,-0.448743,-0.147944,-0.157171,0.104283,0,0,1.89,-0.42,-1.96,-0.141642,-0.13603,-0.908046,-0.06272,0.12712,0.46494
1.01009,0,0,13.9899,13.9899,16.0101,16.0101,-0.459131,2.65355,-0.413109,-0.0366554,-0.0530144,-0.0835409,0,0,2.66,-0.77,-1.6275,-0.030622,-0.032818,-1.09446,-0.06986,0.12348,0.46438
1.00829,0,0,13.9917,13.9917,16.0083,16.0083,-0.458312,2.65218,-0.413759,0.151064,0.104665,-0.0950968,1,0,3.9375,-0.63,-1.3125,0.157868,0.124684,-1.10593,-0.06986,0.12348,0.46438
1.01405,0,0,13.9859,13.9859,16.0141,16.0141,-0.460933,2.65218,-0.414539,0.151064,0.10462,-0.0950972,1,0,2.0125,0.175,-1.3825,0.157868,0.124684,-1.10593,-0.06986,0.12348,0.46438
1.25985,0,0,13.7401,13.7401,16.2599,16.2599,-0.57266,2.46214,-0.247615,-0.180316,0.114517,-0.00742746,0,0,3.5525,0.2625,-1.225,-0.178242,0.136518,-1.01907,-0.06986,0.12348,0.46438
1.5056,0,0,13.4944,13.4944,16.5056,16.5056,-0.684362,2.27638,-0.0790117,-0.177076,0.112568,-0.0073148,0,0,2.485,0.7525,-0.56,-0.178242,0.136518,-1.01907,-0.06986,0.12348,0.46438
0.571601,0,0,14.4284,14.4284,15.5716,15.5716,-0.259819,2.01896,0.181761,-0.253982,-0.445354,0.087339,0,0,1.995,1.2425,-0.3325,-0.259982,-0.42822,-0.92537,-0.06986,0.12348,0.46438
-0.349775,0,0,15.3498,15.3498,14.6502,14.6502,0.158989,1.76552,0.437855,-0.249561,-0.438049,0.0874915,0,0,2.4675,1.12,-0.5075,-0.259982,-0.42822,-0.92537,-0.06986,0.12348,0.46438
-0.0458621,0,0,15.0459,15.0459,14.9541,14.9541,0.0208464,2.24618,0.00657045,0.478744,0.14636,0.0536367,0,0,1.96,1.2075,-0.6125,0.479826,0.15799,-0.958676,-0.06986,0.12348,0.46438
0.248556,0,0,14.7514,14.7514,15.2486,15.2486,-0.11298,2.71431,-0.434828,0.470581,0.144027,0.0532813,0,0,3.3775,0.5425,-0.105,0.479826,0.15799,-0.958676,-0.06244,0.12936,0.46732
0.469148,0,0,14.5309,14.5309,15.4691,15.4691,-0.213249,2.64474,-0.386689,-0.0665088,0.09929,0.0233336,0,0,3.8675,0.455,-0.315,-0.060756,0.115046,-0.988444,-0.06244,0.12936,0.46732
0.689574,0,0,14.3104,14.3104,15.6896,15.6896,-0.313443,2.57594,-0.339556,-0.0653091,0.0975428,0.0233803,0,0,2.975,0.175,-1.0325,-0.060756,0.115046,-0.988444,-0.06244,0.12936,0.46732
0.689038,0,0,14.311,14.311,15.689,15.689,-0.313199,2.57591,-0.339827,-0.0259474,-0.131563,0.12469,1,0,3.605,0.1575,-1.085,-0.021228,-0.113826,-0.887916,-0.06244,0.12936,0.46732
0.69408,0,0,14.3059,14.3059,15.6941,15.6941,-0.315491,2.57631,-0.34025,-0.0259542,-0.131603,0.124689,1,0,2.1875,0.4025,-1.1725,-0.021228,-0.113826,-0.887916,-0.06244,0.12936,0.46732
0.593737,0,0,14.4063,14.4063,15.5937,15.5937,-0.269881,2.50487,-0.284484,-0.0643131,-0.0456853,0.0688071,0,0,1.855,-0.07,-1.2425,-0.061,-0.028792,-0.943426,-0.06244,0.12936,0.46732
0.491947,0,0,14.5081,14.5081,15.4919,15.4919,-0.223612,2.43414,-0.230017,-0.0630797,-0.0448788,0.0688638,0,0,2.695,-0.4375,-1.8725,-0.061,-0.028792,-0.943426,-0.06244,0.12936,0.46732
0.260676,0,0,14.7393,14.7393,15.2607,15.2607,-0.118489,2.11433,0.0597254,-0.282251,-0.100812,0.101549,0,0,2.8525,0.1225,-1.75,-0.2867,-0.086498,-0.911218,-0.06244,0.12936,0.46732
0.0325606,0,0,14.9674,14.9674,15.0326,15.0326,-0.0148003,1.80045,0.353074,-0.276776,-0.0990037,0.101738,0,0,3.08,-0.42,-1.2775,-0.2867,-0.086498,-0.911218,-0.06132,0.12614,0.46914
0.635369,0,0,14.3646,14.3646,15.6354,15.6354,-0.288804,2.00516,0.157577,0.200615,0.283481,0.0304199,0,0,2.3625,-0.525,-1.26,0.196298,0.300364,-0.981856,-0.06132,0.12614,0.46914
1.22623,0,0,13.7738,13.7738,16.2262,16.2262,-0.557376,2.2069,-0.0392888,0.197096,0.278798,0.0302559,0,0,2.975,-0.1925,-1.19,0.196298,0.300364,-0.981856,-0.06132,0.12614,0.46914
1.28542,0,0,13.7146,13.7146,16.2854,16.2854,-0.584283,2.40263,-0.224927,0.185422,0.0278479,0.0195403,0,0,4.095,-0.2275,-0.8225,0.188002,0.050142,-0.992348,-0.06132,0.12614,0.46914
1.35108,0,0,13.6489,13.6489,16.3511,16.3511,-0.614128,2.5957,-0.410062,0.182056,0.0273291,0.0193879,0,0,2.205,0.28,-0.56,0.188002,0.050142,-0.992348,-0.06132,0.12614,0.46914
1.64955,0,0,13.3505,13.3505,16.6495,16.6495,-0.749795,2.43906,-0.275297,-0.148813,0.134144,0.0245207,0,0,3.115,0.2625,-0.42,-0.14701,0.15921,-0.987346,-0.06132,0.12614,0.46914
1.94434,0,0,13.0557,13.0557,16.9443,16.9443,-0.883793,2.28515,-0.139986,-0.146129,0.131806,0.0245981,0,0,2.765,0.245,-0.4725,-0.14701,0.15921,-0.987346,-0.06132,0.12614,0.46914
2.10429,0,0,12.8957,12.8957,17.1043,17.1043,-0.956495,2.08766,0.0427924,-0.197475,0.0770441,-0.0418059,0,0,3.08,0.595,-0.175,-0.202032,0.105774,-1.05335,-0.06132,0.12614,0.46914
2.25664,0,0,12.7434,12.7434,17.2566,17.2566,-1.02575,1.89205,0.227474,-0.194063,0.0758343,-0.0417083,0,0,4.34,0.7,-0.175,-0.202032,0.105774,-1.05335,-0.06692,0.12572,0.46396
2.57469,0,0,12.4253,12.4253,17.5747,17.5747,-1.17031,1.99152,0.136469,0.0918803,0.143781,0.0345356,0,0,3.9725,0.42,-0.2625,0.086864,0.176168,-0.977586,-0.06692,0.12572,0.46396
2.89055,0,0,12.1095,12.1095,17.8905,17.8905,-1.31389,2.08899,0.0443719,0.0901803,0.141279,0.0344208,0,0,3.185,0.2975,-0.735,0.086864,0.176168,-0.977586,-0.06692,0.12572,0.46396
2.76547,0,0,12.2345,12.2345,17.7655,17.7655,-1.25703,2.1816,-0.0371424,0.0868643,-0.0582604,0.00573582,0,0,3.0625,0.49,-0.8925,0.085156,-0.024156,-1.00601,-0.06692,0.12572,0.46396
2.64694,0,0,12.3531,12.3531,17.6469,17.6469,-1.20315,2.27232,-0.118618,0.085282,-0.0573197,0.00569448,0,0,1.9425,0.385,-1.015,0.085156,-0.024156,-1.00601,-0.06692,0.12572,0.46396
2.05733,0,0,12.9427,12.9427,17.0573,17.0573,-0.935149,2.2492,-0.0872975,-0.0243807,-0.249515,0.120263,0,0,2.275,0,-1.365,-0.025376,-0.22082,-0.89243,-0.06692,0.12572,0.46396
1.47744,0,0,13.5226,13.5226,16.4774,16.4774,-0.671564,2.22644,-0.0563874,-0.0239838,-0.244919,0.120343,0,0,2.275,0,-1.365,-0.025376,-0.22082,-0.89243,-0.06692,0.12572,0.46396
1.44039,0,0,13.5596,13.5596,16.4404,16.4404,-0.654722,2.18263,-0.015911,-0.0409566,-0.0186911,-0.0806454,0,0,2.835,-0.0175,-1.505,-0.043188,0.00488,-1.0919,-0.06692,0.12572,0.46396
1.40398,0,0,13.596,13.596,16.404,16.404,-0.638175,2.14002,0.0352827,-0.0402136,-0.0184028,-0.0806141,0,0,2.835,-0.0175,-1.505,-0.043188,0.00488,-1.0919,-0.0651,0.11802,0.4753
1.39941,0,0,13.6006,13.6006,16.3994,16.3994,-0.636095,2.13915,0.0339716,0.0155636,-0.176887,-0.207865,1,0,4.655,-0.3325,-1.6975,0.01281,-0.153476,-1.21817,-0.0651,0.11802,0.4753
1.39483,0,0,13.6052,13.6052,16.3948,16.3948,-0.634016,2.13828,0.0326604,0.0155788,-0.176851,-0.207864,1,0,4.655,-0.3325,-1.6975,0.01281,-0.153476,-1.21817,-0.0651,0.11802,0.4753
1.39736,0,0,13.6026,13.6026,16.3974,16.3974,-0.635162,2.13754,0.0327283,0.105005,-0.034471,0.153236,1,0,2.8175,-0.2625,-0.8925,0.102602,-0.011224,-0.859856,-0.0651,0.11802,0.4753
1.39988,0,0,13.6001,13.6001,16.3999,16.3999,-0.636309,2.1368,0.0327963,0.105018,-0.034491,0.153236,1,0,2.8175,-0.2625,-0.8925,0.102602,-0.011224,-0.859856,-0.0651,0.11802,0.4753
1.40508,0,0,13.5949,13.5949,16.4051,16.4051,-0.638671,2.14389,0.0328971,0.114735,0.123622,-0.233688,1,0,2.135,4.3225,-0.8225,0.112484,0.146766,-1.24379,-0.0651,0.11802,0.4753
1.41027,0,0,13.5897,13.5897,16.4103,16.4103,-0.641034,2.15098,0.0329977,0.114611,0.123581,-0.233693,1,0,2.135,4.3225,-0.8225,0.112484,0.146766,-1.24379,-0.0651,0.11802,0.4753
1.91995,0,0,13.08,13.08,16.92,16.92,-0.872707,1.97198,0.203377,-0.170431,0.236292,0.0294761,0,0,3.71,0.875,-0.245,-0.1769,0.263398,-0.98271,-0.0651,0.11802,0.4753
2.42124,0,0,12.5788,12.5788,17.4212,17.4212,-1.10056,1.79621,0.368841,-0.167365,0.232316,0.0295085,0,0,3.71,0.875,-0.245,-0.1769,0.263398,-0.98271,-0.07,0.12306,0.4711
1.99035,0,0,13.0097,13.0097,16.9903,16.9903,-0.904702,1.50617,0.657131,-0.26496,-0.189271,0.0967211,0,0,4.0775,0.49,-0.6125,-0.27999,-0.161162,-0.91622,-0.07,0.12306,0.4711
1.56662,0,0,13.4334,13.4334,16.5666,16.5666,-0.712099,1.22112,0.942995,-0.259987,-0.185912,0.0968869,0,0,4.0775,0.49,-0.6125,-0.27999,-0.161162,-0.91622,-0.07,0.12306,0.4711
1.49993,0,0,13.5001,13.5001,16.4999,16.4999,-0.681787,1.4364,0.764748,0.220985,-0.0302815,-0.0624121,0,0,4.69,0.1575,-0.805,0.20679,-0.006222,-1.07421,-0.07,0.12306,0.4711
1.43445,0,0,13.5656,13.5656,16.4344,16.4344,-0.652023,1.6478,0.586923,0.217297,-0.0297611,-0.0625053,0,0,4.69,0.1575,-0.805,0.20679,-0.006222,-1.07421,-0.07,0.12306,0.4711
1.86886,0,0,13.1311,13.1311,16.8689,16.8689,-0.849482,1.64547,0.594736,0.00170043,0.213979,-0.0414022,0,0,3.78,0.2975,-1.82,-0.00976,0.240706,-1.05323,-0.07,0.12306,0.4711
1.86921,0,0,13.1308,13.1308,16.8692,16.8692,-0.849639,1.6456,0.593413,-0.145421,0.165125,-0.161154,1,0,3.395,0.2625,-1.6975,-0.157502,0.191906,-1.17205,-0.07,0.12306,0.4711
1.87099,0,0,13.129,13.129,16.871,16.871,-0.850449,1.64598,0.592177,-0.145428,0.165111,-0.161155,1,0,3.0275,0.4025,-1.645,-0.157502,0.191906,-1.17205,-0.07,0.12306,0.4711
2.12442,0,0,12.8756,12.8756,17.1244,17.1244,-0.965645,1.47376,0.761077,-0.153478,0.105701,0.0748336,0,0,2.1175,0.4375,-1.7675,-0.168604,0.134566,-0.937936,-0.07,0.12306,0.4711
2.37223,0,0,12.6278,12.6278,17.3722,17.3722,-1.07829,1.30391,0.930754,-0.150515,0.103734,0.0748704,0,0,2.4675,-0.4025,-1.8725,-0.168604,0.134566,-0.937936,-0.06636,0.1225,0.46648
2.53943,0,0,12.4606,12.4606,17.5394,17.5394,-1.15429,1.50422,0.757928,0.201943,0.0806718,-0.0159771,0,0,3.5,-0.3675,-1.6975,0.188856,0.11285,-1.02797,-0.06636,0.1225,0.46648
2.70091,0,0,12.2991,12.2991,17.7009,17.7009,-1.22769,1.70055,0.585959,0.198518,0.0793935,-0.0160995,0,0,4.2525,-0.6475,-1.05,0.188856,0.11285,-1.02797,-0.06636,0.1225,0.46648
2.69761,0,0,12.3024,12.3024,17.6976,17.6976,-1.22619,1.69984,0.585824,-0.0311989,-0.0963207,0.192545,1,0,4.305,-0.245,-1.015,-0.041846,-0.062708,-0.820938,-0.06636,0.1225,0.46648
2.69893,0,0,12.3011,12.3011,17.6989,17.6989,-1.22679,1.6987,0.586448,-0.0311789,-0.0963312,0.192545,1,0,3.115,-0.5075,-0.5775,-0.041846,-0.062708,-0.820938,-0.06636,0.1225,0.46648
2.78398,0,0,12.216,12.216,17.784,17.784,-1.26544,1.80602,0.498806,0.103134,0.0389229,0.00866547,0,0,3.395,-0.14,0.07,0.094916,0.073078,-1.00333,-0.06636,0.1225,0.46648
2.87095,0,0,12.1291,12.1291,17.8709,17.8709,-1.30498,1.91175,0.411386,0.10129,0.0382348,0.00859015,0,0,2.5375,0.0525,0.21,0.094916,0.073078,-1.00333,-0.06636,0.1225,0.46648
2.24684,0,0,12.7532,12.7532,17.2468,17.2468,-1.02129,1.71834,0.614223,-0.1982,-0.306102,-0.0036203,0,0,2.5375,0.3325,0.35,-0.20923,-0.275842,-1.01565,-0.06636,0.1225,0.46648
1.63153,0,0,13.3685,13.3685,16.6315,16.6315,-0.741605,1.53025,0.815526,-0.194918,-0.301225,-0.00345219,0,0,2.8875,1.12,0.5425,-0.20923,-0.275842,-1.01565,-0.06454,0.12194,0.46886
1.63537,0,0,13.3646,13.3646,16.6354,16.6354,-0.743352,1.53121,0.817674,0.283232,-0.1591,-0.134024,1,0,2.45,0.7175,0.3325,0.270962,-0.133834,-1.14521,-0.06454,0.12194,0.46886
1.63459,0,0,13.3654,13.3654,16.6346,16.6346,-0.742997,1.53079,0.819059,0.28324,-0.159093,-0.134024,1,0,3.64,-0.0875,-0.1225,0.270962,-0.133834,-1.14521,-0.06454,0.12194,0.46886
1.60326,0,0,13.3967,13.3967,16.6033,16.6033,-0.728753,1.83668,0.5501,0.291996,-0.0140006,0.0422534,0,0,4.305,0.035,-0.4025,0.285114,0.010858,-0.970144,-0.06454,0.12194,0.46886
1.57157,0,0,13.4284,13.4284,16.5716,16.5716,-0.714351,2.13692,0.281468,0.286759,-0.0137471,0.0420749,0,0,4.5675,-0.1575,-0.4725,0.285114,0.010858,-0.970144,-0.06454,0.12194,0.46886
1.36415,0,0,13.6358,13.6358,16.3642,16.3642,-0.620069,2.05371,0.368833,-0.0786769,-0.0905088,0.0259179,0,0,5.3025,0.175,-1.0675,-0.083326,-0.067466,-0.986248,-0.06454,0.12194,0.46886
1.16805,0,0,13.8319,13.8319,16.1681,16.1681,-0.530932,1.97234,0.453749,-0.0772576,-0.0889546,0.0259834,0,0,3.36,0.385,-2.24,-0.083326,-0.067466,-0.986248,-0.06454,0.12194,0.46886
0.883751,0,0,14.1162,14.1162,15.8838,15.8838,-0.401705,1.89149,0.540945,-0.0769408,-0.127491,0.0414179,0,0,3.2725,0.49,-2.0825,-0.084424,-0.108214,-0.970998,-0.06454,0.12194,0.46886
0.60399,0,0,14.396,14.396,15.604,15.604,-0.274541,1.81238,0.630868,-0.0755607,-0.125273,0.0414756,0,0,3.36,0.6475,-2.4325,-0.084424,-0.108214,-0.970998,-0.06972,0.1197,0.4739
0.255341,0,0,14.7447,14.7447,15.2553,15.2553,-0.116064,1.7086,0.744836,-0.102664,-0.166352,-0.0098518,0,0,2.835,0.6475,-2.66,-0.11346,-0.152012,-1.02199,-0.06972,0.1197,0.4739
-0.0907443,0,0,15.0907,15.0907,14.9093,14.9093,0.0412474,1.60574,0.858165,-0.100869,-0.163608,-0.00979809,0,0,3.675,0.105,-2.5375,-0.11346,-0.152012,-1.02199,-0.06972,0.1197,0.4739
-0.572809,0,0,15.5728,15.5728,14.4272,14.4272,0.260368,1.55644,0.925613,-0.0502001,-0.217551,0.0503374,0,0,3.0975,0.14,-2.3975,-0.06344,-0.209718,-0.962336,-0.06972,0.1197,0.4739
-1.05132,0,0,16.0513,16.0513,13.9487,13.9487,0.477873,1.50767,0.99343,-0.0493492,-0.213756,0.0503357,0,0,4.2175,-0.0175,-1.82,-0.06344,-0.209718,-0.962336,-0.06972,0.1197,0.4739
-1.05372,0,0,16.0537,16.0537,13.9463,13.9463,0.478965,1.50709,0.992015,0.440734,0.0841302,-0.212651,1,0,4.095,-0.175,-1.75,0.428708,0.08784,-1.22329,-0.06972,0.1197,0.4739
-1.04731,0,0,16.0473,16.0473,13.9527,13.9527,0.47605,1.50624,0.991348,0.440749,0.0840793,-0.21265,1,0,1.8375,-0.3325,-1.3125,0.428708,0.08784,-1.22329,-0.06972,0.1197,0.4739
-1.04272,0,0,16.0427,16.0427,13.9573,13.9573,0.473965,1.5055,0.991341,0.0603902,-0.234097,0.139106,1,0,2.2925,-0.2625,-0.9275,0.046726,-0.22997,-0.874252,-0.06972,0.1197,0.4739
-1.03629,0,0,16.0363,16.0363,13.9637,13.9637,0.471043,1.50505,0.992777,0.0603981,-0.234148,0.139107,1,0,1.8025,-0.0875,-0.0875,0.046726,-0.22997,-0.874252,-0.0686,0.12012,0.46942
-1.58818,0,0,16.5882,16.5882,13.4118,13.4118,0.721901,1.50155,1.02451,-0.00927368,-0.262502,0.019188,0,0,1.8375,0.3675,0.455,-0.023302,-0.262666,-0.993202,-0.0686,0.12012,0.46942
-2.13103,0,0,17.131,17.131,12.869,12.869,0.968651,1.49797,1.05599,-0.0092112,-0.258197,0.0191261,0,0,1.8375,0.3675,0.455,-0.023302,-0.262666,-0.993202,-0.0686,0.12012,0.46942
-2.13232,0,0,17.1323,17.1323,12.8677,12.8677,0.969237,1.49841,1.05908,-0.186223,0.0738759,0.190639,1,0,3.745,0.455,0.875,-0.201056,0.069052,-0.823012,-0.0686,0.12012,0.46942
-2.13361,0,0,17.1336,17.1336,12.8664,12.8664,0.969823,1.49884,1.06218,-0.186231,0.0738861,0.190639,1,0,3.745,0.455,0.875,-0.201056,0.069052,-0.823012,-0.0686,0.12012,0.46942
-2.13656,0,0,17.1366,17.1366,12.8634,12.8634,0.971163,1.49952,1.06306,0.289131,-0.130897,-0.0810784,1,0,4.2,0.5775,-0.42,0.27633,-0.135542,-1.09263,-0.0686,0.12012,0.46942
-2.13951,0,0,17.1395,17.1395,12.8605,12.8605,0.972503,1.5002,1.06394,0.289119,-0.130874,-0.0810791,1,0,4.2,0.5775,-0.42,0.27633,-0.135542,-1.09263,-0.0686,0.12012,0.46942
-2.1403,0,0,17.1403,17.1403,12.8597,12.8597,0.972863,1.50746,1.06434,0.444858,0.0265539,-0.204892,1,0,3.6575,4.4275,-0.77,0.432856,0.021716,-1.21549,-0.0686,0.12012,0.46942
-2.14109,0,0,17.1411,17.1411,12.8589,12.8589,0.973222,1.51472,1.06473,0.444732,0.0265601,-0.204895,1,0,3.6575,4.4275,-0.77,0.432856,0.021716,-1.21549,-0.06804,0.1295,0.46312
-2.52684,0,0,17.5268,17.5268,12.4732,12.4732,1.14856,1.20897,1.33737,-0.288809,-0.191062,0.00664648,0,0,2.3275,-4.4625,-1.89,-0.309148,-0.198738,-1.00565,-0.06804,0.1295,0.46312
-2.90615,0,0,17.9061,17.9061,12.0939,12.0939,1.32098,0.908713,1.60759,-0.28357,-0.188052,0.00667846,0,0,2.3275,-4.4625,-1.89,-0.309148,-0.198738,-1.00565,-0.06804,0.1295,0.46312
-2.906,0,0,17.906,17.906,12.094,12.094,1.32091,0.908958,1.6051,-0.149818,-0.0785051,0.124832,1,0,3.4475,0.28,-2.38,-0.174826,-0.089304,-0.888404,-0.06804,0.1295,0.46312
-2.90586,0,0,17.9059,17.9059,12.0941,12.0941,1.32085,0.909202,1.60262,-0.149823,-0.0785062,0.124832,1,0,3.4475,0.28,-2.38,-0.174826,-0.089304,-0.888404,-0.06804,0.1295,0.46312
-2.90805,0,0,17.908,17.908,12.092,12.092,1.32184,0.909033,1.59994,-0.0853109,0.09774,0.175363,1,0,4.0425,0.035,-2.485,-0.110044,0.086742,-0.838262,-0.06804,0.1295,0.46312
-2.72806,0,0,17.7281,17.7281,12.2719,12.2719,1.24003,0.916872,1.60389,0.00870372,0.0831229,0.00793724,0,0,3.5175,-0.105,-2.2925,-0.015494,0.073566,-1.00443,-0.06804,0.1295,0.46312
-2.54847,0,0,17.5485,17.5485,12.4515,12.4515,1.15839,0.924031,1.6085,0.00857879,0.0816986,0.00796505,0,0,2.835,-0.42,-1.9075,-0.015494,0.073566,-1.00443,-0.06804,0.1295,0.46312
-2.3583,0,0,17.3583,17.3583,12.6417,12.6417,1.07195,0.841687,1.6952,-0.072716,0.0815342,0.0364177,0,0,1.19,0.315,-1.47,-0.098576,0.074908,-0.976244,-0.06804,0.1295,0.46312
-2.16928,0,0,17.1693,17.1693,12.8307,12.8307,0.986037,0.758938,1.79087,-0.0712719,0.0800354,0.0364647,0,0,0.665,-0.5425,-0.4375,-0.098576,0.074908,-0.976244,-0.06776,0.1246,0.46816
-2.16131,0,0,17.1613,17.1613,12.8387,12.8387,0.982411,0.758052,1.79244,-0.061659,0.0761862,0.113801,1,0,1.4175,-0.3325,0,-0.088938,0.071126,-0.899506,-0.06776,0.1246,0.46816
-2.15601,0,0,17.156,17.156,12.844,12.844,0.980005,0.75848,1.79413,-0.0616665,0.0761442,0.113801,1,0,2.1,0.4375,0.0525,-0.088938,0.071126,-0.899506,-0.06776,0.1246,0.46816
-2.23203,0,0,17.232,17.232,12.768,12.768,1.01456,0.701496,1.87259,-0.0504672,-0.0293807,0.0983119,0,0,3.99,0.8575,0.49,-0.07869,-0.034892,-0.914878,-0.06776,0.1246,0.46816
-2.30821,0,0,17.3082,17.3082,12.6918,12.6918,1.04919,0.645249,1.95138,-0.0494856,-0.0287763,0.0983126,0,0,4.3575,0.6825,0.8225,-0.07869,-0.034892,-0.914878,-0.06776,0.1246,0.46816
-2.6412,0,0,17.6412,17.6412,12.3588,12.3588,1.20054,0.729838,1.90384,0.0753833,-0.157666,-0.00650911,0,0,3.78,0.4725,0.595,0.04819,-0.166286,-1.01882,-0.06776,0.1246,0.46816
-2.96872,0,0,17.9687,17.9687,12.0313,12.0313,1.34942,0.812618,1.85597,0.0739386,-0.155069,-0.00658636,0,0,3.815,0.385,0.14,0.04819,-0.166286,-1.01882,-0.06776,0.1246,0.46816
-3.22299,0,0,18.223,18.223,11.777,11.777,1.46499,0.853902,1.84281,0.0390807,-0.13046,-0.0677518,0,0,2.73,0.0525,-0.28,0.013908,-0.143716,-1.07946,-0.06776,0.1246,0.46816
-3.47367,0,0,18.4737,18.4737,11.5263,11.5263,1.57894,0.893475,1.82491,0.0383901,-0.128472,-0.0678151,0,0,2.9225,-0.21,-0.4025,0.013908,-0.143716,-1.07946,-0.07042,0.12796,0.47306
-3.05035,0,0,18.0503,18.0503,11.9497,11.9497,1.38652,0.940164,1.79724,0.0482661,0.200844,-0.00282445,0,0,3.605,-0.4725,-1.225,0.024644,0.188612,-1.01504,-0.07042,0.12796,0.47306
-2.63245,0,0,17.6325,17.6325,12.3675,12.3675,1.19657,0.985692,1.76778,0.0474715,0.19753,-0.00276309,0,0,3.22,-0.7,-2.1875,0.024644,0.188612,-1.01504,-0.07042,0.12796,0.47306
-2.63642,0,0,17.6364,17.6364,12.3636,12.3636,1.19837,0.985542,1.76535,-0.12953,-0.00626825,0.11539,1,0,4.4975,0.0525,-2.345,-0.15311,-0.015006,-0.897798,-0.07042,0.12796,0.47306
-2.63872,0,0,17.6387,17.6387,12.3613,12.3613,1.19942,0.985347,1.76219,-0.129527,-0.00625003,0.115389,1,0,4.0775,0.0175,-2.765,-0.15311,-0.015006,-0.897798,-0.07042,0.12796,0.47306
-2.63848,0,0,17.6385,17.6385,12.3615,12.3615,1.19931,0.985777,1.75914,0.176731,0.341321,-0.0781315,1,0,3.43,0.385,-2.7125,0.154452,0.332206,-1.08983,-0.07042,0.12796,0.47306
-2.63997,0,0,17.64,17.64,12.36,12.36,1.19999,0.985512,1.7565,0.176735,0.341333,-0.0781317,1,0,3.8675,-0.0175,-2.4675,0.154452,0.332206,-1.08983,-0.07042,0.12796,0.47306
-2.63996,0,0,17.64,17.64,12.36,12.36,1.19998,0.985903,1.75386,-0.219436,0.00829284,-0.0976806,1,0,3.4825,0.3675,-2.4675,-0.24339,-0.000488,-1.10922,-0.07042,0.12796,0.47306
-2.63988,0,0,17.6399,17.6399,12.3601,12.3601,1.19995,0.985988,1.75162,-0.219438,0.00829227,-0.0976806,1,0,3.465,0.1925,-2.24,-0.24339,-0.000488,-1.10922,-0.07028,0.12166,0.46256
-2.63717,0,0,17.6372,17.6372,12.3628,12.3628,1.19871,0.985577,1.7502,0.250962,-0.249661,-0.0697708,1,0,2.7825,-0.0875,-1.75,0.228994,-0.258152,-1.08153,-0.07028,0.12166,0.46256
-2.62969,0,0,17.6297,17.6297,12.3703,12.3703,1.19531,0.986126,1.75006,0.250953,-0.24972,-0.0697697,1,0,1.5575,0.49,-1.015,0.228994,-0.258152,-1.08153,-0.07028,0.12166,0.46256
-2.6256,0,0,17.6256,17.6256,12.3744,12.3744,1.19345,0.98487,1.75048,0.0949868,-0.197727,-0.0807111,1,0,2.415,-0.56,-0.665,0.072346,-0.20618,-1.09239,-0.07028,0.12166,0.46256
-2.62443,0,0,17.6244,17.6244,12.3756,12.3756,1.19292,0.98365,1.75205,0.0950081,-0.197736,-0.0807105,1,0,3.15,-0.525,0,0.072346,-0.20618,-1.09239,-0.07028,0.12166,0.46256
-2.89607,0,0,17.8961,17.8961,12.1039,12.1039,1.3164,1.24467,1.54689,0.237694,-0.126094,0.0360778,0,0,3.5875,0.4025,0.2625,0.22021,-0.136762,-0.976366,-0.07028,0.12166,0.46256
-3.16988,0,0,18.1699,18.1699,11.8301,11.8301,1.44085,1.50161,1.34494,0.233211,-0.123925,0.0359181,0,0,5.285,0.875,1.3125,0.22021,-0.136762,-0.976366,-0.07028,0.12166,0.46256
-2.84657,0,0,17.8466,17.8466,12.1534,12.1534,1.2939,1.61208,1.26545,0.093883,0.146463,0.0736721,0,0,5.04,1.5925,1.2425,0.082228,0.135908,-0.938912,-0.07028,0.12166,0.46256
-2.53117,0,0,17.5312,17.5312,12.4688,12.4688,1.15053,1.71934,1.17881,0.0920119,0.143962,0.0736711,0,0,5.705,0.4725,0.7,0.082228,0.135908,-0.938912,-0.06888,0.12544,0.46886
-2.6877,0,0,17.6877,17.6877,12.3123,12.3123,1.22168,1.7887,1.12789,0.0550851,-0.0615587,0.088731,0,0,5.4075,0.4725,0.35,0.04636,-0.070638,-0.923906,-0.06888,0.12544,0.46886
-2.83764,0,0,17.8376,17.8376,12.1624,12.1624,1.28984,1.85607,1.07662,0.0539099,-0.0603708,0.0886675,0,0,4.41,0.07,0.035,0.04636,-0.070638,-0.923906,-0.06888,0.12544,0.46886
-2.98559,0,0,17.9856,17.9856,12.0144,12.0144,1.35708,1.74201,1.18547,-0.104583,-0.0661578,0.00866346,0,0,4.9,-0.385,-0.175,-0.114802,-0.077592,-1.00333,-0.06888,0.12544,0.46886
-3.12518,0,0,18.1252,18.1252,11.8748,11.8748,1.42054,1.63125,1.29195,-0.102651,-0.0650498,0.00869351,0,0,3.4475,0.28,-1.2775,-0.114802,-0.077592,-1.00333,-0.06888,0.12544,0.46886
-3.23645,0,0,18.2365,18.2365,11.7635,11.7635,1.47111,1.57854,1.34541,-0.0502212,-0.0597704,-0.0922437,0,0,3.2725,-0.3675,-2.1525,-0.063074,-0.0732,-1.10349,-0.06888,0.12544,0.46886
-3.35006,0,0,18.3501,18.3501,11.6499,11.6499,1.52275,1.52677,1.39783,-0.049318,-0.0588692,-0.0922428,0,0,4.3575,-0.4025,-2.625,-0.063074,-0.0732,-1.10349,-0.06888,0.12544,0.46886
-3.3498,0,0,18.3498,18.3498,11.6502,11.6502,1.52264,1.52618,1.39445,0.359856,0.134944,-0.0268338,1,0,3.4475,-0.2275,-2.8875,0.347822,0.120414,-1.03859,-0.06888,0.12544,0.46886
-3.34955,0,0,18.3495,18.3495,11.6505,11.6505,1.52252,1.52559,1.39107,0.359866,0.134942,-0.0268335,1,0,3.4475,-0.2275,-2.8875,0.347822,0.120414,-1.03859,-0.0679,0.1239,0.46802
-3.33577,0,0,18.3358,18.3358,11.6642,11.6642,1.51626,1.69381,1.24926,0.17203,0.00879577,-0.0757236,0,0,5.25,0,-2.9225,0.162138,-0.00549,-1.08702,-0.0679,0.1239,0.46802
-3.32211,0,0,18.3221,18.3221,11.6779,11.6779,1.51005,1.85894,1.10767,0.16915,0.00868507,-0.0758101,0,0,5.25,0,-2.9225,0.162138,-0.00549,-1.08702,-0.0679,0.1239,0.46802
-3.78673,0,0,18.7867,18.7867,11.2133,11.2133,1.72124,1.63265,1.31726,-0.217965,-0.223211,0.00658182,0,0,5.3025,-0.455,-2.17,-0.23058,-0.240828,-1.00528,-0.0679,0.1239,0.46802
-4.24371,0,0,19.2437,19.2437,10.7563,10.7563,1.92896,1.41042,1.52473,-0.214088,-0.219586,0.00656933,0,0,5.3025,-0.455,-2.17,-0.23058,-0.240828,-1.00528,-0.0679,0.1239,0.46802
-4.38111,0,0,19.3811,19.3811,10.6189,10.6189,1.99141,1.30029,1.6369,-0.0973623,-0.0615622,0.0648551,0,0,1.7675,0.175,-0.7875,-0.11529,-0.084058,-0.947452,-0.0679,0.1239,0.46802
-4.51619,0,0,19.5162,19.5162,10.4838,10.4838,2.05281,1.19222,1.74855,-0.0954765,-0.06049,0.0648583,0,0,1.7675,0.175,-0.7875,-0.11529,-0.084058,-0.947452,-0.0679,0.1239,0.46802
-4.46812,0,0,19.4681,19.4681,10.5319,10.5319,2.03097,1.51889,1.48355,0.312118,0.0209491,-0.0106304,0,0,1.96,4.235,0.0175,0.299754,-0.002318,-1.02224,-0.0679,0.1239,0.46802
-4.42049,0,0,19.4205,19.4205,10.5795,10.5795,2.00931,1.83969,1.21884,0.306521,0.0205658,-0.010781,0,0,1.96,4.235,0.0175,0.299754,-0.002318,-1.02224,-0.0679,0.1239,0.46802
-3.7998,0,0,18.7998,18.7998,11.2002,11.2002,1.72718,2.03475,1.05719,0.179811,0.294581,0.0583615,0,0,4.655,1.5925,1.1375,0.175924,0.27633,-0.953674,-0.0672,0.1183,0.47124
-4.03847,0,0,19.0385,19.0385,10.9615,10.9615,1.83567,1.7695,1.312,-0.263844,-0.117655,-0.0380584,0,0,5.67,1.015,0.595,-0.274256,-0.137372,-1.04944,-0.0672,0.1183,0.47124
-4.273,0,0,19.273,19.273,10.727,10.727,1.94227,1.50903,1.56526,-0.2593,-0.115792,-0.0379897,0,0,5.67,1.015,0.595,-0.274256,-0.137372,-1.04944,-0.0672,0.1183,0.47124
-4.49312,0,0,19.4931,19.4931,10.5069,10.5069,2.04233,1.40599,1.67323,-0.0954405,-0.111114,-0.0702172,0,0,4.97,-4.06,0.0175,-0.111508,-0.134444,-1.08141,-0.0672,0.1183,0.47124
-4.70955,0,0,19.7095,19.7095,10.2905,10.2905,2.1407,1.30485,1.78057,-0.0936758,-0.109397,-0.0702381,0,0,4.97,-4.06,0.0175,-0.111508,-0.134444,-1.08141,-0.0672,0.1183,0.47124
-3.69144,0,0,18.6914,18.6914,11.3086,11.3086,1.67793,1.47485,1.6401,0.182289,0.52394,0.0487273,0,0,4.2175,0.1225,-1.4525,0.168604,0.5063,-0.963556,-0.0672,0.1183,0.47124
-2.68781,0,0,17.6878,17.6878,12.3122,12.3122,1.22173,1.64224,1.49758,0.179369,0.515981,0.0488492,0,0,4.2175,0.1225,-1.4525,0.168604,0.5063,-0.963556,-0.0672,0.1183,0.47124
-2.64765,0,0,17.6476,17.6476,12.3524,12.3524,1.20348,1.64279,1.50738,0.002233,0.0189733,-0.0134792,0,0,3.6225,-0.49,-2.3625,-0.009272,0.010126,-1.02541,-0.06776,0.12124,0.46662
-2.63716,0,0,17.6372,17.6372,12.3628,12.3628,1.19871,1.84858,1.33226,0.196543,0.00484334,0.00264234,0,0,3.2725,-0.5425,-2.73,0.189466,-0.003904,-1.00931,-0.06776,0.12124,0.46662
-2.62668,0,0,17.6267,17.6267,12.3733,12.3733,1.19395,2.05062,1.15742,0.193019,0.00475776,0.00252414,0,0,3.2725,-0.5425,-2.73,0.189466,-0.003904,-1.00931,-0.06776,0.12124,0.46662
-2.63236,0,0,17.6324,17.6324,12.3676,12.3676,1.19653,2.05108,1.15443,0.235531,-0.183639,-0.196408,1,0,4.97,0.4025,-2.6775,0.232166,-0.19215,-1.2067,-0.06776,0.12124,0.46662
-2.63805,0,0,17.638,17.638,12.362,12.362,1.19911,2.05154,1.15143,0.235523,-0.183594,-0.196409,1,0,4.97,0.4025,-2.6775,0.232166,-0.19215,-1.2067,-0.06776,0.12124,0.46662
-2.64429,0,0,17.6443,17.6443,12.3557,12.3557,1.20195,2.05203,1.14949,0.185948,-0.259629,-0.046905,1,0,5.0925,0.4375,-2.065,0.18239,-0.268156,-1.05835,-0.06776,0.12124,0.46662
-2.65054,0,0,17.6505,17.6505,12.3495,12.3495,1.20479,2.05253,1.14755,0.18594,-0.25958,-0.0469063,1,0,5.0925,0.4375,-2.065,0.18239,-0.268156,-1.05835,-0.06776,0.12124,0.46662
-2.64817,0,0,17.6482,17.6482,12.3518,12.3518,1.20371,2.05371,1.14866,0.135016,-0.242012,-0.0910452,1,0,2.835,0.875,-0.2975,0.131272,-0.250588,-1.10215,-0.06776,0.12124,0.46662
-2.6458,0,0,17.6458,17.6458,12.3542,12.3542,1.20263,2.05489,1.14976,0.134996,-0.242031,-0.0910455,1,0,2.835,0.875,-0.2975,0.131272,-0.250588,-1.10215,-0.06132,0.11914,0.47026
-3.07859,0,0,18.0786,18.0786,11.9214,11.9214,1.39936,1.81927,1.37967,-0.231183,-0.213195,0.0135218,0,0,1.8725,0.2625,0.2625,-0.240584,-0.225212,-0.998448,-0.06132,0.11914,0.47026
-3.08262,0,0,18.0826,18.0826,11.9174,11.9174,1.40119,1.81997,1.38215,0.108722,-0.0592833,0.209501,1,0,4.445,0.6125,0.5075,0.100772,-0.071492,-0.80398,-0.06132,0.11914,0.47026
-3.10378,0,0,18.1038,18.1038,11.8962,11.8962,1.41081,1.82053,1.38505,0.108712,-0.0591156,0.209496,1,0,8.8025,0.5425,0.7525,0.100772,-0.071492,-0.80398,-0.06132,0.11914,0.47026
-2.72888,0,0,17.7289,17.7289,12.2711,12.2711,1.2404,1.86917,1.35302,0.0466351,0.178135,0.0290491,0,0,5.6875,0.1575,0.8225,0.039284,0.168482,-0.983076,-0.06132,0.11914,0.47026
-2.3587,0,0,17.3587,17.3587,12.6413,12.6413,1.07214,1.91673,1.31997,0.0458055,0.1752,0.0290809,0,0,5.3375,0,0.28,0.039284,0.168482,-0.983076,-0.06132,0.11914,0.47026
-2.57771,0,0,17.5777,17.5777,12.4223,12.4223,1.17168,1.8813,1.36794,-0.0347288,-0.101512,-0.0148252,0,0,5.3725,0.105,0.1225,-0.042212,-0.109678,-1.02663,-0.06132,0.11914,0.47026
-2.79441,0,0,17.7944,17.7944,12.2056,12.2056,1.27019,1.84665,1.41457,-0.0341244,-0.0997939,-0.0148421,0,0,5.74,0.1925,-0.5075,-0.042212,-0.109678,-1.02663,-0.06132,0.11914,0.47026
-2.79294,0,0,17.7929,17.7929,12.2071,12.2071,1.26952,1.84635,1.41489,-0.112113,0.0594476,0.135647,1,0,3.08,0,-0.735,-0.120536,0.04941,-0.877302,-0.06132,0.11914,0.47026
-2.79004,0,0,17.79,17.79,12.21,12.21,1.2682,1.84558,1.41361,-0.1121,0.0594247,0.135648,1,0,2.7475,-0.2975,-1.6625,-0.120536,0.04941,-0.877302,-0.06356,0.12138,0.47264
-2.78671,0,0,17.7867,17.7867,12.2133,12.2133,1.26669,1.84473,1.41197,0.138176,-0.0596753,0.206345,1,0,2.6425,-0.35,-1.8725,0.130784,-0.06954,-0.807152,-0.06356,0.12138,0.47264
-2.78723,0,0,17.7872,17.7872,12.2128,12.2128,1.26692,1.84387,1.40934,0.138191,-0.0596712,0.206345,1,0,3.64,-0.3675,-2.45,0.130784,-0.06954,-0.807152,-0.06356,0.12138,0.47264
-2.98561,0,0,17.9856,17.9856,12.0144,12.0144,1.3571,2.18719,1.10684,0.314431,-0.0885131,0.0837646,0,0,4.3925,-0.4725,-2.6775,0.313784,-0.099918,-0.928542,-0.06356,0.12138,0.47264
-3.18202,0,0,18.182,18.182,11.818,11.818,1.44637,2.52497,0.806076,0.308541,-0.0869627,0.0834842,0,0,4.76,-0.1925,-2.52,0.313784,-0.099918,-0.928542,-0.06356,0.12138,0.47264
-3.18979,0,0,18.1898,18.1898,11.8102,11.8102,1.44991,2.52464,0.803995,0.0559776,0.0575749,-0.122579,1,0,5.495,-0.0525,-2.135,0.060146,0.044408,-1.13301,-0.06356,0.12138,0.47264
-3.18937,0,0,18.1894,18.1894,11.8106,11.8106,1.44971,2.52457,0.802341,0.0559788,0.0575715,-0.122579,1,0,3.395,0.105,-1.89,0.060146,0.044408,-1.13301,-0.06356,0.12138,0.47264
-3.18844,0,0,18.1884,18.1884,11.8116,11.8116,1.44929,2.52438,0.800445,-0.139731,-0.412013,-0.175446,1,0,3.2725,0.035,-2.03,-0.136396,-0.424682,-1.18547,-0.06356,0.12138,0.47264
-3.18486,0,0,18.1849,18.1849,11.8151,11.8151,1.44766,2.52452,0.800178,-0.139734,-0.412042,-0.175446,1,0,2.555,0.245,-1.085,-0.136396,-0.424682,-1.18547,-0.063,0.11648,0.4669
-3.17749,0,0,18.1775,18.1775,11.8225,11.8225,1.44431,2.52523,0.800526,-0.0751158,0.231019,-0.0899954,1,0,1.575,0.595,-0.735,-0.071492,0.21777,-1.10068,-0.063,0.11648,0.4669
-3.17443,0,0,18.1744,18.1744,11.8256,11.8256,1.44292,2.52671,0.801433,-0.0751416,0.230995,-0.0899959,1,0,2.66,1.05,-0.42,-0.071492,0.21777,-1.10068,-0.063,0.11648,0.4669
-2.90681,0,0,17.9068,17.9068,12.0932,12.0932,1.32128,2.58217,0.756104,0.0515728,0.126532,0.00259232,0,0,3.395,1.085,-0.2625,0.05673,0.115534,-1.00882,-0.063,0.11648,0.4669
-2.64565,0,0,17.6456,17.6456,12.3544,12.3544,1.20257,2.63642,0.711411,0.050627,0.124461,0.00259481,0,0,3.9025,0.9625,0.14,0.05673,0.115534,-1.00882,-0.063,0.11648,0.4669
-2.64804,0,0,17.648,17.648,12.352,12.352,1.20365,2.63705,0.713226,-0.0849619,-0.0654267,0.116813,1,0,4.025,0.56,0.1225,-0.079422,-0.074176,-0.89548,-0.063,0.11648,0.4669
-2.64774,0,0,17.6477,17.6477,12.3523,12.3523,1.20352,2.63747,0.714916,-0.0849693,-0.0654291,0.116813,1,0,3.3425,0.4375,0.0525,-0.079422,-0.074176,-0.89548,-0.063,0.11648,0.4669
-2.64898,0,0,17.649,17.649,12.351,12.351,1.20408,2.63745,0.716116,-0.0695403,0.119603,-0.201132,1,0,3.745,0.175,-0.2275,-0.063928,0.110654,-1.21097,-0.063,0.11648,0.4669
-2.65018,0,0,17.6502,17.6502,12.3498,12.3498,1.20463,2.63672,0.717062,-0.0695276,0.119612,-0.201132,1,0,3.745,-0.245,-0.3675,-0.063928,0.110654,-1.21097,-0.06244,0.11802,0.46424
-2.65025,0,0,17.6502,17.6502,12.3498,12.3498,1.20466,2.63585,0.717553,-0.0968467,-0.0174134,-0.189082,1,0,3.465,-0.3325,-0.63,-0.091378,-0.02623,-1.19902,-0.06244,0.11802,0.46424
-2.6472,0,0,17.6472,17.6472,12.3528,12.3528,1.20327,2.63452,0.717195,-0.0968235,-0.0174375,-0.189081,1,0,2.695,-0.6125,-1.12,-0.091378,-0.02623,-1.19902,-0.06244,0.11802,0.46424
-2.70616,0,0,17.7062,17.7062,12.2938,12.2938,1.23007,2.67502,0.683362,0.0455805,-0.0354122,-0.0788385,0,0,1.645,-0.245,-1.33,0.052338,-0.044652,-1.08958,-0.06244,0.11802,0.46424
-2.768,0,0,17.768,17.768,12.232,12.232,1.25818,2.71529,0.649142,0.0448784,-0.034923,-0.0788822,0,0,2.6425,0.0525,-1.61,0.052338,-0.044652,-1.08958,-0.06244,0.11802,0.46424
-2.76444,0,0,17.7644,17.7644,12.2356,12.2356,1.25656,2.71482,0.64775,0.0262993,0.0645821,0.139967,1,0,2.59,-0.1225,-1.7325,0.033672,0.054778,-0.872422,-0.06244,0.11802,0.46424
-2.76591,0,0,17.7659,17.7659,12.2341,12.2341,1.25723,2.71259,0.64662,0.0263383,0.0645938,0.139969,1,0,3.8675,-1.155,-1.5575,0.033672,0.054778,-0.872422,-0.06244,0.11802,0.46424
-2.76728,0,0,17.7673,17.7673,12.2327,12.2327,1.25785,2.71094,0.645772,0.131452,0.130675,-0.152648,1,0,3.8325,-0.805,-1.4,0.139202,0.12078,-1.16278,-0.06244,0.11802,0.46424
-2.76888,0,0,17.7689,17.7689,12.2311,12.2311,1.25858,2.71009,0.645183,0.131467,0.130688,-0.152647,1,0,3.885,-0.3325,-1.26,0.139202,0.12078,-1.16278,-0.06496,0.11704,0.46774
-2.76975,0,0,17.7698,17.7698,12.2302,12.2302,1.25898,2.70888,0.644886,-0.176114,0.0136974,-0.110229,1,0,3.6925,-0.5425,-1.085,-0.169702,0.003904,-1.12069,-0.06496,0.11704,0.46774
-2.76662,0,0,17.7666,17.7666,12.2334,12.2334,1.25755,2.70904,0.644979,-0.176116,0.0136726,-0.110229,1,0,2.66,0.2625,-0.875,-0.169702,0.003904,-1.12069,-0.06496,0.11704,0.46774
-3.04255,0,0,18.0425,18.0425,11.9575,11.9575,1.38298,2.70051,0.66219,-0.00600925,-0.146326,-0.0806414,0,0,2.345,0.49,-0.735,0.000976,-0.158112,-1.09129,-0.06496,0.11704,0.46774
-3.31347,0,0,18.3135,18.3135,11.6865,11.6865,1.50612,2.6931,0.678965,-0.00588011,-0.144179,-0.0806894,0,0,2.24,1.0675,-0.91,0.000976,-0.158112,-1.09129,-0.06496,0.11704,0.46774
-2.53317,0,0,17.5332,17.5332,12.4668,12.4668,1.15144,2.70148,0.662131,0.00563635,0.372463,0.0457152,0,0,1.9775,1.12,-1.0325,0.012688,0.36417,-0.965996,-0.06496,0.11704,0.46774
-1.77031,0,0,16.7703,16.7703,13.2297,13.2297,0.804687,2.70852,0.645572,0.0055137,0.366419,0.0458126,0,0,3.3425,0.455,-0.98,0.012688,0.36417,-0.965996,-0.06496,0.11704,0.46774
-1.77149,0,0,16.7715,16.7715,13.2285,13.2285,0.805225,2.70891,0.645607,-0.00943594,0.39122,0.209088,1,0,3.7625,0.4025,-0.91,-0.002318,0.388936,-0.80398,-0.06496,0.11704,0.46774
-1.77539,0,0,16.7754,16.7754,13.2246,13.2246,0.806997,2.70937,0.646004,-0.00944379,0.391251,0.209087,1,0,4.445,0.4375,-0.7,-0.002318,0.388936,-0.80398,-0.0574,0.11774,0.46886
-1.65288,0,0,16.6529,16.6529,13.3471,13.3471,0.751309,2.66079,0.68963,-0.0465005,0.0585845,0.0612328,0,0,5.53,0.2275,-1.0675,-0.040382,0.057584,-0.950746,-0.0574,0.11774,0.46886
-1.52473,0,0,16.5247,16.5247,13.4753,13.4753,0.693059,2.61283,0.732818,-0.0456642,0.0575695,0.0612841,0,0,3.5875,0.07,-1.365,-0.040382,0.057584,-0.950746,-0.0574,0.11774,0.46886
-1.42638,0,0,16.4264,16.4264,13.5736,13.5736,0.648352,2.32172,1.00126,-0.302511,0.0499535,-0.0636497,0,0,3.9375,-0.2625,-1.0325,-0.303414,0.050752,-1.07494,-0.0574,0.11774,0.46886
-1.32215,0,0,16.3221,16.3221,13.6779,13.6779,0.600975,2.03672,1.2695,-0.297541,0.0491293,-0.0634515,0,0,2.0825,0.3675,-1.2075,-0.303414,0.050752,-1.07494,-0.0574,0.11774,0.46886
-1.29275,0,0,16.2927,16.2927,13.7073,13.7073,0.587612,1.96676,1.3451,-0.0678059,0.010671,-0.0227105,0,0,1.855,0.175,-1.085,-0.073932,0.012566,-1.03456,-0.0574,0.11774,0.46886
-1.26383,0,0,16.2638,16.2638,13.7362,13.7362,0.574467,1.89806,1.42061,-0.0666075,0.0104421,-0.0226677,0,0,1.855,0.175,-1.085,-0.073932,0.012566,-1.03456,-0.0574,0.11774,0.46886
-1.60802,0,0,16.608,16.608,13.392,13.392,0.730916,1.8901,1.4454,-0.0103423,-0.15915,0.0256245,0,0,4.095,-0.105,-0.5075,-0.017568,-0.159576,-0.986614,-0.0574,0.11774,0.46886
-1.94657,0,0,16.9466,16.9466,13.0534,13.0534,0.884804,1.88222,1.47,-0.0102048,-0.156466,0.0255912,0,0,4.095,-0.105,-0.5075,-0.017568,-0.159576,-0.986614,-0.0574,0.11774,0.46886
-2.28455,0,0,17.2845,17.2845,12.7155,12.7155,1.03843,2.14273,1.25207,0.218018,-0.140599,0.136286,0,0,5.04,-0.1925,-0.7525,0.216184,-0.1464,-0.87657,-0.06594,0.11802,0.46648
