pid_x,pid_y,pid_z,front_left_speed,front_right_speed,back_left_speed,back_right_speed,orientation_x,orientation_y,orientation_z,acceleration_x,acceleration_y,acceleration_z,accel_rejected,mag_rejected,ahrs_initialized,gyro_x,gyro_y,gyro_z,accel_x,accel_y,accel_z,mag_x,mag_y,mag_z
0.0599901,0,0,9.94001,9.94001,10.06,10.06,-0.0333278,0.00674492,0.962967,0.0140185,0.0201128,0.0110041,0,0,0,4.2,1.05,-0.91,-0.026108,0.032818,-1.00174,-0.1736,-0.25788,0.32494
0.14854,0,0,9.85146,9.85146,10.1485,10.1485,-0.0825225,-0.00157359,1.92388,0.0116125,0.0300013,0.0085443,0,0,0,4.62,1.05,-0.56,-0.02867,0.043554,-1.00418,-0.1736,-0.25788,0.32494
0.202404,0,0,9.7976,9.7976,10.2024,10.2024,-0.112446,-0.00458014,2.88376,0.00765593,0.0177549,0.00596149,0,0,0,4.2,1.33,-0.56,-0.032696,0.031842,-1.00674,-0.1736,-0.25788,0.32494
0.270673,0,0,9.72933,9.72933,10.2707,10.2707,-0.150374,-0.0100037,3.83596,0.00896545,0.0228329,-0.00645784,0,0,0,4.34,1.4,-0.77,-0.031476,0.037576,-1.01907,-0.1736,-0.25788,0.32494
0.337828,0,0,9.66217,9.66217,10.3378,10.3378,-0.187682,-0.0156669,4.79807,0.00906429,0.0221817,-0.00645978,0,0,0,4.27,0.98,-0.84,-0.031476,0.037576,-1.01907,-0.1736,-0.2632,0.31682
0.416681,0,0,9.58332,9.58332,10.4167,10.4167,-0.231489,-0.0261995,5.75411,0.00827623,0.0254473,0.00792233,0,0,0,4.34,1.12,-1.26,-0.032452,0.041602,-1.00479,-0.1736,-0.2632,0.31682
0.493213,0,0,9.50679,9.50679,10.4932,10.4932,-0.274007,-0.0352546,6.7037,0.00843427,0.0247053,0.00791897,0,0,0,4.55,1.33,-1.12,-0.032452,0.041602,-1.00479,-0.1736,-0.2632,0.31682
0.565546,0,0,9.43445,9.43445,10.5655,10.5655,-0.314192,-0.0415211,7.64575,0.00902959,0.0230269,0.0108661,0,0,0,4.48,1.26,-0.98,-0.031964,0.040626,-1.00186,-0.1736,-0.2632,0.31682
0.636301,0,0,9.3637,9.3637,10.6363,10.6363,-0.353501,-0.0466257,8.58067,0.00911868,0.0223409,0.010862,0,0,0,4.48,1.4,-0.98,-0.031964,0.040626,-1.00186,-0.1736,-0.2632,0.31682
0.695752,0,0,9.30425,9.30425,10.6958,10.6958,-0.386529,-0.0441314,9.5055,0.0112619,0.0188334,0.00458793,0,0,0,4.41,1.19,-0.77,-0.029768,0.037698,-1.00809,-0.1736,-0.2632,0.31682
0.768497,0,0,9.2315,9.2315,10.7685,10.7685,-0.426943,-0.0451033,10.4234,0.0115218,0.0230131,-0.0025481,0,0,0,4.41,1.33,-0.7,-0.029524,0.042578,-1.01516,-0.1736,-0.2632,0.31682
0.839888,0,0,9.16011,9.16011,10.8399,10.8399,-0.466604,-0.0448975,11.321,0.0115182,0.0223209,-0.00255349,0,0,0,4.27,1.4,-1.05,-0.029524,0.042578,-1.01516,-0.1757,-0.25858,0.32074
0.893562,0,0,9.10644,9.10644,10.8936,10.8936,-0.496423,-0.0482288,12.2145,0.00695992,0.0169154,-0.000344842,0,0,0,4.69,1.33,-1.4,-0.03416,0.037698,-1.01297,-0.1757,-0.25858,0.32074
0.936291,0,0,9.06371,9.06371,10.9363,10.9363,-0.520162,-0.0515544,13.102,0.00531716,0.0132037,0.00567591,0,0,0,4.62,1.05,-0.91,-0.035868,0.034404,-1.00699,-0.1757,-0.25858,0.32074
0.99124,0,0,9.00876,9.00876,10.9912,10.9912,-0.550689,-0.0509348,13.9777,0.0090724,0.0169454,-0.00256661,0,0,0,4.41,1.19,-0.98,-0.032086,0.038674,-1.01516,-0.1757,-0.25858,0.32074
1.04616,0,0,8.95384,8.95384,11.0462,11.0462,-0.581202,-0.0495492,14.845,0.00904822,0.0164128,-0.00257185,0,0,0,3.99,1.33,-1.12,-0.032086,0.038674,-1.01516,-0.1757,-0.25858,0.32074
1.09963,0,0,8.90037,8.90037,11.0996,11.0996,-0.610904,-0.0503889,15.706,0.00760505,0.0157724,0.00627504,0,0,0,4.2,1.33,-0.77,-0.03355,0.038552,-1.00638,-0.1757,-0.25858,0.32074
1.15397,0,0,8.84603,8.84603,11.154,11.154,-0.641094,-0.0541626,16.5603,0.00633457,0.0159782,0.00147423,0,0,0,4.2,1.12,-0.7,-0.034892,0.039284,-1.01114,-0.1757,-0.25858,0.32074
1.20661,0,0,8.79339,8.79339,11.2066,11.2066,-0.670338,-0.0572845,17.3991,0.00638905,0.0154678,0.00146833,0,0,0,4.27,1.05,-0.77,-0.034892,0.039284,-1.01114,-0.17654,-0.25578,0.3227
1.26722,0,0,8.73278,8.73278,11.2672,11.2672,-0.704013,-0.0542983,18.2246,0.0108319,0.0180555,0.0044121,0,0,0,4.48,1.05,-1.12,-0.030378,0.042456,-1.00821,-0.17654,-0.25578,0.3227
1.32127,0,0,8.67873,8.67873,11.3213,11.3213,-0.734036,-0.0646677,19.0505,0.00275186,0.0156996,-0.000389655,0,0,0,4.48,0.98,-0.91,-0.038674,0.040626,-1.01297,-0.17654,-0.25578,0.3227
1.37497,0,0,8.62503,8.62503,11.375,11.375,-0.763873,-0.0743949,19.8675,0.00292163,0.0151789,-0.000396667,0,0,0,4.13,0.84,-0.98,-0.038674,0.040626,-1.01297,-0.17654,-0.25578,0.3227
1.41447,0,0,8.58553,8.58553,11.4145,11.4145,-0.785819,-0.0585481,20.6608,0.0145506,0.0117427,0.00636064,0,0,0,4.2,0.7,-1.05,-0.026718,0.037576,-1.00626,-0.17654,-0.25578,0.3227
1.45265,0,0,8.54735,8.54735,11.4526,11.4526,-0.807027,-0.0420093,21.4455,0.014262,0.0113726,0.00635575,0,0,0,4.27,1.19,-0.98,-0.026718,0.037576,-1.00626,-0.17654,-0.25578,0.3227
1.49175,0,0,8.50825,8.50825,11.4917,11.4917,-0.828749,-0.0307785,22.2244,0.0113933,0.0112378,0.014711,0,0,0,4.34,1.26,-0.91,-0.029402,0.03782,-0.99796,-0.17654,-0.25578,0.3227
1.52952,0,0,8.47048,8.47048,11.5295,11.5295,-0.849736,-0.0195393,22.9947,0.0111971,0.0108715,0.0147057,0,0,0,4.41,1.26,-0.77,-0.029402,0.03782,-0.99796,-0.17654,-0.25578,0.3227
1.56778,0,0,8.43222,8.43222,11.5678,11.5678,-0.870987,-0.011198,23.7656,0.00983669,0.010867,0.00597081,0,0,0,4.2,1.12,-0.77,-0.030622,0.038186,-1.00662,-0.17836,-0.26166,0.32102
1.59767,0,0,8.40233,8.40233,11.5977,11.5977,-0.887594,-0.00284424,24.527,0.00896198,0.00874533,0.00276972,0,0,0,4.41,0.91,-0.98,-0.031354,0.036356,-1.00979,-0.17836,-0.26166,0.32102
1.62602,0,0,8.37398,8.37398,11.626,11.626,-0.903347,0.00540594,25.2795,0.00881798,0.00847042,0.00276542,0,0,0,4.62,0.84,-0.77,-0.031354,0.036356,-1.00979,-0.17836,-0.26166,0.32102
1.65384,0,0,8.34616,8.34616,11.6538,11.6538,-0.918797,0.0228123,26.0174,0.0134951,0.00856717,0.00386759,0,0,0,4.55,0.98,-0.84,-0.026352,0.036722,-1.0087,-0.17836,-0.26166,0.32102
1.68107,0,0,8.31893,8.31893,11.6811,11.6811,-0.933928,0.0401512,26.7462,0.0131925,0.00830313,0.00386315,0,0,0,4.48,1.12,-0.77,-0.026352,0.036722,-1.0087,-0.17836,-0.26166,0.32102
1.73815,0,0,8.26185,8.26185,11.7381,11.7381,-0.965639,0.0297107,27.4817,0.00195504,0.0149552,0.00373114,0,0,0,4.06,1.05,-0.7,-0.03782,0.04392,-1.00882,-0.17836,-0.26166,0.32102
1.79346,0,0,8.20654,8.20654,11.7935,11.7935,-0.996366,0.0202689,28.2072,0.00211984,0.014419,0.00372203,0,0,0,4.06,1.12,-1.12,-0.03782,0.04392,-1.00882,-0.17836,-0.26166,0.32102
1.83237,0,0,8.16763,8.16763,11.8324,11.8324,-1.01798,0.0196183,28.919,0.0045609,0.0101338,0.00260887,0,0,0,3.92,1.19,-0.91,-0.03538,0.040016,-1.00992,-0.17836,-0.26166,0.32102
1.86871,0,0,8.13129,8.13129,11.8687,11.8687,-1.03817,0.0195825,29.6226,0.00456153,0.00978142,0.00260255,0,0,0,4.34,1.33,-0.84,-0.03538,0.040016,-1.00992,-0.1778,-0.26082,0.31878
1.89735,0,0,8.10265,8.10265,11.8974,11.8974,-1.05408,0.0182326,30.3174,0.00300578,0.00779396,-0.00035328,0,0,0,4.48,1.19,-0.84,-0.036966,0.038308,-1.01284,-0.1778,-0.26082,0.31878
1.92419,0,0,8.07581,8.07581,11.9242,11.9242,-1.06899,0.0169532,31.0029,0.00302811,0.00753378,-0.000358094,0,0,0,4.76,1.05,-0.91,-0.036966,0.038308,-1.01284,-0.1778,-0.26082,0.31878
1.95256,0,0,8.04744,8.04744,11.9526,11.9526,-1.08476,0.0248872,31.6747,0.00799203,0.00811362,0.00799718,0,0,0,4.76,1.26,-0.7,-0.031842,0.039162,-1.00455,-0.1778,-0.26082,0.31878
1.98206,0,0,8.01794,8.01794,11.9821,11.9821,-1.10115,0.0335583,32.3379,0.00784069,0.0078276,0.00799165,0,0,0,4.13,1.68,-0.42,-0.031842,0.039162,-1.00455,-0.1778,-0.26082,0.31878
2.00951,0,0,7.99049,7.99049,12.0095,12.0095,-1.11639,0.0344891,32.9959,0.00332947,0.00719518,0.000363683,0,0,0,4.27,1.75,-0.56,-0.036356,0.038796,-1.01211,-0.1778,-0.26082,0.31878
2.03495,0,0,7.96505,7.96505,12.0349,12.0349,-1.13053,0.0343153,33.6442,0.00333251,0.00694854,0.000358849,0,0,0,4.62,0.98,-0.84,-0.036356,0.038796,-1.01211,-0.1778,-0.26082,0.31878
2.03592,0,0,7.96408,7.96408,12.0359,12.0359,-1.13107,0.0641002,34.2661,0.016905,0.00193196,0.00011232,0,0,0,4.62,1.05,-0.98,-0.022204,0.033794,-1.01236,-0.1778,-0.26082,0.31878
2.03696,0,0,7.96304,7.96304,12.037,12.037,-1.13165,0.0929882,34.8797,0.0164008,0.00192182,0.000111428,0,0,0,4.69,1.19,-0.7,-0.022204,0.033794,-1.01236,-0.17094,-0.25564,0.32186
2.01417,0,0,7.98583,7.98583,12.0142,12.0142,-1.11898,0.0978262,35.4952,-8.41945e-05,-0.00567327,0.00749254,0,0,0,4.69,1.4,-0.84,-0.038674,0.025986,-1.00504,-0.17094,-0.25564,0.32186
1.99261,0,0,8.00739,8.00739,11.9926,11.9926,-1.107,0.10219,36.1021,-0.000160358,-0.00546425,0.00749647,0,0,0,4.55,1.33,-0.77,-0.038674,0.025986,-1.00504,-0.17094,-0.25564,0.32186
2.03521,0,0,7.96479,7.96479,12.0352,12.0352,-1.13067,0.110013,36.7026,0.00917898,0.0113426,0.0119143,0,0,0,4.62,1.33,-0.98,-0.029158,0.043188,-1.00064,-0.17094,-0.25564,0.32186
2.07617,0,0,7.92383,7.92383,12.0762,12.0762,-1.15343,0.118197,37.2947,0.00903615,0.0109455,0.0119061,0,0,0,4.69,1.47,-0.91,-0.029158,0.043188,-1.00064,-0.17094,-0.25564,0.32186
2.07376,0,0,7.92624,7.92624,12.0738,12.0738,-1.15209,0.121226,37.8776,0.00120821,-0.000633135,0.00317711,0,0,0,4.34,1.4,-0.77,-0.036966,0.031598,-1.00931,-0.17094,-0.25564,0.32186
2.07166,0,0,7.92834,7.92834,12.0717,12.0717,-1.15092,0.124612,38.4519,0.00114911,-0.000612798,0.00317739,0,0,0,4.27,1.68,-0.84,-0.036966,0.031598,-1.00931,-0.17094,-0.25564,0.32186
2.09287,0,0,7.90713,7.90713,12.0929,12.0929,-1.1627,0.128561,39.0194,0.0043603,0.00553224,-2.35721e-05,0,0,0,4.27,1.4,-0.7,-0.033672,0.037942,-1.01248,-0.17094,-0.25564,0.32186
2.11311,0,0,7.88689,7.88689,12.1131,12.1131,-1.17395,0.132916,39.5763,0.00428429,0.00533597,-2.77482e-05,0,0,0,4.34,1.61,-1.05,-0.033672,0.037942,-1.01248,-0.1757,-0.26068,0.32438
2.11723,0,0,7.88277,7.88277,12.1172,12.1172,-1.17624,0.15587,40.1139,0.0132381,0.00212079,0.00181465,0,0,0,4.27,1.33,-1.19,-0.024278,0.03477,-1.01065,-0.1757,-0.26068,0.32438
2.12064,0,0,7.87936,7.87936,12.1206,12.1206,-1.17813,0.177761,40.6435,0.012856,0.00208773,0.00181286,0,0,0,4.48,1.12,-1.19,-0.024278,0.03477,-1.01065,-0.1757,-0.26068,0.32438
2.12897,0,0,7.87103,7.87103,12.129,12.129,-1.18276,0.192197,41.1689,0.00908096,0.00273972,0.00758896,0,0,0,4.41,1.12,-1.12,-0.027816,0.035502,-1.00491,-0.1757,-0.26068,0.32438
2.13731,0,0,7.86269,7.86269,12.1373,12.1373,-1.18739,0.206595,41.6862,0.00882966,0.00265895,0.00758642,0,0,0,4.34,1.33,-1.19,-0.027816,0.035502,-1.00491,-0.1757,-0.26068,0.32438
2.14255,0,0,7.85745,7.85745,12.1425,12.1425,-1.1903,0.224551,42.1937,0.010703,0.00236392,0.00573995,0,0,0,4.62,1.26,-1.05,-0.02562,0.035258,-1.00674,-0.1757,-0.26068,0.32438
2.14814,0,0,7.85186,7.85186,12.1481,12.1481,-1.19341,0.241987,42.6939,0.0103987,0.0023097,0.00573759,0,0,0,4.48,1.26,-0.84,-0.02562,0.035258,-1.00674,-0.1757,-0.26068,0.32438
2.159,0,0,7.841,7.841,12.159,12.159,-1.19944,0.247793,43.1922,0.00434457,0.00293728,0.00708739,0,0,0,4.48,1.26,-0.77,-0.031598,0.03599,-1.0054,-0.1757,-0.26068,0.32438
2.16926,0,0,7.83074,7.83074,12.1693,12.1693,-1.20514,0.253507,43.6831,0.00424485,0.00283779,0.00708487,0,0,0,4.55,1.26,-0.63,-0.031598,0.03599,-1.0054,-0.1757,-0.26068,0.32438
2.2108,0,0,7.7892,7.7892,12.2108,12.2108,-1.22822,0.234319,44.1837,-0.00659694,0.00964052,-0.00497121,0,0,0,4.62,1.12,-0.84,-0.042822,0.043188,-1.01736,-0.1729,-0.2569,0.31696
2.25095,0,0,7.74905,7.74905,12.2509,12.2509,-1.25053,0.216071,44.6766,-0.00627846,0.00925133,-0.00497838,0,0,0,4.55,1.12,-0.77,-0.042822,0.043188,-1.01736,-0.1729,-0.2569,0.31696
2.26485,0,0,7.73515,7.73515,12.2649,12.2649,-1.25825,0.218118,45.1494,0.00255427,0.00349872,-0.00166186,0,0,0,4.27,1.19,-1.05,-0.033916,0.037576,-1.01406,-0.1729,-0.2569,0.31696
2.27825,0,0,7.72175,7.72175,12.2783,12.2783,-1.2657,0.220207,45.6148,0.00251781,0.0033688,-0.00166486,0,0,0,4.27,1.19,-1.05,-0.033916,0.037576,-1.01406,-0.1729,-0.2569,0.31696
2.29885,0,0,7.70115,7.70115,12.2988,12.2988,-1.27714,0.223469,46.0733,0.00379722,0.00512319,0.00386317,0,0,0,4.34,1.26,-1.05,-0.032574,0.039528,-1.00857,-0.1729,-0.2569,0.31696
2.32495,0,0,7.67505,7.67505,12.325,12.325,-1.29164,0.222771,46.527,0.0021086,0.00621355,0.00496408,0,0,0,4.34,1.19,-1.12,-0.034282,0.04087,-1.00748,-0.1729,-0.2569,0.31696
2.3494,0,0,7.6506,7.6506,12.3494,12.3494,-1.30522,0.222654,46.9737,0.00211064,0.00597655,0.00495872,0,0,0,4.55,1.4,-0.98,-0.034282,0.04087,-1.00748,-0.1729,-0.2569,0.31696
2.35385,0,0,7.64615,7.64615,12.3539,12.3539,-1.3077,0.224877,47.4094,0.00170739,0.00153683,-0.0043865,0,0,0,4.69,1.33,-1.12,-0.034648,0.036478,-1.01675,-0.1729,-0.2569,0.31696
2.37691,0,0,7.62309,7.62309,12.3769,12.3769,-1.32051,0.222089,47.8555,0.000541198,0.00570987,-0.00254721,0,0,0,4.62,1.33,-0.98,-0.035868,0.04087,-1.01492,-0.17052,-0.26404,0.31836
2.39181,0,0,7.60819,7.60819,12.3918,12.3918,-1.32878,0.21962,48.2934,-2.31414e-05,0.00324505,0.0110969,0,0,0,4.48,1.19,-0.84,-0.036478,0.038552,-1.00138,-0.17052,-0.26404,0.31836
2.405,0,0,7.595,7.595,12.405,12.405,-1.33611,0.217455,48.7243,1.46358e-05,0.00311714,0.0110941,0,0,0,4.83,1.26,-0.84,-0.036478,0.038552,-1.00138,-0.17052,-0.26404,0.31836
2.42733,0,0,7.57267,7.57267,12.4273,12.4273,-1.34852,0.223751,49.1456,0.00573608,0.00570961,0.0128098,0,0,0,4.76,1.19,-1.05,-0.030622,0.041358,-0.999668,-0.17052,-0.26404,0.31836
2.44953,0,0,7.55047,7.55047,12.4495,12.4495,-1.36085,0.230026,49.5607,0.00562655,0.0054945,0.0128043,0,0,0,4.55,1.19,-0.77,-0.030622,0.041358,-0.999668,-0.17052,-0.26404,0.31836
2.45281,0,0,7.54719,7.54719,12.4528,12.4528,-1.36267,0.239398,49.965,0.00594892,0.00143248,0.00370471,0,0,0,4.62,1.05,-0.7,-0.030134,0.037332,-1.0087,-0.17052,-0.26404,0.31836
2.45648,0,0,7.54352,7.54352,12.4565,12.4565,-1.36471,0.248735,50.3624,0.00578596,0.00139691,0.00370317,0,0,0,4.48,1.19,-0.91,-0.030134,0.037332,-1.0087,-0.17052,-0.26404,0.31836
2.46631,0,0,7.53369,7.53369,12.4663,12.4663,-1.37017,0.257924,50.7545,0.00623301,0.00301148,-0.00379967,0,0,0,4.41,1.26,-0.7,-0.029524,0.03904,-1.01614,-0.17052,-0.26404,0.31836
2.47539,0,0,7.52461,7.52461,12.4754,12.4754,-1.37522,0.266637,51.1202,0.00608095,0.00292346,-0.00380247,0,0,0,4.48,1.05,-0.49,-0.029524,0.03904,-1.01614,-0.1792,-0.26054,0.32074
2.49473,0,0,7.50527,7.50527,12.4947,12.4947,-1.38596,0.262913,51.486,-0.000292797,0.00444572,0.00602919,0,0,0,4.62,1.05,-0.7,-0.03599,0.040748,-1.00638,-0.1792,-0.26054,0.32074
2.51353,0,0,7.48647,7.48647,12.5135,12.5135,-1.39641,0.259421,51.845,-0.00023186,0.00426347,0.00602504,0,0,0,4.55,1.05,-1.05,-0.03599,0.040748,-1.00638,-0.1792,-0.26054,0.32074
2.5114,0,0,7.4886,7.4886,12.5114,12.5114,-1.39522,0.273629,52.1882,0.00826714,0.000253983,0.00639323,0,0,0,4.41,0.98,-0.98,-0.027206,0.036722,-1.00601,-0.1792,-0.26054,0.32074
2.50877,0,0,7.49123,7.49123,12.5088,12.5088,-1.39376,0.287991,52.5261,0.00801647,0.000279512,0.00639263,0,0,0,4.62,1.33,-0.7,-0.027206,0.036722,-1.00601,-0.1792,-0.26054,0.32074
2.51504,0,0,7.48496,7.48496,12.515,12.515,-1.39725,0.287805,52.8645,0.00036613,0.00143995,0.00135027,0,0,0,4.41,1.26,-0.91,-0.034892,0.037942,-1.01101,-0.1792,-0.26054,0.32074
2.52175,0,0,7.47825,7.47825,12.5217,12.5217,-1.40097,0.288021,53.1972,0.000362351,0.00137498,0.00134867,0,0,0,4.2,1.47,-0.98,-0.034892,0.037942,-1.01101,-0.1792,-0.26054,0.32074
2.5454,0,0,7.4546,7.4546,12.5454,12.5454,-1.41411,0.290471,53.5265,0.00311376,0.00578655,-0.00320628,0,0,0,4.27,1.47,-0.91,-0.032086,0.042578,-1.01553,-0.1792,-0.26054,0.32074
2.56752,0,0,7.43248,7.43248,12.5675,12.5675,-1.4264,0.292494,53.8581,0.00307845,0.00557217,-0.00321177,0,0,0,4.48,1.19,-1.05,-0.032086,0.042578,-1.01553,-0.17542,-0.26222,0.32368
2.56633,0,0,7.43367,7.43367,12.5663,12.5663,-1.42574,0.295376,54.1801,0.00169182,-0.000156325,0.00416517,0,0,0,4.48,1.12,-0.98,-0.033428,0.036844,-1.00821,-0.17542,-0.26222,0.32368
2.56499,0,0,7.43501,7.43501,12.565,12.565,-1.42499,0.298174,54.4972,0.00164299,-0.000143287,0.00416524,0,0,0,4.55,1.12,-0.7,-0.033428,0.036844,-1.00821,-0.17542,-0.26222,0.32368
2.5726,0,0,7.4274,7.4274,12.5726,12.5726,-1.42922,0.297516,54.8116,0.000318131,0.00173694,0.00317987,0,0,0,4.48,1.12,-0.7,-0.03477,0.038796,-1.00918,-0.17542,-0.26222,0.32368
2.57901,0,0,7.42099,7.42099,12.579,12.579,-1.43279,0.296798,55.1206,0.00033065,0.00167479,0.00317838,0,0,0,4.76,1.05,-0.84,-0.03477,0.038796,-1.00918,-0.17542,-0.26222,0.32368
2.5756,0,0,7.4244,7.4244,12.5756,12.5756,-1.43089,0.306931,55.4185,0.00586363,-1.89767e-06,0.00244059,0,0,0,4.69,1.12,-1.05,-0.029036,0.037088,-1.00992,-0.17542,-0.26222,0.32368
2.57352,0,0,7.42648,7.42648,12.5735,12.5735,-1.42973,0.317819,55.7116,0.00567361,1.83428e-05,0.00244006,0,0,0,4.34,1.75,-0.91,-0.029036,0.037088,-1.00992,-0.17542,-0.26222,0.32368
2.59361,0,0,7.40639,7.40639,12.5936,12.5936,-1.4409,0.315594,56.008,2.61267e-06,0.00446436,-0.00125307,0,0,0,4.2,1.4,-0.77,-0.03477,0.041724,-1.01358,-0.17542,-0.26222,0.32368
2.61288,0,0,7.38712,7.38712,12.6129,12.6129,-1.4516,0.313916,56.2998,3.18893e-05,0.00427759,-0.00125762,0,0,0,4.2,1.61,-0.84,-0.03477,0.041724,-1.01358,-0.175,-0.26222,0.3255
2.62564,0,0,7.37436,7.37436,12.6256,12.6256,-1.45869,0.318212,56.5834,0.00311554,0.00281051,0.00808291,0,0,0,4.13,1.47,-0.84,-0.031598,0.040382,-1.0043,-0.175,-0.26222,0.3255
2.63704,0,0,7.36296,7.36296,12.637,12.637,-1.46502,0.322198,56.8618,0.00304599,0.0027001,0.0080797,0,0,0,4.41,1.33,-1.19,-0.031598,0.040382,-1.0043,-0.175,-0.26222,0.3255
2.63851,0,0,7.36149,7.36149,12.6385,12.6385,-1.46584,0.315902,57.1371,-0.00364733,-9.86196e-07,-0.00138708,0,0,0,4.48,1.26,-1.05,-0.03843,0.037698,-1.0137,-0.175,-0.26222,0.3255
2.63965,0,0,7.36035,7.36035,12.6396,12.6396,-1.46647,0.310046,57.408,-0.00354513,-1.20596e-05,-0.00138681,0,0,0,4.55,1.4,-0.98,-0.03843,0.037698,-1.0137,-0.175,-0.26222,0.3255
2.64547,0,0,7.35453,7.35453,12.6455,12.6455,-1.4697,0.319365,57.6704,0.00576811,0.00176348,0.00906148,0,0,0,4.48,1.33,-0.84,-0.028914,0.039528,-1.00333,-0.175,-0.26222,0.3255
2.65112,0,0,7.34888,7.34888,12.6511,12.6511,-1.47284,0.328912,57.9284,0.00560149,0.00170871,0.00905913,0,0,0,4.48,1.61,-0.91,-0.028914,0.039528,-1.00333,-0.175,-0.26222,0.3255
2.65188,0,0,7.34812,7.34812,12.6519,12.6519,-1.47327,0.330861,58.1827,0.00119397,0.000357947,-0.00717046,0,0,0,4.27,1.26,-1.05,-0.033306,0.038186,-1.01943,-0.175,-0.26222,0.3255
2.65307,0,0,7.34693,7.34693,12.6531,12.6531,-1.47393,0.332279,58.4273,0.00116924,0.000346423,-0.0071709,0,0,0,4.13,0.98,-1.12,-0.033306,0.038186,-1.01943,-0.17598,-0.25886,0.32452
2.67509,0,0,7.32491,7.32491,12.6751,12.6751,-1.48616,0.338197,58.6708,0.00507498,0.00538449,0.00278181,0,0,0,4.27,1.19,-1.05,-0.02928,0.043432,-1.00955,-0.17598,-0.25886,0.32452
2.69604,0,0,7.30396,7.30396,12.696,12.696,-1.4978,0.344056,58.9102,0.00497271,0.00518141,0.00277591,0,0,0,4.34,1.19,-1.05,-0.02928,0.043432,-1.00955,-0.17598,-0.25886,0.32452
2.70358,0,0,7.29642,7.29642,12.7036,12.7036,-1.50199,0.3447,59.1446,0.000952452,0.00181094,-0.000299782,0,0,0,4.41,1.19,-1.05,-0.033306,0.040138,-1.0126,-0.17598,-0.25886,0.32452
2.71103,0,0,7.28897,7.28897,12.711,12.711,-1.50613,0.345377,59.3755,0.000940629,0.00173865,-0.000301751,0,0,0,4.34,1.19,-0.77,-0.033306,0.040138,-1.0126,-0.17598,-0.25886,0.32452
2.71765,0,0,7.28235,7.28235,12.7176,12.7176,-1.5098,0.340327,59.604,-0.00237283,0.00130814,-0.00349957,0,0,0,4.41,1.05,-0.77,-0.036722,0.039772,-1.01577,-0.17598,-0.25886,0.32452
2.72463,0,0,7.27537,7.27537,12.7246,12.7246,-1.51368,0.335341,59.8285,-0.00228581,0.00124043,-0.00350085,0,0,0,4.2,0.98,-0.84,-0.036722,0.039772,-1.01577,-0.17598,-0.25886,0.32452
2.7248,0,0,7.2752,7.2752,12.7248,12.7248,-1.51378,0.334161,60.0465,-0.000442928,-0.000348848,0.00805639,0,0,0,4.27,0.91,-0.98,-0.034892,0.038186,-1.0043,-0.17598,-0.25886,0.32452
2.7245,0,0,7.2755,7.2755,12.7245,12.7245,-1.51361,0.333978,60.2611,-0.000439732,-0.000345909,0.00805649,0,0,0,4.41,1.47,-0.84,-0.034892,0.038186,-1.0043,-0.17598,-0.25886,0.32452
2.71676,0,0,7.28324,7.28324,12.7168,12.7168,-1.50931,0.337231,60.463,0.00120429,-0.00173645,0.00436968,0,0,0,4.41,1.4,-1.05,-0.033184,0.036722,-1.00796,-0.17976,-0.25942,0.31976
2.73156,0,0,7.26844,7.26844,12.7316,12.7316,-1.51754,0.336569,60.667,0.000729907,0.00349365,-0.000797883,0,0,0,4.48,1.12,-0.98,-0.033672,0.04209,-1.01309,-0.17976,-0.25942,0.31976
2.74621,0,0,7.25379,7.25379,12.7462,12.7462,-1.52567,0.33565,60.8677,0.000745938,0.0033517,-0.000801559,0,0,0,4.34,0.91,-0.84,-0.033672,0.04209,-1.01309,-0.17976,-0.25942,0.31976
2.74456,0,0,7.25544,7.25544,12.7446,12.7446,-1.52475,0.33463,61.0621,-0.000572591,-0.000296086,-0.000309235,0,0,0,4.62,1.12,-0.84,-0.035014,0.03843,-1.0126,-0.17976,-0.25942,0.31976
2.74364,0,0,7.25636,7.25636,12.7436,12.7436,-1.52424,0.333396,61.2533,-0.000551065,-0.000287174,-0.000308872,0,0,0,4.41,0.98,-0.77,-0.035014,0.03843,-1.0126,-0.17976,-0.25942,0.31976
2.75696,0,0,7.24304,7.24304,12.757,12.757,-1.53164,0.330443,61.4444,-0.000742485,0.00288112,-0.00473816,0,0,0,4.2,1.05,-0.77,-0.035258,0.041724,-1.01699,-0.17976,-0.25942,0.31976
2.76859,0,0,7.23141,7.23141,12.7686,12.7686,-1.53811,0.328228,61.6319,-0.000703842,0.00276835,-0.00474096,0,0,0,4.55,1.4,-0.98,-0.035258,0.041724,-1.01699,-0.17976,-0.25942,0.31976
2.76907,0,0,7.23093,7.23093,12.7691,12.7691,-1.53837,0.323203,61.8147,-0.00304585,-4.51664e-05,-0.000683287,0,0,0,4.69,1.33,-0.98,-0.037698,0.038918,-1.01297,-0.17976,-0.25942,0.31976
2.77038,0,0,7.22962,7.22962,12.7704,12.7704,-1.5391,0.31809,61.9928,-0.0029566,-5.79583e-05,-0.000683131,0,0,0,4.41,1.19,-0.98,-0.037698,0.038918,-1.01297,-0.17948,-0.25718,0.3178
2.78289,0,0,7.21711,7.21711,12.7829,12.7829,-1.54605,0.321971,62.1678,0.00304993,0.00324044,0.00287873,0,0,0,4.62,1.33,-1.12,-0.031598,0.042334,-1.00943,-0.17948,-0.25718,0.3178
2.79468,0,0,7.20532,7.20532,12.7947,12.7947,-1.5526,0.325679,62.3398,0.00298522,0.00312608,0.00287527,0,0,0,4.69,1.26,-1.12,-0.031598,0.042334,-1.00943,-0.17948,-0.25718,0.3178
2.79935,0,0,7.20065,7.20065,12.7994,12.7994,-1.5552,0.328533,62.5074,0.00232799,0.00149319,-0.00093764,0,0,0,4.62,0.98,-1.12,-0.032208,0.040748,-1.01321,-0.17948,-0.25718,0.3178
2.80542,0,0,7.19458,7.19458,12.8054,12.8054,-1.55857,0.33181,62.6724,0.0022708,0.00143435,-0.000939569,0,0,0,4.13,1.26,-0.98,-0.032208,0.040748,-1.01321,-0.17948,-0.25718,0.3178
2.82067,0,0,7.17933,7.17933,12.8207,12.8207,-1.56704,0.327423,62.8386,-0.00166168,0.00324058,-0.00241854,0,0,0,4.34,1.19,-0.91,-0.036234,0.0427,-1.01467,-0.17948,-0.25718,0.3178
2.83593,0,0,7.16407,7.16407,12.8359,12.8359,-1.57552,0.323238,63.002,-0.00158863,0.00309265,-0.00242219,0,0,0,4.13,1.19,-0.91,-0.036234,0.0427,-1.01467,-0.17948,-0.25718,0.3178
2.83707,0,0,7.16293,7.16293,12.8371,12.8371,-1.57615,0.324549,63.1583,0.000818205,2.84246e-05,0.00347891,0,0,0,4.13,1.19,-0.98,-0.033794,0.03965,-1.00882,-0.17948,-0.25718,0.3178
2.83796,0,0,7.16204,7.16204,12.838,12.838,-1.57664,0.325933,63.3107,0.000794044,1.98893e-05,0.00347854,0,0,0,4.2,1.26,-1.26,-0.033794,0.03965,-1.00882,-0.1813,-0.25998,0.31528
2.8213,0,0,7.1787,7.1787,12.8213,12.8213,-1.56739,0.332074,63.4557,0.00238766,-0.0036046,0.00323645,0,0,0,4.34,1.47,-1.26,-0.032086,0.035868,-1.00906,-0.1813,-0.25998,0.31528
2.80628,0,0,7.19372,7.19372,12.8063,12.8063,-1.55904,0.338096,63.5989,0.00228257,-0.00345895,0.00323981,0,0,0,4.06,1.54,-0.91,-0.032086,0.035868,-1.00906,-0.1813,-0.25998,0.31528
2.79706,0,0,7.20294,7.20294,12.7971,12.7971,-1.55392,0.349888,63.7392,0.00620728,-0.00178199,0.00963433,0,0,0,4.13,1.4,-0.84,-0.027938,0.037454,-1.00272,-0.1813,-0.25998,0.31528
2.78698,0,0,7.21302,7.21302,12.787,12.787,-1.54832,0.361408,63.877,0.00600622,-0.00168425,0.00963572,0,0,0,4.55,1.47,-0.91,-0.027938,0.037454,-1.00272,-0.1813,-0.25998,0.31528
2.77644,0,0,7.22356,7.22356,12.7764,12.7764,-1.54247,0.367507,64.0137,0.00274115,-0.00194845,-7.51268e-05,0,0,0,4.55,1.54,-0.77,-0.03111,0.037088,-1.01236,-0.1813,-0.25998,0.31528
2.76728,0,0,7.23272,7.23272,12.7673,12.7673,-1.53738,0.372435,64.1484,0.00265513,-0.00185966,-7.32957e-05,0,0,0,4.27,0.98,-0.56,-0.03111,0.037088,-1.01236,-0.1813,-0.25998,0.31528
2.76843,0,0,7.23157,7.23157,12.7684,12.7684,-1.53802,0.373677,64.2836,0.000811167,0.000205408,0.00693433,0,0,0,4.48,1.19,-0.7,-0.03294,0.039162,-1.0054,-0.1813,-0.25998,0.31528
2.76978,0,0,7.23022,7.23022,12.7698,12.7698,-1.53877,0.374755,64.4271,0.000792364,0.000192292,0.00693385,0,0,0,4.41,1.12,-0.91,-0.03294,0.039162,-1.0054,-0.1743,-0.25704,0.31486
2.7768,0,0,7.2232,7.2232,12.7768,12.7768,-1.54267,0.37577,64.5696,0.00150356,0.00171193,0.00447294,0,0,0,4.55,0.77,-0.77,-0.032208,0.040748,-1.00784,-0.1743,-0.25704,0.31486
2.78354,0,0,7.21646,7.21646,12.7835,12.7835,-1.54641,0.377257,64.7093,0.00147761,0.00164662,0.00447101,0,0,0,4.55,1.05,-0.91,-0.032208,0.040748,-1.00784,-0.1743,-0.25704,0.31486
2.78426,0,0,7.21574,7.21574,12.7843,12.7843,-1.54681,0.383348,64.8446,0.00404399,0.000540538,0.00471601,0,0,0,4.48,0.91,-0.7,-0.029524,0.03965,-1.0076,-0.1743,-0.25704,0.31486
2.78522,0,0,7.21478,7.21478,12.7852,12.7852,-1.54735,0.390566,64.977,0.00391802,0.000531189,0.00471491,0,0,0,4.41,1.68,-0.98,-0.029524,0.03965,-1.0076,-0.1743,-0.25704,0.31486
2.77048,0,0,7.22952,7.22952,12.7705,12.7705,-1.53915,0.399944,65.1028,0.00424028,-0.00298966,0.00434878,0,0,0,4.34,1.75,-1.19,-0.029036,0.03599,-1.00796,-0.1743,-0.25704,0.31486
2.75664,0,0,7.24336,7.24336,12.7566,12.7566,-1.53147,0.408753,65.2265,0.00408655,-0.00285552,0.00435129,0,0,0,4.27,1.61,-1.12,-0.029036,0.03599,-1.00796,-0.1743,-0.25704,0.31486
2.75297,0,0,7.24703,7.24703,12.753,12.753,-1.52943,0.404799,65.3532,-0.00289061,-0.00123229,0.00607401,0,0,0,4.55,1.47,-1.05,-0.036112,0.037576,-1.00626,-0.1743,-0.25704,0.31486
2.74876,0,0,7.25124,7.25124,12.7488,12.7488,-1.52709,0.400949,65.4722,-0.00282343,-0.00119154,0.00607557,0,0,0,4.76,1.47,-0.77,-0.036112,0.037576,-1.00626,-0.17598,-0.25424,0.31528
2.75448,0,0,7.24552,7.24552,12.7545,12.7545,-1.53026,0.401431,65.59,0.000569765,0.00131775,0.00250853,0,0,0,4.48,1.26,-0.84,-0.032696,0.040138,-1.00979,-0.17598,-0.25424,0.31528
2.75973,0,0,7.24027,7.24027,12.7597,12.7597,-1.53319,0.402038,65.7056,0.000559169,0.00126679,0.00250709,0,0,0,4.55,1.33,-0.91,-0.032696,0.040138,-1.00979,-0.17598,-0.25424,0.31528
2.76697,0,0,7.23303,7.23303,12.767,12.767,-1.5372,0.406461,65.8187,0.00315466,0.00205157,0.00324236,0,0,0,4.62,1.19,-0.98,-0.030012,0.040992,-1.00906,-0.17598,-0.25424,0.31528
2.77372,0,0,7.22628,7.22628,12.7737,12.7737,-1.54095,0.410663,65.9298,0.00308132,0.00198615,0.00324008,0,0,0,4.69,1.12,-1.05,-0.030012,0.040992,-1.00906,-0.17598,-0.25424,0.31528
2.7967,0,0,7.2033,7.2033,12.7967,12.7967,-1.55372,0.40323,66.0454,-0.00347067,0.00493864,0.0020055,0,0,0,4.76,1.47,-0.98,-0.036722,0.044164,-1.01028,-0.17598,-0.25424,0.31528
2.81868,0,0,7.18132,7.18132,12.8187,12.8187,-1.56593,0.395746,66.159,-0.00334006,0.00472561,0.00200061,0,0,0,4.76,1.26,-0.98,-0.036722,0.044164,-1.01028,-0.17598,-0.25424,0.31528
2.81545,0,0,7.18455,7.18455,12.8154,12.8154,-1.56414,0.401993,66.2621,0.00347561,-0.000494491,0.00421378,0,0,0,4.34,1.33,-0.98,-0.029768,0.038918,-1.00809,-0.17598,-0.25424,0.31528
2.81173,0,0,7.18827,7.18827,12.8117,12.8117,-1.56207,0.408521,66.3632,0.00336167,-0.000458424,0.00421396,0,0,0,4.55,1.61,-1.05,-0.029768,0.038918,-1.00809,-0.17598,-0.25424,0.31528
2.81612,0,0,7.18388,7.18388,12.8161,12.8161,-1.56451,0.40285,66.4711,-0.00334255,0.000598158,0.000770938,0,0,0,4.48,1.33,-0.98,-0.0366,0.040016,-1.0115,-0.17654,-0.25984,0.31542
2.8201,0,0,7.1799,7.1799,12.8201,12.8201,-1.56672,0.400569,66.5765,-0.00111599,0.00055952,0.00470451,0,0,0,4.34,1.12,-0.77,-0.034404,0.040016,-1.0076,-0.17654,-0.25984,0.31542
2.82301,0,0,7.17699,7.17699,12.823,12.823,-1.56834,0.398481,66.6798,-0.00107956,0.000531352,0.004704,0,0,0,4.62,1.19,-0.91,-0.034404,0.040016,-1.0076,-0.17654,-0.25984,0.31542
2.79852,0,0,7.20148,7.20148,12.7985,12.7985,-1.55474,0.404965,66.7735,0.00269482,-0.0050934,0.000283527,0,0,0,4.55,1.19,-0.91,-0.0305,0.03416,-1.01199,-0.17654,-0.25984,0.31542
2.77578,0,0,7.22422,7.22422,12.7758,12.7758,-1.5421,0.41141,66.8656,0.00258233,-0.00487292,0.000288685,0,0,0,4.34,1.33,-0.84,-0.0305,0.03416,-1.01199,-0.17654,-0.25984,0.31542
2.7924,0,0,7.2076,7.2076,12.7924,12.7924,-1.55133,0.407687,66.9667,-0.0014832,0.0032706,0.00520274,0,0,0,4.27,1.26,-0.84,-0.034648,0.042456,-1.00711,-0.17654,-0.25984,0.31542
2.80829,0,0,7.19171,7.19171,12.8083,12.8083,-1.56016,0.404028,67.0665,-0.00141935,0.00311654,0.00519901,0,0,0,4.27,1.19,-0.56,-0.034648,0.042456,-1.00711,-0.17654,-0.25984,0.31542
2.79794,0,0,7.20206,7.20206,12.7979,12.7979,-1.55441,0.409399,67.1532,0.00249594,-0.00240091,0.0104879,0,0,0,4.27,1.33,-0.7,-0.030622,0.036844,-1.00186,-0.17612,-0.25508,0.3122
2.78974,0,0,7.21026,7.21026,12.7897,12.7897,-1.54986,0.408962,67.2392,-0.000776531,-0.00207723,0.00495738,0,0,0,4.41,1.26,-1.19,-0.033916,0.037088,-1.00735,-0.17612,-0.25508,0.3122
2.78121,0,0,7.21879,7.21879,12.7812,12.7812,-1.54511,0.408392,67.3239,-0.000766591,-0.00199448,0.00495969,0,0,0,4.62,1.19,-1.05,-0.033916,0.037088,-1.00735,-0.17612,-0.25508,0.3122
2.77167,0,0,7.22833,7.22833,12.7717,12.7717,-1.53982,0.406802,67.4072,-0.00146776,-0.00239058,0.00213456,0,0,0,4.41,1.19,-0.91,-0.034648,0.0366,-1.01016,-0.17612,-0.25508,0.3122
2.7614,0,0,7.2386,7.2386,12.7614,12.7614,-1.53411,0.405458,67.4889,-0.00144429,-0.00229098,0.0021374,0,0,0,4.76,1.33,-0.98,-0.034648,0.0366,-1.01016,-0.17612,-0.25508,0.3122
2.77586,0,0,7.22414,7.22414,12.7759,12.7759,-1.54215,0.400221,67.5752,-0.00281073,0.00282021,0.0042244,0,0,0,4.48,1.54,-0.98,-0.036112,0.041846,-1.00809,-0.17612,-0.25508,0.3122
2.78924,0,0,7.21076,7.21076,12.7892,12.7892,-1.54958,0.394711,67.6601,-0.00271456,0.00269054,0.00422157,0,0,0,4.62,1.26,-0.98,-0.036112,0.041846,-1.00809,-0.17612,-0.25508,0.3122
2.78925,0,0,7.21075,7.21075,12.7893,12.7893,-1.54958,0.404157,67.7379,0.0055031,0.000736451,0.000531959,0,0,0,4.55,1.54,-0.91,-0.027694,0.039894,-1.01175,-0.17612,-0.25508,0.3122
2.79012,0,0,7.20988,7.20988,12.7901,12.7901,-1.55007,0.412845,67.8268,0.00535147,0.00072802,0.00053065,0,0,0,4.34,1.26,-0.56,-0.027694,0.039894,-1.01175,-0.1722,-0.25928,0.31892
2.78479,0,0,7.21521,7.21521,12.7848,12.7848,-1.54711,0.410181,67.9144,-0.0017697,-0.00154075,0.00680275,0,0,0,4.48,1.05,-0.84,-0.034892,0.037576,-1.00552,-0.1722,-0.25928,0.31892
2.77944,0,0,7.22056,7.22056,12.7794,12.7794,-1.54413,0.408058,68.0008,-0.00173265,-0.00148881,0.00680442,0,0,0,4.55,1.33,-0.7,-0.034892,0.037576,-1.00552,-0.1722,-0.25928,0.31892
2.78018,0,0,7.21982,7.21982,12.7802,12.7802,-1.54455,0.407067,68.0868,-0.000621976,9.15859e-05,-0.000572563,0,0,0,4.41,1.26,-0.63,-0.033794,0.039162,-1.01284,-0.1722,-0.25928,0.31892
2.78089,0,0,7.21911,7.21911,12.7809,12.7809,-1.54494,0.406106,68.1713,-0.000605212,8.47153e-05,-0.000572629,0,0,0,4.41,1.26,-0.63,-0.033794,0.039162,-1.01284,-0.1722,-0.25928,0.31892
2.78062,0,0,7.21938,7.21938,12.7806,12.7806,-1.54479,0.405703,68.2538,-0.000233707,-0.000401118,0.00717325,0,0,0,4.27,1.12,-0.7,-0.033428,0.038674,-1.00516,-0.1722,-0.25928,0.31892
2.78035,0,0,7.21965,7.21965,12.7803,12.7803,-1.54464,0.405309,68.3349,-0.000226838,-0.000398522,0.00717337,0,0,0,4.27,1.12,-0.7,-0.033428,0.038674,-1.00516,-0.1722,-0.25928,0.31892
2.77246,0,0,7.22754,7.22754,12.7725,12.7725,-1.54026,0.406721,68.4122,0.000234458,-0.00190976,0.00594576,0,0,0,4.41,1.4,-0.98,-0.03294,0.037088,-1.00638,-0.1722,-0.25928,0.31892
2.76492,0,0,7.23508,7.23508,12.7649,12.7649,-1.53607,0.408065,68.4881,0.000210999,-0.00183661,0.00594756,0,0,0,4.41,1.4,-0.98,-0.03294,0.037088,-1.00638,-0.1722,-0.25928,0.31892
2.74117,0,0,7.25883,7.25883,12.7412,12.7412,-1.52287,0.413612,68.5479,0.00217945,-0.00502595,0.00423174,0,0,0,4.62,1.26,-0.91,-0.030866,0.033672,-1.00809,-0.17766,-0.2597,0.3185
2.73119,0,0,7.26881,7.26881,12.7312,12.7312,-1.51733,0.414364,68.6104,-0.000263386,-0.00236457,0.0052178,0,0,0,4.48,1.4,-0.84,-0.033306,0.036234,-1.00711,-0.17766,-0.2597,0.3185
2.72163,0,0,7.27837,7.27837,12.7216,12.7216,-1.51202,0.415059,68.6718,-0.000275525,-0.00227191,0.00522016,0,0,0,4.48,1.4,-0.84,-0.033306,0.036234,-1.00711,-0.17766,-0.2597,0.3185
2.72075,0,0,7.27925,7.27925,12.7208,12.7208,-1.51153,0.41539,68.7341,8.31573e-05,-0.000309379,0.00608098,0,0,0,4.48,1.26,-0.84,-0.03294,0.038186,-1.00626,-0.17766,-0.2597,0.3185
2.71992,0,0,7.28008,7.28008,12.7199,12.7199,-1.51106,0.415709,68.7954,7.75985e-05,-0.000301252,0.00608115,0,0,0,4.48,1.26,-0.84,-0.03294,0.038186,-1.00626,-0.17766,-0.2597,0.3185
2.73698,0,0,7.26302,7.26302,12.737,12.737,-1.52054,0.416621,68.8595,0.00115504,0.0036857,0.0074291,0,0,0,4.34,1.4,-0.84,-0.031842,0.042334,-1.00491,-0.17766,-0.2597,0.3185
2.75334,0,0,7.24666,7.24666,12.7533,12.7533,-1.52963,0.417567,68.9225,0.00113854,0.00352709,0.00742475,0,0,0,4.34,1.4,-0.84,-0.031842,0.042334,-1.00491,-0.17766,-0.2597,0.3185
2.76839,0,0,7.23161,7.23161,12.7684,12.7684,-1.53799,0.415742,68.9829,-0.000287441,0.00325912,0.00078186,0,0,0,4.34,1.12,-0.98,-0.033306,0.042212,-1.0115,-0.17836,-0.25928,0.32214
2.75753,0,0,7.24247,7.24247,12.7575,12.7575,-1.53196,0.415278,69.0368,-0.000522306,-0.00261983,0.00152243,0,0,0,4.34,0.91,-0.56,-0.03355,0.036234,-1.01077,-0.17836,-0.25928,0.32214
2.74711,0,0,7.25289,7.25289,12.7471,12.7471,-1.52617,0.414789,69.0898,-0.000513782,-0.00251887,0.00152519,0,0,0,4.34,0.91,-0.56,-0.03355,0.036234,-1.01077,-0.17836,-0.25928,0.32214
2.72136,0,0,7.27864,7.27864,12.7214,12.7214,-1.51187,0.415559,69.1376,-0.000527222,-0.005811,0.00399068,0,0,0,4.62,0.98,-0.98,-0.03355,0.032696,-1.00833,-0.17836,-0.25928,0.32214
2.69669,0,0,7.30331,7.30331,12.6967,12.6967,-1.49816,0.416222,69.1845,-0.000538779,-0.0055718,0.00399688,0,0,0,4.62,0.98,-0.98,-0.03355,0.032696,-1.00833,-0.17836,-0.25928,0.32214
2.70657,0,0,7.29343,7.29343,12.7066,12.7066,-1.50365,0.413365,69.2391,-0.00121783,0.00190427,0.00374883,0,0,0,4.34,1.12,-0.77,-0.034282,0.04026,-1.00857,-0.17836,-0.25928,0.32214
2.71602,0,0,7.28398,7.28398,12.716,12.716,-1.5089,0.410621,69.2929,-0.00116995,0.00181266,0.00374677,0,0,0,4.34,1.12,-0.77,-0.034282,0.04026,-1.00857,-0.17836,-0.25928,0.32214
2.70998,0,0,7.29002,7.29002,12.71,12.71,-1.50554,0.410589,69.3415,-0.000440471,-0.0014262,0.00608433,0,0,0,4.62,1.33,-1.05,-0.03355,0.036966,-1.00626,-0.17836,-0.25928,0.32214
2.69317,0,0,7.30683,7.30683,12.6932,12.6932,-1.49621,0.415082,69.3914,0.00178933,-0.00346158,0.00596509,0,0,0,4.76,1.4,-1.19,-0.031232,0.03477,-1.00638,-0.17668,-0.2618,0.32326
2.67777,0,0,7.32223,7.32223,12.6778,12.6778,-1.48765,0.420117,69.4406,0.00170146,-0.00331228,0.00596834,0,0,0,4.55,1.82,-1.05,-0.031232,0.03477,-1.00638,-0.17668,-0.2618,0.32326
2.67714,0,0,7.32286,7.32286,12.6771,12.6771,-1.4873,0.417173,69.4938,-0.0021347,-0.000375111,0.000436189,0,0,0,4.48,1.47,-0.84,-0.035136,0.037698,-1.01187,-0.17668,-0.2618,0.32326
2.6765,0,0,7.3235,7.3235,12.6765,12.6765,-1.48695,0.41431,69.5461,-0.00208473,-0.000368996,0.00043671,0,0,0,4.48,1.47,-0.84,-0.035136,0.037698,-1.01187,-0.17668,-0.2618,0.32326
2.67983,0,0,7.32017,7.32017,12.6798,12.6798,-1.48879,0.414535,69.5977,0.000341053,0.00082004,0.0041243,0,0,0,4.62,1.19,-0.98,-0.032696,0.038918,-1.00821,-0.17668,-0.2618,0.32326
2.68302,0,0,7.31698,7.31698,12.683,12.683,-1.49057,0.414765,69.6485,0.000337037,0.000789118,0.00412347,0,0,0,4.62,1.19,-0.98,-0.032696,0.038918,-1.00821,-0.17668,-0.2618,0.32326
2.6927,0,0,7.3073,7.3073,12.6927,12.6927,-1.49595,0.418986,69.6995,0.00330051,0.00240506,0.00744009,0,0,0,4.48,0.98,-0.7,-0.029646,0.040626,-1.00491,-0.17668,-0.2618,0.32326
2.70202,0,0,7.29798,7.29798,12.702,12.702,-1.50112,0.423121,69.7496,0.00322835,0.00231474,0.0074372,0,0,0,4.48,0.98,-0.7,-0.029646,0.040626,-1.00491,-0.17668,-0.2618,0.32326
2.69447,0,0,7.30553,7.30553,12.6945,12.6945,-1.49693,0.432805,69.7869,0.00548906,-0.00115366,0.00645427,0,0,0,4.48,1.33,-0.7,-0.027206,0.037088,-1.00589,-0.17822,-0.25718,0.31794
2.7012,0,0,7.2988,7.2988,12.7012,12.7012,-1.50067,0.436596,69.8273,0.00238575,0.00171208,0.00497667,0,0,0,4.48,1.47,-0.98,-0.030256,0.040016,-1.00735,-0.17822,-0.25718,0.31794
2.7077,0,0,7.2923,7.2923,12.7077,12.7077,-1.50428,0.440302,69.8669,0.00232106,0.00164915,0.00497453,0,0,0,4.48,1.47,-0.98,-0.030256,0.040016,-1.00735,-0.17822,-0.25718,0.31794
2.70203,0,0,7.29797,7.29797,12.702,12.702,-1.50113,0.442666,69.903,0.00130792,-0.00122693,-0.000925876,0,0,0,4.27,1.12,-1.05,-0.031232,0.037088,-1.01321,-0.17822,-0.25718,0.31794
2.69661,0,0,7.30339,7.30339,12.6966,12.6966,-1.49812,0.444945,69.9384,0.00126814,-0.00117444,-0.00092481,0,0,0,4.27,1.12,-1.05,-0.031232,0.037088,-1.01321,-0.17822,-0.25718,0.31794
2.68852,0,0,7.31148,7.31148,12.6885,12.6885,-1.49362,0.452491,69.9722,0.00429508,-0.00158449,0.00214992,0,0,0,4.13,1.19,-0.7,-0.02806,0.0366,-1.01016,-0.17822,-0.25718,0.31794
2.69226,0,0,7.30774,7.30774,12.6923,12.6923,-1.4957,0.453364,70.0092,0.000513784,0.000577527,0.00792743,0,0,0,4.27,1.33,-0.77,-0.031842,0.038796,-1.00443,-0.17822,-0.25718,0.31794
2.69564,0,0,7.30436,7.30436,12.6956,12.6956,-1.49758,0.453856,70.0451,0.000505186,0.000544811,0.00792651,0,0,0,4.34,1.12,-0.98,-0.031842,0.038796,-1.00443,-0.17822,-0.25718,0.31794
2.70654,0,0,7.29346,7.29346,12.7065,12.7065,-1.50363,0.449792,70.0844,-0.00197507,0.00190465,0.00485059,0,0,0,4.2,1.12,-0.91,-0.034404,0.04026,-1.00748,-0.17934,-0.26138,0.31878
2.70891,0,0,7.29109,7.29109,12.7089,12.7089,-1.50495,0.450847,70.1208,0.000922162,0.000538276,0.00546458,0,0,0,4.48,1.05,-0.77,-0.031476,0.038918,-1.00687,-0.17934,-0.26138,0.31878
2.71143,0,0,7.28857,7.28857,12.7114,12.7114,-1.50635,0.451871,70.1562,0.00090429,0.000513929,0.0054638,0,0,0,4.41,1.05,-0.98,-0.031476,0.038918,-1.00687,-0.17934,-0.26138,0.31878
2.71419,0,0,7.28581,7.28581,12.7142,12.7142,-1.50789,0.453316,70.1913,0.00124354,0.000853486,0.00029906,0,0,0,4.55,1.05,-0.84,-0.03111,0.039284,-1.01199,-0.17934,-0.26138,0.31878
2.71731,0,0,7.28269,7.28269,12.7173,12.7173,-1.50962,0.454971,70.2259,0.00121466,0.000823309,0.000298036,0,0,0,4.41,1.19,-0.77,-0.03111,0.039284,-1.01199,-0.17934,-0.26138,0.31878
2.71131,0,0,7.28869,7.28869,12.7113,12.7113,-1.50628,0.457978,70.2574,0.00152662,-0.00143894,0.012594,0,0,0,4.48,1.19,-0.91,-0.030744,0.036966,-0.99979,-0.17934,-0.26138,0.31878
2.7067,0,0,7.2933,7.2933,12.7067,12.7067,-1.50372,0.460528,70.2885,0.00148211,-0.0013943,0.0125948,0,0,0,4.13,0.98,-0.84,-0.030744,0.036966,-0.99979,-0.17934,-0.26138,0.31878
2.69949,0,0,7.30051,7.30051,12.6995,12.6995,-1.49972,0.463407,70.3187,0.00131038,-0.00181289,0.00927663,0,0,0,4.27,1.26,-0.77,-0.030866,0.036478,-1.00308,-0.17934,-0.26138,0.31878
2.69258,0,0,7.30742,7.30742,12.6926,12.6926,-1.49588,0.466316,70.3458,0.00125961,-0.00174585,0.00927797,0,0,0,4.27,1.33,-0.56,-0.030866,0.036478,-1.00308,-0.17892,-0.25774,0.31038
2.6823,0,0,7.3177,7.3177,12.6823,12.6823,-1.49017,0.466074,70.3718,-0.000801406,-0.00262324,-0.00117002,0,0,0,4.13,1.33,-0.63,-0.03294,0.035502,-1.01345,-0.17892,-0.25774,0.31038
2.6711,0,0,7.3289,7.3289,12.6711,12.6711,-1.48394,0.465673,70.3969,-0.000794422,-0.00251471,-0.00116714,0,0,0,4.55,1.26,-0.91,-0.03294,0.035502,-1.01345,-0.17892,-0.25774,0.31038
2.67882,0,0,7.32118,7.32118,12.6788,12.6788,-1.48823,0.456688,70.4272,-0.00525406,0.000952135,0.00633204,0,0,0,4.48,1.19,-0.91,-0.037576,0.03904,-1.00601,-0.17892,-0.25774,0.31038
2.68635,0,0,7.31365,7.31365,12.6864,12.6864,-1.49242,0.447867,70.4573,-0.00510011,0.000879039,0.00633135,0,0,0,4.41,1.12,-0.7,-0.037576,0.03904,-1.00601,-0.17892,-0.25774,0.31038
2.68859,0,0,7.31141,7.31141,12.6886,12.6886,-1.49366,0.450781,70.4833,0.00201669,0.000368887,0.00805167,0,0,0,4.2,1.05,-0.98,-0.030378,0.038552,-1.0043,-0.17892,-0.25774,0.31038
2.69053,0,0,7.30947,7.30947,12.6905,12.6905,-1.49474,0.453739,70.5088,0.00196506,0.000350061,0.00805077,0,0,0,4.27,1.12,-0.98,-0.030378,0.038552,-1.0043,-0.17892,-0.25774,0.31038
2.68971,0,0,7.31029,7.31029,12.6897,12.6897,-1.49428,0.451757,70.5338,-0.00128045,-0.000496879,0.00522343,0,0,0,4.41,1.19,-1.12,-0.033672,0.037698,-1.00711,-0.17892,-0.25774,0.31038
2.68891,0,0,7.31109,7.31109,12.6889,12.6889,-1.49384,0.450057,70.5605,-0.00125079,-0.000489085,0.00522387,0,0,0,4.41,1.33,-1.33,-0.033672,0.037698,-1.00711,-0.1792,-0.26082,0.31472
2.68695,0,0,7.31305,7.31305,12.6869,12.6869,-1.49275,0.448094,70.5869,-0.00133801,-0.000836481,0.0041181,0,0,0,4.27,1.19,-1.05,-0.033794,0.037332,-1.00821,-0.1792,-0.26082,0.31472
2.68416,0,0,7.31584,7.31584,12.6842,12.6842,-1.4912,0.446053,70.6125,-0.0013024,-0.000809432,0.00411908,0,0,0,4.55,1.12,-1.19,-0.033794,0.037332,-1.00821,-0.1792,-0.26082,0.31472
2.69442,0,0,7.30558,7.30558,12.6944,12.6944,-1.4969,0.446241,70.6406,0.000638099,0.00214422,0.0103868,0,0,0,4.48,1.12,-1.05,-0.031842,0.040382,-1.00199,-0.1792,-0.26082,0.31472
2.70404,0,0,7.29596,7.29596,12.704,12.704,-1.50225,0.446577,70.6683,0.000632229,0.00205099,0.0103843,0,0,0,4.55,1.19,-0.98,-0.031842,0.040382,-1.00199,-0.1792,-0.26082,0.31472
2.68308,0,0,7.31692,7.31692,12.6831,12.6831,-1.4906,0.444377,70.6886,-0.00248799,-0.00507344,0.00289009,0,0,0,4.48,1.33,-1.12,-0.035014,0.033062,-1.00943,-0.1792,-0.26082,0.31472
2.66229,0,0,7.33771,7.33771,12.6623,12.6623,-1.47905,0.441809,70.7084,-0.00244318,-0.00487196,0.00289566,0,0,0,4.69,1.12,-1.26,-0.035014,0.033062,-1.00943,-0.1792,-0.26082,0.31472
2.68688,0,0,7.31312,7.31312,12.6869,12.6869,-1.49271,0.446691,70.7372,0.00415333,0.00624752,0.000552798,0,0,0,4.69,1.33,-1.19,-0.028304,0.044408,-1.01175,-0.1792,-0.26082,0.31472
2.71112,0,0,7.28888,7.28888,12.7111,12.7111,-1.50618,0.451176,70.7643,0.00407506,0.0060126,0.000546036,0,0,0,4.48,1.12,-0.91,-0.028304,0.044408,-1.01175,-0.1785,-0.25718,0.31416
2.70557,0,0,7.29443,7.29443,12.7056,12.7056,-1.5031,0.442456,70.7858,-0.00549161,-0.00199406,0.00153222,0,0,0,4.41,0.98,-1.12,-0.038064,0.036356,-1.01077,-0.1785,-0.25718,0.31416
2.70063,0,0,7.29937,7.29937,12.7006,12.7006,-1.50035,0.434323,70.8071,-0.00534967,-0.00194616,0.00153456,0,0,0,4.27,1.19,-1.05,-0.038064,0.036356,-1.01077,-0.1785,-0.25718,0.31416
2.7158,0,0,7.2842,7.2842,12.7158,12.7158,-1.50878,0.438152,70.8308,0.0030875,0.00352467,0.00398916,0,0,0,4.2,1.19,-1.05,-0.029524,0.041968,-1.00833,-0.1785,-0.25718,0.31416
2.73038,0,0,7.26962,7.26962,12.7304,12.7304,-1.51688,0.441921,70.8541,0.00302172,0.00338338,0.00398493,0,0,0,4.2,1.19,-1.05,-0.029524,0.041968,-1.00833,-0.1785,-0.25718,0.31416
2.72215,0,0,7.27785,7.27785,12.7221,12.7221,-1.5123,0.446258,70.8723,0.00209563,-0.00154405,0.000912736,0,0,0,4.55,1.47,-0.91,-0.030378,0.036966,-1.01138,-0.1785,-0.25718,0.31416
2.7143,0,0,7.2857,7.2857,12.7143,12.7143,-1.50794,0.45045,70.8901,0.00202246,-0.00146793,0.00091417,0,0,0,4.55,1.47,-0.91,-0.030378,0.036966,-1.01138,-0.1785,-0.25718,0.31416
2.73201,0,0,7.26799,7.26799,12.732,12.732,-1.51778,0.445898,70.9145,-0.00239306,0.00373391,0.00791832,0,0,0,4.76,1.54,-1.26,-0.034892,0.042334,-1.00443,-0.1785,-0.25718,0.31416
2.74898,0,0,7.25102,7.25102,12.749,12.749,-1.52721,0.441523,70.9471,-0.0023167,0.00356947,0.00791454,0,0,0,4.76,1.54,-1.26,-0.034892,0.042334,-1.00443,-0.17542,-0.2604,0.3129
2.7508,0,0,7.2492,7.2492,12.7508,12.7508,-1.52822,0.443625,70.9752,0.00141267,0.000498618,0.0064384,0,0,0,4.55,1.19,-0.91,-0.03111,0.039284,-1.00589,-0.17542,-0.2604,0.3129
2.75257,0,0,7.24743,7.24743,12.7526,12.7526,-1.52921,0.445675,71.0028,0.00137689,0.000481484,0.00643767,0,0,0,4.55,1.19,-0.91,-0.03111,0.039284,-1.00589,-0.17542,-0.2604,0.3129
2.76495,0,0,7.23505,7.23505,12.7649,12.7649,-1.53608,0.438926,71.0332,-0.00385069,0.0021934,-0.00303167,0,0,0,4.13,1.33,-1.05,-0.036478,0.041114,-1.01528,-0.17542,-0.2604,0.3129
2.77676,0,0,7.22324,7.22324,12.7768,12.7768,-1.54264,0.432401,71.0632,-0.00373681,0.0020789,-0.00303388,0,0,0,4.13,1.33,-1.05,-0.036478,0.041114,-1.01528,-0.17542,-0.2604,0.3129
2.77357,0,0,7.22643,7.22643,12.7736,12.7736,-1.54087,0.437957,71.0874,0.0030909,-0.000699141,0.00458902,0,0,0,4.13,1.4,-1.05,-0.029524,0.038308,-1.00772,-0.17542,-0.2604,0.3129
2.77057,0,0,7.22943,7.22943,12.7706,12.7706,-1.53921,0.443351,71.1112,0.00299676,-0.00067,0.00458908,0,0,0,4.13,1.4,-1.05,-0.029524,0.038308,-1.00772,-0.17542,-0.2604,0.3129
2.75536,0,0,7.24464,7.24464,12.7554,12.7554,-1.53076,0.446477,71.132,0.00136289,-0.00345365,0.00188774,0,0,0,4.27,1.12,-1.12,-0.03111,0.03538,-1.0104,-0.17542,-0.2604,0.3129
2.75264,0,0,7.24736,7.24736,12.7526,12.7526,-1.52924,0.451747,71.1548,0.00297172,-0.000496149,0.00213363,0,0,0,4.2,1.4,-1.12,-0.029402,0.038308,-1.01016,-0.17542,-0.2604,0.3129
2.74962,0,0,7.25038,7.25038,12.7496,12.7496,-1.52757,0.456513,71.1754,0.00288854,-0.000466881,0.00213375,0,0,0,4.34,1.19,-0.91,-0.029402,0.038308,-1.01016,-0.17668,-0.25998,0.31962
2.75646,0,0,7.24354,7.24354,12.7565,12.7565,-1.53137,0.441832,71.201,-0.00876084,0.000687976,0.00213398,0,0,0,4.76,1.05,-0.98,-0.041358,0.039528,-1.01016,-0.17668,-0.25998,0.31962
2.76358,0,0,7.23642,7.23642,12.7636,12.7636,-1.53532,0.427689,71.2259,-0.00851401,0.000618952,0.00213401,0,0,0,4.55,1.12,-1.12,-0.041358,0.039528,-1.01016,-0.17668,-0.25998,0.31962
2.78053,0,0,7.21947,7.21947,12.7805,12.7805,-1.54474,0.427166,71.251,0.000242089,0.00387422,0.0032362,0,0,0,4.55,1.4,-1.05,-0.032574,0.042944,-1.00906,-0.17668,-0.25998,0.31962
2.7979,0,0,7.2021,7.2021,12.7979,12.7979,-1.55439,0.426111,71.2757,0.000260514,0.00370583,0.00323178,0,0,0,4.2,1.05,-1.05,-0.032574,0.042944,-1.00906,-0.17668,-0.25998,0.31962
2.79441,0,0,7.20559,7.20559,12.7944,12.7944,-1.55245,0.426147,71.2951,0.000138396,-0.00114542,0.00310974,0,0,0,4.06,0.91,-0.98,-0.032696,0.038064,-1.00918,-0.17668,-0.25998,0.31962
2.79017,0,0,7.20983,7.20983,12.7902,12.7902,-1.55009,0.426417,71.3143,0.000133681,-0.00110424,0.00311082,0,0,0,4.34,1.05,-0.84,-0.032696,0.038064,-1.00918,-0.17668,-0.25998,0.31962
2.80281,0,0,7.19719,7.19719,12.8028,12.8028,-1.55711,0.426601,71.3371,0.000737894,0.00268129,0.0054435,0,0,0,4.27,1.12,-0.84,-0.032086,0.041968,-1.00687,-0.17668,-0.25998,0.31962
2.81539,0,0,7.18461,7.18461,12.8154,12.8154,-1.56411,0.427176,71.3569,0.000727861,0.00255931,0.0054401,0,0,0,4.13,1.33,-0.77,-0.032086,0.041968,-1.00687,-0.17738,-0.25886,0.31416
2.81533,0,0,7.18467,7.18467,12.8153,12.8153,-1.56407,0.427556,71.3735,0.000113806,-0.000371122,0.00322699,0,0,0,4.06,1.26,-0.7,-0.032696,0.03904,-1.00906,-0.17738,-0.25886,0.31416
2.81482,0,0,7.18518,7.18518,12.8148,12.8148,-1.56379,0.428286,71.39,0.000101056,-0.000366201,0.00322703,0,0,0,4.2,1.47,-0.63,-0.032696,0.03904,-1.00906,-0.17738,-0.25886,0.31416
2.82524,0,0,7.17476,7.17476,12.8252,12.8252,-1.56958,0.42705,71.4085,-0.000606282,0.00185327,0.00912596,0,0,0,4.2,1.4,-0.91,-0.033428,0.041358,-1.00321,-0.17738,-0.25886,0.31416
2.83499,0,0,7.16501,7.16501,12.835,12.835,-1.57499,0.425516,71.4267,-0.000579515,0.00175873,0.00912356,0,0,0,4.27,1.19,-0.98,-0.033428,0.041358,-1.00321,-0.17738,-0.25886,0.31416
2.82749,0,0,7.17251,7.17251,12.8275,12.8275,-1.57083,0.430512,71.4395,0.00285638,-0.001466,0.00125621,0,0,0,4.34,1.19,-1.05,-0.02989,0.038064,-1.01101,-0.17738,-0.25886,0.31416
2.82012,0,0,7.17988,7.17988,12.8201,12.8201,-1.56673,0.435472,71.4522,0.00276981,-0.00139451,0.00125751,0,0,0,4.41,1.26,-0.98,-0.02989,0.038064,-1.01101,-0.17738,-0.25886,0.31416
2.80438,0,0,7.19562,7.19562,12.8044,12.8044,-1.55799,0.439066,71.4626,0.00161371,-0.00344027,-0.000951883,0,0,0,4.34,1.19,-1.05,-0.030988,0.035868,-1.01321,-0.17738,-0.25886,0.31416
2.7896,0,0,7.2104,7.2104,12.7896,12.7896,-1.54978,0.442869,71.4828,0.00154735,-0.00329695,-0.000948506,0,0,0,4.27,1.4,-0.98,-0.030988,0.035868,-1.01321,-0.17206,-0.2576,0.31654
2.78273,0,0,7.21727,7.21727,12.7827,12.7827,-1.54596,0.442711,71.5046,-0.000272172,-0.00188697,0.00212703,0,0,0,4.13,1.05,-1.05,-0.032818,0.03721,-1.01016,-0.17206,-0.2576,0.31654
2.77658,0,0,7.22342,7.22342,12.7766,12.7766,-1.54255,0.442902,71.5263,-0.000275508,-0.00182742,0.00212861,0,0,0,3.99,1.26,-0.91,-0.032818,0.03721,-1.01016,-0.17206,-0.2576,0.31654
2.76522,0,0,7.23478,7.23478,12.7652,12.7652,-1.53623,0.446648,71.5456,0.0013599,-0.00281638,0.00409824,0,0,0,4.06,1.61,-1.05,-0.03111,0.036112,-1.00821,-0.17206,-0.2576,0.31654
2.75435,0,0,7.24565,7.24565,12.7543,12.7543,-1.53019,0.45026,71.5647,0.00129686,-0.002711,0.00410056,0,0,0,4.06,1.61,-1.05,-0.03111,0.036112,-1.00821,-0.17206,-0.2576,0.31654
2.74838,0,0,7.25162,7.25162,12.7484,12.7484,-1.52688,0.444857,71.5862,-0.00407569,-0.0019204,0.00889783,0,0,0,4.62,1.54,-1.05,-0.0366,0.036844,-1.00345,-0.17206,-0.2576,0.31654
2.7426,0,0,7.2574,7.2574,12.7426,12.7426,-1.52367,0.439584,71.6073,-0.00398367,-0.00186448,0.00890003,0,0,0,4.62,1.54,-1.05,-0.0366,0.036844,-1.00345,-0.17206,-0.2576,0.31654
2.72653,0,0,7.27347,7.27347,12.7265,12.7265,-1.51474,0.4358,71.6256,-0.00343167,-0.00415122,0.00988826,0,0,0,4.62,1.47,-0.91,-0.036112,0.034404,-1.00247,-0.17206,-0.2576,0.31654
2.71109,0,0,7.28891,7.28891,12.7111,12.7111,-1.50616,0.43207,71.6386,-0.00336658,-0.00400161,0.0098927,0,0,0,4.62,1.47,-0.91,-0.036112,0.034404,-1.00247,-0.17486,-0.25858,0.31374
2.70755,0,0,7.29245,7.29245,12.7076,12.7076,-1.5042,0.428934,71.6531,-0.00246146,-0.00128053,-0.00240084,0,0,0,4.13,1.47,-1.19,-0.035258,0.037088,-1.01467,-0.17486,-0.25858,0.31374
2.70413,0,0,7.29587,7.29587,12.7041,12.7041,-1.5023,0.425874,71.6673,-0.00240804,-0.00124737,-0.00239957,0,0,0,4.13,1.47,-1.19,-0.035258,0.037088,-1.01467,-0.17486,-0.25858,0.31374
2.70504,0,0,7.29496,7.29496,12.705,12.705,-1.5028,0.428531,71.6813,0.00155462,0.000331472,-0.00264605,0,0,0,4.27,1.4,-1.33,-0.031232,0.038674,-1.01492,-0.17486,-0.25858,0.31374
2.70594,0,0,7.29406,7.29406,12.7059,12.7059,-1.5033,0.431117,71.695,0.00150948,0.00032281,-0.00264661,0,0,0,4.27,1.4,-1.33,-0.031232,0.038674,-1.01492,-0.17486,-0.25858,0.31374
2.69545,0,0,7.30455,7.30455,12.6955,12.6955,-1.49747,0.428625,71.7074,-0.00245605,-0.00287299,0.00719226,0,0,0,4.41,1.54,-0.98,-0.035258,0.03538,-1.00516,-0.17486,-0.25858,0.31374
2.68537,0,0,7.31463,7.31463,12.6854,12.6854,-1.49187,0.426171,71.7195,-0.00241323,-0.00277531,0.00719512,0,0,0,4.41,1.54,-0.98,-0.035258,0.03538,-1.00516,-0.17486,-0.25858,0.31374
2.68621,0,0,7.31379,7.31379,12.6862,12.6862,-1.49234,0.427059,71.7333,0.000243966,-9.66879e-05,0.00965377,0,0,0,4.34,1.47,-0.98,-0.032574,0.038064,-1.00272,-0.17486,-0.25858,0.31374
2.68703,0,0,7.31297,7.31297,12.687,12.687,-1.4928,0.427924,71.7497,0.000228863,-0.00010461,0.00965345,0,0,0,4.34,1.47,-0.98,-0.032574,0.038064,-1.00272,-0.17444,-0.26068,0.3164
2.6904,0,0,7.3096,7.3096,12.6904,12.6904,-1.49467,0.428955,71.7664,0.00118275,0.000717591,0.00657875,0,0,0,4.41,0.84,-0.91,-0.031598,0.038918,-1.00577,-0.17444,-0.26068,0.3164
2.69365,0,0,7.30635,7.30635,12.6936,12.6936,-1.49647,0.429968,71.7828,0.00116508,0.000686153,0.0065778,0,0,0,4.41,0.84,-0.91,-0.031598,0.038918,-1.00577,-0.17444,-0.26068,0.3164
2.68945,0,0,7.31055,7.31055,12.6895,12.6895,-1.49414,0.435799,71.7963,0.00385748,-0.000616526,0.00387322,0,0,0,4.41,0.91,-1.05,-0.028792,0.037576,-1.00845,-0.17444,-0.26068,0.3164
2.68547,0,0,7.31453,7.31453,12.6855,12.6855,-1.49193,0.44146,71.8095,0.00375868,-0.000577949,0.00387347,0,0,0,4.41,0.91,-1.05,-0.028792,0.037576,-1.00845,-0.17444,-0.26068,0.3164
2.68127,0,0,7.31873,7.31873,12.6813,12.6813,-1.4896,0.446446,71.8227,0.00294274,-0.00065935,0.00338206,0,0,0,4.48,1.26,-1.05,-0.029524,0.037454,-1.00894,-0.17444,-0.26068,0.3164
2.67729,0,0,7.32271,7.32271,12.6773,12.6773,-1.48738,0.451285,71.8356,0.00285829,-0.000620692,0.0033824,0,0,0,4.48,1.26,-1.05,-0.029524,0.037454,-1.00894,-0.17444,-0.26068,0.3164
2.67534,0,0,7.32466,7.32466,12.6753,12.6753,-1.4863,0.457749,71.849,0.00408182,8.78984e-06,0.000554183,0,0,0,4.41,1.19,-0.7,-0.028182,0.038064,-1.01175,-0.17444,-0.26068,0.3164
2.67354,0,0,7.32646,7.32646,12.6735,12.6735,-1.4853,0.464032,71.8621,0.00397216,2.63412e-05,0.000553756,0,0,0,4.41,1.19,-0.7,-0.028182,0.038064,-1.01175,-0.17444,-0.26068,0.3164
2.67772,0,0,7.32228,7.32228,12.6777,12.6777,-1.48762,0.4607,71.8837,-0.00192249,0.000718492,0.00387278,0,0,0,4.55,1.19,-0.84,-0.03416,0.038796,-1.00845,-0.1715,-0.26082,0.31668
2.69996,0,0,7.30004,7.30004,12.7,12.7,-1.49998,0.453128,71.9096,-0.0037341,0.0047774,-0.00313985,0,0,0,4.48,1.12,-0.91,-0.036112,0.043066,-1.01541,-0.1715,-0.26082,0.31668
2.72054,0,0,7.27946,7.27946,12.7205,12.7205,-1.51141,0.445712,71.9354,-0.00360467,0.00457783,-0.00314408,0,0,0,4.69,1.05,-0.77,-0.036112,0.043066,-1.01541,-0.1715,-0.26082,0.31668
2.73123,0,0,7.26877,7.26877,12.7312,12.7312,-1.51735,0.447789,71.9573,0.00182593,0.0026424,0.00361507,0,0,0,4.55,1.19,-0.7,-0.030622,0.041236,-1.0087,-0.1715,-0.26082,0.31668
2.74194,0,0,7.25806,7.25806,12.7419,12.7419,-1.5233,0.450434,71.9787,0.00177977,0.00253854,0.00361195,0,0,0,4.41,1.54,-0.77,-0.030622,0.041236,-1.0087,-0.1715,-0.26082,0.31668
2.74613,0,0,7.25387,7.25387,12.7461,12.7461,-1.52563,0.450434,71.9986,7.89826e-05,0.00103244,-0.00118412,0,0,0,4.48,1.33,-0.77,-0.03233,0.039772,-1.01345,-0.1715,-0.26082,0.31668
2.75015,0,0,7.24985,7.24985,12.7501,12.7501,-1.52786,0.450564,72.0182,7.67061e-05,0.00099351,-0.00118518,0,0,0,4.48,1.4,-0.77,-0.03233,0.039772,-1.01345,-0.1715,-0.26082,0.31668
2.74671,0,0,7.25329,7.25329,12.7467,12.7467,-1.52595,0.44675,72.0359,-0.00252941,-0.00129362,0.00336533,0,0,0,4.27,1.12,-0.91,-0.035014,0.037454,-1.00894,-0.1715,-0.26082,0.31668
2.74408,0,0,7.25592,7.25592,12.7441,12.7441,-1.52449,0.442429,72.0499,-0.00245401,-0.00126809,0.00336659,0,0,0,4.06,0.77,-0.91,-0.035014,0.037454,-1.00894,-0.17318,-0.26054,0.31808
2.75428,0,0,7.24572,7.24572,12.7543,12.7543,-1.53016,0.435154,72.0674,-0.00390634,0.00168613,0.00225839,0,0,0,4.27,0.91,-0.91,-0.0366,0.040504,-1.01004,-0.17318,-0.26054,0.31808
2.76378,0,0,7.23622,7.23622,12.7638,12.7638,-1.53543,0.428471,72.0849,-0.00378971,0.00159402,0.0022568,0,0,0,4.34,1.12,-0.7,-0.0366,0.040504,-1.01004,-0.17318,-0.26054,0.31808
2.76317,0,0,7.23683,7.23683,12.7632,12.7632,-1.53509,0.430622,72.098,0.00151812,-0.000109766,0.00274848,0,0,0,4.34,1.05,-0.98,-0.031232,0.038796,-1.00955,-0.17318,-0.26054,0.31808
2.76169,0,0,7.23831,7.23831,12.7617,12.7617,-1.53427,0.432477,72.1111,0.00148575,-9.54639e-05,0.00274862,0,0,0,4.62,0.91,-0.91,-0.031232,0.038796,-1.00955,-0.17318,-0.26054,0.31808
2.75442,0,0,7.24558,7.24558,12.7544,12.7544,-1.53023,0.43401,72.1228,0.00097305,-0.00161261,0.00816003,0,0,0,4.62,0.91,-0.77,-0.03172,0.03721,-1.00418,-0.17318,-0.26054,0.31808
2.74723,0,0,7.25277,7.25277,12.7472,12.7472,-1.52624,0.435827,72.1338,0.000941341,-0.00154298,0.00816165,0,0,0,4.69,1.12,-1.05,-0.03172,0.03721,-1.00418,-0.17318,-0.26054,0.31808
2.74064,0,0,7.25936,7.25936,12.7406,12.7406,-1.52258,0.439997,72.1446,0.00232638,-0.0012348,0.00558088,0,0,0,4.62,1.26,-0.91,-0.030256,0.037454,-1.00674,-0.17318,-0.26054,0.31808
2.73479,0,0,7.26521,7.26521,12.7348,12.7348,-1.51933,0.444519,72.1562,0.00224747,-0.00117808,0.00558177,0,0,0,4.48,1.54,-0.84,-0.030256,0.037454,-1.00674,-0.17388,-0.26348,0.31808
2.73465,0,0,7.26535,7.26535,12.7346,12.7346,-1.51925,0.452648,72.1683,0.00477829,0.000288867,0.00656429,0,0,0,4.34,1.54,-0.84,-0.027572,0.038918,-1.00577,-0.17388,-0.26348,0.31808
2.73435,0,0,7.26565,7.26565,12.7344,12.7344,-1.51908,0.460314,72.18,0.00464449,0.000291736,0.0065633,0,0,0,4.41,1.4,-0.91,-0.027572,0.038918,-1.00577,-0.17388,-0.26348,0.31808
2.73879,0,0,7.26121,7.26121,12.7388,12.7388,-1.52155,0.458758,72.194,-0.00103819,0.00110359,-0.00253582,0,0,0,4.62,1.47,-0.98,-0.033306,0.039772,-1.0148,-0.17388,-0.26348,0.31808
2.74326,0,0,7.25674,7.25674,12.7433,12.7433,-1.52404,0.456776,72.2076,-0.0010036,0.00106023,-0.00253669,0,0,0,4.55,1.19,-1.05,-0.033306,0.039772,-1.0148,-0.17388,-0.26348,0.31808
2.7408,0,0,7.2592,7.2592,12.7408,12.7408,-1.52267,0.45194,72.2199,-0.00322742,-0.000747837,-0.00228949,0,0,0,4.62,1.26,-1.05,-0.035624,0.037942,-1.01455,-0.17388,-0.26348,0.31808
2.73863,0,0,7.26137,7.26137,12.7386,12.7386,-1.52146,0.447347,72.232,-0.00314727,-0.000726761,-0.0022883,0,0,0,4.55,1.33,-1.05,-0.035624,0.037942,-1.01455,-0.17388,-0.26348,0.31808
2.73765,0,0,7.26235,7.26235,12.7376,12.7376,-1.52092,0.44992,72.2433,0.00166727,1.54835e-05,-0.000444175,0,0,0,4.48,1.19,-0.91,-0.030744,0.038674,-1.01272,-0.17388,-0.26348,0.31808
2.73715,0,0,7.26285,7.26285,12.7372,12.7372,-1.52064,0.452303,72.243,0.00162567,2.03329e-05,-0.000444374,0,0,0,4.34,1.12,-0.98,-0.030744,0.038674,-1.01272,-0.18004,-0.26446,0.31738
2.7287,0,0,7.2713,7.2713,12.7287,12.7287,-1.51595,0.45682,72.2407,0.00276169,-0.00172966,0.00459806,0,0,0,4.41,0.98,-0.84,-0.029524,0.036844,-1.00772,-0.18004,-0.26446,0.31738
2.72086,0,0,7.27914,7.27914,12.7209,12.7209,-1.51159,0.461545,72.2382,0.00267923,-0.00165367,0.00459941,0,0,0,4.34,1.19,-0.98,-0.029524,0.036844,-1.00772,-0.18004,-0.26446,0.31738
2.72524,0,0,7.27476,7.27476,12.7252,12.7252,-1.51402,0.466619,72.2381,0.00368405,0.00123496,0.00349103,0,0,0,4.27,0.98,-1.12,-0.028426,0.039772,-1.00882,-0.18004,-0.26446,0.31738
2.72949,0,0,7.27051,7.27051,12.7295,12.7295,-1.51638,0.471568,72.2381,0.00359768,0.00119383,0.00348924,0,0,0,4.27,0.98,-1.12,-0.028426,0.039772,-1.00882,-0.18004,-0.26446,0.31738
2.74041,0,0,7.25959,7.25959,12.7404,12.7404,-1.52245,0.46703,72.2412,-0.00227592,0.00169854,0.00865091,0,0,0,4.06,0.98,-0.84,-0.034404,0.040382,-1.00369,-0.18004,-0.26446,0.31738
2.75086,0,0,7.24914,7.24914,12.7509,12.7509,-1.52825,0.462644,72.2443,-0.00219937,0.0015973,0.00864884,0,0,0,4.06,0.98,-0.84,-0.034404,0.040382,-1.00369,-0.18004,-0.26446,0.31738
2.74997,0,0,7.25003,7.25003,12.75,12.75,-1.52776,0.462315,72.2439,-0.000128375,-0.000592418,0.00323938,0,0,0,4.06,1.05,-1.05,-0.03233,0.038186,-1.00906,-0.18004,-0.26446,0.31738
2.74913,0,0,7.25087,7.25087,12.7491,12.7491,-1.52729,0.461991,72.2499,-0.000122731,-0.00058422,0.00323964,0,0,0,4.06,1.05,-1.05,-0.03233,0.038186,-1.00906,-0.17668,-0.26334,0.32326
2.76261,0,0,7.23739,7.23739,12.7626,12.7626,-1.53478,0.456987,72.2597,-0.00319403,0.00246037,0.00471223,0,0,0,4.27,1.68,-1.26,-0.035502,0.041358,-1.0076,-0.17668,-0.26334,0.32326
2.7755,0,0,7.2245,7.2245,12.7755,12.7755,-1.54195,0.452155,72.2693,-0.00310969,0.00233537,0.00470955,0,0,0,4.27,1.68,-1.26,-0.035502,0.041358,-1.0076,-0.17668,-0.26334,0.32326
2.77089,0,0,7.22911,7.22911,12.7709,12.7709,-1.53938,0.447999,72.2754,-0.00303715,-0.00116156,-0.00500161,0,0,0,4.62,1.4,-0.98,-0.035502,0.03782,-1.01724,-0.17668,-0.26334,0.32326
2.76642,0,0,7.23358,7.23358,12.7664,12.7664,-1.5369,0.443942,72.2814,-0.00296636,-0.00111829,-0.0049999,0,0,0,4.62,1.4,-0.98,-0.035502,0.03782,-1.01724,-0.17668,-0.26334,0.32326
2.76343,0,0,7.23657,7.23657,12.7634,12.7634,-1.53524,0.441911,72.2877,-0.00159455,-0.000967225,0.00483703,0,0,0,4.48,1.33,-0.7,-0.03416,0.037942,-1.00748,-0.17668,-0.26334,0.32326
2.76055,0,0,7.23945,7.23945,12.7606,12.7606,-1.53364,0.439926,72.2939,-0.00155991,-0.000939291,0.00483805,0,0,0,4.48,1.33,-0.7,-0.03416,0.037942,-1.00748,-0.17668,-0.26334,0.32326
2.75178,0,0,7.24822,7.24822,12.7518,12.7518,-1.52877,0.443405,72.297,0.00165947,-0.00207557,0.00963484,0,0,0,4.41,1.33,-1.12,-0.030866,0.036722,-1.00272,-0.17668,-0.26334,0.32326
2.74337,0,0,7.25663,7.25663,12.7434,12.7434,-1.52409,0.446774,72.293,0.00160068,-0.00199401,0.00963656,0,0,0,4.41,1.33,-1.12,-0.030866,0.036722,-1.00272,-0.1785,-0.25984,0.31584
2.73771,0,0,7.26229,7.26229,12.7377,12.7377,-1.52095,0.450508,72.2893,0.00238591,-0.00132846,0.000908163,0,0,0,4.06,0.98,-1.05,-0.030012,0.037332,-1.01138,-0.1785,-0.25984,0.31584
2.7323,0,0,7.2677,7.2677,12.7323,12.7323,-1.51795,0.454127,72.2857,0.00232276,-0.00127607,0.000909054,0,0,0,4.06,0.98,-1.05,-0.030012,0.037332,-1.01138,-0.1785,-0.25984,0.31584
2.7346,0,0,7.2654,7.2654,12.7346,12.7346,-1.51922,0.449033,72.2852,-0.00293371,4.50653e-05,0.0017698,0,0,0,4.34,0.98,-1.12,-0.03538,0.038674,-1.01053,-0.1785,-0.25984,0.31584
2.73675,0,0,7.26325,7.26325,12.7368,12.7368,-1.52042,0.444082,72.2848,-0.00284731,2.41381e-05,0.00176992,0,0,0,4.34,0.98,-1.12,-0.03538,0.038674,-1.01053,-0.1785,-0.25984,0.31584
2.7347,0,0,7.2653,7.2653,12.7347,12.7347,-1.51928,0.438773,72.2839,-0.00384801,-0.0011772,0.00189411,0,0,0,4.2,1.47,-0.84,-0.036478,0.037454,-1.0104,-0.1785,-0.25984,0.31584
2.73268,0,0,7.26732,7.26732,12.7327,12.7327,-1.51815,0.433601,72.283,-0.00375775,-0.00115764,0.00189532,0,0,0,4.2,1.47,-0.84,-0.036478,0.037454,-1.0104,-0.1785,-0.25984,0.31584
2.73573,0,0,7.26427,7.26427,12.7357,12.7357,-1.51985,0.431372,72.2827,-0.00116765,0.000278321,0.00373906,0,0,0,4.2,1.05,-0.91,-0.033916,0.038918,-1.00857,-0.1785,-0.25984,0.31584
2.73863,0,0,7.26137,7.26137,12.7386,12.7386,-1.52146,0.429211,72.2825,-0.00112995,0.000250139,0.00373859,0,0,0,4.2,1.05,-0.91,-0.033916,0.038918,-1.00857,-0.1785,-0.25984,0.31584
2.74636,0,0,7.25364,7.25364,12.7464,12.7464,-1.52575,0.425004,72.2881,-0.00239286,0.00127439,0.00717971,0,0,0,4.41,1.19,-0.7,-0.035258,0.040016,-1.00516,-0.17598,-0.25886,0.3129
2.73759,0,0,7.26241,7.26241,12.7376,12.7376,-1.52088,0.429131,72.2886,0.00227306,-0.00193806,0.00263233,0,0,0,4.27,1.19,-0.7,-0.0305,0.036722,-1.00967,-0.17598,-0.25886,0.3129
2.74186,0,0,7.25814,7.25814,12.7419,12.7419,-1.52326,0.42845,72.2922,-0.000266264,0.00070735,0.0043526,0,0,0,4.27,1.19,-0.98,-0.033062,0.039406,-1.00796,-0.17598,-0.25886,0.3129
2.74618,0,0,7.25382,7.25382,12.7462,12.7462,-1.52565,0.428035,72.2956,-0.000259016,0.000665504,0.00435154,0,0,0,4.2,1.33,-1.05,-0.033062,0.039406,-1.00796,-0.17598,-0.25886,0.3129
2.74778,0,0,7.25222,7.25222,12.7478,12.7478,-1.52654,0.431898,72.2982,0.00222477,0.000405775,0.0060719,0,0,0,4.34,1.47,-0.91,-0.0305,0.039162,-1.00626,-0.17598,-0.25886,0.3129
2.74934,0,0,7.25066,7.25066,12.7493,12.7493,-1.52741,0.434941,72.3006,0.00217166,0.000390588,0.0060711,0,0,0,4.34,1.05,-0.98,-0.0305,0.039162,-1.00626,-0.17598,-0.25886,0.3129
2.7427,0,0,7.2573,7.2573,12.7427,12.7427,-1.52372,0.438008,72.301,0.00175368,-0.00137695,-0.00536181,0,0,0,4.2,1.19,-0.91,-0.030866,0.037332,-1.0176,-0.17598,-0.25886,0.3129
2.73569,0,0,7.26431,7.26431,12.7357,12.7357,-1.51983,0.441094,72.3015,0.00169982,-0.00130891,-0.00536041,0,0,0,4.41,1.26,-0.91,-0.030866,0.037332,-1.0176,-0.17598,-0.25886,0.3129
2.73572,0,0,7.26428,7.26428,12.7357,12.7357,-1.51984,0.439436,72.3046,-0.00118691,-0.000454362,0.00533632,0,0,0,4.2,1.26,-0.77,-0.033794,0.038186,-1.00699,-0.17794,-0.26236,0.32648
2.72536,0,0,7.27464,7.27464,12.7254,12.7254,-1.51409,0.440807,72.3046,0.000611451,-0.00267436,0.00927315,0,0,0,4.27,0.98,-0.84,-0.031964,0.035868,-1.00308,-0.17794,-0.26236,0.32648
2.71432,0,0,7.28568,7.28568,12.7143,12.7143,-1.50795,0.442695,72.304,0.000578499,-0.00256729,0.00927572,0,0,0,4.62,1.33,-1.19,-0.031964,0.035868,-1.00308,-0.17794,-0.26236,0.32648
2.70083,0,0,7.29917,7.29917,12.7008,12.7008,-1.50046,0.445325,72.3029,0.00114003,-0.00304719,0.00141009,0,0,0,4.41,1.19,-0.91,-0.031354,0.035258,-1.01089,-0.17794,-0.26236,0.32648
2.68836,0,0,7.31164,7.31164,12.6884,12.6884,-1.49353,0.447725,72.3017,0.00109813,-0.00292629,0.00141292,0,0,0,4.27,1.12,-0.98,-0.031354,0.035258,-1.01089,-0.17794,-0.26236,0.32648
2.69753,0,0,7.30247,7.30247,12.6975,12.6975,-1.49863,0.44279,72.3064,-0.00258178,0.00150344,0.000796528,0,0,0,4.06,0.98,-0.98,-0.035136,0.039772,-1.0115,-0.17794,-0.26236,0.32648
2.7054,0,0,7.2946,7.2946,12.7054,12.7054,-1.503,0.438476,72.3106,-0.00250649,0.00142712,0.000795107,0,0,0,4.34,1.26,-1.26,-0.035136,0.039772,-1.0115,-0.17794,-0.26236,0.32648
2.71409,0,0,7.28591,7.28591,12.7141,12.7141,-1.50783,0.435809,72.3233,-0.00148807,0.00170932,0.00177684,0,0,0,4.34,1.33,-1.19,-0.03416,0.040138,-1.01053,-0.17458,-0.26558,0.32214
2.71872,0,0,7.28128,7.28128,12.7187,12.7187,-1.5104,0.437538,72.3344,0.00103296,0.000687473,0.00189838,0,0,0,3.85,1.4,-0.98,-0.031598,0.039162,-1.0104,-0.17458,-0.26558,0.32214
2.72205,0,0,7.27795,7.27795,12.722,12.722,-1.51225,0.438633,72.3452,0.00101385,0.000655184,0.00189738,0,0,0,4.2,1.05,-1.05,-0.031598,0.039162,-1.0104,-0.17458,-0.26558,0.32214
2.71705,0,0,7.28295,7.28295,12.717,12.717,-1.50947,0.435579,72.3548,-0.0018485,-0.00137251,-0.0010517,0,0,0,4.41,0.91,-0.91,-0.034526,0.037088,-1.01333,-0.17458,-0.26558,0.32214
2.71267,0,0,7.28733,7.28733,12.7127,12.7127,-1.50704,0.43308,72.3646,-0.00180489,-0.00133006,-0.00105025,0,0,0,4.27,1.19,-0.7,-0.034526,0.037088,-1.01333,-0.17458,-0.26558,0.32214
2.71548,0,0,7.28452,7.28452,12.7155,12.7155,-1.5086,0.431047,72.3758,-0.00128346,0.000352401,0.00903107,0,0,0,4.55,1.26,-0.84,-0.034038,0.038796,-1.00333,-0.17458,-0.26558,0.32214
2.7184,0,0,7.2816,7.2816,12.7184,12.7184,-1.51022,0.429541,72.3863,-0.00125718,0.000324111,0.00903052,0,0,0,4.48,1.54,-1.12,-0.034038,0.038796,-1.00333,-0.17458,-0.26558,0.32214
2.72174,0,0,7.27826,7.27826,12.7217,12.7217,-1.51208,0.43392,72.3963,0.00267541,0.000902419,0.00214398,0,0,0,4.27,1.47,-0.84,-0.030012,0.039406,-1.01016,-0.17458,-0.26558,0.32214
2.72429,0,0,7.27571,7.27571,12.7243,12.7243,-1.5135,0.437241,72.4048,0.00261747,0.000877663,0.00214289,0,0,0,4.48,0.91,-0.77,-0.030012,0.039406,-1.01016,-0.17416,-0.26306,0.31794
2.71795,0,0,7.28205,7.28205,12.718,12.718,-1.50997,0.438864,72.4108,0.00100982,-0.00150342,0.0054639,0,0,0,4.41,0.98,-0.98,-0.031598,0.036966,-1.00687,-0.17416,-0.26306,0.31794
2.71188,0,0,7.28812,7.28812,12.7119,12.7119,-1.5066,0.440427,72.4168,0.000982531,-0.00144458,0.00546524,0,0,0,4.41,0.98,-0.98,-0.031598,0.036966,-1.00687,-0.17416,-0.26306,0.31794
2.71215,0,0,7.28785,7.28785,12.7121,12.7121,-1.50675,0.441279,72.4241,0.00060322,-0.000103747,0.0125961,0,0,0,4.55,1.12,-1.12,-0.031964,0.038308,-0.99979,-0.17416,-0.26306,0.31794
2.71241,0,0,7.28759,7.28759,12.7124,12.7124,-1.50689,0.442108,72.4312,0.00058875,-0.000106277,0.0125959,0,0,0,4.55,1.12,-1.12,-0.031964,0.038308,-0.99979,-0.17416,-0.26306,0.31794
2.70674,0,0,7.29326,7.29326,12.7067,12.7067,-1.50375,0.439545,72.4374,-0.00216069,-0.00176116,0.00485192,0,0,0,4.34,1.4,-0.98,-0.03477,0.0366,-1.00748,-0.17416,-0.26306,0.31794
2.70129,0,0,7.29871,7.29871,12.7013,12.7013,-1.50071,0.437035,72.4436,-0.00211689,-0.00170826,0.00485365,0,0,0,4.34,1.4,-0.98,-0.03477,0.0366,-1.00748,-0.17416,-0.26306,0.31794
2.70408,0,0,7.29592,7.29592,12.7041,12.7041,-1.50226,0.436533,72.4512,-0.00040733,0.000585099,0.00177929,0,0,0,4.48,1.4,-1.05,-0.033062,0.038918,-1.01053,-0.17416,-0.26306,0.31794
2.70674,0,0,7.29326,7.29326,12.7067,12.7067,-1.50374,0.436054,72.4693,-0.000398974,0.000559284,0.00177868,0,0,0,4.48,1.4,-1.05,-0.033062,0.038918,-1.01053,-0.16968,-0.26474,0.32368
2.70894,0,0,7.29106,7.29106,12.7089,12.7089,-1.50497,0.436164,72.4871,-3.64271e-05,0.000537962,0.00423707,0,0,0,4.62,1.4,-0.98,-0.032696,0.038918,-1.00809,-0.16968,-0.26474,0.32368
2.71105,0,0,7.28895,7.28895,12.7111,12.7111,-1.50614,0.436276,72.5046,-3.83905e-05,0.000517487,0.00423652,0,0,0,4.62,1.4,-0.98,-0.032696,0.038918,-1.00809,-0.16968,-0.26474,0.32368
2.71366,0,0,7.28634,7.28634,12.7137,12.7137,-1.50759,0.432615,72.5221,-0.00264717,0.000247905,0.00140852,0,0,0,4.41,1.54,-1.12,-0.03538,0.038674,-1.01089,-0.16968,-0.26474,0.32368
2.71614,0,0,7.28386,7.28386,12.7161,12.7161,-1.50897,0.429058,72.5394,-0.00258509,0.000223875,0.00140836,0,0,0,4.41,1.54,-1.12,-0.03538,0.038674,-1.01089,-0.16968,-0.26474,0.32368
2.70899,0,0,7.29101,7.29101,12.709,12.709,-1.50499,0.430691,72.5536,0.000423551,-0.00178295,0.00620496,0,0,0,4.41,1.47,-0.98,-0.03233,0.0366,-1.00613,-0.16968,-0.26474,0.32368
2.70214,0,0,7.29786,7.29786,12.7021,12.7021,-1.50119,0.432261,72.5675,0.000396136,-0.00171652,0.0062065,0,0,0,4.41,1.47,-0.98,-0.03233,0.0366,-1.00613,-0.16968,-0.26474,0.32368
2.70598,0,0,7.29402,7.29402,12.706,12.706,-1.50332,0.431172,72.5847,-0.000313771,0.00068872,0.00362374,0,0,0,4.34,0.98,-0.56,-0.033062,0.03904,-1.0087,-0.16968,-0.26474,0.32368
2.70715,0,0,7.29285,7.29285,12.7071,12.7071,-1.50397,0.429109,72.5961,-0.00100668,0.000311042,0.00571384,0,0,0,4.83,0.98,-0.7,-0.033794,0.038674,-1.00662,-0.1715,-0.26306,0.3206
2.70486,0,0,7.29514,7.29514,12.7049,12.7049,-1.5027,0.427425,72.6057,-0.00134175,-0.000765891,0.00657528,0,0,0,4.55,1.33,-1.12,-0.03416,0.037576,-1.00577,-0.1715,-0.26306,0.3206
2.7031,0,0,7.2969,7.2969,12.7031,12.7031,-1.50172,0.426374,72.6149,-0.0013234,-0.000748814,0.00657587,0,0,0,4.41,1.68,-1.19,-0.03416,0.037576,-1.00577,-0.1715,-0.26306,0.3206
2.70085,0,0,7.29915,7.29915,12.7008,12.7008,-1.50047,0.42558,72.6238,-0.00106657,-0.000727047,0.000183219,0,0,0,4.34,1.61,-1.19,-0.033916,0.037576,-1.01211,-0.1715,-0.26306,0.3206
2.69868,0,0,7.30132,7.30132,12.6987,12.6987,-1.49927,0.423849,72.6327,-0.00103636,-0.000706076,0.000183992,0,0,0,4.34,1.05,-1.12,-0.033916,0.037576,-1.01211,-0.1715,-0.26306,0.3206
2.69684,0,0,7.30316,7.30316,12.6968,12.6968,-1.49825,0.427052,72.6407,0.00243082,-0.000566093,0.00719211,0,0,0,4.13,0.77,-1.05,-0.030378,0.037698,-1.00516,-0.1715,-0.26306,0.3206
2.69533,0,0,7.30467,7.30467,12.6953,12.6953,-1.4974,0.430643,72.6486,0.00236815,-0.000551382,0.00719202,0,0,0,4.06,1.05,-1.05,-0.030378,0.037698,-1.00516,-0.1715,-0.26306,0.3206
2.70373,0,0,7.29627,7.29627,12.7037,12.7037,-1.50207,0.430585,72.6597,0.000182424,0.00156542,0.0103866,0,0,0,4.27,1.26,-0.84,-0.032574,0.039894,-1.00199,-0.1715,-0.26306,0.3206
2.71156,0,0,7.28844,7.28844,12.7116,12.7116,-1.50642,0.430547,72.6601,0.000183093,0.00148952,0.0103846,0,0,0,4.34,1.26,-0.98,-0.032574,0.039894,-1.00199,-0.17738,-0.2639,0.32466
2.7157,0,0,7.2843,7.2843,12.7157,12.7157,-1.50872,0.42584,72.6605,-0.00337933,0.000350252,0.00509734,0,0,0,4.34,1.61,-0.91,-0.036234,0.038796,-1.00723,-0.17738,-0.2639,0.32466
2.71963,0,0,7.28037,7.28037,12.7196,12.7196,-1.51091,0.420678,72.6612,-0.00328923,0.000312148,0.00509701,0,0,0,4.34,1.26,-0.77,-0.036234,0.038796,-1.00723,-0.17738,-0.2639,0.32466
2.72032,0,0,7.27968,7.27968,12.7203,12.7203,-1.51129,0.421512,72.6603,0.000340777,6.12396e-05,0.0025148,0,0,0,4.34,1.4,-0.84,-0.032574,0.038552,-1.00979,-0.17738,-0.2639,0.32466
2.72099,0,0,7.27901,7.27901,12.721,12.721,-1.51166,0.422326,72.6593,0.000326574,5.47827e-05,0.00251453,0,0,0,4.34,1.4,-0.84,-0.032574,0.038552,-1.00979,-0.17738,-0.2639,0.32466
2.72093,0,0,7.27907,7.27907,12.7209,12.7209,-1.51163,0.423314,72.6581,0.000552295,-0.000188951,0.00226852,0,0,0,4.2,1.26,-0.84,-0.03233,0.038308,-1.01004,-0.17738,-0.2639,0.32466
2.72066,0,0,7.27934,7.27934,12.7207,12.7207,-1.51148,0.423918,72.6569,0.000541761,-0.000186354,0.00226851,0,0,0,4.27,1.05,-0.84,-0.03233,0.038308,-1.01004,-0.17738,-0.2639,0.32466
2.71901,0,0,7.28099,7.28099,12.719,12.719,-1.51056,0.42884,72.6549,0.0033715,7.39479e-05,-0.000928368,0,0,0,4.48,1.05,-0.84,-0.029402,0.038552,-1.01321,-0.17738,-0.2639,0.32466
2.71839,0,0,7.28161,7.28161,12.7184,12.7184,-1.51022,0.433506,72.6581,0.00329007,7.99587e-05,-0.000928823,0,0,0,4.2,0.98,-0.77,-0.029402,0.038552,-1.01321,-0.17402,-0.26208,0.32354
2.72384,0,0,7.27616,7.27616,12.7238,12.7238,-1.51324,0.434716,72.6629,0.00108222,0.0011263,0.00534,0,0,0,4.27,1.12,-0.91,-0.031598,0.03965,-1.00699,-0.17402,-0.26208,0.32354
2.72908,0,0,7.27092,7.27092,12.7291,12.7291,-1.51616,0.43614,72.6674,0.00105737,0.00107548,0.00533846,0,0,0,4.27,1.26,-1.05,-0.031598,0.03965,-1.00699,-0.17402,-0.26208,0.32354
2.73049,0,0,7.26951,7.26951,12.7305,12.7305,-1.51694,0.436161,72.6713,-0.000279358,-3.72637e-05,0.00570695,0,0,0,4.2,1.47,-0.98,-0.03294,0.038552,-1.00662,-0.17402,-0.26208,0.32354
2.73093,0,0,7.26907,7.26907,12.7309,12.7309,-1.51719,0.435831,72.6753,-0.000273595,-4.1599e-05,0.00570688,0,0,0,4.48,1.26,-0.91,-0.03294,0.038552,-1.00662,-0.17402,-0.26208,0.32354
2.74191,0,0,7.25809,7.25809,12.7419,12.7419,-1.52328,0.435693,72.6816,0.000457725,0.00278309,0.00115498,0,0,0,4.69,1.19,-1.05,-0.032208,0.04148,-1.01114,-0.17402,-0.26208,0.32354
2.75312,0,0,7.24688,7.24688,12.7531,12.7531,-1.52951,0.435465,72.6876,0.000461713,0.00267444,0.00115211,0,0,0,4.48,1.12,-1.12,-0.032208,0.04148,-1.01114,-0.17402,-0.26208,0.32354
2.74864,0,0,7.25136,7.25136,12.7486,12.7486,-1.52702,0.437308,72.6903,0.00115846,-0.000823853,-0.00216658,0,0,0,4.48,1.12,-0.77,-0.031476,0.037942,-1.01443,-0.17402,-0.26208,0.32354
2.74436,0,0,7.25564,7.25564,12.7444,12.7444,-1.52464,0.439091,72.6929,0.00112734,-0.000782344,-0.00216572,0,0,0,4.48,1.12,-0.77,-0.031476,0.037942,-1.01443,-0.17402,-0.26208,0.32354
2.73273,0,0,7.26727,7.26727,12.7327,12.7327,-1.51818,0.439873,72.6883,-0.000101167,-0.00299,0.007796,0,0,0,4.34,1.26,-1.05,-0.032696,0.035624,-1.00455,-0.17528,-0.25928,0.32018
2.72735,0,0,7.27265,7.27265,12.7273,12.7273,-1.51519,0.436986,72.6857,-0.00187305,-0.00159447,0.00583059,0,0,0,4.48,0.98,-1.05,-0.034526,0.036966,-1.0065,-0.17528,-0.25928,0.32018
2.72193,0,0,7.27807,7.27807,12.7219,12.7219,-1.51219,0.434874,72.6831,-0.00183621,-0.00154202,0.00583226,0,0,0,4.55,1.4,-1.12,-0.034526,0.036966,-1.0065,-0.17528,-0.25928,0.32018
2.73747,0,0,7.26253,7.26253,12.7375,12.7375,-1.52082,0.43133,72.686,-0.00177434,0.00343672,0.00263208,0,0,0,4.55,1.33,-0.91,-0.034526,0.04209,-1.00967,-0.17528,-0.25928,0.32018
2.75214,0,0,7.24786,7.24786,12.7521,12.7521,-1.52896,0.427667,72.6883,-0.00171042,0.00329455,0.00262877,0,0,0,4.62,1.19,-1.19,-0.034526,0.04209,-1.00967,-0.17528,-0.25928,0.32018
2.75644,0,0,7.24356,7.24356,12.7564,12.7564,-1.53135,0.424956,72.6886,-0.0016631,0.000688192,0.00570172,0,0,0,4.48,1.26,-0.91,-0.034526,0.039528,-1.00662,-0.17528,-0.25928,0.32018
2.76054,0,0,7.23946,7.23946,12.7605,12.7605,-1.53364,0.422327,72.6889,-0.00161722,0.000648378,0.005701,0,0,0,4.48,1.26,-0.91,-0.034526,0.039528,-1.00662,-0.17528,-0.25928,0.32018
2.76486,0,0,7.23514,7.23514,12.7649,12.7649,-1.53604,0.428419,72.6881,0.00447222,0.00158353,0.00188768,0,0,0,4.55,0.98,-0.91,-0.028304,0.040504,-1.0104,-0.17528,-0.25928,0.32018
2.76909,0,0,7.23091,7.23091,12.7691,12.7691,-1.53838,0.434356,72.6905,0.00436861,0.00154258,0.0018858,0,0,0,4.55,0.98,-0.91,-0.028304,0.040504,-1.0104,-0.17542,-0.26376,0.32116
2.76614,0,0,7.23386,7.23386,12.7661,12.7661,-1.53675,0.428559,72.6924,-0.00403421,-0.00148204,0.00508399,0,0,0,4.2,1.26,-0.98,-0.036844,0.037454,-1.00723,-0.17542,-0.26376,0.32116
2.76326,0,0,7.23674,7.23674,12.7633,12.7633,-1.53515,0.422907,72.6943,-0.00393557,-0.00145415,0.00508547,0,0,0,4.2,1.26,-0.98,-0.036844,0.037454,-1.00723,-0.17542,-0.26376,0.32116
2.75896,0,0,7.24104,7.24104,12.759,12.759,-1.53275,0.423209,72.6954,-5.3299e-05,-0.001046,0.00693078,0,0,0,4.62,1.26,-0.98,-0.03294,0.03782,-1.0054,-0.17542,-0.26376,0.32116
2.76053,0,0,7.23947,7.23947,12.7605,12.7605,-1.53363,0.427596,72.6974,0.00278579,0.000648558,0.00729865,0,0,0,4.62,1.33,-0.84,-0.030012,0.039528,-1.00504,-0.17542,-0.26376,0.32116
2.76229,0,0,7.23771,7.23771,12.7623,12.7623,-1.53461,0.432123,72.6999,0.00270678,0.000631488,0.0072976,0,0,0,4.55,1.47,-0.56,-0.030012,0.039528,-1.00504,-0.17542,-0.26376,0.32116
2.75394,0,0,7.24606,7.24606,12.7539,12.7539,-1.52997,0.435878,72.6994,0.00154787,-0.00185227,0.0048403,0,0,0,4.48,1.68,-0.98,-0.03111,0.036966,-1.00748,-0.17542,-0.26376,0.32116
2.74596,0,0,7.25404,7.25404,12.746,12.746,-1.52554,0.43879,72.6986,0.00149705,-0.00177492,0.00484197,0,0,0,4.48,1.26,-1.12,-0.03111,0.036966,-1.00748,-0.17542,-0.26376,0.32116
2.74728,0,0,7.25272,7.25272,12.7473,12.7473,-1.52627,0.439781,72.6858,0.000629353,0.00028844,0.00717752,0,0,0,4.55,1.26,-1.05,-0.031964,0.03904,-1.00516,-0.18088,-0.25886,0.31808
2.74878,0,0,7.25122,7.25122,12.7488,12.7488,-1.5271,0.440162,72.6736,0.000622712,0.00027394,0.00717708,0,0,0,4.48,0.91,-0.84,-0.031964,0.03904,-1.00516,-0.18088,-0.25886,0.31808
2.75175,0,0,7.24825,7.24825,12.7517,12.7517,-1.52875,0.440565,72.6623,0.00049418,0.00110007,0.000782941,0,0,0,4.9,1.19,-0.91,-0.032086,0.039894,-1.0115,-0.18088,-0.25886,0.31808
2.74639,0,0,7.25361,7.25361,12.7464,12.7464,-1.52577,0.438916,72.6491,-0.00117784,-0.00129058,0.00115339,0,0,0,4.62,1.12,-0.98,-0.033794,0.037454,-1.01114,-0.18088,-0.25886,0.31808
2.74124,0,0,7.25876,7.25876,12.7412,12.7412,-1.52291,0.437646,72.6357,-0.00115567,-0.00124067,0.00115489,0,0,0,4.62,1.33,-1.19,-0.033794,0.037454,-1.01114,-0.18088,-0.25886,0.31808
2.73023,0,0,7.26977,7.26977,12.7302,12.7302,-1.5168,0.435677,72.6211,-0.00197171,-0.00321012,0.00595297,0,0,0,4.13,1.33,-1.05,-0.034648,0.03538,-1.00638,-0.18088,-0.25886,0.31808
2.71942,0,0,7.28058,7.28058,12.7194,12.7194,-1.51079,0.433849,72.6066,-0.0019398,-0.00310533,0.00595598,0,0,0,4.2,1.4,-1.12,-0.034648,0.03538,-1.00638,-0.18088,-0.25886,0.31808
2.71532,0,0,7.28468,7.28468,12.7153,12.7153,-1.50851,0.431437,72.594,-0.00201918,-0.00147795,0.00534261,0,0,0,4.27,1.4,-1.05,-0.03477,0.036966,-1.00699,-0.18088,-0.25886,0.31808
2.7111,0,0,7.2889,7.2889,12.7111,12.7111,-1.50617,0.428726,72.5942,-0.00197188,-0.00143701,0.00534404,0,0,0,4.34,1.19,-1.05,-0.03477,0.036966,-1.00699,-0.17486,-0.25942,0.32256
2.69923,0,0,7.30077,7.30077,12.6992,12.6992,-1.49957,0.436339,72.5913,0.004334,-0.00242112,0.00301003,0,0,0,4.34,1.33,-0.98,-0.028304,0.035868,-1.00931,-0.17486,-0.25942,0.32256
2.68745,0,0,7.31255,7.31255,12.6874,12.6874,-1.49303,0.443248,72.5886,0.00421341,-0.00230688,0.00301209,0,0,0,4.48,1.05,-0.84,-0.028304,0.035868,-1.00931,-0.17486,-0.25942,0.32256
2.69164,0,0,7.30836,7.30836,12.6916,12.6916,-1.49536,0.442336,72.5906,-0.000144146,0.000949872,0.00202757,0,0,0,4.48,0.98,-0.91,-0.032696,0.039162,-1.01028,-0.17486,-0.25942,0.32256
2.69567,0,0,7.30433,7.30433,12.6957,12.6957,-1.4976,0.441807,72.5923,-0.000134918,0.000910838,0.00202662,0,0,0,4.48,1.19,-1.12,-0.032696,0.039162,-1.01028,-0.17486,-0.25942,0.32256
2.69843,0,0,7.30157,7.30157,12.6984,12.6984,-1.49913,0.435513,72.5947,-0.00391261,0.000151304,0.00460868,0,0,0,4.55,1.12,-0.98,-0.0366,0.03843,-1.00772,-0.17486,-0.25942,0.32256
2.70125,0,0,7.29875,7.29875,12.7013,12.7013,-1.5007,0.429515,72.5972,-0.00380792,0.000123935,0.00460875,0,0,0,4.48,1.19,-0.91,-0.0366,0.03843,-1.00772,-0.17486,-0.25942,0.32256
2.6999,0,0,7.3001,7.3001,12.6999,12.6999,-1.49995,0.42923,72.5973,-3.69022e-05,-0.000717851,0.00165837,0,0,0,3.99,0.98,-0.98,-0.032818,0.037576,-1.01065,-0.17486,-0.25942,0.32256
2.69769,0,0,7.30231,7.30231,12.6977,12.6977,-1.49872,0.428954,72.6016,-3.20883e-05,-0.000696437,0.00165896,0,0,0,4.27,0.98,-0.91,-0.032818,0.037576,-1.01065,-0.17402,-0.26292,0.3199
2.70179,0,0,7.29821,7.29821,12.7018,12.7018,-1.501,0.432454,72.6067,0.00233654,0.00109574,0.0025181,0,0,0,4.34,1.33,-0.98,-0.030378,0.039406,-1.00979,-0.17402,-0.26292,0.3199
2.70553,0,0,7.29447,7.29447,12.7055,12.7055,-1.50307,0.436001,72.6121,0.00227464,0.00105955,0.00251668,0,0,0,4.41,1.4,-0.77,-0.030378,0.039406,-1.00979,-0.17402,-0.26292,0.3199
2.71702,0,0,7.28298,7.28298,12.717,12.717,-1.50946,0.434755,72.6202,-0.000497789,0.00278002,-0.00166633,0,0,0,4.55,1.4,-0.7,-0.033184,0.041236,-1.01394,-0.17402,-0.26292,0.3199
2.7285,0,0,7.2715,7.2715,12.7285,12.7285,-1.51584,0.433211,72.628,-0.000470832,0.00266874,-0.00166906,0,0,0,4.41,1.19,-0.77,-0.033184,0.041236,-1.01394,-0.17402,-0.26292,0.3199
2.72913,0,0,7.27087,7.27087,12.7291,12.7291,-1.51618,0.433334,72.6335,1.29681e-05,-2.41509e-05,0.00386344,0,0,0,4.34,1.26,-0.49,-0.032696,0.038552,-1.00845,-0.17402,-0.26292,0.3199
2.72953,0,0,7.27047,7.27047,12.7295,12.7295,-1.5164,0.433433,72.638,1.12409e-05,-2.79513e-05,0.00386333,0,0,0,4.41,1.26,-0.98,-0.032696,0.038552,-1.00845,-0.17402,-0.26292,0.3199
2.72448,0,0,7.27552,7.27552,12.7245,12.7245,-1.5136,0.42901,72.6421,-0.00319169,-0.0015667,0.00152918,0,0,0,4.48,1.26,-0.84,-0.03599,0.036966,-1.01077,-0.17402,-0.26292,0.3199
2.72072,0,0,7.27928,7.27928,12.7207,12.7207,-1.51151,0.424442,72.6469,-0.00311197,-0.00153024,0.00153074,0,0,0,4.13,1.12,-1.12,-0.03599,0.036966,-1.01077,-0.17374,-0.26432,0.31696
2.72662,0,0,7.27338,7.27338,12.7266,12.7266,-1.51479,0.425315,72.653,0.000881827,0.00109934,0.00546347,0,0,0,4.13,1.12,-1.26,-0.031964,0.03965,-1.00687,-0.17374,-0.26432,0.31696
2.73251,0,0,7.26749,7.26749,12.7325,12.7325,-1.51806,0.426189,72.6593,0.000866567,0.0010422,0.00546184,0,0,0,4.06,1.12,-1.05,-0.031964,0.03965,-1.00687,-0.17374,-0.26432,0.31696
2.74348,0,0,7.25652,7.25652,12.7435,12.7435,-1.52416,0.423578,72.6674,-0.00115311,0.00227929,0.00484461,0,0,0,4.41,1.12,-1.05,-0.034038,0.040992,-1.00748,-0.17374,-0.26432,0.31696
2.75444,0,0,7.24556,7.24556,12.7544,12.7544,-1.53025,0.420941,72.6754,-0.00110708,0.00217303,0.00484212,0,0,0,4.27,1.05,-1.12,-0.034038,0.040992,-1.00748,-0.17374,-0.26432,0.31696
2.7479,0,0,7.2521,7.2521,12.7479,12.7479,-1.52661,0.419873,72.6791,-0.00060251,-0.00154953,-0.00560668,0,0,0,4.34,0.91,-1.05,-0.03355,0.03721,-1.01785,-0.17374,-0.26432,0.31696
2.74162,0,0,7.25838,7.25838,12.7416,12.7416,-1.52312,0.419175,72.6827,-0.000590328,-0.00148861,-0.00560497,0,0,0,4.34,1.12,-1.05,-0.03355,0.03721,-1.01785,-0.17374,-0.26432,0.31696
2.74308,0,0,7.25692,7.25692,12.7431,12.7431,-1.52393,0.421885,72.6876,0.00191358,0.000573363,-0.0010566,0,0,0,4.41,1.19,-1.12,-0.030988,0.039284,-1.01333,-0.17374,-0.26432,0.31696
2.7445,0,0,7.2555,7.2555,12.7445,12.7445,-1.52472,0.424528,72.6904,0.00186745,0.000559587,-0.0010573,0,0,0,4.41,1.19,-1.12,-0.030988,0.039284,-1.01333,-0.17444,-0.26292,0.32088
2.73138,0,0,7.26862,7.26862,12.7314,12.7314,-1.51743,0.419297,72.6909,-0.00423702,-0.00358761,0.00361879,0,0,0,4.55,1.4,-1.12,-0.03721,0.035014,-1.0087,-0.17444,-0.26292,0.32088
2.71917,0,0,7.28083,7.28083,12.7192,12.7192,-1.51065,0.413811,72.6914,-0.00414128,-0.00346935,0.00362261,0,0,0,4.41,1.19,-1.12,-0.03721,0.035014,-1.0087,-0.17444,-0.26292,0.32088
2.71738,0,0,7.28262,7.28262,12.7174,12.7174,-1.50965,0.4206,72.693,0.00436572,-3.23871e-05,0.0106303,0,0,0,4.62,1.19,-0.98,-0.028548,0.03843,-1.00174,-0.17444,-0.26292,0.32088
2.71571,0,0,7.28429,7.28429,12.7157,12.7157,-1.50873,0.427206,72.6945,0.00425043,-1.61929e-05,0.0106298,0,0,0,4.62,1.19,-0.98,-0.028548,0.03843,-1.00174,-0.17444,-0.26292,0.32088
2.70944,0,0,7.29056,7.29056,12.7094,12.7094,-1.50524,0.426237,72.6958,-0.000713585,-0.00154303,0.00276287,0,0,0,4.55,1.05,-1.05,-0.03355,0.036844,-1.00955,-0.17444,-0.26292,0.32088
2.7034,0,0,7.2966,7.2966,12.7034,12.7034,-1.50189,0.425278,72.697,-0.000696846,-0.00148455,0.00276453,0,0,0,4.55,1.05,-1.05,-0.03355,0.036844,-1.00955,-0.17444,-0.26292,0.32088
2.70116,0,0,7.29884,7.29884,12.7012,12.7012,-1.50064,0.428191,72.6989,0.00156054,-0.000241538,0.00165818,0,0,0,4.62,1.47,-0.91,-0.031232,0.038064,-1.01065,-0.17444,-0.26292,0.32088
2.69902,0,0,7.30098,7.30098,12.699,12.699,-1.49945,0.431024,72.697,0.0015111,-0.000220767,0.00165836,0,0,0,4.62,1.47,-0.91,-0.031232,0.038064,-1.01065,-0.17668,-0.26376,0.32032
2.69884,0,0,7.30116,7.30116,12.6988,12.6988,-1.49936,0.431691,72.6954,0.000406086,-0.000341196,0.00202716,0,0,0,4.06,1.19,-0.91,-0.03233,0.037942,-1.01028,-0.17668,-0.26376,0.32032
2.69868,0,0,7.30132,7.30132,12.6987,12.6987,-1.49927,0.43234,72.6939,0.000394759,-0.000339619,0.00202711,0,0,0,4.06,1.19,-0.91,-0.03233,0.037942,-1.01028,-0.17668,-0.26376,0.32032
2.69886,0,0,7.30114,7.30114,12.6989,12.6989,-1.49937,0.437984,72.6919,0.00381934,0.000391418,0.00559183,0,0,0,4.48,1.12,-0.98,-0.028792,0.038674,-1.00674,-0.17668,-0.26376,0.32032
2.7229,0,0,7.2771,7.2771,12.7229,12.7229,-1.51272,0.394478,72.7022,-0.0277366,0.00199014,0.0070666,0,0,0,4.27,1.26,-0.98,-0.061244,0.040504,-1.00528,-0.17668,-0.26376,0.32032
2.74495,0,0,7.25505,7.25505,12.7449,12.7449,-1.52497,0.352305,72.7126,-0.0270005,0.00177635,0.00706573,0,0,0,4.48,1.33,-0.84,-0.061244,0.040504,-1.00528,-0.17668,-0.26376,0.32032
2.73982,0,0,7.26018,7.26018,12.7398,12.7398,-1.52212,0.348863,72.7115,-0.00264329,-0.00159352,0.00411665,0,0,0,4.48,1.33,-0.84,-0.036844,0.037088,-1.00821,-0.17668,-0.26376,0.32032
2.73244,0,0,7.26756,7.26756,12.7324,12.7324,-1.51802,0.35532,72.708,0.00380424,-0.00164415,0.00952759,0,0,0,4.27,1.26,-0.98,-0.030256,0.036966,-1.00284,-0.17668,-0.26376,0.32032
2.72542,0,0,7.27458,7.27458,12.7254,12.7254,-1.51412,0.361589,72.7047,0.00369482,-0.001576,0.00952871,0,0,0,4.27,1.26,-0.98,-0.030256,0.036966,-1.00284,-0.17668,-0.26376,0.32032
2.70777,0,0,7.29223,7.29223,12.7078,12.7078,-1.50432,0.368513,72.6981,0.00418141,-0.00372533,0.0117455,0,0,0,4.69,0.84,-0.98,-0.029646,0.034648,-1.00064,-0.17542,-0.2597,0.31878
2.71067,0,0,7.28933,7.28933,12.7107,12.7107,-1.50593,0.366288,72.6975,-0.000760664,0.000887346,-0.00362353,0,0,0,4.69,0.77,-1.05,-0.034648,0.039284,-1.01589,-0.17542,-0.2597,0.31878
2.71322,0,0,7.28678,7.28678,12.7132,12.7132,-1.50734,0.364726,72.6968,-0.000733397,0.000862676,-0.00362401,0,0,0,4.76,1.12,-1.05,-0.034648,0.039284,-1.01589,-0.17542,-0.2597,0.31878
2.71759,0,0,7.28241,7.28241,12.7176,12.7176,-1.50977,0.360522,72.697,-0.00248232,0.00118665,-0.00731312,0,0,0,4.76,1.19,-1.05,-0.036478,0.03965,-1.01955,-0.17542,-0.2597,0.31878
2.7222,0,0,7.2778,7.2778,12.7222,12.7222,-1.51234,0.356082,72.6972,-0.00240482,0.00114191,-0.00731381,0,0,0,4.62,0.98,-1.05,-0.036478,0.03965,-1.01955,-0.17542,-0.2597,0.31878
2.71916,0,0,7.28084,7.28084,12.7192,12.7192,-1.51065,0.360462,72.6945,0.00298559,-0.000660527,0.00448954,0,0,0,4.2,0.98,-0.84,-0.030988,0.03782,-1.00784,-0.17542,-0.2597,0.31878
2.71584,0,0,7.28416,7.28416,12.7158,12.7158,-1.5088,0.365181,72.6912,0.00290323,-0.000628287,0.00448987,0,0,0,4.34,1.26,-1.19,-0.030988,0.03782,-1.00784,-0.17542,-0.2597,0.31878
2.73169,0,0,7.26831,7.26831,12.7317,12.7317,-1.5176,0.363392,72.6932,-0.000588634,0.00373681,-0.00276795,0,0,0,4.41,1.33,-1.33,-0.034526,0.042334,-1.01504,-0.17542,-0.2597,0.31878
2.74733,0,0,7.25267,7.25267,12.7473,12.7473,-1.52629,0.361579,72.697,-0.000556989,0.0035852,-0.00277178,0,0,0,4.27,1.26,-1.19,-0.034526,0.042334,-1.01504,-0.17444,-0.25914,0.31948
2.75719,0,0,7.24281,7.24281,12.7572,12.7572,-1.53177,0.364594,72.6992,0.0026705,0.00275686,-0.000561588,0,0,0,4.55,1.05,-1.05,-0.031232,0.041602,-1.01284,-0.17444,-0.25914,0.31948
2.76623,0,0,7.23377,7.23377,12.7662,12.7662,-1.53679,0.367697,72.7022,0.00261634,0.00266925,-0.000564281,0,0,0,4.69,1.12,-0.56,-0.031232,0.041602,-1.01284,-0.17444,-0.25914,0.31948
2.75495,0,0,7.24505,7.24505,12.7549,12.7549,-1.53053,0.371844,72.7001,0.00254396,-0.00222861,0.00484791,0,0,0,4.76,0.98,-0.7,-0.031232,0.0366,-1.00748,-0.17444,-0.25914,0.31948
2.74504,0,0,7.25496,7.25496,12.745,12.745,-1.52502,0.376099,72.6981,0.0024697,-0.00213259,0.00484999,0,0,0,4.48,1.12,-0.56,-0.031232,0.0366,-1.00748,-0.17444,-0.25914,0.31948
2.73618,0,0,7.26382,7.26382,12.7362,12.7362,-1.5201,0.381036,72.6959,0.002748,-0.00192455,-0.00154162,0,0,0,4.2,1.33,-0.7,-0.030866,0.036722,-1.01382,-0.17444,-0.25914,0.31948
2.72726,0,0,7.27274,7.27274,12.7273,12.7273,-1.51515,0.385814,72.6934,0.0026646,-0.00183807,-0.00153989,0,0,0,4.34,1.33,-0.84,-0.030866,0.036722,-1.01382,-0.17444,-0.25914,0.31948
2.73418,0,0,7.26582,7.26582,12.7342,12.7342,-1.51899,0.38878,72.6946,0.00200541,0.00163657,0.00804797,0,0,0,4.41,1.4,-1.05,-0.031476,0.04026,-1.0043,-0.17444,-0.25914,0.31948
2.74059,0,0,7.25941,7.25941,12.7406,12.7406,-1.52255,0.391696,72.6931,0.00195451,0.00157441,0.00804597,0,0,0,4.48,1.4,-0.91,-0.031476,0.04026,-1.0043,-0.17682,-0.25998,0.32816
2.74092,0,0,7.25908,7.25908,12.7409,12.7409,-1.52273,0.398774,72.6898,0.00474664,0.000716395,0.00497133,0,0,0,4.69,1.19,-0.91,-0.028548,0.039406,-1.00735,-0.17682,-0.25998,0.32816
2.74196,0,0,7.25804,7.25804,12.742,12.742,-1.52331,0.40578,72.6862,0.00462436,0.000706266,0.0049702,0,0,0,4.48,1.26,-1.05,-0.028548,0.039406,-1.00735,-0.17682,-0.25998,0.32816
2.75751,0,0,7.24249,7.24249,12.7575,12.7575,-1.53195,0.400394,72.6875,-0.00293523,0.00336449,-0.00130353,0,0,0,4.41,1.26,-1.26,-0.036234,0.042212,-1.01358,-0.17682,-0.25998,0.32816
2.7724,0,0,7.2276,7.2276,12.7724,12.7724,-1.54022,0.394829,72.6888,-0.00283811,0.00322014,-0.00130673,0,0,0,4.41,1.05,-1.26,-0.036234,0.042212,-1.01358,-0.17682,-0.25998,0.32816
2.77227,0,0,7.22773,7.22773,12.7723,12.7723,-1.54015,0.394816,72.6862,-0.000165183,0.000168262,-0.00290502,0,0,0,4.62,1.4,-1.19,-0.03355,0.039162,-1.01516,-0.17682,-0.25998,0.32816
2.77259,0,0,7.22741,7.22741,12.7726,12.7726,-1.54033,0.394808,72.6838,-0.000165059,0.000165181,-0.0029051,0,0,0,4.48,1.4,-1.05,-0.03355,0.039162,-1.01516,-0.17682,-0.25998,0.32816
2.78034,0,0,7.21966,7.21966,12.7803,12.7803,-1.54464,0.396053,72.6831,0.000906595,0.00204403,4.34845e-05,0,0,0,4.55,1.47,-1.12,-0.032452,0.041114,-1.01223,-0.17682,-0.25998,0.32816
2.78803,0,0,7.21197,7.21197,12.788,12.788,-1.54891,0.39706,72.6818,0.000889023,0.0019695,4.13503e-05,0,0,0,4.48,1.33,-0.77,-0.032452,0.041114,-1.01223,-0.17556,-0.25648,0.31962
2.78107,0,0,7.21893,7.21893,12.7811,12.7811,-1.54504,0.395153,72.6776,-0.00138594,-0.00187111,-0.00573518,0,0,0,4.2,1.05,-0.56,-0.03477,0.03721,-1.01797,-0.17556,-0.25648,0.31962
2.7737,0,0,7.2263,7.2263,12.7737,12.7737,-1.54095,0.392792,72.6731,-0.00134473,-0.00179966,-0.00573297,0,0,0,4.41,0.77,-0.77,-0.03477,0.03721,-1.01797,-0.17556,-0.25648,0.31962
2.76773,0,0,7.23227,7.23227,12.7677,12.7677,-1.53763,0.400061,72.6674,0.00508865,-0.00100896,0.00939037,0,0,0,4.48,0.7,-0.91,-0.028182,0.037942,-1.00296,-0.17556,-0.25648,0.31962
2.76159,0,0,7.23841,7.23841,12.7616,12.7616,-1.53422,0.407964,72.6619,0.00495072,-0.000949504,0.009391,0,0,0,4.62,1.19,-0.84,-0.028182,0.037942,-1.00296,-0.17556,-0.25648,0.31962
2.77239,0,0,7.22761,7.22761,12.7724,12.7724,-1.54022,0.403924,72.662,-0.00214644,0.00248752,-0.00302911,0,0,0,4.55,1.19,-0.91,-0.03538,0.04148,-1.01528,-0.17556,-0.25648,0.31962
2.78273,0,0,7.21727,7.21727,12.7827,12.7827,-1.54596,0.400489,72.6618,-0.00208648,0.00238727,-0.00303139,0,0,0,4.55,1.47,-1.05,-0.03538,0.04148,-1.01528,-0.17556,-0.25648,0.31962
2.77527,0,0,7.22473,7.22473,12.7753,12.7753,-1.54181,0.40612,72.6557,0.0032821,-0.00169265,0.00951062,0,0,0,4.34,1.26,-1.19,-0.02989,0.037332,-1.00284,-0.17556,-0.25648,0.31962
2.76745,0,0,7.23255,7.23255,12.7675,12.7675,-1.53747,0.411704,72.6457,0.00318464,-0.00161688,0.00951196,0,0,0,4.55,1.33,-1.26,-0.02989,0.037332,-1.00284,-0.17878,-0.25872,0.32396
2.77216,0,0,7.22784,7.22784,12.7722,12.7722,-1.54009,0.407247,72.6404,-0.00293335,0.000902077,0.00434745,0,0,0,4.76,1.4,-1.19,-0.036112,0.039894,-1.00796,-0.17878,-0.25872,0.32396
2.7771,0,0,7.2229,7.2229,12.7771,12.7771,-1.54283,0.403161,72.6353,-0.00286203,0.000854189,0.00434666,0,0,0,4.62,1.54,-1.12,-0.036112,0.039894,-1.00796,-0.17878,-0.25872,0.32396
2.77342,0,0,7.22658,7.22658,12.7734,12.7734,-1.54079,0.404243,72.6277,0.000156218,-0.000942021,0.00901953,0,0,0,4.62,1.54,-1.05,-0.033062,0.038064,-1.00333,-0.17878,-0.25872,0.32396
2.77057,0,0,7.22943,7.22943,12.7706,12.7706,-1.5392,0.404688,72.6201,0.00014846,-0.000914365,0.00902022,0,0,0,4.41,1.19,-1.12,-0.033062,0.038064,-1.00333,-0.17878,-0.25872,0.32396
2.76777,0,0,7.23223,7.23223,12.7678,12.7678,-1.53765,0.404935,72.6126,2.26678e-05,-0.000887205,0.0100045,0,0,0,4.48,1.19,-1.12,-0.033184,0.038064,-1.00235,-0.17878,-0.25872,0.32396
2.7653,0,0,7.2347,7.2347,12.7653,12.7653,-1.53628,0.404926,72.6052,2.28209e-05,-0.00086332,0.0100052,0,0,0,4.41,1.05,-1.19,-0.033184,0.038064,-1.00235,-0.17878,-0.25872,0.32396
2.76019,0,0,7.23981,7.23981,12.7602,12.7602,-1.53344,0.402905,72.5976,-0.00139974,-0.00154652,0.00976083,0,0,0,4.55,1.05,-1.26,-0.034648,0.037332,-1.0026,-0.17878,-0.25872,0.32396
2.7557,0,0,7.2443,7.2443,12.7557,12.7557,-1.53094,0.400821,72.5906,-0.00136336,-0.00150301,0.00976225,0,0,0,4.41,0.98,-0.91,-0.034648,0.037332,-1.0026,-0.17878,-0.25872,0.32396
2.7589,0,0,7.2411,7.2411,12.7589,12.7589,-1.53272,0.406295,72.5927,0.00376498,0.00103067,0.00791652,0,0,0,4.48,1.19,-0.98,-0.029402,0.039894,-1.00443,-0.17304,-0.25564,0.32018
2.7659,0,0,7.2341,7.2341,12.7659,12.7659,-1.53661,0.402759,72.5966,-0.00176165,0.00145126,0.00557912,0,0,0,4.62,0.98,-1.19,-0.035014,0.040382,-1.00674,-0.17304,-0.25564,0.32018
2.77261,0,0,7.22739,7.22739,12.7726,12.7726,-1.54034,0.399449,72.6004,-0.00170388,0.00138627,0.00557777,0,0,0,4.62,1.05,-1.26,-0.035014,0.040382,-1.00674,-0.17304,-0.25564,0.32018
2.76749,0,0,7.23251,7.23251,12.7675,12.7675,-1.53749,0.400692,72.6007,0.00058265,-0.00137302,0.0101281,0,0,0,4.48,1.19,-1.19,-0.032696,0.037576,-1.00223,-0.17304,-0.25564,0.32018
2.76257,0,0,7.23743,7.23743,12.7626,12.7626,-1.53476,0.402378,72.6014,0.000553237,-0.00132539,0.0101291,0,0,0,4.48,1.47,-0.98,-0.032696,0.037576,-1.00223,-0.17304,-0.25564,0.32018
2.76843,0,0,7.23157,7.23157,12.7684,12.7684,-1.53801,0.40451,72.605,0.00160939,0.00179318,-0.00413469,0,0,0,4.55,1.33,-0.7,-0.031598,0.040748,-1.01638,-0.17304,-0.25564,0.32018
2.77362,0,0,7.22638,7.22638,12.7736,12.7736,-1.5409,0.406364,72.6086,0.00157704,0.00174286,-0.00413627,0,0,0,4.69,1.19,-0.7,-0.031598,0.040748,-1.01638,-0.17304,-0.25564,0.32018
2.77309,0,0,7.22691,7.22691,12.7731,12.7731,-1.5406,0.402844,72.6116,-0.00212759,-8.38997e-05,-0.00143083,0,0,0,4.76,1.05,-0.7,-0.03538,0.038918,-1.0137,-0.17304,-0.25564,0.32018
2.77256,0,0,7.22744,7.22744,12.7726,12.7726,-1.54031,0.399526,72.6124,-0.00206967,-7.88192e-05,-0.00143029,0,0,0,4.76,1.12,-0.84,-0.03538,0.038918,-1.0137,-0.17514,-0.25872,0.31934
2.78346,0,0,7.21654,7.21654,12.7835,12.7835,-1.54637,0.396047,72.616,-0.00188748,0.00238016,-0.000940919,0,0,0,4.41,1.26,-0.77,-0.035258,0.04148,-1.01321,-0.17514,-0.25872,0.31934
2.79346,0,0,7.20654,7.20654,12.7935,12.7935,-1.55192,0.392325,72.6193,-0.00182252,0.00228323,-0.000943093,0,0,0,4.55,1.05,-0.84,-0.035258,0.04148,-1.01321,-0.17514,-0.25872,0.31934
2.78844,0,0,7.21156,7.21156,12.7884,12.7884,-1.54914,0.393157,72.6182,0.000471188,-0.00108767,-0.000818928,0,0,0,4.48,1.12,-0.98,-0.03294,0.038064,-1.01309,-0.17514,-0.25872,0.31934
2.78363,0,0,7.21637,7.21637,12.7836,12.7836,-1.54646,0.393958,72.6172,0.000457209,-0.00104099,-0.000817762,0,0,0,4.48,1.12,-0.91,-0.03294,0.038064,-1.01309,-0.17514,-0.25872,0.31934
2.79489,0,0,7.20511,7.20511,12.7949,12.7949,-1.55272,0.351221,72.626,-0.0279535,-0.000783888,0.00557746,0,0,0,4.48,1.19,-0.98,-0.06222,0.03843,-1.00674,-0.17514,-0.25872,0.31934
2.8058,0,0,7.1942,7.1942,12.8058,12.8058,-1.55878,0.309749,72.6347,-0.0272297,-0.000889778,0.00557876,0,0,0,4.34,1.26,-0.91,-0.06222,0.03843,-1.00674,-0.17514,-0.25872,0.31934
2.79628,0,0,7.20372,7.20372,12.7963,12.7963,-1.55349,0.312157,72.6328,0.00127745,-0.00226302,0.00275322,0,0,0,4.34,1.12,-0.84,-0.03355,0.036966,-1.00955,-0.17514,-0.25872,0.31934
2.78672,0,0,7.21328,7.21328,12.7867,12.7867,-1.54818,0.314704,72.6314,0.001233,-0.00217037,0.00275548,0,0,0,4.48,1.26,-1.05,-0.03355,0.036966,-1.00955,-0.1736,-0.25606,0.3192
2.77985,0,0,7.22015,7.22015,12.7799,12.7799,-1.54436,0.31942,72.6304,0.00297298,-0.00137098,-0.00216111,0,0,0,4.27,1.12,-0.91,-0.03172,0.037698,-1.01443,-0.1736,-0.25606,0.3192
2.77284,0,0,7.22716,7.22716,12.7728,12.7728,-1.54046,0.324232,72.6293,0.002889,-0.00130297,-0.00215975,0,0,0,4.41,1.26,-0.98,-0.03172,0.037698,-1.01443,-0.1736,-0.25606,0.3192
2.77017,0,0,7.22983,7.22983,12.7702,12.7702,-1.53898,0.327782,72.6292,0.00209812,-0.000544346,0.0052175,0,0,0,4.41,1.33,-1.05,-0.032452,0.03843,-1.00711,-0.1736,-0.25606,0.3192
2.76786,0,0,7.23214,7.23214,12.7679,12.7679,-1.5377,0.331001,72.6294,0.00204193,-0.000521923,0.00521778,0,0,0,4.34,1.19,-0.91,-0.032452,0.03843,-1.00711,-0.1736,-0.25606,0.3192
2.76131,0,0,7.23869,7.23869,12.7613,12.7613,-1.53406,0.332295,72.6288,0.000804492,-0.00167975,0.00989139,0,0,0,4.48,0.98,-0.91,-0.033672,0.03721,-1.00247,-0.1736,-0.25606,0.3192
2.75435,0,0,7.24565,7.24565,12.7544,12.7544,-1.5302,0.334146,72.6286,0.000772192,-0.00161231,0.00989301,0,0,0,4.69,1.33,-0.7,-0.033672,0.03721,-1.00247,-0.1736,-0.25606,0.3192
2.7527,0,0,7.2473,7.2473,12.7527,12.7527,-1.52928,0.33873,72.6287,0.00287893,-8.64606e-06,0.00177836,0,0,0,4.55,1.33,-0.91,-0.031476,0.038796,-1.01053,-0.1736,-0.25606,0.3192
2.75155,0,0,7.24845,7.24845,12.7515,12.7515,-1.52864,0.34295,72.6189,0.00280528,2.5699e-06,0.00177823,0,0,0,4.41,1.19,-1.19,-0.031476,0.038796,-1.01053,-0.1778,-0.25564,0.30926
2.7434,0,0,7.2566,7.2566,12.7434,12.7434,-1.52411,0.350287,72.6075,0.00462101,-0.00150608,0.00473032,0,0,0,4.41,1.12,-0.98,-0.029524,0.03721,-1.0076,-0.1778,-0.25564,0.30926
2.73585,0,0,7.26415,7.26415,12.7359,12.7359,-1.51992,0.357541,72.5966,0.0044944,-0.00143293,0.00473148,0,0,0,4.34,1.19,-0.77,-0.029524,0.03721,-1.0076,-0.1778,-0.25564,0.30926
2.73089,0,0,7.26911,7.26911,12.7309,12.7309,-1.51716,0.356739,72.5874,-0.000715495,-0.0016291,0.00915899,0,0,0,4.27,1.12,-0.77,-0.03477,0.036966,-1.00321,-0.1778,-0.25564,0.30926
2.72612,0,0,7.27388,7.27388,12.7261,12.7261,-1.51451,0.356181,72.5782,-0.00070576,-0.00158284,0.00916027,0,0,0,4.27,1.26,-0.84,-0.03477,0.036966,-1.00321,-0.1778,-0.25564,0.30926
2.71813,0,0,7.28187,7.28187,12.7181,12.7181,-1.51007,0.358106,72.5684,0.000839966,-0.00199391,0.00252289,0,0,0,4.27,1.26,-0.63,-0.033184,0.036478,-1.00979,-0.1778,-0.25564,0.30926
2.71047,0,0,7.28953,7.28953,12.7105,12.7105,-1.50582,0.35996,72.5588,0.000807601,-0.00191965,0.00252464,0,0,0,4.27,1.26,-0.63,-0.033184,0.036478,-1.00979,-0.1778,-0.25564,0.30926
2.70957,0,0,7.29043,7.29043,12.7096,12.7096,-1.50531,0.366744,72.5496,0.00445526,0.000287416,0.00104874,0,0,0,4.41,1.26,-1.05,-0.029402,0.038674,-1.01126,-0.1778,-0.25564,0.30926
2.70881,0,0,7.29119,7.29119,12.7088,12.7088,-1.5049,0.373338,72.5468,0.00434017,0.000294739,0.00104819,0,0,0,4.41,1.26,-1.05,-0.029402,0.038674,-1.01126,-0.1771,-0.26054,0.3206
2.70721,0,0,7.29279,7.29279,12.7072,12.7072,-1.504,0.377105,72.5448,0.00257363,-5.60621e-05,0.000679321,0,0,0,4.48,1.12,-0.7,-0.03111,0.038308,-1.01162,-0.1771,-0.26054,0.3206
2.70569,0,0,7.29431,7.29431,12.7057,12.7057,-1.50316,0.38077,72.5428,0.00250966,-4.1391e-05,0.000679283,0,0,0,4.48,1.12,-0.7,-0.03111,0.038308,-1.01162,-0.1771,-0.26054,0.3206
2.69816,0,0,7.30184,7.30184,12.6982,12.6982,-1.49898,0.37766,72.5398,-0.00241697,-0.00228876,0.00486181,0,0,0,4.34,1.19,-0.98,-0.036112,0.03599,-1.00748,-0.1771,-0.26054,0.3206
2.69089,0,0,7.30911,7.30911,12.6909,12.6909,-1.49494,0.374612,72.5368,-0.00236377,-0.00221833,0.004864,0,0,0,4.34,1.19,-0.98,-0.036112,0.03599,-1.00748,-0.1771,-0.26054,0.3206
2.69116,0,0,7.30884,7.30884,12.6912,12.6912,-1.49509,0.38216,72.5342,0.00540105,0.00083226,-0.00103847,0,0,0,4.55,0.98,-0.98,-0.028182,0.03904,-1.01333,-0.1771,-0.26054,0.3206
2.69148,0,0,7.30852,7.30852,12.6915,12.6915,-1.49527,0.389514,72.5317,0.00527271,0.000829176,-0.00103942,0,0,0,4.55,0.98,-0.98,-0.028182,0.03904,-1.01333,-0.1771,-0.26054,0.3206
2.68288,0,0,7.31712,7.31712,12.6829,12.6829,-1.49049,0.390254,72.5277,0.000157405,-0.00238493,0.00670842,0,0,0,4.2,1.12,-1.05,-0.033306,0.035746,-1.00565,-0.1771,-0.26054,0.3206
2.67466,0,0,7.32534,7.32534,12.6747,12.6747,-1.48592,0.390947,72.522,0.000145308,-0.00230524,0.00671041,0,0,0,4.2,1.12,-1.05,-0.033306,0.035746,-1.00565,-0.17626,-0.25578,0.32326
2.687,0,0,7.313,7.313,12.687,12.687,-1.49278,0.390464,72.522,0.000275222,0.0030709,0.00265006,0,0,0,4.62,1.19,-0.91,-0.033184,0.041236,-1.00967,-0.17626,-0.25578,0.32326
2.68759,0,0,7.31241,7.31241,12.6876,12.6876,-1.4931,0.387121,72.5193,-0.00221762,-0.000354357,0.0036339,0,0,0,4.27,1.19,-0.98,-0.035746,0.03782,-1.0087,-0.17626,-0.25578,0.32326
2.6879,0,0,7.3121,7.3121,12.6879,12.6879,-1.49328,0.383868,72.5168,-0.00216087,-0.000357381,0.0036342,0,0,0,4.34,1.19,-0.91,-0.035746,0.03782,-1.0087,-0.17626,-0.25578,0.32326
2.68524,0,0,7.31476,7.31476,12.6852,12.6852,-1.4918,0.382096,72.5134,-0.00103656,-0.000820144,0.00584815,0,0,0,4.55,0.98,-0.98,-0.034648,0.037332,-1.0065,-0.17626,-0.25578,0.32326
2.68245,0,0,7.31755,7.31755,12.6824,12.6824,-1.49025,0.380485,72.5102,-0.00100845,-0.000793067,0.00584904,0,0,0,4.62,1.05,-0.91,-0.034648,0.037332,-1.0065,-0.17626,-0.25578,0.32326
2.67319,0,0,7.32681,7.32681,12.6732,12.6732,-1.48511,0.385252,72.5046,0.0027959,-0.00192462,0.00548197,0,0,0,4.55,1.19,-0.91,-0.030744,0.036112,-1.00687,-0.17626,-0.25578,0.32326
2.66568,0,0,7.33432,7.33432,12.6657,12.6657,-1.48094,0.390114,72.4991,0.00271105,-0.00185183,0.00548328,0,0,0,4.13,1.33,-0.84,-0.030744,0.036112,-1.00687,-0.17626,-0.25578,0.32326
2.65956,0,0,7.34044,7.34044,12.6596,12.6596,-1.47753,0.392208,72.4958,0.000973693,-0.00154817,7.48298e-05,0,0,0,4.2,1.33,-0.84,-0.032452,0.036356,-1.01223,-0.17598,-0.25704,0.32228
2.66583,0,0,7.33417,7.33417,12.6658,12.6658,-1.48102,0.396796,72.4953,0.00295888,0.0018106,0.00548244,0,0,0,4.55,1.54,-0.91,-0.030378,0.039772,-1.00687,-0.17598,-0.25704,0.32228
2.67077,0,0,7.32923,7.32923,12.6708,12.6708,-1.48376,0.400558,72.4946,0.00289323,0.00176268,0.00548075,0,0,0,4.9,1.12,-1.05,-0.030378,0.039772,-1.00687,-0.17598,-0.25704,0.32228
2.67296,0,0,7.32704,7.32704,12.673,12.673,-1.48498,0.396848,72.4941,-0.00226592,0.000275958,0.00904615,0,0,0,4.76,1.12,-1.05,-0.035624,0.038308,-1.00333,-0.17598,-0.25704,0.32228
2.6757,0,0,7.3243,7.3243,12.6757,12.6757,-1.4865,0.393599,72.4937,-0.00220921,0.000249341,0.00904585,0,0,0,4.55,1.33,-1.05,-0.035624,0.038308,-1.00333,-0.17598,-0.25704,0.32228
2.67396,0,0,7.32604,7.32604,12.674,12.674,-1.48553,0.392125,72.4917,-0.000847143,-0.000466511,0.00130071,0,0,0,4.55,1.05,-1.19,-0.034282,0.037576,-1.01101,-0.17598,-0.25704,0.32228
2.67249,0,0,7.32751,7.32751,12.6725,12.6725,-1.48472,0.391282,72.4897,-0.000832434,-0.000452319,0.00130118,0,0,0,4.48,1.4,-1.19,-0.034282,0.037576,-1.01101,-0.17598,-0.25704,0.32228
2.67424,0,0,7.32576,7.32576,12.6742,12.6742,-1.48569,0.391452,72.4881,0.000257975,0.000141376,0.00462033,0,0,0,4.2,1.12,-1.19,-0.033184,0.038186,-1.00772,-0.17598,-0.25704,0.32228
2.67615,0,0,7.32385,7.32385,12.6761,12.6761,-1.48675,0.391631,72.4914,0.00025486,0.000122912,0.00461983,0,0,0,4.13,1.12,-0.98,-0.033184,0.038186,-1.00772,-0.17472,-0.25984,0.32242
2.67786,0,0,7.32214,7.32214,12.6779,12.6779,-1.4877,0.390128,72.4945,-0.000812286,-0.00013795,0.00584906,0,0,0,4.06,1.05,-1.12,-0.034282,0.037942,-1.0065,-0.17472,-0.25984,0.32242
2.67882,0,0,7.32118,7.32118,12.6788,12.6788,-1.48823,0.38914,72.4973,-0.000795044,-0.00014729,0.00584894,0,0,0,4.27,1.33,-1.26,-0.034282,0.037942,-1.0065,-0.17472,-0.25984,0.32242
2.67792,0,0,7.32208,7.32208,12.6779,12.6779,-1.48773,0.39099,72.4994,0.00123792,-0.00013854,0.00179165,0,0,0,4.41,1.19,-1.19,-0.032208,0.037942,-1.01053,-0.17472,-0.25984,0.32242
2.67662,0,0,7.32338,7.32338,12.6766,12.6766,-1.48701,0.392916,72.5017,0.00120431,-0.00012589,0.00179175,0,0,0,4.55,1.26,-1.05,-0.032208,0.037942,-1.01053,-0.17472,-0.25984,0.32242
2.67985,0,0,7.32015,7.32015,12.6798,12.6798,-1.4888,0.395341,72.5051,0.00176942,0.000819802,0.00560204,0,0,0,4.41,1.19,-0.91,-0.031598,0.038918,-1.00674,-0.17472,-0.25984,0.32242
2.68208,0,0,7.31792,7.31792,12.6821,12.6821,-1.49004,0.398303,72.5082,0.00171773,0.000798192,0.00560112,0,0,0,4.69,1.54,-1.05,-0.031598,0.038918,-1.00674,-0.17472,-0.25984,0.32242
2.68144,0,0,7.31856,7.31856,12.6814,12.6814,-1.48969,0.397288,72.5109,-0.000815755,-0.000172645,-0.0017755,0,0,0,4.48,1.33,-1.05,-0.03416,0.037942,-1.01406,-0.17472,-0.25984,0.32242
2.68082,0,0,7.31918,7.31918,12.6808,12.6808,-1.48935,0.396536,72.511,-0.000802632,-0.000166658,-0.00177526,0,0,0,4.48,1.47,-1.05,-0.03416,0.037942,-1.01406,-0.17416,-0.25466,0.32494
2.68014,0,0,7.31986,7.31986,12.6801,12.6801,-1.48897,0.396897,72.5111,0.000405919,-0.000160012,0.00301986,0,0,0,4.48,1.05,-0.98,-0.03294,0.037942,-1.00931,-0.17416,-0.25466,0.32494
2.67948,0,0,7.32052,7.32052,12.6795,12.6795,-1.4886,0.397247,72.5111,0.000399805,-0.000153651,0.00301999,0,0,0,4.48,1.05,-0.98,-0.03294,0.037942,-1.00931,-0.17416,-0.25466,0.32494
2.67343,0,0,7.32657,7.32657,12.6734,12.6734,-1.48524,0.400419,72.5092,0.00180228,-0.00131622,0.00425061,0,0,0,4.48,1.26,-1.12,-0.031476,0.036722,-1.00809,-0.17416,-0.25466,0.32494
2.6693,0,0,7.3307,7.3307,12.6693,12.6693,-1.48295,0.403562,72.5082,0.00162593,-0.000787731,0.00548075,0,0,0,4.62,1.47,-0.91,-0.031598,0.03721,-1.00687,-0.17416,-0.25466,0.32494
2.66581,0,0,7.33419,7.33419,12.6658,12.6658,-1.48101,0.406615,72.5073,0.00157266,-0.000753898,0.00548125,0,0,0,4.48,1.47,-0.91,-0.031598,0.03721,-1.00687,-0.17416,-0.25466,0.32494
2.67267,0,0,7.32733,7.32733,12.6727,12.6727,-1.48481,0.404154,72.5097,-0.00142154,0.00137796,0.00326676,0,0,0,4.41,1.26,-0.77,-0.034648,0.039406,-1.00906,-0.17416,-0.25466,0.32494
2.67879,0,0,7.32121,7.32121,12.6788,12.6788,-1.48821,0.401887,72.5119,-0.00138198,0.00131863,0.0032655,0,0,0,4.55,1.33,-0.91,-0.034648,0.039406,-1.00906,-0.17416,-0.25466,0.32494
2.67232,0,0,7.32768,7.32768,12.6723,12.6723,-1.48462,0.401861,72.5105,-0.000531117,-0.00167187,0.00572609,0,0,0,4.55,1.4,-1.05,-0.033794,0.036356,-1.00662,-0.17416,-0.25466,0.32494
2.66588,0,0,7.33412,7.33412,12.6659,12.6659,-1.48105,0.401819,72.5095,-0.000530378,-0.00160947,0.00572772,0,0,0,4.62,1.4,-1.05,-0.033794,0.036356,-1.00662,-0.17458,-0.25578,0.32774
2.66486,0,0,7.33514,7.33514,12.6649,12.6649,-1.48048,0.400468,72.5101,-0.000871257,-0.000500426,0.00511339,0,0,0,4.41,1.12,-0.84,-0.03416,0.037454,-1.00723,-0.17458,-0.25578,0.32774
2.66341,0,0,7.33659,7.33659,12.6634,12.6634,-1.47967,0.398916,72.5108,-0.000844181,-0.000486411,0.00511394,0,0,0,4.55,0.98,-0.7,-0.03416,0.037454,-1.00723,-0.17458,-0.25578,0.32774
2.6555,0,0,7.3445,7.3445,12.6555,12.6555,-1.47528,0.401573,72.5091,0.00141768,-0.00187518,0.0094188,0,0,0,4.55,1.19,-0.91,-0.031842,0.03599,-1.00296,-0.17458,-0.25578,0.32774
2.64768,0,0,7.35232,7.35232,12.6477,12.6477,-1.47093,0.404141,72.5075,0.00137285,-0.00179942,0.00942043,0,0,0,4.62,1.19,-0.91,-0.031842,0.03599,-1.00296,-0.17458,-0.25578,0.32774
2.65557,0,0,7.34443,7.34443,12.6556,12.6556,-1.47532,0.407597,72.5094,0.00264888,0.00227639,0.00154933,0,0,0,4.55,1.26,-0.91,-0.0305,0.040138,-1.01077,-0.17458,-0.25578,0.32774
2.66364,0,0,7.33636,7.33636,12.6636,12.6636,-1.4798,0.411103,72.5112,0.0025877,0.00219821,0.00154688,0,0,0,4.41,1.33,-0.91,-0.0305,0.040138,-1.01077,-0.17458,-0.25578,0.32774
2.6661,0,0,7.3339,7.3339,12.6661,12.6661,-1.48117,0.411879,72.5125,0.000994842,0.000708846,0.00154616,0,0,0,4.48,0.91,-0.7,-0.032086,0.038674,-1.01077,-0.17458,-0.25578,0.32774
2.66936,0,0,7.33064,7.33064,12.6694,12.6694,-1.48298,0.412759,72.5064,0.000979479,0.00067725,0.00154524,0,0,0,4.2,0.98,-0.77,-0.032086,0.038674,-1.01077,-0.1778,-0.25466,0.32396
2.68179,0,0,7.31821,7.31821,12.6818,12.6818,-1.48988,0.409708,72.5029,-0.00151848,0.0025108,0.00228018,0,0,0,4.13,1.19,-0.91,-0.034648,0.040626,-1.01004,-0.1778,-0.25466,0.32396
2.69372,0,0,7.30628,7.30628,12.6937,12.6937,-1.49651,0.40712,72.4991,-0.00147329,0.00239519,0.00227749,0,0,0,4.13,1.4,-1.05,-0.034648,0.040626,-1.01004,-0.1778,-0.25466,0.32396
2.70895,0,0,7.29105,7.29105,12.7089,12.7089,-1.50497,0.403265,72.497,-0.00201346,0.00359096,-6.19207e-05,0,0,0,4.62,1.33,-1.05,-0.035258,0.041968,-1.01236,-0.1778,-0.25466,0.32396
2.72423,0,0,7.27577,7.27577,12.7242,12.7242,-1.51346,0.399313,72.495,-0.00194448,0.00344282,-6.53403e-05,0,0,0,4.41,1.19,-0.98,-0.035258,0.041968,-1.01236,-0.1778,-0.25466,0.32396
2.73302,0,0,7.26698,7.26698,12.733,12.733,-1.51834,0.397555,72.4919,-0.00106339,0.00213636,0.000424412,0,0,0,4.62,1.47,-0.77,-0.034404,0.040748,-1.01187,-0.1778,-0.25466,0.32396
2.74168,0,0,7.25832,7.25832,12.7417,12.7417,-1.52316,0.395622,72.4887,-0.00102966,0.00205239,0.000422417,0,0,0,4.55,1.33,-0.84,-0.034404,0.040748,-1.01187,-0.1778,-0.25466,0.32396
2.73754,0,0,7.26246,7.26246,12.7375,12.7375,-1.52086,0.3936,72.4826,-0.00135882,-0.00120491,0.000546675,0,0,0,4.41,1.05,-0.7,-0.03477,0.037454,-1.01175,-0.1778,-0.25466,0.32396
2.7333,0,0,7.2667,7.2667,12.7333,12.7333,-1.5185,0.392095,72.4844,-0.00133255,-0.00116383,0.000547945,0,0,0,4.48,1.33,-0.84,-0.03477,0.037454,-1.01175,-0.17304,-0.25354,0.32242
2.74039,0,0,7.25961,7.25961,12.7404,12.7404,-1.52244,0.387758,72.4894,-0.00259322,0.00133213,0.00202202,0,0,0,4.41,1.19,-0.7,-0.036112,0.040016,-1.01028,-0.17304,-0.25354,0.32242
2.74785,0,0,7.25215,7.25215,12.7478,12.7478,-1.52658,0.3833,72.4938,-0.0025154,0.00125982,0.00202062,0,0,0,4.2,1.05,-0.98,-0.036112,0.040016,-1.01028,-0.17304,-0.25354,0.32242
2.74281,0,0,7.25719,7.25719,12.7428,12.7428,-1.52379,0.384209,72.4945,0.000505868,-0.00125606,-0.00166664,0,0,0,4.27,1.12,-1.05,-0.033062,0.037454,-1.01394,-0.17304,-0.25354,0.32242
2.73664,0,0,7.26336,7.26336,12.7366,12.7366,-1.52035,0.38567,72.4947,0.000480368,-0.00119619,-0.00166523,0,0,0,4.69,1.47,-1.26,-0.033062,0.037454,-1.01394,-0.17304,-0.25354,0.32242
2.74208,0,0,7.25792,7.25792,12.7421,12.7421,-1.52338,0.387728,72.4979,0.00165931,0.00180424,-0.00105213,0,0,0,4.76,1.26,-1.12,-0.031842,0.040504,-1.01333,-0.17304,-0.25354,0.32242
2.74867,0,0,7.25133,7.25133,12.7487,12.7487,-1.52704,0.389521,72.5015,0.00162802,0.00174036,-0.00105404,0,0,0,4.34,1.12,-0.84,-0.031842,0.040504,-1.01333,-0.17304,-0.25354,0.32242
2.73592,0,0,7.26408,7.26408,12.7359,12.7359,-1.51996,0.397058,72.4992,0.00465511,-0.00253263,0.00116142,0,0,0,4.48,1.12,-1.12,-0.02867,0.036112,-1.01114,-0.17304,-0.25354,0.32242
2.72438,0,0,7.27562,7.27562,12.7244,12.7244,-1.51354,0.40437,72.5008,0.0045275,-0.00242071,0.00116349,0,0,0,4.27,1.12,-1.19,-0.02867,0.036112,-1.01114,-0.17318,-0.25942,0.32158
2.72299,0,0,7.27701,7.27701,12.723,12.723,-1.51277,0.402916,72.5061,-0.000671023,-0.000453259,-0.00166379,0,0,0,4.34,0.91,-1.12,-0.033916,0.038064,-1.01394,-0.17318,-0.25942,0.32158
2.72142,0,0,7.27858,7.27858,12.7214,12.7214,-1.5119,0.401619,72.5114,-0.000648389,-0.000438048,-0.00166323,0,0,0,4.41,0.98,-1.05,-0.033916,0.038064,-1.01394,-0.17318,-0.25942,0.32158
2.71532,0,0,7.28468,7.28468,12.7153,12.7153,-1.50851,0.408219,72.5145,0.00409585,-0.00111166,0.00632916,0,0,0,4.48,1.26,-1.05,-0.029036,0.037332,-1.00601,-0.17318,-0.25942,0.32158
2.71019,0,0,7.28981,7.28981,12.7102,12.7102,-1.50566,0.414873,72.5175,0.00397972,-0.00106184,0.00632964,0,0,0,4.27,1.4,-1.05,-0.029036,0.037332,-1.00601,-0.17318,-0.25942,0.32158
2.70594,0,0,7.29406,7.29406,12.7059,12.7059,-1.5033,0.412913,72.5221,-0.00157441,-0.0012649,0.00350315,0,0,0,4.48,1.26,-0.98,-0.034648,0.037088,-1.00882,-0.17318,-0.25942,0.32158
2.70161,0,0,7.29839,7.29839,12.7016,12.7016,-1.5009,0.410628,72.5264,-0.00153453,-0.001223,0.00350454,0,0,0,4.55,1.05,-1.12,-0.034648,0.037088,-1.00882,-0.17318,-0.25942,0.32158
2.7098,0,0,7.2902,7.2902,12.7098,12.7098,-1.50544,0.406144,72.5338,-0.00230666,0.00162868,-6.24925e-05,0,0,0,4.34,0.91,-1.05,-0.035502,0.040016,-1.01236,-0.17318,-0.25942,0.32158
2.71765,0,0,7.28235,7.28235,12.7177,12.7177,-1.50981,0.402276,72.5372,-0.00223916,0.00155256,-6.40195e-05,0,0,0,4.34,1.19,-0.91,-0.035502,0.040016,-1.01236,-0.17528,-0.25928,0.32004
2.72262,0,0,7.27738,7.27738,12.7226,12.7226,-1.51256,0.404113,72.5392,0.00161632,0.00126019,0.0103851,0,0,0,4.62,1.05,-0.98,-0.031598,0.039772,-1.00199,-0.17528,-0.25928,0.32004
2.72695,0,0,7.27305,7.27305,12.727,12.727,-1.51497,0.406155,72.5411,0.00158069,0.00121815,0.0103837,0,0,0,4.76,1.19,-0.98,-0.031598,0.039772,-1.00199,-0.17528,-0.25928,0.32004
2.72213,0,0,7.27787,7.27787,12.7221,12.7221,-1.51229,0.407681,72.5411,0.000703655,-0.000933342,0.00448326,0,0,0,4.76,1.33,-0.91,-0.032452,0.037576,-1.00784,-0.17528,-0.25928,0.32004
2.71773,0,0,7.28227,7.28227,12.7177,12.7177,-1.50985,0.408787,72.5407,0.000684339,-0.000890699,0.00448425,0,0,0,4.69,1.12,-1.12,-0.032452,0.037576,-1.00784,-0.17528,-0.25928,0.32004
2.70832,0,0,7.29168,7.29168,12.7083,12.7083,-1.50462,0.405739,72.5397,-0.00254257,-0.00263142,0.00608536,0,0,0,4.55,1.26,-1.05,-0.035746,0.035746,-1.00626,-0.17528,-0.25928,0.32004
2.6988,0,0,7.3012,7.3012,12.6988,12.6988,-1.49933,0.402864,72.5386,-0.0024924,-0.00253917,0.00608813,0,0,0,4.69,1.33,-1.05,-0.035746,0.035746,-1.00626,-0.17528,-0.25928,0.32004
2.70556,0,0,7.29444,7.29444,12.7056,12.7056,-1.50309,0.400346,72.541,-0.00171954,0.00166976,-0.00141313,0,0,0,4.69,1.54,-1.33,-0.035014,0.040016,-1.0137,-0.17528,-0.25928,0.32004
2.7136,0,0,7.2864,7.2864,12.7136,12.7136,-1.50756,0.397329,72.5439,-0.00166687,0.00159181,-0.00141482,0,0,0,4.2,1.19,-0.98,-0.035014,0.040016,-1.0137,-0.17528,-0.25928,0.32004
2.71937,0,0,7.28063,7.28063,12.7194,12.7194,-1.51076,0.392071,72.5389,-0.00339739,0.000681007,-0.000309121,0,0,0,4.06,1.26,-0.98,-0.036844,0.039162,-1.0126,-0.17864,-0.2576,0.31906
2.72442,0,0,7.27558,7.27558,12.7244,12.7244,-1.51357,0.386246,72.534,-0.00329573,0.00063203,-0.000309723,0,0,0,4.2,0.84,-0.98,-0.036844,0.039162,-1.0126,-0.17864,-0.2576,0.31906
2.72659,0,0,7.27341,7.27341,12.7266,12.7266,-1.51477,0.378943,72.5289,-0.0046261,0.00012249,-0.00510442,0,0,0,4.48,1.05,-1.05,-0.038308,0.038674,-1.01736,-0.17864,-0.2576,0.31906
2.72861,0,0,7.27139,7.27139,12.7286,12.7286,-1.51589,0.371833,72.5239,-0.00450202,0.000102856,-0.00510412,0,0,0,4.48,1.05,-1.05,-0.038308,0.038674,-1.01736,-0.17864,-0.2576,0.31906
2.72399,0,0,7.27601,7.27601,12.724,12.724,-1.51333,0.375545,72.5156,0.00247938,-0.000951522,0.00460957,0,0,0,4.41,1.05,-1.19,-0.031232,0.037576,-1.00772,-0.17864,-0.2576,0.31906
2.71958,0,0,7.28042,7.28042,12.7196,12.7196,-1.51088,0.37915,72.5075,0.00241646,-0.000908783,0.00461028,0,0,0,4.41,1.05,-1.19,-0.031232,0.037576,-1.00772,-0.17864,-0.2576,0.31906
2.72694,0,0,7.27306,7.27306,12.7269,12.7269,-1.51497,0.373327,72.5042,-0.0035562,0.00146239,-0.000923619,0,0,0,4.55,1.19,-0.91,-0.037332,0.040016,-1.01321,-0.17864,-0.2576,0.31906
2.73397,0,0,7.26603,7.26603,12.734,12.734,-1.51887,0.367672,72.5009,-0.00345751,0.00139426,-0.000924785,0,0,0,4.55,1.19,-0.91,-0.037332,0.040016,-1.01321,-0.17864,-0.2576,0.31906
2.73345,0,0,7.26655,7.26655,12.7334,12.7334,-1.51858,0.366066,72.5081,-0.000999765,-0.000310422,-0.000555624,0,0,0,4.34,1.12,-0.98,-0.034892,0.038308,-1.01284,-0.17304,-0.25998,0.3262
2.7293,0,0,7.2707,7.2707,12.7293,12.7293,-1.51628,0.367699,72.5138,0.000915508,-0.00112513,0.00362551,0,0,0,4.27,1.19,-0.98,-0.03294,0.037454,-1.0087,-0.17304,-0.25998,0.3262
2.72532,0,0,7.27468,7.27468,12.7253,12.7253,-1.51407,0.369053,72.5199,0.000891871,-0.00108656,0.00362637,0,0,0,4.27,1.05,-0.7,-0.03294,0.037454,-1.0087,-0.17304,-0.25998,0.3262
2.70025,0,0,7.29975,7.29975,12.7003,12.7003,-1.50014,0.377502,72.5197,0.00451047,-0.00585073,0.0110087,0,0,0,4.34,1.19,-0.77,-0.029158,0.032452,-1.00138,-0.17304,-0.25998,0.3262
2.67643,0,0,7.32357,7.32357,12.6764,12.6764,-1.48691,0.385562,72.5198,0.0043698,-0.00561982,0.0110138,0,0,0,4.27,1.12,-0.56,-0.029158,0.032452,-1.00138,-0.17304,-0.25998,0.3262
2.67516,0,0,7.32484,7.32484,12.6752,12.6752,-1.4862,0.387336,72.5259,0.00142318,-0.000233927,-0.00177273,0,0,0,4.27,0.98,-0.63,-0.032086,0.03782,-1.01406,-0.17304,-0.25998,0.3262
2.67328,0,0,7.32672,7.32672,12.6733,12.6733,-1.48516,0.389411,72.5315,0.00138697,-0.000215726,-0.00177251,0,0,0,4.48,1.19,-0.84,-0.032086,0.03782,-1.01406,-0.17304,-0.25998,0.3262
2.67066,0,0,7.32934,7.32934,12.6707,12.6707,-1.4837,0.396027,72.5358,0.00443013,-0.000312427,0.0069567,0,0,0,4.41,1.12,-1.05,-0.028914,0.037698,-1.0054,-0.17304,-0.25998,0.3262
2.6688,0,0,7.3312,7.3312,12.6688,12.6688,-1.48267,0.401899,72.5382,0.00432765,-0.000294357,0.00695646,0,0,0,4.2,0.77,-0.63,-0.028914,0.037698,-1.0054,-0.17472,-0.26264,0.31374
2.65672,0,0,7.34328,7.34328,12.6567,12.6567,-1.47596,0.405232,72.5389,0.00220421,-0.00298617,0.0116311,0,0,0,4.34,0.7,-0.49,-0.030988,0.034892,-1.00077,-0.17472,-0.26264,0.31374
2.64536,0,0,7.35464,7.35464,12.6454,12.6454,-1.46965,0.409277,72.5392,0.00213362,-0.00287609,0.0116334,0,0,0,4.27,1.19,-0.7,-0.030988,0.034892,-1.00077,-0.17472,-0.26264,0.31374
2.64816,0,0,7.35184,7.35184,12.6482,12.6482,-1.4712,0.404377,72.5436,-0.00300474,0.000272081,0.000813888,0,0,0,4.41,1.05,-0.91,-0.036234,0.038064,-1.0115,-0.17472,-0.26264,0.31374
2.64969,0,0,7.35031,7.35031,12.6497,12.6497,-1.47205,0.399839,72.5476,-0.00292553,0.000257236,0.000814062,0,0,0,4.76,1.19,-1.12,-0.036234,0.038064,-1.0115,-0.17472,-0.26264,0.31374
2.65884,0,0,7.34116,7.34116,12.6588,12.6588,-1.47713,0.400857,72.5533,0.000701257,0.00224475,0.00720498,0,0,0,4.62,1.54,-0.7,-0.032574,0.040138,-1.00516,-0.17472,-0.26264,0.31374
2.66831,0,0,7.33169,7.33169,12.6683,12.6683,-1.4824,0.401389,72.5586,0.000691973,0.00215289,0.00720254,0,0,0,4.41,1.26,-0.84,-0.032574,0.040138,-1.00516,-0.17472,-0.26264,0.31374
2.66907,0,0,7.33093,7.33093,12.6691,12.6691,-1.48282,0.407118,72.5605,0.0038721,0.000557897,0.0025296,0,0,0,4.41,1.26,-1.26,-0.02928,0.038552,-1.00979,-0.17472,-0.26264,0.31374
2.67002,0,0,7.32998,7.32998,12.67,12.67,-1.48335,0.41295,72.5526,0.00377031,0.000548699,0.00252863,0,0,0,4.34,1.4,-1.26,-0.02928,0.038552,-1.00979,-0.17752,-0.2555,0.3206
2.68119,0,0,7.31881,7.31881,12.6812,12.6812,-1.48955,0.413859,72.5485,0.000960279,0.00263872,0.000189689,0,0,0,4.2,1.33,-0.84,-0.032086,0.040748,-1.01211,-0.17752,-0.2555,0.3206
2.6906,0,0,7.3094,7.3094,12.6906,12.6906,-1.49478,0.415005,72.5442,0.00094028,0.00254758,0.00018717,0,0,0,4.62,1.47,-0.98,-0.032086,0.040748,-1.01211,-0.17752,-0.2555,0.3206
2.68095,0,0,7.31905,7.31905,12.6809,12.6809,-1.48942,0.421664,72.5346,0.00386121,-0.00187755,0.00400016,0,0,0,4.55,1.4,-1.05,-0.029036,0.036234,-1.00833,-0.17752,-0.2555,0.3206
2.67172,0,0,7.32828,7.32828,12.6717,12.6717,-1.48429,0.428128,72.5251,0.00374839,-0.00178811,0.00400165,0,0,0,4.55,1.4,-1.05,-0.029036,0.036234,-1.00833,-0.17752,-0.2555,0.3206
2.67531,0,0,7.32469,7.32469,12.6753,12.6753,-1.48628,0.431668,72.5193,0.00235026,0.0012303,0.00522977,0,0,0,4.69,1.4,-0.98,-0.030378,0.039284,-1.00711,-0.17752,-0.2555,0.3206
2.67969,0,0,7.32031,7.32031,12.6797,12.6797,-1.48871,0.434649,72.5137,0.00229825,0.00118789,0.00522827,0,0,0,4.41,1.12,-0.98,-0.030378,0.039284,-1.00711,-0.17752,-0.2555,0.3206
2.67958,0,0,7.32042,7.32042,12.6796,12.6796,-1.48866,0.434937,72.5075,0.00022796,-3.23442e-05,0.000433269,0,0,0,4.41,1.19,-0.98,-0.032452,0.038064,-1.01187,-0.17752,-0.2555,0.3206
2.67926,0,0,7.32074,7.32074,12.6793,12.6793,-1.48848,0.434736,72.5051,0.000231463,-2.9223e-05,0.000433377,0,0,0,4.48,0.91,-1.05,-0.032452,0.038064,-1.01187,-0.1764,-0.2576,0.3234
2.68638,0,0,7.31362,7.31362,12.6864,12.6864,-1.49244,0.435363,72.5044,0.000827952,0.00161148,0.00325931,0,0,0,4.27,1.12,-1.05,-0.031842,0.039772,-1.00906,-0.1764,-0.2576,0.3234
2.69324,0,0,7.30676,7.30676,12.6932,12.6932,-1.49625,0.435991,72.5037,0.000816985,0.001545,0.00325749,0,0,0,4.27,1.12,-1.05,-0.031842,0.039772,-1.00906,-0.1764,-0.2576,0.3234
2.68491,0,0,7.31509,7.31509,12.6849,12.6849,-1.49162,0.44134,72.499,0.00303187,-0.00191591,0.0098981,0,0,0,4.41,1.33,-0.98,-0.029524,0.036234,-1.00247,-0.1764,-0.2576,0.3234
2.67912,0,0,7.32088,7.32088,12.6791,12.6791,-1.4884,0.439513,72.4961,-0.00179567,-0.00198186,0.0068261,0,0,0,4.2,1.4,-0.77,-0.034404,0.036112,-1.00552,-0.1764,-0.2576,0.3234
2.6742,0,0,7.3258,7.3258,12.6742,12.6742,-1.48567,0.437127,72.4936,-0.00175403,-0.00193421,0.00682765,0,0,0,3.99,1.05,-0.63,-0.034404,0.036112,-1.00552,-0.1764,-0.2576,0.3234
2.67752,0,0,7.32248,7.32248,12.6775,12.6775,-1.48751,0.441149,72.492,0.00291371,0.000842563,0.00707218,0,0,0,4.27,1.12,-0.77,-0.029646,0.038918,-1.00528,-0.1764,-0.2576,0.3234
2.68029,0,0,7.31971,7.31971,12.6803,12.6803,-1.48905,0.4452,72.4907,0.00284302,0.00081571,0.00707093,0,0,0,4.41,1.19,-0.7,-0.029646,0.038918,-1.00528,-0.1764,-0.2576,0.3234
2.67596,0,0,7.32404,7.32404,12.676,12.676,-1.48665,0.441336,72.4856,-0.00255642,-0.0014628,0.000679223,0,0,0,4.34,0.98,-0.84,-0.035136,0.0366,-1.01162,-0.17696,-0.25578,0.31962
2.67132,0,0,7.32868,7.32868,12.6713,12.6713,-1.48407,0.4378,72.4806,-0.0024947,-0.00141784,0.000680862,0,0,0,4.48,1.12,-0.84,-0.035136,0.0366,-1.01162,-0.17696,-0.25578,0.31962
2.66547,0,0,7.33453,7.33453,12.6655,12.6655,-1.48082,0.439622,72.4747,0.00111807,-0.00136112,0.0116245,0,0,0,4.69,1.05,-0.91,-0.031476,0.0366,-1.00077,-0.17696,-0.25578,0.31962
2.65986,0,0,7.34014,7.34014,12.6599,12.6599,-1.4777,0.441383,72.4688,0.00108734,-0.00130672,0.0116257,0,0,0,4.69,1.05,-0.91,-0.031476,0.0366,-1.00077,-0.17696,-0.25578,0.31962
2.6608,0,0,7.3392,7.3392,12.6608,12.6608,-1.47822,0.436923,72.4653,-0.00308682,2.75598e-05,0.00338848,0,0,0,4.76,1.33,-1.05,-0.035746,0.037942,-1.00894,-0.17696,-0.25578,0.31962
2.66167,0,0,7.33833,7.33833,12.6617,12.6617,-1.4787,0.432579,72.4618,-0.00301101,1.91476e-05,0.00338884,0,0,0,4.76,1.33,-1.05,-0.035746,0.037942,-1.00894,-0.17696,-0.25578,0.31962
2.66592,0,0,7.33408,7.33408,12.6659,12.6659,-1.48106,0.429392,72.4591,-0.00222647,0.000588584,0.0102733,0,0,0,4.55,1.4,-0.91,-0.035014,0.038552,-1.00211,-0.17696,-0.25578,0.31962
2.66998,0,0,7.33002,7.33002,12.67,12.67,-1.48332,0.426297,72.4565,-0.00217245,0.000549217,0.0102727,0,0,0,4.55,1.4,-0.91,-0.035014,0.038552,-1.00211,-0.17696,-0.25578,0.31962
2.68516,0,0,7.31484,7.31484,12.6852,12.6852,-1.49176,0.420319,72.4548,-0.00352594,0.0030888,0.00547465,0,0,0,4.41,1.33,-1.19,-0.036478,0.041236,-1.00687,-0.17864,-0.25746,0.32088
2.69604,0,0,7.30396,7.30396,12.696,12.696,-1.4978,0.422433,72.4512,0.0020255,0.00273908,0.00301266,0,0,0,4.34,1.12,-1.05,-0.030866,0.040992,-1.00931,-0.17864,-0.25746,0.32088
2.70652,0,0,7.29348,7.29348,12.7065,12.7065,-1.50362,0.424646,72.4479,0.00198688,0.00263751,0.00300971,0,0,0,4.34,1.19,-0.91,-0.030866,0.040992,-1.00931,-0.17864,-0.25746,0.32088
2.70486,0,0,7.29514,7.29514,12.7049,12.7049,-1.5027,0.422485,72.4427,-0.0014985,-0.000521668,0.000920291,0,0,0,4.55,1.19,-0.84,-0.034404,0.03782,-1.01138,-0.17864,-0.25746,0.32088
