pid_x,pid_y,pid_z,front_left_speed,front_right_speed,back_left_speed,back_right_speed,orientation_x,orientation_y,orientation_z,acceleration_x,acceleration_y,acceleration_z,accel_rejected,mag_rejected,gyro_x,gyro_y,gyro_z,accel_x,accel_y,accel_z,mag_x,mag_y,mag_z
-0.0461529,0,0,15.0462,15.0462,14.9538,14.9538,0.0164832,0.063432,0.00728082,0.0491104,-0.0135797,0.00559392,0,0,3.7275,-0.245,-1.015,0.010126,-0.001708,-1.00711,-0.06916,0.11452,0.46396
-0.0882421,0,0,15.0882,15.0882,14.9118,14.9118,0.031515,0.128734,0.0119522,0.0507648,-0.012951,-0.00264565,0,0,3.4125,-0.0175,-0.9625,0.012932,-0.001342,-1.01528,-0.06916,0.11452,0.46396
-0.146534,0,0,15.1465,15.1465,14.8535,14.8535,0.0523336,0.181937,0.0198094,0.0469206,-0.0178391,0.000794124,0,0,3.43,-4.445,-0.9275,0.010004,-0.006588,-1.01187,-0.06916,0.11452,0.46396
-0.185943,0,0,15.1859,15.1859,14.8141,14.8141,0.0664081,0.243923,0.0250195,0.0480255,-0.0118535,0.00669138,0,0,3.5175,-0.21,-0.805,0.0122,-0.000854,-1.00601,-0.06916,0.11452,0.46396
-0.225515,0,0,15.2255,15.2255,14.7745,14.7745,0.080541,0.305272,0.0301436,0.0469547,-0.0116068,0.00668593,0,0,3.71,0.2275,-0.8575,0.0122,-0.000854,-1.00601,-0.06916,0.11452,0.46396
-0.261989,0,0,15.262,15.262,14.738,14.738,0.0935673,0.361875,0.0444063,0.0435371,-0.010891,-0.00291015,0,0,3.64,0.28,-0.6825,0.00976,-0.000366,-1.01553,-0.07182,0.11158,0.46704
-0.305196,0,0,15.3052,15.3052,14.6948,14.6948,0.108999,0.420438,0.0552909,0.0449448,-0.0133085,0.00556584,0,0,3.3425,-0.0175,-0.7525,0.0122,-0.00305,-1.00711,-0.07182,0.11158,0.46704
-0.339902,0,0,15.3399,15.3399,14.6601,14.6601,0.121393,0.470261,0.0728469,0.0386084,-0.0107717,-0.00329364,0,0,3.3775,0.035,-0.7525,0.00671,-0.000732,-1.01589,-0.07182,0.11158,0.46704
-0.374518,0,0,15.3745,15.3745,14.6255,14.6255,0.133756,0.518967,0.0902802,0.0377583,-0.010556,-0.00330146,0,0,3.5,0.035,-0.805,0.00671,-0.000732,-1.01589,-0.07182,0.11158,0.46704
-0.407568,0,0,15.4076,15.4076,14.5924,14.5924,0.14556,0.568426,0.106093,0.0382315,-0.0101058,-0.00527733,0,0,3.5,0.2275,-0.91,0.008052,-0.000488,-1.01785,-0.07182,0.11158,0.46704
-0.441636,0,0,15.4416,15.4416,14.5584,14.5584,0.157727,0.614765,0.123651,0.0358434,-0.0101377,-0.00233548,0,0,3.6575,0.0875,-0.8225,0.006466,-0.000732,-1.01492,-0.07182,0.11158,0.46704
-0.473537,0,0,15.4735,15.4735,14.5265,14.5265,0.169121,0.660276,0.141264,0.0350492,-0.00993888,-0.00234489,0,0,3.36,0.21,-0.77,0.006466,-0.000732,-1.01492,-0.07182,0.11158,0.46704
-0.517512,0,0,15.5175,15.5175,14.4825,14.4825,0.184826,0.716392,0.142259,0.0433027,-0.013695,0.00489646,0,0,3.2725,0.0525,-0.84,0.015738,-0.004758,-1.00772,-0.06958,0.11438,0.4718
-0.549618,0,0,15.5496,15.5496,14.4504,14.4504,0.196292,0.763713,0.15015,0.0365241,-0.00970901,0.00242616,0,0,3.5175,0.175,-0.8225,0.00976,-0.000976,-1.01016,-0.06958,0.11438,0.4718
-0.586397,0,0,15.5864,15.5864,14.4136,14.4136,0.209428,0.810971,0.157003,0.0366713,-0.0114338,-4.49553e-05,0,0,3.36,0.0875,-0.875,0.010736,-0.002928,-1.0126,-0.06958,0.11438,0.4718
-0.62226,0,0,15.6223,15.6223,14.3777,14.3777,0.222236,0.856968,0.163848,0.0358685,-0.0112104,-5.7482e-05,0,0,3.325,-0.035,-0.875,0.010736,-0.002928,-1.0126,-0.06958,0.11438,0.4718
-0.648322,0,0,15.6483,15.6483,14.3517,14.3517,0.231544,0.902521,0.170144,0.0355595,-0.00811694,-0.000439178,0,0,3.3775,0.0525,-0.8575,0.011224,0,-1.01297,-0.06958,0.11438,0.4718
-0.684356,0,0,15.6844,15.6844,14.3156,14.3156,0.244413,0.946696,0.17708,0.0340597,-0.0111898,0.00188347,0,0,3.36,0.1925,-0.91,0.010492,-0.003294,-1.01065,-0.06958,0.11438,0.4718
-0.720185,0,0,15.7202,15.7202,14.2798,14.2798,0.257209,0.98989,0.183917,0.0333059,-0.0109666,0.00186975,0,0,3.465,0.1925,-0.9625,0.010492,-0.003294,-1.01065,-0.06958,0.11438,0.4718
-0.75244,0,0,15.7524,15.7524,14.2476,14.2476,0.268728,1.03197,0.190743,0.0323287,-0.00954436,0.0037001,0,0,3.6575,0.245,-1.05,0.010248,-0.002074,-1.00882,-0.06958,0.11438,0.4718
-0.784049,0,0,15.784,15.784,14.216,14.216,0.280017,1.07335,0.198023,0.0316066,-0.00934743,0.00368589,0,0,3.6575,0.245,-1.05,0.010248,-0.002074,-1.00882,-0.07336,0.11466,0.46844
-0.80991,0,0,15.8099,15.8099,14.1901,14.1901,0.289254,1.11386,0.20485,0.0317501,-0.00796506,-0.00272173,0,0,3.465,-0.07,-0.945,0.011102,-0.000854,-1.01516,-0.07336,0.11466,0.46844
-0.839578,0,0,15.8396,15.8396,14.1604,14.1604,0.299849,1.15277,0.21248,0.0302207,-0.00900151,-0.00199842,0,0,3.5525,0.0875,-1.015,0.010248,-0.002074,-1.01443,-0.07336,0.11466,0.46844
-0.868738,0,0,15.8687,15.8687,14.1313,14.1313,0.310264,1.19076,0.220096,0.0295577,-0.00881986,-0.00201295,0,0,3.57,0.0525,-1.015,0.010248,-0.002074,-1.01443,-0.07336,0.11466,0.46844
-0.892257,0,0,15.8923,15.8923,14.1077,14.1077,0.318663,1.22664,0.228712,0.0278384,-0.00708571,-0.000428629,0,0,3.5525,0.0875,-1.0675,0.00915,-0.000488,-1.01284,-0.07336,0.11466,0.46844
-0.915413,0,0,15.9154,15.9154,14.0846,14.0846,0.326933,1.26163,0.23764,0.0272278,-0.00694149,-0.0004427,0,0,3.57,0.035,-0.875,0.00915,-0.000488,-1.01284,-0.07336,0.11466,0.46844
-0.93813,0,0,15.9381,15.9381,14.0619,14.0619,0.335046,1.29548,0.246934,0.0263941,-0.00716638,-0.00242388,0,0,3.36,0.07,-0.875,0.008906,-0.000854,-1.0148,-0.07336,0.11466,0.46844
-0.961092,0,0,15.9611,15.9611,14.0389,14.0389,0.343247,1.32846,0.256208,0.0258186,-0.00702337,-0.00243791,0,0,3.5,0,-0.875,0.008906,-0.000854,-1.0148,-0.07336,0.11466,0.46844
-0.978827,0,0,15.9788,15.9788,14.0212,14.0212,0.349581,1.35872,0.257314,0.0238329,-0.00556953,0.00492595,0,0,3.3425,-0.1925,-0.84,0.007442,0.000488,-1.00748,-0.06832,0.11956,0.46662
-1.0091,0,0,16.0091,16.0091,13.9909,13.9909,0.360392,1.39071,0.25688,0.025097,-0.00977755,-0.000990137,0,0,3.185,0.035,-0.7875,0.009272,-0.003904,-1.01333,-0.06832,0.11956,0.46662
-1.03978,0,0,16.0398,16.0398,13.9602,13.9602,0.37135,1.42203,0.256,0.0245505,-0.00958645,-0.00100477,0,0,3.395,0.0525,-1.05,0.009272,-0.003904,-1.01333,-0.06832,0.11956,0.46662
-1.05973,0,0,16.0597,16.0597,13.9403,13.9403,0.378475,1.45526,0.252709,0.0262789,-0.00628693,-0.00323322,0,0,3.395,0.0525,-0.98,0.01159,-0.000732,-1.01553,-0.06832,0.11956,0.46662
-1.07929,0,0,16.0793,16.0793,13.9207,13.9207,0.385459,1.48765,0.249455,0.0257138,-0.00616518,-0.00324855,0,0,3.395,-0.0175,-0.9625,0.01159,-0.000732,-1.01553,-0.06832,0.11956,0.46662
-1.09996,0,0,16.1,16.1,13.9,13.9,0.392844,1.52009,0.245493,0.0256338,-0.00664707,0.00153071,0,0,3.2725,-0.105,-0.91,0.012078,-0.001342,-1.01077,-0.06832,0.11956,0.46662
-1.1203,0,0,16.1203,16.1203,13.8797,13.8797,0.400108,1.55203,0.241394,0.0250766,-0.00652043,0.00151489,0,0,3.29,0.0175,-0.9975,0.012078,-0.001342,-1.01077,-0.06832,0.11956,0.46662
-1.14074,0,0,16.1407,16.1407,13.8593,13.8593,0.407407,1.58161,0.250684,0.0233456,-0.00663745,-0.00464755,0,0,3.29,0.0175,-1.05,0.010858,-0.001586,-1.01687,-0.07266,0.11326,0.46704
-1.2271,0,0,16.2271,16.2271,13.7729,13.7729,0.438248,1.66984,0.207535,0.0689427,-0.0269834,0.00255875,0,0,3.36,-0.0175,-0.9975,0.058194,-0.022448,-1.00967,-0.07266,0.11326,0.46704
-1.31206,0,0,16.3121,16.3121,13.6879,13.6879,0.468593,1.75639,0.164425,0.0674328,-0.0264544,0.00250941,0,0,3.43,0.14,-1.0675,0.058194,-0.022448,-1.00967,-0.07266,0.11326,0.46704
-1.50014,0,0,16.5001,16.5001,13.4999,13.4999,0.535766,2.07306,-0.0863519,0.277789,-0.0658304,-0.0624794,0,0,3.5875,0.175,-0.8225,0.274988,-0.062952,-1.07397,-0.07266,0.11326,0.46704
-1.49995,0,0,16.5,16.5,13.5,13.5,0.535698,2.07266,-0.0862233,0.277796,-0.0658316,-0.0624791,1,0,3.395,-0.2625,-0.8225,0.274988,-0.062952,-1.07397,-0.07266,0.11326,0.46704
-1.49982,0,0,16.4998,16.4998,13.5002,13.5002,0.53565,2.07238,-0.0864237,0.0863394,0.254872,-0.107232,1,0,3.4125,-0.1925,-1.015,0.082716,0.25742,-1.11837,-0.07266,0.11326,0.46704
-1.49995,0,0,16.5,16.5,13.5,13.5,0.535697,2.0727,-0.0865585,0.0863339,0.254873,-0.107232,1,0,3.465,0.1575,-0.98,0.082716,0.25742,-1.11837,-0.07266,0.11326,0.46704
-1.74106,0,0,16.7411,16.7411,13.2589,13.2589,0.621808,1.94437,0.0599125,-0.102403,-0.0744654,0.0159024,0,0,3.29,0,-1.0325,-0.109068,-0.073078,-0.996252,-0.07266,0.11326,0.46704
-1.97932,0,0,16.9793,16.9793,13.0207,13.0207,0.706899,1.81709,0.179547,-0.100183,-0.0729803,0.0159581,0,0,3.6925,-0.49,-1.3475,-0.109068,-0.073078,-0.996252,-0.06762,0.1274,0.48398
-1.54812,0,0,16.5481,16.5481,13.4519,13.4519,0.552898,1.73021,0.256875,-0.0692677,0.137689,-0.0190058,0,0,3.395,-0.5075,-1.365,-0.079544,0.140056,-1.03102,-0.06762,0.1274,0.48398
-1.12425,0,0,16.1243,16.1243,13.8757,13.8757,0.401519,1.64654,0.3343,-0.0678081,0.135049,-0.0189408,0,0,3.1675,0.2975,-1.54,-0.079544,0.140056,-1.03102,-0.06762,0.1274,0.48398
-0.82868,0,0,15.8287,15.8287,14.1713,14.1713,0.295957,1.94199,0.0687288,0.273637,0.104384,-0.0958109,0,0,3.5,0.315,-1.155,0.268522,0.111264,-1.10715,-0.06762,0.1274,0.48398
-0.828961,0,0,15.829,15.829,14.171,14.171,0.296058,1.94258,0.068294,0.273626,0.104386,-0.0958112,1,0,3.5,0.315,-1.155,0.268522,0.111264,-1.10715,-0.06762,0.1274,0.48398
-0.824632,0,0,15.8246,15.8246,14.1754,14.1754,0.294512,1.94331,0.0681001,0.189181,0.100207,-0.0789676,1,0,2.5725,0.4025,-1.015,0.183732,0.107116,-1.09044,-0.06762,0.1274,0.48398
-0.820304,0,0,15.8203,15.8203,14.1797,14.1797,0.292966,1.94405,0.0679061,0.189168,0.10018,-0.0789679,1,0,2.5725,0.4025,-1.015,0.183732,0.107116,-1.09044,-0.06762,0.1274,0.48398
-0.82012,0,0,15.8201,15.8201,14.1799,14.1799,0.2929,1.94481,0.0681023,0.0603799,0.0664718,-0.127041,1,0,3.395,0.42,-0.7875,0.054412,0.073444,-1.13814,-0.06762,0.1274,0.48398
-0.819936,0,0,15.8199,15.8199,14.1801,14.1801,0.292834,1.94558,0.0682985,0.0603666,0.0664706,-0.127042,1,0,3.395,0.42,-0.7875,0.054412,0.073444,-1.13814,-0.07168,0.12502,0.48356
-0.944306,0,0,15.9443,15.9443,14.0557,14.0557,0.337252,1.75145,0.255018,-0.153099,-0.0374166,0.0273638,0,0,3.955,-0.035,-0.07,-0.163358,-0.03111,-0.985028,-0.07168,0.12502,0.48356
-1.31883,0,0,16.3188,16.3188,13.6812,13.6812,0.471011,1.7726,0.251533,0.00920141,-0.0989556,0.16012,0,0,2.6425,-0.6825,-0.175,0,-0.094916,-0.853268,-0.07168,0.12502,0.48356
-1.31449,0,0,16.3145,16.3145,13.6855,13.6855,0.46946,1.77245,0.253164,0.00920394,-0.0989826,0.160121,1,0,2.5375,-0.105,0.0525,0,-0.094916,-0.853268,-0.07168,0.12502,0.48356
-1.30835,0,0,16.3084,16.3084,13.6916,13.6916,0.467269,1.77257,0.255308,0.0174629,-0.080824,0.115982,1,0,2.17,0.0525,0.35,0.008296,-0.076738,-0.897066,-0.07168,0.12502,0.48356
-1.3064,0,0,16.3064,16.3064,13.6936,13.6936,0.466573,1.77224,0.258348,0.0174687,-0.0808361,0.115983,1,0,2.9925,-0.21,0.875,0.008296,-0.076738,-0.897066,-0.07168,0.12502,0.48356
-1.30981,0,0,16.3098,16.3098,13.6902,13.6902,0.467788,1.77115,0.261652,0.0370468,-0.0676252,0.112418,1,0,4.06,-0.6475,1.0325,0.027938,-0.063562,-0.900604,-0.07168,0.12502,0.48356
-1.31865,0,0,16.3186,16.3186,13.6814,13.6814,0.470945,1.77151,0.264127,0.0370406,-0.0675701,0.112417,1,0,5.1625,0.1925,0.5425,0.027938,-0.063562,-0.900604,-0.07168,0.12502,0.48356
-1.33044,0,0,16.3304,16.3304,13.6696,13.6696,0.475157,1.7719,0.266393,0.0168673,-0.0969292,-0.117743,1,0,5.7575,0.21,0.42,0.007686,-0.092964,-1.12899,-0.07168,0.12502,0.48356
-1.34082,0,0,16.3408,16.3408,13.6592,13.6592,0.478865,1.77184,0.268535,0.0168683,-0.0968645,-0.117744,1,0,5.4775,-0.0525,0.35,0.007686,-0.092964,-1.12899,-0.07308,0.13454,0.49798
-1.34714,0,0,16.3471,16.3471,13.6529,13.6529,0.481122,1.77106,0.270161,0.187083,0.171976,-0.247946,1,0,4.6725,-0.4725,0.0525,0.178608,0.175558,-1.25819,-0.07308,0.13454,0.49798
-1.34581,0,0,16.3458,16.3458,13.6542,13.6542,0.480647,1.77065,0.27128,0.18709,0.171968,-0.247946,1,0,3.15,-0.2625,-0.245,0.178608,0.175558,-1.25819,-0.07308,0.13454,0.49798
-1.33867,0,0,16.3387,16.3387,13.6613,13.6613,0.478095,1.77025,0.271829,0.0914882,0.114401,-0.0972106,1,0,1.995,-0.2625,-0.5775,0.082594,0.118096,-1.10861,-0.07308,0.13454,0.49798
-1.32922,0,0,16.3292,16.3292,13.6708,13.6708,0.47472,1.77033,0.271032,0.0914867,0.114342,-0.0972102,1,0,1.5575,0.0175,-1.365,0.082594,0.118096,-1.10861,-0.07308,0.13454,0.49798
-1.70517,0,0,16.7052,16.7052,13.2948,13.2948,0.60899,1.80806,0.233673,0.0347022,-0.1305,-0.0613519,0,0,1.6275,0.0525,-1.575,0.02623,-0.128832,-1.07299,-0.07308,0.13454,0.49798
-2.07801,0,0,17.078,17.078,12.922,12.922,0.742146,1.84554,0.195923,0.0340483,-0.128178,-0.0614002,0,0,2.485,0.385,-1.925,0.02623,-0.128832,-1.07299,-0.07308,0.13454,0.49798
-2.07528,0,0,17.0753,17.0753,12.9247,12.9247,0.741172,1.84657,0.194088,-0.0931651,-0.245925,-0.130743,1,0,2.9225,0.56,-1.9775,-0.101504,-0.24644,-1.1418,-0.07308,0.13454,0.49798
-2.08392,0,0,17.0839,17.0839,12.9161,12.9161,0.744257,1.84735,0.19036,-0.0931787,-0.245871,-0.130745,1,0,5.2325,0.4025,-3.08,-0.101504,-0.24644,-1.1418,-0.06902,0.13958,0.50526
-2.09752,0,0,17.0975,17.0975,12.9025,12.9025,0.749114,1.84814,0.186421,0.0587861,0.0584314,-0.112427,1,0,6.23,0.4025,-3.2025,0.051118,0.057462,-1.12362,-0.06902,0.13958,0.50526
-2.10823,0,0,17.1082,17.1082,12.8918,12.8918,0.75294,1.84815,0.182442,0.058786,0.0584981,-0.112428,1,0,5.6525,-0.0525,-3.22,0.051118,0.057462,-1.12362,-0.06902,0.13958,0.50526
-1.81838,0,0,16.8184,16.8184,13.1816,13.1816,0.649421,1.75842,0.24235,-0.0753483,0.0988268,-0.0483002,0,0,5.4775,-0.3325,-3.185,-0.085156,0.099552,-1.06006,-0.06902,0.13958,0.50526
-1.53419,0,0,16.5342,16.5342,13.4658,13.4658,0.547924,1.67055,0.302484,-0.0738152,0.0970567,-0.0482358,0,0,5.4775,-0.3325,-3.185,-0.085156,0.099552,-1.06006,-0.06902,0.13958,0.50526
-1.31698,0,0,16.317,16.317,13.683,13.683,0.47035,1.66436,0.29219,-0.00518936,0.0698125,-0.064081,0,0,1.9425,0.63,-2.975,-0.016348,0.073688,-1.0758,-0.06902,0.13958,0.50526
-1.10401,0,0,16.104,16.104,13.896,13.896,0.394289,1.65828,0.281952,-0.00508333,0.0684856,-0.0640679,0,0,1.9425,0.63,-2.975,-0.016348,0.073688,-1.0758,-0.06902,0.13958,0.50526
-1.08674,0,0,16.0867,16.0867,13.9133,13.9133,0.38812,1.65846,0.280555,0.0789817,0.0241681,-0.211114,1,0,0,0.07,-1.715,0.068076,0.029524,-1.22171,-0.06902,0.13958,0.50526
-1.06947,0,0,16.0695,16.0695,13.9305,13.9305,0.381952,1.65863,0.279158,0.0789786,0.0240605,-0.211113,1,0,0,0.07,-1.715,0.068076,0.029524,-1.22171,-0.07238,0.1428,0.50932
-1.06276,0,0,16.0628,16.0628,13.9372,13.9372,0.379556,1.65847,0.27974,0.408572,0.218567,-0.0807873,1,0,2.0825,-0.1225,-0.56,0.399062,0.22387,-1.09239,-0.07238,0.1428,0.50932
-1.1812,0,0,16.1812,16.1812,13.8188,13.8188,0.421859,1.65768,0.264053,0.0027022,-0.0378943,-0.0668988,0,0,4.9175,-0.6475,-0.49,-0.00854,-0.033062,-1.0786,-0.07238,0.1428,0.50932
-1.30193,0,0,16.3019,16.3019,13.6981,13.6981,0.464976,1.65683,0.249078,0.00271707,-0.0371421,-0.0669042,0,0,5.8275,-0.7,-0.0875,-0.00854,-0.033062,-1.0786,-0.07238,0.1428,0.50932
-0.592961,0,0,15.593,15.593,14.407,14.407,0.211772,1.68649,0.203467,0.0257678,0.248125,-0.0561967,0,0,6.23,-0.9625,0.2275,0.015128,0.256322,-1.06799,-0.07238,0.1428,0.50932
0.102429,0,0,14.8976,14.8976,15.1024,15.1024,-0.0365818,1.71522,0.157816,0.0252666,0.243792,-0.056205,0,0,6.2475,-1.1025,0.2625,0.015128,0.256322,-1.06799,-0.07238,0.1428,0.50932
0.339189,0,0,14.6608,14.6608,15.3392,15.3392,-0.121139,1.82588,0.0387478,0.101816,0.0835527,-0.088848,0,0,3.99,-0.6825,0.1925,0.09394,0.097722,-1.10032,-0.07238,0.1428,0.50932
0.575262,0,0,14.4247,14.4247,15.5753,15.5753,-0.205451,1.93535,-0.0794332,0.0999063,0.0820822,-0.0889149,0,0,3.2025,0,0.7525,0.09394,0.097722,-1.10032,-0.07238,0.1428,0.50932
0.578944,0,0,14.4211,14.4211,15.5789,15.5789,-0.206766,1.93651,-0.0764844,0.0574875,0.222139,-0.103915,1,0,2.6425,0.6475,0.8225,0.051362,0.237656,-1.1152,-0.07364,0.13804,0.50708
0.58757,0,0,14.4124,14.4124,15.5876,15.5876,-0.209846,1.93696,-0.073143,0.0574797,0.222085,-0.103916,1,0,1.645,0.2275,1.05,0.051362,0.237656,-1.1152,-0.07364,0.13804,0.50708
0.594445,0,0,14.4056,14.4056,15.5944,15.5944,-0.212302,1.93813,-0.0697743,-0.135946,0.0548505,0.197922,1,0,1.995,0.6475,1.0675,-0.142862,0.070638,-0.815692,-0.07364,0.13804,0.50708
0.605708,0,0,14.3943,14.3943,15.6057,15.6057,-0.216324,1.9386,-0.066583,-0.135954,0.0547804,0.197921,1,0,1.12,0.245,0.9625,-0.142862,0.070638,-0.815692,-0.07364,0.13804,0.50708
0.606148,0,0,14.3939,14.3939,15.6061,15.6061,-0.216482,1.93648,-0.0635621,-0.051849,-0.0743104,0.172964,1,0,3.29,-1.2775,0.8575,-0.058438,-0.058316,-0.840458,-0.07364,0.13804,0.50708
0.606122,0,0,14.3939,14.3939,15.6061,15.6061,-0.216472,1.93447,-0.0620718,-0.051814,-0.0743102,0.172965,1,0,3.4125,-1.2075,-0.035,-0.058438,-0.058316,-0.840458,-0.07364,0.13804,0.50708
0.791458,0,0,14.2085,14.2085,15.7915,15.7915,-0.282663,1.94626,-0.0886709,0.00860185,0.0574091,0.046808,0,0,4.34,-1.225,-0.28,0.00244,0.07442,-0.96563,-0.07364,0.13804,0.50708
0.964822,0,0,14.0352,14.0352,15.9648,15.9648,-0.344579,1.95962,-0.116431,0.00836879,0.0563292,0.0467942,0,0,6.0375,-0.14,-0.98,0.00244,0.07442,-0.96563,-0.07364,0.13804,0.50708
0.952843,0,0,14.0472,14.0472,15.9528,15.9528,-0.340301,1.96094,-0.116997,0.13712,0.152273,-0.197013,1,0,5.845,0.7525,-1.225,0.13176,0.17019,-1.20756,-0.06622,0.1554,0.50862
1.07153,0,0,13.9285,13.9285,16.0715,16.0715,-0.382689,1.40446,0.360939,-0.4459,0.0351453,0.147646,0,0,4.8475,1.12,-2.275,-0.463478,0.053924,-0.865834,-0.06622,0.1554,0.50862
1.1971,0,0,13.8029,13.8029,16.1971,16.1971,-0.427535,0.859146,0.838534,-0.436384,0.0343614,0.147829,0,0,3.185,1.6625,-2.52,-0.463478,0.053924,-0.865834,-0.06622,0.1554,0.50862
2.12388,0,0,12.8761,12.8761,17.1239,17.1239,-0.758529,1.03931,0.653881,0.149191,0.308256,0.0148095,0,0,2.6425,1.435,-2.4675,0.127734,0.333304,-0.997716,-0.06622,0.1554,0.50862
3.03434,0,0,11.9657,11.9657,18.0343,18.0343,-1.08369,1.21407,0.466941,0.146142,0.302584,0.0146583,0,0,2.555,0.385,-2.7825,0.127734,0.333304,-0.997716,-0.06622,0.1554,0.50862
2.32592,0,0,12.6741,12.6741,17.3259,17.3259,-0.830685,1.16742,0.475828,-0.0336935,-0.217048,0.0697069,0,0,2.7475,0.2625,-3.115,-0.05368,-0.190198,-0.943182,-0.06622,0.1554,0.50862
1.62756,0,0,13.3724,13.3724,16.6276,16.6276,-0.581271,1.12005,0.485367,-0.0328669,-0.212696,0.0697771,0,0,3.4125,-0.805,-2.5375,-0.05368,-0.190198,-0.943182,-0.06622,0.1554,0.50862
2.3378,0,0,12.6622,12.6622,17.3378,17.3378,-0.83493,0.855146,0.705932,-0.232583,0.233769,0.0213603,0,0,3.8675,-1.085,-2.3275,-0.258884,0.260226,-0.99125,-0.06622,0.1554,0.50862
3.03147,0,0,11.9685,11.9685,18.0315,18.0315,-1.08267,0.599832,0.916791,-0.228127,0.229445,0.0213446,0,0,4.4975,-0.91,-2.2575,-0.258884,0.260226,-0.99125,-0.06272,0.16324,0.51982
4.1531,0,0,10.8469,10.8469,19.1531,19.1531,-1.48325,0.757613,0.748174,0.112924,0.326386,0.164513,0,0,5.215,-0.665,-1.9425,0.086376,0.364048,-0.848998,-0.06272,0.16324,0.51982
5.25786,0,0,9.74214,9.74214,20.2579,20.2579,-1.87781,0.91416,0.578779,0.110192,0.319505,0.164272,0,0,4.6025,0.4025,-1.155,0.086376,0.364048,-0.848998,-0.06272,0.16324,0.51982
5.25604,0,0,9.74396,9.74396,20.256,20.256,-1.87716,0.915647,0.578923,0.0727481,0.0755068,0.146813,1,0,3.7975,0.84,-0.7875,0.0488,0.120292,-0.866322,-0.06272,0.16324,0.51982
5.25429,0,0,9.74571,9.74571,20.2543,20.2543,-1.87653,0.916252,0.579515,0.0727375,0.0755177,0.146813,1,0,3.78,0.315,-0.5425,0.0488,0.120292,-0.866322,-0.06272,0.16324,0.51982
4.43857,0,0,10.5614,10.5614,19.4386,19.4386,-1.5852,1.56396,-0.070557,0.589412,-0.28553,0.183115,0,0,2.905,0.945,-0.2625,0.579012,-0.245464,-0.83021,-0.06272,0.16324,0.51982
3.62932,0,0,11.3707,11.3707,18.6293,18.6293,-1.29618,2.19929,-0.7128,0.57833,-0.280481,0.182878,0,0,4.025,-0.28,0.0875,0.579012,-0.245464,-0.83021,-0.06272,0.16324,0.51982
2.67006,0,0,12.3299,12.3299,17.6701,17.6701,-0.953592,1.80983,-0.396922,-0.331001,-0.321896,0.0440549,0,0,3.8675,-0.1575,0.42,-0.34099,-0.2928,-0.968314,-0.06272,0.16324,0.51982
1.72905,0,0,13.2709,13.2709,16.7291,16.7291,-0.617518,1.42087,-0.0907265,-0.324215,-0.316036,0.0443267,0,0,3.745,-1.4875,0.3675,-0.34099,-0.2928,-0.968314,-0.06916,0.16716,0.51674
1.72314,0,0,13.2769,13.2769,16.7231,16.7231,-0.615407,1.41879,-0.0882619,0.26284,0.0347488,-0.231568,1,0,4.585,-1.26,0.525,0.248514,0.057584,-1.24208,-0.06916,0.16716,0.51674
1.71961,0,0,13.2804,13.2804,16.7196,16.7196,-0.614145,1.41728,-0.0860733,0.262867,0.0347708,-0.231568,1,0,4.1125,-0.9275,0.3675,0.248514,0.057584,-1.24208,-0.06916,0.16716,0.51674
1.71862,0,0,13.2814,13.2814,16.7186,16.7186,-0.613792,1.41756,-0.084024,0.534382,0.114281,-0.168864,1,0,3.605,0.1225,0.2975,0.521184,0.137006,-1.17986,-0.06916,0.16716,0.51674
1.71756,0,0,13.2824,13.2824,16.7176,16.7176,-0.613415,1.4184,-0.0822508,0.534368,0.114288,-0.168864,1,0,3.6225,0.455,0.14,0.521184,0.137006,-1.17986,-0.06916,0.16716,0.51674
1.68562,0,0,13.3144,13.3144,16.6856,16.6856,-0.602008,1.17285,0.0997428,-0.199373,-0.0122815,0.0535257,0,0,2.4325,0.945,0,-0.219966,0.01037,-0.959286,-0.06916,0.16716,0.51674
1.65232,0,0,13.3477,13.3477,16.6523,16.6523,-0.590115,0.932618,0.280095,-0.195181,-0.0120748,0.0536049,0,0,2.87,1.1375,-0.7175,-0.219966,0.01037,-0.959286,-0.06916,0.16716,0.51674
1.65349,0,0,13.3465,13.3465,16.6535,16.6535,-0.590533,0.934307,0.27997,-0.0326627,-0.142147,0.169176,1,0,3.2025,0.9625,-0.9625,-0.05673,-0.11956,-0.844606,-0.06916,0.16716,0.51674
1.65311,0,0,13.3469,13.3469,16.6531,16.6531,-0.590398,0.934826,0.279317,-0.0326718,-0.142145,0.169176,1,0,3.5175,0.28,-1.2775,-0.05673,-0.11956,-0.844606,-0.06916,0.16716,0.51674
1.09801,0,0,13.902,13.902,16.098,16.098,-0.392146,0.891632,0.284722,-0.0300957,-0.161767,0.110079,0,0,3.43,0.1575,-1.6975,-0.0549,-0.142618,-0.903288,-0.07686,0.16212,0.53144
0.551175,0,0,14.4488,14.4488,15.5512,15.5512,-0.196848,0.84903,0.289674,-0.0293522,-0.158359,0.110108,0,0,3.885,-0.0875,-1.82,-0.0549,-0.142618,-0.903288,-0.07686,0.16212,0.53144
0.533689,0,0,14.4663,14.4663,15.5337,15.5337,-0.190603,0.647763,0.442319,-0.155829,-0.00546967,0.0764664,0,0,3.675,-0.0525,-2.275,-0.18544,0.010004,-0.936716,-0.07686,0.16212,0.53144
0.516612,0,0,14.4834,14.4834,15.5166,15.5166,-0.184504,0.45065,0.59464,-0.152389,-0.00536334,0.0764997,0,0,3.675,-0.0525,-2.275,-0.18544,0.010004,-0.936716,-0.07686,0.16212,0.53144
-0.28436,0,0,15.2844,15.2844,14.7156,14.7156,0.101557,0.310235,0.693299,-0.121754,-0.283949,-0.0549123,0,0,3.22,0,-2.1,-0.157136,-0.27328,-1.06713,-0.07686,0.16212,0.53144
-1.07052,0,0,16.0705,16.0705,13.9295,13.9295,0.38233,0.17283,0.7905,-0.119356,-0.279049,-0.0549229,0,0,3.22,0,-2.1,-0.157136,-0.27328,-1.06713,-0.07686,0.16212,0.53144
-1.2702,0,0,16.2702,16.2702,13.7298,13.7298,0.453641,-0.280966,1.18174,-0.408225,-0.0755623,-0.0133829,0,0,1.925,0.8575,-2.38,-0.455182,-0.071248,-1.0259,-0.07686,0.16212,0.53144
-1.46574,0,0,16.4657,16.4657,13.5343,13.5343,0.523479,-0.725799,1.57104,-0.400462,-0.0743441,-0.0134615,0,0,1.925,0.8575,-2.38,-0.455182,-0.071248,-1.0259,-0.07686,0.16212,0.53144
-1.51152,0,0,16.5115,16.5115,13.4885,13.4885,0.539828,-0.591562,1.4353,0.117762,-0.0153155,-0.0107323,0,0,3.185,-4.165,-1.4525,0.067588,-0.012566,-1.02321,-0.07434,0.16464,0.5334
-2.07337,0,0,17.0734,17.0734,12.9266,12.9266,0.740488,-0.320419,1.17314,0.209732,-0.167281,0.105576,0,0,3.8675,-0.6125,-1.2075,0.1647,-0.167872,-0.907802,-0.07434,0.16464,0.5334
-2.63127,0,0,17.6313,17.6313,12.3687,12.3687,0.939738,-0.0545146,0.913428,0.205091,-0.163803,0.10554,0,0,5.215,-0.4375,-1.2075,0.1647,-0.167872,-0.907802,-0.07434,0.16464,0.5334
-2.63692,0,0,17.6369,17.6369,12.3631,12.3631,0.941758,-0.055895,0.913058,0.0674721,-0.117726,-0.384902,1,0,4.5675,-0.84,-1.1025,0.026474,-0.121878,-1.39446,-0.07434,0.16464,0.5334
-2.641,0,0,17.641,17.641,12.359,12.359,0.943215,-0.056658,0.913298,0.0674854,-0.117701,-0.384903,1,0,4.2525,-0.4725,-0.7525,0.026474,-0.121878,-1.39446,-0.07434,0.16464,0.5334
-2.63756,0,0,17.6376,17.6376,12.3624,12.3624,0.941987,-0.056972,0.913485,0.301351,-0.17158,-0.665471,1,0,2.7475,-0.21,-0.7875,0.261324,-0.17568,-1.67286,-0.07434,0.16464,0.5334
-2.63456,0,0,17.6346,17.6346,12.3654,12.3654,0.940915,-0.0558657,0.914505,0.301332,-0.171599,-0.665471,1,0,2.835,0.63,-0.315,0.261324,-0.17568,-1.67286,-0.07434,0.16464,0.5334
-2.62632,0,0,17.6263,17.6263,12.3737,12.3737,0.93797,-0.0557117,0.9153,-0.380449,0.608495,-0.735673,1,0,1.785,0.07,-0.4375,-0.42334,0.603656,-1.74253,-0.07434,0.16464,0.5334
-2.6248,0,0,17.6248,17.6248,12.3752,12.3752,0.937428,-0.0563857,0.9174,-0.380437,0.608486,-0.735673,1,0,3.1325,-0.4025,0.3325,-0.42334,0.603656,-1.74253,-0.0714,0.15904,0.5369
-2.62206,0,0,17.6221,17.6221,12.3779,12.3779,0.936449,-0.05789,0.919128,-0.164531,0.246241,-0.183634,1,0,2.8875,-0.8925,0.1225,-0.206546,0.241804,-1.19475,-0.0714,0.15904,0.5369
-2.62718,0,0,17.6272,17.6272,12.3728,12.3728,0.938278,-0.059339,0.921126,-0.164505,0.246273,-0.183635,1,0,4.4625,-0.8575,0.28,-0.206546,0.241804,-1.19475,-0.0714,0.15904,0.5369
-2.63475,0,0,17.6348,17.6348,12.3652,12.3652,0.940983,-0.0614046,0.922454,-0.787691,-0.205915,0.0736956,1,0,4.9525,-1.225,-0.105,-0.832406,-0.209962,-0.9394,-0.0714,0.15904,0.5369
-2.63848,0,0,17.6385,17.6385,12.3615,12.3615,0.942313,-0.0614386,0.923785,-0.78769,-0.205892,0.0736952,1,0,4.1825,-0.035,-0.1225,-0.832406,-0.209962,-0.9394,-0.0714,0.15904,0.5369
-2.63783,0,0,17.6378,17.6378,12.3622,12.3622,0.942084,-0.0615917,0.925085,-0.708844,-0.407161,-0.0954819,1,0,3.3075,-0.105,-0.14,-0.753228,-0.411018,-1.10727,-0.0714,0.15904,0.5369
-2.63553,0,0,17.6355,17.6355,12.3645,12.3645,0.941261,-0.0597352,0.925908,-0.708876,-0.407175,-0.0954816,1,0,2.975,1.0675,-0.4375,-0.753228,-0.411018,-1.10727,-0.0714,0.15904,0.5369
-2.63271,0,0,17.6327,17.6327,12.3673,12.3673,0.940252,-0.0586753,0.926117,-0.348932,-0.139613,0.218652,1,0,2.87,0.595,-0.7875,-0.391742,-0.143716,-0.795562,-0.0714,0.15904,0.5369
-2.6284,0,0,17.6284,17.6284,12.3716,12.3716,0.938714,-0.0565593,0.925684,-0.348969,-0.13964,0.218653,1,0,2.5725,1.2075,-1.1725,-0.391742,-0.143716,-0.795562,-0.07532,0.14434,0.50848
-2.62898,0,0,17.629,17.629,12.371,12.371,0.938923,-0.0547076,0.924977,-0.122066,-0.0364393,-0.118964,1,0,3.5525,1.05,-1.33,-0.163846,-0.040626,-1.13057,-0.07532,0.14434,0.50848
-2.62642,0,0,17.6264,17.6264,12.3736,12.3736,0.938009,-0.0536888,0.924046,-0.122084,-0.0364552,-0.118964,1,0,2.9225,0.56,-1.4525,-0.163846,-0.040626,-1.13057,-0.07532,0.14434,0.50848
-2.6236,0,0,17.6236,17.6236,12.3764,12.3764,0.937002,-0.0530763,0.922389,-0.261439,0.030819,-0.257649,1,0,2.87,0.315,-1.8725,-0.30378,0.026596,-1.26819,-0.07532,0.14434,0.50848
-2.62288,0,0,17.6229,17.6229,12.3771,12.3771,0.936744,-0.0531122,0.920181,-0.261438,0.0308145,-0.257649,1,0,3.29,-0.07,-2.1875,-0.30378,0.026596,-1.26819,-0.07532,0.14434,0.50848
-2.62172,0,0,17.6217,17.6217,12.3783,12.3783,0.93633,-0.0523788,0.918436,0.475481,0.145606,-0.24769,1,0,3.2025,0.385,-1.925,0.436272,0.141276,-1.25831,-0.07532,0.14434,0.50848
-2.62056,0,0,17.6206,17.6206,12.3794,12.3794,0.935916,-0.0516455,0.91669,0.475468,0.145599,-0.24769,1,0,3.2025,0.385,-1.925,0.436272,0.141276,-1.25831,-0.07532,0.14434,0.50848
-2.6229,0,0,17.6229,17.6229,12.3771,12.3771,0.936751,-0.0510203,0.914253,0.159109,-0.0634672,-0.174659,1,0,3.9025,0.315,-2.3275,0.118584,-0.067588,-1.18584,-0.07532,0.14434,0.50848
-2.62524,0,0,17.6252,17.6252,12.3748,12.3748,0.937586,-0.0503951,0.911816,0.159098,-0.0634526,-0.174659,1,0,3.9025,0.315,-2.3275,0.118584,-0.067588,-1.18584,-0.06818,0.1477,0.51114
-2.62565,0,0,17.6257,17.6257,12.3743,12.3743,0.937734,-0.0488597,0.910354,-0.142456,0.226723,-0.141094,1,0,3.5175,0.8575,-1.7675,-0.18422,0.222284,-1.15253,-0.06818,0.1477,0.51114
-2.62607,0,0,17.6261,17.6261,12.3739,12.3739,0.937881,-0.0473243,0.908892,-0.142483,0.226726,-0.141094,1,0,3.5175,0.8575,-1.7675,-0.18422,0.222284,-1.15253,-0.06818,0.1477,0.51114
-2.62412,0,0,17.6241,17.6241,12.3759,12.3759,0.937185,-0.046968,0.90828,-0.243444,0.332597,-0.0304405,1,0,3.045,0.175,-1.26,-0.285602,0.328058,-1.04273,-0.06818,0.1477,0.51114
-2.62217,0,0,17.6222,17.6222,12.3778,12.3778,0.936489,-0.0466117,0.907668,-0.24345,0.332585,-0.0304403,1,0,3.045,0.175,-1.26,-0.285602,0.328058,-1.04273,-0.06818,0.1477,0.51114
-2.58698,0,0,17.587,17.587,12.413,12.413,0.923923,0.425336,0.485209,0.382347,0.0123935,0.105763,0,0,3.7275,-1.015,-0.4375,0.351116,0.008418,-0.907558,-0.06818,0.1477,0.51114
-2.58951,0,0,17.5895,17.5895,12.4105,12.4105,0.924824,0.423728,0.485975,-0.218251,-0.0366858,-0.187961,1,0,3.9375,-0.9625,-0.4375,-0.252052,-0.040626,-1.19902,-0.06818,0.1477,0.51114
-2.59308,0,0,17.5931,17.5931,12.4069,12.4069,0.926101,0.422146,0.487012,-0.218223,-0.0366635,-0.187961,1,0,4.1475,-0.945,-0.28,-0.252052,-0.040626,-1.19902,-0.06818,0.1477,0.51114
-2.59571,0,0,17.5957,17.5957,12.4043,12.4043,0.927039,0.421362,0.488541,0.0365461,0.00243347,-0.18956,1,0,3.955,-0.4725,0,0.003782,-0.001586,-1.2006,-0.07028,0.1484,0.51114
-2.59677,0,0,17.5968,17.5968,12.4032,12.4032,0.927418,0.421558,0.490446,0.105911,0.0169732,0.152114,1,0,3.64,0.105,0.21,0.073444,0.012932,-0.861564,-0.07028,0.1484,0.51114
-2.59635,0,0,17.5963,17.5963,12.4037,12.4037,0.927267,0.421872,0.492473,0.105906,0.0169705,0.152114,1,0,3.3425,0.175,0.28,0.073444,0.012932,-0.861564,-0.07028,0.1484,0.51114
-2.68218,0,0,17.6822,17.6822,12.3178,12.3178,0.957922,0.567865,0.360428,0.115263,-0.0265826,0.0494213,0,0,3.115,0.1225,0.2975,0.0854,-0.03111,-0.963434,-0.07028,0.1484,0.51114
-2.76905,0,0,17.769,17.769,12.231,12.231,0.988946,0.710491,0.2289,0.112774,-0.0260418,0.0493843,0,0,3.6575,-0.07,0.35,0.0854,-0.03111,-0.963434,-0.07028,0.1484,0.51114
-2.77135,0,0,17.7714,17.7714,12.2286,12.2286,0.989769,0.709972,0.230553,-0.0237668,0.111976,-0.322781,1,0,3.885,-0.315,0.07,-0.051728,0.10675,-1.33273,-0.07028,0.1484,0.51114
-2.77556,0,0,17.7756,17.7756,12.2244,12.2244,0.991272,0.709998,0.231795,-0.0237673,0.112002,-0.322781,1,0,4.27,0,-0.175,-0.051728,0.10675,-1.33273,-0.07028,0.1484,0.51114
-2.78299,0,0,17.783,17.783,12.217,12.217,0.993925,0.709227,0.232514,0.0780512,-0.270453,-0.223071,1,0,4.9175,-0.4725,-0.4725,0.050508,-0.275354,-1.23379,-0.07028,0.1484,0.51114
-2.78769,0,0,17.7877,17.7877,12.2123,12.2123,0.995602,0.709153,0.232645,0.0780525,-0.270423,-0.223071,1,0,4.375,-0.07,-0.8225,0.050508,-0.275354,-1.23379,-0.07504,0.14602,0.50736
-2.78965,0,0,17.7896,17.7896,12.2104,12.2104,0.996303,0.709269,0.232119,0.42963,-0.21924,-0.172417,1,0,3.8325,0.035,-1.2075,0.403576,-0.224236,-1.18352,-0.07504,0.14602,0.50736
-2.79161,0,0,17.7916,17.7916,12.2084,12.2084,0.997005,0.709386,0.231594,0.429628,-0.219228,-0.172417,1,0,3.8325,0.035,-1.2075,0.403576,-0.224236,-1.18352,-0.07504,0.14602,0.50736
-3.05988,0,0,18.0599,18.0599,11.9401,11.9401,1.09281,0.105862,0.769466,-0.458711,-0.0793071,0.209383,0,0,3.5175,0.875,-1.68,-0.499102,-0.086132,-0.804712,-0.07504,0.14602,0.50736
-3.32247,0,0,18.3225,18.3225,11.6775,11.6775,1.1866,-0.486659,1.30425,-0.44837,-0.0776713,0.209316,0,0,3.5175,0.875,-1.68,-0.499102,-0.086132,-0.804712,-0.07504,0.14602,0.50736
-3.28472,0,0,18.2847,18.2847,11.7153,11.7153,1.17311,-1.19387,1.94914,-0.532974,0.0131963,0.263729,0,0,4.2175,0.875,-1.8725,-0.596458,0.00488,-0.750544,-0.07504,0.14602,0.50736
-3.24564,0,0,18.2456,18.2456,11.7544,11.7544,1.15916,-1.88903,2.59291,-0.520846,0.0129462,0.263407,0,0,4.2175,0.875,-1.8725,-0.596458,0.00488,-0.750544,-0.07504,0.14602,0.50736
-2.40809,0,0,17.4081,17.4081,12.5919,12.5919,0.860031,-1.9446,2.69164,-0.028345,0.255157,0.113101,0,0,4.4975,-0.07,-1.96,-0.102846,0.252052,-0.89975,-0.07504,0.14602,0.50736
-2.41498,0,0,17.415,17.415,12.585,12.585,0.862494,-1.94488,2.6896,0.298578,-0.0541467,-0.097019,1,0,4.7775,-0.21,-2.0825,0.225456,-0.056974,-1.10825,-0.0763,0.14056,0.50792
-2.42043,0,0,17.4204,17.4204,12.5796,12.5796,0.864441,-1.94517,2.68805,0.134213,-0.203107,0.251047,1,0,4.4975,-0.21,-1.8025,0.06039,-0.205814,-0.762866,-0.0763,0.14056,0.50792
-2.42801,0,0,17.428,17.428,12.572,12.572,0.867145,-1.94487,2.68717,0.134207,-0.20306,0.251047,1,0,4.935,0.14,-1.4175,0.06039,-0.205814,-0.762866,-0.0763,0.14056,0.50792
-2.43613,0,0,17.4361,17.4361,12.5639,12.5639,0.870047,-1.87271,2.67181,0.0606648,-0.00125557,-0.039931,0,0,4.4625,0,-1.33,-0.0122,-0.00427,-1.05164,-0.0763,0.14056,0.50792
-2.44312,0,0,17.4431,17.4431,12.5569,12.5569,0.872544,-1.80201,2.65742,0.0594315,-0.00121142,-0.0398921,0,0,4.2875,0.035,-0.7875,-0.0122,-0.00427,-1.05164,-0.0763,0.14056,0.50792
-2.41644,0,0,17.4164,17.4164,12.5836,12.5836,0.863015,-1.94784,2.83547,-0.126449,0.00875764,-0.0312435,0,0,4.0075,-0.0875,-0.7175,-0.201422,0.005856,-1.04298,-0.0763,0.14056,0.50792
-2.3908,0,0,17.3908,17.3908,12.6092,12.6092,0.853856,-2.09098,3.01401,-0.123952,0.00859658,-0.0313291,0,0,4.1475,-0.28,-0.21,-0.201422,0.005856,-1.04298,-0.0763,0.14056,0.50792
-2.397,0,0,17.397,17.397,12.603,12.603,0.856071,-2.09179,3.01548,0.440363,0.0607833,-0.0308384,1,0,4.7075,-0.49,-0.035,0.365268,0.05795,-1.04249,-0.0763,0.14056,0.50792
-2.40643,0,0,17.4064,17.4064,12.5936,12.5936,0.859438,-2.09233,3.01702,0.440372,0.060842,-0.0308396,1,0,5.355,-0.3325,0,0.365268,0.05795,-1.04249,-0.0665,0.13818,0.4984
-2.48456,0,0,17.4846,17.4846,12.5154,12.5154,0.887342,-1.95617,2.9476,0.118976,-0.0233039,-0.0605166,0,0,5.8975,-0.49,-0.105,0.044896,-0.026596,-1.07201,-0.0665,0.13818,0.4984
-2.55716,0,0,17.5572,17.5572,12.4428,12.4428,0.913271,-1.8235,2.87905,0.116662,-0.0228504,-0.0604474,0,0,5.11,-0.875,0.2625,0.044896,-0.026596,-1.07201,-0.0665,0.13818,0.4984
-2.01951,0,0,17.0195,17.0195,12.9805,12.9805,0.721253,-1.7662,2.88403,0.0552836,0.163341,0.104874,0,0,4.62,-0.4725,0.2975,-0.015738,0.162748,-0.908046,-0.0665,0.13818,0.4984
-1.49164,0,0,16.4916,16.4916,13.5084,13.5084,0.532728,-1.71053,2.88821,0.0543124,0.160053,0.10494,0,0,4.5675,-0.8575,0,-0.015738,0.162748,-0.908046,-0.0665,0.13818,0.4984
-1.49349,0,0,16.4935,16.4935,13.5065,13.5065,0.53339,-1.70998,2.88973,-0.318172,-0.106904,0.212028,1,0,3.8325,0.2975,-0.0175,-0.38979,-0.103944,-0.801784,-0.0665,0.13818,0.4984
-1.49759,0,0,16.4976,16.4976,13.5024,13.5024,0.534855,-1.70974,2.89052,-0.318177,-0.106879,0.212028,1,0,4.27,0.1225,-0.4375,-0.38979,-0.103944,-0.801784,-0.0665,0.13818,0.4984
-1.70917,0,0,16.7092,16.7092,13.2908,13.2908,0.610416,-1.95102,3.15486,-0.216779,-0.0722216,-0.00942682,0,0,4.5325,0.35,-0.84,-0.29219,-0.070638,-1.02138,-0.0665,0.13818,0.4984
-1.91679,0,0,16.9168,16.9168,13.0832,13.0832,0.684568,-2.18713,3.41553,-0.212661,-0.07093,-0.00959021,0,0,4.5325,0.735,-1.1725,-0.29219,-0.070638,-1.02138,-0.06692,0.13944,0.49798
-2.14149,0,0,17.1415,17.1415,12.8585,12.8585,0.764816,-1.64637,2.96886,0.483495,-0.0748999,0.0397642,0,0,4.935,0.0525,-1.2775,0.416386,-0.076006,-0.972706,-0.06692,0.13944,0.49798
-2.35935,0,0,17.3594,17.3594,12.6406,12.6406,0.842625,-1.11413,2.52409,0.474209,-0.0735393,0.0399689,0,0,4.5675,0.8925,-1.3475,0.416386,-0.076006,-0.972706,-0.06692,0.13944,0.49798
-2.36535,0,0,17.3653,17.3653,12.6347,12.6347,0.844767,-1.1131,2.52262,-0.0884094,0.3929,-0.315967,1,0,4.62,0.56,-1.7675,-0.148596,0.389912,-1.3259,-0.06692,0.13944,0.49798
-2.37422,0,0,17.3742,17.3742,12.6258,12.6258,0.847936,-1.11255,2.52126,-0.0884189,0.392955,-0.315968,1,0,5.1975,0.28,-1.6975,-0.148596,0.389912,-1.3259,-0.06692,0.13944,0.49798
-3.27414,0,0,18.2741,18.2741,11.7259,11.7259,1.16934,-0.829905,2.28954,0.231744,-0.298291,0.0558133,0,0,5.075,0.525,-1.575,0.177876,-0.30622,-0.956968,-0.06692,0.13944,0.49798
-4.15787,0,0,19.1579,19.1579,10.8421,10.8421,1.48495,-0.553,2.06126,0.226912,-0.292783,0.055744,0,0,5.075,0.525,-1.575,0.177876,-0.30622,-0.956968,-0.06692,0.13944,0.49798
-4.16189,0,0,19.1619,19.1619,10.8381,10.8381,1.48639,-0.55194,2.06022,0.299906,-0.32048,0.227871,1,0,4.235,0.5775,-1.5225,0.251198,-0.333914,-0.786168,-0.06692,0.13944,0.49798
-4.16591,0,0,19.1659,19.1659,10.8341,10.8341,1.48783,-0.550879,2.05918,0.299888,-0.320455,0.227871,1,0,4.235,0.5775,-1.5225,0.251198,-0.333914,-0.786168,-0.06986,0.13286,0.48818
-4.1686,0,0,19.1686,19.1686,10.8314,10.8314,1.48879,-0.550077,2.05891,-0.209516,-0.0711777,0.163077,1,0,3.9725,0.4375,-1.0675,-0.260348,-0.084912,-0.850462,-0.06986,0.13286,0.48818
-4.17129,0,0,19.1713,19.1713,10.8287,10.8287,1.48975,-0.549276,2.05865,-0.20953,-0.071161,0.163077,1,0,3.9725,0.4375,-1.0675,-0.260348,-0.084912,-0.850462,-0.06986,0.13286,0.48818
-4.15508,0,0,19.1551,19.1551,10.8449,10.8449,1.48396,-0.456151,2.01239,0.0825973,0.00616676,-0.0737054,0,0,4.55,0.175,-0.525,0.034648,-0.007564,-1.08543,-0.06986,0.13286,0.48818
-4.13915,0,0,19.1391,19.1391,10.8609,10.8609,1.47827,-0.364941,1.96621,0.0810055,0.00606775,-0.0736915,0,0,4.55,0.175,-0.525,0.034648,-0.007564,-1.08543,-0.06986,0.13286,0.48818
-4.15073,0,0,19.1507,19.1507,10.8493,10.8493,1.4824,-0.36426,1.96711,0.256054,0.228166,-0.232543,1,0,5.7575,0.385,-0.385,0.21045,0.214232,-1.24306,-0.06986,0.13286,0.48818
-4.16187,0,0,19.1619,19.1619,10.8381,10.8381,1.48638,-0.364888,1.96782,-0.209832,0.0899883,-0.319838,1,0,5.67,-0.385,-0.4725,-0.25742,0.076128,-1.32968,-0.06986,0.13286,0.48818
-4.17066,0,0,19.1707,19.1707,10.8293,10.8293,1.48952,-0.364297,1.96875,-0.209843,0.090043,-0.319839,1,0,5.1975,0.3325,-0.3675,-0.25742,0.076128,-1.32968,-0.06986,0.13286,0.48818
-4.17804,0,0,19.178,19.178,10.822,10.822,1.49216,-0.36535,1.9697,-0.0318476,0.0583361,-0.450412,1,0,4.9175,-0.63,-0.3325,-0.07869,0.044408,-1.45924,-0.07028,0.12894,0.49266
-4.18046,0,0,19.1805,19.1805,10.8195,10.8195,1.49302,-0.365429,1.96998,-0.0318462,0.0583511,-0.450412,1,0,3.92,-0.07,-0.735,-0.07869,0.044408,-1.45924,-0.07028,0.12894,0.49266
-4.18008,0,0,19.1801,19.1801,10.8199,10.8199,1.49289,-0.365706,1.96983,0.308076,-0.0472908,-0.177344,1,0,3.36,-0.1925,-0.98,0.262666,-0.061122,-1.18828,-0.07028,0.12894,0.49266
-4.17971,0,0,19.1797,19.1797,10.8203,10.8203,1.49275,-0.365984,1.96969,0.30808,-0.0472932,-0.177344,1,0,3.36,-0.1925,-0.98,0.262666,-0.061122,-1.18828,-0.07028,0.12894,0.49266
-4.17998,0,0,19.18,19.18,10.82,10.82,1.49285,-0.539137,2.16214,-0.139731,0.000948012,0.040743,0,0,3.92,0,-1.12,-0.190076,-0.012932,-0.971852,-0.07028,0.12894,0.49266
-4.18652,0,0,19.1865,19.1865,10.8135,10.8135,1.49519,-0.538869,2.16171,0.441695,0.0673036,-0.350357,1,0,4.7425,0.1225,-1.155,0.393816,0.053314,-1.35993,-0.07028,0.12894,0.49266
-4.16973,0,0,19.1697,19.1697,10.8303,10.8303,1.48919,-0.539855,2.16125,0.441712,0.0671989,-0.350355,1,0,0.07,-0.6125,-1.155,0.393816,0.053314,-1.35993,-0.07028,0.12894,0.49266
-4.21885,0,0,19.2189,19.2189,10.7811,10.7811,1.50673,-0.0836839,1.79176,0.412491,-0.0161507,-0.00212916,0,0,4.1475,-0.21,-1.2775,0.372466,-0.030256,-1.01443,-0.07028,0.12894,0.49266
-4.26333,0,0,19.2633,19.2633,10.7367,10.7367,1.52262,0.366356,1.41078,0.404636,-0.015874,-0.00215586,0,0,3.5525,0.07,-1.155,0.372466,-0.030256,-1.01443,-0.07322,0.13804,0.48734
-4.78475,0,0,19.7847,19.7847,10.2153,10.2153,1.70884,0.390903,1.4013,0.0147243,-0.152827,0.115657,0,0,3.5175,0.56,-1.0325,-0.018666,-0.170312,-0.897432,-0.07322,0.13804,0.48734
-5.29676,0,0,20.2968,20.2968,9.70324,9.70324,1.8917,0.414811,1.39208,0.0143071,-0.149637,0.115554,0,0,3.5525,0.525,-0.9625,-0.018666,-0.170312,-0.897432,-0.07322,0.13804,0.48734
-5.54162,0,0,20.5416,20.5416,9.45838,9.45838,1.97915,0.335714,1.47416,-0.0674086,-0.0816744,0.00485793,0,0,3.5,0.6125,-0.7175,-0.102114,-0.103944,-1.00723,-0.07322,0.13804,0.48734
-5.78062,0,0,20.7806,20.7806,9.21938,9.21938,2.06451,0.257018,1.55599,-0.0660352,-0.0801853,0.00481247,0,0,3.2375,-0.105,-0.56,-0.102114,-0.103944,-1.00723,-0.07322,0.13804,0.48734
-5.78033,0,0,20.7803,20.7803,9.21967,9.21967,2.0644,0.257144,1.5563,0.0911651,-0.00373577,0.348454,1,0,3.3775,0.0525,-0.7175,0.055754,-0.027572,-0.666242,-0.07322,0.13804,0.48734
-5.78459,0,0,20.7846,20.7846,9.21541,9.21541,2.06593,0.257179,1.55665,0.0911645,-0.00370924,0.348453,1,0,4.2875,0,-0.7,0.055754,-0.027572,-0.666242,-0.07322,0.13804,0.48734
-5.78492,0,0,20.7849,20.7849,9.21508,9.21508,2.06604,0.257885,1.55746,-0.449581,-0.0309414,0.424066,1,0,3.5,0.4025,-0.4375,-0.487268,-0.054778,-0.591212,-0.07322,0.13804,0.48734
-5.78788,0,0,20.7879,20.7879,9.21212,9.21212,2.0671,0.258567,1.5581,-0.449593,-0.030923,0.424065,1,0,4.025,0.385,-0.5425,-0.487268,-0.054778,-0.591212,-0.06888,0.13342,0.48944
-5.79135,0,0,20.7914,20.7914,9.20865,9.20865,2.06834,0.258652,1.55872,0.258789,0.468719,-0.0135094,1,0,4.13,0.035,-0.5425,0.224114,0.444324,-1.02541,-0.06888,0.13342,0.48944
-5.79255,0,0,20.7925,20.7925,9.20745,9.20745,2.06877,0.258696,1.55882,0.258788,0.468727,-0.0135097,1,0,3.675,0,-0.84,0.224114,0.444324,-1.02541,-0.06888,0.13342,0.48944
-5.79741,0,0,20.7974,20.7974,9.20259,9.20259,2.0705,0.257648,1.55852,0.0492438,-0.10243,0.297918,1,0,4.41,-0.6475,-1.05,0.013664,-0.12627,-0.716384,-0.06888,0.13342,0.48944
-5.79466,0,0,20.7947,20.7947,9.20534,9.20534,2.06952,0.258215,1.55739,0.0492339,-0.102447,0.297918,1,0,2.8875,0.28,-1.575,0.013664,-0.12627,-0.716384,-0.06888,0.13342,0.48944
-5.79156,0,0,20.7916,20.7916,9.20844,9.20844,2.06841,0.257885,1.55628,-0.157408,-0.199801,0.23583,1,0,2.8175,-0.245,-1.54,-0.193858,-0.223504,-0.777994,-0.06888,0.13342,0.48944
-5.7868,0,0,20.7868,20.7868,9.2132,9.2132,2.06671,0.257775,1.55484,-0.157406,-0.199831,0.235831,1,0,2.485,-0.1225,-1.7325,-0.193858,-0.223504,-0.777994,-0.06888,0.13342,0.48944
-5.78316,0,0,20.7832,20.7832,9.21684,9.21684,2.06542,0.257882,1.55318,-0.134204,0.150772,0.496483,1,0,2.7125,0,-1.8725,-0.170556,0.126758,-0.519354,-0.06888,0.13342,0.48944
-5.78014,0,0,20.7801,20.7801,9.21986,9.21986,2.06434,0.257632,1.5515,-0.134199,0.150753,0.496484,1,0,2.835,-0.21,-1.8725,-0.170556,0.126758,-0.519354,-0.06888,0.13342,0.48944
-5.77879,0,0,20.7788,20.7788,9.22121,9.22121,2.06385,0.257757,1.55017,0.116788,-0.0949741,0.302102,1,0,3.1675,0.0175,-1.68,0.081496,-0.118706,-0.712236,-0.06986,0.13314,0.49126
-5.78094,0,0,20.7809,20.7809,9.21906,9.21906,2.06462,0.25765,1.54949,-0.290552,0.144896,-0.524604,1,0,3.8675,-0.105,-1.295,-0.32757,0.120902,-1.53256,-0.06986,0.13314,0.49126
-5.78492,0,0,20.7849,20.7849,9.21508,9.21508,2.06604,0.257013,1.54858,-0.290541,0.144921,-0.524605,1,0,4.235,-0.42,-1.4175,-0.32757,0.120902,-1.53256,-0.06986,0.13314,0.49126
-5.78655,0,0,20.7865,20.7865,9.21345,9.21345,2.06662,0.257545,1.5484,0.27776,-0.194459,-0.177767,1,0,3.7625,0.28,-1.015,0.243146,-0.218136,-1.1884,-0.06986,0.13314,0.49126
-5.78505,0,0,20.785,20.785,9.21495,9.21495,2.06609,0.258272,1.54946,0.277747,-0.194468,-0.177767,1,0,3.1325,0.42,-0.2975,0.243146,-0.218136,-1.1884,-0.06986,0.13314,0.49126
-6.12773,0,0,21.1277,21.1277,8.87227,8.87227,2.18848,0.288294,1.5452,0.0202812,-0.103792,0.0810806,0,0,3.185,0.21,-0.245,-0.014884,-0.129686,-0.93147,-0.06986,0.13314,0.49126
-6.46499,0,0,21.465,21.465,8.53501,8.53501,2.30893,0.3175,1.54202,0.0197715,-0.101692,0.0809954,0,0,3.36,0.1575,0.3325,-0.014884,-0.129686,-0.93147,-0.06986,0.13314,0.49126
-6.46552,0,0,21.4655,21.4655,8.53448,8.53448,2.30911,0.317192,1.54418,0.142356,-0.139181,-0.206458,1,0,3.535,-0.1575,0.3675,0.108214,-0.16714,-1.21671,-0.06986,0.13314,0.49126
-6.46841,0,0,21.4684,21.4684,8.53159,8.53159,2.31015,0.316787,1.54649,0.142363,-0.139163,-0.206459,1,0,4.0075,-0.21,0.455,0.108214,-0.16714,-1.21671,-0.0693,0.13482,0.49476
-6.46869,0,0,21.4687,21.4687,8.53131,8.53131,2.31024,0.316799,1.54887,-0.134989,-0.256892,-0.200312,1,0,3.4825,0.035,0.49,-0.170312,-0.284748,-1.21061,-0.0693,0.13482,0.49476
-6.47114,0,0,21.4711,21.4711,8.52886,8.52886,2.31112,0.316552,1.55097,-0.134985,-0.256876,-0.200312,1,0,3.92,-0.1225,0.3325,-0.170312,-0.284748,-1.21061,-0.0693,0.13482,0.49476
-6.47323,0,0,21.4732,21.4732,8.52677,8.52677,2.31187,0.316245,1.55236,-0.238364,0.40311,-0.272852,1,0,3.85,-0.175,-0.0875,-0.274134,0.37454,-1.28259,-0.0693,0.13482,0.49476
-6.47382,0,0,21.4738,21.4738,8.52618,8.52618,2.31208,0.317082,1.55279,-0.238378,0.403113,-0.272853,1,0,3.5525,0.4725,-0.665,-0.274134,0.37454,-1.28259,-0.0693,0.13482,0.49476
-6.47371,0,0,21.4737,21.4737,8.52629,8.52629,2.31204,0.318224,1.55309,0.366722,-0.0463138,-0.0422012,1,0,3.4125,0.6475,-0.7525,0.333548,-0.07442,-1.05371,-0.0693,0.13482,0.49476
-6.47848,0,0,21.4785,21.4785,8.52152,8.52152,2.31374,0.318097,1.55223,0.366724,-0.0462841,-0.0422024,1,0,4.3925,-0.1225,-1.4,0.333548,-0.07442,-1.05371,-0.0693,0.13482,0.49476
-6.4841,0,0,21.4841,21.4841,8.5159,8.5159,2.31575,0.317762,1.5506,0.111732,0.0359422,0.127588,1,0,4.5675,-0.2625,-1.8375,0.07747,0.007686,-0.885232,-0.0693,0.13482,0.49476
-6.48788,0,0,21.4879,21.4879,8.51212,8.51212,2.3171,0.317672,1.54809,0.111733,0.0359658,0.127587,1,0,4.2,-0.14,-2.3625,0.07747,0.007686,-0.885232,-0.07364,0.14546,0.49924
-6.4921,0,0,21.4921,21.4921,8.5079,8.5079,2.31861,0.318037,1.54542,0.20357,-0.203621,0.190167,1,0,4.2875,0.1225,-2.4675,0.169702,-0.231678,-0.823134,-0.07364,0.14546,0.49924
-6.49631,0,0,21.4963,21.4963,8.50369,8.50369,2.32011,0.318402,1.54274,0.203564,-0.203594,0.190166,1,0,4.2875,0.1225,-2.4675,0.169702,-0.231678,-0.823134,-0.07364,0.14546,0.49924
-6.50122,0,0,21.5012,21.5012,8.49878,8.49878,2.32186,0.31842,1.53979,0.340356,-0.054325,0.207131,1,0,4.4275,-0.0875,-2.625,0.307074,-0.082594,-0.806298,-0.07364,0.14546,0.49924
-6.50613,0,0,21.5061,21.5061,8.49387,8.49387,2.32362,0.318438,1.53683,0.340356,-0.0542944,0.20713,1,0,4.4275,-0.0875,-2.625,0.307074,-0.082594,-0.806298,-0.07364,0.14546,0.49924
-6.51192,0,0,21.5119,21.5119,8.48808,8.48808,2.32569,0.31907,1.53494,0.223354,0.159463,0.162375,1,0,4.6025,0.2975,-2.0125,0.189588,0.130906,-0.850706,-0.07364,0.14546,0.49924
-6.51772,0,0,21.5177,21.5177,8.48228,8.48228,2.32776,0.319703,1.53306,0.223343,0.1595,0.162374,1,0,4.6025,0.2975,-2.0125,0.189588,0.130906,-0.850706,-0.07364,0.14546,0.49924
-6.52451,0,0,21.5245,21.5245,8.47549,8.47549,2.33018,0.319624,1.53322,0.267565,-0.0684687,0.25569,1,0,4.795,-0.07,-0.805,0.233996,-0.096868,-0.758108,-0.07364,0.14546,0.49924
-7.59259,0,0,22.5926,22.5926,7.40741,7.40741,2.71164,0.23672,1.61508,-0.0738204,-0.351013,0.0963089,0,0,4.0075,0.2275,-0.49,-0.110288,-0.385764,-0.915976,-0.07014,0.13818,0.50092
-8.64011,0,0,23.6401,23.6401,6.35989,6.35989,3.08575,0.155476,1.69633,-0.0724025,-0.344492,0.0959835,0,0,3.5525,0.3325,-0.0875,-0.110288,-0.385764,-0.915976,-0.07014,0.13818,0.50092
-7.78421,0,0,22.7842,22.7842,7.21579,7.21579,2.78008,0.10976,1.75528,-0.0329721,0.286216,0.0458494,0,0,3.7275,0.1225,0.14,-0.071492,0.249612,-0.965996,-0.07014,0.13818,0.50092
-6.94328,0,0,21.9433,21.9433,8.05672,8.05672,2.47974,0.0650011,1.8147,-0.0321909,0.28098,0.0460912,0,0,3.7275,0.1225,0.14,-0.071492,0.249612,-0.965996,-0.07014,0.13818,0.50092
-6.77858,0,0,21.7786,21.7786,8.22142,8.22142,2.42092,-0.0146925,1.90332,-0.065302,0.0576835,-0.00353553,0,0,4.8125,-0.315,0.5075,-0.10614,0.027572,-1.01528,-0.07014,0.13818,0.50092
-6.61685,0,0,21.6169,21.6169,8.38315,8.38315,2.36316,-0.0927391,1.9919,-0.0639398,0.0566762,-0.00349474,0,0,4.8125,-0.315,0.5075,-0.10614,0.027572,-1.01528,-0.07014,0.13818,0.50092
-6.6308,0,0,21.6308,21.6308,8.3692,8.3692,2.36814,-0.0854765,1.99384,-0.0423206,0.00754602,0.331414,1,0,6.23,4.27,0.0525,-0.084302,-0.021594,-0.682956,-0.07014,0.13818,0.50092
-6.64475,0,0,21.6447,21.6447,8.35525,8.35525,2.37312,-0.0782141,1.99577,-0.0424474,0.0076329,0.33141,1,0,6.23,4.27,0.0525,-0.084302,-0.021594,-0.682956,-0.07014,0.13818,0.50092
-6.49721,0,0,21.4972,21.4972,8.50279,8.50279,2.32043,-0.0119093,1.96886,0.0595368,0.0517788,-0.0408393,0,0,4.1825,-0.1225,-0.385,0.019276,0.023424,-1.05237,-0.07098,0.1302,0.4991
-6.50216,0,0,21.5022,21.5022,8.49784,8.49784,2.3222,-0.0123934,1.9687,0.151874,-0.18133,-0.202395,1,0,4.4275,-0.315,-0.98,0.111996,-0.209474,-1.21268,-0.07098,0.1302,0.4991
-6.50712,0,0,21.5071,21.5071,8.49288,8.49288,2.32397,-0.0128776,1.96854,0.151883,-0.181299,-0.202396,1,0,4.4275,-0.315,-0.98,0.111996,-0.209474,-1.21268,-0.07098,0.1302,0.4991
-6.51496,0,0,21.515,21.515,8.48504,8.48504,2.32677,-0.0135822,1.96792,0.0690418,-0.0463005,-0.236332,1,0,5.005,-0.455,-1.2425,0.028792,-0.074664,-1.24635,-0.07098,0.1302,0.4991
-6.52708,0,0,21.5271,21.5271,8.47292,8.47292,2.3311,-0.0141736,1.96746,0.208153,0.25958,0.202714,1,0,5.8625,-0.385,-1.155,0.168482,0.230824,-0.81069,-0.07098,0.1302,0.4991
-6.53553,0,0,21.5355,21.5355,8.46447,8.46447,2.33412,-0.0140029,1.96664,0.20815,0.259633,0.202712,1,0,5.1275,0.0525,-1.3825,0.168482,0.230824,-0.81069,-0.07098,0.1302,0.4991
-6.54398,0,0,21.544,21.544,8.45602,8.45602,2.33714,-0.014133,1.96587,-0.0492756,0.228421,0.124023,1,0,5.1275,-0.1225,-1.3475,-0.090036,0.199592,-0.88877,-0.07098,0.1302,0.4991
-6.54684,0,0,21.5468,21.5468,8.45316,8.45316,2.33816,-0.0138374,1.96565,-0.0492808,0.228439,0.124022,1,0,4.0075,0.14,-1.0325,-0.090036,0.199592,-0.88877,-0.07098,0.1302,0.4991
-6.55328,0,0,21.5533,21.5533,8.44672,8.44672,2.34046,-0.0134719,1.96592,0.162341,0.0594556,0.129799,1,0,4.725,0.1925,-0.7525,0.122488,0.030744,-0.883036,-0.07308,0.1337,0.50288
-6.56085,0,0,21.5609,21.5609,8.43915,8.43915,2.34316,-0.0130802,1.96628,0.162334,0.0595028,0.129797,1,0,4.9525,0.21,-0.7,0.122488,0.030744,-0.883036,-0.07308,0.1337,0.50288
-7.11509,0,0,22.1151,22.1151,7.88491,7.88491,2.5411,0.149955,1.84607,0.14321,-0.202671,-0.0525632,0,0,5.4425,0.2975,-0.84,0.10614,-0.234606,-1.06384,-0.07308,0.1337,0.50288
-7.65933,0,0,22.6593,22.6593,7.34067,7.34067,2.73547,0.309551,1.72716,0.140424,-0.199283,-0.0527305,0,0,5.4425,0.2975,-0.84,0.10614,-0.234606,-1.06384,-0.07308,0.1337,0.50288
-7.67207,0,0,22.6721,22.6721,7.32793,7.32793,2.74002,0.310085,1.72762,0.306,-0.21508,-0.181584,1,0,5.985,0.2975,-0.6475,0.272426,-0.250466,-1.1917,-0.07308,0.1337,0.50288
-7.68481,0,0,22.6848,22.6848,7.31519,7.31519,2.74457,0.310619,1.72808,0.30599,-0.215001,-0.181588,1,0,5.985,0.2975,-0.6475,0.272426,-0.250466,-1.1917,-0.07308,0.1337,0.50288
-7.69429,0,0,22.6943,22.6943,7.30571,7.30571,2.74796,0.311256,1.72701,0.113789,-0.187097,-0.0914699,1,0,5.3375,0.315,-1.54,0.079422,-0.22265,-1.10227,-0.07308,0.1337,0.50288
-7.70377,0,0,22.7038,22.7038,7.29623,7.29623,2.75135,0.311893,1.72594,0.113778,-0.187038,-0.0914728,1,0,5.3375,0.315,-1.54,0.079422,-0.22265,-1.10227,-0.07308,0.1337,0.50288
-7.71115,0,0,22.7111,22.7111,7.28885,7.28885,2.75398,0.311049,1.72396,0.0212204,0.350976,-0.0779506,1,0,4.9175,-0.5775,-2.03,-0.013542,0.31476,-1.08885,-0.07224,0.13706,0.49
-7.65289,0,0,22.6529,22.6529,7.34711,7.34711,2.73318,0.55819,1.51983,0.216387,0.0234344,-0.0232538,0,0,5.3025,-0.28,-2.205,0.186782,-0.012078,-1.03456,-0.07224,0.13706,0.49
-7.59079,0,0,22.5908,22.5908,7.40921,7.40921,2.711,0.800826,1.31598,0.212152,0.0230454,-0.0232856,0,0,4.3925,0,-2.24,0.186782,-0.012078,-1.03456,-0.07224,0.13706,0.49
-7.59889,0,0,22.5989,22.5989,7.40111,7.40111,2.71389,0.800657,1.31361,-0.218755,-0.364901,-0.0452957,1,0,5.075,-0.1925,-2.275,-0.245952,-0.399672,-1.0564,-0.07224,0.13706,0.49
-7.60482,0,0,22.6048,22.6048,7.39518,7.39518,2.71601,0.801081,1.31196,-0.218762,-0.364864,-0.0452976,1,0,4.6375,0.175,-1.8725,-0.245952,-0.399672,-1.0564,-0.07224,0.13706,0.49
-7.70017,0,0,22.7002,22.7002,7.29983,7.29983,2.75006,0.859522,1.26574,0.0531964,-0.035628,-0.0672255,0,0,4.62,-0.1925,-1.4,0.028182,-0.07137,-1.07811,-0.07224,0.13706,0.49
-7.79308,0,0,22.7931,22.7931,7.20692,7.20692,2.78324,0.916905,1.22013,0.052195,-0.0350503,-0.067269,0,0,4.48,-0.0875,-1.155,0.028182,-0.07137,-1.07811,-0.07224,0.13706,0.49
-7.7977,0,0,22.7977,22.7977,7.2023,7.2023,2.78489,0.917061,1.22036,-0.302789,0.127773,0.219691,1,0,4.3575,0.07,-0.77,-0.328302,0.091256,-0.793366,-0.07224,0.13706,0.49
-7.80393,0,0,22.8039,22.8039,7.19607,7.19607,2.78712,0.916926,1.22165,-0.302787,0.127812,0.21969,1,0,4.6725,-0.07,-0.14,-0.328302,0.091256,-0.793366,-0.07,0.1344,0.48706
-7.80993,0,0,22.8099,22.8099,7.19007,7.19007,2.78926,0.916791,1.22355,0.0230404,0.301514,-0.102806,1,0,4.62,-0.0525,0.21,-0.001098,0.26474,-1.11337,-0.07,0.1344,0.48706
-7.81664,0,0,22.8166,22.8166,7.18336,7.18336,2.79166,0.916646,1.22566,0.023043,0.301556,-0.102808,1,0,4.76,-0.0525,0.3325,-0.001098,0.26474,-1.11337,-0.07,0.1344,0.48706
-6.90515,0,0,21.9052,21.9052,8.09485,8.09485,2.46613,0.98507,1.17433,0.0586591,0.31139,0.0502576,0,0,4.5675,-0.0525,0.77,0.035868,0.280234,-0.961726,-0.07,0.1344,0.48706
-6.01277,0,0,21.0128,21.0128,8.98723,8.98723,2.14742,1.05275,1.12289,0.057478,0.305832,0.0504605,0,0,5.25,0.2625,0.9625,0.035868,0.280234,-0.961726,-0.07,0.1344,0.48706
-5.63586,0,0,20.6359,20.6359,9.36414,9.36414,2.01281,1.27886,0.932409,0.20053,0.137145,-0.0178939,0,0,5.2325,0.7525,1.225,0.183488,0.11407,-1.02956,-0.07,0.1344,0.48706
-5.26558,0,0,20.2656,20.2656,9.73442,9.73442,1.88057,1.49947,0.74053,0.196681,0.134836,-0.0179088,0,0,5.285,0.0875,0.7525,0.183488,0.11407,-1.02956,-0.07,0.1344,0.48706
-5.27189,0,0,20.2719,20.2719,9.72811,9.72811,1.88282,1.50014,0.742336,0.155971,-0.0538107,0.300772,1,0,4.6725,0.4025,0.14,0.142618,-0.07442,-0.713334,-0.07,0.1344,0.48706
-5.27403,0,0,20.274,20.274,9.72597,9.72597,1.88358,1.50076,0.743299,0.155961,-0.0537974,0.300771,1,0,3.85,0.35,-0.35,0.142618,-0.07442,-0.713334,-0.07126,0.1316,0.4893
-5.279,0,0,20.279,20.279,9.721,9.721,1.88536,1.50146,0.743454,-0.0210561,0.0230512,0.183354,1,0,4.4275,0.385,-0.8225,-0.035136,0.002318,-0.829844,-0.07126,0.1316,0.4893
-5.28073,0,0,20.2807,20.2807,9.71927,9.71927,1.88597,1.501,0.742371,-0.0210482,0.023062,0.183354,1,0,3.7975,-0.315,-1.5225,-0.035136,0.002318,-0.829844,-0.07126,0.1316,0.4893
-5.84643,0,0,20.8464,20.8464,9.15357,9.15357,2.08801,1.42876,0.811232,-0.0634011,-0.195929,0.00535761,0,0,4.095,-0.035,-1.645,-0.078934,-0.219966,-1.00638,-0.07126,0.1316,0.4893
-6.40418,0,0,21.4042,21.4042,8.59582,8.59582,2.28721,1.35747,0.878798,-0.0621573,-0.192455,0.00525517,0,0,4.5325,-0.3325,-1.96,-0.078934,-0.219966,-1.00638,-0.07126,0.1316,0.4893
-6.41121,0,0,21.4112,21.4112,8.58879,8.58879,2.28972,1.35744,0.877008,0.0265278,-0.336154,-0.0860973,1,0,4.865,-0.0875,-1.9425,0.010126,-0.36356,-1.09702,-0.07126,0.1316,0.4893
-6.4172,0,0,21.4172,21.4172,8.5828,8.5828,2.29186,1.35728,0.875543,0.0265307,-0.336117,-0.0860987,1,0,4.655,-0.1575,-1.75,0.010126,-0.36356,-1.09702,-0.07126,0.1316,0.4893
-6.42187,0,0,21.4219,21.4219,8.57813,8.57813,2.29352,1.35751,0.873913,-0.119621,-0.154241,-0.152615,1,0,4.3925,0.07,-1.855,-0.13664,-0.181902,-1.16303,-0.07126,0.1316,0.4893
-6.42595,0,0,21.426,21.426,8.57405,8.57405,2.29498,1.35764,0.87261,-0.119623,-0.154216,-0.152616,1,0,4.27,0.0175,-1.6625,-0.13664,-0.181902,-1.16303,-0.07462,0.133,0.4886
-6.42846,0,0,21.4285,21.4285,8.57154,8.57154,2.29588,1.35813,0.871351,-0.115744,0.00309932,-0.172043,1,0,3.955,0.2275,-1.645,-0.132736,-0.024766,-1.1823,-0.07462,0.133,0.4886
-6.43341,0,0,21.4334,21.4334,8.56659,8.56659,2.29765,1.3579,0.869973,-0.11574,0.00313014,-0.172044,1,0,4.445,-0.1925,-1.6975,-0.132736,-0.024766,-1.1823,-0.07462,0.133,0.4886
-6.43829,0,0,21.4383,21.4383,8.56171,8.56171,2.29939,1.35755,0.86877,-0.0874276,0.531725,-0.225036,1,0,4.4275,-0.2625,-1.5925,-0.10431,0.50325,-1.23488,-0.07462,0.133,0.4886
-6.44257,0,0,21.4426,21.4426,8.55743,8.55743,2.30092,1.35781,0.867862,-0.0874322,0.531752,-0.225037,1,0,4.305,0.105,-1.435,-0.10431,0.50325,-1.23488,-0.07462,0.133,0.4886
-6.44557,0,0,21.4456,21.4456,8.55443,8.55443,2.30199,1.35883,0.867465,0.247122,-0.112448,-0.170695,1,0,4.0425,0.56,-1.155,0.231678,-0.1403,-1.18096,-0.07462,0.133,0.4886
-6.44491,0,0,21.4449,21.4449,8.55509,8.55509,2.30175,1.35851,0.867104,0.247127,-0.112452,-0.170695,1,0,3.3075,-0.2275,-1.1025,0.231678,-0.1403,-1.18096,-0.07462,0.133,0.4886
-6.60338,0,0,21.6034,21.6034,8.39662,8.39662,2.35835,1.46078,0.781183,0.0814586,-0.0506483,0.0499138,0,0,2.9925,-0.21,-1.3125,0.0671,-0.079544,-0.96197,-0.07462,0.133,0.4886
-6.75819,0,0,21.7582,21.7582,8.24181,8.24181,2.41364,1.56115,0.70751,0.0797074,-0.0496864,0.0498275,0,0,2.835,-0.2275,-1.2775,0.0671,-0.079544,-0.96197,-0.0728,0.12488,0.49616
-6.45037,0,0,21.4504,21.4504,8.54963,8.54963,2.3037,1.46298,0.802311,-0.0869588,0.110095,-0.0801279,0,0,3.115,0.105,-1.3825,-0.101992,0.081984,-1.09105,-0.0728,0.12488,0.49616
-6.15064,0,0,21.1506,21.1506,8.84936,8.84936,2.19666,1.36659,0.896845,-0.0852771,0.10823,-0.0800131,0,0,3.64,-0.0175,-1.645,-0.101992,0.081984,-1.09105,-0.0728,0.12488,0.49616
-6.17512,0,0,21.1751,21.1751,8.82488,8.82488,2.2054,1.11348,1.1333,-0.231989,-0.0115422,-0.0655384,0,0,4.0425,-0.35,-1.33,-0.25376,-0.03782,-1.07677,-0.0728,0.12488,0.49616
-6.20071,0,0,21.2007,21.2007,8.79929,8.79929,2.21454,0.865668,1.37009,-0.227664,-0.01138,-0.0654699,0,0,4.3925,-0.175,-0.7525,-0.25376,-0.03782,-1.07677,-0.0728,0.12488,0.49616
-5.98867,0,0,20.9887,20.9887,9.01133,9.01133,2.13881,0.642834,1.58877,-0.187087,0.073645,0.0218019,0,0,4.34,0.1575,-0.4375,-0.216916,0.048434,-0.990274,-0.0728,0.12488,0.49616
-5.77511,0,0,20.7751,20.7751,9.22489,9.22489,2.06254,0.424643,1.80772,-0.183279,0.072316,0.0218862,0,0,3.325,0.28,-0.3325,-0.216916,0.048434,-0.990274,-0.0728,0.12488,0.49616
-5.77396,0,0,20.774,20.774,9.22604,9.22604,2.06213,0.42433,1.8169,0.369851,0.335003,-0.0946687,1,0,3.1675,-0.0175,4.4625,0.33855,0.310856,-1.10593,-0.0728,0.12488,0.49616
-5.77258,0,0,20.7726,20.7726,9.22742,9.22742,2.06163,0.42365,1.81884,0.369863,0.334995,-0.0946683,1,0,3.15,-0.385,0.245,0.33855,0.310856,-1.10593,-0.0728,0.12488,0.49616
-4.45834,0,0,19.4583,19.4583,10.5417,10.5417,1.59227,0.591229,1.69263,0.156404,0.461268,0.0933093,0,0,2.3975,0.0525,0.6475,0.127124,0.445178,-0.919636,-0.07028,0.12936,0.49714
-4.45969,0,0,19.4597,19.4597,10.5403,10.5403,1.59275,0.590888,1.69476,-0.322852,0.0169794,-0.337502,1,0,3.6925,-0.1925,0.35,-0.354166,0.001342,-1.34712,-0.07028,0.12936,0.49714
-4.46139,0,0,19.4614,19.4614,10.5386,10.5386,1.59335,0.590364,1.69704,-0.322842,0.01699,-0.337503,1,0,3.7625,-0.2975,0.4375,-0.354166,0.001342,-1.34712,-0.07028,0.12936,0.49714
-4.46282,0,0,19.4628,19.4628,10.5372,10.5372,1.59386,0.590682,1.69913,-0.0536357,-0.202096,-0.251685,1,0,3.71,0.1925,0.315,-0.083814,-0.217526,-1.26197,-0.07028,0.12936,0.49714
-4.46317,0,0,19.4632,19.4632,10.5368,10.5368,1.59399,0.591065,1.69997,-0.0536424,-0.202094,-0.251685,1,0,3.5,0.21,-0.42,-0.083814,-0.217526,-1.26197,-0.07028,0.12936,0.49714
-4.71381,0,0,19.7138,19.7138,10.2862,10.2862,1.6835,0.760803,1.56992,0.142632,-0.0847576,0.0248695,0,0,3.3075,0.4025,-0.77,0.116266,-0.10187,-0.987468,-0.07028,0.12936,0.49714
-4.95847,0,0,19.9585,19.9585,10.0415,10.0415,1.77088,0.926921,1.44016,0.139733,-0.0832347,0.0247809,0,0,3.0275,0.28,-1.0325,0.116266,-0.10187,-0.987468,-0.07028,0.12936,0.49714
-4.95577,0,0,19.9558,19.9558,10.0442,10.0442,1.76992,0.926734,1.43906,0.0512946,0.131325,0.341128,1,0,2.905,-0.1575,-1.54,0.02745,0.112484,-0.673562,-0.07028,0.12936,0.49714
-4.95643,0,0,19.9564,19.9564,10.0436,10.0436,1.77015,0.927063,1.43671,0.0512888,0.131329,0.341128,1,0,3.5875,0.1225,-2.275,0.02745,0.112484,-0.673562,-0.07364,0.12852,0.4956
-4.96285,0,0,19.9628,19.9628,10.0372,10.0372,1.77245,0.926557,1.43433,0.188941,0.220033,0.144655,1,0,4.7425,-0.3675,-2.275,0.165676,0.201056,-0.868518,-0.07364,0.12852,0.4956
-4.96757,0,0,19.9676,19.9676,10.0324,10.0324,1.77413,0.926789,1.43126,0.188937,0.220063,0.144654,1,0,4.41,0.0525,-2.695,0.165676,0.201056,-0.868518,-0.07364,0.12852,0.4956
-4.37429,0,0,19.3743,19.3743,10.6257,10.6257,1.56224,0.683477,1.65879,-0.187796,0.189256,0.126994,0,0,4.69,0.0875,-2.52,-0.216916,0.173972,-0.886208,-0.07364,0.12852,0.4956
-3.78586,0,0,18.7859,18.7859,11.2141,11.2141,1.35209,0.445417,1.88773,-0.183641,0.185591,0.127128,0,0,3.6575,0.455,-2.485,-0.216916,0.173972,-0.886208,-0.07364,0.12852,0.4956
-4.30371,0,0,19.3037,19.3037,10.6963,10.6963,1.53704,0.462744,1.89296,0.0116482,-0.185379,-0.0171745,0,0,3.5875,-0.4375,-2.4325,-0.020496,-0.199836,-1.02931,-0.07364,0.12852,0.4956
-4.80839,0,0,19.8084,19.8084,10.1916,10.1916,1.71728,0.480087,1.8988,0.0113456,-0.182235,-0.0172663,0,0,2.7825,-0.1575,-2.1,-0.020496,-0.199836,-1.02931,-0.07364,0.12852,0.4956
-5.61235,0,0,20.6123,20.6123,9.38765,9.38765,2.00441,0.595196,1.81873,0.099236,-0.302773,-0.0205215,0,0,1.82,0.175,-1.6275,0.069784,-0.325252,-1.03236,-0.07364,0.12852,0.4956
-6.41183,0,0,21.4118,21.4118,8.58817,8.58817,2.28994,0.704319,1.73623,0.0973316,-0.297794,-0.0207298,0,0,3.745,-0.77,-1.1025,0.069784,-0.325252,-1.03236,-0.06888,0.13118,0.49126
-6.41345,0,0,21.4135,21.4135,8.58655,8.58655,2.29052,0.703091,1.73598,0.273143,0.192433,-0.127203,1,0,3.7625,-0.7525,-1.015,0.246318,0.164456,-1.13802,-0.06888,0.13118,0.49126
-6.41842,0,0,21.4184,21.4184,8.58158,8.58158,2.29229,0.702708,1.73628,0.27315,0.192464,-0.127205,1,0,4.4275,-0.245,-0.7175,0.246318,0.164456,-1.13802,-0.06888,0.13118,0.49126
-6.42375,0,0,21.4237,21.4237,8.57625,8.57625,2.2942,0.702331,1.73718,-0.0113634,0.225715,-0.147861,1,0,4.4975,-0.2275,-0.3675,-0.039406,0.19764,-1.15851,-0.06888,0.13118,0.49126
-6.42418,0,0,21.4242,21.4242,8.57582,8.57582,2.29435,0.703194,1.73771,-0.0113785,0.225718,-0.147861,1,0,3.5175,0.49,-0.6125,-0.039406,0.19764,-1.15851,-0.06888,0.13118,0.49126
-6.42618,0,0,21.4262,21.4262,8.57382,8.57382,2.29506,0.703097,1.73835,0.11752,-0.17973,-0.114051,1,0,3.8325,-0.07,-0.525,0.090036,-0.2074,-1.12496,-0.06888,0.13118,0.49126
-6.42044,0,0,21.4204,21.4204,8.57956,8.57956,2.29301,0.702967,1.73979,0.117522,-0.179766,-0.11405,1,0,2.275,-0.07,-0.0525,0.090036,-0.2074,-1.12496,-0.06888,0.13118,0.49126
-7.42637,0,0,22.4264,22.4264,7.57363,7.57363,2.65228,0.374661,2.04119,-0.28409,-0.341912,0.134336,0,0,2.0825,-0.28,0.035,-0.31903,-0.375638,-0.878278,-0.06888,0.13118,0.49126
-8.42807,0,0,23.4281,23.4281,6.57193,6.57193,3.01002,0.0540539,2.34952,-0.278494,-0.335675,0.134048,0,0,4.515,-0.49,0.245,-0.31903,-0.375638,-0.878278,-0.07504,0.12292,0.48356
-7.98064,0,0,22.9806,22.9806,7.01936,7.01936,2.85023,0.15778,2.29941,0.0939927,0.15774,0.000911159,0,0,4.1825,0.1225,0.1225,0.056852,0.120048,-1.01053,-0.07504,0.12292,0.48356
-7.55042,0,0,22.5504,22.5504,7.44958,7.44958,2.69658,0.258652,2.24869,0.0922322,0.155061,0.00103452,0,0,6.055,-0.42,-0.035,0.056852,0.120048,-1.01053,-0.07504,0.12292,0.48356
-6.29736,0,0,21.2974,21.2974,8.70264,8.70264,2.24906,0.192244,2.33946,-0.0429157,0.450377,0.0594078,0,0,5.1975,0.245,-0.14,-0.080032,0.422852,-0.952942,-0.07504,0.12292,0.48356
-5.05721,0,0,20.0572,20.0572,9.94279,9.94279,1.80615,0.127334,2.43141,-0.0417828,0.442652,0.0596844,0,0,3.7625,0.35,-0.1575,-0.080032,0.422852,-0.952942,-0.07504,0.12292,0.48356
-4.55627,0,0,19.5563,19.5563,10.4437,10.4437,1.62724,0.322354,2.29783,0.186487,0.18514,-0.0430203,0,0,3.465,0.315,-0.035,0.152622,0.168726,-1.05493,-0.07504,0.12292,0.48356
-4.04807,0,0,19.0481,19.0481,10.9519,10.9519,1.44574,0.513319,2.16286,0.183154,0.181973,-0.0429597,0,0,0.2975,0.0525,-0.4025,0.152622,0.168726,-1.05493,-0.07504,0.12292,0.48356
-4.26348,0,0,19.2635,19.2635,10.7365,10.7365,1.52267,0.847209,1.89843,0.299298,-0.0829231,0.00759115,0,0,0.315,-0.1225,-0.2625,0.27511,-0.097234,-1.00467,-0.07504,0.12292,0.48356
-4.48983,0,0,19.4898,19.4898,10.5102,10.5102,1.60351,1.17317,1.62097,0.29361,-0.0815156,0.00745241,0,0,3.395,-0.035,-0.5775,0.27511,-0.097234,-1.00467,-0.07364,0.1323,0.48566
-4.97595,0,0,19.9759,19.9759,10.0241,10.0241,1.77712,1.05796,1.72883,-0.0954418,-0.15103,0.0933432,0,0,5.0575,0.1925,-1.155,-0.117608,-0.169702,-0.919392,-0.07364,0.1323,0.48566
-5.4531,0,0,20.4531,20.4531,9.5469,9.5469,1.94753,0.9447,1.83493,-0.0934654,-0.148056,0.0932811,0,0,4.9875,0,-1.61,-0.117608,-0.169702,-0.919392,-0.07364,0.1323,0.48566
-5.4604,0,0,20.4604,20.4604,9.5396,9.5396,1.95014,0.946075,1.8328,0.160537,-0.188313,0.209342,1,0,4.9175,0.735,-2.17,0.137494,-0.209962,-0.804224,-0.07364,0.1323,0.48566
-5.46167,0,0,20.4617,20.4617,9.53833,9.53833,1.9506,0.947032,1.83068,0.16052,-0.188305,0.209342,1,0,3.71,0.49,-2.1525,0.137494,-0.209962,-0.804224,-0.07364,0.1323,0.48566
-5.46048,0,0,20.4605,20.4605,9.53952,9.53952,1.95017,0.947701,1.82823,0.0628343,0.223133,-0.0943408,1,0,3.22,0.315,-2.345,0.039406,0.201056,-1.10556,-0.07364,0.1323,0.48566
-5.45339,0,0,20.4534,20.4534,9.54661,9.54661,1.94764,0.947811,1.82464,0.0628324,0.223089,-0.0943393,1,0,2.0475,-0.035,-2.9925,0.039406,0.201056,-1.10556,-0.07364,0.1323,0.48566
-5.45015,0,0,20.4502,20.4502,9.54985,9.54985,1.94648,0.947487,1.82149,0.0904153,0.383665,-0.107002,1,0,2.8175,-0.28,-2.73,0.0671,0.361486,-1.11813,-0.07364,0.1323,0.48566
-5.45394,0,0,20.4539,20.4539,9.54606,9.54606,1.94784,0.947262,1.81895,0.0904192,0.383689,-0.107003,1,0,4.2175,-0.21,-2.38,0.0671,0.361486,-1.11813,-0.07364,0.1323,0.48566
-5.45852,0,0,20.4585,20.4585,9.54148,9.54148,1.94947,0.948229,1.81653,0.0257719,0.111008,0.185367,1,0,4.375,0.49,-2.3275,0.002196,0.08906,-0.828014,-0.0735,0.13076,0.48594
-5.46627,0,0,20.4663,20.4663,9.53373,9.53373,1.95224,0.948434,1.81454,0.0257684,0.111057,0.185366,1,0,5.005,0.0525,-2.065,0.002196,0.08906,-0.828014,-0.0735,0.13076,0.48594
-5.94467,0,0,20.9447,20.9447,9.05533,9.05533,2.1231,0.896069,1.86488,-0.039406,-0.150978,0.092817,0,0,3.2025,-4.27,-1.2075,-0.064172,-0.17568,-0.919758,-0.0735,0.13076,0.48594
-6.4147,0,0,21.4147,21.4147,8.5853,8.5853,2.29096,0.844713,1.91474,-0.0385098,-0.14805,0.0927178,0,0,3.2025,-4.27,-1.2075,-0.064172,-0.17568,-0.919758,-0.0735,0.13076,0.48594
-5.33569,0,0,20.3357,20.3357,9.66431,9.66431,1.9056,0.804532,1.96403,-0.0310054,0.401273,-0.0150976,0,0,1.82,-0.0525,-0.6125,-0.05734,0.379786,-1.027,-0.0735,0.13076,0.48594
-4.27444,0,0,19.2744,19.2744,10.7256,10.7256,1.52659,0.765108,2.01399,-0.0303174,0.394661,-0.0148901,0,0,1.82,-0.0525,-0.6125,-0.05734,0.379786,-1.027,-0.0735,0.13076,0.48594
-4.27144,0,0,19.2714,19.2714,10.7286,10.7286,1.52551,0.762735,2.01624,0.23432,0.290835,-0.0575522,1,0,2.8175,-1.3825,0.455,0.208376,0.276086,-1.06933,-0.0735,0.13076,0.48594
-4.26844,0,0,19.2684,19.2684,10.7316,10.7316,1.52444,0.760362,2.0185,0.234361,0.290816,-0.0575511,1,0,2.8175,-1.3825,0.455,0.208376,0.276086,-1.06933,-0.0735,0.13076,0.48594
-4.2829,0,0,19.2829,19.2829,10.7171,10.7171,1.52961,0.753274,2.02049,0.139726,0.0731544,0.228549,1,0,6.3175,-4.1475,0.3675,0.113216,0.05856,-0.785436,-0.07784,0.12992,0.48412
-3.68953,0,0,18.6895,18.6895,11.3105,11.3105,1.31769,0.706685,2.08066,-0.0353721,0.199889,0.0653759,0,0,4.7775,-0.0525,0.1925,-0.06344,0.188856,-0.947452,-0.07784,0.12992,0.48412
-3.09932,0,0,18.0993,18.0993,11.9007,11.9007,1.1069,0.661428,2.14147,-0.0345822,0.196211,0.0654632,0,0,3.3425,0.175,0.3675,-0.06344,0.188856,-0.947452,-0.07784,0.12992,0.48412
-3.0949,0,0,18.0949,18.0949,11.9051,11.9051,1.10532,0.662183,2.1435,0.117748,0.0712479,0.234149,1,0,2.5375,0.4375,0.28,0.089548,0.06405,-0.780068,-0.07784,0.12992,0.48412
-3.08445,0,0,18.0844,18.0844,11.9156,11.9156,1.10159,0.661357,2.14542,0.117762,0.0711828,0.23415,1,0,1.33,-0.49,0.2275,0.089548,0.06405,-0.780068,-0.07784,0.12992,0.48412
-3.90747,0,0,18.9075,18.9075,11.0925,11.0925,1.39553,0.712494,2.11662,0.0400907,-0.288848,0.0406298,0,0,3.1675,-1.05,0.2275,0.012444,-0.30073,-0.971974,-0.07784,0.12992,0.48412
-4.71683,0,0,19.7168,19.7168,10.2832,10.2832,1.68458,0.764681,2.08817,0.0391799,-0.283805,0.0404825,0,0,3.2375,0.245,0.1225,0.012444,-0.30073,-0.971974,-0.07784,0.12992,0.48412
-4.72163,0,0,19.7216,19.7216,10.2784,10.2784,1.6863,0.765605,2.08887,-0.406932,-0.208668,-0.06341,1,0,4.3925,0.525,-0.5075,-0.43554,-0.2257,-1.07506,-0.07784,0.12992,0.48412
-4.73559,0,0,19.7356,19.7356,10.2644,10.2644,1.69128,0.76598,2.08892,-0.406938,-0.208581,-0.0634127,1,0,6.23,0.1925,-0.875,-0.43554,-0.2257,-1.07506,-0.07518,0.12614,0.48888
-4.3206,0,0,19.3206,19.3206,10.6794,10.6794,1.54307,0.718655,2.15297,-0.0408049,0.155092,-0.0815254,0,0,3.465,0.4025,-0.84,-0.068686,0.140178,-1.09312,-0.07518,0.12614,0.48888
-3.90988,0,0,18.9099,18.9099,11.0901,11.0901,1.39639,0.6729,2.21617,-0.0400063,0.152533,-0.08145,0,0,2.87,0.735,-1.4525,-0.068686,0.140178,-1.09312,-0.07518,0.12614,0.48888
-3.92267,0,0,18.9227,18.9227,11.0773,11.0773,1.40095,1.11218,1.8483,0.37036,-0.00420053,0.105802,0,0,1.82,0.9275,-1.5575,0.351116,-0.01647,-0.907192,-0.07518,0.12614,0.48888
-3.94338,0,0,18.9434,18.9434,11.0566,11.0566,1.40835,1.54109,1.48064,0.362876,-0.00407577,0.105626,0,0,3.6225,-0.4375,-1.855,0.351116,-0.01647,-0.907192,-0.07518,0.12614,0.48888
-3.9466,0,0,18.9466,18.9466,11.0534,11.0534,1.4095,1.54101,1.47852,0.0455569,-0.0513188,0.218123,1,0,4.1125,-0.105,-2.135,0.032452,-0.063684,-0.795562,-0.07518,0.12614,0.48888
-3.95427,0,0,18.9543,18.9543,11.0457,11.0457,1.41224,1.5418,1.47519,0.0455431,-0.051271,0.218122,1,0,5.0225,0.385,-2.8525,0.032452,-0.063684,-0.795562,-0.07518,0.12614,0.48888
-3.9663,0,0,18.9663,18.9663,11.0337,11.0337,1.41654,1.54268,1.47163,-0.0938163,-0.127403,0.167219,1,0,5.8975,0.4375,-2.9925,-0.107482,-0.139812,-0.84607,-0.07518,0.12614,0.48888
-3.96581,0,0,18.9658,18.9658,11.0342,11.0342,1.41636,1.5422,1.46775,-0.0938079,-0.127406,0.167219,1,0,3.395,-0.3675,-3.15,-0.107482,-0.139812,-0.84607,-0.07728,0.12964,0.47768
-3.96175,0,0,18.9618,18.9618,11.0382,11.0382,1.41491,1.54299,1.46419,0.0119923,-0.0460951,-0.152939,1,0,2.6775,0.385,-2.9925,-0.00122,-0.05856,-1.16376,-0.07728,0.12964,0.47768
-3.94957,0,0,18.9496,18.9496,11.0504,11.0504,1.41056,1.54354,1.46178,0.0119826,-0.046171,-0.152937,1,0,1.0325,0.2625,-2.31,-0.00122,-0.05856,-1.16376,-0.07728,0.12964,0.47768
-3.80242,0,0,18.8024,18.8024,11.1976,11.1976,1.35801,1.41686,1.57581,-0.11276,0.048539,-0.0284339,0,0,1.645,0.0175,-2.2575,-0.12871,0.036966,-1.04029,-0.07728,0.12964,0.47768
-3.66856,0,0,18.6686,18.6686,11.3314,11.3314,1.3102,1.29219,1.69089,-0.110584,0.0477063,-0.0283631,0,0,3.78,-0.245,-1.61,-0.12871,0.036966,-1.04029,-0.07728,0.12964,0.47768
-3.67167,0,0,18.6717,18.6717,11.3283,11.3283,1.31131,1.29234,1.69064,-0.144603,-0.0323895,-0.109633,1,0,4.06,0.0525,-1.05,-0.16287,-0.043066,-1.12094,-0.07728,0.12964,0.47768
-3.68079,0,0,18.6808,18.6808,11.3192,11.3192,1.31457,1.29293,1.69168,-0.144613,-0.0323327,-0.109634,1,0,5.25,0.3325,-0.2975,-0.16287,-0.043066,-1.12094,-0.07728,0.12964,0.47768
-4.6022,0,0,19.6022,19.6022,10.3978,10.3978,1.64364,1.14991,1.82751,-0.129726,-0.321527,0.0601857,0,0,4.9175,-0.245,-0.28,-0.150426,-0.337696,-0.952332,-0.07728,0.12964,0.47768
-5.49938,0,0,20.4994,20.4994,9.50062,9.50062,1.96406,1.01049,1.9635,-0.127293,-0.315937,0.0600555,0,0,3.15,-0.035,0.07,-0.150426,-0.337696,-0.952332,-0.07756,0.12852,0.4837
-5.4946,0,0,20.4946,20.4946,9.5054,9.5054,1.96236,1.01062,1.96634,-0.020388,0.325565,-0.0965799,1,0,2.45,0.105,0.7525,-0.043066,0.30317,-1.10776,-0.07756,0.12852,0.4837
-5.48733,0,0,20.4873,20.4873,9.51267,9.51267,1.95976,1.00952,1.97024,-0.0203688,0.32552,-0.096578,1,0,1.9425,-0.595,1.4,-0.043066,0.30317,-1.10776,-0.07756,0.12852,0.4837
-5.86758,0,0,20.8676,20.8676,9.13242,9.13242,2.09556,1.32562,1.71023,0.296538,-0.147189,-0.0237428,0,0,2.345,-0.84,1.1725,0.280722,-0.17141,-1.03529,-0.07756,0.12852,0.4837
-6.25187,0,0,21.2519,21.2519,8.74813,8.74813,2.23281,1.63586,1.45205,0.291125,-0.144802,-0.023973,0,0,4.515,-0.665,1.0675,0.280722,-0.17141,-1.03529,-0.07756,0.12852,0.4837
-6.72194,0,0,21.7219,21.7219,8.27806,8.27806,2.40069,1.66561,1.43446,0.0269825,-0.170575,-0.0227539,0,0,4.7075,-0.35,0.6475,0.015982,-0.20008,-1.03395,-0.07756,0.12852,0.4837
-7.18146,0,0,22.1815,22.1815,7.81854,7.81854,2.56481,1.69485,1.41683,0.0264724,-0.167716,-0.0228929,0,0,4.235,-0.28,0.5425,0.015982,-0.20008,-1.03395,-0.07756,0.12852,0.4837
-7.45899,0,0,22.459,22.459,7.54101,7.54101,2.66392,1.53068,1.56363,-0.144145,-0.100403,-0.00985866,0,0,3.78,-0.21,-0.455,-0.158234,-0.134566,-1.02102,-0.07756,0.12852,0.4837
-7.72193,0,0,22.7219,22.7219,7.27807,7.27807,2.75783,1.37102,1.70229,-0.141359,-0.0987625,-0.00986568,0,0,1.855,0.315,-0.8225,-0.158234,-0.134566,-1.02102,-0.07252,0.13258,0.48342
-7.70807,0,0,22.7081,22.7081,7.29193,7.29193,2.75288,1.37157,1.70194,-0.0149022,0.659802,-0.198465,1,0,0.665,0.28,-1.12,-0.031232,0.623298,-1.20817,-0.07252,0.13258,0.48342
-7.69421,0,0,22.6942,22.6942,7.30579,7.30579,2.74793,1.37211,1.70158,-0.0149117,0.659716,-0.198461,1,0,0.665,0.28,-1.12,-0.031232,0.623298,-1.20817,-0.07252,0.13258,0.48342
-7.69549,0,0,22.6955,22.6955,7.30451,7.30451,2.74839,1.37249,1.70026,0.232791,-0.357836,-0.146208,1,0,3.71,0.1575,-1.68,0.217526,-0.393206,-1.15632,-0.07252,0.13258,0.48342
-7.69677,0,0,22.6968,22.6968,7.30323,7.30323,2.74885,1.37287,1.69894,0.232784,-0.357828,-0.146209,1,0,3.71,0.1575,-1.68,0.217526,-0.393206,-1.15632,-0.07252,0.13258,0.48342
-7.70579,0,0,22.7058,22.7058,7.29421,7.29421,2.75207,1.37388,1.69702,0.0465292,-0.274848,-0.13736,1,0,5.2675,0.5075,-2.0475,0.0305,-0.310368,-1.14753,-0.07252,0.13258,0.48342
-7.71481,0,0,22.7148,22.7148,7.28519,7.28519,2.75529,1.37488,1.6951,0.0465116,-0.274792,-0.137363,1,0,5.2675,0.5075,-2.0475,0.0305,-0.310368,-1.14753,-0.07252,0.13258,0.48342
-7.96113,0,0,22.9611,22.9611,7.03887,7.03887,2.84326,1.06646,1.96131,-0.276361,-0.090429,0.00480528,0,0,4.025,0.315,-2.8,-0.299144,-0.127734,-1.0065,-0.07252,0.13258,0.48342
-8.20295,0,0,23.2029,23.2029,6.79705,6.79705,2.92962,0.764015,2.22587,-0.271083,-0.0889196,0.00481359,0,0,4.025,0.315,-2.8,-0.299144,-0.127734,-1.0065,-0.07252,0.13258,0.48342
-8.19433,0,0,23.1943,23.1943,6.80567,6.80567,2.92655,0.765496,2.22298,0.0304187,0.344332,-0.0923133,1,0,1.7325,0.7525,-2.625,0.00366,0.305122,-1.10288,-0.07714,0.12614,0.4837
-8.37197,0,0,23.372,23.372,6.62803,6.62803,2.98999,0.507219,2.46209,-0.241332,-0.075408,-0.0571572,0,0,2.2225,-0.21,-2.4325,-0.273768,-0.11529,-1.06799,-0.07714,0.12614,0.4837
-8.54634,0,0,23.5463,23.5463,6.45366,6.45366,3.05226,0.254026,2.6999,-0.236913,-0.074321,-0.0571852,0,0,2.2225,-0.21,-2.4325,-0.273768,-0.11529,-1.06799,-0.07714,0.12614,0.4837
-7.80515,0,0,22.8052,22.8052,7.19485,7.19485,2.78756,0.370739,2.62765,0.110443,0.269003,0.00660346,0,0,4.1125,-0.105,-1.96,0.077104,0.232288,-1.00491,-0.07714,0.12614,0.4837
-7.07635,0,0,22.0763,22.0763,7.92365,7.92365,2.52727,0.485377,2.55471,0.108442,0.264465,0.00679915,0,0,4.1125,-0.105,-1.96,0.077104,0.232288,-1.00491,-0.07714,0.12614,0.4837
-7.07488,0,0,22.0749,22.0749,7.92512,7.92512,2.52674,0.485972,2.55316,0.304509,-0.140883,-0.0860267,1,0,3.15,0.28,-1.82,0.274012,-0.17263,-1.09702,-0.07714,0.12614,0.4837
-7.07342,0,0,22.0734,22.0734,7.92658,7.92658,2.52622,0.486566,2.55161,0.304499,-0.140892,-0.0860263,1,0,3.15,0.28,-1.82,0.274012,-0.17263,-1.09702,-0.07714,0.12614,0.4837
-7.06624,0,0,22.0662,22.0662,7.93376,7.93376,2.52366,0.487544,2.55221,0.248234,0.0150192,0.201429,1,0,1.995,0.56,-0.5775,0.217526,-0.016836,-0.811788,-0.07448,0.13258,0.48818
-6.63844,0,0,21.6384,21.6384,8.36156,8.36156,2.37087,0.387927,2.65854,-0.0844775,0.150237,-0.00880867,0,0,2.345,-0.2275,0.56,-0.11834,0.120902,-1.02053,-0.07448,0.13258,0.48818
-6.21796,0,0,21.218,21.218,8.78204,8.78204,2.2207,0.290285,2.7652,-0.0827734,0.147618,-0.0086936,0,0,2.345,-0.2275,0.56,-0.11834,0.120902,-1.02053,-0.07448,0.13258,0.48818
-6.22761,0,0,21.2276,21.2276,8.77239,8.77239,2.22415,0.289422,2.76941,0.739821,-0.498494,0.199087,1,0,5.355,-0.4375,1.575,0.707722,-0.5246,-0.81435,-0.07448,0.13258,0.48818
-6.23725,0,0,21.2373,21.2373,8.76275,8.76275,2.22759,0.288558,2.77362,0.739836,-0.498434,0.199085,1,0,5.355,-0.4375,1.575,0.707722,-0.5246,-0.81435,-0.07448,0.13258,0.48818
-6.45026,0,0,21.4503,21.4503,8.54974,8.54974,2.30367,-0.15652,3.18096,-0.357429,-0.065389,0.156378,0,0,4.305,-0.77,2.17,-0.40199,-0.09333,-0.856684,-0.07448,0.13258,0.48818
-7.61831,0,0,22.6183,22.6183,7.38169,7.38169,2.72083,-0.018455,3.07506,0.113591,-0.422786,0.0815559,0,0,3.5,-0.9275,2.1875,0.073444,-0.457622,-0.930616,-0.07448,0.13258,0.48818
-8.76098,0,0,23.761,23.761,6.23902,6.23902,3.12892,0.118538,2.97013,0.1112,-0.415672,0.0811904,0,0,2.17,0.1225,1.435,0.073444,-0.457622,-0.930616,-0.07448,0.13258,0.48818
-8.11744,0,0,23.1174,23.1174,6.88256,6.88256,2.89909,0.210434,2.91743,0.0774021,0.211839,0.0988554,0,0,2.1175,-0.175,0.945,0.041114,0.17324,-0.913292,-0.07252,0.13328,0.48496
-8.40088,0,0,23.4009,23.4009,6.59912,6.59912,3.00031,0.255372,2.89554,0.0379853,-0.102949,-0.0184086,0,0,3.8325,-0.07,0.56,0.002318,-0.142984,-1.02956,-0.07252,0.13328,0.48496
-8.68143,0,0,23.6814,23.6814,6.31857,6.31857,3.10051,0.299687,2.87214,0.0372119,-0.101203,-0.0185054,0,0,4.2525,0.07,-0.4375,0.002318,-0.142984,-1.02956,-0.07252,0.13328,0.48496
-8.6869,0,0,23.6869,23.6869,6.3131,6.3131,3.10246,0.29884,2.87153,0.0807186,-0.392564,-0.0486296,1,0,4.5325,-0.5425,-1.225,0.045994,-0.434076,-1.05945,-0.07252,0.13328,0.48496
-8.69164,0,0,23.6916,23.6916,6.30836,6.30836,3.10416,0.29972,2.86886,0.0807032,-0.392534,-0.0486312,1,0,4.3925,0.4025,-2.485,0.045994,-0.434076,-1.05945,-0.07252,0.13328,0.48496
-8.31449,0,0,23.3145,23.3145,6.68551,6.68551,2.96946,0.74112,2.50319,0.412917,0.146991,0.0109305,0,0,3.8675,0.8225,-2.695,0.38735,0.107238,-1.0004,-0.07252,0.13328,0.48496
-7.93955,0,0,22.9396,22.9396,7.06045,7.06045,2.83556,1.17458,2.13462,0.405352,0.144651,0.0109225,0,0,3.3425,0.735,-3.675,0.38735,0.107238,-1.0004,-0.07252,0.13328,0.48496
-7.93346,0,0,22.9335,22.9335,7.06654,7.06654,2.83338,1.17635,2.1295,-0.197369,0.0498427,-0.0964103,1,0,2.275,0.8575,-3.9375,-0.217892,0.012566,-1.10691,-0.07252,0.13328,0.48496
-7.93674,0,0,22.9367,22.9367,7.06326,7.06326,2.83455,1.17721,2.12457,-0.197384,0.049863,-0.0964116,1,0,4.1475,0.3325,-3.7975,-0.217892,0.012566,-1.10691,-0.07546,0.13678,0.49042
-7.94239,0,0,22.9424,22.9424,7.05761,7.05761,2.83657,1.17844,2.12004,0.173855,0.0181452,-0.0879303,1,0,4.62,0.56,-3.57,0.15494,-0.019154,-1.09849,-0.07546,0.13678,0.49042
-7.94793,0,0,22.9479,22.9479,7.05207,7.05207,2.83855,1.17899,2.11648,0.173845,0.0181797,-0.0879322,1,0,4.585,0.1925,-2.9925,0.15494,-0.019154,-1.09849,-0.07546,0.13678,0.49042
-9.19965,0,0,24.1997,24.1997,5.80035,5.80035,3.28559,0.986515,2.27071,-0.168058,-0.428339,0.148636,0,0,5.7925,0.0175,-2.8175,-0.191784,-0.472994,-0.863394,-0.07546,0.13678,0.49042
-10.422,0,0,25.422,25.422,5,5,3.72213,0.798996,2.42231,-0.164786,-0.420732,0.148221,0,0,3.7975,0.875,-2.52,-0.191784,-0.472994,-0.863394,-0.07546,0.13678,0.49042
-9.68042,0,0,24.6804,24.6804,5.31958,5.31958,3.45729,0.832953,2.40128,0.0320356,0.279326,-0.0476004,0,0,3.885,1.05,-1.995,0.006466,0.230946,-1.05798,-0.07546,0.13678,0.49042
-8.94938,0,0,23.9494,23.9494,6.05062,6.05062,3.19621,0.864507,2.38136,0.031485,0.274777,-0.0473441,0,0,3.4825,0.0525,-1.2075,0.006466,0.230946,-1.05798,-0.07546,0.13678,0.49042
-8.94507,0,0,23.9451,23.9451,6.05493,6.05493,3.19467,0.865353,2.38154,-0.155861,0.827985,0.0266721,1,0,2.5725,0.4725,-0.8225,-0.181658,0.783606,-0.98454,-0.07546,0.13678,0.49042
-8.94973,0,0,23.9497,23.9497,6.05027,6.05027,3.19633,0.865241,2.38277,-0.155859,0.828014,0.0266705,1,0,4.3575,-0.0525,-0.175,-0.181658,0.783606,-0.98454,-0.07364,0.133,0.49182
-8.95841,0,0,23.9584,23.9584,6.04159,6.04159,3.19943,0.865632,2.38413,0.60257,0.0758891,0.42625,1,0,5.1625,0.245,-0.1225,0.579988,0.032208,-0.58804,-0.07364,0.133,0.49182
-8.96946,0,0,23.9695,23.9695,6.03054,6.03054,3.20338,0.862929,2.3857,0.602617,0.0759579,0.426247,1,0,5.635,-1.5575,0.105,0.579988,0.032208,-0.58804,-0.07364,0.133,0.49182
-8.97299,0,0,23.973,23.973,6.02701,6.02701,3.20464,0.860781,2.38698,0.0842748,-0.188302,0.14162,1,0,4.13,-1.2425,-0.0875,0.059414,-0.2318,-0.87047,-0.07364,0.133,0.49182
-8.97122,0,0,23.9712,23.9712,6.02878,6.02878,3.20401,0.859864,2.38925,0.0842908,-0.188313,0.141621,1,0,3.0625,-0.49,0.455,0.059414,-0.2318,-0.87047,-0.07364,0.133,0.49182
-8.97063,0,0,23.9706,23.9706,6.02937,6.02937,3.2038,0.859453,2.39263,-0.366535,0.498402,-0.0672679,1,0,3.29,-0.1575,1.085,-0.393328,0.454206,-1.07775,-0.07364,0.133,0.49182
-8.96399,0,0,23.964,23.964,6.03601,6.03601,3.20143,0.858688,2.3954,-0.366522,0.49836,-0.0672654,1,0,2.0825,-0.385,0.735,-0.393328,0.454206,-1.07775,-0.07364,0.133,0.49182
-8.96888,0,0,23.9689,23.9689,6.03112,6.03112,3.20317,0.85695,2.3979,-0.36637,0.295905,-0.212223,1,0,4.3925,-0.9625,0.6125,-0.393206,0.25193,-1.22159,-0.07364,0.133,0.49182
-8.97376,0,0,23.9738,23.9738,6.02624,6.02624,3.20491,0.855212,2.40039,-0.36634,0.295935,-0.212224,1,0,4.3925,-0.9625,0.6125,-0.393206,0.25193,-1.22159,-0.07266,0.13846,0.48482
-8.98698,0,0,23.987,23.987,6.01302,6.01302,3.20963,0.856099,2.40358,0.287481,0.270126,-0.203868,1,0,6.055,0.595,0.9275,0.263398,0.226066,-1.21329,-0.07266,0.13846,0.48482
-9.00019,0,0,24.0002,24.0002,5.99981,5.99981,3.21435,0.856985,2.40677,0.287465,0.270209,-0.203873,1,0,6.055,0.595,0.9275,0.263398,0.226066,-1.21329,-0.07266,0.13846,0.48482
-8.64009,0,0,23.6401,23.6401,6.35991,6.35991,3.08575,0.921451,2.35496,0.0615916,0.136192,-0.07836,0,0,4.1825,0.385,-0.4025,0.037698,0.094428,-1.08885,-0.07266,0.13846,0.48482
-8.28614,0,0,23.2861,23.2861,6.71386,6.71386,2.95934,0.984678,2.30304,0.0604882,0.133988,-0.078262,0,0,4.1825,0.385,-0.4025,0.037698,0.094428,-1.08885,-0.07266,0.13846,0.48482
-9.04187,0,0,24.0419,24.0419,5.95813,5.95813,3.22924,1.32679,2.00207,0.31875,-0.289248,0.0296812,0,0,3.3775,0.9275,-1.3475,0.303048,-0.33306,-0.981368,-0.07266,0.13846,0.48482
-9.78509,0,0,24.7851,24.7851,5.21491,5.21491,3.49468,1.66244,1.70487,0.312894,-0.284633,0.029257,0,0,3.3775,0.9275,-1.3475,0.303048,-0.33306,-0.981368,-0.07266,0.13846,0.48482
-9.79557,0,0,24.7956,24.7956,5.20443,5.20443,3.49842,1.66342,1.70187,-0.0612994,-0.406451,-0.0683685,1,0,5.5825,0.4375,-2.6775,-0.072712,-0.454816,-1.07824,-0.07266,0.13846,0.48482
-9.80675,0,0,24.8067,24.8067,5.19325,5.19325,3.50241,1.6651,1.69772,0.182615,0.463527,-0.0201778,1,0,5.74,0.805,-3.3775,0.172264,0.41419,-1.03041,-0.07266,0.13846,0.48482
-9.81568,0,0,24.8157,24.8157,5.18432,5.18432,3.5056,1.66571,1.69299,0.182604,0.463583,-0.0201815,1,0,5.3025,0.1575,-3.675,0.172264,0.41419,-1.03041,-0.0735,0.13832,0.49336
-11.1444,0,0,26.1444,26.1444,5,5,3.98015,1.74025,1.61111,0.0640698,-0.469756,0.142023,0,0,4.5675,0.35,-4.1825,0.054534,-0.52643,-0.868884,-0.0735,0.13832,0.49336
-12.4519,0,0,27.4519,27.4519,5,5,4.44712,1.8136,1.53053,0.0627903,-0.461634,0.141385,0,0,4.375,0.455,-4.2875,0.054534,-0.52643,-0.868884,-0.0735,0.13832,0.49336
-12.4496,0,0,27.4496,27.4496,5,5,4.44628,1.81585,1.52491,0.165528,-0.29519,0.371545,1,0,3.0625,1.0325,-4.27,0.157746,-0.360144,-0.6405,-0.0735,0.13832,0.49336
-12.4538,0,0,27.4538,27.4538,5,5,4.4478,1.81637,1.52111,0.165519,-0.295164,0.371542,1,0,4.3575,0.105,-3.1325,0.157746,-0.360144,-0.6405,-0.0735,0.13832,0.49336
-12.4672,0,0,27.4672,27.4672,5,5,4.45257,1.8161,1.51906,-0.335726,0.0948696,-0.141036,1,0,6.1425,-0.28,-2.0825,-0.345626,0.029402,-1.14912,-0.0735,0.13832,0.49336
-12.4797,0,0,27.4797,27.4797,5,5,4.45704,1.81735,1.51787,-0.335748,0.0949475,-0.141043,1,0,5.9675,0.6475,-1.645,-0.345626,0.029402,-1.14912,-0.0735,0.13832,0.49336
-12.4939,0,0,27.4939,27.4939,5,5,4.46209,1.81802,1.51788,-0.156569,0.249892,-0.51715,1,0,6.265,0.3675,-0.9275,-0.165676,0.184098,-1.52232,-0.0735,0.13832,0.49336
-12.5033,0,0,27.5033,27.5033,5,5,4.46545,1.81889,1.5197,-0.156584,0.24995,-0.517155,1,0,5.285,0.56,0.1225,-0.165676,0.184098,-1.52232,-0.06972,0.13468,0.4879
-12.5055,0,0,27.5055,27.5055,5,5,4.46625,1.81918,1.52278,0.409778,0.0471118,-0.213965,1,0,3.8325,0.28,0.875,0.403088,-0.018544,-1.22146,-0.06972,0.13468,0.4879
-12.5049,0,0,27.5049,27.5049,5,5,4.46602,1.81839,1.52652,0.409791,0.0471077,-0.213964,1,0,3.2375,-0.315,1.3125,0.403088,-0.018544,-1.22146,-0.06972,0.13468,0.4879
-12.4997,0,0,27.4997,27.4997,5,5,4.46416,1.81838,1.53036,-0.0467517,0.10765,-0.255641,1,0,2.3275,0.14,1.33,-0.055388,0.041968,-1.26282,-0.06972,0.13468,0.4879
-12.5035,0,0,27.5035,27.5035,5,5,4.46553,1.81568,1.53527,-0.0467046,0.107674,-0.255642,1,0,4.1125,-1.3825,2.0825,-0.055388,0.041968,-1.26282,-0.06972,0.13468,0.4879
-12.5179,0,0,27.5179,27.5179,5,5,4.47067,1.81576,1.53938,0.207928,-0.166289,0.219547,1,0,6.2475,0.21,1.4875,0.200324,-0.2318,-0.791292,-0.06972,0.13468,0.4879
-12.5318,0,0,27.5318,27.5318,5,5,4.47565,1.81475,1.54224,0.207946,-0.166202,0.219541,1,0,6.1775,-0.49,0.805,0.200324,-0.2318,-0.791292,-0.06972,0.13468,0.4879
-12.5433,0,0,27.5433,27.5433,5,5,4.47976,1.8129,1.54421,0.366881,-0.472058,0.498875,1,0,5.705,-1.015,0.3325,0.3599,-0.53741,-0.514108,-0.06972,0.13468,0.4879
-12.5529,0,0,27.5529,27.5529,5,5,4.48318,1.81132,1.54588,0.366909,-0.471999,0.498872,1,0,5.32,-0.875,0.14,0.3599,-0.53741,-0.514108,-0.07308,0.1344,0.49098
-12.5461,0,0,27.5461,27.5461,5,5,4.48076,1.81012,1.54772,-0.326632,-0.254655,0.485843,1,0,2.0475,-0.6475,0.2275,-0.336598,-0.32025,-0.52704,-0.07308,0.1344,0.49098
-12.5392,0,0,27.5392,27.5392,5,5,4.4783,1.811,1.54819,-0.326647,-0.254698,0.485846,1,0,2.0475,0.5075,-0.665,-0.336598,-0.32025,-0.52704,-0.07308,0.1344,0.49098
-12.5491,0,0,27.5491,27.5491,5,5,4.48183,1.81036,1.54773,-0.298816,0.0339492,0.4224,1,0,5.425,-0.42,-1.1375,-0.30866,-0.031964,-0.589992,-0.07308,0.1344,0.49098
-12.5622,0,0,27.5622,27.5622,5,5,4.4865,1.81044,1.54739,-0.298817,0.0340302,0.422394,1,0,6.055,0,-1.1025,-0.30866,-0.031964,-0.589992,-0.07308,0.1344,0.49098
-13.6425,0,0,28.6425,28.6425,5,5,4.87232,1.21329,2.04104,-0.522137,-0.373859,0.241507,0,0,6.3,0.49,-1.2775,-0.543388,-0.446154,-0.76921,-0.07308,0.1344,0.49098
-14.708,0,0,29.708,29.708,5,5,5.25285,0.626669,2.52517,-0.5119,-0.367229,0.241085,0,0,6.6325,0.8575,-1.54,-0.543388,-0.446154,-0.76921,-0.07308,0.1344,0.49098
-14.7097,0,0,29.7097,29.7097,5,5,5.25345,0.627166,2.52388,0.173756,-0.293699,0.341779,1,0,3.78,0.1925,-1.68,0.14518,-0.37271,-0.669292,-0.07308,0.1344,0.49098
-14.7066,0,0,29.7066,29.7066,5,5,5.25235,0.628325,2.52125,0.173736,-0.293718,0.34178,1,0,2.835,0.5075,-2.485,0.14518,-0.37271,-0.669292,-0.06986,0.13846,0.48916
-14.6914,0,0,29.6914,29.6914,5,5,5.24694,0.62917,2.51845,0.424468,-0.0908372,0.535801,1,0,0.42,0.315,-2.5725,0.396988,-0.169946,-0.476776,-0.06986,0.13846,0.48916
-14.6932,0,0,29.6932,29.6932,5,5,5.24759,0.629453,2.51524,0.424463,-0.090826,0.5358,1,0,3.815,-0.035,-2.7825,0.396988,-0.169946,-0.476776,-0.06986,0.13846,0.48916
-14.7045,0,0,29.7045,29.7045,5,5,5.25162,0.630461,2.51164,0.21792,0.129561,0.534687,1,0,5.7225,0.3675,-3.045,0.189588,0.050142,-0.477874,-0.06986,0.13846,0.48916
-14.7228,0,0,29.7228,29.7228,5,5,5.25813,0.633423,2.50768,0.217868,0.129674,0.534676,1,0,7.105,1.4875,-3.36,0.189588,0.050142,-0.477874,-0.06986,0.13846,0.48916
-14.3954,0,0,29.3954,29.3954,5,5,5.14122,0.796244,2.37435,0.135575,0.124708,0.0103275,0,0,6.545,1.7325,-3.6225,0.1098,0.047214,-0.998326,-0.06986,0.13846,0.48916
-14.0647,0,0,29.0647,29.0647,5,5,5.02311,0.952223,2.24154,0.132853,0.122651,0.0104688,0,0,4.795,-0.3675,-2.9925,0.1098,0.047214,-0.998326,-0.06986,0.13846,0.48916
-14.0655,0,0,29.0655,29.0655,5,5,5.02339,0.95125,2.23848,0.061436,0.0730723,-0.243543,1,0,3.6225,-0.7525,-2.625,0.038064,-0.002318,-1.25038,-0.06986,0.13846,0.48916
-14.0557,0,0,29.0557,29.0557,5,5,5.01989,0.951342,2.2373,0.0614344,0.0730115,-0.243538,1,0,1.4875,-0.035,-1.5925,0.038064,-0.002318,-1.25038,-0.06986,0.13846,0.48916
-13.2417,0,0,28.2417,28.2417,5,5,4.72918,1.07478,2.14192,0.121238,0.315382,-0.0683118,0,0,2.8525,-0.3325,-1.1025,0.100284,0.244854,-1.07689,-0.06944,0.13146,0.49896
-12.4473,0,0,27.4473,27.4473,5,5,4.44546,1.19554,2.04756,0.119131,0.310444,-0.0679574,0,0,4.1125,-0.49,-0.035,0.100284,0.244854,-1.07689,-0.06944,0.13146,0.49896
-12.8636,0,0,27.8636,27.8636,5,5,4.59414,1.70534,1.61998,0.433388,-0.132995,0.143823,0,0,5.425,-0.9975,1.085,0.424804,-0.20069,-0.866322,-0.06944,0.13146,0.49896
-13.2724,0,0,28.2724,28.2724,5,5,4.74013,2.20595,1.1958,0.424656,-0.130481,0.143318,0,0,5.425,-0.9975,1.085,0.424804,-0.20069,-0.866322,-0.06944,0.13146,0.49896
-14.1992,0,0,29.1992,29.1992,5,5,5.07114,2.99911,0.530461,0.698627,-0.315669,0.392522,0,0,4.445,-0.2625,1.96,0.713822,-0.391376,-0.61793,-0.06944,0.13146,0.49896
-15.1138,0,0,30.1138,30.1138,5,5,5.3978,3.78129,-0.124955,0.684999,-0.310075,0.391199,0,0,4.445,-0.2625,1.96,0.713822,-0.391376,-0.61793,-0.06944,0.13146,0.49896
-15.1101,0,0,30.1101,30.1101,5,5,5.39648,3.77997,-0.120208,-0.439571,-0.0566847,0.21096,1,0,2.52,-0.5425,1.925,-0.415532,-0.138226,-0.796782,-0.06944,0.13146,0.49896
-15.1064,0,0,30.1064,30.1064,5,5,5.39516,3.77864,-0.115462,-0.439548,-0.0567075,0.210963,1,0,2.52,-0.5425,1.925,-0.415532,-0.138226,-0.796782,-0.06944,0.13146,0.49896
-13.628,0,0,28.628,28.628,5,5,4.86714,3.93155,-0.298394,0.109091,0.590428,0.0346842,0,0,4.5325,0.2625,0.875,0.138104,0.517402,-0.97234,-0.06888,0.147,0.50134
-13.1939,0,0,28.1939,28.1939,5,5,4.71212,3.78654,-0.235769,-0.136336,0.168002,-0.0497551,0,0,7.7175,-0.7175,0.245,-0.110898,0.098088,-1.05652,-0.06888,0.147,0.50134
-12.7574,0,0,27.7574,27.7574,5,5,4.55622,3.64578,-0.174968,-0.133884,0.165309,-0.0493771,0,0,5.8275,0.1225,-1.2425,-0.110898,0.098088,-1.05652,-0.06888,0.147,0.50134
-12.7643,0,0,27.7643,27.7643,5,5,4.55866,3.64643,-0.176169,0.0286522,-0.283831,-0.124134,1,0,4.8475,0.2975,-1.6275,0.052338,-0.350628,-1.1307,-0.06888,0.147,0.50134
-12.761,0,0,27.761,27.761,5,5,4.5575,3.6451,-0.17762,0.0286755,-0.283851,-0.124131,1,0,2.835,-0.875,-1.68,0.052338,-0.350628,-1.1307,-0.06888,0.147,0.50134
-12.7471,0,0,27.7471,27.7471,5,5,4.55253,3.64476,-0.179926,-0.487025,-0.208219,-0.323177,1,0,0.735,-0.3325,-2.2225,-0.465552,-0.274988,-1.32821,-0.06888,0.147,0.50134
-12.7363,0,0,27.7363,27.7363,5,5,4.5487,3.64644,-0.182704,-0.487055,-0.208285,-0.323174,1,0,1.3825,0.8225,-2.59,-0.465552,-0.274988,-1.32821,-0.06888,0.147,0.50134
-12.4843,0,0,27.4843,27.4843,5,5,4.4587,3.90509,-0.457995,0.207469,0.0894612,0.0667686,0,0,1.9425,-0.0525,-2.2575,0.236436,0.024034,-0.941108,-0.06888,0.147,0.50134
-12.2633,0,0,27.2633,27.2633,5,5,4.37974,4.15775,-0.721288,0.203071,0.0880669,0.0665654,0,0,7.3675,0.245,-1.785,0.236436,0.024034,-0.941108,-0.06818,0.13874,0.50204
-11.5885,0,0,26.5885,26.5885,5,5,4.13874,4.50626,-1.07475,0.292493,0.256904,0.0557222,0,0,6.475,1.0675,-2.1875,0.332328,0.196908,-0.951722,-0.06818,0.13874,0.50204
-10.9285,0,0,25.9285,25.9285,5,5,3.90305,4.8493,-1.43056,0.286526,0.25278,0.0555226,0,0,7.63,1.61,-2.4675,0.332328,0.196908,-0.951722,-0.06818,0.13874,0.50204
-10.9432,0,0,25.9432,25.9432,5,5,3.9083,4.85219,-1.43225,0.0133759,0.00690715,-0.263047,1,0,6.4575,1.5925,-1.995,0.058072,-0.0488,-1.26782,-0.06818,0.13874,0.50204
-10.9559,0,0,25.9559,25.9559,5,5,3.91283,4.85227,-1.4332,0.0133744,0.00698574,-0.263053,1,0,6.02,-0.0175,-1.4525,0.058072,-0.0488,-1.26782,-0.06818,0.13874,0.50204
-10.534,0,0,25.534,25.534,5,5,3.76216,4.8238,-1.47548,-0.0404346,0.146041,0.0798218,0,0,4.48,1.295,-2.275,0.003538,0.09272,-0.92781,-0.06818,0.13874,0.50204
-10.1195,0,0,25.1195,25.1195,5,5,3.61411,4.79312,-1.51688,-0.039901,0.143475,0.0800322,0,0,4.48,-0.1925,-1.82,0.003538,0.09272,-0.92781,-0.06818,0.13874,0.50204
-10.1312,0,0,25.1312,25.1312,5,5,3.61828,4.79414,-1.51804,-0.0656737,0.371191,-0.23755,1,0,5.8275,0.525,-1.61,-0.022326,0.320128,-1.24294,-0.06818,0.13874,0.50204
-10.1387,0,0,25.1387,25.1387,5,5,3.62096,4.79503,-1.5195,-0.0656891,0.371238,-0.237554,1,0,5.005,0.4375,-1.785,-0.022326,0.320128,-1.24294,-0.06958,0.13734,0.5047
-10.1478,0,0,25.1478,25.1478,5,5,3.6242,4.79505,-1.52091,-0.10578,0.240496,-0.416571,1,0,5.32,-0.07,-1.715,-0.062586,0.189466,-1.42057,-0.06958,0.13734,0.5047
-10.1493,0,0,25.1493,25.1493,5,5,3.62474,4.79357,-1.51997,-0.105754,0.240506,-0.416569,1,0,3.6925,-0.8575,-0.2975,-0.062586,0.189466,-1.42057,-0.06958,0.13734,0.5047
-10.151,0,0,25.151,25.151,5,5,3.62536,4.79092,-1.5181,-0.635021,0.161623,-0.00628681,1,0,3.6925,-1.505,0.28,-0.59414,0.110654,-1.01345,-0.06958,0.13734,0.5047
-10.1505,0,0,25.1505,25.1505,5,5,3.62518,4.7906,-1.51594,-0.635015,0.16162,-0.00628614,1,0,3.2375,-0.14,0.3675,-0.59414,0.110654,-1.01345,-0.06958,0.13734,0.5047
-10.1529,0,0,25.1529,25.1529,5,5,3.62605,4.78914,-1.51258,-0.365292,-0.173847,0.357151,1,0,3.7625,-0.7525,1.1025,-0.3233,-0.22448,-0.652822,-0.06958,0.13734,0.5047
-10.1661,0,0,25.1661,25.1661,5,5,3.63077,4.78721,-1.50826,-0.365258,-0.173765,0.357148,1,0,5.88,-0.9975,1.68,-0.3233,-0.22448,-0.652822,-0.06958,0.13734,0.5047
-10.0087,0,0,25.0087,25.0087,5,5,3.57452,4.83566,-1.60611,0.033101,0.0630348,0.0535792,0,0,6.86,-0.3675,1.1725,0.077592,0.013054,-0.95404,-0.06958,0.13734,0.5047
-9.85224,0,0,24.8522,24.8522,5.14776,5.14776,3.51866,4.88441,-1.70967,0.0322533,0.0620606,0.0535674,0,0,6.51,0.35,1.5225,0.077592,0.013054,-0.95404,-0.06412,0.14112,0.50358
-9.87076,0,0,24.8708,24.8708,5.12924,5.12924,3.52527,4.88415,-1.70521,0.231737,0.429655,-0.173033,1,0,6.93,-0.0175,1.6975,0.277916,0.380152,-1.17889,-0.06412,0.14112,0.50358
-9.87819,0,0,24.8782,24.8782,5.12181,5.12181,3.52793,4.88249,-1.70361,0.231766,0.429701,-0.173034,1,0,4.8475,-0.945,0.0875,0.277916,0.380152,-1.17889,-0.06412,0.14112,0.50358
-9.88247,0,0,24.8825,24.8825,5.11753,5.11753,3.52945,4.88235,-1.70352,0.210144,-0.125094,-0.0948399,1,0,4.2875,-0.105,-0.84,0.2562,-0.174094,-1.10129,-0.06412,0.14112,0.50358
-9.88129,0,0,24.8813,24.8813,5.11871,5.11871,3.52903,4.88268,-1.70466,0.210138,-0.125102,-0.09484,1,0,3.255,0.1225,-1.575,0.2562,-0.174094,-1.10129,-0.06412,0.14112,0.50358
-9.91707,0,0,24.9171,24.9171,5.08293,5.08293,3.54181,4.34456,-1.29397,-0.460091,-0.0024621,0.14024,0,0,4.06,-0.0875,-1.7325,-0.426268,-0.05185,-0.868762,-0.06412,0.14112,0.50358
-9.95641,0,0,24.9564,24.9564,5.04359,5.04359,3.55586,3.81587,-0.886654,-0.450887,-0.00217736,0.14088,0,0,5.2325,-0.035,-3.08,-0.426268,-0.05185,-0.868762,-0.06412,0.14112,0.50358
-9.95837,0,0,24.9584,24.9584,5.04163,5.04163,3.55656,3.81658,-0.890964,-0.292847,-0.310779,0.775662,1,0,3.99,0.2275,-3.43,-0.267546,-0.360144,-0.238876,-0.06412,0.14112,0.50358
-9.97205,0,0,24.9721,24.9721,5.02795,5.02795,3.56145,3.81695,-0.893849,-0.292853,-0.310695,0.775656,1,0,6.2825,0.0875,-2.59,-0.267546,-0.360144,-0.238876,-0.0735,0.1288,0.48538
-9.98111,0,0,24.9811,24.9811,5.01889,5.01889,3.56468,3.81715,-0.896716,-0.0791632,-0.268749,0.547583,1,0,5.355,-0.0175,-2.5725,-0.052948,-0.318298,-0.465186,-0.0735,0.1288,0.48538
-9.99446,0,0,24.9945,24.9945,5.00554,5.00554,3.56945,3.81952,-0.899928,-0.0792045,-0.268666,0.547575,1,0,6.23,1.2425,-2.8525,-0.052948,-0.318298,-0.465186,-0.0735,0.1288,0.48538
-10.0053,0,0,25.0053,25.0053,5,5,3.57331,3.82007,-0.90223,-0.323886,0.437416,-0.0653281,1,0,5.6875,0.21,-2.2575,-0.298656,0.386984,-1.07336,-0.0735,0.1288,0.48538
-10.0142,0,0,25.0142,25.0142,5,5,3.57651,3.82199,-0.903363,-0.32392,0.437471,-0.0653338,1,0,5.2675,1.05,-1.6275,-0.298656,0.386984,-1.07336,-0.0735,0.1288,0.48538
-10.0271,0,0,25.0271,25.0271,5,5,3.58112,3.82356,-0.904276,0.019979,0.369771,-0.148823,1,0,6.055,0.8575,-1.4875,0.046726,0.319274,-1.15619,-0.0735,0.1288,0.48538
-10.0318,0,0,25.0318,25.0318,5,5,3.58277,3.82554,-0.905103,0.0199445,0.369799,-0.148827,1,0,4.3925,1.1025,-1.4525,0.046726,0.319274,-1.15619,-0.0735,0.1288,0.48538
-9.61468,0,0,24.6147,24.6147,5.38532,5.38532,3.43381,4.1278,-1.19853,0.274175,0.161038,0.00305408,0,0,5.04,0.6475,-1.2075,0.307318,0.113338,-1.00528,-0.0735,0.1288,0.48538
-9.19653,0,0,24.1965,24.1965,5.80347,5.80347,3.28447,4.42373,-1.4924,0.269025,0.158421,0.00282197,0,0,3.6225,0.2625,-1.0325,0.307318,0.113338,-1.00528,-0.0735,0.1288,0.48538
-9.20074,0,0,24.2007,24.2007,5.79926,5.79926,3.28598,4.42521,-1.49342,-0.306236,0.141471,-0.206317,1,0,4.3225,0.805,-1.54,-0.270352,0.09638,-1.2128,-0.07224,0.1246,0.48972
-8.50636,0,0,23.5064,23.5064,6.49364,6.49364,3.03798,4.49785,-1.60459,0.0415286,0.233637,0.120005,0,0,4.2,-0.7,-0.63,0.080154,0.19276,-0.889136,-0.07224,0.1246,0.48972
-7.8232,0,0,22.8232,22.8232,7.1768,7.1768,2.794,4.56868,-1.71575,0.0402962,0.229393,0.120123,0,0,4.1825,-0.8575,-0.49,0.080154,0.19276,-0.889136,-0.07224,0.1246,0.48972
-7.82591,0,0,22.8259,22.8259,7.17409,7.17409,2.79497,4.56768,-1.71446,-0.419753,0.165293,-0.285114,1,0,3.92,-0.5775,-0.1225,-0.38186,0.12871,-1.29125,-0.07224,0.1246,0.48972
-7.83193,0,0,22.8319,22.8319,7.16807,7.16807,2.79712,4.56719,-1.71203,-0.419744,0.165331,-0.285115,1,0,4.5325,-0.245,0.525,-0.38186,0.12871,-1.29125,-0.07224,0.1246,0.48972
-7.84057,0,0,22.8406,22.8406,7.15943,7.15943,2.8002,4.56723,-1.70885,-0.267523,0.36152,-0.202743,1,0,5.0225,0.0875,0.945,-0.228994,0.324642,-1.20951,-0.07224,0.1246,0.48972
-7.84938,0,0,22.8494,22.8494,7.15062,7.15062,2.80335,4.56554,-1.70564,-0.267494,0.361575,-0.202743,1,0,5.0575,-0.9275,1.015,-0.228994,0.324642,-1.20951,-0.07224,0.1246,0.48972
-7.85574,0,0,22.8557,22.8557,7.14426,7.14426,2.80562,4.56456,-1.7017,-0.193249,0.122001,-0.109917,1,0,4.5325,-0.49,1.4175,-0.154452,0.085278,-1.1174,-0.07224,0.1246,0.48972
-7.86063,0,0,22.8606,22.8606,7.13937,7.13937,2.80737,4.56307,-1.69727,-0.193223,0.122032,-0.109917,1,0,4.2175,-0.77,1.715,-0.154452,0.085278,-1.1174,-0.07126,0.12656,0.4809
-7.6725,0,0,22.6725,22.6725,7.3275,7.3275,2.74018,4.4207,-1.61111,-0.124415,0.0665273,0.0781994,0,0,3.2375,-0.6125,1.05,-0.08784,0.030988,-0.930982,-0.07126,0.12656,0.4809
-7.484,0,0,22.484,22.484,7.516,7.516,2.67286,4.2817,-1.52735,-0.121996,0.0653656,0.0784386,0,0,2.6425,-0.2625,-0.455,-0.08784,0.030988,-0.930982,-0.07126,0.12656,0.4809
-7.82839,0,0,22.8284,22.8284,7.17161,7.17161,2.79585,4.43419,-1.68223,0.132293,-0.120215,0.0638724,0,0,2.45,-0.455,-0.77,0.17019,-0.156526,-0.945134,-0.07126,0.12656,0.4809
-8.16881,0,0,23.1688,23.1688,6.83119,6.83119,2.91743,4.5845,-1.83783,0.129677,-0.118112,0.063561,0,0,2.87,-0.0875,-1.7675,0.17019,-0.156526,-0.945134,-0.07126,0.12656,0.4809
-8.16955,0,0,23.1695,23.1695,6.83045,6.83045,2.9177,4.58356,-1.84067,0.118396,-0.131542,0.340442,1,0,3.71,-0.665,-2.52,0.158844,-0.169946,-0.67039,-0.07126,0.12656,0.4809
-8.17263,0,0,23.1726,23.1726,6.82737,6.82737,2.9188,4.58402,-1.84473,0.118388,-0.131522,0.34044,1,0,4.235,0.1225,-3.2725,0.158844,-0.169946,-0.67039,-0.07126,0.12656,0.4809
-8.17476,0,0,23.1748,23.1748,6.82524,6.82524,2.91956,4.58453,-1.84915,-0.260292,-0.255956,0.19327,1,0,4.06,0.14,-3.4825,-0.22143,-0.294264,-0.816424,-0.07126,0.12656,0.4809
-8.18248,0,0,23.1825,23.1825,6.81752,6.81752,2.92232,4.58594,-1.85358,-0.260317,-0.255909,0.193265,1,0,5.18,0.665,-3.5175,-0.22143,-0.294264,-0.816424,-0.0749,0.12894,0.4851
-7.28246,0,0,22.2825,22.2825,7.71754,7.71754,2.60088,4.04007,-1.43709,-0.476051,0.310336,0.221176,0,0,4.4625,1.12,-3.7625,-0.447618,0.27694,-0.789706,-0.0749,0.12894,0.4851
-6.39253,0,0,21.3925,21.3925,8.60747,8.60747,2.28304,3.501,-1.01418,-0.466663,0.304832,0.22203,0,0,3.9725,0.56,-3.08,-0.447618,0.27694,-0.789706,-0.0749,0.12894,0.4851
-6.18875,0,0,21.1887,21.1887,8.81125,8.81125,2.21027,3.52005,-1.05786,0.0146962,0.0754314,-0.0261734,0,0,3.85,1.4875,-2.7475,0.036112,0.049044,-1.03602,-0.0749,0.12894,0.4851
-5.98721,0,0,20.9872,20.9872,9.01279,9.01279,2.13829,3.5372,-1.09983,0.0143974,0.0741777,-0.0261443,0,0,3.5525,0.6475,-1.7675,0.036112,0.049044,-1.03602,-0.0749,0.12894,0.4851
-5.94709,0,0,20.9471,20.9471,9.05291,9.05291,2.12396,3.53672,-1.12292,-0.00430313,0.0146969,0.0460363,0,0,2.9575,0.4375,-1.3475,0.017324,-0.010126,-0.96441,-0.0749,0.12894,0.4851
-5.90456,0,0,20.9046,20.9046,9.09544,9.09544,2.10877,3.53561,-1.14469,-0.00428371,0.0144325,0.0460473,0,0,2.2925,0.0875,-0.595,0.017324,-0.010126,-0.96441,-0.0749,0.12894,0.4851
-5.66917,0,0,20.6692,20.6692,9.33083,9.33083,2.0247,3.85659,-1.45132,0.317165,0.0865987,-0.0311036,0,0,1.225,0.315,-0.49,0.345748,0.06344,-1.04066,-0.0749,0.12894,0.4851
-5.43391,0,0,20.4339,20.4339,9.56609,9.56609,1.94068,4.17155,-1.7469,0.311682,0.0851234,-0.0314376,0,0,0.56,0.315,0.035,0.345748,0.06344,-1.04066,-0.07784,0.1218,0.48986
-5.42508,0,0,20.4251,20.4251,9.57492,9.57492,1.93753,4.17142,-1.74506,0.38251,0.0998459,-0.285816,1,0,1.5925,-0.07,0.175,0.416874,0.078202,-1.29308,-0.07784,0.1218,0.48986
-5.41907,0,0,20.4191,20.4191,9.58093,9.58093,1.93538,4.17049,-1.74354,0.382526,0.0998085,-0.285814,1,0,2.17,-0.5425,0,0.416874,0.078202,-1.29308,-0.07784,0.1218,0.48986
-5.4248,0,0,20.4248,20.4248,9.5752,9.5752,1.93743,4.10321,-1.7054,-0.0587534,-0.00273942,-0.025817,0,0,3.395,-0.8575,0.0175,-0.02745,-0.024278,-1.03517,-0.07784,0.1218,0.48986
-5.43168,0,0,20.4317,20.4317,9.56832,9.56832,1.93989,4.03709,-1.66624,-0.0576024,-0.00269393,-0.0257366,0,0,3.605,-0.91,0.665,-0.02745,-0.024278,-1.03517,-0.07784,0.1218,0.48986
-5.44179,0,0,20.4418,20.4418,9.55821,9.55821,1.9435,4.03678,-1.66359,-0.532606,0.10081,-0.0972944,1,0,5.355,-0.1575,0.6475,-0.50447,0.079056,-1.10617,-0.07784,0.1218,0.48986
-5.45241,0,0,20.4524,20.4524,9.54759,9.54759,1.94729,4.03637,-1.66146,-0.532599,0.100876,-0.0972961,1,0,5.4775,-0.2275,0.35,-0.50447,0.079056,-1.10617,-0.07784,0.1218,0.48986
-5.45617,0,0,20.4562,20.4562,9.54383,9.54383,1.94863,4.03649,-1.65907,-0.556412,0.204585,-0.460856,1,0,4.095,0.0875,0.49,-0.528382,0.182634,-1.46693,-0.07784,0.1218,0.48986
-5.4582,0,0,20.4582,20.4582,9.5418,9.5418,1.94936,4.03593,-1.65616,-0.556402,0.204598,-0.460855,1,0,3.7275,-0.2975,0.805,-0.528382,0.182634,-1.46693,-0.07406,0.12446,0.48174
-5.44939,0,0,20.4494,20.4494,9.55061,9.55061,1.94621,4.03549,-1.6533,0.145671,0.34389,-0.575195,1,0,1.5575,-0.2275,0.77,0.176656,0.321836,-1.58039,-0.07406,0.12446,0.48174
-5.43927,0,0,20.4393,20.4393,9.56073,9.56073,1.9426,4.03418,-1.65129,0.145694,0.343827,-0.575191,1,0,1.33,-0.7525,0.2975,0.176656,0.321836,-1.58039,-0.07406,0.12446,0.48174
-5.42556,0,0,20.4256,20.4256,9.57444,9.57444,1.9377,4.03277,-1.64976,-0.436684,0.125501,-0.115482,1,0,0.63,-0.8225,0.0175,-0.408212,0.103822,-1.12423,-0.07406,0.12446,0.48174
-5.41637,0,0,20.4164,20.4164,9.58363,9.58363,1.93442,4.03278,-1.65014,-0.436684,0.125444,-0.11548,1,0,1.61,-0.035,-1.12,-0.408212,0.103822,-1.12423,-0.07406,0.12446,0.48174
-5.88213,0,0,20.8821,20.8821,9.11787,9.11787,2.10076,4.73306,-2.2699,0.647173,-0.17799,0.280608,0,0,1.365,0.035,-1.5925,0.692472,-0.202154,-0.73017,-0.07406,0.12446,0.48174
-6.3411,0,0,21.3411,21.3411,8.6589,8.6589,2.26468,5.42374,-2.88586,0.635166,-0.175183,0.279433,0,0,1.47,0.42,-2.5025,0.692472,-0.202154,-0.73017,-0.07406,0.12446,0.48174
-6.33143,0,0,21.3314,21.3314,8.66857,8.66857,2.26122,5.42445,-2.88962,0.018128,0.239378,0.193247,1,0,1.6975,0.2975,-3.0975,0.072834,0.212036,-0.815692,-0.07406,0.12446,0.48174
-6.32366,0,0,21.3237,21.3237,8.67634,8.67634,2.25845,5.42535,-2.89475,0.0181123,0.239329,0.193248,1,0,2.1525,0.385,-3.9025,0.072834,0.212036,-0.815692,-0.07406,0.12446,0.48174
-6.33142,0,0,21.3314,21.3314,8.66858,8.66858,2.26122,5.4258,-2.90033,-0.160844,-0.00231143,0.309923,1,0,5.285,0.105,-4.1475,-0.106872,-0.029402,-0.699914,-0.077,0.12138,0.47852
-6.34143,0,0,21.3414,21.3414,8.65857,8.65857,2.26479,5.42591,-2.90568,-0.160846,-0.0022494,0.309921,1,0,5.7225,-0.0875,-4.0075,-0.106872,-0.029402,-0.699914,-0.077,0.12138,0.47852
-5.53679,0,0,20.5368,20.5368,9.46321,9.46321,1.97742,5.48223,-3.0246,0.0448228,0.323477,-0.0567434,0,0,6.0025,0.9625,-3.5175,0.10065,0.300974,-1.06384,-0.077,0.12138,0.47852
-4.73278,0,0,19.7328,19.7328,10.2672,10.2672,1.69028,5.53782,-3.14278,0.0438571,0.318488,-0.0566769,0,0,3.5175,1.3125,-2.9925,0.10065,0.300974,-1.06384,-0.077,0.12138,0.47852
-4.72413,0,0,19.7241,19.7241,10.2759,10.2759,1.68719,5.53966,-3.14495,0.172235,0.361301,-0.187496,1,0,1.82,1.015,-2.1875,0.229604,0.343796,-1.19365,-0.077,0.12138,0.47852
-4.7092,0,0,19.7092,19.7092,10.2908,10.2908,1.68186,5.53965,-3.14605,0.172236,0.361208,-0.187493,1,0,0.5075,-0.0525,-1.54,0.229604,0.343796,-1.19365,-0.077,0.12138,0.47852
-4.59525,0,0,19.5952,19.5952,10.4048,10.4048,1.64116,5.71483,-3.34277,0.136513,0.0338039,0.0998045,0,0,-0.1225,-0.28,-0.385,0.196786,0.017446,-0.90829,-0.077,0.12138,0.47852
-4.48302,0,0,19.483,19.483,10.517,10.517,1.60108,5.88668,-3.53919,0.133529,0.0330996,0.0995212,0,0,-0.1225,-0.28,-0.385,0.196786,0.017446,-0.90829,-0.077,0.12138,0.47852
-4.46624,0,0,19.4662,19.4662,10.5338,10.5338,1.59509,5.88563,-3.53634,-0.0252343,0.107004,0.220015,1,0,-0.0875,-0.595,0.77,0.037332,0.091378,-0.78873,-0.0735,0.12068,0.47502
-5.20924,0,0,20.2092,20.2092,9.79076,9.79076,1.86044,5.82861,-3.49526,-0.0459902,-0.253668,0.0970296,0,0,1.61,0.21,0.7,0.015494,-0.273524,-0.91073,-0.0735,0.12068,0.47502
-5.94816,0,0,20.9482,20.9482,9.05184,9.05184,2.12434,5.77236,-3.45498,-0.0450135,-0.249085,0.0969695,0,0,3.255,-0.0525,0.7525,0.015494,-0.273524,-0.91073,-0.0735,0.12068,0.47502
-5.94955,0,0,20.9495,20.9495,9.05045,9.05045,2.12484,5.77136,-3.45181,-0.17863,0.141851,-0.421503,1,0,3.535,-0.5425,0.9625,-0.118706,0.116998,-1.4252,-0.0735,0.12068,0.47502
-5.95492,0,0,20.9549,20.9549,9.04508,9.04508,2.12676,5.77083,-3.44907,-0.178621,0.141884,-0.421503,1,0,4.3575,-0.28,0.7,-0.118706,0.116998,-1.4252,-0.0735,0.12068,0.47502
-5.96072,0,0,20.9607,20.9607,9.03928,9.03928,2.12883,5.77012,-3.44637,0.0704368,0.191137,-0.38302,1,0,4.445,-0.385,0.6825,0.131394,0.166164,-1.38702,-0.0735,0.12068,0.47502
-5.96998,0,0,20.97,20.97,9.03002,9.03002,2.13213,5.76791,-3.44352,0.0704751,0.191195,-0.383019,1,0,5.1275,-1.26,0.805,0.131394,0.166164,-1.38702,-0.0735,0.12068,0.47502
-5.97666,0,0,20.9767,20.9767,9.02334,9.02334,2.13452,5.76834,-3.44171,0.287441,0.156919,-0.136878,1,0,4.6725,0.2625,0.14,0.349286,0.131882,-1.14277,-0.0735,0.12068,0.47502
-5.9719,0,0,20.9719,20.9719,9.0281,9.0281,2.13282,5.76785,-3.44021,0.28745,0.156889,-0.136876,1,0,2.3975,-0.28,-0.0175,0.349286,0.131882,-1.14277,-0.07406,0.12054,0.48132
-5.96306,0,0,20.9631,20.9631,9.03694,9.03694,2.12966,5.76851,-3.43954,-0.019799,-0.190372,-0.354002,1,0,1.6275,0.3675,-0.525,0.040748,-0.214964,-1.35823,-0.07406,0.12054,0.48132
-5.93938,0,0,20.9394,20.9394,9.06062,9.06062,2.12121,5.76689,-3.43817,-0.0197709,-0.190519,-0.353994,1,0,-1.3825,-0.945,-0.07,0.040748,-0.214964,-1.35823,-0.07406,0.12054,0.48132
-5.91295,0,0,20.913,20.913,9.08705,9.08705,2.11177,5.76609,-3.43788,0.0187539,0.0285351,-0.279357,1,0,-1.8725,-0.49,-0.7175,0.079422,0.004026,-1.28417,-0.07406,0.12054,0.48132
-5.89728,0,0,20.8973,20.8973,9.10272,9.10272,2.10617,5.76484,-3.43912,0.0187757,0.0284381,-0.279351,1,0,0.3675,-0.7875,-1.5925,0.079422,0.004026,-1.28417,-0.07406,0.12054,0.48132
-5.88701,0,0,20.887,20.887,9.11299,9.11299,2.1025,5.76341,-3.43983,0.234194,-0.0670065,-0.110169,1,0,1.4175,-0.875,-1.2775,0.295728,-0.091256,-1.1163,-0.07406,0.12054,0.48132
-5.8891,0,0,20.8891,20.8891,9.1109,9.1109,2.10325,5.76449,-3.44255,0.234176,-0.0669936,-0.110171,1,0,4.0075,0.5425,-2.5025,0.295728,-0.091256,-1.1163,-0.07406,0.12054,0.48132
-5.89139,0,0,20.8914,20.8914,9.10861,9.10861,2.10407,5.76711,-3.44579,0.154314,0.00299904,-0.260666,1,0,4.0775,1.435,-2.835,0.215574,-0.02135,-1.26563,-0.07406,0.12054,0.48132
-5.90057,0,0,20.9006,20.9006,9.09943,9.09943,2.10735,5.76848,-3.44941,0.15429,0.00305584,-0.26067,1,0,5.4775,0.7,-3.0275,0.215574,-0.02135,-1.26563,-0.07546,0.12124,0.48286
-5.91102,0,0,20.911,20.911,9.08898,9.08898,2.11108,5.7703,-3.45379,-0.175939,0.336893,-0.265102,1,0,5.775,0.945,-3.4825,-0.116022,0.312076,-1.27002,-0.07546,0.12124,0.48286
-5.92073,0,0,20.9207,20.9207,9.07927,9.07927,2.11455,5.77252,-3.45925,-0.175978,0.336953,-0.265108,1,0,5.6875,1.155,-4.1125,-0.116022,0.312076,-1.27002,-0.07546,0.12124,0.48286
-5.93034,0,0,20.9303,20.9303,9.06966,9.06966,2.11798,5.77337,-3.46382,-0.469138,0.576259,-0.140442,1,0,5.6175,0.3675,-3.57,-0.410408,0.551074,-1.14631,-0.07546,0.12124,0.48286
-5.92864,0,0,20.9286,20.9286,9.07136,9.07136,2.11737,5.77438,-3.46636,-0.469155,0.576248,-0.140443,1,0,3.2375,0.5075,-2.3975,-0.410408,0.551074,-1.14631,-0.07546,0.12124,0.48286
-5.9256,0,0,20.9256,20.9256,9.0744,9.0744,2.11629,5.77564,-3.46865,0.0777515,-0.245928,-0.402202,1,0,2.9575,0.665,-2.2575,0.138836,-0.27023,-1.40605,-0.07546,0.12124,0.48286
-5.9122,0,0,20.9122,20.9122,9.0878,9.0878,2.1115,5.77663,-3.46897,0.0777344,-0.246011,-0.402201,1,0,0.77,0.5425,-1.1025,0.138836,-0.27023,-1.40605,-0.07546,0.12124,0.48286
-5.89879,0,0,20.8988,20.8988,9.10121,9.10121,2.10671,5.77721,-3.46872,0.0275508,-0.215441,-0.344413,1,0,0.735,0.315,-0.77,0.08845,-0.239608,-1.34871,-0.07546,0.12124,0.48286
-5.88477,0,0,20.8848,20.8848,9.11523,9.11523,2.1017,5.77574,-3.46563,0.0275763,-0.215527,-0.344407,1,0,0.455,-0.8225,0.9275,0.08845,-0.239608,-1.34871,-0.07182,0.12096,0.48286
-6.2805,0,0,21.2805,21.2805,8.7195,8.7195,2.24304,5.80069,-3.51206,0.0270214,-0.14554,0.0358586,0,0,0.6475,-0.35,0.56,0.088328,-0.172142,-0.971242,-0.07182,0.12096,0.48286
-6.67726,0,0,21.6773,21.6773,8.32274,8.32274,2.38473,5.82279,-3.55605,0.0266377,-0.143084,0.0357203,0,0,2.03,-1.75,1.9775,0.088328,-0.172142,-0.971242,-0.07182,0.12096,0.48286
-6.35032,0,0,21.3503,21.3503,8.64968,8.64968,2.26797,5.86268,-3.64466,0.0224221,0.114041,0.0735999,0,0,3.3775,-1.19,2.2575,0.08479,0.086742,-0.933666,-0.07182,0.12096,0.48286
-6.03964,0,0,21.0396,21.0396,8.96036,8.96036,2.15702,5.9034,-3.7349,0.0217152,0.112113,0.0736015,0,0,5.6525,-0.245,1.19,0.08479,0.086742,-0.933666,-0.07182,0.12096,0.48286
-6.05234,0,0,21.0523,21.0523,8.94766,8.94766,2.16155,5.9029,-3.73138,-0.552174,0.205497,-0.583683,1,0,5.775,-0.245,1.155,-0.491538,0.17995,-1.58588,-0.07182,0.12096,0.48286
-6.06907,0,0,21.0691,21.0691,8.93093,8.93093,2.16753,5.90334,-3.72843,-0.552182,0.2056,-0.583688,1,0,6.615,0.2975,0.805,-0.491538,0.17995,-1.58588,-0.07182,0.12096,0.48286
-6.07981,0,0,21.0798,21.0798,8.92019,8.92019,2.17136,5.90312,-3.72534,-0.0278462,0.402779,-0.118207,1,0,5.4075,-0.0875,0.8925,0.035014,0.376858,-1.12399,-0.07182,0.12096,0.48286
-6.08476,0,0,21.0848,21.0848,8.91524,8.91524,2.17313,5.90236,-3.72446,-0.0278329,0.40281,-0.118207,1,0,4.375,-0.455,-0.3675,0.035014,0.376858,-1.12399,-0.07084,0.12306,0.48594
-5.28382,0,0,20.2838,20.2838,9.71618,9.71618,1.88708,5.77645,-3.69359,-0.131461,0.279025,0.0786642,0,0,2.485,-1.365,-0.5075,-0.071248,0.258152,-0.92903,-0.07084,0.12306,0.48594
-4.49353,0,0,19.4935,19.4935,10.5065,10.5065,1.60483,5.65445,-3.66245,-0.129342,0.274132,0.0790255,0,0,2.0475,-0.175,-1.12,-0.071248,0.258152,-0.92903,-0.07084,0.12306,0.48594
-4.48587,0,0,19.4859,19.4859,10.5141,10.5141,1.6021,5.65437,-3.66349,0.342631,0.0507149,-0.0804372,1,0,1.96,-0.0875,-1.505,0.402722,0.035014,-1.08726,-0.07084,0.12306,0.48594
-4.47271,0,0,19.4727,19.4727,10.5273,10.5273,1.5974,5.65474,-3.66516,0.342625,0.0506333,-0.0804356,1,0,0.8925,0.1575,-1.8725,0.402722,0.035014,-1.08726,-0.07084,0.12306,0.48594
-4.4641,0,0,19.4641,19.4641,10.5359,10.5359,1.59432,5.65496,-3.66713,-0.0758973,0.353454,-0.552434,1,0,1.82,0.07,-2.0475,-0.017568,0.337574,-1.55562,-0.07084,0.12306,0.48594
-4.45598,0,0,19.456,19.456,10.544,10.544,1.59142,5.6557,-3.66858,-0.0759102,0.353404,-0.552434,1,0,1.89,0.385,-1.75,-0.017568,0.337574,-1.55562,-0.07084,0.12306,0.48594
-4.45594,0,0,19.4559,19.4559,10.5441,10.5441,1.59141,5.65712,-3.67178,0.560772,0.228224,-0.362972,1,0,3.605,0.7525,-2.7825,0.621834,0.212524,-1.36762,-0.07084,0.12306,0.48594
-4.4618,0,0,19.4618,19.4618,10.5382,10.5382,1.5935,5.65592,-3.67421,0.560792,0.22826,-0.362971,1,0,4.7425,-0.77,-2.2925,0.621834,0.212524,-1.36762,-0.07084,0.12306,0.48594
-4.47337,0,0,19.4734,19.4734,10.5266,10.5266,1.59763,5.65651,-3.67654,0.631365,0.353756,-0.139946,1,0,5.88,0.28,-2.2575,0.692716,0.337818,-1.14631,-0.07938,0.12782,0.47922
-3.85715,0,0,18.8571,18.8571,11.1429,11.1429,1.37755,5.06411,-3.22122,-0.546714,0.2249,0.194432,0,0,6.4575,1.645,-3.0275,-0.500688,0.21289,-0.81557,-0.07938,0.12782,0.47922
-3.2179,0,0,18.2179,18.2179,11.7821,11.7821,1.14925,4.47983,-2.76123,-0.536551,0.220949,0.195368,0,0,0.1925,1.4875,-2.66,-0.500688,0.21289,-0.81557,-0.07938,0.12782,0.47922
-3.84373,0,0,18.8437,18.8437,11.1563,11.1563,1.37276,4.51235,-2.80289,0.0270625,-0.209691,0.100445,0,0,4.7075,0.5075,-2.3975,0.06588,-0.221186,-0.909632,-0.07938,0.12782,0.47922
-4.4509,0,0,19.4509,19.4509,10.5491,10.5491,1.58961,4.54381,-2.84369,0.0265151,-0.20592,0.100304,0,0,2.975,0.1925,-1.995,0.06588,-0.221186,-0.909632,-0.07938,0.12782,0.47922
-4.44511,0,0,19.4451,19.4451,10.5549,10.5549,1.58754,4.54421,-2.84562,-0.174429,-0.07467,0.176655,1,0,2.3625,0.175,-2.03,-0.135908,-0.090036,-0.83387,-0.07938,0.12782,0.47922
-4.43578,0,0,19.4358,19.4358,10.5642,10.5642,1.58421,4.54266,-2.84502,-0.174402,-0.0747279,0.176659,1,0,1.54,-0.9275,-0.525,-0.135908,-0.090036,-0.83387,-0.07938,0.12782,0.47922
-4.43043,0,0,19.4304,19.4304,10.5696,10.5696,1.5823,4.54334,-2.84418,-0.393453,0.106475,0.220183,1,0,2.3275,0.385,-0.42,-0.355874,0.091012,-0.790682,-0.07938,0.12782,0.47922
-4.42702,0,0,19.427,19.427,10.573,10.573,1.58108,4.54329,-2.84287,-0.393452,0.106454,0.220183,1,0,2.695,-0.035,-0.14,-0.355874,0.091012,-0.790682,-0.07238,0.1218,0.48286
-3.96966,0,0,18.9697,18.9697,11.0303,11.0303,1.41774,4.15909,-2.53909,-0.391139,0.182764,-0.0343517,0,0,2.8875,-0.315,0.6475,-0.360266,0.170068,-1.04383,-0.07238,0.1218,0.48286
-3.52651,0,0,18.5265,18.5265,11.4735,11.4735,1.25947,3.78082,-2.23298,-0.384553,0.180019,-0.0338304,0,0,4.34,-0.56,1.015,-0.360266,0.170068,-1.04383,-0.07238,0.1218,0.48286
-4.05264,0,0,19.0526,19.0526,10.9474,10.9474,1.44737,4.37498,-2.75321,0.505434,-0.181276,0.28121,0,0,3.36,-0.21,1.5575,0.543876,-0.194102,-0.730414,-0.07238,0.1218,0.48286
-4.58207,0,0,19.5821,19.5821,10.4179,10.4179,1.63645,4.95914,-3.26891,0.495272,-0.178011,0.280292,0,0,5.495,-0.7,1.4175,0.543876,-0.194102,-0.730414,-0.07238,0.1218,0.48286
-4.59129,0,0,19.5913,19.5913,10.4087,10.4087,1.63975,4.95592,-3.26426,-0.252538,0.37467,0.192387,1,0,5.0575,-1.8375,1.855,-0.207156,0.357948,-0.817644,-0.07238,0.1218,0.48286
-4.59785,0,0,19.5979,19.5979,10.4021,10.4021,1.64209,4.95589,-3.2616,-0.252537,0.374711,0.192386,1,0,4.62,0,0.6475,-0.207156,0.357948,-0.817644,-0.07238,0.1218,0.48286
-4.59908,0,0,19.5991,19.5991,10.4009,10.4009,1.64253,4.95575,-3.2593,0.0725608,0.484999,0.437668,1,0,3.57,-0.07,0.4375,0.119316,0.468114,-0.574254,-0.07238,0.1218,0.48286
-4.5958,0,0,19.5958,19.5958,10.4042,10.4042,1.64136,4.9556,-3.25866,0.0725634,0.484979,0.437669,1,0,2.7475,-0.105,-0.525,0.119316,0.468114,-0.574254,-0.07196,0.12474,0.48384
-4.59166,0,0,19.5917,19.5917,10.4083,10.4083,1.63988,4.95349,-3.25832,0.123867,0.322647,0.486238,1,0,2.59,-1.26,-0.665,0.1708,0.305976,-0.526064,-0.07196,0.12474,0.48384
-4.57088,0,0,19.5709,19.5709,10.4291,10.4291,1.63246,4.95369,-3.26065,0.123864,0.322518,0.486241,1,0,-0.6125,0.0525,-2.2575,0.1708,0.305976,-0.526064,-0.07196,0.12474,0.48384
-4.56106,0,0,19.5611,19.5611,10.4389,10.4389,1.62895,4.9552,-3.26463,-0.162504,0.347737,0.409521,1,0,1.6625,0.7875,-3.2375,-0.116754,0.33123,-0.602192,-0.07196,0.12474,0.48384
-4.56157,0,0,19.5616,19.5616,10.4384,10.4384,1.62913,4.95367,-3.2671,-0.162478,0.34774,0.409523,1,0,3.6575,-0.9625,-2.31,-0.116754,0.33123,-0.602192,-0.07196,0.12474,0.48384
-4.5684,0,0,19.5684,19.5684,10.4316,10.4316,1.63157,4.955,-3.27021,-0.247905,-0.141091,0.218949,1,0,4.9525,0.7,-2.73,-0.20252,-0.157136,-0.791292,-0.07196,0.12474,0.48384
-4.57531,0,0,19.5753,19.5753,10.4247,10.4247,1.63404,4.95673,-3.27475,-0.247936,-0.141048,0.218946,1,0,5.04,0.91,-3.57,-0.20252,-0.157136,-0.791292,-0.07196,0.12474,0.48384
-4.58371,0,0,19.5837,19.5837,10.4163,10.4163,1.63704,4.95813,-3.27822,0.0242895,0.221354,-0.32572,1,0,5.285,0.735,-2.94,0.070882,0.204838,-1.33175,-0.07196,0.12474,0.48384
-4.59419,0,0,19.5942,19.5942,10.4058,10.4058,1.64078,4.95864,-3.28172,0.0242807,0.221419,-0.325722,1,0,5.705,0.21,-2.94,0.070882,0.204838,-1.33175,-0.08232,0.12124,0.4823
-4.59394,0,0,19.5939,19.5939,10.4061,10.4061,1.64069,4.95903,-3.28411,0.147946,-0.0697326,-0.108596,1,0,3.5,0.1575,-2.2925,0.195078,-0.08601,-1.1163,-0.08232,0.12124,0.4823
-4.58934,0,0,19.5893,19.5893,10.4107,10.4107,1.63905,4.9607,-3.28673,0.147917,-0.0697612,-0.108598,1,0,2.6425,0.91,-2.45,0.195078,-0.08601,-1.1163,-0.08232,0.12124,0.4823
-4.62472,0,0,19.6247,19.6247,10.3753,10.3753,1.65169,5.41373,-3.7073,0.403545,-0.017414,0.132029,0,0,1.715,-0.6125,-1.225,0.459696,-0.033916,-0.876814,-0.08232,0.12124,0.4823
-4.66317,0,0,19.6632,19.6632,10.3368,10.3368,1.66542,5.86055,-4.1258,0.395785,-0.0171978,0.131257,0,0,2.555,0.3675,-0.84,0.459696,-0.033916,-0.876814,-0.08232,0.12124,0.4823
-4.6553,0,0,19.6553,19.6553,10.3447,10.3447,1.66261,5.8606,-4.12569,-0.13766,0.0300165,0.228264,1,0,1.855,0,-0.84,-0.076006,0.013298,-0.780556,-0.08232,0.12124,0.4823
-4.65198,0,0,19.652,19.652,10.348,10.348,1.66142,5.86175,-4.12468,-0.13768,0.0299958,0.228263,1,0,2.7125,0.665,-0.3325,-0.076006,0.013298,-0.780556,-0.08232,0.12124,0.4823
-4.65223,0,0,19.6522,19.6522,10.3478,10.3478,1.66151,5.86128,-4.12312,-0.417089,0.434359,-0.128779,1,0,3.395,-0.28,0.0175,-0.356606,0.41724,-1.13484,-0.08232,0.12124,0.4823
-4.6445,0,0,19.6445,19.6445,10.3555,10.3555,1.65875,5.8606,-4.12192,-0.417077,0.434311,-0.128776,1,0,1.82,-0.4025,-0.1925,-0.356606,0.41724,-1.13484,-0.07602,0.12418,0.48146
-4.64072,0,0,19.6407,19.6407,10.3593,10.3593,1.6574,5.86106,-4.12068,-0.0707293,0.0657092,-0.305576,1,0,2.6075,0.2625,-0.1925,-0.008784,0.049044,-1.31028,-0.07602,0.12418,0.48146
-4.64536,0,0,19.6454,19.6454,10.3546,10.3546,1.65906,5.8587,-4.11782,-0.0706883,0.065738,-0.305573,1,0,4.2,-1.365,0.805,-0.008784,0.049044,-1.31028,-0.07602,0.12418,0.48146
-4.65555,0,0,19.6555,19.6555,10.3445,10.3445,1.6627,5.85841,-4.1154,0.147627,0.241908,-0.19074,1,0,5.3375,-0.1575,0.5075,0.21045,0.224968,-1.19633,-0.07602,0.12418,0.48146
-4.6678,0,0,19.6678,19.6678,10.3322,10.3322,1.66707,5.85841,-4.11403,0.147626,0.241984,-0.190742,1,0,5.81,0,-0.105,0.21045,0.224968,-1.19633,-0.07602,0.12418,0.48146
-4.67251,0,0,19.6725,19.6725,10.3275,10.3275,1.66875,5.85879,-4.1118,0.383302,-0.181522,-0.0316486,1,0,4.2525,0.2275,0.385,0.44713,-0.198128,-1.03846,-0.07602,0.12418,0.48146
-4.67457,0,0,19.6746,19.6746,10.3254,10.3254,1.66949,5.85785,-4.10971,0.383319,-0.18151,-0.0316473,1,0,3.7275,-0.5425,0.3325,0.44713,-0.198128,-1.03846,-0.07602,0.12418,0.48146
-4.80387,0,0,19.8039,19.8039,10.1961,10.1961,1.71567,5.22956,-3.58999,-0.604258,-0.047192,0.106598,0,0,1.365,-1.2075,0.595,-0.555588,-0.064782,-0.902312,-0.07602,0.12418,0.48146
-4.92039,0,0,19.9204,19.9204,10.0796,10.0796,1.75728,4.61345,-3.07308,-0.593545,-0.0464407,0.107499,0,0,-0.35,0.245,-0.105,-0.555588,-0.064782,-0.902312,-0.07602,0.12418,0.48146
-4.06388,0,0,19.0639,19.0639,10.9361,10.9361,1.45138,4.7173,-3.22538,0.083511,0.311929,0.0436899,0,0,-0.4725,-1.0325,0.0175,0.126148,0.298534,-0.96563,-0.07182,0.12572,0.48832
-3.22802,0,0,18.228,18.228,11.772,11.772,1.15286,4.82089,-3.37993,0.0817092,0.306735,0.0436576,0,0,1.1025,0,-0.945,0.126148,0.298534,-0.96563,-0.07182,0.12572,0.48832
-3.21992,0,0,18.2199,18.2199,11.7801,11.7801,1.14997,4.8215,-3.38117,0.490255,0.119831,0.316972,1,0,1.8725,0.315,-1.6275,0.536434,0.111874,-0.694424,-0.07182,0.12572,0.48832
-3.21183,0,0,18.2118,18.2118,11.7882,11.7882,1.14708,4.82211,-3.38241,0.490244,0.119781,0.316972,1,0,1.8725,0.315,-1.6275,0.536434,0.111874,-0.694424,-0.07182,0.12572,0.48832
-3.21786,0,0,18.2179,18.2179,11.7821,11.7821,1.14924,4.8223,-3.38486,-0.339992,0.178805,-0.135356,1,0,4.76,0.0525,-2.3275,-0.297314,0.1708,-1.14326,-0.07182,0.12572,0.48832
-3.2239,0,0,18.2239,18.2239,11.7761,11.7761,1.15139,4.82249,-3.38731,-0.339995,0.178843,-0.135357,1,0,4.76,0.0525,-2.3275,-0.297314,0.1708,-1.14326,-0.07182,0.12572,0.48832
-3.23157,0,0,18.2316,18.2316,11.7684,11.7684,1.15413,4.82384,-3.39284,-0.29349,-0.0844147,-0.156261,1,0,5.2325,0.7,-4.13,-0.250588,-0.092232,-1.164,-0.07182,0.12572,0.48832
-3.23925,0,0,18.2392,18.2392,11.7608,11.7608,1.15687,4.82519,-3.39837,-0.293513,-0.0843671,-0.156264,1,0,5.2325,0.7,-4.13,-0.250588,-0.092232,-1.164,-0.07182,0.12572,0.48832
-3.23939,0,0,18.2394,18.2394,11.7606,11.7606,1.15693,4.82564,-3.40172,0.344886,-0.262793,-0.349171,1,0,3.6225,0.1925,-2.8525,0.390522,-0.270474,-1.35542,-0.07532,0.12572,0.48734
-3.23728,0,0,18.2373,18.2373,11.7627,11.7627,1.15617,4.82778,-3.40497,-0.214836,0.174163,-0.149875,1,0,3.1675,1.19,-2.8175,-0.171532,0.166042,-1.15766,-0.07532,0.12572,0.48734
-3.23339,0,0,18.2334,18.2334,11.7666,11.7666,1.15478,4.82858,-3.40657,-0.21485,0.174139,-0.149875,1,0,2.73,0.42,-1.8375,-0.171532,0.166042,-1.15766,-0.07532,0.12572,0.48734
-3.40962,0,0,18.4096,18.4096,11.5904,11.5904,1.21772,4.47476,-3.11936,-0.341236,-0.0675442,-0.00788351,0,0,3.01,-0.035,-1.4,-0.304634,-0.076494,-1.01724,-0.07532,0.12572,0.48734
-3.5687,0,0,18.5687,18.5687,11.4313,11.4313,1.27454,4.12733,-2.83141,-0.335189,-0.0665457,-0.00745035,0,0,0.1925,0.07,-0.245,-0.304634,-0.076494,-1.01724,-0.07532,0.12572,0.48734
-4.28124,0,0,19.2812,19.2812,10.7188,10.7188,1.52901,4.10398,-2.80808,-0.020256,-0.252756,0.0894769,0,0,0.945,0.5775,-0.2275,0.011224,-0.266936,-0.920978,-0.07532,0.12572,0.48734
-4.9761,0,0,19.9761,19.9761,10.0239,10.0239,1.77718,4.07841,-2.78294,-0.0198108,-0.248437,0.0893841,0,0,-0.385,-0.98,1.1375,0.011224,-0.266936,-0.920978,-0.07532,0.12572,0.48734
-4.96628,0,0,19.9663,19.9663,10.0337,10.0337,1.77367,4.07721,-2.77945,-0.203112,0.269808,-0.127617,1,0,1.33,-0.665,1.155,-0.172874,0.250832,-1.13631,-0.07532,0.12572,0.48734
-4.97139,0,0,19.9714,19.9714,10.0286,10.0286,1.7755,4.07801,-2.77646,-0.203126,0.26984,-0.127619,1,0,4.34,0.49,0.8225,-0.172874,0.250832,-1.13631,-0.07126,0.12418,0.48076
-4.98158,0,0,19.9816,19.9816,10.0184,10.0184,1.77914,4.0784,-2.77301,0.151849,-0.132627,-0.23225,1,0,5.3375,0.2625,1.1025,0.18361,-0.15128,-1.24013,-0.07126,0.12418,0.48076
