pid_x,pid_y,pid_z,front_left_speed,front_right_speed,back_left_speed,back_right_speed,orientation_x,orientation_y,orientation_z,acceleration_x,acceleration_y,acceleration_z,accel_rejected,mag_rejected,gyro_x,gyro_y,gyro_z,accel_x,accel_y,accel_z,mag_x,mag_y,mag_z
-0.0289234,0,0,15.0289,15.0289,14.9711,14.9711,0.0115694,0.0652671,0.0195313,0.0515081,-0.0100017,-0.0119877,0,0,3.465,-0.0175,-0.7875,0.012566,0.001952,-1.02456,-0.06678,0.10654,0.462
-0.0574202,0,0,15.0574,15.0574,14.9426,14.9426,0.0229681,0.129111,0.0392126,0.0503938,-0.00980273,-0.0119897,0,0,3.5,0,-0.6825,0.012566,0.001952,-1.02456,-0.06678,0.10654,0.462
-0.0725781,0,0,15.0726,15.0726,14.9274,14.9274,0.0290313,0.186466,0.0632059,0.0452622,-0.00542247,-0.0067057,0,0,3.325,0,-0.6825,0.008418,0.006222,-1.01931,-0.06678,0.10654,0.462
-0.0866504,0,0,15.0867,15.0867,14.9133,14.9133,0.0346602,0.242911,0.086855,0.0442771,-0.00532423,-0.00670945,0,0,3.15,0.21,-0.8575,0.008418,0.006222,-1.01931,-0.06678,0.10654,0.462
-0.110328,0,0,15.1103,15.1103,14.8897,14.8897,0.0441312,0.301591,0.106943,0.0454397,-0.00845636,0.00791645,0,0,3.185,0,-0.98,0.010614,0.002928,-1.00479,-0.06678,0.10654,0.462
-0.134466,0,0,15.1345,15.1345,14.8655,14.8655,0.0537862,0.35921,0.126998,0.0444341,-0.00828786,0.0079105,0,0,3.395,0.14,-0.98,0.010614,0.002928,-1.00479,-0.06678,0.10654,0.462
-0.149587,0,0,15.1496,15.1496,14.8504,14.8504,0.0598347,0.410548,0.151462,0.0396505,-0.00525126,0.0109781,0,0,3.36,0.07,-0.875,0.00671,0.005856,-1.00174,-0.06678,0.10654,0.462
-0.164385,0,0,15.1644,15.1644,14.8356,14.8356,0.0657541,0.460526,0.163106,0.0387783,-0.00514795,0.0109713,0,0,3.36,0.0875,-0.945,0.00671,0.005856,-1.00174,-0.06342,0.1134,0.45934
-0.169488,0,0,15.1695,15.1695,14.8305,14.8305,0.0677953,0.515317,0.169332,0.0426814,-0.00169279,0.0105943,0,0,3.465,0.14,-0.84,0.01159,0.009272,-1.00211,-0.06342,0.1134,0.45934
-0.174489,0,0,15.1745,15.1745,14.8255,14.8255,0.0697955,0.568916,0.175547,0.041746,-0.00165789,0.0105854,0,0,3.465,0.14,-0.84,0.01159,0.009272,-1.00211,-0.06342,0.1134,0.45934
-0.191479,0,0,15.1915,15.1915,14.8085,14.8085,0.0765916,0.621233,0.18196,0.040833,-0.00556948,0.00762503,0,0,3.5875,0.07,-0.84,0.01159,0.005246,-1.00504,-0.06342,0.1134,0.45934
-0.208128,0,0,15.2081,15.2081,14.7919,14.7919,0.0832514,0.672408,0.188366,0.0399398,-0.00545327,0.00761478,0,0,3.5875,0.07,-0.84,0.01159,0.005246,-1.00504,-0.06342,0.1134,0.45934
-0.226618,0,0,15.2266,15.2266,14.7734,14.7734,0.0906473,0.719425,0.197422,0.0366896,-0.00593484,0.00600629,0,0,3.6925,0.105,-0.9625,0.00915,0.004636,-1.00662,-0.06342,0.1134,0.45934
-0.244738,0,0,15.2447,15.2447,14.7553,14.7553,0.097895,0.765415,0.206464,0.035887,-0.00580837,0.00599568,0,0,3.6925,0.105,-0.9625,0.00915,0.004636,-1.00662,-0.06342,0.1134,0.45934
-0.265791,0,0,15.2658,15.2658,14.7342,14.7342,0.106317,0.809774,0.216009,0.0351128,-0.00676056,-0.000408547,0,0,3.7625,-0.0525,-0.875,0.00915,0.003538,-1.01297,-0.06342,0.1134,0.45934
-0.285641,0,0,15.2856,15.2856,14.7144,14.7144,0.114257,0.855094,0.234942,0.0356583,-0.00674415,0.00105508,0,0,3.5,0.0175,-0.8575,0.010492,0.003416,-1.0115,-0.06412,0.10724,0.46032
-0.305577,0,0,15.3056,15.3056,14.6944,14.6944,0.122231,0.89579,0.25718,0.0320324,-0.00672713,0.000306246,0,0,3.535,0.0175,-0.8575,0.007564,0.003294,-1.01223,-0.06412,0.10724,0.46032
-0.325278,0,0,15.3253,15.3253,14.6747,14.6747,0.130111,0.935351,0.279585,0.031342,-0.00658964,0.00029491,0,0,3.57,-0.1225,-0.735,0.007564,0.003294,-1.01223,-0.06412,0.10724,0.46032
-0.351487,0,0,15.3515,15.3515,14.6485,14.6485,0.140595,0.977304,0.299008,0.0332826,-0.00884926,-0.000701331,0,0,3.57,-0.175,-0.735,0.010248,0.000854,-1.01321,-0.06412,0.10724,0.46032
-0.377175,0,0,15.3772,15.3772,14.6228,14.6228,0.15087,1.01833,0.318485,0.0325666,-0.00866998,-0.000714257,0,0,3.57,-0.175,-0.6825,0.010248,0.000854,-1.01321,-0.06412,0.10724,0.46032
-0.401642,0,0,15.4016,15.4016,14.5984,14.5984,0.160657,1.05635,0.339748,0.0302025,-0.0083771,-0.00183327,0,0,3.5,-0.14,-0.77,0.00854,0.000976,-1.01431,-0.06412,0.10724,0.46032
-0.424849,0,0,15.4248,15.4248,14.5752,14.5752,0.16994,1.09373,0.36115,0.02955,-0.00821515,-0.00184598,0,0,3.325,-0.0175,-0.665,0.00854,0.000976,-1.01431,-0.06412,0.10724,0.46032
-0.458131,0,0,15.4581,15.4581,14.5419,14.5419,0.183253,1.13042,0.382662,0.0287884,-0.0115246,-0.00235092,0,0,3.4475,0.0525,-0.7,0.008418,-0.002562,-1.0148,-0.06412,0.10724,0.46032
-0.489807,0,0,15.4898,15.4898,14.5102,14.5102,0.195923,1.16647,0.395146,0.0281594,-0.0113035,-0.00236426,0,0,3.2375,0.07,-0.6475,0.008418,-0.002562,-1.0148,-0.06916,0.11284,0.4634
-0.515256,0,0,15.5153,15.5153,14.4847,14.4847,0.206102,1.20486,0.404481,0.0305266,-0.0091719,-0.00852617,0,0,3.2725,0,-0.665,0.011468,-0.00061,-1.0209,-0.06916,0.11284,0.4634
-0.540901,0,0,15.5409,15.5409,14.4591,14.4591,0.21636,1.24263,0.41389,0.0298674,-0.00899296,-0.00854091,0,0,3.43,0.14,-0.6125,0.011468,-0.00061,-1.0209,-0.06916,0.11284,0.4634
-0.56726,0,0,15.5673,15.5673,14.4327,14.4327,0.226904,1.27758,0.424961,0.0276783,-0.00917541,-0.00916978,0,0,3.4825,0.1225,-0.6825,0.009882,-0.000976,-1.02151,-0.06916,0.11284,0.4634
-0.593713,0,0,15.5937,15.5937,14.4063,14.4063,0.237485,1.31185,0.43595,0.0270804,-0.00899084,-0.00918404,0,0,3.6225,0.175,-0.7175,0.009882,-0.000976,-1.02151,-0.06916,0.11284,0.4634
-0.618598,0,0,15.6186,15.6186,14.3814,14.3814,0.247439,1.35013,0.442894,0.0304216,-0.00857297,-0.0127658,0,0,3.57,0.245,-0.5775,0.013908,-0.000732,-1.02504,-0.06916,0.11284,0.4634
-0.641966,0,0,15.642,15.642,14.358,14.358,0.256787,1.38788,0.449736,0.0297627,-0.00840995,-0.0127823,0,0,3.3425,0.4375,-0.63,0.013908,-0.000732,-1.02504,-0.06916,0.11284,0.4634
-0.664764,0,0,15.6648,15.6648,14.3352,14.3352,0.265906,1.4208,0.460182,0.0256654,-0.00849515,-0.00640374,0,0,3.115,0.3675,-0.595,0.01037,-0.000976,-1.0187,-0.06916,0.11284,0.4634
-0.687488,0,0,15.6875,15.6875,14.3125,14.3125,0.274995,1.4527,0.473547,0.0251087,-0.00833663,-0.00641845,0,0,3.2025,0.2275,-0.6475,0.01037,-0.000976,-1.0187,-0.06748,0.11102,0.46074
-0.695349,0,0,15.6953,15.6953,14.3047,14.3047,0.27814,1.48344,0.486807,0.0238435,-0.00339676,0.00721482,0,0,2.975,0.105,-0.665,0.009638,0.003904,-1.00516,-0.06748,0.11102,0.46074
-0.703585,0,0,15.7036,15.7036,14.2964,14.2964,0.281434,1.51354,0.499829,0.0233184,-0.00333935,0.0072008,0,0,3.0975,0.1225,-0.7875,0.009638,0.003904,-1.00516,-0.06748,0.11102,0.46074
-0.71305,0,0,15.7131,15.7131,14.2869,14.2869,0.28522,1.53827,0.516483,0.0193638,-0.00351761,0.00534475,0,0,3.2725,-0.0175,-1.0325,0.0061,0.00366,-1.00699,-0.06748,0.11102,0.46074
-0.722022,0,0,15.722,15.722,14.278,14.278,0.288809,1.56234,0.533221,0.0189438,-0.00345506,0.00533307,0,0,3.2025,-0.0875,-0.9625,0.0061,0.00366,-1.00699,-0.06748,0.11102,0.46074
-0.731728,0,0,15.7317,15.7317,14.2683,14.2683,0.292691,1.58707,0.54906,0.0194843,-0.00363164,0.00433728,0,0,3.255,-0.07,-0.8575,0.007076,0.003416,-1.00796,-0.06748,0.11102,0.46074
-0.741241,0,0,15.7412,15.7412,14.2588,14.2588,0.296497,1.61125,0.564867,0.0190624,-0.00356531,0.00432516,0,0,3.255,-0.07,-0.8575,0.007076,0.003416,-1.00796,-0.06748,0.11102,0.46074
-0.760586,0,0,15.7606,15.7606,14.2394,14.2394,0.304234,1.63717,0.578573,0.020554,-0.00697206,0.000131385,0,0,3.29,-0.07,-0.9625,0.009028,-0.000122,-1.01211,-0.06748,0.11102,0.46074
-0.779548,0,0,15.7795,15.7795,14.2205,14.2205,0.311819,1.66257,0.597798,0.0201108,-0.0068398,0.00011791,0,0,3.29,-0.07,-0.9625,0.009028,-0.000122,-1.01211,-0.06776,0.10794,0.4592
-0.788027,0,0,15.788,15.788,14.212,14.212,0.315211,1.69201,0.612528,0.0233633,-0.00287266,0.00465164,0,0,3.465,-0.1575,-0.8925,0.01281,0.003782,-1.0076,-0.06776,0.10794,0.4592
-0.796338,0,0,15.7963,15.7963,14.2037,14.2037,0.318535,1.72081,0.627227,0.0228609,-0.00281475,0.00463635,0,0,3.465,-0.1575,-0.8925,0.01281,0.003782,-1.0076,-0.06776,0.10794,0.4592
-0.92732,0,0,15.9273,15.9273,14.0727,14.0727,0.370928,1.91017,0.497155,0.159509,-0.0487981,-0.0382599,0,0,3.2725,-0.2975,-0.8225,0.153354,-0.043066,-1.05005,-0.06776,0.10794,0.4592
-1.05567,0,0,16.0557,16.0557,13.9443,13.9443,0.422268,2.09542,0.367609,0.156278,-0.0479034,-0.0383791,0,0,3.2725,-0.2975,-0.8225,0.153354,-0.043066,-1.05005,-0.06776,0.10794,0.4592
-1.19185,0,0,16.1918,16.1918,13.8082,13.8082,0.476739,2.29171,0.226218,0.168648,-0.0520838,-0.0558534,0,0,3.2375,0.3325,-0.735,0.169214,-0.04819,-1.06726,-0.06776,0.10794,0.4592
-0.939785,0,0,15.9398,15.9398,14.0602,14.0602,0.375914,2.41704,0.136325,0.105598,0.0899005,-0.0176932,0,0,3.1325,0.245,-0.735,0.108092,0.095404,-1.02931,-0.06776,0.10794,0.4592
-0.692272,0,0,15.6923,15.6923,14.3077,14.3077,0.276909,2.53907,0.0459553,0.10347,0.0881737,-0.0177755,0,0,3.0625,-0.14,-0.945,0.108092,0.095404,-1.02931,-0.06776,0.10794,0.4592
-0.660716,0,0,15.6607,15.6607,14.3393,14.3393,0.264286,2.59884,-0.00300163,0.057721,0.0127233,-0.0981066,0,0,4.0775,-0.175,-1.1375,0.063196,0.020252,-1.10898,-0.06552,0.11774,0.47166
-0.583892,0,0,15.5839,15.5839,14.4161,14.4161,0.233557,2.60704,-0.00675911,0.00789043,0.0284304,-0.00958781,0,0,4.3225,-0.4375,-0.9275,0.013298,0.036478,-1.02114,-0.06552,0.11774,0.47166
-0.508401,0,0,15.5084,15.5084,14.4916,14.4916,0.20336,2.61518,-0.0115102,0.00774844,0.0279039,-0.00959228,0,0,4.305,-0.3675,-1.5225,0.013298,0.036478,-1.02114,-0.06552,0.11774,0.47166
-0.296128,0,0,15.2961,15.2961,14.7039,14.7039,0.118451,2.63238,-0.0273229,0.00635514,0.065504,0.136092,0,0,4.1825,-0.21,-1.54,0.0122,0.075518,-0.87657,-0.06552,0.11774,0.47166
-0.295906,0,0,15.2959,15.2959,14.7041,14.7041,0.118362,2.63323,-0.0283508,0.00634032,0.0655025,0.136091,1,0,3.43,0.525,-1.4,0.0122,0.075518,-0.87657,-0.06552,0.11774,0.47166
-0.533683,0,0,15.5337,15.5337,14.4663,14.4663,0.213473,2.48695,0.11674,-0.113324,-0.0774369,0.0881278,0,0,2.5375,0.805,-1.3475,-0.110532,-0.06893,-0.924272,-0.06552,0.11774,0.47166
-0.769174,0,0,15.7692,15.7692,14.2308,14.2308,0.30767,2.34465,0.260863,-0.110842,-0.0757939,0.088225,0,0,3.0975,1.3125,-1.4175,-0.110532,-0.06893,-0.924272,-0.06552,0.11774,0.47166
-0.630486,0,0,15.6305,15.6305,14.3695,14.3695,0.252194,2.35499,0.260588,0.00936976,0.0498841,-0.0432096,0,0,3.0975,1.085,-1.26,0.01037,0.057584,-1.05469,-0.06552,0.11774,0.47166
-0.50357,0,0,15.5036,15.5036,14.4964,14.4964,0.201428,2.36433,0.25427,0.00920676,0.0489988,-0.0432128,0,0,5.11,0.4375,-1.05,0.01037,0.057584,-1.05469,-0.06902,0.12166,0.48314
-0.723595,0,0,15.7236,15.7236,14.2764,14.2764,0.289438,2.3722,0.254279,0.00894812,-0.0779438,-0.0540445,0,0,5.7225,-0.175,-0.735,0.010248,-0.07076,-1.06543,-0.06902,0.12166,0.48314
-0.932857,0,0,15.9329,15.9329,14.0671,14.0671,0.373143,2.37922,0.254777,0.00882565,-0.0764842,-0.054058,0,0,4.27,-0.56,-0.42,0.010248,-0.07076,-1.06543,-0.06902,0.12166,0.48314
-1.06835,0,0,16.0683,16.0683,13.9317,13.9317,0.427339,2.42392,0.219465,0.0401184,-0.0496485,-0.0379911,0,0,3.5,-0.875,-0.2625,0.042456,-0.044896,-1.04944,-0.06902,0.12166,0.48314
-1.19452,0,0,16.1945,16.1945,13.8055,13.8055,0.477807,2.46761,0.184865,0.0393566,-0.0487688,-0.0380306,0,0,1.995,-0.8925,0.0875,0.042456,-0.044896,-1.04944,-0.06902,0.12166,0.48314
-0.348242,0,0,15.3482,15.3482,14.6518,14.6518,0.139297,2.38878,0.245706,-0.0630176,0.282154,0.0815654,0,0,1.4175,-0.5075,0.105,-0.061732,0.29158,-0.93086,-0.06902,0.12166,0.48314
0.482703,0,0,14.5173,14.5173,15.4827,15.4827,-0.193081,2.3127,0.308408,-0.0616909,0.276358,0.0816172,0,0,1.2425,0.21,0.5775,-0.061732,0.29158,-0.93086,-0.06902,0.12166,0.48314
-0.426094,0,0,15.4261,15.4261,14.5739,14.5739,0.170438,1.9402,0.672267,-0.295736,-0.30693,0.133867,0,0,3.01,0.9975,0.84,-0.303292,-0.297436,-0.879254,-0.06902,0.12166,0.48314
-1.32073,0,0,16.3207,16.3207,13.6793,13.6793,0.528293,1.57482,1.02004,-0.289362,-0.300686,0.134024,0,0,3.6225,1.61,0.8925,-0.303292,-0.297436,-0.879254,-0.06384,0.12824,0.48944
-1.32325,0,0,16.3233,16.3233,13.6767,13.6767,0.529302,1.57585,1.02307,-0.272493,-0.0104951,-0.151832,1,0,3.9725,0.6475,0.9625,-0.286334,-0.007564,-1.1629,-0.06384,0.12824,0.48944
-1.32829,0,0,16.3283,16.3283,13.6717,13.6717,0.531314,1.57563,1.02627,-0.272489,-0.0104599,-0.151832,1,0,4.5325,-0.0875,1.0675,-0.286334,-0.007564,-1.1629,-0.06384,0.12824,0.48944
-1.16099,0,0,16.161,16.161,13.839,13.839,0.464395,1.68039,0.937871,0.0875889,0.0607933,-0.00826969,0,0,4.0075,-0.56,1.505,0.077104,0.064782,-1.02041,-0.06384,0.12824,0.48944
-0.984916,0,0,15.9849,15.9849,14.0151,14.0151,0.393966,1.7826,0.848267,0.0858059,0.0595643,-0.00831439,0,0,1.33,-0.77,0.8225,0.077104,0.064782,-1.02041,-0.06384,0.12824,0.48944
-1.42901,0,0,16.429,16.429,13.571,13.571,0.571605,1.88677,0.758801,0.0837458,-0.155944,0.0300842,0,0,2.5375,-1.1025,0.455,0.07686,-0.153598,-0.982222,-0.06384,0.12824,0.48944
-1.86787,0,0,16.8679,16.8679,13.1321,13.1321,0.747149,1.98853,0.669975,0.0819707,-0.152883,0.0299889,0,0,3.29,-1.19,0.42,0.07686,-0.153598,-0.982222,-0.06384,0.12824,0.48944
-1.66088,0,0,16.6609,16.6609,13.3391,13.3391,0.664354,2.60838,0.0929572,0.527704,0.074289,0.110842,0,0,2.3625,-0.6475,-4.3225,0.535336,0.074786,-0.90158,-0.06384,0.12824,0.48944
-1.46442,0,0,16.4644,16.4644,13.5356,13.5356,0.585769,3.21749,-0.492283,0.517087,0.0729134,0.110317,0,0,4.1475,-0.1225,-0.945,0.535336,0.074786,-0.90158,-0.06216,0.13748,0.49238
-1.20641,0,0,16.2064,16.2064,13.7936,13.7936,0.482565,3.40504,-0.708163,0.155072,0.0949282,-0.00899287,0,0,4.4275,-0.07,-1.8025,0.17507,0.098576,-1.0198,-0.06216,0.13748,0.49238
-0.953121,0,0,15.9531,15.9531,14.0469,14.0469,0.381248,3.58863,-0.924293,0.151874,0.0931617,-0.00917499,0,0,4.4275,-0.07,-1.8025,0.17507,0.098576,-1.0198,-0.06216,0.13748,0.49238
-0.946815,0,0,15.9468,15.9468,14.0532,14.0532,0.378726,3.58878,-0.927516,0.0532246,-0.0939804,0.138117,1,0,2.1525,0.105,-2.6775,0.076006,-0.088328,-0.873642,-0.06216,0.13748,0.49238
-0.940509,0,0,15.9405,15.9405,14.0595,14.0595,0.376204,3.58893,-0.930739,0.053222,-0.0940243,0.138118,1,0,2.1525,0.105,-2.6775,0.076006,-0.088328,-0.873642,-0.06216,0.13748,0.49238
-0.928267,0,0,15.9283,15.9283,14.0717,14.0717,0.371307,3.58996,-0.934497,0.0920796,-0.0417173,-0.108149,1,0,0.84,0.6125,-2.9925,0.115046,-0.03599,-1.11801,-0.06216,0.13748,0.49238
-0.916024,0,0,15.916,15.916,14.084,14.084,0.36641,3.59098,-0.938256,0.0920618,-0.0418026,-0.108149,1,0,0.84,0.6125,-2.9925,0.115046,-0.03599,-1.11801,-0.06216,0.13748,0.49238
-0.920553,0,0,15.9206,15.9206,14.0794,14.0794,0.368221,3.59768,-0.942549,0.0892724,0.0688758,-0.137296,1,0,4.62,3.9375,-3.325,0.112362,0.074542,-1.14692,-0.06216,0.13748,0.49238
-0.92508,0,0,15.9251,15.9251,14.0749,14.0749,0.370032,3.60438,-0.946842,0.0891557,0.0689073,-0.137303,1,0,4.62,3.9375,-3.325,0.112362,0.074542,-1.14692,-0.06216,0.13748,0.49238
-0.93789,0,0,15.9379,15.9379,14.0621,14.0621,0.375156,3.6056,-0.949577,0.0252329,-0.111873,-0.162141,1,0,6.4225,0.735,-2.3975,0.04819,-0.10614,-1.17157,-0.05796,0.13356,0.49812
-1.25715,0,0,16.2572,16.2572,13.7428,13.7428,0.502861,3.64109,-1.01703,0.0388286,-0.117709,-0.0720757,0,0,6.4225,1.0325,-1.855,0.062464,-0.114192,-1.08214,-0.05796,0.13356,0.49812
-1.57026,0,0,16.5703,16.5703,13.4297,13.4297,0.628104,3.67592,-1.08428,0.0382219,-0.115529,-0.0721361,0,0,6.4225,1.0325,-1.855,0.062464,-0.114192,-1.08214,-0.05796,0.13356,0.49812
-1.56543,0,0,16.5654,16.5654,13.4346,13.4346,0.62617,3.67704,-1.08458,-0.240607,-0.0306842,0.424698,1,0,2.38,0.6825,-0.98,-0.217526,-0.029402,-0.589138,-0.05796,0.13356,0.49812
-1.56059,0,0,16.5606,16.5606,13.4394,13.4394,0.624236,3.67816,-1.08488,-0.240627,-0.0307178,0.424697,1,0,2.38,0.6825,-0.98,-0.217526,-0.029402,-0.589138,-0.05796,0.13356,0.49812
-1.30458,0,0,16.3046,16.3046,13.6954,13.6954,0.521834,3.55736,-1.01941,-0.101365,0.0875505,-0.00584067,0,0,1.1025,-1.12,-0.1225,-0.079788,0.090524,-1.0165,-0.05796,0.13356,0.49812
-1.05356,0,0,16.0536,16.0536,13.9464,13.9464,0.421423,3.43897,-0.953594,-0.0993028,0.0858023,-0.0057002,0,0,1.1025,-1.12,-0.1225,-0.079788,0.090524,-1.0165,-0.05796,0.13356,0.49812
-1.27071,0,0,16.2707,16.2707,13.7293,13.7293,0.508285,3.53594,-1.08832,0.0904693,-0.0815866,-0.0412246,0,0,3.43,-0.77,0.63,0.112484,-0.078202,-1.05164,-0.06804,0.14364,0.49588
-1.28798,0,0,16.288,16.288,13.712,13.712,0.51519,3.53611,-1.08601,0.0172104,0.101846,-0.384252,1,0,7.245,0.14,0.5425,0.038918,0.10492,-1.39202,-0.06804,0.14364,0.49588
-1.30524,0,0,16.3052,16.3052,13.6948,13.6948,0.522095,3.53628,-1.08371,0.0172075,0.101966,-0.384253,1,0,7.245,0.14,0.5425,0.038918,0.10492,-1.39202,-0.06804,0.14364,0.49588
-1.32859,0,0,16.3286,16.3286,13.6714,13.6714,0.531435,3.53534,-1.08039,-0.348205,-0.339481,-0.292657,1,0,8.575,-0.5075,1.1375,-0.328058,-0.336232,-1.30113,-0.06804,0.14364,0.49588
-1.3324,0,0,16.3324,16.3324,13.6676,13.6676,0.532961,3.53394,-1.07672,0.0630484,0.197414,0.192991,1,0,4.1825,-0.77,1.3475,0.084912,0.20008,-0.81923,-0.06804,0.14364,0.49588
-1.31523,0,0,16.3152,16.3152,13.6848,13.6848,0.526093,3.53312,-1.07403,0.0630626,0.197295,0.192993,1,0,-0.49,-0.4375,0.77,0.084912,0.20008,-0.81923,-0.06804,0.14364,0.49588
-0.895739,0,0,15.8957,15.8957,14.1043,14.1043,0.358295,3.93014,-1.48908,0.282233,0.129031,0.156909,0,0,-1.54,-0.735,0.9625,0.311954,0.13481,-0.85461,-0.06804,0.14364,0.49588
-0.481538,0,0,15.4815,15.4815,14.5185,14.5185,0.192615,4.31799,-1.90691,0.275481,0.126145,0.156436,0,0,-1.8025,-1.3825,0.07,0.311954,0.13481,-0.85461,-0.06804,0.14364,0.49588
0.0521513,0,0,14.9478,14.9478,15.0522,15.0522,-0.0208605,4.29238,-1.96782,-0.0304599,0.191065,-0.024505,0,0,-0.07,-1.82,-0.0875,0.00427,0.203374,-1.03419,-0.05726,0.14798,0.51282
0.0517572,0,0,14.9482,14.9482,15.0518,15.0518,-0.0207029,4.29042,-1.96849,0.00614136,-0.0188685,-0.276916,1,0,3.57,-1.12,-1.19,0.040992,-0.006344,-1.28466,-0.05726,0.14798,0.51282
0.0291634,0,0,14.9708,14.9708,15.0292,15.0292,-0.0116654,4.29192,-1.96979,0.00611517,-0.0187112,-0.276918,1,0,8.575,0.91,-1.5575,0.040992,-0.006344,-1.28466,-0.05726,0.14798,0.51282
0.00188273,0,0,14.9981,14.9981,15.0019,15.0019,-0.00075309,4.29364,-1.97148,0.106554,-0.0232843,-0.264871,1,0,9.6425,1.0325,-1.785,0.141886,-0.011102,-1.2727,-0.05726,0.14798,0.51282
-0.0123153,0,0,15.0123,15.0123,14.9877,14.9877,0.00492614,4.29586,-1.97345,0.106515,-0.0231854,-0.264874,1,0,6.72,1.33,-1.9425,0.141886,-0.011102,-1.2727,-0.05726,0.14798,0.51282
-0.779499,0,0,15.7795,15.7795,14.2205,14.2205,0.3118,4.02798,-1.78199,-0.208572,-0.266737,0.0617561,0,0,4.2875,1.155,-1.9775,-0.179218,-0.259738,-0.948916,-0.05726,0.14798,0.51282
-1.51218,0,0,16.5122,16.5122,13.4878,13.4878,0.604871,3.76485,-1.59296,-0.20399,-0.261631,0.0620273,0,0,-0.1575,0.595,-1.575,-0.179218,-0.259738,-0.948916,-0.05726,0.14798,0.51282
-1.48592,0,0,16.4859,16.4859,13.5141,13.5141,0.594368,3.76445,-1.59396,-0.341748,0.241226,0.186208,1,0,-2.3975,-0.21,-1.3825,-0.317566,0.24278,-0.825696,-0.05726,0.14798,0.51282
-1.45852,0,0,16.4585,16.4585,13.5415,13.5415,0.583409,3.76389,-1.59623,-0.341738,0.241035,0.18621,1,0,-2.6075,-0.315,-2.1175,-0.317566,0.24278,-0.825696,-0.06188,0.14364,0.51072
-1.43689,0,0,16.4369,16.4369,13.5631,13.5631,0.574756,3.76246,-1.59854,0.231456,-0.00165952,0.157935,1,0,-1.3125,-0.8225,-2.135,0.25803,0.000488,-0.853756,-0.06188,0.14364,0.51072
-1.43505,0,0,16.435,16.435,13.565,13.565,0.574019,3.76082,-1.60058,0.231485,-0.00167235,0.157937,1,0,3.115,-0.945,-1.9775,0.25803,0.000488,-0.853756,-0.06188,0.14364,0.51072
-1.45002,0,0,16.45,16.45,13.55,13.55,0.580007,3.76031,-1.60239,-0.0205892,-0.111116,-0.114025,1,0,6.8775,-0.28,-1.855,0.00488,-0.108946,-1.12362,-0.06188,0.14364,0.51072
-1.47632,0,0,16.4763,16.4763,13.5237,13.5237,0.590528,3.76252,-1.60409,-0.0206276,-0.110933,-0.11403,1,0,9.415,1.3125,-1.8025,0.00488,-0.108946,-1.12362,-0.06188,0.14364,0.51072
-1.50411,0,0,16.5041,16.5041,13.4959,13.4959,0.601645,3.76691,-1.60577,-0.284693,-0.0653079,-0.238338,1,0,9.7475,2.59,-1.8025,-0.260226,-0.063562,-1.24696,-0.06188,0.14364,0.51072
-1.51729,0,0,16.5173,16.5173,13.4827,13.4827,0.606916,3.77101,-1.60519,-0.284764,-0.0652161,-0.238343,1,0,6.3875,2.4325,-0.49,-0.260226,-0.063562,-1.24696,-0.06188,0.14364,0.51072
-1.52108,0,0,16.5211,16.5211,13.4789,13.4789,0.608431,3.77319,-1.60383,-0.367412,0.100414,-0.146381,1,0,4.2525,1.3125,-0.0175,-0.343186,0.10187,-1.15571,-0.06188,0.14364,0.51072
-1.50319,0,0,16.5032,16.5032,13.4968,13.4968,0.601276,3.77247,-1.60282,-0.3674,0.10029,-0.146378,1,0,-0.595,-0.385,-0.21,-0.343186,0.10187,-1.15571,-0.0672,0.14714,0.52094
-0.0635322,0,0,15.0635,15.0635,14.9365,14.9365,0.0254129,3.6354,-1.55102,-0.144151,0.480944,0.18653,0,0,-1.4875,-1.015,0.3675,-0.12139,0.492148,-0.825574,-0.0672,0.14714,0.52094
-0.0483254,0,0,15.0483,15.0483,14.9517,14.9517,0.0193301,3.63326,-1.54833,-0.193923,-0.153122,0.18063,1,0,-0.0525,-1.225,0.77,-0.17141,-0.141154,-0.83143,-0.0672,0.14714,0.52094
-0.0653762,0,0,15.0654,15.0654,14.9346,14.9346,0.0261505,3.63049,-1.54692,-0.193875,-0.153003,0.180633,1,0,7.2275,-1.5925,0.0175,-0.17141,-0.141154,-0.83143,-0.0672,0.14714,0.52094
-0.0816084,0,0,15.0816,15.0816,14.9184,14.9184,0.0326434,3.62829,-1.54576,-0.0685848,0.0228507,0.160103,1,0,7.0525,-1.26,-0.1225,-0.045628,0.034404,-0.851804,-0.0672,0.14714,0.52094
-0.112452,0,0,15.1125,15.1125,14.8875,14.8875,0.0449809,3.62761,-1.54448,-0.068573,0.0230656,0.160104,1,0,10.325,-0.3675,-0.0525,-0.045628,0.034404,-0.851804,-0.0672,0.14714,0.52094
-0.557774,0,0,15.5578,15.5578,14.4422,14.4422,0.22311,3.84695,-1.79464,0.203623,-0.159343,-0.0157232,0,0,9.73,-0.42,0.3675,0.231556,-0.150914,-1.02602,-0.0672,0.14714,0.52094
-0.972561,0,0,15.9726,15.9726,14.0274,14.0274,0.389024,4.06311,-2.04384,0.199859,-0.156456,-0.0159988,0,0,4.7425,0.245,-0.0525,0.231556,-0.150914,-1.02602,-0.0672,0.14714,0.52094
-0.969913,0,0,15.9699,15.9699,14.0301,14.0301,0.387965,4.063,-2.04322,0.140576,-0.107135,0.175063,1,0,2.835,-0.035,-0.4375,0.17202,-0.101626,-0.836432,-0.06328,0.15946,0.51898
-1.10517,0,0,16.1052,16.1052,13.8948,13.8948,0.442069,4.18356,-2.23565,0.111507,-0.0602746,-0.0323859,0,0,-1.715,0.4025,-0.525,0.144936,-0.055754,-1.04212,-0.06328,0.15946,0.51898
-1.24326,0,0,16.2433,16.2433,13.7567,13.7567,0.497302,4.30031,-2.42786,0.109475,-0.0593145,-0.0325445,0,0,-0.49,-0.4025,-0.77,0.144936,-0.055754,-1.04212,-0.06328,0.15946,0.51898
-0.860229,0,0,15.8602,15.8602,14.1398,14.1398,0.344092,4.09765,-2.33582,-0.176012,0.127928,0.041872,0,0,-0.07,-0.49,-0.945,-0.145302,0.133956,-0.968558,-0.06328,0.15946,0.51898
-0.505816,0,0,15.5058,15.5058,14.4942,14.4942,0.202327,3.89862,-2.24373,-0.172547,0.125461,0.042126,0,0,4.725,-0.63,-1.3825,-0.145302,0.133956,-0.968558,-0.06328,0.15946,0.51898
-0.522271,0,0,15.5223,15.5223,14.4777,14.4777,0.208908,3.89705,-2.24456,0.123541,0.0795335,-0.0852472,1,0,7.175,-0.8925,-1.2775,0.152012,0.087962,-1.09495,-0.06328,0.15946,0.51898
-0.544963,0,0,15.545,15.545,14.455,14.455,0.217985,3.89704,-2.24541,0.123542,0.0796915,-0.0852478,1,0,8.575,0.0175,-1.295,0.152012,0.087962,-1.09495,-0.06328,0.15946,0.51898
-1.04394,0,0,16.0439,16.0439,13.9561,13.9561,0.417577,3.80441,-2.23404,-0.0661854,-0.188931,-0.0844208,0,0,8.085,0.4725,-1.015,-0.040138,-0.183854,-1.09422,-0.06328,0.15946,0.51898
-1.51927,0,0,16.5193,16.5193,13.4807,13.4807,0.607707,3.71437,-2.22678,-0.0646173,-0.185619,-0.0843474,0,0,4.9875,1.12,-2.03,-0.040138,-0.183854,-1.09422,-0.0679,0.16156,0.525
-1.5153,0,0,16.5153,16.5153,13.4847,13.4847,0.606122,3.45737,-2.07085,-0.21297,0.00121066,0.0237593,0,0,2.9575,1.365,-1.75,-0.193614,0.002806,-0.987224,-0.0679,0.16156,0.525
-1.49707,0,0,16.4971,16.4971,13.5029,13.5029,0.598827,3.20543,-1.91466,-0.20858,0.00108624,0.0240161,0,0,-0.245,1.2425,-1.435,-0.193614,0.002806,-0.987224,-0.0679,0.16156,0.525
-1.80495,0,0,16.8049,16.8049,13.1951,13.1951,0.721979,3.25118,-2.02329,0.0455001,-0.121582,-0.00888083,0,0,-1.4,0.945,-1.8375,0.062342,-0.121878,-1.0198,-0.0679,0.16156,0.525
-2.10703,0,0,17.107,17.107,12.893,12.893,0.842812,3.29612,-2.13147,0.044717,-0.119477,-0.00895436,0,0,-1.4,0.945,-1.8375,0.062342,-0.121878,-1.0198,-0.0679,0.16156,0.525
-2.09704,0,0,17.097,17.097,12.903,12.903,0.838816,3.29528,-2.13239,0.174843,-0.346092,-0.0535828,1,0,1.2425,-0.4725,-1.33,0.193004,-0.348188,-1.06408,-0.0679,0.16156,0.525
-2.10977,0,0,17.1098,17.1098,12.8902,12.8902,0.843906,3.29542,-2.13324,-0.107006,0.0794863,-0.254605,1,0,6.335,0.105,-1.295,-0.090036,0.07686,-1.26355,-0.0679,0.16156,0.525
-2.12889,0,0,17.1289,17.1289,12.8711,12.8711,0.851557,3.29548,-2.13463,-0.107008,0.0796196,-0.254607,1,0,7.7875,0.0525,-1.61,-0.090036,0.07686,-1.26355,-0.0679,0.16156,0.525
-2.15082,0,0,17.1508,17.1508,12.8492,12.8492,0.860327,3.29524,-2.13555,0.135482,-0.260351,-0.217356,1,0,8.4,-0.1225,-1.33,0.153476,-0.26291,-1.22659,-0.06328,0.16408,0.52598
-2.16164,0,0,17.1616,17.1616,12.8384,12.8384,0.864656,3.2963,-2.13608,-0.0772579,0.0876639,-0.32543,1,0,5.8975,0.6475,-1.12,-0.060146,0.084668,-1.33383,-0.06328,0.16408,0.52598
-2.16063,0,0,17.1606,17.1606,12.8394,12.8394,0.864253,3.29698,-2.13638,-0.0772696,0.0876569,-0.32543,1,0,3.2375,0.42,-0.98,-0.060146,0.084668,-1.33383,-0.06328,0.16408,0.52598
-1.61025,0,0,16.6103,16.6103,13.3897,13.3897,0.644101,3.34407,-2.26025,0.0199488,0.186285,0.0703439,0,0,1.855,0.14,-0.6125,0.038308,0.187026,-0.941108,-0.06328,0.16408,0.52598
-1.0597,0,0,16.0597,16.0597,13.9403,13.9403,0.423882,3.38896,-2.38397,0.0191667,0.182448,0.0703336,0,0,-0.49,-0.42,-0.4025,0.038308,0.187026,-0.941108,-0.06328,0.16408,0.52598
-1.09713,0,0,16.0971,16.0971,13.9029,13.9029,0.438853,2.81641,-1.92671,-0.473077,-0.0173308,0.118331,0,0,0.56,-0.7175,-0.14,-0.46604,-0.01281,-0.894016,-0.06328,0.16408,0.52598
-1.13767,0,0,16.1377,16.1377,13.8623,13.8623,0.45507,2.25418,-1.47054,-0.463274,-0.0170447,0.118762,0,0,1.61,-0.805,-0.1925,-0.46604,-0.01281,-0.894016,-0.06328,0.16408,0.52598
-1.42728,0,0,16.4273,16.4273,13.5727,13.5727,0.570913,2.27206,-1.54424,0.0252727,-0.112115,-0.0541335,0,0,3.3425,-0.84,-0.4025,0.024888,-0.1098,-1.06555,-0.06328,0.16408,0.52598
-1.7211,0,0,16.7211,16.7211,13.2789,13.2789,0.688439,2.29225,-1.59491,0.0249205,-0.110066,-0.0541701,0,0,5.5475,-0.665,-0.1225,0.024888,-0.1098,-1.06555,-0.06132,0.14896,0.52248
-1.8953,0,0,16.8953,16.8953,13.1047,13.1047,0.758122,2.41312,-1.73936,0.104573,-0.0598793,0.00646456,0,0,5.7925,-0.6825,0.0875,0.106994,-0.060878,-1.00528,-0.06132,0.14896,0.52248
-2.06682,0,0,17.0668,17.0668,12.9332,12.9332,0.82673,2.53313,-1.88341,0.10248,-0.0586843,0.00635764,0,0,5.9325,0.245,0,0.106994,-0.060878,-1.00528,-0.06132,0.14896,0.52248
-2.63047,0,0,17.6305,17.6305,12.3695,12.3695,1.05219,2.57191,-1.94906,0.0434907,-0.212298,-0.0239823,0,0,5.355,-0.14,-0.4725,0.048434,-0.218258,-1.03529,-0.06132,0.14896,0.52248
-3.17447,0,0,18.1745,18.1745,11.8255,11.8255,1.26979,2.61179,-2.01449,0.0427954,-0.208505,-0.0240906,0,0,3.3075,0.875,-0.5775,0.048434,-0.218258,-1.03529,-0.06132,0.14896,0.52248
-3.17107,0,0,18.1711,18.1711,11.8289,11.8289,1.26843,2.61269,-2.01393,-0.0382512,-0.0369408,-0.380764,1,0,2.6775,0.56,-0.49,-0.03294,-0.046848,-1.38921,-0.06132,0.14896,0.52248
-3.16768,0,0,18.1677,18.1677,11.8323,11.8323,1.26707,2.61359,-2.01338,-0.0382668,-0.0369646,-0.380765,1,0,2.6775,0.56,-0.49,-0.03294,-0.046848,-1.38921,-0.06132,0.14896,0.52248
-3.16303,0,0,18.163,18.163,11.837,11.837,1.26521,2.61403,-2.01422,-0.46226,-0.109174,-0.254127,1,0,2.4325,0.28,-1.295,-0.45872,-0.11895,-1.26355,-0.06132,0.14896,0.52248
-3.15838,0,0,18.1584,18.1584,11.8416,11.8416,1.26335,2.61448,-2.01506,-0.462268,-0.109206,-0.254127,1,0,2.4325,0.28,-1.295,-0.45872,-0.11895,-1.26355,-0.05866,0.147,0.51772
-3.15962,0,0,18.1596,18.1596,11.8404,11.8404,1.26385,2.61407,-2.01622,-0.242979,0.0654436,-0.343879,1,0,3.7625,-0.2275,-1.47,-0.23851,0.05551,-1.35261,-0.05866,0.147,0.51772
-3.16087,0,0,18.1609,18.1609,11.8391,11.8391,1.26435,2.61366,-2.01738,-0.242972,0.0654523,-0.343879,1,0,3.7625,-0.2275,-1.47,-0.23851,0.05551,-1.35261,-0.05866,0.147,0.51772
-3.15983,0,0,18.1598,18.1598,11.8402,11.8402,1.26393,2.6154,-2.0187,0.0684874,-0.0809849,-0.209621,1,0,3.255,1.0325,-1.5925,0.074298,-0.090768,-1.21939,-0.05866,0.147,0.51772
-3.21886,0,0,18.2189,18.2189,11.7811,11.7811,1.28754,2.76937,-2.19662,0.136751,-0.0237872,-0.0372591,0,0,3.675,0.91,-1.5575,0.145546,-0.034038,-1.04822,-0.05866,0.147,0.51772
-3.27916,0,0,18.2792,18.2792,11.7208,11.7208,1.31167,2.91989,-2.37458,0.134127,-0.0233698,-0.037399,0,0,4.235,0.735,-1.855,0.145546,-0.034038,-1.04822,-0.05866,0.147,0.51772
-3.28164,0,0,18.2816,18.2816,11.7184,11.7184,1.31265,2.92032,-2.37578,0.312703,-0.142548,-0.113751,1,0,4.0425,0.2625,-1.505,0.324886,-0.15311,-1.12399,-0.05866,0.147,0.51772
-3.28426,0,0,18.2843,18.2843,11.7157,11.7157,1.3137,2.92042,-2.37702,0.312702,-0.14253,-0.113751,1,0,4.0775,0.07,-1.5225,0.324886,-0.15311,-1.12399,-0.05866,0.147,0.51772
-2.9517,0,0,17.9517,17.9517,12.0483,12.0483,1.18068,3.29827,-2.76749,0.292753,0.118572,0.100733,0,0,4.4975,-0.1575,-1.26,0.311466,0.110044,-0.910852,-0.0665,0.14826,0.51086
-2.61903,0,0,17.619,17.619,12.381,12.381,1.04761,3.66816,-3.15851,0.286309,0.116247,0.100385,0,0,3.3075,-0.42,-1.1025,0.311466,0.110044,-0.910852,-0.0665,0.14826,0.51086
-2.05811,0,0,17.0581,17.0581,12.9419,12.9419,0.823244,3.81515,-3.36176,0.101885,0.195749,0.0710201,0,0,3.4475,0.21,-0.91,0.128832,0.19337,-0.939888,-0.0665,0.14826,0.51086
-1.50718,0,0,16.5072,16.5072,13.4928,13.4928,0.602873,3.95896,-3.56572,0.0993811,0.19191,0.0708977,0,0,3.4475,0.21,-0.91,0.128832,0.19337,-0.939888,-0.0665,0.14826,0.51086
-1.50883,0,0,16.5088,16.5088,13.4912,13.4912,0.603531,3.95891,-3.56507,-0.254141,0.0524528,0.194338,1,0,3.7975,0,-0.42,-0.226188,0.054046,-0.8174,-0.0665,0.14826,0.51086
-1.51047,0,0,16.5105,16.5105,13.4895,13.4895,0.60419,3.95885,-3.56441,-0.25414,0.0524643,0.194338,1,0,3.7975,0,-0.42,-0.226188,0.054046,-0.8174,-0.0665,0.14826,0.51086
-0.963052,0,0,15.9631,15.9631,14.0369,14.0369,0.385221,3.62654,-3.33369,-0.279575,0.190566,0.106723,0,0,5.0925,0.07,-0.0875,-0.257542,0.19581,-0.904752,-0.0665,0.14826,0.51086
-0.42551,0,0,15.4255,15.4255,14.5745,14.5745,0.170204,3.30025,-3.10082,-0.27389,0.186821,0.107086,0,0,5.0925,0.07,-0.0875,-0.257542,0.19581,-0.904752,-0.0665,0.14826,0.51086
-0.0875739,0,0,15.0876,15.0876,14.9124,14.9124,0.0350295,3.23234,-3.09429,-0.0564627,0.133173,-0.0440694,0,0,5.4075,-4.41,-0.0875,-0.040382,0.14457,-1.05481,-0.06426,0.14126,0.50806
-0.08928,0,0,15.0893,15.0893,14.9107,14.9107,0.035712,3.23155,-3.09306,0.127966,-0.13928,-0.10419,1,0,3.7975,-0.4375,-0.0875,0.144814,-0.127612,-1.11447,-0.06426,0.14126,0.50806
-0.0858084,0,0,15.0858,15.0858,14.9142,14.9142,0.0343234,3.23021,-3.09148,0.12799,-0.139304,-0.104189,1,0,2.625,-0.7525,0.1225,0.144814,-0.127612,-1.11447,-0.06426,0.14126,0.50806
-0.0823157,0,0,15.0823,15.0823,14.9177,14.9177,0.0329263,3.22933,-3.09005,0.23467,0.0136964,-0.153491,1,0,2.625,-0.49,0.035,0.25193,0.025254,-1.16339,-0.06426,0.14126,0.50806
-0.0780656,0,0,15.0781,15.0781,14.9219,14.9219,0.0312262,3.22883,-3.08901,0.234678,0.0136667,-0.15349,1,0,2.4675,-0.2625,-0.1925,0.25193,0.025254,-1.16339,-0.06426,0.14126,0.50806
-0.076528,0,0,15.0765,15.0765,14.9235,14.9235,0.0306112,3.22872,-3.08754,0.138342,-0.133018,-0.0916468,1,0,3.0625,-0.035,0.0525,0.155184,-0.121268,-1.10203,-0.06426,0.14126,0.50806
-0.0791451,0,0,15.0791,15.0791,14.9209,14.9209,0.031658,3.22921,-3.0865,0.138333,-0.133,-0.0916473,1,0,4.0075,0.315,-0.1925,0.155184,-0.121268,-1.10203,-0.06426,0.14126,0.50806
-0.183132,0,0,15.1831,15.1831,14.8169,14.8169,0.0732527,3.25047,-3.14097,0.0266821,-0.0401916,-0.0965869,0,0,4.3925,0.175,0.035,0.043432,-0.02928,-1.10691,-0.06426,0.14126,0.50806
-0.285307,0,0,15.2853,15.2853,14.7147,14.7147,0.114123,3.27009,-3.19126,0.0263402,-0.0394795,-0.0966075,0,0,4.445,-0.525,-0.315,0.043432,-0.02928,-1.10691,-0.05614,0.13678,0.50218
-0.772453,0,0,15.7725,15.7725,14.2275,14.2275,0.308981,2.94245,-2.90418,-0.256843,-0.161018,0.126841,0,0,3.7625,-0.385,-0.0875,-0.246684,-0.154086,-0.885476,-0.05614,0.13678,0.50218
-1.24444,0,0,16.2444,16.2444,13.7556,13.7556,0.497775,2.6218,-2.62068,-0.251253,-0.157725,0.12709,0,0,2.485,-0.0525,-0.6475,-0.246684,-0.154086,-0.885476,-0.05614,0.13678,0.50218
-0.72482,0,0,15.7248,15.7248,14.2752,14.2752,0.289928,2.68306,-2.71415,0.044347,0.183537,0.048747,0,0,2.485,-0.0525,-0.35,0.05124,0.190442,-0.96319,-0.05614,0.13678,0.50218
-0.216509,0,0,15.2165,15.2165,14.7835,14.7835,0.0866034,2.74325,-2.80896,0.0432977,0.179992,0.0487089,0,0,2.905,0.0875,-0.9975,0.05124,0.190442,-0.96319,-0.05614,0.13678,0.50218
-0.215331,0,0,15.2153,15.2153,14.7847,14.7847,0.0861324,2.74485,-2.80945,-0.0380041,0.198913,0.120878,1,0,3.2025,0.9625,-1.085,-0.030378,0.209352,-0.891576,-0.05614,0.13678,0.50218
-0.222345,0,0,15.2223,15.2223,14.7777,14.7777,0.0889379,2.7462,-2.81126,-0.0380277,0.198962,0.120877,1,0,5.075,0.8225,-1.855,-0.030378,0.209352,-0.891576,-0.05614,0.13678,0.50218
-0.230984,0,0,15.231,15.231,14.769,14.769,0.0923937,2.74921,-2.81252,0.0995632,0.0952148,0.286855,1,0,5.425,1.785,-1.54,0.107848,0.105652,-0.726876,-0.05614,0.13678,0.50218
-0.244772,0,0,15.2448,15.2448,14.7552,14.7552,0.097909,2.75039,-2.81445,0.0995427,0.095311,0.286854,1,0,6.5975,0.7175,-1.925,0.107848,0.105652,-0.726876,-0.05614,0.13678,0.50218
-0.251977,0,0,15.252,15.252,14.748,14.748,0.100791,2.75154,-2.81662,-0.0984991,0.154104,0.271976,1,0,5.1275,0.7,-2.065,-0.091012,0.164334,-0.741638,-0.06468,0.13776,0.5068
-0.251766,0,0,15.2518,15.2518,14.7482,14.7482,0.100707,2.75164,-2.81945,-0.0880532,0.177917,0.157511,1,0,3.4825,0.0875,-2.45,-0.08052,0.188124,-0.85522,-0.06468,0.13776,0.5068
-0.249278,0,0,15.2493,15.2493,14.7507,14.7507,0.0997113,2.75088,-2.8224,-0.0880399,0.1779,0.157512,1,0,2.975,-0.42,-2.52,-0.08052,0.188124,-0.85522,-0.06468,0.13776,0.5068
-0.24462,0,0,15.2446,15.2446,14.7554,14.7554,0.0978479,2.75111,-2.82523,-0.340127,-0.103268,0.248862,1,0,2.485,0.1575,-2.45,-0.33367,-0.09272,-0.764574,-0.06468,0.13776,0.5068
-0.241876,0,0,15.2419,15.2419,14.7581,14.7581,0.0967504,2.75068,-2.82836,-0.340119,-0.103287,0.248863,1,0,2.9225,-0.2275,-2.625,-0.33367,-0.09272,-0.764574,-0.06468,0.13776,0.5068
-0.450742,0,0,15.4507,15.4507,14.5493,14.5493,0.180297,2.67133,-2.7771,-0.0645425,-0.0683679,0.0866325,0,0,4.4975,0.2275,-2.52,-0.058316,-0.059292,-0.925614,-0.06468,0.13776,0.5068
-0.656069,0,0,15.6561,15.6561,14.3439,14.3439,0.262428,2.59434,-2.72524,-0.0632003,-0.0669357,0.0866887,0,0,4.5675,0.6475,-1.9775,-0.058316,-0.059292,-0.925614,-0.06468,0.13776,0.5068
-0.663231,0,0,15.6632,15.6632,14.3368,14.3368,0.265292,2.59507,-2.72654,0.0639824,-0.0201112,-0.255847,1,0,5.0925,0.455,-1.5575,0.069418,-0.012566,-1.26551,-0.06468,0.13776,0.5068
-0.671289,0,0,15.6713,15.6713,14.3287,14.3287,0.268515,2.59559,-2.72682,0.0639734,-0.020055,-0.255847,1,0,5.2675,0.3325,-0.9625,0.069418,-0.012566,-1.26551,-0.07154,0.13986,0.49616
-0.844768,0,0,15.8448,15.8448,14.1552,14.1552,0.337907,2.77318,-2.90672,0.168514,-0.0705056,-0.0661663,0,0,3.7625,-0.175,-0.6125,0.17751,-0.064172,-1.07714,-0.07154,0.13986,0.49616
-1.01485,0,0,16.0149,16.0149,13.9851,13.9851,0.405941,2.94708,-3.08541,0.165482,-0.0693207,-0.0663255,0,0,3.71,-0.2275,-0.35,0.17751,-0.064172,-1.07714,-0.07154,0.13986,0.49616
-1.01739,0,0,16.0174,16.0174,13.9826,13.9826,0.406956,2.66365,-2.85578,-0.225013,-0.000177564,0.0887087,0,0,3.01,-0.49,0.2975,-0.2196,0.00488,-0.92354,-0.07154,0.13986,0.49616
-1.02384,0,0,16.0238,16.0238,13.9762,13.9762,0.409534,2.38744,-2.62555,-0.220197,-0.000131102,0.0889208,0,0,3.9375,0.4375,0.8925,-0.2196,0.00488,-0.92354,-0.07154,0.13986,0.49616
-1.02765,0,0,16.0277,16.0277,13.9723,13.9723,0.41106,2.38761,-2.62238,0.114858,0.254408,0.172402,1,0,4.235,0.14,1.05,0.116876,0.259128,-0.840702,-0.07154,0.13986,0.49616
-1.0326,0,0,16.0326,16.0326,13.9674,13.9674,0.41304,2.3887,-2.61881,0.114839,0.254442,0.172401,1,0,4.48,0.6825,1.2775,0.116876,0.259128,-0.840702,-0.07154,0.13986,0.49616
-1.03978,0,0,16.0398,16.0398,13.9602,13.9602,0.415914,2.38958,-2.61476,0.0748547,-0.17747,0.238916,1,0,4.97,0.56,1.5575,0.076738,-0.172386,-0.7747,-0.07154,0.13986,0.49616
-1.0455,0,0,16.0455,16.0455,13.9545,13.9545,0.418199,2.39049,-2.61059,0.0748388,-0.17743,0.238915,1,0,4.6375,0.5775,1.6275,0.076738,-0.172386,-0.7747,-0.07042,0.1295,0.48902
-1.88609,0,0,16.8861,16.8861,13.1139,13.1139,0.754435,2.63376,-2.8032,0.223305,-0.336563,0.015517,0,0,3.4825,0.0525,1.5225,0.230092,-0.337208,-0.99613,-0.07042,0.1295,0.48902
-2.71265,0,0,17.7126,17.7126,12.2874,12.2874,1.08506,2.87297,-2.99375,0.219134,-0.330803,0.015224,0,0,3.57,0.49,1.0325,0.230092,-0.337208,-0.99613,-0.07042,0.1295,0.48902
-2.71074,0,0,17.7107,17.7107,12.2893,12.2893,1.0843,2.87226,-2.99068,0.265797,0.051074,-0.341203,1,0,2.94,-0.35,0.9975,0.27694,0.044286,-1.34981,-0.07042,0.1295,0.48902
-2.71113,0,0,17.7111,17.7111,12.2889,12.2889,1.08445,2.87213,-2.98922,0.2658,0.0510768,-0.341203,1,0,3.5,-0.035,0.0525,0.27694,0.044286,-1.34981,-0.07042,0.1295,0.48902
-2.70656,0,0,17.7066,17.7066,12.2934,12.2934,1.08263,2.87126,-2.98874,-0.364818,-0.209818,-0.267801,1,0,2.415,-0.4725,-0.5075,-0.356362,-0.216306,-1.27697,-0.07042,0.1295,0.48902
-2.70577,0,0,17.7058,17.7058,12.2942,12.2942,1.08231,2.87033,-2.98921,-0.364801,-0.209823,-0.2678,1,0,3.29,-0.525,-1.0675,-0.356362,-0.216306,-1.27697,-0.07042,0.1295,0.48902
-2.53246,0,0,17.5325,17.5325,12.4675,12.4675,1.01299,3.00334,-3.12726,0.0991425,0.0600877,0.0773423,0,0,3.15,0.0875,-1.5925,0.111874,0.054534,-0.934398,-0.07042,0.1295,0.48902
-2.36127,0,0,17.3613,17.3613,12.6387,12.6387,0.944507,3.13368,-3.27677,0.0968708,0.0588924,0.0772409,0,0,2.94,0.1225,-1.8375,0.111874,0.054534,-0.934398,-0.06566,0.1358,0.48412
-2.36426,0,0,17.3643,17.3643,12.6357,12.6357,0.945704,3.13436,-3.27923,-0.0716417,0.119977,0.202156,1,0,4.2,0.4025,-2.24,-0.05734,0.115534,-0.810446,-0.06566,0.1358,0.48412
-2.36216,0,0,17.3622,17.3622,12.6378,12.6378,0.944865,3.13473,-3.28296,-0.0716482,0.119962,0.202155,1,0,3.0975,0.21,-2.975,-0.05734,0.115534,-0.810446,-0.06566,0.1358,0.48412
-2.36301,0,0,17.363,17.363,12.637,12.637,0.945203,3.13555,-3.28686,-0.0725129,0.17981,-0.12661,1,0,3.7625,0.4725,-3.08,-0.058194,0.175314,-1.13667,-0.06566,0.1358,0.48412
-2.35906,0,0,17.3591,17.3591,12.6409,12.6409,0.943622,3.13676,-3.29045,-0.0725339,0.179782,-0.12661,1,0,2.6775,0.7,-2.905,-0.058194,0.175314,-1.13667,-0.06566,0.1358,0.48412
-1.9856,0,0,16.9856,16.9856,13.0144,13.0144,0.794241,3.05361,-3.25687,-0.0759443,0.140298,-0.0147324,0,0,2.8175,0.42,-2.8,-0.063074,0.13847,-1.02578,-0.06566,0.1358,0.48412
-1.62077,0,0,16.6208,16.6208,13.3792,13.3792,0.648309,2.9717,-3.22317,-0.0745166,0.137756,-0.0146252,0,0,3.2025,0.2275,-2.9575,-0.063074,0.13847,-1.02578,-0.06566,0.1358,0.48412
-1.60979,0,0,16.6098,16.6098,13.3902,13.3902,0.643914,3.12106,-3.38639,0.1158,0.00260557,0.0727765,0,0,2.765,-0.14,-2.4325,0.130662,0.003538,-0.938912,-0.06566,0.1358,0.48412
-1.60114,0,0,16.6011,16.6011,13.3989,13.3989,0.640456,3.26755,-3.54371,0.113247,0.00254371,0.0726347,0,0,3.2025,0.14,-1.6275,0.130662,0.003538,-0.938912,-0.06426,0.13286,0.48244
-1.60275,0,0,16.6027,16.6027,13.3973,13.3973,0.641099,3.26731,-3.54483,-0.035569,-0.0398231,0.197919,1,0,3.85,-0.1225,-1.4525,-0.018788,-0.038796,-0.814594,-0.06426,0.13286,0.48244
-1.60509,0,0,16.6051,16.6051,13.3949,13.3949,0.642036,3.26819,-3.54519,-0.0355844,-0.0398068,0.197918,1,0,3.99,0.5425,-1.015,-0.018788,-0.038796,-0.814594,-0.06426,0.13286,0.48244
-1.60623,0,0,16.6062,16.6062,13.3938,13.3938,0.642493,3.26808,-3.5452,-0.0736076,-0.187328,-0.129862,1,0,3.71,-0.035,-0.805,-0.056974,-0.186172,-1.13985,-0.06426,0.13286,0.48244
-1.60629,0,0,16.6063,16.6063,13.3937,13.3937,0.642515,3.26864,-3.54352,-0.0736173,-0.187328,-0.129863,1,0,3.4125,0.3675,0.175,-0.056974,-0.186172,-1.13985,-0.06426,0.13286,0.48244
-1.60271,0,0,16.6027,16.6027,13.3973,13.3973,0.641084,3.26792,-3.54215,0.257808,0.056901,-0.115108,1,0,2.6075,-0.385,0,0.275842,0.057828,-1.12521,-0.06426,0.13286,0.48244
-1.59888,0,0,16.5989,16.5989,13.4011,13.4011,0.639554,3.26744,-3.54034,0.257817,0.0568744,-0.115107,1,0,2.5375,-0.245,0.2625,0.275842,0.057828,-1.12521,-0.06426,0.13286,0.48244
-1.59227,0,0,16.5923,16.5923,13.4077,13.4077,0.63691,3.26692,-3.53834,-0.439867,-0.102303,-0.126664,1,0,1.9075,-0.2625,0.3675,-0.424804,-0.101138,-1.13667,-0.06426,0.13286,0.48244
-1.58884,0,0,16.5888,16.5888,13.4112,13.4112,0.635534,3.26714,-3.536,-0.439871,-0.102327,-0.126663,1,0,2.6075,0.175,0.56,-0.424804,-0.101138,-1.13667,-0.06426,0.13286,0.48244
-1.58579,0,0,16.5858,16.5858,13.4142,13.4142,0.634316,3.2671,-3.53418,0.0754724,-0.263922,-0.0765002,1,0,2.7125,0.0175,0.2625,0.09272,-0.262544,-1.0869,-0.0686,0.12642,0.48314
-1.87206,0,0,16.8721,16.8721,13.1279,13.1279,0.748823,3.51931,-3.76156,0.23557,-0.116966,-0.0321545,0,0,3.71,0.28,0.2625,0.257908,-0.11773,-1.04261,-0.0686,0.12642,0.48314
-2.15523,0,0,17.1552,17.1552,12.8448,12.8448,0.862094,3.76648,-3.98821,0.231265,-0.114997,-0.0324563,0,0,4.1825,0.2625,-0.1225,0.257908,-0.11773,-1.04261,-0.0686,0.12642,0.48314
-1.55928,0,0,16.5593,16.5593,13.4407,13.4407,0.623713,3.88634,-4.14357,0.085217,0.212058,0.0880704,0,0,4.935,-0.2275,-0.2275,0.113338,0.213134,-0.92293,-0.0686,0.12642,0.48314
-0.968487,0,0,15.9685,15.9685,14.0315,14.0315,0.387395,4.00378,-4.30023,0.0831721,0.207943,0.0879657,0,0,3.7625,-0.1925,-0.665,0.113338,0.213134,-0.92293,-0.0686,0.12642,0.48314
-0.568309,0,0,15.5683,15.5683,14.4317,14.4317,0.227324,3.72065,-4.08577,-0.236629,0.141285,0.0896659,0,0,3.7975,-0.2625,-0.595,-0.212768,0.149328,-0.921588,-0.0686,0.12642,0.48314
-0.168275,0,0,15.1683,15.1683,14.8317,14.8317,0.0673099,3.4434,-3.87029,-0.231799,0.138498,0.0899754,0,0,2.24,0.07,-0.77,-0.212768,0.149328,-0.921588,-0.0686,0.12642,0.48314
-0.162898,0,0,15.1629,15.1629,14.8371,14.8371,0.0651593,3.44293,-3.87006,0.399691,0.0461329,0.25276,1,0,2.24,-0.245,-0.665,0.421388,0.057096,-0.76006,-0.06916,0.12656,0.48986
-0.157409,0,0,15.1574,15.1574,14.8426,14.8426,0.0629635,3.4422,-3.87058,-0.133254,0.209867,-0.0951837,1,0,2.24,-0.4025,-1.1025,-0.113826,0.220698,-1.10532,-0.06916,0.12656,0.48986
-0.15573,0,0,15.1557,15.1557,14.8443,14.8443,0.0622919,3.44242,-3.87119,-0.133257,0.209855,-0.0951839,1,0,3.0975,0.1575,-1.155,-0.113826,0.220698,-1.10532,-0.06916,0.12656,0.48986
0.294706,0,0,14.7053,14.7053,15.2947,15.2947,-0.117882,2.87267,-3.38141,-0.5331,0.181068,0.0670396,0,0,3.99,0.42,-0.7,-0.525332,0.195078,-0.94489,-0.06916,0.12656,0.48986
0.739198,0,0,14.2608,14.2608,15.7392,15.7392,-0.295679,2.31234,-2.88901,-0.52333,0.177967,0.0674707,0,0,3.85,0.385,-0.9975,-0.525332,0.195078,-0.94489,-0.06916,0.12656,0.48986
0.735138,0,0,14.2649,14.2649,15.7351,15.7351,-0.294055,2.31393,-2.88873,-0.105083,0.145387,0.189312,1,0,4.3575,0.9625,-0.63,-0.105286,0.162504,-0.823988,-0.06916,0.12656,0.48986
0.734377,0,0,14.2656,14.2656,15.7344,15.7344,-0.293751,2.31514,-2.88865,-0.105104,0.145392,0.189311,1,0,3.6225,0.735,-0.7525,-0.105286,0.162504,-0.823988,-0.06916,0.12656,0.48986
0.735144,0,0,14.2649,14.2649,15.7351,15.7351,-0.294057,2.31629,-2.88825,0.0903466,-0.0453748,0.207875,1,0,3.2725,0.7,-0.56,0.091012,-0.02806,-0.805566,-0.06916,0.12656,0.48986
0.739724,0,0,14.2603,14.2603,15.7397,15.7397,-0.29589,2.31564,-2.88852,0.0903579,-0.0454068,0.207876,1,0,2.4325,-0.35,-0.9625,0.091012,-0.02806,-0.805566,-0.06384,0.13188,0.48272
0.465968,0,0,14.534,14.534,15.466,15.466,-0.186387,2.47905,-3.03963,0.147765,-0.108346,-0.00247762,0,0,2.0825,-0.1925,-1.1025,0.151524,-0.092842,-1.01419,-0.06384,0.13188,0.48272
0.192195,0,0,14.8078,14.8078,15.1922,15.1922,-0.0768779,2.64032,-3.1895,0.144953,-0.106436,-0.00259894,0,0,3.185,0.4375,-0.8575,0.151524,-0.092842,-1.01419,-0.06384,0.13188,0.48272
-0.810271,0,0,15.8103,15.8103,14.1897,14.1897,0.324108,2.71087,-3.23206,0.0726544,-0.406594,0.00482836,0,0,4.0075,0.105,-0.735,0.080154,-0.399672,-1.00674,-0.06384,0.13188,0.48272
-1.79975,0,0,16.7997,16.7997,13.2003,13.2003,0.719898,2.78044,-3.27505,0.0714414,-0.399695,0.00470733,0,0,4.935,0.2975,-1.3825,0.080154,-0.399672,-1.00674,-0.06384,0.13188,0.48272
-1.64602,0,0,16.646,16.646,13.354,13.354,0.658409,3.02917,-3.52333,0.212038,0.0583047,0.0316719,0,0,4.515,0.1225,-1.785,0.2257,0.058926,-0.979782,-0.06384,0.13188,0.48272
-1.49582,0,0,16.4958,16.4958,13.5042,13.5042,0.598326,3.2725,-3.77182,0.207798,0.0572551,0.0314499,0,0,4.7425,-0.175,-1.925,0.2257,0.058926,-0.979782,-0.06384,0.13188,0.48272
-1.50163,0,0,16.5016,16.5016,13.4984,13.4984,0.600654,3.27286,-3.77351,-0.280338,0.168675,-0.07318,1,0,4.8125,0.2275,-1.785,-0.264496,0.17019,-1.0836,-0.06384,0.13188,0.48272
-1.49883,0,0,16.4988,16.4988,13.5012,13.5012,0.599533,3.27188,-3.77545,-0.280321,0.168656,-0.0731788,1,0,2.8875,-0.56,-1.925,-0.264496,0.17019,-1.0836,-0.06958,0.1274,0.48272
-0.864545,0,0,15.8645,15.8645,14.1355,14.1355,0.345818,2.67415,-3.27349,-0.549441,0.251803,0.112067,0,0,3.5175,-0.2625,-2.31,-0.545218,0.257664,-0.90036,-0.06958,0.1274,0.48272
-0.239371,0,0,15.2394,15.2394,14.7606,14.7606,0.0957482,2.08589,-2.76677,-0.539183,0.247444,0.112511,0,0,3.5175,-0.2625,-2.31,-0.545218,0.257664,-0.90036,-0.06958,0.1274,0.48272
-1.12618,0,0,16.1262,16.1262,13.8738,13.8738,0.450474,2.11019,-2.75642,0.0148539,-0.304366,0.138531,0,0,4.0425,-0.5075,-1.47,0.01159,-0.299754,-0.874496,-0.06958,0.1274,0.48272
-1.9977,0,0,16.9977,16.9977,13.0023,13.0023,0.799082,2.13395,-2.74612,0.0144394,-0.298287,0.138449,0,0,4.0425,-0.5075,-1.47,0.01159,-0.299754,-0.874496,-0.06958,0.1274,0.48272
-2.73474,0,0,17.7347,17.7347,12.2653,12.2653,1.0939,2.23701,-2.80898,0.0945234,-0.297787,-0.0147755,0,0,3.605,0.3675,-0.805,0.093818,-0.30439,-1.02639,-0.06958,0.1274,0.48272
-3.45896,0,0,18.459,18.459,11.541,11.541,1.38359,2.33797,-2.87095,0.0927628,-0.292738,-0.014955,0,0,3.605,0.3675,-0.805,0.093818,-0.30439,-1.02639,-0.06958,0.1274,0.48272
-3.45848,0,0,18.4585,18.4585,11.5415,11.5415,1.38339,2.33895,-2.86928,0.0148732,0.274293,-0.2011,1,0,3.3075,0.63,0.1575,0.015616,0.262056,-1.21109,-0.06958,0.1274,0.48272
-3.45831,0,0,18.4583,18.4583,11.5417,11.5417,1.38333,2.33924,-2.86685,0.00903699,-0.137764,-0.118233,1,0,3.36,0.2275,0.6125,0.00976,-0.149572,-1.12887,-0.06958,0.1274,0.48272
-3.46325,0,0,18.4633,18.4633,11.5367,11.5367,1.3853,2.33852,-2.86408,0.00904942,-0.137729,-0.118233,1,0,4.4975,-0.35,0.8225,0.00976,-0.149572,-1.12887,-0.06916,0.13118,0.48608
-3.75683,0,0,18.7568,18.7568,11.2432,11.2432,1.50273,2.2968,-2.81936,-0.0339578,-0.116141,-0.0505104,0,0,4.585,-0.14,0.84,-0.03416,-0.130052,-1.06164,-0.06916,0.13118,0.48608
-4.0461,0,0,19.0461,19.0461,10.9539,10.9539,1.61844,2.2559,-2.77489,-0.0332446,-0.114123,-0.050537,0,0,4.83,-0.1575,0.8925,-0.03416,-0.130052,-1.06164,-0.06916,0.13118,0.48608
-4.48746,0,0,19.4875,19.4875,10.5125,10.5125,1.79498,1.96446,-2.50184,-0.228977,-0.147067,0.122547,0,0,3.99,0.525,0.5775,-0.235826,-0.166042,-0.88999,-0.06916,0.13118,0.48608
-4.91849,0,0,19.9185,19.9185,10.0815,10.0815,1.9674,1.67789,-2.23093,-0.223978,-0.144056,0.122607,0,0,3.535,0,0.7525,-0.235826,-0.166042,-0.88999,-0.06916,0.13118,0.48608
-4.58216,0,0,19.5822,19.5822,10.4178,10.4178,1.83287,2.10455,-2.61022,0.370055,0.12923,0.0532193,0,0,2.94,0.2275,0.455,0.368196,0.109312,-0.958676,-0.06916,0.13118,0.48608
-4.2471,0,0,19.2471,19.2471,10.7529,10.7529,1.69884,2.52281,-2.99163,0.362761,0.126885,0.0529968,0,0,2.135,0,-0.245,0.368196,0.109312,-0.958676,-0.06916,0.13118,0.48608
-4.24547,0,0,19.2455,19.2455,10.7545,10.7545,1.69819,2.52286,-2.99065,0.102538,-0.0249297,0.162913,1,0,3.0625,0.07,-0.2275,0.106872,-0.042334,-0.849608,-0.06916,0.13118,0.48608
-4.2444,0,0,19.2444,19.2444,10.7556,10.7556,1.69776,2.52374,-2.9909,0.102522,-0.0249372,0.162913,1,0,3.22,0.5425,-0.9625,0.106872,-0.042334,-0.849608,-0.0651,0.1323,0.49238
-4.2452,0,0,19.2452,19.2452,10.7548,10.7548,1.69808,2.52447,-2.99185,0.0157688,-0.00270452,-0.254375,1,0,3.6575,0.4375,-1.365,0.019764,-0.02013,-1.26368,-0.0651,0.1323,0.49238
-4.24359,0,0,19.2436,19.2436,10.7564,10.7564,1.69744,2.52417,-2.99352,0.015774,-0.00271578,-0.254375,1,0,3.1325,-0.175,-1.7675,0.019764,-0.02013,-1.26368,-0.0651,0.1323,0.49238
-4.24385,0,0,19.2439,19.2439,10.7561,10.7561,1.69754,2.52389,-2.99582,-0.0703545,0.120756,-0.174212,1,0,3.57,-0.175,-2.135,-0.066734,0.103212,-1.18413,-0.0651,0.1323,0.49238
-4.24422,0,0,19.2442,19.2442,10.7558,10.7558,1.69769,2.52468,-2.99863,-0.0703682,0.120759,-0.174213,1,0,3.605,0.4375,-2.45,-0.066734,0.103212,-1.18413,-0.0651,0.1323,0.49238
-4.24232,0,0,19.2423,19.2423,10.7577,10.7577,1.69693,2.52585,-3.00152,-0.0894619,-0.184327,-0.10192,1,0,3.0975,0.665,-2.5025,-0.085888,-0.201544,-1.1124,-0.0651,0.1323,0.49238
-4.24501,0,0,19.245,19.245,10.755,10.755,1.698,2.52654,-3.00442,-0.089474,-0.184308,-0.101921,1,0,4.13,0.385,-2.5025,-0.085888,-0.201544,-1.1124,-0.0651,0.1323,0.49238
-4.60239,0,0,19.6024,19.6024,10.3976,10.3976,1.84095,2.47135,-2.95551,-0.046356,-0.120264,0.0925488,0,0,4.025,0.735,-2.695,-0.043554,-0.140056,-0.919392,-0.0651,0.1323,0.49238
-4.95187,0,0,19.9519,19.9519,10.0481,10.0481,1.98075,2.41674,-2.90467,-0.0454039,-0.117826,0.0925081,0,0,3.6925,0.7875,-2.3275,-0.043554,-0.140056,-0.919392,-0.07602,0.133,0.49042
-5.49669,0,0,20.4967,20.4967,9.50331,9.50331,2.19868,2.35109,-2.83781,-0.0528845,-0.191455,0.0820895,0,0,3.5875,0.07,-2.1,-0.052216,-0.217404,-0.92964,-0.07602,0.133,0.49042
-6.02928,0,0,21.0293,21.0293,8.97072,8.97072,2.41171,2.28688,-2.77243,-0.0517647,-0.187741,0.0819854,0,0,3.0625,0.0875,-2.5025,-0.052216,-0.217404,-0.92964,-0.07602,0.133,0.49042
-6.12234,0,0,21.1223,21.1223,8.87766,8.87766,2.44894,2.48945,-2.9526,0.147584,-0.0294332,0.119556,0,0,2.625,-0.28,-2.625,0.151524,-0.059902,-0.892186,-0.07602,0.133,0.49042
-6.22116,0,0,21.2212,21.2212,8.77884,8.77884,2.48846,2.68804,-3.13024,0.144121,-0.0287514,0.11937,0,0,4.27,-0.1225,-1.61,0.151524,-0.059902,-0.892186,-0.07602,0.133,0.49042
-6.66137,0,0,21.6614,21.6614,8.33863,8.33863,2.66455,2.9182,-3.32283,0.183601,-0.160522,0.0800609,0,0,3.1325,0.595,-0.7175,0.1952,-0.19459,-0.93086,-0.07602,0.133,0.49042
-7.09391,0,0,22.0939,22.0939,7.90609,7.90609,2.83756,3.14369,-3.51361,0.179671,-0.15752,0.0797083,0,0,3.1325,0.595,-0.7175,0.1952,-0.19459,-0.93086,-0.07602,0.133,0.49042
-7.58055,0,0,22.5805,22.5805,7.41945,7.41945,3.03222,3.25097,-3.60323,0.101144,-0.198347,-0.0276578,0,0,3.9725,0.105,-0.4375,0.118218,-0.238754,-1.03712,-0.07602,0.133,0.49042
-8.05858,0,0,23.0586,23.0586,6.94142,6.94142,3.22343,3.35629,-3.68592,0.0993091,-0.195026,-0.0279454,0,0,3.9725,0.105,-0.4375,0.118218,-0.238754,-1.03712,-0.06846,0.1274,0.49
-8.05985,0,0,23.0599,23.0599,6.94015,6.94015,3.22394,3.35406,-3.68398,-0.339094,0.119459,-0.286013,1,0,3.675,-1.2075,0.4025,-0.32208,0.075396,-1.2932,-0.06846,0.1274,0.49
-8.06112,0,0,23.0611,23.0611,6.93888,6.93888,3.22445,3.35184,-3.68204,-0.339055,0.119468,-0.286011,1,0,3.675,-1.2075,0.4025,-0.32208,0.075396,-1.2932,-0.06846,0.1274,0.49
-7.71961,0,0,22.7196,22.7196,7.28039,7.28039,3.08784,2.9285,-3.33931,-0.381244,0.140317,-0.0255624,0,0,3.1325,-0.98,0.8925,-0.371856,0.098576,-1.03529,-0.06846,0.1274,0.49
-7.38322,0,0,22.3832,22.3832,7.61678,7.61678,2.95329,2.51304,-2.99525,-0.374001,0.137993,-0.0250951,0,0,3.1325,-0.98,0.8925,-0.371856,0.098576,-1.03529,-0.06846,0.1274,0.49
-7.33137,0,0,22.3314,22.3314,7.66863,7.66863,2.93255,2.45812,-2.94663,-0.0453965,0.0195374,0.0052103,0,0,3.01,-0.2975,1.155,-0.042822,-0.019398,-1.00528,-0.06846,0.1274,0.49
-7.28042,0,0,22.2804,22.2804,7.71958,7.71958,2.91217,2.40433,-2.89807,-0.0444585,0.0191846,0.00526819,0,0,3.01,-0.2975,1.155,-0.042822,-0.019398,-1.00528,-0.06846,0.1274,0.49
-7.51508,0,0,22.5151,22.5151,7.48492,7.48492,3.00603,2.32432,-2.81663,-0.0683322,-0.101671,-0.080085,0,0,3.08,-0.315,0.77,-0.068198,-0.141764,-1.08995,-0.06846,0.1274,0.49
-7.74539,0,0,22.7454,22.7454,7.25461,7.25461,3.09816,2.24607,-2.74161,-0.0669677,-0.100064,-0.0801162,0,0,3.08,-0.315,0.77,-0.068198,-0.141764,-1.08995,-0.06118,0.1302,0.48076
-7.75024,0,0,22.7502,22.7502,7.24976,7.24976,3.1001,2.24611,-2.73882,-0.1644,0.130667,0.160369,1,0,4.48,0.14,0.8225,-0.166042,0.088694,-0.851316,-0.06118,0.1302,0.48076
-7.75628,0,0,22.7563,22.7563,7.24372,7.24372,3.10251,2.24715,-2.73673,-0.312023,0.3564,-0.0941372,1,0,4.76,0.7,0.385,-0.314272,0.31415,-1.10386,-0.06118,0.1302,0.48076
-7.7587,0,0,22.7587,22.7587,7.2413,7.2413,3.10348,2.24744,-2.73636,-0.312028,0.356417,-0.0941383,1,0,3.99,0.21,-0.595,-0.314272,0.31415,-1.10386,-0.06118,0.1302,0.48076
-7.08423,0,0,22.0842,22.0842,7.91577,7.91577,2.83369,2.0221,-2.55993,-0.200462,0.267824,0.00325807,0,0,4.1125,0.9275,-0.945,-0.20618,0.230336,-1.0076,-0.06118,0.1302,0.48076
-6.41625,0,0,21.4163,21.4163,8.58375,8.58375,2.5665,1.79997,-2.3827,-0.196587,0.263174,0.00360677,0,0,2.9925,0.3325,-1.4875,-0.20618,0.230336,-1.0076,-0.06118,0.1302,0.48076
-6.41515,0,0,21.4152,21.4152,8.58485,8.58485,2.56606,1.79961,-2.3844,-0.0594232,-0.116769,0.150039,1,0,3.2375,-0.2275,-1.785,-0.068442,-0.149206,-0.862296,-0.06118,0.1302,0.48076
-6.41096,0,0,21.411,21.411,8.58904,8.58904,2.56439,1.80001,-2.38773,-0.0594302,-0.116799,0.15004,1,0,2.5725,0.175,-2.7475,-0.068442,-0.149206,-0.862296,-0.06118,0.1302,0.48076
-7.13498,0,0,22.135,22.135,7.86502,7.86502,2.85399,1.81425,-2.37985,0.00932515,-0.265999,0.0784833,0,0,3.22,0.595,-2.975,0.000854,-0.303292,-0.933056,-0.06706,0.13244,0.48818
-7.13909,0,0,22.1391,22.1391,7.86091,7.86091,2.85564,1.81575,-2.38375,0.044287,-0.074109,-0.105204,1,0,4.445,0.7875,-3.115,0.03599,-0.11163,-1.11532,-0.06706,0.13244,0.48818
-7.14444,0,0,22.1444,22.1444,7.85556,7.85556,2.85778,1.81601,-2.3888,0.0442824,-0.0740717,-0.105206,1,0,4.7425,0.035,-3.745,0.03599,-0.11163,-1.11532,-0.06706,0.13244,0.48818
-7.15113,0,0,22.1511,22.1511,7.84887,7.84887,2.86045,1.81668,-2.3937,0.128825,-0.14034,0.270276,1,0,5.04,0.28,-3.675,0.120902,-0.177876,-0.742736,-0.06706,0.13244,0.48818
-7.15413,0,0,22.1541,22.1541,7.84587,7.84587,2.86165,1.81813,-2.39778,0.1288,-0.140319,0.270274,1,0,4.2,0.7525,-3.22,0.120902,-0.177876,-0.742736,-0.06706,0.13244,0.48818
-7.1584,0,0,22.1584,22.1584,7.8416,7.8416,2.86336,1.81969,-2.40072,-0.230339,0.00174406,0.252936,1,0,4.4625,0.8575,-2.555,-0.23973,-0.03599,-0.759938,-0.06706,0.13244,0.48818
-7.16226,0,0,22.1623,22.1623,7.83774,7.83774,2.8649,1.82003,-2.40194,-0.230345,0.00177092,0.252935,1,0,4.34,0.1925,-1.5225,-0.23973,-0.03599,-0.759938,-0.06706,0.13244,0.48818
-7.16295,0,0,22.1629,22.1629,7.83705,7.83705,2.86518,1.82005,-2.40273,-0.00766254,0.108026,0.243344,1,0,3.6225,0.0175,-1.26,-0.016104,0.07015,-0.769454,-0.06706,0.13244,0.48818
-7.16859,0,0,22.1686,22.1686,7.83141,7.83141,2.86744,1.81896,-2.40207,-0.00764338,0.108065,0.243343,1,0,4.7075,-0.595,-0.385,-0.016104,0.07015,-0.769454,-0.06482,0.12936,0.4921
-7.17531,0,0,22.1753,22.1753,7.82469,7.82469,2.87012,1.81863,-2.40066,0.0821403,0.218026,0.191579,1,0,4.935,-0.1225,0.035,0.074054,0.17995,-0.820816,-0.06482,0.12936,0.4921
-7.18278,0,0,22.1828,22.1828,7.81722,7.81722,2.87311,1.81759,-2.39768,0.0821583,0.218078,0.191577,1,0,5.075,-0.49,0.9625,0.074054,0.17995,-0.820816,-0.06482,0.12936,0.4921
-7.00586,0,0,22.0059,22.0059,7.99414,7.99414,2.80234,1.9222,-2.48566,0.101351,0.0726107,-0.0929238,0,0,5.075,-0.3675,1.2425,0.09516,0.035868,-1.10312,-0.06482,0.12936,0.4921
-6.83041,0,0,21.8304,21.8304,8.16959,8.16959,2.73216,2.02466,-2.57332,0.0995634,0.0713851,-0.0929262,0,0,4.69,-0.385,1.4175,0.09516,0.035868,-1.10312,-0.06482,0.12936,0.4921
-6.24559,0,0,21.2456,21.2456,8.75441,8.75441,2.49824,2.17009,-2.71386,0.108203,0.209094,0.120483,0,0,4.41,-0.945,1.995,0.106384,0.17751,-0.891454,-0.06482,0.12936,0.4921
-5.67132,0,0,20.6713,20.6713,9.32868,9.32868,2.26853,2.31369,-2.855,0.105699,0.205087,0.120551,0,0,4.515,-0.3675,2.03,0.106384,0.17751,-0.891454,-0.06482,0.12936,0.4921
-4.67344,0,0,19.6734,19.6734,10.3266,10.3266,1.86938,2.13872,-2.7302,-0.150135,0.371311,0.113176,0,0,4.1475,-0.4025,1.6625,-0.153598,0.350506,-0.89914,-0.06482,0.12936,0.4921
-3.69281,0,0,18.6928,18.6928,11.3072,11.3072,1.47712,1.96618,-2.60343,-0.147126,0.364475,0.113483,0,0,4.3225,-1.0325,1.33,-0.153598,0.350506,-0.89914,-0.0616,0.12866,0.49
-3.70342,0,0,18.7034,18.7034,11.2966,11.2966,1.48137,1.96494,-2.60035,0.117613,0.295059,-0.190693,1,0,5.775,-0.6475,1.015,0.11224,0.281088,-1.20097,-0.0616,0.12866,0.49
-3.7108,0,0,18.7108,18.7108,11.2892,11.2892,1.48432,1.96488,-2.59862,0.117614,0.295111,-0.190694,1,0,5.075,0.0175,0.21,0.11224,0.281088,-1.20097,-0.0616,0.12866,0.49
-4.22736,0,0,19.2274,19.2274,10.7726,10.7726,1.69094,2.07975,-2.68817,0.0976306,-0.192483,0.0406475,0,0,5.7225,0.2625,-4.3925,0.094184,-0.209596,-0.971242,-0.0616,0.12866,0.49
-4.73324,0,0,19.7332,19.7332,10.2668,10.2668,1.8933,2.19171,-2.77146,0.0956779,-0.188957,0.0404644,0,0,5.25,-0.0175,-1.225,0.094184,-0.209596,-0.971242,-0.0616,0.12866,0.49
-4.73843,0,0,19.7384,19.7384,10.2616,10.2616,1.89537,2.19265,-2.77327,-0.0467197,-0.0082957,0.184189,1,0,4.655,0.5425,-1.8725,-0.0488,-0.029158,-0.828624,-0.0616,0.12866,0.49
-4.73932,0,0,19.7393,19.7393,10.2607,10.2607,1.89573,2.19371,-2.77508,-0.0467381,-0.00828949,0.184188,1,0,3.6925,0.6125,-1.8725,-0.0488,-0.029158,-0.828624,-0.0616,0.12866,0.49
-4.74111,0,0,19.7411,19.7411,10.2589,10.2589,1.89644,2.19529,-2.77735,0.0082673,-0.0606695,0.119147,1,0,3.9025,0.91,-2.1525,0.006466,-0.081496,-0.893162,-0.0616,0.12866,0.49
-4.74453,0,0,19.7445,19.7445,10.2555,10.2555,1.89781,2.19609,-2.78039,0.00825335,-0.0606456,0.119146,1,0,4.2875,0.4375,-2.59,0.006466,-0.081496,-0.893162,-0.0616,0.12866,0.49
-4.98712,0,0,19.9871,19.9871,10.0129,10.0129,1.99485,2.32765,-2.88569,0.102176,-0.0836269,0.077933,0,0,4.7075,0.9625,-2.4675,0.10309,-0.10614,-0.93391,-0.06468,0.12614,0.48426
-4.99387,0,0,19.9939,19.9939,10.0061,10.0061,1.99755,2.32972,-2.88896,0.307936,-0.0667265,-0.278129,1,0,5.04,1.1725,-2.7475,0.309758,-0.089304,-1.28722,-0.06468,0.12614,0.48426
-5.00682,0,0,20.0068,20.0068,9.99318,9.99318,2.00273,2.33156,-2.89178,-0.148639,-0.154323,0.189932,1,0,6.4225,1.05,-2.485,-0.148718,-0.1769,-0.822768,-0.06468,0.12614,0.48426
-5.0156,0,0,20.0156,20.0156,9.9844,9.9844,2.00624,2.33416,-2.89567,-0.148684,-0.154262,0.189928,1,0,5.5125,1.47,-3.115,-0.148718,-0.1769,-0.822768,-0.06468,0.12614,0.48426
-4.69619,0,0,19.6962,19.6962,10.3038,10.3038,1.87848,2.2761,-2.85473,-0.0518196,0.125137,0.0168094,0,0,5.32,0.77,-2.835,-0.05246,0.104432,-0.994666,-0.06468,0.12614,0.48426
-4.38423,0,0,19.3842,19.3842,10.6158,10.6158,1.75369,2.21909,-2.81178,-0.0508254,0.122963,0.0169174,0,0,5.67,0.77,-1.8025,-0.05246,0.104432,-0.994666,-0.06468,0.12614,0.48426
-3.65108,0,0,18.6511,18.6511,11.3489,11.3489,1.46043,2.17355,-2.7914,-0.0438354,0.312155,-0.0624564,0,0,5.0225,1.2775,-1.5225,-0.046238,0.298534,-1.0736,-0.06468,0.12614,0.48426
-2.93875,0,0,17.9387,17.9387,12.0613,12.0613,1.1755,2.126,-2.76908,-0.0430061,0.307187,-0.062311,0,0,6.825,-0.0875,-1.5225,-0.046238,0.298534,-1.0736,-0.06622,0.1253,0.48846
-2.02002,0,0,17.02,17.02,12.98,12.98,0.808007,2.22532,-2.88632,0.0761399,0.334241,0.135312,0,0,5.8625,0,-1.5225,0.075152,0.331962,-0.877546,-0.06622,0.1253,0.48846
-1.10792,0,0,16.1079,16.1079,13.8921,13.8921,0.443168,2.32306,-3.00352,0.0744355,0.327878,0.135314,0,0,3.92,0.1575,-0.9625,0.075152,0.331962,-0.877546,-0.06622,0.1253,0.48846
-1.11253,0,0,16.1125,16.1125,13.8875,13.8875,0.445013,2.32106,-3.0024,0.105206,0.0847554,0.244125,1,0,4.4625,-1.1375,-0.14,0.106018,0.08906,-0.769576,-0.06622,0.1253,0.48846
-1.10921,0,0,16.1092,16.1092,13.8908,13.8908,0.443683,2.32079,-3.00106,0.105211,0.0847322,0.244125,1,0,2.6775,-0.1225,-0.0175,0.106018,0.08906,-0.769576,-0.06622,0.1253,0.48846
-1.1089,0,0,16.1089,16.1089,13.8911,13.8911,0.44356,2.32046,-2.99921,0.0471465,0.0963321,0.16593,1,0,3.3425,-0.1575,0.28,0.047702,0.10065,-0.847168,-0.06622,0.1253,0.48846
-1.12335,0,0,16.1234,16.1234,13.8766,13.8766,0.44934,2.31779,-2.99573,0.0471931,0.0964329,0.165931,1,0,6.615,-1.5225,1.2425,0.047702,0.10065,-0.847168,-0.06622,0.1253,0.48846
-1.13527,0,0,16.1353,16.1353,13.8647,13.8647,0.454109,2.31645,-2.99101,-0.130882,0.0596338,0.157325,1,0,6.02,-0.735,1.96,-0.13115,0.063806,-0.855708,-0.06622,0.1253,0.48846
-1.14851,0,0,16.1485,16.1485,13.8515,13.8515,0.459403,2.31552,-2.9864,-0.130865,0.0597261,0.157325,1,0,6.3175,-0.49,1.89,-0.13115,0.063806,-0.855708,-0.06384,0.1309,0.48664
-1.16533,0,0,16.1653,16.1653,13.8347,13.8347,0.466133,2.31469,-2.98179,0.21514,0.214944,-0.104433,1,0,7.1225,-0.4375,1.89,0.216306,0.218746,-1.11545,-0.06384,0.1309,0.48664
-1.18216,0,0,16.1822,16.1822,13.8178,13.8178,0.472864,2.31386,-2.97719,0.215155,0.215062,-0.104433,1,0,7.1225,-0.4375,1.89,0.216306,0.218746,-1.11545,-0.06384,0.1309,0.48664
-1.18329,0,0,16.1833,16.1833,13.8167,13.8167,0.473316,2.58933,-3.23153,0.230275,0.00207899,0.0866691,0,0,5.4075,-0.4725,1.6975,0.236314,0.005978,-0.925614,-0.06384,0.1309,0.48664
-1.1843,0,0,16.1843,16.1843,13.8157,13.8157,0.473719,2.85963,-3.48543,0.225563,0.00208415,0.0864448,0,0,5.4075,-0.4725,1.6975,0.236314,0.005978,-0.925614,-0.06384,0.1309,0.48664
-1.83357,0,0,16.8336,16.8336,13.1664,13.1664,0.733429,2.71827,-3.35277,-0.114077,-0.243503,0.0597144,0,0,3.325,-4.41,-0.42,-0.107238,-0.243878,-0.95221,-0.06384,0.1309,0.48664
-2.47143,0,0,17.4714,17.4714,12.5286,12.5286,0.988571,2.57967,-3.22179,-0.11166,-0.239054,0.0597593,0,0,3.325,-4.41,-0.42,-0.107238,-0.243878,-0.95221,-0.06384,0.1309,0.48664
-2.07537,0,0,17.0754,17.0754,12.9246,12.9246,0.830149,2.37432,-3.05931,-0.185344,0.154488,0.0131146,0,0,3.2725,0.035,-1.6275,-0.18483,0.152012,-0.998692,-0.06384,0.1309,0.48664
-2.08094,0,0,17.0809,17.0809,12.9191,12.9191,0.832377,2.37484,-3.06177,-0.160692,0.251007,-0.178686,1,0,4.76,0.315,-2.24,-0.160064,0.248392,-1.18901,-0.06384,0.1309,0.48664
-2.09095,0,0,17.091,17.091,12.909,12.909,0.836382,2.37582,-3.06657,-0.160709,0.251077,-0.178688,1,0,5.81,0.56,-3.605,-0.160064,0.248392,-1.18901,-0.06706,0.12488,0.48216
-1.92944,0,0,16.9294,16.9294,13.0706,13.0706,0.771776,2.30028,-3.00429,-0.0700997,0.0698142,-0.0795216,0,0,5.1625,0.7175,-3.6925,-0.070394,0.068442,-1.09068,-0.06706,0.12488,0.48216
-1.75975,0,0,16.7598,16.7598,13.2402,13.2402,0.703901,2.22644,-2.94322,-0.0688121,0.0686313,-0.0794555,0,0,2.7125,0.8575,-4.4625,-0.070394,0.068442,-1.09068,-0.06706,0.12488,0.48216
-1.27333,0,0,16.2733,16.2733,13.7267,13.7267,0.509334,2.43994,-3.15396,0.169464,0.173319,0.11063,0,0,2.7825,0.9625,-4.48,0.17263,0.176412,-0.901946,-0.06706,0.12488,0.48216
-0.798334,0,0,15.7983,15.7983,14.2017,14.2017,0.319334,2.64837,-3.36439,0.16583,0.170005,0.110493,0,0,3.5,0.35,-3.78,0.17263,0.176412,-0.901946,-0.06706,0.12488,0.48216
-0.802811,0,0,15.8028,15.8028,14.1972,14.1972,0.321124,2.64925,-3.36932,0.177842,0.221207,-0.0964306,1,0,4.585,0.525,-3.675,0.184708,0.22753,-1.10727,-0.06706,0.12488,0.48216
-0.815014,0,0,15.815,15.815,14.185,14.185,0.326006,2.65062,-3.3722,0.177818,0.221292,-0.0964322,1,0,6.265,0.8225,-2.485,0.184708,0.22753,-1.10727,-0.06706,0.12488,0.48216
-0.890814,0,0,15.8908,15.8908,14.1092,14.1092,0.356326,2.44454,-3.18291,-0.194344,-0.0257288,-0.0553336,0,0,6.2825,0.875,-1.8025,-0.192638,-0.019764,-1.06665,-0.06706,0.12488,0.48216
-0.961402,0,0,15.9614,15.9614,14.0386,14.0386,0.384561,2.24234,-2.99293,-0.190818,-0.0252355,-0.0551925,0,0,5.4075,0.8575,-0.735,-0.192638,-0.019764,-1.06665,-0.06776,0.1253,0.48846
-1.06622,0,0,16.0662,16.0662,13.9338,13.9338,0.426488,1.97447,-2.73859,-0.260009,-0.0436769,-0.0744516,0,0,3.92,0.56,-0.4375,-0.266814,-0.038918,-1.08592,-0.06776,0.1253,0.48846
-1.14855,0,0,16.1486,16.1486,13.8514,13.8514,0.459422,1.71242,-2.48408,-0.255438,-0.0431013,-0.0743089,0,0,-0.665,0.9975,0.105,-0.266814,-0.038918,-1.08592,-0.06776,0.1253,0.48846
-1.13272,0,0,16.1327,16.1327,13.8673,13.8673,0.453089,1.7128,-2.48151,0.13501,-0.0942608,-0.117586,1,0,-0.14,0.2625,0.7,0.125294,-0.089914,-1.12887,-0.06776,0.1253,0.48846
-1.12263,0,0,16.1226,16.1226,13.8774,13.8774,0.449051,1.71174,-2.47735,0.135029,-0.0943312,-0.117585,1,0,1.12,-0.5775,1.6275,0.125294,-0.089914,-1.12887,-0.06776,0.1253,0.48846
-0.609821,0,0,15.6098,15.6098,14.3902,14.3902,0.243928,1.99582,-2.73744,0.263465,0.201667,0.0299374,0,0,1.855,-0.6125,1.82,0.25925,0.209352,-0.982344,-0.06776,0.1253,0.48846
-0.120225,0,0,15.1202,15.1202,14.8798,14.8798,0.0480899,2.27492,-2.99949,0.258597,0.198251,0.0297646,0,0,5.1975,-0.525,1.4525,0.25925,0.209352,-0.982344,-0.06776,0.1253,0.48846
-0.562612,0,0,15.5626,15.5626,14.4374,14.4374,0.225045,2.27523,-2.97842,-0.00175241,-0.150633,0.0981164,0,0,7.2275,-1.2425,1.365,-0.002196,-0.142252,-0.914512,-0.06776,0.1253,0.48846
-0.987617,0,0,15.9876,15.9876,14.0124,14.0124,0.395047,2.27832,-2.95538,-0.00180625,-0.147668,0.0980982,0,0,5.11,0.1225,0.9275,-0.002196,-0.142252,-0.914512,-0.06916,0.12362,0.48664
-0.994737,0,0,15.9947,15.9947,14.0053,14.0053,0.397895,2.27855,-2.95257,-0.487753,-0.357798,-0.0380062,1,0,4.9875,0.175,0.84,-0.490196,-0.352214,-1.04957,-0.06916,0.12362,0.48664
-0.985026,0,0,15.985,15.985,14.015,14.015,0.39401,2.27798,-2.95108,-0.487743,-0.357866,-0.0380054,1,0,1.2425,-0.2975,0.07,-0.490196,-0.352214,-1.04957,-0.06916,0.12362,0.48664
-0.972967,0,0,15.973,15.973,14.027,14.027,0.389187,2.27665,-2.95044,-0.243412,-0.283331,-0.189108,1,0,0.735,-0.7525,-0.42,-0.244854,-0.277672,-1.1995,-0.06916,0.12362,0.48664
-0.96302,0,0,15.963,15.963,14.037,14.037,0.385208,2.27675,-2.95054,-0.243414,-0.2834,-0.189107,1,0,1.225,0.0875,-0.8575,-0.244854,-0.277672,-1.1995,-0.06916,0.12362,0.48664
-0.323201,0,0,15.3232,15.3232,14.6768,14.6768,0.129281,2.35551,-3.03819,0.0602631,0.224214,0.108639,0,0,0.0175,0.5075,-0.875,0.061488,0.233874,-0.90402,-0.06916,0.12362,0.48664
0.305726,0,0,14.6943,14.6943,15.3057,15.3057,-0.12229,2.43279,-3.12622,0.0589155,0.219827,0.108582,0,0,0.0175,0.5075,-0.875,0.061488,0.233874,-0.90402,-0.06916,0.12362,0.48664
0.904438,0,0,14.0956,14.0956,15.9044,15.9044,-0.361775,2.15315,-2.89062,-0.242595,0.223099,0.0981865,0,0,4.165,-0.63,-2.0125,-0.246196,0.241316,-0.914512,-0.06916,0.12362,0.48664
1.49315,0,0,13.5068,13.5068,16.4932,16.4932,-0.597261,1.87841,-2.65342,-0.237803,0.218991,0.0983208,0,0,4.165,-0.63,-2.0125,-0.246196,0.241316,-0.914512,-0.06916,0.12404,0.48398
1.62188,0,0,13.3781,13.3781,16.6219,16.6219,-0.648751,1.62931,-2.41485,-0.23698,0.0500447,-0.0248732,0,0,1.82,1.155,-1.9075,-0.249734,0.073444,-1.03688,-0.06916,0.12404,0.48398
1.74853,0,0,13.2515,13.2515,16.7485,16.7485,-0.699413,1.38482,-2.17611,-0.232714,0.0491595,-0.0247714,0,0,1.82,1.155,-1.9075,-0.249734,0.073444,-1.03688,-0.06916,0.12404,0.48398
1.76308,0,0,13.2369,13.2369,16.7631,16.7631,-0.705231,1.38528,-2.17877,-0.168578,0.0766586,0.172928,1,0,0.2275,0.315,-2.345,-0.185318,0.101016,-0.840702,-0.06916,0.12404,0.48398
1.77762,0,0,13.2224,13.2224,16.7776,16.7776,-0.711049,1.38574,-2.18142,-0.168586,0.0765571,0.172927,1,0,0.2275,0.315,-2.345,-0.185318,0.101016,-0.840702,-0.06916,0.12404,0.48398
1.77591,0,0,13.2241,13.2241,16.7759,16.7759,-0.710362,1.38704,-2.18355,0.313568,0.109665,0.225794,1,0,3.8675,0.805,-2.03,0.2989,0.134078,-0.788242,-0.06916,0.12404,0.48398
1.77419,0,0,13.2258,13.2258,16.7742,16.7742,-0.709675,1.38834,-2.18567,0.313545,0.109677,0.225794,1,0,3.8675,0.805,-2.03,0.2989,0.134078,-0.788242,-0.06916,0.12404,0.48398
1.75829,0,0,13.2417,13.2417,16.7583,16.7583,-0.703318,1.39177,-2.1895,-0.0371221,0.211031,0.329194,1,0,7.07,2.065,-3.01,-0.053192,0.235216,-0.68564,-0.06916,0.12404,0.48398
1.76195,0,0,13.238,13.238,16.762,16.762,-0.704782,1.39475,-2.19279,-0.0912354,-0.0210349,-0.179815,1,0,2.6775,1.8025,-2.695,-0.107482,0.003416,-1.19072,-0.0651,0.1253,0.48342
1.77923,0,0,13.2208,13.2208,16.7792,16.7792,-0.711692,1.39645,-2.19411,-0.091265,-0.0211554,-0.179817,1,0,-0.4025,1.0325,-1.5575,-0.107482,0.003416,-1.19072,-0.0651,0.1253,0.48342
1.80128,0,0,13.1987,13.1987,16.8013,16.8013,-0.720511,1.3957,-2.19567,0.0597549,0.1228,-0.156335,1,0,-1.47,-0.4025,-1.715,0.044164,0.147376,-1.16742,-0.0651,0.1253,0.48342
1.82333,0,0,13.1767,13.1767,16.8233,16.8233,-0.729331,1.39494,-2.19723,0.059768,0.122646,-0.156337,1,0,-1.47,-0.4025,-1.715,0.044164,0.147376,-1.16742,-0.0651,0.1253,0.48342
1.83568,0,0,13.1643,13.1643,16.8357,16.8357,-0.734271,1.39455,-2.19582,0.0289175,-0.151981,0.155091,1,0,0.665,-0.21,0.0175,0.013176,-0.12688,-0.858392,-0.0651,0.1253,0.48342
1.84803,0,0,13.152,13.152,16.848,16.848,-0.73921,1.39417,-2.19441,0.0289242,-0.152067,0.15509,1,0,0.665,-0.21,0.0175,0.013176,-0.12688,-0.858392,-0.0651,0.1253,0.48342
0.935044,0,0,14.065,14.065,15.935,15.935,-0.374017,1.23057,-1.99612,-0.144497,-0.326077,0.149315,0,0,5.005,-0.1575,1.1375,-0.163846,-0.307074,-0.864248,-0.0651,0.1253,0.48342
1.57425,0,0,13.4257,13.4257,16.5743,16.5743,-0.629701,1.3966,-2.14667,0.142349,0.234909,0.114907,0,0,5.3025,0.14,1.2775,0.127124,0.257786,-0.898286,-0.0651,0.1253,0.48342
2.21259,0,0,12.7874,12.7874,17.2126,17.2126,-0.885037,1.55897,-2.29928,0.139516,0.230456,0.114775,0,0,3.08,-0.6125,1.89,0.127124,0.257786,-0.898286,-0.06552,0.1267,0.48804
2.35917,0,0,12.6408,12.6408,17.3592,17.3592,-0.943667,1.54234,-2.272,-0.0135083,0.0576005,-0.00646045,0,0,3.15,-0.7525,2.1175,-0.02684,0.086132,-1.01858,-0.06552,0.1267,0.48804
2.50801,0,0,12.492,12.492,17.508,17.508,-1.0032,1.52665,-2.24486,-0.0132346,0.0565618,-0.00647077,0,0,2.065,-0.385,2.0125,-0.02684,0.086132,-1.01858,-0.06552,0.1267,0.48804
2.51124,0,0,12.4888,12.4888,17.5112,17.5112,-1.0045,1.52557,-2.24026,-0.140897,-0.372004,-0.0941329,1,0,2.66,-0.6475,1.8725,-0.155062,-0.341966,-1.10556,-0.06552,0.1267,0.48804
2.51081,0,0,12.4892,12.4892,17.5108,17.5108,-1.00432,1.52648,-2.23696,-0.140913,-0.372001,-0.0941333,1,0,3.5,0.525,1.1375,-0.155062,-0.341966,-1.10556,-0.06552,0.1267,0.48804
2.51162,0,0,12.4884,12.4884,17.5116,17.5116,-1.00465,1.52594,-2.23462,0.123935,-0.200296,0.135658,1,0,3.2375,-0.315,0.56,0.110898,-0.170434,-0.877546,-0.06552,0.1267,0.48804
2.50477,0,0,12.4952,12.4952,17.5048,17.5048,-1.00191,1.52479,-2.23443,0.123955,-0.200248,0.135659,1,0,4.9875,-0.6475,-0.7,0.110898,-0.170434,-0.877546,-0.06552,0.1267,0.48804
2.51207,0,0,12.4879,12.4879,17.5121,17.5121,-1.00483,1.52408,-2.23589,-0.0153766,0.10343,0.252951,1,0,1.8375,-0.3675,-1.6625,-0.029036,0.13298,-0.761158,-0.06552,0.1267,0.48804
2.52461,0,0,12.4754,12.4754,17.5246,17.5246,-1.00984,1.52378,-2.23863,-0.0153713,0.103343,0.25295,1,0,0.6825,-0.1225,-2.3975,-0.029036,0.13298,-0.761158,-0.06916,0.12544,0.48804
2.53554,0,0,12.4645,12.4645,17.5355,17.5355,-1.01422,1.52406,-2.24191,0.125183,0.145889,0.561672,1,0,1.05,0.2275,-2.7125,0.112118,0.175558,-0.454816,-0.06916,0.12544,0.48804
2.54704,0,0,12.453,12.453,17.547,17.547,-1.01882,1.52384,-2.24663,0.125187,0.145808,0.561671,1,0,0.945,-0.0525,-3.5525,0.112118,0.175558,-0.454816,-0.06916,0.12544,0.48804
2.34879,0,0,12.6512,12.6512,17.3488,17.3488,-0.939518,1.73841,-2.43088,0.197129,-0.0798403,0.0198767,0,0,3.4125,-0.1225,-3.815,0.188124,-0.05124,-0.992348,-0.06916,0.12544,0.48804
2.14003,0,0,12.86,12.86,17.14,17.14,-0.856013,1.94949,-2.61477,0.193447,-0.0783819,0.019781,0,0,6.5625,0.175,-4.0775,0.188124,-0.05124,-0.992348,-0.06916,0.12544,0.48804
1.44047,0,0,13.5595,13.5595,16.4405,16.4405,-0.57619,2.30367,-2.91609,0.350303,-0.294793,0.0194897,0,0,7.6475,0.9975,-4.025,0.351848,-0.272304,-0.99247,-0.06916,0.12544,0.48804
0.751922,0,0,14.2481,14.2481,15.7519,15.7519,-0.300769,2.65168,-3.21238,0.344235,-0.289988,0.0192639,0,0,7.6475,1.0325,-3.185,0.351848,-0.272304,-0.99247,-0.06916,0.12544,0.48804
1.36758,0,0,13.6324,13.6324,16.3676,16.3676,-0.54703,2.39894,-3.00562,-0.2419,0.253333,0.0234838,0,0,5.7225,1.365,-2.5375,-0.241194,0.274744,-0.988444,-0.06916,0.12544,0.48804
1.99203,0,0,13.008,13.008,16.992,16.992,-0.796814,2.15274,-2.80428,-0.237607,0.248975,0.0236033,0,0,1.4525,1.4,-1.82,-0.241194,0.274744,-0.988444,-0.06874,0.1316,0.48328
2.00458,0,0,12.9954,12.9954,17.0046,17.0046,-0.801831,2.1546,-2.80461,-0.323651,0.00915276,-0.157625,1,0,0.6475,1.12,-0.98,-0.32757,0.035258,-1.16827,-0.06874,0.1316,0.48328
2.02357,0,0,12.9764,12.9764,17.0236,17.0236,-0.809429,2.15595,-2.80467,-0.323675,0.00902027,-0.157628,1,0,-0.805,0.8225,-0.8225,-0.32757,0.035258,-1.16827,-0.06874,0.1316,0.48328
2.04066,0,0,12.9593,12.9593,17.0407,17.0407,-0.816263,2.15623,-2.80267,-0.140115,0.124677,0.134127,1,0,-0.42,0.175,0.3675,-0.143228,0.150914,-0.878766,-0.06874,0.1316,0.48328
2.05774,0,0,12.9423,12.9423,17.0577,17.0577,-0.823097,2.15651,-2.80067,-0.140119,0.124558,0.134125,1,0,-0.42,0.175,0.3675,-0.143228,0.150914,-0.878766,-0.06874,0.1316,0.48328
1.76475,0,0,13.2352,13.2352,16.7648,16.7648,-0.705901,2.09586,-2.7345,-0.0543861,-0.107149,0.0693977,0,0,4.0775,0.4025,1.505,-0.058194,-0.082594,-0.94306,-0.06874,0.1316,0.48328
1.47692,0,0,13.5231,13.5231,16.4769,16.4769,-0.590766,2.03635,-2.66874,-0.0533481,-0.105142,0.0694579,0,0,4.0775,0.4025,1.505,-0.058194,-0.082594,-0.94306,-0.06874,0.1316,0.48328
1.46293,0,0,13.5371,13.5371,16.4629,16.4629,-0.585173,2.03705,-2.66563,0.20832,-0.175511,0.167325,1,0,6.5275,0.42,1.015,0.204594,-0.152988,-0.845948,-0.06874,0.1316,0.48328
1.44895,0,0,13.5511,13.5511,16.4489,16.4489,-0.57958,2.03775,-2.66253,0.208308,-0.175414,0.167326,1,0,6.5275,0.42,1.015,0.204594,-0.152988,-0.845948,-0.06874,0.1316,0.48328
1.4505,0,0,13.5495,13.5495,16.4505,16.4505,-0.580199,2.03638,-2.66033,0.00933799,-0.608608,-0.0994715,1,0,3.0625,-0.7875,0.4725,0.004758,-0.585722,-1.11069,-0.06426,0.13566,0.48776
2.31369,0,0,12.6863,12.6863,17.3137,17.3137,-0.925477,2.21567,-2.86164,0.178478,0.369469,0.00250353,0,0,3.255,-1.0675,-0.105,0.177754,0.397354,-1.00931,-0.06426,0.13566,0.48776
3.16317,0,0,11.8368,11.8368,18.1632,18.1632,-1.26527,2.39178,-3.06474,0.175406,0.363547,0.00226672,0,0,3.255,-1.0675,-0.105,0.177754,0.397354,-1.00931,-0.06426,0.13566,0.48776
3.15728,0,0,11.8427,11.8427,18.1573,18.1573,-1.26291,2.39134,-3.06488,-0.123927,0.154385,-0.167893,1,0,4.7775,-0.2275,-0.8925,-0.122854,0.188368,-1.17815,-0.06426,0.13566,0.48776
3.15139,0,0,11.8486,11.8486,18.1514,18.1514,-1.26056,2.3909,-3.06503,-0.123919,0.154426,-0.167892,1,0,4.7775,-0.2275,-0.8925,-0.122854,0.188368,-1.17815,-0.06426,0.13566,0.48776
2.86666,0,0,12.1333,12.1333,17.8667,17.8667,-1.14667,2.22936,-2.92142,-0.156211,-0.120085,-0.0709757,0,0,3.15,-0.8925,-1.26,-0.158112,-0.08784,-1.08214,-0.06426,0.13566,0.48776
2.8727,0,0,12.1273,12.1273,17.8727,17.8727,-1.14908,2.2288,-2.92304,0.0594358,0.0359504,0.143938,1,0,2.135,-0.28,-1.75,0.058438,0.068076,-0.868884,-0.06426,0.13566,0.48776
2.88293,0,0,12.1171,12.1171,17.8829,17.8829,-1.15317,2.22816,-2.92439,0.059447,0.035879,0.143937,1,0,1.19,-0.3325,-1.5925,0.058438,0.068076,-0.868884,-0.0658,0.13104,0.48566
2.89257,0,0,12.1074,12.1074,17.8926,17.8926,-1.15703,2.22824,-2.92536,0.215798,-0.194153,0.241188,1,0,1.3125,0.0875,-1.365,0.215452,-0.16165,-0.772382,-0.0658,0.13104,0.48566
2.89409,0,0,12.1059,12.1059,17.8941,17.8941,-1.15764,2.22736,-2.92628,0.215813,-0.194163,0.241188,1,0,3.1325,-0.4725,-1.3475,0.215452,-0.16165,-0.772382,-0.0658,0.13104,0.48566
2.88947,0,0,12.1105,12.1105,17.8895,17.8895,-1.15579,2.22735,-2.92743,0.0487702,0.0946985,-0.226139,1,0,4.515,0.035,-1.47,0.047702,0.12688,-1.2361,-0.0658,0.13104,0.48566
2.88055,0,0,12.1194,12.1194,17.8806,17.8806,-1.15222,2.22818,-2.92856,0.0487558,0.0947607,-0.226138,1,0,5.4775,0.525,-1.4525,0.047702,0.12688,-1.2361,-0.0658,0.13104,0.48566
2.87176,0,0,12.1282,12.1282,17.8718,17.8718,-1.1487,2.22832,-2.92936,-0.371466,0.19863,-0.12704,1,0,5.4425,0.1225,-1.26,-0.374296,0.23058,-1.13777,-0.0658,0.13104,0.48566
2.86249,0,0,12.1375,12.1375,17.8625,17.8625,-1.145,2.22811,-2.93008,-0.371462,0.198694,-0.127039,1,0,5.5475,-0.0875,-1.225,-0.374296,0.23058,-1.13777,-0.0658,0.13104,0.48566
2.85935,0,0,12.1406,12.1406,17.8594,17.8594,-1.14374,2.22941,-2.93123,-0.309891,-0.0831522,0.202586,1,0,4.1825,0.805,-1.4525,-0.312442,-0.050996,-0.81069,-0.0658,0.13104,0.48566
2.86745,0,0,12.1326,12.1326,17.8674,17.8674,-1.14698,2.23108,-2.93232,-0.30992,-0.0832086,0.202583,1,0,1.6625,1.015,-1.4175,-0.312442,-0.050996,-0.81069,-0.0658,0.13104,0.48566
2.88049,0,0,12.1195,12.1195,17.8805,17.8805,-1.1522,2.23344,-2.93298,0.0735687,-0.216784,0.181802,1,0,0.5425,1.4175,-1.155,0.072712,-0.184342,-0.831308,-0.06734,0.12642,0.48356
3.02814,0,0,11.9719,11.9719,18.0281,18.0281,-1.21126,2.27987,-2.97939,0.0398363,0.0523311,0.0335956,0,0,1.47,0.5075,-1.1725,0.03965,0.085522,-0.978318,-0.06734,0.12642,0.48356
3.16821,0,0,11.8318,11.8318,18.1682,18.1682,-1.26728,2.32411,-3.02646,0.0390647,0.051355,0.0335434,0,0,2.6075,-0.2625,-1.575,0.03965,0.085522,-0.978318,-0.06734,0.12642,0.48356
3.15775,0,0,11.8422,11.8422,18.1578,18.1578,-1.2631,2.21737,-2.92751,-0.101577,-0.00121039,-0.0601909,0,0,4.305,-0.8925,-1.0675,-0.103456,0.03294,-1.0714,-0.06734,0.12642,0.48356
3.14643,0,0,11.8536,11.8536,18.1464,18.1464,-1.25857,2.11319,-2.82799,-0.0997594,-0.00113295,-0.0601204,0,0,4.5325,-0.56,-0.6475,-0.103456,0.03294,-1.0714,-0.06734,0.12642,0.48356
3.44393,0,0,11.5561,11.5561,18.4439,18.4439,-1.37757,2.03519,-2.76048,-0.0768961,0.133329,-0.0774547,0,0,5.04,0.4025,-0.6125,-0.081862,0.169336,-1.08861,-0.06734,0.12642,0.48356
3.74568,0,0,11.2543,11.2543,18.7457,18.7457,-1.49827,1.95916,-2.69236,-0.0755699,0.131223,-0.0774613,0,0,2.9225,0.7175,-0.4375,-0.081862,0.169336,-1.08861,-0.06734,0.12642,0.48356
3.97389,0,0,11.0261,11.0261,18.9739,18.9739,-1.58956,2.08559,-2.82414,0.110528,0.0840799,0.0698332,0,0,3.92,-0.315,0.21,0.107238,0.12383,-0.942328,-0.06104,0.13342,0.48594
3.85394,0,0,11.1461,11.1461,18.8539,18.8539,-1.54157,1.78067,-2.53643,-0.299149,-0.050649,-0.00496301,0,0,2.73,-0.035,-0.035,-0.309514,-0.01159,-1.01675,-0.06104,0.13342,0.48594
3.73244,0,0,11.2676,11.2676,18.7324,18.7324,-1.49298,1.48047,-2.24909,-0.293911,-0.0498054,-0.00479153,0,0,3.57,-0.4025,0.175,-0.309514,-0.01159,-1.01675,-0.06104,0.13342,0.48594
3.73468,0,0,11.2653,11.2653,18.7347,18.7347,-1.49387,1.47911,-2.24702,0.231417,-0.0551946,-0.340441,1,0,2.9225,-0.805,0.385,0.218014,-0.016958,-1.34981,-0.06104,0.13342,0.48594
3.73691,0,0,11.2631,11.2631,18.7369,18.7369,-1.49476,1.47774,-2.24496,0.231441,-0.0552102,-0.340441,1,0,2.9225,-0.805,0.385,0.218014,-0.016958,-1.34981,-0.06104,0.13342,0.48594
3.27694,0,0,11.7231,11.7231,18.2769,18.2769,-1.31078,1.42327,-2.17803,-0.0521285,-0.186707,-0.0062868,0,0,2.8875,-0.14,0,-0.06771,-0.151524,-1.01833,-0.06104,0.13342,0.48594
2.82487,0,0,12.1751,12.1751,17.8249,17.8249,-1.12995,1.36976,-2.11162,-0.051195,-0.183553,-0.00619685,0,0,2.8875,-0.14,0,-0.06771,-0.151524,-1.01833,-0.06104,0.13342,0.48594
2.83211,0,0,12.1679,12.1679,17.8321,17.8321,-1.13284,1.36871,-2.11089,0.0212288,-0.0311898,0.20552,1,0,1.82,-0.595,-0.385,0.005002,0.000732,-0.80825,-0.06104,0.13342,0.48594
2.83935,0,0,12.1607,12.1607,17.8393,17.8393,-1.13574,1.36766,-2.11016,0.0212471,-0.0312403,0.205519,1,0,1.82,-0.595,-0.385,0.005002,0.000732,-0.80825,-0.0721,0.13132,0.483
2.70021,0,0,12.2998,12.2998,17.7002,17.7002,-1.08008,1.18981,-1.93292,-0.174886,-0.0572607,-0.0586089,0,0,3.7625,-0.1575,-1.4875,-0.195078,-0.02623,-1.07043,-0.0721,0.13132,0.483
2.75606,0,0,12.2439,12.2439,17.7561,17.7561,-1.10242,1.46299,-2.1774,0.252229,0.0218562,0.0385256,0,0,4.3575,0.0875,-1.575,0.238632,0.053192,-0.973926,-0.0721,0.13132,0.483
2.82992,0,0,12.1701,12.1701,17.8299,17.8299,-1.13197,1.73186,-2.42262,0.247538,0.0213433,0.0383847,0,0,0.1575,0.4725,-2.0825,0.238632,0.053192,-0.973926,-0.0721,0.13132,0.483
2.83205,0,0,12.1679,12.1679,17.8321,17.8321,-1.13282,1.73279,-2.4246,0.0303055,0.143455,0.223913,1,0,3.01,0.595,-1.9425,0.020496,0.175192,-0.789828,-0.0721,0.13132,0.483
2.83604,0,0,12.164,12.164,17.836,17.836,-1.13442,1.73262,-2.42643,0.0303085,0.143427,0.223913,1,0,2.59,-0.0525,-1.8725,0.020496,0.175192,-0.789828,-0.0721,0.13132,0.483
2.64696,0,0,12.353,12.353,17.647,17.647,-1.05878,1.43215,-2.14023,-0.294526,-0.0830225,-0.0242732,0,0,1.47,-0.07,-2.1525,-0.310978,-0.052338,-1.03627,-0.0721,0.13132,0.483
2.45716,0,0,12.5428,12.5428,17.4572,17.4572,-0.982866,1.13719,-1.85509,-0.289379,-0.0817,-0.0241342,0,0,2.3975,-0.0175,-2.0825,-0.310978,-0.052338,-1.03627,-0.0721,0.13132,0.483
3.29421,0,0,11.7058,11.7058,18.2942,18.2942,-1.31768,1.48736,-2.19385,0.356524,0.351874,0.0681888,0,0,1.8725,0.665,-1.925,0.343796,0.386618,-0.944402,-0.0644,0.12726,0.49126
3.30106,0,0,11.6989,11.6989,18.3011,18.3011,-1.32042,1.48792,-2.19438,0.101152,-0.072198,0.137653,1,0,1.925,0.3675,-1.1025,0.087352,-0.036966,-0.875472,-0.0644,0.12726,0.49126
3.30865,0,0,11.6914,11.6914,18.3086,18.3086,-1.32346,1.48827,-2.19428,0.101146,-0.0722509,0.137652,1,0,1.75,0.2275,-0.735,0.087352,-0.036966,-0.875472,-0.0644,0.12726,0.49126
3.62734,0,0,11.3727,11.3727,18.6273,18.6273,-1.45094,1.5859,-2.28549,0.0957977,0.126425,0.00476808,0,0,2.5025,-0.77,-0.6825,0.083692,0.163724,-1.00723,-0.0644,0.12726,0.49126
3.9375,0,0,11.0625,11.0625,18.9375,18.9375,-1.575,1.68464,-2.37624,0.094075,0.124263,0.00466177,0,0,3.185,0.8925,-0.2275,0.083692,0.163724,-1.00723,-0.0644,0.12726,0.49126
4.05951,0,0,10.9405,10.9405,19.0595,19.0595,-1.6238,1.88418,-2.56033,0.194707,0.0494061,-0.000634235,0,0,3.535,0.0175,-0.1575,0.188246,0.089792,-1.01236,-0.0644,0.12726,0.49126
4.18499,0,0,10.815,10.815,19.185,19.185,-1.674,2.08113,-2.74401,0.191272,0.0485343,-0.000778299,0,0,2.2925,0.5775,0.1575,0.188246,0.089792,-1.01236,-0.0644,0.12726,0.49126
4.18928,0,0,10.8107,10.8107,19.1893,19.1893,-1.67571,2.08282,-2.74277,-0.233228,-0.299801,-0.129876,1,0,2.4675,0.9975,-0.0525,-0.238022,-0.258152,-1.14046,-0.0644,0.12726,0.49126
4.19356,0,0,10.8064,10.8064,19.1936,19.1936,-1.67742,2.08451,-2.74154,-0.233258,-0.299831,-0.129878,1,0,2.4675,0.9975,-0.0525,-0.238022,-0.258152,-1.14046,-0.0693,0.12712,0.4886
4.07616,0,0,10.9238,10.9238,19.0762,19.0762,-1.63046,2.03846,-2.68916,-0.0445164,-0.0487752,-0.0371224,0,0,2.6425,0.49,-0.245,-0.049288,-0.008174,-1.04847,-0.0693,0.12712,0.4886
3.9608,0,0,11.0392,11.0392,18.9608,18.9608,-1.58432,1.99325,-2.63695,-0.0437277,-0.0479715,-0.0370721,0,0,2.6425,0.49,-0.245,-0.049288,-0.008174,-1.04847,-0.0693,0.12712,0.4886
3.95545,0,0,11.0446,11.0446,18.9554,18.9554,-1.58218,1.79211,-2.44405,-0.183572,-0.00409382,0.0429614,0,0,2.8875,-0.7,-1.0325,-0.193248,0.035624,-0.969168,-0.0693,0.12712,0.4886
3.95028,0,0,11.0497,11.0497,18.9503,18.9503,-1.58011,1.59459,-2.25135,-0.180126,-0.00406058,0.0430642,0,0,2.8875,-0.7,-1.0325,-0.193248,0.035624,-0.969168,-0.0693,0.12712,0.4886
3.95261,0,0,11.0474,11.0474,18.9526,18.9526,-1.58104,1.59425,-2.25312,0.410907,0.0845871,-0.0814829,1,0,2.9575,-0.14,-1.8375,0.400282,0.124196,-1.09275,-0.0693,0.12712,0.4886
3.96057,0,0,11.0394,11.0394,18.9606,18.9606,-1.58423,1.59469,-2.25494,-0.451892,0.110056,-0.124148,1,0,1.6975,0.315,-1.855,-0.466162,0.149694,-1.13509,-0.0693,0.12712,0.4886
3.96999,0,0,11.03,11.03,18.97,18.97,-1.588,1.59311,-2.25656,-0.451864,0.10999,-0.124149,1,0,1.365,-0.875,-1.7675,-0.466162,0.149694,-1.13509,-0.0693,0.12712,0.4886
3.83149,0,0,11.1685,11.1685,18.8315,18.8315,-1.5326,1.37496,-2.04241,-0.190994,-0.055627,0.0939637,0,0,2.135,-0.735,-1.505,-0.20801,-0.016714,-0.918782,-0.06762,0.12992,0.48706
3.68506,0,0,11.3149,11.3149,18.6851,18.6851,-1.47402,1.16276,-1.82861,-0.187292,-0.0546074,0.0940725,0,0,4.4625,0.455,-1.2775,-0.20801,-0.016714,-0.918782,-0.06762,0.12992,0.48706
3.68075,0,0,11.3193,11.3193,18.6807,18.6807,-1.4723,1.16425,-1.82928,-0.117706,-0.000475171,-0.153914,1,0,4.4275,0.91,-1.1725,-0.138104,0.037332,-1.16486,-0.06762,0.12992,0.48706
3.67644,0,0,11.3236,11.3236,18.6764,18.6764,-1.47058,1.16574,-1.82996,-0.117732,-0.000445093,-0.153914,1,0,4.4275,0.91,-1.1725,-0.138104,0.037332,-1.16486,-0.06762,0.12992,0.48706
3.39054,0,0,11.6095,11.6095,18.3905,18.3905,-1.35622,1.32855,-1.96014,0.151676,-0.115935,0.0107013,0,0,3.4475,0.84,-0.21,0.135298,-0.080032,-1.0015,-0.06762,0.12992,0.48706
3.37881,0,0,11.6212,11.6212,18.3788,18.3788,-1.35152,1.27286,-1.89387,-0.050476,-0.00825963,0.0867075,0,0,2.2225,0.42,0.175,-0.068686,0.02745,-0.926102,-0.06762,0.12992,0.48706
3.36909,0,0,11.6309,11.6309,18.3691,18.3691,-1.34764,1.21813,-1.82778,-0.0495211,-0.00819232,0.0867298,0,0,1.82,0.385,0.1225,-0.068686,0.02745,-0.926102,-0.06762,0.12992,0.48706
3.286,0,0,11.714,11.714,18.286,18.286,-1.3144,0.90037,-1.51262,-0.308815,-0.038635,0.0119702,0,0,1.4,-0.105,0.315,-0.334646,-0.003538,-1.0004,-0.06762,0.12992,0.48706
3.2001,0,0,11.7999,11.7999,18.2001,18.2001,-1.28004,0.594638,-1.1962,-0.303479,-0.0380371,0.0120534,0,0,2.45,1.5225,-0.0175,-0.334646,-0.003538,-1.0004,-0.05992,0.12698,0.49098
3.2004,0,0,11.7996,11.7996,18.2004,18.2004,-1.28016,0.595125,-1.19499,0.231414,-0.0352304,-0.293597,1,0,3.3775,0.2975,-0.0875,0.20252,-0.000732,-1.30369,-0.05992,0.12698,0.49098
3.19439,0,0,11.8056,11.8056,18.1944,18.1944,-1.27776,0.594658,-1.19367,0.231422,-0.0351884,-0.293596,1,0,4.795,-0.2625,-0.035,0.20252,-0.000732,-1.30369,-0.05992,0.12698,0.49098
2.97072,0,0,12.0293,12.0293,17.9707,17.9707,-1.18829,0.469028,-1.04374,-0.118816,-0.0844325,0.0346078,0,0,5.425,0.105,-0.5075,-0.151402,-0.051484,-0.978074,-0.05992,0.12698,0.49098
2.75007,0,0,12.2499,12.2499,17.7501,17.7501,-1.10003,0.34557,-0.895076,-0.116661,-0.0828927,0.0346538,0,0,5.6175,0.0875,-0.91,-0.151402,-0.051484,-0.978074,-0.05992,0.12698,0.49098
2.74527,0,0,12.2547,12.2547,17.7453,17.7453,-1.09811,0.346086,-0.895275,-0.219325,-0.0215515,0.273789,1,0,4.5325,0.3325,-0.91,-0.254492,0.00976,-0.740784,-0.05992,0.12698,0.49098
2.7443,0,0,12.2557,12.2557,17.7443,17.7443,-1.09772,0.347088,-0.896593,-0.219343,-0.0215448,0.273789,1,0,3.675,0.63,-1.5575,-0.254492,0.00976,-0.740784,-0.05992,0.12698,0.49098
2.60319,0,0,12.3968,12.3968,17.6032,17.6032,-1.04127,0.243477,-0.768333,-0.106132,-0.0617167,-0.0540867,0,0,2.03,0.245,-2.24,-0.142618,-0.031354,-1.06616,-0.05992,0.12698,0.49098
2.46532,0,0,12.5347,12.5347,17.4653,17.4653,-0.986129,0.139891,-0.644135,-0.104324,-0.0607545,-0.0540636,0,0,1.8375,0.0525,-2.5025,-0.142618,-0.031354,-1.06616,-0.06888,0.13034,0.49168
2.25598,0,0,12.744,12.744,17.256,17.256,-0.902391,0.503209,-0.954936,0.333244,-0.0886031,0.0790781,0,0,1.5575,-0.595,-2.1525,0.30317,-0.060634,-0.934032,-0.06888,0.13034,0.49168
2.04462,0,0,12.9554,12.9554,17.0446,17.0446,-0.817846,0.860898,-1.26417,0.327001,-0.0871266,0.079026,0,0,2.835,-0.1575,-2.0825,0.30317,-0.060634,-0.934032,-0.06888,0.13034,0.49168
2.04168,0,0,12.9583,12.9583,17.0417,17.0417,-0.816673,0.860281,-1.26639,-0.217608,0.067262,0.282014,1,0,4.13,-0.315,-2.1,-0.243756,0.093574,-0.73261,-0.06888,0.13034,0.49168
2.03577,0,0,12.9642,12.9642,17.0358,17.0358,-0.814309,0.860714,-1.26829,-0.217616,0.0673033,0.282015,1,0,4.795,0.2975,-1.9075,-0.243756,0.093574,-0.73261,-0.06888,0.13034,0.49168
2.02819,0,0,12.9718,12.9718,17.0282,17.0282,-0.811277,0.860531,-1.26938,0.218278,-0.0642964,-0.149656,1,0,5.1625,-0.07,-1.435,0.19398,-0.037942,-1.16095,-0.06888,0.13034,0.49168
2.02003,0,0,12.98,12.98,17.02,17.02,-0.808013,0.86042,-1.26956,0.21828,-0.0642395,-0.149656,1,0,5.285,-0.035,-0.91,0.19398,-0.037942,-1.16095,-0.06888,0.13034,0.49168
2.02319,0,0,12.9768,12.9768,17.0232,17.0232,-0.809276,0.861145,-1.26982,0.137722,-0.13363,-0.179287,1,0,2.7475,0.455,-0.945,0.113094,-0.107238,-1.19035,-0.06888,0.13034,0.49168
2.03034,0,0,12.9697,12.9697,17.0303,17.0303,-0.812136,0.861119,-1.26827,0.137723,-0.133679,-0.179287,1,0,1.8375,0,0.105,0.113094,-0.107238,-1.19035,-0.06888,0.13034,0.49168
1.8494,0,0,13.1506,13.1506,16.8494,16.8494,-0.739758,1.15455,-1.51424,0.262106,-0.0778246,0.0833805,0,0,0.07,-0.07,0.49,0.243146,-0.052704,-0.92964,-0.06496,0.1267,0.4865
1.66617,0,0,13.3338,13.3338,16.6662,16.6662,-0.666466,1.44297,-1.75947,0.257073,-0.0765445,0.0832821,0,0,1.2775,0.07,0.2975,0.243146,-0.052704,-0.92964,-0.06496,0.1267,0.4865
1.67054,0,0,13.3295,13.3295,16.6705,16.6705,-0.668214,1.44357,-1.7578,-0.0767799,-0.123349,-0.107412,1,0,2.45,0.3675,0.175,-0.09211,-0.09943,-1.11886,-0.06496,0.1267,0.4865
1.6689,0,0,13.3311,13.3311,16.6689,16.6689,-0.667561,1.44268,-1.75498,-0.0767645,-0.123338,-0.107411,1,0,3.78,-0.5075,0.84,-0.09211,-0.09943,-1.11886,-0.06496,0.1267,0.4865
1.66181,0,0,13.3382,13.3382,16.6618,16.6618,-0.664722,1.44342,-1.75215,0.057343,0.0163023,-0.117001,1,0,5.005,0.4375,0.8575,0.042578,0.040016,-1.12838,-0.06496,0.1267,0.4865
1.654,0,0,13.346,13.346,16.654,16.654,-0.661601,1.44279,-1.7505,0.0573539,0.0163567,-0.117,1,0,5.18,-0.35,0.1575,0.042578,0.040016,-1.12838,-0.06496,0.1267,0.4865
0.856853,0,0,14.1431,14.1431,15.8569,15.8569,-0.342741,1.30714,-1.59652,-0.122508,-0.289504,0.141175,0,0,5.2675,0.2975,-4.1825,-0.140422,-0.271084,-0.8723,-0.06496,0.1267,0.4865
0.0792775,0,0,14.9207,14.9207,15.0793,15.0793,-0.031711,1.17513,-1.4381,-0.120204,-0.284077,0.141242,0,0,3.71,1.0675,-0.5075,-0.140422,-0.271084,-0.8723,-0.06496,0.1267,0.4865
0.0841245,0,0,14.9159,14.9159,15.0841,15.0841,-0.0336498,1.17568,-1.43775,0.00200074,-0.0937148,0.112718,1,0,2.3625,0.35,-0.595,-0.01769,-0.080886,-0.900604,-0.06762,0.12348,0.48258
0.0938359,0,0,14.9062,14.9062,15.0938,15.0938,-0.0375343,1.1756,-1.4379,0.110975,1.07211e-05,0.315337,1,0,1.2775,-0.0175,-0.8925,0.091744,0.01281,-0.699548,-0.06762,0.12348,0.48258
0.106207,0,0,14.8938,14.8938,15.1062,15.1062,-0.0424828,1.17594,-1.43971,0.110969,-7.56274e-05,0.315337,1,0,0.7,0.2275,-1.855,0.091744,0.01281,-0.699548,-0.06762,0.12348,0.48258
0.111218,0,0,14.8888,14.8888,15.1112,15.1112,-0.0444873,1.2796,-1.51235,0.0930025,-0.00133184,0.0207135,0,0,1.785,0.8225,-1.82,0.075518,0.01159,-0.99186,-0.06762,0.12348,0.48258
0.108916,0,0,14.8911,14.8911,15.1089,15.1089,-0.0435664,1.38034,-1.58504,0.0912446,-0.00131574,0.0206727,0,0,3.4125,0.245,-1.925,0.075518,0.01159,-0.99186,-0.06762,0.12348,0.48258
0.106542,0,0,14.8935,14.8935,15.1065,15.1065,-0.0426168,1.38023,-1.58664,0.0111874,0.187387,0.121613,1,0,4.0075,-0.035,-1.7325,-0.00488,0.20008,-0.891698,-0.06762,0.12348,0.48258
0.0971575,0,0,14.9028,14.9028,15.0972,15.0972,-0.038863,1.38102,-1.58845,0.0111737,0.187452,0.121613,1,0,5.5825,0.49,-1.855,-0.00488,0.20008,-0.891698,-0.06762,0.12348,0.48258
-0.378105,0,0,15.3781,15.3781,14.6219,14.6219,0.151242,1.4216,-1.59359,0.0279596,-0.171337,0.107331,0,0,5.1275,0.5425,-1.4175,0.012688,-0.16165,-0.90585,-0.06762,0.12348,0.48258
-0.838251,0,0,15.8383,15.8383,14.1617,14.1617,0.3353,1.46058,-1.60212,0.0272795,-0.168125,0.1073,0,0,3.5175,0.595,-1.1375,0.012688,-0.16165,-0.90585,-0.06482,0.12586,0.48132
-0.834451,0,0,15.8345,15.8345,14.1655,14.1655,0.33378,1.46074,-1.60255,-0.237441,-0.0945095,0.134226,1,0,2.6075,0.1225,-1.05,-0.25315,-0.088084,-0.879132,-0.06482,0.12586,0.48132
-0.822868,0,0,15.8229,15.8229,14.1771,14.1771,0.329147,1.46287,-1.60267,-0.237478,-0.0945903,0.134225,1,0,0.8575,1.2775,-0.875,-0.25315,-0.088084,-0.879132,-0.06482,0.12586,0.48132
-0.511882,0,0,15.5119,15.5119,14.4881,14.4881,0.204753,1.39264,-1.53018,-0.0636213,0.116473,0.0389807,0,0,0.5775,0.6475,-0.7,-0.079788,0.124928,-0.973682,-0.06482,0.12586,0.48132
-0.210914,0,0,15.2109,15.2109,14.7891,14.7891,0.0843658,1.32458,-1.45651,-0.0624337,0.114372,0.0390142,0,0,1.6275,1.155,-0.1575,-0.079788,0.124928,-0.973682,-0.06482,0.12586,0.48132
-0.20594,0,0,15.2059,15.2059,14.7941,14.7941,0.0823759,1.32456,-1.45571,0.436508,-0.047114,-0.0504923,1,0,2.3275,0.0175,-0.3325,0.421266,-0.036356,-1.0625,-0.06482,0.12586,0.48132
-0.206124,0,0,15.2061,15.2061,14.7939,14.7939,0.0824496,1.32469,-1.45476,0.436506,-0.0471128,-0.0504923,1,0,3.4825,0.105,-0.245,0.421266,-0.036356,-1.0625,-0.06482,0.12586,0.48132
-0.211864,0,0,15.2119,15.2119,14.7881,14.7881,0.0847456,1.32345,-1.45354,0.272401,-0.0409664,-0.160654,1,0,4.725,-0.7,-0.0875,0.256444,-0.030256,-1.17181,-0.06482,0.12586,0.48132
-0.219106,0,0,15.2191,15.2191,14.7809,14.7809,0.0876423,1.32247,-1.45199,0.272418,-0.0409158,-0.160653,1,0,5.0575,-0.5425,0.105,0.256444,-0.030256,-1.17181,-0.0637,0.12348,0.4879
-0.225618,0,0,15.2256,15.2256,14.7744,14.7744,0.0902471,1.32218,-1.45092,-0.239518,-0.431187,-0.131269,1,0,4.9,-0.14,-0.175,-0.257664,-0.420168,-1.14265,-0.0637,0.12348,0.4879
-0.225379,0,0,15.2254,15.2254,14.7746,14.7746,0.0901514,1.3204,-1.45054,-0.239487,-0.431189,-0.131268,1,0,3.395,-1.015,-0.5775,-0.257664,-0.420168,-1.14265,-0.0637,0.12348,0.4879
-0.533807,0,0,15.5338,15.5338,14.4662,14.4662,0.213523,1.13563,-1.25268,-0.1624,-0.118102,0.101414,0,0,0.945,0.0875,-0.875,-0.183488,-0.109556,-0.911828,-0.0637,0.12348,0.4879
-0.840731,0,0,15.8407,15.8407,14.1593,14.1593,0.336292,0.952763,-1.05655,-0.159208,-0.115959,0.101462,0,0,1.8025,-0.7525,-1.19,-0.183488,-0.109556,-0.911828,-0.0637,0.12348,0.4879
0.240417,0,0,14.7596,14.7596,15.2404,15.2404,-0.0961668,1.10945,-1.2046,0.159994,0.447559,0.0872894,0,0,1.54,0.0875,-1.26,0.139812,0.460916,-0.925858,-0.0637,0.12348,0.4879
1.30584,0,0,13.6942,13.6942,16.3058,16.3058,-0.522335,1.26353,-1.35528,0.157306,0.440123,0.0871936,0,0,1.4175,0.0175,-1.6975,0.139812,0.460916,-0.925858,-0.0637,0.12348,0.4879
1.31076,0,0,13.6892,13.6892,16.3108,16.3108,-0.524304,1.26375,-1.35634,0.253276,-0.027901,0.307886,1,0,2.3625,0.1575,-1.4175,0.236192,-0.006588,-0.706868,-0.0637,0.12348,0.4879
1.30712,0,0,13.6929,13.6929,16.3071,16.3071,-0.522849,1.26261,-1.35778,0.253296,-0.0278756,0.307886,1,0,4.2875,-0.63,-1.645,0.236192,-0.006588,-0.706868,-0.06412,0.12824,0.48286
1.30228,0,0,13.6977,13.6977,16.3023,16.3023,-0.520913,1.2616,-1.35871,-0.178568,-0.0939124,0.131825,1,0,4.55,-0.56,-1.3475,-0.197518,-0.07259,-0.881572,-0.06412,0.12824,0.48286
1.29434,0,0,13.7057,13.7057,16.2943,16.2943,-0.517735,1.26231,-1.35986,-0.178581,-0.0938569,0.131825,1,0,5.25,0.455,-1.47,-0.197518,-0.07259,-0.881572,-0.06412,0.12824,0.48286
1.61693,0,0,13.3831,13.3831,16.6169,16.6169,-0.646773,1.19101,-1.28835,-0.0694574,0.14387,-0.073741,0,0,4.1475,-0.21,-1.2425,-0.089182,0.16714,-1.08556,-0.06412,0.12824,0.48286
1.9386,0,0,13.0614,13.0614,16.9386,16.9386,-0.775439,1.12204,-1.2166,-0.0682539,0.141625,-0.0737446,0,0,3.1325,0.4025,-1.26,-0.089182,0.16714,-1.08556,-0.06412,0.12824,0.48286
2.29481,0,0,12.7052,12.7052,17.2948,17.2948,-0.917922,1.07516,-1.16463,-0.040952,0.130101,0.0898788,0,0,2.6775,0.1225,-0.8225,-0.062586,0.158112,-0.923174,-0.06412,0.12824,0.48286
2.65037,0,0,12.3496,12.3496,17.6504,17.6504,-1.06015,1.03196,-1.11235,-0.0401981,0.12762,0.0898498,0,0,1.47,1.7675,-0.7525,-0.062586,0.158112,-0.923174,-0.06412,0.12824,0.48286
2.67764,0,0,12.3224,12.3224,17.6776,17.6776,-1.07106,1.32801,-1.37231,0.295403,0.00762494,-0.00443868,0,0,1.89,1.3125,-0.4375,0.279624,0.03843,-1.01663,-0.06412,0.12824,0.48286
2.70015,0,0,12.2999,12.2999,17.7001,17.7001,-1.08006,1.6181,-1.62652,0.290342,0.00747033,-0.00457176,0,0,2.87,0.875,-0.0175,0.279624,0.03843,-1.01663,-0.06426,0.12488,0.48272
2.49256,0,0,12.5074,12.5074,17.4926,17.4926,-0.997026,1.65089,-1.63809,0.0255386,-0.0792565,0.0781825,0,0,3.36,0.175,-0.28,0.014274,-0.049654,-0.93452,-0.06426,0.12488,0.48272
2.28427,0,0,12.7157,12.7157,17.2843,17.2843,-0.913709,1.68372,-1.64933,0.0249658,-0.0778029,0.0781901,0,0,4.305,0.56,-0.105,0.014274,-0.049654,-0.93452,-0.06426,0.12488,0.48272
2.27407,0,0,12.7259,12.7259,17.2741,17.2741,-0.909627,1.68348,-1.64813,-0.390025,-0.193508,-0.237295,1,0,5.7225,-0.1225,-0.105,-0.402478,-0.16531,-1.24757,-0.06426,0.12488,0.48272
2.26875,0,0,12.7312,12.7312,17.2688,17.2688,-0.9075,1.68319,-1.64658,-0.39002,-0.193471,-0.237294,1,0,4.62,-0.1575,0.105,-0.402478,-0.16531,-1.24757,-0.06426,0.12488,0.48272
2.26457,0,0,12.7354,12.7354,17.2646,17.2646,-0.905829,1.68327,-1.64563,0.204529,-0.0209986,-0.251064,1,0,4.375,0.07,-0.245,0.19459,0.006954,-1.26124,-0.06426,0.12488,0.48272
2.26926,0,0,12.7307,12.7307,17.2693,17.2693,-0.907703,1.68308,-1.6453,0.204533,-0.0210313,-0.251064,1,0,2.3975,-0.0875,-0.6125,0.19459,0.006954,-1.26124,-0.06426,0.12488,0.48272
1.88138,0,0,13.1186,13.1186,16.8814,16.8814,-0.752552,2.09147,-2.00531,0.366639,-0.157424,0.13861,0,0,2.135,0.49,-0.665,0.364536,-0.132004,-0.874374,-0.06426,0.12488,0.48272
1.49846,0,0,13.5015,13.5015,16.4985,16.4985,-0.599385,2.49183,-2.36304,0.359656,-0.15475,0.138362,0,0,2.3975,-0.175,-0.8575,0.364536,-0.132004,-0.874374,-0.06426,0.12488,0.48272
1.50448,0,0,13.4955,13.4955,16.5045,16.5045,-0.60179,2.49172,-2.36356,0.0116019,0.0443969,0.301269,1,0,2.1175,-0.035,-1.1025,0.015006,0.066978,-0.712724,-0.06314,0.12978,0.48342
2.65602,0,0,12.344,12.344,17.656,17.656,-1.06241,2.22966,-2.15965,-0.264582,0.47321,0.137081,0,0,3.325,-0.28,-1.4175,-0.266936,0.503372,-0.875716,-0.06314,0.12978,0.48342
3.78775,0,0,11.2123,11.2123,18.7877,18.7877,-1.5151,1.96997,-1.95162,-0.260052,0.465313,0.13707,0,0,3.9725,-1.0675,-1.365,-0.266936,0.503372,-0.875716,-0.06314,0.12978,0.48342
3.99894,0,0,11.0011,11.0011,18.9989,18.9989,-1.59957,2.06849,-2.05441,0.0915097,0.0847599,0.0438971,0,0,5.25,-0.5425,-1.785,0.08784,0.124684,-0.96807,-0.06314,0.12978,0.48342
4.21024,0,0,10.7898,10.7898,19.2102,19.2102,-1.6841,2.16644,-2.15786,0.0898013,0.0832881,0.0437917,0,0,4.445,0.1575,-2.065,0.08784,0.124684,-0.96807,-0.06314,0.12978,0.48342
4.55347,0,0,10.4465,10.4465,19.5535,19.5535,-1.82139,2.47322,-2.46503,0.294743,0.137446,0.0691981,0,0,4.1475,0.14,-1.4875,0.299022,0.18117,-0.942572,-0.06314,0.12978,0.48342
4.89128,0,0,10.1087,10.1087,19.8913,19.8913,-1.95651,2.77429,-2.77348,0.289494,0.1351,0.06888,0,0,4.2,-0.175,-1.6275,0.299022,0.18117,-0.942572,-0.06314,0.12978,0.48342
5.46724,0,0,9.53276,9.53276,20.4672,20.4672,-2.1869,2.49644,-2.53047,-0.263038,0.221207,0.102768,0,0,4.0775,0.2275,-1.855,-0.260714,0.271206,-0.909022,-0.06678,0.11984,0.48146
5.60475,0,0,9.39525,9.39525,20.6048,20.6048,-2.2419,2.33098,-2.37069,-0.163086,0.0548843,0.0103957,0,0,3.1325,1.2425,-1.4,-0.163236,0.106018,-1.00077,-0.06678,0.11984,0.48146
5.74229,0,0,9.25771,9.25771,20.7423,20.7423,-2.29692,2.1677,-2.20961,-0.160238,0.0539212,0.0104694,0,0,2.59,0.805,-0.7875,-0.163236,0.106018,-1.00077,-0.06678,0.11984,0.48146
5.74641,0,0,9.25359,9.25359,20.7464,20.7464,-2.29856,2.16923,-2.20917,0.202127,-0.00717087,0.219111,1,0,2.52,0.91,-0.5075,0.20069,0.045018,-0.793732,-0.06678,0.11984,0.48146
5.74586,0,0,9.25414,9.25414,20.7459,20.7459,-2.29835,2.16952,-2.20889,0.202122,-0.00716706,0.219111,1,0,3.57,0.1925,-0.63,0.20069,0.045018,-0.793732,-0.06678,0.11984,0.48146
5.74767,0,0,9.25233,9.25233,20.7477,20.7477,-2.29907,2.16966,-2.20788,0.174907,-0.247037,0.249601,1,0,3.0275,0.0875,-0.21,0.173362,-0.19459,-0.763476,-0.06678,0.11984,0.48146
5.74947,0,0,9.25053,9.25053,20.7495,20.7495,-2.29979,2.1698,-2.20688,0.174904,-0.247049,0.249601,1,0,3.0275,0.0875,-0.21,0.173362,-0.19459,-0.763476,-0.06678,0.11984,0.48146
5.74354,0,0,9.25646,9.25646,20.7435,20.7435,-2.29742,2.16932,-2.20579,-0.0506863,0.0772387,0.157883,1,0,4.76,-0.28,-0.175,-0.053192,0.12932,-0.854488,-0.06678,0.11984,0.48146
5.73762,0,0,9.26238,9.26238,20.7376,20.7376,-2.29505,2.16884,-2.20469,-0.0506779,0.07728,0.157885,1,0,4.76,-0.28,-0.175,-0.053192,0.12932,-0.854488,-0.06426,0.12628,0.48328
5.7313,0,0,9.2687,9.2687,20.7313,20.7313,-2.29252,2.16868,-2.20361,0.0678948,-0.085593,-0.128829,1,0,4.8475,-0.0875,-0.175,0.06588,-0.033428,-1.13899,-0.06426,0.12628,0.48328
5.72498,0,0,9.27502,9.27502,20.725,20.725,-2.28999,2.16853,-2.20254,0.0678975,-0.085549,-0.128827,1,0,4.8475,-0.0875,-0.175,0.06588,-0.033428,-1.13899,-0.06426,0.12628,0.48328
5.72921,0,0,9.27079,9.27079,20.7292,20.7292,-2.29168,2.1686,-2.20243,0.33152,0.121671,-0.261244,1,0,2.5025,0.07,-0.735,0.33062,0.173606,-1.27039,-0.06426,0.12628,0.48328
5.73344,0,0,9.26656,9.26656,20.7334,20.7334,-2.29338,2.16868,-2.20232,0.331519,0.121641,-0.261245,1,0,2.5025,0.07,-0.735,0.33062,0.173606,-1.27039,-0.06426,0.12628,0.48328
5.59089,0,0,9.40911,9.40911,20.5909,20.5909,-2.23635,2.2118,-2.23899,0.0501349,-0.0621418,-0.0951309,0,0,2.4325,-0.07,-1.1025,0.0488,-0.01098,-1.10556,-0.06426,0.12628,0.48328
5.45074,0,0,9.54926,9.54926,20.4507,20.4507,-2.18029,2.25415,-2.27557,0.0493962,-0.0611637,-0.0951221,0,0,2.4325,-0.07,-1.1025,0.0488,-0.01098,-1.10556,-0.06426,0.12628,0.48328
5.28162,0,0,9.71838,9.71838,20.2816,20.2816,-2.11265,2.05074,-2.07769,-0.192093,-0.0684165,0.0551755,0,0,3.2375,0,-1.82,-0.197274,-0.019398,-0.956602,-0.06426,0.12628,0.48328
5.27983,0,0,9.72017,9.72017,20.2798,20.2798,-2.11193,2.05066,-2.07922,0.193261,0.243874,-0.052281,1,0,3.885,0.0175,-1.6975,0.18971,0.292556,-1.06323,-0.06734,0.12376,0.48776
4.30065,0,0,10.6993,10.6993,19.3007,19.3007,-1.72026,2.15202,-2.14083,0.0960057,-0.406338,0.061487,0,0,4.9525,-0.315,-1.68,0.093818,-0.363804,-0.950502,-0.06734,0.12376,0.48776
3.33728,0,0,11.6627,11.6627,18.3373,18.3373,-1.33491,2.25281,-2.20188,0.0942479,-0.399618,0.0615986,0,0,4.795,0.42,-1.96,0.093818,-0.363804,-0.950502,-0.06734,0.12376,0.48776
2.24552,0,0,12.7545,12.7545,17.2455,17.2455,-0.898209,2.37928,-2.28238,0.113302,-0.442196,0.119567,0,0,4.0075,0.4375,-1.645,0.115168,-0.413946,-0.89304,-0.06734,0.12376,0.48776
1.17282,0,0,13.8272,13.8272,16.1728,16.1728,-0.469128,2.50505,-2.359,0.111109,-0.434714,0.119562,0,0,3.325,1.3125,-0.2975,0.115168,-0.413946,-0.89304,-0.06734,0.12376,0.48776
0.995001,0,0,14.005,14.005,15.995,15.995,-0.398,2.86331,-2.68184,0.342732,-0.0801587,0.0589112,0,0,1.5575,1.015,-0.63,0.354044,-0.061,-0.952942,-0.06734,0.12376,0.48776
0.819034,0,0,14.181,14.181,15.819,15.819,-0.327613,3.21333,-3.00332,0.336632,-0.0789299,0.0585951,0,0,1.8025,-0.175,-0.6475,0.354044,-0.061,-0.952942,-0.06734,0.12376,0.48776
0.825444,0,0,14.1746,14.1746,15.8254,15.8254,-0.330178,3.21126,-3.00265,0.0283373,-0.100713,-0.284184,1,0,1.995,-1.19,-0.42,0.044408,-0.082716,-1.29308,-0.06734,0.12376,0.48776
0.82625,0,0,14.1737,14.1737,15.8263,15.8263,-0.3305,3.20973,-3.00097,0.028364,-0.100719,-0.284182,1,0,3.22,-0.875,0.175,0.044408,-0.082716,-1.29308,-0.06622,0.12642,0.48314
0.82095,0,0,14.179,14.179,15.821,15.821,-0.32838,3.20855,-2.99971,-0.187253,0.124642,-0.312213,1,0,4.6025,-0.665,-0.07,-0.172142,0.142374,-1.32089,-0.06622,0.12642,0.48314
0.815958,0,0,14.184,14.184,15.816,15.816,-0.326383,3.20881,-2.99786,-0.187257,0.124677,-0.312213,1,0,4.515,0.175,0.28,-0.172142,0.142374,-1.32089,-0.06622,0.12642,0.48314
0.810275,0,0,14.1897,14.1897,15.8103,15.8103,-0.32411,3.21009,-2.99553,0.198438,0.029946,-0.0872183,1,0,4.655,0.77,0.56,0.215208,0.047702,-1.09763,-0.06622,0.12642,0.48314
0.808805,0,0,14.1912,14.1912,15.8088,15.8088,-0.323522,3.21196,-2.99432,0.198405,0.0299563,-0.08722,1,0,3.745,1.12,-0.0875,0.215208,0.047702,-1.09763,-0.06622,0.12642,0.48314
0.811612,0,0,14.1884,14.1884,15.8116,15.8116,-0.324645,3.21317,-2.99355,-0.112255,0.0829397,0.211052,1,0,2.8,0.735,-0.35,-0.096746,0.10065,-0.801662,-0.06622,0.12642,0.48314
0.815639,0,0,14.1844,14.1844,15.8156,15.8156,-0.326256,3.21346,-2.99314,-0.11226,0.0829117,0.211051,1,0,2.5375,0.1925,-0.56,-0.096746,0.10065,-0.801662,-0.06622,0.12642,0.48314
1.25841,0,0,13.7416,13.7416,16.2584,16.2584,-0.503365,3.18724,-2.99989,-0.0302863,0.163482,0.0984337,0,0,2.7825,-0.5075,-1.085,-0.014884,0.18422,-0.913414,-0.06622,0.12642,0.48314
1.69992,0,0,13.3001,13.3001,16.6999,16.6999,-0.679966,3.16301,-3.01094,-0.0298639,0.160404,0.0984253,0,0,1.4525,0.0875,-1.6975,-0.014884,0.18422,-0.913414,-0.0686,0.12922,0.48832
1.08045,0,0,13.9195,13.9195,16.0805,16.0805,-0.432181,3.06977,-2.91465,-0.0931124,-0.264798,-0.00287683,0,0,1.5575,3.99,-1.8025,-0.080032,-0.244854,-1.01406,-0.0686,0.12922,0.48832
0.471215,0,0,14.5288,14.5288,15.4712,15.4712,-0.188486,2.97822,-2.81945,-0.0915169,-0.260551,-0.00276954,0,0,1.5575,3.99,-1.8025,-0.080032,-0.244854,-1.01406,-0.0686,0.12922,0.48832
0.475227,0,0,14.5248,14.5248,15.4752,15.4752,-0.190091,2.97912,-2.8225,0.0525495,-0.128804,-0.241782,1,0,2.6425,0.56,-2.5725,0.06466,-0.113216,-1.25123,-0.0686,0.12922,0.48832
0.47924,0,0,14.5208,14.5208,15.4792,15.4792,-0.191696,2.98002,-2.82554,0.0525339,-0.128832,-0.241783,1,0,2.6425,0.56,-2.5725,0.06466,-0.113216,-1.25123,-0.0686,0.12922,0.48832
0.064763,0,0,14.9352,14.9352,15.0648,15.0648,-0.0259052,3.04248,-2.88238,0.0583699,-0.168199,0.0275451,0,0,3.4125,0.9625,-1.6975,0.071614,-0.155428,-0.98393,-0.0686,0.12922,0.48832
0.544375,0,0,14.4556,14.4556,15.5444,15.5444,-0.21775,3.08992,-2.95579,0.0421144,0.204486,-0.0221774,0,0,3.395,1.3825,-1.54,0.05612,0.22021,-1.03322,-0.0686,0.12922,0.48832
1.01757,0,0,13.9824,13.9824,16.0176,16.0176,-0.407028,3.13605,-3.02872,0.0413104,0.201188,-0.0222392,0,0,3.045,1.155,-1.19,0.05612,0.22021,-1.03322,-0.0686,0.12922,0.48832
1.05149,0,0,13.9485,13.9485,16.0515,16.0515,-0.420594,3.01828,-2.93584,-0.112503,0.0125091,0.0140163,0,0,2.6775,0.77,-0.7525,-0.100406,0.031964,-0.99735,-0.0686,0.12922,0.48832
1.08837,0,0,13.9116,13.9116,16.0884,16.0884,-0.435348,2.90017,-2.84282,-0.110444,0.0122511,0.0141208,0,0,1.82,-0.3325,0.3675,-0.100406,0.031964,-0.99735,-0.07182,0.13104,0.48272
1.40566,0,0,13.5943,13.5943,16.4057,16.4057,-0.562263,2.86657,-2.83556,-0.0342947,0.116167,0.0908509,0,0,2.2925,-0.91,0.4725,-0.024522,0.137982,-0.921222,-0.07182,0.13104,0.48272
1.71853,0,0,13.2815,13.2815,16.7185,16.7185,-0.687414,2.83622,-2.82796,-0.0337656,0.113985,0.0908535,0,0,2.0825,0.665,0.5775,-0.024522,0.137982,-0.921222,-0.07182,0.13104,0.48272
1.7229,0,0,13.2771,13.2771,16.7229,16.7229,-0.689159,2.83698,-2.82516,-0.0298914,-0.618684,-0.120742,1,0,2.3975,0.455,0.84,-0.020618,-0.593896,-1.13118,-0.07182,0.13104,0.48272
1.71944,0,0,13.2806,13.2806,16.7194,16.7194,-0.687775,2.8387,-2.82222,-0.0299213,-0.61866,-0.120743,1,0,4.1475,1.015,0.9275,-0.020618,-0.593896,-1.13118,-0.07182,0.13104,0.48272
1.72494,0,0,13.2751,13.2751,16.7249,16.7249,-0.689977,2.83926,-2.8192,0.19506,-0.161822,-0.0644336,1,0,2.135,0.3325,0.9625,0.205326,-0.137494,-1.07531,-0.07182,0.13104,0.48272
1.72026,0,0,13.2797,13.2797,16.7203,16.7203,-0.688105,2.83879,-2.81647,0.195069,-0.161789,-0.0644328,1,0,4.4275,-0.2625,0.7875,0.205326,-0.137494,-1.07531,-0.07182,0.13104,0.48272
1.72225,0,0,13.2777,13.2777,16.7223,16.7223,-0.688901,2.83799,-2.81467,0.381199,-0.0343027,-0.412377,1,0,2.9575,-0.455,0.245,0.39223,-0.010126,-1.42057,-0.07182,0.13104,0.48272
1.72373,0,0,13.2763,13.2763,16.7237,16.7237,-0.68949,2.83586,-2.81375,0.381236,-0.034313,-0.412375,1,0,3.0975,-1.225,-0.28,0.39223,-0.010126,-1.42057,-0.0602,0.1253,0.48552
1.72866,0,0,13.2713,13.2713,16.7287,16.7287,-0.691465,2.83399,-2.81371,0.262212,-0.20105,-0.425652,1,0,2.345,-1.0675,-0.7875,0.27267,-0.176656,-1.43374,-0.0602,0.1253,0.48552
1.74209,0,0,13.2579,13.2579,16.7421,16.7421,-0.696835,2.83255,-2.81541,0.262237,-0.201144,-0.425652,1,0,0.49,-0.805,-1.8025,0.27267,-0.176656,-1.43374,-0.0602,0.1253,0.48552
1.64793,0,0,13.3521,13.3521,16.6479,16.6479,-0.65917,2.70918,-2.70544,-0.11817,-0.042701,0.0163368,0,0,0.91,0.2275,-1.96,-0.111508,-0.019032,-0.995276,-0.0602,0.1253,0.48552
1.55354,0,0,13.4465,13.4465,16.5535,16.5535,-0.621415,2.58818,-2.59725,-0.116061,-0.0420439,0.0164417,0,0,1.365,0.3325,-2.8175,-0.111508,-0.019032,-0.995276,-0.0602,0.1253,0.48552
1.54921,0,0,13.4508,13.4508,16.5492,16.5492,-0.619686,2.49726,-2.51775,-0.088356,-0.00391093,0.0229058,0,0,2.38,1.015,-2.9225,-0.085278,0.019032,-0.988932,-0.0602,0.1253,0.48552
1.53921,0,0,13.4608,13.4608,16.5392,16.5392,-0.615686,2.40669,-2.43771,-0.0867766,-0.00384191,0.0229742,0,0,3.6575,0.2625,-2.555,-0.085278,0.019032,-0.988932,-0.0602,0.1253,0.48552
1.71056,0,0,13.2894,13.2894,16.7106,16.7106,-0.684224,2.48298,-2.5191,0.0731046,0.0728805,0.00778114,0,0,5.0575,0.1575,-2.485,0.076616,0.096868,-1.00394,-0.0602,0.1253,0.48552
1.88264,0,0,13.1174,13.1174,16.8826,16.8826,-0.753057,2.56007,-2.59709,0.0717604,0.0716812,0.00770689,0,0,4.2525,1.3825,-2.415,0.076616,0.096868,-1.00394,-0.06286,0.12348,0.4816
1.8762,0,0,13.1238,13.1238,16.8762,16.8762,-0.750478,2.56215,-2.59851,0.0155977,-0.183397,-0.1343,1,0,4.935,1.26,-1.61,0.020252,-0.15799,-1.14485,-0.06286,0.12348,0.4816
1.88471,0,0,13.1153,13.1153,16.8847,16.8847,-0.753886,2.56177,-2.59909,0.0156044,-0.183456,-0.1343,1,0,1.5575,-0.1925,-1.1375,0.020252,-0.15799,-1.14485,-0.06286,0.12348,0.4816
1.78427,0,0,13.2157,13.2157,16.7843,16.7843,-0.713708,2.35583,-2.40312,-0.209076,-0.0478074,-0.0555729,0,0,1.085,-0.4375,-0.5775,-0.208986,-0.02318,-1.06689,-0.06286,0.12348,0.4816
1.68563,0,0,13.3144,13.3144,16.6856,16.6856,-0.67425,2.15352,-2.20768,-0.205548,-0.047121,-0.0554256,0,0,1.085,-0.4375,-0.5775,-0.208986,-0.02318,-1.06689,-0.06286,0.12348,0.4816
1.6943,0,0,13.3057,13.3057,16.6943,16.6943,-0.677719,2.15418,-2.20583,0.192671,0.182173,0.213585,1,0,1.47,0.4025,0.28,0.19093,0.205936,-0.799954,-0.06286,0.12348,0.4816
1.70297,0,0,13.297,13.297,16.703,16.703,-0.681187,2.15484,-2.20399,0.192659,0.182112,0.213583,1,0,1.47,0.4025,0.28,0.19093,0.205936,-0.799954,-0.06286,0.12348,0.4816
1.69936,0,0,13.3006,13.3006,16.6994,16.6994,-0.679743,2.15662,-2.20099,-0.048278,0.0353409,0.154567,1,0,4.2,1.05,0.9625,-0.050996,0.059292,-0.858514,-0.06286,0.12348,0.4816
1.69575,0,0,13.3043,13.3043,16.6957,16.6957,-0.678299,2.1584,-2.19799,-0.0483091,0.0353661,0.154566,1,0,4.2,1.05,0.9625,-0.050996,0.059292,-0.858514,-0.06216,0.12628,0.4767
2.43899,0,0,12.561,12.561,17.439,17.439,-0.975598,2.09199,-2.16057,-0.0578416,0.284449,0.126625,0,0,5.88,-3.92,0.455,-0.061732,0.313296,-0.886208,-0.06216,0.12628,0.4767
3.17037,0,0,11.8296,11.8296,18.1704,18.1704,-1.26815,2.02661,-2.12238,-0.0567012,0.279346,0.126566,0,0,5.88,-3.92,0.455,-0.061732,0.313296,-0.886208,-0.06216,0.12628,0.4767
3.17209,0,0,11.8279,11.8279,18.1721,18.1721,-1.26883,2.02477,-2.12208,-0.0414835,-0.0143807,0.302629,1,0,3.0625,-1.05,-0.6475,-0.046482,0.019886,-0.711504,-0.06216,0.12628,0.4767
3.1738,0,0,11.8262,11.8262,18.1738,18.1738,-1.26952,2.02294,-2.12178,-0.0414515,-0.0143927,0.30263,1,0,3.0625,-1.05,-0.6475,-0.046482,0.019886,-0.711504,-0.06216,0.12628,0.4767
3.18934,0,0,11.8107,11.8107,18.1893,18.1893,-1.27574,2.02226,-2.12336,0.154638,-0.107195,-0.13888,1,0,0,-0.35,-1.7325,0.150426,-0.072712,-1.14961,-0.06216,0.12628,0.4767
3.20488,0,0,11.7951,11.7951,18.2049,18.2049,-1.28195,2.02158,-2.12495,0.15465,-0.107304,-0.138882,1,0,0,-0.35,-1.7325,0.150426,-0.072712,-1.14961,-0.06216,0.12628,0.4767
2.81629,0,0,12.1837,12.1837,17.8163,17.8163,-1.12652,2.19228,-2.27172,0.179736,-0.176768,-0.046723,0,0,1.33,0.735,-2.065,0.178608,-0.144814,-1.05811,-0.06216,0.12628,0.4767
2.33267,0,0,12.6673,12.6673,17.3327,17.3327,-0.933069,2.06571,-2.14158,-0.124808,-0.204538,-0.00748264,0,0,3.3775,-0.1225,-1.925,-0.129442,-0.175924,-1.01931,-0.06622,0.12796,0.48412
2.78234,0,0,12.2177,12.2177,17.7823,17.7823,-1.11294,2.01686,-2.10959,-0.0479056,0.174948,0.0837195,0,0,5.355,0.5075,-2.415,-0.05307,0.206302,-0.928786,-0.06622,0.12796,0.48412
3.23008,0,0,11.7699,11.7699,18.2301,18.2301,-1.29203,1.97076,-2.07585,-0.0471016,0.171824,0.0836819,0,0,4.095,1.6275,-1.575,-0.05307,0.206302,-0.928786,-0.06622,0.12796,0.48412
3.2341,0,0,11.7659,11.7659,18.2341,18.2341,-1.29364,1.97374,-2.07689,0.10932,0.10829,-0.087096,1,0,2.5725,1.785,-1.365,0.104066,0.142862,-1.09824,-0.06622,0.12796,0.48412
3.26765,0,0,11.7323,11.7323,18.2677,18.2677,-1.30706,1.97353,-2.07746,0.109324,0.108056,-0.0871011,1,0,-4.06,-0.0875,-1.1375,0.104066,0.142862,-1.09824,-0.06622,0.12796,0.48412
3.28874,0,0,11.7113,11.7113,18.2887,18.2887,-1.31549,1.97291,-2.07734,-0.257309,0.170438,0.376535,1,0,-1.2775,-0.3325,-0.735,-0.26413,0.205326,-0.638182,-0.06622,0.12796,0.48412
3.31012,0,0,11.6899,11.6899,18.3101,18.3101,-1.32405,1.9726,-2.07701,-0.257304,0.170288,0.376531,1,0,-1.3475,-0.1575,-0.6125,-0.26413,0.205326,-0.638182,-0.06622,0.12796,0.48412
3.31947,0,0,11.6805,11.6805,18.3195,18.3195,-1.32779,1.97304,-2.07562,-0.00085524,0.132364,0.284318,1,0,1.33,0.2625,0.0175,-0.006588,0.167506,-0.729682,-0.06622,0.12796,0.48412
3.31868,0,0,11.6813,11.6813,18.3187,18.3187,-1.32747,1.97358,-2.07342,-0.000864671,0.132369,0.284318,1,0,3.5875,0.315,0.49,-0.006588,0.167506,-0.729682,-0.06132,0.13202,0.4823
3.31516,0,0,11.6848,11.6848,18.3152,18.3152,-1.32606,1.97558,-2.07116,-0.0569046,0.00843541,0.352554,1,0,4.2,1.1725,0.5425,-0.06283,0.043676,-0.661972,-0.06132,0.13202,0.4823
3.31004,0,0,11.69,11.69,18.31,18.31,-1.32402,1.97734,-2.06944,-0.0569352,0.00847112,0.352554,1,0,4.5675,1.0325,0.2275,-0.06283,0.043676,-0.661972,-0.06132,0.13202,0.4823
2.54026,0,0,12.4597,12.4597,17.5403,17.5403,-1.0161,1.84997,-1.93002,-0.123231,-0.308575,0.0823737,0,0,3.255,1.155,0.105,-0.131638,-0.278404,-0.93025,-0.06132,0.13202,0.4823
1.78678,0,0,13.2132,13.2132,16.7868,16.7868,-0.714712,1.7235,-1.79263,-0.121025,-0.303319,0.082522,0,0,2.3625,0.4375,-0.1225,-0.131638,-0.278404,-0.93025,-0.06132,0.13202,0.4823
1.68593,0,0,13.3141,13.3141,16.6859,16.6859,-0.674374,2.03547,-2.08274,0.321329,-0.0537189,0.00477143,0,0,-0.665,-0.6825,-0.455,0.318054,-0.029768,-1.00723,-0.06132,0.13202,0.4823
1.59308,0,0,13.4069,13.4069,16.5931,16.5931,-0.637231,2.34289,-2.37298,0.315968,-0.0530688,0.00457391,0,0,-2.0475,-0.21,-1.0325,0.318054,-0.029768,-1.00723,-0.06132,0.13202,0.4823
1.61344,0,0,13.3866,13.3866,16.6134,16.6134,-0.645377,2.341,-2.37422,0.157826,-0.0856966,-0.174931,1,0,-1.085,-1.0675,-1.54,0.15921,-0.06222,-1.18535,-0.06132,0.13202,0.4823
1.629,0,0,13.371,13.371,16.629,16.629,-0.6516,2.34012,-2.37653,0.157842,-0.0858051,-0.174932,1,0,0.0175,-0.4725,-2.1525,0.15921,-0.06222,-1.18535,-0.06916,0.1288,0.47894
1.64419,0,0,13.3558,13.3558,16.6442,16.6442,-0.657674,2.34046,-2.37901,-0.153411,0.00116535,-0.184646,1,0,0.105,0.245,-2.24,-0.153354,0.024766,-1.19499,-0.06916,0.1288,0.47894
1.64877,0,0,13.3512,13.3512,16.6488,16.6488,-0.659506,2.33859,-2.38158,-0.153378,0.00113338,-0.184645,1,0,2.485,-1.05,-2.31,-0.153354,0.024766,-1.19499,-0.06916,0.1288,0.47894
1.65113,0,0,13.3489,13.3489,16.6511,16.6511,-0.660452,2.33845,-2.38459,0.0293388,-0.272325,-0.0775571,1,0,2.9925,-0.035,-2.555,0.030134,-0.248392,-1.08873,-0.06916,0.1288,0.47894
1.65164,0,0,13.3484,13.3484,16.6516,16.6516,-0.660655,2.33868,-2.38625,0.0293348,-0.272328,-0.0775573,1,0,3.3775,0.175,-1.7675,0.030134,-0.248392,-1.08873,-0.06916,0.1288,0.47894
1.16428,0,0,13.8357,13.8357,16.1643,16.1643,-0.465712,2.38789,-2.42101,0.0443914,-0.19663,0.0514137,0,0,3.0275,0.2275,-1.82,0.046116,-0.176168,-0.96075,-0.06916,0.1288,0.47894
0.699569,0,0,14.3004,14.3004,15.6996,15.6996,-0.279828,2.436,-2.45508,0.0435523,-0.193388,0.0513994,0,0,-0.28,0.105,-1.5575,0.046116,-0.176168,-0.96075,-0.06916,0.1288,0.47894
1.24443,0,0,13.7556,13.7556,16.2444,16.2444,-0.497771,2.6487,-2.67291,0.218792,0.231478,-0.0135849,0,0,-1.085,-0.665,-0.805,0.225822,0.252052,-1.02504,-0.06916,0.1288,0.47894
1.78071,0,0,13.2193,13.2193,16.7807,16.7807,-0.712283,2.85613,-2.89572,0.215176,0.22774,-0.0137982,0,0,-1.085,-0.665,-0.805,0.225822,0.252052,-1.02504,-0.0616,0.1302,0.48412
1.8878,0,0,13.1122,13.1122,16.8878,16.8878,-0.755121,2.93692,-2.98804,0.0677419,0.0345228,0.0816519,0,0,0.525,0.175,-0.14,0.079178,0.05978,-0.93025,-0.0616,0.1302,0.48412
1.99314,0,0,13.0069,13.0069,16.9931,16.9931,-0.797255,3.01627,-3.08032,0.0663589,0.0337895,0.0815701,0,0,0.525,0.175,-0.14,0.079178,0.05978,-0.93025,-0.0616,0.1302,0.48412
2.23205,0,0,12.7679,12.7679,17.2321,17.2321,-0.892821,2.86182,-2.95905,-0.157034,0.105398,-0.0332731,0,0,4.1825,-0.4025,0.4375,-0.147864,0.13298,-1.04432,-0.0616,0.1302,0.48412
2.46705,0,0,12.533,12.533,17.467,17.467,-0.98682,2.70999,-2.83733,-0.154387,0.103757,-0.0331712,0,0,4.1825,-0.4025,0.4375,-0.147864,0.13298,-1.04432,-0.0616,0.1302,0.48412
2.96985,0,0,12.0302,12.0302,17.9698,17.9698,-1.18794,2.4926,-2.65669,-0.221909,0.209307,0.0280398,0,0,2.87,0.9975,0.35,-0.219478,0.241926,-0.983686,-0.0616,0.1302,0.48412
3.19991,0,0,11.8001,11.8001,18.1999,18.1999,-1.27997,2.85008,-3.00841,0.375035,0.0968185,0.0161574,0,0,1.8725,0.875,-0.0875,0.386252,0.13115,-0.995154,-0.0616,0.1302,0.48412
3.449,0,0,11.551,11.551,18.449,18.449,-1.3796,3.19823,-3.36112,0.368967,0.0950899,0.0157966,0,0,-3.115,-1.12,-0.35,0.386252,0.13115,-0.995154,-0.0616,0.1302,0.48412
3.63245,0,0,11.3676,11.3676,18.6324,18.6324,-1.45298,2.86294,-3.06977,-0.308546,0.0616844,0.118367,0,0,0.2625,-0.07,-0.4025,-0.299998,0.099064,-0.89365,-0.0693,0.1302,0.48328
3.81342,0,0,11.1866,11.1866,18.8134,18.8134,-1.52537,2.53298,-2.77926,-0.302794,0.0604157,0.118606,0,0,0.245,-0.1925,-1.2425,-0.299998,0.099064,-0.89365,-0.0693,0.1302,0.48328
3.66379,0,0,11.3362,11.3362,18.6638,18.6638,-1.46552,2.3635,-2.62569,-0.15442,-0.0612817,0.076096,0,0,2.3275,-1.2425,-1.015,-0.153964,-0.023546,-0.935984,-0.0693,0.1302,0.48328
3.51673,0,0,11.4833,11.4833,18.5167,18.5167,-1.40669,2.197,-2.47265,-0.151516,-0.060259,0.0762373,0,0,2.3275,-1.2425,-1.015,-0.153964,-0.023546,-0.935984,-0.0693,0.1302,0.48328
3.51321,0,0,11.4868,11.4868,18.5132,18.5132,-1.40528,2.19687,-2.47467,-0.101462,0.0828981,0.270988,1,0,4.2875,-0.0175,-1.9775,-0.1037,0.119438,-0.742736,-0.0693,0.1302,0.48328
3.50968,0,0,11.4903,11.4903,18.5097,18.5097,-1.40387,2.19675,-2.47669,-0.10146,0.0829227,0.270989,1,0,4.2875,-0.0175,-1.9775,-0.1037,0.119438,-0.742736,-0.0693,0.1302,0.48328
3.14582,0,0,11.8542,11.8542,18.1458,18.1458,-1.25833,1.8137,-2.11013,-0.391811,-0.155867,0.0261227,0,0,4.9175,0.63,-1.3825,-0.40199,-0.121634,-0.986004,-0.0693,0.1302,0.48328
3.14807,0,0,11.8519,11.8519,18.1481,18.1481,-1.25923,2.22626,-2.49349,0.383968,-0.00700484,0.126809,0,0,1.9425,0.455,-1.1375,0.3843,0.027084,-0.885842,-0.0693,0.1302,0.48328
3.15698,0,0,11.843,11.843,18.157,18.157,-1.26279,2.62689,-2.87637,0.376982,-0.00706043,0.126512,0,0,0.4375,-0.7,-1.3825,0.3843,0.027084,-0.885842,-0.06426,0.12894,0.48888
3.17102,0,0,11.829,11.829,18.171,18.171,-1.26841,2.62507,-2.87679,0.426459,0.0796737,-0.042543,1,0,0.315,-1.0325,-1.0675,0.433954,0.113826,-1.05359,-0.06426,0.12894,0.48888
3.17319,0,0,11.8268,11.8268,18.1732,18.1732,-1.26928,2.62322,-2.87573,0.426491,0.0796586,-0.0425418,1,0,2.94,-1.0675,-0.21,0.433954,0.113826,-1.05359,-0.06426,0.12894,0.48888
2.81622,0,0,12.1838,12.1838,17.8162,17.8162,-1.12649,2.80607,-3.04495,0.166968,-0.140609,0.0902664,0,0,4.095,-0.595,-0.2975,0.176534,-0.108702,-0.92171,-0.06426,0.12894,0.48888
2.4596,0,0,12.5404,12.5404,17.4596,17.4596,-0.983841,2.9869,-3.21348,0.163816,-0.13812,0.0901528,0,0,5.3025,0.07,-0.4725,0.176534,-0.108702,-0.92171,-0.06426,0.12894,0.48888
2.44783,0,0,12.5522,12.5522,17.4478,17.4478,-0.979131,2.98676,-3.21214,0.239626,-0.0618305,-0.0648837,1,0,6.055,-0.07,-0.0175,0.252662,-0.032574,-1.07555,-0.06426,0.12894,0.48888
2.43756,0,0,12.5624,12.5624,17.4376,17.4376,-0.975023,2.98641,-3.21037,0.239632,-0.0617589,-0.0648822,1,0,5.705,-0.1925,0.2275,0.252662,-0.032574,-1.07555,-0.06426,0.12894,0.48888
2.43453,0,0,12.5655,12.5655,17.4345,17.4345,-0.973811,2.98636,-3.20906,-0.00613271,-0.108879,0.168351,1,0,4.095,-0.0175,-0.035,0.005856,-0.079666,-0.844118,-0.06426,0.12894,0.48888
2.43609,0,0,12.5639,12.5639,17.4361,17.4361,-0.974434,2.98703,-3.20884,-0.00614443,-0.10889,0.168351,1,0,3.0975,0.42,-0.665,0.005856,-0.079666,-0.844118,-0.06426,0.12894,0.48888
2.43877,0,0,12.5612,12.5612,17.4388,17.4388,-0.975507,2.98779,-3.20886,-0.147081,0.0237214,-0.133858,1,0,2.8525,0.4725,-0.805,-0.135664,0.052826,-1.14399,-0.06342,0.12754,0.48048
2.44336,0,0,12.5566,12.5566,17.4434,17.4434,-0.977345,2.98843,-3.20858,-0.237599,0.113941,0.333468,1,0,2.415,0.4025,-0.63,-0.226554,0.142984,-0.680272,-0.06342,0.12754,0.48048
2.43406,0,0,12.5659,12.5659,17.4341,17.4341,-0.973623,2.9881,-3.20942,-0.237593,0.114006,0.33347,1,0,5.565,-0.1575,-1.295,-0.226554,0.142984,-0.680272,-0.06342,0.12754,0.48048
2.4254,0,0,12.5746,12.5746,17.4254,17.4254,-0.970161,2.98878,-3.21046,-0.145762,0.146552,0.229948,1,0,5.425,0.4375,-1.4,-0.134322,0.175436,-0.782996,-0.06342,0.12754,0.48048
2.40531,0,0,12.5947,12.5947,17.4053,17.4053,-0.962124,2.98941,-3.21117,-0.145773,0.146692,0.229949,1,0,7.98,0.4025,-1.2075,-0.134322,0.175436,-0.782996,-0.06342,0.12754,0.48048
2.40087,0,0,12.5991,12.5991,17.4009,17.4009,-0.960348,2.99995,-3.23482,0.013797,0.00884206,-0.0553002,0,0,8.4525,-0.035,-1.05,0.026108,0.037698,-1.06604,-0.06342,0.12754,0.48048
2.41204,0,0,12.588,12.588,17.412,17.412,-0.964817,3.01247,-3.25915,0.0135788,0.00876436,-0.055313,0,0,4.9875,1.2425,-1.435,0.026108,0.037698,-1.06604,-0.06342,0.12754,0.48048
2.40871,0,0,12.5913,12.5913,17.4087,17.4087,-0.963485,3.01361,-3.25972,0.221421,-0.240595,-0.192278,1,0,4.2175,0.7,-1.12,0.23485,-0.211426,-1.20194,-0.06356,0.126,0.48328
2.41424,0,0,12.5858,12.5858,17.4142,17.4142,-0.965696,3.01475,-3.26001,-0.0298313,-0.0675801,0.168574,1,0,2.2225,0.7,-0.9625,-0.017446,-0.038552,-0.843874,-0.06356,0.126,0.48328
2.41756,0,0,12.5824,12.5824,17.4176,17.4176,-0.967024,3.01446,-3.26014,-0.0298263,-0.0676033,0.168574,1,0,2.7125,-0.14,-0.875,-0.017446,-0.038552,-0.843874,-0.06356,0.126,0.48328
