pid_x,pid_y,pid_z,front_left_speed,front_right_speed,back_left_speed,back_right_speed,orientation_x,orientation_y,orientation_z,acceleration_x,acceleration_y,acceleration_z,accel_rejected,mag_rejected,ahrs_initialized,gyro_x,gyro_y,gyro_z,accel_x,accel_y,accel_z,mag_x,mag_y,mag_z
0,0,0,15,15,15,15,-0.0082838,-0.00550627,0.188307,-0.00265419,0.00711595,-0.00288889,0,0,0,3.43,-0.0175,-0.8575,-0.043066,0.019398,-1.01553,-0.23506,0.06972,0.37618
0,0,0,15,15,15,15,-0.0186771,-0.00874975,0.373378,-0.00113975,0.00925496,-0.0055938,0,0,0,3.6225,0.1225,-1.015,-0.041602,0.021716,-1.01821,-0.23506,0.06972,0.37618
0,0,0,15,15,15,15,-0.029085,-0.0121995,0.557247,-0.00107954,0.0090733,-0.00559389,0,0,0,3.5,-0.07,-0.9275,-0.041602,0.021716,-1.01821,-0.23506,0.06972,0.37618
0,0,0,15,15,15,15,-0.0382545,-0.0152136,0.739545,-0.000905448,0.00793625,0.00288945,0,0,0,3.5,-0.0875,-0.9625,-0.04148,0.02074,-1.00979,-0.23506,0.06972,0.37618
0,0,0,15,15,15,15,-0.0472122,-0.018206,0.920328,-0.000853222,0.00777991,0.00288932,0,0,0,3.5175,-0.14,-1.0675,-0.04148,0.02074,-1.00979,-0.23506,0.06972,0.37618
0,0,0,15,15,15,15,-0.0575985,-0.0132851,1.09472,0.00428478,0.00894203,-0.00116813,0,0,0,3.43,-0.175,-0.805,-0.036234,0.022082,-1.01382,-0.23506,0.06972,0.37618
0,0,0,15,15,15,15,-0.0676177,-0.00807778,1.2678,0.00419389,0.00876716,-0.0011683,0,0,0,3.5175,0.0525,-0.8225,-0.036234,0.022082,-1.01382,-0.23506,0.06972,0.37618
0,0,0,15,15,15,15,-0.0783163,-0.0116124,1.45297,-0.00121127,0.0093132,0.00251991,0,0,0,3.5525,0.0875,-0.8925,-0.041724,0.022814,-1.01016,-0.23646,0.06608,0.37128
0,0,0,15,15,15,15,-0.0909383,-0.0137331,1.6353,0.000162083,0.0108027,0.000306501,0,0,0,3.43,-0.1925,-0.945,-0.040382,0.024522,-1.01236,-0.23646,0.06608,0.37128
0,0,0,15,15,15,15,-0.103403,-0.0153957,1.81619,0.0001911,0.0105851,0.000306124,0,0,0,3.3775,0.0175,-0.9975,-0.040382,0.024522,-1.01236,-0.23646,0.06608,0.37128
0,0,0,15,15,15,15,-0.110203,-0.0194581,1.99785,-0.00204623,0.00582562,0.000305882,0,0,0,3.4475,0.14,-1.0675,-0.0427,0.019886,-1.01236,-0.23646,0.06608,0.37128
0,0,0,15,15,15,15,-0.116872,-0.0233872,2.17817,-0.00197765,0.00570924,0.000305625,0,0,0,3.4475,0.14,-1.0675,-0.0427,0.019886,-1.01236,-0.23646,0.06608,0.37128
0,0,0,15,15,15,15,-0.129515,-0.0192625,2.35126,0.00378167,0.0109843,0.00854273,0,0,0,3.57,0.0875,-1.015,-0.036844,0.025376,-1.00418,-0.23646,0.06608,0.37128
0,0,0,15,15,15,15,-0.141907,-0.0152081,2.52309,0.00371091,0.010768,0.00854224,0,0,0,3.57,0.0875,-1.015,-0.036844,0.025376,-1.00418,-0.23646,0.06608,0.37128
0,0,0,15,15,15,15,-0.150723,-0.0169054,2.69779,-0.000268493,0.00780521,-0.00424481,0,0,0,3.57,0.0875,-0.945,-0.04087,0.02257,-1.01687,-0.23646,0.06608,0.37128
0,0,0,15,15,15,15,-0.159365,-0.0185414,2.87376,-0.00023994,0.00765439,-0.00424523,0,0,0,3.57,0.0875,-0.945,-0.04087,0.02257,-1.01687,-0.2345,0.0637,0.37926
0,0,0,15,15,15,15,-0.166961,-0.0194592,3.04802,0.000262022,0.00630053,-0.000925999,0,0,0,3.29,-0.105,-0.84,-0.040382,0.02135,-1.01358,-0.2345,0.0637,0.37926
0,0,0,15,15,15,15,-0.174407,-0.0203268,3.22102,0.000277164,0.00617057,-0.000926392,0,0,0,3.29,-0.105,-0.84,-0.040382,0.02135,-1.01358,-0.2345,0.0637,0.37926
0,0,0,15,15,15,15,-0.182421,-0.0184426,3.39071,0.00230954,0.0068856,-0.00301694,0,0,0,3.395,-0.28,-0.77,-0.038308,0.022204,-1.01565,-0.2345,0.0637,0.37926
0,0,0,15,15,15,15,-0.19227,-0.0233153,3.56379,-0.00185742,0.00817923,0.00337579,0,0,0,3.325,-0.2275,-0.7,-0.042578,0.023668,-1.00931,-0.2345,0.0637,0.37926
0,0,0,15,15,15,15,-0.201891,-0.0277549,3.73542,-0.00177993,0.0080113,0.00337518,0,0,0,3.3425,-0.07,-0.805,-0.042578,0.023668,-1.00931,-0.2345,0.0637,0.37926
0,0,0,15,15,15,15,-0.209555,-0.0311663,3.90541,-0.00159891,0.00653415,0.00116159,0,0,0,3.4475,0.175,-0.875,-0.042456,0.022326,-1.0115,-0.2345,0.0637,0.37926
0,0,0,15,15,15,15,-0.217129,-0.0347279,4.07425,-0.00153675,0.00640196,0.00116106,0,0,0,3.4125,0.0175,-0.8225,-0.042456,0.022326,-1.0115,-0.2345,0.0637,0.37926
0,0,0,15,15,15,15,-0.221338,-0.0361125,4.23451,-0.000540695,0.0031532,0.00116077,0,0,0,3.15,-0.0175,-0.7875,-0.04148,0.019154,-1.0115,-0.23604,0.0679,0.37142
0,0,0,15,15,15,15,-0.230824,-0.0332754,4.39036,0.00281139,0.00823909,0.00325027,0,0,0,3.4825,-0.07,-0.805,-0.038064,0.0244,-1.00943,-0.23604,0.0679,0.37142
0,0,0,15,15,15,15,-0.240213,-0.0305138,4.54517,0.00276319,0.00807522,0.00324962,0,0,0,3.43,-0.0875,-0.735,-0.038064,0.0244,-1.00943,-0.23604,0.0679,0.37142
0,0,0,15,15,15,15,-0.244093,-0.0313332,4.70126,-1.66813e-05,0.0033667,0.0057083,0,0,0,3.4825,-0.14,-0.77,-0.04087,0.019764,-1.00699,-0.23604,0.0679,0.37142
0,0,0,15,15,15,15,-0.247769,-0.0316702,4.85608,-1.07991e-05,0.00330254,0.00570802,0,0,0,3.5525,0.1225,-0.8225,-0.04087,0.019764,-1.00699,-0.23604,0.0679,0.37142
0,0,0,15,15,15,15,-0.253749,-0.0309402,5.00907,0.000826861,0.0051522,-0.000193958,0,0,0,3.43,0.175,-0.77,-0.040016,0.021716,-1.01284,-0.23604,0.0679,0.37142
0,0,0,15,15,15,15,-0.259641,-0.0303894,5.16096,0.000817246,0.00504937,-0.000194413,0,0,0,3.4125,0.07,-0.735,-0.040016,0.021716,-1.01284,-0.23604,0.0679,0.37142
0,0,0,15,15,15,15,-0.262557,-0.0351251,5.31522,-0.00286616,0.00231168,0.00226428,0,0,0,3.3775,0.07,-0.805,-0.043798,0.019032,-1.0104,-0.23604,0.0679,0.37142
0,0,0,15,15,15,15,-0.265381,-0.0399989,5.46494,-0.00278109,0.00226239,0.00226399,0,0,0,3.395,-0.105,-0.91,-0.043798,0.019032,-1.0104,-0.2366,0.06874,0.38094
0,0,0,15,15,15,15,-0.270988,-0.0391412,5.60963,0.00133445,0.00485132,0.00300124,0,0,0,3.4475,-0.245,-0.84,-0.03965,0.021716,-1.00967,-0.2366,0.06874,0.38094
0,0,0,15,15,15,15,-0.276545,-0.0381991,5.75326,0.00131801,0.00475434,0.00300079,0,0,0,3.4125,-0.1925,-0.8225,-0.03965,0.021716,-1.00967,-0.2366,0.06874,0.38094
0,0,0,15,15,15,15,-0.270526,-0.070129,5.91834,-0.0213285,-0.0060099,-0.00695807,0,0,0,3.3775,-0.0175,-0.8925,-0.062952,0.010858,-1.01955,-0.2366,0.06874,0.38094
0,0,0,15,15,15,15,-0.264439,-0.101126,6.08218,-0.0207875,-0.00590366,-0.00695838,0,0,0,3.4825,0.035,-0.875,-0.062952,0.010858,-1.01955,-0.2366,0.06874,0.38094
-0,0,0,15,15,15,15,-0.232205,0.0170215,6.14389,0.0722738,-0.0246371,0.00472568,0,0,0,3.465,-0.035,-0.8925,0.032574,-0.008418,-1.00796,-0.2366,0.06874,0.38094
-0,0,0,15,15,15,15,-0.200674,0.131899,6.2052,0.0702688,-0.0240868,0.00472515,0,0,0,3.465,-0.035,-0.8925,0.032574,-0.008418,-1.00796,-0.2366,0.06874,0.38094
-0,0,0,15,15,15,15,-0.170288,0.17308,6.31395,0.023264,-0.0256326,-0.0151927,0,0,0,3.2725,0.315,-1.225,-0.013908,-0.010492,-1.02773,-0.2366,0.06874,0.38094
-0,0,0,15,15,15,15,-0.140589,0.212535,6.40797,0.0225754,-0.0251143,-0.0151936,0,0,0,3.2725,0.315,-1.225,-0.013908,-0.010492,-1.02773,-0.23534,0.07574,0.39074
-0,0,0,15,15,15,15,-0.0511807,0.323355,6.44995,0.0692355,-0.0803427,-0.082084,0,0,0,3.4825,-0.245,-1.5925,0.034892,-0.067222,-1.0941,-0.23534,0.07574,0.39074
-0,0,0,15,15,15,15,0.0363693,0.430935,6.49179,0.0673579,-0.0788147,-0.0820962,0,0,0,3.4825,-0.245,-1.5925,0.034892,-0.067222,-1.0941,-0.23534,0.07574,0.39074
-0,0,0,15,15,15,15,0.128903,0.583077,6.50123,0.0900931,-0.0767113,0.00320424,0,0,0,3.01,-0.3325,-1.2075,0.06039,-0.066734,-1.00943,-0.23534,0.07574,0.39074
-0,0,0,15,15,15,15,0.219472,0.730872,6.51087,0.0875138,-0.0751308,0.00316986,0,0,0,3.01,-0.3325,-1.2075,0.06039,-0.066734,-1.00943,-0.23534,0.07574,0.39074
-0,0,0,15,15,15,15,0.226368,0.746822,6.60868,0.00912015,-0.00539819,0.0293538,0,0,0,3.3075,-0.21,-0.805,-0.018056,0.002806,-0.983442,-0.23534,0.07574,0.39074
-0,0,0,15,15,15,15,0.23312,0.762326,6.70575,0.00884957,-0.00528037,0.0293498,0,0,0,3.3075,-0.21,-0.805,-0.018056,0.002806,-0.983442,-0.23534,0.07574,0.39074
0,0,0,15,15,15,15,0.187557,0.421206,7.04154,-0.210553,0.0299521,0.0433074,0,0,0,4.1825,-0.77,-0.3675,-0.244366,0.038796,-0.969656,-0.23534,0.07574,0.39074
0,0,0,15,15,15,15,0.142789,0.090195,7.37773,-0.204776,0.0291708,0.0433354,0,0,0,4.1825,-0.77,-0.3675,-0.244366,0.038796,-0.969656,-0.23576,0.07378,0.39942
0,0,0,15,15,15,15,-0.00413519,-0.234609,7.71809,-0.201658,0.119789,0.00743042,0,0,0,4.1825,0.8575,0.3325,-0.246928,0.131882,-1.00528,-0.23576,0.07378,0.39942
0,0,0,15,15,15,15,-0.148483,-0.5507,8.05756,-0.196141,0.11727,0.00738925,0,0,0,4.1825,0.8575,0.3325,-0.246928,0.131882,-1.00528,-0.23576,0.07378,0.39942
0,0,0,15,15,15,15,-0.190185,-0.947156,8.45133,-0.308157,0.0254359,-0.15352,0,0,0,2.5725,0.315,0.3675,-0.366366,0.04087,-1.16486,-0.23576,0.07378,0.39942
0,0,0,15,15,15,15,-0.191729,-0.946492,8.45343,-0.308169,0.025409,-0.15352,1,0,0,2.5725,0.315,0.3675,-0.366366,0.04087,-1.16486,-0.23576,0.07378,0.39942
0,0,0,15,15,15,15,-0.193361,-0.94571,8.45523,-0.0642391,-0.0572993,-0.168151,1,0,0,2.52,0.385,0.1925,-0.12139,-0.041724,-1.17937,-0.23576,0.07378,0.39942
0,0,0,15,15,15,15,-0.194993,-0.944928,8.45703,-0.0642528,-0.0573278,-0.16815,1,0,0,2.52,0.385,0.1925,-0.12139,-0.041724,-1.17937,-0.23576,0.07378,0.39942
0,0,0,15,15,15,15,-0.193066,-0.945489,8.45884,0.0470379,-0.106145,0.111188,1,0,0,4.515,-0.4025,0.1925,-0.009638,-0.090524,-0.90219,-0.23576,0.07378,0.39942
0,0,0,15,15,15,15,-0.19114,-0.946051,8.46065,0.0470477,-0.106111,0.111188,1,0,0,4.515,-0.4025,0.1925,-0.009638,-0.090524,-0.90219,-0.24192,0.07588,0.40628
0,0,0,15,15,15,15,-0.190006,-0.9459,8.46135,0.0470451,-0.00545901,0.247661,1,0,0,4.06,0.0175,-0.455,-0.009638,0.010004,-0.76677,-0.24192,0.07588,0.40628
0,0,0,15,15,15,15,-0.188873,-0.945749,8.46204,0.0470425,-0.00543924,0.247661,1,0,0,4.06,0.0175,-0.455,-0.009638,0.010004,-0.76677,-0.24192,0.07588,0.40628
0,0,0,15,15,15,15,-0.189029,-0.944138,8.46141,0.26253,0.0867637,0.232293,1,0,0,3.325,0.875,-1.225,0.20679,0.102114,-0.78202,-0.24192,0.07588,0.40628
0,0,0,15,15,15,15,-0.189185,-0.942527,8.46078,0.262502,0.086761,0.232294,1,0,0,3.325,0.875,-1.225,0.20679,0.102114,-0.78202,-0.24192,0.07588,0.40628
0,0,0,15,15,15,15,-0.188116,-0.94212,8.45779,-0.0532466,-0.089205,-0.231714,1,0,0,3.99,0.175,-2.6075,-0.110288,-0.073688,-1.24245,-0.24192,0.07588,0.40628
0,0,0,15,15,15,15,-0.187047,-0.941712,8.45479,-0.0532537,-0.0891863,-0.231713,1,0,0,3.99,0.175,-2.6075,-0.110288,-0.073688,-1.24245,-0.24192,0.07588,0.40628
-0,0,0,15,15,15,15,0.0106954,-1.08767,8.66059,-0.119467,-0.18075,-0.00884765,0,0,0,4.0075,-0.4725,-2.7125,-0.17934,-0.168604,-1.02126,-0.24192,0.07588,0.40628
-0,0,0,15,15,15,15,0.204277,-1.23299,8.84619,-0.116932,-0.177372,-0.00890535,0,0,0,4.0075,-0.4725,-2.7125,-0.17934,-0.168604,-1.02126,-0.23618,0.08708,0.40614
-0,0,0,15,15,15,15,0.204262,-1.23412,8.84349,0.309746,-0.00321983,0.29072,1,0,0,3.3775,-0.735,-2.4325,0.249124,0.005368,-0.723948,-0.23618,0.08708,0.40614
-0,0,0,15,15,15,15,0.204248,-1.23524,8.84079,0.309765,-0.00322009,0.290719,1,0,0,3.3775,-0.735,-2.4325,0.249124,0.005368,-0.723948,-0.23618,0.08708,0.40614
-0,0,0,15,15,15,15,0.204027,-1.23577,8.83756,0.188653,0.259959,0.344571,1,0,0,3.255,-0.385,-2.7475,0.12749,0.268278,-0.670512,-0.23618,0.08708,0.40614
-0,0,0,15,15,15,15,0.203805,-1.2363,8.83432,0.188662,0.259955,0.34457,1,0,0,3.255,-0.385,-2.7475,0.12749,0.268278,-0.670512,-0.23618,0.08708,0.40614
0,0,0,15,15,15,15,0.0257352,-1.44356,9.08718,-0.117267,0.143637,0.0310963,0,0,0,2.59,0.315,-2.45,-0.183366,0.155184,-0.98149,-0.23618,0.08708,0.40614
0,0,0,15,15,15,15,-0.148949,-1.64508,9.33954,-0.113751,0.140589,0.0309982,0,0,0,2.59,0.315,-2.45,-0.183366,0.155184,-0.98149,-0.23618,0.08708,0.40614
0,0,0,15,15,15,15,-0.147041,-1.64413,9.33796,0.144268,-0.0546584,-0.300347,1,0,0,4.4625,0.49,-1.785,0.075762,-0.039894,-1.31028,-0.23618,0.08708,0.40614
0,0,0,15,15,15,15,-0.145133,-1.64318,9.33637,0.144252,-0.0546251,-0.300347,1,0,0,4.4625,0.49,-1.785,0.075762,-0.039894,-1.31028,-0.23618,0.08708,0.40614
-0,0,0,15,15,15,15,0.0318336,-1.31317,9.21542,0.210535,-0.148262,-0.030938,0,0,0,4.095,-0.875,-0.9625,0.148108,-0.136518,-1.0431,-0.24052,0.08036,0.41552
-0,0,0,15,15,15,15,0.031756,-1.31419,9.21564,-0.038007,0.0967229,0.119919,1,0,0,3.3775,-0.665,-0.735,-0.101504,0.108214,-0.893406,-0.24052,0.08036,0.41552
0,0,0,15,15,15,15,0.0295907,-1.31488,9.21705,-0.037995,0.0966851,0.119919,1,0,0,2.2225,-0.4725,-0.035,-0.101504,0.108214,-0.893406,-0.24052,0.08036,0.41552
0,0,0,15,15,15,15,0.0264073,-1.31524,9.21931,-0.105778,0.24196,0.297948,1,0,0,1.6625,-0.28,0.455,-0.16958,0.253394,-0.71675,-0.24052,0.08036,0.41552
0,0,0,15,15,15,15,0.0224881,-1.31431,9.22235,-0.105794,0.241892,0.297949,1,0,0,1.26,0.4725,0.91,-0.16958,0.253394,-0.71675,-0.24052,0.08036,0.41552
0,0,0,15,15,15,15,0.020747,-1.31351,9.22568,-0.0332809,0.0961644,0.111805,1,0,0,2.485,0.4025,1.085,-0.096746,0.107848,-0.901458,-0.24052,0.08036,0.41552
-0,0,0,15,15,15,15,0.020815,-1.31247,9.22908,-0.0332991,0.0961656,0.111806,1,0,0,3.5,0.5425,1.12,-0.096746,0.107848,-0.901458,-0.24052,0.08036,0.41552
-0,0,0,15,15,15,15,0.0230173,-1.31106,9.23197,0.00737409,0.0092498,-0.232819,1,0,0,4.69,0.7525,0.8225,-0.055876,0.020984,-1.24342,-0.24052,0.08036,0.41552
-0,0,0,15,15,15,15,0.0247529,-1.31074,9.23479,0.00736838,0.00928008,-0.232818,1,0,0,4.4275,0.1225,0.7875,-0.055876,0.020984,-1.24342,-0.2429,0.08148,0.41748
-0,0,0,15,15,15,15,0.073554,-1.0091,9.13841,0.21106,-0.0323684,-0.0769368,0,0,0,4.725,-0.1225,0.2975,0.153964,-0.021472,-1.08885,-0.2429,0.08148,0.41748
-0,0,0,15,15,15,15,0.120556,-0.716842,9.04262,0.20596,-0.031548,-0.0768614,0,0,0,4.4975,-0.9975,0.0875,0.153964,-0.021472,-1.08885,-0.2429,0.08148,0.41748
-0,0,0,15,15,15,15,0.121996,-0.717682,9.044,0.154465,0.116128,0.15588,1,0,0,4.235,-0.56,-0.0525,0.102236,0.126026,-0.857904,-0.2429,0.08148,0.41748
-0,0,0,15,15,15,15,0.12185,-0.71858,9.04488,0.15448,0.116126,0.15588,1,0,0,3.3425,-0.595,-0.35,0.102236,0.126026,-0.857904,-0.2429,0.08148,0.41748
-0,0,0,15,15,15,15,0.120399,-0.718612,9.04524,0.0442935,0.0381836,0.328376,1,0,0,2.6075,-0.0875,-0.6475,-0.008418,0.04819,-0.686738,-0.2429,0.08148,0.41748
-0,0,0,15,15,15,15,0.11829,-0.718284,9.04582,0.0442877,0.0381468,0.328377,1,0,0,2.24,0.1225,-0.525,-0.008418,0.04819,-0.686738,-0.2429,0.08148,0.41748
0,0,0,15,15,15,15,0.0893317,-0.77445,9.18752,-0.0310251,0.0201773,0.0757056,0,0,0,2.5025,0.1225,-0.6125,-0.085034,0.030744,-0.937448,-0.2429,0.08148,0.41748
0,0,0,15,15,15,15,0.0609357,-0.828267,9.32625,-0.0300859,0.0196817,0.0756931,0,0,0,2.45,0.49,-1.855,-0.085034,0.030744,-0.937448,-0.23786,0.08204,0.41258
0,0,0,15,15,15,15,0.0416645,-0.474232,9.18431,0.245096,0.0303369,-0.0138658,0,0,0,3.185,0.8575,-1.9075,0.197518,0.041724,-1.02639,-0.23786,0.08204,0.41258
0,0,0,15,15,15,15,0.0223743,-0.130386,9.04189,0.239095,0.0300002,-0.013834,0,0,0,3.2725,0.035,-2.5375,0.197518,0.041724,-1.02639,-0.23786,0.08204,0.41258
0,0,0,15,15,15,15,-0.0653966,-0.351982,9.28439,-0.136316,0.0671825,0.0288123,0,0,0,3.3775,-0.3675,-2.94,-0.183366,0.080398,-0.984052,-0.23786,0.08204,0.41258
0,0,0,15,15,15,15,-0.151931,-0.568823,9.52631,-0.132531,0.0656723,0.028779,0,0,0,3.115,-1.05,-2.6075,-0.183366,0.080398,-0.984052,-0.23786,0.08204,0.41258
0,0,0,15,15,15,15,-0.154584,-0.642912,9.66919,-0.0423106,-0.000810879,0.100198,0,0,0,3.3425,-0.805,-2.6425,-0.094062,0.01403,-0.91317,-0.23786,0.08204,0.41258
0,0,0,15,15,15,15,-0.15623,-0.714285,9.81071,-0.041065,-0.000839572,0.100183,0,0,0,3.85,-0.35,-2.8175,-0.094062,0.01403,-0.91317,-0.23786,0.08204,0.41258
0,0,0,15,15,15,15,-0.156241,-0.713844,9.80826,0.0403227,0.202868,-0.112394,1,0,0,3.395,0.1925,-2.2925,-0.012322,0.217526,-1.12411,-0.23786,0.08204,0.41258
0,0,0,15,15,15,15,-0.156252,-0.713403,9.8058,0.040315,0.202867,-0.112394,1,0,0,3.395,0.1925,-2.2925,-0.012322,0.217526,-1.12411,-0.23506,0.08148,0.41916
0,0,0,15,15,15,15,-0.157014,-0.713141,9.8035,-0.178607,-0.146795,-0.0871898,1,0,0,2.975,0.0875,-2.205,-0.232166,-0.13176,-1.0991,-0.23506,0.08148,0.41916
0,0,0,15,15,15,15,-0.157776,-0.712879,9.80119,-0.178611,-0.146808,-0.0871898,1,0,0,2.975,0.0875,-2.205,-0.232166,-0.13176,-1.0991,-0.23506,0.08148,0.41916
0,0,0,15,15,15,15,-0.16541,-0.756018,9.92761,-0.0255154,0.000954277,0.0694366,0,0,0,1.05,-0.2625,-1.2425,-0.079178,0.015982,-0.94367,-0.23506,0.08148,0.41916
0,0,0,15,15,15,15,-0.172867,-0.798021,10.0531,-0.0247824,0.000824169,0.0694262,0,0,0,1.05,-0.2625,-1.2425,-0.079178,0.015982,-0.94367,-0.23506,0.08148,0.41916
0,0,0,15,15,15,15,-0.174268,0.0728196,9.53399,0.595875,0.0284001,0.178824,0,0,0,1.3825,0.2275,0.105,0.55937,0.043554,-0.835212,-0.23506,0.08148,0.41916
0,0,0,15,15,15,15,-0.178127,0.926383,9.01602,0.580978,0.0283331,0.178693,0,0,0,1.3825,0.2275,0.105,0.55937,0.043554,-0.835212,-0.23506,0.08148,0.41916
0,0,0,15,15,15,15,-0.176757,0.926659,9.0184,0.00403797,0.0188312,0.249266,1,0,0,4.165,0.0875,0.525,-0.020008,0.034038,-0.765184,-0.23506,0.08148,0.41916
0,0,0,15,15,15,15,-0.175387,0.926934,9.02077,0.00403315,0.0188551,0.249266,1,0,0,4.165,0.0875,0.525,-0.020008,0.034038,-0.765184,-0.2436,0.0819,0.41356
-0,0,0,15,15,15,15,-0.0731643,0.963692,9.06784,0.0127461,-0.0754748,0.0950818,0,0,0,6.9825,0.7175,1.1375,-0.010614,-0.061976,-0.918172,-0.2436,0.0819,0.41356
-0,0,0,15,15,15,15,0.0270276,0.99923,9.11458,0.0121259,-0.0737264,0.0950718,0,0,0,6.9825,0.7175,1.1375,-0.010614,-0.061976,-0.918172,-0.2436,0.0819,0.41356
-0,0,0,15,15,15,15,0.162332,0.810414,9.30733,-0.140688,-0.131085,-0.0202057,0,0,0,3.5,0.035,0.7175,-0.167384,-0.121634,-1.03261,-0.2436,0.0819,0.41356
-0,0,0,15,15,15,15,0.295106,0.626219,9.49766,-0.137474,-0.128768,-0.0201747,0,0,0,3.5,0.035,0.7175,-0.167384,-0.121634,-1.03261,-0.2436,0.0819,0.41356
-0,0,0,15,15,15,15,0.290153,0.625881,9.49946,0.0914114,-0.254156,0.239862,1,0,0,0.63,-0.2625,0.1925,0.062464,-0.246806,-0.774578,-0.2436,0.0819,0.41356
-0,0,0,15,15,15,15,0.285199,0.625543,9.50127,0.0914173,-0.254243,0.239862,1,0,0,0.63,-0.2625,0.1925,0.062464,-0.246806,-0.774578,-0.2436,0.0819,0.41356
-0,0,0,15,15,15,15,0.279707,0.632976,9.50227,0.0181532,0.0558634,0.24773,1,0,0,0.3325,4.2875,-0.2975,-0.01098,0.063074,-0.76677,-0.2436,0.0819,0.41356
-0,0,0,15,15,15,15,0.274214,0.640408,9.50327,0.0180234,0.0557675,0.247729,1,0,0,0.3325,4.2875,-0.2975,-0.01098,0.063074,-0.76677,-0.23996,0.08022,0.41874
0,0,0,15,15,15,15,0.11654,0.554363,9.64551,-0.0448623,0.139848,-0.00994581,0,0,0,4.3225,-0.0525,-0.7875,-0.07564,0.149816,-1.02248,-0.23996,0.08022,0.41874
0,0,0,15,15,15,15,-0.0380664,0.470814,9.78743,-0.0434041,0.13715,-0.00993092,0,0,0,4.3225,-0.0525,-0.7875,-0.07564,0.149816,-1.02248,-0.23996,0.08022,0.41874
-0,0,0,15,15,15,15,-0.0333395,0.47138,9.78653,0.00226461,-0.00431275,-0.156363,1,0,0,6.0725,0.2625,-1.3825,-0.029768,0.008418,-1.16778,-0.23996,0.08022,0.41874
-0,0,0,15,15,15,15,-0.0286125,0.471947,9.78564,0.00225472,-0.00423025,-0.156363,1,0,0,6.0725,0.2625,-1.3825,-0.029768,0.008418,-1.16778,-0.23996,0.08022,0.41874
0,0,0,15,15,15,15,-0.0279865,0.471915,9.78331,0.279607,-0.186677,-0.0696839,1,0,0,3.78,-0.0875,-2.2225,0.248758,-0.17385,-1.08177,-0.23996,0.08022,0.41874
0,0,0,15,15,15,15,-0.0273604,0.471884,9.78097,0.279608,-0.186666,-0.0696839,1,0,0,3.78,-0.0875,-2.2225,0.248758,-0.17385,-1.08177,-0.23996,0.08022,0.41874
-0,0,0,15,15,15,15,0.16633,0.469842,9.84213,-0.0177537,-0.168874,0.0603918,0,0,0,-0.175,-0.5775,-2.835,-0.049898,-0.159454,-0.952698,-0.23996,0.08022,0.41874
-0,0,0,15,15,15,15,0.356286,0.467335,9.90271,-0.0177099,-0.165559,0.060377,0,0,0,-0.175,-0.5775,-2.835,-0.049898,-0.159454,-0.952698,-0.23996,0.08022,0.41874
0,0,0,15,15,15,15,0.206959,0.258261,10.1274,-0.135182,0.124695,-0.0483965,0,0,0,-0.14,-0.035,-2.065,-0.171532,0.133102,-1.06067,-0.2401,0.07896,0.41426
0,0,0,15,15,15,15,-0.0448097,0.305515,10.1885,0.0527818,0.220689,0.0385302,0,0,0,2.7475,0.42,-1.9425,0.018056,0.233386,-0.974414,-0.2401,0.07896,0.41426
0,0,0,15,15,15,15,-0.288042,0.352652,10.2495,0.0519591,0.216444,0.0385132,0,0,0,4.865,0.7175,-1.8375,0.018056,0.233386,-0.974414,-0.2401,0.07896,0.41426
-0,0,0,15,15,15,15,-0.205094,0.360816,10.317,-0.00236596,-0.0714269,-0.0340211,0,0,0,5.8975,0.7525,-1.6975,-0.036356,-0.055632,-1.04639,-0.2401,0.07896,0.41426
-0,0,0,15,15,15,15,-0.125273,0.367089,10.3852,-0.00247545,-0.0700338,-0.0340178,0,0,0,5.0575,-0.105,-0.9975,-0.036356,-0.055632,-1.04639,-0.2401,0.07896,0.41426
-0,0,0,15,15,15,15,-0.0282803,0.342011,10.4724,-0.0269423,-0.0932549,-0.0790119,0,0,0,3.85,-0.1925,-0.8575,-0.061366,-0.08052,-1.09105,-0.2401,0.07896,0.41426
-0,0,0,15,15,15,15,0.0629072,0.316732,10.5592,-0.0265011,-0.0916634,-0.0790099,0,0,0,1.645,-0.5425,-0.665,-0.061366,-0.08052,-1.09105,-0.2401,0.07896,0.41426
-0,0,0,15,15,15,15,0.0919291,0.413391,10.5675,0.0635336,-0.0266739,-0.00758823,0,0,0,0.3675,-0.8575,-0.2975,0.030744,-0.016104,-1.02016,-0.2401,0.07896,0.41426
-0,0,0,15,15,15,15,0.120268,0.50866,10.5754,0.0618709,-0.0261794,-0.00760253,0,0,0,0.3675,-0.175,-0.21,0.030744,-0.016104,-1.02016,-0.23982,0.07938,0.41272
0,0,0,15,15,15,15,0.0205569,0.471842,10.6808,-0.0168167,0.0832158,-0.00820963,0,0,0,0.665,0.0875,0.035,-0.048922,0.094916,-1.02077,-0.23982,0.07938,0.41272
0,0,0,15,15,15,15,-0.073253,0.438104,10.7858,-0.0162279,0.0815785,-0.00820571,0,0,0,2.87,1.2075,0.14,-0.048922,0.094916,-1.02077,-0.23982,0.07938,0.41272
0,0,0,15,15,15,15,-0.198522,0.455253,10.859,0.0236846,0.120915,-0.0668597,0,0,0,3.815,0.875,0.42,-0.00854,0.136396,-1.07897,-0.23982,0.07938,0.41272
0,0,0,15,15,15,15,-0.318784,0.472351,10.9314,0.0233862,0.118816,-0.0668715,0,0,0,5.2675,0.9275,0.2275,-0.00854,0.136396,-1.07897,-0.23982,0.07938,0.41272
-0,0,0,15,15,15,15,-0.18256,0.432631,11.0222,-0.0404295,-0.12306,-0.0185369,0,0,0,5.005,0.7,0.455,-0.073322,-0.107604,-1.03102,-0.23982,0.07938,0.41272
-0,0,0,15,15,15,15,-0.0512335,0.391955,11.1114,-0.0397196,-0.120768,-0.0185271,0,0,0,3.7275,-0.245,0.0525,-0.073322,-0.107604,-1.03102,-0.23982,0.07938,0.41272
0,0,0,15,15,15,15,-0.0534207,0.391239,11.1126,0.0409594,-0.105174,0.108971,1,0,0,2.1875,-0.49,-0.175,0.007686,-0.091988,-0.904508,-0.23982,0.07938,0.41272
0,0,0,15,15,15,15,-0.0590724,0.390135,11.1138,0.0409787,-0.105272,0.108971,1,0,0,0.245,-0.7175,-0.1575,0.007686,-0.091988,-0.904508,-0.24234,0.07602,0.41958
0,0,0,15,15,15,15,-0.0671206,0.151898,11.3501,-0.153857,-0.00929892,0.0537862,0,0,0,-0.1225,-0.6825,-0.21,-0.19215,0.004026,-0.959286,-0.24234,0.07602,0.41958
0,0,0,15,15,15,15,-0.073557,-0.0794556,11.5834,-0.149819,-0.00941125,0.0537886,0,0,0,0.6475,-0.245,-0.84,-0.19215,0.004026,-0.959286,-0.24234,0.07602,0.41958
0,0,0,15,15,15,15,-0.255566,-0.145433,11.723,-0.0264529,0.149963,0.0451708,0,0,0,1.6275,-0.21,-0.8925,-0.069418,0.166408,-0.967826,-0.24234,0.07602,0.41958
0,0,0,15,15,15,15,-0.430013,-0.207824,11.8616,-0.025364,0.146918,0.0451492,0,0,0,3.885,0.6825,-1.295,-0.069418,0.166408,-0.967826,-0.24234,0.07602,0.41958
-0,0,0,15,15,15,15,-0.342765,-0.269578,11.9774,-0.0561154,-0.0828671,-0.0727526,0,0,0,5.2675,1.1725,-1.435,-0.101382,-0.06466,-1.08482,-0.24234,0.07602,0.41958
-0,0,0,15,15,15,15,-0.258467,-0.330983,12.0918,-0.0550437,-0.0813958,-0.0727505,0,0,0,4.5325,0.595,-1.6275,-0.101382,-0.06466,-1.08482,-0.24234,0.07602,0.41958
-0,0,0,15,15,15,15,-0.172891,-0.0831553,11.9954,0.157847,-0.0634152,0.0266132,0,0,0,3.36,0.35,-1.7325,0.116754,-0.04819,-0.986248,-0.24234,0.07602,0.41958
-0,0,0,15,15,15,15,-0.0928353,0.157857,11.894,0.153641,-0.062018,0.0266137,0,0,0,1.2775,-0.7525,-1.925,0.116754,-0.04819,-0.986248,-0.2464,0.07994,0.4102
0,0,0,15,15,15,15,-0.0977204,0.156927,11.892,0.17759,-0.119503,0.143906,1,0,0,0.6825,-0.6125,-2.03,0.140788,-0.10553,-0.86986,-0.2464,0.07994,0.4102
0,0,0,15,15,15,15,-0.102729,0.155908,11.8904,0.177608,-0.11959,0.143906,1,0,0,0.6125,-0.665,-1.8025,0.140788,-0.10553,-0.86986,-0.2464,0.07994,0.4102
0,0,0,15,15,15,15,-0.107801,0.155248,11.8887,0.113475,0.0726709,0.126816,1,0,0,0.5775,-0.455,-1.8375,0.076372,0.08662,-0.886818,-0.2464,0.07994,0.4102
0,0,0,15,15,15,15,-0.111842,0.155692,11.8871,0.113467,0.0726004,0.126816,1,0,0,1.155,0.1925,-1.8025,0.076372,0.08662,-0.886818,-0.2464,0.07994,0.4102
0,0,0,15,15,15,15,-0.297547,-0.170404,12.1872,-0.187715,0.133842,0.11328,0,0,0,2.24,0.63,-1.82,-0.2318,0.151036,-0.900238,-0.2464,0.07994,0.4102
0,0,0,15,15,15,15,-0.477162,-0.487434,12.4878,-0.182181,0.130708,0.113227,0,0,0,3.7275,0.98,-1.2775,-0.2318,0.151036,-0.900238,-0.2464,0.07994,0.4102
-0,0,0,15,15,15,15,-0.308141,-0.45674,12.5242,0.00376341,-0.134167,0.102555,0,0,0,4.1475,0.9625,-1.26,-0.04453,-0.11651,-0.910852,-0.2464,0.07994,0.4102
-0,0,0,15,15,15,15,-0.145443,-0.428268,12.5571,0.0032665,-0.131327,0.10257,0,0,0,2.5375,0.665,-0.91,-0.04453,-0.11651,-0.910852,-0.2492,0.08204,0.40978
0,0,0,15,15,15,15,-0.142926,-0.881061,12.9217,-0.318665,-0.0304062,0.0169074,0,0,0,2.1525,0.07,-0.7,-0.37576,-0.015738,-0.995764,-0.2492,0.08204,0.40978
0,0,0,15,15,15,15,-0.142909,-1.32319,13.2829,-0.31095,-0.0304055,0.016759,0,0,0,0.77,-0.3675,-0.6475,-0.37576,-0.015738,-0.995764,-0.2492,0.08204,0.40978
0,0,0,15,15,15,15,-0.229668,-1.54399,13.5164,-0.12414,0.0532034,0.110344,0,0,0,0.315,-0.7175,-0.525,-0.192028,0.069296,-0.9028,-0.2492,0.08204,0.40978
0,0,0,15,15,15,15,-0.314259,-1.75878,13.7487,-0.120393,0.0517281,0.110229,0,0,0,0.5425,-0.6475,-0.4025,-0.192028,0.069296,-0.9028,-0.2492,0.08204,0.40978
0,0,0,15,15,15,15,-0.545,-1.93512,13.9784,-0.0847584,0.174105,0.101862,0,0,0,0.735,-0.49,-0.2975,-0.159332,0.195566,-0.910974,-0.2492,0.08204,0.40978
0,0,0,15,15,15,15,-0.768613,-2.10482,14.2079,-0.0817984,0.170206,0.101713,0,0,0,2.275,0.49,-0.245,-0.159332,0.195566,-0.910974,-0.2492,0.08204,0.40978
-0,0,0,15,15,15,15,-0.68607,-1.88317,14.1379,0.139934,-0.0602746,0.0229333,0,0,0,3.045,0.805,-0.1925,0.067222,-0.036112,-0.989298,-0.2492,0.08204,0.40978
-0,0,0,15,15,15,15,-0.604819,-1.66728,14.0691,0.136168,-0.0588586,0.023066,0,0,0,3.4825,0.84,0.035,0.067222,-0.036112,-0.989298,-0.2492,0.08204,0.40978
0,0,0,15,15,15,15,-0.594229,-1.68424,14.1629,-0.015636,-0.0105558,-0.0563654,0,0,0,3.3425,0.28,-0.0525,-0.085522,0.011956,-1.06811,-0.24626,0.08134,0.41048
-0,0,0,15,15,15,15,-0.45507,-1.55222,14.1373,0.077427,-0.122561,-0.0357458,0,0,0,2.1175,0,-0.2975,0.010248,-0.102358,-1.04774,-0.24626,0.08134,0.41048
-0,0,0,15,15,15,15,-0.319627,-1.42509,14.1116,0.0752088,-0.120199,-0.0356721,0,0,0,1.6975,-0.63,-0.735,0.010248,-0.102358,-1.04774,-0.24626,0.08134,0.41048
0,0,0,15,15,15,15,-0.436043,-1.59195,14.3126,-0.106417,0.0923474,-0.0265411,0,0,0,0.4375,-0.9275,-0.945,-0.17507,0.111996,-1.03859,-0.24626,0.08134,0.41048
0,0,0,15,15,15,15,-0.55872,-1.75371,14.5123,-0.103595,0.0902079,-0.026642,0,0,0,-4.3925,-0.595,-1.2075,-0.17507,0.111996,-1.03859,-0.24626,0.08134,0.41048
0,0,0,15,15,15,15,-0.66669,-1.82464,14.6535,-0.0351756,0.0831956,0.0348964,0,0,0,0.0875,-0.4025,-1.295,-0.107604,0.106872,-0.977464,-0.24626,0.08134,0.41048
0,0,0,15,15,15,15,-0.771354,-1.89215,14.7932,-0.0339979,0.0813705,0.0348352,0,0,0,0.7175,0.385,-1.715,-0.107604,0.106872,-0.977464,-0.24626,0.08134,0.41048
-0,0,0,15,15,15,15,-0.697991,-1.54721,14.6314,0.242317,-0.0498596,-0.0419335,0,0,0,1.9425,0.735,-1.8725,0.175924,-0.025498,-1.05384,-0.24626,0.08134,0.41048
-0,0,0,15,15,15,15,-0.625611,-1.20981,14.4724,0.23643,-0.0485984,-0.0417772,0,0,0,2.59,1.12,-1.61,0.175924,-0.025498,-1.05384,-0.24262,0.08162,0.39914
0,0,0,15,15,15,15,-0.627468,-1.20809,14.4712,0.00727811,-0.0456998,-0.104727,1,0,0,2.3625,0.945,-1.575,-0.054168,-0.02257,-1.1163,-0.24262,0.08162,0.39914
0,0,0,15,15,15,15,-0.63069,-1.20757,14.4695,0.00726904,-0.045756,-0.104727,1,0,0,1.5925,0.245,-1.8025,-0.054168,-0.02257,-1.1163,-0.24262,0.08162,0.39914
-0,0,0,15,15,15,15,-0.41322,-1.08561,14.4262,0.0605384,-0.188392,0.0283804,0,0,0,0.9275,0.0175,-1.785,0.001464,-0.168848,-0.984296,-0.24262,0.08162,0.39914
-0,0,0,15,15,15,15,-0.202048,-0.968434,14.3843,0.0584936,-0.184707,0.0284369,0,0,0,-0.0875,-0.5775,-1.645,0.001464,-0.168848,-0.984296,-0.24262,0.08162,0.39914
0,0,0,15,15,15,15,-0.234468,-1.03357,14.4958,-0.0452119,0.0195339,-0.0575261,0,0,0,-0.77,-0.42,-1.645,-0.103822,0.035746,-1.06957,-0.24262,0.08162,0.39914
0,0,0,15,15,15,15,-0.264878,-1.09681,14.6072,-0.0441085,0.0190034,-0.057549,0,0,0,-0.035,-0.3325,-1.3125,-0.103822,0.035746,-1.06957,-0.24262,0.08162,0.39914
0,0,0,15,15,15,15,-0.345711,-1.22193,14.767,-0.0749691,0.056063,0.0371926,0,0,0,-0.4375,-0.2625,-1.2425,-0.137006,0.074176,-0.975512,-0.24262,0.08162,0.39914
0,0,0,15,15,15,15,-0.423138,-1.34201,14.9317,-0.072874,0.0547124,0.0371367,0,0,0,0.5775,0.8925,-1.19,-0.137006,0.074176,-0.975512,-0.2429,0.07798,0.39928
-0,0,0,15,15,15,15,-0.3756,-0.912283,14.7157,0.297205,-0.0212769,0.0127003,0,0,0,1.1025,1.05,-0.735,0.24217,-0.002562,-0.999912,-0.2429,0.07798,0.39928
-0,0,0,15,15,15,15,-0.328401,-0.493492,14.5019,0.289896,-0.0204537,0.012795,0,0,0,2.0125,0.6825,-0.455,0.24217,-0.002562,-0.999912,-0.2429,0.07798,0.39928
0,0,0,15,15,15,15,-0.376094,-0.227086,14.3969,0.193768,0.0574855,-0.0174262,0,0,0,1.645,0.63,-0.56,0.150304,0.076128,-1.02992,-0.2429,0.07798,0.39928
0,0,0,15,15,15,15,-0.425433,0.03224,14.2925,0.189242,0.0566243,-0.0174245,0,0,0,0.49,0.1925,-0.315,0.150304,0.076128,-1.02992,-0.2429,0.07798,0.39928
-0,0,0,15,15,15,15,-0.406296,0.126815,14.2855,0.0594238,-0.0157071,0.0517956,0,0,0,0.6125,0.035,-0.21,0.021594,0.003538,-0.961238,-0.2429,0.07798,0.39928
-0,0,0,15,15,15,15,-0.390373,0.21824,14.2785,0.0578281,-0.0154291,0.0517927,0,0,0,-0.8925,-0.385,-0.245,0.021594,0.003538,-0.961238,-0.2429,0.07798,0.39928
0,0,0,15,15,15,15,-0.398777,0.217767,14.2793,-0.268717,0.155646,-0.0575094,1,0,0,-1.295,-0.35,-0.4025,-0.306342,0.174582,-1.0697,-0.2429,0.07798,0.39928
0,0,0,15,15,15,15,-0.406119,0.217803,14.2802,-0.268718,0.155518,-0.0575103,1,0,0,-0.7,-0.0525,-0.3325,-0.306342,0.174582,-1.0697,-0.24444,0.07378,0.39634
-0,0,0,15,15,15,15,-0.288718,0.411551,14.199,0.117141,-0.0975559,0.0404735,0,0,0,-0.4725,0.0875,-0.1575,0.084546,-0.080276,-0.972462,-0.24444,0.07378,0.39634
-0,0,0,15,15,15,15,-0.172803,0.601555,14.1186,0.113825,-0.0955328,0.0404523,0,0,0,0.1925,0.945,-0.315,0.084546,-0.080276,-0.972462,-0.24444,0.07378,0.39634
0,0,0,15,15,15,15,-0.238222,0.619011,14.1708,0.0164531,0.0547626,-0.005046,0,0,0,0.175,0.9975,-0.42,-0.012932,0.071004,-1.0176,-0.24444,0.07378,0.39634
0,0,0,15,15,15,15,-0.301998,0.634937,14.2226,0.0161752,0.0536496,-0.00505429,0,0,0,0.4025,0.2625,-0.5075,-0.012932,0.071004,-1.0176,-0.24444,0.07378,0.39634
0,0,0,15,15,15,15,-0.369885,0.354962,14.468,-0.193847,0.0402519,-0.0174368,0,0,0,0.35,0.2625,-0.735,-0.22875,0.058804,-1.02992,-0.24444,0.07378,0.39634
0,0,0,15,15,15,15,-0.437383,0.0823096,14.7112,-0.189088,0.0390738,-0.017427,0,0,0,-0.245,0.3325,-1.1375,-0.22875,0.058804,-1.02992,-0.24444,0.07378,0.39634
0,0,0,15,15,15,15,-0.46919,0.203766,14.6941,0.0846861,0.0288707,0.0180955,0,0,0,-0.5425,0.245,-1.295,0.048312,0.049166,-0.994666,-0.24444,0.07378,0.39634
0,0,0,15,15,15,15,-0.500008,0.321231,14.6768,0.082636,0.0283329,0.0180815,0,0,0,-0.21,-0.3325,-1.645,0.048312,0.049166,-0.994666,-0.24612,0.07322,0.4011
0,0,0,15,15,15,15,-0.738656,0.511563,14.634,0.145767,0.207358,0.0893225,0,0,0,-0.42,-0.105,-1.89,0.115046,0.232166,-0.923906,-0.24612,0.07322,0.4011
0,0,0,15,15,15,15,-0.975584,0.69886,14.5898,0.142498,0.203224,0.0892261,0,0,0,-1.785,0.42,-2.2925,0.115046,0.232166,-0.923906,-0.24612,0.07322,0.4011
0,0,0,15,15,15,15,-0.954978,0.524525,14.7526,-0.135699,-0.0383495,-0.0897484,0,0,0,-0.9275,0.42,-2.5725,-0.167384,-0.009516,-1.10154,-0.24612,0.07322,0.4011
0,0,0,15,15,15,15,-0.935816,0.3547,14.9143,-0.132735,-0.0380155,-0.0897201,0,0,0,-1.6275,0.5075,-2.345,-0.167384,-0.009516,-1.10154,-0.24612,0.07322,0.4011
0,0,0,15,15,15,15,-0.945799,0.355794,14.9118,-0.340494,0.164296,-0.110501,1,0,0,-2.17,0.595,-2.3275,-0.376004,0.19276,-1.12216,-0.24612,0.07322,0.4011
0,0,0,15,15,15,15,-0.955128,0.356763,14.909,-0.340511,0.164134,-0.110504,1,0,0,-1.8025,0.525,-2.4675,-0.376004,0.19276,-1.12216,-0.24612,0.07322,0.4011
0,0,0,15,15,15,15,-0.963986,0.357351,14.9066,-0.285975,0.108167,-0.0805074,1,0,0,-1.54,0.2975,-2.2225,-0.321226,0.137006,-1.09239,-0.24612,0.07322,0.4011
0,0,0,15,15,15,15,-0.972591,0.357889,14.9049,-0.285984,0.108017,-0.08051,1,0,0,-1.4,0.2625,-1.855,-0.321226,0.137006,-1.09239,-0.24612,0.07322,0.4011
0,0,0,15,15,15,15,-0.981164,0.358191,14.9034,0.100092,0.0878386,-0.136085,1,0,0,-1.3825,0.1225,-1.75,0.06649,0.116998,-1.14753,-0.24248,0.07392,0.40152
0,0,0,15,15,15,15,-0.990887,0.358655,14.9026,0.0398273,-0.111153,0.144357,1,0,0,-2.03,0.21,-1.33,0.005978,-0.081618,-0.86925,-0.24248,0.07392,0.40152
0,0,0,15,15,15,15,-1.0006,0.359435,14.9028,0.0398137,-0.111323,0.144354,1,0,0,-2.03,0.385,-0.735,0.005978,-0.081618,-0.86925,-0.24248,0.07392,0.40152
0,0,0,15,15,15,15,-1.00944,0.36043,14.9033,0.159217,0.155003,-0.0803985,1,0,0,-1.54,0.5075,-0.5425,0.125904,0.184586,-1.09227,-0.24248,0.07392,0.40152
0,0,0,15,15,15,15,-1.01981,0.362238,14.9042,0.159185,0.154822,-0.0804019,1,0,0,-2.3975,0.98,-0.3325,0.125904,0.184586,-1.09227,-0.24248,0.07392,0.40152
-0,0,0,15,15,15,15,-0.919762,0.108339,15.1161,-0.173749,-0.107226,0.107019,0,0,0,-2.345,0.875,-0.1575,-0.21289,-0.078934,-0.906338,-0.24248,0.07392,0.40152
-0,0,0,15,15,15,15,-0.821178,-0.139429,15.3258,-0.169425,-0.105505,0.107044,0,0,0,-2.2575,0.8925,0.1575,-0.21289,-0.078934,-0.906338,-0.24248,0.07392,0.40152
0,0,0,15,15,15,15,-0.830651,-0.138116,15.3279,-0.329809,0.185235,-0.0590614,1,0,0,-1.89,0.6825,0.3325,-0.37393,0.21167,-1.07116,-0.24248,0.07392,0.40152
0,0,0,15,15,15,15,-0.841062,-0.137481,15.3304,-0.32982,0.185054,-0.059064,1,0,0,-2.415,0.28,0.6475,-0.37393,0.21167,-1.07116,-0.23968,0.08148,0.39704
-0,0,0,15,15,15,15,-0.785351,-0.334255,15.503,-0.138812,-0.0708066,0.0524499,0,0,0,-2.7475,0.42,0.56,-0.185562,-0.044896,-0.960506,-0.23968,0.08148,0.39704
-0,0,0,15,15,15,15,-0.730378,-0.526527,15.6738,-0.135456,-0.0698469,0.0524374,0,0,0,-2.695,0.245,0.525,-0.185562,-0.044896,-0.960506,-0.23968,0.08148,0.39704
-0,0,0,15,15,15,15,-0.697333,-0.123079,15.4537,0.293515,-0.0154128,-0.0134159,0,0,0,-2.6775,0.175,0.455,0.252296,0.008906,-1.0259,-0.23968,0.08148,0.39704
-0,0,0,15,15,15,15,-0.66624,0.271083,15.2343,0.286635,-0.0148701,-0.0134183,0,0,0,-2.87,0.315,0.0525,0.252296,0.008906,-1.0259,-0.23968,0.08148,0.39704
-0,0,0,15,15,15,15,-0.571591,0.096536,15.3781,-0.14305,-0.115805,-0.0660126,0,0,0,-3.2375,0.4725,-0.1925,-0.182268,-0.093574,-1.07811,-0.23968,0.08148,0.39704
-0,0,0,15,15,15,15,-0.478975,-0.0742476,15.5193,-0.14007,-0.114188,-0.0659972,0,0,0,-3.5,0.245,-0.6475,-0.182268,-0.093574,-1.07811,-0.23968,0.08148,0.39704
0,0,0,15,15,15,15,-0.645577,-0.305691,15.7412,-0.153889,0.127524,-0.0142778,0,0,0,-4.1475,0.42,-0.945,-0.200202,0.150792,-1.02675,-0.23968,0.08148,0.39704
0,0,0,15,15,15,15,-0.809159,-0.532429,15.9669,-0.149931,0.12467,-0.014343,0,0,0,-4.1475,0.14,-1.26,-0.200202,0.150792,-1.02675,-0.23954,0.07826,0.39354
-0,0,0,15,15,15,15,-0.72742,-0.566049,16.0298,-0.0341762,-0.0884806,-0.0113788,0,0,0,-3.535,0.1925,-1.575,-0.084546,-0.063562,-1.02382,-0.23954,0.07826,0.39354
-0,0,0,15,15,15,15,-0.648625,-0.598952,16.0908,-0.0336019,-0.0871054,-0.0113681,0,0,0,-4.34,0.2625,-2.2925,-0.084546,-0.063562,-1.02382,-0.23954,0.07826,0.39354
-0,0,0,15,15,15,15,-0.431943,-0.365145,15.953,0.141752,-0.194582,0.0155047,0,0,0,-3.885,0.315,-2.345,0.095648,-0.174704,-0.997228,-0.23954,0.07826,0.39354
-0,0,0,15,15,15,15,-0.220356,-0.137381,15.8169,0.137777,-0.190889,0.0155431,0,0,0,-4.0775,0.5075,-2.8,0.095648,-0.174704,-0.997228,-0.23954,0.07826,0.39354
-0,0,0,15,15,15,15,-0.085103,0.162171,15.6429,0.190983,-0.114764,0.0396462,0,0,0,-4.62,0.665,-3.01,0.15433,-0.101016,-0.973316,-0.23954,0.07826,0.39354
-0,0,0,15,15,15,15,0.0467195,0.453144,15.4709,0.185905,-0.112463,0.0396197,0,0,0,-4.655,0.1225,-3.1325,0.15433,-0.101016,-0.973316,-0.23954,0.07826,0.39354
-0,0,0,15,15,15,15,0.087452,0.845316,15.2422,0.28123,-0.0276071,-0.00791681,0,0,0,-5.145,0.385,-3.1675,0.256932,-0.016958,-1.02041,-0.23954,0.07826,0.39354
-0,0,0,15,15,15,15,0.12587,1.22921,15.0193,0.274531,-0.0269369,-0.00803935,0,0,0,-5.53,0.6825,-2.975,0.256932,-0.016958,-1.02041,-0.24234,0.0756,0.39592
0,0,0,15,15,15,15,0.0810647,0.841976,15.3056,-0.28119,0.000126346,-0.0173828,0,0,0,-5.5125,0.63,-2.7825,-0.307928,0.010858,-1.0298,-0.24234,0.0756,0.39592
0,0,0,15,15,15,15,0.0371348,0.464614,15.5903,-0.274605,-0.000640244,-0.0173069,0,0,0,-5.635,0.7175,-2.4675,-0.307928,0.010858,-1.0298,-0.24234,0.0756,0.39592
-0,0,0,15,15,15,15,0.0395829,0.677698,15.4897,0.146633,-0.00413922,0.00699977,0,0,0,-6.125,0.525,-2.0475,0.118828,0.00732,-1.00565,-0.24234,0.0756,0.39592
-0,0,0,15,15,15,15,0.0409671,0.885903,15.3911,0.143,-0.0041151,0.00695017,0,0,0,-6.44,0.735,-1.2775,0.118828,0.00732,-1.00565,-0.24234,0.0756,0.39592
-0,0,0,15,15,15,15,0.142056,1.10241,15.2709,0.148333,-0.0996862,-0.0399616,0,0,0,-6.2825,0.49,-0.9625,0.127978,-0.089914,-1.05213,-0.24234,0.0756,0.39592
-0,0,0,15,15,15,15,0.240293,1.31373,15.1529,0.144646,-0.0979723,-0.0400451,0,0,0,-6.5275,0.7525,-0.49,0.127978,-0.089914,-1.05213,-0.24234,0.0756,0.39592
0,0,0,15,15,15,15,0.215615,1.13768,15.301,-0.131335,-0.00656329,-0.0779687,0,0,0,-6.58,0.6125,-0.14,-0.152256,0.00183,-1.08983,-0.24234,0.0756,0.39592
0,0,0,15,15,15,15,0.191092,0.966927,15.4431,-0.128355,-0.00699103,-0.0779125,0,0,0,-6.9825,0.7,0.315,-0.152256,0.00183,-1.08983,-0.24178,0.07924,0.40558
-0,0,0,15,15,15,15,0.248529,1.07016,15.3963,0.0689584,-0.0665637,-0.0436457,0,0,0,-7.1575,0.5425,0.4725,0.047702,-0.058682,-1.05579,-0.24178,0.07924,0.40558
-0,0,0,15,15,15,15,0.304896,1.17075,15.351,0.067203,-0.0655803,-0.0436848,0,0,0,-7.035,0.595,1.015,0.047702,-0.058682,-1.05579,-0.24178,0.07924,0.40558
-0,0,0,15,15,15,15,0.43131,1.42696,15.1925,0.15409,-0.109417,0.0822219,0,0,0,-7.2275,0.8225,0.91,0.139446,-0.104676,-0.930738,-0.24178,0.07924,0.40558
-0,0,0,15,15,15,15,0.554849,1.67645,15.0359,0.149737,-0.107263,0.0820854,0,0,0,-7.1575,0.7525,0.875,0.139446,-0.104676,-0.930738,-0.24178,0.07924,0.40558
-0,0,0,15,15,15,15,0.60966,1.7074,15.0281,0.0168991,-0.069913,-0.0438395,0,0,0,-7.455,0.735,0.8225,0.006588,-0.06832,-1.05567,-0.24178,0.07924,0.40558
-0,0,0,15,15,15,15,0.66375,1.7371,15.0196,0.016381,-0.0689696,-0.0438656,0,0,0,-7.2275,0.525,0.385,0.006588,-0.06832,-1.05567,-0.24178,0.07924,0.40558
0,0,0,15,15,15,15,0.643598,1.73848,15.0213,-0.228072,0.0585456,-0.0857877,1,0,0,-7.91,0.7525,0.1575,-0.238876,0.059414,-1.09727,-0.24178,0.07924,0.40558
0,0,0,15,15,15,15,0.622426,1.74062,15.0224,-0.22811,0.0581763,-0.0857848,1,0,0,-8.47,1.19,-0.245,-0.238876,0.059414,-1.09727,-0.24178,0.07924,0.40558
-0,0,0,15,15,15,15,0.735739,1.72106,15.038,-0.0254947,-0.124136,0.0145281,0,0,0,-8.435,0.8925,-0.595,-0.035746,-0.124684,-0.997716,-0.24262,0.07798,0.40054
-0,0,0,15,15,15,15,0.846399,1.70128,15.0519,-0.0251496,-0.122206,0.0145117,0,0,0,-8.715,0.6125,-1.4175,-0.035746,-0.124684,-0.997716,-0.24262,0.07798,0.40054
0,0,0,15,15,15,15,0.704343,1.59242,15.1548,-0.0697795,0.10577,-0.0513005,0,0,0,-9.8175,0.8225,-2.415,-0.082472,0.10553,-1.06311,-0.24262,0.07798,0.40054
0,0,0,15,15,15,15,0.565092,1.48652,15.2573,-0.067932,0.103341,-0.051224,0,0,0,-9.8175,0.8225,-2.415,-0.082472,0.10553,-1.06311,-0.24262,0.07798,0.40054
-0,0,0,15,15,15,15,0.590233,1.40412,15.3228,-0.0609058,-0.0472905,0.0311834,0,0,0,-8.7675,0.56,-3.1675,-0.07686,-0.045384,-0.981368,-0.24262,0.07798,0.40054
-0,0,0,15,15,15,15,0.615035,1.32374,15.3876,-0.0595034,-0.0468575,0.0312122,0,0,0,-8.7675,0.56,-3.1675,-0.07686,-0.045384,-0.981368,-0.24262,0.07798,0.40054
-0,0,0,15,15,15,15,0.68725,1.57869,15.2294,0.150957,-0.0637957,0.106822,0,0,0,-9.5025,0.9275,-3.5175,0.138958,-0.063562,-0.906216,-0.24262,0.07798,0.40054
-0,0,0,15,15,15,15,0.757459,1.82722,15.0726,0.146621,-0.0625726,0.106677,0,0,0,-9.5025,0.9275,-3.5175,0.138958,-0.063562,-0.906216,-0.24262,0.07798,0.40054
0,0,0,15,15,15,15,0.698563,1.59286,15.2413,-0.160537,0.0146848,0.0179205,0,0,0,-10.5875,1.015,-3.325,-0.173606,0.01464,-0.994422,-0.24234,0.0784,0.39606
0,0,0,15,15,15,15,0.654749,1.86485,15.0845,0.183746,0.0345582,0.0466792,0,0,0,-10.43,0.8225,-3.08,0.1769,0.035258,-0.965752,-0.24234,0.0784,0.39606
0,0,0,15,15,15,15,0.60992,2.12953,14.9289,0.17913,0.0337746,0.0465269,0,0,0,-11.095,0.35,-2.7125,0.1769,0.035258,-0.965752,-0.24234,0.0784,0.39606
0,0,0,15,15,15,15,0.508855,2.19527,14.9067,0.0579552,0.078664,-0.0784149,0,0,0,-10.9375,0.4375,-2.485,0.056364,0.081862,-1.0897,-0.24234,0.0784,0.39606
0,0,0,15,15,15,15,0.409722,2.25961,14.8861,0.0568331,0.0769348,-0.0784447,0,0,0,-10.885,0.4725,-1.505,0.056364,0.081862,-1.0897,-0.24234,0.0784,0.39606
-0,0,0,15,15,15,15,0.481136,2.06195,15.0147,-0.150862,-0.107085,-0.0271777,0,0,0,-10.78,0.875,-1.085,-0.155672,-0.103212,-1.03895,-0.24234,0.0784,0.39606
-0,0,0,15,15,15,15,0.551021,1.86958,15.1427,-0.147506,-0.105865,-0.0270735,0,0,0,-11.06,1.12,-0.49,-0.155672,-0.103212,-1.03895,-0.24234,0.0784,0.39606
0,0,0,15,15,15,15,0.524361,1.87178,15.1439,0.052421,-0.0160784,-0.114241,1,0,0,-11.55,1.225,-0.175,0.04514,-0.013054,-1.12545,-0.24234,0.0784,0.39606
0,0,0,15,15,15,15,0.497583,1.87379,15.1462,0.0523859,-0.0165455,-0.114238,1,0,0,-11.6375,1.12,0.49,0.04514,-0.013054,-1.12545,-0.24066,0.08372,0.39242
-0,0,0,15,15,15,15,0.485756,1.87318,15.1563,-0.00324385,-0.0145535,0.0154749,0,0,0,-11.935,0.9625,0.6825,-0.010736,-0.010858,-0.99674,-0.24066,0.08372,0.39242
0,0,0,15,15,15,15,0.472981,1.87308,15.167,-0.00324209,-0.0147763,0.0154768,0,0,0,-12.6,1.2425,1.0325,-0.010736,-0.010858,-0.99674,-0.24066,0.08372,0.39242
0,0,0,15,15,15,15,0.306314,1.50273,15.4385,-0.250808,0.10017,0.0335145,0,0,0,-13.335,1.2075,1.0325,-0.265838,0.106872,-0.97905,-0.24066,0.08372,0.39242
0,0,0,15,15,15,15,0.144007,1.14098,15.71,-0.244496,0.0973383,0.0336713,0,0,0,-12.705,0.77,1.3825,-0.265838,0.106872,-0.97905,-0.24066,0.08372,0.39242
0,0,0,15,15,15,15,0.114779,1.14166,15.7131,0.0447499,0.0873024,0.158957,1,0,0,-13.0025,0.3325,0.945,0.024644,0.097356,-0.854732,-0.24066,0.08372,0.39242
0,0,0,15,15,15,15,0.0852563,1.14273,15.7154,0.0447312,0.0867872,0.158957,1,0,0,-13.16,0.56,0.5075,0.024644,0.097356,-0.854732,-0.24066,0.08372,0.39242
-0,0,0,15,15,15,15,0.133185,1.33505,15.5994,0.119248,-0.0556313,0.0686389,0,0,0,-13.1425,0.735,0.3325,0.102846,-0.04575,-0.94428,-0.24066,0.08372,0.39242
-0,0,0,15,15,15,15,0.179597,1.52346,15.4852,0.11596,-0.0548217,0.0685547,0,0,0,-13.195,1.365,-0.49,0.102846,-0.04575,-0.94428,-0.23968,0.08246,0.39298
0,0,0,15,15,15,15,0.149933,1.52597,15.4852,-0.031567,-0.125196,-0.109966,1,0,0,-13.2125,1.4,-0.875,-0.045262,-0.115534,-1.12142,-0.23968,0.08246,0.39298
0,0,0,15,15,15,15,0.118932,1.52866,15.4843,-0.031614,-0.125737,-0.109966,1,0,0,-13.9475,1.505,-1.435,-0.045262,-0.115534,-1.12142,-0.23968,0.08246,0.39298
-0,0,0,15,15,15,15,0.144452,1.48962,15.5161,-0.034213,-0.0621518,-0.0924906,0,0,0,-14.56,1.1725,-1.89,-0.048556,-0.05246,-1.1041,-0.23968,0.08246,0.39298
-0,0,0,15,15,15,15,0.168582,1.45152,15.5463,-0.0335483,-0.0617308,-0.0924747,0,0,0,-15.085,1.1725,-2.73,-0.048556,-0.05246,-1.1041,-0.23968,0.08246,0.39298
-0,0,0,15,15,15,15,0.175619,1.51265,15.5142,0.034875,-0.0318091,0.0573716,0,0,0,-15.1725,1.0675,-2.8875,0.021228,-0.022692,-0.955382,-0.23968,0.08246,0.39298
-0,0,0,15,15,15,15,0.181303,1.57204,15.4815,0.0338389,-0.0317101,0.0573434,0,0,0,-15.7675,0.945,-3.43,0.021228,-0.022692,-0.955382,-0.23968,0.08246,0.39298
0,0,0,15,15,15,15,0.100996,1.36772,15.6314,-0.133041,0.025632,0.0833804,0,0,0,-15.89,1.05,-3.78,-0.149938,0.03599,-0.92964,-0.23968,0.08246,0.39298
0,0,0,15,15,15,15,0.0215279,1.16929,15.7758,-0.129578,0.0242454,0.0834586,0,0,0,-16.415,1.3825,-4.095,-0.149938,0.03599,-0.92964,-0.24206,0.0847,0.39844
-0,0,0,15,15,15,15,0.0608064,1.1106,15.814,-0.0481306,-0.0711829,0.0383564,0,0,0,-16.3275,1.4,-3.9025,-0.069174,-0.060024,-0.974414,-0.24206,0.0847,0.39844
-0,0,0,15,15,15,15,0.0990214,1.05327,15.8523,-0.0471303,-0.070516,0.0383743,0,0,0,-16.5725,1.3825,-3.6575,-0.069174,-0.060024,-0.974414,-0.24206,0.0847,0.39844
0,0,0,15,15,15,15,0.0622225,1.05585,15.8479,-0.0592023,-0.0600446,-0.205678,1,0,0,-17.1675,1.435,-3.43,-0.081252,-0.048922,-1.21658,-0.24206,0.0847,0.39844
0,0,0,15,15,15,15,0.0258491,1.05818,15.8446,-0.059243,-0.0606794,-0.205679,1,0,0,-16.94,1.295,-2.8,-0.081252,-0.048922,-1.21658,-0.24206,0.0847,0.39844
-0,0,0,15,15,15,15,0.115274,0.873067,15.96,-0.149557,-0.137768,-0.0368178,0,0,0,-17.2025,0.9975,-2.2925,-0.175192,-0.12749,-1.04908,-0.24206,0.0847,0.39844
-0,0,0,15,15,15,15,0.202078,0.692726,16.0749,-0.146409,-0.136253,-0.036779,0,0,0,-17.92,1.1725,-1.6975,-0.175192,-0.12749,-1.04908,-0.24206,0.0847,0.39844
0,0,0,15,15,15,15,0.142347,0.702945,16.0924,0.00806359,0.0202477,-0.0450156,0,0,0,-18.1825,1.3825,-1.33,-0.019886,0.02989,-1.05725,-0.24206,0.0847,0.39844
0,0,0,15,15,15,15,0.0835428,0.713075,16.1067,0.00788681,0.0192214,-0.0450158,0,0,0,-18.305,1.3475,-0.6125,-0.019886,0.02989,-1.05725,-0.24934,0.08624,0.39704
-0,0,0,15,15,15,15,0.294872,0.766872,16.049,0.0160594,-0.234289,0.00709009,0,0,0,-18.6725,1.12,-0.3675,-0.010736,-0.227042,-1.00552,-0.24934,0.08624,0.39704
-0,0,0,15,15,15,15,0.500408,0.819264,15.9929,0.0151451,-0.230703,0.00705254,0,0,0,-19.6525,1.4,0.0175,-0.010736,-0.227042,-1.00552,-0.24934,0.08624,0.39704
0,0,0,15,15,15,15,0.458355,0.821395,15.9952,-0.196642,-0.0591158,-0.110849,1,0,0,-20.1775,1.19,0.5075,-0.223382,-0.0549,-1.12252,-0.24934,0.08624,0.39704
0,0,0,15,15,15,15,0.416923,0.824873,15.9974,-0.196702,-0.0598388,-0.110845,1,0,0,-19.8275,1.9775,0.3675,-0.223382,-0.0549,-1.12252,-0.24934,0.08624,0.39704
0,0,0,15,15,15,15,0.357007,1.25757,15.7404,0.291044,0.0442659,0.0853738,0,0,0,-20.51,1.8025,0.28,0.274012,0.050142,-0.927688,-0.24934,0.08624,0.39704
0,0,0,15,15,15,15,0.297014,1.67963,15.4844,0.28368,0.0432181,0.085191,0,0,0,-20.475,1.365,0.385,0.274012,0.050142,-0.927688,-0.24934,0.08624,0.39704
0,0,0,15,15,15,15,0.255823,1.68228,15.4862,0.0480732,-0.00818313,0.150479,1,0,0,-19.705,1.4875,0.175,0.037454,-0.000488,-0.862906,-0.24934,0.08624,0.39704
0,0,0,15,15,15,15,0.213664,1.68556,15.4869,0.0480159,-0.00891862,0.15048,1,0,0,-20.23,1.855,-0.4375,0.037454,-0.000488,-0.862906,-0.24934,0.08624,0.39704
0,0,0,15,15,15,15,0.172123,1.68873,15.4874,-0.0787489,-0.0203905,0.107203,1,0,0,-19.88,1.785,-0.56,-0.089792,-0.011224,-0.90585,-0.24486,0.08806,0.4081
0,0,0,15,15,15,15,0.10197,1.68018,15.5008,-0.0055869,0.0254045,-0.0296314,0,0,0,-20.1425,1.6625,-1.0325,-0.01647,0.035746,-1.04164,-0.24486,0.08806,0.4081
0,0,0,15,15,15,15,0.0321482,1.67272,15.5136,-0.0054567,0.0241864,-0.0296261,0,0,0,-20.685,2.1,-1.3825,-0.01647,0.035746,-1.04164,-0.24486,0.08806,0.4081
0,0,0,15,15,15,15,0.0033671,1.51209,15.6203,-0.124383,-0.0288302,-0.0604081,0,0,0,-21.7175,2.3975,-1.6275,-0.138714,-0.016714,-1.07226,-0.24486,0.08806,0.4081
0,0,0,15,15,15,15,-0.0337117,1.35463,15.7255,-0.121636,-0.0294772,-0.0603396,0,0,0,-26.7925,1.855,-1.9425,-0.138714,-0.016714,-1.07226,-0.24486,0.08806,0.4081
-0,0,0,15,15,15,15,0.0606479,1.50389,15.6127,0.084351,-0.114663,0.0855349,0,0,0,-23.345,1.9425,-2.1525,0.07076,-0.103456,-0.927444,-0.24486,0.08806,0.4081
-0,0,0,15,15,15,15,0.153423,1.64899,15.5005,0.0818194,-0.113044,0.0854622,0,0,0,-23.03,1.785,-2.52,0.07076,-0.103456,-0.927444,-0.24486,0.08806,0.4081
0,0,0,15,15,15,15,0.0200139,1.32923,15.7238,-0.243529,0.0631774,-0.0756976,0,0,0,-22.925,1.295,-2.3625,-0.261568,0.074908,-1.08751,-0.24486,0.08806,0.4081
0,0,0,15,15,15,15,-0.110336,1.01855,15.932,-0.238107,0.0609028,-0.0755883,0,0,0,-22.855,1.505,-2.7825,-0.261568,0.074908,-1.08751,-0.24318,0.09744,0.40516
0,0,0,15,15,15,15,-0.320406,0.713009,16.156,-0.206777,0.127215,0.0434926,0,0,0,-23.1875,1.645,-2.485,-0.23546,0.144814,-0.969412,-0.24318,0.09744,0.40516
0,0,0,15,15,15,15,-0.525847,0.414659,16.3798,-0.20157,0.123629,0.0435174,0,0,0,-22.855,1.365,-2.5025,-0.23546,0.144814,-0.969412,-0.24318,0.09744,0.40516
0,0,0,15,15,15,15,-0.57398,0.417258,16.3768,-0.188374,0.0451168,-0.0843575,1,0,0,-23.555,1.47,-2.625,-0.222162,0.067222,-1.09629,-0.24318,0.09744,0.40516
0,0,0,15,15,15,15,-0.622606,0.420163,16.3746,-0.188424,0.0442682,-0.0843667,1,0,0,-23.835,1.645,-2.1175,-0.222162,0.067222,-1.09629,-0.24318,0.09744,0.40516
0,0,0,15,15,15,15,-0.698372,0.385643,16.4077,-0.026246,0.0210852,-0.0517964,0,0,0,-25.27,1.75,-1.96,-0.059902,0.045384,-1.06396,-0.24318,0.09744,0.40516
0,0,0,15,15,15,15,-0.77332,0.352547,16.4418,-0.0256684,0.0197772,-0.0518094,0,0,0,-25.6375,1.995,-1.2775,-0.059902,0.045384,-1.06396,-0.24318,0.09744,0.40516
0,0,0,15,15,15,15,-0.829907,0.495215,16.3568,0.0952711,0.0103632,0.0518039,0,0,0,-26.5125,2.0825,-1.4525,0.06405,0.036966,-0.961116,-0.24318,0.09744,0.40516
0,0,0,15,15,15,15,-0.887256,0.634475,16.2739,0.0928407,0.0093628,0.051765,0,0,0,-27.405,1.855,-1.2075,0.06405,0.036966,-0.961116,-0.24682,0.09618,0.4067
0,0,0,15,15,15,15,-1.01826,0.653866,16.2814,0.0149944,0.0645986,0.0725014,0,0,0,-27.72,1.9075,-1.1725,-0.013786,0.094428,-0.940498,-0.24682,0.09618,0.4067
0,0,0,15,15,15,15,-1.14746,0.672359,16.2891,0.0146717,0.0623442,0.0724551,0,0,0,-28.0525,1.5225,-1.085,-0.013786,0.094428,-0.940498,-0.24682,0.09618,0.4067
-0,0,0,15,15,15,15,-0.988148,0.43794,16.4124,-0.182053,-0.214303,0.0681204,0,0,0,-28.49,1.8375,-1.155,-0.215452,-0.184708,-0.94489,-0.24682,0.09618,0.4067
-0,0,0,15,15,15,15,-0.822234,0.209368,16.5328,-0.178064,-0.211408,0.0681887,0,0,0,-23.415,2.065,-1.47,-0.215452,-0.184708,-0.94489,-0.24682,0.09618,0.4067
0,0,0,15,15,15,15,-0.877966,0.213082,16.5315,0.0433399,0.0920818,-0.10088,1,0,0,-27.825,2.1175,-1.5925,0.006954,0.119438,-1.11264,-0.24682,0.09618,0.4067
0,0,0,15,15,15,15,-0.93432,0.216806,16.5309,0.0432749,0.0910983,-0.100896,1,0,0,-28.175,2.1175,-1.19,0.006954,0.119438,-1.11264,-0.24682,0.09618,0.4067
-0,0,0,15,15,15,15,-0.90674,0.459123,16.368,0.171951,-0.0647422,-0.0217344,0,0,0,-27.93,2.2925,-1.5925,0.140422,-0.036722,-1.03407,-0.24682,0.09618,0.4067
-0,0,0,15,15,15,15,-0.881437,0.69563,16.2049,0.167823,-0.0643,-0.0217691,0,0,0,-28.49,2.5725,-1.68,0.140422,-0.036722,-1.03407,-0.24402,0.09744,0.40334
-0,0,0,15,15,15,15,-0.670495,0.632951,16.2031,-0.0718673,-0.275196,-0.0287146,0,0,0,-29.645,2.5375,-1.6275,-0.101382,-0.251076,-1.04103,-0.24402,0.09744,0.40334
-0,0,0,15,15,15,15,-0.463301,0.571082,16.2007,-0.0707875,-0.27158,-0.0286675,0,0,0,-29.68,2.3625,-1.8725,-0.101382,-0.251076,-1.04103,-0.24402,0.09744,0.40334
0,0,0,15,15,15,15,-0.474697,0.556668,16.2055,-0.0173253,-0.0534164,-0.0698544,0,0,0,-31.675,2.1175,-1.7325,-0.047946,-0.03294,-1.0819,-0.24402,0.09744,0.40334
0,0,0,15,15,15,15,-0.485462,0.542306,16.21,-0.0170746,-0.0536043,-0.0698535,0,0,0,-31.4475,1.925,-1.89,-0.047946,-0.03294,-1.0819,-0.24402,0.09744,0.40334
0,0,0,15,15,15,15,-0.522682,0.736098,16.0828,0.131643,-0.0124861,0.0316585,0,0,0,-32.06,2.03,-1.925,0.104798,0.008784,-0.981124,-0.24402,0.09744,0.40334
0,0,0,15,15,15,15,-0.559946,0.925196,15.9571,0.128343,-0.013136,0.0316045,0,0,0,-32.2,1.995,-1.575,0.104798,0.008784,-0.981124,-0.24402,0.09744,0.40334
0,0,0,15,15,15,15,-0.622781,0.928945,15.9557,0.0686285,-0.136481,0.139172,1,0,0,-31.7975,2.135,-1.6625,0.044896,-0.113338,-0.874374,-0.24402,0.09744,0.40334
0,0,0,15,15,15,15,-0.686461,0.93317,15.9542,0.0685547,-0.137592,0.139158,1,0,0,-32.27,2.415,-1.6975,0.044896,-0.113338,-0.874374,-0.24892,0.1057,0.4088
0,0,0,15,15,15,15,-0.750634,0.937785,15.9531,-0.224671,0.0952826,-0.20917,1,0,0,-32.55,2.6425,-1.4875,-0.24949,0.120414,-1.22,-0.24892,0.1057,0.4088
0,0,0,15,15,15,15,-0.815053,0.942673,15.9522,-0.224756,0.0941585,-0.209187,1,0,0,-32.69,2.8,-1.33,-0.24949,0.120414,-1.22,-0.24892,0.1057,0.4088
0,0,0,15,15,15,15,-0.921609,0.769336,16.0626,-0.134018,0.0270828,-0.0648285,0,0,0,-33.81,2.6075,-1.4175,-0.161406,0.055266,-1.07677,-0.24892,0.1057,0.4088
0,0,0,15,15,15,15,-1.02656,0.600716,16.1722,-0.131076,0.0252508,-0.0648245,0,0,0,-34.1425,2.765,-1.6275,-0.161406,0.055266,-1.07677,-0.24892,0.1057,0.4088
0,0,0,15,15,15,15,-1.09361,0.740147,16.0742,0.104238,0.00747216,-0.0616779,0,0,0,-35.4375,2.94,-1.435,0.077348,0.038674,-1.0736,-0.24892,0.1057,0.4088
0,0,0,15,15,15,15,-1.16116,0.875215,15.977,0.101881,0.00629416,-0.0617343,0,0,0,-36.225,2.31,-1.33,0.077348,0.038674,-1.0736,-0.24892,0.1057,0.4088
-0,0,0,15,15,15,15,-0.967093,0.882616,15.9158,-0.0149956,-0.229688,0.122258,0,0,0,-36.575,2.7125,-1.54,-0.039894,-0.200446,-0.891088,-0.24892,0.1057,0.4088
-0,0,0,15,15,15,15,-0.776209,0.888732,15.8551,-0.0151023,-0.226357,0.122307,0,0,0,-36.3825,2.275,-1.68,-0.039894,-0.200446,-0.891088,-0.24892,0.1057,0.4088
0,0,0,15,15,15,15,-0.84835,0.893578,15.8534,0.157201,-0.245202,0.198147,1,0,0,-37.0125,2.7825,-1.8025,0.133224,-0.218014,-0.815814,-0.24906,0.10724,0.41146
0,0,0,15,15,15,15,-0.918464,0.898568,15.8515,0.157114,-0.246426,0.198126,1,0,0,-35.875,2.87,-1.89,0.133224,-0.218014,-0.815814,-0.24906,0.10724,0.41146
0,0,0,15,15,15,15,-0.989464,0.903007,15.849,0.289821,-0.142147,-0.0876278,1,0,0,-36.365,2.555,-2.2925,0.26657,-0.112606,-1.09934,-0.24906,0.10724,0.41146
0,0,0,15,15,15,15,-1.06046,0.907443,15.8465,0.289743,-0.143386,-0.0876512,1,0,0,-36.365,2.555,-2.2925,0.26657,-0.112606,-1.09934,-0.24906,0.10724,0.41146
-0,0,0,15,15,15,15,-1.00416,0.244414,16.2511,-0.508145,-0.178677,0.117684,0,0,0,-37.415,3.15,-2.1875,-0.546316,-0.14884,-0.895724,-0.24906,0.10724,0.41146
-0,0,0,15,15,15,15,-0.948384,-0.403579,16.6493,-0.496835,-0.177703,0.117685,0,0,0,-37.415,3.15,-2.1875,-0.546316,-0.14884,-0.895724,-0.24906,0.10724,0.41146
0,0,0,15,15,15,15,-0.969549,-0.324747,16.5904,0.0512689,-0.0487408,-0.0431293,0,0,0,-38.9375,3.0275,-1.995,0.00549,-0.019642,-1.0553,-0.24906,0.10724,0.41146
0,0,0,15,15,15,15,-0.990521,-0.247817,16.532,0.0499262,-0.0491069,-0.0431289,0,0,0,-38.9375,3.0275,-1.995,0.00549,-0.019642,-1.0553,-0.24906,0.10724,0.41146
0,0,0,15,15,15,15,-1.00216,-0.0397778,16.3762,0.135344,-0.0493102,0.0710959,0,0,0,-40.9325,2.5025,-2.24,0.094916,-0.019642,-0.941962,-0.24248,0.11186,0.41076
0,0,0,15,15,15,15,-1.08317,-0.03498,16.3739,0.025559,-0.0791794,-0.119746,1,0,0,-42,2.765,-2.1525,-0.01525,-0.048068,-1.13131,-0.24248,0.11186,0.41076
0,0,0,15,15,15,15,-1.16365,-0.03023,16.3723,0.0254761,-0.0805837,-0.119773,1,0,0,-41.7025,2.73,-1.6975,-0.01525,-0.048068,-1.13131,-0.24248,0.11186,0.41076
0,0,0,15,15,15,15,-1.1488,0.077932,16.2769,0.0744908,-0.0896061,-0.0682535,0,0,0,-41.755,2.765,-1.5575,0.035868,-0.05734,-1.08019,-0.24248,0.11186,0.41076
0,0,0,15,15,15,15,-1.13406,0.184309,16.1823,0.0726342,-0.0893489,-0.0682526,0,0,0,-41.51,3.29,-1.61,0.035868,-0.05734,-1.08019,-0.24248,0.11186,0.41076
-0,0,0,15,15,15,15,-1.00019,0.214852,16.1141,0.00370464,-0.191187,0.0843681,0,0,0,-41.9125,3.535,-1.645,-0.032818,-0.161406,-0.928786,-0.24248,0.11186,0.41076
-0,0,0,15,15,15,15,-0.869018,0.244659,16.0474,0.00318441,-0.188898,0.0844034,0,0,0,-42.0175,3.675,-1.19,-0.032818,-0.161406,-0.928786,-0.24248,0.11186,0.41076
0,0,0,15,15,15,15,-0.873207,0.0458079,16.1579,-0.16549,-0.0961547,-0.0552584,0,0,0,-43.12,3.605,-1.1725,-0.205692,-0.068686,-1.06738,-0.24248,0.11186,0.41076
0,0,0,15,15,15,15,-0.88057,-0.14896,16.262,-0.162091,-0.0962832,-0.0552635,0,0,0,-44.9925,3.5525,-1.47,-0.205692,-0.068686,-1.06738,-0.2436,0.11466,0.40852
0,0,0,15,15,15,15,-0.955898,0.0771671,16.1027,0.145087,0.000225754,0.101969,0,0,0,-45.5875,3.43,-1.715,0.10675,0.029036,-0.91134,-0.2436,0.11466,0.40852
0,0,0,15,15,15,15,-1.03323,0.296689,15.9447,0.141256,-0.00112355,0.101933,0,0,0,-47.145,2.6775,-1.505,0.10675,0.029036,-0.91134,-0.2436,0.11466,0.40852
0,0,0,15,15,15,15,-1.07829,0.013974,16.1117,-0.21195,-0.0643168,0.0265646,0,0,0,-46.8125,2.765,-1.7675,-0.252906,-0.033306,-0.986126,-0.2436,0.11466,0.40852
0,0,0,15,15,15,15,-1.12314,-0.261765,16.2762,-0.207137,-0.0650993,0.0265392,0,0,0,-47.3725,2.7125,-2.3625,-0.252906,-0.033306,-0.986126,-0.2436,0.11466,0.40852
0,0,0,15,15,15,15,-1.2135,-0.256869,16.2731,-0.188271,-0.0721717,0.173554,1,0,0,-47.25,2.835,-2.6075,-0.233874,-0.038796,-0.840214,-0.2436,0.11466,0.40852
0,0,0,15,15,15,15,-1.30246,-0.251269,16.2696,-0.188368,-0.0737239,0.17352,1,0,0,-46.4625,3.255,-2.8175,-0.233874,-0.038796,-0.840214,-0.2436,0.11466,0.40852
0,0,0,15,15,15,15,-1.39194,-0.245779,16.2655,0.294684,-0.161629,-0.0654051,1,0,0,-46.76,3.2025,-3.2025,0.25132,-0.12505,-1.07726,-0.2436,0.11466,0.40852
0,0,0,15,15,15,15,-1.48248,-0.240382,16.2614,0.29459,-0.163209,-0.0654443,1,0,0,-47.355,3.15,-3.1325,0.25132,-0.12505,-1.07726,-0.24472,0.12376,0.40894
-0,0,0,15,15,15,15,-1.37597,-0.260768,16.214,-0.0289349,-0.18663,0.0534917,0,0,0,-48.195,3.5,-2.94,-0.073932,-0.150304,-0.959286,-0.24472,0.12376,0.40894
-0,0,0,15,15,15,15,-1.27394,-0.28037,16.1662,-0.0285928,-0.18485,0.0535312,0,0,0,-49.6475,3.7625,-3.3775,-0.073932,-0.150304,-0.959286,-0.24472,0.12376,0.40894
0,0,0,15,15,15,15,-1.29543,-0.24181,16.1062,0.0199359,-0.0739676,-0.0583572,0,0,0,-50.6625,3.92,-2.9925,-0.024522,-0.039162,-1.07031,-0.24472,0.12376,0.40894
0,0,0,15,15,15,15,-1.31938,-0.20456,16.0469,0.0192858,-0.0743857,-0.0583642,0,0,0,-52.2025,3.6925,-2.8525,-0.024522,-0.039162,-1.07031,-0.24472,0.12376,0.40894
0,0,0,15,15,15,15,-1.34067,0.0503303,15.8416,0.182244,-0.061934,-0.00574492,0,0,0,-52.885,3.3075,-2.905,0.143594,-0.026352,-1.01809,-0.24472,0.12376,0.40894
0,0,0,15,15,15,15,-1.36517,0.299137,15.6382,0.177902,-0.0623611,-0.00576826,0,0,0,-54.4775,3.325,-2.66,0.143594,-0.026352,-1.01809,-0.24472,0.12376,0.40894
0,0,0,15,15,15,15,-1.3417,0.267768,15.6112,-0.0308705,-0.114466,0.0983815,0,0,0,-53.34,3.4475,-2.205,-0.066612,-0.078812,-0.914756,-0.24472,0.12376,0.40894
0,0,0,15,15,15,15,-1.31776,0.236805,15.5767,-0.03033,-0.114049,0.0983936,0,0,0,-52.71,3.815,-2.065,-0.066612,-0.078812,-0.914756,-0.24374,0.12978,0.42042
0,0,0,15,15,15,15,-1.41835,0.244113,15.575,0.0826456,-0.0816082,0.148268,1,0,0,-52.9725,4.235,-1.785,0.04697,-0.044652,-0.865224,-0.24374,0.12978,0.42042
0,0,0,15,15,15,15,-1.51844,0.251166,15.5739,0.0825225,-0.0833544,0.148223,1,0,0,-52.6925,4.0775,-1.4,0.04697,-0.044652,-0.865224,-0.24374,0.12978,0.42042
0,0,0,15,15,15,15,-1.73789,0.184087,15.6173,-0.0509129,0.108097,-0.00335401,0,0,0,-53.5675,4.3925,-1.295,-0.088206,0.150426,-1.01553,-0.24374,0.12978,0.42042
0,0,0,15,15,15,15,-1.95666,0.11845,15.6612,-0.0497673,0.104281,-0.00347407,0,0,0,-55.44,4.1475,-0.9625,-0.088206,0.150426,-1.01553,-0.24374,0.12978,0.42042
-0,0,0,15,15,15,15,-1.75239,-0.0696148,15.7032,-0.148897,-0.296517,0.115288,0,0,0,-56.1225,4.375,-1.015,-0.191052,-0.253516,-0.897798,-0.24374,0.12978,0.42042
-0,0,0,15,15,15,15,-1.55516,-0.25307,15.7441,-0.145696,-0.293076,0.115378,0,0,0,-58.3275,4.5325,-0.7525,-0.191052,-0.253516,-0.897798,-0.24374,0.12978,0.42042
-0,0,0,15,15,15,15,-1.44742,-0.126952,15.5941,0.0802534,-0.213768,-0.0241116,0,0,0,-59.395,4.2525,-0.9275,0.038064,-0.176168,-1.03627,-0.24374,0.12978,0.42042
-0,0,0,15,15,15,15,-1.34297,-0.00580503,15.4358,0.078139,-0.211946,-0.0240648,0,0,0,-59.78,3.8675,-0.945,0.038064,-0.176168,-1.03627,-0.2499,0.13608,0.42
0,0,0,15,15,15,15,-1.40825,0.346389,15.1576,0.266248,-0.0265968,-0.0225121,0,0,0,-59.955,3.6225,-1.1375,0.233142,0.010126,-1.03468,-0.2499,0.13608,0.42
0,0,0,15,15,15,15,-1.47261,0.690135,14.8803,0.260248,-0.0277184,-0.0225946,0,0,0,-59.4825,3.5175,-1.54,0.233142,0.010126,-1.03468,-0.2499,0.13608,0.42
0,0,0,15,15,15,15,-1.58392,0.697349,14.8786,-0.275386,-0.162656,0.150095,1,0,0,-58.975,4.1825,-1.7675,-0.304634,-0.122732,-0.863272,-0.2499,0.13608,0.42
0,0,0,15,15,15,15,-1.69556,0.705371,14.8759,-0.275526,-0.164604,0.150037,1,0,0,-59.15,4.6725,-2.275,-0.304634,-0.122732,-0.863272,-0.2499,0.13608,0.42
0,0,0,15,15,15,15,-1.65542,0.72375,14.7926,0.00247661,-0.149492,-0.00854982,0,0,0,-58.7825,4.935,-2.625,-0.025132,-0.108336,-1.02065,-0.2499,0.13608,0.42
0,0,0,15,15,15,15,-1.62088,0.742306,14.7095,0.00215278,-0.14889,-0.00853673,0,0,0,-61.4775,5.3375,-2.905,-0.025132,-0.108336,-1.02065,-0.2499,0.13608,0.42
0,0,0,15,15,15,15,-1.63492,0.772571,14.6269,0.0145021,-0.106634,-0.0765412,0,0,0,-62.4225,5.075,-3.1675,-0.0122,-0.06588,-1.08812,-0.2499,0.13608,0.42
0,0,0,15,15,15,15,-1.65151,0.801101,14.5449,0.0140042,-0.106924,-0.0765563,0,0,0,-63.945,4.4975,-3.255,-0.0122,-0.06588,-1.08812,-0.2499,0.13608,0.42
0,0,0,15,15,15,15,-1.66179,0.543569,14.6475,-0.196652,-0.127011,0.0348825,0,0,0,-65.1525,4.725,-3.605,-0.228262,-0.085766,-0.977586,-0.24654,0.14224,0.42322
0,0,0,15,15,15,15,-1.78619,0.551101,14.6416,0.231939,-0.103657,0.167354,1,0,0,-66.29,4.445,-4.1825,0.202276,-0.060268,-0.84607,-0.24654,0.14224,0.42322
0,0,0,15,15,15,15,-1.91276,0.557821,14.6359,0.231822,-0.105864,0.167282,1,0,0,-67.515,3.9725,-4.0425,0.202276,-0.060268,-0.84607,-0.24654,0.14224,0.42322
0,0,0,15,15,15,15,-2.10372,0.309635,14.7719,-0.177991,0.0407753,0.0733883,0,0,0,-66.535,4.34,-4.13,-0.213622,0.089548,-0.939156,-0.24654,0.14224,0.42322
0,0,0,15,15,15,15,-2.28988,0.0675606,14.908,-0.173766,0.0375281,0.0732777,0,0,0,-65.905,4.2875,-3.815,-0.213622,0.089548,-0.939156,-0.24654,0.14224,0.42322
0,0,0,15,15,15,15,-2.41376,0.0755006,14.9026,-0.339976,-0.0913996,-0.0690626,1,0,0,-66.0275,4.7075,-3.815,-0.380396,-0.037088,-1.08031,-0.24654,0.14224,0.42322
0,0,0,15,15,15,15,-2.53988,0.0848418,14.898,-0.340139,-0.0935988,-0.069158,1,0,0,-67.2875,5.5125,-3.2725,-0.380396,-0.037088,-1.08031,-0.24654,0.14224,0.42322
-0,0,0,15,15,15,15,-2.43825,0.109531,14.7981,0.00372055,-0.224701,0.0124332,0,0,0,-67.9175,5.6175,-2.8,-0.034648,-0.169824,-0.999424,-0.24654,0.14224,0.42322
-0,0,0,15,15,15,15,-2.34293,0.132064,14.6896,0.00332727,-0.223038,0.0125017,0,0,0,-70.0875,5.9325,-2.4325,-0.034648,-0.169824,-0.999424,-0.24962,0.14882,0.42182
0,0,0,15,15,15,15,-2.37723,0.237331,14.5512,0.0757178,-0.0983343,-0.0938793,0,0,0,-71.505,5.4775,-1.9775,0.039894,-0.044652,-1.10495,-0.24962,0.14882,0.42182
0,0,0,15,15,15,15,-2.4149,0.339851,14.4138,0.0739285,-0.0989908,-0.0939158,0,0,0,-73.57,5.39,-2.1175,0.039894,-0.044652,-1.10495,-0.24962,0.14882,0.42182
0,0,0,15,15,15,15,-2.55358,0.348671,14.4117,-0.0183116,-0.0532908,0.125933,1,0,0,-74.3225,5.145,-1.8375,-0.052582,0.003416,-0.886696,-0.24962,0.14882,0.42182
0,0,0,15,15,15,15,-2.69334,0.356479,14.4105,-0.0184479,-0.0557275,0.125821,1,0,0,-74.935,4.5325,-1.365,-0.052582,0.003416,-0.886696,-0.24962,0.14882,0.42182
0,0,0,15,15,15,15,-2.81612,-0.018509,14.6221,-0.268724,-0.0441907,0.102008,0,0,0,-74.515,4.83,-1.645,-0.31049,0.01708,-0.910242,-0.24962,0.14882,0.42182
0,0,0,15,15,15,15,-2.93529,-0.383473,14.8314,-0.262354,-0.0462668,0.101881,0,0,0,-73.885,5.32,-2.0475,-0.31049,0.01708,-0.910242,-0.24962,0.14882,0.42182
0,0,0,15,15,15,15,-3.03754,-0.505557,14.8731,-0.0975541,-0.0447507,0.024929,0,0,0,-73.4475,5.46,-1.89,-0.147132,0.020374,-0.986492,-0.24962,0.14882,0.42182
0,0,0,15,15,15,15,-3.13784,-0.622963,14.9104,-0.095505,-0.0464974,0.0248146,0,0,0,-73.605,5.88,-1.9425,-0.147132,0.020374,-0.986492,-0.24108,0.15302,0.42462
0,0,0,15,15,15,15,-3.15515,-0.411656,14.6993,0.153133,-0.11165,-0.0164794,0,0,0,-74.6025,5.915,-2.2225,0.106262,-0.044408,-1.02748,-0.24108,0.15302,0.42462
0,0,0,15,15,15,15,-3.17797,-0.205265,14.4902,0.149531,-0.112049,-0.0164821,0,0,0,-77.525,6.0025,-2.065,0.106262,-0.044408,-1.02748,-0.24108,0.15302,0.42462
0,0,0,15,15,15,15,-3.32371,-0.195154,14.4876,-0.301358,-0.200199,-0.0757639,1,0,0,-78.295,5.9325,-2.0825,-0.346358,-0.12993,-1.08617,-0.24108,0.15302,0.42462
0,0,0,15,15,15,15,-3.47469,-0.185067,14.4846,-0.301534,-0.20283,-0.0759196,1,0,0,-81.235,5.9325,-2.24,-0.346358,-0.12993,-1.08617,-0.24108,0.15302,0.42462
-0,0,0,15,15,15,15,-3.31457,-0.232262,14.4118,-0.046319,-0.295787,0.103748,0,0,0,-82.7575,5.3375,-2.38,-0.09089,-0.225578,-0.908046,-0.24108,0.15302,0.42462
-0,0,0,15,15,15,15,-3.15877,-0.27915,14.3392,-0.0455006,-0.293072,0.103898,0,0,0,-83.7025,4.9175,-2.6425,-0.09089,-0.225578,-0.908046,-0.24108,0.15302,0.42462
0,0,0,15,15,15,15,-3.21552,-0.127283,14.1708,0.0973887,-0.0887667,0.0951226,0,0,0,-84.0875,4.655,-2.66,0.055266,-0.020496,-0.916708,-0.24108,0.15302,0.42462
0,0,0,15,15,15,15,-3.26974,0.0208974,13.9852,0.0948024,-0.0897118,0.0950714,0,0,0,-82.81,5.39,-2.625,0.055266,-0.020496,-0.916708,-0.24388,0.16548,0.42644
0,0,0,15,15,15,15,-3.30437,0.299104,13.7043,0.21204,-0.108023,-0.0239909,0,0,0,-82.355,5.7925,-2.555,0.177876,-0.038186,-1.0348,-0.24388,0.16548,0.42644
0,0,0,15,15,15,15,-3.3391,0.571454,13.4259,0.207287,-0.108626,-0.0240621,0,0,0,-82.3025,6.2475,-2.3275,0.177876,-0.038186,-1.0348,-0.24388,0.16548,0.42644
0,0,0,15,15,15,15,-3.49244,0.583179,13.4223,-0.296962,-0.146592,-0.189589,1,0,0,-82.53,6.9125,-2.555,-0.328302,-0.073444,-1.19889,-0.24388,0.16548,0.42644
0,0,0,15,15,15,15,-3.65034,0.59559,13.4188,-0.297179,-0.149342,-0.189763,1,0,0,-85.085,7.315,-2.45,-0.328302,-0.073444,-1.19889,-0.24388,0.16548,0.42644
0,0,0,15,15,15,15,-3.81061,0.608186,13.4151,-0.170081,-0.384174,-0.074253,1,0,0,-86.415,7.4375,-2.5725,-0.200446,-0.305244,-1.08409,-0.24388,0.16548,0.42644
0,0,0,15,15,15,15,-3.97619,0.61928,13.4113,-0.170275,-0.387057,-0.0744512,1,0,0,-89.39,6.5625,-2.59,-0.200446,-0.305244,-1.08409,-0.24388,0.16548,0.42644
-0,0,0,15,15,15,15,-3.8498,1.18344,12.8906,0.415524,-0.273344,0.137385,0,0,0,-91.0875,6.16,-2.8525,0.39772,-0.193858,-0.873886,-0.24388,0.16548,0.42644
-0,0,0,15,15,15,15,-3.73074,1.73619,12.3702,0.40588,-0.271255,0.137277,0,0,0,-93.1875,5.88,-3.4475,0.39772,-0.193858,-0.873886,-0.24948,0.1701,0.427
0,0,0,15,15,15,15,-3.90308,1.74561,12.3651,-0.0322404,-0.0456331,0.182563,1,0,0,-93.1175,5.635,-3.4125,-0.04209,0.034526,-0.828746,-0.24948,0.1701,0.427
0,0,0,15,15,15,15,-4.07479,1.75492,12.3594,-0.0324027,-0.0486209,0.18235,1,0,0,-92.75,5.6,-3.7975,-0.04209,0.034526,-0.828746,-0.24948,0.1701,0.427
0,0,0,15,15,15,15,-3.96853,1.27689,12.5709,-0.37054,-0.310092,0.0872917,0,0,0,-92.3825,5.845,-4.165,-0.390034,-0.228506,-0.923418,-0.24948,0.1701,0.427
-0,0,0,15,15,15,15,-3.86172,0.810267,12.7771,-0.362397,-0.308243,0.087567,0,0,0,-91.385,5.8975,-4.34,-0.390034,-0.228506,-0.923418,-0.24948,0.1701,0.427
-0,0,0,15,15,15,15,-3.72027,0.997658,12.5104,0.1419,-0.314692,-0.00121307,0,0,0,-91.6125,6.3175,-4.6025,0.119682,-0.237412,-1.01162,-0.24948,0.1701,0.427
-0,0,0,15,15,15,15,-3.5869,1.18107,12.2474,0.1387,-0.312365,-0.0011255,0,0,0,-94.535,6.65,-4.515,0.119682,-0.237412,-1.01162,-0.24948,0.1701,0.427
0,0,0,15,15,15,15,-3.59173,0.947206,12.3052,-0.184988,-0.18874,0.0183707,0,0,0,-96.495,6.9825,-4.1825,-0.209474,-0.113826,-0.992348,-0.24948,0.1701,0.427
0,0,0,15,15,15,15,-3.6036,0.719694,12.3616,-0.181017,-0.18895,0.0184154,0,0,0,-100.678,7.28,-4.3225,-0.209474,-0.113826,-0.992348,-0.24948,0.1701,0.427
0,0,0,15,15,15,15,-3.79217,0.731491,12.3547,-0.158506,-0.431114,-0.0582734,1,0,0,-102.253,7.0875,-4.4275,-0.18666,-0.352458,-1.06823,-0.2492,0.18634,0.43652
0,0,0,15,15,15,15,-3.98323,0.741923,12.3483,0.225815,-0.162831,0.264976,1,0,0,-103.653,6.2825,-4.1825,0.19947,-0.08113,-0.74725,-0.2492,0.18634,0.43652
0,0,0,15,15,15,15,-4.17628,0.752113,12.3425,0.225637,-0.166191,0.264734,1,0,0,-104.773,6.125,-3.7975,0.19947,-0.08113,-0.74725,-0.2492,0.18634,0.43652
0,0,0,15,15,15,15,-4.36638,0.762965,12.3378,0.145145,-0.288206,0.16133,1,0,0,-103.128,6.475,-3.115,0.118828,-0.199714,-0.849608,-0.2492,0.18634,0.43652
0,0,0,15,15,15,15,-4.55431,0.775431,12.3344,0.144928,-0.291476,0.161072,1,0,0,-101.92,7.3675,-2.2925,0.118828,-0.199714,-0.849608,-0.2492,0.18634,0.43652
0,0,0,15,15,15,15,-4.7359,0.788587,12.3315,0.049089,-0.318571,-0.138813,1,0,0,-98.3675,7.7525,-1.96,0.022814,-0.223626,-1.14692,-0.2492,0.18634,0.43652
0,0,0,15,15,15,15,-4.91859,0.803961,12.3282,0.0488207,-0.321748,-0.139085,1,0,0,-98.98,9.065,-1.995,0.022814,-0.223626,-1.14692,-0.2492,0.18634,0.43652
0,0,0,15,15,15,15,-5.10396,0.81935,12.3252,0.122901,-0.230688,-0.110601,1,0,0,-100.485,9.065,-1.82,0.097478,-0.129442,-1.11837,-0.2492,0.18634,0.43652
0,0,0,15,15,15,15,-5.29291,0.834157,12.3231,0.122643,-0.233972,-0.110904,1,0,0,-102.498,8.68,-1.295,0.097478,-0.129442,-1.11837,-0.25424,0.19852,0.42938
0,0,0,15,15,15,15,-5.4906,0.848547,12.3208,-0.231375,-0.509138,-0.0802487,1,0,0,-107.398,8.4525,-1.435,-0.257786,-0.400892,-1.08763,-0.25424,0.19852,0.42938
0,0,0,15,15,15,15,-5.69471,0.861762,12.3175,-0.231605,-0.512683,-0.0805992,1,0,0,-110.985,7.8225,-2.0125,-0.257786,-0.400892,-1.08763,-0.25424,0.19852,0.42938
0,0,0,15,15,15,15,-5.78967,0.342305,12.579,-0.415702,-0.155533,0.0676056,0,0,0,-115.08,7.4025,-2.0125,-0.451766,-0.042456,-0.940498,-0.25424,0.19852,0.42938
0,0,0,15,15,15,15,-5.8853,-0.166428,12.8362,-0.406823,-0.157195,0.0674494,0,0,0,-116.498,6.58,-2.73,-0.451766,-0.042456,-0.940498,-0.25424,0.19852,0.42938
0,0,0,15,15,15,15,-5.99611,0.140359,12.4987,0.220034,-0.0965895,0.0780699,0,0,0,-116.638,6.5275,-3.1325,0.183122,0.020008,-0.929762,-0.25424,0.19852,0.42938
0,0,0,15,15,15,15,-6.10392,0.440206,12.1627,0.214801,-0.0984578,0.0778452,0,0,0,-115.5,6.8425,-3.4475,0.183122,0.020008,-0.929762,-0.25424,0.19852,0.42938
-0,0,0,15,15,15,15,-5.67091,0.803991,11.6823,0.308192,-0.681783,0.185025,0,0,0,-112.403,7.42,-3.675,0.283284,-0.570228,-0.82411,-0.25424,0.19852,0.42938
-0,0,0,15,15,15,15,-5.24403,1.15171,11.199,0.302124,-0.674357,0.185631,0,0,0,-111.02,8.47,-4.165,0.283284,-0.570228,-0.82411,-0.25592,0.21126,0.43134
0,0,0,15,15,15,15,-5.45276,1.16653,11.1916,-0.142772,-0.461208,-0.0737666,1,0,0,-113.523,8.9775,-4.34,-0.163236,-0.353678,-1.08116,-0.25592,0.21126,0.43134
0,0,0,15,15,15,15,-5.66618,1.18161,11.1838,-0.143035,-0.464914,-0.0741328,1,0,0,-116.148,9.17,-4.5325,-0.163236,-0.353678,-1.08116,-0.25592,0.21126,0.43134
-0,0,0,15,15,15,15,-5.41793,1.41654,10.8022,0.199343,-0.485996,0.0802475,0,0,0,-120.75,8.785,-4.7075,0.184708,-0.379054,-0.928298,-0.25592,0.21126,0.43134
-0,0,0,15,15,15,15,-5.17667,1.64451,10.4268,0.195365,-0.481795,0.0805303,0,0,0,-122.343,7.77,-4.76,0.184708,-0.379054,-0.928298,-0.25592,0.21126,0.43134
0,0,0,15,15,15,15,-5.40821,1.65737,10.4186,-0.0405412,-0.130795,0.206665,1,0,0,-126.263,7.875,-4.97,-0.051972,-0.0244,-0.80276,-0.25592,0.21126,0.43134
0,0,0,15,15,15,15,-5.64126,1.67011,10.4101,-0.0407636,-0.134841,0.206267,1,0,0,-127.103,7.84,-5.0575,-0.051972,-0.0244,-0.80276,-0.25592,0.21126,0.43134
0,0,0,15,15,15,15,-5.87103,1.68293,10.4018,-0.0307824,-0.148599,0.335938,1,0,0,-125.265,7.8925,-4.9525,-0.041724,-0.03416,-0.673684,-0.25592,0.21126,0.43134
0,0,0,15,15,15,15,-6.09823,1.69521,10.3948,-0.0309966,-0.15254,0.335519,1,0,0,-123.848,7.5075,-4.13,-0.041724,-0.03416,-0.673684,-0.25578,0.2303,0.43498
0,0,0,15,15,15,15,-5.93833,1.56783,10.2606,-0.0773686,-0.395736,0.0554288,0,0,0,-120.68,7.8925,-4.235,-0.090524,-0.279868,-0.951966,-0.25578,0.2303,0.43498
0,0,0,15,15,15,15,-5.78183,1.44703,10.1262,-0.075261,-0.393025,0.0557627,0,0,0,-121.345,9.765,-4.3225,-0.090524,-0.279868,-0.951966,-0.25578,0.2303,0.43498
-0,0,0,15,15,15,15,-5.53174,1.17542,10.0944,-0.201605,-0.545748,0.0238424,0,0,0,-124.828,10.2725,-3.9025,-0.222162,-0.43676,-0.984174,-0.25578,0.2303,0.43498
-0,0,0,15,15,15,15,-5.28748,0.910781,10.061,-0.196987,-0.541513,0.0243279,0,0,0,-126.315,10.2725,-3.4125,-0.222162,-0.43676,-0.984174,-0.25578,0.2303,0.43498
0,0,0,15,15,15,15,-5.52719,0.92774,10.0548,0.470403,-0.44077,-0.00902118,1,0,0,-130.918,10.1675,-3.57,0.44835,-0.331962,-1.01687,-0.25578,0.2303,0.43498
0,0,0,15,15,15,15,-5.78084,0.942859,10.0492,0.470139,-0.445174,-0.00946157,1,0,0,-138.74,9.065,-3.22,0.44835,-0.331962,-1.01687,-0.25578,0.2303,0.43498
0,0,0,15,15,15,15,-5.88417,0.357601,10.3256,-0.499794,-0.203704,0.0216994,0,0,0,-140.298,8.785,-3.43,-0.535946,-0.088938,-0.985882,-0.25578,0.2303,0.43498
0,0,0,15,15,15,15,-5.98896,-0.217032,10.5842,-0.489765,-0.205524,0.0215225,0,0,0,-142.03,7.7175,-3.71,-0.535946,-0.088938,-0.985882,-0.25242,0.24108,0.43484
0,0,0,15,15,15,15,-5.96418,-0.0731669,10.2746,0.119162,-0.28179,0.0622698,0,0,0,-142.013,7.63,-3.5875,0.07808,-0.165554,-0.9455,-0.25242,0.24108,0.43484
0,0,0,15,15,15,15,-5.93681,0.0681943,9.96835,0.116695,-0.281315,0.0623194,0,0,0,-140.158,8.2425,-3.5,0.07808,-0.165554,-0.9455,-0.25242,0.24108,0.43484
-0,0,0,15,15,15,15,-5.76237,0.0756155,9.73506,0.0281237,-0.443035,0.0563592,0,0,0,-137.97,8.89,-3.745,-0.010736,-0.330132,-0.951722,-0.25242,0.24108,0.43484
-0,0,0,15,15,15,15,-5.58989,0.0852941,9.503,0.0279548,-0.44004,0.0566567,0,0,0,-137.62,10.2025,-4.3925,-0.010736,-0.330132,-0.951722,-0.25242,0.24108,0.43484
0,0,0,15,15,15,15,-5.8411,0.103693,9.49516,0.0249609,-0.560178,-0.170497,1,0,0,-137.41,11.1125,-4.34,-0.01342,-0.445788,-1.17669,-0.25242,0.24108,0.43484
0,0,0,15,15,15,15,-6.09158,0.123371,9.48717,0.0246175,-0.564526,-0.170953,1,0,0,-137.008,11.8825,-4.305,-0.01342,-0.445788,-1.17669,-0.25242,0.24108,0.43484
0,0,0,15,15,15,15,-5.97617,0.56611,8.95576,0.392767,-0.405586,0.0378565,0,0,0,-141.68,11.025,-4.0775,0.364048,-0.289018,-0.969656,-0.25242,0.24108,0.43484
0,0,0,15,15,15,15,-5.87694,0.998085,8.43035,0.385228,-0.403852,0.037933,0,0,0,-149.17,10.71,-5.0225,0.364048,-0.289018,-0.969656,-0.25242,0.24108,0.43484
0,0,0,15,15,15,15,-6.15194,1.01456,8.42138,-0.363897,-0.274407,0.238323,1,0,0,-150.675,10.08,-5.0575,-0.38796,-0.15494,-0.770308,-0.25256,0.25788,0.43862
0,0,0,15,15,15,15,-6.42889,1.02918,8.41386,-0.364152,-0.279211,0.237789,1,0,0,-151.778,8.925,-4.2875,-0.38796,-0.15494,-0.770308,-0.25256,0.25788,0.43862
0,0,0,15,15,15,15,-6.70573,1.04351,8.40751,-0.133093,-0.161028,0.177356,1,0,0,-151.725,8.6975,-3.5875,-0.155672,-0.032086,-0.829722,-0.25256,0.25788,0.43862
0,0,0,15,15,15,15,-6.98257,1.05781,8.40109,-0.133343,-0.165824,0.176776,1,0,0,-151.725,8.6975,-3.5875,-0.155672,-0.032086,-0.829722,-0.25256,0.25788,0.43862
-0,0,0,15,15,15,15,-6.79128,1.15401,8.07478,0.127145,-0.518627,-0.00641831,0,0,0,-150.133,8.995,-3.745,0.107604,-0.387838,-1.01187,-0.25256,0.25788,0.43862
-0,0,0,15,15,15,15,-6.60273,1.24837,7.75275,0.125498,-0.515356,-0.0060689,0,0,0,-150.133,8.995,-3.745,0.107604,-0.387838,-1.01187,-0.25256,0.25788,0.43862
0,0,0,15,15,15,15,-6.87841,1.26787,7.74628,3.5315,-1.45465,1.95328,1,0,0,-151.06,11.725,-3.2725,3.52836,-1.32138,0.932934,-0.25256,0.25788,0.43862
0,0,0,15,15,15,15,-7.15409,1.28735,7.73972,3.53116,-1.45942,1.95269,1,0,0,-151.06,11.725,-3.2725,3.52836,-1.32138,0.932934,-0.25256,0.25788,0.43862
-0,0,0,15,15,15,15,-6.54578,1.49289,7.3368,0.232877,-0.958165,0.608686,0,0,0,-156.888,15.0675,-3.36,0.219722,-0.831186,-0.401868,-0.26026,0.27104,0.43512
0,0,0,15,15,15,15,-6.83943,1.51414,7.32924,-0.486689,0.438396,-0.255757,1,0,0,-161.105,12.81,-3.7975,-0.502518,0.569008,-1.25904,-0.26026,0.27104,0.43512
0,0,0,15,15,15,15,-7.14426,1.53455,7.32042,-0.487045,0.433118,-0.256414,1,0,0,-167.353,12.425,-4.515,-0.502518,0.569008,-1.25904,-0.26026,0.27104,0.43512
0,0,0,15,15,15,15,-7.44302,1.55215,7.31325,-1.79818,-0.151665,-0.436711,1,0,0,-163.975,10.6925,-3.71,-1.8189,-0.010004,-1.43728,-0.26026,0.27104,0.43512
0,0,0,15,15,15,15,-7.73332,1.57429,7.30664,-1.79857,-0.156684,-0.437391,1,0,0,-159.233,13.3,-2.975,-1.8189,-0.010004,-1.43728,-0.26026,0.27104,0.43512
0,0,0,15,15,15,15,-8.02047,1.5974,7.29969,-0.49786,-0.624871,0.118745,1,0,0,-157.465,13.895,-3.0275,-0.512278,-0.47275,-0.884744,-0.26026,0.27104,0.43512
0,0,0,15,15,15,15,-8.29994,1.62055,7.29171,-0.498264,-0.629696,0.118042,1,0,0,-153.143,14.0175,-3.5525,-0.512278,-0.47275,-0.884744,-0.26026,0.27104,0.43512
0,0,0,15,15,15,15,-8.576,1.64426,7.28447,0.508803,-0.619681,0.0967913,1,0,0,-151.235,14.2975,-3.01,0.499468,-0.457988,-0.905118,-0.26026,0.27104,0.43512
0,0,0,15,15,15,15,-8.85184,1.67182,7.28052,0.508322,-0.624436,0.0960485,1,0,0,-151.165,16.24,-0.7,0.499468,-0.457988,-0.905118,-0.25704,0.29148,0.43442
0,0,0,15,15,15,15,-9.13207,1.69948,7.27679,0.412716,-0.84506,0.0615825,1,0,0,-153.633,16.275,-0.49,0.403942,-0.673562,-0.938546,-0.25704,0.29148,0.43442
0,0,0,15,15,15,15,-9.43192,1.72591,7.27256,0.412255,-0.850221,0.0607251,1,0,0,-164.623,15.61,-0.805,0.403942,-0.673562,-0.938546,-0.25704,0.29148,0.43442
0,0,0,15,15,15,15,-9.73817,1.74646,7.27065,-0.958462,-0.624057,-0.217178,1,0,0,-168.245,11.9875,0.035,-0.972218,-0.442372,-1.21341,-0.25704,0.29148,0.43442
0,0,0,15,15,15,15,-10.0572,1.76396,7.27138,-0.958767,-0.629538,-0.218144,1,0,0,-175.473,9.9575,1.3125,-0.972218,-0.442372,-1.21341,-0.25704,0.29148,0.43442
-0,0,0,15,15,15,15,-9.75374,1.69147,7.01719,0.0217934,-0.642282,0.183985,0,0,0,-176.05,9.1,1.3825,0.011224,-0.460306,-0.815326,-0.25704,0.29148,0.43442
-0,0,0,15,15,15,15,-9.44988,1.62156,6.76155,0.023013,-0.637061,0.184904,0,0,0,-173.933,9.38,-0.595,0.011224,-0.460306,-0.815326,-0.25704,0.29148,0.43442
0,0,0,15,15,15,15,-9.76493,1.63713,6.75849,3.16096,-1.78412,1.52227,1,0,0,-173.163,9.2225,-1.1025,3.16273,-1.60076,0.512644,-0.25704,0.29148,0.43442
0,0,0,15,15,15,15,-10.0667,1.65467,6.75354,3.16065,-1.7893,1.52136,1,0,0,-165.69,10.5525,-1.9425,3.16273,-1.60076,0.512644,-0.259,0.3213,0.42798
-0,0,0,15,15,15,15,-9.52392,0.945251,7.05902,-0.486603,-1.08512,0.72986,0,0,0,-162.698,16.8175,-3.22,-0.5124,-0.906582,-0.274622,-0.259,0.3213,0.42798
-0,0,0,15,15,15,15,-8.98234,0.245808,7.34364,-0.474396,-1.07581,0.731505,0,0,0,-162.418,18.2525,-4.7075,-0.5124,-0.906582,-0.274622,-0.259,0.3213,0.42798
0,0,0,15,15,15,15,-9.28675,0.272426,7.33062,-1.00709,-0.824955,0.222021,1,0,0,-167.213,16.5375,-5.8975,-1.04688,-0.650748,-0.779336,-0.259,0.3213,0.42798
0,0,0,15,15,15,15,-9.61272,0.296507,7.31792,-1.00751,-0.830567,0.221085,1,0,0,-179.305,15.0675,-5.8625,-1.04688,-0.650748,-0.779336,-0.259,0.3213,0.42798
0,0,0,15,15,15,15,-9.94112,0.31556,7.3029,1.73567,-0.404253,1.05358,1,0,0,-180.653,12.425,-7.6125,1.70824,-0.219234,0.047702,-0.259,0.3213,0.42798
0,0,0,15,15,15,15,-10.2693,0.332953,7.28795,1.73537,-0.409892,1.05257,1,0,0,-180.548,11.4975,-7.665,1.70824,-0.219234,0.047702,-0.259,0.3213,0.42798
0,0,0,15,15,15,15,-10.5927,0.348247,7.27551,-0.0387138,-0.933504,0.716759,1,0,0,-177.853,10.0625,-6.3875,-0.073078,-0.736758,-0.284504,-0.259,0.3213,0.42798
0,0,0,15,15,15,15,-10.9226,0.365354,7.26137,-0.0390124,-0.93916,0.715683,1,0,0,-181.475,11.3225,-7.105,-0.073078,-0.736758,-0.284504,-0.25858,0.33544,0.42798
0,0,0,15,15,15,15,-11.2487,0.385981,7.24795,0.917813,0.582084,-0.440638,1,0,0,-179.34,13.3,-6.23,0.88816,0.788486,-1.43082,-0.25858,0.33544,0.42798
0,0,0,15,15,15,15,-11.5517,0.410757,7.2339,0.917381,0.5769,-0.441686,1,0,0,-166.443,15.785,-6.0375,0.88816,0.788486,-1.43082,-0.25858,0.33544,0.42798
0,0,0,15,15,15,15,-11.845,0.440726,7.22277,-1.04392,0.0979144,-0.8969,1,0,0,-160.965,18.445,-3.675,-1.08092,0.315004,-1.88148,-0.25858,0.33544,0.42798
0,0,0,15,15,15,15,-12.1385,0.473822,7.2121,-1.0445,0.0929052,-0.897969,1,0,0,-161.07,20.195,-2.94,-1.08092,0.315004,-1.88148,-0.25858,0.33544,0.42798
0,0,0,15,15,15,15,-12.4335,0.507238,7.20523,-2.09362,-0.180926,-0.862185,1,0,0,-161.963,19.915,-0.63,-2.1339,0.046482,-1.84488,-0.25858,0.33544,0.42798
0,0,0,15,15,15,15,-12.7231,0.538786,7.20108,-2.09418,-0.185857,-0.86329,1,0,0,-158.883,18.4975,0.7875,-2.1339,0.046482,-1.84488,-0.25858,0.33544,0.42798
0,0,0,15,15,15,15,-13.0037,0.571777,7.20011,0.239839,-0.974684,-0.867951,1,0,0,-153.93,18.9,2.87,0.210572,-0.736758,-1.84842,-0.25858,0.33544,0.42798
0,0,0,15,15,15,15,-13.2852,0.605014,7.20307,0.239259,-0.979466,-0.869074,1,0,0,-154.385,18.4975,5.2325,0.210572,-0.736758,-1.84842,-0.26012,0.3521,0.42924
0,0,0,15,15,15,15,-13.5626,0.639425,7.20519,0.904643,-0.544884,-0.213537,1,0,0,-152.145,19.25,5.005,0.879376,-0.297924,-1.19682,-0.26012,0.3521,0.42924
0,0,0,15,15,15,15,-13.8215,0.661757,7.21572,0.904253,-0.549272,-0.21461,1,0,0,-141.768,11.1825,8.19,0.879376,-0.297924,-1.19682,-0.26012,0.3521,0.42924
0,0,0,15,15,15,15,-14.0748,0.688084,7.22915,0.316897,-1.37364,-0.164289,1,0,0,-138.705,13.0025,10.4475,0.289994,-1.11715,-1.14582,-0.26012,0.3521,0.42924
0,0,0,15,15,15,15,-14.3084,0.722946,7.24419,0.316288,-1.37759,-0.165295,1,0,0,-127.628,17.57,12.635,0.289994,-1.11715,-1.14582,-0.26012,0.3521,0.42924
0,0,0,15,15,15,15,-14.5378,0.763933,7.25904,0.0859649,-0.489578,-0.22876,1,0,0,-125.353,21.0175,13.4925,0.059414,-0.226188,-1.2078,-0.26012,0.3521,0.42924
0,0,0,15,15,15,15,-14.7499,0.799956,7.28017,0.0853363,-0.493157,-0.229704,1,0,0,-115.658,17.22,16.38,0.059414,-0.226188,-1.2078,-0.26012,0.3521,0.42924
0,0,0,15,15,15,15,-14.9534,0.829896,7.30311,-0.154635,-1.22788,0.133798,1,0,0,-110.828,13.44,16.555,-0.181048,-0.956724,-0.846192,-0.26012,0.3521,0.42924
0,0,0,15,15,15,15,-15.155,0.862592,7.3252,-0.155205,-1.23128,0.132876,1,0,0,-109.813,15.0675,16.5375,-0.181048,-0.956724,-0.846192,-0.26012,0.3521,0.42924
0,0,0,15,15,15,15,-15.3503,0.898355,7.34769,-0.11416,-1.44145,0.0907825,1,0,0,-106.278,16.6775,17.29,-0.139202,-1.16339,-0.887062,-0.2709,0.36946,0.42322
0,0,0,15,15,15,15,-15.5483,0.934609,7.37122,-0.112849,-0.70847,-0.148053,1,0,0,-107.748,16.73,18.0075,-0.13725,-0.427854,-1.12313,-0.2709,0.36946,0.42322
0,0,0,15,15,15,15,-15.7397,0.963023,7.3998,-0.113344,-0.711685,-0.148961,1,0,0,-104.178,11.445,19.67,-0.13725,-0.427854,-1.12313,-0.2709,0.36946,0.42322
0,0,0,15,15,15,15,-15.9241,0.986103,7.43061,-0.317114,-1.18216,0.391496,1,0,0,-100.258,8.015,20.1075,-0.341478,-0.894748,-0.585966,-0.2709,0.36946,0.42322
0,0,0,15,15,15,15,-16.0933,1.00555,7.46145,-0.317454,-1.18499,0.390676,1,0,0,-91.7525,5.8975,19.565,-0.341478,-0.894748,-0.585966,-0.2709,0.36946,0.42322
-0,0,0,15,15,15,15,-15.3535,1.0883,7.10375,0.268364,-1.13348,0.66648,0,0,0,-86.31,7.6825,19.0225,0.24827,-0.855708,-0.315736,-0.2709,0.36946,0.42322
-0,0,0,15,15,15,15,-14.5986,1.17256,6.74585,0.266894,-1.12075,0.669856,0,0,0,-78.365,8.295,16.52,0.24827,-0.855708,-0.315736,-0.2709,0.36946,0.42322
0,0,0,15,15,15,15,-14.7292,1.18896,6.76984,-0.0281165,-0.825695,0.319116,1,0,0,-70.105,5.67,15.1025,-0.047702,-0.55876,-0.663192,-0.2709,0.36946,0.42322
0,0,0,15,15,15,15,-14.8371,1.19584,6.7939,-0.0282365,-0.827514,0.318634,1,0,0,-57.3125,0.2275,13.7375,-0.047702,-0.55876,-0.663192,-0.26796,0.38612,0.4249
0,0,0,15,15,15,15,-14.9369,1.20171,6.81727,-0.0760828,-0.645396,0.872682,1,0,0,-52.8325,-0.2625,13.195,-0.095648,-0.37515,-0.112972,-0.26796,0.38612,0.4249
0,0,0,15,15,15,15,-15.0309,1.21324,6.83912,-0.0762841,-0.646979,0.872254,1,0,0,-49.525,3.15,13.195,-0.095648,-0.37515,-0.112972,-0.26796,0.38612,0.4249
0,0,0,15,15,15,15,-15.1191,1.22289,6.8607,-0.0341754,-1.86704,0.574192,1,0,0,-46.2875,2.1,12.7575,-0.053192,-1.59247,-0.408334,-0.26796,0.38612,0.4249
0,0,0,15,15,15,15,-15.2124,1.22877,6.8808,-0.034278,-1.86862,0.573764,1,0,0,-49.1225,0.175,11.3575,-0.053192,-1.59247,-0.408334,-0.26796,0.38612,0.4249
0,0,0,15,15,15,15,-15.3091,1.23279,6.90098,-0.529402,-1.31554,0.705119,1,0,0,-51.0475,-0.91,11.1125,-0.550342,-1.03834,-0.27755,-0.26796,0.38612,0.4249
0,0,0,15,15,15,15,-15.3961,1.23184,6.91795,-0.529386,-1.31701,0.704717,1,0,0,-45.5875,-3.2375,8.54,-0.550342,-1.03834,-0.27755,-0.26796,0.38612,0.4249
0,0,0,15,15,15,15,-15.4784,1.2296,6.93342,-0.0403668,-1.28102,0.50393,1,0,0,-42.875,-3.745,7.49,-0.059292,-1.00101,-0.47641,-0.26796,0.38612,0.4249
0,0,0,15,15,15,15,-15.5449,1.23306,6.94109,-0.0404272,-1.28214,0.503618,1,0,0,-33.95,0.6825,3.99,-0.059292,-1.00101,-0.47641,-0.27272,0.3829,0.4235
0,0,0,15,15,15,15,-15.5991,1.23779,6.94492,-0.0515648,-1.7878,0.221196,1,0,0,-27.0375,1.995,2.03,-0.070394,-1.50524,-0.7564,-0.27272,0.3829,0.4235
0,0,0,15,15,15,15,-15.6443,1.23744,6.94733,-0.0515587,-1.78856,0.220984,1,0,0,-21.9275,-0.6475,0.4375,-0.070394,-1.50524,-0.7564,-0.27272,0.3829,0.4235
0,0,0,15,15,15,15,-15.682,1.23696,6.94772,-0.118975,-1.77148,0.636495,1,0,0,-17.7275,-0.4025,-0.7175,-0.138104,-1.48755,-0.343918,-0.27272,0.3829,0.4235
0,0,0,15,15,15,15,-15.7147,1.2374,6.94401,-0.118983,-1.77203,0.63634,1,0,0,-14.91,0.77,-2.87,-0.138104,-1.48755,-0.343918,-0.27272,0.3829,0.4235
0,0,0,15,15,15,15,-15.7451,1.23842,6.93968,-0.0332315,-1.81309,0.361529,1,0,0,-13.58,1.19,-3.1325,-0.051972,-1.52805,-0.616466,-0.27272,0.3829,0.4235
0,0,0,15,15,15,15,-15.7718,1.23892,6.93288,-0.0332403,-1.81354,0.361403,1,0,0,-11.445,1.295,-4.6025,-0.051972,-1.52805,-0.616466,-0.27272,0.3829,0.4235
0,0,0,15,15,15,15,-15.7937,1.23469,6.92594,-0.433705,-1.58968,-0.0466432,1,0,0,-8.8025,-1.3475,-5.425,-0.454206,-1.30406,-1.02126,-0.27272,0.3829,0.4235
0,0,0,15,15,15,15,-15.8074,1.23241,6.916,-0.433665,-1.58991,-0.0467073,1,0,0,-4.13,0.2275,-6.8075,-0.454206,-1.30406,-1.02126,-0.26838,0.38556,0.4256
0,0,0,15,15,15,15,-15.815,1.2308,6.90736,0.0546141,-1.87765,0.281038,1,0,0,-0.7175,0.4025,-5.9675,0.036112,-1.59137,-0.69601,-0.26838,0.38556,0.4256
0,0,0,15,15,15,15,-15.8065,1.22847,6.8977,0.0546547,-1.87751,0.281079,1,0,0,8.295,0.1575,-6.65,0.036112,-1.59137,-0.69601,-0.26838,0.38556,0.4256
0,0,0,15,15,15,15,-15.7977,1.22488,6.88863,-0.390285,-1.53211,0.132109,1,0,0,8.4525,-0.6475,-6.5275,-0.410774,-1.24647,-0.843874,-0.26838,0.38556,0.4256
0,0,0,15,15,15,15,-15.7792,1.22266,6.88078,-0.390246,-1.5318,0.132197,1,0,0,13.8775,-0.07,-5.6175,-0.410774,-1.24647,-0.843874,-0.26838,0.38556,0.4256
0,0,0,15,15,15,15,-15.7584,1.22147,6.87417,0.221455,-1.07994,0.223893,1,0,0,15.1725,0.315,-4.76,0.203496,-0.79544,-0.752984,-0.26838,0.38556,0.4256
0,0,0,15,15,15,15,-15.7263,1.22013,6.8716,0.221479,-1.0794,0.224046,1,0,0,21.4725,-0.42,-2.52,0.203496,-0.79544,-0.752984,-0.26838,0.38556,0.4256
0,0,0,15,15,15,15,-15.6889,1.2163,6.87034,-0.0611517,-0.913173,0.397704,1,0,0,24.3775,-2.03,-2.17,-0.080398,-0.630008,-0.580842,-0.26838,0.38556,0.4256
0,0,0,15,15,15,15,-15.6451,1.21305,6.8716,-0.0610951,-0.912438,0.397911,1,0,0,27.93,-2.1,-0.665,-0.080398,-0.630008,-0.580842,-0.2709,0.39116,0.42742
0,0,0,15,15,15,15,-15.5927,1.21121,6.87446,0.0262852,-1.51303,0.415248,1,0,0,32.8125,-1.5575,0.455,0.00732,-1.23086,-0.563884,-0.2709,0.39116,0.42742
0,0,0,15,15,15,15,-15.5369,1.20857,6.88143,0.0263314,-1.51209,0.41551,1,0,0,34.5975,-2.66,2.6425,0.00732,-1.23086,-0.563884,-0.2709,0.39116,0.42742
-0,0,0,15,15,15,15,-14.5816,1.17939,6.53055,0.233488,-1.16027,0.538989,0,0,0,37.1525,-2.73,2.9225,0.214842,-0.89548,-0.445666,-0.2709,0.39116,0.42742
-0,0,0,15,15,15,15,-13.6209,1.15079,6.18177,0.233987,-1.14402,0.543083,0,0,0,40.5825,-5.1275,3.15,0.214842,-0.89548,-0.445666,-0.2709,0.39116,0.42742
-0,0,0,15,15,15,15,-12.7837,0.458329,6.3297,-0.349938,-0.867991,0.423636,0,0,0,42.5075,-4.515,3.4475,-0.38369,-0.633912,-0.567666,-0.2709,0.39116,0.42742
-0,0,0,15,15,15,15,-11.9353,-0.220336,6.46406,-0.338093,-0.853534,0.42683,0,0,0,52.2725,-3.605,5.32,-0.38369,-0.633912,-0.567666,-0.2709,0.39116,0.42742
0,0,0,15,15,15,15,-11.8415,-0.224699,6.47553,0.0575408,-1.23052,0.432699,1,0,0,56.035,-3.955,5.1625,0.013542,-1.01211,-0.562176,-0.2709,0.39116,0.42742
0,0,0,15,15,15,15,-11.7371,-0.229482,6.48609,0.0576243,-1.22874,0.433071,1,0,0,61.9675,-4.0775,4.6025,0.013542,-1.01211,-0.562176,-0.26684,0.3822,0.42756
-0,0,0,15,15,15,15,-10.9004,-0.341969,6.14524,0.093482,-0.804563,0.242775,0,0,0,61.6525,-5.3375,4.69,0.04758,-0.60268,-0.753838,-0.26684,0.3822,0.42756
-0,0,0,15,15,15,15,-10.0595,-0.449048,5.80465,0.0953509,-0.790129,0.245432,0,0,0,68.11,-5.8625,4.55,0.04758,-0.60268,-0.753838,-0.26684,0.3822,0.42756
-0,0,0,15,15,15,15,-9.29394,-0.337358,5.31587,0.26336,-0.727011,0.172324,0,0,0,70.07,-5.635,4.305,0.218258,-0.552782,-0.828624,-0.26684,0.3822,0.42756
-0,0,0,15,15,15,15,-8.53099,-0.21876,4.82994,0.26129,-0.713857,0.174397,0,0,0,72.835,-2.87,3.0975,0.218258,-0.552782,-0.828624,-0.26684,0.3822,0.42756
0,0,0,15,15,15,15,-8.40292,-0.223136,4.83606,-0.00529459,-0.847573,-0.102523,1,0,0,75.2325,-3.1325,2.2925,-0.049532,-0.688568,-1.10373,-0.26684,0.3822,0.42756
0,0,0,15,15,15,15,-8.26849,-0.228453,4.84139,-0.00520178,-0.845252,-0.102183,1,0,0,78.8025,-3.605,1.7675,-0.049532,-0.688568,-1.10373,-0.26684,0.3822,0.42756
0,0,0,15,15,15,15,-8.13261,-0.231773,4.84642,-0.205838,-0.919356,-0.0165192,1,0,0,79.6075,-2.415,1.7675,-0.251076,-0.76494,-1.01907,-0.26684,0.3822,0.42756
0,0,0,15,15,15,15,-7.99982,-0.233207,4.84993,-0.205813,-0.917061,-0.0161941,1,0,0,77.875,-1.19,1.05,-0.251076,-0.76494,-1.01907,-0.26684,0.3822,0.42756
0,0,0,15,15,15,15,-7.8645,-0.235229,4.85382,0.0384083,-1.04381,0.0373684,1,0,0,79.2925,-1.5575,1.225,-0.005856,-0.893894,-0.96624,-0.2625,0.3731,0.43498
0,0,0,15,15,15,15,-7.72732,-0.237425,4.8587,0.0384467,-1.04144,0.037693,1,0,0,80.3425,-1.7325,1.785,-0.005856,-0.893894,-0.96624,-0.2625,0.3731,0.43498
0,0,0,15,15,15,15,-7.59222,-0.23807,4.86288,-0.141584,-0.711923,0.0654248,1,0,0,79.17,-0.77,1.505,-0.18666,-0.567056,-0.939034,-0.2625,0.3731,0.43498
0,0,0,15,15,15,15,-7.45712,-0.238724,4.86705,-0.141572,-0.709586,0.0657335,1,0,0,79.17,-0.77,1.505,-0.18666,-0.567056,-0.939034,-0.2625,0.3731,0.43498
0,0,0,15,15,15,15,-7.31207,-0.2383,4.87242,-0.0884906,-0.585681,-0.00586596,1,0,0,84.7525,-0.2275,2.275,-0.133346,-0.445788,-1.0104,-0.2625,0.3731,0.43498
0,0,0,15,15,15,15,-7.16702,-0.23789,4.87778,-0.0884978,-0.58317,-0.00554691,1,0,0,84.7525,-0.2275,2.275,-0.133346,-0.445788,-1.0104,-0.2625,0.3731,0.43498
0,0,0,15,15,15,15,-7.00586,-0.233688,4.88253,-0.00644676,-0.406592,-0.301014,1,0,0,93.7825,2.03,2.1875,-0.050874,-0.272182,-1.30394,-0.2625,0.3731,0.43498
0,0,0,15,15,15,15,-6.8447,-0.2295,4.88728,-0.00651985,-0.4038,-0.300674,1,0,0,93.7825,2.03,2.1875,-0.050874,-0.272182,-1.30394,-0.2625,0.3731,0.43498
0,0,0,15,15,15,15,-6.67055,-0.226347,4.89105,0.1075,-1.0533,-0.264661,1,0,0,101.063,1.505,1.54,0.063684,-0.924028,-1.26856,-0.26922,0.37016,0.434
0,0,0,15,15,15,15,-6.50262,-0.225262,4.89498,-0.118118,-1.10743,0.0704637,1,0,0,97.58,0.2975,1.4875,-0.16287,-0.981002,-0.93635,-0.26922,0.37016,0.434
0,0,0,15,15,15,15,-6.34944,-0.224384,4.8969,-0.118133,-1.10477,0.070763,1,0,0,89.3025,0.315,0.315,-0.16287,-0.981002,-0.93635,-0.26922,0.37016,0.434
-0,0,0,15,15,15,15,-5.47641,-0.460084,4.68341,-0.0232695,-0.759991,0.311074,0,0,0,85.33,-0.5775,0.0875,-0.071736,-0.651724,-0.699426,-0.26922,0.37016,0.434
-0,0,0,15,15,15,15,-4.61223,-0.689307,4.46414,-0.019269,-0.744964,0.31236,0,0,0,84.9975,-1.435,-1.645,-0.071736,-0.651724,-0.699426,-0.26922,0.37016,0.434
-0,0,0,15,15,15,15,-4.46868,-0.693107,4.4612,0.0326717,-0.453637,0.327803,1,0,0,83.8775,-2.1525,-2.7475,-0.019642,-0.363194,-0.684298,-0.26922,0.37016,0.434
-0,0,0,15,15,15,15,-4.32235,-0.705392,4.45806,0.0328861,-0.451091,0.327997,1,0,0,85.435,-7.105,-3.2375,-0.019642,-0.363194,-0.684298,-0.26922,0.37016,0.434
-0,0,0,15,15,15,15,-4.16806,-0.718958,4.45447,-0.263424,-0.301975,0.489501,1,0,0,89.8975,-7.84,-3.535,-0.317444,-0.216916,-0.524234,-0.26922,0.37016,0.434
-0,0,0,15,15,15,15,-4.00678,-0.730525,4.44935,-0.263222,-0.299168,0.489699,1,0,0,93.8,-6.615,-4.3225,-0.317444,-0.216916,-0.524234,-0.26614,0.35924,0.43134
-0,0,0,15,15,15,15,-3.43469,-0.703065,4.07849,0.104036,-0.398997,0.129745,0,0,0,97.02,-6.4225,-4.06,0.05185,-0.326594,-0.88206,-0.26614,0.35924,0.43134
-0,0,0,15,15,15,15,-2.8676,-0.675595,3.71323,0.103557,-0.389116,0.130295,0,0,0,98.77,-7.8925,-2.9225,0.05185,-0.326594,-0.88206,-0.26614,0.35924,0.43134
-0,0,0,15,15,15,15,-2.70015,-0.688899,3.71088,1.24916,0.0411249,-1.50982,1,0,0,97.2825,-7.7875,-2.6075,1.20207,0.100284,-2.50966,-0.26614,0.35924,0.43134
-0,0,0,15,15,15,15,-2.53825,-0.711337,3.70867,1.24955,0.0439476,-1.5097,1,0,0,94.1675,-13.1425,-2.7475,1.20207,0.100284,-2.50966,-0.26614,0.35924,0.43134
-0,0,0,15,15,15,15,-2.38052,-0.731615,3.70715,-0.271221,-1.10984,1.21065,1,0,0,91.84,-11.9,-2.2575,-0.325496,-1.05506,0.189588,-0.26614,0.35924,0.43134
-0,0,0,15,15,15,15,-2.24164,-0.750304,3.70779,-0.270895,-1.10742,1.21075,1,0,0,81.2875,-11.025,-0.9275,-0.325496,-1.05506,0.189588,-0.26614,0.35924,0.43134
-0,0,0,15,15,15,15,-2.10869,-0.768937,3.70676,-0.712535,0.0244485,0.515433,1,0,0,77.945,-10.955,-1.8725,-0.769332,0.073322,-0.500444,-0.26614,0.35924,0.43134
-0,0,0,15,15,15,15,-1.97602,-0.788221,3.70749,-0.712198,0.0267625,0.51551,1,0,0,77.805,-11.375,-0.84,-0.769332,0.073322,-0.500444,-0.2695,0.35602,0.43372
-0,0,0,15,15,15,15,-1.83977,-0.8105,3.70892,-0.25393,-0.897192,0.236245,1,0,0,79.8175,-13.1425,-0.455,-0.309514,-0.852048,-0.777628,-0.2695,0.35602,0.43372
-0,0,0,15,15,15,15,-1.70903,-0.835636,3.70887,-0.253491,-0.894911,0.23631,1,0,0,76.72,-14.7875,-1.3475,-0.309514,-0.852048,-0.777628,-0.2695,0.35602,0.43372
-0,0,0,15,15,15,15,-1.58024,-0.863526,3.71067,0.213258,-0.382663,0.475502,1,0,0,75.635,-16.4325,-0.28,0.158722,-0.342576,-0.540338,-0.2695,0.35602,0.43372
-0,0,0,15,15,15,15,-1.44008,-0.883943,3.70926,0.213614,-0.380218,0.475561,1,0,0,81.9875,-12.005,-1.995,0.158722,-0.342576,-0.540338,-0.2695,0.35602,0.43372
-0,0,0,15,15,15,15,-1.30159,-0.902474,3.70659,0.00340282,-0.766653,-0.25593,1,0,0,81.0425,-10.885,-2.6775,-0.052704,-0.731024,-1.26624,-0.2695,0.35602,0.43372
-0,0,0,15,15,15,15,-1.16795,-0.923575,3.70348,0.00377107,-0.764322,-0.255886,1,0,0,78.3125,-12.39,-2.94,-0.052704,-0.731024,-1.26624,-0.2695,0.35602,0.43372
-0,0,0,15,15,15,15,-0.543828,-0.990264,3.39857,0.0586315,-0.509788,0.153553,0,0,0,73.395,-11.9525,-3.885,0.00122,-0.487634,-0.8601,-0.2695,0.35602,0.43372
-0,0,0,15,15,15,15,0.0623802,-1.04948,3.10769,0.0596648,-0.49921,0.153579,0,0,0,67.76,-14.28,-3.85,0.00122,-0.487634,-0.8601,-0.2632,0.343,0.43218
-0,0,0,15,15,15,15,0.355705,-1.4302,3.07348,-0.215417,-0.178028,0.113704,0,0,0,66.1675,-13.335,-3.8675,-0.281698,-0.171898,-0.899506,-0.2632,0.343,0.43218
-0,0,0,15,15,15,15,0.637967,-1.7947,3.0364,-0.209058,-0.173105,0.113483,0,0,0,62.3875,-9.4325,-4.655,-0.281698,-0.171898,-0.899506,-0.2632,0.343,0.43218
-0,0,0,15,15,15,15,0.958212,-2.17202,3.00742,-0.232362,-0.2259,0.0566206,0,0,0,62.965,-8.4175,-4.3225,-0.31171,-0.230214,-0.955626,-0.2632,0.343,0.43218
-0,0,0,15,15,15,15,1.26299,-2.53548,2.97575,-0.226024,-0.220591,0.0562572,0,0,0,56.91,-5.95,-4.865,-0.31171,-0.230214,-0.955626,-0.2632,0.343,0.43218
-0,0,0,15,15,15,15,1.3592,-2.54517,2.96824,0.0201538,-0.0954438,0.145718,1,0,0,57.1725,-5.845,-5.11,-0.06466,-0.106872,-0.86681,-0.2632,0.343,0.43218
-0,0,0,15,15,15,15,1.46058,-2.55442,2.96039,0.0203151,-0.0936769,0.145667,1,0,0,60.06,-5.6,-5.3025,-0.06466,-0.106872,-0.86681,-0.2632,0.343,0.43218
-0,0,0,15,15,15,15,1.92205,-2.62053,2.7158,0.0128421,-0.376053,0.0705019,0,0,0,59.0625,-3.78,-5.6525,-0.073322,-0.396988,-0.941108,-0.2632,0.343,0.43218
-0,0,0,15,15,15,15,2.37088,-2.6801,2.47332,0.0138808,-0.368235,0.0701608,0,0,0,55.79,-1.9775,-5.635,-0.073322,-0.396988,-0.941108,-0.2632,0.343,0.43218
-0,0,0,15,15,15,15,2.86731,-2.63153,2.16104,0.102083,-0.422971,0.0952549,0,0,0,52.92,-2.6075,-5.775,0.016104,-0.460306,-0.915854,-0.2688,0.34384,0.42994
-0,0,0,15,15,15,15,2.94099,-2.6348,2.1524,0.0224454,-0.528672,-0.150464,1,0,0,44.5025,-2.24,-5.7925,-0.063928,-0.567178,-1.15961,-0.2688,0.34384,0.42994
-0,0,0,15,15,15,15,3.01228,-2.63678,2.14614,0.0224799,-0.52743,-0.15053,1,0,0,43.225,-1.4175,-4.445,-0.063928,-0.567178,-1.15961,-0.2688,0.34384,0.42994
-0,0,0,15,15,15,15,3.13858,-2.36675,1.75837,0.188216,-0.0490482,0.110577,0,0,0,39.1475,-1.7675,-4.6025,0.107238,-0.0915,-0.900604,-0.2688,0.34384,0.42994
-0,0,0,15,15,15,15,3.25957,-2.10374,1.37556,0.183629,-0.0469315,0.110638,0,0,0,37.6775,-2.45,-3.7275,0.107238,-0.0915,-0.900604,-0.2688,0.34384,0.42994
-0,0,0,15,15,15,15,3.32272,-2.21772,1.231,-0.0696245,0.00374723,0.0803774,0,0,0,37.9925,-1.9775,-3.08,-0.149084,-0.041968,-0.930494,-0.2688,0.34384,0.42994
-0,0,0,15,15,15,15,3.38142,-2.32836,1.08943,-0.0676949,0.00476468,0.0802411,0,0,0,36.0675,-1.645,-1.96,-0.149084,-0.041968,-0.930494,-0.2688,0.34384,0.42994
-0,0,0,15,15,15,15,3.44192,-2.32966,1.08812,0.125854,0.0908181,0.134644,1,0,0,37.31,-0.875,-1.575,0.045262,0.042944,-0.876448,-0.2688,0.34384,0.42994
-0,0,0,15,15,15,15,3.494,-2.32884,1.08683,0.12584,0.0917246,0.134589,1,0,0,32.585,0.3675,-1.645,0.045262,0.042944,-0.876448,-0.266,0.33922,0.4382
-0,0,0,15,15,15,15,3.5439,-2.32816,1.08513,0.0796637,-0.104153,0.370229,1,0,0,31.36,0.2625,-1.8725,-0.001098,-0.153598,-0.642574,-0.266,0.33922,0.4382
-0,0,0,15,15,15,15,3.58747,-2.33034,1.08503,0.0797017,-0.103395,0.37018,1,0,0,27.8425,-1.3475,-0.84,-0.001098,-0.153598,-0.642574,-0.266,0.33922,0.4382
-0,0,0,15,15,15,15,3.68685,-1.94116,0.647038,0.268141,-0.0475467,0.117171,0,0,0,25.7075,-1.7325,-0.8925,0.194956,-0.099552,-0.893772,-0.266,0.33922,0.4382
-0,0,0,15,15,15,15,3.78076,-1.56073,0.212991,0.261505,-0.0458987,0.117267,0,0,0,24.01,-1.855,-0.9275,0.194956,-0.099552,-0.893772,-0.266,0.33922,0.4382
-0,0,0,15,15,15,15,3.9179,-1.49791,-0.0422158,0.0634805,-0.109092,-0.00421438,0,0,0,21.84,-1.96,-0.56,-0.002806,-0.165066,-1.01419,-0.266,0.33922,0.4382
-0,0,0,15,15,15,15,4.04887,-1.43695,-0.295368,0.0624168,-0.10681,-0.00434594,0,0,0,19.67,-2.4675,-0.735,-0.002806,-0.165066,-1.01419,-0.266,0.33922,0.4382
-0,0,0,15,15,15,15,4.37143,-1.48656,-0.500247,0.0142022,-0.290618,0.0897663,0,0,0,18.4625,-2.73,-0.5775,-0.052094,-0.354288,-0.920368,-0.266,0.33922,0.4382
-0,0,0,15,15,15,15,4.68719,-1.53148,-0.702251,0.014986,-0.285127,0.0893106,0,0,0,17.4475,-1.7675,-0.98,-0.052094,-0.354288,-0.920368,-0.26376,0.33782,0.44002
-0,0,0,15,15,15,15,4.87494,-1.48642,-0.944026,0.0596354,-0.171337,0.0140597,0,0,0,16.1,-2.065,-0.8925,-0.006466,-0.243878,-0.994788,-0.26376,0.33782,0.44002
-0,0,0,15,15,15,15,5.05717,-1.44105,-1.18333,0.0588438,-0.168167,0.0138046,0,0,0,14.735,-1.6625,-0.9625,-0.006466,-0.243878,-0.994788,-0.26376,0.33782,0.44002
-0,0,0,15,15,15,15,5.07479,-1.44244,-1.18426,0.214734,-0.516166,0.0936933,1,0,0,13.2825,-0.9275,-1.33,0.15006,-0.591822,-0.915488,-0.26376,0.33782,0.44002
-0,0,0,15,15,15,15,5.08738,-1.4424,-1.18533,0.214734,-0.515948,0.0936739,1,0,0,10.465,-0.105,-1.4875,0.15006,-0.591822,-0.915488,-0.26376,0.33782,0.44002
-0,0,0,15,15,15,15,5.23139,-1.73825,-1.21183,-0.182223,-0.128026,0.0705598,0,0,0,7.77,0.245,-1.785,-0.25376,-0.20679,-0.938058,-0.26376,0.33782,0.44002
-0,0,0,15,15,15,15,5.36176,-2.02551,-1.2392,-0.177212,-0.125777,0.0701859,0,0,0,1.4175,0.7525,-1.9775,-0.25376,-0.20679,-0.938058,-0.26376,0.33782,0.44002
-0,0,0,15,15,15,15,5.51542,-1.76466,-1.59144,0.199217,-0.153748,0.0840979,0,0,0,-0.735,0.6825,-1.89,0.128832,-0.237412,-0.92415,-0.26376,0.33782,0.44002
-0,0,0,15,15,15,15,5.65976,-1.50744,-1.92856,0.19473,-0.15123,0.0839802,0,0,0,-4.34,0.525,-1.8375,0.128832,-0.237412,-0.92415,-0.26614,0.3297,0.44016
-0,0,0,15,15,15,15,6.08863,-1.73431,-1.99783,-0.102718,-0.474517,0.110398,0,0,0,-5.4075,0.2975,-1.9775,-0.17385,-0.567788,-0.897066,-0.26614,0.3297,0.44016
-0,0,0,15,15,15,15,6.5105,-1.95428,-2.06984,-0.0988809,-0.467216,0.109467,0,0,0,-5.845,0.0875,-2.5725,-0.17385,-0.567788,-0.897066,-0.26614,0.3297,0.44016
-0,0,0,15,15,15,15,6.49493,-1.95353,-2.07301,-0.0895396,-0.195754,0.249537,1,0,0,-5.3725,0.1575,-2.7475,-0.164456,-0.296338,-0.758108,-0.26614,0.3297,0.44016
-0,0,0,15,15,15,15,6.48126,-1.9511,-2.07614,-0.089582,-0.195991,0.249565,1,0,0,-4.305,1.1375,-2.835,-0.164456,-0.296338,-0.758108,-0.26614,0.3297,0.44016
-0,0,0,15,15,15,15,6.6876,-1.30942,-2.61433,0.447852,-0.197263,0.222666,0,0,0,-4.55,1.5225,-3.3425,0.386496,-0.301218,-0.784704,-0.26614,0.3297,0.44016
-0,0,0,15,15,15,15,6.88227,-0.680033,-3.14398,0.436869,-0.193867,0.222454,0,0,0,-8.6275,2.3275,-3.6225,0.386496,-0.301218,-0.784704,-0.26614,0.3297,0.44016
-0,0,0,15,15,15,15,7.24196,-1.09229,-3.09529,-0.220706,-0.35008,0.195138,0,0,0,-11.2,2.1525,-3.325,-0.281088,-0.463478,-0.810934,-0.26614,0.3297,0.44016
-0,0,0,15,15,15,15,7.58335,-1.49685,-3.05935,-0.213647,-0.344194,0.194211,0,0,0,-18.375,2.1175,-2.8525,-0.281088,-0.463478,-0.810934,-0.2639,0.33586,0.43596
-0,0,0,15,15,15,15,7.72777,-1.8777,-3.0245,-0.213927,-0.149129,0.157166,0,0,0,-20.265,2.1525,-2.52,-0.288042,-0.271084,-0.847168,-0.2639,0.33586,0.43596
-0,0,0,15,15,15,15,7.86245,-2.24984,-2.99083,-0.207436,-0.146833,0.156616,0,0,0,-24.29,1.435,-2.03,-0.288042,-0.271084,-0.847168,-0.2639,0.33586,0.43596
-0,0,0,15,15,15,15,7.81099,-2.24664,-2.99135,0.018228,-0.189612,0.214403,1,0,0,-25.445,1.75,-1.4175,-0.061366,-0.31293,-0.78995,-0.2639,0.33586,0.43596
-0,0,0,15,15,15,15,7.75914,-2.2432,-2.99072,0.018168,-0.190507,0.214528,1,0,0,-25.6375,1.9775,-0.77,-0.061366,-0.31293,-0.78995,-0.2639,0.33586,0.43596
-0,0,0,15,15,15,15,7.93986,-2.63464,-2.94108,-0.243247,-0.227727,0.083853,0,0,0,-25.935,2.485,-0.2975,-0.330742,-0.35319,-0.918904,-0.2639,0.33586,0.43596
-0,0,0,15,15,15,15,8.11839,-3.01489,-2.89227,-0.236618,-0.224691,0.0830945,0,0,0,-25.375,3.0625,0.595,-0.330742,-0.35319,-0.918904,-0.2639,0.33586,0.43596
-0,0,0,15,15,15,15,8.43835,-3.15557,-2.98791,-0.0581335,-0.414595,0.0549892,0,0,0,-27.0375,3.43,0.735,-0.153964,-0.54839,-0.945866,-0.2639,0.33586,0.43596
-0,0,0,15,15,15,15,8.74814,-3.29304,-3.08265,-0.0557381,-0.409277,0.0540492,0,0,0,-29.9775,2.625,1.4175,-0.153964,-0.54839,-0.945866,-0.2639,0.33586,0.43596
-0,0,0,15,15,15,15,9.14573,-3.1937,-3.30663,0.134964,-0.500486,0.134092,0,0,0,-32.6725,2.1175,1.6625,0.039284,-0.646356,-0.865468,-0.27048,0.33558,0.4326
-0,0,0,15,15,15,15,9.52709,-3.09448,-3.52675,0.133235,-0.493913,0.133107,0,0,0,-38.5175,2.6425,1.5575,0.039284,-0.646356,-0.865468,-0.27048,0.33558,0.4326
-0,0,0,15,15,15,15,9.82306,-3.16163,-3.65414,0.00781727,-0.313098,0.220577,0,0,0,-40.075,2.31,0.945,-0.08784,-0.470798,-0.77775,-0.27048,0.33558,0.4326
-0,0,0,15,15,15,15,10.1087,-3.22633,-3.78137,0.0089448,-0.308207,0.219654,0,0,0,-43.3825,1.995,0.49,-0.08784,-0.470798,-0.77775,-0.27048,0.33558,0.4326
-0,0,0,15,15,15,15,10.024,-3.22325,-3.77908,0.188325,-0.133796,0.227415,1,0,0,-43.96,1.9425,0.14,0.092354,-0.295118,-0.770308,-0.27048,0.33558,0.4326
-0,0,0,15,15,15,15,9.93939,-3.22016,-3.77679,0.188272,-0.135248,0.227673,1,0,0,-43.96,1.9425,0.14,0.092354,-0.295118,-0.770308,-0.27048,0.33558,0.4326
-0,0,0,15,15,15,15,9.85294,-3.2147,-3.77665,0.211623,-0.141494,0.197815,1,0,0,-45.045,3.0975,-1.33,0.1159,-0.299876,-0.800198,-0.27048,0.33558,0.4326
-0,0,0,15,15,15,15,9.76649,-3.20923,-3.77652,0.211528,-0.142978,0.198077,1,0,0,-45.045,3.0975,-1.33,0.1159,-0.299876,-0.800198,-0.27048,0.33558,0.4326
-0,0,0,15,15,15,15,9.67913,-3.19864,-3.77735,-0.0381883,-0.42488,0.0535109,1,0,0,-45.5875,5.9675,-2.38,-0.134688,-0.579988,-0.943914,-0.266,0.34034,0.43736
-0,0,0,15,15,15,15,9.58399,-3.18691,-3.77806,-0.347817,-0.27532,0.0604388,1,0,0,-49.945,6.6325,-2.415,-0.445422,-0.428952,-0.937326,-0.266,0.34034,0.43736
-0,0,0,15,15,15,15,9.48025,-3.17608,-3.77907,-0.348005,-0.277101,0.0607485,1,0,0,-54.775,6.09,-2.485,-0.445422,-0.428952,-0.937326,-0.266,0.34034,0.43736
-0,0,0,15,15,15,15,9.37486,-3.16516,-3.77974,-0.298873,-0.517913,0.137534,1,0,0,-55.685,6.1775,-2.2925,-0.39589,-0.667706,-0.861442,-0.266,0.34034,0.43736
-0,0,0,15,15,15,15,9.26441,-3.15372,-3.78066,-0.299072,-0.51981,0.137856,1,0,0,-58.5375,6.4575,-2.4675,-0.39589,-0.667706,-0.861442,-0.266,0.34034,0.43736
-0,0,0,15,15,15,15,9.15227,-3.14097,-3.78053,-0.11087,-0.268813,0.225229,1,0,0,-59.4475,7.315,-1.9775,-0.206668,-0.415044,-0.775066,-0.266,0.34034,0.43736
-0,0,0,15,15,15,15,9.03998,-3.12934,-3.77932,-0.111073,-0.270743,0.225549,1,0,0,-59.5,6.7725,-1.2425,-0.206668,-0.415044,-0.775066,-0.266,0.34034,0.43736
-0,0,0,15,15,15,15,9.12152,-4.07083,-3.37713,-0.629331,-0.142614,0.295739,0,0,0,-59.7275,7.6475,-0.6825,-0.74359,-0.288286,-0.704184,-0.266,0.34034,0.43736
-0,0,0,15,15,15,15,9.20345,-4.99374,-2.98729,-0.613274,-0.14141,0.294255,0,0,0,-57.54,8.1025,-0.1575,-0.74359,-0.288286,-0.704184,-0.26726,0.34664,0.43792
-0,0,0,15,15,15,15,9.09334,-4.98057,-2.98323,0.215758,0.239693,-0.46475,1,0,0,-58.1175,7.9275,0.245,0.089182,0.094306,-1.45766,-0.26726,0.34664,0.43792
-0,0,0,15,15,15,15,8.98545,-4.9672,-2.9771,0.215526,0.237843,-0.464436,1,0,0,-56.77,8.225,1.435,0.089182,0.094306,-1.45766,-0.26726,0.34664,0.43792
-0,0,0,15,15,15,15,9.09135,-4.79807,-3.21618,0.137263,-0.244775,-0.00514126,0,0,0,-57.19,7.98,2.1175,0.013542,-0.389668,-1.00186,-0.26726,0.34664,0.43792
-0,0,0,15,15,15,15,9.189,-4.63361,-3.45265,0.134403,-0.243061,-0.0051781,0,0,0,-60.8475,7.595,1.6275,0.013542,-0.389668,-1.00186,-0.26726,0.34664,0.43792
-0,0,0,15,15,15,15,9.0017,-4.46597,-3.65832,0.0972272,0.0720206,0.0235985,0,0,0,-60.0075,7.1575,1.785,-0.020862,-0.071736,-0.974048,-0.26726,0.34664,0.43792
-0,0,0,15,15,15,15,8.81795,-4.30132,-3.86228,0.0943617,0.0688955,0.0243107,0,0,0,-59.71,8.26,1.995,-0.020862,-0.071736,-0.974048,-0.26726,0.34664,0.43792
-0,0,0,15,15,15,15,9.22326,-3.98467,-4.19155,0.298291,-0.544111,0.223759,0,0,0,-57.995,8.155,1.82,0.189466,-0.69113,-0.775432,-0.26726,0.34664,0.43792
-0,0,0,15,15,15,15,9.62938,-3.68026,-4.52121,0.29299,-0.537076,0.222951,0,0,0,-54.5475,7.455,1.575,0.189466,-0.69113,-0.775432,-0.26908,0.35406,0.42966
-0,0,0,15,15,15,15,9.67484,-3.65427,-4.68711,0.026605,-0.18139,-0.0584593,0,0,0,-53.83,7.5775,1.1725,-0.077592,-0.336598,-1.05457,-0.26908,0.35406,0.42966
-0,0,0,15,15,15,15,9.73021,-3.62954,-4.85216,0.0261743,-0.180435,-0.0585948,0,0,0,-47.915,7.035,0.63,-0.077592,-0.336598,-1.05457,-0.26908,0.35406,0.42966
-0,0,0,15,15,15,15,9.63821,-3.61773,-4.84858,0.073348,-0.290217,-0.10491,1,0,0,-48.0375,7.105,0.035,-0.030012,-0.44469,-1.10081,-0.26908,0.35406,0.42966
-0,0,0,15,15,15,15,9.54712,-3.60615,-4.84716,0.0731463,-0.291779,-0.104633,1,0,0,-47.6,6.755,-1.1725,-0.030012,-0.44469,-1.10081,-0.26908,0.35406,0.42966
-0,0,0,15,15,15,15,9.45788,-3.59572,-4.84684,0.0633674,-0.597895,0.0252227,1,0,0,-46.6025,5.985,-1.68,-0.03965,-0.748958,-0.972218,-0.26908,0.35406,0.42966
-0,0,0,15,15,15,15,9.36553,-3.58756,-4.84825,0.0632251,-0.59948,0.0254945,1,0,0,-48.405,4.515,-2.45,-0.03965,-0.748958,-0.972218,-0.26908,0.35406,0.42966
-0,0,0,15,15,15,15,9.63413,-3.75999,-4.92709,-0.0627894,-0.328784,0.169611,0,0,0,-48.7375,3.78,-2.765,-0.169214,-0.48312,-0.828258,-0.26908,0.35406,0.42966
-0,0,0,15,15,15,15,9.90025,-3.93021,-5.01793,-0.0598251,-0.32425,0.168629,0,0,0,-48.02,3.325,-4.025,-0.169214,-0.48312,-0.828258,-0.26502,0.36232,0.43456
-0,0,0,15,15,15,15,10.2795,-4.11365,-5.10399,-0.0640421,-0.493407,0.147948,0,0,0,-46.2,2.52,-4.1125,-0.176656,-0.658556,-0.847412,-0.26502,0.36232,0.43456
-0,0,0,15,15,15,15,10.6611,-4.29192,-5.19067,-0.0609389,-0.486916,0.146517,0,0,0,-41.7375,1.89,-3.78,-0.176656,-0.658556,-0.847412,-0.26502,0.36232,0.43456
-0,0,0,15,15,15,15,10.8016,-4.53764,-5.22527,-0.146563,-0.219561,0.0423375,0,0,0,-38.9725,1.8025,-3.92,-0.266936,-0.393816,-0.950014,-0.26502,0.36232,0.43456
-0,0,0,15,15,15,15,10.9482,-4.77658,-5.26035,-0.142406,-0.217122,0.0415241,0,0,0,-34.2475,1.6975,-3.78,-0.266936,-0.393816,-0.950014,-0.26502,0.36232,0.43456
-0,0,0,15,15,15,15,10.8838,-4.77223,-5.2648,0.0075531,-0.640411,0.17465,1,0,0,-32.865,1.9425,-3.885,-0.116266,-0.81557,-0.818132,-0.26502,0.36232,0.43456
-0,0,0,15,15,15,15,10.8214,-4.76956,-5.26986,0.00750667,-0.641478,0.174858,1,0,0,-31.8325,0.91,-4.0425,-0.116266,-0.81557,-0.818132,-0.26502,0.36232,0.43456
-0,0,0,15,15,15,15,10.7599,-4.76862,-5.27479,-0.0749984,-0.484252,-0.081657,1,0,0,-31.29,-0.07,-3.78,-0.199104,-0.657458,-1.07287,-0.26502,0.36232,0.43456
-0,0,0,15,15,15,15,10.695,-4.76811,-5.27912,-0.0750073,-0.48536,-0.0814462,1,0,0,-33.1625,-0.245,-3.395,-0.199104,-0.657458,-1.07287,-0.26992,0.36414,0.43204
-0,0,0,15,15,15,15,10.6306,-4.76819,-5.28305,0.0315371,-0.710198,0.216173,1,0,0,-32.8825,-0.5425,-3.0975,-0.09211,-0.880962,-0.77775,-0.26992,0.36414,0.43204
-0,0,0,15,15,15,15,10.5701,-4.76804,-5.28776,0.0315345,-0.711231,0.216367,1,0,0,-30.695,-0.49,-3.57,-0.09211,-0.880962,-0.77775,-0.26992,0.36414,0.43204
-0,0,0,15,15,15,15,10.5109,-4.7677,-5.29158,0.0608066,-0.721402,0.247662,1,0,0,-29.925,-0.28,-3.08,-0.062708,-0.890112,-0.746884,-0.26992,0.36414,0.43204
-0,0,0,15,15,15,15,10.4559,-4.7672,-5.29512,0.0607979,-0.722343,0.247837,1,0,0,-27.5975,-0.1575,-2.94,-0.062708,-0.890112,-0.746884,-0.26992,0.36414,0.43204
-0,0,0,15,15,15,15,10.403,-4.76688,-5.29882,-0.0174444,-0.859909,0.447918,1,0,0,-26.4425,-0.28,-3.01,-0.141276,-1.02663,-0.548512,-0.26992,0.36414,0.43204
-0,0,0,15,15,15,15,10.3575,-4.7664,-5.30117,-0.0174529,-0.860686,0.448061,1,0,0,-22.1725,-0.035,-2.2575,-0.141276,-1.02663,-0.548512,-0.26992,0.36414,0.43204
-0,0,0,15,15,15,15,10.8649,-4.50265,-5.61055,0.259077,-0.492646,0.342418,0,0,0,-21.735,0.6475,-2.1875,0.141032,-0.667706,-0.65209,-0.26992,0.36414,0.43204
-0,0,0,15,15,15,15,11.3685,-4.24377,-5.911,0.254572,-0.483979,0.341066,0,0,0,-19.88,0.2625,-1.19,0.141032,-0.667706,-0.65209,-0.26992,0.36414,0.43204
-0,0,0,15,15,15,15,11.3286,-4.24293,-5.91015,-0.244263,-0.808052,0.337393,1,0,0,-18.9175,0.5075,-0.4725,-0.3599,-0.990762,-0.655872,-0.26768,0.36918,0.43582
-0,0,0,15,15,15,15,11.2896,-4.24145,-5.90997,-0.244289,-0.808718,0.337528,1,0,0,-18.4625,0.805,-0.9275,-0.3599,-0.990762,-0.655872,-0.26768,0.36918,0.43582
-0,0,0,15,15,15,15,11.2485,-4.241,-5.90838,0.113965,-0.846178,0.385864,1,0,0,-19.53,0.3675,0,-0.000122,-1.02748,-0.608048,-0.26768,0.36918,0.43582
-0,0,0,15,15,15,15,11.2142,-4.2413,-5.90518,0.11397,-0.846764,0.38598,1,0,0,-15.6975,0.1225,0.9975,-0.000122,-1.02748,-0.608048,-0.26768,0.36918,0.43582
-0,0,0,15,15,15,15,11.6611,-4.52809,-5.92505,-0.107003,-0.418492,0.26886,0,0,0,-16.065,0.56,1.365,-0.227042,-0.607194,-0.722362,-0.26768,0.36918,0.43582
-0,0,0,15,15,15,15,12.1095,-4.80559,-5.94727,-0.102176,-0.41094,0.266868,0,0,0,-11.4625,0.8225,1.8375,-0.227042,-0.607194,-0.722362,-0.26768,0.36918,0.43582
-0,0,0,15,15,15,15,12.5232,-4.70861,-6.15711,0.135829,-0.461767,0.146825,0,0,0,-8.6275,1.575,2.065,0.013664,-0.665022,-0.840092,-0.26768,0.36918,0.43582
-0,0,0,15,15,15,15,12.9341,-4.61175,-6.36291,0.134144,-0.454765,0.145384,0,0,0,-6.755,1.9425,2.2225,0.013664,-0.665022,-0.840092,-0.26768,0.36918,0.43582
-0,0,0,15,15,15,15,13.4963,-4.78505,-6.43686,-0.024296,-0.553993,0.299297,0,0,0,-5.11,1.5225,2.135,-0.148474,-0.773602,-0.684908,-0.26936,0.37086,0.43232
-0,0,0,15,15,15,15,14.0526,-4.95197,-6.51427,-0.0213932,-0.544657,0.296754,0,0,0,-4.2525,1.155,1.295,-0.148474,-0.773602,-0.684908,-0.26936,0.37086,0.43232
-0,0,0,15,15,15,15,14.041,-4.95069,-6.51065,0.350574,-0.63144,0.3091,1,0,0,-2.9225,1.1725,0.9975,0.22509,-0.8601,-0.672708,-0.26936,0.37086,0.43232
-0,0,0,15,15,15,15,14.0329,-4.94925,-6.5074,0.350549,-0.631576,0.309136,1,0,0,-0.945,1.2075,0.77,0.22509,-0.8601,-0.672708,-0.26936,0.37086,0.43232
-0,0,0,15,15,15,15,14.5737,-5.04903,-6.61757,0.016497,-0.552769,0.249495,0,0,0,1.1725,1.015,0.3325,-0.112118,-0.790438,-0.729438,-0.26936,0.37086,0.43232
-0,0,0,15,15,15,15,15.1109,-5.1442,-6.7304,0.0181514,-0.543779,0.24696,0,0,0,3.3075,0.5075,-0.9975,-0.112118,-0.790438,-0.729438,-0.26936,0.37086,0.43232
-0,0,0,15,15,15,15,15.1132,-5.1432,-6.73078,0.00464915,-0.371907,-0.047265,1,0,0,4.725,0.4375,-1.225,-0.12566,-0.618784,-1.02138,-0.26936,0.37086,0.43232
-0,0,0,15,15,15,15,15.1214,-5.14213,-6.73223,0.00463054,-0.371768,-0.0473005,1,0,0,7.945,0.315,-1.8375,-0.12566,-0.618784,-1.02138,-0.26936,0.37086,0.43232
-0,0,0,15,15,15,15,15.131,-5.13996,-6.73432,0.294336,-0.465278,0.132287,1,0,0,8.6975,0.84,-2.3625,0.16531,-0.712358,-0.843142,-0.26544,0.37324,0.43302
-0,0,0,15,15,15,15,15.1466,-5.13862,-6.73769,0.294313,-0.465016,0.132218,1,0,0,11.97,0.175,-2.9575,0.16531,-0.712358,-0.843142,-0.26544,0.37324,0.43302
-0,0,0,15,15,15,15,15.4287,-5.2802,-6.82365,-0.0586934,-0.258104,0.0848493,0,0,0,13.3875,-0.0525,-3.185,-0.191662,-0.510326,-0.888648,-0.26544,0.37324,0.43302
-0,0,0,15,15,15,15,15.7062,-5.41687,-6.90942,-0.0563184,-0.253518,0.0833409,0,0,0,13.3875,-0.0525,-3.185,-0.191662,-0.510326,-0.888648,-0.26544,0.37324,0.43302
-0,0,0,15,15,15,15,16.0825,-5.37511,-7.08222,0.0795059,-0.362742,0.116902,0,0,0,17.5,-0.5075,-2.38,-0.054534,-0.625738,-0.853634,-0.26544,0.37324,0.43302
-0,0,0,15,15,15,15,16.453,-5.33282,-7.25244,0.0787711,-0.356543,0.115165,0,0,0,17.5,-0.5075,-2.38,-0.054534,-0.625738,-0.853634,-0.26544,0.37324,0.43302
-0,0,0,15,15,15,15,16.7781,-5.20592,-7.45864,0.127954,-0.279505,0.137596,0,0,0,19.5825,-1.9425,-2.52,-0.002928,-0.554246,-0.829966,-0.26544,0.37324,0.43302
-0,0,0,15,15,15,15,17.098,-5.081,-7.66122,0.125782,-0.274128,0.136163,0,0,0,19.5825,-1.9425,-2.52,-0.002928,-0.554246,-0.829966,-0.26544,0.37324,0.43302
-0,0,0,15,15,15,15,17.1304,-5.08288,-7.66303,0.0555964,-0.404388,0.0960365,1,0,0,21.5075,-1.435,-1.54,-0.073444,-0.684908,-0.869616,-0.26712,0.37016,0.43834
-0,0,0,15,15,15,15,17.4271,-5.26232,-7.71408,-0.0647139,-0.195839,0.17784,0,0,0,22.7325,-1.89,-1.61,-0.197396,-0.481412,-0.786656,-0.26712,0.37016,0.43834
-0,0,0,15,15,15,15,17.7239,-5.43556,-7.76419,-0.0617035,-0.191008,0.176014,0,0,0,25.585,-1.505,-0.8575,-0.197396,-0.481412,-0.786656,-0.26712,0.37016,0.43834
-0,0,0,15,15,15,15,18.0988,-5.688,-7.77881,-0.105791,-0.26799,0.196842,0,0,0,26.915,-0.8575,-0.7525,-0.246074,-0.564372,-0.763598,-0.26712,0.37016,0.43834
-0,0,0,15,15,15,15,18.4706,-5.93163,-7.79392,-0.101561,-0.261995,0.194408,0,0,0,28.7175,-0.2275,-0.0875,-0.246074,-0.564372,-0.763598,-0.26712,0.37016,0.43834
-0,0,0,15,15,15,15,18.8483,-5.83331,-7.96071,0.11079,-0.297126,0.176616,0,0,0,29.68,-0.42,0.1925,-0.03111,-0.60573,-0.779336,-0.26712,0.37016,0.43834
-0,0,0,15,15,15,15,19.2213,-5.73712,-8.12476,0.10912,-0.290949,0.174664,0,0,0,30.31,-1.05,0.245,-0.03111,-0.60573,-0.779336,-0.26712,0.37016,0.43834
-0,0,0,15,15,15,15,19.4464,-5.48173,-8.34755,0.186929,-0.164133,0.107265,0,0,0,30.415,-1.225,0.42,0.051484,-0.482876,-0.845338,-0.26712,0.37016,0.43834
-0,0,0,15,15,15,15,19.6668,-5.22841,-8.55401,0.182528,-0.160386,0.106372,0,0,0,30.065,-0.8225,0.2275,0.051484,-0.482876,-0.845338,-0.26978,0.36022,0.43568
-0,0,0,15,15,15,15,20.0374,-4.92117,-8.78686,0.240845,-0.297787,0.194014,0,0,0,30.6075,-0.63,0.07,0.115412,-0.626348,-0.756644,-0.26978,0.36022,0.43568
-0,0,0,15,15,15,15,20.4032,-4.62189,-9.01502,0.235639,-0.291665,0.192222,0,0,0,31.1675,-1.5575,-0.2275,0.115412,-0.626348,-0.756644,-0.26978,0.36022,0.43568
-0,0,0,15,15,15,15,20.4549,-4.62482,-9.0146,-0.0193082,-0.112763,0.195101,1,0,0,32.41,-1.5925,-0.035,-0.140666,-0.448472,-0.753472,-0.26978,0.36022,0.43568
-0,0,0,15,15,15,15,20.5086,-4.62682,-9.01377,-0.0192734,-0.111889,0.194772,1,0,0,33.565,-0.9975,0,-0.140666,-0.448472,-0.753472,-0.26978,0.36022,0.43568
-0,0,0,15,15,15,15,20.8303,-4.55293,-9.14408,0.0847693,-0.273319,0.0962552,0,0,0,34.3525,-1.0675,0.175,-0.034892,-0.615002,-0.849364,-0.26978,0.36022,0.43568
-0,0,0,15,15,15,15,21.1479,-4.47899,-9.27194,0.0834828,-0.268123,0.0943708,0,0,0,34.9475,-0.5775,0.1225,-0.034892,-0.615002,-0.849364,-0.26978,0.36022,0.43568
-0,0,0,15,15,15,15,21.3837,-4.09062,-9.52291,0.27268,-0.186687,0.115485,0,0,0,32.27,-0.14,0.035,0.161894,-0.537654,-0.827404,-0.26978,0.36022,0.43568
-0,0,0,15,15,15,15,21.6173,-3.71394,-9.76849,0.266121,-0.182738,0.114411,0,0,0,33.1275,-1.3125,0.49,0.161894,-0.537654,-0.827404,-0.26978,0.36022,0.43568
-0,0,0,15,15,15,15,21.7683,-3.81408,-9.82585,-0.052493,-0.10584,0.00206352,0,0,0,31.85,-1.2775,0.56,-0.15982,-0.463234,-0.937814,-0.26838,0.36288,0.4284
-0,0,0,15,15,15,15,21.9164,-3.91032,-9.88259,-0.0508171,-0.103488,0.000998918,0,0,0,31.745,-0.9275,0.5075,-0.15982,-0.463234,-0.937814,-0.26838,0.36288,0.4284
-0,0,0,15,15,15,15,21.968,-3.91332,-9.88065,-0.0869676,-0.290243,0.0087744,1,0,0,32.4275,-1.2775,0.84,-0.196176,-0.650626,-0.929762,-0.26838,0.36288,0.4284
-0,0,0,15,15,15,15,22.0211,-3.91613,-9.8788,-0.0869187,-0.289387,0.00842532,1,0,0,33.2325,-1.19,0.7525,-0.196176,-0.650626,-0.929762,-0.26838,0.36288,0.4284
-0,0,0,15,15,15,15,22.0725,-3.91915,-9.8769,0.127192,-0.188049,0.253491,1,0,0,32.305,-1.295,0.8225,0.018788,-0.55022,-0.68625,-0.26838,0.36288,0.4284
-0,0,0,15,15,15,15,22.1218,-3.9228,-9.87546,0.127255,-0.187255,0.253164,1,0,0,31.115,-1.7325,0.7175,0.018788,-0.55022,-0.68625,-0.26838,0.36288,0.4284
-0,0,0,15,15,15,15,22.2153,-4.12233,-9.8867,-0.123176,-0.0356234,-0.00636001,0,0,0,31.3775,-1.505,0.77,-0.236192,-0.40016,-0.942938,-0.26838,0.36288,0.4284
-0,0,0,15,15,15,15,22.3023,-4.31632,-9.89866,-0.119799,-0.0343162,-0.00716421,0,0,0,28.77,-1.7675,0.4375,-0.236192,-0.40016,-0.942938,-0.26838,0.36288,0.4284
-0,0,0,15,15,15,15,22.3489,-4.31758,-9.90545,-0.0884341,-0.333511,-0.0389482,1,0,0,29.225,-2.2575,-4.235,-0.204716,-0.699792,-0.97417,-0.26404,0.35686,0.43274
-0,0,0,15,15,15,15,22.8564,-4.2905,-10.0061,0.0859125,-0.319725,0.352354,0,0,0,28.5425,-2.625,-0.525,-0.029158,-0.69418,-0.58255,-0.26404,0.35686,0.43274
-0,0,0,15,15,15,15,23.3557,-4.26117,-10.1054,0.085402,-0.311716,0.348979,0,0,0,28.21,-2.1875,-0.735,-0.029158,-0.69418,-0.58255,-0.26404,0.35686,0.43274
-0,0,0,15,15,15,15,23.3992,-4.26462,-10.107,0.120207,-0.258875,0.0309755,1,0,0,27.7375,-2.31,-0.945,0.005734,-0.642086,-0.897798,-0.26404,0.35686,0.43274
-0,0,0,15,15,15,15,23.4434,-4.2671,-10.1098,0.12025,-0.25817,0.0306667,1,0,0,28.0875,-2.0475,-1.7675,0.005734,-0.642086,-0.897798,-0.26404,0.35686,0.43274
-0,0,0,15,15,15,15,23.574,-3.76616,-10.3861,0.333483,-0.110021,0.0775333,0,0,0,26.7225,-2.0475,-1.8025,0.228628,-0.496418,-0.85095,-0.26404,0.35686,0.43274
-0,0,0,15,15,15,15,23.7005,-3.27833,-10.658,0.324985,-0.107793,0.0771293,0,0,0,25.4975,-2.2925,-2.1525,0.228628,-0.496418,-0.85095,-0.26404,0.35686,0.43274
-0,0,0,15,15,15,15,23.7023,-3.339,-10.7176,-0.0347706,0.0612347,0.044848,0,0,0,23.6425,-1.96,-2.0475,-0.133712,-0.32757,-0.882914,-0.26404,0.35686,0.43274
-0,0,0,15,15,15,15,23.6995,-3.39831,-10.7732,-0.0337372,0.0611644,0.0448124,0,0,0,21.07,-1.995,-1.8725,-0.133712,-0.32757,-0.882914,-0.26572,0.35588,0.4361
-0,0,0,15,15,15,15,23.5954,-3.35476,-10.8649,0.0111826,0.128034,-0.0487208,0,0,0,21.5075,-1.61,-1.68,-0.08784,-0.259128,-0.976488,-0.26572,0.35588,0.4361
-0,0,0,15,15,15,15,23.4904,-3.31308,-10.9561,0.0104564,0.126374,-0.0479512,0,0,0,19.9675,-1.8725,-1.7325,-0.08784,-0.259128,-0.976488,-0.26572,0.35588,0.4361
-0,0,0,15,15,15,15,23.4133,-3.01813,-11.1472,0.176247,0.0776262,-0.0466643,0,0,0,21.6475,-2.625,-1.61,0.083814,-0.306708,-0.976,-0.26572,0.35588,0.4361
-0,0,0,15,15,15,15,23.3375,-2.7329,-11.3362,0.171275,0.0765122,-0.0459108,0,0,0,21.5075,-3.29,-0.91,0.083814,-0.306708,-0.976,-0.26572,0.35588,0.4361
-0,0,0,15,15,15,15,23.4203,-2.30665,-11.5794,0.299178,-0.106933,-0.00917567,0,0,0,22.26,-2.835,-1.12,0.219722,-0.491416,-0.939278,-0.26572,0.35588,0.4361
-0,0,0,15,15,15,15,23.5007,-1.89078,-11.8174,0.291924,-0.105541,-0.00949035,0,0,0,21.595,-2.0825,-0.6825,0.219722,-0.491416,-0.939278,-0.26572,0.35588,0.4361
-0,0,0,15,15,15,15,23.7441,-2.21979,-11.7646,-0.180262,-0.172567,0.0885771,0,0,0,20.685,-1.7325,-0.5075,-0.260226,-0.562176,-0.840092,-0.26572,0.35588,0.4361
-0,0,0,15,15,15,15,23.9779,-2.53911,-11.713,-0.174693,-0.168933,0.0867163,0,0,0,17.99,-1.6625,-0.7875,-0.260226,-0.562176,-0.840092,-0.27062,0.35546,0.43526
-0,0,0,15,15,15,15,24.0009,-2.54152,-11.7143,0.268771,-0.100176,-0.127625,1,0,0,16.275,-1.6625,-0.98,0.185074,-0.493856,-1.05262,-0.27062,0.35546,0.43526
-0,0,0,15,15,15,15,24.0201,-2.54367,-11.7152,0.268809,-0.099871,-0.127762,1,0,0,14.1575,-1.4525,-0.8575,0.185074,-0.493856,-1.05262,-0.27062,0.35546,0.43526
-0,0,0,15,15,15,15,23.9603,-2.66441,-11.7404,-0.0821235,0.0894107,-0.014682,0,0,0,12.565,-1.5925,-0.84,-0.169458,-0.30378,-0.940742,-0.27062,0.35546,0.43526
-0,0,0,15,15,15,15,23.8999,-2.78142,-11.7656,-0.0800835,0.0884092,-0.0143437,0,0,0,11.8125,-1.365,-1.2775,-0.169458,-0.30378,-0.940742,-0.27062,0.35546,0.43526
-0,0,0,15,15,15,15,23.9788,-2.84967,-11.8076,-0.0332152,-0.0514133,0.0279535,0,0,0,12.215,-1.1725,-1.3475,-0.123586,-0.44469,-0.898164,-0.27062,0.35546,0.43526
-0,0,0,15,15,15,15,24.0584,-2.9158,-11.8491,-0.0320625,-0.050169,0.0273355,0,0,0,13.44,-1.1725,-1.2425,-0.123586,-0.44469,-0.898164,-0.27062,0.35546,0.43526
-0,0,0,15,15,15,15,24.2312,-3.1246,-11.8338,-0.0996139,-0.090244,0.121214,0,0,0,13.5275,-1.085,-1.1725,-0.195078,-0.48739,-0.803614,-0.27062,0.35546,0.43526
-0,0,0,15,15,15,15,24.3999,-3.32502,-11.8173,-0.0961215,-0.0876469,0.119824,0,0,0,13.23,-0.2275,-1.0675,-0.195078,-0.48739,-0.803614,-0.26628,0.3542,0.43862
-0,0,0,15,15,15,15,24.377,-3.15331,-11.942,0.101702,0.032111,0.0148989,0,0,0,11.9875,-0.525,-1.0325,0.006588,-0.367464,-0.908046,-0.26628,0.3542,0.43862
-0,0,0,15,15,15,15,24.3517,-2.98718,-12.0654,0.0988069,0.0317725,0.0152226,0,0,0,10.22,-0.91,-0.8225,0.006588,-0.367464,-0.908046,-0.26628,0.3542,0.43862
-0,0,0,15,15,15,15,24.4165,-3.31217,-11.9999,-0.200702,-0.0224064,0.0157019,0,0,0,9.2575,-0.9625,-0.7175,-0.299876,-0.422486,-0.906826,-0.26628,0.3542,0.43862
-0,0,0,15,15,15,15,24.4739,-3.62744,-11.9346,-0.195209,-0.0216346,0.0149852,0,0,0,6.195,-0.35,-0.4375,-0.299876,-0.422486,-0.906826,-0.26628,0.3542,0.43862
-0,0,0,15,15,15,15,24.4278,-3.61004,-11.9942,0.00785483,0.0633768,0.0248014,0,0,0,5.7925,-0.2275,-0.28,-0.095648,-0.336842,-0.897432,-0.26628,0.3542,0.43862
-0,0,0,15,15,15,15,24.3798,-3.59326,-12.052,0.00756253,0.0626224,0.0251639,0,0,0,4.235,0.035,0.28,-0.095648,-0.336842,-0.897432,-0.26628,0.3542,0.43862
-0,0,0,15,15,15,15,24.4941,-3.66994,-12.0742,-0.0304633,-0.0838624,0.0734427,0,0,0,3.885,-0.0525,0.175,-0.135176,-0.48495,-0.848632,-0.26628,0.3542,0.43862
