pid_x,pid_y,pid_z,front_left_speed,front_right_speed,back_left_speed,back_right_speed,orientation_x,orientation_y,orientation_z,acceleration_x,acceleration_y,acceleration_z,accel_rejected,mag_rejected,ahrs_initialized,gyro_x,gyro_y,gyro_z,accel_x,accel_y,accel_z,mag_x,mag_y,mag_z
-0,0,0,5,5,5,5,0.0104951,0.00667708,0.730001,4.88291e-05,-0.00867703,0.00608634,0,0,0,3.6225,0.595,-1.225,-0.040138,0.003294,-1.00662,-0.14644,-0.27692,0.33306
-0,0,0,5,5,5,5,0.0224562,0.0231224,1.45078,0.00680797,-0.00968954,-0.0010448,0,0,0,3.7275,0.49,-1.295,-0.033062,0.002074,-1.0137,-0.14644,-0.27692,0.33306
-0,0,0,5,5,5,5,0.0345262,0.0395608,2.16861,0.00652107,-0.00947888,-0.00104506,0,0,0,3.8675,0.805,-1.3125,-0.033062,0.002074,-1.0137,-0.14644,-0.27692,0.33306
-0,0,0,5,5,5,5,0.0428437,0.0557681,2.88181,0.007939,-0.00652479,0.00116768,0,0,0,3.675,0.8225,-1.3475,-0.031354,0.00488,-1.0115,-0.14644,-0.27692,0.33306
-0,0,0,5,5,5,5,0.051062,0.0714855,3.59202,0.00766468,-0.00638136,0.00116725,0,0,0,3.675,0.8225,-1.3475,-0.031354,0.00488,-1.0115,-0.14644,-0.27692,0.33306
-0,0,0,5,5,5,5,0.058849,0.0742346,4.30185,-0.00149473,-0.00636758,0.00497847,0,0,0,3.5,0.595,-1.295,-0.040504,0.004758,-1.00772,-0.14602,-0.27258,0.33306
-0,0,0,5,5,5,5,0.0694203,0.0844513,5.00458,0.00257896,-0.00862561,0.00313378,0,0,0,3.43,0.7175,-1.2075,-0.036234,0.002318,-1.00955,-0.14602,-0.27258,0.33306
-0,0,0,5,5,5,5,0.0782902,0.0955532,5.70286,0.00372153,-0.0071274,0.00694468,0,0,0,3.43,0.945,-1.1375,-0.034892,0.00366,-1.00577,-0.14602,-0.27258,0.33306
-0,0,0,5,5,5,5,0.0870642,0.105768,6.39745,0.00354325,-0.00697427,0.00694415,0,0,0,3.4475,0.6475,-1.2775,-0.034892,0.00366,-1.00577,-0.14602,-0.27258,0.33306
-0,0,0,5,5,5,5,0.094375,0.117316,7.08666,0.00552845,-0.00550328,0.00436164,0,0,0,3.605,0.5075,-1.2425,-0.032696,0.005002,-1.00833,-0.14602,-0.27258,0.33306
-0,0,0,5,5,5,5,0.101582,0.128495,7.77236,0.00533334,-0.00537749,0.004361,0,0,0,3.605,0.5075,-1.2425,-0.032696,0.005002,-1.00833,-0.14602,-0.27258,0.33306
-0,0,0,5,5,5,5,0.111955,0.137831,8.4558,0.00237622,-0.00812749,-0.000926498,0,0,0,3.4825,0.6475,-1.155,-0.035502,0.002074,-1.01358,-0.14756,-0.27062,0.33026
-0,0,0,5,5,5,5,0.123908,0.150275,9.13351,0.00385983,-0.00914015,0.00546585,0,0,0,3.5175,0.7875,-1.2425,-0.033794,0.000854,-1.00723,-0.14756,-0.27062,0.33026
-0,0,0,5,5,5,5,0.136625,0.158202,9.80986,0.000319883,-0.00977309,0.00386664,0,0,0,3.535,0.735,-1.3475,-0.03721,0,-1.00882,-0.14756,-0.27062,0.33026
-0,0,0,5,5,5,5,0.148699,0.165713,10.4826,0.000188791,-0.00956235,0.00386575,0,0,0,3.29,0.7,-1.085,-0.03721,0,-1.00882,-0.14756,-0.27062,0.33026
-0,0,0,5,5,5,5,0.157922,0.166593,11.1546,-0.00359262,-0.00744735,0.00669309,0,0,0,3.2725,0.7525,-1.12,-0.040992,0.001952,-1.00601,-0.14756,-0.27062,0.33026
-0,0,0,5,5,5,5,0.163332,0.17347,11.8176,0.0026046,-0.00393339,0.00177452,0,0,0,3.5525,0.84,-1.155,-0.034648,0.005368,-1.01089,-0.14756,-0.27062,0.33026
-0,0,0,5,5,5,5,0.168431,0.180055,12.4762,0.00248967,-0.00384439,0.00177391,0,0,0,3.43,0.805,-1.3125,-0.034648,0.005368,-1.01089,-0.14756,-0.27062,0.33026
-0,0,0,5,5,5,5,0.178819,0.190467,13.1289,0.00327984,-0.00769327,-0.00203863,0,0,0,3.5175,0.8225,-1.2775,-0.033672,0.001342,-1.01467,-0.14756,-0.27062,0.33026
-0,0,0,5,5,5,5,0.189388,0.200288,13.7738,0.00310844,-0.00750881,-0.00203981,0,0,0,3.7275,0.735,-1.2075,-0.033672,0.001342,-1.01467,-0.14532,-0.27048,0.3367
-0,0,0,5,5,5,5,0.198898,0.211006,14.4135,0.00425772,-0.00673221,-0.0011804,0,0,0,3.64,0.6825,-1.1375,-0.03233,0.001952,-1.01382,-0.14532,-0.27048,0.3367
-0,0,0,5,5,5,5,0.204205,0.214447,15.0525,0.000431589,-0.00407491,0.00312225,0,0,0,3.36,0.5425,-1.1375,-0.036112,0.004514,-1.00955,-0.14532,-0.27048,0.3367
-0,0,0,5,5,5,5,0.209169,0.217829,15.6871,0.000372575,-0.00398829,0.00312171,0,0,0,3.22,0.595,-1.225,-0.036112,0.004514,-1.00955,-0.14532,-0.27048,0.3367
-0,0,0,5,5,5,5,0.216942,0.222732,16.3161,0.00065146,-0.00592878,0.00226024,0,0,0,3.29,0.4725,-1.33,-0.035746,0.00244,-1.0104,-0.14532,-0.27048,0.3367
-0,0,0,5,5,5,5,0.224885,0.227443,16.9408,0.000569225,-0.00579014,0.00225938,0,0,0,3.465,0.49,-1.33,-0.035746,0.00244,-1.0104,-0.14532,-0.27048,0.3367
-0,0,0,5,5,5,5,0.230945,0.232258,17.5605,0.0013356,-0.00434099,-0.00142983,0,0,0,3.5,0.5775,-1.33,-0.034892,0.003782,-1.01406,-0.14532,-0.27048,0.3367
-0,0,0,5,5,5,5,0.236891,0.236879,18.1758,0.00125495,-0.00423723,-0.00143058,0,0,0,3.5,0.5775,-1.33,-0.034892,0.003782,-1.01406,-0.14532,-0.27048,0.3367
-0,0,0,5,5,5,5,0.245815,0.246844,18.7919,0.00411816,-0.00664614,-0.00278441,0,0,0,3.185,0.49,-1.47,-0.031842,0.00122,-1.01541,-0.14056,-0.27258,0.33068
-0,0,0,5,5,5,5,0.249846,0.251955,19.4059,0.00244964,-0.0025456,0.00250169,0,0,0,3.64,0.595,-1.3825,-0.033428,0.005246,-1.01016,-0.14056,-0.27258,0.33068
-0,0,0,5,5,5,5,0.2532,0.25843,20.0144,0.00379446,-0.00199856,-0.000203941,0,0,0,3.64,0.595,-1.2775,-0.031964,0.005734,-1.01284,-0.14056,-0.27258,0.33068
-0,0,0,5,5,5,5,0.256327,0.264322,20.6181,0.00369163,-0.00194398,-0.000204653,0,0,0,3.5525,0.3675,-1.33,-0.031964,0.005734,-1.01284,-0.14056,-0.27258,0.33068
-0,0,0,5,5,5,5,0.259231,0.265286,21.22,-9.12379e-05,-0.00201543,0.00680311,0,0,0,3.4825,0.3675,-1.3475,-0.035746,0.005612,-1.00589,-0.14056,-0.27258,0.33068
-0,0,0,5,5,5,5,0.262076,0.266188,21.8173,-0.000106985,-0.00196577,0.00680281,0,0,0,3.4825,0.3675,-1.3475,-0.035746,0.005612,-1.00589,-0.14056,-0.27258,0.33068
-0,0,0,5,5,5,5,0.264492,0.273697,22.4054,0.00535029,-0.00143509,0.002007,0,0,0,3.4475,0.2275,-1.3125,-0.030134,0.0061,-1.01065,-0.14056,-0.27258,0.33068
-0,0,0,5,5,5,5,0.274238,0.279252,22.9891,0.00112283,-0.00676071,0.000530354,0,0,0,3.4475,0.2625,-1.19,-0.034282,0.00061,-1.01211,-0.14336,-0.27426,0.3325
-0,0,0,5,5,5,5,0.282192,0.286337,23.5669,0.00257849,-0.00552276,0.00581586,0,0,0,3.3075,0.4725,-1.26,-0.032696,0.001708,-1.00687,-0.14336,-0.27426,0.3325
-0,0,0,5,5,5,5,0.28995,0.293508,24.1402,0.00245333,-0.00538736,0.00581455,0,0,0,3.29,0.6825,-1.0675,-0.032696,0.001708,-1.00687,-0.14336,-0.27426,0.3325
-0,0,0,5,5,5,5,0.296531,0.294051,24.7124,-0.00229408,-0.00490612,0.00605981,0,0,0,3.2375,0.7175,-1.085,-0.037454,0.002074,-1.00662,-0.14336,-0.27426,0.3325
-0,0,0,5,5,5,5,0.303285,0.294435,25.2795,-0.00230078,-0.00478825,0.00605916,0,0,0,3.4125,0.6825,-1.19,-0.037454,0.002074,-1.00662,-0.14336,-0.27426,0.3325
-0,0,0,5,5,5,5,0.310783,0.303007,25.8365,0.00386687,-0.00465738,0.00581178,0,0,0,3.605,0.7175,-1.33,-0.03111,0.002074,-1.00687,-0.14336,-0.27426,0.3325
-0,0,0,5,5,5,5,0.318115,0.311283,26.3887,0.00372242,-0.00452942,0.0058103,0,0,0,3.605,0.7175,-1.33,-0.03111,0.002074,-1.00687,-0.14336,-0.27426,0.3325
-0,0,0,5,5,5,5,0.312582,0.313538,26.9396,0.00344008,0.00380075,0.0107286,0,0,0,3.3425,0.63,-1.085,-0.031354,0.010492,-1.00199,-0.14336,-0.27426,0.3325
-0,0,0,5,5,5,5,0.365868,0.385687,27.4375,0.0383836,-0.0339835,-0.00698922,0,0,0,3.325,0.525,-1.155,0.005002,-0.028182,-1.01955,-0.1456,-0.27356,0.33768
0,0,0,5,5,5,5,0.331542,0.228338,28.0624,-0.107447,0.0153673,0.0398725,0,0,0,3.5525,0.455,-1.1025,-0.144204,0.021716,-0.973072,-0.1456,-0.27356,0.33768
0,0,0,5,5,5,5,0.297119,0.0751781,28.681,-0.104774,0.0147666,0.0398829,0,0,0,3.0275,0.49,-1.33,-0.144204,0.021716,-0.973072,-0.1456,-0.27356,0.33768
-0,0,0,5,5,5,5,0.477009,0.434022,28.9802,0.227787,-0.108984,0.000982134,0,0,0,3.29,0.56,-1.4,0.196054,-0.105042,-1.01162,-0.1456,-0.27356,0.33768
-0,0,0,5,5,5,5,0.653206,0.782781,29.2767,0.2217,-0.105909,0.000887175,0,0,0,3.7625,0.5425,-2.065,0.196054,-0.105042,-1.01162,-0.1456,-0.27356,0.33768
-0,0,0,5,5,5,5,0.805313,1.08747,29.594,0.209944,-0.0988598,-0.0754615,0,0,0,3.29,0.28,-2.2225,0.189588,-0.10065,-1.08726,-0.1456,-0.27356,0.33768
-0,0,0,5,5,5,5,0.805992,1.08667,29.5926,0.209958,-0.098848,-0.0754614,1,0,0,3.885,0.105,-2.0825,0.189588,-0.10065,-1.08726,-0.1456,-0.27356,0.33768
0,0,0,5,5,5,5,0.765932,1.01171,30.1259,-0.0484703,0.0252669,-0.0856325,0,0,0,4.0775,0.7175,-1.995,-0.071248,0.024034,-1.09739,-0.14056,-0.26292,0.3507
-0,0,0,5,5,5,5,0.865681,0.918256,30.6556,-0.104059,-0.0727697,0.0305565,0,0,0,2.7825,0.91,-1.925,-0.12871,-0.07564,-0.9821,-0.14056,-0.26292,0.3507
-0,0,0,5,5,5,5,0.964079,0.825953,31.1799,-0.102448,-0.0710524,0.0305536,0,0,0,3.2375,1.05,-1.6625,-0.12871,-0.07564,-0.9821,-0.14056,-0.26292,0.3507
-0,0,0,5,5,5,5,1.1136,0.669865,31.725,-0.188773,-0.126819,-0.0935132,0,0,0,3.2025,0.665,-1.5575,-0.218136,-0.133956,-1.1052,-0.14056,-0.26292,0.3507
-0,0,0,5,5,5,5,1.1134,0.670031,31.7248,-0.188776,-0.126823,-0.0935132,1,0,0,3.3775,0.6825,-1.365,-0.218136,-0.133956,-1.1052,-0.14056,-0.26292,0.3507
-0,0,0,5,5,5,5,1.11349,0.670419,31.7256,-0.13375,-0.178115,-0.148594,1,0,0,3.535,0.8225,-0.8575,-0.16287,-0.185196,-1.15985,-0.14056,-0.26292,0.3507
-0,0,0,5,5,5,5,1.11377,0.670675,31.7269,-0.133754,-0.17811,-0.148594,1,0,0,3.64,0.7525,-0.5075,-0.16287,-0.185196,-1.15985,-0.14056,-0.26292,0.3507
-0,0,0,5,5,5,5,1.2984,0.497213,32.2699,-0.186611,-0.129212,0.0672662,0,0,0,3.9025,0.245,-0.4025,-0.21899,-0.139568,-0.945622,-0.14056,-0.26292,0.3507
-0,0,0,5,5,5,5,1.47771,0.322618,32.7956,-0.183563,-0.126083,0.0672122,0,0,0,4.1125,0.175,0.0525,-0.21899,-0.139568,-0.945622,-0.1484,-0.25998,0.35336
-0,0,0,5,5,5,5,1.52809,0.0485279,33.383,-0.23199,-0.0520496,0.0193777,0,0,0,3.64,0.1925,0.5425,-0.272426,-0.06649,-0.99308,-0.1484,-0.25998,0.35336
-0,0,0,5,5,5,5,1.57677,-0.218593,33.9633,-0.227328,-0.0512005,0.0193477,0,0,0,3.1325,0.9275,0.77,-0.272426,-0.06649,-0.99308,-0.1484,-0.25998,0.35336
0,0,0,5,5,5,5,1.49657,-0.349712,34.4916,-0.0767058,0.0433916,0.0412588,0,0,0,2.38,0.8575,0.7175,-0.123464,0.029402,-0.971364,-0.1484,-0.25998,0.35336
0,0,0,5,5,5,5,1.41841,-0.47684,35.0147,-0.074487,0.0420274,0.0412775,0,0,0,2.38,0.8575,0.7175,-0.123464,0.029402,-0.971364,-0.1484,-0.25998,0.35336
-0,0,0,5,5,5,5,1.4174,-0.476726,35.0179,0.0124947,-0.0328538,-0.106629,1,0,0,2.94,0.7,0.5775,-0.036112,-0.045384,-1.11813,-0.1484,-0.25998,0.35336
-0,0,0,5,5,5,5,1.41743,-0.47653,35.0202,0.0124913,-0.0328533,-0.106629,1,0,0,3.5175,0.735,0.07,-0.036112,-0.045384,-1.11813,-0.1484,-0.25998,0.35336
-0,0,0,5,5,5,5,1.38029,-0.555698,35.509,-0.0479632,0.0203563,0.0580023,0,0,0,3.9375,0.7175,0.105,-0.09821,0.008418,-0.954772,-0.1484,-0.25998,0.35336
-0,0,0,5,5,5,5,1.3473,-0.632821,35.992,-0.0466172,0.0197804,0.058002,0,0,0,5.705,0.5775,-0.35,-0.09821,0.008418,-0.954772,-0.1484,-0.25998,0.35336
-0,0,0,5,5,5,5,1.38921,-0.673757,36.4421,-0.0390996,-0.0240648,0.0771564,0,0,0,5.5825,0.2275,-0.525,-0.091378,-0.036112,-0.93574,-0.14196,-0.2562,0.35532
-0,0,0,5,5,5,5,1.39036,-0.675648,36.4417,0.14462,0.0470329,0.197522,1,0,0,4.13,-0.525,-1.435,0.093086,0.034892,-0.816302,-0.14196,-0.2562,0.35532
-0,0,0,5,5,5,5,1.38956,-0.676267,36.4395,0.144631,0.047019,0.197522,1,0,0,3.0275,0.1925,-2.59,0.093086,0.034892,-0.816302,-0.14196,-0.2562,0.35532
0,0,0,5,5,5,5,1.14981,-0.673835,36.8947,0.0720612,0.160566,-0.0200033,0,0,0,0.5075,0.5775,-3.1325,0.020252,0.1525,-1.03224,-0.14196,-0.2562,0.35532
0,0,0,5,5,5,5,0.915938,-0.668691,37.3448,0.0719714,0.156485,-0.0199287,0,0,0,0.665,0.735,-4.235,0.020252,0.1525,-1.03224,-0.14196,-0.2562,0.35532
0,0,0,5,5,5,5,0.630903,-1.05354,37.9966,-0.245436,0.172516,-0.0247575,0,0,0,2.1875,0.945,-4.2175,-0.305244,0.173484,-1.037,-0.14196,-0.2562,0.35532
0,0,0,5,5,5,5,0.354282,-1.42661,38.6428,-0.238927,0.167688,-0.0248569,0,0,0,3.08,0.8925,-4.725,-0.305244,0.173484,-1.037,-0.14196,-0.2562,0.35532
-0,0,0,5,5,5,5,0.356526,-1.42549,38.6374,-0.0241594,0.224028,0.181943,1,0,0,4.6725,1.225,-4.3925,-0.089548,0.229726,-0.831796,-0.14196,-0.2562,0.35532
-0,0,0,5,5,5,5,0.360414,-1.42404,38.6325,-0.0241847,0.224095,0.181943,1,0,0,5.6,1.4175,-4.1475,-0.089548,0.229726,-0.831796,-0.13734,-0.2492,0.3626
-0,0,0,5,5,5,5,0.364142,-1.42397,38.6277,0.166061,0.151007,0.335382,1,0,0,5.5125,0.6125,-4.0775,0.101504,0.156648,-0.67954,-0.13734,-0.2492,0.3626
-0,0,0,5,5,5,5,0.366529,-1.42596,38.6241,0.166095,0.151048,0.335381,1,0,0,4.7775,-0.595,-3.36,0.101504,0.156648,-0.67954,-0.13734,-0.2492,0.3626
0,0,0,5,5,5,5,0.319057,-1.14642,38.8886,0.233502,0.0466571,0.0643942,0,0,0,3.3075,-0.385,-3.2375,0.174094,0.053192,-0.94855,-0.13734,-0.2492,0.3626
0,0,0,5,5,5,5,0.270886,-0.87178,39.1519,0.228709,0.0458169,0.0644829,0,0,0,2.5025,0,-2.73,0.174094,0.053192,-0.94855,-0.13734,-0.2492,0.3626
-0,0,0,5,5,5,5,0.267057,-0.872208,39.1505,0.05973,0.00276148,-0.186824,1,0,0,1.33,0.3325,-2.1,0.004392,0.010248,-1.19792,-0.13734,-0.2492,0.3626
-0,0,0,5,5,5,5,0.263108,-0.87127,39.1507,0.0597136,0.00269258,-0.186823,1,0,0,1.2775,1.1375,-1.1375,0.004392,0.010248,-1.19792,-0.13734,-0.2492,0.3626
0,0,0,5,5,5,5,0.188073,-0.797816,39.5345,0.0823644,0.0549968,-0.051187,0,0,0,2.275,1.54,-0.665,0.028426,0.063806,-1.06335,-0.13734,-0.2492,0.3626
0,0,0,5,5,5,5,0.116968,-0.725143,39.9195,0.0810961,0.053756,-0.0511669,0,0,0,3.535,1.6275,0.665,0.028426,0.063806,-1.06335,-0.13902,-0.25214,0.36008
-0,0,0,5,5,5,5,0.120874,-0.723285,39.9232,-0.16701,0.0322077,0.230263,1,0,0,5.705,1.68,0.875,-0.220698,0.042212,-0.784094,-0.13902,-0.25214,0.36008
-0,0,0,5,5,5,5,0.124386,-0.722805,39.9284,-0.167018,0.032269,0.230262,1,0,0,5.495,0.875,1.7675,-0.220698,0.042212,-0.784094,-0.13902,-0.25214,0.36008
-0,0,0,5,5,5,5,0.12699,-0.723192,39.9338,0.090052,-0.0940867,0.168911,1,0,0,4.9875,0.3675,1.89,0.037454,-0.084058,-0.844972,-0.13902,-0.25214,0.36008
-0,0,0,5,5,5,5,0.182994,-0.441345,40.1734,0.206619,-0.0169021,0.0707225,0,0,0,4.34,-0.63,1.925,0.159454,-0.00793,-0.94245,-0.13902,-0.25214,0.36008
-0,0,0,5,5,5,5,0.181258,-0.444215,40.1783,0.0699975,-0.115244,-0.352344,1,0,0,2.5375,-1.085,1.6275,0.022204,-0.10614,-1.36225,-0.13902,-0.25214,0.36008
-0,0,0,5,5,5,5,0.179054,-0.445263,40.1833,0.0700158,-0.115283,-0.352344,1,0,0,2.275,-0.0175,1.6275,0.022204,-0.10614,-1.36225,-0.13902,-0.25214,0.36008
-0,0,0,5,5,5,5,0.176728,-0.445115,40.1879,0.256737,-0.0306897,-0.305131,1,0,0,2.205,0.6825,1.4175,0.209718,-0.021594,-1.3154,-0.13902,-0.25214,0.36008
-0,0,0,5,5,5,5,0.174969,-0.444277,40.1917,0.256722,-0.0307204,-0.305131,1,0,0,2.52,1.085,0.9625,0.209718,-0.021594,-1.3154,-0.1372,-0.25424,0.36498
-0,0,0,5,5,5,5,0.353056,-0.469911,40.5657,-0.0665899,-0.111758,0.0586557,0,0,0,4.095,1.2425,0.875,-0.115412,-0.105652,-0.954406,-0.1372,-0.25424,0.36498
-0,0,0,5,5,5,5,0.527304,-0.49632,40.934,-0.066129,-0.108717,0.0586285,0,0,0,4.445,1.5925,0.0875,-0.115412,-0.105652,-0.954406,-0.1372,-0.25424,0.36498
-0,0,0,5,5,5,5,0.52887,-0.495574,40.9356,-0.122025,-0.0586174,0.295427,1,0,0,4.375,1.0325,-0.3675,-0.171532,-0.055632,-0.719434,-0.1372,-0.25424,0.36498
-0,0,0,5,5,5,5,0.529927,-0.495195,40.9347,-0.108304,0.13082,0.334156,1,0,0,4.0775,0.805,-1.7675,-0.157746,0.13359,-0.681004,-0.1372,-0.25424,0.36498
-0,0,0,5,5,5,5,0.517254,-0.299828,41.2166,0.157863,0.0212953,0.0516458,0,0,0,4.13,0.5075,-2.275,0.112972,0.0244,-0.96136,-0.1372,-0.25424,0.36498
-0,0,0,5,5,5,5,0.505308,-0.110769,41.4941,0.154563,0.0210869,0.0516595,0,0,0,4.5325,-0.7875,-3.395,0.112972,0.0244,-0.96136,-0.1372,-0.25424,0.36498
-0,0,0,5,5,5,5,0.50702,-0.113975,41.4899,-0.0617469,-0.0208948,-0.313621,1,0,0,4.445,-1.3125,-3.6575,-0.10431,-0.017568,-1.32382,-0.1372,-0.25424,0.36498
-0,0,0,5,5,5,5,0.507956,-0.115497,41.4845,0.0762874,-0.0746143,-0.305138,1,0,0,4.0075,-0.3325,-4.4275,0.034282,-0.071248,-1.3154,-0.1414,-0.2555,0.36078
-0,0,0,5,5,5,5,0.507299,-0.115946,41.4793,-0.000483688,0.113205,-0.132764,1,0,0,3.115,0.2975,-4.305,-0.042822,0.116388,-1.14436,-0.1414,-0.2555,0.36078
-0,0,0,5,5,5,5,0.506271,-0.113751,41.4725,-0.000521987,0.113187,-0.132763,1,0,0,2.905,1.8375,-5.25,-0.042822,0.116388,-1.14436,-0.1414,-0.2555,0.36078
-0,0,0,5,5,5,5,0.505242,-0.111797,41.4658,0.0405061,-0.0281314,0.197968,1,0,0,2.905,1.6975,-5.1975,-0.001586,-0.024766,-0.81618,-0.1414,-0.2555,0.36078
-0,0,0,5,5,5,5,0.504773,-0.109462,41.46,0.0404653,-0.0281395,0.197968,1,0,0,3.22,1.925,-4.655,-0.001586,-0.024766,-0.81618,-0.1414,-0.2555,0.36078
-0,0,0,5,5,5,5,0.505926,-0.10737,41.4546,0.16483,-0.0210361,0.240263,1,0,0,4.13,1.785,-4.445,0.123342,-0.01769,-0.774212,-0.1414,-0.2555,0.36078
-0,0,0,5,5,5,5,0.508014,-0.108095,41.4502,0.164843,-0.0209996,0.240262,1,0,0,4.655,0.14,-3.815,0.123342,-0.01769,-0.774212,-0.1414,-0.2555,0.36078
-0,0,0,5,5,5,5,0.605876,-0.0547514,41.7711,0.0194653,-0.0611812,-0.0211416,0,0,0,4.3225,-0.14,-3.465,-0.021716,-0.059536,-1.03358,-0.1414,-0.2555,0.36078
-0,0,0,5,5,5,5,0.700362,-0.00332032,42.091,0.0185677,-0.0595322,-0.02116,0,0,0,3.885,0.0175,-2.1525,-0.021716,-0.059536,-1.03358,-0.1414,-0.2555,0.36078
-0,0,0,5,5,5,5,0.70113,-0.00463788,42.0898,0.0338978,-0.00370683,-0.16378,1,0,0,3.92,-0.1925,-1.9075,-0.006344,-0.003782,-1.1751,-0.1337,-0.2618,0.36022
-0,0,0,5,5,5,5,0.699464,-0.00564741,42.0904,0.0339155,-0.00373591,-0.16378,1,0,0,2.555,0,-0.9275,-0.006344,-0.003782,-1.1751,-0.1337,-0.2618,0.36022
-0,0,0,5,5,5,5,0.748323,-0.172566,42.5364,-0.159492,-0.0468489,-0.0334699,0,0,0,2.2925,0.8225,-0.525,-0.203496,-0.047702,-1.04578,-0.1337,-0.2618,0.36022
-0,0,0,5,5,5,5,0.794489,-0.334343,42.9788,-0.156669,-0.0460434,-0.0334933,0,0,0,1.3125,2.0125,0.6475,-0.203496,-0.047702,-1.04578,-0.1337,-0.2618,0.36022
-0,0,0,5,5,5,5,0.791427,-0.331097,42.9827,-0.0285579,0.000677699,0.142816,1,0,0,1.785,2.52,0.9625,-0.074786,-0.000976,-0.870836,-0.1337,-0.2618,0.36022
-0,0,0,5,5,5,5,0.791978,-0.329095,42.9879,-0.0285928,0.000687317,0.142816,1,0,0,3.815,1.8025,1.7675,-0.074786,-0.000976,-0.870836,-0.1337,-0.2618,0.36022
0,0,0,5,5,5,5,0.578743,-0.414177,43.4515,-0.01338,0.128619,0.0521149,0,0,0,4.725,1.015,2.1525,-0.061,0.13054,-0.960872,-0.1337,-0.2618,0.36022
0,0,0,5,5,5,5,0.372287,-0.495893,43.9117,-0.0119538,0.125015,0.0521335,0,0,0,5.5475,0.63,2.3975,-0.061,0.13054,-0.960872,-0.1337,-0.2618,0.36022
-0,0,0,5,5,5,5,0.375658,-0.496575,43.9175,0.0447919,-0.0217222,-0.110528,1,0,0,5.4075,0.21,2.135,-0.004026,-0.016104,-1.12228,-0.13678,-0.25914,0.34888
-0,0,0,5,5,5,5,0.376795,-0.499189,43.9218,0.0448375,-0.0217023,-0.110528,1,0,0,4.1475,-0.9275,1.2425,-0.004026,-0.016104,-1.12228,-0.13678,-0.25914,0.34888
-0,0,0,5,5,5,5,0.373607,-0.428524,44.2554,0.0664435,0.00657548,-0.0923217,0,0,0,3.15,-0.735,0.77,0.01891,0.0122,-1.10422,-0.13678,-0.25914,0.34888
-0,0,0,5,5,5,5,0.368026,-0.357297,44.5845,0.0652004,0.00647814,-0.0923125,0,0,0,1.82,0.4725,0.0875,0.01891,0.0122,-1.10422,-0.13678,-0.25914,0.34888
0,0,0,5,5,5,5,0.179414,-0.276067,44.9442,0.109704,0.119329,0.0577082,0,0,0,1.7325,1.225,-0.28,0.065026,0.128222,-0.955382,-0.13678,-0.25914,0.34888
0,0,0,5,5,5,5,-0.00323938,-0.193987,45.2997,0.108272,0.116141,0.057719,0,0,0,2.52,1.7325,-1.05,0.065026,0.128222,-0.955382,-0.13678,-0.25914,0.34888
0,0,0,5,5,5,5,-0.0706702,-0.160857,45.6511,0.0417268,0.04352,0.026737,0,0,0,2.94,1.8725,-1.68,-0.00122,0.056852,-0.986126,-0.13678,-0.25914,0.34888
0,0,0,5,5,5,5,-0.13468,-0.128647,45.998,0.0411646,0.0424028,0.0267364,0,0,0,3.92,1.3825,-2.31,-0.00122,0.056852,-0.986126,-0.13678,-0.25914,0.34888
0,0,0,5,5,5,5,-0.229627,-0.177638,46.3774,-0.0183587,0.0601639,-0.0335159,0,0,0,4.0775,0.9975,-2.59,-0.061854,0.07625,-1.04591,-0.14434,-0.25858,0.3479
0,0,0,5,5,5,5,-0.321734,-0.226864,46.7516,-0.0174996,0.0585563,-0.0335267,0,0,0,4.2525,-0.2975,-3.395,-0.061854,0.07625,-1.04591,-0.14434,-0.25858,0.3479
-0,0,0,5,5,5,5,-0.243182,-0.154062,47.0217,0.0463461,-0.0457123,-0.0416303,0,0,0,4.13,-1.19,-4.025,0.003538,-0.02928,-1.05396,-0.14434,-0.25858,0.3479
0,0,0,5,5,5,5,-0.358566,-0.155215,47.3709,0.0281434,0.070004,0.0558573,0,0,0,3.99,-0.875,-4.445,-0.014762,0.088328,-0.957212,-0.14434,-0.25858,0.3479
0,0,0,5,5,5,5,-0.47097,-0.153888,47.7166,0.0281202,0.0680423,0.0558431,0,0,0,3.99,-0.0525,-4.4625,-0.014762,0.088328,-0.957212,-0.14434,-0.25858,0.3479
0,0,0,5,5,5,5,-0.471093,-0.153976,47.7116,0.0331027,0.0447139,0.10994,1,0,0,3.4125,0.56,-4.2,-0.00976,0.065026,-0.903532,-0.14434,-0.25858,0.3479
0,0,0,5,5,5,5,-0.472031,-0.151965,47.7076,0.0330676,0.0446976,0.10994,1,0,0,2.9575,1.785,-3.6225,-0.00976,0.065026,-0.903532,-0.14434,-0.25858,0.3479
-0,0,0,5,5,5,5,-0.401885,-0.116379,47.9891,0.010822,-0.0439635,-0.0236938,0,0,0,2.765,2.03,-3.6575,-0.031476,-0.024766,-1.03615,-0.14434,-0.25858,0.3479
-0,0,0,5,5,5,5,-0.332792,-0.0826619,48.2733,0.0102336,-0.0427576,-0.0236851,0,0,0,3.1675,1.6625,-2.7125,-0.031476,-0.024766,-1.03615,-0.14518,-0.26432,0.3479
0,0,0,5,5,5,5,-0.427457,-0.268136,48.6906,-0.139844,0.0488951,-0.0288698,0,0,0,3.8325,1.1025,-2.3625,-0.18544,0.068442,-1.04127,-0.14518,-0.26432,0.3479
0,0,0,5,5,5,5,-0.518924,-0.450354,49.1052,-0.136664,0.0472989,-0.0289029,0,0,0,4.0425,0.105,-1.19,-0.18544,0.068442,-1.04127,-0.14518,-0.26432,0.3479
-0,0,0,5,5,5,5,-0.438123,-0.383516,49.366,0.0382022,-0.0441073,0.0159936,0,0,0,4.655,0.0175,-0.8575,-0.008662,-0.024278,-0.99674,-0.14518,-0.26432,0.3479
-0,0,0,5,5,5,5,-0.360389,-0.319117,49.6252,0.0370783,-0.0427507,0.0160099,0,0,0,4.235,-0.1575,-0.21,-0.008662,-0.024278,-0.99674,-0.14518,-0.26432,0.3479
0,0,0,5,5,5,5,-0.358916,-0.319925,49.6276,0.112778,-0.0267264,0.117565,1,0,0,4.3225,0.105,0.14,0.067344,-0.008296,-0.895968,-0.14518,-0.26432,0.3479
0,0,0,5,5,5,5,-0.358513,-0.319559,49.6315,0.112772,-0.0267193,0.117566,1,0,0,3.7275,0.7875,0.9975,0.067344,-0.008296,-0.895968,-0.14518,-0.26432,0.3479
-0,0,0,5,5,5,5,-0.320323,-0.392181,49.9565,-0.068311,-0.0293502,0.042563,0,0,0,2.73,1.085,1.05,-0.115778,-0.01159,-0.970388,-0.14518,-0.26432,0.3479
-0,0,0,5,5,5,5,-0.283168,-0.462565,50.2819,-0.0670826,-0.0287017,0.0425573,0,0,0,2.5375,1.5925,1.3125,-0.115778,-0.01159,-0.970388,-0.14378,-0.26614,0.3451
0,0,0,5,5,5,5,-0.372051,-0.601619,50.6678,-0.100737,0.0452215,-0.00837481,0,0,0,2.835,1.4875,1.26,-0.152012,0.063806,-1.0209,-0.14378,-0.26614,0.3451
0,0,0,5,5,5,5,-0.457575,-0.737609,51.0494,-0.0983637,0.0437292,-0.00841336,0,0,0,3.2375,1.0325,1.2775,-0.152012,0.063806,-1.0209,-0.14378,-0.26614,0.3451
-0,0,0,5,5,5,5,-0.370844,-0.636208,51.2815,0.0683673,-0.0465967,-0.0238727,0,0,0,4.445,0.5075,1.1725,0.017202,-0.027938,-1.03627,-0.14378,-0.26614,0.3451
-0,0,0,5,5,5,5,-0.28567,-0.539468,51.5099,0.066679,-0.0451103,-0.0238469,0,0,0,5.005,-0.525,0.35,0.017202,-0.027938,-1.03627,-0.14378,-0.26614,0.3451
0,0,0,5,5,5,5,-0.283425,-0.541833,51.5122,0.0844572,0.0146489,0.149141,1,0,0,4.76,-0.805,0.0525,0.035014,0.03172,-0.864614,-0.14378,-0.26614,0.3451
0,0,0,5,5,5,5,-0.282356,-0.543905,51.5134,0.0844933,0.0146675,0.149141,1,0,0,4.095,-0.63,-0.56,0.035014,0.03172,-0.864614,-0.14378,-0.26614,0.3451
-0,0,0,5,5,5,5,-0.0976742,-0.453513,51.7047,0.0352934,-0.102771,0.0605198,0,0,0,3.15,-0.56,-1.0675,-0.01281,-0.088816,-0.952576,-0.14378,-0.26614,0.3451
-0,0,0,5,5,5,5,0.0809223,-0.365259,51.8923,0.0337531,-0.0996536,0.0605312,0,0,0,2.695,0.21,-2.17,-0.01281,-0.088816,-0.952576,-0.14378,-0.26614,0.3451
0,0,0,5,5,5,5,-0.198784,-0.459547,52.2835,-0.0184195,0.163289,0.0195725,0,0,0,1.5225,0.595,-2.31,-0.066856,0.17873,-0.993202,-0.14798,-0.27146,0.34104
0,0,0,5,5,5,5,-0.470082,-0.54758,52.6699,-0.0168831,0.158554,0.0195314,0,0,0,2.03,1.645,-3.1675,-0.066856,0.17873,-0.993202,-0.14798,-0.27146,0.34104
0,0,0,5,5,5,5,-0.598214,-0.541715,52.9784,0.0333096,0.0849959,-0.0599132,0,0,0,3.22,1.47,-3.5525,-0.016348,0.107482,-1.07201,-0.14798,-0.27146,0.34104
0,0,0,5,5,5,5,-0.721005,-0.536428,53.2829,0.0332174,0.082853,-0.059937,0,0,0,4.2875,0.5775,-3.99,-0.016348,0.107482,-1.07201,-0.14798,-0.27146,0.34104
0,0,0,5,5,5,5,-0.844519,-0.539729,53.5886,0.0237991,0.0695841,0.076137,0,0,0,3.6925,0.07,-3.885,-0.025864,0.09638,-0.93696,-0.14798,-0.27146,0.34104
0,0,0,5,5,5,5,-0.964877,-0.542436,53.8911,0.0238463,0.0674838,0.0761034,0,0,0,3.5875,-0.2275,-3.8675,-0.025864,0.09638,-0.93696,-0.14798,-0.27146,0.34104
-0,0,0,5,5,5,5,-0.883417,-0.421507,54.0804,0.0828431,-0.0394214,0.0653246,0,0,0,3.5175,-0.35,-3.71,0.035502,-0.011834,-0.947696,-0.14798,-0.27146,0.34104
-0,0,0,5,5,5,5,-0.805504,-0.30268,54.2681,0.0807692,-0.038062,0.0653577,0,0,0,2.94,0.2625,-3.57,0.035502,-0.011834,-0.947696,-0.14798,-0.27146,0.34104
-0,0,0,5,5,5,5,-0.652897,-0.292094,54.4676,-0.0226784,-0.0921877,0.0297375,0,0,0,2.52,0.56,-3.185,-0.068198,-0.068564,-0.983076,-0.14728,-0.2716,0.34538
-0,0,0,5,5,5,5,-0.613595,-0.241045,54.6873,0.0346223,-0.0218896,-0.0258235,0,0,0,2.4675,1.54,-2.73,-0.00976,0.000976,-1.03822,-0.14728,-0.2716,0.34538
-0,0,0,5,5,5,5,-0.574442,-0.191396,54.9061,0.0337558,-0.0212063,-0.0258131,0,0,0,3.0625,1.5225,-1.8725,-0.00976,0.000976,-1.03822,-0.14728,-0.2716,0.34538
0,0,0,5,5,5,5,-0.720474,-0.267277,55.2283,-0.0382972,0.0901895,-0.0530188,0,0,0,4.025,1.2425,-1.54,-0.083448,0.114802,-1.06518,-0.14728,-0.2716,0.34538
0,0,0,5,5,5,5,-0.862938,-0.340681,55.5486,-0.0370161,0.0877034,-0.05306,0,0,0,3.71,1.0325,-0.63,-0.083448,0.114802,-1.06518,-0.14728,-0.2716,0.34538
-0,0,0,5,5,5,5,-0.741917,-0.32374,55.7482,-0.00851964,-0.0669954,0.0824605,0,0,0,4.5675,0.595,-0.0875,-0.054534,-0.041846,-0.930738,-0.14728,-0.2716,0.34538
-0,0,0,5,5,5,5,-0.623658,-0.308483,55.946,-0.00878592,-0.0649316,0.0824866,0,0,0,4.9525,0.3675,0.28,-0.054534,-0.041846,-0.930738,-0.14728,-0.2716,0.34538
-0,0,0,5,5,5,5,-0.469826,-0.193247,56.0915,0.0646455,-0.0793447,0.0762507,0,0,0,4.025,0.0175,0.49,0.021228,-0.058926,-0.93696,-0.14728,-0.2716,0.34538
-0,0,0,5,5,5,5,-0.321884,-0.0818918,56.2386,0.0627019,-0.0767627,0.0762732,0,0,0,3.5175,-0.035,0.7175,0.021228,-0.058926,-0.93696,-0.14392,-0.26992,0.34622
-0,0,0,5,5,5,5,-0.109403,0.0283337,56.3587,0.0559187,-0.128866,-0.0379311,0,0,0,2.4325,-0.105,0.84,0.016348,-0.11468,-1.0503,-0.14392,-0.26992,0.34622
-0,0,0,5,5,5,5,0.0957958,0.136346,56.4771,0.0540336,-0.125285,-0.0379334,0,0,0,1.8375,0.8225,0.49,0.016348,-0.11468,-1.0503,-0.14392,-0.26992,0.34622
0,0,0,5,5,5,5,-0.00621426,0.0210748,56.7746,-0.0798971,0.0516062,0.0145697,0,0,0,2.38,1.12,0.6125,-0.12017,0.063806,-0.998204,-0.14392,-0.26992,0.34622
0,0,0,5,5,5,5,-0.103479,-0.0913472,57.0678,-0.0779349,0.0499086,0.0145669,0,0,0,3.3075,0.8925,0.1575,-0.12017,0.063806,-0.998204,-0.14392,-0.26992,0.34622
-0,0,0,5,5,5,5,-0.0849239,-0.231089,57.328,-0.125427,-0.0218223,0.000544454,0,0,0,4.27,0.63,0.1225,-0.170312,-0.008174,-1.01211,-0.14392,-0.26992,0.34622
-0,0,0,5,5,5,5,-0.0658926,-0.369141,57.5838,-0.123017,-0.0214901,0.00053227,0,0,0,4.6375,0,-0.4025,-0.170312,-0.008174,-1.01211,-0.14392,-0.26992,0.34622
0,0,0,5,5,5,5,-0.0924459,-0.340853,57.7991,0.0322338,0.0209129,-0.0319237,0,0,0,4.935,-0.245,-0.6475,-0.013908,0.034648,-1.04432,-0.14392,-0.26992,0.34622
0,0,0,5,5,5,5,-0.120095,-0.314361,58.0134,0.0317714,0.0204303,-0.031922,0,0,0,3.99,-1.0325,-1.4875,-0.013908,0.034648,-1.04432,-0.1414,-0.26866,0.34314
-0,0,0,5,5,5,5,-0.07712,-0.212675,58.1739,0.0841793,-0.0188772,-0.0196177,0,0,0,3.0625,-0.945,-1.785,0.040504,-0.005368,-1.03212,-0.1414,-0.26866,0.34314
-0,0,0,5,5,5,5,-0.0356096,-0.11272,58.3318,0.0824347,-0.0181527,-0.019612,0,0,0,3.045,-0.56,-2.2575,0.040504,-0.005368,-1.03212,-0.1414,-0.26866,0.34314
0,0,0,5,5,5,5,-0.106326,-0.00466396,58.5228,0.11335,0.0531563,-0.0450619,0,0,0,2.24,0.0875,-2.5375,0.073444,0.0671,-1.05737,-0.1414,-0.26866,0.34314
0,0,0,5,5,5,5,-0.175039,0.103079,58.7109,0.111469,0.0519571,-0.0450665,0,0,0,2.415,0.9275,-3.0275,0.073444,0.0671,-1.05737,-0.1414,-0.26866,0.34314
0,0,0,5,5,5,5,-0.22045,0.114223,58.9219,0.0178525,0.0293038,-7.04456e-05,0,0,0,4.1475,0.945,-3.255,-0.020374,0.045262,-1.01272,-0.1414,-0.26866,0.34314
0,0,0,5,5,5,5,-0.264652,0.125515,59.1303,0.0176554,0.0285324,-7.41237e-05,0,0,0,4.13,0.98,-3.395,-0.020374,0.045262,-1.01272,-0.1414,-0.26866,0.34314
0,0,0,5,5,5,5,-0.336991,0.0494388,59.3745,-0.0523289,0.0367957,0.0377894,0,0,0,3.8675,1.365,-3.4475,-0.091988,0.054778,-0.975146,-0.1414,-0.26866,0.34314
0,0,0,5,5,5,5,-0.407381,-0.0261063,59.6122,-0.0510104,0.0355672,0.0377817,0,0,0,3.7625,0.4725,-3.0275,-0.091988,0.054778,-0.975146,-0.14322,-0.26558,0.34216
0,0,0,5,5,5,5,-0.409484,0.0111783,59.7879,0.0337433,0.00426605,-0.0136109,0,0,0,3.325,0.3675,-3.0625,-0.006222,0.023546,-1.02614,-0.14322,-0.26558,0.34216
0,0,0,5,5,5,5,-0.412649,0.0475367,59.9623,0.0331087,0.00421081,-0.0136117,0,0,0,2.7475,0.2625,-2.695,-0.006222,0.023546,-1.02614,-0.14322,-0.26558,0.34216
0,0,0,5,5,5,5,-0.4244,0.0790506,60.1394,0.0300075,0.00828018,0.00716452,0,0,0,2.2575,-0.0175,-2.31,-0.008784,0.027816,-1.00552,-0.14322,-0.26558,0.34216
0,0,0,5,5,5,5,-0.436079,0.111912,60.3155,0.0294339,0.00807635,0.00716203,0,0,0,2.1525,1.1025,-1.645,-0.008784,0.027816,-1.00552,-0.14322,-0.26558,0.34216
-0,0,0,5,5,5,5,-0.269338,0.155308,60.4207,0.00753805,-0.103813,-0.0525748,0,0,0,3.2375,1.4875,-1.3475,-0.030012,-0.086864,-1.06482,-0.14322,-0.26558,0.34216
-0,0,0,5,5,5,5,-0.107406,0.196974,60.5261,0.00681085,-0.100986,-0.0525677,0,0,0,3.2725,1.61,-0.5425,-0.030012,-0.086864,-1.06482,-0.14322,-0.26558,0.34216
-0,0,0,5,5,5,5,-0.0444009,0.150507,60.6922,-0.0534855,-0.0424872,-0.00399916,0,0,0,3.605,1.54,-0.35,-0.091378,-0.029524,-1.01663,-0.14322,-0.26558,0.34216
-0,0,0,5,5,5,5,0.0173596,0.103884,60.8516,-0.0526717,-0.0414093,-0.0039971,0,0,0,4.0075,1.225,-0.035,-0.091378,-0.029524,-1.01663,-0.14812,-0.2681,0.34524
0,0,0,5,5,5,5,0.0133164,0.137125,61.01,0.0300873,0.00602742,-0.0083015,0,0,0,4.0775,0.7,0.07,-0.007686,0.017934,-1.0209,-0.14812,-0.2681,0.34524
0,0,0,5,5,5,5,0.00836598,0.168905,61.1671,0.0295326,0.00594102,-0.00830296,0,0,0,3.5525,0.2275,0.42,-0.007686,0.017934,-1.0209,-0.14812,-0.2681,0.34524
-0,0,0,5,5,5,5,0.148678,0.212307,61.2631,0.0149257,-0.0861362,-0.0381853,0,0,0,2.695,0.2275,0.3675,-0.021594,-0.076494,-1.05054,-0.14812,-0.2681,0.34524
-0,0,0,5,5,5,5,0.285365,0.25387,61.3581,0.0142003,-0.0837506,-0.0381973,0,0,0,2.975,0.175,0.4725,-0.021594,-0.076494,-1.05054,-0.14812,-0.2681,0.34524
-0,0,0,5,5,5,5,0.347979,0.295656,61.4783,0.0284138,-0.0367382,-0.0496411,0,0,0,3.2375,-0.0175,0.42,-0.006588,-0.030622,-1.06189,-0.14812,-0.2681,0.34524
-0,0,0,5,5,5,5,0.408484,0.336263,61.5967,0.0277051,-0.0356822,-0.0496519,0,0,0,3.115,0.0175,0.1925,-0.006588,-0.030622,-1.06189,-0.14812,-0.2681,0.34524
-0,0,0,5,5,5,5,0.514472,0.479323,61.6658,0.102838,-0.04861,0.0533462,0,0,0,3.885,0.21,-0.105,0.07137,-0.045384,-0.959652,-0.14812,-0.2681,0.34524
-0,0,0,5,5,5,5,0.617191,0.619272,61.7327,0.100395,-0.0468176,0.0533051,0,0,0,3.9375,0.42,-1.0675,0.07137,-0.045384,-0.959652,-0.14812,-0.2681,0.34524
-0,0,0,5,5,5,5,0.613919,0.570697,61.8957,-0.0416243,-0.00205409,0.0176595,0,0,0,3.4825,0.6125,-1.365,-0.072102,-0.00061,-0.995032,-0.14308,-0.26754,0.3479
-0,0,0,5,5,5,5,0.611023,0.522694,62.0563,-0.0407865,-0.00210455,0.017668,0,0,0,3.57,0.35,-1.6625,-0.072102,-0.00061,-0.995032,-0.14308,-0.26754,0.3479
-0,0,0,5,5,5,5,0.639202,0.488466,62.1989,-0.0352082,-0.021153,-0.0393802,0,0,0,3.7275,0.2275,-2.03,-0.0671,-0.02013,-1.05164,-0.14308,-0.26754,0.3479
-0,0,0,5,5,5,5,0.666759,0.454717,62.3387,-0.0346192,-0.020672,-0.0393808,0,0,0,3.78,0.1925,-2.625,-0.0671,-0.02013,-1.05164,-0.14308,-0.26754,0.3479
0,0,0,5,5,5,5,0.529231,0.414201,62.5413,-0.0130165,0.0851322,-0.0636942,0,0,0,3.5,0.245,-2.695,-0.046116,0.087962,-1.0758,-0.14308,-0.26754,0.3479
0,0,0,5,5,5,5,0.39631,0.374888,62.7416,-0.0123304,0.0828125,-0.0636708,0,0,0,3.8675,-0.035,-2.8,-0.046116,0.087962,-1.0758,-0.14308,-0.26754,0.3479
0,0,0,5,5,5,5,0.279257,0.403367,62.917,0.0451212,0.0745411,0.00592676,0,0,0,4.2175,-0.0175,-2.8175,0.012078,0.08174,-1.00674,-0.14308,-0.26754,0.3479
0,0,0,5,5,5,5,0.164194,0.43277,63.0897,0.0446081,0.0725329,0.00593079,0,0,0,3.5525,0.455,-3.3075,0.012078,0.08174,-1.00674,-0.14308,-0.26754,0.3479
-0,0,0,5,5,5,5,0.164535,0.433,63.0868,-0.019176,-0.0631439,0.119904,1,0,0,3.6925,0.7175,-2.9925,-0.051972,-0.053802,-0.89365,-0.1477,-0.2667,0.34202
-0,0,0,5,5,5,5,0.172787,0.46984,63.205,0.0313266,-0.00132592,-0.0345248,0,0,0,4.1125,1.4875,-2.8525,-0.00061,0.007808,-1.04688,-0.1477,-0.2667,0.34202
-0,0,0,5,5,5,5,0.179616,0.505289,63.3227,0.0307079,-0.00120674,-0.0345304,0,0,0,3.5,1.1375,-2.415,-0.00061,0.007808,-1.04688,-0.1477,-0.2667,0.34202
-0,0,0,5,5,5,5,0.36308,0.640757,63.3431,0.0967401,-0.105721,-0.0530115,0,0,0,4.0775,0.6825,-2.3275,0.068076,-0.099796,-1.06518,-0.1477,-0.2667,0.34202
-0,0,0,5,5,5,5,0.540876,0.772946,63.3651,0.0944331,-0.102618,-0.0530645,0,0,0,4.0075,0.8925,-1.4175,0.068076,-0.099796,-1.06518,-0.1477,-0.2667,0.34202
0,0,0,5,5,5,5,0.500602,0.84595,63.4843,0.0658248,0.0295527,0.0526596,0,0,0,2.87,1.015,-0.9975,0.040626,0.03294,-0.960262,-0.1477,-0.2667,0.34202
0,0,0,5,5,5,5,0.461197,0.917308,63.6026,0.0645795,0.0288649,0.0526462,0,0,0,2.835,0.7875,-0.7525,0.040626,0.03294,-0.960262,-0.1477,-0.2667,0.34202
0,0,0,5,5,5,5,0.316687,0.938742,63.7739,0.0380861,0.0859409,0.0517967,0,0,0,3.15,1.015,-0.42,0.014396,0.092476,-0.961116,-0.1477,-0.2667,0.34202
0,0,0,5,5,5,5,0.176545,0.959999,63.9479,0.0377151,0.0834953,0.051801,0,0,0,3.3425,0.665,-0.14,0.014396,0.092476,-0.961116,-0.14406,-0.26558,0.34566
-0,0,0,5,5,5,5,0.3688,1.08548,63.9655,0.0785313,-0.102446,0.0369922,0,0,0,4.515,0.8575,0.14,0.057584,-0.096624,-0.975756,-0.14406,-0.26558,0.34566
-0,0,0,5,5,5,5,0.554663,1.20738,63.9835,0.0764043,-0.0992036,0.0369235,0,0,0,4.1475,0.77,0.3325,0.057584,-0.096624,-0.975756,-0.14406,-0.26558,0.34566
-0,0,0,5,5,5,5,0.60706,1.29534,64.0593,0.0681876,-0.0231818,0.0223728,0,0,0,3.745,0.665,0.2625,0.050874,-0.021594,-0.990152,-0.14406,-0.26558,0.34566
-0,0,0,5,5,5,5,0.658443,1.381,64.1343,0.066693,-0.0222856,0.0223279,0,0,0,4.13,0.5075,0.2625,0.050874,-0.021594,-0.990152,-0.14406,-0.26558,0.34566
-0,0,0,5,5,5,5,0.655981,1.3593,64.2555,-0.0182113,-0.00107846,-0.0465137,0,0,0,3.3775,0.315,0.28,-0.03477,-0.000366,-1.05847,-0.14406,-0.26558,0.34566
-0,0,0,5,5,5,5,0.652953,1.338,64.375,-0.0178396,-0.00113118,-0.0465043,0,0,0,2.9925,0.28,0.0875,-0.03477,-0.000366,-1.05847,-0.14406,-0.26558,0.34566
-0,0,0,5,5,5,5,0.70494,1.42615,64.4435,0.0735589,-0.0248942,-0.0208559,0,0,0,3.22,0.07,-0.035,0.05856,-0.02501,-1.03297,-0.14406,-0.26558,0.34566
-0,0,0,5,5,5,5,0.754816,1.51221,64.5143,0.0720574,-0.0240246,-0.0209055,0,0,0,3.0625,0.07,-0.35,0.05856,-0.02501,-1.03297,-0.14126,-0.26446,0.34104
-0,0,0,5,5,5,5,0.803557,1.43986,64.6233,-0.0713698,-0.0373405,-0.0186715,0,0,0,3.535,-0.2625,-0.6475,-0.086742,-0.039162,-1.03078,-0.14126,-0.26446,0.34104
-0,0,0,5,5,5,5,0.85176,1.36863,64.7294,-0.070127,-0.0364991,-0.0186532,0,0,0,3.92,-0.315,-1.5575,-0.086742,-0.039162,-1.03078,-0.14126,-0.26446,0.34104
0,0,0,5,5,5,5,0.82748,1.31456,64.8579,-0.0451293,0.0100964,-0.0789926,0,0,0,3.885,0,-1.7325,-0.062586,0.007808,-1.09068,-0.14126,-0.26446,0.34104
0,0,0,5,5,5,5,0.804441,1.26264,64.9845,-0.0442234,0.00969476,-0.0789665,0,0,0,4.1125,0.5425,-2.0125,-0.062586,0.007808,-1.09068,-0.14126,-0.26446,0.34104
-0,0,0,5,5,5,5,0.785851,1.20885,65.1085,-0.0449856,0.0071724,-0.00812341,0,0,0,4.2,0.4375,-2.2225,-0.064294,0.005612,-1.02041,-0.14126,-0.26446,0.34104
-0,0,0,5,5,5,5,0.767111,1.15545,65.23,-0.0440539,0.0068457,-0.00809976,0,0,0,3.745,-0.035,-2.7825,-0.064294,0.005612,-1.02041,-0.14126,-0.26446,0.34104
-0,0,0,5,5,5,5,0.767359,1.01125,65.3637,-0.133745,-0.0151321,-0.0417401,0,0,0,3.045,0.1575,-2.94,-0.156892,-0.016348,-1.05384,-0.14126,-0.26446,0.34104
-0,0,0,5,5,5,5,0.767974,0.870347,65.4991,-0.131286,-0.0151209,-0.0416999,0,0,0,2.73,0.2625,-2.975,-0.156892,-0.016348,-1.05384,-0.14,-0.26852,0.34888
0,0,0,5,5,5,5,0.678446,0.994432,65.6048,0.121668,0.0640422,0.0276275,0,0,0,2.59,0.4025,-3.1675,0.099308,0.064294,-0.985028,-0.14,-0.26852,0.34888
0,0,0,5,5,5,5,0.591924,1.1164,65.7096,0.11954,0.062532,0.0276051,0,0,0,3.08,0.35,-3.0625,0.099308,0.064294,-0.985028,-0.14,-0.26852,0.34888
0,0,0,5,5,5,5,0.42541,0.959078,65.914,-0.119107,0.0905249,-0.016335,0,0,0,4.1825,0.4025,-3.01,-0.143106,0.09516,-1.0287,-0.14,-0.26852,0.34888
0,0,0,5,5,5,5,0.264574,0.806485,66.117,-0.116444,0.0877184,-0.016277,0,0,0,4.48,0.7875,-2.5375,-0.143106,0.09516,-1.0287,-0.14,-0.26852,0.34888
-0,0,0,5,5,5,5,0.461867,0.802474,66.1415,-0.0340066,-0.13001,-0.0801081,0,0,0,5.075,0.91,-2.275,-0.06039,-0.125782,-1.09202,-0.14,-0.26852,0.34888
-0,0,0,5,5,5,5,0.644444,0.797265,66.1664,-0.0339157,-0.126824,-0.0801376,0,0,0,0,0.7175,-1.855,-0.06039,-0.125782,-1.09202,-0.14,-0.26852,0.34888
-0,0,0,5,5,5,5,0.660491,0.92357,66.228,0.110149,0.00058963,0.0037999,0,0,0,2.7475,1.3125,-1.6975,0.086498,0.00122,-1.0087,-0.14,-0.26852,0.34888
-0,0,0,5,5,5,5,0.676091,1.04758,66.2898,0.107985,0.000861401,0.00375949,0,0,0,2.9225,1.47,-1.155,0.086498,0.00122,-1.0087,-0.14,-0.26852,0.34888
0,0,0,5,5,5,5,0.592225,0.763973,66.4856,-0.258934,0.0260224,-0.0331536,0,0,0,2.555,1.0675,-1.0325,-0.286944,0.027816,-1.04542,-0.13706,-0.26572,0.34454
0,0,0,5,5,5,5,0.512314,0.485575,66.6797,-0.254075,0.0246284,-0.0330871,0,0,0,2.975,0.595,-0.525,-0.286944,0.027816,-1.04542,-0.13706,-0.26572,0.34454
-0,0,0,5,5,5,5,0.703938,0.515679,66.6952,-8.78432e-05,-0.113695,0.00351143,0,0,0,3.955,0.595,-0.1925,-0.031354,-0.113704,-1.00906,-0.13706,-0.26572,0.34454
-0,0,0,5,5,5,5,0.889984,0.544308,66.7106,-0.000587489,-0.110448,0.00346164,0,0,0,3.955,0.595,-0.1925,-0.031354,-0.113704,-1.00906,-0.13706,-0.26572,0.34454
-0,0,0,5,5,5,5,0.933499,0.584778,66.78,0.0289561,-0.0212689,0.0320896,0,0,0,3.7975,0.7,0.1225,-0.000976,-0.025376,-0.980636,-0.13706,-0.26572,0.34454
-0,0,0,5,5,5,5,0.976353,0.623584,66.8485,0.0282789,-0.0205213,0.03207,0,0,0,4.1825,0.315,0.07,-0.000976,-0.025376,-0.980636,-0.13706,-0.26572,0.34454
-0,0,0,5,5,5,5,0.994219,0.667052,66.9243,0.0365102,-0.00592082,0.0153351,0,0,0,4.025,0.3325,-0.0875,0.008052,-0.011102,-0.997228,-0.13706,-0.26572,0.34454
-0,0,0,5,5,5,5,1.01146,0.709579,66.9992,0.035768,-0.00562007,0.0153209,0,0,0,4.025,0.3325,-0.0875,0.008052,-0.011102,-0.997228,-0.13706,-0.26572,0.34454
-0,0,0,5,5,5,5,1.10119,0.723098,67.0372,-0.00127806,-0.0515617,0.0414771,0,0,0,2.555,0.7175,-0.4375,-0.028914,-0.05856,-0.971242,-0.14448,-0.26376,0.33992
0,0,0,5,5,5,5,0.847946,0.669861,67.2268,-0.0132265,0.146506,0.0214,0,0,0,2.3625,0.5775,-0.735,-0.041846,0.143716,-0.99125,-0.14448,-0.26376,0.33992
0,0,0,5,5,5,5,0.602324,0.618173,67.4139,-0.0123244,0.142219,0.0214644,0,0,0,2.625,0.0875,-1.155,-0.041846,0.143716,-0.99125,-0.14448,-0.26376,0.33992
0,0,0,5,5,5,5,0.580224,0.581373,67.508,-0.0288116,0.00993692,0.0236882,0,0,0,3.3775,0,-1.4875,-0.059048,0.011956,-0.989054,-0.14448,-0.26376,0.33992
0,0,0,5,5,5,5,0.558796,0.546042,67.6003,-0.028195,0.00956303,0.023698,0,0,0,3.3425,0.3675,-1.8375,-0.059048,0.011956,-0.989054,-0.14448,-0.26376,0.33992
-0,0,0,5,5,5,5,0.77309,0.624805,67.5697,0.046116,-0.133616,-0.0662349,0,0,0,3.3425,0.2625,-1.9775,0.016958,-0.13481,-1.07824,-0.14448,-0.26376,0.33992
-0,0,0,5,5,5,5,0.982087,0.700844,67.5394,0.0447889,-0.129969,-0.0663061,0,0,0,3.9375,0.07,-2.1,0.016958,-0.13481,-1.07824,-0.14448,-0.26376,0.33992
0,0,0,5,5,5,5,0.791033,0.632321,67.7008,-0.036504,0.113515,-0.0372247,0,0,0,3.0625,0.21,-2.31,-0.06588,0.111752,-1.04944,-0.14448,-0.26376,0.33992
0,0,0,5,5,5,5,0.60453,0.566407,67.8622,-0.0353536,0.110261,-0.0371731,0,0,0,2.9575,0.5775,-2.3275,-0.06588,0.111752,-1.04944,-0.14532,-0.26936,0.336
0,0,0,5,5,5,5,0.389618,0.450799,68.047,-0.0720899,0.111884,0.0698426,0,0,0,3.15,1.015,-2.1175,-0.104798,0.11712,-0.943304,-0.14532,-0.26936,0.336
0,0,0,5,5,5,5,0.180527,0.338868,68.23,-0.0701364,0.108235,0.0698742,0,0,0,2.8175,1.1725,-2.065,-0.104798,0.11712,-0.943304,-0.14532,-0.26936,0.336
-0,0,0,5,5,5,5,0.200202,0.426611,68.2793,0.0715639,-0.00451124,0.0528959,0,0,0,2.555,1.19,-2.0825,0.03904,0.004148,-0.96014,-0.14532,-0.26936,0.336
-0,0,0,5,5,5,5,0.219423,0.512465,68.3286,0.0700655,-0.00417583,0.0528824,0,0,0,2.7475,1.1375,-1.785,0.03904,0.004148,-0.96014,-0.14532,-0.26936,0.336
-0,0,0,5,5,5,5,0.37995,0.686219,68.3007,0.132149,-0.0794134,0.0370986,0,0,0,3.22,0.77,-1.505,0.104432,-0.07381,-0.975756,-0.14532,-0.26936,0.336
-0,0,0,5,5,5,5,0.536385,0.856125,68.2737,0.129184,-0.0766838,0.0370369,0,0,0,3.71,0.8225,-1.365,0.104432,-0.07381,-0.975756,-0.14532,-0.26936,0.336
0,0,0,5,5,5,5,0.451582,0.695789,68.4099,-0.137837,0.0365136,-0.0156574,0,0,0,3.1675,0.98,-1.155,-0.16653,0.040748,-1.02809,-0.14532,-0.26936,0.336
0,0,0,5,5,5,5,0.372641,0.539853,68.5503,-0.135116,0.0351362,-0.0156181,0,0,0,4.34,1.26,-0.945,-0.16653,0.040748,-1.02809,-0.14182,-0.27062,0.34034
-0,0,0,5,5,5,5,0.465443,0.516829,68.5938,-0.0343669,-0.0574039,-0.00628216,0,0,0,4.9,1.3475,-0.8575,-0.065758,-0.053314,-1.01882,-0.14182,-0.27062,0.34034
-0,0,0,5,5,5,5,0.553475,0.493389,68.6371,-0.0339578,-0.0558676,-0.00629221,0,0,0,3.6925,1.085,-0.6475,-0.065758,-0.053314,-1.01882,-0.14182,-0.27062,0.34034
-0,0,0,5,5,5,5,0.667171,0.548164,68.6523,0.0316604,-0.0598677,0.0595784,0,0,0,3.2725,0.945,-0.5075,0.001098,-0.059292,-0.95343,-0.14182,-0.27062,0.34034
-0,0,0,5,5,5,5,0.778269,0.601369,68.6675,0.0307319,-0.057929,0.0595446,0,0,0,3.7275,0.9275,-0.49,0.001098,-0.059292,-0.95343,-0.14182,-0.27062,0.34034
0,0,0,5,5,5,5,0.725178,0.738303,68.7314,0.134156,0.0455625,-0.00858466,0,0,0,3.2025,0.63,-0.2975,0.10736,0.045018,-1.02102,-0.14182,-0.27062,0.34034
0,0,0,5,5,5,5,0.673944,0.871409,68.7948,0.131833,0.0446681,-0.00860638,0,0,0,3.6225,-0.1925,-0.21,0.10736,0.045018,-1.02102,-0.14182,-0.27062,0.34034
0,0,0,5,5,5,5,0.655753,0.835071,68.8786,-0.0291086,0.00881184,0.0357912,0,0,0,4.34,0.0525,-0.245,-0.0549,0.009516,-0.976976,-0.14182,-0.27062,0.34034
0,0,0,5,5,5,5,0.637663,0.799899,68.9654,-0.0284948,0.00849627,0.0358035,0,0,0,3.99,0.245,-0.28,-0.0549,0.009516,-0.976976,-0.13818,-0.26866,0.33684
-0,0,0,5,5,5,5,0.807611,0.586521,69.0062,-0.221335,-0.124831,0.00630348,0,0,0,4.2175,0.0175,-0.525,-0.252296,-0.126636,-1.00626,-0.13818,-0.26866,0.33684
-0,0,0,5,5,5,5,0.973102,0.37671,69.0454,-0.217673,-0.121943,0.00628938,0,0,0,4.13,0.1925,-0.875,-0.252296,-0.126636,-1.00626,-0.13818,-0.26866,0.33684
-0,0,0,5,5,5,5,1.15481,0.500377,69.0126,0.0803598,-0.0872633,0.101499,0,0,0,3.8325,0.4025,-0.945,0.049166,-0.09516,-0.911706,-0.13818,-0.26866,0.33684
-0,0,0,5,5,5,5,1.3304,0.621082,68.9793,0.0782532,-0.0842001,0.101412,0,0,0,3.4825,0.4375,-1.5925,0.049166,-0.09516,-0.911706,-0.13818,-0.26866,0.33684
-0,0,0,5,5,5,5,1.31161,0.553709,69.06,-0.0619803,0.00340363,-0.057049,0,0,0,3.0625,0.5775,-2.0125,-0.092842,-0.00732,-1.06896,-0.13818,-0.26866,0.33684
-0,0,0,5,5,5,5,1.29475,0.487376,69.1398,-0.0608227,0.00310974,-0.0570318,0,0,0,3.7275,0.3675,-1.96,-0.092842,-0.00732,-1.06896,-0.13818,-0.26866,0.33684
0,0,0,5,5,5,5,1.10456,0.264828,69.3197,-0.179639,0.0952947,0.0074882,0,0,0,3.5,-0.0525,-2.0825,-0.216062,0.088084,-1.00504,-0.13818,-0.26866,0.33684
0,0,0,5,5,5,5,0.91958,0.0479931,69.4949,-0.175855,0.0920669,0.00755555,0,0,0,3.115,0.2275,-2.52,-0.216062,0.088084,-1.00504,-0.13958,-0.26838,0.33796
-0,0,0,5,5,5,5,1.18168,0.103873,69.4325,0.0181546,-0.155063,9.34742e-05,0,0,0,4.0775,0.2275,-2.59,-0.020252,-0.163358,-1.01236,-0.13958,-0.26838,0.33796
-0,0,0,5,5,5,5,1.43594,0.157339,69.3709,0.0172214,-0.150626,-1.00132e-05,0,0,0,4.0075,-0.0175,-2.8175,-0.020252,-0.163358,-1.01236,-0.13958,-0.26838,0.33796
0,0,0,5,5,5,5,1.35785,0.129699,69.4614,-0.0153402,0.0450018,-0.0345241,0,0,0,3.115,0.2975,-2.87,-0.053436,0.033428,-1.04664,-0.13958,-0.26838,0.33796
0,0,0,5,5,5,5,1.28426,0.103707,69.5513,-0.0148866,0.0437177,-0.0344936,0,0,0,4.34,0.7525,-2.625,-0.053436,0.033428,-1.04664,-0.13958,-0.26838,0.33796
0,0,0,5,5,5,5,0.976935,0.0530225,69.7433,-0.00768474,0.188449,-0.0249195,0,0,0,3.815,0.6125,-2.59,-0.047092,0.183366,-1.03724,-0.13958,-0.26838,0.33796
0,0,0,5,5,5,5,0.675746,0.00601936,69.9343,-0.00686438,0.183193,-0.0248433,0,0,0,2.415,1.33,-2.24,-0.047092,0.183366,-1.03724,-0.13958,-0.26838,0.33796
-0,0,0,5,5,5,5,0.675515,0.00739346,69.9329,0.120672,-0.00671852,0.129949,1,0,0,3.36,1.3825,-2.1,0.081008,-0.006344,-0.883646,-0.13958,-0.26838,0.33796
-0,0,0,5,5,5,5,0.676159,0.00785804,69.9326,0.120664,-0.00670729,0.129949,1,0,0,3.85,0.8575,-1.435,0.081008,-0.006344,-0.883646,-0.13958,-0.26838,0.33796
0,0,0,5,5,5,5,0.559577,-0.0929926,70.0477,-0.0746261,0.0587942,0.0491923,0,0,0,3.57,0.805,-1.33,-0.116876,0.061122,-0.9638,-0.14756,-0.26572,0.3458
-0,0,0,5,5,5,5,0.581201,-0.00197049,70.0706,0.0779506,-0.00274669,0.0391081,0,0,0,4.3925,0.6475,-0.9625,0.037942,-0.000732,-0.973804,-0.14756,-0.26572,0.3458
-0,0,0,5,5,5,5,0.601023,0.0881089,70.0941,0.0763784,-0.00240077,0.0391033,0,0,0,3.8675,1.1725,-0.5425,0.037942,-0.000732,-0.973804,-0.14756,-0.26572,0.3458
-0,0,0,5,5,5,5,0.659552,0.167449,70.1019,0.0627236,-0.0272702,0.0245811,0,0,0,3.36,1.4,-0.3675,0.02562,-0.026596,-0.9882,-0.14756,-0.26572,0.3458
-0,0,0,5,5,5,5,0.717133,0.244148,70.1097,0.061385,-0.0262654,0.0245642,0,0,0,3.885,0.875,-0.315,0.02562,-0.026596,-0.9882,-0.14756,-0.26572,0.3458
0,0,0,5,5,5,5,0.585827,0.130844,70.2309,-0.0857004,0.0671905,0.0330802,0,0,0,3.4125,0.7525,-0.28,-0.124074,0.069052,-0.979782,-0.14756,-0.26572,0.3458
0,0,0,5,5,5,5,0.458816,0.0203033,70.351,-0.0837711,0.0649739,0.0331029,0,0,0,3.535,0.735,-0.1925,-0.124074,0.069052,-0.979782,-0.14756,-0.26572,0.3458
0,0,0,5,5,5,5,0.308314,-0.0319772,70.4717,-0.0292835,0.0856734,0.0168912,0,0,0,3.64,0.6125,-0.28,-0.070272,0.092354,-0.995886,-0.14756,-0.26572,0.3458
0,0,0,5,5,5,5,0.160561,-0.0828538,70.5929,-0.0283955,0.0830946,0.0169009,0,0,0,2.87,0.5075,-0.245,-0.070272,0.092354,-0.995886,-0.14602,-0.26516,0.33978
-0,0,0,5,5,5,5,0.169202,-0.0450296,70.6323,0.0352102,-0.00138838,-0.0278521,0,0,0,3.7975,0.3325,-0.385,-0.005734,0.007808,-1.04029,-0.14602,-0.26516,0.33978
-0,0,0,5,5,5,5,0.177555,-0.00856227,70.6709,0.0345738,-0.0012426,-0.0278522,0,0,0,3.8325,-0.0175,-0.6475,-0.005734,0.007808,-1.04029,-0.14602,-0.26516,0.33978
-0,0,0,5,5,5,5,0.398274,-0.0459392,70.6294,-0.0654855,-0.14895,-0.072994,0,0,0,4.3225,-0.035,-0.77,-0.106872,-0.143594,-1.08507,-0.14602,-0.26516,0.33978
-0,0,0,5,5,5,5,0.605066,-0.0832536,70.5878,-0.0648343,-0.145341,-0.0730263,0,0,0,0.035,0.0525,-1.1025,-0.106872,-0.143594,-1.08507,-0.14602,-0.26516,0.33978
-0,0,0,5,5,5,5,0.723116,0.0318216,70.5593,0.1002,-0.0669512,-0.0799344,0,0,0,3.3425,0.1925,-1.12,0.060878,-0.067344,-1.0919,-0.14602,-0.26516,0.33978
-0,0,0,5,5,5,5,0.837533,0.144588,70.5305,0.098232,-0.0649544,-0.0799647,0,0,0,3.36,0.35,-1.5925,0.060878,-0.067344,-1.0919,-0.14602,-0.26516,0.33978
0,0,0,5,5,5,5,0.677595,0.117496,70.6419,-0.00492247,0.0934617,0.0205223,0,0,0,3.465,0.2275,-1.645,-0.043188,0.093696,-0.992226,-0.14602,-0.26516,0.33978
0,0,0,5,5,5,5,0.521834,0.0916965,70.7514,-0.00447218,0.0907433,0.0205515,0,0,0,3.2025,0.2625,-1.995,-0.043188,0.093696,-0.992226,-0.14728,-0.2681,0.34454
-0,0,0,5,5,5,5,0.648837,0.0698496,70.7395,-0.0357986,-0.0808265,-0.0146338,0,0,0,3.8325,0.3675,-2.0475,-0.07503,-0.07991,-1.02712,-0.14728,-0.2681,0.34454
-0,0,0,5,5,5,5,0.772497,0.0475052,70.7279,-0.0354087,-0.0786684,-0.0146602,0,0,0,3.9725,0.105,-1.9775,-0.07503,-0.07991,-1.02712,-0.14728,-0.2681,0.34454
0,0,0,5,5,5,5,0.499792,0.112767,70.8702,0.0911338,0.168886,0.0444063,0,0,0,3.5875,0.14,-1.9775,0.053192,0.172142,-0.968558,-0.14728,-0.2681,0.34454
0,0,0,5,5,5,5,0.234713,0.178697,71.0108,0.0899831,0.16426,0.044433,0,0,0,3.8325,0.595,-2.17,0.053192,0.172142,-0.968558,-0.14728,-0.2681,0.34454
0,0,0,5,5,5,5,0.0813539,0.223743,71.1089,0.0537231,0.0892841,0.0920187,0,0,0,3.255,0.9975,-1.925,0.017568,0.099918,-0.921344,-0.14728,-0.2681,0.34454
0,0,0,5,5,5,5,-0.0684973,0.268478,71.2059,0.0529423,0.0866687,0.0920157,0,0,0,2.905,0.9625,-1.9425,0.017568,0.099918,-0.921344,-0.14728,-0.2681,0.34454
-0,0,0,5,5,5,5,-0.00971739,0.28253,71.2192,0.00483168,-0.0321118,0.0617699,0,0,0,3.85,0.9975,-2.0125,-0.0305,-0.019764,-0.951356,-0.14728,-0.2681,0.34454
-0,0,0,5,5,5,5,0.0469687,0.295935,71.2447,0.00459772,-0.0311224,0.0617684,0,0,0,3.605,0.8925,-1.5925,-0.0305,-0.019764,-0.951356,-0.1386,-0.26726,0.33936
-0,0,0,5,5,5,5,0.105904,0.371948,71.2569,0.062799,-0.0297275,-8.38358e-05,0,0,0,3.08,1.1375,-1.54,0.02928,-0.019398,-1.01272,-0.1386,-0.26726,0.33936
-0,0,0,5,5,5,5,0.163123,0.446001,71.2693,0.0615066,-0.0287288,-9.54058e-05,0,0,0,3.1675,0.9625,-1.4525,0.02928,-0.019398,-1.01272,-0.1386,-0.26726,0.33936
-0,0,0,5,5,5,5,0.275032,0.299445,71.2946,-0.156554,-0.0862514,-0.036479,0,0,0,3.0975,0.315,-0.98,-0.192272,-0.078812,-1.04883,-0.1386,-0.26726,0.33936
-0,0,0,5,5,5,5,0.302739,0.498739,71.2963,0.192641,0.000697794,-0.0350303,0,0,0,3.115,0.245,-0.7175,0.161894,0.007564,-1.04737,-0.1386,-0.26726,0.33936
0,0,0,5,5,5,5,0.126631,0.539269,71.4114,0.0612152,0.116087,-0.0440004,0,0,0,2.7475,0.8575,-0.945,0.030622,0.125904,-1.05628,-0.1386,-0.26726,0.33936
0,0,0,5,5,5,5,-0.0453114,0.579646,71.5194,0.0605105,0.113086,-0.0440052,0,0,0,2.2925,0.77,-0.7875,0.030622,0.125904,-1.05628,-0.14364,-0.26922,0.33922
-0,0,0,5,5,5,5,-0.0243501,0.578709,71.5535,-0.00422501,-0.0127047,0.073411,0,0,0,2.8,0.77,-0.665,-0.034404,-0.000122,-0.939766,-0.14364,-0.26922,0.33922
-0,0,0,5,5,5,5,-0.00517267,0.577024,71.5869,-0.0041956,-0.01237,0.0734114,0,0,0,2.135,0.3675,-0.84,-0.034404,-0.000122,-0.939766,-0.14364,-0.26922,0.33922
-0,0,0,5,5,5,5,0.140207,0.618839,71.558,0.0207081,-0.0838416,0.0295082,0,0,0,2.4675,0.665,-1.1025,-0.008662,-0.074054,-0.98332,-0.14364,-0.26922,0.33922
-0,0,0,5,5,5,5,0.282894,0.659054,71.5295,0.0200063,-0.0813515,0.0294912,0,0,0,3.3425,0.4725,-1.1375,-0.008662,-0.074054,-0.98332,-0.14364,-0.26922,0.33922
0,0,0,5,5,5,5,0.133246,0.566205,71.6457,-0.0720388,0.0861595,-0.0502756,0,0,0,2.6075,0.28,-1.1725,-0.102724,0.095892,-1.0625,-0.14364,-0.26922,0.33922
0,0,0,5,5,5,5,-0.0110965,0.475034,71.7605,-0.0704476,0.0836403,-0.0502584,0,0,0,3.0625,-0.14,-1.3125,-0.102724,0.095892,-1.0625,-0.14364,-0.26922,0.33922
-0,0,0,5,5,5,5,0.110598,0.573694,71.7308,0.0869768,-0.0715351,-0.0866688,0,0,0,3.325,-0.0175,-1.4175,0.057096,-0.061244,-1.09861,-0.14364,-0.26922,0.33922
-0,0,0,5,5,5,5,0.22773,0.670596,71.7013,0.0852856,-0.0694909,-0.0866932,0,0,0,2.835,0.2625,-1.5925,0.057096,-0.061244,-1.09861,-0.14364,-0.26922,0.33922
0,0,0,5,5,5,5,0.197589,0.585943,71.7562,-0.0739626,0.0097319,0.023118,0,0,0,3.255,0.56,-1.5925,-0.10431,0.018422,-0.989664,-0.14854,-0.26852,0.3402
0,0,0,5,5,5,5,0.168405,0.502449,71.8102,-0.0725054,0.00922261,0.0231334,0,0,0,3.1675,0.2275,-1.715,-0.10431,0.018422,-0.989664,-0.14854,-0.26852,0.3402
0,0,0,5,5,5,5,0.162382,0.594628,71.8259,0.0892841,0.0121706,-0.0202825,0,0,0,2.73,0.28,-1.785,0.05978,0.021472,-1.03273,-0.14854,-0.26852,0.3402
0,0,0,5,5,5,5,0.157298,0.685326,71.8416,0.0877012,0.0120819,-0.0202999,0,0,0,3.3075,0.42,-1.7325,0.05978,0.021472,-1.03273,-0.14854,-0.26852,0.3402
0,0,0,5,5,5,5,0.0179149,0.767912,71.916,0.0936706,0.0945274,0.00341459,0,0,0,3.6575,0.49,-1.5925,0.067222,0.106262,-1.00918,-0.14854,-0.26852,0.3402
0,0,0,5,5,5,5,-0.117753,0.849412,71.9898,0.0922483,0.0921598,0.00339245,0,0,0,3.7275,0.4725,-1.5225,0.067222,0.106262,-1.00918,-0.14854,-0.26852,0.3402
0,0,0,5,5,5,5,-0.199754,0.850906,72.0538,0.0109483,0.0498163,0.0199861,0,0,0,3.6925,0.14,-1.5925,-0.014396,0.065392,-0.992714,-0.14854,-0.26852,0.3402
0,0,0,5,5,5,5,-0.278269,0.853509,72.1176,0.0109029,0.0484462,0.0199798,0,0,0,4.3575,0.63,-1.3475,-0.014396,0.065392,-0.992714,-0.14854,-0.26852,0.3402
0,0,0,5,5,5,5,-0.456983,0.799509,72.2388,-0.0304318,0.104192,0.0155472,0,0,0,4.13,0.7175,-1.2425,-0.056852,0.124196,-0.997106,-0.14462,-0.26824,0.33754
-0,0,0,5,5,5,5,-0.44086,0.885909,72.255,0.0756967,-0.0025091,0.0306499,0,0,0,3.2375,1.0675,-0.875,0.05124,0.017324,-0.9821,-0.14462,-0.26824,0.33754
-0,0,0,5,5,5,5,-0.423451,0.970183,72.2707,0.0742261,-0.00220511,0.0306284,0,0,0,4.34,0.805,-1.1375,0.05124,0.017324,-0.9821,-0.14462,-0.26824,0.33754
0,0,0,5,5,5,5,-0.5826,0.984299,72.3722,0.0348613,0.108596,-0.0804227,0,0,0,3.535,0.735,-0.9275,0.011956,0.130784,-1.09227,-0.14462,-0.26824,0.33754
0,0,0,5,5,5,5,-0.736568,0.998751,72.473,0.0346091,0.105909,-0.080458,0,0,0,3.99,0.735,-0.7175,0.011956,0.130784,-1.09227,-0.14462,-0.26824,0.33754
-0,0,0,5,5,5,5,-0.589644,1.13153,72.4271,0.096315,-0.0711752,0.0987875,0,0,0,4.6725,0.875,-0.7175,0.07625,-0.048678,-0.91439,-0.14462,-0.26824,0.33754
-0,0,0,5,5,5,5,-0.44836,1.26102,72.3818,0.0940556,-0.0687096,0.0987626,0,0,0,3.9725,0.63,-0.6825,0.07625,-0.048678,-0.91439,-0.14462,-0.26824,0.33754
-0,0,0,5,5,5,5,-0.409277,1.08446,72.4261,-0.176692,-0.0416487,-0.0321093,0,0,0,3.6925,0.455,-0.91,-0.198738,-0.022326,-1.04432,-0.14462,-0.26824,0.33754
-0,0,0,5,5,5,5,-0.370905,0.910891,72.4641,-0.173663,-0.0409795,-0.032052,0,0,0,4.1475,0.525,-0.9975,-0.198738,-0.022326,-1.04432,-0.14742,-0.26488,0.33642
0,0,0,5,5,5,5,-0.451162,0.884345,72.5307,-0.0161192,0.0481159,-0.0105388,0,0,0,4.025,0.7,-0.91,-0.040992,0.068076,-1.02297,-0.14742,-0.26488,0.33642
0,0,0,5,5,5,5,-0.529092,0.857994,72.5964,-0.0156593,0.0467559,-0.0105435,0,0,0,4.025,0.35,-0.98,-0.040992,0.068076,-1.02297,-0.14742,-0.26488,0.33642
0,0,0,5,5,5,5,-0.53707,0.941044,72.6152,0.0733982,0.012055,0.0698408,0,0,0,4.1825,0.105,-1.12,0.049898,0.03355,-0.943182,-0.14742,-0.26488,0.33642
0,0,0,5,5,5,5,-0.545707,1.02331,72.6334,0.0719626,0.0119045,0.0698147,0,0,0,3.815,0.5425,-1.33,0.049898,0.03355,-0.943182,-0.14742,-0.26488,0.33642
-0,0,0,5,5,5,5,-0.507069,0.907875,72.6609,-0.109102,-0.0337076,0.0439128,0,0,0,3.535,0.6825,-1.33,-0.133956,-0.012688,-0.968924,-0.14742,-0.26488,0.33642
-0,0,0,5,5,5,5,-0.468549,0.794253,72.6877,-0.107119,-0.0330357,0.0439479,0,0,0,3.9025,0.56,-1.4175,-0.133956,-0.012688,-0.968924,-0.14742,-0.26488,0.33642
-0,0,0,5,5,5,5,-0.422577,0.886481,72.6793,0.0770231,-0.0190435,0.0513075,0,0,0,3.4825,0.56,-1.435,0.052582,0.000488,-0.961604,-0.14742,-0.26488,0.33642
-0,0,0,5,5,5,5,-0.379842,0.975899,72.6784,0.0754627,-0.0182976,0.0512873,0,0,0,2.87,0.1225,-1.5225,0.052582,0.000488,-0.961604,-0.14434,-0.27146,0.3458
-0,0,0,5,5,5,5,-0.268233,1.00746,72.656,0.0157484,-0.0622696,0.0667803,0,0,0,3.1675,0.1225,-1.575,-0.006832,-0.045384,-0.946232,-0.14434,-0.27146,0.3458
-0,0,0,5,5,5,5,-0.16051,1.03877,72.6335,0.0152019,-0.0603897,0.0667776,0,0,0,2.8,0.525,-1.75,-0.006832,-0.045384,-0.946232,-0.14434,-0.27146,0.3458
0,0,0,5,5,5,5,-0.303562,0.763811,72.7645,-0.244717,0.0614386,0.0246716,0,0,0,2.275,0.4025,-1.82,-0.27267,0.078812,-0.988078,-0.14434,-0.27146,0.3458
0,0,0,5,5,5,5,-0.440193,0.495364,72.8938,-0.240032,0.0590538,0.0247077,0,0,0,3.1675,0.91,-1.9425,-0.27267,0.078812,-0.988078,-0.14434,-0.27146,0.3458
-0,0,0,5,5,5,5,-0.300031,0.493559,72.8637,-0.0169528,-0.0816326,0.0621001,0,0,0,3.4125,0.7875,-1.8725,-0.048678,-0.064172,-0.95099,-0.14434,-0.27146,0.3458
-0,0,0,5,5,5,5,-0.16422,0.49067,72.8342,-0.0169023,-0.0792624,0.0621101,0,0,0,3.2025,0.385,-1.6975,-0.048678,-0.064172,-0.95099,-0.14434,-0.27146,0.3458
-0,0,0,5,5,5,5,0.00254702,0.490242,72.7895,-0.0187171,-0.099678,0.0381393,0,0,0,3.0975,0.665,-1.6625,-0.050508,-0.087474,-0.97478,-0.14434,-0.27146,0.3458
-0,0,0,5,5,5,5,0.164858,0.490127,72.7516,-0.0187151,-0.0968453,0.0381352,0,0,0,3.1325,1.1025,-1.4525,-0.050508,-0.087474,-0.97478,-0.13916,-0.2695,0.34202
0,0,0,5,5,5,5,-0.0760311,0.330463,72.912,-0.129275,0.136976,-0.018152,0,0,0,2.6075,0.91,-1.33,-0.164334,0.150304,-1.03066,-0.13916,-0.2695,0.34202
0,0,0,5,5,5,5,-0.308981,0.175146,73.0712,-0.126564,0.13291,-0.0181537,0,0,0,3.045,1.12,-1.19,-0.164334,0.150304,-1.03066,-0.13916,-0.2695,0.34202
0,0,0,5,5,5,5,-0.348395,0.110004,73.1346,-0.061647,0.0201096,-0.0566377,0,0,0,3.8325,1.26,-1.1725,-0.100284,0.038308,-1.06884,-0.13916,-0.2695,0.34202
0,0,0,5,5,5,5,-0.388577,0.0458388,73.1978,-0.0605271,0.0194083,-0.0566407,0,0,0,2.6775,1.0325,-0.875,-0.100284,0.038308,-1.06884,-0.13916,-0.2695,0.34202
-0,0,0,5,5,5,5,-0.239867,-0.117338,73.1917,-0.172726,-0.106596,0.0140672,0,0,0,3.1325,1.1375,-1.0675,-0.215818,-0.090158,-0.998692,-0.13916,-0.2695,0.34202
-0,0,0,5,5,5,5,-0.0942054,-0.277557,73.186,-0.16993,-0.104053,0.0140649,0,0,0,3.57,1.4175,-0.7175,-0.215818,-0.090158,-0.998692,-0.13916,-0.2695,0.34202
-0,0,0,5,5,5,5,-0.0914567,-0.304579,73.2232,-0.0267125,-0.00435007,0.000538283,0,0,0,3.3425,1.085,-0.6475,-0.072468,0.009394,-1.01211,-0.13916,-0.2695,0.34202
-0,0,0,5,5,5,5,-0.0889136,-0.331436,73.2589,-0.0262437,-0.00430568,0.000535751,0,0,0,3.2375,0.8925,-0.665,-0.072468,0.009394,-1.01211,-0.13888,-0.2667,0.34412
-0,0,0,5,5,5,5,-0.0195561,-0.363324,73.2656,-0.0405084,-0.0470608,-0.034138,0,0,0,3.5175,1.295,-0.5775,-0.087352,-0.034526,-1.04652,-0.13888,-0.2667,0.34412
-0,0,0,5,5,5,5,0.0481882,-0.395984,73.2721,-0.0399384,-0.0458785,-0.034142,0,0,0,3.675,0.63,-0.5775,-0.087352,-0.034526,-1.04652,-0.13888,-0.2667,0.34412
-0,0,0,5,5,5,5,0.283543,-0.384986,73.1962,-0.0144969,-0.141793,0.0176087,0,0,0,3.8325,0.2625,-0.6125,-0.06161,-0.134444,-0.995154,-0.13888,-0.2667,0.34412
-0,0,0,5,5,5,5,0.511861,-0.374664,73.1213,-0.014677,-0.137808,0.0175822,0,0,0,3.6575,0.3675,-0.665,-0.06161,-0.134444,-0.995154,-0.13888,-0.2667,0.34412
-0,0,0,5,5,5,5,0.573034,-0.580761,73.1493,-0.218092,-0.0621212,-0.0580712,0,0,0,3.64,-0.1575,-0.98,-0.269498,-0.059902,-1.07018,-0.13888,-0.2667,0.34412
-0,0,0,5,5,5,5,0.633503,-0.782524,73.1766,-0.214571,-0.0610664,-0.0581242,0,0,0,3.885,0.2975,-1.05,-0.269498,-0.059902,-1.07018,-0.13888,-0.2667,0.34412
-0,0,0,5,5,5,5,0.752337,-0.882973,73.1631,-0.111013,-0.0839069,-0.0179706,0,0,0,4.3925,0.28,-1.1025,-0.167262,-0.08479,-1.03029,-0.13888,-0.2667,0.34412
-0,0,0,5,5,5,5,0.86715,-0.982847,73.1493,-0.10927,-0.0819039,-0.0180273,0,0,0,3.885,-0.245,-1.365,-0.167262,-0.08479,-1.03029,-0.13888,-0.2667,0.34412
-0,0,0,5,5,5,5,0.868203,-0.983817,73.1492,0.124972,-0.158948,-0.127698,1,0,0,4.0775,0.0175,-1.365,0.067954,-0.161772,-1.13911,-0.14196,-0.26866,0.3339
-0,0,0,5,5,5,5,0.869976,-0.984098,73.1488,0.124977,-0.158917,-0.127698,1,0,0,4.48,0.42,-1.47,0.067954,-0.161772,-1.13911,-0.14196,-0.26866,0.3339
0,0,0,5,5,5,5,0.739436,-1.01692,73.2303,-0.0179252,0.0803722,-0.0553827,0,0,0,3.78,0.245,-1.68,-0.076128,0.079544,-1.06738,-0.14196,-0.26866,0.3339
0,0,0,5,5,5,5,0.61267,-1.04864,73.311,-0.0173716,0.0781601,-0.0553666,0,0,0,3.78,0.245,-1.68,-0.076128,0.079544,-1.06738,-0.14196,-0.26866,0.3339
-0,0,0,5,5,5,5,0.614667,-1.0488,73.3104,0.0292817,-0.0771502,-0.103317,1,0,0,4.6025,0.49,-1.6275,-0.02928,-0.07564,-1.11496,-0.14196,-0.26866,0.3339
-0,0,0,5,5,5,5,0.616664,-1.04896,73.3097,0.0292844,-0.0771154,-0.103317,1,0,0,4.6025,0.49,-1.6275,-0.02928,-0.07564,-1.11496,-0.14196,-0.26866,0.3339
-0,0,0,5,5,5,5,0.622021,-0.954361,73.3145,0.0936003,0.00578032,-0.063946,0,0,0,3.5875,0.805,-1.9425,0.036966,0.007076,-1.07592,-0.14196,-0.26866,0.3339
-0,0,0,5,5,5,5,0.626966,-0.861517,73.3192,0.0919801,0.00586689,-0.0639213,0,0,0,3.5875,0.805,-1.9425,0.036966,0.007076,-1.07592,-0.14196,-0.26866,0.3339
-0,0,0,5,5,5,5,0.627562,-0.861642,73.3182,-0.23202,0.0682841,-0.0907242,1,0,0,3.815,0.5075,-1.855,-0.288408,0.069418,-1.10251,-0.14756,-0.26684,0.34272
-0,0,0,5,5,5,5,0.714302,-0.571371,73.2501,0.270967,-0.0248498,0.0141965,0,0,0,2.8525,0.665,-1.8025,0.221796,-0.025132,-0.998448,-0.14756,-0.26684,0.34272
-0,0,0,5,5,5,5,0.800445,-0.286228,73.1829,0.265991,-0.023346,0.0142139,0,0,0,4.2175,0.7875,-1.6975,0.221796,-0.025132,-0.998448,-0.14756,-0.26684,0.34272
0,0,0,5,5,5,5,0.520039,-0.375902,73.3282,-0.0566895,0.168018,-0.0119268,0,0,0,3.57,0.875,-1.7325,-0.103822,0.170922,-1.02443,-0.14756,-0.26684,0.34272
0,0,0,5,5,5,5,0.247702,-0.462406,73.4726,-0.0551797,0.163265,-0.011906,0,0,0,3.6225,1.1025,-1.5575,-0.103822,0.170922,-1.02443,-0.14756,-0.26684,0.34272
-0,0,0,5,5,5,5,0.24866,-0.461705,73.4724,0.0127185,0.0462843,0.117067,1,0,0,4.025,0.9975,-1.4175,-0.035624,0.054046,-0.896456,-0.14756,-0.26684,0.34272
-0,0,0,5,5,5,5,0.247461,-0.461752,73.4726,0.0127193,0.0462634,0.117067,1,0,0,2.8175,0.56,-1.155,-0.035624,0.054046,-0.896456,-0.14756,-0.26684,0.34272
-0,0,0,5,5,5,5,0.290979,-0.549351,73.4781,-0.0828189,-0.0340694,0.0577888,0,0,0,2.8525,0.56,-1.19,-0.133102,-0.026962,-0.95526,-0.14756,-0.26684,0.34272
-0,0,0,5,5,5,5,0.333675,-0.634524,73.4812,-0.0813324,-0.0333243,0.0577694,0,0,0,3.08,1.155,-0.9625,-0.133102,-0.026962,-0.95526,-0.15008,-0.26796,0.34328
-0,0,0,5,5,5,5,0.332127,-0.634455,73.4817,0.00273447,-0.0486172,0.126252,1,0,0,2.625,0.63,-0.9275,-0.048678,-0.042212,-0.887306,-0.15008,-0.26796,0.34328
-0,0,0,5,5,5,5,0.33061,-0.634445,73.4824,0.0027343,-0.0486436,0.126252,1,0,0,2.6425,0.595,-0.91,-0.048678,-0.042212,-0.887306,-0.15008,-0.26796,0.34328
-0,0,0,5,5,5,5,0.382226,-0.839561,73.4974,-0.193166,-0.0507963,0.0582099,0,0,0,3.3075,0.7175,-0.77,-0.249002,-0.045262,-0.954772,-0.15008,-0.26796,0.34328
-0,0,0,5,5,5,5,0.431583,-1.04144,73.5119,-0.189643,-0.0499354,0.0581459,0,0,0,2.5025,0.525,-0.7875,-0.249002,-0.045262,-0.954772,-0.15008,-0.26796,0.34328
-0,0,0,5,5,5,5,0.736334,-1.16372,73.4005,-0.156773,-0.209611,-0.00379243,0,0,0,2.625,0.805,-0.735,-0.218136,-0.210084,-1.01614,-0.15008,-0.26796,0.34328
-0,0,0,5,5,5,5,1.0347,-1.28554,73.2902,-0.154647,-0.204406,-0.00391833,0,0,0,3.6925,0.2625,-0.8575,-0.218136,-0.210084,-1.01614,-0.15008,-0.26796,0.34328
-0,0,0,5,5,5,5,1.11978,-1.39611,73.272,-0.116637,-0.0667518,-0.0139502,0,0,0,2.7825,-0.21,-0.8575,-0.181902,-0.074054,-1.02602,-0.15008,-0.26796,0.34328
-0,0,0,5,5,5,5,1.20421,-1.50378,73.2603,-0.114758,-0.06528,-0.0140276,0,0,0,3.15,0.315,-0.7,-0.181902,-0.074054,-1.02602,-0.14546,-0.26796,0.33894
0,0,0,5,5,5,5,1.03802,-1.89252,73.3978,-0.373058,0.0649355,0.0189012,0,0,0,3.325,0.525,-0.875,-0.448106,0.058926,-0.993202,-0.14546,-0.26796,0.33894
0,0,0,5,5,5,5,0.87634,-2.2738,73.5334,-0.366408,0.062112,0.0187065,0,0,0,2.59,0.4375,-0.98,-0.448106,0.058926,-0.993202,-0.14546,-0.26796,0.33894
-0,0,0,5,5,5,5,0.876093,-2.27436,73.5338,-0.193888,-0.14734,-0.125144,1,0,0,3.36,0.2625,-1.015,-0.274866,-0.150304,-1.13594,-0.14546,-0.26796,0.33894
-0,0,0,5,5,5,5,0.875405,-2.2748,73.5343,-0.193881,-0.147352,-0.125144,1,0,0,3.115,0.3325,-0.9625,-0.274866,-0.150304,-1.13594,-0.14546,-0.26796,0.33894
-0,0,0,5,5,5,5,0.875073,-2.2753,73.5345,-0.0947398,-0.154929,-0.100923,1,0,0,3.3075,0.2975,-1.155,-0.175314,-0.157868,-1.11191,-0.14546,-0.26796,0.33894
-0,0,0,5,5,5,5,0.875236,-2.2755,73.5348,-0.0947363,-0.154927,-0.100923,1,0,0,3.5875,0.4725,-1.085,-0.175314,-0.157868,-1.11191,-0.14546,-0.26796,0.33894
-0,0,0,5,5,5,5,0.854063,-2.51748,73.5904,-0.248205,-0.0136313,-0.0375299,0,0,0,3.2375,0.665,-1.12,-0.33367,-0.016348,-1.04883,-0.14546,-0.26796,0.33894
-0,0,0,5,5,5,5,0.835707,-2.75549,73.6486,-0.244055,-0.0139542,-0.0377163,0,0,0,3.3425,0.14,-1.47,-0.33367,-0.016348,-1.04883,-0.14224,-0.2667,0.34776
-0,0,0,5,5,5,5,0.833141,-2.71532,73.6636,0.0381845,0.00456487,-0.10014,0,0,0,3.4125,0.35,-1.435,-0.049532,0.002196,-1.11081,-0.14224,-0.2667,0.34776
-0,0,0,5,5,5,5,0.831983,-2.67514,73.6781,0.0374839,0.00454515,-0.100107,0,0,0,4.2175,0.7875,-1.5925,-0.049532,0.002196,-1.11081,-0.14224,-0.2667,0.34776
-0,0,0,5,5,5,5,0.814397,-2.63824,73.7,0.0368406,0.0148641,-0.0649092,0,0,0,3.9025,0.5075,-1.715,-0.049532,0.01281,-1.07592,-0.14224,-0.2667,0.34776
-0,0,0,5,5,5,5,0.797168,-2.60172,73.7217,0.036204,0.0145641,-0.0648759,0,0,0,3.885,0.6475,-1.6275,-0.049532,0.01281,-1.07592,-0.14224,-0.2667,0.34776
-0,0,0,5,5,5,5,0.951919,-2.62993,73.6717,-0.0438492,-0.0963163,0.00563293,0,0,0,4.3925,0.6125,-1.7325,-0.130418,-0.10065,-1.00589,-0.14224,-0.2667,0.34776
-0,0,0,5,5,5,5,1.1005,-2.65823,73.6226,-0.0433559,-0.0937267,0.00556376,0,0,0,3.3775,0.525,-1.6975,-0.130418,-0.10065,-1.00589,-0.14224,-0.2667,0.34776
-0,0,0,5,5,5,5,1.18353,-2.66474,73.6001,-0.0142073,-0.0495351,0.0236031,0,0,0,3.6925,0.7175,-1.7675,-0.10126,-0.05795,-0.987956,-0.14224,-0.2667,0.34776
-0,0,0,5,5,5,5,1.26465,-2.67074,73.5729,-0.0141027,-0.0481213,0.023568,0,0,0,3.9725,1.1025,-1.435,-0.10126,-0.05795,-0.987956,-0.14644,-0.26628,0.3444
0,0,0,5,5,5,5,1.08054,-2.65776,73.6653,0.0330504,0.113052,0.0171279,0,0,0,4.0075,0.665,-1.4875,-0.05368,0.106262,-0.994422,-0.14644,-0.26628,0.3444
0,0,0,5,5,5,5,0.901312,-2.64441,73.7563,0.0328178,0.109928,0.0171927,0,0,0,3.885,0.6125,-1.645,-0.05368,0.106262,-0.994422,-0.14644,-0.26628,0.3444
-0,0,0,5,5,5,5,1.04158,-2.32357,73.6611,0.298379,-0.0527375,0.0141973,0,0,0,4.2875,0.665,-1.7325,0.218624,-0.058682,-0.997594,-0.14644,-0.26628,0.3444
-0,0,0,5,5,5,5,1.17543,-2.00898,73.5676,0.292893,-0.0503996,0.0143596,0,0,0,3.2375,0.4375,-1.47,0.218624,-0.058682,-0.997594,-0.14644,-0.26628,0.3444
-0,0,0,5,5,5,5,1.27338,-1.918,73.5179,0.0770048,-0.0522318,-0.0156219,0,0,0,3.185,0.5775,-1.4875,0.003416,-0.06222,-1.02736,-0.14644,-0.26628,0.3444
-0,0,0,5,5,5,5,1.37034,-1.82897,73.4688,0.0754519,-0.0505397,-0.0156102,0,0,0,4.3225,0.56,-1.4875,0.003416,-0.06222,-1.02736,-0.14644,-0.26628,0.3444
0,0,0,5,5,5,5,1.02202,-1.93679,73.6474,-0.0697865,0.213895,-0.0344792,0,0,0,3.4475,0.455,-1.33,-0.144326,0.20801,-1.04615,-0.14644,-0.26628,0.3444
0,0,0,5,5,5,5,0.683215,-2.04152,73.8243,-0.0679598,0.207985,-0.0344547,0,0,0,3.29,0.2275,-1.365,-0.144326,0.20801,-1.04615,-0.14644,-0.26628,0.3444
-0,0,0,5,5,5,5,0.782132,-1.94804,73.7711,0.0754637,-0.0454118,0.0799221,0,0,0,3.92,0.56,-1.2075,0.001342,-0.046848,-0.93269,-0.1519,-0.26614,0.34524
0,0,0,5,5,5,5,0.643658,-1.92856,73.8346,0.0338188,0.0852912,0.0238991,0,0,0,3.1325,0.4725,-1.2775,-0.040138,0.086132,-0.988322,-0.1519,-0.26614,0.34524
0,0,0,5,5,5,5,0.508597,-1.90918,73.8974,0.0334806,0.0829355,0.0239342,0,0,0,2.9225,0.35,-1.2425,-0.040138,0.086132,-0.988322,-0.1519,-0.26614,0.34524
0,0,0,5,5,5,5,0.306854,-1.95023,73.9995,-0.019986,0.125214,-0.0440554,0,0,0,2.9925,0.4025,-1.225,-0.09455,0.131882,-1.05579,-0.1519,-0.26614,0.34524
0,0,0,5,5,5,5,0.109372,-1.98971,74.1012,-0.0192973,0.121769,-0.0440666,0,0,0,2.1875,0.4375,-0.875,-0.09455,0.131882,-1.05579,-0.1519,-0.26614,0.34524
-0,0,0,5,5,5,5,0.176776,-1.76211,74.0488,0.220676,-0.0196988,-0.0304152,0,0,0,3.0975,0.4725,-1.1375,0.150426,-0.010614,-1.04237,-0.1519,-0.26614,0.34524
-0,0,0,5,5,5,5,0.242138,-1.53857,73.9971,0.216776,-0.0185581,-0.030307,0,0,0,3.3075,0.56,-1.085,0.150426,-0.010614,-1.04237,-0.1519,-0.26614,0.34524
-0,0,0,5,5,5,5,0.329552,-1.4276,73.9482,0.0997928,-0.0454882,-0.0351824,0,0,0,2.5725,0.6475,-0.945,0.034892,-0.03904,-1.04725,-0.1519,-0.26614,0.34524
-0,0,0,5,5,5,5,0.414923,-1.31821,73.9044,0.0978842,-0.0439984,-0.0351463,0,0,0,2.8875,1.015,-0.9625,0.034892,-0.03904,-1.04725,-0.1505,-0.27118,0.34034
0,0,0,5,5,5,5,0.308045,-1.15898,73.9398,0.156699,0.0778515,0.0583663,0,0,0,2.6775,1.365,-0.9275,0.096746,0.084546,-0.954528,-0.1505,-0.27118,0.34034
0,0,0,5,5,5,5,0.203841,-1.00316,73.9744,0.15398,0.0760333,0.0584258,0,0,0,2.8,0.8575,-0.9975,0.096746,0.084546,-0.954528,-0.1505,-0.27118,0.34034
-0,0,0,5,5,5,5,0.304822,-0.645182,73.8921,0.324373,-0.025279,0.079532,0,0,0,3.325,1.1375,-0.84,0.274134,-0.018422,-0.933666,-0.1505,-0.27118,0.34034
-0,0,0,5,5,5,5,0.401541,-0.293936,73.8101,0.318243,-0.0235907,0.0795719,0,0,0,2.835,0.875,-1.085,0.274134,-0.018422,-0.933666,-0.1505,-0.27118,0.34034
0,0,0,5,5,5,5,0.353454,-0.057495,73.8058,0.210732,0.0498232,0.11795,0,0,0,3.15,0.77,-1.015,0.170312,0.055754,-0.895602,-0.1505,-0.27118,0.34034
0,0,0,5,5,5,5,0.305736,0.175662,73.8017,0.206662,0.0489903,0.117951,0,0,0,2.9925,1.225,-0.805,0.170312,0.055754,-0.895602,-0.1505,-0.27118,0.34034
0,0,0,5,5,5,5,0.205258,0.335225,73.8305,0.166703,0.0809436,-0.00168292,0,0,0,3.605,0.945,-0.77,0.13298,0.089426,-1.01431,-0.1505,-0.27118,0.34034
0,0,0,5,5,5,5,0.107146,0.491566,73.8624,0.163974,0.0792313,-0.00169794,0,0,0,3.92,0.6475,-1.19,0.13298,0.089426,-1.01431,-0.14602,-0.26712,0.34734
0,0,0,5,5,5,5,0.0488287,0.847702,73.8494,0.337436,0.070153,0.0988027,0,0,0,3.71,0.7175,-0.945,0.313418,0.081374,-0.914512,-0.14602,-0.26712,0.34734
0,0,0,5,5,5,5,-0.00913238,1.1981,73.8357,0.331322,0.0691416,0.0986938,0,0,0,3.5525,0.805,-1.1375,0.313418,0.081374,-0.914512,-0.14602,-0.26712,0.34734
-0,0,0,5,5,5,5,0.0610348,1.2637,73.8053,0.0512457,-0.0352737,0.0590793,0,0,0,3.9375,0.7875,-1.085,0.033306,-0.024156,-0.953796,-0.14602,-0.26712,0.34734
-0,0,0,5,5,5,5,0.128981,1.32713,73.7746,0.050139,-0.0340882,0.0590523,0,0,0,3.8675,0.315,-1.4175,0.033306,-0.024156,-0.953796,-0.14602,-0.26712,0.34734
0,0,0,5,5,5,5,-0.0370574,1.18612,73.8736,-0.111771,0.083798,0.0862802,0,0,0,3.465,0.91,-1.4525,-0.13176,0.096502,-0.926834,-0.14602,-0.26712,0.34734
0,0,0,5,5,5,5,-0.197302,1.04745,73.9715,-0.109351,0.0810016,0.0863217,0,0,0,3.9375,0.4375,-1.68,-0.13176,0.096502,-0.926834,-0.14602,-0.26712,0.34734
0,0,0,5,5,5,5,-0.204768,1.07028,73.9817,0.0213339,0.00710682,0.0343066,0,0,0,3.9725,0.6825,-1.54,-0.000122,0.022814,-0.97844,-0.14602,-0.26712,0.34734
0,0,0,5,5,5,5,-0.210889,1.09253,73.9861,0.0209455,0.00700005,0.0342989,0,0,0,4.585,0.56,-1.8025,-0.000122,0.022814,-0.97844,-0.15036,-0.2681,0.34762
0,0,0,5,5,5,5,-0.209051,1.0917,73.9849,0.194685,-0.125353,-0.100575,1,0,0,4.5325,0.105,-1.9775,0.174338,-0.109434,-1.11227,-0.15036,-0.2681,0.34762
0,0,0,5,5,5,5,-0.207612,1.09145,73.9841,0.194689,-0.125328,-0.100575,1,0,0,4.305,0.4375,-1.75,0.174338,-0.109434,-1.11227,-0.15036,-0.2681,0.34762
0,0,0,5,5,5,5,-0.323607,0.963195,74.0568,-0.116506,0.0646307,-0.0452175,0,0,0,4.095,0.4025,-1.7325,-0.140422,0.08235,-1.05737,-0.15036,-0.2681,0.34762
0,0,0,5,5,5,5,-0.436624,0.837105,74.1289,-0.114306,0.0626583,-0.045196,0,0,0,3.7625,0.07,-1.68,-0.140422,0.08235,-1.05737,-0.15036,-0.2681,0.34762
-0,0,0,5,5,5,5,-0.264146,0.852445,74.0572,-0.00110565,-0.112026,-0.0475175,0,0,0,4.1125,-0.1575,-1.61,-0.026474,-0.09516,-1.05969,-0.15036,-0.2681,0.34762
-0,0,0,5,5,5,5,-0.0968703,0.867795,73.9866,-0.00137354,-0.109107,-0.0475124,0,0,0,3.885,0.2625,-1.435,-0.026474,-0.09516,-1.05969,-0.15036,-0.2681,0.34762
0,0,0,5,5,5,5,-0.0960429,0.867509,73.9864,-0.00719986,-0.239524,-0.143043,1,0,0,3.955,0.42,-1.4,-0.03233,-0.225456,-1.15449,-0.15036,-0.2681,0.34762
0,0,0,5,5,5,5,-0.0952127,0.867552,73.9863,-0.00720061,-0.239509,-0.143043,1,0,0,3.955,0.6125,-1.295,-0.03233,-0.225456,-1.15449,-0.15106,-0.2695,0.34664
0,0,0,5,5,5,5,-0.0952512,0.761599,74.0044,-0.110315,-0.0112553,-0.0844934,0,0,0,3.7625,0.595,-1.2775,-0.137738,0.002562,-1.09641,-0.15106,-0.2695,0.34664
0,0,0,5,5,5,5,-0.0949766,0.657565,74.0221,-0.1085,-0.0112505,-0.084471,0,0,0,3.7625,0.595,-1.2775,-0.137738,0.002562,-1.09641,-0.15106,-0.2695,0.34664
0,0,0,5,5,5,5,-0.10647,0.652181,74.033,-0.00319904,0.00808919,-0.044512,0,0,0,4.2875,0.4025,-1.0675,-0.032086,0.022082,-1.05676,-0.15106,-0.2695,0.34664
0,0,0,5,5,5,5,-0.117632,0.646929,74.0438,-0.00310737,0.00789438,-0.0445113,0,0,0,4.2875,0.4025,-1.0675,-0.032086,0.022082,-1.05676,-0.15106,-0.2695,0.34664
-0,0,0,5,5,5,5,-0.0868793,0.702651,74.0276,0.0488879,-0.013796,0.0246982,0,0,0,3.2375,0.77,-0.875,0.021106,-0.000122,-0.988078,-0.15106,-0.2695,0.34664
-0,0,0,5,5,5,5,-0.0571164,0.757283,74.0116,0.0479345,-0.0132765,0.0246867,0,0,0,3.2375,0.77,-0.875,0.021106,-0.000122,-0.988078,-0.15106,-0.2695,0.34664
0,0,0,5,5,5,5,-0.185253,0.693325,74.0807,-0.0491098,0.0725406,0.0173192,0,0,0,2.8175,1.1025,-0.6475,-0.07747,0.08784,-0.995398,-0.15106,-0.2695,0.34664
0,0,0,5,5,5,5,-0.309273,0.631081,74.1512,-0.0480235,0.0703761,0.0173224,0,0,0,2.8175,1.1025,-0.6475,-0.07747,0.08784,-0.995398,-0.14798,-0.2646,0.34636
-0,0,0,5,5,5,5,-0.220833,0.513888,74.1356,-0.118748,-0.0648624,0.0552181,0,0,0,3.36,1.3475,-0.7175,-0.150548,-0.0488,-0.957822,-0.14798,-0.2646,0.34636
0,0,0,5,5,5,5,-0.228503,0.423138,74.159,-0.0837557,-0.00393295,0.0548617,0,0,0,3.78,1.05,-0.77,-0.116998,0.0122,-0.958188,-0.14798,-0.2646,0.34636
0,0,0,5,5,5,5,-0.236202,0.333848,74.1821,-0.0821973,-0.00406738,0.0548714,0,0,0,3.5,0.9275,-0.8225,-0.116998,0.0122,-0.958188,-0.14798,-0.2646,0.34636
0,0,0,5,5,5,5,-0.235774,0.334431,74.1827,-0.0631343,0.0422261,0.110444,1,0,0,3.7275,0.9275,-0.91,-0.097844,0.058438,-0.903044,-0.14798,-0.2646,0.34636
0,0,0,5,5,5,5,-0.236938,0.334685,74.1832,-0.0631387,0.0422058,0.110444,1,0,0,2.835,0.735,-0.98,-0.097844,0.058438,-0.903044,-0.14798,-0.2646,0.34636
-0,0,0,5,5,5,5,-0.119202,0.397336,74.1297,0.0481421,-0.0685844,0.00716669,0,0,0,3.01,0.63,-0.8225,0.015006,-0.05429,-1.00552,-0.14798,-0.2646,0.34636
-0,0,0,5,5,5,5,-0.00397871,0.458386,74.0766,0.0470766,-0.0665735,0.0071609,0,0,0,3.5,0.525,-0.98,0.015006,-0.05429,-1.00552,-0.14798,-0.2646,0.34636
0,0,0,5,5,5,5,-0.0257165,0.540128,74.0803,0.0803949,0.0212227,0.0198121,0,0,0,3.045,0.3675,-1.0675,0.049898,0.033794,-0.992958,-0.14798,-0.2646,0.34636
0,0,0,5,5,5,5,-0.0469978,0.620323,74.0879,0.0789953,0.0208513,0.0197977,0,0,0,3.29,0.35,-1.2075,0.049898,0.033794,-0.992958,-0.14588,-0.26782,0.34734
0,0,0,5,5,5,5,-0.158556,0.939648,74.1025,0.318216,0.100852,0.0718485,0,0,0,3.1325,0.63,-1.2775,0.295728,0.115656,-0.94123,-0.14588,-0.26782,0.34734
0,0,0,5,5,5,5,-0.267442,1.25251,74.116,0.312757,0.0989519,0.0717369,0,0,0,3.5175,-0.14,-1.5225,0.295728,0.115656,-0.94123,-0.14588,-0.26782,0.34734
0,0,0,5,5,5,5,-0.367712,1.42356,74.1453,0.188044,0.0852343,-0.0291602,0,0,0,3.4825,0.0525,-1.47,0.173484,0.1037,-1.04127,-0.14588,-0.26782,0.34734
0,0,0,5,5,5,5,-0.465456,1.59177,74.1737,0.185109,0.0835296,-0.0292499,0,0,0,3.6925,0.0175,-1.68,0.173484,0.1037,-1.04127,-0.14588,-0.26782,0.34734
0,0,0,5,5,5,5,-0.509352,1.66497,74.1922,0.0760739,0.0355011,0.0082066,0,0,0,3.9375,0.21,-1.68,0.06527,0.056486,-1.00406,-0.14588,-0.26782,0.34734
0,0,0,5,5,5,5,-0.552303,1.73778,74.2103,0.0748037,0.0347521,0.00816193,0,0,0,3.92,0.6825,-1.8025,0.06527,0.056486,-1.00406,-0.14588,-0.26782,0.34734
0,0,0,5,5,5,5,-0.685687,1.63983,74.2912,-0.0844561,0.0805427,-0.0470167,0,0,0,3.6225,0.42,-1.785,-0.09638,0.104554,-1.05884,-0.14588,-0.26782,0.34734
0,0,0,5,5,5,5,-0.814961,1.54409,74.3756,-0.0827857,0.0782869,-0.0469998,0,0,0,3.5875,0.3675,-1.785,-0.09638,0.104554,-1.05884,-0.1435,-0.26992,0.34958
-0,0,0,5,5,5,5,-0.772179,1.50736,74.3778,-0.0409613,-0.0314917,-0.0724228,0,0,0,3.78,0.49,-1.68,-0.055022,-0.005856,-1.08409,-0.1435,-0.26992,0.34958
-0,0,0,5,5,5,5,-0.730473,1.47117,74.38,-0.0403298,-0.0307643,-0.0723968,0,0,0,3.78,0.49,-1.68,-0.055022,-0.005856,-1.08409,-0.1435,-0.26992,0.34958
-0,0,0,5,5,5,5,-0.444562,1.46425,74.2697,-0.037172,-0.190892,-0.0277123,0,0,0,3.43,0.665,-1.785,-0.051972,-0.1708,-1.03981,-0.1435,-0.26992,0.34958
-0,0,0,5,5,5,5,-0.166422,1.45681,74.1606,-0.0370422,-0.186039,-0.0276831,0,0,0,3.43,0.665,-1.785,-0.051972,-0.1708,-1.03981,-0.1435,-0.26992,0.34958
-0,0,0,5,5,5,5,-0.0785064,1.39487,74.1413,-0.0720427,-0.065187,-0.0510131,0,0,0,3.64,0.6475,-1.3825,-0.088206,-0.051606,-1.06299,-0.1435,-0.26992,0.34958
-0,0,0,5,5,5,5,0.00716237,1.33379,74.122,-0.0709769,-0.0636923,-0.0509868,0,0,0,3.64,0.6475,-1.3825,-0.088206,-0.051606,-1.06299,-0.1435,-0.26992,0.34958
-0,0,0,5,5,5,5,0.0822594,1.21634,74.1143,-0.131614,-0.0647023,-0.0805728,0,0,0,3.535,0.735,-1.3475,-0.151158,-0.053924,-1.09239,-0.1435,-0.26992,0.34958
0,0,0,5,5,5,5,-0.0190871,1.35285,74.1444,0.134852,0.07483,0.0629786,0,0,0,3.4825,0.84,-1.155,0.118828,0.08723,-0.949892,-0.14728,-0.26894,0.34804
-0,0,0,5,5,5,5,0.0369299,1.26174,74.1362,-0.0912227,-0.0425334,0.0501052,0,0,0,3.7625,0.595,-1.2425,-0.1098,-0.030988,-0.962702,-0.14728,-0.26894,0.34804
-0,0,0,5,5,5,5,0.0911689,1.1725,74.1284,-0.0896655,-0.041587,0.0501372,0,0,0,3.4825,0.8225,-1.085,-0.1098,-0.030988,-0.962702,-0.14728,-0.26894,0.34804
0,0,0,5,5,5,5,0.0168104,1.1693,74.1651,0.00247644,0.0426042,0.0921879,0,0,0,3.185,0.42,-1.05,-0.017324,0.054412,-0.920978,-0.14728,-0.26894,0.34804
0,0,0,5,5,5,5,-0.0558441,1.16654,74.2014,0.0025247,0.0413364,0.0921885,0,0,0,3.01,0.5075,-1.05,-0.017324,0.054412,-0.920978,-0.14728,-0.26894,0.34804
-0,0,0,5,5,5,5,0.119802,1.10245,74.1375,-0.0826119,-0.121691,-0.0161087,0,0,0,3.4825,0.6475,-1.0325,-0.103944,-0.111508,-1.02846,-0.14728,-0.26894,0.34804
-0,0,0,5,5,5,5,0.290379,1.03896,74.074,-0.0815039,-0.118714,-0.0160987,0,0,0,3.255,0.595,-1.155,-0.103944,-0.111508,-1.02846,-0.14728,-0.26894,0.34804
-0,0,0,5,5,5,5,0.290064,1.03867,74.0745,0.093805,-0.0335974,0.127014,1,0,0,3.3075,0.42,-0.9625,0.072102,-0.026474,-0.886452,-0.14728,-0.26894,0.34804
-0,0,0,5,5,5,5,0.289282,1.03883,74.0751,0.0938022,-0.0336111,0.127014,1,0,0,3.045,0.6825,-0.9625,0.072102,-0.026474,-0.886452,-0.14924,-0.2653,0.34356
-0,0,0,5,5,5,5,0.52834,1.12898,73.9561,0.0665957,-0.152055,-0.0349692,0,0,0,2.73,0.525,-0.8575,0.04636,-0.148962,-1.04713,-0.14924,-0.2653,0.34356
-0,0,0,5,5,5,5,0.761429,1.21741,73.8384,0.0650524,-0.147988,-0.0350465,0,0,0,3.1325,0.7525,-1.0325,0.04636,-0.148962,-1.04713,-0.14924,-0.2653,0.34356
-0,0,0,5,5,5,5,0.792534,1.35476,73.801,0.118539,-0.00394743,0.0836605,0,0,0,3.0625,0.8225,-0.9275,0.10248,-0.005612,-0.929274,-0.14924,-0.2653,0.34356
-0,0,0,5,5,5,5,0.822304,1.48857,73.7634,0.116205,-0.00342887,0.0835953,0,0,0,2.9925,0.2275,-1.2075,0.10248,-0.005612,-0.929274,-0.14924,-0.2653,0.34356
0,0,0,5,5,5,5,0.770903,1.47081,73.781,-0.0121389,0.0309691,-0.0132677,0,0,0,3.2025,0.805,-1.0675,-0.026718,0.029646,-1.02541,-0.14924,-0.2653,0.34356
0,0,0,5,5,5,5,0.720033,1.45286,73.7982,-0.0118257,0.0300817,-0.0132481,0,0,0,2.695,0.42,-1.155,-0.026718,0.029646,-1.02541,-0.14924,-0.2653,0.34356
0,0,0,5,5,5,5,0.693377,1.61423,73.7822,0.162607,0.0343787,0.00254261,0,0,0,2.6425,0.42,-1.0325,0.15128,0.034404,-1.00967,-0.14924,-0.2653,0.34356
0,0,0,5,5,5,5,0.666678,1.77222,73.7734,0.15985,0.033912,0.00246667,0,0,0,3.115,0.28,-1.0675,0.15128,0.034404,-1.00967,-0.14546,-0.27034,0.34608
-0,0,0,5,5,5,5,0.755904,1.76536,73.7371,-0.0167917,-0.0545389,0.0566713,0,0,0,3.1675,0.4375,-0.875,-0.02623,-0.05551,-0.95587,-0.14546,-0.27034,0.34608
-0,0,0,5,5,5,5,0.843898,1.75767,73.7007,-0.0166575,-0.053004,0.056654,0,0,0,3.8325,0.0175,-1.1375,-0.02623,-0.05551,-0.95587,-0.14546,-0.27034,0.34608
0,0,0,5,5,5,5,0.7718,1.55582,73.7587,-0.197187,0.0258549,-0.0334706,0,0,0,3.64,0.4375,-1.2075,-0.21106,0.024522,-1.04542,-0.14546,-0.27034,0.34608
0,0,0,5,5,5,5,0.702127,1.35837,73.8158,-0.193742,0.0246405,-0.0333673,0,0,0,3.5525,0.7525,-1.4175,-0.21106,0.024522,-1.04542,-0.14546,-0.27034,0.34608
-0,0,0,5,5,5,5,0.731499,1.28378,73.8142,-0.0782438,-0.0283381,-0.0452697,0,0,0,3.6225,0.42,-1.435,-0.09638,-0.028914,-1.05725,-0.14546,-0.27034,0.34608
-0,0,0,5,5,5,5,0.760036,1.21074,73.8127,-0.0769693,-0.0278399,-0.0452485,0,0,0,3.4825,0.595,-1.435,-0.09638,-0.028914,-1.05725,-0.14546,-0.27034,0.34608
-0,0,0,5,5,5,5,0.812542,0.997573,73.8191,-0.23276,-0.0619731,-0.0710085,0,0,0,3.9025,0.49,-1.6275,-0.256566,-0.063928,-1.08287,-0.14546,-0.27034,0.34608
-0,0,0,5,5,5,5,0.863636,0.7883,73.8246,-0.229108,-0.0610807,-0.0709647,0,0,0,3.64,0.6825,-1.54,-0.256566,-0.063928,-1.08287,-0.14658,-0.27132,0.35504
0,0,0,5,5,5,5,0.830831,0.910099,73.8235,0.115972,0.0336052,0.0536821,0,0,0,3.8675,0.7875,-1.47,0.09211,0.031232,-0.959164,-0.14658,-0.27132,0.35504
0,0,0,5,5,5,5,0.798029,1.0291,73.8224,0.113896,0.0330324,0.0536551,0,0,0,3.57,0.3675,-1.4525,0.09211,0.031232,-0.959164,-0.14658,-0.27132,0.35504
0,0,0,5,5,5,5,0.676293,0.983905,73.8825,-0.0297622,0.0686455,0.0879989,0,0,0,3.8675,0.35,-1.5225,-0.052948,0.06893,-0.925126,-0.14658,-0.27132,0.35504
0,0,0,5,5,5,5,0.559142,0.940033,73.9419,-0.0289966,0.0666014,0.0880338,0,0,0,4.5325,0.42,-1.61,-0.052948,0.06893,-0.925126,-0.14658,-0.27132,0.35504
0,0,0,5,5,5,5,0.528912,1.0599,73.942,0.120647,0.0324887,0.00882344,0,0,0,3.92,0.56,-1.3475,0.09943,0.03538,-1.00369,-0.14658,-0.27132,0.35504
0,0,0,5,5,5,5,0.499498,1.17789,73.9418,0.118588,0.0319751,0.00878783,0,0,0,4.1125,0.665,-1.505,0.09943,0.03538,-1.00369,-0.14658,-0.27132,0.35504
0,0,0,5,5,5,5,0.348981,1.27469,73.9977,0.107302,0.105556,0.0368034,0,0,0,4.2,0.595,-1.505,0.089792,0.111508,-0.975878,-0.14658,-0.27132,0.35504
0,0,0,5,5,5,5,0.201441,1.37005,74.0508,0.105638,0.102981,0.0367773,0,0,0,3.78,0.5075,-1.295,0.089792,0.111508,-0.975878,-0.14728,-0.26852,0.3472
0,0,0,5,5,5,5,0.144778,1.36236,74.0786,-4.17817e-05,0.0379979,-0.0436248,0,0,0,4.13,0.2975,-1.4875,-0.01647,0.04758,-1.05567,-0.14728,-0.26852,0.3472
0,0,0,5,5,5,5,0.0888771,1.35544,74.1062,7.88667e-05,0.0370226,-0.0436199,0,0,0,3.6925,0.5775,-1.4875,-0.01647,0.04758,-1.05567,-0.14728,-0.26852,0.3472
0,0,0,5,5,5,5,-0.0938179,1.32793,74.1928,-0.00806659,0.119446,-0.0299616,0,0,0,3.7975,0.8225,-1.4525,-0.025132,0.133102,-1.04212,-0.14728,-0.26852,0.3472
0,0,0,5,5,5,5,-0.270929,1.30105,74.2789,-0.00759755,0.116355,-0.0299606,0,0,0,4.165,0.56,-1.26,-0.025132,0.133102,-1.04212,-0.14728,-0.26852,0.3472
-0,0,0,5,5,5,5,-0.258592,1.19935,74.2933,-0.103133,-0.0174027,-0.0269701,0,0,0,4.3575,0.35,-1.3125,-0.122854,-0.000732,-1.0392,-0.14728,-0.26852,0.3472
-0,0,0,5,5,5,5,-0.247685,1.09945,74.3073,-0.10139,-0.0172125,-0.0269343,0,0,0,3.5875,0.3675,-1.3475,-0.122854,-0.000732,-1.0392,-0.14728,-0.26852,0.3472
0,0,0,5,5,5,5,-0.274207,1.05232,74.3311,-0.043712,0.0123678,-0.00429847,0,0,0,3.4475,0.5775,-1.2775,-0.065758,0.02928,-1.01675,-0.14728,-0.26852,0.3472
0,0,0,5,5,5,5,-0.299756,1.00644,74.3545,-0.0429114,0.0119219,-0.00428631,0,0,0,3.5175,0.77,-1.295,-0.065758,0.02928,-1.01675,-0.14728,-0.26852,0.3472
-0,0,0,5,5,5,5,-0.196158,0.979977,74.3209,-0.0379546,-0.0710263,-0.0145982,0,0,0,2.835,0.9625,-1.225,-0.061244,-0.055388,-1.027,-0.14532,-0.2688,0.34608
0,0,0,5,5,5,5,-0.195672,0.979781,74.3208,-0.116431,-0.121823,-0.137055,1,0,0,3.7625,0.4725,-1.3125,-0.140056,-0.10614,-1.14851,-0.14532,-0.2688,0.34608
0,0,0,5,5,5,5,-0.195187,0.979584,74.3207,-0.116428,-0.121814,-0.137055,1,0,0,3.7625,0.4725,-1.3475,-0.140056,-0.10614,-1.14851,-0.14532,-0.2688,0.34608
-0,0,0,5,5,5,5,-0.0922816,0.880987,74.2959,-0.113371,-0.0808156,-0.0546467,0,0,0,3.1325,0.4025,-1.3475,-0.138714,-0.066978,-1.06677,-0.14532,-0.2688,0.34608
-0,0,0,5,5,5,5,0.0090108,0.784444,74.2715,-0.111686,-0.079048,-0.054621,0,0,0,3.6575,0.7525,-1.225,-0.138714,-0.066978,-1.06677,-0.14532,-0.2688,0.34608
0,0,0,5,5,5,5,-0.0850262,0.551827,74.3501,-0.22899,0.0383844,-0.0199032,0,0,0,3.29,0.6825,-1.3825,-0.260592,0.051972,-1.03236,-0.14532,-0.2688,0.34608
0,0,0,5,5,5,5,-0.176331,0.323059,74.4279,-0.224998,0.0367909,-0.0198764,0,0,0,3.01,0.35,-1.4175,-0.260592,0.051972,-1.03236,-0.14532,-0.2688,0.34608
0,0,0,5,5,5,5,-0.2064,0.327593,74.45,0.00696085,0.0189241,0.0377842,0,0,0,3.6225,0.6825,-1.19,-0.027572,0.034648,-0.975146,-0.14532,-0.2688,0.34608
0,0,0,5,5,5,5,-0.236962,0.332238,74.4669,0.00687978,0.0183907,0.0377817,0,0,0,2.9225,0.7525,-1.3125,-0.027572,0.034648,-0.975146,-0.1498,-0.2716,0.34202
-0,0,0,5,5,5,5,-0.182835,0.278519,74.4537,-0.0586353,-0.0406289,0.0139382,0,0,0,2.59,0.8925,-1.295,-0.094306,-0.025254,-0.998814,-0.1498,-0.2716,0.34202
-0,0,0,5,5,5,5,-0.12892,0.225484,74.4407,-0.0577097,-0.0396879,0.0139448,0,0,0,3.22,0.8225,-1.19,-0.094306,-0.025254,-0.998814,-0.1498,-0.2716,0.34202
0,0,0,5,5,5,5,-0.256664,-0.0836679,74.5402,-0.28751,0.049067,0.0564842,0,0,0,3.5525,0.2625,-1.3475,-0.330498,0.065636,-0.956602,-0.1498,-0.2716,0.34202
0,0,0,5,5,5,5,-0.380122,-0.386292,74.6386,-0.282229,0.0469124,0.0564505,0,0,0,3.5,0.6825,-1.295,-0.330498,0.065636,-0.956602,-0.1498,-0.2716,0.34202
-0,0,0,5,5,5,5,-0.321139,-0.554756,74.6406,-0.174568,-0.0539118,0.00713032,0,0,0,4.3575,0.875,-1.33,-0.225334,-0.036112,-1.00552,-0.1498,-0.2716,0.34202
-0,0,0,5,5,5,5,-0.264525,-0.720587,74.6427,-0.171674,-0.0529236,0.00710316,0,0,0,3.675,0.7875,-1.1725,-0.225334,-0.036112,-1.00552,-0.1498,-0.2716,0.34202
-0,0,0,5,5,5,5,-0.0639038,-0.385742,74.5177,0.318509,-0.0966855,0.0236447,0,0,0,3.36,0.7,-1.2075,0.272792,-0.083326,-0.989176,-0.1498,-0.2716,0.34202
-0,0,0,5,5,5,5,0.130817,-0.0568308,74.3958,0.312768,-0.093287,0.0236649,0,0,0,3.71,0.7875,-1.155,0.272792,-0.083326,-0.989176,-0.14924,-0.27356,0.34664
-0,0,0,5,5,5,5,0.128994,-0.0572957,74.3959,-0.196735,-0.0719466,-0.105431,1,0,0,2.4675,0.315,-1.225,-0.238876,-0.061976,-1.11728,-0.14924,-0.27356,0.34664
-0,0,0,5,5,5,5,0.127703,-0.0570435,74.3959,-0.196739,-0.0719692,-0.105431,1,0,0,2.765,0.735,-1.295,-0.238876,-0.061976,-1.11728,-0.14924,-0.27356,0.34664
0,0,0,5,5,5,5,0.110227,-0.22365,74.4285,-0.166619,-0.00657001,-0.00929166,0,0,0,3.1675,0.6475,-1.2075,-0.211548,0.00366,-1.02187,-0.14924,-0.27356,0.34664
0,0,0,5,5,5,5,0.093721,-0.387763,74.4609,-0.163754,-0.00685812,-0.00930643,0,0,0,3.1675,0.35,-1.0675,-0.211548,0.00366,-1.02187,-0.14924,-0.27356,0.34664
-0,0,0,5,5,5,5,0.253863,-0.219284,74.3736,0.154756,-0.0871093,-0.0174139,0,0,0,3.8675,0.28,-1.0325,0.111264,-0.0793,-1.02992,-0.14924,-0.27356,0.34664
-0,0,0,5,5,5,5,0.409271,-0.0535923,74.2878,0.151864,-0.0843969,-0.0174227,0,0,0,3.8325,0.56,-0.8925,0.111264,-0.0793,-1.02992,-0.14924,-0.27356,0.34664
0,0,0,5,5,5,5,0.385585,-0.162978,74.3141,-0.105234,0.00336515,0.00901044,0,0,0,3.2375,0.665,-0.91,-0.14884,0.008784,-1.00369,-0.14924,-0.27356,0.34664
0,0,0,5,5,5,5,0.363301,-0.269975,74.3384,-0.103366,0.00297619,0.00900593,0,0,0,3.4125,0.8575,-0.98,-0.14884,0.008784,-1.00369,-0.14784,-0.26502,0.35098
0,0,0,5,5,5,5,0.34159,-0.319935,74.3556,-0.0486763,0.00882571,-0.0251759,0,0,0,3.5525,0.735,-0.98,-0.094794,0.015006,-1.03761,-0.14784,-0.26502,0.35098
0,0,0,5,5,5,5,0.320114,-0.369714,74.3723,-0.0478075,0.00845087,-0.025179,0,0,0,3.2725,0.28,-1.2075,-0.094794,0.015006,-1.03761,-0.14784,-0.26502,0.35098
-0,0,0,5,5,5,5,0.487655,-0.262912,74.2837,0.0828693,-0.0895017,0.0721859,0,0,0,3.5875,0.3675,-1.2425,0.038308,-0.085766,-0.940986,-0.14784,-0.26502,0.35098
-0,0,0,5,5,5,5,0.650241,-0.157866,74.1965,0.0810359,-0.0866642,0.0721645,0,0,0,3.4825,0.6475,-1.1025,0.038308,-0.085766,-0.940986,-0.14784,-0.26502,0.35098
-0,0,0,5,5,5,5,0.730505,-0.195213,74.1631,-0.0483019,-0.0593726,-0.0551061,0,0,0,3.6925,0.6475,-1.2425,-0.092232,-0.059902,-1.06726,-0.14784,-0.26502,0.35098
-0,0,0,5,5,5,5,0.80941,-0.231991,74.1298,-0.04766,-0.0579956,-0.055127,0,0,0,4.095,0.7175,-1.4525,-0.092232,-0.059902,-1.06726,-0.14784,-0.26502,0.35098
-0,0,0,5,5,5,5,0.839383,-0.160368,74.104,0.0626138,-0.00898812,0.0813426,0,0,0,3.885,0.4725,-1.575,0.019764,-0.011468,-0.931836,-0.14784,-0.26502,0.35098
-0,0,0,5,5,5,5,0.868006,-0.0910077,74.0766,0.0614032,-0.00848857,0.0813378,0,0,0,3.675,-0.07,-1.8025,0.019764,-0.011468,-0.931836,-0.14686,-0.25956,0.34706
-0,0,0,5,5,5,5,0.993465,-0.0119828,74.0036,0.0659768,-0.0729804,-0.00144088,0,0,0,3.395,0.035,-1.8375,0.025742,-0.07808,-1.01394,-0.14686,-0.25956,0.34706
-0,0,0,5,5,5,5,1.11463,0.0665884,73.9314,0.0646055,-0.0708661,-0.00148044,0,0,0,2.9925,0.7525,-1.9425,0.025742,-0.07808,-1.01394,-0.14686,-0.25956,0.34706
-0,0,0,5,5,5,5,1.10379,-0.0341636,73.9405,-0.0984922,-0.00437399,0.00233512,0,0,0,3.3425,0.56,-2.0825,-0.139812,-0.011468,-1.01016,-0.14686,-0.25956,0.34706
-0,0,0,5,5,5,5,1.09393,-0.13294,73.9495,-0.0967682,-0.004546,0.00233591,0,0,0,3.5525,0.6475,-2.065,-0.139812,-0.011468,-1.01016,-0.14686,-0.25956,0.34706
-0,0,0,5,5,5,5,1.20662,0.021984,73.8721,0.145807,-0.0575367,-0.0232742,0,0,0,4.06,0.6825,-1.9075,0.106506,-0.066368,-1.03554,-0.14686,-0.25956,0.34706
-0,0,0,5,5,5,5,1.31489,0.173633,73.7955,0.143161,-0.0556475,-0.0233203,0,0,0,3.4825,0.49,-1.9775,0.106506,-0.066368,-1.03554,-0.14686,-0.25956,0.34706
-0,0,0,5,5,5,5,1.53362,0.250311,73.6783,0.0488859,-0.124985,0.0615372,0,0,0,3.78,0.735,-1.8725,0.013176,-0.139446,-0.951234,-0.14686,-0.25956,0.34706
-0,0,0,5,5,5,5,1.74651,0.324737,73.5625,0.0475869,-0.121271,0.0614244,0,0,0,3.9025,0.4725,-1.89,0.013176,-0.139446,-0.951234,-0.14686,-0.25956,0.34706
-0,0,0,5,5,5,5,1.865,0.25476,73.5023,-0.089564,-0.0969771,-0.0871564,0,0,0,2.9925,0.525,-1.75,-0.125782,-0.117242,-1.09861,-0.1519,-0.26558,0.34258
-0,0,0,5,5,5,5,1.98156,0.186187,73.4426,-0.0883672,-0.0949438,-0.0872201,0,0,0,3.5875,0.805,-1.855,-0.125782,-0.117242,-1.09861,-0.1519,-0.26558,0.34258
-0,0,0,5,5,5,5,1.96257,0.232071,73.4278,0.0472604,0.0169594,-0.0134425,0,0,0,2.9575,0.9275,-1.6275,0.011224,-0.005124,-1.02541,-0.1519,-0.26558,0.34258
-0,0,0,5,5,5,5,1.9447,0.277146,73.4135,0.0464737,0.0166475,-0.0134353,0,0,0,3.3775,0.91,-1.4,0.011224,-0.005124,-1.02541,-0.1519,-0.26558,0.34258
-0,0,0,5,5,5,5,2.04335,0.180527,73.3665,-0.115238,-0.0849507,-0.0731185,0,0,0,3.395,0.7875,-0.9975,-0.152866,-0.108336,-1.08458,-0.1519,-0.26558,0.34258
-0,0,0,5,5,5,5,2.1394,0.0844303,73.3204,-0.113561,-0.0832754,-0.0731758,0,0,0,3.255,0.2625,-0.77,-0.152866,-0.108336,-1.08458,-0.1519,-0.26558,0.34258
-0,0,0,5,5,5,5,2.15514,-0.0700313,73.317,-0.167963,-0.0352493,-0.0843741,0,0,0,3.36,-0.035,-0.5425,-0.210206,-0.060634,-1.09568,-0.1519,-0.26558,0.34258
-0,0,0,5,5,5,5,2.17061,-0.22056,73.3141,-0.165336,-0.0349797,-0.084391,0,0,0,3.15,0.7,-0.2975,-0.210206,-0.060634,-1.09568,-0.1519,-0.26558,0.34258
0,0,0,5,5,5,5,2.0888,-0.44159,73.3683,-0.224287,0.0262436,-0.0498116,0,0,0,3.08,0.3325,-0.4375,-0.27328,0.001952,-1.0614,-0.1484,-0.26474,0.34776
0,0,0,5,5,5,5,1.92917,-0.160126,73.3948,0.293675,0.137282,0.0565393,0,0,0,3.0275,0.4375,-0.49,0.251808,0.115656,-0.955992,-0.1484,-0.26474,0.34776
0,0,0,5,5,5,5,1.77297,0.116893,73.4207,0.28884,0.134558,0.0566292,0,0,0,3.2025,0.3675,-0.4375,0.251808,0.115656,-0.955992,-0.1484,-0.26474,0.34776
0,0,0,5,5,5,5,1.60396,0.314466,73.4618,0.202417,0.127212,0.0787109,0,0,0,2.31,0.525,-0.385,0.168482,0.111264,-0.934154,-0.1484,-0.26474,0.34776
0,0,0,5,5,5,5,1.43937,0.509839,73.5024,0.199008,0.12434,0.0787627,0,0,0,2.73,0.9625,-0.2975,0.168482,0.111264,-0.934154,-0.1484,-0.26474,0.34776
0,0,0,5,5,5,5,1.22764,0.490723,73.5925,0.00265593,0.126508,0.0831548,0,0,0,3.045,0.8575,-0.35,-0.029036,0.11712,-0.929884,-0.1484,-0.26474,0.34776
0,0,0,5,5,5,5,1.02137,0.471647,73.6816,0.00298887,0.122909,0.0832282,0,0,0,2.975,0.2625,-0.525,-0.029036,0.11712,-0.929884,-0.1484,-0.26474,0.34776
-0,0,0,5,5,5,5,1.02203,0.471664,73.6831,0.101635,0.0546514,0.152202,1,0,0,3.85,0.6125,-0.42,0.070028,0.048922,-0.861442,-0.1484,-0.26474,0.34776
-0,0,0,5,5,5,5,1.02271,0.471517,73.6836,0.101638,0.0546633,0.152202,1,0,0,3.8675,0.5075,-0.9275,0.070028,0.048922,-0.861442,-0.14448,-0.2681,0.34048
-0,0,0,5,5,5,5,1.06957,0.532451,73.6575,0.054045,-0.0237794,0.0143524,0,0,0,3.0275,0.7875,-1.015,0.023302,-0.030256,-0.998204,-0.14448,-0.2681,0.34048
-0,0,0,5,5,5,5,1.11576,0.592667,73.6313,0.0529941,-0.0229736,0.0143267,0,0,0,3.4475,1.0675,-1.2075,0.023302,-0.030256,-0.998204,-0.14448,-0.2681,0.34048
0,0,0,5,5,5,5,0.954359,0.78533,73.677,0.21546,0.129555,0.000443994,0,0,0,3.255,0.49,-1.4525,0.189832,0.124928,-1.01199,-0.14448,-0.2681,0.34048
0,0,0,5,5,5,5,0.796618,0.975066,73.7215,0.212149,0.126801,0.00043519,0,0,0,3.3425,0.455,-1.68,0.189832,0.124928,-1.01199,-0.14448,-0.2681,0.34048
-0,0,0,5,5,5,5,0.881875,0.943394,73.6909,-0.0425401,-0.063572,-0.0689203,0,0,0,3.9375,0.63,-1.8375,-0.06649,-0.066734,-1.0808,-0.14448,-0.2681,0.34048
-0,0,0,5,5,5,5,0.963784,0.911939,73.6596,-0.0419912,-0.0621427,-0.0689344,0,0,0,3.3075,0.56,-2.3625,-0.06649,-0.066734,-1.0808,-0.14448,-0.2681,0.34048
-0,0,0,5,5,5,5,1.16981,0.908142,73.5699,-0.0274682,-0.147456,-0.0702298,0,0,0,3.2025,0.49,-2.38,-0.051972,-0.15555,-1.08202,-0.14448,-0.2681,0.34048
-0,0,0,5,5,5,5,1.37141,0.903743,73.477,-0.0273914,-0.143939,-0.0703066,0,0,0,4.0425,0.455,-2.275,-0.051972,-0.15555,-1.08202,-0.147,-0.26558,0.34006
-0,0,0,5,5,5,5,1.49212,0.912669,73.4155,-0.00385744,-0.0810139,-0.0284363,0,0,0,3.57,0.3675,-2.4325,-0.028182,-0.094794,-1.04042,-0.147,-0.26558,0.34006
-0,0,0,5,5,5,5,1.60966,0.921647,73.3544,-0.00401411,-0.0789636,-0.0284943,0,0,0,3.6225,0.665,-2.66,-0.028182,-0.094794,-1.04042,-0.147,-0.26558,0.34006
-0,0,0,5,5,5,5,1.693,0.809332,73.3234,-0.130221,-0.0750664,-0.0738746,0,0,0,3.815,0.8925,-2.625,-0.156892,-0.092354,-1.08543,-0.147,-0.26558,0.34006
-0,0,0,5,5,5,5,1.77323,0.698088,73.2931,-0.12828,-0.073666,-0.0738914,0,0,0,3.1325,0.5075,-2.4325,-0.156892,-0.092354,-1.08543,-0.147,-0.26558,0.34006
-0,0,0,5,5,5,5,1.84472,0.65386,73.2574,-0.0544953,-0.0580078,-0.0634711,0,0,0,3.01,0.455,-2.415,-0.08357,-0.077958,-1.07506,-0.147,-0.26558,0.34006
-0,0,0,5,5,5,5,1.91578,0.610311,73.2228,-0.0537353,-0.0567681,-0.0635034,0,0,0,3.7625,0.525,-2.0125,-0.08357,-0.077958,-1.07506,-0.147,-0.26558,0.34006
0,0,0,5,5,5,5,1.79927,0.342554,73.2995,-0.27539,0.0468404,-0.060202,0,0,0,3.6575,0.5425,-1.855,-0.310856,0.027572,-1.07189,-0.147,-0.26558,0.34006
0,0,0,5,5,5,5,1.6877,0.0805369,73.3784,-0.270817,0.0448947,-0.0601259,0,0,0,3.7625,0.805,-1.225,-0.310856,0.027572,-1.07189,-0.14644,-0.26726,0.34706
-0,0,0,5,5,5,5,1.68778,-0.174696,73.4084,-0.263325,-0.0300899,-0.00258966,0,0,0,3.92,0.77,-1.19,-0.307806,-0.047336,-1.0148,-0.14644,-0.26726,0.34706
-0,0,0,5,5,5,5,1.68784,-0.425499,73.4386,-0.258948,-0.0300895,-0.00261261,0,0,0,3.4475,0.7875,-0.77,-0.307806,-0.047336,-1.0148,-0.14644,-0.26726,0.34706
-0,0,0,5,5,5,5,1.6876,-0.425397,73.4397,-0.0587413,-0.0613581,0.112344,1,0,0,3.36,0.665,-0.6475,-0.10675,-0.078568,-0.900726,-0.14644,-0.26726,0.34706
-0,0,0,5,5,5,5,1.68777,-0.424828,73.4411,-0.0587512,-0.0613552,0.112344,1,0,0,3.5875,0.945,-0.455,-0.10675,-0.078568,-0.900726,-0.14644,-0.26726,0.34706
0,0,0,5,5,5,5,1.36816,-0.477108,73.5892,-0.0148329,0.189535,0.0792898,0,0,0,2.87,0.665,-0.42,-0.063562,0.177632,-0.933666,-0.14644,-0.26726,0.34706
0,0,0,5,5,5,5,1.05801,-0.526971,73.7365,-0.0139626,0.184123,0.0793968,0,0,0,3.465,0.84,-0.1925,-0.063562,0.177632,-0.933666,-0.14644,-0.26726,0.34706
0,0,0,5,5,5,5,0.86535,-0.633103,73.8408,-0.0871885,0.115667,-0.0183096,0,0,0,3.36,0.7,-0.28,-0.138958,0.112606,-1.03066,-0.14644,-0.26726,0.34706
0,0,0,5,5,5,5,0.678599,-0.73667,73.9441,-0.0853811,0.112408,-0.0182873,0,0,0,3.3075,0.595,-0.1925,-0.138958,0.112606,-1.03066,-0.14504,-0.26208,0.34748
0,0,0,5,5,5,5,0.581435,-0.631391,73.9812,0.112383,0.0723647,0.037449,0,0,0,3.605,0.6825,-0.175,0.061488,0.074298,-0.97539,-0.14504,-0.26208,0.34748
0,0,0,5,5,5,5,0.486799,-0.527132,74.0183,0.110563,0.0707133,0.0374828,0,0,0,3.7625,0.9975,0.035,0.061488,0.074298,-0.97539,-0.14504,-0.26208,0.34748
-0,0,0,5,5,5,5,0.487268,-0.527047,74.0203,-0.016391,0.0629054,0.126743,1,0,0,3.7625,0.6475,-0.07,-0.066002,0.06649,-0.886818,-0.14504,-0.26208,0.34748
-0,0,0,5,5,5,5,0.487992,-0.527076,74.0217,-0.0163905,0.0629181,0.126743,1,0,0,3.9025,0.5775,-0.4375,-0.066002,0.06649,-0.886818,-0.14504,-0.26208,0.34748
0,0,0,5,5,5,5,0.351441,-0.355851,74.068,0.187754,0.108042,0.00912198,0,0,0,3.535,0.8225,-0.525,0.142008,0.113948,-1.00357,-0.14504,-0.26208,0.34748
0,0,0,5,5,5,5,0.21776,-0.187213,74.1131,0.184811,0.105709,0.00914752,0,0,0,3.4475,0.805,-0.875,0.142008,0.113948,-1.00357,-0.14504,-0.26208,0.34748
0,0,0,5,5,5,5,0.198443,-0.0718647,74.1136,0.113308,0.0237916,0.038415,0,0,0,3.4825,0.805,-1.0325,0.072224,0.032452,-0.974536,-0.14504,-0.26208,0.34748
0,0,0,5,5,5,5,0.178901,0.0414684,74.1137,0.11133,0.0234505,0.0384167,0,0,0,3.2375,0.77,-1.2775,0.072224,0.032452,-0.974536,-0.14504,-0.26208,0.34748
-0,0,0,5,5,5,5,0.309187,-0.0718389,74.0812,-0.130757,-0.0983564,-0.0149532,0,0,0,3.64,0.3325,-1.68,-0.172874,-0.0915,-1.02748,-0.14322,-0.26838,0.33838
0,0,0,5,5,5,5,0.298882,0.158489,74.0648,0.210485,0.0287198,0.116477,0,0,0,4.0775,0.4725,-1.9775,0.17385,0.035624,-0.897066,-0.14322,-0.26838,0.33838
0,0,0,5,5,5,5,0.287699,0.38452,74.0476,0.20654,0.0285245,0.116459,0,0,0,3.745,0.2275,-2.415,0.17385,0.035624,-0.897066,-0.14322,-0.26838,0.33838
0,0,0,5,5,5,5,0.158847,0.312701,74.1209,-0.0548584,0.0725618,0.0534028,0,0,0,3.4125,0.28,-2.5375,-0.089914,0.081862,-0.959652,-0.14322,-0.26838,0.33838
0,0,0,5,5,5,5,0.0345617,0.243373,74.1932,-0.0536484,0.0703926,0.0534123,0,0,0,3.9375,0.7525,-2.7475,-0.089914,0.081862,-0.959652,-0.14322,-0.26838,0.33838
0,0,0,5,5,5,5,-0.0177532,0.231217,74.2269,-0.00642131,0.0316203,0.035217,0,0,0,3.57,0.5775,-2.695,-0.0427,0.044042,-0.977708,-0.14322,-0.26838,0.33838
0,0,0,5,5,5,5,-0.069075,0.219281,74.2607,-0.006213,0.0307245,0.0352171,0,0,0,3.325,0.49,-2.4675,-0.0427,0.044042,-0.977708,-0.14322,-0.26838,0.33838
0,0,0,5,5,5,5,-0.263578,0.253111,74.3524,0.0574625,0.137,-0.0444658,0,0,0,3.64,0.875,-2.4325,0.021838,0.153598,-1.05676,-0.14322,-0.26838,0.33838
0,0,0,5,5,5,5,-0.45214,0.286686,74.438,0.0568765,0.133709,-0.0444891,0,0,0,3.535,0.525,-2.24,0.021838,0.153598,-1.05676,-0.14742,-0.26628,0.34664
0,0,0,5,5,5,5,-0.451535,0.286419,74.4367,0.143379,0.0809606,0.159851,1,0,0,3.8325,0.4375,-2.0825,0.108702,0.100894,-0.854,-0.14742,-0.26628,0.34664
0,0,0,5,5,5,5,-0.449618,0.286363,74.4354,0.14338,0.0809941,0.159852,1,0,0,4.5675,0.56,-2.0125,0.108702,0.100894,-0.854,-0.14742,-0.26628,0.34664
0,0,0,5,5,5,5,-0.610348,0.360774,74.5056,0.0854689,0.104813,0.0746151,0,0,0,3.9025,0.5425,-1.7675,0.05185,0.12749,-0.938546,-0.14742,-0.26628,0.34664
0,0,0,5,5,5,5,-0.767539,0.43476,74.5755,0.0841777,0.10207,0.0745731,0,0,0,3.675,0.77,-1.505,0.05185,0.12749,-0.938546,-0.14742,-0.26628,0.34664
-0,0,0,5,5,5,5,-0.695379,0.123728,74.5937,-0.29684,-0.0729004,0.1265,0,0,0,3.78,1.0675,-1.365,-0.336232,-0.048556,-0.887062,-0.14742,-0.26628,0.34664
-0,0,0,5,5,5,5,-0.625867,-0.183522,74.6116,-0.291477,-0.0716872,0.126511,0,0,0,2.8875,0.385,-1.19,-0.336232,-0.048556,-0.887062,-0.14742,-0.26628,0.34664
-0,0,0,5,5,5,5,-0.364939,-0.0855051,74.4916,0.0727268,-0.164224,-0.0109019,0,0,0,3.2025,0.4375,-0.8925,0.031232,-0.145546,-1.02346,-0.14742,-0.26628,0.34664
-0,0,0,5,5,5,5,-0.109845,0.0110253,74.3653,0.0710421,-0.159772,-0.0108824,0,0,0,3.4825,0.7,-0.63,0.031232,-0.145546,-1.02346,-0.15484,-0.26726,0.34538
0,0,0,5,5,5,5,-0.110544,0.0108321,74.3667,-0.158198,0.0557695,-0.0895694,1,0,0,3.0975,0.4725,-0.455,-0.198982,0.069784,-1.10154,-0.15484,-0.26726,0.34538
0,0,0,5,5,5,5,-0.109962,0.0107882,74.3681,-0.158197,0.0557797,-0.0895694,1,0,0,3.815,0.56,-0.455,-0.198982,0.069784,-1.10154,-0.15484,-0.26726,0.34538
-0,0,0,5,5,5,5,-0.0778939,0.0610113,74.3462,0.0474518,-0.0149827,-0.00620997,0,0,0,3.955,0.525,-0.4025,0.008418,-0.001464,-1.01882,-0.15484,-0.26726,0.34538
-0,0,0,5,5,5,5,-0.0483722,0.109557,74.3247,0.0466046,-0.0144674,-0.00621067,0,0,0,3.08,0.105,-0.315,0.008418,-0.001464,-1.01882,-0.15484,-0.26726,0.34538
0,0,0,5,5,5,5,-0.0757349,0.157672,74.3285,0.0529324,0.0231586,-0.0319094,0,0,0,2.8525,0.525,-0.2275,0.015616,0.0366,-1.04432,-0.15484,-0.26726,0.34538
0,0,0,5,5,5,5,-0.101418,0.205558,74.3321,0.0520967,0.0227103,-0.0319127,0,0,0,3.465,0.84,-0.3325,0.015616,0.0366,-1.04432,-0.15484,-0.26726,0.34538
-0,0,0,5,5,5,5,-0.0910665,0.275732,74.3165,0.0706741,0.00017543,-0.0209751,0,0,0,2.8875,0.7,-0.2625,0.035502,0.013908,-1.03346,-0.15484,-0.26726,0.34538
-0,0,0,5,5,5,5,-0.0816073,0.344234,74.3083,0.0694785,0.000340532,-0.0209814,0,0,0,2.94,0.5425,-0.3675,0.035502,0.013908,-1.03346,-0.14742,-0.2632,0.3416
0,0,0,5,5,5,5,-0.0816424,0.344757,74.3097,0.279275,0.0672654,-0.0739722,1,0,0,3.465,0.8925,-0.49,0.246196,0.080764,-1.08604,-0.14742,-0.2632,0.3416
0,0,0,5,5,5,5,-0.0815866,0.34516,74.3106,0.279268,0.0672663,-0.0739723,1,0,0,3.5175,0.8225,-0.7525,0.246196,0.080764,-1.08604,-0.14742,-0.2632,0.3416
0,0,0,5,5,5,5,-0.310462,0.475075,74.4,0.151263,0.160485,0.0430448,0,0,0,3.465,1.015,-0.91,0.119926,0.177876,-0.9699,-0.14742,-0.2632,0.3416
0,0,0,5,5,5,5,-0.534699,0.602542,74.4879,0.149038,0.156572,0.042995,0,0,0,3.0625,0.49,-1.2775,0.119926,0.177876,-0.9699,-0.14742,-0.2632,0.3416
-0,0,0,5,5,5,5,-0.224055,0.818301,74.327,0.183177,-0.181549,0.0410171,0,0,0,3.2725,0.1925,-1.61,0.15799,-0.16531,-0.971852,-0.14742,-0.2632,0.3416
-0,0,0,5,5,5,5,0.0783859,1.03031,74.168,0.179477,-0.176271,0.0409641,0,0,0,3.3425,0.3675,-1.75,0.15799,-0.16531,-0.971852,-0.14742,-0.2632,0.3416
0,0,0,5,5,5,5,0.0605275,0.996913,74.1794,-0.0309611,0.0070955,0.0383928,0,0,0,2.7475,0.42,-1.7675,-0.053924,0.018178,-0.974414,-0.14742,-0.2632,0.3416
0,0,0,5,5,5,5,0.0447935,0.964465,74.1937,-0.0303948,0.00682094,0.0384028,0,0,0,3.535,0.5775,-2.1525,-0.053924,0.018178,-0.974414,-0.14588,-0.26614,0.35112
-0,0,0,5,5,5,5,0.0617838,0.86262,74.2026,-0.110013,-0.0230478,-0.0602968,0,0,0,3.605,0.56,-2.24,-0.135664,-0.011956,-1.07238,-0.14588,-0.26614,0.35112
-0,0,0,5,5,5,5,0.077922,0.762379,74.2118,-0.108264,-0.0227662,-0.0602723,0,0,0,3.22,0.49,-2.065,-0.135664,-0.011956,-1.07238,-0.14588,-0.26614,0.35112
-0,0,0,5,5,5,5,0.0780784,0.761886,74.2103,-0.324499,-0.186291,-0.0435512,1,0,0,3.5875,0.2975,-2.1,-0.352824,-0.175314,-1.05579,-0.14588,-0.26614,0.35112
-0,0,0,5,5,5,5,0.0784233,0.761811,74.209,-0.324498,-0.186285,-0.0435512,1,0,0,3.6925,0.5425,-2.0475,-0.352824,-0.175314,-1.05579,-0.14588,-0.26614,0.35112
-0,0,0,5,5,5,5,0.0785809,0.761348,74.2077,-0.221106,-0.0940767,-0.158262,1,0,0,3.5875,0.315,-2.0475,-0.249002,-0.083204,-1.16961,-0.14588,-0.26614,0.35112
-0,0,0,5,5,5,5,0.0793909,0.761334,74.2061,-0.221106,-0.0940626,-0.158262,1,0,0,3.955,0.5775,-2.1875,-0.249002,-0.083204,-1.16961,-0.14588,-0.26614,0.35112
-0,0,0,5,5,5,5,0.0798934,0.761438,74.2049,-0.0827351,-0.082696,-0.11523,1,0,0,3.78,0.6475,-1.9775,-0.110044,-0.071858,-1.12691,-0.14588,-0.26614,0.35112
-0,0,0,5,5,5,5,0.0794348,0.761482,74.2042,-0.0827359,-0.082704,-0.11523,1,0,0,3.2375,0.6125,-1.6975,-0.110044,-0.071858,-1.12691,-0.14476,-0.26782,0.35112
0,0,0,5,5,5,5,-0.0807173,0.917105,74.2612,0.175014,0.122727,0.0151784,0,0,0,3.5175,0.875,-1.4175,0.151524,0.136152,-0.997472,-0.14476,-0.26782,0.35112
0,0,0,5,5,5,5,-0.237274,1.06958,74.3179,0.172353,0.119995,0.0151247,0,0,0,3.5175,0.3325,-1.1725,0.151524,0.136152,-0.997472,-0.14476,-0.26782,0.35112
0,0,0,5,5,5,5,-0.371595,1.13373,74.3781,0.0699142,0.0860207,0.0996793,0,0,0,3.64,0.5075,-0.945,0.049776,0.104554,-0.913536,-0.14476,-0.26782,0.35112
-0,0,0,5,5,5,5,-0.232606,1.07556,74.3342,-0.0749749,-0.100362,-0.0258188,0,0,0,3.5875,0.42,-0.875,-0.096746,-0.084058,-1.0381,-0.14476,-0.26782,0.35112
-0,0,0,5,5,5,5,-0.0971581,1.01802,74.2907,-0.0739709,-0.0979984,-0.0257936,0,0,0,3.5875,0.42,-0.875,-0.096746,-0.084058,-1.0381,-0.14476,-0.26782,0.35112
0,0,0,5,5,5,5,-0.156331,1.02129,74.3132,0.00700297,0.0355527,0.0882993,0,0,0,3.325,0.665,-0.77,-0.015372,0.050386,-0.924882,-0.15288,-0.26614,0.34412
0,0,0,5,5,5,5,-0.184988,0.951166,74.3318,-0.0633283,0.00989441,0.0853681,0,0,0,3.3075,0.56,-0.875,-0.08723,0.025254,-0.92781,-0.15288,-0.26614,0.34412
0,0,0,5,5,5,5,-0.212463,0.882645,74.3505,-0.0621326,0.00941487,0.0853856,0,0,0,3.43,0.735,-0.7175,-0.08723,0.025254,-0.92781,-0.15288,-0.26614,0.34412
0,0,0,5,5,5,5,-0.359853,0.849453,74.4179,-0.0178185,0.0846374,0.0890699,0,0,0,3.0275,0.595,-0.6825,-0.04331,0.102968,-0.92415,-0.15288,-0.26614,0.34412
0,0,0,5,5,5,5,-0.503094,0.817322,74.4847,-0.0172577,0.0821377,0.0890593,0,0,0,3.15,0.6125,-0.7175,-0.04331,0.102968,-0.92415,-0.15288,-0.26614,0.34412
-0,0,0,5,5,5,5,-0.419257,0.569202,74.4794,-0.243021,-0.0765078,0.100681,0,0,0,3.64,0.84,-0.7875,-0.274378,-0.056974,-0.912682,-0.15288,-0.26614,0.34412
-0,0,0,5,5,5,5,-0.337063,0.324614,74.4731,-0.238753,-0.0750735,0.100723,0,0,0,3.57,0.6125,-1.3125,-0.274378,-0.056974,-0.912682,-0.15288,-0.26614,0.34412
0,0,0,5,5,5,5,-0.338196,0.324839,74.4735,0.0208583,-0.148003,0.116092,1,0,0,2.8525,0.7175,-1.0325,-0.013664,-0.129808,-0.897432,-0.15288,-0.26614,0.34412
0,0,0,5,5,5,5,-0.337739,0.325241,74.4736,0.0208513,-0.147995,0.116092,1,0,0,3.745,0.8225,-1.1725,-0.013664,-0.129808,-0.897432,-0.15134,-0.26586,0.3493
0,0,0,5,5,5,5,-0.579297,0.0973926,74.6129,-0.216564,0.142115,-0.0224902,0,0,0,2.9575,0.6125,-1.1725,-0.256078,0.164212,-1.03493,-0.15134,-0.26586,0.3493
0,0,0,5,5,5,5,-0.813296,-0.125594,74.7506,-0.212672,0.138031,-0.0225408,0,0,0,3.3075,0.665,-1.505,-0.256078,0.164212,-1.03493,-0.15134,-0.26586,0.3493
0,0,0,5,5,5,5,-1.04677,-0.210244,74.8734,-0.0606741,0.142261,0.0295189,0,0,0,3.9025,0.735,-1.505,-0.10492,0.172508,-0.983198,-0.15134,-0.26586,0.3493
0,0,0,5,5,5,5,-1.27536,-0.292781,74.9953,-0.0592336,0.138272,0.0294317,0,0,0,3.115,0.6475,-1.4875,-0.10492,0.172508,-0.983198,-0.15134,-0.26586,0.3493
0,0,0,5,5,5,5,-1.27512,-0.293409,74.9947,0.320785,0.0488799,0.169224,1,0,0,3.6225,0.2275,-1.6275,0.276696,0.083204,-0.844484,-0.15134,-0.26586,0.3493
0,0,0,5,5,5,5,-1.27507,-0.293013,74.9944,0.320778,0.0488808,0.169224,1,0,0,3.5175,0.8225,-1.4175,0.276696,0.083204,-0.844484,-0.15134,-0.26586,0.3493
0,0,0,5,5,5,5,-1.27502,-0.29274,74.994,0.2723,0.0951677,0.151766,1,0,0,3.5175,0.7525,-1.505,0.228018,0.129442,-0.861808,-0.15134,-0.26586,0.3493
0,0,0,5,5,5,5,-1.275,-0.292582,74.9938,0.272297,0.0951681,0.151766,1,0,0,3.5,0.6825,-1.4,0.228018,0.129442,-0.861808,-0.14504,-0.26824,0.34062
0,0,0,5,5,5,5,-1.2752,-0.292002,74.9938,0.157969,0.106156,0.221969,1,0,0,3.3775,0.9275,-1.2775,0.113216,0.140422,-0.792146,-0.14504,-0.26824,0.34062
0,0,0,5,5,5,5,-1.27502,-0.29236,74.9932,0.157975,0.106159,0.221969,1,0,0,3.5875,0.385,-1.5925,0.113216,0.140422,-0.792146,-0.14504,-0.26824,0.34062
-0,0,0,5,5,5,5,-1.12804,-0.185873,74.9316,0.0952526,-0.0880226,-0.0274317,0,0,0,3.675,0.8925,-1.26,0.052094,-0.05612,-1.03968,-0.14504,-0.26824,0.34062
-0,0,0,5,5,5,5,-0.985223,-0.0817311,74.8707,0.093435,-0.0855304,-0.0273815,0,0,0,3.64,0.77,-1.295,0.052094,-0.05612,-1.03968,-0.14504,-0.26824,0.34062
0,0,0,5,5,5,5,-0.985984,-0.081834,74.8708,0.11008,0.0121577,0.125566,1,0,0,3.0625,0.525,-1.155,0.068808,0.04148,-0.887916,-0.14504,-0.26824,0.34062
0,0,0,5,5,5,5,-0.986745,-0.0819369,74.871,0.110082,0.0121444,0.125566,1,0,0,3.0625,0.525,-1.155,0.068808,0.04148,-0.887916,-0.14504,-0.26824,0.34062
0,0,0,5,5,5,5,-0.985665,-0.0815275,74.8715,-0.0660792,0.0308486,0.128025,1,0,0,4.095,0.8225,-0.9975,-0.108092,0.060146,-0.885476,-0.14504,-0.26824,0.34062
0,0,0,5,5,5,5,-0.984585,-0.081118,74.872,-0.0660864,0.0308675,0.128026,1,0,0,4.095,0.8225,-0.9975,-0.108092,0.060146,-0.885476,-0.14504,-0.26824,0.34062
0,0,0,5,5,5,5,-0.983225,-0.0809459,74.8725,-0.0235694,0.0889014,0.158025,1,0,0,4.2525,0.6825,-0.945,-0.065392,0.118096,-0.855708,-0.14406,-0.26656,0.35084
0,0,0,5,5,5,5,-1.00207,0.0184119,74.8846,0.104322,0.0218914,-0.0079598,0,0,0,3.3425,0.63,-0.945,0.064782,0.051484,-1.02041,-0.14406,-0.26656,0.35084
0,0,0,5,5,5,5,-1.02021,0.115935,74.8963,0.10262,0.0215748,-0.00796738,0,0,0,3.5875,0.525,-1.0675,0.064782,0.051484,-1.02041,-0.14406,-0.26656,0.35084
0,0,0,5,5,5,5,-1.06945,0.010558,74.9487,-0.110571,0.025967,-0.0746191,0,0,0,3.6925,0.7175,-1.085,-0.151158,0.05673,-1.08653,-0.14406,-0.26656,0.35084
0,0,0,5,5,5,5,-1.11706,-0.0935147,75.0003,-0.108754,0.0251363,-0.0746363,0,0,0,3.7275,0.3325,-1.225,-0.151158,0.05673,-1.08653,-0.14406,-0.26656,0.35084
0,0,0,5,5,5,5,-1.1668,0.0164345,75.0255,0.114561,0.0417324,0.0348948,0,0,0,4.1125,0.315,-1.225,0.07503,0.074176,-0.97783,-0.14406,-0.26656,0.35084
0,0,0,5,5,5,5,-1.21501,0.125055,75.0505,0.112665,0.0408911,0.034875,0,0,0,4.3925,0.56,-1.225,0.07503,0.074176,-0.97783,-0.14406,-0.26656,0.35084
0,0,0,5,5,5,5,-1.21362,0.124677,75.0503,-0.0774533,0.136419,0.152537,1,0,0,4.27,0.3675,-1.3475,-0.1159,0.16958,-0.861076,-0.14406,-0.26656,0.35084
0,0,0,5,5,5,5,-1.21301,0.1251,75.0499,-0.0774606,0.136429,0.152537,1,0,0,3.8325,0.84,-1.505,-0.1159,0.16958,-0.861076,-0.14714,-0.26544,0.35252
-0,0,0,5,5,5,5,-1.17757,0.14629,75.0429,0.0187506,-0.0211066,-0.0618727,0,0,0,3.745,0.8575,-1.5575,-0.01891,0.01159,-1.07384,-0.14714,-0.26544,0.35252
-0,0,0,5,5,5,5,-1.14424,0.166126,75.0358,0.0184044,-0.020525,-0.0618619,0,0,0,3.115,0.3325,-1.715,-0.01891,0.01159,-1.07384,-0.14714,-0.26544,0.35252
0,0,0,5,5,5,5,-1.14927,0.2202,75.0412,0.0616815,0.0105297,-0.0926039,0,0,0,3.01,0.2975,-1.7325,0.025498,0.0427,-1.10434,-0.14714,-0.26544,0.35252
0,0,0,5,5,5,5,-1.1537,0.273984,75.0464,0.0607428,0.0104524,-0.0926095,0,0,0,3.3425,0.665,-1.785,0.025498,0.0427,-1.10434,-0.14714,-0.26544,0.35252
0,0,0,5,5,5,5,-1.15413,0.273947,75.0454,0.195228,0.0120327,-0.165026,1,0,0,3.255,0.5775,-1.855,0.160552,0.044286,-1.1762,-0.14714,-0.26544,0.35252
0,0,0,5,5,5,5,-1.15439,0.274208,75.0444,0.195224,0.012028,-0.165026,1,0,0,3.3425,0.7525,-1.89,0.160552,0.044286,-1.1762,-0.14714,-0.26544,0.35252
0,0,0,5,5,5,5,-1.12587,0.595981,74.9995,0.326036,0.0105726,0.0526826,0,0,0,3.4475,0.8225,-1.8025,0.297558,0.042334,-0.96014,-0.14714,-0.26544,0.35252
0,0,0,5,5,5,5,-1.09825,0.911537,74.9553,0.320529,0.0110558,0.0526195,0,0,0,3.6575,0.245,-1.54,0.297558,0.042334,-0.96014,-0.14574,-0.26208,0.34748
0,0,0,5,5,5,5,-1.16042,0.960119,74.9856,0.0538706,0.0439226,0.0359862,0,0,0,3.605,0.385,-1.61,0.030622,0.07625,-0.97661,-0.14574,-0.26208,0.34748
0,0,0,5,5,5,5,-1.2213,1.00878,75.0158,0.0530214,0.0428608,0.0359496,0,0,0,3.5,0.8225,-1.5225,0.030622,0.07625,-0.97661,-0.14574,-0.26208,0.34748
-0,0,0,5,5,5,5,-1.00297,1.15262,74.908,0.131178,-0.138962,-0.0384077,0,0,0,2.975,0.9275,-1.4175,0.11163,-0.10919,-1.05042,-0.14574,-0.26208,0.34748
-0,0,0,5,5,5,5,-0.79005,1.29354,74.8018,0.128719,-0.135246,-0.038402,0,0,0,3.22,0.8575,-1.295,0.11163,-0.10919,-1.05042,-0.14574,-0.26208,0.34748
0,0,0,5,5,5,5,-0.783295,1.36344,74.7956,0.0606822,0.000554973,0.0986589,0,0,0,3.3075,1.05,-1.085,0.04453,0.026352,-0.91439,-0.14574,-0.26208,0.34748
0,0,0,5,5,5,5,-0.776336,1.43119,74.79,0.0595,0.000676779,0.0986317,0,0,0,3.605,0.5075,-0.805,0.04453,0.026352,-0.91439,-0.14574,-0.26208,0.34748
0,0,0,5,5,5,5,-0.82811,1.46502,74.8151,0.040687,0.0393428,-0.0216395,0,0,0,3.6575,0.945,-0.6475,0.02623,0.06588,-1.03371,-0.14574,-0.26208,0.34748
0,0,0,5,5,5,5,-0.879254,1.49847,74.8376,0.0401033,0.0384508,-0.0216679,0,0,0,3.2725,0.98,-0.4725,0.02623,0.06588,-1.03371,-0.14952,-0.26684,0.3514
-0,0,0,5,5,5,5,-0.624398,1.56323,74.7205,0.0399453,-0.167161,-0.00454989,0,0,0,3.185,0.805,-0.4725,0.027206,-0.14396,-1.01675,-0.14952,-0.26684,0.3514
-0,0,0,5,5,5,5,-0.376943,1.62653,74.605,0.038841,-0.162843,-0.00454291,0,0,0,2.8,0.875,-0.35,0.027206,-0.14396,-1.01675,-0.14952,-0.26684,0.3514
-0,0,0,5,5,5,5,-0.0132915,1.69774,74.4356,0.0365052,-0.252735,-0.0344338,0,0,0,2.94,1.05,-0.3675,0.026108,-0.240096,-1.04639,-0.14952,-0.26684,0.3514
-0,0,0,5,5,5,5,0.341549,1.76626,74.2682,0.0353099,-0.246545,-0.0344877,0,0,0,3.3075,0.525,-0.455,0.026108,-0.240096,-1.04639,-0.14952,-0.26684,0.3514
-0,0,0,5,5,5,5,0.430896,1.66219,74.2372,-0.121899,-0.0769393,-0.0606319,0,0,0,3.3775,0.9625,-0.3325,-0.13359,-0.072224,-1.07238,-0.14952,-0.26684,0.3514
-0,0,0,5,5,5,5,0.518054,1.55944,74.2061,-0.120107,-0.0754184,-0.0605941,0,0,0,3.3075,0.8225,-0.5075,-0.13359,-0.072224,-1.07238,-0.14952,-0.26684,0.3514
-0,0,0,5,5,5,5,0.514313,1.42859,74.2178,-0.129851,-0.0118551,0.0345052,0,0,0,3.15,0.7525,-0.6125,-0.145668,-0.008662,-0.978074,-0.14952,-0.26684,0.3514
-0,0,0,5,5,5,5,0.513141,1.3001,74.2369,-0.127609,-0.011875,0.0345588,0,0,0,3.745,0.63,-0.7525,-0.145668,-0.008662,-0.978074,-0.1421,-0.26334,0.34874
-0,0,0,5,5,5,5,0.532722,1.36435,74.221,0.0655257,-0.00664858,-0.0182153,0,0,0,3.4125,0.35,-0.8925,0.04941,-0.003782,-1.03041,-0.1421,-0.26334,0.34874
-0,0,0,5,5,5,5,0.552013,1.4276,74.2053,0.0644221,-0.00631226,-0.0182454,0,0,0,3.6225,0.4375,-0.875,0.04941,-0.003782,-1.03041,-0.1421,-0.26334,0.34874
0,0,0,5,5,5,5,0.441299,1.54068,74.24,0.130117,0.0888465,-0.0117635,0,0,0,3.78,0.8575,-1.0325,0.117364,0.093208,-1.02395,-0.1421,-0.26334,0.34874
0,0,0,5,5,5,5,0.33237,1.65091,74.2734,0.128194,0.0869457,-0.0118042,0,0,0,3.4125,0.14,-1.575,0.117364,0.093208,-1.02395,-0.1421,-0.26334,0.34874
0,0,0,5,5,5,5,0.268413,1.58209,74.3107,-0.064497,0.0369794,-0.0471737,0,0,0,3.29,0.245,-1.9075,-0.077348,0.044408,-1.05908,-0.1421,-0.26334,0.34874
0,0,0,5,5,5,5,0.207144,1.51531,74.3477,-0.0633318,0.0359106,-0.0471377,0,0,0,3.7625,0.63,-1.96,-0.077348,0.044408,-1.05908,-0.1421,-0.26334,0.34874
-0,0,0,5,5,5,5,0.222978,1.4821,74.3464,-0.035661,-0.0148621,-0.0664265,0,0,0,3.78,0.35,-2.1,-0.050142,-0.006588,-1.07824,-0.1421,-0.26334,0.34874
-0,0,0,5,5,5,5,0.238875,1.44954,74.3443,-0.035093,-0.0145847,-0.0664131,0,0,0,4.0075,0.42,-2.52,-0.050142,-0.006588,-1.07824,-0.1421,-0.26334,0.34874
-0,0,0,5,5,5,5,0.247202,1.40423,74.3504,-0.045965,-0.00882146,0.0435219,0,0,0,4.165,0.56,-2.66,-0.061854,-0.000976,-0.969168,-0.14154,-0.2688,0.35126
0,0,0,5,5,5,5,0.184595,1.47208,74.3716,0.0756731,0.0485848,0.0094396,0,0,0,3.4125,0.385,-2.87,0.061488,0.057462,-1.00296,-0.14154,-0.2688,0.35126
0,0,0,5,5,5,5,0.123319,1.53932,74.3929,0.0744999,0.0475156,0.00941163,0,0,0,3.36,0.6125,-2.7125,0.061488,0.057462,-1.00296,-0.14154,-0.2688,0.35126
-0,0,0,5,5,5,5,0.152912,1.63171,74.3714,0.0977926,-0.0108333,-0.0505101,0,0,0,3.815,0.665,-2.7475,0.086498,-0.001342,-1.06238,-0.14154,-0.2688,0.35126
-0,0,0,5,5,5,5,0.18054,1.72222,74.3504,0.0962136,-0.0103514,-0.0505578,0,0,0,3.255,0.525,-2.555,0.086498,-0.001342,-1.06238,-0.14154,-0.2688,0.35126
-0,0,0,5,5,5,5,0.248361,1.82786,74.3102,0.11308,-0.0378683,-0.0849219,0,0,0,3.92,0.5425,-2.38,0.105286,-0.030012,-1.09641,-0.14154,-0.2688,0.35126
-0,0,0,5,5,5,5,0.3145,1.93175,74.2716,0.111267,-0.0367149,-0.0849871,0,0,0,4.06,0.665,-1.715,0.105286,-0.030012,-1.09641,-0.14154,-0.2688,0.35126
-0,0,0,5,5,5,5,0.435389,2.08395,74.2012,0.139834,-0.0650165,0.0288793,0,0,0,3.255,0.595,-1.68,0.13664,-0.06039,-0.98332,-0.14154,-0.2688,0.35126
-0,0,0,5,5,5,5,0.554826,2.23396,74.1287,0.137218,-0.0629343,0.0287627,0,0,0,3.5525,0.735,-1.4,0.13664,-0.06039,-0.98332,-0.14546,-0.27062,0.3416
0,0,0,5,5,5,5,0.483137,2.21951,74.1584,-0.00964911,0.0437756,0.0714469,0,0,0,3.43,0.77,-1.12,-0.011102,0.047458,-0.940986,-0.14546,-0.27062,0.3416
0,0,0,5,5,5,5,0.412178,2.20569,74.188,-0.00940807,0.0425382,0.0714659,0,0,0,2.7825,0.875,-1.1025,-0.011102,0.047458,-0.940986,-0.14546,-0.27062,0.3416
0,0,0,5,5,5,5,0.249446,2.2795,74.247,0.0943897,0.120426,-0.00700926,0,0,0,3.9725,0.9275,-0.91,0.094428,0.1281,-1.01882,-0.14546,-0.27062,0.3416
0,0,0,5,5,5,5,0.0901891,2.35181,74.3064,0.0931287,0.117648,-0.00705202,0,0,0,3.745,0.525,-0.4375,0.094428,0.1281,-1.01882,-0.14546,-0.27062,0.3416
0,0,0,5,5,5,5,-0.0265361,2.31694,74.3624,-0.0238613,0.0701815,0.0540793,0,0,0,2.8525,0.28,-0.28,-0.023668,0.082716,-0.958188,-0.14546,-0.27062,0.3416
0,0,0,5,5,5,5,-0.13923,2.28358,74.4182,-0.0232795,0.0682162,0.0540998,0,0,0,3.3775,0.6125,-0.1575,-0.023668,0.082716,-0.958188,-0.14546,-0.27062,0.3416
0,0,0,5,5,5,5,-0.206551,1.98876,74.4898,-0.29148,0.0137942,0.0490013,0,0,0,3.2025,0.42,-0.0875,-0.298168,0.029524,-0.963434,-0.14546,-0.27062,0.3416
0,0,0,5,5,5,5,-0.270366,1.69936,74.5622,-0.286432,0.0126804,0.0491592,0,0,0,3.395,0.49,0.245,-0.298168,0.029524,-0.963434,-0.14448,-0.26908,0.3458
-0,0,0,5,5,5,5,-0.0658537,1.49287,74.5073,-0.241889,-0.163522,-0.00150768,0,0,0,3.78,0.77,0.1575,-0.257054,-0.15006,-1.01382,-0.14448,-0.26908,0.3458
-0,0,0,5,5,5,5,0.133235,1.28933,74.4523,-0.238337,-0.160049,-0.00142348,0,0,0,3.4475,0.8225,0.035,-0.257054,-0.15006,-1.01382,-0.14448,-0.26908,0.3458
-0,0,0,5,5,5,5,0.187539,1.22982,74.4406,-0.0647894,-0.0407603,0.0461778,0,0,0,3.2375,0.6475,-0.14,-0.083814,-0.031842,-0.966606,-0.14448,-0.26908,0.3458
-0,0,0,5,5,5,5,0.240661,1.17081,74.4286,-0.0637595,-0.0398333,0.0461959,0,0,0,3.29,0.42,-0.3325,-0.083814,-0.031842,-0.966606,-0.14448,-0.26908,0.3458
0,0,0,5,5,5,5,0.227056,0.989771,74.4606,-0.183544,-0.0110043,0.0123226,0,0,0,2.5725,0.14,-0.4025,-0.207278,-0.002806,-1.00028,-0.14448,-0.26908,0.3458
0,0,0,5,5,5,5,0.214705,0.812513,74.4913,-0.180451,-0.0112196,0.0123721,0,0,0,2.8,0.525,-0.945,-0.207278,-0.002806,-1.00028,-0.14448,-0.26908,0.3458
-0,0,0,5,5,5,5,0.304415,0.889351,74.4452,0.0661608,-0.0497117,0.0376725,0,0,0,3.605,0.5775,-0.98,0.041724,-0.042822,-0.975146,-0.14448,-0.26908,0.3458
-0,0,0,5,5,5,5,0.390414,0.964648,74.4018,0.0648468,-0.0482111,0.0376421,0,0,0,3.0975,0.6125,-1.155,0.041724,-0.042822,-0.975146,-0.1421,-0.26796,0.34734
-0,0,0,5,5,5,5,0.428702,1.07697,74.3736,0.107472,-0.0132256,0.0347746,0,0,0,3.4825,0.4375,-1.4175,0.086498,-0.00854,-0.977952,-0.1421,-0.26796,0.34734
-0,0,0,5,5,5,5,0.466354,1.18747,74.345,0.105544,-0.0125689,0.0347314,0,0,0,3.8325,0.5425,-1.855,0.086498,-0.00854,-0.977952,-0.1421,-0.26796,0.34734
-0,0,0,5,5,5,5,0.465968,1.18693,74.3435,0.101544,0.032367,-0.144896,1,0,0,3.29,0.2625,-2.1175,0.082472,0.036356,-1.15619,-0.1421,-0.26796,0.34734
-0,0,0,5,5,5,5,0.465944,1.1861,74.3414,0.101559,0.0323666,-0.144896,1,0,0,3.5,0.0875,-2.485,0.082472,0.036356,-1.15619,-0.1421,-0.26796,0.34734
0,0,0,5,5,5,5,0.385736,1.11796,74.3858,-0.0598002,0.045256,0.033045,0,0,0,3.4825,0.525,-2.7125,-0.080764,0.05063,-0.97966,-0.1421,-0.26796,0.34734
0,0,0,5,5,5,5,0.307601,1.05105,74.4294,-0.0586326,0.0438927,0.0330753,0,0,0,3.3775,0.42,-2.9575,-0.080764,0.05063,-0.97966,-0.1421,-0.26796,0.34734
-0,0,0,5,5,5,5,0.338067,1.22794,74.3944,0.174206,-0.00149569,0.0360846,0,0,0,3.7625,0.6125,-2.8525,0.15616,0.004758,-0.97661,-0.1421,-0.26796,0.34734
-0,0,0,5,5,5,5,0.368753,1.40163,74.3547,0.171175,-0.000960695,0.0360118,0,0,0,4.1125,0.385,-2.6775,0.15616,0.004758,-0.97661,-0.14476,-0.26348,0.34664
-0,0,0,5,5,5,5,0.366294,1.23825,74.3723,-0.168685,-0.0157805,5.384e-05,0,0,0,3.85,0.5775,-2.6775,-0.188002,-0.010004,-1.01236,-0.14476,-0.26348,0.34664
-0,0,0,5,5,5,5,0.365311,1.07806,74.3899,-0.16589,-0.0157973,0.000110456,0,0,0,4.375,0.8225,-2.5725,-0.188002,-0.010004,-1.01236,-0.14476,-0.26348,0.34664
-0,0,0,5,5,5,5,0.495808,0.935331,74.3473,-0.165707,-0.105603,-0.0185511,0,0,0,4.55,0.805,-2.5375,-0.19032,-0.101992,-1.0309,-0.14476,-0.26348,0.34664
-0,0,0,5,5,5,5,0.621634,0.794506,74.3057,-0.16325,-0.103407,-0.0185354,0,0,0,3.6225,0.7175,-2.135,-0.19032,-0.101992,-1.0309,-0.14476,-0.26348,0.34664
-0,0,0,5,5,5,5,0.622789,0.794176,74.3043,-0.0450385,-0.207561,-0.0963619,1,0,0,4.1475,0.385,-2.0825,-0.071614,-0.206058,-1.10813,-0.14476,-0.26348,0.34664
-0,0,0,5,5,5,5,0.623864,0.794044,74.3038,-0.0450362,-0.207542,-0.0963621,1,0,0,4.095,0.5075,-1.505,-0.071614,-0.206058,-1.10813,-0.14476,-0.26348,0.34664
-0,0,0,5,5,5,5,0.768699,0.738607,74.2435,-0.0773558,-0.11342,-0.0776917,0,0,0,3.36,0.4025,-1.1725,-0.105042,-0.114558,-1.08958,-0.14476,-0.26348,0.34664
-0,0,0,5,5,5,5,0.910712,0.684311,74.1846,-0.0764082,-0.110942,-0.0777162,0,0,0,3.815,0.735,-0.7175,-0.105042,-0.114558,-1.08958,-0.14476,-0.26348,0.34664
-0,0,0,5,5,5,5,0.988054,0.70165,74.1439,0.0101514,-0.0545128,-0.0745456,0,0,0,3.815,1.015,-0.595,-0.017812,-0.059536,-1.08641,-0.14784,-0.26936,0.34426
-0,0,0,5,5,5,5,1.06334,0.717677,74.1045,0.00987174,-0.0531991,-0.0745726,0,0,0,3.815,0.5425,-0.1225,-0.017812,-0.059536,-1.08641,-0.14784,-0.26936,0.34426
-0,0,0,5,5,5,5,1.05466,0.961389,74.0737,0.22818,0.0337245,0.112864,0,0,0,4.025,0.77,0.035,0.205692,0.02745,-0.90036,-0.14784,-0.26936,0.34426
-0,0,0,5,5,5,5,1.0445,1.20074,74.0431,0.224004,0.0335459,0.112789,0,0,0,3.4125,0.56,0.105,0.205692,0.02745,-0.90036,-0.14784,-0.26936,0.34426
0,0,0,5,5,5,5,0.917696,1.31578,74.0783,0.130882,0.0985025,0.0178664,0,0,0,3.43,0.49,0.1575,0.114192,0.09455,-0.994544,-0.14784,-0.26936,0.34426
0,0,0,5,5,5,5,0.793717,1.42912,74.113,0.128904,0.0963388,0.0178513,0,0,0,3.43,0.4375,0.07,0.114192,0.09455,-0.994544,-0.14784,-0.26936,0.34426
0,0,0,5,5,5,5,0.757751,1.51619,74.113,0.0981073,0.0348917,-0.0360307,0,0,0,3.3075,0.525,-0.0875,0.08479,0.033794,-1.04798,-0.14784,-0.26936,0.34426
0,0,0,5,5,5,5,0.72246,1.60186,74.113,0.0966126,0.0342755,-0.0360634,0,0,0,3.3075,0.525,-0.0875,0.08479,0.033794,-1.04798,-0.14784,-0.26936,0.34426
0,0,0,5,5,5,5,0.695669,1.80291,74.0942,0.203536,0.0402796,0.0480578,0,0,0,3.2725,0.42,-0.315,0.195688,0.04026,-0.96441,-0.14602,-0.26446,0.34398
0,0,0,5,5,5,5,0.589985,1.53621,74.1704,-0.246411,0.0397809,0.0946887,0,0,0,3.57,0.4725,-0.42,-0.260836,0.041602,-0.918294,-0.14602,-0.26446,0.34398
0,0,0,5,5,5,5,0.487843,1.27458,74.2454,-0.241846,0.0379998,0.0948174,0,0,0,3.5875,0.6125,-0.735,-0.260836,0.041602,-0.918294,-0.14602,-0.26446,0.34398
-0,0,0,5,5,5,5,0.487902,1.27411,74.2458,0.023001,-0.00169031,0.19416,1,0,0,3.5175,0.315,-1.0325,0.005124,0.001952,-0.819718,-0.14602,-0.26446,0.34398
-0,0,0,5,5,5,5,0.486974,1.27365,74.2453,0.023009,-0.0017065,0.19416,1,0,0,2.975,0.315,-1.5575,0.005124,0.001952,-0.819718,-0.14602,-0.26446,0.34398
-0,0,0,5,5,5,5,0.564882,1.36509,74.1942,0.0861653,-0.0435804,-0.00063935,0,0,0,2.8525,0.4375,-1.9075,0.07015,-0.041236,-1.01297,-0.14602,-0.26446,0.34398
-0,0,0,5,5,5,5,0.640841,1.45482,74.1431,0.0845997,-0.0422555,-0.000691827,0,0,0,3.01,0.4375,-2.24,0.07015,-0.041236,-1.01297,-0.14602,-0.26446,0.34398
-0,0,0,5,5,5,5,0.639403,1.45423,74.141,-0.105151,0.0330716,0.149306,1,0,0,2.7125,0.2275,-2.4675,-0.120414,0.034038,-0.864126,-0.14602,-0.26446,0.34398
-0,0,0,5,5,5,5,0.639892,1.45457,74.1386,-0.105156,0.0330801,0.149306,1,0,0,3.7975,0.77,-2.6775,-0.120414,0.034038,-0.864126,-0.14882,-0.26698,0.3367
-0,0,0,5,5,5,5,0.640594,1.45491,74.136,0.0287148,-0.0313905,0.112667,1,0,0,3.92,0.77,-2.8,0.01403,-0.030378,-0.900482,-0.14882,-0.26698,0.3367
-0,0,0,5,5,5,5,0.640416,1.45442,74.1331,0.0287234,-0.0313937,0.112667,1,0,0,3.43,0.28,-2.94,0.01403,-0.030378,-0.900482,-0.14882,-0.26698,0.3367
-0,0,0,5,5,5,5,0.756058,1.43308,74.0759,-0.0341984,-0.0770054,0.0350712,0,0,0,3.7975,0.525,-2.905,-0.049532,-0.077958,-0.977464,-0.14882,-0.26698,0.3367
-0,0,0,5,5,5,5,0.867978,1.41173,74.0198,-0.0338259,-0.0750527,0.0350528,0,0,0,3.36,0.4725,-2.66,-0.049532,-0.077958,-0.977464,-0.14882,-0.26698,0.3367
