pid_x,pid_y,pid_z,front_left_speed,front_right_speed,back_left_speed,back_right_speed,orientation_x,orientation_y,orientation_z,acceleration_x,acceleration_y,acceleration_z,accel_rejected,mag_rejected,ahrs_initialized,gyro_x,gyro_y,gyro_z,accel_x,accel_y,accel_z,mag_x,mag_y,mag_z
0,0,0,5,5,5,5,-0.000810842,0.00401061,0.18082,0.00288954,0.00101791,0.00350445,0,0,0,3.6575,-0.28,-0.8925,-0.037332,0.013176,-1.00918,-0.23968,0.0707,0.37702
0,0,0,5,5,5,5,-0.000982831,-0.00112074,0.366525,-0.00309519,0.000404274,6.18917e-05,0,0,0,3.6225,-0.07,-0.945,-0.043432,0.012566,-1.0126,-0.23968,0.0707,0.37702
0,0,0,5,5,5,5,-0.00374815,-0.00724904,0.551384,-0.00359566,0.00231004,0.0026438,0,0,0,3.43,0.035,-0.98,-0.044042,0.014518,-1.01004,-0.23968,0.0707,0.37702
0,0,0,5,5,5,5,-0.00658799,-0.013468,0.734922,-0.00348712,0.00226047,0.00264378,0,0,0,3.36,-0.1225,-0.9275,-0.044042,0.014518,-1.01004,-0.23968,0.0707,0.37702
0,0,0,5,5,5,5,-0.0113147,-0.0205916,0.917652,-0.00384873,0.00388775,-0.0035037,0,0,0,3.36,-0.1575,-0.8575,-0.04453,0.016226,-1.01614,-0.23968,0.0707,0.37702
-0,0,0,5,5,5,5,-0.0109047,-0.0146693,1.09083,0.00358002,-0.000379529,0.00288966,0,0,0,3.4125,0.035,-0.9625,-0.036966,0.011956,-1.00979,-0.23968,0.0707,0.37702
-0,0,0,5,5,5,5,-0.0104365,-0.0088957,1.26891,0.00347925,-0.000371357,0.00288968,0,0,0,3.4475,0.035,-0.805,-0.036966,0.011956,-1.00979,-0.24332,0.06734,0.37842
0,0,0,5,5,5,5,-0.0141124,-0.0212025,1.45738,-0.00736115,0.00298403,-0.00178243,0,0,0,3.395,0.0175,-0.7,-0.048068,0.015372,-1.01443,-0.24332,0.06734,0.37842
0,0,0,5,5,5,5,-0.014695,-0.0270762,1.64052,-0.00361406,0.000531331,0.00166008,0,0,0,3.5,0,-0.7175,-0.044408,0.012932,-1.01101,-0.24332,0.06734,0.37842
0,0,0,5,5,5,5,-0.0154572,-0.0330845,1.82208,-0.0035092,0.000518028,0.00166002,0,0,0,3.395,-0.175,-0.805,-0.044408,0.012932,-1.01101,-0.24332,0.06734,0.37842
0,0,0,5,5,5,5,-0.0185857,-0.0325401,1.99771,0.000854783,0.00266171,0.00633205,0,0,0,3.4475,-0.1925,-0.805,-0.040016,0.015128,-1.00638,-0.24332,0.06734,0.37842
0,0,0,5,5,5,5,-0.0217134,-0.0319407,2.17199,0.000844322,0.00260712,0.00633204,0,0,0,3.4125,-0.1575,-0.805,-0.040016,0.015128,-1.00638,-0.24332,0.06734,0.37842
0,0,0,5,5,5,5,-0.0241344,-0.0344004,2.34673,-0.001178,0.00195423,0.00375008,0,0,0,3.395,-0.1225,-0.98,-0.04209,0.014518,-1.00894,-0.24332,0.06734,0.37842
0,0,0,5,5,5,5,-0.0257426,-0.0308313,2.51615,0.00252576,0.00131553,0.00928278,0,0,0,3.395,-0.1575,-0.9625,-0.038308,0.013908,-1.00345,-0.24332,0.06734,0.37842
0,0,0,5,5,5,5,-0.0270049,-0.0272991,2.67518,0.00246411,0.0012935,0.0092828,0,0,0,3.57,-0.1225,-0.9625,-0.038308,0.013908,-1.00345,-0.23786,0.07252,0.37632
0,0,0,5,5,5,5,-0.0271604,-0.0262163,2.83467,0.000744413,-5.26107e-05,0.0113729,0,0,0,3.325,-0.0875,-0.98,-0.040016,0.012566,-1.00138,-0.23786,0.07252,0.37632
0,0,0,5,5,5,5,-0.0282722,-0.0247013,2.99246,0.00120391,0.000904999,0.00756154,0,0,0,3.4125,-0.1575,-0.98,-0.039528,0.013542,-1.00516,-0.23786,0.07252,0.37632
0,0,0,5,5,5,5,-0.0293607,-0.0230451,3.14896,0.00117501,0.000886,0.00756154,0,0,0,3.4125,-0.0525,-1.0325,-0.039528,0.013542,-1.00516,-0.23786,0.07252,0.37632
0,0,0,5,5,5,5,-0.0331697,-0.0284115,3.30883,-0.00298333,0.00289567,0.00497954,0,0,0,3.2725,-0.0525,-1.015,-0.043798,0.015616,-1.00772,-0.23786,0.07252,0.37632
0,0,0,5,5,5,5,-0.036623,-0.03353,3.46776,-0.002894,0.0028354,0.00497946,0,0,0,3.43,0,-0.8575,-0.043798,0.015616,-1.00772,-0.23786,0.07252,0.37632
0,0,0,5,5,5,5,-0.039181,-0.0303685,3.61984,0.00215323,0.00218013,0.00952855,0,0,0,3.43,0.0525,-0.98,-0.038674,0.015006,-1.00321,-0.23786,0.07252,0.37632
0,0,0,5,5,5,5,-0.0386892,-0.0333842,3.77476,-0.00180317,-0.000498079,0.00227457,0,0,0,3.43,-0.1575,-0.98,-0.0427,0.012322,-1.0104,-0.23786,0.07252,0.37632
0,0,0,5,5,5,5,-0.0382082,-0.0364112,3.93065,-0.00175034,-0.000489684,0.00227454,0,0,0,3.43,-0.21,-0.875,-0.0427,0.012322,-1.0104,-0.2401,0.07126,0.37772
0,0,0,5,5,5,5,-0.0388217,-0.0402703,4.08581,-0.00216893,0.000354495,-0.0025205,0,0,0,3.3775,-0.2275,-0.91,-0.043188,0.013176,-1.01516,-0.2401,0.07126,0.37772
0,0,0,5,5,5,5,-0.0380504,-0.0443468,4.23975,-0.00234075,-0.000975438,6.1372e-05,0,0,0,3.29,-0.3325,-0.9975,-0.043432,0.011834,-1.0126,-0.2401,0.07126,0.37772
0,0,0,5,5,5,5,-0.0373256,-0.047926,4.39278,-0.00227828,-0.000962788,6.133e-05,0,0,0,3.2725,-0.105,-0.84,-0.043432,0.011834,-1.0126,-0.2401,0.07126,0.37772
0,0,0,5,5,5,5,-0.0397483,-0.0569165,4.54805,-0.00540148,0.00168172,-0.00903703,0,0,0,3.29,-0.14,-0.8925,-0.046726,0.014518,-1.02163,-0.2401,0.07126,0.37772
0,0,0,5,5,5,5,-0.0421234,-0.0656553,4.70214,-0.00524896,0.00164026,-0.00903722,0,0,0,3.29,-0.14,-0.8925,-0.046726,0.014518,-1.02163,-0.2401,0.07126,0.37772
0,0,0,5,5,5,5,-0.0463,-0.0651981,4.84888,0.000817344,0.0035214,-0.002521,0,0,0,3.395,-0.1225,-0.9275,-0.040626,0.01647,-1.01516,-0.2401,0.07126,0.37772
-0,0,0,5,5,5,5,-0.0440161,-0.0634469,4.99407,0.00102975,-0.00205657,0.00251995,0,0,0,3.36,-0.175,-0.84,-0.040382,0.010858,-1.01016,-0.24332,0.07084,0.38024
0,0,0,5,5,5,5,-0.0469217,-0.0595937,5.13651,0.00290627,0.0024114,0.00116755,0,0,0,3.3425,-0.1925,-0.84,-0.03843,0.015372,-1.0115,-0.24332,0.07084,0.38024
0,0,0,5,5,5,5,-0.0497694,-0.055836,5.27786,0.00284069,0.0023617,0.00116758,0,0,0,3.3425,-0.1925,-0.84,-0.03843,0.015372,-1.0115,-0.24332,0.07084,0.38024
0,0,0,5,5,5,5,-0.051367,-0.0547577,5.42001,0.000878097,0.00135681,0.00399539,0,0,0,3.43,-0.0525,-0.8225,-0.040382,0.014396,-1.0087,-0.24332,0.07084,0.38024
-0,0,0,5,5,5,5,-0.0493681,-0.0524886,5.56011,0.00144592,-0.00166148,6.11012e-05,0,0,0,3.4475,-0.21,-0.8225,-0.039772,0.011346,-1.0126,-0.24332,0.07084,0.38024
-0,0,0,5,5,5,5,-0.0473151,-0.0501088,5.69879,0.00140439,-0.00162564,6.11686e-05,0,0,0,3.5,-0.105,-1.015,-0.039772,0.011346,-1.0126,-0.24332,0.07084,0.38024
0,0,0,5,5,5,5,-0.0481023,-0.0484533,5.83654,0.00149698,0.000558899,0.00227425,0,0,0,3.3425,-0.3675,-0.9625,-0.03965,0.013542,-1.0104,-0.24332,0.07084,0.38024
0,0,0,5,5,5,5,-0.0488736,-0.0468404,5.97324,0.00146883,0.000545437,0.00227427,0,0,0,3.3425,-0.3675,-0.9625,-0.03965,0.013542,-1.0104,-0.24332,0.07084,0.38024
0,0,0,5,5,5,5,-0.0498438,-0.0449237,6.11177,0.0011924,0.00065063,0.00301197,0,0,0,3.3075,0.07,-0.735,-0.039894,0.013664,-1.00967,-0.24276,0.0693,0.38318
0,0,0,5,5,5,5,-0.0521909,-0.0421832,6.24817,0.00211646,0.00219731,0.000307103,0,0,0,3.5175,-0.1225,-0.8575,-0.038918,0.01525,-1.01236,-0.24276,0.0693,0.38318
0,0,0,5,5,5,5,-0.0521138,-0.0442386,6.38689,-0.00124927,-0.000121749,-0.000922408,0,0,0,3.4475,-0.0875,-0.77,-0.042334,0.012932,-1.01358,-0.24276,0.0693,0.38318
0,0,0,5,5,5,5,-0.0519749,-0.0460596,6.52425,-0.00121748,-0.000119325,-0.000922431,0,0,0,3.4825,0.0175,-0.9275,-0.042334,0.012932,-1.01358,-0.24276,0.0693,0.38318
0,0,0,5,5,5,5,-0.0519091,-0.0440712,6.658,0.00117752,0.000126076,0.000798877,0,0,0,3.535,0.07,-0.9625,-0.039894,0.013176,-1.01187,-0.24276,0.0693,0.38318
0,0,0,5,5,5,5,-0.0564898,-0.0560484,6.80003,-0.00723892,0.00370993,-0.00645534,0,0,0,3.5,-0.0175,-0.8925,-0.048556,0.016836,-1.01907,-0.24276,0.0693,0.38318
0,0,0,5,5,5,5,-0.0614135,-0.0680746,6.94105,-0.00702902,0.003624,-0.00645566,0,0,0,3.255,-0.245,-0.84,-0.048556,0.016836,-1.01907,-0.24276,0.0693,0.38318
0,0,0,5,5,5,5,-0.0605185,-0.0697766,7.06612,-0.001168,-0.000879073,-0.00190658,0,0,0,3.4125,-0.035,-1.1725,-0.0427,0.012322,-1.01455,-0.24528,0.0742,0.37506
0,0,0,5,5,5,5,-0.0589629,-0.0698269,7.18933,-7.37538e-05,-0.00134043,0.000183568,0,0,0,3.4475,-0.1225,-0.98,-0.041602,0.011834,-1.01248,-0.24528,0.0742,0.37506
0,0,0,5,5,5,5,-0.0609917,-0.0745046,7.31452,-0.00242183,0.00131095,0.00165881,0,0,0,3.255,-0.3675,-0.8925,-0.044042,0.014518,-1.01101,-0.24528,0.0742,0.37506
0,0,0,5,5,5,5,-0.062634,-0.0787808,7.43867,-0.00234719,0.00128229,0.00165868,0,0,0,3.4475,-0.21,-0.9275,-0.044042,0.014518,-1.01101,-0.24528,0.0742,0.37506
0,0,0,5,5,5,5,-0.0637742,-0.0814158,7.56056,-0.00132932,0.00101813,-0.00141512,0,0,0,3.5175,-0.2275,-1.05,-0.043066,0.014274,-1.01406,-0.24528,0.0742,0.37506
0,0,0,5,5,5,5,-0.0654833,-0.0837659,7.6817,-0.0012883,0.000988305,-0.00141521,0,0,0,3.185,-0.105,-0.9275,-0.043066,0.014274,-1.01406,-0.24528,0.0742,0.37506
0,0,0,5,5,5,5,-0.0671784,-0.0803455,7.79819,0.00229657,0.00095872,0.00337983,0,0,0,3.0625,-0.035,-0.91,-0.039406,0.014274,-1.00931,-0.24528,0.0742,0.37506
0,0,0,5,5,5,5,-0.0681044,-0.0817904,7.92958,-0.000958321,0.000820431,6.01667e-05,0,0,0,3.5,0.105,-0.98,-0.0427,0.014152,-1.0126,-0.24444,0.06734,0.37226
0,0,0,5,5,5,5,-0.0678741,-0.0860631,8.06184,-0.00270604,-0.000396817,-0.0028907,0,0,0,3.4125,-0.0875,-0.8225,-0.04453,0.012932,-1.01553,-0.24444,0.06734,0.37226
0,0,0,5,5,5,5,-0.067708,-0.0897429,8.19286,-0.00264181,-0.000393919,-0.0028908,0,0,0,3.3775,0.1925,-0.9275,-0.04453,0.012932,-1.01553,-0.24444,0.06734,0.37226
0,0,0,5,5,5,5,-0.0660673,-0.0907084,8.32111,-0.00104565,-0.00146442,0.00337958,0,0,0,3.4475,0.21,-0.91,-0.042944,0.011834,-1.00931,-0.24444,0.06734,0.37226
0,0,0,5,5,5,5,-0.064459,-0.0916531,8.44836,-0.00102916,-0.00143635,0.00337959,0,0,0,3.4475,0.21,-0.91,-0.042944,0.011834,-1.00931,-0.24444,0.06734,0.37226
-0,0,0,5,5,5,5,-0.062487,-0.0946538,8.57572,-0.00207016,-0.00189044,0.000674675,0,0,0,3.395,-0.0875,-0.8225,-0.044042,0.011346,-1.01199,-0.24444,0.06734,0.37226
-0,0,0,5,5,5,5,-0.0605525,-0.0975802,8.70208,-0.00201908,-0.00185668,0.000674626,0,0,0,3.395,-0.0875,-0.8225,-0.044042,0.011346,-1.01199,-0.24444,0.06734,0.37226
0,0,0,5,5,5,5,-0.059121,-0.0943029,8.82312,0.00205423,-0.00122106,-0.00215307,0,0,0,3.3775,-0.1225,-0.945,-0.039894,0.011956,-1.0148,-0.24444,0.06734,0.37226
0,0,0,5,5,5,5,-0.0577217,-0.0911298,8.94183,0.00199885,-0.00119664,-0.00215295,0,0,0,3.3775,-0.1225,-0.945,-0.039894,0.011956,-1.0148,-0.24332,0.0679,0.37646
0,0,0,5,5,5,5,-0.0567646,-0.091057,9.06132,0.000175297,-0.000813553,-0.00215293,0,0,0,3.4475,-0.2275,-1.0325,-0.041724,0.012322,-1.0148,-0.24332,0.0679,0.37646
0,0,0,5,5,5,5,-0.0558264,-0.0909894,9.17988,0.000174117,-0.000797179,-0.00215292,0,0,0,3.4475,-0.2275,-1.0325,-0.041724,0.012322,-1.0148,-0.24332,0.0679,0.37646
0,0,0,5,5,5,5,-0.0583145,-0.093353,9.29918,-0.00112097,0.00221256,0.00313376,0,0,0,3.5525,-0.1225,-1.12,-0.043066,0.015372,-1.00955,-0.24332,0.0679,0.37646
0,0,0,5,5,5,5,-0.0607515,-0.0956454,9.41756,-0.00108096,0.00217003,0.00313365,0,0,0,3.5525,-0.1225,-1.12,-0.043066,0.015372,-1.00955,-0.24332,0.0679,0.37646
0,0,0,5,5,5,5,-0.0602116,-0.0925009,9.53164,0.00214427,0.000103299,-0.00190714,0,0,0,3.7275,-0.1225,-0.9275,-0.039772,0.013298,-1.01455,-0.24332,0.0679,0.37646
0,0,0,5,5,5,5,-0.0596846,-0.0894422,9.64485,0.00209088,0.000112497,-0.00190704,0,0,0,3.7275,-0.1225,-0.9275,-0.039772,0.013298,-1.01455,-0.24332,0.0679,0.37646
-0,0,0,5,5,5,5,-0.0577838,-0.0872225,9.75755,0.00132323,-0.00144198,-0.00301349,0,0,0,3.5175,-0.0875,-0.945,-0.040504,0.011712,-1.01565,-0.24332,0.0679,0.37646
-0,0,0,5,5,5,5,-0.0559195,-0.0850507,9.87156,0.00128532,-0.00140944,-0.0030134,0,0,0,3.5175,-0.0875,-0.945,-0.040504,0.011712,-1.01565,-0.24626,0.06692,0.36834
0,0,0,5,5,5,5,-0.0591689,-0.0875212,9.98788,-0.00110127,0.00256403,0.00854364,0,0,0,3.3775,-0.14,-0.8925,-0.042944,0.015738,-1.00418,-0.24626,0.06692,0.36834
0,0,0,5,5,5,5,-0.0623518,-0.089915,10.1033,-0.00105949,0.00250848,0.00854351,0,0,0,3.3775,-0.14,-0.8925,-0.042944,0.015738,-1.00418,-0.24626,0.06692,0.36834
0,0,0,5,5,5,5,-0.0630259,-0.0928659,10.2181,-0.00185839,0.00042056,0.00030587,0,0,0,3.43,0,-0.91,-0.043798,0.013664,-1.01236,-0.24626,0.06692,0.36834
0,0,0,5,5,5,5,-0.0636843,-0.0957355,10.3321,-0.00180831,0.00040907,0.000305775,0,0,0,3.43,0,-0.91,-0.043798,0.013664,-1.01236,-0.24626,0.06692,0.36834
-0,0,0,5,5,5,5,-0.0619448,-0.0904286,10.4393,0.00344444,-0.000903965,-0.00350544,0,0,0,3.675,-0.1575,-1.015,-0.03843,0.012322,-1.01614,-0.24626,0.06692,0.36834
-0,0,0,5,5,5,5,-0.0602444,-0.0852696,10.5458,0.0033544,-0.000874288,-0.00350527,0,0,0,3.675,-0.1575,-1.015,-0.03843,0.012322,-1.01614,-0.24626,0.06692,0.36834
0,0,0,5,5,5,5,-0.0611396,-0.0844061,10.654,0.000909615,0.00118624,-0.00252168,0,0,0,3.675,-0.21,-1.05,-0.04087,0.014396,-1.01516,-0.24626,0.06692,0.36834
0,0,0,5,5,5,5,-0.062018,-0.0835658,10.7603,0.000894949,0.00117091,-0.00252168,0,0,0,3.675,-0.21,-1.05,-0.04087,0.014396,-1.01516,-0.24472,0.06734,0.37436
0,0,0,5,5,5,5,-0.0623715,-0.0928537,10.8722,-0.00574614,-5.65257e-05,0.00411729,0,0,0,3.4825,-0.21,-1.085,-0.047702,0.013176,-1.00857,-0.24472,0.06734,0.37436
0,0,0,5,5,5,5,-0.0627097,-0.101893,10.9833,-0.00558838,-6.24272e-05,0.00411701,0,0,0,3.4825,-0.21,-1.085,-0.047702,0.013176,-1.00857,-0.24472,0.06734,0.37436
0,0,0,5,5,5,5,-0.0624835,-0.102087,11.0885,-0.000118143,6.36474e-05,0.00190394,0,0,0,3.6225,-0.0175,-0.8225,-0.042212,0.013298,-1.01077,-0.24472,0.06734,0.37436
0,0,0,5,5,5,5,-0.0626375,-0.101157,11.1921,0.00059454,0.000305212,0.00116627,0,0,0,3.535,0.0175,-0.805,-0.04148,0.013542,-1.0115,-0.24472,0.06734,0.37436
0,0,0,5,5,5,5,-0.062821,-0.100281,11.2952,0.000579249,0.000302009,0.0011663,0,0,0,3.5175,0,-0.665,-0.04148,0.013542,-1.0115,-0.24472,0.06734,0.37436
0,0,0,5,5,5,5,-0.0634482,-0.101422,11.3985,-0.000737176,0.000535318,-0.000677979,0,0,0,3.4825,0.035,-0.8575,-0.042822,0.013786,-1.01333,-0.24472,0.06734,0.37436
0,0,0,5,5,5,5,-0.0638423,-0.102173,11.5007,-0.000724072,0.000528438,-0.00067801,0,0,0,3.605,0.245,-1.0325,-0.042822,0.013786,-1.01333,-0.24472,0.06734,0.37436
0,0,0,5,5,5,5,-0.0654307,-0.10166,11.6011,0.000360361,0.00147773,0.00633004,0,0,0,3.5175,0.1225,-1.0675,-0.041724,0.014762,-1.00638,-0.24472,0.06734,0.37436
0,0,0,5,5,5,5,-0.0671125,-0.10148,11.6979,0.000357219,0.00144838,0.00633001,0,0,0,3.4475,-0.07,-0.875,-0.041724,0.014762,-1.00638,-0.24192,0.06958,0.37198
0,0,0,5,5,5,5,-0.0665477,-0.108742,11.7985,-0.00473992,-0.0009843,0.00141185,0,0,0,3.36,-0.0875,-0.945,-0.04697,0.012322,-1.01126,-0.24192,0.06958,0.37198
0,0,0,5,5,5,5,-0.0658933,-0.116172,11.8983,-0.00461025,-0.000972879,0.00141161,0,0,0,3.4125,-0.2975,-0.945,-0.04697,0.012322,-1.01126,-0.24192,0.06958,0.37198
0,0,0,5,5,5,5,-0.0687198,-0.116619,11.9931,0.00013549,0.00227521,-0.00178513,0,0,0,3.3425,-0.1575,-1.05,-0.042212,0.015616,-1.01443,-0.24192,0.06958,0.37198
0,0,0,5,5,5,5,-0.071552,-0.116866,12.0875,0.000139797,0.00222578,-0.0017852,0,0,0,3.3075,-0.0525,-0.875,-0.042212,0.015616,-1.01443,-0.24192,0.06958,0.37198
-0,0,0,5,5,5,5,-0.069078,-0.118916,12.1818,-0.00140373,-0.0021276,0.00288683,0,0,0,3.5175,-0.175,-0.84,-0.043798,0.011224,-1.00979,-0.24192,0.06958,0.37198
-0,0,0,5,5,5,5,-0.0665874,-0.120502,12.2749,-0.00137605,-0.00208413,0.00288682,0,0,0,3.5525,0.07,-1.1025,-0.043798,0.011224,-1.00979,-0.24192,0.06958,0.37198
0,0,0,5,5,5,5,-0.0655834,-0.117643,12.3647,0.0016112,-0.000356836,0.00128861,0,0,0,3.6925,0.1575,-1.1025,-0.040748,0.012932,-1.01138,-0.24192,0.06958,0.37198
0,0,0,5,5,5,5,-0.0648842,-0.115073,12.4565,0.00156634,-0.000344633,0.00128872,0,0,0,3.535,0.035,-1.05,-0.040748,0.012932,-1.01138,-0.24444,0.06734,0.37856
0,0,0,5,5,5,5,-0.0664728,-0.114896,12.5493,0.000348396,0.0017038,-0.00498168,0,0,0,3.64,-0.0525,-1.0675,-0.041968,0.015006,-1.0176,-0.24444,0.06734,0.37856
0,0,0,5,5,5,5,-0.0680614,-0.114629,12.6416,0.000343736,0.00167607,-0.0049817,0,0,0,3.6225,0,-0.8925,-0.041968,0.015006,-1.0176,-0.24444,0.06734,0.37856
0,0,0,5,5,5,5,-0.0692411,-0.118225,12.7357,-0.00214471,0.00092272,-0.00215404,0,0,0,3.5,-0.105,-0.805,-0.04453,0.014274,-1.0148,-0.24444,0.06734,0.37856
0,0,0,5,5,5,5,-0.0707985,-0.121722,12.8288,-0.00208368,0.000895539,-0.0021542,0,0,0,3.2725,-0.105,-0.8925,-0.04453,0.014274,-1.0148,-0.24444,0.06734,0.37856
0,0,0,5,5,5,5,-0.0710228,-0.124557,12.9209,-0.00179122,-0.000207516,0.00190299,0,0,0,3.29,-0.0875,-0.84,-0.044286,0.013176,-1.01077,-0.24444,0.06734,0.37856
0,0,0,5,5,5,5,-0.0709585,-0.127317,13.0123,-0.00174304,-0.000206395,0.00190288,0,0,0,3.4475,-0.0875,-0.77,-0.044286,0.013176,-1.01077,-0.24444,0.06734,0.37856
0,0,0,5,5,5,5,-0.0707588,-0.122469,13.0981,0.00327474,0.000285597,0.000427691,0,0,0,3.57,-0.0875,-0.805,-0.039162,0.013664,-1.01223,-0.24444,0.06734,0.37856
0,0,0,5,5,5,5,-0.0703262,-0.11769,13.183,0.00319133,0.000293147,0.000427875,0,0,0,3.71,-0.035,-0.7875,-0.039162,0.013664,-1.01223,-0.23688,0.0686,0.37646
0,0,0,5,5,5,5,-0.0703971,-0.116278,13.2694,0.00097994,0.000169783,-0.00399822,0,0,0,3.465,-0.0525,-0.8225,-0.041358,0.013542,-1.01663,-0.23688,0.0686,0.37646
0,0,0,5,5,5,5,-0.0699992,-0.114515,13.3548,0.000949172,0.000176727,-0.00399815,0,0,0,3.7275,0.175,-0.98,-0.041358,0.013542,-1.01663,-0.23688,0.0686,0.37646
0,0,0,5,5,5,5,-0.0687514,-0.108376,13.4363,0.00387918,-0.000290002,0.000182332,0,0,0,3.745,0.0875,-1.085,-0.038308,0.013054,-1.01248,-0.23688,0.0686,0.37646
0,0,0,5,5,5,5,-0.0678794,-0.102342,13.517,0.00377386,-0.000274783,0.000182543,0,0,0,3.5525,0.1225,-1.155,-0.038308,0.013054,-1.01248,-0.23688,0.0686,0.37646
0,0,0,5,5,5,5,-0.0679326,-0.101272,13.6001,0.000839523,0.000334923,-0.00227639,0,0,0,3.5875,-0.105,-1.12,-0.041236,0.013664,-1.01492,-0.23688,0.0686,0.37646
0,0,0,5,5,5,5,-0.0683297,-0.100079,13.6829,0.00081871,0.000327992,-0.00227637,0,0,0,3.395,-0.0175,-0.945,-0.041236,0.013664,-1.01492,-0.23688,0.0686,0.37646
0,0,0,5,5,5,5,-0.0727311,-0.100211,13.7661,0.00033507,0.00367072,0.00128904,0,0,0,3.36,0,-1.1375,-0.041724,0.01708,-1.01138,-0.23688,0.0686,0.37646
0,0,0,5,5,5,5,-0.0770771,-0.100483,13.8497,0.000339812,0.00359487,0.00128893,0,0,0,3.3425,-0.0875,-1.1725,-0.041724,0.01708,-1.01138,-0.24164,0.06706,0.3787
0,0,0,5,5,5,5,-0.0799359,-0.0972587,13.9305,0.00259176,0.00256796,0.000920118,0,0,0,3.3775,-0.1575,-1.0325,-0.039406,0.016104,-1.01175,-0.24164,0.06706,0.3787
0,0,0,5,5,5,5,-0.0826482,-0.0941099,14.0106,0.00253681,0.00252062,0.000920142,0,0,0,3.43,-0.1575,-1.0325,-0.039406,0.016104,-1.01175,-0.24164,0.06706,0.3787
0,0,0,5,5,5,5,-0.0834048,-0.0969465,14.0938,-0.0015442,0.00055339,0.00534619,0,0,0,3.4825,-0.2275,-0.9275,-0.043554,0.014152,-1.00735,-0.24164,0.06706,0.3787
0,0,0,5,5,5,5,-0.0842674,-0.0997063,14.1766,-0.00149603,0.000538335,0.00534608,0,0,0,3.4125,-0.2275,-0.84,-0.043554,0.014152,-1.00735,-0.24164,0.06706,0.3787
0,0,0,5,5,5,5,-0.0843019,-0.094162,14.2533,0.00387406,0.000415605,0.00423971,0,0,0,3.4825,-0.175,-0.8575,-0.038064,0.01403,-1.00845,-0.24164,0.06706,0.3787
0,0,0,5,5,5,5,-0.0848741,-0.0889115,14.3293,0.00378242,0.000405619,0.00423984,0,0,0,3.185,-0.2625,-0.875,-0.038064,0.01403,-1.00845,-0.24164,0.06706,0.3787
0,0,0,5,5,5,5,-0.0868742,-0.0915419,14.4099,-0.00139556,0.0012256,0.00374792,0,0,0,3.22,-0.175,-0.9625,-0.04331,0.014884,-1.00894,-0.24164,0.06706,0.3787
0,0,0,5,5,5,5,-0.0886124,-0.0938585,14.49,-0.00135512,0.00119526,0.00374781,0,0,0,3.3425,-0.035,-0.8925,-0.04331,0.014884,-1.00894,-0.24164,0.06706,0.3787
0,0,0,5,5,5,5,-0.0880203,-0.0922699,14.5616,0.00104686,-0.000504181,0.000674158,0,0,0,3.395,-0.07,-0.8925,-0.04087,0.013176,-1.01199,-0.23856,0.0707,0.37366
0,0,0,5,5,5,5,-0.0888381,-0.089712,14.6324,0.00160965,0.00106919,-0.00043233,0,0,0,3.5875,0.1575,-0.91,-0.04026,0.014762,-1.01309,-0.23856,0.0707,0.37366
0,0,0,5,5,5,5,-0.0899868,-0.0873673,14.7027,0.00156873,0.00104915,-0.000432298,0,0,0,3.395,0.07,-0.8925,-0.04026,0.014762,-1.01309,-0.23856,0.0707,0.37366
0,0,0,5,5,5,5,-0.0927603,-0.091831,14.777,-0.00284834,0.00197775,0.00374775,0,0,0,3.36,0.105,-0.9275,-0.044774,0.015738,-1.00894,-0.23856,0.0707,0.37366
0,0,0,5,5,5,5,-0.0958784,-0.0961694,14.851,-0.00277262,0.00192333,0.00374754,0,0,0,3.1325,0.105,-0.77,-0.044774,0.015738,-1.00894,-0.23856,0.0707,0.37366
0,0,0,5,5,5,5,-0.0949821,-0.090166,14.9169,0.00404729,-0.00086994,-0.00633404,0,0,0,3.15,-0.1575,-0.7875,-0.03782,0.012932,-1.01894,-0.23856,0.0707,0.37366
0,0,0,5,5,5,5,-0.0942683,-0.0839035,14.9822,0.00393799,-0.000857481,-0.00633386,0,0,0,3.0625,0.0875,-0.8925,-0.03782,0.012932,-1.01894,-0.23856,0.0707,0.37366
-0,0,0,5,5,5,5,-0.0916554,-0.0813623,15.0491,0.00134243,-0.00252165,0.00104319,0,0,0,3.2025,0.0175,-0.84,-0.040382,0.011224,-1.01162,-0.23856,0.0707,0.37366
-0,0,0,5,5,5,5,-0.0887533,-0.0791568,15.111,0.00130394,-0.002471,0.00104333,0,0,0,3.395,-0.14,-1.015,-0.040382,0.011224,-1.01162,-0.24318,0.07238,0.37016
0,0,0,5,5,5,5,-0.0927407,-0.0817185,15.1763,-0.00120255,0.00332149,0.001412,0,0,0,3.4475,-0.105,-1.085,-0.042944,0.01708,-1.01126,-0.24318,0.07238,0.37016
0,0,0,5,5,5,5,-0.0967074,-0.0840221,15.2413,-0.00116234,0.00325226,0.00141183,0,0,0,3.4125,0,-0.9625,-0.042944,0.01708,-1.01126,-0.24318,0.07238,0.37016
0,0,0,5,5,5,5,-0.0967292,-0.0845032,15.3041,-0.000303547,-4.5545e-05,0.00178066,0,0,0,3.43,-0.035,-0.9975,-0.04209,0.013786,-1.01089,-0.24318,0.07238,0.37016
0,0,0,5,5,5,5,-0.096625,-0.0846429,15.3665,-0.000301108,-4.37261e-05,0.00178066,0,0,0,3.5,0.1575,-0.91,-0.04209,0.013786,-1.01089,-0.24318,0.07238,0.37016
0,0,0,5,5,5,5,-0.0952504,-0.0848071,15.4282,-0.000419728,-0.00111888,-0.00744044,0,0,0,3.5175,0.1225,-0.9275,-0.042212,0.012688,-1.02004,-0.24318,0.07238,0.37016
0,0,0,5,5,5,5,-0.0939029,-0.0852102,15.4892,-0.000412692,-0.00109536,-0.00744042,0,0,0,3.5175,-0.0175,-1.015,-0.042212,0.012688,-1.02004,-0.24318,0.07238,0.37016
0,0,0,5,5,5,5,-0.0946032,-0.0858612,15.5502,-0.000279845,0.000724321,-0.00473559,0,0,0,3.535,-0.0875,-0.98,-0.04209,0.014518,-1.01736,-0.24318,0.07238,0.37016
0,0,0,5,5,5,5,-0.09535,-0.0864603,15.6084,-0.000269388,0.000711286,-0.00473562,0,0,0,3.5,-0.07,-0.945,-0.04209,0.014518,-1.01736,-0.24262,0.07378,0.37352
0,0,0,5,5,5,5,-0.0951482,-0.082361,15.6633,0.00269621,-1.79525e-05,-0.00461256,0,0,0,3.3775,0,-0.8575,-0.03904,0.013786,-1.01724,-0.24262,0.07378,0.37352
0,0,0,5,5,5,5,-0.0947387,-0.0783688,15.7176,0.00262653,-1.08045e-05,-0.00461245,0,0,0,3.5,0,-0.8925,-0.03904,0.013786,-1.01724,-0.24262,0.07378,0.37352
0,0,0,5,5,5,5,-0.0953397,-0.0789265,15.7745,-0.000279393,0.00058934,0.00423981,0,0,0,3.5175,-0.035,-0.8925,-0.041968,0.014396,-1.00845,-0.24262,0.07378,0.37352
0,0,0,5,5,5,5,-0.0959591,-0.079408,15.831,-0.000270989,0.000578529,0.00423978,0,0,0,3.5,0,-0.8225,-0.041968,0.014396,-1.00845,-0.24262,0.07378,0.37352
0,0,0,5,5,5,5,-0.0977203,-0.0808036,15.8877,-0.000611088,0.00128055,0.00497738,0,0,0,3.3425,-0.1575,-0.7875,-0.042334,0.015128,-1.00772,-0.24262,0.07378,0.37352
0,0,0,5,5,5,5,-0.0991003,-0.08186,15.9437,-0.00059265,0.00125647,0.00497732,0,0,0,3.535,0.0175,-0.945,-0.042334,0.015128,-1.00772,-0.24262,0.07378,0.37352
0,0,0,5,5,5,5,-0.101427,-0.0802287,15.9979,0.00132265,0.002315,-0.000309501,0,0,0,3.5525,0,-0.8575,-0.040382,0.016226,-1.01297,-0.24262,0.07378,0.37352
0,0,0,5,5,5,5,-0.103622,-0.0785956,16.0594,0.00129415,0.00227668,-0.00030953,0,0,0,3.605,0.035,-0.91,-0.040382,0.016226,-1.01297,-0.23982,0.06958,0.37562
0,0,0,5,5,5,5,-0.103494,-0.0733134,16.1179,0.00351018,0.000447023,0.00301021,0,0,0,3.5875,0.035,-0.8225,-0.038064,0.014396,-1.00967,-0.23982,0.06958,0.37562
0,0,0,5,5,5,5,-0.103377,-0.0681671,16.176,0.00342036,0.000449069,0.00301032,0,0,0,3.5875,0.035,-0.8225,-0.038064,0.014396,-1.00967,-0.23982,0.06958,0.37562
-0,0,0,5,5,5,5,-0.100494,-0.068676,16.2368,-0.000701268,-0.0021874,0.00337924,0,0,0,3.6925,0.07,-0.8575,-0.042212,0.011712,-1.00931,-0.23982,0.06958,0.37562
-0,0,0,5,5,5,5,-0.0976671,-0.0691805,16.2971,-0.000692464,-0.00213807,0.00337932,0,0,0,3.6925,0.07,-0.8575,-0.042212,0.011712,-1.00931,-0.23982,0.06958,0.37562
0,0,0,5,5,5,5,-0.0974607,-0.0697058,16.3569,-0.000318838,-0.00054682,-0.000555037,0,0,0,3.2375,-0.105,-0.8925,-0.041846,0.013298,-1.01321,-0.23982,0.06958,0.37562
0,0,0,5,5,5,5,-0.0972574,-0.0702183,16.4163,-0.000309893,-0.000543272,-0.000555042,0,0,0,3.2375,-0.105,-0.8925,-0.041846,0.013298,-1.01321,-0.23982,0.06958,0.37562
0,0,0,5,5,5,5,-0.0956346,-0.0714097,16.4751,-0.000775043,-0.00149196,-0.00055502,0,0,0,3.4475,-0.1925,-1.0325,-0.042334,0.012322,-1.01321,-0.23982,0.06958,0.37562
0,0,0,5,5,5,5,-0.0940419,-0.0725757,16.5338,-0.000754691,-0.00146417,-0.000555,0,0,0,3.4475,-0.1925,-1.0325,-0.042334,0.012322,-1.01321,-0.2394,0.06958,0.37044
0,0,0,5,5,5,5,-0.0929657,-0.0711101,16.5907,0.00104201,-0.000834747,0.00276467,0,0,0,3.4475,-0.1575,-0.9275,-0.040504,0.012932,-1.00992,-0.2394,0.06958,0.37044
0,0,0,5,5,5,5,-0.0919131,-0.0696854,16.6471,0.00101715,-0.000816377,0.00276473,0,0,0,3.4475,-0.1575,-0.9275,-0.040504,0.012932,-1.00992,-0.2394,0.06958,0.37044
0,0,0,5,5,5,5,-0.0901525,-0.0709026,16.7047,-0.000905378,-0.00151841,0.00608436,0,0,0,3.5175,-0.0875,-0.945,-0.042456,0.0122,-1.00662,-0.2394,0.06958,0.37044
0,0,0,5,5,5,5,-0.0884245,-0.0720939,16.7619,-0.000884586,-0.00148825,0.00608439,0,0,0,3.5175,-0.0875,-0.945,-0.042456,0.0122,-1.00662,-0.2394,0.06958,0.37044
-0,0,0,5,5,5,5,-0.0847111,-0.0715942,16.8173,-0.000164394,-0.00325534,-0.00461202,0,0,0,3.4475,0.07,-0.98,-0.041724,0.01037,-1.01724,-0.2394,0.06958,0.37044
0,0,0,5,5,5,5,-0.0829318,-0.0694078,16.8714,0.00125528,-0.00139238,0.00288793,0,0,0,3.465,0.0175,-0.9625,-0.04026,0.0122,-1.00979,-0.2394,0.06958,0.37044
0,0,0,5,5,5,5,-0.0810352,-0.066835,16.9251,0.00121037,-0.00135928,0.00288803,0,0,0,3.5525,0.28,-1.015,-0.04026,0.0122,-1.00979,-0.2394,0.06958,0.37044
0,0,0,5,5,5,5,-0.0813931,-0.0714838,16.9866,-0.00344643,-2.21337e-05,-0.000185792,0,0,0,3.465,0.245,-0.9975,-0.045018,0.013542,-1.01284,-0.24052,0.0672,0.37814
0,0,0,5,5,5,5,-0.0824911,-0.0755177,17.0475,-0.0027686,0.000813589,-0.0049809,0,0,0,3.535,0.0875,-0.84,-0.044408,0.014396,-1.0176,-0.24052,0.0672,0.37814
0,0,0,5,5,5,5,-0.0833418,-0.079236,17.1079,-0.0027037,0.000798742,-0.00498101,0,0,0,3.6575,0.21,-0.875,-0.044408,0.014396,-1.0176,-0.24052,0.0672,0.37814
0,0,0,5,5,5,5,-0.0839754,-0.0823471,17.1673,-0.00216346,0.000543431,-0.000800854,0,0,0,3.5875,0.0875,-0.8575,-0.04392,0.014152,-1.01345,-0.24052,0.0672,0.37814
0,0,0,5,5,5,5,-0.0843101,-0.0854963,17.2263,-0.0021085,0.000537588,-0.000800943,0,0,0,3.745,0.0175,-0.84,-0.04392,0.014152,-1.01345,-0.24052,0.0672,0.37814
0,0,0,5,5,5,5,-0.0854651,-0.0895112,17.2851,-0.00252437,0.00112806,-0.00203057,0,0,0,3.6925,-0.07,-1.0675,-0.044408,0.014762,-1.01467,-0.24052,0.0672,0.37814
0,0,0,5,5,5,5,-0.0869027,-0.0935092,17.3438,-0.00245459,0.00110297,-0.00203071,0,0,0,3.5175,-0.1225,-0.8925,-0.044408,0.014762,-1.01467,-0.24052,0.0672,0.37814
0,0,0,5,5,5,5,-0.0877889,-0.0915677,17.3983,0.00152055,0.00108751,0.00239546,0,0,0,3.5525,-0.0875,-0.84,-0.040382,0.014762,-1.01028,-0.24052,0.0672,0.37814
0,0,0,5,5,5,5,-0.0887235,-0.0894639,17.4475,0.00148383,0.00107119,0.0023955,0,0,0,3.5175,0.035,-0.7875,-0.040382,0.014762,-1.01028,-0.23982,0.07028,0.38542
0,0,0,5,5,5,5,-0.0910094,-0.0864488,17.4954,0.00252458,0.00237469,-0.00227653,0,0,0,3.5175,-0.1925,-0.9275,-0.039284,0.016104,-1.01492,-0.23982,0.07028,0.38542
0,0,0,5,5,5,5,-0.0938175,-0.0835932,17.543,0.00247474,0.00232568,-0.00227653,0,0,0,3.2025,-0.245,-0.91,-0.039284,0.016104,-1.01492,-0.23982,0.07028,0.38542
0,0,0,5,5,5,5,-0.092769,-0.0861928,17.5929,-0.0016104,-0.00156408,0.00214957,0,0,0,3.15,-0.2975,-0.91,-0.043432,0.0122,-1.01053,-0.23982,0.07028,0.38542
0,0,0,5,5,5,5,-0.0916115,-0.088431,17.6424,-0.00157134,-0.00154387,0.00214955,0,0,0,3.22,-0.1225,-0.9625,-0.043432,0.0122,-1.01053,-0.23982,0.07028,0.38542
0,0,0,5,5,5,5,-0.0919531,-0.0968679,17.6956,-0.0055546,-0.000694947,0.00423942,0,0,0,3.2025,-0.21,-0.9625,-0.04758,0.013054,-1.00845,-0.23982,0.07028,0.38542
0,0,0,5,5,5,5,-0.0913984,-0.104941,17.7484,-0.0054137,-0.000685265,0.00423919,0,0,0,3.6925,-0.1225,-1.015,-0.04758,0.013054,-1.00845,-0.23982,0.07028,0.38542
0,0,0,5,5,5,5,-0.0903469,-0.103538,17.7946,0.00100056,-0.000422659,-0.00289175,0,0,0,3.6925,-0.105,-1.0675,-0.041114,0.013298,-1.01553,-0.23982,0.07028,0.38542
0,0,0,5,5,5,5,-0.089595,-0.10207,17.8394,0.000974929,-0.000409537,-0.00289168,0,0,0,3.535,-0.0525,-1.0325,-0.041114,0.013298,-1.01553,-0.24262,0.07056,0.36946
0,0,0,5,5,5,5,-0.0923843,-0.100906,17.8847,0.0011976,0.00271708,-0.00338352,0,0,0,3.535,-0.105,-0.8925,-0.04087,0.01647,-1.01602,-0.24262,0.07056,0.36946
0,0,0,5,5,5,5,-0.0952145,-0.0995254,17.9299,0.0011735,0.00266768,-0.00338356,0,0,0,3.4825,0.035,-0.8225,-0.04087,0.01647,-1.01602,-0.24262,0.07056,0.36946
0,0,0,5,5,5,5,-0.0975198,-0.0984664,17.9747,0.000790558,0.00213894,-0.00338359,0,0,0,3.465,0.1225,-0.9275,-0.041236,0.015982,-1.01602,-0.24262,0.07056,0.36946
0,0,0,5,5,5,5,-0.0999377,-0.0976369,18.019,0.00077608,0.00209674,-0.00338364,0,0,0,3.3775,0,-1.015,-0.041236,0.015982,-1.01602,-0.24262,0.07056,0.36946
0,0,0,5,5,5,5,-0.101555,-0.0950464,18.0615,0.00206721,0.00133575,-0.000432849,0,0,0,3.255,-0.1575,-0.9975,-0.039894,0.01525,-1.01309,-0.24262,0.07056,0.36946
0,0,0,5,5,5,5,-0.102959,-0.0924869,18.104,0.00202254,0.00131125,-0.000432819,0,0,0,3.36,-0.14,-0.8225,-0.039894,0.01525,-1.01309,-0.24262,0.07056,0.36946
0,0,0,5,5,5,5,-0.107242,-0.0946417,18.1499,-0.00121997,0.00343477,-0.00485916,0,0,0,3.325,0.105,-0.77,-0.043188,0.017446,-1.01748,-0.24262,0.07056,0.36946
0,0,0,5,5,5,5,-0.111249,-0.0967285,18.1952,-0.00118355,0.00336484,-0.00485936,0,0,0,3.43,0.105,-0.875,-0.043188,0.017446,-1.01748,-0.24248,0.0707,0.36932
0,0,0,5,5,5,5,-0.110343,-0.0948457,18.2365,0.00109182,-0.000649536,0.00387007,0,0,0,3.465,0.07,-0.9625,-0.04087,0.01342,-1.00882,-0.24248,0.0707,0.36932
0,0,0,5,5,5,5,-0.109054,-0.0928939,18.2777,0.00105776,-0.000627029,0.00387017,0,0,0,3.6925,0.14,-0.9275,-0.04087,0.01342,-1.00882,-0.24248,0.0707,0.36932
0,0,0,5,5,5,5,-0.106528,-0.0892043,18.3169,0.0023297,-0.00155996,0.000427797,0,0,0,3.6925,-0.035,-0.91,-0.039528,0.012444,-1.01223,-0.24248,0.0707,0.36932
0,0,0,5,5,5,5,-0.104496,-0.0854666,18.3558,0.00226447,-0.00152449,0.000427962,0,0,0,3.4475,0.0525,-0.98,-0.039528,0.012444,-1.01223,-0.24248,0.0707,0.36932
0,0,0,5,5,5,5,-0.135894,-0.0665013,18.3909,0.0161473,0.0290698,0.00350096,0,0,0,3.3425,0.035,-0.91,-0.025254,0.043554,-1.00918,-0.24248,0.0707,0.36932
0,0,0,5,5,5,5,-0.166307,-0.0482541,18.4258,0.0158288,0.028539,0.00349988,0,0,0,3.57,-0.1575,-0.875,-0.025254,0.043554,-1.00918,-0.24248,0.0707,0.36932
-0,0,0,5,5,5,5,-0.120436,-0.0224717,18.4419,0.0134351,-0.0401505,-0.0445707,0,0,0,3.5875,0.0875,-0.805,-0.027206,-0.025864,-1.05689,-0.24248,0.0707,0.36932
-0,0,0,5,5,5,5,-0.0752138,0.00254929,18.4577,0.0129984,-0.0393612,-0.0445693,0,0,0,3.7625,0.105,-0.9275,-0.027206,-0.025864,-1.05689,-0.24248,0.0707,0.36932
0,0,0,5,5,5,5,-0.178471,0.04625,18.4933,0.0375047,0.0870697,0.0891944,0,0,0,3.6225,0.0525,-0.9975,-0.00183,0.102236,-0.92415,-0.2422,0.0672,0.37436
-0,0,0,5,5,5,5,-0.094852,0.000246389,18.551,-0.0412656,-0.0791509,-0.0138327,0,0,0,3.4825,-0.0525,-0.9975,-0.08174,-0.06527,-1.02639,-0.2422,0.0672,0.37436
-0,0,0,5,5,5,5,-0.0129684,-0.0449293,18.6083,-0.0404771,-0.0777218,-0.0138316,0,0,0,3.3775,-0.105,-0.875,-0.08174,-0.06527,-1.02639,-0.2422,0.0672,0.37436
0,0,0,5,5,5,5,-0.0770313,-0.0394456,18.6603,0.0106942,0.0570872,0.00510164,0,0,0,3.4125,-0.14,-0.91,-0.030256,0.070516,-1.0076,-0.2422,0.0672,0.37436
0,0,0,5,5,5,5,-0.139787,-0.0335883,18.712,0.0105919,0.0559919,0.00509963,0,0,0,3.4475,0.0525,-0.91,-0.030256,0.070516,-1.0076,-0.2422,0.0672,0.37436
-0,0,0,5,5,5,5,-0.129347,-0.0046607,18.7357,0.0181051,-0.00672116,0.0328866,0,0,0,3.535,0.14,-0.98,-0.022204,0.007686,-0.980026,-0.2422,0.0672,0.37436
-0,0,0,5,5,5,5,-0.119328,0.023836,18.7593,0.0176077,-0.00654631,0.0328869,0,0,0,3.4475,0.3325,-0.8925,-0.022204,0.007686,-0.980026,-0.2422,0.0672,0.37436
-0,0,0,5,5,5,5,-0.0848094,-0.0708387,18.8547,-0.0735549,-0.0406278,-0.054652,0,0,0,3.3425,0.21,-0.84,-0.115412,-0.026962,-1.06689,-0.2422,0.0672,0.37436
-0,0,0,5,5,5,5,-0.0502493,-0.163908,18.9419,-0.0719306,-0.0400246,-0.0546547,0,0,0,3.71,0,-0.875,-0.115412,-0.026962,-1.06689,-0.24318,0.0714,0.37562
0,0,0,5,5,5,5,-0.1398,-0.0256939,18.9085,0.0973164,0.0844472,0.0819425,0,0,0,3.7275,-0.035,-0.9625,0.056974,0.098942,-0.931348,-0.24318,0.0714,0.37562
0,0,0,5,5,5,5,-0.22818,0.109591,18.8751,0.0949553,0.0829047,0.0819358,0,0,0,3.57,0.0875,-0.9975,0.056974,0.098942,-0.931348,-0.24318,0.0714,0.37562
0,0,0,5,5,5,5,-0.227998,0.109627,18.8749,-0.128944,-0.130814,-0.103716,1,0,0,3.5525,0,-0.9975,-0.167872,-0.114558,-1.11557,-0.24318,0.0714,0.37562
0,0,0,5,5,5,5,-0.227941,0.109634,18.8748,-0.128944,-0.130813,-0.103716,1,0,0,3.4825,-0.0175,-0.9975,-0.167872,-0.114558,-1.11557,-0.24318,0.0714,0.37562
0,0,0,5,5,5,5,-0.228102,0.109909,18.8747,0.130059,0.142992,0.130623,1,0,0,3.36,0.14,-0.9975,0.092232,0.158966,-0.883036,-0.24318,0.0714,0.37562
0,0,0,5,5,5,5,-0.228139,0.109974,18.8745,0.130058,0.142992,0.130623,1,0,0,3.43,0.0175,-1.05,0.092232,0.158966,-0.883036,-0.24318,0.0714,0.37562
0,0,0,5,5,5,5,-0.228425,0.109861,18.8742,-0.142068,-0.229256,-0.160887,1,0,0,3.29,-0.0875,-1.1025,-0.181048,-0.21289,-1.1723,-0.24318,0.0714,0.37562
0,0,0,5,5,5,5,-0.228337,0.109628,18.8741,-0.142064,-0.229254,-0.160887,1,0,0,3.5,-0.1575,-1.015,-0.181048,-0.21289,-1.1723,-0.24248,0.07182,0.37492
0,0,0,5,5,5,5,-0.228404,0.109486,18.8742,0.0348217,0.141888,0.156811,1,0,0,3.4125,-0.105,-0.8575,-0.003416,0.157868,-0.85705,-0.24248,0.07182,0.37492
0,0,0,5,5,5,5,-0.228159,0.109492,18.8741,0.0348216,0.141892,0.156811,1,0,0,3.5875,-0.0175,-0.98,-0.003416,0.157868,-0.85705,-0.24248,0.07182,0.37492
0,0,0,5,5,5,5,-0.227946,0.109559,18.874,-0.149716,-0.191876,-0.0777742,1,0,0,3.57,0.0175,-0.98,-0.188734,-0.175558,-1.08983,-0.24248,0.07182,0.37492
0,0,0,5,5,5,5,-0.227826,0.109863,18.8737,-0.149722,-0.191874,-0.0777742,1,0,0,3.5175,0.1575,-1.085,-0.188734,-0.175558,-1.08983,-0.24248,0.07182,0.37492
0,0,0,5,5,5,5,-0.227488,0.110049,18.8737,0.110619,0.143736,0.160623,1,0,0,3.64,0.0875,-0.9275,0.072712,0.159698,-0.853268,-0.24248,0.07182,0.37492
0,0,0,5,5,5,5,-0.22743,0.110534,18.8738,0.11061,0.143737,0.160623,1,0,0,3.4825,0.2625,-0.8925,0.072712,0.159698,-0.853268,-0.24248,0.07182,0.37492
-0,0,0,5,5,5,5,-0.0905457,0.0758422,18.9019,-0.0412486,-0.135865,-0.0728487,0,0,0,3.29,0.1575,-0.9275,-0.080398,-0.122,-1.08495,-0.24248,0.07182,0.37492
-0,0,0,5,5,5,5,0.0439728,0.0418113,18.9306,-0.0406547,-0.133517,-0.0728471,0,0,0,3.395,0.1925,-0.945,-0.080398,-0.122,-1.08495,-0.24024,0.07168,0.3724
0,0,0,5,5,5,5,-0.142785,0.150445,18.9306,0.0920555,0.171594,0.0448086,0,0,0,3.3775,0.0525,-0.98,0.054778,0.18605,-0.968192,-0.24024,0.07168,0.3724
0,0,0,5,5,5,5,-0.326185,0.256495,18.9303,0.0902046,0.168393,0.0447889,0,0,0,3.3775,-0.21,-0.91,0.054778,0.18605,-0.968192,-0.24024,0.07168,0.3724
-0,0,0,5,5,5,5,-0.266573,0.186614,18.9941,-0.0575172,-0.0623634,-0.0574941,0,0,0,3.4475,-0.2975,-0.8575,-0.094794,-0.045506,-1.0697,-0.24024,0.07168,0.3724
-0,0,0,5,5,5,5,-0.208197,0.118355,19.0572,-0.0563259,-0.0613446,-0.0574867,0,0,0,3.325,-0.28,-0.91,-0.094794,-0.045506,-1.0697,-0.24024,0.07168,0.3724
0,0,0,5,5,5,5,-0.327268,0.122386,19.1095,0.0143084,0.101326,0.0565996,0,0,0,3.3775,-0.2975,-0.875,-0.02379,0.119072,-0.95648,-0.24024,0.07168,0.3724
0,0,0,5,5,5,5,-0.444114,0.127069,19.1615,0.0142267,0.0992869,0.0565857,0,0,0,3.3425,-0.035,-0.8925,-0.02379,0.119072,-0.95648,-0.24024,0.07168,0.3724
-0,0,0,5,5,5,5,-0.408453,0.0947813,19.2072,-0.0261505,-0.0345522,0.0131906,0,0,0,3.29,0.14,-1.0675,-0.064904,-0.01525,-0.999546,-0.24024,0.07168,0.3724
-0,0,0,5,5,5,5,-0.373509,0.0626894,19.249,-0.0255904,-0.0339424,0.0131955,0,0,0,3.2725,-0.07,-1.1025,-0.064904,-0.01525,-0.999546,-0.2415,0.0735,0.37142
0,0,0,5,5,5,5,-0.384288,0.0833948,19.2667,0.0155964,0.0109343,0.00126783,0,0,0,3.185,-0.105,-1.1025,-0.02318,0.029768,-1.01138,-0.2415,0.0735,0.37142
0,0,0,5,5,5,5,-0.394494,0.103256,19.2843,0.0152497,0.0107561,0.00126605,0,0,0,3.4125,-0.315,-1.085,-0.02318,0.029768,-1.01138,-0.2415,0.0735,0.37142
-0,0,0,5,5,5,5,-0.355935,0.162568,19.2669,0.0381472,-0.030094,-0.0067236,0,0,0,3.3775,-0.1925,-1.2075,0.000854,-0.011712,-1.01931,-0.2415,0.0735,0.37142
-0,0,0,5,5,5,5,-0.317953,0.220449,19.2496,0.037137,-0.0294311,-0.00672307,0,0,0,3.5525,-0.105,-1.2775,0.000854,-0.011712,-1.01931,-0.2415,0.0735,0.37142
-0,0,0,5,5,5,5,-0.283413,0.14906,19.313,-0.0557684,-0.0383541,-0.0442152,0,0,0,3.5175,0.0525,-1.3125,-0.093696,-0.021228,-1.05652,-0.2415,0.0735,0.37142
-0,0,0,5,5,5,5,-0.249772,0.0788957,19.3764,-0.0545438,-0.037767,-0.04421,0,0,0,3.3075,-0.2275,-1.015,-0.093696,-0.021228,-1.05652,-0.2415,0.0735,0.37142
0,0,0,5,5,5,5,-0.287632,0.146657,19.3684,0.0491157,0.0376572,0.0422173,0,0,0,3.3075,-0.0875,-0.9625,0.01159,0.054778,-0.970754,-0.2415,0.0735,0.37142
0,0,0,5,5,5,5,-0.324405,0.2127,19.3603,0.047963,0.0370154,0.0422103,0,0,0,3.5875,-0.175,-1.085,0.01159,0.054778,-0.970754,-0.2415,0.0735,0.37142
-0,0,0,5,5,5,5,-0.269134,0.0608276,19.469,-0.117523,-0.0646064,-0.0390473,0,0,0,3.7275,-0.0175,-1.1375,-0.157258,-0.047702,-1.0514,-0.2415,0.0742,0.38444
-0,0,0,5,5,5,5,-0.214916,-0.0870677,19.5769,-0.114941,-0.0636602,-0.0390439,0,0,0,3.57,0.175,-0.98,-0.157258,-0.047702,-1.0514,-0.2415,0.0742,0.38444
0,0,0,5,5,5,5,-0.284162,0.0985972,19.5011,0.13135,0.0739894,0.0567274,0,0,0,3.535,0.175,-0.945,0.09333,0.091012,-0.956358,-0.2415,0.0742,0.38444
0,0,0,5,5,5,5,-0.352505,0.280025,19.4255,0.128183,0.0727967,0.0567103,0,0,0,3.535,0.175,-0.945,0.09333,0.091012,-0.956358,-0.2415,0.0742,0.38444
-0,0,0,5,5,5,5,-0.228055,0.121951,19.5228,-0.132803,-0.134357,-0.060316,0,0,0,3.6575,0.0175,-0.9275,-0.171532,-0.118096,-1.0725,-0.2415,0.0742,0.38444
0,0,0,5,5,5,5,-0.340697,0.243818,19.4932,0.0909118,0.105,0.0691322,0,0,0,3.5875,0.1575,-0.875,0.055266,0.122976,-0.944036,-0.2415,0.0742,0.38444
0,0,0,5,5,5,5,-0.451527,0.362299,19.4633,0.0888439,0.103066,0.0691079,0,0,0,3.535,-0.28,-0.98,0.055266,0.122976,-0.944036,-0.2415,0.0742,0.38444
0,0,0,5,5,5,5,-0.451066,0.361945,19.4629,0.18859,-0.143622,-0.0794138,1,0,0,3.71,-0.2275,-1.1375,0.155428,-0.123464,-1.09141,-0.2415,0.0742,0.38444
0,0,0,5,5,5,5,-0.450635,0.36195,19.4628,0.18859,-0.143615,-0.0794137,1,0,0,3.6925,-0.0175,-0.9975,0.155428,-0.123464,-1.09141,-0.238,0.07238,0.38864
0,0,0,5,5,5,5,-0.642122,-0.0398622,19.7841,-0.25353,0.131614,0.0990953,0,0,0,3.675,0.1225,-0.9625,-0.295606,0.154818,-0.914268,-0.238,0.07238,0.38864
0,0,0,5,5,5,5,-0.829763,-0.431797,20.1047,-0.246689,0.12834,0.0990251,0,0,0,3.745,0.07,-1.0325,-0.295606,0.154818,-0.914268,-0.238,0.07238,0.38864
0,0,0,5,5,5,5,-0.829018,-0.431762,20.1046,0.34944,-0.120541,-0.0898236,1,0,0,3.8675,0,-0.9975,0.303048,-0.093818,-1.10166,-0.238,0.07238,0.38864
0,0,0,5,5,5,5,-0.828241,-0.431787,20.1044,0.349441,-0.120528,-0.0898234,1,0,0,3.885,-0.035,-1.015,0.303048,-0.093818,-1.10166,-0.238,0.07238,0.38864
0,0,0,5,5,5,5,-0.893827,-0.71895,20.3379,-0.193691,0.0337959,0.046336,0,0,0,3.5875,-0.1225,-1.0325,-0.247416,0.061488,-0.966484,-0.238,0.07238,0.38864
0,0,0,5,5,5,5,-0.957949,-0.999009,20.5699,-0.188804,0.0326782,0.0462447,0,0,0,3.5175,-0.1575,-1.0675,-0.247416,0.061488,-0.966484,-0.238,0.07238,0.38864
0,0,0,5,5,5,5,-0.93365,-0.592612,20.3461,0.291383,0.0105071,0.0358996,0,0,0,3.395,-0.035,-0.9975,0.241926,0.038918,-0.976854,-0.238,0.07238,0.38864
0,0,0,5,5,5,5,-0.910787,-0.194898,20.1261,0.284442,0.0109053,0.0359537,0,0,0,3.29,-0.245,-0.98,0.241926,0.038918,-0.976854,-0.23828,0.07084,0.38304
0,0,0,5,5,5,5,-0.911135,-0.194953,20.1259,-0.374981,-0.0714142,-0.0665855,1,0,0,3.255,-0.0525,-1.015,-0.42029,-0.04331,-1.0786,-0.23828,0.07084,0.38304
0,0,0,5,5,5,5,-0.911171,-0.194767,20.1259,-0.374985,-0.0714148,-0.0665855,1,0,0,3.43,0.0875,-0.91,-0.42029,-0.04331,-1.0786,-0.23828,0.07084,0.38304
0,0,0,5,5,5,5,-0.989007,0.287391,19.8674,0.336281,0.101868,0.12039,0,0,0,3.64,0.14,-0.8925,0.302438,0.13115,-0.89304,-0.23828,0.07084,0.38304
0,0,0,5,5,5,5,-1.06636,0.759289,19.6082,0.328045,0.10052,0.12029,0,0,0,3.8325,0.0525,-0.9975,0.302438,0.13115,-0.89304,-0.23828,0.07084,0.38304
0,0,0,5,5,5,5,-1.06596,0.759205,19.6082,-0.360169,-0.182807,-0.117246,1,0,0,3.675,-0.07,-0.945,-0.388692,-0.15189,-1.12874,-0.23828,0.07084,0.38304
0,0,0,5,5,5,5,-1.06615,0.758676,19.6083,-0.36016,-0.182811,-0.117246,1,0,0,3.3425,-0.3325,-0.875,-0.388692,-0.15189,-1.12874,-0.23828,0.07084,0.38304
0,0,0,5,5,5,5,-1.06637,0.758356,19.6084,0.224191,0.148515,0.157667,1,0,0,3.325,-0.21,-0.875,0.198128,0.179096,-0.855952,-0.23828,0.07084,0.38304
0,0,0,5,5,5,5,-1.06722,0.757823,19.6083,0.224201,0.148501,0.157667,1,0,0,2.975,-0.3325,-0.9975,0.198128,0.179096,-0.855952,-0.2394,0.07126,0.38766
0,0,0,5,5,5,5,-1.06776,0.757199,19.6081,-0.202203,-0.234987,-0.180319,1,0,0,3.15,-0.385,-1.0325,-0.230092,-0.203984,-1.19133,-0.2394,0.07126,0.38766
0,0,0,5,5,5,5,-1.0682,0.75682,19.6082,-0.202196,-0.234994,-0.180319,1,0,0,3.2025,-0.245,-0.8575,-0.230092,-0.203984,-1.19133,-0.2394,0.07126,0.38766
0,0,0,5,5,5,5,-1.27954,0.864574,19.6036,0.0891895,0.183511,0.103713,0,0,0,3.3775,-0.2275,-0.8925,0.064416,0.21777,-0.909388,-0.2394,0.07126,0.38766
0,0,0,5,5,5,5,-1.48699,0.970478,19.5986,0.0873414,0.179892,0.103596,0,0,0,3.465,-0.1225,-0.945,0.064416,0.21777,-0.909388,-0.2394,0.07126,0.38766
-0,0,0,5,5,5,5,-1.30922,0.868966,19.6509,-0.0959098,-0.181433,-0.060313,0,0,0,3.395,-0.07,-0.98,-0.12139,-0.146278,-1.07214,-0.2394,0.07126,0.38766
-0,0,0,5,5,5,5,-1.13404,0.769561,19.7024,-0.0941751,-0.178377,-0.060223,0,0,0,3.71,0,-1.015,-0.12139,-0.146278,-1.07214,-0.2394,0.07126,0.38766
0,0,0,5,5,5,5,-1.24475,0.682976,19.8037,-0.0523307,0.0954528,-0.00270409,0,0,0,3.8675,0.07,-0.9625,-0.080886,0.129198,-1.01504,-0.2394,0.07126,0.38766
0,0,0,5,5,5,5,-1.35353,0.599743,19.8974,-0.0508781,0.0935545,-0.00273087,0,0,0,3.5,0.1225,-0.77,-0.080886,0.129198,-1.01504,-0.23954,0.0763,0.39326
-0,0,0,5,5,5,5,-1.28303,0.800024,19.7705,0.134901,-0.048347,0.0327869,0,0,0,3.325,-0.0175,-0.77,0.10919,-0.013786,-0.979782,-0.23954,0.0763,0.39326
-0,0,0,5,5,5,5,-1.21453,0.995262,19.6444,0.131494,-0.0471508,0.0327595,0,0,0,3.2375,-0.105,-0.9625,0.10919,-0.013786,-0.979782,-0.23954,0.0763,0.39326
0,0,0,5,5,5,5,-1.18593,0.605819,19.9027,-0.309749,-0.0626523,-0.0488958,0,0,0,3.325,0.14,-0.875,-0.340746,-0.029768,-1.06091,-0.23954,0.0763,0.39326
0,0,0,5,5,5,5,-1.15749,0.225526,20.1582,-0.303112,-0.062157,-0.0488375,0,0,0,3.255,0.07,-0.875,-0.340746,-0.029768,-1.06091,-0.23954,0.0763,0.39326
0,0,0,5,5,5,5,-1.23428,0.77516,19.8388,0.410622,0.1131,0.0880154,0,0,0,3.2375,0.0175,-0.945,0.385642,0.146644,-0.925004,-0.23954,0.0763,0.39326
0,0,0,5,5,5,5,-1.31049,1.31376,19.5188,0.401223,0.111774,0.0878146,0,0,0,3.6575,0.035,-0.9275,0.385642,0.146644,-0.925004,-0.23954,0.0763,0.39326
0,0,0,5,5,5,5,-1.31003,1.31388,19.5186,-0.507249,-0.185474,-0.0511171,1,0,0,3.71,0.0525,-1.015,-0.526674,-0.150304,-1.06286,-0.23954,0.0763,0.39326
0,0,0,5,5,5,5,-1.30989,1.31404,19.5185,-0.507252,-0.185472,-0.0511171,1,0,0,3.535,0.07,-1.015,-0.526674,-0.150304,-1.06286,-0.23884,0.07952,0.38304
0,0,0,5,5,5,5,-1.41572,1.88318,19.1742,0.439519,0.147072,0.0759366,0,0,0,3.5175,-0.0175,-0.945,0.434076,0.183732,-0.936472,-0.23884,0.07952,0.38304
0,0,0,5,5,5,5,-1.52155,2.4409,18.8287,0.429791,0.145236,0.0755222,0,0,0,3.4125,-0.1225,-0.9625,0.434076,0.183732,-0.936472,-0.23884,0.07952,0.38304
0,0,0,5,5,5,5,-1.52187,2.44075,18.8287,-0.462883,-0.155079,-0.0126319,1,0,0,3.2725,-0.105,-0.945,-0.46238,-0.116266,-1.02395,-0.23884,0.07952,0.38304
0,0,0,5,5,5,5,-1.52249,2.44079,18.8288,-0.462884,-0.15509,-0.0126323,1,0,0,3.0975,0,-0.8575,-0.46238,-0.116266,-1.02395,-0.23884,0.07952,0.38304
0,0,0,5,5,5,5,-1.58098,2.8688,18.5512,0.310929,0.0838794,0.0708451,0,0,0,3.08,-0.1225,-0.8575,0.322202,0.123464,-0.940742,-0.23884,0.07952,0.38304
0,0,0,5,5,5,5,-1.63947,3.28796,18.2735,0.303624,0.0828716,0.0704238,0,0,0,3.15,0.07,-0.875,0.322202,0.123464,-0.940742,-0.23884,0.07952,0.38304
0,0,0,5,5,5,5,-1.61327,2.95124,18.4726,-0.261369,-0.0527304,-0.0590772,0,0,0,3.3075,0.0175,-0.9275,-0.251076,-0.012444,-1.06957,-0.23884,0.07952,0.38304
0,0,0,5,5,5,5,-1.58681,2.62239,18.6696,-0.255637,-0.052277,-0.0587854,0,0,0,3.5,-0.07,-1.0325,-0.251076,-0.012444,-1.06957,-0.23884,0.07952,0.38304
0,0,0,5,5,5,5,-1.57241,2.72525,18.6028,0.0636567,-0.0073255,0.0849876,0,0,0,3.5,-0.07,-0.9975,0.07137,0.032208,-0.926834,-0.23842,0.07098,0.38458
-0,0,0,5,5,5,5,-1.52032,2.98776,18.4237,0.207172,-0.0291271,-0.0634921,0,0,0,3.675,-0.0875,-0.84,0.220088,0.009516,-1.07397,-0.23842,0.07098,0.38458
-0,0,0,5,5,5,5,-1.47022,3.24413,18.2455,0.202704,-0.028248,-0.0637124,0,0,0,3.465,-0.07,-0.9975,0.220088,0.009516,-1.07397,-0.23842,0.07098,0.38458
0,0,0,5,5,5,5,-1.48916,2.64879,18.6357,-0.434074,-0.0311564,0.0778349,0,0,0,3.36,-0.1225,-0.9275,-0.429806,0.006954,-0.934032,-0.23842,0.07098,0.38458
0,0,0,5,5,5,5,-1.50785,2.06729,19.0224,-0.423933,-0.0314933,0.0782438,0,0,0,3.15,0.0175,-0.945,-0.429806,0.006954,-0.934032,-0.23842,0.07098,0.38458
-0,0,0,5,5,5,5,-1.40611,2.37749,18.8108,0.236884,-0.0752674,-0.0479431,0,0,0,3.3425,0.0525,-0.875,0.239242,-0.038552,-1.05908,-0.23842,0.07098,0.38458
-0,0,0,5,5,5,5,-1.30714,2.68063,18.601,0.231599,-0.0735366,-0.0481357,0,0,0,3.3075,0.21,-0.91,0.239242,-0.038552,-1.05908,-0.23842,0.07098,0.38458
0,0,0,5,5,5,5,-1.4039,2.2898,18.8752,-0.270976,0.0555675,0.0578558,0,0,0,3.4475,0.21,-0.84,-0.272304,0.09211,-0.954162,-0.23842,0.07098,0.38458
0,0,0,5,5,5,5,-1.49907,1.90685,19.1361,-0.264297,0.0539018,0.0580584,0,0,0,3.3775,0.07,-0.875,-0.272304,0.09211,-0.954162,-0.2429,0.0777,0.38486
-0,0,0,5,5,5,5,-1.35128,2.13806,18.9576,0.166832,-0.125609,-0.0402557,0,0,0,3.29,-0.035,-0.7875,0.1647,-0.089792,-1.05164,-0.2429,0.0777,0.38486
-0,0,0,5,5,5,5,-1.20654,2.36362,18.7811,0.162899,-0.123082,-0.0403539,0,0,0,3.465,0.0175,-0.8225,0.1647,-0.089792,-1.05164,-0.2429,0.0777,0.38486
0,0,0,5,5,5,5,-1.34754,2.22387,18.8902,-0.0916066,0.121765,-0.00563967,0,0,0,3.5175,0.0175,-0.98,-0.09333,0.157258,-1.01724,-0.2429,0.0777,0.38486
0,0,0,5,5,5,5,-1.48594,2.08775,18.9992,-0.0892325,0.119349,-0.00561,0,0,0,3.395,0.07,-1.05,-0.09333,0.157258,-1.01724,-0.2429,0.0777,0.38486
-0,0,0,5,5,5,5,-1.37254,2.08271,18.9784,-0.0126086,-0.106318,-0.00629516,0,0,0,3.4475,0.14,-0.945,-0.01647,-0.07015,-1.01797,-0.2429,0.0777,0.38486
-0,0,0,5,5,5,5,-1.26124,2.07706,18.9581,-0.01251,-0.104377,-0.00624697,0,0,0,3.4475,-0.1575,-0.6825,-0.01647,-0.07015,-1.01797,-0.2429,0.0777,0.38486
0,0,0,5,5,5,5,-1.35866,2.09021,18.9646,0.0181181,0.0938459,-0.013794,0,0,0,3.5525,-0.14,-0.7,0.014518,0.129564,-1.02541,-0.2429,0.0777,0.38486
0,0,0,5,5,5,5,-1.45403,2.10324,18.9725,0.0178908,0.0921832,-0.0138432,0,0,0,3.71,-0.07,-0.805,0.014518,0.129564,-1.02541,-0.24178,0.077,0.38766
-0,0,0,5,5,5,5,-1.4077,1.92823,19.076,-0.121195,-0.0538081,0.102225,0,0,0,3.4475,-0.1225,-0.8225,-0.128222,-0.01708,-0.910364,-0.24178,0.077,0.38766
-0,0,0,5,5,5,5,-1.36192,1.75763,19.1784,-0.118219,-0.053012,0.10234,0,0,0,3.465,0.035,-0.875,-0.128222,-0.01708,-0.910364,-0.24178,0.077,0.38766
-0,0,0,5,5,5,5,-1.30236,1.84987,19.109,0.0685962,-0.049896,-0.0651425,0,0,0,3.36,-0.0875,-0.945,0.061,-0.015006,-1.07653,-0.24178,0.077,0.38766
-0,0,0,5,5,5,5,-1.2444,1.94001,19.04,0.067024,-0.0488839,-0.065172,0,0,0,3.22,0.035,-1.085,0.061,-0.015006,-1.07653,-0.24178,0.077,0.38766
0,0,0,5,5,5,5,-1.24494,1.93998,19.0398,-0.077422,0.0666385,0.162774,1,0,0,3.15,-0.035,-1.085,-0.084058,0.100406,-0.85034,-0.24178,0.077,0.38766
0,0,0,5,5,5,5,-1.24546,1.94001,19.0395,-0.0774225,0.0666295,0.162774,1,0,0,3.1675,0,-1.1025,-0.084058,0.100406,-0.85034,-0.24178,0.077,0.38766
0,0,0,5,5,5,5,-1.24581,1.94013,19.0394,-0.0522772,-0.212925,-0.178162,1,0,0,3.255,0.0525,-0.9625,-0.058804,-0.178852,-1.18865,-0.24178,0.077,0.38766
0,0,0,5,5,5,5,-1.24554,1.94037,19.0392,-0.0522814,-0.21292,-0.178162,1,0,0,3.605,0.1225,-1.05,-0.058804,-0.178852,-1.18865,-0.2422,0.07644,0.38458
0,0,0,5,5,5,5,-1.2453,1.94032,19.039,-0.00526542,0.215871,0.177528,1,0,0,3.5875,-0.0525,-1.05,-0.01159,0.24949,-0.8357,-0.2422,0.07644,0.38458
0,0,0,5,5,5,5,-1.24485,1.94023,19.0386,-0.00526385,0.215879,0.177528,1,0,0,3.71,-0.07,-1.12,-0.01159,0.24949,-0.8357,-0.2422,0.07644,0.38458
0,0,0,5,5,5,5,-1.24474,1.94017,19.0385,-0.22661,-0.352985,-0.189227,1,0,0,3.5175,-0.0525,-1.0325,-0.233874,-0.318786,-1.19963,-0.2422,0.07644,0.38458
0,0,0,5,5,5,5,-1.24453,1.94005,19.0382,-0.226608,-0.352982,-0.189227,1,0,0,3.57,-0.0875,-1.0675,-0.233874,-0.318786,-1.19963,-0.2422,0.07644,0.38458
0,0,0,5,5,5,5,-1.2445,1.93994,19.0382,0.14672,0.320303,0.206052,1,0,0,3.465,-0.0875,-0.945,0.141032,0.3538,-0.807396,-0.2422,0.07644,0.38458
0,0,0,5,5,5,5,-1.24445,1.93949,19.0381,0.146728,0.320304,0.206053,1,0,0,3.4825,-0.28,-0.9975,0.141032,0.3538,-0.807396,-0.2422,0.07644,0.38458
0,0,0,5,5,5,5,-1.24446,1.93914,19.038,-0.26,-0.351271,-0.165375,1,0,0,3.4475,-0.2275,-0.9625,-0.267424,-0.317078,-1.17596,-0.2422,0.07644,0.38458
0,0,0,5,5,5,5,-1.24465,1.93867,19.038,-0.259992,-0.351274,-0.165374,1,0,0,3.3425,-0.2975,-0.945,-0.267424,-0.317078,-1.17596,-0.24164,0.077,0.3913
0,0,0,5,5,5,5,-1.5525,2.18533,18.9348,0.188604,0.285748,0.137531,0,0,0,3.4475,-0.2975,-0.945,0.187392,0.324642,-0.875106,-0.24164,0.077,0.3913
0,0,0,5,5,5,5,-1.85504,2.42777,18.8303,0.184376,0.28048,0.137204,0,0,0,3.71,0,-0.9275,0.187392,0.324642,-0.875106,-0.24164,0.077,0.3913
0,0,0,5,5,5,5,-1.85448,2.42766,18.8305,-0.224786,-0.220352,-0.0954145,1,0,0,3.7625,-0.0875,-0.8225,-0.223504,-0.17568,-1.10593,-0.24164,0.077,0.3913
0,0,0,5,5,5,5,-1.85398,2.42791,18.8305,-0.22479,-0.220344,-0.0954144,1,0,0,3.7275,0.1225,-0.9275,-0.223504,-0.17568,-1.10593,-0.24164,0.077,0.3913
0,0,0,5,5,5,5,-1.96966,2.4908,18.8067,0.0545023,0.11288,0.0142642,0,0,0,3.6925,-0.0875,-0.9275,0.058072,0.15921,-0.996984,-0.24164,0.077,0.3913
0,0,0,5,5,5,5,-2.08314,2.55204,18.7828,0.0534345,0.110904,0.0141473,0,0,0,3.7975,-0.315,-1.0325,0.058072,0.15921,-0.996984,-0.24164,0.077,0.3913
0,0,0,5,5,5,5,-2.04346,2.52889,18.7864,-0.020997,-0.0383767,0.0455419,0,0,0,3.64,-0.0875,-1.015,-0.01708,0.009394,-0.965874,-0.24164,0.077,0.3913
0,0,0,5,5,5,5,-2.00502,2.50654,18.7899,-0.0206073,-0.0377074,0.0455828,0,0,0,3.3425,0.105,-1.0675,-0.01708,0.009394,-0.965874,-0.24164,0.077,0.3913
0,0,0,5,5,5,5,-2.00522,2.50684,18.7897,-0.198467,-0.119169,-0.101833,1,0,0,3.3425,0.1575,-1.085,-0.195688,-0.07198,-1.11215,-0.24598,0.07784,0.3822
0,0,0,5,5,5,5,-2.33736,2.9379,18.5619,0.30037,0.305799,0.228691,0,0,0,3.395,0.21,-0.84,0.312808,0.358314,-0.783606,-0.24598,0.07784,0.3822
0,0,0,5,5,5,5,-2.66502,3.36113,18.331,0.292994,0.300112,0.228036,0,0,0,3.465,0.21,-0.8225,0.312808,0.358314,-0.783606,-0.24598,0.07784,0.3822
0,0,0,5,5,5,5,-2.66461,3.36118,18.3312,-0.452807,-0.375364,-0.192447,1,0,0,3.675,0,-0.8225,-0.43615,-0.316468,-1.20085,-0.24598,0.07784,0.3822
0,0,0,5,5,5,5,-2.66409,3.36103,18.3311,-0.452805,-0.375355,-0.192447,1,0,0,3.745,-0.105,-0.9625,-0.43615,-0.316468,-1.20085,-0.24598,0.07784,0.3822
0,0,0,5,5,5,5,-2.90309,3.67863,18.147,0.219796,0.220023,0.166636,0,0,0,3.6225,-0.0875,-1.0325,0.244854,0.28243,-0.843996,-0.24598,0.07784,0.3822
0,0,0,5,5,5,5,-3.13915,3.98942,17.9616,0.214384,0.215937,0.166057,0,0,0,3.3775,-0.3675,-0.9625,0.244854,0.28243,-0.843996,-0.24598,0.07784,0.3822
0,0,0,5,5,5,5,-3.13939,3.98927,17.9614,-0.233045,-0.23447,-0.102709,1,0,0,3.325,-0.105,-1.0675,-0.204472,-0.167506,-1.11069,-0.24598,0.07784,0.3822
0,0,0,5,5,5,5,-3.13968,3.98939,17.9613,-0.233048,-0.234475,-0.102709,1,0,0,3.29,0.0525,-0.98,-0.204472,-0.167506,-1.11069,-0.2422,0.0756,0.38234
0,0,0,5,5,5,5,-3.11474,3.85875,18.0308,-0.0992038,-0.0329073,-0.0126543,0,0,0,3.29,0.14,-0.9275,-0.072346,0.033428,-1.02151,-0.2422,0.0756,0.38234
0,0,0,5,5,5,5,-3.08985,3.73094,18.0999,-0.096978,-0.0324826,-0.0124834,0,0,0,3.395,0.0175,-0.8225,-0.072346,0.033428,-1.02151,-0.2422,0.0756,0.38234
0,0,0,5,5,5,5,-3.06393,3.84147,18.0093,0.0770084,-0.0174919,0.0298309,0,0,0,3.5875,-0.1925,-0.875,0.10431,0.047946,-0.979416,-0.2422,0.0756,0.38234
0,0,0,5,5,5,5,-3.03883,3.94989,17.919,0.0751204,-0.0170486,0.0297257,0,0,0,3.535,0.105,-1.05,0.10431,0.047946,-0.979416,-0.2422,0.0756,0.38234
0,0,0,5,5,5,5,-3.03847,3.95019,17.9188,-0.39795,-0.220017,-0.0628545,1,0,0,3.6575,0.1575,-1.015,-0.370758,-0.154818,-1.07128,-0.2422,0.0756,0.38234
0,0,0,5,5,5,5,-3.03813,3.95047,17.9188,-0.397955,-0.220011,-0.0628545,1,0,0,3.64,0.14,-0.91,-0.370758,-0.154818,-1.07128,-0.2422,0.0756,0.38234
0,0,0,5,5,5,5,-3.19281,4.35747,17.6546,0.323024,0.179369,0.0607863,0,0,0,3.71,0.0175,-0.9275,0.360388,0.246806,-0.94794,-0.2422,0.0756,0.38234
0,0,0,5,5,5,5,-3.3465,4.75506,17.3932,0.316107,0.176731,0.0600834,0,0,0,3.5525,-0.035,-0.9625,0.360388,0.246806,-0.94794,-0.24108,0.07308,0.38164
0,0,0,5,5,5,5,-3.34666,4.75515,17.3932,-0.505017,-0.249738,-0.10184,1,0,0,3.36,0.035,-0.9625,-0.46421,-0.179218,-1.10861,-0.24108,0.07308,0.38164
0,0,0,5,5,5,5,-3.34673,4.75537,17.3931,-0.50502,-0.249739,-0.10184,1,0,0,3.4125,0.105,-0.945,-0.46421,-0.179218,-1.10861,-0.24108,0.07308,0.38164
0,0,0,5,5,5,5,-3.47636,5.17867,17.1049,0.331337,0.152411,0.0709902,0,0,0,3.395,0,-0.7875,0.38308,0.224724,-0.93635,-0.24108,0.07308,0.38164
0,0,0,5,5,5,5,-3.60486,5.59305,16.816,0.324137,0.150224,0.0701748,0,0,0,3.395,-0.2275,-0.7525,0.38308,0.224724,-0.93635,-0.24108,0.07308,0.38164
0,0,0,5,5,5,5,-3.60494,5.59292,16.8162,-0.508888,-0.252063,-0.126051,1,0,0,3.395,-0.105,-0.805,-0.453474,-0.177144,-1.13106,-0.24108,0.07308,0.38164
0,0,0,5,5,5,5,-3.60472,5.5929,16.8163,-0.508888,-0.252059,-0.126051,1,0,0,3.57,-0.035,-0.875,-0.453474,-0.177144,-1.13106,-0.24108,0.07308,0.38164
0,0,0,5,5,5,5,-3.6949,5.87237,16.6084,0.197922,0.0943481,0.0914741,0,0,0,3.5525,-0.105,-0.805,0.261202,0.170434,-0.914634,-0.24108,0.07308,0.38164
0,0,0,5,5,5,5,-3.7846,6.14463,16.4032,0.193196,0.0928269,0.0908762,0,0,0,3.5,-0.035,-0.665,0.261202,0.170434,-0.914634,-0.23898,0.07154,0.38682
0,0,0,5,5,5,5,-3.78444,6.14423,16.4033,-0.256658,-0.0915816,-0.104734,1,0,0,3.535,-0.2625,-0.8575,-0.190564,-0.013786,-1.10874,-0.23898,0.07154,0.38682
0,0,0,5,5,5,5,-3.78418,6.14404,16.4031,-0.256655,-0.0915773,-0.104733,1,0,0,3.605,-0.1225,-1.0675,-0.190564,-0.013786,-1.10874,-0.23898,0.07154,0.38682
0,0,0,5,5,5,5,-3.72914,6.0003,16.4659,-0.110078,-0.0605982,0.0377226,0,0,0,3.885,-0.2625,-0.98,-0.045872,0.016226,-0.967704,-0.23898,0.07154,0.38682
0,0,0,5,5,5,5,-3.67506,5.86043,16.5277,-0.10765,-0.0596777,0.0380349,0,0,0,3.815,0.105,-1.1025,-0.045872,0.016226,-0.967704,-0.23898,0.07154,0.38682
0,0,0,5,5,5,5,-3.67445,5.86069,16.5274,0.0394647,-0.0159457,-0.111224,1,0,0,3.815,0.14,-1.12,0.10187,0.059902,-1.11581,-0.23898,0.07154,0.38682
0,0,0,5,5,5,5,-3.67449,5.86058,16.527,0.0394665,-0.0159464,-0.111224,1,0,0,3.4475,-0.07,-1.1375,0.10187,0.059902,-1.11581,-0.23898,0.07154,0.38682
-0,0,0,5,5,5,5,-3.57376,5.60404,16.6659,-0.199779,-0.113396,-0.00517753,0,0,0,3.2725,-0.0525,-0.98,-0.142862,-0.039162,-1.01114,-0.23898,0.07154,0.38682
-0,0,0,5,5,5,5,-3.47501,5.35196,16.7982,-0.195399,-0.111709,-0.00465286,0,0,0,3.1675,-0.3675,-0.9625,-0.142862,-0.039162,-1.01114,-0.2408,0.07434,0.38906
0,0,0,5,5,5,5,-3.38577,5.65895,16.5483,0.225196,-0.0689742,0.0393112,0,0,0,3.0975,-0.14,-1.12,0.28487,0.001952,-0.967094,-0.2408,0.07434,0.38906
0,0,0,5,5,5,5,-3.29853,5.95893,16.3007,0.219988,-0.067431,0.0388705,0,0,0,3.2025,-0.245,-0.7875,0.28487,0.001952,-0.967094,-0.2408,0.07434,0.38906
-0,0,0,5,5,5,5,-3.00754,5.4644,16.5751,-0.409224,-0.330134,0.0267277,0,0,0,3.36,-0.2275,-0.735,-0.35563,-0.265472,-0.98027,-0.2408,0.07434,0.38906
-0,0,0,5,5,5,5,-2.72107,4.98061,16.8429,-0.400815,-0.3252,0.0277441,0,0,0,3.395,0,-0.77,-0.35563,-0.265472,-0.98027,-0.2408,0.07434,0.38906
0,0,0,5,5,5,5,-2.70742,5.37461,16.5506,0.321858,0.0145788,-0.0114703,0,0,0,3.4475,0.2975,-0.7875,0.37698,0.073688,-1.01858,-0.2408,0.07434,0.38906
0,0,0,5,5,5,5,-2.69453,5.76007,16.2594,0.315162,0.0148331,-0.0121117,0,0,0,3.6925,0.245,-0.7175,0.37698,0.073688,-1.01858,-0.2408,0.07434,0.38906
0,0,0,5,5,5,5,-2.64523,5.20957,16.5997,-0.43456,-0.0888946,0.0103615,0,0,0,3.7625,0.4725,-0.665,-0.38552,-0.030744,-0.997228,-0.2408,0.07434,0.38906
0,0,0,5,5,5,5,-2.59607,4.67118,16.9361,-0.425198,-0.0880776,0.011209,0,0,0,4.06,0.455,-0.735,-0.38552,-0.030744,-0.997228,-0.2408,0.07434,0.38906
-0,0,0,5,5,5,5,-2.43957,5.04213,16.6465,0.262034,-0.126735,0.0599603,0,0,0,3.64,0.28,-0.8575,0.3111,-0.072102,-0.948428,-0.245,0.07392,0.38654
0,0,0,5,5,5,5,-2.57462,5.3242,16.4502,0.202342,0.139007,0.0922406,0,0,0,3.29,-0.5775,-0.245,0.256078,0.195688,-0.915854,-0.245,0.07392,0.38654
0,0,0,5,5,5,5,-2.70854,5.60021,16.2523,0.197546,0.136704,0.0916753,0,0,0,3.045,-0.595,-0.9625,0.256078,0.195688,-0.915854,-0.245,0.07392,0.38654
0,0,0,5,5,5,5,-2.70942,5.60005,16.252,-0.550317,-0.337774,-0.0929938,1,0,0,2.975,-0.105,-1.1375,-0.494954,-0.278282,-1.0991,-0.245,0.07392,0.38654
0,0,0,5,5,5,5,-2.71076,5.60056,16.2505,-0.550326,-0.337797,-0.0929958,1,0,0,2.7825,0.315,-1.7675,-0.494954,-0.278282,-1.0991,-0.245,0.07392,0.38654
0,0,0,5,5,5,5,-2.71261,5.6011,16.2485,-0.0360864,-0.038985,-0.306929,1,0,0,2.52,0.35,-2.065,0.021472,0.020252,-1.31138,-0.245,0.07392,0.38654
0,0,0,5,5,5,5,-2.71459,5.60106,16.2475,-0.0360856,-0.0390193,-0.30693,1,0,0,2.3975,-0.0175,-1.5225,0.021472,0.020252,-1.31138,-0.245,0.07392,0.38654
0,0,0,5,5,5,5,-2.91821,5.11452,16.5743,-0.353456,0.155619,0.0765495,0,0,0,4.7775,0.2975,-1.5225,-0.305732,0.218258,-0.93147,-0.245,0.07392,0.38654
0,0,0,5,5,5,5,-3.11727,4.64426,16.8904,-0.345278,0.152126,0.0770645,0,0,0,4.2,0.0525,-1.47,-0.305732,0.218258,-0.93147,-0.24094,0.08372,0.39634
-0,0,0,5,5,5,5,-2.94038,4.60784,16.8569,-0.0361921,-0.168195,0.00916479,0,0,0,5.4775,-0.1225,-1.505,0.004026,-0.104798,-0.999058,-0.24094,0.08372,0.39634
-0,0,0,5,5,5,5,-2.76619,4.57044,16.8243,-0.0355415,-0.165171,0.00936779,0,0,0,5.67,-1.0675,-1.12,0.004026,-0.104798,-0.999058,-0.24094,0.08372,0.39634
0,0,0,5,5,5,5,-2.76648,4.56879,16.8238,-0.0242145,-0.0855499,0.229202,1,0,0,3.3075,-0.98,-1.225,0.015372,-0.025254,-0.780922,-0.24094,0.08372,0.39634
0,0,0,5,5,5,5,-2.76809,4.56808,16.8233,-0.0242022,-0.0855779,0.229201,1,0,0,2.5725,-0.42,-1.26,0.015372,-0.025254,-0.780922,-0.24094,0.08372,0.39634
0,0,0,5,5,5,5,-2.77232,4.56798,16.8224,-0.255388,-0.135601,0.129487,1,0,0,1.12,-0.0525,-1.47,-0.216794,-0.075152,-0.879864,-0.24094,0.08372,0.39634
0,0,0,5,5,5,5,-2.77522,4.56753,16.8216,-0.25538,-0.135652,0.129485,1,0,0,1.855,-0.2625,-1.365,-0.216794,-0.075152,-0.879864,-0.24094,0.08372,0.39634
0,0,0,5,5,5,5,-2.71018,4.61803,16.7459,0.0427177,-0.0627076,-0.0733965,0,0,0,2.1,0.4375,-1.05,0.083448,-0.003416,-1.08116,-0.24094,0.08372,0.39634
0,0,0,5,5,5,5,-2.64587,4.66783,16.6746,0.0418514,-0.0615868,-0.0734145,0,0,0,2.3625,0.63,-0.98,0.083448,-0.003416,-1.08116,-0.24206,0.08106,0.399
0,0,0,5,5,5,5,-2.64492,4.66839,16.6749,-0.356631,-0.243173,-0.0927174,1,0,0,3.9725,0.2975,-0.7525,-0.316712,-0.18483,-1.10032,-0.24206,0.08106,0.399
0,0,0,5,5,5,5,-2.63927,4.66877,16.6764,-0.356638,-0.243075,-0.0927134,1,0,0,6.545,0.1575,-0.0175,-0.316712,-0.18483,-1.10032,-0.24206,0.08106,0.399
0,0,0,5,5,5,5,-2.5936,4.94069,16.4579,0.189813,-0.0247551,0.070939,0,0,0,5.4425,-0.2625,0.1225,0.236802,0.032452,-0.93757,-0.24206,0.08106,0.399
0,0,0,5,5,5,5,-2.55077,5.20653,16.2408,0.185192,-0.023993,0.0705625,0,0,0,4.62,-0.28,0.21,0.236802,0.032452,-0.93757,-0.24206,0.08106,0.399
0,0,0,5,5,5,5,-2.55124,5.20638,16.2433,-0.0353021,0.10069,0.179495,1,0,0,3.0625,-0.175,0.5075,0.015372,0.157014,-0.829478,-0.24206,0.08106,0.399
0,0,0,5,5,5,5,-2.55347,5.20619,16.2456,-0.0352988,0.100652,0.179493,1,0,0,2.0825,-0.1925,0.4025,0.015372,0.157014,-0.829478,-0.24206,0.08106,0.399
0,0,0,5,5,5,5,-2.55713,5.20693,16.2472,-0.123024,0.0528365,-0.181733,1,0,0,1.3125,0.3675,0.07,-0.072712,0.109312,-1.18791,-0.24206,0.08106,0.399
0,0,0,5,5,5,5,-2.5615,5.20818,16.2484,-0.123046,0.0527608,-0.181739,1,0,0,0.945,0.6825,-0.2275,-0.072712,0.109312,-1.18791,-0.23632,0.08036,0.39214
0,0,0,5,5,5,5,-2.56273,5.20881,16.249,-0.286212,-0.17234,-0.249731,1,0,0,2.73,0.3325,-0.56,-0.236558,-0.115534,-1.25538,-0.23632,0.08036,0.39214
0,0,0,5,5,5,5,-2.56162,5.20945,16.2485,-0.286223,-0.172321,-0.249731,1,0,0,4.095,0.3675,-1.225,-0.236558,-0.115534,-1.25538,-0.23632,0.08036,0.39214
-0,0,0,5,5,5,5,-2.45201,4.93959,16.3873,-0.211313,-0.121707,-0.00603965,0,0,0,5.39,0.3675,-1.1375,-0.166042,-0.066856,-1.01406,-0.23632,0.08036,0.39214
-0,0,0,5,5,5,5,-2.34408,4.67515,16.524,-0.206714,-0.119847,-0.00557465,0,0,0,5.39,-0.0175,-1.2425,-0.166042,-0.066856,-1.01406,-0.23632,0.08036,0.39214
0,0,0,5,5,5,5,-2.34143,4.67482,16.5232,-0.153862,0.128604,0.290365,1,0,0,4.97,-0.1925,-1.435,-0.112972,0.181292,-0.72041,-0.23632,0.08036,0.39214
0,0,0,5,5,5,5,-2.34114,4.67366,16.5223,-0.153842,0.128609,0.290367,1,0,0,3.6575,-0.6825,-1.4875,-0.112972,0.181292,-0.72041,-0.23632,0.08036,0.39214
0,0,0,5,5,5,5,-2.34411,4.67161,16.5211,-0.152106,-0.267377,0.234795,1,0,0,1.8375,-1.19,-1.645,-0.111264,-0.214232,-0.775554,-0.23632,0.08036,0.39214
0,0,0,5,5,5,5,-2.34867,4.67023,16.5199,-0.152081,-0.267457,0.234793,1,0,0,0.945,-0.805,-1.645,-0.111264,-0.214232,-0.775554,-0.23744,0.0735,0.3913
0,0,0,5,5,5,5,-2.35169,4.67005,16.519,-0.139565,-0.0035933,-0.194053,1,0,0,1.8025,-0.105,-1.4875,-0.098698,0.04941,-1.20109,-0.23744,0.0735,0.3913
0,0,0,5,5,5,5,-2.3528,4.67139,16.5174,-0.139589,-0.00361242,-0.194056,1,0,0,2.905,0.805,-1.8375,-0.098698,0.04941,-1.20109,-0.23744,0.0735,0.3913
0,0,0,5,5,5,5,-2.3532,4.67333,16.5156,-0.196235,-0.220883,-0.0840197,1,0,0,3.3075,1.155,-1.925,-0.15555,-0.167628,-1.0919,-0.23744,0.0735,0.3913
0,0,0,5,5,5,5,-2.35165,4.67372,16.5139,-0.196241,-0.220856,-0.0840191,1,0,0,4.3925,0.245,-1.8725,-0.15555,-0.167628,-1.0919,-0.23744,0.0735,0.3913
-0,0,0,5,5,5,5,-2.14538,4.67191,16.4706,-0.0198127,-0.182342,0.0969814,0,0,0,5.1625,-0.21,-1.75,0.021594,-0.132736,-0.912438,-0.23744,0.0735,0.3913
-0,0,0,5,5,5,5,-1.9439,4.66826,16.4283,-0.0197493,-0.17884,0.0971117,0,0,0,4.4975,-1.12,-1.3825,0.021594,-0.132736,-0.912438,-0.23744,0.0735,0.3913
0,0,0,5,5,5,5,-2.0092,4.47311,16.5496,-0.136139,0.0388664,0.0913193,0,0,0,1.61,-1.2425,-1.12,-0.098698,0.085888,-0.918416,-0.23744,0.0735,0.3913
0,0,0,5,5,5,5,-2.07349,4.28319,16.6706,-0.132834,0.0377393,0.0915323,0,0,0,1.3825,-0.84,-1.0675,-0.098698,0.085888,-0.918416,-0.23744,0.0735,0.3913
0,0,0,5,5,5,5,-2.07765,4.21191,16.6979,-0.0517772,-0.00178339,-0.0610803,0,0,0,1.785,-0.455,-0.9625,-0.018544,0.046482,-1.06994,-0.23534,0.07938,0.39046
0,0,0,5,5,5,5,-2.07874,4.1427,16.7252,-0.0505724,-0.00180552,-0.060993,0,0,0,3.395,-0.21,-0.805,-0.018544,0.046482,-1.06994,-0.23534,0.07938,0.39046
0,0,0,5,5,5,5,-2.0786,4.14233,16.7256,-0.129775,-0.0683621,-0.253653,1,0,0,3.5175,-0.245,-0.735,-0.098088,-0.020008,-1.26111,-0.23534,0.07938,0.39046
0,0,0,5,5,5,5,-2.07638,4.14107,16.7261,-0.129753,-0.0683235,-0.25365,1,0,0,4.6725,-0.77,-0.6125,-0.098088,-0.020008,-1.26111,-0.23534,0.07938,0.39046
0,0,0,5,5,5,5,-2.07462,4.1413,16.7263,0.0184559,-0.00930568,-0.231026,1,0,0,4.4275,0.105,-0.805,0.050752,0.038918,-1.23867,-0.23534,0.07938,0.39046
0,0,0,5,5,5,5,-2.07343,4.14339,16.7269,0.0184195,-0.00928488,-0.231028,1,0,0,4.095,1.19,-0.56,0.050752,0.038918,-1.23867,-0.23534,0.07938,0.39046
0,0,0,5,5,5,5,-2.07414,4.14528,16.7279,-0.0314226,-0.110174,0.276746,1,0,0,3.01,1.0675,-0.3325,0.000732,-0.061854,-0.734806,-0.23534,0.07938,0.39046
0,0,0,5,5,5,5,-2.07737,4.14598,16.7287,-0.0314347,-0.11023,0.276743,1,0,0,1.61,0.3675,-0.4375,0.000732,-0.061854,-0.734806,-0.23534,0.07938,0.39046
0,0,0,5,5,5,5,-2.08021,4.14576,16.7301,0.0855597,-0.042499,0.116171,1,0,0,1.8025,-0.175,-0.1225,0.118218,0.005856,-0.894138,-0.23338,0.07994,0.39382
0,0,0,5,5,5,5,-2.07792,4.14546,16.7315,-0.111485,0.0846746,0.113591,1,0,0,4.6725,-0.2275,-0.0875,-0.079666,0.132858,-0.8967,-0.23338,0.07994,0.39382
0,0,0,5,5,5,5,-2.07555,4.14493,16.7324,-0.111476,0.0847158,0.113593,1,0,0,4.7425,-0.35,-0.4375,-0.079666,0.132858,-0.8967,-0.23338,0.07994,0.39382
0,0,0,5,5,5,5,-2.10328,4.13645,16.7239,-0.00685026,0.0274442,0.037358,0,0,0,5.495,-0.315,-0.5075,0.025254,0.076128,-0.97234,-0.23338,0.07994,0.39382
0,0,0,5,5,5,5,-2.13182,4.12849,16.7139,-0.00671165,0.0269472,0.0373497,0,0,0,4.8125,-0.105,-1.4525,0.025254,0.076128,-0.97234,-0.23338,0.07994,0.39382
0,0,0,5,5,5,5,-2.13205,4.12801,16.713,-0.0469152,0.0196157,-0.180515,1,0,0,3.36,-0.28,-1.4525,-0.015128,0.068808,-1.18852,-0.23338,0.07994,0.39382
0,0,0,5,5,5,5,-2.13488,4.12845,16.711,-0.0469228,0.0195665,-0.180517,1,0,0,1.9425,0.28,-2.065,-0.015128,0.068808,-1.18852,-0.23338,0.07994,0.39382
0,0,0,5,5,5,5,-2.22637,3.99316,16.7965,-0.101544,0.0831842,-0.0730765,0,0,0,0.945,0.735,-2.1,-0.072346,0.133956,-1.08202,-0.23338,0.07994,0.39382
0,0,0,5,5,5,5,-2.31649,3.85969,16.8817,-0.0992202,0.0816098,-0.0729793,0,0,0,0.7,0.035,-1.89,-0.072346,0.133956,-1.08202,-0.23744,0.07952,0.4004
0,0,0,5,5,5,5,-2.32094,3.85971,16.8798,0.0735321,0.371217,-0.276093,1,0,0,1.0325,0.035,-2.0475,0.101138,0.42334,-1.28356,-0.23744,0.07952,0.4004
0,0,0,5,5,5,5,-2.32395,3.85875,16.8782,0.0735488,0.371165,-0.276094,1,0,0,1.82,-0.5425,-1.89,0.101138,0.42334,-1.28356,-0.23744,0.07952,0.4004
0,0,0,5,5,5,5,-2.31958,3.85709,16.8768,-0.0247042,0.0259882,-0.261213,1,0,0,5.95,-0.9625,-1.75,0.00244,0.078446,-1.2688,-0.23744,0.07952,0.4004
0,0,0,5,5,5,5,-2.31423,3.85518,16.8744,-0.0246709,0.0260813,-0.261207,1,0,0,6.545,-1.085,-2.38,0.00244,0.078446,-1.2688,-0.23744,0.07952,0.4004
-0,0,0,5,5,5,5,-2.19583,4.03879,16.7139,0.15108,-0.104113,-0.0670872,0,0,0,5.9325,-0.9625,-2.275,0.182146,-0.05368,-1.07604,-0.23744,0.07952,0.4004
-0,0,0,5,5,5,5,-2.08162,4.21911,16.5544,0.147942,-0.102118,-0.0672394,0,0,0,4.9875,-0.385,-2.415,0.182146,-0.05368,-1.07604,-0.23744,0.07952,0.4004
0,0,0,5,5,5,5,-2.08531,4.21866,16.5519,0.0539193,0.0414388,0.223532,1,0,0,1.4875,-0.2275,-2.38,0.087718,0.089792,-0.78751,-0.23744,0.07952,0.4004
0,0,0,5,5,5,5,-2.09153,4.2184,16.5509,0.053924,0.0413305,0.223528,1,0,0,0,-0.1575,-1.505,0.087718,0.089792,-0.78751,-0.24304,0.08386,0.39956
0,0,0,5,5,5,5,-2.09875,4.21921,16.55,-0.288437,0.0469449,0.164507,1,0,0,-0.56,0.4725,-1.435,-0.256078,0.095526,-0.84607,-0.24304,0.08386,0.39956
0,0,0,5,5,5,5,-2.10492,4.2201,16.5507,-0.288452,0.0468376,0.164502,1,0,0,-0.035,0.49,-0.5425,-0.256078,0.095526,-0.84607,-0.24304,0.08386,0.39956
0,0,0,5,5,5,5,-2.09138,4.23596,16.5117,0.0121916,-0.0106919,-0.0191944,0,0,0,3.9725,0.56,-0.5075,0.046116,0.03782,-1.02834,-0.24304,0.08386,0.39956
0,0,0,5,5,5,5,-2.07476,4.25076,16.4738,0.011934,-0.0104022,-0.019203,0,0,0,5.81,0.14,-0.0525,0.046116,0.03782,-1.02834,-0.24304,0.08386,0.39956
-0,0,0,5,5,5,5,-1.93412,4.16263,16.4875,-0.0736371,-0.144131,-0.0737167,0,0,0,7.21,-0.0875,-0.0875,-0.041358,-0.09821,-1.08263,-0.24304,0.08386,0.39956
-0,0,0,5,5,5,5,-1.7966,4.07562,16.501,-0.0721226,-0.141742,-0.0735298,0,0,0,6.7725,-0.5075,0.0175,-0.041358,-0.09821,-1.08263,-0.24304,0.08386,0.39956
0,0,0,5,5,5,5,-1.79639,4.0741,16.5027,-0.0623772,-0.0463572,0.182574,1,0,0,3.5,-0.945,0.07,-0.031598,-0.002928,-0.828502,-0.24304,0.08386,0.39956
0,0,0,5,5,5,5,-1.79951,4.07324,16.5045,-0.0623622,-0.0464116,0.182573,1,0,0,1.6275,-0.56,0.105,-0.031598,-0.002928,-0.828502,-0.24374,0.08414,0.40082
0,0,0,5,5,5,5,-1.80653,4.07271,16.5065,0.000576608,0.175126,0.272323,1,0,0,-0.56,-0.3675,0.21,0.031598,0.218502,-0.739442,-0.24374,0.08414,0.40082
0,0,0,5,5,5,5,-1.81507,4.07429,16.5089,0.000549147,0.174978,0.272316,1,0,0,-1.435,0.8575,0.5075,0.031598,0.218502,-0.739442,-0.24374,0.08414,0.40082
0,0,0,5,5,5,5,-1.81866,4.07653,16.5116,-0.103482,0.173328,0.188337,1,0,0,1.33,1.2425,0.6475,-0.072834,0.216916,-0.822768,-0.24374,0.08414,0.40082
0,0,0,5,5,5,5,-1.82031,4.07841,16.514,-0.103514,0.173299,0.188334,1,0,0,2.4325,1.0325,0.5075,-0.072834,0.216916,-0.822768,-0.24374,0.08414,0.40082
0,0,0,5,5,5,5,-1.8133,4.07984,16.5165,-0.0860453,-0.0831671,-0.110429,1,0,0,7.28,0.77,0.56,-0.055266,-0.039406,-1.11923,-0.24374,0.08414,0.40082
0,0,0,5,5,5,5,-1.80318,4.07978,16.5183,-0.0860443,-0.0829911,-0.110423,1,0,0,9.0475,-0.0875,0.14,-0.055266,-0.039406,-1.11923,-0.24374,0.08414,0.40082
0,0,0,5,5,5,5,-1.79483,4.07974,16.5195,0.0788126,-0.136582,-0.194146,1,0,0,8.085,-0.07,-0.245,0.110288,-0.093086,-1.20231,-0.24374,0.08414,0.40082
0,0,0,5,5,5,5,-1.79017,4.07969,16.5198,0.0788133,-0.1365,-0.194144,1,0,0,6.055,-0.0525,-0.77,0.110288,-0.093086,-1.20231,-0.24374,0.08414,0.40082
0,0,0,5,5,5,5,-1.76606,4.22955,16.3891,0.125406,-0.0176121,-0.0523146,0,0,0,0.7525,-0.945,-1.015,0.159698,0.025254,-1.0614,-0.23632,0.08302,0.40082
0,0,0,5,5,5,5,-1.74866,4.37607,16.2588,0.122856,-0.0173036,-0.0524971,0,0,0,-2.59,-0.91,-1.155,0.159698,0.025254,-1.0614,-0.23632,0.08302,0.40082
0,0,0,5,5,5,5,-1.75879,4.37554,16.2578,-0.00202172,-0.0857486,0.253886,1,0,0,-2.1875,-0.315,-1.505,0.034282,-0.042944,-0.757376,-0.23632,0.08302,0.40082
0,0,0,5,5,5,5,-1.76696,4.37665,16.2568,-0.00204107,-0.0858906,0.25388,1,0,0,-1.085,0.6475,-1.4875,0.034282,-0.042944,-0.757376,-0.23632,0.08302,0.40082
0,0,0,5,5,5,5,-1.85782,4.14076,16.4028,-0.173968,0.0643225,0.0377462,0,0,0,0.875,0.8575,-1.68,-0.142496,0.108702,-0.972096,-0.23632,0.08302,0.40082
0,0,0,5,5,5,5,-1.93518,3.90936,16.5482,-0.169939,0.062967,0.0379849,0,0,0,7.42,0.35,-1.82,-0.142496,0.108702,-0.972096,-0.23632,0.08302,0.40082
0,0,0,5,5,5,5,-1.92489,3.90895,16.5463,-0.216218,-0.143126,-0.129464,1,0,0,9.2925,-0.2275,-2.0125,-0.188978,-0.097356,-1.13826,-0.23632,0.08302,0.40082
0,0,0,5,5,5,5,-1.91596,3.90914,16.5446,-0.216222,-0.142971,-0.129459,1,0,0,8.5225,0.1225,-1.9425,-0.188978,-0.097356,-1.13826,-0.23632,0.08302,0.40082
0,0,0,5,5,5,5,-1.87239,3.84638,16.5498,-0.0479645,-0.0428036,-0.0864513,0,0,0,6.2825,-0.0175,-2.03,-0.021106,0.001952,-1.09568,-0.24052,0.0882,0.40418
0,0,0,5,5,5,5,-1.83683,3.78305,16.5544,-0.0468616,-0.0421869,-0.0863577,0,0,0,2.1875,-1.155,-2.31,-0.021106,0.001952,-1.09568,-0.24052,0.0882,0.40418
0,0,0,5,5,5,5,-1.84246,3.78022,16.5524,-0.223695,0.0314795,0.131015,1,0,0,0.3675,-1.645,-2.135,-0.198738,0.07564,-0.879986,-0.24052,0.0882,0.40418
0,0,0,5,5,5,5,-1.84808,3.77738,16.5504,-0.223646,0.0313814,0.131015,1,0,0,0.3675,-1.645,-2.135,-0.198738,0.07564,-0.879986,-0.24052,0.0882,0.40418
0,0,0,5,5,5,5,-1.85731,3.78454,16.5487,0.0105753,-0.0110348,0.22223,1,0,0,-1.6625,4.2,-1.7675,0.0366,0.033428,-0.789462,-0.24052,0.0882,0.40418
0,0,0,5,5,5,5,-1.86654,3.79169,16.5471,0.0104507,-0.0111952,0.222216,1,0,0,-1.6625,4.2,-1.7675,0.0366,0.033428,-0.789462,-0.24052,0.0882,0.40418
0,0,0,5,5,5,5,-1.86285,3.79228,16.5184,-0.00182967,-0.00685639,0.01382,0,0,0,1.8725,0.77,-1.085,0.024278,0.037698,-0.996252,-0.24052,0.0882,0.40418
0,0,0,5,5,5,5,-1.85922,3.79286,16.49,-0.00183967,-0.00679318,0.0138214,0,0,0,1.8725,0.77,-1.085,0.024278,0.037698,-0.996252,-0.24052,0.0882,0.40418
0,0,0,5,5,5,5,-1.85035,3.78574,16.4906,-0.0425349,-0.130353,-0.135794,1,0,0,8.4,-4.2,-0.7,-0.016714,-0.085888,-1.14473,-0.23758,0.0903,0.40502
0,0,0,5,5,5,5,-1.84286,3.78588,16.4911,-0.00925036,0.0692099,-0.114397,1,0,0,7.63,0.0525,-0.6125,0.016714,0.113338,-1.1235,-0.23758,0.0903,0.40502
0,0,0,5,5,5,5,-1.84054,3.78498,16.4927,-0.00923469,0.0692502,-0.114394,1,0,0,4.69,-0.5775,-0.035,0.016714,0.113338,-1.1235,-0.23758,0.0903,0.40502
0,0,0,5,5,5,5,-1.84081,3.78288,16.4948,0.0488722,-0.173909,-0.102712,1,0,0,3.22,-1.295,0.2625,0.07503,-0.129564,-1.11191,-0.23758,0.0903,0.40502
0,0,0,5,5,5,5,-1.84731,3.78111,16.4962,0.048903,-0.174022,-0.102714,1,0,0,-0.245,-1.085,-0.1225,0.07503,-0.129564,-1.11191,-0.23758,0.0903,0.40502
-0,0,0,5,5,5,5,-1.7976,3.58309,16.5934,-0.15794,-0.0727757,-0.0379162,0,0,0,-1.3125,-0.175,-0.105,-0.136152,-0.02928,-1.04786,-0.23758,0.0903,0.40502
-0,0,0,5,5,5,5,-1.74587,3.39222,16.6899,-0.154615,-0.0718812,-0.0376858,0,0,0,0.1575,1.3825,0.175,-0.136152,-0.02928,-1.04786,-0.23758,0.0903,0.40502
0,0,0,5,5,5,5,-1.77731,3.2255,16.7859,-0.132393,0.0148869,-0.0541328,0,0,0,-0.14,1.54,0.385,-0.116754,0.05795,-1.06433,-0.23758,0.0903,0.40502
0,0,0,5,5,5,5,-1.80089,3.0614,16.8785,-0.129534,0.0144711,-0.0539886,0,0,0,3.85,0.875,0.175,-0.116754,0.05795,-1.06433,-0.24052,0.09156,0.41118
-0,0,0,5,5,5,5,-1.66747,2.92276,16.9294,-0.112539,-0.134157,0.0336244,0,0,0,5.6,0.63,-0.0175,-0.102114,-0.092842,-0.977586,-0.24052,0.09156,0.41118
-0,0,0,5,5,5,5,-1.53352,2.78647,16.9793,-0.110163,-0.131826,0.033808,0,0,0,7.105,0.2625,-0.0525,-0.102114,-0.092842,-0.977586,-0.24052,0.09156,0.41118
-0,0,0,5,5,5,5,-1.12442,2.85679,16.8447,0.0250393,-0.384214,0.0942807,0,0,0,6.58,-0.14,-0.4025,0.034892,-0.352092,-0.917684,-0.24052,0.09156,0.41118
-0,0,0,5,5,5,5,-0.724484,2.92324,16.7115,0.023881,-0.377243,0.0943347,0,0,0,5.32,-1.05,-0.84,0.034892,-0.352092,-0.917684,-0.24052,0.09156,0.41118
0,0,0,5,5,5,5,-0.724247,2.92161,16.712,0.0619344,-0.170845,0.132696,1,0,0,3.57,-0.98,-0.665,0.073078,-0.145912,-0.87962,-0.24052,0.09156,0.41118
0,0,0,5,5,5,5,-0.728388,2.92093,16.7116,0.0619463,-0.170917,0.132696,1,0,0,1.1375,-0.42,-1.12,0.073078,-0.145912,-0.87962,-0.24052,0.09156,0.41118
0,0,0,5,5,5,5,-0.907675,2.81671,16.7844,-0.0685349,0.15118,0.0743417,0,0,0,-0.0175,-0.2975,-1.2425,-0.05978,0.178974,-0.93757,-0.24052,0.09156,0.41118
0,0,0,5,5,5,5,-1.08334,2.71333,16.8656,-0.0667327,0.148117,0.0743756,0,0,0,0.5775,0.07,-1.33,-0.05978,0.178974,-0.93757,-0.24584,0.08456,0.40852
-0,0,0,5,5,5,5,-1.00901,2.84764,16.7519,0.087035,-0.0634526,0.0670316,0,0,0,1.7675,0.4375,-1.47,0.09699,-0.033672,-0.944768,-0.24584,0.08456,0.40852
-0,0,0,5,5,5,5,-0.934252,2.9787,16.6392,0.0847506,-0.0621476,0.0669374,0,0,0,2.905,0.385,-1.365,0.09699,-0.033672,-0.944768,-0.24584,0.08456,0.40852
-0,0,0,5,5,5,5,-0.79896,2.78416,16.7301,-0.164549,-0.156883,-0.0615833,0,0,0,3.8325,0.315,-1.715,-0.15677,-0.130662,-1.0725,-0.24584,0.08456,0.40852
-0,0,0,5,5,5,5,-0.66235,2.59373,16.8195,-0.161229,-0.154503,-0.061397,0,0,0,5.74,0.21,-1.785,-0.15677,-0.130662,-1.0725,-0.24584,0.08456,0.40852
-0,0,0,5,5,5,5,-0.618082,2.37183,16.9452,-0.173153,-0.0582304,-0.0158527,0,0,0,5.3025,-0.175,-1.6625,-0.17263,-0.035258,-1.02748,-0.24584,0.08456,0.40852
-0,0,0,5,5,5,5,-0.57837,2.15405,17.0692,-0.169354,-0.0575394,-0.0156954,0,0,0,3.0275,-0.735,-1.89,-0.17263,-0.035258,-1.02748,-0.24584,0.08456,0.40852
-0,0,0,5,5,5,5,-0.55546,1.75629,17.3159,-0.301396,-0.0556766,0.0383969,0,0,0,2.4325,-0.9975,-1.5575,-0.312198,-0.033794,-0.974048,-0.24584,0.08456,0.40852
-0,0,0,5,5,5,5,-0.532983,1.36892,17.5627,-0.294638,-0.0552862,0.038585,0,0,0,1.89,-1.26,-1.3475,-0.312198,-0.033794,-0.974048,-0.23884,0.0847,0.40362
-0,0,0,5,5,5,5,-0.390778,1.37931,17.5314,-0.00434663,-0.133653,0.0598707,0,0,0,2.03,-0.525,-1.5575,-0.020496,-0.114558,-0.952942,-0.23884,0.0847,0.40362
-0,0,0,5,5,5,5,-0.251915,1.39067,17.5012,-0.00454489,-0.13123,0.0598795,0,0,0,1.575,0.35,-1.0675,-0.020496,-0.114558,-0.952942,-0.23884,0.0847,0.40362
-0,0,0,5,5,5,5,-0.19465,1.35033,17.5199,-0.0365207,-0.0626949,-0.0399339,0,0,0,2.7825,0.63,-0.875,-0.053314,-0.047092,-1.05201,-0.23884,0.0847,0.40362
-0,0,0,5,5,5,5,-0.134555,1.31013,17.5385,-0.0358191,-0.0616464,-0.0399146,0,0,0,4.9,0.2275,-0.7875,-0.053314,-0.047092,-1.05201,-0.23884,0.0847,0.40362
0,0,0,5,5,5,5,-0.140573,1.40753,17.4798,0.0701176,0.015555,0.043035,0,0,0,5.0575,0.14,-0.7175,0.054778,0.030134,-0.969656,-0.23884,0.0847,0.40362
0,0,0,5,5,5,5,-0.14973,1.50373,17.4215,0.0684393,0.0153953,0.042992,0,0,0,3.3425,0.7175,-0.665,0.054778,0.030134,-0.969656,-0.23884,0.0847,0.40362
-0,0,0,5,5,5,5,-0.0365174,1.24819,17.5693,-0.21235,-0.13712,-0.0283308,0,0,0,3.955,0.1575,-0.2275,-0.231678,-0.124196,-1.04054,-0.23884,0.0847,0.40362
-0,0,0,5,5,5,5,0.0744243,0.997618,17.7151,-0.207978,-0.135184,-0.0282457,0,0,0,3.5875,-0.2625,-0.21,-0.231678,-0.124196,-1.04054,-0.23884,0.0847,0.40362
0,0,0,5,5,5,5,0.072814,0.997385,17.7161,0.0336611,0.0711822,0.120276,1,0,0,2.5375,-0.1575,-0.3325,0.01098,0.081984,-0.893162,-0.24542,0.0819,0.41566
0,0,0,5,5,5,5,0.0712338,0.996852,17.7171,0.0336704,0.0711546,0.120276,1,0,0,2.555,-0.3325,-0.3675,0.01098,0.081984,-0.893162,-0.24542,0.0819,0.41566
0,0,0,5,5,5,5,-0.106033,0.904276,17.8181,-0.0598374,0.179441,-0.0775219,0,0,0,2.59,0.7,-0.5425,-0.084546,0.193248,-1.08946,-0.24542,0.0819,0.41566
0,0,0,5,5,5,5,-0.280105,0.814066,17.9192,-0.0582631,0.176403,-0.0775085,0,0,0,2.59,0.7,-0.5425,-0.084546,0.193248,-1.08946,-0.24542,0.0819,0.41566
0,0,0,5,5,5,5,-0.277793,0.8153,17.9197,-0.0545186,0.130646,-0.165663,1,0,0,4.7425,0.7,-0.63,-0.080764,0.147498,-1.17693,-0.24542,0.0819,0.41566
0,0,0,5,5,5,5,-0.275481,0.816534,17.9202,-0.0545401,0.130686,-0.165663,1,0,0,4.7425,0.7,-0.63,-0.080764,0.147498,-1.17693,-0.24542,0.0819,0.41566
0,0,0,5,5,5,5,-0.274441,0.817233,17.9212,-0.314775,0.14194,-0.10173,1,0,0,4.025,0.385,-0.3325,-0.342088,0.158722,-1.11349,-0.24542,0.0819,0.41566
0,0,0,5,5,5,5,-0.272029,0.817782,17.9222,-0.0424133,-0.151366,0.139618,1,0,0,4.795,0.2975,-0.35,-0.068564,-0.134322,-0.874008,-0.24542,0.0819,0.41566
-0,0,0,5,5,5,5,-0.230104,0.967923,17.8179,0.114113,-0.0282637,-0.0286129,0,0,0,4.4975,0.6125,-1.015,0.091256,-0.012078,-1.0409,-0.2443,0.08918,0.41286
0,0,0,5,5,5,5,-0.230829,0.968168,17.8178,-0.0885296,0.0358402,0.114991,1,0,0,3.045,0.1225,-1.015,-0.11224,0.051972,-0.898408,-0.2443,0.08918,0.41286
0,0,0,5,5,5,5,-0.233245,0.966829,17.8174,-0.0885062,0.0357981,0.114991,1,0,0,2.1,-0.805,-1.1725,-0.11224,0.051972,-0.898408,-0.2443,0.08918,0.41286
0,0,0,5,5,5,5,-0.23523,0.965488,17.8165,-0.0560461,-0.0935688,0.178925,1,0,0,2.345,-0.805,-1.4175,-0.079666,-0.077226,-0.834968,-0.2443,0.08918,0.41286
0,0,0,5,5,5,5,-0.236716,0.965999,17.8157,-0.0560551,-0.0935947,0.178924,1,0,0,2.625,0.28,-1.4175,-0.079666,-0.077226,-0.834968,-0.2443,0.08918,0.41286
0,0,0,5,5,5,5,-0.238977,0.96681,17.8152,-0.0939728,-0.102427,0.2463,1,0,0,2.1875,0.455,-1.225,-0.11773,-0.08601,-0.768112,-0.2443,0.08918,0.41286
0,0,0,5,5,5,5,-0.238868,0.967621,17.8146,-0.0939869,-0.102425,0.246299,1,0,0,3.5175,0.455,-1.295,-0.11773,-0.08601,-0.768112,-0.2443,0.08918,0.41286
-0,0,0,5,5,5,5,-0.0976875,0.890223,17.8362,-0.07332,-0.150156,-0.0398956,0,0,0,4.5675,0.49,-1.365,-0.098332,-0.136152,-1.05213,-0.2443,0.08918,0.41286
-0,0,0,5,5,5,5,0.0415807,0.814549,17.8592,-0.0719994,-0.147725,-0.0398747,0,0,0,4.76,0.4375,-1.54,-0.098332,-0.136152,-1.05213,-0.24626,0.08736,0.4165
-0,0,0,5,5,5,5,0.0892811,0.695838,17.9271,-0.0994487,-0.0599387,-0.0628397,0,0,0,3.71,0.175,-1.505,-0.127978,-0.049288,-1.07494,-0.24626,0.08736,0.4165
-0,0,0,5,5,5,5,0.136214,0.57892,17.9944,-0.0974082,-0.0591196,-0.0628187,0,0,0,3.64,-0.3325,-1.5225,-0.127978,-0.049288,-1.07494,-0.24626,0.08736,0.4165
-0,0,0,5,5,5,5,0.135264,0.577973,17.9936,-0.0121087,0.097064,-0.150604,1,0,0,2.9225,-0.5775,-1.3825,-0.042334,0.10675,-1.16205,-0.24626,0.08736,0.4165
0,0,0,5,5,5,5,0.132726,0.577145,17.9931,-0.0120943,0.0970197,-0.150603,1,0,0,2.03,-0.5075,-1.225,-0.042334,0.10675,-1.16205,-0.24626,0.08736,0.4165
0,0,0,5,5,5,5,0.0750379,0.724096,17.9125,0.113508,0.063405,0.0283823,0,0,0,1.225,-0.28,-0.91,0.086376,0.074176,-0.984418,-0.24626,0.08736,0.4165
0,0,0,5,5,5,5,0.0182534,0.868324,17.8322,0.110991,0.062414,0.0283481,0,0,0,1.33,-0.0175,-0.8225,0.086376,0.074176,-0.984418,-0.24626,0.08736,0.4165
0,0,0,5,5,5,5,0.0156691,0.867853,17.833,0.0111385,0.198907,-0.224065,1,0,0,1.995,-0.2975,-0.49,-0.013908,0.210572,-1.23488,-0.24626,0.08736,0.4165
0,0,0,5,5,5,5,0.0155801,0.868606,17.8336,0.0111253,0.198905,-0.224065,1,0,0,3.395,0.42,-0.56,-0.013908,0.210572,-1.23488,-0.2513,0.08344,0.41146
0,0,0,5,5,5,5,0.0154915,0.869837,17.8343,-0.253249,0.0827609,-0.114027,1,0,0,3.395,0.7,-0.5425,-0.27938,0.09455,-1.12569,-0.2513,0.08344,0.41146
-0,0,0,5,5,5,5,0.0173745,0.87089,17.8353,-0.253267,0.0827938,-0.114027,1,0,0,4.4975,0.595,-0.35,-0.27938,0.09455,-1.12569,-0.2513,0.08344,0.41146
-0,0,0,5,5,5,5,0.0185744,0.8723,17.8365,-0.290953,0.0704799,-0.196526,1,0,0,4.1125,0.805,-0.21,-0.3172,0.082228,-1.20756,-0.2513,0.08344,0.41146
0,0,0,5,5,5,5,0.0178322,0.874069,17.8373,-0.290983,0.070467,-0.196526,1,0,0,3.0275,1.015,-0.4725,-0.3172,0.082228,-1.20756,-0.2513,0.08344,0.41146
-0,0,0,5,5,5,5,0.045256,0.973302,17.7749,0.0745361,-0.0218708,-0.0337706,0,0,0,2.24,0.7,-0.5075,0.051606,-0.010492,-1.04603,-0.2513,0.08344,0.41146
-0,0,0,5,5,5,5,0.0701433,1.06827,17.713,0.0728789,-0.0214365,-0.0338006,0,0,0,1.2075,-0.4375,-0.4375,0.051606,-0.010492,-1.04603,-0.2513,0.08344,0.41146
0,0,0,5,5,5,5,0.0655394,1.06741,17.7141,0.0998637,-0.072688,-0.0913401,1,0,0,0.8575,-0.525,-0.28,0.07869,-0.06161,-1.10312,-0.2513,0.08344,0.41146
0,0,0,5,5,5,5,0.060586,1.06765,17.7149,0.0998594,-0.0727744,-0.0913401,1,0,0,0.665,0.1225,-0.4725,0.07869,-0.06161,-1.10312,-0.2478,0.08386,0.40852
0,0,0,5,5,5,5,-0.146343,0.941825,17.8368,-0.0770147,0.182279,0.0499636,0,0,0,0.665,0.21,-0.4725,-0.101138,0.196786,-0.962946,-0.2478,0.08386,0.40852
0,0,0,5,5,5,5,-0.347293,0.820639,17.9588,-0.0748998,0.178772,0.049981,0,0,0,1.9425,1.1025,-0.4725,-0.101138,0.196786,-0.962946,-0.2478,0.08386,0.40852
-0,0,0,5,5,5,5,-0.308669,0.627712,18.0844,-0.150256,-0.0536941,0.019905,0,0,0,3.43,1.1375,-0.525,-0.180194,-0.036112,-0.992836,-0.2478,0.08386,0.40852
-0,0,0,5,5,5,5,-0.270263,0.438852,18.2078,-0.14696,-0.053024,0.0199391,0,0,0,3.535,0.9625,-1.0675,-0.180194,-0.036112,-0.992836,-0.2478,0.08386,0.40852
0,0,0,5,5,5,5,-0.336268,0.600137,18.1275,0.126484,0.0763777,0.0238418,0,0,0,3.115,0.2625,-1.155,0.097234,0.094306,-0.988932,-0.2478,0.08386,0.40852
0,0,0,5,5,5,5,-0.402409,0.756644,18.0471,0.123753,0.0752236,0.023802,0,0,0,2.5725,-0.525,-1.3125,0.097234,0.094306,-0.988932,-0.2478,0.08386,0.40852
-0,0,0,5,5,5,5,-0.373028,0.869357,17.9742,0.0836392,-0.0224533,0.00791724,0,0,0,1.855,-0.875,-1.4,0.058926,-0.003782,-1.00467,-0.2478,0.08386,0.40852
-0,0,0,5,5,5,5,-0.345734,0.980208,17.8967,0.0817047,-0.0219768,0.00788901,0,0,0,1.085,-0.5425,-1.4875,0.058926,-0.003782,-1.00467,-0.24906,0.08708,0.40586
0,0,0,5,5,5,5,-0.378358,0.745266,18.0509,-0.171623,0.00651961,0.0357335,0,0,0,0.2625,-0.6125,-1.47,-0.199592,0.025254,-0.977098,-0.24906,0.08708,0.40586
0,0,0,5,5,5,5,-0.410669,0.517123,18.2039,-0.167642,0.00595543,0.0357735,0,0,0,-0.0525,0.175,-1.5925,-0.199592,0.025254,-0.977098,-0.24906,0.08708,0.40586
0,0,0,5,5,5,5,-0.583839,0.32777,18.3631,-0.135302,0.156935,-0.0242272,0,0,0,0.9275,0.0875,-1.5575,-0.170434,0.179096,-1.03663,-0.24906,0.08708,0.40586
0,0,0,5,5,5,5,-0.752953,0.14321,18.5223,-0.132081,0.153983,-0.0242484,0,0,0,1.4175,0.245,-1.4875,-0.170434,0.179096,-1.03663,-0.24906,0.08708,0.40586
0,0,0,5,5,5,5,-0.757622,0.0592285,18.5863,-0.0692648,-0.00376379,-0.0765,0,0,0,2.38,0.2975,-1.645,-0.108824,0.021594,-1.08848,-0.24906,0.08708,0.40586
0,0,0,5,5,5,5,-0.762472,-0.0227683,18.6495,-0.0678337,-0.00384844,-0.0765007,0,0,0,2.1525,0.3325,-1.9075,-0.108824,0.021594,-1.08848,-0.24906,0.08708,0.40586
-0,0,0,5,5,5,5,-0.739118,-0.0322926,18.661,-0.0108122,-0.0277441,-0.0480943,0,0,0,1.61,0.385,-1.82,-0.051728,-0.002684,-1.0603,-0.24906,0.08708,0.40586
-0,0,0,5,5,5,5,-0.716536,-0.0426887,18.673,-0.0106307,-0.02735,-0.0480894,0,0,0,1.4,-0.2275,-1.5575,-0.051728,-0.002684,-1.0603,-0.24906,0.08708,0.40586
0,0,0,5,5,5,5,-0.780762,-0.149113,18.7697,-0.0776557,0.0521328,-0.0269601,0,0,0,1.2775,-0.3675,-1.54,-0.120902,0.077836,-1.03932,-0.24556,0.084,0.3997
-0,0,0,5,5,5,5,-0.731387,0.011574,18.6721,0.106628,-0.0382342,0.105839,0,0,0,0.0875,-0.56,-1.435,0.066978,-0.013298,-0.907558,-0.24556,0.084,0.3997
-0,0,0,5,5,5,5,-0.682108,0.168203,18.5756,0.103894,-0.0373741,0.105845,0,0,0,0.735,-0.77,-1.1725,0.066978,-0.013298,-0.907558,-0.24556,0.084,0.3997
0,0,0,5,5,5,5,-0.687826,0.167611,18.5755,-0.292139,0.100163,-0.0759966,1,0,0,0.245,-0.3675,-0.9975,-0.330742,0.124196,-1.088,-0.24556,0.084,0.3997
0,0,0,5,5,5,5,-0.690983,0.169323,18.5757,-0.292169,0.100108,-0.0759974,1,0,0,1.68,0.98,-0.805,-0.330742,0.124196,-1.088,-0.24556,0.084,0.3997
-0,0,0,5,5,5,5,-0.631328,0.235701,18.5363,0.0462252,-0.0584707,-0.0488178,0,0,0,1.8025,0.77,-0.6825,0.010248,-0.035258,-1.06103,-0.24556,0.084,0.3997
-0,0,0,5,5,5,5,-0.57437,0.300593,18.4977,0.0450927,-0.0574766,-0.0488127,0,0,0,0.9625,0.8575,-0.455,0.010248,-0.035258,-1.06103,-0.24556,0.084,0.3997
0,0,0,5,5,5,5,-0.578771,0.301774,18.4987,-0.108,-0.0490045,-0.135123,1,0,0,0.98,0.665,-0.35,-0.143472,-0.026718,-1.14668,-0.24556,0.084,0.3997
0,0,0,5,5,5,5,-0.583015,0.301584,18.4999,-0.107997,-0.0490786,-0.135124,1,0,0,1.0675,-0.14,-0.2275,-0.143472,-0.026718,-1.14668,-0.23996,0.07728,0.3983
-0,0,0,5,5,5,5,-0.566336,0.284264,18.5326,-0.0156082,-0.0231409,-0.0402034,0,0,0,0.7175,-0.2625,0.0875,-0.050996,-0.001098,-1.05249,-0.23996,0.07728,0.3983
0,0,0,5,5,5,5,-0.55111,0.267776,18.565,-0.0153204,-0.0228752,-0.0401994,0,0,0,0.0525,0.0175,0.07,-0.050996,-0.001098,-1.05249,-0.23996,0.07728,0.3983
0,0,0,5,5,5,5,-0.638886,0.334276,18.5638,0.0587186,0.08453,0.0168266,0,0,0,0.035,0.0175,0.175,0.024522,0.107726,-0.995886,-0.23996,0.07728,0.3983
0,0,0,5,5,5,5,-0.725009,0.400004,18.5627,0.0575715,0.0830271,0.0168014,0,0,0,0.1575,0.315,0.2975,0.024522,0.107726,-0.995886,-0.23996,0.07728,0.3983
0,0,0,5,5,5,5,-0.792793,0.427633,18.5826,0.0280542,0.0667005,-0.0364544,0,0,0,0.56,0.6125,0.2625,-0.004636,0.092598,-1.04871,-0.23996,0.07728,0.3983
0,0,0,5,5,5,5,-0.861301,0.455207,18.6021,0.0275729,0.0655051,-0.0364754,0,0,0,-0.49,0.8575,0.0875,-0.004636,0.092598,-1.04871,-0.23996,0.07728,0.3983
-0,0,0,5,5,5,5,-0.673484,0.714393,18.4211,0.179402,-0.170952,0.0280703,0,0,0,0.105,1.26,-0.105,0.152378,-0.146888,-0.984662,-0.23996,0.07728,0.3983
-0,0,0,5,5,5,5,-0.488743,0.967459,18.2373,0.174985,-0.167727,0.0280382,0,0,0,0.3675,0.5075,-0.5425,0.152378,-0.146888,-0.984662,-0.2443,0.07994,0.39088
0,0,0,5,5,5,5,-0.49561,0.968156,18.2376,-0.169925,0.102053,-0.122698,1,0,0,-0.4025,0.385,-0.735,-0.19398,0.122732,-1.13423,-0.2443,0.07994,0.39088
0,0,0,5,5,5,5,-0.503479,0.968642,18.2377,-0.169933,0.101916,-0.122699,1,0,0,-0.9625,0.2625,-0.8575,-0.19398,0.122732,-1.13423,-0.2443,0.07994,0.39088
-0,0,0,5,5,5,5,-0.343197,1.14096,18.1064,0.103926,-0.138563,0.106319,0,0,0,-0.5775,-0.105,-0.91,0.084058,-0.120292,-0.906948,-0.2443,0.07994,0.39088
-0,0,0,5,5,5,5,-0.18695,1.30934,17.976,0.100988,-0.135837,0.106269,0,0,0,-1.015,0.07,-1.2425,0.084058,-0.120292,-0.906948,-0.2443,0.07994,0.39088
0,0,0,5,5,5,5,-0.19491,1.30904,17.9749,-0.0153906,-0.171637,0.139588,1,0,0,-0.9975,-0.1925,-1.61,-0.032818,-0.155916,-0.873886,-0.2443,0.07994,0.39088
0,0,0,5,5,5,5,-0.20287,1.30875,17.9737,-0.0153855,-0.171775,0.139587,1,0,0,-0.9975,-0.1925,-1.61,-0.032818,-0.155916,-0.873886,-0.2443,0.07994,0.39088
0,0,0,5,5,5,5,-0.211522,1.30917,17.9723,0.0127919,-0.0268398,0.117948,1,0,0,-1.3825,0.2275,-1.75,-0.004514,-0.01098,-0.895358,-0.2443,0.07994,0.39088
0,0,0,5,5,5,5,-0.220174,1.30959,17.9709,0.0127846,-0.0269908,0.117947,1,0,0,-1.3825,0.2275,-1.75,-0.004514,-0.01098,-0.895358,-0.24402,0.07672,0.40082
0,0,0,5,5,5,5,-0.338243,1.17782,18.0837,-0.0915807,0.0957623,0.0163083,0,0,0,-1.54,0.6825,-2.45,-0.11163,0.113704,-0.996252,-0.24402,0.07672,0.40082
0,0,0,5,5,5,5,-0.454086,1.04923,18.1962,-0.0893367,0.0937406,0.0163379,0,0,0,-1.54,0.6825,-2.45,-0.11163,0.113704,-0.996252,-0.24402,0.07672,0.40082
-0,0,0,5,5,5,5,-0.338963,1.22117,18.0745,0.124029,-0.113698,-0.0193627,0,0,0,-2.135,0.665,-2.3625,0.105652,-0.095526,-1.03163,-0.24402,0.07672,0.40082
0,0,0,5,5,5,5,-0.34988,1.22149,18.0722,-0.242985,0.0249701,-0.136411,1,0,0,-2.6425,0.175,-2.275,-0.26291,0.043188,-1.14778,-0.24402,0.07672,0.40082
0,0,0,5,5,5,5,-0.360913,1.22209,18.0702,-0.242995,0.0247776,-0.136412,1,0,0,-2.7125,0.3325,-2.0475,-0.26291,0.043188,-1.14778,-0.24402,0.07672,0.40082
0,0,0,5,5,5,5,-0.372729,1.22292,18.0682,0.148782,-0.0472391,-0.116005,1,0,0,-3.15,0.4725,-2.1,0.13054,-0.028548,-1.12752,-0.24402,0.07672,0.40082
0,0,0,5,5,5,5,-0.387824,1.22297,18.0661,0.148781,-0.0475025,-0.116006,1,0,0,-4.9875,0.0175,-2.17,0.13054,-0.028548,-1.12752,-0.24402,0.07672,0.40082
0,0,0,5,5,5,5,-0.384395,1.19642,18.0987,-0.0219294,-0.0211855,-0.0362025,0,0,0,-4.97,-0.245,-1.995,-0.041358,-0.002318,-1.04835,-0.24388,0.07056,0.39494
0,0,0,5,5,5,5,-0.507423,1.23223,18.114,0.0373381,0.11003,0.0163895,0,0,0,-4.0075,0.2625,-1.995,0.018788,0.130906,-0.99613,-0.24388,0.07056,0.39494
0,0,0,5,5,5,5,-0.624792,1.26843,18.1299,0.0367065,0.107983,0.0163555,0,0,0,-2.0125,0.805,-1.575,0.018788,0.130906,-0.99613,-0.24388,0.07056,0.39494
0,0,0,5,5,5,5,-0.634367,1.26908,18.1291,-0.315492,0.143232,-0.204708,1,0,0,-1.9075,0.3675,-1.4175,-0.33489,0.166286,-1.21549,-0.24388,0.07056,0.39494
0,0,0,5,5,5,5,-0.644973,1.27066,18.1282,-0.315519,0.143047,-0.204711,1,0,0,-2.485,0.91,-1.4175,-0.33489,0.166286,-1.21549,-0.24388,0.07056,0.39494
-0,0,0,5,5,5,5,-0.566589,1.44225,18.024,0.136815,-0.079687,-0.0842776,0,0,0,-1.925,0.63,-0.735,0.122366,-0.057584,-1.09593,-0.24388,0.07056,0.39494
-0,0,0,5,5,5,5,-0.489968,1.60984,17.9207,0.133891,-0.0783495,-0.0843432,0,0,0,-1.925,0.63,-0.735,0.122366,-0.057584,-1.09593,-0.24388,0.07056,0.39494
0,0,0,5,5,5,5,-0.50225,1.58269,17.9551,-0.021866,-0.00675339,0.0277972,0,0,0,-5.7925,0.2975,-0.455,-0.034526,0.014152,-0.984662,-0.24388,0.07056,0.39494
0,0,0,5,5,5,5,-0.514316,1.55605,17.9741,-0.0214011,-0.00696399,0.0278081,0,0,0,-5.7925,0.2975,-0.455,-0.034526,0.014152,-0.984662,-0.2457,0.08064,0.39732
-0,0,0,5,5,5,5,-0.330104,1.76065,17.8115,0.154221,-0.198664,-0.0588273,0,0,0,-5.25,0.2975,0.5775,0.145424,-0.18056,-1.07055,-0.2457,0.08064,0.39732
-0,0,0,5,5,5,5,-0.149576,1.9603,17.651,0.150738,-0.195514,-0.0589273,0,0,0,-5.25,0.2975,0.5775,0.145424,-0.18056,-1.07055,-0.2457,0.08064,0.39732
0,0,0,5,5,5,5,-0.253836,2.13385,17.5541,0.140422,0.102,0.00538313,0,0,0,-6.2475,0.7875,0.525,0.138104,0.118462,-1.00662,-0.2457,0.08064,0.39732
0,0,0,5,5,5,5,-0.356674,2.30377,17.4573,0.137458,0.100207,0.00525876,0,0,0,-6.2475,0.7875,0.525,0.138104,0.118462,-1.00662,-0.2457,0.08064,0.39732
0,0,0,5,5,5,5,-0.423111,2.21279,17.5206,-0.0669947,0.0467781,-0.027145,0,0,0,-4.06,0.3675,0.21,-0.068808,0.066246,-1.03883,-0.2457,0.08064,0.39732
0,0,0,5,5,5,5,-0.436596,2.21407,17.5223,0.0796163,-0.0893841,0.181496,1,0,0,-4.1475,0.7175,0.0875,0.078446,-0.06954,-0.831796,-0.2457,0.08064,0.39732
0,0,0,5,5,5,5,-0.450721,2.21525,17.5236,0.0795957,-0.0896305,0.181493,1,0,0,-4.4975,0.665,-0.1575,0.078446,-0.06954,-0.831796,-0.2457,0.08064,0.39732
-0,0,0,5,5,5,5,-0.293935,2.34637,17.4062,0.078524,-0.151745,0.0790039,0,0,0,-4.795,0.3675,-0.175,0.079666,-0.134322,-0.933422,-0.24486,0.08078,0.4011
-0,0,0,5,5,5,5,-0.139979,2.47519,17.2884,0.0762775,-0.14906,0.0789195,0,0,0,-4.655,0.945,-1.155,0.079666,-0.134322,-0.933422,-0.24486,0.08078,0.4011
0,0,0,5,5,5,5,-0.225904,2.26595,17.4266,-0.168755,0.0569345,-0.0882671,0,0,0,-5.9325,1.295,-1.3475,-0.170068,0.072956,-1.09946,-0.24486,0.08078,0.4011
0,0,0,5,5,5,5,-0.310089,2.06158,17.5643,-0.16519,0.0554656,-0.0881393,0,0,0,-5.9325,1.295,-1.3475,-0.170068,0.072956,-1.09946,-0.24486,0.08078,0.4011
0,0,0,5,5,5,5,-0.331165,2.06226,17.5616,-0.233477,0.182476,-0.155886,1,0,0,-8.3125,0.385,-2.4675,-0.238632,0.200202,-1.16669,-0.24486,0.08078,0.4011
0,0,0,5,5,5,5,-0.352241,2.06294,17.559,-0.233489,0.182109,-0.155889,1,0,0,-8.3125,0.385,-2.4675,-0.238632,0.200202,-1.16669,-0.24486,0.08078,0.4011
0,0,0,5,5,5,5,-0.373783,2.06367,17.5555,-0.227306,0.167933,-0.153925,1,0,0,-8.5575,0.42,-2.94,-0.23241,0.186416,-1.16473,-0.24486,0.08078,0.4011
0,0,0,5,5,5,5,-0.419296,2.00275,17.593,-0.0458373,0.0187545,0.00926016,0,0,0,-8.295,0.735,-2.8175,-0.05124,0.038186,-1.00284,-0.24486,0.08078,0.4011
0,0,0,5,5,5,5,-0.461723,1.94245,17.628,-0.0447855,0.0180142,0.0092907,0,0,0,-7.07,0.245,-2.765,-0.05124,0.038186,-1.00284,-0.2422,0.08288,0.39354
0,0,0,5,5,5,5,-0.649286,1.66886,17.8284,-0.206691,0.154332,-0.0167786,0,0,0,-6.0025,0.455,-2.8175,-0.218624,0.177632,-1.02883,-0.2422,0.08288,0.39354
0,0,0,5,5,5,5,-0.832803,1.40122,18.0292,-0.202022,0.151129,-0.0166949,0,0,0,-5.6525,0.2625,-2.6425,-0.218624,0.177632,-1.02883,-0.2422,0.08288,0.39354
0,0,0,5,5,5,5,-0.859301,1.30392,18.0948,-0.0802961,0.00277023,-0.0982994,0,0,0,-6.0025,0.4025,-2.4675,-0.098088,0.02989,-1.10983,-0.2422,0.08288,0.39354
0,0,0,5,5,5,5,-0.886674,1.20996,18.1601,-0.0786566,0.00229211,-0.0982707,0,0,0,-6.8425,1.0325,-2.4325,-0.098088,0.02989,-1.10983,-0.2422,0.08288,0.39354
0,0,0,5,5,5,5,-0.921286,1.25887,18.135,0.0407609,0.0176871,-0.0487504,0,0,0,-8.855,0.91,-2.0825,0.022692,0.045872,-1.06067,-0.2422,0.08288,0.39354
0,0,0,5,5,5,5,-0.957185,1.30702,18.1108,0.0399207,0.0170611,-0.0487795,0,0,0,-9.87,1.0675,-1.5925,0.022692,0.045872,-1.06067,-0.2422,0.08288,0.39354
0,0,0,5,5,5,5,-1.08186,1.17906,18.2172,-0.094518,0.0915807,-0.0281144,0,0,0,-10.8325,0.63,-1.225,-0.114558,0.122488,-1.04017,-0.2422,0.08288,0.39354
0,0,0,5,5,5,5,-1.20474,1.05468,18.3316,-0.0923474,0.089436,-0.0281149,0,0,0,-11.235,0.595,-0.63,-0.114558,0.122488,-1.04017,-0.23996,0.07868,0.40544
0,0,0,5,5,5,5,-1.34915,0.870059,18.4925,-0.142336,0.109997,-0.0409036,0,0,0,-10.6575,0.84,-0.525,-0.167994,0.145546,-1.05286,-0.23996,0.07868,0.40544
0,0,0,5,5,5,5,-1.48781,0.689783,18.6541,-0.13919,0.107577,-0.0409207,0,0,0,-8.9425,0.8225,0.0525,-0.167994,0.145546,-1.05286,-0.23996,0.07868,0.40544
0,0,0,5,5,5,5,-1.5647,0.540252,18.787,-0.11775,0.0455381,-0.0260517,0,0,0,-8.05,1.1025,0.175,-0.149084,0.084912,-1.0381,-0.23996,0.07868,0.40544
0,0,0,5,5,5,5,-1.63953,0.394846,18.9196,-0.115213,0.0442319,-0.0260675,0,0,0,-7.7525,1.47,0.42,-0.149084,0.084912,-1.0381,-0.23996,0.07868,0.40544
0,0,0,5,5,5,5,-1.66323,0.490481,18.8842,0.0712996,0.00986758,0.0383327,0,0,0,-7.49,1.2775,0.455,0.039894,0.050996,-0.97417,-0.23996,0.07868,0.40544
0,0,0,5,5,5,5,-1.69042,0.584503,18.8484,0.0696587,0.00939376,0.0383035,0,0,0,-9.5725,1.54,0.175,0.039894,0.050996,-0.97417,-0.23996,0.07868,0.40544
0,0,0,5,5,5,5,-1.71494,0.586916,18.85,-0.131928,-0.0485557,0.115256,1,0,0,-10.3075,1.365,0,-0.162504,-0.006466,-0.897798,-0.23996,0.07868,0.40544
0,0,0,5,5,5,5,-1.74253,0.589796,18.8511,-0.131978,-0.0490369,0.115241,1,0,0,-12.0225,1.645,-0.21,-0.162504,-0.006466,-0.897798,-0.24416,0.08288,0.39858
0,0,0,5,5,5,5,-1.7713,0.591837,18.8522,0.0346643,0.0777172,0.166372,1,0,0,-12.6875,1.155,-0.28,0.00488,0.120658,-0.847046,-0.24416,0.08288,0.39858
0,0,0,5,5,5,5,-1.80211,0.593676,18.8524,0.0346322,0.0771798,0.166355,1,0,0,-13.825,1.05,-0.735,0.00488,0.120658,-0.847046,-0.24416,0.08288,0.39858
0,0,0,5,5,5,5,-1.83237,0.595317,18.8521,0.109317,0.141623,0.177772,1,0,0,-13.51,0.945,-1.0675,0.07991,0.185562,-0.8357,-0.24416,0.08288,0.39858
0,0,0,5,5,5,5,-1.86263,0.597522,18.8508,0.109279,0.141096,0.177754,1,0,0,-13.51,1.295,-1.68,0.07991,0.185562,-0.8357,-0.24416,0.08288,0.39858
0,0,0,5,5,5,5,-1.97172,0.437693,18.9864,-0.122399,0.0664043,-0.00387895,0,0,0,-13.0725,1.5225,-1.925,-0.15555,0.11285,-1.01589,-0.24416,0.08288,0.39858
0,0,0,5,5,5,5,-2.07685,0.281004,19.1206,-0.119665,0.0645701,-0.00392662,0,0,0,-12.0225,1.1725,-2.45,-0.15555,0.11285,-1.01589,-0.24416,0.08288,0.39858
0,0,0,5,5,5,5,-2.10936,0.191614,19.1971,-0.070239,-0.00402171,0.0238454,0,0,0,-12.0225,1.12,-2.66,-0.107482,0.044896,-0.988322,-0.24416,0.08288,0.39858
0,0,0,5,5,5,5,-2.14292,0.103581,19.264,-0.0687026,-0.0046073,0.0238277,0,0,0,-13.0025,0.77,-2.975,-0.107482,0.044896,-0.988322,-0.24318,0.08918,0.39592
0,0,0,5,5,5,5,-2.16912,0.11422,19.2646,0.00752626,-0.00286591,-0.0564753,0,0,0,-14.035,0.735,-3.115,-0.030744,0.047092,-1.06799,-0.24318,0.08918,0.39592
0,0,0,5,5,5,5,-2.19488,0.124548,19.2659,0.007346,-0.00331522,-0.0564927,0,0,0,-14.035,0.6475,-2.73,-0.030744,0.047092,-1.06799,-0.24318,0.08918,0.39592
0,0,0,5,5,5,5,-2.22714,0.125717,19.2627,0.0272492,0.0339815,-0.157824,1,0,0,-14.63,0.735,-2.765,-0.010736,0.084912,-1.16852,-0.24318,0.08918,0.39592
0,0,0,5,5,5,5,-2.26258,0.127065,19.2596,0.0272257,0.0333635,-0.157848,1,0,0,-16.415,0.84,-2.73,-0.010736,0.084912,-1.16852,-0.24318,0.08918,0.39592
0,0,0,5,5,5,5,-2.32283,0.18061,19.2407,0.0453644,0.0313359,-0.0381411,0,0,0,-16.3275,0.9625,-2.1175,0.008418,0.083936,-1.04969,-0.24318,0.08918,0.39592
0,0,0,5,5,5,5,-2.38129,0.232919,19.2221,0.0444515,0.0303166,-0.0381863,0,0,0,-15.855,0.8575,-1.96,0.008418,0.083936,-1.04969,-0.24318,0.08918,0.39592
0,0,0,5,5,5,5,-2.52596,0.115994,19.3345,-0.0879925,0.106687,-0.0396406,0,0,0,-15.89,0.595,-1.54,-0.126636,0.162748,-1.05103,-0.24318,0.08918,0.39592
0,0,0,5,5,5,5,-2.66694,0.00277111,19.4472,-0.0860164,0.104229,-0.03975,0,0,0,-15.295,1.085,-1.155,-0.126636,0.162748,-1.05103,-0.24318,0.08918,0.39592
0,0,0,5,5,5,5,-2.79652,-0.124003,19.5617,-0.094373,0.0845063,0.007598,0,0,0,-15.54,0.84,-0.6475,-0.13725,0.145302,-1.00394,-0.24206,0.09506,0.39536
0,0,0,5,5,5,5,-2.81868,0.0199669,19.4743,0.104659,-0.00491049,0.0731129,0,0,0,-15.9425,1.1025,-0.0875,0.065148,0.056364,-0.938912,-0.24206,0.09506,0.39536
0,0,0,5,5,5,5,-2.84142,0.160533,19.3874,0.102206,-0.00530677,0.0730894,0,0,0,-16.31,0.91,0.0175,0.065148,0.056364,-0.938912,-0.24206,0.09506,0.39536
0,0,0,5,5,5,5,-2.85101,0.172312,19.3827,0.00481155,-0.0280673,0.0407451,0,0,0,-17.2025,1.2775,0.3675,-0.032452,0.033794,-0.970998,-0.24206,0.09506,0.39536
0,0,0,5,5,5,5,-2.86111,0.184167,19.3784,0.00460465,-0.0282433,0.0407356,0,0,0,-17.57,1.4525,0.595,-0.032452,0.033794,-0.970998,-0.24206,0.09506,0.39536
0,0,0,5,5,5,5,-2.89991,0.186249,19.381,-0.17924,-0.152878,-0.168557,1,0,0,-18.305,1.12,0.6475,-0.217038,-0.090036,-1.17864,-0.24206,0.09506,0.39536
0,0,0,5,5,5,5,-2.93958,0.189962,19.3827,-0.179304,-0.15357,-0.168592,1,0,0,-18.795,2.1,0.175,-0.217038,-0.090036,-1.17864,-0.24206,0.09506,0.39536
-0,0,0,5,5,5,5,-2.83774,0.38691,19.2286,0.146849,-0.130422,-0.0177852,0,0,0,-18.9,2.0475,0.035,0.113948,-0.068686,-1.02907,-0.24206,0.09506,0.39536
-0,0,0,5,5,5,5,-2.7381,0.578586,19.08,0.143504,-0.128683,-0.0177287,0,0,0,-18.8825,1.5575,-0.5425,0.113948,-0.068686,-1.02907,-0.24178,0.0917,0.3997
0,0,0,5,5,5,5,-2.89229,0.593346,19.1022,0.0184803,0.111051,0.0320535,0,0,0,-18.9875,1.6975,-1.1025,-0.011346,0.173484,-0.979538,-0.24178,0.0917,0.3997
0,0,0,5,5,5,5,-3.04387,0.607313,19.124,0.0182366,0.108409,0.031914,0,0,0,-18.9875,1.2775,-1.2425,-0.011346,0.173484,-0.979538,-0.24178,0.0917,0.3997
0,0,0,5,5,5,5,-3.08316,0.609474,19.1229,-0.0782608,0.0431193,0.145358,1,0,0,-18.5675,1.2775,-1.505,-0.108214,0.108946,-0.866932,-0.24178,0.0917,0.3997
0,0,0,5,5,5,5,-3.12446,0.612482,19.1203,-0.0783133,0.0423997,0.145319,1,0,0,-19.6875,1.82,-2.345,-0.108214,0.108946,-0.866932,-0.24178,0.0917,0.3997
0,0,0,5,5,5,5,-3.045,0.734673,19.0179,0.0845318,-0.112537,0.0114775,0,0,0,-19.635,1.9425,-2.5025,0.057462,-0.047214,-0.99979,-0.24178,0.0917,0.3997
0,0,0,5,5,5,5,-2.96878,0.854441,18.9157,0.0824417,-0.111207,0.0115183,0,0,0,-20.51,2.205,-2.975,0.057462,-0.047214,-0.99979,-0.24178,0.0917,0.3997
0,0,0,5,5,5,5,-3.01248,0.856671,18.9119,-0.0820889,0.021272,-0.124749,1,0,0,-21.0175,1.4,-3.08,-0.107726,0.085888,-1.13497,-0.24178,0.0917,0.3997
0,0,0,5,5,5,5,-3.05682,0.858437,18.9072,-0.0821197,0.0204993,-0.12479,1,0,0,-21.3675,1.155,-3.57,-0.107726,0.085888,-1.13497,-0.23856,0.08988,0.39004
0,0,0,5,5,5,5,-3.22194,0.638929,19.0842,-0.175842,0.109214,-0.0274001,0,0,0,-21.7,0.9275,-3.78,-0.205692,0.177388,-1.03822,-0.23856,0.08988,0.39004
0,0,0,5,5,5,5,-3.38427,0.425082,19.2612,-0.17211,0.106384,-0.0275287,0,0,0,-21.84,1.2775,-3.57,-0.205692,0.177388,-1.03822,-0.23856,0.08988,0.39004
0,0,0,5,5,5,5,-3.46752,0.474401,19.2468,0.039265,0.0370315,0.0547532,0,0,0,-21.1575,1.26,-3.4475,0.007442,0.109556,-0.95648,-0.23856,0.08988,0.39004
0,0,0,5,5,5,5,-3.55152,0.522457,19.2328,0.0384263,0.0355687,0.0546562,0,0,0,-22.33,1.05,-3.255,0.007442,0.109556,-0.95648,-0.23856,0.08988,0.39004
-0,0,0,5,5,5,5,-3.43304,0.491086,19.2289,-0.0425431,-0.172181,-0.0299245,0,0,0,-21.9975,0.945,-2.8875,-0.07442,-0.10004,-1.04054,-0.23856,0.08988,0.39004
-0,0,0,5,5,5,5,-3.31705,0.460576,19.2264,-0.0420106,-0.170161,-0.0298009,0,0,0,-22.295,1.1375,-2.1,-0.07442,-0.10004,-1.04054,-0.23856,0.08988,0.39004
0,0,0,5,5,5,5,-3.23466,0.33184,19.2975,-0.126748,-0.149308,-0.0763007,0,0,0,-22.995,1.1025,-1.7325,-0.161772,-0.080642,-1.08678,-0.23856,0.08988,0.39004
0,0,0,5,5,5,5,-3.15583,0.205087,19.3599,-0.124535,-0.147935,-0.0762137,0,0,0,-24.0975,1.3825,-1.4525,-0.161772,-0.080642,-1.08678,-0.24584,0.09478,0.4074
0,0,0,5,5,5,5,-3.14428,0.334981,19.2668,0.103535,-0.0519855,-0.0598611,0,0,0,-24.185,1.6975,-1.05,0.06954,0.015006,-1.07055,-0.24584,0.09478,0.4074
0,0,0,5,5,5,5,-3.13468,0.461944,19.1759,0.101319,-0.0518175,-0.0598673,0,0,0,-25.0075,1.61,-0.1925,0.06954,0.015006,-1.07055,-0.24584,0.09478,0.4074
0,0,0,5,5,5,5,-3.18571,0.465255,19.1767,0.0130623,-0.0233963,0.110981,1,0,0,-25.165,1.89,-0.3675,-0.019032,0.044286,-0.90097,-0.24584,0.09478,0.4074
0,0,0,5,5,5,5,-3.23739,0.468237,19.1785,0.0130102,-0.0242969,0.110931,1,0,0,-25.5325,1.6625,0.245,-0.019032,0.044286,-0.90097,-0.24584,0.09478,0.4074
0,0,0,5,5,5,5,-3.16227,0.275114,19.2885,-0.163783,-0.142185,0.0458629,0,0,0,-25.1825,1.575,0.315,-0.199958,-0.074786,-0.96563,-0.24584,0.09478,0.4074
0,0,0,5,5,5,5,-3.08908,0.0866888,19.3964,-0.160494,-0.14091,0.0459429,0,0,0,-25.7425,1.9075,0.0175,-0.199958,-0.074786,-0.96563,-0.24584,0.09478,0.4074
0,0,0,5,5,5,5,-3.0302,-0.0756491,19.4914,-0.158025,-0.135243,-0.085311,0,0,0,-26.2675,2.1175,0.035,-0.200324,-0.07015,-1.09593,-0.24584,0.09478,0.4074
0,0,0,5,5,5,5,-2.97027,-0.234463,19.5796,-0.155253,-0.134198,-0.0852637,0,0,0,-25.13,2.5725,-0.1925,-0.200324,-0.07015,-1.09593,-0.24444,0.0987,0.40348
-0,0,0,5,5,5,5,-2.75323,0.0428065,19.3399,0.204608,-0.261945,-0.00281398,0,0,0,-26.145,2.52,-0.315,0.16592,-0.201544,-1.01431,-0.24444,0.0987,0.40348
-0,0,0,5,5,5,5,-2.54269,0.313606,19.1031,0.199881,-0.258274,-0.00265891,0,0,0,-27.2825,2.45,-0.595,0.16592,-0.201544,-1.01431,-0.24444,0.0987,0.40348
-0,0,0,5,5,5,5,-2.36357,0.382989,19.0044,0.0296837,-0.218268,0.101113,0,0,0,-28.2275,2.2925,-0.805,-0.003782,-0.1647,-0.911462,-0.24444,0.0987,0.40348
-0,0,0,5,5,5,5,-2.18866,0.45121,18.9065,0.0284931,-0.215218,0.101226,0,0,0,-28.77,2.73,-1.0325,-0.003782,-0.1647,-0.911462,-0.24444,0.0987,0.40348
0,0,0,5,5,5,5,-2.17552,0.345415,18.9582,-0.0996502,-0.0860231,-0.0633808,0,0,0,-29.4525,2.695,-1.26,-0.134322,-0.035868,-1.07482,-0.24444,0.0987,0.40348
0,0,0,5,5,5,5,-2.16373,0.241906,19.0085,-0.0978436,-0.0858178,-0.0633637,0,0,0,-30.1875,2.66,-1.75,-0.134322,-0.035868,-1.07482,-0.24444,0.0987,0.40348
0,0,0,5,5,5,5,-2.10668,0.411417,18.8686,0.11848,-0.104607,0.0389497,0,0,0,-30.45,2.275,-1.7675,0.085888,-0.055632,-0.973316,-0.24444,0.0987,0.40348
0,0,0,5,5,5,5,-2.05076,0.576095,18.7293,0.115606,-0.103631,0.0389603,0,0,0,-30.275,1.715,-2.1525,0.085888,-0.055632,-0.973316,-0.24444,0.0987,0.40348
0,0,0,5,5,5,5,-2.06364,0.432117,18.798,-0.124489,-0.0630656,-0.0298768,0,0,0,-30.625,1.82,-2.4325,-0.157746,-0.014884,-1.04164,-0.24276,0.10542,0.40306
0,0,0,5,5,5,5,-2.07619,0.291782,18.8661,-0.122039,-0.0632851,-0.0298693,0,0,0,-30.7125,2.03,-2.3975,-0.157746,-0.014884,-1.04164,-0.24276,0.10542,0.40306
0,0,0,5,5,5,5,-2.13755,0.295649,18.863,-0.142638,-0.11858,-0.113391,1,0,0,-30.94,2.31,-2.6775,-0.178364,-0.069052,-1.12447,-0.24276,0.10542,0.40306
0,0,0,5,5,5,5,-2.19891,0.299513,18.8598,-0.142705,-0.11965,-0.113432,1,0,0,-30.94,2.31,-2.6775,-0.178364,-0.069052,-1.12447,-0.24276,0.10542,0.40306
0,0,0,5,5,5,5,-2.26173,0.302583,18.8571,0.200924,-0.140285,-0.0792952,1,0,0,-31.7625,1.8375,-2.4325,0.166774,-0.088572,-1.09056,-0.24276,0.10542,0.40306
0,0,0,5,5,5,5,-2.32455,0.305651,18.8544,0.200871,-0.141381,-0.0793393,1,0,0,-31.7625,1.8375,-2.4325,0.166774,-0.088572,-1.09056,-0.24276,0.10542,0.40306
-0,0,0,5,5,5,5,-2.23738,0.450249,18.7116,0.110148,-0.153538,-0.0649104,0,0,0,-33.4075,1.8025,-2.59,0.078202,-0.102236,-1.07628,-0.24276,0.10542,0.40306
-0,0,0,5,5,5,5,-2.15208,0.591501,18.5702,0.107683,-0.15205,-0.0648758,0,0,0,-33.4075,1.8025,-2.59,0.078202,-0.102236,-1.07628,-0.24276,0.10542,0.40306
0,0,0,5,5,5,5,-2.11127,0.566833,18.5414,-0.0296512,-0.112868,0.0281041,0,0,0,-34.895,2.4675,-2.45,-0.060146,-0.063806,-0.984052,-0.2436,0.10948,0.40166
0,0,0,5,5,5,5,-2.13842,0.706602,18.4184,0.0987496,-0.0338364,0.0686325,0,0,0,-35.5775,1.54,-2.31,0.071248,0.015616,-0.943792,-0.2436,0.10948,0.40166
0,0,0,5,5,5,5,-2.16668,0.842813,18.2959,0.0963725,-0.0343281,0.0685818,0,0,0,-36.26,1.26,-2.45,0.071248,0.015616,-0.943792,-0.2436,0.10948,0.40166
0,0,0,5,5,5,5,-2.23674,0.844719,18.2932,0.274923,0.0496947,0.205991,1,0,0,-35.805,1.155,-2.4675,0.250588,0.100772,-0.807396,-0.2436,0.10948,0.40166
0,0,0,5,5,5,5,-2.30708,0.847996,18.2905,0.274866,0.0484682,0.205941,1,0,0,-35.9625,1.96,-2.4325,0.250588,0.100772,-0.807396,-0.2436,0.10948,0.40166
0,0,0,5,5,5,5,-2.3588,0.803158,18.2949,-0.0397284,-0.0238782,0.0323125,0,0,0,-35.4725,2.7475,-2.5025,-0.066124,0.029402,-0.97966,-0.2436,0.10948,0.40166
0,0,0,5,5,5,5,-2.41198,0.759315,18.2993,-0.0389632,-0.024806,0.0322843,0,0,0,-36.8375,2.695,-2.485,-0.066124,0.029402,-0.97966,-0.2436,0.10948,0.40166
0,0,0,5,5,5,5,-2.54439,0.859001,18.2266,0.0856422,0.0748624,-0.0507074,0,0,0,-36.6625,2.59,-2.3275,0.060756,0.131272,-1.06189,-0.2436,0.10948,0.40166
0,0,0,5,5,5,5,-2.67755,0.956521,18.154,0.0839404,0.0725423,-0.0508402,0,0,0,-38.2375,2.45,-1.925,0.060756,0.131272,-1.06189,-0.24234,0.11004,0.39802
0,0,0,5,5,5,5,-2.78703,0.884825,18.1895,-0.0581616,0.0288656,0.0100712,0,0,0,-37.695,2.345,-1.89,-0.083204,0.089548,-1.00138,-0.24234,0.11004,0.39802
0,0,0,5,5,5,5,-2.89608,0.816505,18.2252,-0.0569693,0.0269638,0.00999456,0,0,0,-38.57,3.29,-1.645,-0.083204,0.089548,-1.00138,-0.24234,0.11004,0.39802
0,0,0,5,5,5,5,-3.04148,0.720845,18.2886,-0.0800829,0.0665624,-0.0426135,0,0,0,-39.3575,3.045,-1.575,-0.108092,0.131638,-1.05347,-0.24234,0.11004,0.39802
0,0,0,5,5,5,5,-3.18483,0.62684,18.3519,-0.0784424,0.0640633,-0.0427301,0,0,0,-39.6725,2.66,-1.6275,-0.108092,0.131638,-1.05347,-0.24234,0.11004,0.39802
0,0,0,5,5,5,5,-3.30985,0.664586,18.3237,0.0298715,0.0497948,0.00410522,0,0,0,-39.8825,2.6425,-1.4175,0.001342,0.11956,-1.00687,-0.24234,0.11004,0.39802
0,0,0,5,5,5,5,-3.43263,0.701998,18.2962,0.0292186,0.0476561,0.00397144,0,0,0,-39.7775,2.8175,-1.05,0.001342,0.11956,-1.00687,-0.24234,0.11004,0.39802
0,0,0,5,5,5,5,-3.36744,0.557633,18.3508,-0.130688,-0.160291,0.00714027,0,0,0,-40.25,2.8525,-0.875,-0.161772,-0.089304,-1.00382,-0.24234,0.11004,0.39802
0,0,0,5,5,5,5,-3.30378,0.415341,18.3969,-0.128205,-0.159183,0.00722597,0,0,0,-40.355,3.115,-0.385,-0.161772,-0.089304,-1.00382,-0.2471,0.1155,0.40446
0,0,0,5,5,5,5,-3.25753,0.581209,18.2397,0.128272,-0.120516,-0.0423012,0,0,0,-40.6875,3.045,-0.3675,0.098698,-0.051484,-1.05298,-0.2471,0.1155,0.40446
0,0,0,5,5,5,5,-3.21369,0.742913,18.0836,0.12545,-0.11975,-0.0422906,0,0,0,-41.3525,2.8,-0.525,0.098698,-0.051484,-1.05298,-0.2471,0.1155,0.40446
-0,0,0,5,5,5,5,-3.10736,0.482711,18.1979,-0.239447,-0.228303,-0.0288613,0,0,0,-42.455,2.9575,-0.3675,-0.272304,-0.161772,-1.03981,-0.2471,0.1155,0.40446
-0,0,0,5,5,5,5,-3.00481,0.228748,18.3097,-0.235014,-0.226517,-0.0287384,0,0,0,-43.855,3.29,-0.6125,-0.272304,-0.161772,-1.03981,-0.2471,0.1155,0.40446
0,0,0,5,5,5,5,-3.09046,0.234391,18.3099,0.113308,-0.225689,-0.100497,1,0,0,-44.5725,3.2725,-0.6125,0.077592,-0.159454,-1.11093,-0.2471,0.1155,0.40446
0,0,0,5,5,5,5,-3.17852,0.240274,18.3096,0.113205,-0.227224,-0.100582,1,0,0,-45.92,3.43,-0.9275,0.077592,-0.159454,-1.11093,-0.2471,0.1155,0.40446
0,0,0,5,5,5,5,-3.20746,0.464698,18.129,0.172583,-0.0471014,0.0137082,0,0,0,-46.515,3.2025,-1.3125,0.141154,0.020984,-0.997472,-0.2471,0.1155,0.40446
0,0,0,5,5,5,5,-3.23868,0.683435,17.941,0.168765,-0.0476433,0.0136393,0,0,0,-47.845,2.3625,-1.645,0.141154,0.020984,-0.997472,-0.24976,0.12068,0.40068
0,0,0,5,5,5,5,-3.36955,0.627019,17.9587,-0.0449154,0.0308016,0.053969,0,0,0,-46.9175,2.66,-2.065,-0.07442,0.101626,-0.957334,-0.24976,0.12068,0.40068
0,0,0,5,5,5,5,-3.49925,0.572394,17.9753,-0.0439621,0.0285415,0.0538433,0,0,0,-47.5475,2.9225,-2.7125,-0.07442,0.101626,-0.957334,-0.24976,0.12068,0.40068
0,0,0,5,5,5,5,-3.50329,0.806194,17.7705,0.180351,-0.0732574,0.00461065,0,0,0,-46.6725,3.815,-2.9225,0.15494,0,-1.00613,-0.24976,0.12068,0.40068
0,0,0,5,5,5,5,-3.5088,1.03442,17.5659,0.176368,-0.0733495,0.00454091,0,0,0,-47.1625,3.5875,-3.5875,0.15494,0,-1.00613,-0.24976,0.12068,0.40068
0,0,0,5,5,5,5,-3.5921,1.12747,17.4669,0.0690516,-0.004087,0.0129038,0,0,0,-47.7225,3.36,-3.7275,0.0488,0.070638,-0.997716,-0.24976,0.12068,0.40068
0,0,0,5,5,5,5,-3.67597,1.21738,17.3683,0.0674828,-0.00554554,0.012779,0,0,0,-48.7025,2.695,-3.85,0.0488,0.070638,-0.997716,-0.24976,0.12068,0.40068
0,0,0,5,5,5,5,-3.71428,1.20768,17.3265,-0.0150798,-0.0609256,0.0970821,0,0,0,-49.42,3.045,-4.235,-0.034282,0.015982,-0.914024,-0.24976,0.12068,0.40068
0,0,0,5,5,5,5,-3.75383,1.19838,17.2793,-0.0149175,-0.0616145,0.0970406,0,0,0,-50.4175,3.3425,-3.9375,-0.034282,0.015982,-0.914024,-0.25018,0.12572,0.41132
0,0,0,5,5,5,5,-3.85234,1.20471,17.2734,-0.106264,-0.107784,0.115735,1,0,0,-51.7125,3.9025,-4.0775,-0.125904,-0.028426,-0.895358,-0.25018,0.12572,0.41132
0,0,0,5,5,5,5,-3.95052,1.21029,17.2674,-0.106361,-0.109493,0.115617,1,0,0,-51.52,3.4825,-4.235,-0.125904,-0.028426,-0.895358,-0.25018,0.12572,0.41132
-0,0,0,5,5,5,5,-3.7673,1.3257,17.0861,0.0788346,-0.292543,0.0144779,0,0,0,-52.8325,2.695,-3.8675,0.062098,-0.214476,-0.995886,-0.25018,0.12572,0.41132
-0,0,0,5,5,5,5,-3.58676,1.43805,16.9076,0.0768743,-0.289397,0.0146327,0,0,0,-52.5,2.485,-3.57,0.062098,-0.214476,-0.995886,-0.25018,0.12572,0.41132
0,0,0,5,5,5,5,-3.57563,1.28542,16.9467,-0.134277,-0.13203,-0.0259879,0,0,0,-53.2,2.31,-2.8875,-0.152622,-0.057462,-1.03627,-0.25018,0.12572,0.41132
0,0,0,5,5,5,5,-3.56546,1.13836,16.9858,-0.131711,-0.131856,-0.0259227,0,0,0,-53.795,3.5175,-2.4325,-0.152622,-0.057462,-1.03627,-0.25018,0.12572,0.41132
-0,0,0,5,5,5,5,-3.33819,1.21285,16.8308,0.0421713,-0.35322,-0.000137257,0,0,0,-54.145,3.99,-1.645,0.023302,-0.282552,-1.01089,-0.25018,0.12572,0.41132
-0,0,0,5,5,5,5,-3.11473,1.28542,16.6778,0.040905,-0.349325,5.46231e-05,0,0,0,-54.145,3.99,-1.645,0.023302,-0.282552,-1.01089,-0.25018,0.12572,0.41132
0,0,0,5,5,5,5,-3.22881,1.04319,16.7982,-0.209502,-0.0113164,-0.035133,0,0,0,-56.3675,3.8325,-1.0325,-0.23241,0.057096,-1.04578,-0.24752,0.13454,0.40894
-0,0,0,5,5,5,5,-3.02095,1.06763,16.6688,0.00242837,-0.325224,0.0607108,0,0,0,-57.6275,3.92,-0.77,-0.019154,-0.260104,-0.950868,-0.24752,0.13454,0.40894
-0,0,0,5,5,5,5,-2.81928,1.09198,16.5416,0.00200336,-0.321709,0.0608821,0,0,0,-59.2025,4.2875,-0.3675,-0.019154,-0.260104,-0.950868,-0.24752,0.13454,0.40894
-0,0,0,5,5,5,5,-2.69054,1.40448,16.2351,0.219234,-0.222246,0.109682,0,0,0,-59.78,4.1125,-0.315,0.204472,-0.162992,-0.902434,-0.24752,0.13454,0.40894
-0,0,0,5,5,5,5,-2.56568,1.70951,15.9317,0.213912,-0.220064,0.109637,0,0,0,-60.27,3.815,-0.665,0.204472,-0.162992,-0.902434,-0.24752,0.13454,0.40894
0,0,0,5,5,5,5,-2.67875,1.71593,15.9315,0.0579339,0.0956176,0.210116,1,0,0,-59.9375,3.745,-0.8925,0.047946,0.15433,-0.802638,-0.24752,0.13454,0.40894
0,0,0,5,5,5,5,-2.79152,1.72255,15.9309,0.0578184,0.0936527,0.210018,1,0,0,-59.7625,3.8675,-1.1025,0.047946,0.15433,-0.802638,-0.24752,0.13454,0.40894
0,0,0,5,5,5,5,-2.94239,1.40245,16.1079,-0.255254,0.0127331,0.0568449,0,0,0,-58.6425,4.34,-1.4175,-0.27206,0.076128,-0.95465,-0.24752,0.13454,0.40894
0,0,0,5,5,5,5,-3.09243,1.09209,16.2757,-0.249838,0.0101124,0.0568249,0,0,0,-60.025,4.8475,-1.715,-0.27206,0.076128,-0.95465,-0.24262,0.1414,0.40964
0,0,0,5,5,5,5,-3.09746,1.30921,16.0506,0.159789,-0.0996408,0.0465361,0,0,0,-59.815,4.9,-1.995,0.143106,-0.033428,-0.964776,-0.24262,0.1414,0.40964
0,0,0,5,5,5,5,-3.10821,1.52028,15.8269,0.156106,-0.0998232,0.0464351,0,0,0,-62.7375,4.2,-2.205,0.143106,-0.033428,-0.964776,-0.24262,0.1414,0.40964
0,0,0,5,5,5,5,-3.22803,1.52754,15.8239,-0.0228475,0.0297422,0.109881,1,0,0,-63.6825,4.3225,-2.45,-0.036478,0.098088,-0.901702,-0.24262,0.1414,0.40964
0,0,0,5,5,5,5,-3.35036,1.5334,15.8206,-0.0229497,0.0276117,0.109755,1,0,0,-65.0825,3.5175,-2.6775,-0.036478,0.098088,-0.901702,-0.24262,0.1414,0.40964
0,0,0,5,5,5,5,-3.3206,1.1968,15.9659,-0.280336,-0.188897,0.0472216,0,0,0,-66.3075,4.1475,-2.975,-0.300852,-0.118706,-0.963922,-0.24262,0.1414,0.40964
0,0,0,5,5,5,5,-3.2925,0.867373,16.1082,-0.274587,-0.188414,0.0473533,0,0,0,-67.235,3.92,-3.4475,-0.300852,-0.118706,-0.963922,-0.24262,0.1414,0.40964
-0,0,0,5,5,5,5,-3.13014,0.978871,15.9172,0.0724951,-0.286093,0.0855947,0,0,0,-68.04,3.1675,-3.3075,0.049654,-0.219112,-0.926102,-0.24262,0.1414,0.40964
-0,0,0,5,5,5,5,-2.97162,1.085,15.7165,0.0706432,-0.283329,0.0857087,0,0,0,-68.075,3.3075,-3.325,0.049654,-0.219112,-0.926102,-0.2471,0.15008,0.41174
-0,0,0,5,5,5,5,-2.80605,1.26729,15.4625,0.145335,-0.313293,-0.00568464,0,0,0,-68.5125,2.94,-3.185,0.127856,-0.25193,-1.01687,-0.2471,0.15008,0.41174
-0,0,0,5,5,5,5,-2.64291,1.44741,15.2115,0.142192,-0.310446,-0.00562372,0,0,0,-68.11,4.1125,-3.2725,0.127856,-0.25193,-1.01687,-0.2471,0.15008,0.41174
-0,0,0,5,5,5,5,-2.55929,1.37316,15.1491,-0.0661971,-0.224844,0.0529978,0,0,0,-68.95,4.5325,-3.2025,-0.082716,-0.167872,-0.958798,-0.2471,0.15008,0.41174
-0,0,0,5,5,5,5,-2.47829,1.30085,15.0873,-0.0649352,-0.223434,0.0530894,0,0,0,-69.755,4.655,-2.975,-0.082716,-0.167872,-0.958798,-0.2471,0.15008,0.41174
-0,0,0,5,5,5,5,-2.39114,1.14302,15.0837,-0.133858,-0.242923,0.0350163,0,0,0,-70.7175,4.5675,-2.975,-0.154696,-0.188856,-0.976854,-0.2471,0.15008,0.41174
-0,0,0,5,5,5,5,-2.30948,0.989133,15.0798,-0.131172,-0.241501,0.0351247,0,0,0,-73.185,4.725,-2.8175,-0.154696,-0.188856,-0.976854,-0.2471,0.15008,0.41174
0,0,0,5,5,5,5,-2.36926,0.948949,15.0283,-0.0387495,-0.0862215,0.0360775,0,0,0,-74.0425,4.76,-2.9225,-0.062586,-0.032696,-0.975878,-0.2471,0.15008,0.41174
0,0,0,5,5,5,5,-2.4304,0.909329,14.9692,-0.0380581,-0.087288,0.036044,0,0,0,-75.285,4.97,-2.8,-0.062586,-0.032696,-0.975878,-0.25172,0.15596,0.41776
0,0,0,5,5,5,5,-2.48092,0.788082,14.9645,-0.100208,-0.103314,0.0456276,0,0,0,-75.285,4.9175,-2.9225,-0.127124,-0.047824,-0.966362,-0.25172,0.15596,0.41776
0,0,0,5,5,5,5,-2.53033,0.669246,14.9588,-0.0981342,-0.104177,0.0456162,0,0,0,-75.25,4.6725,-3.4475,-0.127124,-0.047824,-0.966362,-0.25172,0.15596,0.41776
0,0,0,5,5,5,5,-2.53514,0.770962,14.7951,0.070778,-0.135768,0.0369838,0,0,0,-75.2325,4.305,-3.3075,0.044286,-0.0793,-0.974902,-0.25172,0.15596,0.41776
0,0,0,5,5,5,5,-2.53911,0.870774,14.6331,0.0690362,-0.135836,0.0369558,0,0,0,-74.655,4.5675,-3.15,0.044286,-0.0793,-0.974902,-0.25172,0.15596,0.41776
0,0,0,5,5,5,5,-2.67848,0.878761,14.629,-0.0681391,-0.270163,-0.0789745,1,0,0,-74.655,4.76,-3.0625,-0.09333,-0.21106,-1.08983,-0.25172,0.15596,0.41776
0,0,0,5,5,5,5,-2.82223,0.888745,14.6251,-0.0683133,-0.272668,-0.0790976,1,0,0,-77.105,5.9325,-2.9575,-0.09333,-0.21106,-1.08983,-0.25172,0.15596,0.41776
0,0,0,5,5,5,5,-2.9679,0.898863,14.6216,0.320507,-0.423225,0.0105237,1,0,0,-78.19,6.0025,-2.6775,0.297314,-0.358924,-1.00077,-0.25172,0.15596,0.41776
0,0,0,5,5,5,5,-3.11835,0.908657,14.6183,0.320336,-0.425846,0.0103816,1,0,0,-80.8675,5.81,-2.5375,0.297314,-0.358924,-1.00077,-0.24864,0.17164,0.41832
0,0,0,5,5,5,5,-3.15749,0.914369,14.5053,-0.00182186,-0.120356,0.014277,0,0,0,-81.34,5.3375,-2.3975,-0.026108,-0.05307,-0.996862,-0.24864,0.17164,0.41832
0,0,0,5,5,5,5,-3.20153,0.919333,14.3936,-0.00190847,-0.121124,0.014233,0,0,0,-84.4375,4.97,-2.17,-0.026108,-0.05307,-0.996862,-0.24864,0.17164,0.41832
0,0,0,5,5,5,5,-3.27403,0.832353,14.3534,-0.0737679,-0.0963752,0.0395121,0,0,0,-84.4725,5.1625,-2.0825,-0.099796,-0.027084,-0.97173,-0.24864,0.17164,0.41832
0,0,0,5,5,5,5,-3.34552,0.747918,14.3133,-0.0722944,-0.097622,0.0394604,0,0,0,-84.665,5.46,-2.0475,-0.099796,-0.027084,-0.97173,-0.24864,0.17164,0.41832
0,0,0,5,5,5,5,-3.50104,0.758208,14.3107,-0.100659,-0.112666,0.241792,1,0,0,-83.72,6.09,-2.135,-0.1281,-0.039406,-0.770796,-0.24864,0.17164,0.41832
0,0,0,5,5,5,5,-3.65424,0.767216,14.3086,-0.100816,-0.115334,0.241623,1,0,0,-82.425,5.32,-1.785,-0.1281,-0.039406,-0.770796,-0.24864,0.17164,0.41832
0,0,0,5,5,5,5,-3.80781,0.776312,14.3066,0.0802821,-0.351637,0.170505,1,0,0,-82.635,5.3725,-1.75,0.053924,-0.272792,-0.84119,-0.24864,0.17164,0.41832
0,0,0,5,5,5,5,-3.96366,0.785955,14.3048,0.0801138,-0.35435,0.170319,1,0,0,-83.9125,5.6875,-1.61,0.053924,-0.272792,-0.84119,-0.24864,0.17164,0.41832
0,0,0,5,5,5,5,-4.12232,0.795691,14.3031,-0.0332808,-0.314368,-0.112291,1,0,0,-85.4875,5.74,-1.54,-0.05978,-0.230092,-1.12142,-0.24794,0.17864,0.42084
-0,0,0,5,5,5,5,-3.95317,0.726048,14.196,-0.064988,-0.391661,-0.0412492,0,0,0,-89.1625,6.44,-1.4,-0.092842,-0.310246,-1.05115,-0.24794,0.17864,0.42084
-0,0,0,5,5,5,5,-3.79315,0.65814,14.0882,-0.0638029,-0.388876,-0.0410463,0,0,0,-92.925,6.5625,-2.205,-0.092842,-0.310246,-1.05115,-0.24794,0.17864,0.42084
0,0,0,5,5,5,5,-3.72427,0.873101,13.8012,0.163754,-0.245762,0.0616445,0,0,0,-94.465,6.0025,-2.3275,0.139446,-0.168482,-0.949282,-0.24794,0.17864,0.42084
0,0,0,5,5,5,5,-3.66057,1.08124,13.5168,0.160122,-0.244649,0.0616543,0,0,0,-96.425,4.9,-2.6775,0.139446,-0.168482,-0.949282,-0.24794,0.17864,0.42084
0,0,0,5,5,5,5,-3.67632,1.12148,13.3643,0.0289444,-0.170914,0.0201896,0,0,0,-95.7775,4.48,-2.8,0.008418,-0.09455,-0.990396,-0.24794,0.17864,0.42084
0,0,0,5,5,5,5,-3.6903,1.16177,13.2117,0.0282414,-0.171156,0.0201599,0,0,0,-94.85,5.11,-3.5,0.008418,-0.09455,-0.990396,-0.24794,0.17864,0.42084
0,0,0,5,5,5,5,-3.60609,1.16303,13.0691,-0.000815663,-0.288275,-0.0301559,0,0,0,-93.1,5.7925,-3.675,-0.02074,-0.213012,-1.04042,-0.24794,0.17864,0.42084
0,0,0,5,5,5,5,-3.52231,1.16208,12.9181,-0.000799185,-0.286815,-0.0300647,0,0,0,-92.2425,6.0725,-4.1475,-0.02074,-0.213012,-1.04042,-0.24654,0.1855,0.4228
-0,0,0,5,5,5,5,-3.39119,1.14607,12.77,-0.0133972,-0.319704,0.0688065,0,0,0,-93.065,6.335,-4.1825,-0.033672,-0.248148,-0.94245,-0.24654,0.1855,0.4228
-0,0,0,5,5,5,5,-3.26747,1.13099,12.6225,-0.0131342,-0.31755,0.0689371,0,0,0,-96.11,6.65,-4.5325,-0.033672,-0.248148,-0.94245,-0.24654,0.1855,0.4228
0,0,0,5,5,5,5,-3.44895,1.14166,12.615,0.0183874,-0.129826,0.175221,1,0,0,-98.21,6.475,-4.9175,-0.00183,-0.057462,-0.836798,-0.24654,0.1855,0.4228
0,0,0,5,5,5,5,-3.63589,1.15171,12.6075,0.0182121,-0.133082,0.175016,1,0,0,-101.273,6.125,-4.9175,-0.00183,-0.057462,-0.836798,-0.24654,0.1855,0.4228
0,0,0,5,5,5,5,-3.82758,1.16189,12.5996,-0.0275226,-0.108331,0.102747,1,0,0,-103.933,6.23,-5.1625,-0.04758,-0.029402,-0.90829,-0.24654,0.1855,0.4228
0,0,0,5,5,5,5,-4.02296,1.17206,12.5915,-0.0277001,-0.111732,0.10251,1,0,0,-105.998,6.2475,-5.2325,-0.04758,-0.029402,-0.90829,-0.24654,0.1855,0.4228
0,0,0,5,5,5,5,-4.2207,1.18174,12.584,-0.293923,-0.119203,0.234182,1,0,0,-107.328,5.95,-4.8825,-0.31476,-0.033428,-0.777384,-0.24654,0.1855,0.4228
0,0,0,5,5,5,5,-4.41725,1.19048,12.5771,-0.294075,-0.122623,0.233921,1,0,0,-106.663,5.39,-4.5675,-0.31476,-0.033428,-0.777384,-0.25606,0.20258,0.42896
0,0,0,5,5,5,5,-4.61276,1.19898,12.5704,0.0917365,-0.395924,0.194675,1,0,0,-106.085,5.25,-4.41,0.072834,-0.303048,-0.816058,-0.25606,0.20258,0.42896
0,0,0,5,5,5,5,-4.80478,1.20829,12.5651,0.091574,-0.399263,0.194396,1,0,0,-104.143,5.67,-3.57,0.072834,-0.303048,-0.816058,-0.25606,0.20258,0.42896
-0,0,0,5,5,5,5,-4.67186,1.09089,12.4668,-0.0948016,-0.382788,-0.0379898,0,0,0,-103.758,6.3875,-3.5525,-0.116388,-0.288896,-1.04688,-0.25606,0.20258,0.42896
-0,0,0,5,5,5,5,-4.54457,0.979338,12.3702,-0.092855,-0.380577,-0.0377763,0,0,0,-105.963,8.0675,-2.485,-0.116388,-0.288896,-1.04688,-0.25606,0.20258,0.42896
-0,0,0,5,5,5,5,-4.35664,1.11324,12.0914,0.125062,-0.446916,-0.0160483,0,0,0,-108.203,8.89,-1.9775,0.104798,-0.358436,-1.02553,-0.25606,0.20258,0.42896
-0,0,0,5,5,5,5,-4.17995,1.24406,11.817,0.122779,-0.443838,-0.0158657,0,0,0,-112.823,8.7675,-1.5575,0.104798,-0.358436,-1.02553,-0.25606,0.20258,0.42896
0,0,0,5,5,5,5,-4.12979,1.14884,11.7245,-0.0802628,-0.306918,-0.0527752,0,0,0,-114.73,8.2075,-1.4,-0.100772,-0.222528,-1.06225,-0.25606,0.20258,0.42896
0,0,0,5,5,5,5,-4.08649,1.05021,11.6172,-0.0785416,-0.306167,-0.0526881,0,0,0,-117.723,7.525,-1.365,-0.100772,-0.222528,-1.06225,-0.25046,0.21406,0.42532
0,0,0,5,5,5,5,-4.30243,1.06262,11.6157,-0.187609,-0.11843,0.185552,1,0,0,-117.6,7.2975,-1.2775,-0.210084,-0.031232,-0.825574,-0.25046,0.21406,0.42532
0,0,0,5,5,5,5,-4.51639,1.07542,11.6132,-0.187833,-0.122152,0.185261,1,0,0,-116.48,7.56,-1.7675,-0.210084,-0.031232,-0.825574,-0.25046,0.21406,0.42532
0,0,0,5,5,5,5,-4.72755,1.08845,11.6101,0.266782,-0.362507,0.269549,1,0,0,-114.905,7.735,-2.135,0.246684,-0.267668,-0.741638,-0.25046,0.21406,0.42532
0,0,0,5,5,5,5,-4.93376,1.09968,11.6067,0.266586,-0.366092,0.269242,1,0,0,-112.123,6.7025,-2.3275,0.246684,-0.267668,-0.741638,-0.25046,0.21406,0.42532
0,0,0,5,5,5,5,-5.1411,1.11149,11.6028,0.388473,-0.73803,0.114128,1,0,0,-112.753,7.07,-2.59,0.369294,-0.63562,-0.895236,-0.25046,0.21406,0.42532
0,0,0,5,5,5,5,-5.35689,1.12428,11.598,0.38825,-0.741779,0.113779,1,0,0,-117.478,7.7,-3.0625,0.369294,-0.63562,-0.895236,-0.25046,0.21406,0.42532
0,0,0,5,5,5,5,-5.5778,1.13766,11.5929,-0.0929452,-0.27958,0.168857,1,0,0,-120.348,8.0675,-3.1325,-0.113704,-0.170068,-0.840214,-0.25046,0.21406,0.42532
0,0,0,5,5,5,5,-5.8068,1.15119,11.5876,-0.0931813,-0.283556,0.168456,1,0,0,-124.88,8.1725,-3.22,-0.113704,-0.170068,-0.840214,-0.25074,0.22638,0.42728
