pid_x,pid_y,pid_z,front_left_speed,front_right_speed,back_left_speed,back_right_speed,orientation_x,orientation_y,orientation_z,acceleration_x,acceleration_y,acceleration_z,accel_rejected,mag_rejected,gyro_x,gyro_y,gyro_z,accel_x,accel_y,accel_z,mag_x,mag_y,mag_z
-0.0480013,0,0,15.048,15.048,14.952,14.952,0.0192005,0.0655747,0.00517588,0.0513812,-0.0162191,-0.00793047,0,0,3.6575,0.07,-0.9975,0.012444,-0.004392,-1.02053,-0.0644,0.11452,0.45444
-0.0951038,0,0,15.0951,15.0951,14.9049,14.9049,0.0380415,0.129741,0.010302,0.0502613,-0.0158902,-0.00793254,0,0,3.675,0.105,-1.0325,0.012444,-0.004392,-1.02053,-0.0644,0.11452,0.45444
-0.14004,0,0,15.14,15.14,14.86,14.86,0.056016,0.190391,0.0174927,0.047016,-0.0149659,0.00190012,0,0,3.6925,0.1225,-0.945,0.010248,-0.003782,-1.01077,-0.0644,0.11452,0.45444
-0.182221,0,0,15.1822,15.1822,14.8178,14.8178,0.0728883,0.24644,0.0275568,0.0433651,-0.0139387,0.00226491,0,0,3.745,0.175,-1.0325,0.007564,-0.00305,-1.0104,-0.0644,0.11452,0.45444
-0.22222,0,0,15.2222,15.2222,14.7778,14.7778,0.088888,0.30103,0.0374929,0.0424123,-0.0136594,0.00225996,0,0,3.4475,0.0525,-1.1025,0.007564,-0.00305,-1.0104,-0.0644,0.11452,0.45444
-0.265905,0,0,15.2659,15.2659,14.7341,14.7341,0.106362,0.358058,0.0493823,0.0442112,-0.0149421,-0.00168064,0,0,3.4825,0.0525,-0.9975,0.01037,-0.004636,-1.01431,-0.06734,0.11256,0.44548
-0.29656,0,0,15.2966,15.2966,14.7034,14.7034,0.118624,0.413232,0.0614281,0.0433697,-0.0108201,-0.00599074,0,0,3.29,-0.07,-0.945,0.010492,-0.000732,-1.01858,-0.06734,0.11256,0.44548
-0.334397,0,0,15.3344,15.3344,14.6656,14.6656,0.133759,0.46926,0.0719813,0.0436067,-0.0129985,-0.0018186,0,0,3.4475,0.035,-0.875,0.011712,-0.003172,-1.01443,-0.06734,0.11256,0.44548
-0.372769,0,0,15.3728,15.3728,14.6272,14.6272,0.149107,0.523854,0.0827868,0.0422895,-0.0128527,-0.00133572,0,0,3.6575,0.175,-0.945,0.011346,-0.003294,-1.01394,-0.06734,0.11256,0.44548
-0.409896,0,0,15.4099,15.4099,14.5901,14.5901,0.163958,0.577315,0.093519,0.0413564,-0.0125936,-0.0013454,0,0,3.5525,0.2275,-0.98,0.011346,-0.003294,-1.01394,-0.06734,0.11256,0.44548
-0.441422,0,0,15.4414,15.4414,14.5586,14.5586,0.176569,0.630191,0.103598,0.0406766,-0.0106638,0.00503754,0,0,3.5,0.2275,-0.9625,0.01159,-0.001586,-1.0076,-0.06734,0.11256,0.44548
-0.472318,0,0,15.4723,15.4723,14.5277,14.5277,0.188927,0.681895,0.113665,0.0397743,-0.0104481,0.00502652,0,0,3.5,0.2275,-0.9625,0.01159,-0.001586,-1.0076,-0.06734,0.11256,0.44548
-0.498913,0,0,15.4989,15.4989,14.5011,14.5011,0.199565,0.725933,0.126565,0.0343893,-0.00928548,-2.44357e-05,0,0,3.3425,0.07,-0.7525,0.006954,-0.00061,-1.0126,-0.06636,0.11396,0.44982
-0.533705,0,0,15.5337,15.5337,14.4663,14.4663,0.213482,0.775245,0.133489,0.0385096,-0.0116073,0.00131585,0,0,3.6575,0,-0.91,0.011956,-0.003172,-1.01126,-0.06636,0.11396,0.44982
-0.564833,0,0,15.5648,15.5648,14.4352,14.4352,0.225933,0.815992,0.147364,0.0322102,-0.0110237,-0.00926843,0,0,3.325,0.0525,-0.8575,0.006344,-0.002806,-1.02175,-0.06636,0.11396,0.44982
-0.598287,0,0,15.5983,15.5983,14.4017,14.4017,0.239315,0.857879,0.159247,0.032451,-0.0115229,0.000678771,0,0,3.43,0.1925,-1.0675,0.00732,-0.003538,-1.01187,-0.06636,0.11396,0.44982
-0.632991,0,0,15.633,15.633,14.367,14.367,0.253196,0.902222,0.168066,0.0347144,-0.0121356,-0.00339146,0,0,3.36,0.105,-0.98,0.01037,-0.004392,-1.01589,-0.06636,0.11396,0.44982
-0.666766,0,0,15.6668,15.6668,14.3332,14.3332,0.266706,0.945338,0.176961,0.0339619,-0.0118999,-0.00340466,0,0,3.3075,-0.035,-0.9275,0.01037,-0.004392,-1.01589,-0.06636,0.11396,0.44982
-0.702949,0,0,15.7029,15.7029,14.2971,14.2971,0.28118,0.986997,0.186294,0.032749,-0.0123802,-0.00317223,0,0,3.535,0,-0.98,0.009882,-0.005124,-1.01565,-0.06636,0.11396,0.44982
-0.738253,0,0,15.7383,15.7383,14.2617,14.2617,0.295301,1.02798,0.196519,0.0320338,-0.0121338,-0.00318605,0,0,3.5,0.035,-0.8925,0.009882,-0.005124,-1.01565,-0.06944,0.11396,0.44786
-0.76508,0,0,15.7651,15.7651,14.2349,14.2349,0.306032,1.06456,0.209545,0.0284799,-0.00889346,0.00270284,0,0,3.64,-0.0175,-0.945,0.006954,-0.002074,-1.00979,-0.06944,0.11396,0.44786
-0.790674,0,0,15.7907,15.7907,14.2093,14.2093,0.31627,1.10391,0.219574,0.0307088,-0.00883701,-0.0035815,0,0,3.465,0.1925,-0.9625,0.009882,-0.002196,-1.01602,-0.06944,0.11396,0.44786
-0.815674,0,0,15.8157,15.8157,14.1843,14.1843,0.32627,1.14206,0.22955,0.0300431,-0.00866259,-0.00359553,0,0,3.4475,0,-0.98,0.009882,-0.002196,-1.01602,-0.06944,0.11396,0.44786
-0.839959,0,0,15.84,15.84,14.16,14.16,0.335984,1.18171,0.237647,0.0309306,-0.00824892,0.000446764,0,0,3.5175,0.0875,-0.8925,0.011468,-0.001952,-1.01199,-0.06944,0.11396,0.44786
-0.874838,0,0,15.8748,15.8748,14.1252,14.1252,0.349935,1.22632,0.24071,0.0347686,-0.0120358,0.000305998,0,0,3.4475,0.07,-0.84,0.016104,-0.005978,-1.01211,-0.06944,0.11396,0.44786
-0.908781,0,0,15.9088,15.9088,14.0912,14.0912,0.363512,1.26987,0.243712,0.0340086,-0.011799,0.000287965,0,0,3.395,0.035,-0.875,0.016104,-0.005978,-1.01211,-0.06944,0.11396,0.44786
-0.928542,0,0,15.9285,15.9285,14.0715,14.0715,0.371417,1.30384,0.253758,0.0268558,-0.00689817,-0.00599661,0,0,3.4475,0.0875,-1.2075,0.009516,-0.00122,-1.01833,-0.06944,0.11396,0.44786
-0.948956,0,0,15.949,15.949,14.051,14.051,0.379583,1.34219,0.26442,0.0299526,-0.00675579,-0.001218,0,0,3.64,0.1575,-1.0675,0.013298,-0.00122,-1.01358,-0.07014,0.11144,0.4445
-0.96789,0,0,15.9679,15.9679,14.0321,14.0321,0.387156,1.37368,0.28049,0.0245438,-0.00686799,-0.00037127,0,0,3.2375,0.1225,-1.05,0.008418,-0.001464,-1.01272,-0.07014,0.11144,0.4445
-0.98861,0,0,15.9886,15.9886,14.0114,14.0114,0.395444,1.40955,0.291993,0.0282913,-0.00745625,-0.00395297,0,0,3.29,0.0525,-0.9625,0.01281,-0.002196,-1.01626,-0.07014,0.11144,0.4445
-1.01023,0,0,16.0102,16.0102,13.9898,13.9898,0.404092,1.44454,0.30329,0.0276809,-0.00730547,-0.00396923,0,0,3.5875,0,-1.0675,0.01281,-0.002196,-1.01626,-0.07014,0.11144,0.4445
-1.02988,0,0,16.0299,16.0299,13.9701,13.9701,0.411952,1.47913,0.314293,0.0273202,-0.00667994,-0.00226433,0,0,3.535,0,-0.9975,0.013054,-0.001708,-1.01455,-0.07014,0.11144,0.4445
-1.10029,0,0,16.1003,16.1003,13.8997,13.8997,0.440117,1.52222,0.318123,0.0330072,-0.0240192,0.00926948,0,0,3.535,-0.1575,-0.77,0.01952,-0.01952,-1.00308,-0.07014,0.11144,0.4445
-1.09624,0,0,16.0962,16.0962,13.9038,13.9038,0.438496,1.43465,0.432864,-0.070307,0.00111094,-0.0383949,0,0,3.465,-0.385,-0.8575,-0.085766,0.005612,-1.05042,-0.06818,0.11354,0.44842
-1.29068,0,0,16.2907,16.2907,13.7093,13.7093,0.516273,1.52471,0.392,0.056532,-0.0576188,0.139583,0,0,3.22,-0.175,-0.98,0.043188,-0.054412,-0.873764,-0.06818,0.11354,0.44842
-1.03397,0,0,16.034,16.034,13.966,13.966,0.413587,1.55426,0.395281,0.0275887,0.0909276,-0.0232005,0,0,2.9925,-0.0525,-1.19,0.01464,0.09577,-1.03529,-0.06818,0.11354,0.44842
-0.782321,0,0,15.7823,15.7823,14.2177,14.2177,0.312928,1.58323,0.398564,0.0270833,0.0891714,-0.0232032,0,0,2.9925,-0.0525,-1.19,0.01464,0.09577,-1.03529,-0.06818,0.11354,0.44842
-0.479581,0,0,15.4796,15.4796,14.5204,14.5204,0.191832,1.81342,0.217515,0.145525,0.0863255,0.205248,0,0,3.0625,0.315,-0.805,0.137616,0.095038,-0.808494,-0.06818,0.11354,0.44842
-0.477964,0,0,15.478,15.478,14.522,14.522,0.191186,1.81379,0.217809,0.145519,0.0863142,0.205248,1,0,3.0625,0.315,-0.805,0.137616,0.095038,-0.808494,-0.06818,0.11354,0.44842
-0.476781,0,0,15.4768,15.4768,14.5232,14.5232,0.190713,1.81195,0.217676,0.0765469,-0.361411,0.197872,1,0,3.1675,-0.98,-1.05,0.06832,-0.352214,-0.815814,-0.06818,0.11354,0.44842
-0.477027,0,0,15.477,15.477,14.523,14.523,0.190811,1.81083,0.216855,-0.462101,0.038434,-0.0272458,1,0,3.5,-0.56,-1.4525,-0.472628,0.047214,-1.0392,-0.06818,0.11354,0.44842
-0.480564,0,0,15.4806,15.4806,14.5194,14.5194,0.192226,1.80918,0.215221,-0.462072,0.0384587,-0.027245,1,0,4.2525,-0.875,-1.925,-0.472628,0.047214,-1.0392,-0.06622,0.11858,0.45976
-0.48504,0,0,15.485,15.485,14.515,14.515,0.194016,1.80884,0.213623,-0.45502,-0.133831,-0.162119,1,0,4.4625,-0.105,-1.9075,-0.465552,-0.124928,-1.17303,-0.06622,0.11858,0.45976
-0.483934,0,0,15.4839,15.4839,14.5161,14.5161,0.193574,1.81067,0.212481,-0.455052,-0.133839,-0.16212,1,0,3.2025,1.1725,-1.645,-0.465552,-0.124928,-1.17303,-0.06622,0.11858,0.45976
-0.478782,0,0,15.4788,15.4788,14.5212,14.5212,0.191513,1.81227,0.211489,0.0348717,-0.188465,0.158529,1,0,2.2925,1.0325,-1.5575,0.026474,-0.179462,-0.854854,-0.06622,0.11858,0.45976
-0.477399,0,0,15.4774,15.4774,14.5226,14.5226,0.190959,1.81205,0.210791,0.0348756,-0.188475,0.158529,1,0,3.1325,-0.035,-1.3825,0.026474,-0.179462,-0.854854,-0.06622,0.11858,0.45976
-1.09554,0,0,16.0955,16.0955,13.9045,13.9045,0.438215,2.16236,-0.0780229,0.254486,-0.203948,0.134195,0,0,2.415,0.315,-1.1725,0.25315,-0.199226,-0.878766,-0.06622,0.11858,0.45976
-1.71046,0,0,16.7105,16.7105,13.2895,13.2895,0.684185,2.50375,-0.363526,0.248532,-0.199661,0.133911,0,0,4.2875,-0.595,-1.1725,0.25315,-0.199226,-0.878766,-0.06622,0.11858,0.45976
-1.56131,0,0,16.5613,16.5613,13.4387,13.4387,0.624523,3.29728,-1.08303,0.769845,0.0610087,0.108632,0,0,4.445,-1.0325,-0.875,0.79056,0.06222,-0.903166,-0.06622,0.11858,0.45976
-1.56634,0,0,16.5663,16.5663,13.4337,13.4337,0.626538,3.29551,-1.08381,0.769876,0.0610439,0.108633,1,0,4.585,-0.945,-1.4175,0.79056,0.06222,-0.903166,-0.0665,0.12334,0.46424
-1.57216,0,0,16.5722,16.5722,13.4278,13.4278,0.628865,3.29401,-1.08458,-0.709915,0.103829,0.0206033,1,0,4.76,-0.7875,-1.4175,-0.695522,0.10492,-0.990518,-0.0665,0.12334,0.46424
-1.56992,0,0,16.5699,16.5699,13.4301,13.4301,0.627969,3.29414,-1.08441,-0.709918,0.103813,0.0206033,1,0,2.9225,0.175,-0.875,-0.695522,0.10492,-0.990518,-0.0665,0.12334,0.46424
-1.56502,0,0,16.565,16.565,13.435,13.435,0.626008,3.29638,-1.08322,-1.16188,0.0165805,-0.447095,1,0,2.2925,1.4175,-0.2975,-1.14936,0.017812,-1.45461,-0.0665,0.12334,0.46424
-1.55958,0,0,16.5596,16.5596,13.4404,13.4404,0.623832,3.29877,-1.08251,-1.16193,0.0165425,-0.447097,1,0,2.1875,1.505,-0.5775,-1.14936,0.017812,-1.45461,-0.0665,0.12334,0.46424
-1.55539,0,0,16.5554,16.5554,13.4446,13.4446,0.622155,3.29762,-1.08235,1.15774,0.456047,0.112198,1,0,2.485,-0.5775,-0.875,1.18011,0.45689,-0.899628,-0.0665,0.12334,0.46424
-1.5492,0,0,16.5492,16.5492,13.4508,13.4508,0.619682,3.29649,-1.08138,1.15776,0.456004,0.112199,1,0,2.0125,-0.56,-0.4025,1.18011,0.45689,-0.899628,-0.0665,0.12334,0.46424
-1.54863,0,0,16.5486,16.5486,13.4514,13.4514,0.619452,3.29494,-1.08047,0.0985557,-0.62592,0.00535851,1,0,3.2725,-0.805,-0.4375,0.116388,-0.623908,-1.00565,-0.0665,0.12334,0.46424
-1.55387,0,0,16.5539,16.5539,13.4461,13.4461,0.62155,3.29347,-1.07872,0.0985813,-0.625884,0.00535959,1,0,4.55,-0.7525,0.0525,0.116388,-0.623908,-1.00565,-0.06412,0.12516,0.48468
-1.55934,0,0,16.5593,16.5593,13.4407,13.4407,0.623736,3.29407,-1.07761,-0.137111,-0.151872,-0.480165,1,0,4.62,0.455,-0.3325,-0.120292,-0.150426,-1.48742,-0.06412,0.12516,0.48468
-1.56945,0,0,16.5695,16.5695,13.4305,13.4305,0.627781,3.29438,-1.07509,-0.137117,-0.151801,-0.480166,1,0,5.6175,0.2975,0.49,-0.120292,-0.150426,-1.48742,-0.06412,0.12516,0.48468
-1.57222,0,0,16.5722,16.5722,13.4278,13.4278,0.628889,3.29267,-1.07319,-0.563502,0.101875,-0.197383,1,0,3.99,-0.8925,0.14,-0.548512,0.102968,-1.20682,-0.06412,0.12516,0.48468
-1.57591,0,0,16.5759,16.5759,13.4241,13.4241,0.630364,3.29138,-1.07195,-0.563479,0.101901,-0.197382,1,0,4.2175,-0.6475,-0.245,-0.548512,0.102968,-1.20682,-0.06412,0.12516,0.48468
-1.57852,0,0,16.5785,16.5785,13.4215,13.4215,0.63141,3.29218,-1.06949,-0.287478,0.329075,-0.242259,1,0,3.9375,0.5775,0.455,-0.271328,0.329888,-1.25135,-0.06412,0.12516,0.48468
-1.57986,0,0,16.5799,16.5799,13.4201,13.4201,0.631944,3.29408,-1.06779,-0.287511,0.329084,-0.242261,1,0,3.675,1.225,0,-0.271328,0.329888,-1.25135,-0.06412,0.12516,0.48468
-1.25664,0,0,16.2566,16.2566,13.7434,13.7434,0.502657,3.89983,-1.64644,0.448953,0.106265,0.213237,0,0,3.4825,-0.4375,-0.6125,0.47885,0.109556,-0.798734,-0.06412,0.12516,0.48468
-0.929936,0,0,15.9299,15.9299,14.0701,14.0701,0.371974,4.49347,-2.22725,0.43862,0.103984,0.212496,0,0,1.8375,-0.945,-1.0325,0.47885,0.109556,-0.798734,-0.06412,0.12516,0.48468
-0.930043,0,0,15.93,15.93,14.07,14.07,0.372017,4.49218,-2.22829,-0.137078,-0.432029,-0.0879885,1,0,3.5,-0.665,-1.575,-0.099308,-0.425902,-1.0969,-0.06734,0.1274,0.49056
-0.930306,0,0,15.9303,15.9303,14.0697,14.0697,0.372123,4.49074,-2.22933,-0.388528,0.32235,-0.213886,1,0,3.535,-0.7525,-1.575,-0.351848,0.327692,-1.22183,-0.06734,0.1274,0.49056
-0.934357,0,0,15.9344,15.9344,14.0656,14.0656,0.373743,4.49121,-2.23135,-0.388537,0.322378,-0.213887,1,0,4.4275,0.3675,-2.1525,-0.351848,0.327692,-1.22183,-0.06734,0.1274,0.49056
-0.940505,0,0,15.9405,15.9405,14.0595,14.0595,0.376202,4.4919,-2.23382,-0.0732933,0.0407963,-0.209093,1,0,4.9175,0.49,-2.415,-0.035258,0.04636,-1.21707,-0.06734,0.1274,0.49056
-0.942877,0,0,15.9429,15.9429,14.0571,14.0571,0.377151,4.49419,-2.23565,-0.0733332,0.0408128,-0.209096,1,0,4.0425,1.435,-2.0475,-0.035258,0.04636,-1.21707,-0.06734,0.1274,0.49056
-0.299683,0,0,15.2997,15.2997,14.7003,14.7003,0.119873,4.33118,-2.14772,-0.151285,0.24786,-0.055664,0,0,4.8125,1.295,-1.9775,-0.116388,0.257664,-1.06506,-0.06734,0.1274,0.49056
0.338084,0,0,14.6619,14.6619,15.3381,15.3381,-0.135234,4.17051,-2.05792,-0.148488,0.24342,-0.0554567,0,0,3.22,0.875,-1.6975,-0.116388,0.257664,-1.06506,-0.06734,0.1274,0.49056
-0.157625,0,0,15.1576,15.1576,14.8424,14.8424,0.0630499,4.30868,-2.207,0.111516,-0.170924,0.0540373,0,0,3.57,0.6125,-1.82,0.147132,-0.159698,-0.956236,-0.06734,0.1274,0.49056
-0.636467,0,0,15.6365,15.6365,14.3635,14.3635,0.254587,4.43912,-2.37547,0.109246,-0.167591,0.0538544,0,0,1.82,-0.2625,-1.6625,0.147132,-0.159698,-0.956236,-0.06734,0.14042,0.4837
-0.633974,0,0,15.634,15.634,14.366,14.366,0.25359,4.43854,-2.37665,-0.179515,-0.0469476,0.157132,1,0,2.9225,-0.245,-1.6625,-0.142862,-0.039162,-0.853756,-0.06734,0.14042,0.4837
-0.631495,0,0,15.6315,15.6315,14.3685,14.3685,0.252598,4.43739,-2.37735,-0.179495,-0.0469649,0.157134,1,0,2.905,-0.5775,-1.3825,-0.142862,-0.039162,-0.853756,-0.06734,0.14042,0.4837
-0.5229,0,0,15.5229,15.5229,14.4771,14.4771,0.20916,4.33078,-2.3467,-0.0893199,0.0415544,-0.0993146,0,0,3.2375,-0.4025,-1.33,-0.054168,0.05002,-1.10837,-0.06734,0.14042,0.4837
-0.419569,0,0,15.4196,15.4196,14.5804,14.5804,0.167828,4.22685,-2.31589,-0.087511,0.0408355,-0.0991769,0,0,3.9375,-0.1225,-1.295,-0.054168,0.05002,-1.10837,-0.06734,0.14042,0.4837
-0.42417,0,0,15.4242,15.4242,14.5758,14.5758,0.169668,4.22608,-2.31632,0.0225683,-0.0403467,-0.164462,1,0,4.48,-0.35,-1.225,0.056364,-0.03111,-1.17315,-0.06734,0.14042,0.4837
-0.429602,0,0,15.4296,15.4296,14.5704,14.5704,0.171841,4.22696,-2.31563,0.0225531,-0.0403089,-0.164463,1,0,4.62,0.6125,-0.5775,0.056364,-0.03111,-1.17315,-0.06734,0.14042,0.4837
-0.43757,0,0,15.4376,15.4376,14.5624,14.5624,0.175028,4.22847,-2.31515,-0.129452,0.133655,-0.131392,1,0,5.1975,0.98,-0.7,-0.096258,0.142618,-1.14033,-0.06734,0.14042,0.4837
-0.437249,0,0,15.4372,15.4372,14.5628,14.5628,0.174899,4.22919,-2.31434,-0.129464,0.133653,-0.131393,1,0,3.325,0.525,-0.5075,-0.096258,0.142618,-1.14033,-0.0714,0.1519,0.48636
-0.321921,0,0,15.3219,15.3219,14.6781,14.6781,0.128769,4.24789,-2.40984,0.016722,0.0429645,-0.0494081,0,0,3.6225,0.0875,-0.84,0.050874,0.052826,-1.05896,-0.0714,0.1519,0.48636
-0.205738,0,0,15.2057,15.2057,14.7943,14.7943,0.0822952,4.2654,-2.50378,0.0164172,0.0421556,-0.0494293,0,0,2.87,-0.3325,-0.035,0.050874,0.052826,-1.05896,-0.0714,0.1519,0.48636
-0.206678,0,0,15.2067,15.2067,14.7933,14.7933,0.082671,4.26415,-2.50249,0.027494,0.0579165,0.2411,1,0,3.5875,-0.63,-0.2275,0.061976,0.068564,-0.770674,-0.0714,0.1519,0.48636
-0.207265,0,0,15.2073,15.2073,14.7927,14.7927,0.0829061,4.26169,-2.50142,0.027537,0.0579206,0.241103,1,0,3.5175,-1.3475,-0.35,0.061976,0.068564,-0.770674,-0.0714,0.1519,0.48636
-0.20748,0,0,15.2075,15.2075,14.7925,14.7925,0.0829918,4.26003,-2.50068,0.109326,0.00308717,-0.127126,1,0,3.4475,-0.875,-0.5425,0.144082,0.013786,-1.13606,-0.0714,0.1519,0.48636
-0.210325,0,0,15.2103,15.2103,14.7897,14.7897,0.08413,4.2598,-2.50006,0.10933,0.00310698,-0.127126,1,0,4.0425,-0.035,-0.6125,0.144082,0.013786,-1.13606,-0.0714,0.1519,0.48636
-0.216676,0,0,15.2167,15.2167,14.7833,14.7833,0.0866704,4.25975,-2.50073,-0.456064,0.180601,-0.0997081,1,0,4.8825,0.07,-1.365,-0.423706,0.191052,-1.10886,-0.0714,0.1519,0.48636
-0.221333,0,0,15.2213,15.2213,14.7787,14.7787,0.0885332,4.26102,-2.50127,-0.456086,0.180634,-0.0997098,1,0,4.4975,0.84,-1.295,-0.423706,0.191052,-1.10886,-0.07056,0.154,0.49532
-0.261681,0,0,15.2617,15.2617,14.7383,14.7383,0.104672,4.14668,-2.47509,-0.0946196,-0.0118011,-0.0505075,0,0,5.145,0.875,-0.98,-0.062708,-0.001464,-1.06018,-0.07056,0.154,0.49532
-0.291946,0,0,15.2919,15.2919,14.7081,14.7081,0.116778,4.0349,-2.44973,-0.0926736,-0.01159,-0.0503687,0,0,3.0975,0.945,-1.4,-0.062708,-0.001464,-1.06018,-0.07056,0.154,0.49532
-0.469538,0,0,15.4695,15.4695,14.5305,14.5305,0.187815,4.10177,-2.58237,0.0594771,-0.0640893,-0.00729989,0,0,3.5525,0.7,-1.3825,0.091256,-0.055144,-1.01736,-0.07056,0.154,0.49532
-0.640794,0,0,15.6408,15.6408,14.3592,14.3592,0.256318,4.16675,-2.71429,0.058346,-0.0628972,-0.00738627,0,0,2.8875,0.3675,-1.225,0.091256,-0.055144,-1.01736,-0.07056,0.154,0.49532
-0.545881,0,0,15.5459,15.5459,14.4541,14.4541,0.218352,4.17501,-2.80212,0.00644942,0.0335327,-0.0204266,0,0,3.01,-0.1925,-1.2075,0.039284,0.041846,-1.03029,-0.07056,0.154,0.49532
-0.454659,0,0,15.4547,15.4547,14.5453,14.5453,0.181864,4.18225,-2.88948,0.00632329,0.0328975,-0.0204335,0,0,3.4125,-0.6475,-1.0325,0.039284,0.041846,-1.03029,-0.07056,0.154,0.49532
-0.458631,0,0,15.4586,15.4586,14.5414,14.5414,0.183452,4.18062,-2.88994,-0.0814825,-0.0388854,-0.108217,1,0,4.34,-0.8575,-1.2425,-0.048922,-0.02989,-1.1174,-0.07056,0.154,0.49532
-0.465194,0,0,15.4652,15.4652,14.5348,14.5348,0.186077,4.18016,-2.88989,-0.0814744,-0.0388397,-0.108216,1,0,4.9,-0.175,-0.945,-0.048922,-0.02989,-1.1174,-0.06188,0.15036,0.49742
-0.50121,0,0,15.5012,15.5012,14.4988,14.4988,0.200484,3.90699,-2.71103,-0.233192,-0.00988792,-0.0348496,0,0,5.2675,-0.2625,-1.295,-0.206058,-0.00122,-1.04493,-0.06188,0.15036,0.49742
-0.532459,0,0,15.5325,15.5325,14.4675,14.4675,0.212984,3.64229,-2.53113,-0.228582,-0.00966915,-0.0345462,0,0,4.34,1.435,-0.4725,-0.206058,-0.00122,-1.04493,-0.06188,0.15036,0.49742
-0.537193,0,0,15.5372,15.5372,14.4628,14.4628,0.214877,3.64377,-2.53128,0.535415,-0.0307641,-0.246511,1,0,4.4975,0.9625,-1.0675,0.5612,-0.022326,-1.25526,-0.06188,0.15036,0.49742
-0.536053,0,0,15.5361,15.5361,14.4639,14.4639,0.214421,3.64533,-2.53059,0.535388,-0.030772,-0.246513,1,0,3.15,1.015,-0.5775,0.5612,-0.022326,-1.25526,-0.06188,0.15036,0.49742
-0.53792,0,0,15.5379,15.5379,14.4621,14.4621,0.215168,3.64621,-2.53111,-0.0942874,0.0780559,-0.192663,1,0,3.8675,0.6125,-1.2775,-0.071126,0.086376,-1.20182,-0.06188,0.15036,0.49742
-0.540326,0,0,15.5403,15.5403,14.4597,14.4597,0.21613,3.64685,-2.53069,-0.0942986,0.0780726,-0.192663,1,0,3.955,0.4725,-0.735,-0.071126,0.086376,-1.20182,-0.06188,0.15036,0.49742
-0.548013,0,0,15.548,15.548,14.452,14.452,0.219205,3.64662,-2.53043,-0.0880988,-0.0689144,-0.194999,1,0,5.145,-0.035,-0.8225,-0.064904,-0.060512,-1.20414,-0.06188,0.15036,0.49742
-0.557407,0,0,15.5574,15.5574,14.4426,14.4426,0.222963,3.64472,-2.53023,-0.0880657,-0.0688489,-0.194997,1,0,5.53,-1.015,-0.8575,-0.064904,-0.060512,-1.20414,-0.06818,0.15834,0.5005
-0.569305,0,0,15.5693,15.5693,14.4307,14.4307,0.227722,3.64345,-2.53049,0.447344,-0.0290748,-0.192168,1,0,6.1075,-0.6475,-1.12,0.47275,-0.020862,-1.20133,-0.06818,0.15834,0.5005
-0.577339,0,0,15.5773,15.5773,14.4227,14.4227,0.230936,3.64269,-2.5305,0.447357,-0.0290189,-0.192168,1,0,5.2325,-0.35,-0.98,0.47275,-0.020862,-1.20133,-0.06818,0.15834,0.5005
-0.586202,0,0,15.5862,15.5862,14.4138,14.4138,0.234481,3.64228,-2.5302,-0.187399,-0.0511842,0.180735,1,0,5.4075,-0.14,-0.805,-0.1647,-0.043066,-0.831308,-0.06818,0.15834,0.5005
-0.588376,0,0,15.5884,15.5884,14.4116,14.4116,0.23535,3.64245,-2.53075,-0.187401,-0.051169,0.180735,1,0,3.9375,0.1925,-1.295,-0.1647,-0.043066,-0.831308,-0.06818,0.15834,0.5005
-0.456733,0,0,15.4567,15.4567,14.5433,14.5433,0.182693,3.26484,-2.25948,-0.308869,0.0467156,0.0635965,0,0,3.7625,0.21,-1.1375,-0.293288,0.055632,-0.94794,-0.06818,0.15834,0.5005
-0.323153,0,0,15.3232,15.3232,14.6768,14.6768,0.129261,2.89498,-1.98789,-0.302423,0.0457853,0.0639458,0,0,2.835,0.4025,-1.085,-0.293288,0.055632,-0.94794,-0.06818,0.15834,0.5005
0.0349699,0,0,14.965,14.965,15.035,15.035,-0.013988,3.4481,-2.55454,0.481483,0.135616,0.0786599,0,0,4.34,-0.175,-1.225,0.503616,0.147864,-0.932812,-0.06818,0.15834,0.5005
0.385305,0,0,14.6147,14.6147,15.3853,15.3853,-0.154122,3.9913,-3.12208,0.472022,0.133177,0.0780412,0,0,5.0225,0.07,-0.84,0.503616,0.147864,-0.932812,-0.06818,0.15834,0.5005
0.372375,0,0,14.6276,14.6276,15.3724,15.3724,-0.14895,3.99096,-3.12265,0.57031,0.0454575,-0.0157678,1,0,6.3525,-0.105,-1.3125,0.602314,0.060146,-1.0259,-0.06482,0.15414,0.52332
0.359715,0,0,14.6403,14.6403,15.3597,15.3597,-0.143886,3.98954,-3.12344,0.0794111,-0.109922,-0.228959,1,0,6.3,-0.735,-1.435,0.109312,-0.09516,-1.23745,-0.06482,0.15414,0.52332
0.349798,0,0,14.6502,14.6502,15.3498,15.3498,-0.139919,3.98967,-3.12384,0.0794088,-0.109853,-0.228959,1,0,5.67,0.175,-1.2075,0.109312,-0.09516,-1.23745,-0.06482,0.15414,0.52332
0.341852,0,0,14.6581,14.6581,15.3419,15.3419,-0.136741,3.98953,-3.12481,-0.0353928,0.0575164,-0.101707,1,0,5.25,0.0175,-1.54,-0.005978,0.07198,-1.11118,-0.06482,0.15414,0.52332
0.339047,0,0,14.661,14.661,15.339,15.339,-0.135619,3.9902,-3.12527,-0.0354044,0.0575359,-0.101707,1,0,4.0775,0.49,-1.2425,-0.005978,0.07198,-1.11118,-0.06482,0.15414,0.52332
0.998659,0,0,14.0013,14.0013,15.9987,15.9987,-0.399464,4.10799,-3.32182,0.0792926,0.234423,0.0444348,0,0,3.675,0.245,-1.1375,0.111264,0.253272,-0.965996,-0.06482,0.15414,0.52332
1.65106,0,0,13.3489,13.3489,16.6511,16.6511,-0.660425,4.22369,-3.51927,0.0772785,0.229882,0.0442461,0,0,2.6075,0.595,-1.19,0.111264,0.253272,-0.965996,-0.06482,0.15414,0.52332
1.65276,0,0,13.3472,13.3472,16.6528,16.6528,-0.661105,4.22386,-3.51916,0.146765,-0.162767,-0.158496,1,0,3.045,0.1925,-0.91,0.181048,-0.138958,-1.16717,-0.06482,0.15414,0.52332
1.65314,0,0,13.3469,13.3469,16.6531,16.6531,-0.661255,4.22411,-3.51908,0.146761,-0.162769,-0.158497,1,0,3.3425,0.245,-0.9275,0.181048,-0.138958,-1.16717,-0.0637,0.1568,0.51968
1.83402,0,0,13.166,13.166,16.834,16.834,-0.733607,4.24291,-3.62367,0.0115847,0.0669133,-0.00829319,0,0,4.235,0.1925,-0.84,0.045628,0.091744,-1.01809,-0.0637,0.1568,0.51968
2.00537,0,0,12.9946,12.9946,17.0054,17.0054,-0.802147,4.26135,-3.72825,0.0112638,0.0657207,-0.00833303,0,0,5.6,0.2625,-0.8925,0.045628,0.091744,-1.01809,-0.0637,0.1568,0.51968
1.99418,0,0,13.0058,13.0058,16.9942,16.9942,-0.797671,4.26133,-3.72808,0.323604,-0.274813,-0.175665,1,0,5.9325,0.0875,-0.875,0.35929,-0.248514,-1.18413,-0.0637,0.1568,0.51968
1.97889,0,0,13.0211,13.0211,16.9789,16.9789,-0.791557,4.26137,-3.72812,0.323603,-0.274706,-0.175663,1,0,6.86,0.1225,-0.9975,0.35929,-0.248514,-1.18413,-0.0637,0.1568,0.51968
2.79976,0,0,12.2002,12.2002,17.7998,17.7998,-1.1199,4.29786,-3.86257,0.00965649,0.320444,-0.0152355,0,0,6.23,0.455,-0.7875,0.044652,0.351726,-1.0248,-0.0637,0.1568,0.51968
3.61351,0,0,11.3865,11.3865,18.6135,18.6135,-1.4454,4.33242,-3.9974,0.0090549,0.314781,-0.0154077,0,0,4.48,0.0175,-0.7875,0.044652,0.351726,-1.0248,-0.0637,0.1568,0.51968
4.01636,0,0,10.9836,10.9836,19.0164,19.0164,-1.60655,4.30215,-4.06425,-0.0392555,0.138923,0.0470152,0,0,3.885,-0.14,-0.805,-0.004392,0.178852,-0.962824,-0.0637,0.1568,0.51968
4.41993,0,0,10.5801,10.5801,19.4199,19.4199,-1.76797,4.27303,-4.13505,-0.0387487,0.136114,0.0469705,0,0,2.0125,0.0175,-0.7875,-0.004392,0.178852,-0.962824,-0.06538,0.15988,0.51926
5.33415,0,0,9.66585,9.66585,20.3342,20.3342,-2.13366,4.28867,-4.25818,-0.0149667,0.337369,0.0332091,0,0,2.6775,-0.2275,-0.84,0.019764,0.386252,-0.976244,-0.06538,0.15988,0.51926
6.2284,0,0,8.7716,8.7716,21.2284,21.2284,-2.49136,4.30332,-4.38169,-0.0152217,0.331149,0.0329388,0,0,3.465,-0.315,-0.91,0.019764,0.386252,-0.976244,-0.06538,0.15988,0.51926
6.2266,0,0,8.7734,8.7734,21.2266,21.2266,-2.49064,4.3027,-4.38125,-0.115194,-0.211203,0.117283,1,0,3.815,-0.28,-0.735,-0.080642,-0.15555,-0.892552,-0.06538,0.15988,0.51926
6.22194,0,0,8.77806,8.77806,21.2219,21.2219,-2.48878,4.30232,-4.38136,-0.115187,-0.211171,0.117285,1,0,4.48,-0.1225,-1.05,-0.080642,-0.15555,-0.892552,-0.06538,0.15988,0.51926
6.21771,0,0,8.78229,8.78229,21.2177,21.2177,-2.48708,4.30197,-4.3821,-0.108135,-0.197219,-0.148159,1,0,4.41,-0.0875,-1.4175,-0.073566,-0.141642,-1.15595,-0.06538,0.15988,0.51926
6.20971,0,0,8.79029,8.79029,21.2097,21.2097,-2.48388,4.30108,-4.38228,-0.108119,-0.197163,-0.148156,1,0,5.2325,-0.42,-1.1025,-0.073566,-0.141642,-1.15595,-0.06538,0.15988,0.51926
5.68113,0,0,9.31887,9.31887,20.6811,20.6811,-2.27245,4.62609,-4.76264,0.295268,-0.194324,0.0786417,0,0,4.34,0.0525,-1.155,0.337208,-0.142496,-0.930616,-0.06538,0.15988,0.51926
5.16675,0,0,9.83325,9.83325,20.1668,20.1668,-2.0667,4.94957,-5.1296,0.289642,-0.19073,0.0783062,0,0,3.395,-0.0875,-1.6625,0.337208,-0.142496,-0.930616,-0.06958,0.15246,0.50708
5.16921,0,0,9.83079,9.83079,20.1692,20.1692,-2.06768,4.94978,-5.13085,-0.129609,0.194563,0.216622,1,0,2.94,0.245,-1.6975,-0.083814,0.242414,-0.793366,-0.06958,0.15246,0.50708
5.17052,0,0,9.82948,9.82948,20.1705,20.1705,-2.06821,4.94992,-5.1315,-0.129612,0.194554,0.216622,1,0,3.1675,0.1925,-1.3475,-0.083814,0.242414,-0.793366,-0.06958,0.15246,0.50708
5.12742,0,0,9.87258,9.87258,20.1274,20.1274,-2.05097,4.93551,-5.2052,-0.0128562,-0.0164269,0.021535,0,0,3.0975,0.14,-1.4525,0.033184,0.031354,-0.98698,-0.06958,0.15246,0.50708
5.08325,0,0,9.91675,9.91675,20.0832,20.0832,-2.0333,4.92152,-5.2794,-0.0126129,-0.0161206,0.0215669,0,0,3.5525,0.21,-1.785,0.033184,0.031354,-0.98698,-0.06958,0.15246,0.50708
5.08463,0,0,9.91537,9.91537,20.0846,20.0846,-2.03385,4.922,-5.28072,-0.210521,0.0198973,0.183735,1,0,3.185,0.4025,-1.7325,-0.165554,0.067344,-0.826062,-0.06958,0.15246,0.50708
5.0824,0,0,9.9176,9.9176,20.0824,20.0824,-2.03296,4.92157,-5.28122,-0.210514,0.0199128,0.183736,1,0,3.955,-0.14,-1.2775,-0.165554,0.067344,-0.826062,-0.06958,0.15246,0.50708
5.08246,0,0,9.91754,9.91754,20.0825,20.0825,-2.03298,4.92137,-5.28152,-0.0957064,-0.0368766,0.167015,1,0,3.43,-0.0175,-1.155,-0.050264,0.010614,-0.842654,-0.06958,0.15246,0.50708
5.0839,0,0,9.9161,9.9161,20.0839,20.0839,-2.03356,4.92085,-5.28205,-0.0956975,-0.0368867,0.167016,1,0,3.1325,-0.1925,-1.295,-0.050264,0.010614,-0.842654,-0.0714,0.1582,0.50428
5.03968,0,0,9.96032,9.96032,20.0397,20.0397,-2.01587,4.82966,-5.29038,-0.0766176,-0.0165553,-0.0291869,0,0,2.4325,-0.105,-1.0675,-0.032696,0.030622,-1.03749,-0.0714,0.1582,0.50428
4.99863,0,0,10.0014,10.0014,19.9986,19.9986,-1.99945,4.7406,-5.29847,-0.0750688,-0.0162744,-0.0290473,0,0,1.9075,0.0525,-0.8925,-0.032696,0.030622,-1.03749,-0.0714,0.1582,0.50428
5.00609,0,0,9.99391,9.99391,20.0061,20.0061,-2.00243,4.74069,-5.29793,-0.192183,0.178344,0.157832,1,0,1.7325,0.14,-0.665,-0.150304,0.22509,-0.852048,-0.0714,0.1582,0.50428
5.01013,0,0,9.98987,9.98987,20.0101,20.0101,-2.00405,4.74062,-5.29785,-0.192181,0.178316,0.157832,1,0,2.52,0.0525,-0.9275,-0.150304,0.22509,-0.852048,-0.0714,0.1582,0.50428
4.79128,0,0,10.2087,10.2087,19.7913,19.7913,-1.91651,4.91776,-5.54647,0.167859,-0.083337,-0.0115536,0,0,3.115,-0.07,-0.7525,0.214354,-0.03782,-1.01992,-0.0714,0.1582,0.50428
4.57501,0,0,10.425,10.425,19.575,19.575,-1.83,5.09217,-5.79382,0.164826,-0.081825,-0.0117698,0,0,3.4125,0.2975,-0.56,0.214354,-0.03782,-1.01992,-0.0714,0.1582,0.50428
4.72532,0,0,10.2747,10.2747,19.7253,19.7253,-1.89013,5.06127,-5.86781,-0.0344804,0.0512239,0.0467674,0,0,4.0425,0.1575,-0.7175,0.013664,0.096136,-0.961848,-0.0714,0.1582,0.50428
4.87584,0,0,10.1242,10.1242,19.8758,19.8758,-1.95034,5.03058,-5.94152,-0.0339469,0.0501761,0.0467794,0,0,3.3425,-0.0175,-0.6475,0.013664,0.096136,-0.961848,-0.0714,0.1582,0.50428
4.87899,0,0,10.121,10.121,19.879,19.879,-1.9516,5.03107,-5.94094,-0.314101,-0.0979855,-0.116375,1,0,2.695,0.3675,-0.63,-0.267668,-0.05185,-1.12374,-0.06748,0.15344,0.50876
4.8854,0,0,10.1146,10.1146,19.8854,19.8854,-1.95416,5.03057,-5.94099,-0.314093,-0.0980301,-0.116375,1,0,1.995,-0.1925,-1.015,-0.267668,-0.05185,-1.12374,-0.06748,0.15344,0.50876
4.89557,0,0,10.1044,10.1044,19.8956,19.8956,-1.95823,5.03031,-5.94111,-0.00527153,-0.0527918,0.256771,1,0,1.155,-0.0525,-1.05,0.042456,-0.006588,-0.753472,-0.06748,0.15344,0.50876
4.90444,0,0,10.0956,10.0956,19.9044,19.9044,-1.96178,5.02997,-5.94098,-0.211548,-0.170828,-0.125231,1,0,1.435,-0.105,-0.91,-0.1647,-0.12444,-1.13253,-0.06748,0.15344,0.50876
5.1067,0,0,9.8933,9.8933,20.1067,20.1067,-2.04268,5.14491,-6.14822,0.108998,0.077522,-0.0653365,0,0,1.61,-0.0175,-1.2075,0.15921,0.12505,-1.07287,-0.06748,0.15344,0.50876
5.20882,0,0,9.79118,9.79118,20.2088,20.2088,-2.08353,5.03165,-6.13801,-0.103091,0.0426105,-0.0985059,0,0,2.38,-0.14,-1.225,-0.055754,0.09089,-1.10593,-0.06748,0.15344,0.50876
5.30733,0,0,9.69267,9.69267,20.3073,20.3073,-2.12293,4.92102,-6.12723,-0.101167,0.0419197,-0.0983636,0,0,2.73,0.1225,-0.9625,-0.055754,0.09089,-1.10593,-0.06748,0.15344,0.50876
5.51052,0,0,9.48948,9.48948,20.5105,20.5105,-2.20421,4.88225,-6.18655,-0.0416941,0.0699377,0.0232368,0,0,2.6425,0.5075,-0.9275,0.003294,0.120292,-0.985272,-0.06748,0.15344,0.50876
5.73052,0,0,9.26948,9.26948,20.7305,20.7305,-2.29221,4.82714,-6.23264,-0.0537345,0.0861136,-0.0583797,0,0,2.905,0.175,-1.1025,-0.00976,0.137982,-1.06628,-0.06496,0.154,0.5096
5.7368,0,0,9.2632,9.2632,20.7368,20.7368,-2.29472,4.82745,-6.23281,0.127517,-0.274082,-0.0904714,1,0,2.03,0.28,-1.0675,0.172264,-0.221796,-1.09812,-0.06496,0.154,0.5096
5.74318,0,0,9.25682,9.25682,20.7432,20.7432,-2.29727,4.82683,-6.2327,0.127527,-0.274126,-0.0904723,1,0,1.995,-0.2625,-0.9275,0.172264,-0.221796,-1.09812,-0.06496,0.154,0.5096
5.75059,0,0,9.24941,9.24941,20.7506,20.7506,-2.30024,4.82628,-6.23269,0.334427,-0.517454,-0.0529743,1,0,1.7675,-0.2275,-0.98,0.38003,-0.46482,-1.06091,-0.06496,0.154,0.5096
5.75922,0,0,9.24078,9.24078,20.7592,20.7592,-2.30369,4.82599,-6.2329,0.334432,-0.517514,-0.0529762,1,0,1.505,-0.07,-1.1025,0.38003,-0.46482,-1.06091,-0.06496,0.154,0.5096
5.00917,0,0,9.99083,9.99083,20.0092,20.0092,-2.00367,4.59021,-6.05898,-0.192481,-0.284057,-0.00338615,0,0,1.645,0.1225,-0.805,-0.153232,-0.236802,-1.01223,-0.06496,0.154,0.5096
4.27061,0,0,10.7294,10.7294,19.2706,19.2706,-1.70825,4.35981,-5.88747,-0.188471,-0.278929,-0.00290607,0,0,2.2575,0.4025,-0.6125,-0.153232,-0.236802,-1.01223,-0.06496,0.154,0.5096
4.27704,0,0,10.723,10.723,19.277,19.277,-1.71081,4.36011,-5.88677,-0.00685559,-0.0414376,-0.162126,1,0,1.96,0.2625,-0.56,0.029158,0.000488,-1.17022,-0.06496,0.154,0.5096
4.28085,0,0,10.7191,10.7191,19.2809,19.2809,-1.71234,4.36117,-5.88672,-0.00687405,-0.0414641,-0.162128,1,0,2.5725,0.7175,-0.9275,0.029158,0.000488,-1.17022,-0.0644,0.14616,0.50442
4.06325,0,0,10.9368,10.9368,19.0632,19.0632,-1.6253,4.07032,-5.66539,-0.252922,-0.0803845,0.00869544,0,0,2.6775,0.5075,-0.6825,-0.223016,-0.039894,-1.00113,-0.0644,0.14616,0.50442
3.84868,0,0,11.1513,11.1513,18.8487,18.8487,-1.53947,3.785,-5.44505,-0.247954,-0.0789001,0.00907767,0,0,2.975,0.42,-0.63,-0.223016,-0.039894,-1.00113,-0.0644,0.14616,0.50442
3.85158,0,0,11.1484,11.1484,18.8516,18.8516,-1.54063,3.78499,-5.44511,0.0338927,0.0401533,-0.203009,1,0,2.7825,0.0875,-1.015,0.060024,0.079056,-1.21158,-0.0644,0.14616,0.50442
3.85725,0,0,11.1428,11.1428,18.8572,18.8572,-1.5429,3.78532,-5.44543,0.0338869,0.0401138,-0.20301,1,0,2.17,0.2975,-1.155,0.060024,0.079056,-1.21158,-0.0644,0.14616,0.50442
3.71872,0,0,11.2813,11.2813,18.7187,18.7187,-1.48749,3.59936,-5.31948,-0.164054,-0.0539415,-0.0376562,0,0,1.7325,0.105,-1.015,-0.142008,-0.01586,-1.04774,-0.0644,0.14616,0.50442
3.58222,0,0,11.4178,11.4178,18.5822,18.5822,-1.43289,3.41616,-5.1944,-0.160863,-0.0529957,-0.0374364,0,0,1.9075,-0.4375,-1.2425,-0.142008,-0.01586,-1.04774,-0.0644,0.14616,0.50442
3.58879,0,0,11.4112,11.4112,18.5888,18.5888,-1.43552,3.41559,-5.19502,0.0653531,-0.341749,-0.0708789,1,0,1.9775,-0.2275,-1.3475,0.085156,-0.304268,-1.08092,-0.0644,0.14616,0.50442
3.59158,0,0,11.4084,11.4084,18.5916,18.5916,-1.43663,3.41554,-5.19644,0.065354,-0.341769,-0.0708793,1,0,2.8525,0.0875,-1.8025,0.085156,-0.304268,-1.08092,-0.06734,0.14266,0.49686
3.59312,0,0,11.4069,11.4069,18.5931,18.5931,-1.43725,3.41643,-5.19737,-0.154186,-0.0105715,-0.161002,1,0,3.115,0.63,-1.505,-0.135298,0.026596,-1.17035,-0.06734,0.14266,0.49686
3.59386,0,0,11.4061,11.4061,18.5939,18.5939,-1.43754,3.41698,-5.19862,-0.154196,-0.0105766,-0.161002,1,0,3.3075,0.4375,-1.6975,-0.135298,0.026596,-1.17035,-0.06734,0.14266,0.49686
3.25572,0,0,11.7443,11.7443,18.2557,18.2557,-1.30229,3.23709,-5.05924,-0.151061,-0.12278,0.0188638,0,0,3.2025,0.3675,-1.89,-0.135298,-0.08784,-0.992104,-0.06734,0.14266,0.49686
2.9283,0,0,12.0717,12.0717,17.9283,17.9283,-1.17132,3.06037,-4.92141,-0.147982,-0.120502,0.0190824,0,0,2.275,0.0875,-2.1875,-0.135298,-0.08784,-0.992104,-0.06734,0.14266,0.49686
2.93387,0,0,12.0661,12.0661,17.9339,17.9339,-1.17355,3.06007,-4.92339,0.114433,0.0856094,0.163915,1,0,2.24,-0.0525,-2.135,0.128222,0.118096,-0.848388,-0.06734,0.14266,0.49686
2.93915,0,0,12.0609,12.0609,17.9391,17.9391,-1.17566,3.05955,-4.92435,0.114442,0.0855726,0.163915,1,0,2.275,-0.1925,-1.54,0.128222,0.118096,-0.848388,-0.06734,0.14266,0.49686
2.94364,0,0,12.0564,12.0564,17.9436,17.9436,-1.17746,3.05904,-4.92528,0.221358,0.0421863,-0.130301,1,0,2.45,-0.1925,-1.5225,0.235582,0.074786,-1.14033,-0.06734,0.14266,0.49686
2.94654,0,0,12.0535,12.0535,17.9465,17.9465,-1.17862,3.05894,-4.92649,0.22136,0.0421661,-0.130301,1,0,2.8175,0.0525,-1.68,0.235582,0.074786,-1.14033,-0.06272,0.13972,0.49238
2.94819,0,0,12.0518,12.0518,17.9482,17.9482,-1.17928,3.05916,-4.92656,0.0106998,-0.0753313,0.419278,1,0,3.0625,0.2275,-1.015,0.024034,-0.042578,-0.594994,-0.06272,0.13972,0.49238
2.94961,0,0,12.0504,12.0504,17.9496,17.9496,-1.17984,3.05946,-4.92552,0.0106945,-0.0753412,0.419278,1,0,3.08,0.2625,-0.3675,0.024034,-0.042578,-0.594994,-0.06272,0.13972,0.49238
2.95145,0,0,12.0485,12.0485,17.9515,17.9515,-1.18058,3.05973,-4.92469,0.0242962,0.0466506,-0.382224,1,0,2.9925,0.245,-0.49,0.037698,0.0793,-1.39031,-0.06272,0.13972,0.49238
2.95183,0,0,12.0482,12.0482,17.9518,17.9518,-1.18073,3.05944,-4.92343,0.0243013,0.0466479,-0.382224,1,0,3.3075,-0.0875,-0.245,0.037698,0.0793,-1.39031,-0.06272,0.13972,0.49238
3.06763,0,0,11.9324,11.9324,18.0676,18.0676,-1.22705,2.65912,-4.57993,-0.32601,0.0358189,0.139163,0,0,3.1325,0.4025,0.0525,-0.321104,0.069296,-0.873276,-0.06272,0.13972,0.49238
3.18284,0,0,11.8172,11.8172,18.1828,18.1828,-1.27313,2.26587,-4.23523,-0.319153,0.0350092,0.139441,0,0,2.8525,0.2275,0.5075,-0.321104,0.069296,-0.873276,-0.06272,0.13972,0.49238
3.5069,0,0,11.4931,11.4931,18.5069,18.5069,-1.40276,2.44043,-4.42874,0.156092,0.122027,-0.00692307,0,0,2.7475,0.3325,0.3675,0.15921,0.158478,-1.01833,-0.06272,0.13972,0.49238
3.82569,0,0,11.1743,11.1743,18.8257,18.8257,-1.53028,2.61149,-4.61763,0.15311,0.119808,-0.00711151,0,0,2.6075,0.3325,0.245,0.15921,0.158478,-1.01833,-0.0651,0.13678,0.49126
3.73961,0,0,11.2604,11.2604,18.7396,18.7396,-1.49585,2.41538,-4.44557,-0.177799,-0.0328653,-0.0294452,0,0,2.695,0.77,0.42,-0.176534,0.005368,-1.04066,-0.0651,0.13678,0.49126
3.65367,0,0,11.3463,11.3463,18.6537,18.6537,-1.46147,2.22284,-4.2742,-0.174442,-0.0322695,-0.0292938,0,0,3.0625,0.63,0.2625,-0.176534,0.005368,-1.04066,-0.0651,0.13678,0.49126
3.45867,0,0,11.5413,11.5413,18.4587,18.4587,-1.38347,2.01433,-4.08109,-0.194009,-0.0752448,-0.0642888,0,0,3.5875,0.4025,0.1225,-0.199836,-0.038918,-1.07555,-0.0651,0.13678,0.49126
3.26678,0,0,11.7332,11.7332,18.2668,18.2668,-1.30671,1.80991,-3.88934,-0.190443,-0.0739091,-0.0641383,0,0,3.745,0.42,-0.21,-0.199836,-0.038918,-1.07555,-0.0651,0.13678,0.49126
3.29972,0,0,11.7003,11.7003,18.2997,18.2997,-1.31989,2.0249,-4.09809,0.197963,0.0129403,-0.0224666,0,0,3.8675,0.245,-0.42,0.19398,0.048068,-1.03407,-0.0651,0.13678,0.49126
3.33484,0,0,11.6652,11.6652,18.3348,18.3348,-1.33394,2.2356,-4.3076,0.194288,0.0126985,-0.022609,0,0,3.2725,0.1925,-0.9975,0.19398,0.048068,-1.03407,-0.0651,0.13678,0.49126
2.70988,0,0,12.2901,12.2901,17.7099,17.7099,-1.08395,2.35122,-4.40628,0.0972696,-0.222187,0.0784659,0,0,3.6575,-0.2625,-1.4525,0.098576,-0.19093,-0.933788,-0.0651,0.13678,0.49126
2.10091,0,0,12.8991,12.8991,17.1009,17.1009,-0.840366,2.4647,-4.50504,0.0952907,-0.217939,0.0784541,0,0,2.6075,-0.2275,-2.0475,0.098576,-0.19093,-0.933788,-0.0651,0.13678,0.49126
2.10032,0,0,12.8997,12.8997,17.1003,17.1003,-0.840128,2.43876,-4.49689,-0.0206403,6.10588e-05,-0.0800071,0,0,2.9225,-0.0175,-2.1,-0.0183,0.02684,-1.09105,-0.06748,0.13538,0.48734
2.12692,0,0,12.8731,12.8731,17.1269,17.1269,-0.850767,2.66802,-4.72747,0.186748,0.00622881,0.0737434,0,0,3.115,-0.14,-2.59,0.19398,0.033184,-0.938302,-0.06748,0.13538,0.48734
2.14816,0,0,12.8518,12.8518,17.1482,17.1482,-0.859263,2.89301,-4.95788,0.182825,0.00608355,0.0735507,0,0,4.235,0,-2.695,0.19398,0.033184,-0.938302,-0.06748,0.13538,0.48734
2.16258,0,0,12.8374,12.8374,17.1626,17.1626,-0.865034,2.84396,-4.93751,-0.0420401,0.0090355,-0.0734543,0,0,4.585,0,-2.695,-0.032696,0.036234,-1.08421,-0.06748,0.13538,0.48734
2.17687,0,0,12.8231,12.8231,17.1769,17.1769,-0.87075,2.7964,-4.91694,-0.0412109,0.00893525,-0.073415,0,0,4.55,0.2975,-2.555,-0.032696,0.036234,-1.08421,-0.06748,0.13538,0.48734
2.17058,0,0,12.8294,12.8294,17.1706,17.1706,-0.868233,2.79592,-4.91973,-0.000626397,0.178125,0.16486,1,0,4.9175,-0.1575,-2.6075,0.008052,0.205204,-0.847778,-0.06748,0.13538,0.48734
2.17093,0,0,12.8291,12.8291,17.1709,17.1709,-0.868371,2.79551,-4.92189,-0.000619284,0.178122,0.164861,1,0,3.4125,-0.1225,-2.24,0.008052,0.205204,-0.847778,-0.06748,0.13538,0.48734
2.22614,0,0,12.7739,12.7739,17.2261,17.2261,-0.890455,3.00239,-5.13868,0.182255,0.0190975,0.0133225,0,0,3.5,-0.455,-2.1,0.195322,0.046726,-0.99796,-0.06748,0.13538,0.48734
2.27964,0,0,12.7204,12.7204,17.2796,17.2796,-0.911854,3.20277,-5.34497,0.178763,0.0187276,0.0131273,0,0,3.535,-0.5775,-1.785,0.195322,0.046726,-0.99796,-0.06062,0.12754,0.48622
1.99157,0,0,13.0084,13.0084,16.9916,16.9916,-0.796629,3.20211,-5.34755,0.000433451,-0.1042,0.031969,0,0,3.535,-0.42,-1.4525,0.016226,-0.07808,-0.979294,-0.06062,0.12754,0.48622
1.70451,0,0,13.2955,13.2955,16.7045,16.7045,-0.681804,3.20175,-5.34978,0.000439807,-0.1022,0.0319952,0,0,4.4975,-0.28,-1.19,0.016226,-0.07808,-0.979294,-0.06062,0.12754,0.48622
2.19038,0,0,12.8096,12.8096,17.1904,17.1904,-0.876151,3.24484,-5.43133,0.0389287,0.193992,-0.0380508,0,0,4.6375,-0.0525,-0.7875,0.055632,0.221186,-1.04871,-0.06062,0.12754,0.48622
2.66815,0,0,12.3319,12.3319,17.6681,17.6681,-1.06726,3.28841,-5.51175,0.0381695,0.190663,-0.0381506,0,0,4.4275,0.7525,-0.0525,0.055632,0.221186,-1.04871,-0.06062,0.12754,0.48622
2.66202,0,0,12.338,12.338,17.662,17.662,-1.06481,3.2884,-5.50983,0.34322,0.0898287,-0.0504447,1,0,4.7425,0.07,0.14,0.361974,0.120414,-1.06091,-0.06062,0.12754,0.48622
2.65987,0,0,12.3401,12.3401,17.6599,17.6599,-1.06395,3.28882,-5.50732,0.343213,0.0898437,-0.0504448,1,0,3.8325,0.315,0.49,0.361974,0.120414,-1.06091,-0.06062,0.12754,0.48622
2.65562,0,0,12.3444,12.3444,17.6556,17.6556,-1.06225,3.28867,-5.50492,-0.016625,-0.0570452,0.151191,1,0,4.305,-0.0175,0.42,0.00061,-0.026352,-0.860832,-0.06062,0.12754,0.48622
2.65184,0,0,12.3482,12.3482,17.6518,17.6518,-1.06074,3.28841,-5.50195,-0.0166204,-0.0570188,0.151192,1,0,4.1825,-0.0875,0.7525,0.00061,-0.026352,-0.860832,-0.06664,0.12712,0.47922
2.40625,0,0,12.5937,12.5937,17.4063,17.4063,-0.9625,3.29261,-5.50535,0.0106406,-0.0968304,-0.0839823,0,0,3.9375,0.0875,0.5425,0.02806,-0.067832,-1.09422,-0.06664,0.12712,0.47922
2.16692,0,0,12.8331,12.8331,17.1669,17.1669,-0.866769,3.2966,-5.50878,0.010571,-0.0951624,-0.0839597,0,0,3.5525,0,0.56,0.02806,-0.067832,-1.09422,-0.06664,0.12712,0.47922
2.3106,0,0,12.6894,12.6894,17.3106,17.3106,-0.924241,3.3687,-5.59599,0.0605818,0.0525878,0.0157857,0,0,3.5175,0.1225,0.42,0.079544,0.080764,-0.995154,-0.06664,0.12712,0.47922
2.45036,0,0,12.5496,12.5496,17.4504,17.4504,-0.980142,3.43938,-5.68355,0.0593503,0.0516152,0.0156963,0,0,3.815,0.14,0.1925,0.079544,0.080764,-0.995154,-0.06664,0.12712,0.47922
2.18603,0,0,12.814,12.814,17.186,17.186,-0.874413,3.35223,-5.60338,-0.0761671,-0.104576,-0.0889359,0,0,3.85,0.28,0.14,-0.058072,-0.077104,-1.0991,-0.06664,0.12712,0.47922
1.92752,0,0,13.0725,13.0725,16.9275,16.9275,-0.771008,3.26693,-5.52459,-0.0746809,-0.102776,-0.0888241,0,0,3.6925,0.35,-0.3675,-0.058072,-0.077104,-1.0991,-0.06664,0.12712,0.47922
1.81957,0,0,13.1804,13.1804,16.8196,16.8196,-0.727828,3.58953,-5.83237,0.306631,-0.044742,-0.0139064,0,0,4.2175,-0.4025,-1.015,0.330498,-0.019886,-1.02443,-0.06664,0.12712,0.47922
1.71791,0,0,13.2821,13.2821,16.7179,16.7179,-0.687163,3.90698,-6.14376,0.301102,-0.0440294,-0.0142599,0,0,3.2725,0.175,-1.1725,0.330498,-0.019886,-1.02443,-0.06762,0.1302,0.48468
1.44946,0,0,13.5505,13.5505,16.4495,16.4495,-0.579782,3.85819,-6.11444,-0.0363859,-0.10701,-0.0806967,0,0,3.4475,-0.3325,-1.505,-0.009272,-0.084668,-1.09044,-0.06762,0.1302,0.48468
1.19134,0,0,13.8087,13.8087,16.1913,16.1913,-0.476538,3.81066,-6.08643,-0.0355583,-0.105212,-0.0806246,0,0,2.2925,-0.1925,-2.0825,-0.009272,-0.084668,-1.09044,-0.06762,0.1302,0.48468
1.72475,0,0,13.2753,13.2753,16.7247,16.7247,-0.689898,3.93881,-6.26458,0.109329,0.202986,0.00365203,0,0,3.01,-0.175,-2.5725,0.13847,0.22692,-1.00662,-0.06762,0.1302,0.48468
2.24726,0,0,12.7527,12.7527,17.2473,17.2473,-0.898905,4.06415,-6.44298,0.107147,0.199349,0.00344893,0,0,3.325,-0.28,-2.3975,0.13847,0.22692,-1.00662,-0.06762,0.1302,0.48468
2.24829,0,0,12.7517,12.7517,17.2483,17.2483,-0.899318,4.06434,-6.44528,-0.29218,-0.478705,-0.305644,1,0,3.29,0.2275,-2.31,-0.262544,-0.450424,-1.31333,-0.06762,0.1302,0.48468
2.24769,0,0,12.7523,12.7523,17.2477,17.2477,-0.899076,4.0641,-6.44802,-0.292175,-0.478701,-0.305644,1,0,3.675,-0.0175,-2.5725,-0.262544,-0.450424,-1.31333,-0.06762,0.1302,0.48468
2.3713,0,0,12.6287,12.6287,17.3713,17.3713,-0.948521,3.83136,-6.27324,-0.218755,0.0515626,-0.0717757,0,0,3.0975,0.3675,-2.6425,-0.192882,0.080154,-1.08153,-0.06762,0.1302,0.48468
2.49224,0,0,12.5078,12.5078,17.4922,17.4922,-0.996895,3.60227,-6.0996,-0.214765,0.0507158,-0.0715308,0,0,3.185,0.07,-2.6075,-0.192882,0.080154,-1.08153,-0.06776,0.13132,0.47586
2.49538,0,0,12.5046,12.5046,17.4954,17.4954,-0.998151,3.60203,-6.10218,-0.147579,0.0581436,-0.22411,1,0,2.8175,-0.0175,-2.485,-0.125416,0.087596,-1.23293,-0.06776,0.13132,0.47586
2.49865,0,0,12.5013,12.5013,17.4987,17.4987,-0.999462,3.6012,-6.10416,-0.147565,0.0581208,-0.22411,1,0,2.765,-0.3675,-2.135,-0.125416,0.087596,-1.23293,-0.06776,0.13132,0.47586
2.77038,0,0,12.2296,12.2296,17.7704,17.7704,-1.10815,3.74732,-6.28355,0.132831,0.104593,-0.0173854,0,0,3.3775,-0.3675,-2.24,0.158722,0.135908,-1.02761,-0.06776,0.13132,0.47586
3.03901,0,0,11.961,11.961,18.039,18.039,-1.2156,3.89115,-6.46188,0.130326,0.102726,-0.0175905,0,0,2.94,-0.0175,-1.505,0.158722,0.135908,-1.02761,-0.06776,0.13132,0.47586
3.03905,0,0,11.961,11.961,18.039,18.039,-1.21562,3.89121,-6.46255,-0.0248124,-0.0455363,0.213553,1,0,3.4475,0.14,-1.365,0.002928,-0.0122,-0.798246,-0.06776,0.13132,0.47586
3.03827,0,0,11.9617,11.9617,18.0383,18.0383,-1.21531,3.89095,-6.46255,-0.0248079,-0.0455309,0.213553,1,0,3.605,-0.0525,-0.98,0.002928,-0.0122,-0.798246,-0.06776,0.13132,0.47586
3.13411,0,0,11.8659,11.8659,18.1341,18.1341,-1.25364,3.54286,-6.17233,-0.329141,0.0397703,-0.0373744,0,0,2.8875,0.3675,-0.63,-0.308782,0.073688,-1.04761,-0.06776,0.13132,0.47586
3.22631,0,0,11.7737,11.7737,18.2263,18.2263,-1.29053,3.20093,-5.88119,-0.323184,0.03912,-0.0370377,0,0,3.36,0.1925,-0.245,-0.308782,0.073688,-1.04761,-0.06776,0.13132,0.47586
4.3824,0,0,10.6176,10.6176,19.3824,19.3824,-1.75296,3.19432,-5.95197,-0.0214196,0.427976,0.114596,0,0,2.9225,0.21,0.0175,-0.005856,0.470188,-0.896944,-0.06874,0.13048,0.4753
5.51581,0,0,9.48419,9.48419,20.5158,20.5158,-2.20632,3.18626,-6.02246,-0.0212792,0.42008,0.114331,0,0,3.6925,-0.5425,0.105,-0.005856,0.470188,-0.896944,-0.06874,0.13048,0.4753
5.02471,0,0,9.97529,9.97529,20.0247,20.0247,-2.00988,3.27824,-6.09921,0.0931369,-0.193724,-0.0326799,0,0,3.2025,-0.175,0.21,0.110654,-0.1464,-1.04286,-0.06874,0.13048,0.4753
4.54233,0,0,10.4577,10.4577,19.5423,19.5423,-1.81693,3.36852,-6.17543,0.0915638,-0.190361,-0.032659,0,0,3.2025,-0.175,0.21,0.110654,-0.1464,-1.04286,-0.06874,0.13048,0.4753
4.81291,0,0,10.1871,10.1871,19.8129,19.8129,-1.92516,3.76823,-6.59021,0.363289,0.0950109,0.0814335,0,0,2.0825,-3.92,0.455,0.390522,0.140544,-0.929152,-0.06874,0.13048,0.4753
5.07932,0,0,9.92068,9.92068,20.0793,20.0793,-2.03173,4.16069,-7.00557,0.356456,0.0931729,0.0808962,0,0,2.0825,-3.92,0.455,0.390522,0.140544,-0.929152,-0.06874,0.13048,0.4753
5.0831,0,0,9.9169,9.9169,20.0831,20.0831,-2.03324,4.16063,-7.0032,-0.20748,0.0850862,0.158845,1,0,2.485,0.0175,0.4025,-0.175802,0.132492,-0.851804,-0.06874,0.13048,0.4753
5.08689,0,0,9.91311,9.91311,20.0869,20.0869,-2.03476,4.16058,-7.00083,-0.207479,0.0850599,0.158844,1,0,2.485,0.0175,0.4025,-0.175802,0.132492,-0.851804,-0.06874,0.13048,0.4753
4.97463,0,0,10.0254,10.0254,19.9746,19.9746,-1.98985,4.0552,-6.91437,-0.0941205,-0.0415417,-0.0146004,0,0,3.3775,0.385,-0.1925,-0.063806,0.005246,-1.02407,-0.0679,0.12222,0.46354
4.54713,0,0,10.4529,10.4529,19.5471,19.5471,-1.81885,3.87226,-6.73206,-0.160182,-0.158746,0.0238332,0,0,3.045,0.4025,-0.1925,-0.133346,-0.114802,-0.986248,-0.0679,0.12222,0.46354
4.1265,0,0,10.8735,10.8735,19.1265,19.1265,-1.6506,3.69176,-6.55216,-0.157039,-0.155824,0.0241296,0,0,3.3425,-0.21,-0.7875,-0.133346,-0.114802,-0.986248,-0.0679,0.12222,0.46354
3.81351,0,0,11.1865,11.1865,18.8135,18.8135,-1.5254,3.69263,-6.5457,0.00573726,-0.124089,-0.0453998,0,0,2.4325,0.175,-0.8925,0.030134,-0.085278,-1.0553,-0.0679,0.12222,0.46354
3.50593,0,0,11.4941,11.4941,18.5059,18.5059,-1.40237,3.69368,-6.54037,0.00571881,-0.121947,-0.0453463,0,0,2.5375,0.2975,-1.47,0.030134,-0.085278,-1.0553,-0.0679,0.12222,0.46354
3.51065,0,0,11.4894,11.4894,18.5106,18.5106,-1.40426,3.69376,-6.54153,0.234354,0.130578,0.192558,1,0,2.415,0.1575,-1.645,0.259738,0.167018,-0.81923,-0.0679,0.12222,0.46354
3.5129,0,0,11.4871,11.4871,18.5129,18.5129,-1.40516,3.69392,-6.54292,0.234351,0.130563,0.192558,1,0,2.975,0.21,-1.785,0.259738,0.167018,-0.81923,-0.0679,0.12222,0.46354
2.66523,0,0,12.3348,12.3348,17.6652,17.6652,-1.06609,3.43107,-6.25878,-0.237416,-0.329818,0.0279731,0,0,3.4125,0.1575,-2.03,-0.218624,-0.298778,-0.982954,-0.0679,0.12222,0.46354
1.82972,0,0,13.1703,13.1703,16.8297,16.8297,-0.731889,3.16891,-5.99432,-0.232848,-0.324,0.0283278,0,0,3.815,0.3325,-2.4325,-0.218624,-0.298778,-0.982954,-0.06706,0.13216,0.47796
1.2046,0,0,13.7954,13.7954,16.2046,16.2046,-0.481839,2.90372,-5.73637,-0.233693,-0.237576,0.0270208,0,0,3.7975,0.7,-2.59,-0.224114,-0.216794,-0.98454,-0.06706,0.13216,0.47796
0.589339,0,0,14.4107,14.4107,15.5893,15.5893,-0.235736,2.64274,-5.48102,-0.229143,-0.233287,0.027268,0,0,4.1475,0.1925,-2.5025,-0.224114,-0.216794,-0.98454,-0.06706,0.13216,0.47796
0.590254,0,0,14.4097,14.4097,15.5903,15.5903,-0.236102,2.64208,-5.4842,0.00242002,-0.263214,-0.0875653,1,0,3.3075,-0.28,-2.835,0.008418,-0.246684,-1.09849,-0.06706,0.13216,0.47796
0.590439,0,0,14.4096,14.4096,15.5904,15.5904,-0.236176,2.64127,-5.48715,0.00243406,-0.263216,-0.0875647,1,0,3.465,-0.3675,-2.695,0.008418,-0.246684,-1.09849,-0.06706,0.13216,0.47796
0.593176,0,0,14.4068,14.4068,15.5932,15.5932,-0.23727,2.64146,-5.48989,0.203854,0.0498983,-0.140679,1,0,2.8875,0.21,-2.5725,0.210694,0.066124,-1.15119,-0.06706,0.13216,0.47796
0.596223,0,0,14.4038,14.4038,15.5962,15.5962,-0.238489,2.64155,-5.49194,0.203853,0.0498771,-0.140679,1,0,2.8,0.1575,-2.17,0.210694,0.066124,-1.15119,-0.06706,0.13216,0.47796
0.598477,0,0,14.4015,14.4015,15.5985,15.5985,-0.239391,2.64132,-5.4932,0.093912,0.131198,-0.203014,1,0,2.9575,-0.035,-1.715,0.100284,0.147376,-1.21305,-0.06706,0.13216,0.47796
0.603685,0,0,14.3963,14.3963,15.6037,15.6037,-0.241474,2.64064,-5.49369,0.0939238,0.131161,-0.203013,1,0,2.275,-0.2975,-1.26,0.100284,0.147376,-1.21305,-0.0679,0.13286,0.48846
0.60574,0,0,14.3943,14.3943,15.6057,15.6057,-0.242296,2.63988,-5.4939,-0.25169,0.206377,-0.0723184,1,0,2.975,-0.35,-1.1025,-0.246806,0.222528,-1.08336,-0.0679,0.13286,0.48846
0.607532,0,0,14.3925,14.3925,15.6075,15.6075,-0.243013,2.6398,-5.49319,-0.251688,0.206365,-0.0723184,1,0,3.01,0.0525,-0.56,-0.246806,0.222528,-1.08336,-0.0679,0.13286,0.48846
0.606301,0,0,14.3937,14.3937,15.6063,15.6063,-0.24252,2.63991,-5.49197,-0.42092,-0.0271331,-0.0515402,1,0,3.675,0.1575,-0.2625,-0.416752,-0.010736,-1.06274,-0.0679,0.13286,0.48846
0.605132,0,0,14.3949,14.3949,15.6051,15.6051,-0.242053,2.63966,-5.48993,-0.420916,-0.0271249,-0.0515399,1,0,3.64,-0.0525,0.21,-0.416752,-0.010736,-1.06274,-0.0679,0.13286,0.48846
-0.165732,0,0,15.1657,15.1657,14.8343,14.8343,0.0662928,2.73263,-5.54457,0.0857599,-0.295801,0.0414643,0,0,3.395,-0.1225,0.2975,0.093696,-0.284504,-0.970388,-0.0679,0.13286,0.48846
-0.923093,0,0,15.9231,15.9231,14.0769,14.0769,0.369237,2.82321,-5.59835,0.0841809,-0.290521,0.0413676,0,0,3.3425,-0.49,0.3675,0.093696,-0.284504,-0.970388,-0.0679,0.13286,0.48846
-0.652022,0,0,15.652,15.652,14.348,14.348,0.260809,2.92146,-5.7119,0.0947382,0.108409,-0.0697304,0,0,2.5725,-0.2625,0.455,0.106018,0.1159,-1.08055,-0.0679,0.13286,0.48846
-0.387471,0,0,15.3875,15.3875,14.6125,14.6125,0.154988,3.01777,-5.81647,0.0930596,0.106564,-0.0698108,0,0,2.87,0.1925,0.8575,0.106018,0.1159,-1.08055,-0.06776,0.12754,0.47824
-0.650884,0,0,15.6509,15.6509,14.3491,14.3491,0.260354,3.18697,-5.95895,0.136397,-0.0968953,0.0754708,0,0,2.625,0.735,0.77,0.1525,-0.089182,-0.936228,-0.06776,0.12754,0.47824
-0.909336,0,0,15.9093,15.9093,14.0907,14.0907,0.363734,3.35124,-6.10141,0.133535,-0.0950948,0.0752975,0,0,2.5725,-0.21,0.315,0.1525,-0.089182,-0.936228,-0.06776,0.12754,0.47824
-1.37023,0,0,16.3702,16.3702,13.6298,13.6298,0.54809,3.23402,-5.97994,-0.0967037,-0.164791,0.0671519,0,0,2.905,-0.105,-0.035,-0.080764,-0.162016,-0.944402,-0.06776,0.12754,0.47824
-1.82482,0,0,16.8248,16.8248,13.1752,13.1752,0.729929,3.11979,-5.86008,-0.0947132,-0.161621,0.067227,0,0,3.4125,0.2625,-0.315,-0.080764,-0.162016,-0.944402,-0.06776,0.12754,0.47824
-1.47911,0,0,16.4791,16.4791,13.5209,13.5209,0.591646,3.01821,-5.79516,-0.0899055,0.130539,0.0234571,0,0,3.7625,-0.0175,-0.4725,-0.077714,0.132248,-0.987956,-0.06776,0.12754,0.47824
-1.13697,0,0,16.137,16.137,13.863,13.863,0.454787,2.91837,-5.73058,-0.0881654,0.128155,0.0235691,0,0,3.185,-0.1225,-0.9275,-0.077714,0.132248,-0.987956,-0.06776,0.12754,0.47824
-1.35861,0,0,16.3586,16.3586,13.6414,13.6414,0.543443,3.21654,-5.99485,0.240238,-0.0819481,0.109587,0,0,2.9575,-0.525,-1.4175,0.257298,-0.079178,-0.902312,-0.06776,0.12754,0.47824
-1.57563,0,0,16.5756,16.5756,13.4244,13.4244,0.630251,3.50935,-6.26417,0.235136,-0.0804388,0.109272,0,0,2.8175,-0.0525,-2.1,0.257298,-0.079178,-0.902312,-0.06734,0.13118,0.47418
-1.5739,0,0,16.5739,16.5739,13.4261,13.4261,0.629558,3.50993,-6.26631,0.318222,-0.135408,-0.229206,1,0,3.115,0.42,-2.2225,0.340746,-0.134078,-1.23818,-0.06734,0.13118,0.47418
-1.57469,0,0,16.5747,16.5747,13.4253,13.4253,0.629875,3.50997,-6.26878,0.318221,-0.135402,-0.229206,1,0,3.6925,0.105,-2.415,0.340746,-0.134078,-1.23818,-0.06734,0.13118,0.47418
-1.20196,0,0,16.202,16.202,13.798,13.798,0.480784,3.58613,-6.38133,0.0542428,0.133121,0.071346,0,0,3.57,0.07,-2.38,0.076982,0.136762,-0.939888,-0.06734,0.13118,0.47418
-0.835848,0,0,15.8358,15.8358,14.1642,14.1642,0.334339,3.66071,-6.49399,0.0529437,0.13057,0.0712818,0,0,3.57,0.07,-2.38,0.076982,0.136762,-0.939888,-0.06734,0.13118,0.47418
-0.833516,0,0,15.8335,15.8335,14.1665,14.1665,0.333406,3.66112,-6.49637,-0.279934,-0.0516595,-0.0792075,1,0,2.9925,0.3325,-2.3625,-0.257298,-0.045262,-1.08922,-0.06734,0.13118,0.47418
-0.831184,0,0,15.8312,15.8312,14.1688,14.1688,0.332474,3.66154,-6.49875,-0.279942,-0.0516758,-0.0792079,1,0,2.9925,0.3325,-2.3625,-0.257298,-0.045262,-1.08922,-0.06734,0.13118,0.47418
0.0119508,0,0,14.988,14.988,15.012,15.012,-0.00478034,3.72225,-6.62072,0.0351067,0.324707,0.0398778,0,0,3.43,4.34,-2.065,0.060146,0.336598,-0.970998,-0.06734,0.13118,0.47418
0.840782,0,0,14.1592,14.1592,15.8408,15.8408,-0.336313,3.78164,-6.74319,0.0340724,0.318933,0.0397928,0,0,3.43,4.34,-2.065,0.060146,0.336598,-0.970998,-0.06734,0.13118,0.47418
0.994232,0,0,14.0058,14.0058,15.9942,15.9942,-0.397693,3.80838,-6.80105,0.0304481,0.065062,-0.0834393,0,0,4.2,-0.49,-1.4,0.056974,0.084058,-1.09324,-0.0672,0.12852,0.46872
0.36796,0,0,14.632,14.632,15.368,15.368,-0.147184,3.75436,-6.73617,-0.0410166,-0.2409,0.00873201,0,0,3.8675,-0.6125,-1.05,-0.015738,-0.225944,-1.00186,-0.0672,0.12852,0.46872
-0.247148,0,0,15.2471,15.2471,14.7529,14.7529,0.098859,3.70149,-6.67213,-0.0400957,-0.236615,0.00879382,0,0,3.8675,-0.6125,-1.05,-0.015738,-0.225944,-1.00186,-0.0672,0.12852,0.46872
0.161162,0,0,14.8388,14.8388,15.1612,15.1612,-0.0644648,3.53358,-6.56289,-0.161086,0.173085,-0.0759778,0,0,4.41,-0.175,-0.2625,-0.140178,0.186172,-1.08617,-0.0672,0.12852,0.46872
0.562219,0,0,14.4378,14.4378,15.5622,15.5622,-0.224887,3.36875,-6.45279,-0.158215,0.17029,-0.0758117,0,0,4.41,-0.175,-0.2625,-0.140178,0.186172,-1.08617,-0.0672,0.12852,0.46872
0.46184,0,0,14.5382,14.5382,15.4618,15.4618,-0.184736,3.36774,-6.45948,-0.00233112,-0.035283,0.0380421,0,0,4.34,0.105,-0.07,0.016348,-0.019886,-0.973194,-0.0672,0.12852,0.46872
0.363277,0,0,14.6367,14.6367,15.3633,15.3633,-0.145311,3.36677,-6.46619,-0.00231424,-0.0345961,0.0380451,0,0,4.34,0.105,-0.07,0.016348,-0.019886,-0.973194,-0.0672,0.12852,0.46872
-0.0467788,0,0,15.0468,15.0468,14.9532,14.9532,0.0187115,3.38612,-6.47845,0.0128989,-0.140065,0.108601,0,0,4.095,-0.0175,-0.175,0.031964,-0.1281,-0.903166,-0.06706,0.13146,0.47852
-0.308169,0,0,15.3082,15.3082,14.6918,14.6918,0.123268,3.52757,-6.61073,0.13435,-0.104414,-0.0176955,0,0,3.71,-0.35,-0.1575,0.156404,-0.094306,-1.02834,-0.06706,0.13146,0.47852
-0.609841,0,0,15.6098,15.6098,14.3902,14.3902,0.243936,3.69464,-6.76606,0.158653,-0.121731,-0.0111237,0,0,3.2375,-0.63,-0.455,0.183732,-0.113704,-1.02163,-0.06706,0.13146,0.47852
-0.90931,0,0,15.9093,15.9093,14.0907,14.0907,0.363724,3.85967,-6.92001,0.155779,-0.119646,-0.0113245,0,0,3.9025,0.0525,-0.1925,0.183732,-0.113704,-1.02163,-0.06706,0.13146,0.47852
-1.06298,0,0,16.063,16.063,13.937,13.937,0.425192,3.90068,-6.97317,0.0464563,-0.0628862,-0.0774036,0,0,4.1825,0.105,-0.3325,0.074664,-0.058072,-1.08714,-0.06706,0.13146,0.47852
-1.23423,0,0,16.2342,16.2342,13.7658,13.7658,0.493693,3.94107,-7.02637,0.0457531,-0.0616939,-0.0774614,0,0,8.75,0.1925,-0.4375,0.074664,-0.058072,-1.08714,-0.06706,0.13146,0.47852
-1.32637,0,0,16.3264,16.3264,13.6736,13.6736,0.530548,4.1231,-7.21061,0.175611,-0.0393157,-0.0471993,0,0,3.99,0.63,-0.595,0.208254,-0.036356,-1.05689,-0.06706,0.13146,0.47852
-1.41741,0,0,16.4174,16.4174,13.5826,13.5826,0.566964,4.30147,-7.39444,0.172506,-0.038684,-0.047434,0,0,4.1125,0.56,-0.7175,0.208254,-0.036356,-1.05689,-0.06706,0.13146,0.47852
-1.41938,0,0,16.4194,16.4194,13.5806,13.5806,0.567753,4.30238,-7.3939,0.12584,0.36679,-0.104852,1,0,3.85,0.63,-0.665,0.161406,0.368684,-1.11386,-0.06496,0.13104,0.48146
-1.38065,0,0,16.3807,16.3807,13.6193,13.6193,0.552261,4.41362,-7.52956,0.106045,0.0140616,-0.0451213,0,0,3.57,0.42,-0.945,0.143472,0.016592,-1.05445,-0.06496,0.13104,0.48146
-1.34078,0,0,16.3408,16.3408,13.6592,13.6592,0.536312,4.52274,-7.66561,0.104147,0.0137827,-0.045267,0,0,3.185,0.455,-1.3125,0.143472,0.016592,-1.05445,-0.06496,0.13104,0.48146
-0.676225,0,0,15.6762,15.6762,14.3238,14.3238,0.27049,4.7392,-7.94246,0.194289,0.269164,-0.00804017,0,0,3.64,0.2275,-1.5225,0.237778,0.27633,-1.01724,-0.06496,0.13104,0.48146
-0.0286893,0,0,15.0287,15.0287,14.9713,14.9713,0.0114757,4.95031,-8.22059,0.190618,0.264659,-0.00834027,0,0,5.0225,-0.42,-1.505,0.237778,0.27633,-1.01724,-0.06496,0.13104,0.48146
0.343461,0,0,14.6565,14.6565,15.3435,15.3435,-0.137384,5.08733,-8.4172,0.108663,0.140311,0.0440696,0,0,5.3375,0.28,-1.4875,0.157868,0.154696,-0.96502,-0.06496,0.13104,0.48146
0.712591,0,0,14.2874,14.2874,15.7126,15.7126,-0.285037,5.22125,-8.61498,0.106335,0.137745,0.0438502,0,0,4.62,0.0875,-2.0125,0.157868,0.154696,-0.96502,-0.06496,0.13104,0.48146
-0.0134317,0,0,15.0134,15.0134,14.9866,14.9866,0.00537267,5.14918,-8.54517,-0.0508299,-0.285995,-0.00827692,0,0,4.2,0.3325,-2.03,-0.00122,-0.273646,-1.01687,-0.06496,0.13104,0.48146
-0.723162,0,0,15.7232,15.7232,14.2768,14.2768,0.289265,5.07948,-8.46813,-0.0496183,-0.281059,-0.00818117,0,0,3.605,-0.0875,-2.17,-0.00122,-0.273646,-1.01687,-0.07252,0.12712,0.47992
-0.630284,0,0,15.6303,15.6303,14.3697,14.3697,0.252114,4.87896,-8.33341,-0.184868,0.0397339,-0.0737748,0,0,3.3075,-0.07,-2.065,-0.140544,0.047458,-1.08226,-0.07252,0.12712,0.47992
-0.54091,0,0,15.5409,15.5409,14.4591,14.4591,0.216364,4.6818,-8.19886,-0.181439,0.0391133,-0.0734854,0,0,3.7625,-0.35,-2.205,-0.140544,0.047458,-1.08226,-0.07252,0.12712,0.47992
-1.04494,0,0,16.0449,16.0449,13.9551,13.9551,0.417976,4.56916,-8.09425,-0.0901877,-0.171833,0.109601,0,0,3.64,-0.7175,-2.3275,-0.050874,-0.166774,-0.900726,-0.07252,0.12712,0.47992
-1.53766,0,0,16.5377,16.5377,13.4623,13.4623,0.615063,4.45965,-7.98997,-0.0882823,-0.168403,0.109721,0,0,3.1325,-0.245,-1.82,-0.050874,-0.166774,-0.900726,-0.07252,0.12712,0.47992
-1.53818,0,0,16.5382,16.5382,13.4618,13.4618,0.61527,4.45893,-7.9913,0.342033,-0.315073,0.0275919,1,0,3.605,-0.3325,-1.75,0.38125,-0.313296,-0.982222,-0.07252,0.12712,0.47992
-1.53926,0,0,16.5393,16.5393,13.4607,13.4607,0.615705,4.458,-7.99252,0.342049,-0.315066,0.0275931,1,0,3.7275,-0.455,-1.68,0.38125,-0.313296,-0.982222,-0.07252,0.12712,0.47992
-1.81863,0,0,16.8186,16.8186,13.1814,13.1814,0.727451,4.64157,-8.16294,0.178129,-0.11589,-0.0262894,0,0,3.8325,-0.525,-1.47,0.219844,-0.116266,-1.03541,-0.07252,0.12712,0.47992
-2.09201,0,0,17.092,17.092,12.908,12.908,0.836803,4.82269,-8.32232,0.174979,-0.113992,-0.0265761,0,0,3.535,-0.14,-0.6825,0.219844,-0.116266,-1.03541,-0.0707,0.12068,0.48062
-2.35596,0,0,17.356,17.356,12.644,12.644,0.942384,4.8912,-8.3831,0.0671231,-0.105685,-0.01687,0,0,3.15,0.0175,-0.14,0.112728,-0.1098,-1.02565,-0.0707,0.12068,0.48062
-2.61529,0,0,17.6153,17.6153,12.3847,12.3847,1.04612,4.95841,-8.44362,0.0659544,-0.103883,-0.0170019,0,0,3.15,0.0175,-0.14,0.112728,-0.1098,-1.02565,-0.0707,0.12068,0.48062
-2.61315,0,0,17.6132,17.6132,12.3868,12.3868,1.04526,4.95805,-8.44123,-0.0914848,0.171376,0.27537,1,0,2.835,-0.0875,0.42,-0.045384,0.165188,-0.735538,-0.0707,0.12068,0.48062
-2.61102,0,0,17.611,17.611,12.389,12.389,1.04441,4.95769,-8.43883,-0.0914786,0.171361,0.275371,1,0,2.835,-0.0875,0.42,-0.045384,0.165188,-0.735538,-0.0707,0.12068,0.48062
-3.29285,0,0,18.2928,18.2928,11.7072,11.7072,1.31714,4.95116,-8.39885,-0.00705399,-0.235831,0.124426,0,0,2.8175,0.1575,0.77,0.039284,-0.246318,-0.885232,-0.0707,0.12068,0.48062
-3.96279,0,0,18.9628,18.9628,11.0372,11.0372,1.58512,4.94486,-8.35946,-0.00694443,-0.231173,0.124317,0,0,2.8175,0.1575,0.77,0.039284,-0.246318,-0.885232,-0.0707,0.12068,0.48062
-3.96732,0,0,18.9673,18.9673,11.0327,11.0327,1.58693,4.94507,-8.3569,0.163739,0.0121354,-0.111868,1,0,4.3225,0.2625,0.5075,0.210694,-0.003294,-1.11959,-0.0707,0.12068,0.48062
-3.97185,0,0,18.9718,18.9718,11.0282,11.0282,1.58874,4.94528,-8.35435,0.163736,0.0121669,-0.111869,1,0,4.3225,0.2625,0.5075,0.210694,-0.003294,-1.11959,-0.06972,0.12334,0.476
-3.96108,0,0,18.9611,18.9611,11.0389,11.0389,1.58443,5.13686,-8.54788,0.167694,0.00402359,0.0114022,0,0,4.8825,0.35,-0.0525,0.218014,-0.011346,-0.996984,-0.06972,0.12334,0.476
-3.95051,0,0,18.9505,18.9505,11.0495,11.0495,1.5802,5.32466,-8.74091,0.16443,0.00394186,0.0111055,0,0,4.8825,0.35,-0.0525,0.218014,-0.011346,-0.996984,-0.06972,0.12334,0.476
-4.55711,0,0,19.5571,19.5571,10.4429,10.4429,1.82285,5.31607,-8.72344,0.000695034,-0.213625,0.0947221,0,0,4.025,-4.305,-1.26,0.053436,-0.232898,-0.913902,-0.06972,0.12334,0.476
-5.15305,0,0,20.1531,20.1531,9.84695,9.84695,2.06122,5.30783,-8.70643,0.000838171,-0.209484,0.094595,0,0,4.025,-4.305,-1.26,0.053436,-0.232898,-0.913902,-0.06972,0.12334,0.476
-5.1509,0,0,20.1509,20.1509,9.8491,9.8491,2.06036,5.30736,-8.70965,-0.225482,-0.0846858,-0.17171,1,0,3.115,-0.245,-2.835,-0.17385,-0.108214,-1.17815,-0.06972,0.12334,0.476
-5.14875,0,0,20.1488,20.1488,9.85125,9.85125,2.0595,5.30689,-8.71287,-0.225473,-0.0847008,-0.171709,1,0,3.115,-0.245,-2.835,-0.17385,-0.108214,-1.17815,-0.06972,0.12334,0.476
-5.33107,0,0,20.3311,20.3311,9.66893,9.66893,2.13243,5.06303,-8.52028,-0.20945,-0.0669328,-0.00514444,0,0,3.8675,-0.0875,-3.605,-0.162016,-0.091744,-1.01321,-0.06972,0.12334,0.476
-5.50969,0,0,20.5097,20.5097,9.49031,9.49031,2.20388,4.82399,-8.32869,-0.205294,-0.0656777,-0.00483218,0,0,3.8675,-0.0875,-3.605,-0.162016,-0.091744,-1.01321,-0.06972,0.12334,0.476
-5.43652,0,0,20.4365,20.4365,9.56348,9.56348,2.17461,4.7157,-8.27367,-0.0938303,0.0312767,0.0681298,0,0,4.34,0.07,-3.5,-0.051972,0.005612,-0.940986,-0.06734,0.12768,0.47712
-4.8686,0,0,19.8686,19.8686,10.1314,10.1314,1.94744,4.86041,-8.47306,0.113459,0.21735,0.0285948,0,0,3.5525,0.35,-3.2025,0.158722,0.195444,-0.980148,-0.06734,0.12768,0.47712
-4.31019,0,0,19.3102,19.3102,10.6898,10.6898,1.72408,5.00213,-8.67299,0.110994,0.213461,0.0285067,0,0,3.5525,0.35,-3.2025,0.158722,0.195444,-0.980148,-0.06734,0.12768,0.47712
-3.77084,0,0,18.7708,18.7708,11.2292,11.2292,1.50834,4.70527,-8.48587,-0.284624,0.226088,-0.036112,0,0,4.1125,-0.49,-1.5925,-0.243756,0.211792,-1.04481,-0.06734,0.12768,0.47712
-3.77276,0,0,18.7728,18.7728,11.2272,11.2272,1.5091,4.70428,-8.48641,0.07086,-0.0175414,-0.266271,1,0,3.885,-0.49,-1.2775,0.113216,-0.031598,-1.27319,-0.06734,0.12768,0.47712
-3.77512,0,0,18.7751,18.7751,11.2249,11.2249,1.51005,4.7038,-8.48481,0.0708683,-0.017525,-0.26627,1,0,3.885,-0.1575,-0.035,0.113216,-0.031598,-1.27319,-0.06734,0.12768,0.47712
-3.29052,0,0,18.2905,18.2905,11.7095,11.7095,1.31621,4.70326,-8.54715,-0.00857392,0.18843,0.00257908,0,0,3.5,-0.035,0.56,0.033428,0.17751,-1.0065,-0.06734,0.12768,0.47712
-2.81319,0,0,17.8132,17.8132,12.1868,12.1868,1.12527,4.70235,-8.60831,-0.00855821,0.185109,0.00265113,0,0,3.1675,-0.14,1.1375,0.033428,0.17751,-1.0065,-0.06734,0.12768,0.47712
-2.4934,0,0,17.4934,17.4934,12.5066,12.5066,0.99736,4.62754,-8.58905,-0.0706723,0.129028,-0.0445366,0,0,3.2375,0.1925,1.5575,-0.030256,0.123708,-1.05347,-0.06916,0.12642,0.47852
-2.45351,0,0,17.4535,17.4535,12.5465,12.5465,0.981404,4.48054,-8.48296,-0.12983,0.0173749,-0.00105031,0,0,3.3075,0.0875,1.82,-0.092232,0.012444,-1.01053,-0.06916,0.12642,0.47852
-2.41702,0,0,17.417,17.417,12.583,12.583,0.966809,4.33604,-8.37712,-0.127315,0.0171242,-0.000852159,0,0,3.955,-0.1225,1.7325,-0.092232,0.012444,-1.01053,-0.06916,0.12642,0.47852
-2.63603,0,0,17.636,17.636,12.364,12.364,1.05441,4.30596,-8.35181,-0.020856,-0.0877231,-0.0583794,0,0,4.6025,0.2625,1.54,0.014152,-0.093818,-1.06762,-0.06916,0.12642,0.47852
-2.84957,0,0,17.8496,17.8496,12.1504,12.1504,1.13983,4.27629,-8.32847,-0.0203396,-0.086236,-0.0583691,0,0,4.34,0.105,0.5425,0.014152,-0.093818,-1.06762,-0.06916,0.12642,0.47852
-2.853,0,0,17.853,17.853,12.147,12.147,1.1412,4.27608,-8.32643,-0.218479,0.0400669,0.149414,1,0,4.1125,0,0.21,-0.18483,0.03233,-0.861442,-0.06916,0.12642,0.47852
-2.85467,0,0,17.8547,17.8547,12.1453,12.1453,1.14187,4.2755,-8.32624,-0.218469,0.0400785,0.149414,1,0,3.7975,-0.245,-0.8575,-0.18483,0.03233,-0.861442,-0.06916,0.12642,0.47852
-2.81144,0,0,17.8114,17.8114,12.1886,12.1886,1.12458,4.21111,-8.30666,-0.0568657,0.0177965,-0.00196931,0,0,3.675,-0.35,-1.33,-0.023668,0.01037,-1.01175,-0.06496,0.13398,0.48062
-2.81338,0,0,17.8134,17.8134,12.1866,12.1866,1.12535,4.21171,-8.30924,0.000951044,-0.064992,-0.201762,1,0,3.9725,0.42,-2.485,0.034404,-0.072346,-1.21,-0.06496,0.13398,0.48062
-2.81613,0,0,17.8161,17.8161,12.1839,12.1839,1.12645,4.21166,-8.3134,0.000951998,-0.0649728,-0.201762,1,0,4.2175,0.0175,-3.395,0.034404,-0.072346,-1.21,-0.06496,0.13398,0.48062
-2.55499,0,0,17.555,17.555,12.445,12.445,1.02199,4.11851,-8.28512,-0.0880548,0.10773,-0.0671041,0,0,3.675,0,-3.5875,-0.056608,0.101992,-1.07653,-0.06496,0.13398,0.48062
-2.29708,0,0,17.2971,17.2971,12.7029,12.7029,0.91883,4.02673,-8.25753,-0.0864571,0.105937,-0.06696,0,0,3.395,-0.1925,-4.165,-0.056608,0.101992,-1.07653,-0.06496,0.13398,0.48062
-3.27123,0,0,18.2712,18.2712,11.7288,11.7288,1.30849,3.88117,-8.09305,-0.12377,-0.413154,-0.00716374,0,0,2.66,0.07,-4.095,-0.096624,-0.42334,-1.01724,-0.06496,0.13398,0.48062
-4.23454,0,0,19.2345,19.2345,10.7655,10.7655,1.69381,3.73853,-7.92983,-0.121286,-0.406442,-0.00717417,0,0,3.9025,0.0875,-3.2375,-0.096624,-0.42334,-1.01724,-0.06496,0.13398,0.48062
-4.86958,0,0,19.8696,19.8696,10.1304,10.1304,1.94783,3.51701,-7.71775,-0.184366,-0.235065,0.0698955,0,0,3.185,0.0175,-2.905,-0.163846,-0.256566,-0.940864,-0.06496,0.13398,0.48062
-5.49618,0,0,20.4962,20.4962,9.50382,9.50382,2.19847,3.30309,-7.48916,-0.180639,-0.230693,0.0699595,0,0,4.0425,0.3325,-1.8375,-0.163846,-0.256566,-0.940864,-0.07056,0.12334,0.47796
-5.49898,0,0,20.499,20.499,9.50102,9.50102,2.19959,3.30303,-7.48974,0.0303827,0.315722,-0.12639,1,0,4.0775,0.0525,-1.3125,0.048068,0.289262,-1.1357,-0.07056,0.12334,0.47796
-5.49887,0,0,20.4989,20.4989,9.50113,9.50113,2.19955,3.30437,-7.48837,0.0303594,0.315721,-0.126391,1,0,3.36,0.91,-0.21,0.048068,0.289262,-1.1357,-0.07056,0.12334,0.47796
-5.50127,0,0,20.5013,20.5013,9.49873,9.49873,2.20051,3.30463,-7.48629,-0.0922242,0.137311,-0.0974993,1,0,3.9025,0.2975,0.2275,-0.07503,0.11102,-1.10703,-0.07056,0.12334,0.47796
-5.50025,0,0,20.5003,20.5003,9.49975,9.49975,2.2001,3.30443,-7.48306,-0.0922207,0.137303,-0.0974988,1,0,3.0975,0.0525,0.91,-0.07503,0.11102,-1.10703,-0.07056,0.12334,0.47796
-5.98193,0,0,20.9819,20.9819,9.01807,9.01807,2.39277,3.28001,-7.42258,-0.0172031,-0.198976,-0.0323232,0,0,3.5,0.0175,1.155,-0.000122,-0.228262,-1.04225,-0.07056,0.12334,0.47796
-6.46048,0,0,21.4605,21.4605,8.53952,8.53952,2.58419,3.25542,-7.36181,-0.0167746,-0.195642,-0.0324436,0,0,4.6725,-0.35,1.68,-0.000122,-0.228262,-1.04225,-0.07056,0.12334,0.47796
-6.46634,0,0,21.4663,21.4663,8.53366,8.53366,2.58653,3.25506,-7.35681,-0.172634,-0.0916715,0.130585,1,0,4.585,0.0175,1.9425,-0.156648,-0.12444,-0.880474,-0.07056,0.12334,0.47796
-6.47174,0,0,21.4717,21.4717,8.52826,8.52826,2.5887,3.25426,-7.3539,-0.17262,-0.0916338,0.130584,1,0,4.55,-0.2975,0.735,-0.156648,-0.12444,-0.880474,-0.07532,0.13048,0.4823
-6.47543,0,0,21.4754,21.4754,8.52457,8.52457,2.59017,3.25366,-7.35156,-0.0517317,-0.122628,-0.188222,1,0,4.1825,-0.1925,0.4025,-0.035258,-0.155428,-1.19682,-0.07532,0.13048,0.4823
-6.47626,0,0,21.4763,21.4763,8.52374,8.52374,2.5905,3.25333,-7.35011,-0.0517261,-0.122623,-0.188222,1,0,3.57,-0.0525,-0.1225,-0.035258,-0.155428,-1.19682,-0.07532,0.13048,0.4823
-6.47609,0,0,21.4761,21.4761,8.52391,8.52391,2.59044,3.25309,-7.34959,-0.0919335,-0.299219,-0.090109,1,0,3.3775,-0.035,-0.665,-0.07564,-0.33184,-1.09946,-0.07532,0.13048,0.4823
-6.48263,0,0,21.4826,21.4826,8.51737,8.51737,2.59305,3.25259,-7.35082,-0.0919248,-0.299173,-0.0901106,1,0,4.935,-0.2275,-1.68,-0.07564,-0.33184,-1.09946,-0.07532,0.13048,0.4823
-6.04477,0,0,21.0448,21.0448,8.95523,8.95523,2.41791,3.29868,-7.42729,0.0379907,0.176268,-0.014041,0,0,5.075,-0.42,-2.1175,0.055632,0.146156,-1.02407,-0.07532,0.13048,0.4823
-5.61737,0,0,20.6174,20.6174,9.38263,9.38263,2.24695,3.34348,-7.50469,0.03721,0.17329,-0.013965,0,0,5.74,-0.6125,-2.6425,0.055632,0.146156,-1.02407,-0.07532,0.13048,0.4823
-4.56172,0,0,19.5617,19.5617,10.4383,10.4383,1.82469,3.56081,-7.77595,0.152601,0.380629,0.182048,0,0,5.145,-0.7525,-3.1675,0.175314,0.360632,-0.8296,-0.07532,0.13048,0.4823
-3.51251,0,0,18.5125,18.5125,11.4875,11.4875,1.405,3.77439,-8.0502,0.148881,0.373315,0.182016,0,0,3.0275,-0.5775,-3.4475,0.175314,0.360632,-0.8296,-0.07532,0.13048,0.4823
-3.51269,0,0,18.5127,18.5127,11.4873,11.4873,1.40508,3.77414,-8.05382,0.0503607,-0.338316,-0.0454388,1,0,3.605,-0.105,-3.08,0.076372,-0.350262,-1.0553,-0.07196,0.11956,0.48202
-3.30845,0,0,18.3085,18.3085,11.6915,11.6915,1.32338,3.57736,-7.89891,-0.180558,0.0842908,-0.0459225,0,0,2.9575,0.0175,-2.73,-0.158966,0.073322,-1.05603,-0.07196,0.11956,0.48202
-3.11678,0,0,18.1168,18.1168,11.8832,11.8832,1.24671,3.38396,-7.74258,-0.177189,0.0829601,-0.0456877,0,0,4.97,-0.175,-2.1,-0.158966,0.073322,-1.05603,-0.07196,0.11956,0.48202
-3.1217,0,0,18.1217,18.1217,11.8783,11.8783,1.24868,3.38399,-7.74361,0.320052,-0.020447,-0.0813435,1,0,4.5675,0.105,-1.575,0.34038,-0.030012,-1.09141,-0.07196,0.11956,0.48202
-3.12518,0,0,18.1252,18.1252,11.8748,11.8748,1.25007,3.3853,-7.74271,0.320029,-0.0204227,-0.0813454,1,0,4.1825,0.875,-0.4725,0.34038,-0.030012,-1.09141,-0.07196,0.11956,0.48202
-2.1123,0,0,17.1123,17.1123,12.8877,12.8877,0.844921,3.77123,-8.15429,0.350359,0.416566,0.110163,0,0,4.27,0.735,0.0525,0.37759,0.41358,-0.901092,-0.07196,0.11956,0.48202
-1.11331,0,0,16.1133,16.1133,13.8867,13.8867,0.445325,4.15071,-8.57009,0.343752,0.409604,0.109784,0,0,4.27,0.735,0.0525,0.37759,0.41358,-0.901092,-0.07196,0.11956,0.48202
-1.11398,0,0,16.114,16.114,13.886,13.886,0.445591,4.15106,-8.56727,-0.73857,-0.128848,0.0551942,1,0,3.465,0.315,0.665,-0.709308,-0.124318,-0.95526,-0.07196,0.11956,0.48202
-1.11464,0,0,16.1146,16.1146,13.8854,13.8854,0.445857,4.15141,-8.56445,-0.738576,-0.128844,0.0551937,1,0,3.465,0.315,0.665,-0.709308,-0.124318,-0.95526,-0.07084,0.12964,0.48482
-1.11459,0,0,16.1146,16.1146,13.8854,13.8854,0.445836,4.15194,-8.56214,-0.15837,-0.170856,0.283754,1,0,3.325,0.42,0.3675,-0.126636,-0.166286,-0.728462,-0.07084,0.12964,0.48482
-1.11454,0,0,16.1145,16.1145,13.8855,13.8855,0.445816,4.15247,-8.55982,-0.158379,-0.170856,0.283754,1,0,3.325,0.42,0.3675,-0.126636,-0.166286,-0.728462,-0.07084,0.12964,0.48482
-1.12206,0,0,16.1221,16.1221,13.8779,13.8779,0.448822,4.15155,-8.55882,0.118382,-0.149798,-0.2464,1,0,5.075,-0.4375,-0.385,0.15128,-0.145302,-1.25453,-0.07084,0.12964,0.48482
-1.12957,0,0,16.1296,16.1296,13.8704,13.8704,0.451828,4.15063,-8.55781,0.118398,-0.149745,-0.246399,1,0,5.075,-0.4375,-0.385,0.15128,-0.145302,-1.25453,-0.07084,0.12964,0.48482
-1.13512,0,0,16.1351,16.1351,13.8649,13.8649,0.45405,4.15161,-8.55859,-0.0190197,-0.142013,-0.119517,1,0,4.7075,0.665,-1.435,0.013298,-0.137616,-1.12862,-0.07084,0.12964,0.48482
-1.14068,0,0,16.1407,16.1407,13.8593,13.8593,0.456271,4.15258,-8.55937,-0.0190367,-0.141974,-0.119519,1,0,4.7075,0.665,-1.435,0.013298,-0.137616,-1.12862,-0.07084,0.12964,0.48482
-1.14769,0,0,16.1477,16.1477,13.8523,13.8523,0.459076,4.15282,-8.56115,-0.159357,0.0747275,0.130189,1,0,5.075,0.2275,-2.0125,-0.127612,0.078812,-0.88084,-0.07084,0.12964,0.48482
-0.781829,0,0,15.7818,15.7818,14.2182,14.2182,0.312732,4.3152,-8.76168,0.146755,0.147775,-0.00696801,0,0,4.7425,0,-2.0825,0.182634,0.15433,-1.01675,-0.06874,0.13062,0.47222
-0.422861,0,0,15.4229,15.4229,14.5771,14.5771,0.169144,4.4724,-8.96347,0.144019,0.145276,-0.00716769,0,0,4.9525,-1.19,-2.625,0.182634,0.15433,-1.01675,-0.06874,0.13062,0.47222
-0.427696,0,0,15.4277,15.4277,14.5723,14.5723,0.171078,4.47081,-8.96628,0.00470297,-0.290561,-0.285767,1,0,4.6375,-0.84,-2.6075,0.0427,-0.281088,-1.2932,-0.06874,0.13062,0.47222
-0.432531,0,0,15.4325,15.4325,14.5675,14.5675,0.173012,4.46922,-8.96909,0.00473066,-0.290527,-0.285765,1,0,4.6375,-0.84,-2.6075,0.0427,-0.281088,-1.2932,-0.06874,0.13062,0.47222
-0.851074,0,0,15.8511,15.8511,14.1489,14.1489,0.340429,4.62333,-9.10787,0.155364,-0.171961,-0.0137831,0,0,4.6025,-0.175,-1.6975,0.196664,-0.165554,-1.02309,-0.06874,0.13062,0.47222
-1.26264,0,0,16.2626,16.2626,13.7374,13.7374,0.505056,4.77464,-9.24566,0.152732,-0.169099,-0.0140206,0,0,4.6025,-0.175,-1.6975,0.196664,-0.165554,-1.02309,-0.06874,0.13062,0.47222
-1.21045,0,0,16.2104,16.2104,13.7896,13.7896,0.484179,4.69607,-9.21296,-0.0716215,0.0232544,-0.0847226,0,0,3.8325,0.7,-0.6125,-0.030012,0.026962,-1.09336,-0.06874,0.13062,0.47222
-1.15913,0,0,16.1591,16.1591,13.8409,13.8409,0.463651,4.61898,-9.18024,-0.0702804,0.0228982,-0.0846104,0,0,3.8325,0.7,-0.6125,-0.030012,0.026962,-1.09336,-0.06874,0.13062,0.47222
-1.16224,0,0,16.1622,16.1622,13.8378,13.8378,0.464895,4.61892,-9.17835,-0.323213,-0.0479136,-0.112397,1,0,4.0425,0.07,0.1225,-0.284016,-0.043798,-1.12094,-0.07378,0.12152,0.47194
-1.24428,0,0,16.2443,16.2443,13.7557,13.7557,0.497712,4.77244,-9.32265,0.141229,-0.0329337,-0.000983748,0,0,4.655,0.42,0.1575,0.185074,-0.029402,-1.01016,-0.07378,0.12152,0.47194
-2.02959,0,0,17.0296,17.0296,12.9704,12.9704,0.811834,4.4682,-9.0035,-0.277098,-0.317027,0.0179467,0,0,4.3225,0.3325,-0.0875,-0.24034,-0.318664,-0.991738,-0.07378,0.12152,0.47194
-2.80131,0,0,17.8013,17.8013,12.1987,12.1987,1.12052,4.16913,-8.68867,-0.271893,-0.311649,0.0182492,0,0,4.445,0.0875,-0.21,-0.24034,-0.318664,-0.991738,-0.07378,0.12152,0.47194
-2.59175,0,0,17.5918,17.5918,12.4082,12.4082,1.0367,3.9654,-8.53352,-0.188774,0.09077,-0.0454044,0,0,4.5675,-0.105,-0.3675,-0.16043,0.08479,-1.05518,-0.07378,0.12152,0.47194
-2.38373,0,0,17.3837,17.3837,12.6163,12.6163,0.953492,3.76595,-8.37835,-0.1853,0.0893253,-0.0451446,0,0,4.1475,0.175,-0.595,-0.16043,0.08479,-1.05518,-0.07378,0.12152,0.47194
-1.87301,0,0,16.873,16.873,13.127,13.127,0.749203,3.60449,-8.27727,-0.14993,0.208141,0.00377695,0,0,4.515,0.035,-0.84,-0.127734,0.207034,-1.00687,-0.07378,0.12152,0.47194
-1.37068,0,0,16.3707,16.3707,13.6293,13.6293,0.548272,3.44857,-8.18513,-0.147214,0.204643,0.00398396,0,0,4.6725,0,-1.3475,-0.127734,0.207034,-1.00687,-0.06916,0.12656,0.47404
-1.37572,0,0,16.3757,16.3757,13.6243,13.6243,0.550287,3.44883,-8.18586,-0.211727,-0.184295,-0.157202,1,0,4.585,0.245,-1.4,-0.192516,-0.181536,-1.16681,-0.06916,0.12656,0.47404
-1.3828,0,0,16.3828,16.3828,13.6172,13.6172,0.553119,3.44874,-8.18755,-0.211726,-0.184246,-0.157203,1,0,5.075,0.035,-1.96,-0.192516,-0.181536,-1.16681,-0.06916,0.12656,0.47404
-1.38583,0,0,16.3858,16.3858,13.6142,13.6142,0.554331,3.44799,-8.18919,0.284799,0.451445,-0.117735,1,0,4.165,-0.35,-1.925,0.306098,0.453474,-1.12765,-0.06916,0.12656,0.47404
-1.38886,0,0,16.3889,16.3889,13.6111,13.6111,0.555543,3.44724,-8.19082,0.284812,0.451466,-0.117735,1,0,4.165,-0.35,-1.925,0.306098,0.453474,-1.12765,-0.06916,0.12656,0.47404
-1.65987,0,0,16.6599,16.6599,13.3401,13.3401,0.663948,3.24388,-7.99937,-0.187625,-0.110991,-0.0411968,0,0,3.2375,-0.35,-2.205,-0.171898,-0.110288,-1.05188,-0.06916,0.12656,0.47404
-1.92588,0,0,16.9259,16.9259,13.0741,13.0741,0.770351,3.04439,-7.80903,-0.184149,-0.109134,-0.0410291,0,0,3.2375,-0.35,-2.205,-0.171898,-0.110288,-1.05188,-0.06916,0.12656,0.47404
-1.77661,0,0,16.7766,16.7766,13.2234,13.2234,0.710642,3.0912,-7.86345,0.0463441,0.059947,-0.0524936,0,0,3.01,0.105,-1.6975,0.06039,0.059658,-1.06323,-0.06916,0.12656,0.47404
-1.63004,0,0,16.63,16.63,13.37,13.37,0.652017,3.13688,-7.90758,0.0455481,0.0589249,-0.0525247,0,0,3.01,0.105,-1.6975,0.06039,0.059658,-1.06323,-0.07406,0.1211,0.4704
-1.63041,0,0,16.6304,16.6304,13.3696,13.3696,0.652166,3.13796,-7.90712,-0.0488652,0.208899,-0.238178,1,0,3.5,0.735,-0.7175,-0.034404,0.209474,-1.24745,-0.07406,0.1211,0.4704
-2.12495,0,0,17.1249,17.1249,12.8751,12.8751,0.849979,3.17491,-7.896,0.0329797,-0.193482,0.0295231,0,0,3.78,-0.1225,-0.6825,0.048434,-0.195932,-0.981734,-0.07406,0.1211,0.4704
-2.61041,0,0,17.6104,17.6104,12.3896,12.3896,1.04416,3.21146,-7.88441,0.0323428,-0.190099,0.0294316,0,0,3.6225,0.07,-0.385,0.048434,-0.195932,-0.981734,-0.07406,0.1211,0.4704
-2.76093,0,0,17.7609,17.7609,12.2391,12.2391,1.10437,3.38504,-8.018,0.157,-0.0641174,0.00698403,0,0,2.7825,0.175,-0.3675,0.176656,-0.071126,-1.00382,-0.07406,0.1211,0.4704
-2.90908,0,0,17.9091,17.9091,12.0909,12.0909,1.16363,3.55594,-8.15048,0.154022,-0.0630888,0.00678307,0,0,2.8,0.5775,-0.105,0.176656,-0.071126,-1.00382,-0.07406,0.1211,0.4704
-2.90309,0,0,17.9031,17.9031,12.0969,12.0969,1.16124,3.557,-8.14887,-0.0316262,0.0240679,0.130223,1,0,2.03,0.735,-0.0525,-0.00976,0.015982,-0.881328,-0.07406,0.1211,0.4704
-2.89967,0,0,17.8997,17.8997,12.1003,12.1003,1.15987,3.55679,-8.14825,-0.0316226,0.0240441,0.130224,1,0,2.6425,-0.0175,-0.6125,-0.00976,0.015982,-0.881328,-0.07406,0.1211,0.4704
-2.90271,0,0,17.9027,17.9027,12.0973,12.0973,1.16108,3.31228,-7.93023,-0.224412,0.00123276,-0.0313213,0,0,3.325,-0.0875,-0.5775,-0.207644,-0.006832,-1.04188,-0.07406,0.1211,0.4704
-2.90554,0,0,17.9055,17.9055,12.0945,12.0945,1.16222,3.07522,-7.72014,-0.220281,0.00125717,-0.0310912,0,0,3.57,-0.1575,-0.105,-0.207644,-0.006832,-1.04188,-0.0644,0.1246,0.46858
-2.90812,0,0,17.9081,17.9081,12.0919,12.0919,1.16325,3.07476,-7.71892,0.239064,-0.0227838,-0.161908,1,0,3.9725,-0.1575,-0.2625,0.253638,-0.030866,-1.17169,-0.0644,0.1246,0.46858
-2.90768,0,0,17.9077,17.9077,12.0923,12.0923,1.16307,3.07432,-7.71873,0.239072,-0.0227869,-0.161908,1,0,3.325,-0.1575,-0.8575,0.253638,-0.030866,-1.17169,-0.0644,0.1246,0.46858
-2.90786,0,0,17.9079,17.9079,12.0921,12.0921,1.16314,3.07365,-7.71911,-0.0177375,-0.196572,-0.132768,1,0,3.4825,-0.2975,-1.19,-0.00427,-0.204472,-1.14277,-0.0644,0.1246,0.46858
-2.90533,0,0,17.9053,17.9053,12.0947,12.0947,1.16213,3.0733,-7.71876,-0.0177314,-0.19659,-0.132768,1,0,2.8525,-0.105,-0.77,-0.00427,-0.204472,-1.14277,-0.0644,0.1246,0.46858
-3.93615,0,0,18.9361,18.9361,11.0639,11.0639,1.57446,3.22083,-7.77703,0.132041,-0.409848,0.116997,0,0,2.135,0,-1.0675,0.148718,-0.424682,-0.894626,-0.0644,0.1246,0.46858
-4.95224,0,0,19.9522,19.9522,10.0478,10.0478,1.98089,3.36574,-7.83511,0.129516,-0.402774,0.116632,0,0,2.4325,0.035,-1.8375,0.148718,-0.424682,-0.894626,-0.0644,0.1246,0.46858
-4.63931,0,0,19.6393,19.6393,10.3607,10.3607,1.85572,3.37503,-7.86915,0.0117558,0.129717,-0.0843257,0,0,2.4325,-0.0525,-1.9075,0.030622,0.109434,-1.0941,-0.0644,0.1246,0.46858
-4.33896,0,0,19.339,19.339,10.661,10.661,1.73558,3.38411,-7.90122,0.0115976,0.127624,-0.0842694,0,0,4.025,-0.0875,-1.645,0.030622,0.109434,-1.0941,-0.07168,0.12572,0.46382
-4.53342,0,0,19.5334,19.5334,10.4666,10.4666,1.81337,3.13995,-7.67688,-0.207074,-0.0675154,0.0671576,0,0,3.605,0.1925,-1.7675,-0.193248,-0.086864,-0.944036,-0.07168,0.12572,0.46382
-4.72619,0,0,19.7262,19.7262,10.2738,10.2738,1.89048,2.90043,-7.45405,-0.2029,-0.0661651,0.0673343,0,0,4.095,0.1575,-2.0125,-0.193248,-0.086864,-0.944036,-0.07168,0.12572,0.46382
-4.72721,0,0,19.7272,19.7272,10.2728,10.2728,1.89088,2.90129,-7.45526,-0.0910264,-0.0842328,-0.127048,1,0,3.6925,0.5775,-1.6975,-0.080886,-0.10492,-1.13692,-0.07168,0.12572,0.46382
-4.72696,0,0,19.727,19.727,10.273,10.273,1.89078,2.90223,-7.45602,-0.0910427,-0.0842345,-0.127049,1,0,3.395,0.63,-1.435,-0.080886,-0.10492,-1.13692,-0.07168,0.12572,0.46382
-4.72655,0,0,19.7266,19.7266,10.2734,10.2734,1.89062,2.90239,-7.45674,-0.131257,0.301561,-0.15459,1,0,3.36,0.175,-1.4,-0.121268,0.280478,-1.16425,-0.07168,0.12572,0.46382
-4.72053,0,0,19.7205,19.7205,10.2795,10.2795,1.88821,2.90335,-7.45747,-0.131274,0.301519,-0.154589,1,0,2.1,0.6475,-1.4175,-0.121268,0.280478,-1.16425,-0.07168,0.12572,0.46382
-4.7153,0,0,19.7153,19.7153,10.2847,10.2847,1.88612,2.90428,-7.45805,-0.493317,0.182409,-0.055861,1,0,2.275,0.63,-1.33,-0.484828,0.161528,-1.06628,-0.07168,0.12572,0.46382
-4.71413,0,0,19.7141,19.7141,10.2859,10.2859,1.88565,2.90447,-7.45802,-0.493321,0.182401,-0.0558609,1,0,3.1675,0.21,-0.9625,-0.484828,0.161528,-1.06628,-0.06496,0.12306,0.46956
-4.84945,0,0,19.8494,19.8494,10.1506,10.1506,1.93978,3.14487,-7.65311,0.214274,-0.0561543,0.033024,0,0,3.6575,0.14,-0.6475,0.22997,-0.077714,-0.97783,-0.06496,0.12306,0.46956
-4.98661,0,0,19.9866,19.9866,10.0134,10.0134,1.99465,3.38019,-7.84695,0.210173,-0.0552068,0.0327576,0,0,4.5675,-0.14,-0.4375,0.22997,-0.077714,-0.97783,-0.06496,0.12306,0.46956
-4.44546,0,0,19.4455,19.4455,10.5545,10.5545,1.77818,3.3308,-7.84114,-0.0491884,0.211414,0.047686,0,0,4.375,0.3675,-0.385,-0.031354,0.192394,-0.96319,-0.06496,0.12306,0.46956
-3.91068,0,0,18.9107,18.9107,11.0893,11.0893,1.56427,3.28155,-7.83408,-0.0483303,0.20769,0.0478443,0,0,3.71,-0.0175,0.105,-0.031354,0.192394,-0.96319,-0.06496,0.12306,0.46956
-3.57454,0,0,18.5745,18.5745,11.4255,11.4255,1.42982,3.06753,-7.66583,-0.196458,0.138305,0.00335902,0,0,3.7625,-0.0175,0.0525,-0.183854,0.125416,-1.0076,-0.06496,0.12306,0.46956
-3.24395,0,0,18.2439,18.2439,11.7561,11.7561,1.29758,2.85739,-7.49675,-0.192795,0.136006,0.00360337,0,0,3.7625,-0.0175,0.0525,-0.183854,0.125416,-1.0076,-0.06496,0.12306,0.46956
-3.6117,0,0,18.6117,18.6117,11.3883,11.3883,1.44468,2.9798,-7.57288,0.103076,-0.139516,0.0749893,0,0,2.8525,-0.6125,0.035,0.115412,-0.152378,-0.936594,-0.06496,0.12306,0.46956
-3.97334,0,0,18.9733,18.9733,11.0267,11.0267,1.58934,3.09971,-7.65117,0.100986,-0.136999,0.0748116,0,0,2.8525,-0.6125,0.035,0.115412,-0.152378,-0.936594,-0.06664,0.12544,0.4683
-3.87973,0,0,18.8797,18.8797,11.1203,11.1203,1.55189,3.23874,-7.78045,0.128934,0.0350323,-0.0130898,0,0,3.045,-0.3325,-0.9275,0.145912,0.02013,-1.0237,-0.06664,0.12544,0.4683
-3.78772,0,0,18.7877,18.7877,11.2123,11.2123,1.51509,3.3751,-7.90957,0.126558,0.0343876,-0.0132099,0,0,3.045,-0.3325,-0.9275,0.145912,0.02013,-1.0237,-0.06664,0.12544,0.4683
-4.07459,0,0,19.0746,19.0746,10.9254,10.9254,1.62984,3.35356,-7.87494,-0.015326,-0.117859,-0.0283654,0,0,3.8675,-0.4025,-1.155,0.00305,-0.133956,-1.03871,-0.06664,0.12544,0.4683
-4.35648,0,0,19.3565,19.3565,10.6435,10.6435,1.74259,3.33247,-7.8406,-0.0149585,-0.115895,-0.0284017,0,0,3.8675,-0.4025,-1.155,0.00305,-0.133956,-1.03871,-0.06664,0.12544,0.4683
-4.12029,0,0,19.1203,19.1203,10.8797,10.8797,1.64812,3.28388,-7.81856,-0.0452122,0.0948395,-0.00506686,0,0,3.4825,0.105,-1.96,-0.028182,0.078202,-1.01565,-0.06664,0.12544,0.4683
-4.12257,0,0,19.1226,19.1226,10.8774,10.8774,1.64903,3.28365,-7.82058,-0.13608,0.079101,0.121201,1,0,4.0075,-0.07,-2.1525,-0.119438,0.062464,-0.890356,-0.06664,0.12544,0.4683
-4.12237,0,0,19.1224,19.1224,10.8776,10.8776,1.64895,3.28408,-7.82256,-0.136087,0.0790996,0.121201,1,0,3.4475,0.315,-2.135,-0.119438,0.062464,-0.890356,-0.06664,0.12544,0.4683
-4.11836,0,0,19.1184,19.1184,10.8816,10.8816,1.64734,3.28448,-7.82439,0.0671517,-0.284866,-0.081664,1,0,2.59,0.2975,-2.0475,0.084668,-0.301096,-1.09166,-0.0707,0.11998,0.47082
-4.11525,0,0,19.1152,19.1152,10.8848,10.8848,1.6461,3.28521,-7.82648,0.067139,-0.284888,-0.0816641,1,0,2.8,0.49,-2.205,0.084668,-0.301096,-1.09166,-0.0707,0.11998,0.47082
-4.66375,0,0,19.6637,19.6637,10.3363,10.3363,1.8655,3.11594,-7.63195,-0.149314,-0.213037,0.0456353,0,0,3.045,-0.035,-1.7325,-0.135664,-0.233142,-0.965386,-0.0707,0.11998,0.47082
-4.66698,0,0,19.667,19.667,10.333,10.333,1.86679,3.11655,-7.63287,-0.0765552,0.169975,-0.110634,1,0,4.1825,0.4375,-1.5225,-0.062586,0.14945,-1.12045,-0.0707,0.11998,0.47082
-4.66738,0,0,19.6674,19.6674,10.3326,10.3326,1.86695,3.11745,-7.63275,-0.076571,0.169978,-0.110634,1,0,3.5175,0.63,-0.9275,-0.062586,0.14945,-1.12045,-0.0707,0.11998,0.47082
-4.04258,0,0,19.0426,19.0426,10.9574,10.9574,1.61703,2.99444,-7.55904,-0.114274,0.25649,0.00604457,0,0,3.605,0.3325,-0.7,-0.102602,0.240218,-1.00491,-0.0707,0.11998,0.47082
-3.42746,0,0,18.4275,18.4275,11.5725,11.5725,1.37098,2.87368,-7.48369,-0.112169,0.252206,0.00626424,0,0,3.4125,0.4025,-0.3325,-0.102602,0.240218,-1.00491,-0.0707,0.11998,0.47082
-3.42796,0,0,18.428,18.428,11.572,11.572,1.37118,2.87334,-7.48277,-0.351612,-0.122231,-0.253772,1,0,3.5175,-0.0875,-0.4375,-0.343064,-0.133834,-1.26294,-0.0707,0.11998,0.47082
-3.42783,0,0,18.4278,18.4278,11.5722,11.5722,1.37113,2.87265,-7.48066,-0.3516,-0.122232,-0.253771,1,0,3.3425,-0.28,0.2625,-0.343064,-0.133834,-1.26294,-0.063,0.12152,0.47432
-3.45858,0,0,18.4586,18.4586,11.5414,11.5414,1.38343,2.92976,-7.52052,0.0570544,-0.0144255,-0.0387897,0,0,3.4125,-0.4375,0.2625,0.06832,-0.026352,-1.04957,-0.063,0.12152,0.47432
-3.49106,0,0,18.4911,18.4911,11.5089,11.5089,1.39642,2.98627,-7.56051,0.0560695,-0.0142003,-0.038846,0,0,3.92,-0.1575,0.1225,0.06832,-0.026352,-1.04957,-0.063,0.12152,0.47432
-3.49363,0,0,18.4936,18.4936,11.5064,11.5064,1.39745,2.9853,-7.55934,-0.0346634,0.168886,-0.142245,1,0,3.9725,-0.455,-0.28,-0.022814,0.156526,-1.15217,-0.063,0.12152,0.47432
-3.4953,0,0,18.4953,18.4953,11.5047,11.5047,1.39812,2.98456,-7.55786,-0.0346505,0.168897,-0.142245,1,0,3.7625,-0.315,-0.105,-0.022814,0.156526,-1.15217,-0.063,0.12152,0.47432
-3.44325,0,0,18.4433,18.4433,11.5567,11.5567,1.3773,2.91286,-7.49049,-0.0658374,0.0223503,-0.060411,0,0,3.8675,0,-0.315,-0.055388,0.010492,-1.07104,-0.063,0.12152,0.47432
-3.39022,0,0,18.3902,18.3902,11.6098,11.6098,1.35609,2.84246,-7.42473,-0.0646103,0.0219821,-0.0603405,0,0,3.5,-0.0525,-1.225,-0.055388,0.010492,-1.07104,-0.063,0.12152,0.47432
-2.62334,0,0,17.6233,17.6233,12.3767,12.3767,1.04934,2.88817,-7.51206,0.0447805,0.330135,-0.0291622,0,0,3.78,0.0175,-1.225,0.055266,0.323666,-1.04017,-0.063,0.12152,0.47432
-1.87113,0,0,16.8711,16.8711,13.1289,13.1289,0.748452,2.93303,-7.59914,0.0439985,0.32489,-0.0291196,0,0,4.2525,-0.035,-1.2425,0.055266,0.323666,-1.04017,-0.06608,0.1218,0.4781
-2.62781,0,0,17.6278,17.6278,12.3722,12.3722,1.05112,2.91002,-7.52068,-0.0203524,-0.307825,0.0244235,0,0,4.7775,-0.0875,-1.33,-0.00976,-0.313662,-0.98698,-0.06608,0.1218,0.4781
-3.37203,0,0,18.372,18.372,11.628,11.628,1.34881,2.8879,-7.44485,-0.0199667,-0.302636,0.0243344,0,0,4.8475,0.175,-2.3975,-0.00976,-0.313662,-0.98698,-0.06608,0.1218,0.4781
-3.20138,0,0,18.2014,18.2014,11.7986,11.7986,1.28055,3.08053,-7.62406,0.195107,0.0732976,-0.0691312,0,0,4.9875,-0.035,-2.5725,0.209596,0.063074,-1.07958,-0.06608,0.1218,0.4781
-3.03575,0,0,18.0357,18.0357,11.9643,11.9643,1.2143,3.26995,-7.80184,0.191806,0.0721393,-0.0692892,0,0,5.4425,0.21,-1.75,0.209596,0.063074,-1.07958,-0.06608,0.1218,0.4781
-3.04162,0,0,18.0416,18.0416,11.9584,11.9584,1.21665,3.27111,-7.80278,0.00967881,-0.162059,0.202671,1,0,4.7775,0.77,-1.54,0.026718,-0.170922,-0.809714,-0.06608,0.1218,0.4781
-3.04522,0,0,18.0452,18.0452,11.9548,11.9548,1.21809,3.27263,-7.80435,0.00965249,-0.162034,0.202669,1,0,4.2875,0.9625,-1.9075,0.026718,-0.170922,-0.809714,-0.06608,0.1218,0.4781
-3.04811,0,0,18.0481,18.0481,11.9519,11.9519,1.21924,3.27365,-7.80541,0.101721,0.299748,0.287994,1,0,4.1125,0.6825,-1.61,0.119194,0.29036,-0.725046,-0.06608,0.1218,0.4781
-3.05004,0,0,18.05,18.05,11.95,11.95,1.22002,3.27369,-7.80554,0.10172,0.299761,0.287993,1,0,3.8675,0.1225,-1.05,0.119194,0.29036,-0.725046,-0.06608,0.1218,0.4781
-3.27745,0,0,18.2774,18.2774,11.7226,11.7226,1.31098,3.2971,-7.80984,0.0229539,-0.0908039,-0.00333008,0,0,4.235,0.1575,-0.63,0.040504,-0.101382,-1.01406,-0.06398,0.12264,0.47628
-3.50124,0,0,18.5012,18.5012,11.4988,11.4988,1.4005,3.31971,-7.81384,0.0225599,-0.0892451,-0.00338976,0,0,4.2875,-0.0525,-0.4375,0.040504,-0.101382,-1.01406,-0.06398,0.12264,0.47628
-4.1276,0,0,19.1276,19.1276,10.8724,10.8724,1.65104,3.35255,-7.79859,0.0332859,-0.251585,0.0262142,0,0,4.8475,-0.315,-0.3675,0.05185,-0.267912,-0.98454,-0.06398,0.12264,0.47628
-4.74357,0,0,19.7436,19.7436,10.2564,10.2564,1.89743,3.38479,-7.78344,0.0327242,-0.247295,0.0260482,0,0,4.8475,-0.315,-0.3675,0.05185,-0.267912,-0.98454,-0.06398,0.12264,0.47628
-4.75122,0,0,19.7512,19.7512,10.2488,10.2488,1.90049,3.38335,-7.78188,0.0678587,0.0697989,-0.118294,1,0,5.0925,-0.7175,-0.035,0.087108,0.0488,-1.12777,-0.06398,0.12264,0.47628
-4.75886,0,0,19.7589,19.7589,10.2411,10.2411,1.90354,3.3819,-7.78031,0.0678839,0.0698522,-0.118294,1,0,5.0925,-0.7175,-0.035,0.087108,0.0488,-1.12777,-0.06398,0.12264,0.47628
-4.75942,0,0,19.7594,19.7594,10.2406,10.2406,1.90377,3.38247,-7.77915,-0.224785,-0.0341959,-0.279111,1,0,3.5175,0.455,-0.315,-0.20679,-0.055144,-1.28734,-0.06398,0.12264,0.47628
-4.75998,0,0,19.76,19.76,10.24,10.24,1.90399,3.38305,-7.778,-0.224795,-0.034192,-0.279112,1,0,3.5175,0.455,-0.315,-0.20679,-0.055144,-1.28734,-0.06398,0.12264,0.47628
-4.76258,0,0,19.7626,19.7626,10.2374,10.2374,1.90503,3.38265,-7.7773,0.115129,-0.0418679,0.229895,1,0,3.99,-0.1225,-0.56,0.134566,-0.06283,-0.782264,-0.06538,0.12502,0.47642
-5.01432,0,0,20.0143,20.0143,9.98568,9.98568,2.00573,3.22714,-7.62605,-0.139104,-0.0973864,0.00499542,0,0,4.3925,0,-0.805,-0.123464,-0.120048,-1.00552,-0.06538,0.12502,0.47642
-5.26697,0,0,20.267,20.267,9.73303,9.73303,2.10679,3.07462,-7.47681,-0.136446,-0.0956212,0.00507845,0,0,5.6525,-0.0175,-1.4525,-0.123464,-0.120048,-1.00552,-0.06538,0.12502,0.47642
-4.83266,0,0,19.8327,19.8327,10.1673,10.1673,1.93306,3.17247,-7.59307,0.0923072,0.184562,-0.0321612,0,0,5.5475,-0.21,-1.505,0.10797,0.16287,-1.04249,-0.06538,0.12502,0.47642
-4.40581,0,0,19.4058,19.4058,10.5942,10.5942,1.76232,3.26852,-7.70981,0.0906335,0.181585,-0.0321594,0,0,5.6,-0.175,-1.645,0.10797,0.16287,-1.04249,-0.06538,0.12502,0.47642
-4.63281,0,0,19.6328,19.6328,10.3672,10.3672,1.85312,3.24543,-7.67748,-0.016479,-0.0971137,-0.0812429,0,0,5.5825,0.0875,-1.82,0,-0.11712,-1.09117,-0.06538,0.12502,0.47642
-4.85013,0,0,19.8501,19.8501,10.1499,10.1499,1.94005,3.22335,-7.64578,-0.0160943,-0.095599,-0.0812713,0,0,4.305,0.4025,-2.065,0,-0.11712,-1.09117,-0.06538,0.12502,0.47642
-4.81361,0,0,19.8136,19.8136,10.1864,10.1864,1.92544,3.46281,-7.86079,0.2125,0.0123426,0.0379996,0,0,3.605,0.595,-1.75,0.233752,-0.009028,-0.972584,-0.06538,0.12502,0.47642
-4.78046,0,0,19.7805,19.7805,10.2195,10.2195,1.91218,3.69844,-8.07306,0.208396,0.0121032,0.0377507,0,0,4.3575,0.175,-1.8725,0.233752,-0.009028,-0.972584,-0.06958,0.1246,0.4725
-4.7828,0,0,19.7828,19.7828,10.2172,10.2172,1.91312,3.69886,-8.0745,0.00769387,-0.00619952,0.153075,1,0,4.0075,0.315,-1.82,0.032208,-0.027328,-0.858148,-0.06958,0.1246,0.4725
-4.78658,0,0,19.7866,19.7866,10.2134,10.2134,1.91463,3.69818,-8.07522,0.00770572,-0.00617315,0.153075,1,0,4.305,-0.315,-1.3825,0.032208,-0.027328,-0.858148,-0.06958,0.1246,0.4725
-4.5604,0,0,19.5604,19.5604,10.4396,10.4396,1.82416,3.66682,-8.06994,-0.030745,0.0920306,0.00168922,0,0,3.9725,0.35,-1.155,-0.006954,0.072346,-1.00845,-0.06958,0.1246,0.4725
-4.33962,0,0,19.3396,19.3396,10.6604,10.6604,1.73585,3.63463,-8.06422,-0.0301843,0.0904942,0.00177276,0,0,4.305,-0.455,-0.9625,-0.006954,0.072346,-1.00845,-0.06958,0.1246,0.4725
-4.34401,0,0,19.344,19.344,10.656,10.656,1.7376,3.63403,-8.06362,0.0161123,0.204103,0.127549,1,0,4.3925,-0.245,-0.6125,0.039528,0.185806,-0.883646,-0.06958,0.1246,0.4725
-4.34483,0,0,19.3448,19.3448,10.6552,10.6552,1.73793,3.63385,-8.06234,0.0161153,0.204108,0.127549,1,0,3.57,0.0175,-0.2275,0.039528,0.185806,-0.883646,-0.06958,0.1246,0.4725
-4.34512,0,0,19.3451,19.3451,10.6549,10.6549,1.73805,3.63421,-8.06101,0.0779452,-0.122701,-0.157077,1,0,3.4475,0.3325,-0.21,0.101626,-0.140666,-1.16608,-0.06958,0.1246,0.4725
-4.34618,0,0,19.3462,19.3462,10.6538,10.6538,1.73847,3.63416,-8.05973,0.0779462,-0.122693,-0.157078,1,0,3.6225,0.0875,-0.2275,0.101626,-0.140666,-1.16608,-0.06398,0.12152,0.4753
-4.09521,0,0,19.0952,19.0952,10.9048,10.9048,1.63809,3.82649,-8.24991,0.172028,0.100022,0.0254571,0,0,4.0075,0.245,0.1225,0.19947,0.08357,-0.984784,-0.06398,0.12152,0.4753
-3.85293,0,0,18.8529,18.8529,11.1471,11.1471,1.54117,4.01462,-8.4399,0.168752,0.0983285,0.0252795,0,0,5.0225,-0.105,0.315,0.19947,0.08357,-0.984784,-0.06398,0.12152,0.4753
-4.48644,0,0,19.4864,19.4864,10.5136,10.5136,1.79458,4.02141,-8.40435,0.00523582,-0.235309,0.0925186,0,0,4.8125,0.175,0.0175,0.03538,-0.254126,-0.917928,-0.06398,0.12152,0.4753
-5.10469,0,0,20.1047,20.1047,9.89531,9.89531,2.04188,4.02845,-8.37118,0.0051132,-0.231006,0.0923658,0,0,3.8325,0.3325,-1.1375,0.03538,-0.254126,-0.917928,-0.06398,0.12152,0.4753
-5.10575,0,0,20.1057,20.1057,9.89425,9.89425,2.0423,4.02884,-8.3718,-0.179187,0.158586,0.239166,1,0,3.6925,0.315,-1.3475,-0.149694,0.135054,-0.77226,-0.06398,0.12152,0.4753
-5.10461,0,0,20.1046,20.1046,9.89539,9.89539,2.04184,4.02933,-8.37252,-0.179196,0.158578,0.239165,1,0,3.2025,0.3675,-1.4,-0.149694,0.135054,-0.77226,-0.06398,0.12152,0.4753
-5.37905,0,0,20.3791,20.3791,9.62095,9.62095,2.15162,4.04145,-8.37086,0.00622318,-0.0984213,0.0901898,0,0,3.3425,0.14,-1.5575,0.036722,-0.123586,-0.920002,-0.06398,0.12152,0.4753
-5.65285,0,0,20.6529,20.6529,9.34715,9.34715,2.26114,4.05183,-8.37302,0.00604249,-0.0965165,0.0901037,0,0,4.27,-0.6125,-2.205,0.036722,-0.123586,-0.920002,-0.06986,0.12488,0.47558
-5.65815,0,0,20.6582,20.6582,9.34185,9.34185,2.26326,4.05077,-8.37526,0.0584214,0.230209,-0.176941,1,0,4.7075,-0.5775,-2.2575,0.089304,0.202764,-1.18499,-0.06986,0.12488,0.47558
-5.66589,0,0,20.6659,20.6659,9.33411,9.33411,2.26636,4.04997,-8.37738,0.0584353,0.230263,-0.176942,1,0,5.25,-0.42,-2.1875,0.089304,0.202764,-1.18499,-0.06986,0.12488,0.47558
-5.67094,0,0,20.6709,20.6709,9.32906,9.32906,2.26838,4.04929,-8.37973,-0.15962,0.294659,-0.172639,1,0,4.655,-0.35,-2.3275,-0.129686,0.267058,-1.18072,-0.06986,0.12488,0.47558
-5.66794,0,0,20.6679,20.6679,9.33206,9.33206,2.26717,4.04922,-8.38215,-0.159619,0.294638,-0.172638,1,0,2.8525,0,-2.38,-0.129686,0.267058,-1.18072,-0.06986,0.12488,0.47558
-6.03992,0,0,21.0399,21.0399,8.96008,8.96008,2.41597,4.01014,-8.33095,-0.0329576,-0.149633,0.0191035,0,0,2.415,0.7525,-2.1875,-0.003172,-0.17934,-0.990396,-0.06986,0.12488,0.47558
-6.40422,0,0,21.4042,21.4042,8.59578,8.59578,2.56169,3.97174,-8.2791,-0.0322889,-0.147096,0.0190399,0,0,2.0825,0.7,-1.5225,-0.003172,-0.17934,-0.990396,-0.06986,0.12488,0.47558
-6.40042,0,0,21.4004,21.4004,8.59958,8.59958,2.56017,3.97236,-8.27938,-0.0152918,0.0874827,0.115555,1,0,2.59,0.455,-1.155,0.013908,0.055022,-0.894626,-0.06986,0.12488,0.47558
-6.3992,0,0,21.3992,21.3992,8.6008,8.6008,2.55968,3.9727,-8.2779,-0.0152976,0.0874742,0.115555,1,0,3.0975,0.3325,-0.1225,0.013908,0.055022,-0.894626,-0.06524,0.12656,0.48062
-6.15547,0,0,21.1555,21.1555,8.84453,8.84453,2.46219,3.94779,-8.28482,-0.0237324,0.100923,-0.0401165,0,0,3.5,0.14,0.315,0.005002,0.07015,-1.0492,-0.06524,0.12656,0.48062
-5.91803,0,0,20.918,20.918,9.08197,9.08197,2.36721,3.92223,-8.29105,-0.0232874,0.0992724,-0.0400162,0,0,3.955,-0.4725,0.6475,0.005002,0.07015,-1.0492,-0.06524,0.12656,0.48062
-6.10589,0,0,21.1059,21.1059,8.89411,8.89411,2.44236,3.92585,-8.29059,0.0115161,-0.0841982,-0.0705667,0,0,3.5175,-0.2275,0.7525,0.040016,-0.114436,-1.07946,-0.06524,0.12656,0.48062
-6.29187,0,0,21.2919,21.2919,8.70813,8.70813,2.51675,3.93098,-8.29019,0.0114268,-0.0829044,-0.0706288,0,0,3.815,0.6825,0.7175,0.040016,-0.114436,-1.07946,-0.06524,0.12656,0.48062
-6.68908,0,0,21.6891,21.6891,8.31092,8.31092,2.67563,4.00646,-8.33487,0.0672109,-0.155009,0.0468165,0,0,3.8325,0.84,0.735,0.097356,-0.189222,-0.962702,-0.06524,0.12656,0.48062
-7.07692,0,0,22.0769,22.0769,7.92308,7.92308,2.83077,4.07958,-8.38044,0.0659378,-0.152315,0.0465969,0,0,3.255,0.245,0.0525,0.097356,-0.189222,-0.962702,-0.06524,0.12656,0.48062
-7.07852,0,0,22.0785,22.0785,7.92148,7.92148,2.83141,4.07945,-8.37934,0.0819762,-0.000378411,0.2202,1,0,3.745,0.0525,-0.3325,0.11346,-0.037454,-0.790438,-0.06524,0.12656,0.48062
-7.08,0,0,22.08,22.08,7.92,7.92,2.832,4.07937,-8.37932,0.0819775,-0.000368082,0.220199,1,0,3.7625,0.0525,-0.9625,0.11346,-0.037454,-0.790438,-0.06524,0.12656,0.48062
-6.53827,0,0,21.5383,21.5383,8.46173,8.46173,2.61531,4.06395,-8.42095,-0.0216243,0.225219,-0.0193519,0,0,3.6575,0.56,-1.3475,0.00915,0.191662,-1.02834,-0.06916,0.12908,0.4732
-6.9,0,0,21.9,21.9,8.1,8.1,2.76,3.80232,-8.18686,-0.217399,-0.124097,0.106742,0,0,4.1125,-0.14,-2.345,-0.192028,-0.15982,-0.90341,-0.06916,0.12908,0.4732
-7.25505,0,0,22.255,22.255,7.74495,7.74495,2.90202,3.54565,-7.95458,-0.212928,-0.121612,0.106907,0,0,4.1125,-0.14,-2.345,-0.192028,-0.15982,-0.90341,-0.06916,0.12908,0.4732
-7.17662,0,0,22.1766,22.1766,7.82338,7.82338,2.87065,3.65841,-8.06836,0.0955037,0.0307383,0.0378366,0,0,3.57,-0.63,-2.59,0.119682,-0.007076,-0.971852,-0.06916,0.12908,0.4732
-7.09951,0,0,22.0995,22.0995,7.90049,7.90049,2.83981,3.76899,-8.18193,0.0935777,0.0301955,0.0377385,0,0,3.57,-0.63,-2.59,0.119682,-0.007076,-0.971852,-0.06916,0.12908,0.4732
-7.09916,0,0,22.0992,22.0992,7.90084,7.90084,2.83966,3.76943,-8.18501,-0.186819,0.175524,-0.133775,1,0,3.465,0.2625,-2.7825,-0.161894,0.138104,-1.14204,-0.06916,0.12908,0.4732
-7.09881,0,0,22.0988,22.0988,7.90119,7.90119,2.83952,3.76986,-8.1881,-0.186826,0.175521,-0.133775,1,0,3.465,0.2625,-2.7825,-0.161894,0.138104,-1.14204,-0.06916,0.12908,0.4732
-7.09886,0,0,22.0989,22.0989,7.90114,7.90114,2.83955,3.76928,-8.18871,0.131476,0.111894,-0.140537,1,0,3.465,-0.2625,-1.3125,0.157746,0.074542,-1.14875,-0.06468,0.12642,0.4746
-6.9611,0,0,21.9611,21.9611,8.0389,8.0389,2.78444,3.63895,-8.09414,-0.122467,0.0572066,-0.0621478,0,0,2.905,0.35,-1.225,-0.099552,0.020862,-1.07116,-0.06468,0.12642,0.4746
-6.82556,0,0,21.8256,21.8256,8.17444,8.17444,2.73023,3.51105,-7.99948,-0.120239,0.05627,-0.0619634,0,0,2.905,0.35,-1.225,-0.099552,0.020862,-1.07116,-0.06468,0.12642,0.4746
-6.82856,0,0,21.8286,21.8286,8.17144,8.17144,2.73143,3.51118,-7.9977,-0.0791794,0.0733887,-0.116062,1,0,4.0425,0.2275,0.0525,-0.058316,0.037942,-1.12484,-0.06468,0.12642,0.4746
-6.83157,0,0,21.8316,21.8316,8.16843,8.16843,2.73263,3.51132,-7.99593,-0.0791818,0.0734095,-0.116063,1,0,4.0425,0.2275,0.0525,-0.058316,0.037942,-1.12484,-0.06468,0.12642,0.4746
-7.23431,0,0,22.2343,22.2343,7.76569,7.76569,2.89373,3.38345,-7.85931,-0.108662,-0.141777,0.102413,0,0,3.7975,0.6125,-0.105,-0.090158,-0.179828,-0.908046,-0.06468,0.12642,0.4746
-7.63003,0,0,22.63,22.63,7.36997,7.36997,3.05201,3.25804,-7.72385,-0.106477,-0.139016,0.102396,0,0,3.7975,0.6125,-0.105,-0.090158,-0.179828,-0.908046,-0.06468,0.12642,0.4746
-7.628,0,0,22.628,22.628,7.372,7.372,3.0512,3.25075,-7.72217,0.176955,0.0959421,0.1506,1,0,2.9225,-4.1125,0.2275,0.194346,0.0549,-0.860222,-0.06468,0.12642,0.4746
-7.62598,0,0,22.626,22.626,7.37402,7.37402,3.05039,3.24347,-7.72049,0.177082,0.0959284,0.150608,1,0,2.9225,-4.1125,0.2275,0.194346,0.0549,-0.860222,-0.06146,0.1246,0.4767
-7.62684,0,0,22.6268,22.6268,7.37316,7.37316,3.05074,3.24252,-7.71986,0.095217,-0.188254,-0.160082,1,0,3.605,-0.4375,-0.5775,0.112118,-0.228994,-1.16852,-0.06146,0.1246,0.4767
-7.62771,0,0,22.6277,22.6277,7.37229,7.37229,3.05109,3.24157,-7.71923,0.0952336,-0.188248,-0.160082,1,0,3.605,-0.4375,-0.5775,0.112118,-0.228994,-1.16852,-0.06146,0.1246,0.4767
-7.63177,0,0,22.6318,22.6318,7.36823,7.36823,3.05271,3.24069,-7.71979,-0.0466463,-0.0408131,-0.207909,1,0,4.3575,-0.4375,-1.2775,-0.030378,-0.08174,-1.21597,-0.06146,0.1246,0.4767
-7.63582,0,0,22.6358,22.6358,7.36418,7.36418,3.05433,3.2398,-7.72036,-0.0466309,-0.0407849,-0.20791,1,0,4.3575,-0.4375,-1.2775,-0.030378,-0.08174,-1.21597,-0.06146,0.1246,0.4767
-7.593,0,0,22.593,22.593,7.407,7.407,3.0372,3.0224,-7.53368,-0.206605,0.0197472,-0.0541243,0,0,3.885,0.455,-1.4175,-0.194834,-0.020984,-1.0636,-0.06146,0.1246,0.4767
-7.80181,0,0,22.8018,22.8018,7.19819,7.19819,3.12072,3.24612,-7.7106,0.216397,-0.0939763,-0.0183917,0,0,4.0775,0.21,-1.435,0.233874,-0.13603,-1.02785,-0.06146,0.1246,0.4767
-8.00635,0,0,23.0063,23.0063,6.99365,6.99365,3.20254,3.46378,-7.88677,0.212605,-0.0925653,-0.0186923,0,0,3.885,-0.875,-1.54,0.233874,-0.13603,-1.02785,-0.06146,0.1246,0.4767
-8.00942,0,0,23.0094,23.0094,6.99058,6.99058,3.20377,3.46243,-7.88761,-0.282062,0.0124852,0.178148,1,0,4.1475,-0.7175,-1.4175,-0.26291,-0.03111,-0.832528,-0.06538,0.12586,0.47824
-7.69722,0,0,22.6972,22.6972,7.30278,7.30278,3.07889,3.4632,-7.9142,0.00414535,0.135371,-0.0913592,0,0,4.305,-0.49,-1.0325,0.024522,0.093818,-1.10007,-0.06538,0.12586,0.47824
-7.39021,0,0,22.3902,22.3902,7.60979,7.60979,2.95608,3.46419,-7.94072,0.00412804,0.133234,-0.0912476,0,0,4.2875,-0.315,-1.0675,0.024522,0.093818,-1.10007,-0.06538,0.12586,0.47824
-6.97625,0,0,21.9763,21.9763,8.02375,8.02375,2.7905,3.2302,-7.77041,-0.228571,0.1852,-0.0609884,0,0,4.7075,0.0525,-0.9275,-0.213256,0.148596,-1.07043,-0.06538,0.12586,0.47824
-6.56701,0,0,21.567,21.567,8.43299,8.43299,2.6268,3.00185,-7.59889,-0.224591,0.18236,-0.0606372,0,0,4.27,0.945,-0.91,-0.213256,0.148596,-1.07043,-0.06538,0.12586,0.47824
-6.57268,0,0,21.5727,21.5727,8.42732,8.42732,2.62907,3.00325,-7.59904,0.128665,0.263492,-0.203875,1,0,4.7075,0.91,-1.1025,0.14152,0.229604,-1.21256,-0.06538,0.12586,0.47824
-6.57629,0,0,21.5763,21.5763,8.42371,8.42371,2.63052,3.00553,-7.59952,0.128625,0.263517,-0.203878,1,0,4.2525,1.4175,-1.3125,0.14152,0.229604,-1.21256,-0.06538,0.12586,0.47824
-6.58181,0,0,21.5818,21.5818,8.41819,8.41819,2.63272,3.00713,-7.60026,-0.111458,0.0626567,0.36119,1,0,4.69,1.015,-1.4525,-0.099552,0.028914,-0.651846,-0.06538,0.12586,0.47824
-6.58849,0,0,21.5885,21.5885,8.41151,8.41151,2.6354,3.00775,-7.60105,-0.111469,0.0627032,0.361187,1,0,4.9525,0.4375,-1.4525,-0.099552,0.028914,-0.651846,-0.0644,0.12768,0.47138
-6.5948,0,0,21.5948,21.5948,8.4052,8.4052,2.63792,3.00824,-7.60236,0.0136526,0.242029,0.149221,1,0,4.8825,0.35,-1.75,0.026108,0.20801,-0.862174,-0.0644,0.12768,0.47138
-6.60158,0,0,21.6016,21.6016,8.39842,8.39842,2.64063,3.00818,-7.60417,0.0136535,0.242076,0.149219,1,0,5.005,0.0175,-2.03,0.026108,0.20801,-0.862174,-0.0644,0.12768,0.47138
-6.60584,0,0,21.6058,21.6058,8.39416,8.39416,2.64233,3.0082,-7.60562,0.154941,0.111308,0.141472,1,0,4.4275,0.07,-1.82,0.167994,0.077348,-0.86986,-0.0644,0.12768,0.47138
-6.60417,0,0,21.6042,21.6042,8.39583,8.39583,2.64167,3.00745,-7.60642,0.154954,0.111297,0.141473,1,0,3.08,-0.3675,-1.4175,0.167994,0.077348,-0.86986,-0.0644,0.12768,0.47138
-6.78049,0,0,21.7805,21.7805,8.21951,8.21951,2.7122,2.71031,-7.33663,-0.260936,-0.0629592,0.0634788,0,0,3.2375,-0.2625,-1.3475,-0.254858,-0.097966,-0.947452,-0.0644,0.12768,0.47138
-6.95598,0,0,21.956,21.956,8.04402,8.04402,2.78239,2.41928,-7.06709,-0.255861,-0.0617258,0.0636472,0,0,3.815,0.14,-0.8225,-0.254858,-0.097966,-0.947452,-0.0644,0.12768,0.47138
-7.27039,0,0,22.2704,22.2704,7.72961,7.72961,2.90816,2.39231,-7.01449,-0.0252971,-0.112171,0.0863036,0,0,4.5675,0.1575,-0.7525,-0.02379,-0.150548,-0.924882,-0.0644,0.12768,0.47138
-7.58621,0,0,22.5862,22.5862,7.41379,7.41379,3.03448,2.36579,-6.96045,-0.0248347,-0.10997,0.0862086,0,0,6.0375,0.175,0.2975,-0.02379,-0.150548,-0.924882,-0.0644,0.12768,0.47138
-7.59451,0,0,22.5945,22.5945,7.40549,7.40549,3.0378,2.36609,-6.95789,0.164556,-0.0633821,-0.160429,1,0,5.2325,0.35,0.5075,0.166408,-0.104066,-1.16961,-0.0651,0.12992,0.48062
-7.60288,0,0,22.6029,22.6029,7.39712,7.39712,3.04115,2.36528,-6.95535,-0.0745134,0.0248518,0.108948,1,0,5.25,-0.2975,0.525,-0.073688,-0.015982,-0.902312,-0.0651,0.12992,0.48062
-7.60454,0,0,22.6045,22.6045,7.39546,7.39546,3.04182,2.3654,-6.95292,-0.0745155,0.0248633,0.108948,1,0,3.745,0.245,0.4375,-0.073688,-0.015982,-0.902312,-0.0651,0.12992,0.48062
-8.07069,0,0,23.0707,23.0707,6.92931,6.92931,3.22828,2.27869,-6.83985,-0.0744612,-0.165702,0.11129,0,0,4.06,0.49,0.385,-0.075152,-0.209596,-0.899872,-0.0651,0.12992,0.48062
-8.53413,0,0,23.5341,23.5341,6.46587,6.46587,3.41365,2.19331,-6.72895,-0.0729721,-0.162471,0.111161,0,0,5.25,0.2625,-0.28,-0.075152,-0.209596,-0.899872,-0.0651,0.12992,0.48062
-8.5415,0,0,23.5415,23.5415,6.4585,6.4585,3.4166,2.19273,-6.7286,-0.158002,0.104427,0.232385,1,0,5.075,-0.2275,-0.7525,-0.160552,0.056974,-0.77958,-0.0651,0.12992,0.48062
-8.55717,0,0,23.5572,23.5572,6.44283,6.44283,3.42287,2.19191,-6.72955,-0.157988,0.104537,0.232379,1,0,6.965,-0.42,-1.505,-0.160552,0.056974,-0.77958,-0.0651,0.12992,0.48062
-8.10056,0,0,23.1006,23.1006,6.89944,6.89944,3.24022,2.19734,-6.75305,0.003858,0.194295,-0.00497577,0,0,6.3,0.0175,-1.855,0.002074,0.149816,-1.01528,-0.0665,0.12964,0.48188
-8.10919,0,0,23.1092,23.1092,6.89081,6.89081,3.24368,2.19754,-6.75581,0.115743,0.16419,0.201943,1,0,5.425,0.1225,-2.59,0.114436,0.119682,-0.809958,-0.0665,0.12964,0.48188
-8.11089,0,0,23.1109,23.1109,6.88911,6.88911,3.24436,2.19825,-6.75921,0.11573,0.164201,0.201942,1,0,3.885,0.4025,-2.975,0.114436,0.119682,-0.809958,-0.0665,0.12964,0.48188
-8.11308,0,0,23.1131,23.1131,6.88692,6.88692,3.24523,2.19869,-6.76244,0.125563,-0.0808917,0.258374,1,0,3.99,0.245,-2.87,0.124318,-0.125172,-0.75396,-0.0665,0.12964,0.48188
-8.12082,0,0,23.1208,23.1208,6.87918,6.87918,3.24833,2.19938,-6.76547,0.125551,-0.0808377,0.258371,1,0,5.2325,0.4025,-2.765,0.124318,-0.125172,-0.75396,-0.0665,0.12964,0.48188
-8.12846,0,0,23.1285,23.1285,6.87154,6.87154,3.25138,2.19999,-6.768,0.053378,0.103627,-0.114167,1,0,5.1975,0.3675,-2.4675,0.05185,0.059048,-1.12362,-0.0665,0.12964,0.48188
-8.13641,0,0,23.1364,23.1364,6.86359,6.86359,3.25456,2.20032,-6.76886,0.0533722,0.103682,-0.11417,1,0,5.2325,0.2625,-1.4875,0.05185,0.059048,-1.12362,-0.0665,0.12964,0.48188
-8.58115,0,0,23.5812,23.5812,6.41885,6.41885,3.43246,2.26877,-6.79056,0.0621403,-0.180221,0.0235506,0,0,5.145,0.21,-0.8225,0.061854,-0.227652,-0.986736,-0.0665,0.12964,0.48188
-9.01813,0,0,24.0181,24.0181,5.98187,5.98187,3.60725,2.33554,-6.80522,0.0609758,-0.177182,0.0233167,0,0,5.04,-0.28,0.315,0.061854,-0.227652,-0.986736,-0.06118,0.12502,0.47586
-9.023,0,0,24.023,24.023,5.977,5.977,3.6092,2.33476,-6.80257,0.139955,-0.0229015,0.256425,1,0,4.4625,-0.2625,0.595,0.141154,-0.073566,-0.755424,-0.06118,0.12502,0.47586
-9.02545,0,0,24.0254,24.0254,5.97455,5.97455,3.61018,2.33482,-6.79999,0.139954,-0.0228845,0.256424,1,0,3.92,0.2275,0.525,0.141154,-0.073566,-0.755424,-0.06118,0.12502,0.47586
-9.07394,0,0,24.0739,24.0739,5.92606,5.92606,3.62958,2.81026,-7.19052,0.468423,-0.0290432,0.0326339,0,0,3.5875,0.735,0.7175,0.479338,-0.080032,-0.977098,-0.06118,0.12502,0.47586
-9.12653,0,0,24.1265,24.1265,5.87347,5.87347,3.65061,3.27662,-7.57967,0.460295,-0.0287048,0.0321793,0,0,4.7775,0.2975,0.6125,0.479338,-0.080032,-0.977098,-0.06118,0.12502,0.47586
-9.2942,0,0,24.2942,24.2942,5.7058,5.7058,3.71768,2.94817,-7.28358,-0.293874,-0.0558518,0.043972,0,0,5.9325,0.0525,0.42,-0.283772,-0.108336,-0.96563,-0.06118,0.12502,0.47586
-9.45925,0,0,24.4593,24.4593,5.54075,5.54075,3.7837,2.62633,-6.98954,-0.288264,-0.0546854,0.0441692,0,0,6.16,0.385,-0.07,-0.283772,-0.108336,-0.96563,-0.06118,0.12502,0.47586
-9.31875,0,0,24.3187,24.3187,5.68125,5.68125,3.7275,2.63021,-6.99155,0.00627149,0.0638987,-0.0717101,0,0,6.895,0.2275,-0.4025,0.012078,0.011102,-1.08068,-0.06118,0.12502,0.47586
-9.17721,0,0,24.1772,24.1772,5.82279,5.82279,3.67088,2.63383,-6.99531,0.0062085,0.0629135,-0.0716493,0,0,6.1775,0.0525,-1.435,0.012078,0.011102,-1.08068,-0.06118,0.12502,0.47586
-9.13627,0,0,24.1363,24.1363,5.86373,5.86373,3.65451,2.34429,-6.74979,-0.240461,0.0294241,0.110675,0,0,5.4775,-0.07,-1.715,-0.240706,-0.022082,-0.899994,-0.06566,0.13146,0.47838
-9.13681,0,0,24.1368,24.1368,5.86319,5.86319,3.65473,2.34311,-6.7521,0.0339955,0.395075,-0.165098,1,0,3.605,-0.6825,-2.275,0.034892,0.343186,-1.17364,-0.06566,0.13146,0.47838
-9.13563,0,0,24.1356,24.1356,5.86437,5.86437,3.65425,2.34217,-6.75454,0.0340119,0.395067,-0.165097,1,0,3.22,-0.5425,-2.3625,0.034892,0.343186,-1.17364,-0.06566,0.13146,0.47838
-9.13916,0,0,24.1392,24.1392,5.86084,5.86084,3.65567,2.34093,-6.75656,-0.0592676,0.00880493,-0.110017,1,0,4.27,-0.7,-2.1,-0.058804,-0.0427,-1.11898,-0.06566,0.13146,0.47838
-9.14524,0,0,24.1452,24.1452,5.85476,5.85476,3.6581,2.34087,-6.75816,-0.0592664,0.00884724,-0.110019,1,0,4.83,0,-1.9075,-0.058804,-0.0427,-1.11898,-0.06566,0.13146,0.47838
-9.15634,0,0,24.1563,24.1563,5.84366,5.84366,3.66254,2.34035,-6.75874,0.275557,-0.21127,0.26042,1,0,5.9325,-0.2275,-1.295,0.277428,-0.262666,-0.751398,-0.06566,0.13146,0.47838
-9.16536,0,0,24.1654,24.1654,5.83464,5.83464,3.66614,2.34024,-6.75828,0.275559,-0.211207,0.260416,1,0,5.4425,0.0525,-0.7,0.277428,-0.262666,-0.751398,-0.06566,0.13146,0.47838
-9.21275,0,0,24.2128,24.2128,5.78725,5.78725,3.6851,2.16865,-6.59867,-0.153452,-0.0144899,0.0186725,0,0,4.0425,0.6125,-0.4725,-0.156404,-0.06649,-0.991372,-0.06482,0.12992,0.47964
-8.44612,0,0,23.4461,23.4461,6.55388,6.55388,3.37845,2.29314,-6.73943,0.111281,0.322977,0.0163357,0,0,3.395,0.665,-0.56,0.11163,0.275964,-0.993934,-0.06482,0.12992,0.47964
-7.68813,0,0,22.6881,22.6881,7.31187,7.31187,3.07525,2.41589,-6.8813,0.109141,0.317693,0.0165454,0,0,2.6425,0.9625,-0.7,0.11163,0.275964,-0.993934,-0.06482,0.12992,0.47964
-7.85974,0,0,22.8597,22.8597,7.14026,7.14026,3.1439,2.80332,-7.19768,0.322154,-0.0638739,0.142933,0,0,3.9725,1.19,-0.245,0.332328,-0.106384,-0.868152,-0.06482,0.12992,0.47964
-8.03431,0,0,23.0343,23.0343,6.96569,6.96569,3.21372,3.18264,-7.51334,0.315542,-0.0626779,0.14252,0,0,5.3025,0.5075,-0.8575,0.332328,-0.106384,-0.868152,-0.06482,0.12992,0.47964
-8.04306,0,0,23.0431,23.0431,6.95694,6.95694,3.21722,3.18274,-7.51386,-0.0411416,-0.555765,0.0538709,1,0,5.4075,0.14,-1.2775,-0.025864,-0.59902,-0.956114,-0.06482,0.12992,0.47964
-8.0553,0,0,23.0553,23.0553,6.9447,6.9447,3.22212,3.18249,-7.51448,-0.0411372,-0.55568,0.0538664,1,0,6.195,-0.07,-1.33,-0.025864,-0.59902,-0.956114,-0.06482,0.12992,0.47964
-7.61841,0,0,22.6184,22.6184,7.38159,7.38159,3.04736,3.18203,-7.54882,-0.00456198,0.181856,0.000181938,0,0,4.2,0,-1.505,0.010858,0.140788,-1.00955,-0.06482,0.12992,0.47964
-7.18571,0,0,22.1857,22.1857,7.81429,7.81429,2.87429,3.18074,-7.57667,-0.0045394,0.178844,0.000338982,0,0,3.43,0.2275,-1.5575,0.010858,0.140788,-1.00955,-0.06566,0.12558,0.4781
-6.9711,0,0,21.9711,21.9711,8.0289,8.0289,2.78844,2.9909,-7.42571,-0.180665,0.0927248,-0.042195,0,0,3.15,0.1225,-1.26,-0.169336,0.056242,-1.05201,-0.06566,0.12558,0.4781
-6.75984,0,0,21.7598,21.7598,8.24016,8.24016,2.70393,2.80451,-7.27442,-0.177416,0.0912613,-0.0419602,0,0,3.15,0.1225,-1.26,-0.169336,0.056242,-1.05201,-0.06566,0.12558,0.4781
-6.76688,0,0,21.7669,21.7669,8.23312,8.23312,2.70675,2.80448,-7.27365,0.0263156,-0.0714846,-0.325605,1,0,4.9875,0.105,-0.525,0.035258,-0.106384,-1.33346,-0.06566,0.12558,0.4781
-6.77391,0,0,21.7739,21.7739,8.22609,8.22609,2.70957,2.80446,-7.27287,0.026316,-0.0714355,-0.325607,1,0,4.9875,0.105,-0.525,0.035258,-0.106384,-1.33346,-0.06566,0.12558,0.4781
-6.78299,0,0,21.783,21.783,8.21701,8.21701,2.7132,2.80297,-7.27076,-0.4432,-0.291811,-0.028934,1,0,5.4075,-0.7175,0.2975,-0.436272,-0.326594,-1.03907,-0.06566,0.12558,0.4781
-6.79206,0,0,21.7921,21.7921,8.20794,8.20794,2.71683,2.80147,-7.26864,-0.443174,-0.291748,-0.0289357,1,0,5.4075,-0.7175,0.2975,-0.436272,-0.326594,-1.03907,-0.06566,0.12558,0.4781
-6.7886,0,0,21.7886,21.7886,8.2114,8.2114,2.71544,2.80033,-7.26567,0.0495918,-0.0890415,-0.268929,1,0,2.5725,-0.49,0.7875,0.05856,-0.124074,-1.27722,-0.06566,0.12558,0.4781
-6.78538,0,0,21.7854,21.7854,8.21462,8.21462,2.71415,2.79903,-7.26324,0.044512,0.377582,0.203687,1,0,2.6425,-0.595,0.4725,0.053436,0.342088,-0.80825,-0.06076,0.12894,0.47684
-6.78345,0,0,21.7834,21.7834,8.21655,8.21655,2.71338,2.7982,-7.26184,0.0445265,0.377569,0.203688,1,0,2.9575,-0.35,-0.14,0.053436,0.342088,-0.80825,-0.06076,0.12894,0.47684
-7.14673,0,0,22.1467,22.1467,7.85327,7.85327,2.85869,3.04786,-7.45665,0.222768,-0.144568,0.0789196,0,0,4.4275,0.0175,-0.5775,0.236802,-0.182024,-0.931714,-0.06076,0.12894,0.47684
-7.50433,0,0,22.5043,22.5043,7.49567,7.49567,3.00173,3.29294,-7.64986,0.218497,-0.142091,0.0785559,0,0,4.4275,0.0175,-0.5775,0.236802,-0.182024,-0.931714,-0.06076,0.12894,0.47684
-7.51592,0,0,22.5159,22.5159,7.48408,7.48408,3.00637,3.29303,-7.6523,-0.428659,-0.0517587,-0.0383725,1,0,6.1075,0.07,-2.3975,-0.413092,-0.091866,-1.04774,-0.06076,0.12894,0.47684
-7.52329,0,0,22.5233,22.5233,7.47671,7.47671,3.00932,3.29358,-7.65526,0.0454901,0.172517,-0.121735,1,0,5.18,0.3325,-2.7125,0.063074,0.132126,-1.13045,-0.06076,0.12894,0.47684
-7.52435,0,0,22.5243,22.5243,7.47565,7.47565,3.00974,3.29563,-7.65876,0.0454543,0.172524,-0.121737,1,0,3.78,1.19,-3.08,0.063074,0.132126,-1.13045,-0.06076,0.12894,0.47684
-7.52398,0,0,22.524,22.524,7.47602,7.47602,3.00959,3.29769,-7.66236,-0.137903,0.259965,-0.218991,1,0,3.465,1.19,-3.1325,-0.121024,0.219478,-1.22695,-0.06076,0.12894,0.47684
-7.51912,0,0,22.5191,22.5191,7.48088,7.48088,3.00765,3.29839,-7.66582,-0.137916,0.259931,-0.21899,1,0,2.45,0.4025,-3.01,-0.121024,0.219478,-1.22695,-0.06552,0.12166,0.4739
-7.51743,0,0,22.5174,22.5174,7.48257,7.48257,3.00697,3.29907,-7.66886,0.0582718,0.278482,-0.0871896,1,0,3.15,0.4025,-2.765,0.076006,0.238022,-1.09617,-0.06552,0.12166,0.4739
-7.51729,0,0,22.5173,22.5173,7.48271,7.48271,3.00692,3.29938,-7.66979,0.0582666,0.278481,-0.0871899,1,0,3.43,0.245,-1.5225,0.076006,0.238022,-1.09617,-0.06552,0.12166,0.4739
-7.40838,0,0,22.4084,22.4084,7.59162,7.59162,2.96335,3.09358,-7.49569,-0.183427,0.0503335,0.0378424,0,0,4.515,-0.4375,-1.2425,-0.170312,0.010858,-0.97234,-0.06552,0.12166,0.4739
-7.30044,0,0,22.3004,22.3004,7.69956,7.69956,2.92018,2.8912,-7.31986,-0.179899,0.0495914,0.0380651,0,0,4.34,-0.595,-0.245,-0.170312,0.010858,-0.97234,-0.06552,0.12166,0.4739
-7.24488,0,0,22.2449,22.2449,7.75512,7.75512,2.89795,2.91717,-7.33322,0.0166976,0.0263657,0.0936346,0,0,4.0775,0.0525,0.3325,0.027572,-0.011956,-0.917196,-0.06552,0.12166,0.4739
-7.18574,0,0,22.1857,22.1857,7.81426,7.81426,2.8743,2.9431,-7.34532,0.0162457,0.0259527,0.0936322,0,0,3.0275,0.35,1.0325,0.027572,-0.011956,-0.917196,-0.06552,0.12166,0.4739
-7.1825,0,0,22.1825,22.1825,7.8175,7.8175,2.873,2.9433,-7.34195,-0.00368148,-0.561622,-0.132223,1,0,2.6075,0.315,0.98,0.007564,-0.598898,-1.14131,-0.06552,0.12166,0.4739
-7.18388,0,0,22.1839,22.1839,7.81612,7.81612,2.87355,2.94353,-7.33852,-0.00368549,-0.561612,-0.132224,1,0,3.64,0.3325,1.015,0.007564,-0.598898,-1.14131,-0.0665,0.12586,0.4683
-7.70511,0,0,22.7051,22.7051,7.29489,7.29489,3.08204,2.81587,-7.18506,-0.122581,-0.235318,-0.0582859,0,0,4.27,0.8925,0.84,-0.11407,-0.276574,-1.06787,-0.0665,0.12586,0.4683
-8.22714,0,0,23.2271,23.2271,6.77286,6.77286,3.29085,2.68971,-7.03439,-0.120382,-0.231678,-0.0583827,0,0,6.4575,0.3325,0.105,-0.11407,-0.276574,-1.06787,-0.0665,0.12586,0.4683
-8.19758,0,0,23.1976,23.1976,6.80242,6.80242,3.27903,2.27024,-6.66714,-0.390298,0.0249673,0.0369846,0,0,5.9675,-0.0525,-0.42,-0.392474,-0.020008,-0.97356,-0.0665,0.12586,0.4683
-8.16424,0,0,23.1642,23.1642,6.83576,6.83576,3.2657,1.85776,-6.30217,-0.383104,0.0247499,0.0372568,0,0,5.285,-0.28,-1.5925,-0.392474,-0.020008,-0.97356,-0.0665,0.12586,0.4683
-8.16783,0,0,23.1678,23.1678,6.83217,6.83217,3.26713,1.85749,-6.30403,-0.00819403,0.266708,-0.178027,1,0,4.27,-0.1225,-2.0475,-0.015982,0.221674,-1.18718,-0.0665,0.12586,0.4683
-8.16642,0,0,23.1664,23.1664,6.83358,6.83358,3.26657,1.85788,-6.306,-0.00820092,0.266698,-0.178027,1,0,3.15,0.2625,-2.135,-0.015982,0.221674,-1.18718,-0.0665,0.12586,0.4683
-8.16757,0,0,23.1676,23.1676,6.83243,6.83243,3.26703,1.85742,-6.3082,-0.444327,0.132977,-0.0579065,1,0,3.7275,-0.245,-2.24,-0.453962,0.088084,-1.06799,-0.0665,0.12586,0.4683
-8.16023,0,0,23.1602,23.1602,6.83977,6.83977,3.26409,1.85638,-6.31022,-0.444308,0.132926,-0.057903,1,0,1.82,-0.5775,-2.1175,-0.453962,0.088084,-1.06799,-0.0665,0.12586,0.4683
-8.2051,0,0,23.2051,23.2051,6.7949,6.7949,3.28204,1.85871,-6.27834,0.0035688,-0.0180762,0.00035539,0,0,3.7975,-1.1025,-2.24,-0.004148,-0.063074,-1.01016,-0.0651,0.11564,0.47152
-8.21356,0,0,23.2136,23.2136,6.78644,6.78644,3.28542,1.85817,-6.27979,-0.00638374,0.225503,-0.100343,1,0,5.355,-0.2625,-1.8025,-0.014152,0.180194,-1.11008,-0.0651,0.11564,0.47152
-8.21842,0,0,23.2184,23.2184,6.78158,6.78158,3.28737,1.85913,-6.28052,-0.00640036,0.225537,-0.100345,1,0,4.5325,0.63,-1.435,-0.014152,0.180194,-1.11008,-0.0651,0.11564,0.47152
-8.22042,0,0,23.2204,23.2204,6.77958,6.77958,3.28817,1.86018,-6.28086,-0.253642,0.133956,-0.367022,1,0,3.885,0.7,-1.2075,-0.262422,0.088694,-1.3747,-0.0651,0.11564,0.47152
-8.21539,0,0,23.2154,23.2154,6.78461,6.78461,3.28615,1.86198,-6.28031,-0.253674,0.133921,-0.367021,1,0,2.2925,1.1725,-0.7175,-0.262422,0.088694,-1.3747,-0.0651,0.11564,0.47152
-8.1611,0,0,23.1611,23.1611,6.8389,6.8389,3.26444,1.58056,-6.00546,-0.279986,0.0232708,-0.0717754,0,0,2.9225,0.6475,-0.7525,-0.293776,-0.021472,-1.0819,-0.0651,0.11564,0.47152
-8.10763,0,0,23.1076,23.1076,6.89237,6.89237,3.24305,1.30389,-5.73071,-0.275159,0.0229051,-0.0716328,0,0,3.0275,0.4375,-0.6475,-0.293776,-0.021472,-1.0819,-0.0651,0.11564,0.47152
-8.62449,0,0,23.6245,23.6245,6.37551,6.37551,3.4498,1.33397,-5.68349,0.0247507,-0.238754,-0.0556263,0,0,3.8675,0.3325,-0.6475,0.00793,-0.286456,-1.06579,-0.0651,0.11564,0.47152
-9.13849,0,0,24.1385,24.1385,5.86151,5.86151,3.65539,1.36277,-5.64106,0.0242481,-0.235174,-0.0558604,0,0,5.0575,0.5075,-0.9625,0.00793,-0.286456,-1.06579,-0.06706,0.11886,0.47488
-8.89968,0,0,23.8997,23.8997,6.10032,6.10032,3.55987,1.10629,-5.39805,-0.224817,0.10317,0.0482322,0,0,3.815,0.5425,-1.5225,-0.246684,0.053192,-0.962702,-0.06706,0.11886,0.47488
-8.66685,0,0,23.6669,23.6669,6.33315,6.33315,3.46674,0.854211,-5.15496,-0.220418,0.101552,0.048407,0,0,4.3925,0.3675,-1.715,-0.246684,0.053192,-0.962702,-0.06706,0.11886,0.47488
-8.66534,0,0,23.6653,23.6653,6.33466,6.33466,3.46614,0.855429,-5.15558,-0.20088,0.0274106,0.152422,1,0,3.0975,0.7875,-1.3825,-0.227042,-0.020862,-0.85949,-0.06706,0.11886,0.47488
-8.66384,0,0,23.6638,23.6638,6.33616,6.33616,3.46553,0.856647,-5.15621,-0.200901,0.0274001,0.152422,1,0,3.0975,0.7875,-1.3825,-0.227042,-0.020862,-0.85949,-0.06706,0.11886,0.47488
-7.44638,0,0,22.4464,22.4464,7.55362,7.55362,2.97855,1.07105,-5.36888,0.211689,0.524516,0.124067,0,0,4.62,0.525,-0.42,0.191052,0.484218,-0.888038,-0.06706,0.11886,0.47488
-6.24557,0,0,21.2456,21.2456,8.75443,8.75443,2.49823,1.28232,-5.58457,0.208002,0.516141,0.124392,0,0,4.62,0.525,-0.42,0.191052,0.484218,-0.888038,-0.06706,0.11886,0.47488
-6.56713,0,0,21.5671,21.5671,8.43287,8.43287,2.62685,1.59355,-5.80213,0.299031,-0.143306,0.014854,0,0,4.2525,-0.595,0.035,0.28792,-0.176778,-0.996496,-0.06706,0.11886,0.47488
-6.88435,0,0,21.8843,21.8843,8.11565,8.11565,2.75374,1.89593,-6.02619,0.293756,-0.141102,0.0145895,0,0,4.2525,-0.595,0.035,0.28792,-0.176778,-0.996496,-0.06258,0.12348,0.4858
-6.88002,0,0,21.88,21.88,8.11998,8.11998,2.75201,1.89598,-6.02376,0.0493261,0.209371,-0.0899153,1,0,2.415,0.1925,0.4375,0.042456,0.173362,-1.1002,-0.06258,0.12348,0.4858
-6.8757,0,0,21.8757,21.8757,8.1243,8.1243,2.75028,1.89603,-6.02133,0.0493253,0.209341,-0.0899138,1,0,2.415,0.1925,0.4375,0.042456,0.173362,-1.1002,-0.06258,0.12348,0.4858
-6.71736,0,0,21.7174,21.7174,8.28264,8.28264,2.68695,1.67095,-5.81142,-0.193607,0.0648666,0.0893967,0,0,2.065,-0.35,0.2625,-0.205448,0.030134,-0.922442,-0.06258,0.12348,0.4858
-6.56129,0,0,21.5613,21.5613,8.43871,8.43871,2.62452,1.44994,-5.60133,-0.189751,0.0637835,0.089552,0,0,2.065,-0.35,0.2625,-0.205448,0.030134,-0.922442,-0.06258,0.12348,0.4858
-6.56386,0,0,21.5639,21.5639,8.43614,8.43614,2.62554,1.44858,-5.60137,0.039516,0.227329,-0.103231,1,0,4.0075,-0.7,-0.9625,0.024766,0.193492,-1.11374,-0.06258,0.12348,0.4858
-6.56643,0,0,21.5664,21.5664,8.43357,8.43357,2.62657,1.44722,-5.60141,0.0395397,0.227347,-0.103232,1,0,4.0075,-0.7,-0.9625,0.024766,0.193492,-1.11374,-0.06258,0.12348,0.4858
-6.26539,0,0,21.2654,21.2654,8.73461,8.73461,2.50616,1.34323,-5.50266,-0.0947099,0.129381,0.0167814,0,0,5.4425,0.56,-2.695,-0.111874,0.097722,-0.994788,-0.06258,0.12348,0.4858
-5.96922,0,0,20.9692,20.9692,9.03078,9.03078,2.38769,1.24121,-5.40653,-0.0929298,0.127317,0.0169097,0,0,5.4425,0.56,-2.695,-0.111874,0.097722,-0.994788,-0.06454,0.12614,0.48006
-5.76669,0,0,20.7667,20.7667,9.23331,9.23331,2.30668,1.23611,-5.38989,-0.00439915,0.0873127,-0.0695862,0,0,3.395,1.1725,-4.025,-0.023058,0.05917,-1.08068,-0.06454,0.12614,0.48006
-5.774,0,0,20.774,20.774,9.226,9.226,2.3096,1.64551,-5.73105,0.411835,-0.00851307,0.00682916,0,0,3.815,0.385,-4.025,0.402112,-0.0366,-1.00467,-0.06454,0.12614,0.48006
-5.78106,0,0,20.7811,20.7811,9.21894,9.21894,2.31243,2.04859,-6.06971,0.404804,-0.00847296,0.0066006,0,0,3.8675,0.875,-3.1325,0.402112,-0.0366,-1.00467,-0.06454,0.12614,0.48006
-6.0916,0,0,21.0916,21.0916,8.9084,8.9084,2.43664,2.44781,-6.39301,0.333576,-0.115745,0.173448,0,0,4.3225,0.035,-2.695,0.337574,-0.145912,-0.83875,-0.06454,0.12614,0.48006
-6.39767,0,0,21.3977,21.3977,8.60233,8.60233,2.55907,2.83911,-6.71276,0.326754,-0.113627,0.17304,0,0,4.3925,-0.49,-2.03,0.337574,-0.145912,-0.83875,-0.06454,0.12614,0.48006
-6.396,0,0,21.396,21.396,8.604,8.604,2.5584,2.83898,-6.71359,0.154246,0.101793,0.134189,1,0,3.08,0,-1.4525,0.164334,0.069296,-0.877302,-0.06454,0.12614,0.48006
