pid_x,pid_y,pid_z,front_left_speed,front_right_speed,back_left_speed,back_right_speed,orientation_x,orientation_y,orientation_z,acceleration_x,acceleration_y,acceleration_z,accel_rejected,mag_rejected,gyro_x,gyro_y,gyro_z,accel_x,accel_y,accel_z,mag_x,mag_y,mag_z
0.322185,0,0,14.6778,14.6778,15.3222,15.3222,-0.460265,-0.0958115,0.325454,0.0658606,0.391865,0.0901495,0,0,3.64,-0.035,-0.175,0.024156,0.411628,-0.923174,-0.04508,-0.1225,0.49462
0.639095,0,0,14.3609,14.3609,15.6391,15.6391,-0.912993,-0.187852,0.654858,0.067467,0.383964,0.0900508,0,0,3.57,-0.0175,-0.3325,0.024156,0.411628,-0.923174,-0.04508,-0.1225,0.49462
0.95119,0,0,14.0488,14.0488,15.9512,15.9512,-1.35884,-0.279395,0.990972,0.0662705,0.373986,0.0975128,0,0,3.8325,-0.07,-0.175,0.02135,0.409432,-0.91561,-0.04508,-0.1225,0.49462
1.25622,0,0,13.7438,13.7438,16.2562,16.2562,-1.7946,-0.37469,1.33967,0.061009,0.366994,0.0886877,0,0,3.675,-0.0875,-0.175,0.014396,0.410042,-0.92415,-0.04508,-0.1225,0.49462
1.55626,0,0,13.4437,13.4437,16.5563,16.5563,-2.22323,-0.46632,1.69255,0.0626082,0.359519,0.0884137,0,0,3.605,-0.14,-0.14,0.014396,0.410042,-0.92415,-0.04508,-0.1225,0.49462
1.85059,0,0,13.1494,13.1494,16.8506,16.8506,-2.6437,-0.549285,2.0452,0.0684296,0.355119,0.07936,0,0,3.57,0.0175,-0.21,0.018788,0.41297,-0.932812,-0.04508,-0.1225,0.49462
2.14064,0,0,12.8594,12.8594,17.1406,17.1406,-3.05805,-0.627091,2.40024,0.0710024,0.345332,0.0861174,0,0,3.2725,0.0525,-0.35,0.020008,0.410408,-0.925736,-0.0469,-0.12292,0.49448
2.42807,0,0,12.5719,12.5719,17.4281,17.4281,-3.46867,-0.702811,2.75823,0.0722024,0.337202,0.0967595,0,0,3.5875,-0.2275,-0.28,0.019886,0.409432,-0.914756,-0.0469,-0.12292,0.49448
2.70857,0,0,12.2914,12.2914,17.7086,17.7086,-3.86939,-0.776768,3.12287,0.0717923,0.333155,0.0836317,0,0,3.78,-0.175,-0.245,0.018178,0.41236,-0.927322,-0.0469,-0.12292,0.49448
2.9851,0,0,12.0149,12.0149,17.9851,17.9851,-4.26443,-0.841284,3.48454,0.0781421,0.324569,0.0891514,0,0,3.535,-0.035,-0.455,0.023424,0.410652,-0.921344,-0.0469,-0.12292,0.49448
3.25671,0,0,11.7433,11.7433,18.2567,18.2567,-4.65245,-0.902671,3.84989,0.0792133,0.31782,0.0886087,0,0,3.7275,-0.07,-0.385,0.023424,0.410652,-0.921344,-0.0469,-0.12292,0.49448
3.52153,0,0,11.4785,11.4785,18.5215,18.5215,-5.03076,-0.967741,4.22672,0.0731812,0.309045,0.0863118,0,0,3.85,-0.1225,-0.3325,0.016226,0.408456,-0.923052,-0.0469,-0.12292,0.49448
3.78302,0,0,11.217,11.217,18.783,18.783,-5.40431,-1.02785,4.60501,0.0765384,0.304509,0.0844713,0,0,3.6575,-0.175,-0.35,0.018544,0.410408,-0.924272,-0.04956,-0.12376,0.4956
4.03958,0,0,10.9604,10.9604,19.0396,19.0396,-5.77082,-1.08394,4.9864,0.0780031,0.299611,0.0786668,0,0,3.535,0.07,-0.35,0.019032,0.411872,-0.929396,-0.04956,-0.12376,0.4956
4.29338,0,0,10.7066,10.7066,19.2934,19.2934,-6.1334,-1.13662,5.36958,0.0798942,0.292343,0.0854928,0,0,3.535,-0.0525,-0.315,0.020008,0.410896,-0.921954,-0.04956,-0.12376,0.4956
4.54274,0,0,10.4573,10.4573,19.5427,19.5427,-6.48962,-1.18971,5.75951,0.0780265,0.288609,0.0792581,0,0,3.64,-0.07,-0.2275,0.017202,0.413336,-0.927444,-0.04956,-0.12376,0.4956
4.7876,0,0,10.2124,10.2124,19.7876,19.7876,-6.83943,-1.23922,6.15261,0.0788903,0.282548,0.0785315,0,0,3.8325,0.315,-0.245,0.017202,0.413336,-0.927444,-0.04956,-0.12376,0.4956
5.02967,0,0,9.97033,9.97033,20.0297,20.0297,-7.18525,-1.27822,6.54011,0.0871031,0.274363,0.0867552,0,0,3.64,0.21,-0.2975,0.024766,0.41114,-0.918538,-0.04956,-0.12376,0.4956
5.26766,0,0,9.73234,9.73234,20.2677,20.2677,-7.52522,-1.31465,6.93049,0.0877387,0.268481,0.0859815,0,0,3.5875,0.175,-0.42,0.024766,0.41114,-0.918538,-0.04956,-0.12376,0.4956
5.49767,0,0,9.50233,9.50233,20.4977,20.4977,-7.85381,-1.3555,7.33204,0.0801904,0.263412,0.0720424,0,0,3.6225,0.07,-0.28,0.01647,0.41175,-0.931592,-0.04928,-0.12348,0.49798
5.72249,0,0,9.27751,9.27751,20.7225,20.7225,-8.17499,-1.38614,7.72904,0.0870424,0.253468,0.0777647,0,0,3.6225,0.07,-0.4375,0.022814,0.407358,-0.925126,-0.04928,-0.12348,0.49798
5.9437,0,0,9.0563,9.0563,20.9437,20.9437,-8.491,-1.41474,8.12913,0.0875413,0.248015,0.0769536,0,0,3.4125,-0.175,-0.35,0.022814,0.407358,-0.925126,-0.04928,-0.12348,0.49798
6.16373,0,0,8.83627,8.83627,21.1637,21.1637,-8.80532,-1.44649,8.53675,0.0844507,0.249434,0.069599,0,0,3.64,-0.035,-0.245,0.019154,0.41419,-0.931592,-0.04928,-0.12348,0.49798
6.37979,0,0,8.62021,8.62021,21.3798,21.3798,-9.11398,-1.47579,8.94739,0.084962,0.244116,0.0687474,0,0,3.7625,-0.0525,-0.175,0.019154,0.41419,-0.931592,-0.04928,-0.12348,0.49798
6.59142,0,0,8.40858,8.40858,21.5914,21.5914,-9.41632,-1.50104,9.35976,0.0860099,0.236225,0.0715752,0,0,3.6225,0.1575,-0.1575,0.019764,0.411506,-0.927932,-0.04928,-0.12348,0.49798
6.79957,0,0,8.20043,8.20043,21.7996,21.7996,-9.71367,-1.52416,9.7747,0.0864132,0.231111,0.0707027,0,0,3.465,0.07,-0.2975,0.019764,0.411506,-0.927932,-0.04928,-0.12348,0.49798
7.00313,0,0,7.99687,7.99687,22.0031,22.0031,-10.0045,-1.54295,10.1902,0.0883204,0.223793,0.0724072,0,0,3.465,-0.0175,-0.385,0.02135,0.409188,-0.92537,-0.04928,-0.12348,0.49798
7.20338,0,0,7.79662,7.79662,22.2034,22.2034,-10.2905,-1.56231,10.6187,0.0886583,0.218882,0.0715188,0,0,3.4825,-0.1925,-0.3325,0.02135,0.409188,-0.92537,-0.04858,-0.13048,0.49546
7.40049,0,0,7.59951,7.59951,22.4005,22.4005,-10.5721,-1.58133,11.0522,0.0872893,0.216373,0.066809,0,0,3.5875,0,-0.245,0.019642,0.411506,-0.929152,-0.04858,-0.13048,0.49546
7.59578,0,0,7.40422,7.40422,22.5958,22.5958,-10.8511,-1.59876,11.4885,0.0868645,0.209637,0.0751172,0,0,3.535,0.2625,-0.2975,0.01891,0.409554,-0.920002,-0.04858,-0.13048,0.49546
7.78768,0,0,7.21232,7.21232,22.7877,22.7877,-11.1253,-1.6144,11.9273,0.0871374,0.204944,0.074198,0,0,3.5175,0.07,-0.4025,0.01891,0.409554,-0.920002,-0.04858,-0.13048,0.49546
7.976,0,0,7.024,7.024,22.976,22.976,-11.3943,-1.62617,12.3671,0.0895294,0.204372,0.0640548,0,0,3.6575,0.1925,-0.2975,0.021106,0.41358,-0.929152,-0.04858,-0.13048,0.49546
8.16122,0,0,6.83878,6.83878,23.1612,23.1612,-11.6589,-1.63629,12.8097,0.089706,0.19985,0.0631274,0,0,3.4825,-0.035,-0.2625,0.021106,0.41358,-0.929152,-0.04858,-0.13048,0.49546
8.34343,0,0,6.65657,6.65657,23.3434,23.3434,-11.9192,-1.64254,13.2527,0.0909084,0.190276,0.0751061,0,0,3.605,0.105,-0.2275,0.022204,0.408456,-0.916342,-0.04858,-0.13048,0.49546
8.52266,0,0,6.47734,6.47734,23.5227,23.5227,-12.1752,-1.64729,13.6981,0.0909913,0.185908,0.0741715,0,0,3.395,-0.105,-0.3325,0.022204,0.408456,-0.916342,-0.04858,-0.13048,0.49546
8.69902,0,0,6.30098,6.30098,23.699,23.699,-12.4272,-1.65165,14.1424,0.0894879,0.186132,0.0651182,0,0,3.5175,-0.1575,-0.2975,0.020618,0.41297,-0.924394,-0.04662,-0.1232,0.48902
8.87286,0,0,6.12714,6.12714,23.8729,23.8729,-12.6755,-1.6518,14.5865,0.0920417,0.182514,0.0641766,0,0,3.43,0.0175,-0.35,0.02318,0.41358,-0.924394,-0.04662,-0.1232,0.48902
9.04366,0,0,5.95634,5.95634,24.0437,24.0437,-12.9195,-1.65009,15.0331,0.0920119,0.178363,0.0632346,0,0,3.3775,0.0875,-0.245,0.02318,0.41358,-0.924394,-0.04662,-0.1232,0.48902
9.22335,0,0,5.77665,5.77665,24.2233,24.2233,-13.1762,-1.64097,15.4717,0.105581,0.191829,0.057433,0,0,3.7625,0.07,-0.2625,0.036966,0.431392,-0.929152,-0.04662,-0.1232,0.48902
9.39979,0,0,5.60021,5.60021,24.3998,24.3998,-13.4283,-1.63019,15.9128,0.105393,0.187549,0.0564264,0,0,3.78,0.105,-0.21,0.036966,0.431392,-0.929152,-0.04662,-0.1232,0.48902
9.60302,0,0,5.39698,5.39698,24.603,24.603,-13.7186,-1.65042,16.3825,0.0860649,0.208763,0.0827683,0,0,3.64,0,-0.245,0.017202,0.4575,-0.901824,-0.04662,-0.1232,0.48902
9.80281,0,0,5.19719,5.19719,24.8028,24.8028,-14.004,-1.66832,16.8548,0.0863772,0.20393,0.0815666,0,0,3.5,0.0525,-0.3325,0.017202,0.4575,-0.901824,-0.04662,-0.1232,0.48902
10.0517,0,0,5,5,25.0517,25.0517,-14.3596,-1.74895,17.3845,0.0459928,0.24983,0.115538,0,0,3.255,0,-0.2625,-0.024766,0.50935,-0.866566,-0.04662,-0.1232,0.48902
10.2676,0,0,5,5,25.2676,25.2676,-14.668,-1.69844,17.3938,0.0451116,0.244616,0.114216,0,1,3.395,-0.0525,-0.2975,-0.024766,0.50935,-0.866566,-0.04494,-0.1267,0.50806
10.5115,0,0,5,5,25.5115,25.5115,-15.0164,-1.30541,17.4031,0.408786,0.369125,0.0267685,0,1,3.395,0.14,-0.175,0.347334,0.639646,-0.951966,-0.04494,-0.1267,0.50806
10.5121,0,0,5,5,25.5121,25.5121,-15.0173,-1.30524,17.4027,0.408783,0.369109,0.0267643,1,1,3.0275,0.1575,-0.525,0.347334,0.639646,-0.951966,-0.04494,-0.1267,0.50806
10.7184,0,0,5,5,25.7184,25.7184,-15.312,-1.35,17.4093,-0.0349525,0.208927,0.155358,0,1,3.99,0.3325,-0.3675,-0.099064,0.484584,-0.823012,-0.04494,-0.1267,0.50806
10.9209,0,0,5,5,25.9209,25.9209,-15.6013,-1.39407,17.4158,-0.0341835,0.204068,0.153995,0,1,3.92,0.245,-0.49,-0.099064,0.484584,-0.823012,-0.04494,-0.1267,0.50806
10.8062,0,0,5,5,25.8062,25.8062,-15.4374,-1.44316,17.4116,-0.0519142,-0.121937,-0.175008,0,1,3.92,-0.49,-0.5425,-0.11773,0.15616,-1.15022,-0.04494,-0.1267,0.50806
10.805,0,0,5,5,25.805,25.805,-15.4358,-1.4435,17.4113,-0.0519083,-0.121909,-0.175,1,1,4.4975,-0.14,-0.56,-0.11773,0.15616,-1.15022,-0.04494,-0.1267,0.50806
10.7287,0,0,5,5,25.7287,25.7287,-15.3267,-1.37897,17.4079,0.0578821,-0.087473,-0.0515203,0,1,3.85,-0.035,-0.7525,-0.006344,0.188734,-1.02822,-0.04494,-0.1267,0.50806
10.6534,0,0,5,5,25.6534,25.6534,-15.2191,-1.31579,17.4045,0.0567797,-0.0856689,-0.0510008,0,1,4.2175,-0.0525,-0.8575,-0.006344,0.188734,-1.02822,-0.0504,-0.11704,0.50456
10.6242,0,0,5,5,25.6242,25.6242,-15.1775,-1.46373,17.4029,-0.120559,-0.050146,0.0530205,0,1,3.5525,-0.3325,-0.77,-0.187026,0.223504,-0.925126,-0.0504,-0.11704,0.50456
10.5959,0,0,5,5,25.5959,25.5959,-15.137,-1.6076,17.4007,-0.118049,-0.0494466,0.0531402,0,1,3.3775,0.4025,-0.8575,-0.187026,0.223504,-0.925126,-0.0504,-0.11704,0.50456
10.8471,0,0,5,5,25.8471,25.8471,-15.4959,-2.03498,17.4109,-0.426943,0.338314,0.116912,0,1,2.555,0.07,-0.98,-0.504714,0.616832,-0.859978,-0.0504,-0.11704,0.50456
10.8493,0,0,5,5,25.8493,25.8493,-15.499,-2.03319,17.4104,-0.426974,0.338262,0.116899,1,1,1.82,1.085,-0.315,-0.504714,0.616832,-0.859978,-0.0504,-0.11704,0.50456
10.6957,0,0,5,5,25.6957,25.6957,-15.2795,-2.04876,17.4026,-0.0109781,-0.196379,0.0240958,0,1,2.6075,0.5075,-0.1575,-0.08723,0.079056,-0.953064,-0.0504,-0.11704,0.50456
10.5448,0,0,5,5,25.5448,25.5448,-15.064,-2.0655,17.3956,-0.0106861,-0.192748,0.0250695,0,1,2.7825,-0.455,0.035,-0.08723,0.079056,-0.953064,-0.0504,-0.11704,0.50456
10.6457,0,0,5,5,25.6457,25.6457,-15.2082,-2.27545,17.4022,-0.162769,0.0806225,0.141695,0,1,3.0975,-1.1025,0.14,-0.243634,0.354532,-0.836554,-0.0504,-0.11704,0.50456
10.7413,0,0,5,5,25.7413,25.7413,-15.3447,-2.48077,17.4103,-0.159189,0.0783651,0.140924,0,1,5.88,-0.9625,0.8225,-0.243634,0.354532,-0.836554,-0.05096,-0.11018,0.51548
10.739,0,0,5,5,25.739,25.739,-15.3415,-2.48016,17.4135,-0.363903,0.099425,-0.14258,1,1,5.4425,-0.14,1.54,-0.449204,0.375516,-1.11789,-0.05096,-0.11018,0.51548
10.7376,0,0,5,5,25.7376,25.7376,-15.3395,-2.47937,17.4171,-0.363916,0.0994587,-0.14257,1,1,4.7775,-0.1225,1.855,-0.449204,0.375516,-1.11789,-0.05096,-0.11018,0.51548
10.4486,0,0,5,5,25.4486,25.4486,-14.9266,-2.05529,17.4048,0.402309,-0.391823,-0.0293854,0,1,5.2325,-0.3325,1.9775,0.327692,-0.122122,-1.00772,-0.05096,-0.11018,0.51548
10.1678,0,0,5,5,25.1678,25.1678,-14.5255,-1.63596,17.3951,0.394994,-0.385115,-0.0273786,0,1,2.6775,1.085,1.9075,0.327692,-0.122122,-1.00772,-0.05096,-0.11018,0.51548
10.1683,0,0,5,5,25.1683,25.1683,-14.5261,-1.63243,17.399,-0.217356,-0.196806,-0.119591,1,1,3.29,1.4175,2.45,-0.287188,0.066002,-1.09922,-0.05096,-0.11018,0.51548
10.1709,0,0,5,5,25.1709,25.1709,-14.5299,-1.6292,17.4016,-0.217412,-0.19687,-0.119606,1,1,1.4875,1.4525,1.61,-0.287188,0.066002,-1.09922,-0.05096,-0.11018,0.51548
10.1743,0,0,5,5,25.1743,25.1743,-14.5348,-1.62654,17.4037,-0.672908,0.155504,-0.0676188,1,1,0.84,1.19,1.2775,-0.744566,0.418094,-1.04761,-0.05096,-0.11018,0.51548
10.1751,0,0,5,5,25.1751,25.1751,-14.5358,-1.62793,17.4063,-0.672884,0.155487,-0.0676241,1,1,3.01,-1.1725,0.9625,-0.744566,0.418094,-1.04761,-0.04256,-0.10038,0.52388
10.1296,0,0,5,5,25.1296,25.1296,-14.4709,-1.54843,17.4066,0.0742022,-0.0446905,-0.0657047,0,1,4.0075,-1.295,0.6125,0.007076,0.217038,-1.04603,-0.04256,-0.10038,0.52388
10.0823,0,0,5,5,25.0823,25.0823,-14.4033,-1.47073,17.4064,0.0728466,-0.0435572,-0.0653761,0,1,6.195,-1.33,0.175,0.007076,0.217038,-1.04603,-0.04256,-0.10038,0.52388
10.0793,0,0,5,5,25.0793,25.0793,-14.399,-1.47245,17.4068,0.629524,-0.0411642,0.402092,1,1,5.9675,-1.05,-0.2975,0.56608,0.219356,-0.582184,-0.04256,-0.10038,0.52388
10.0772,0,0,5,5,25.0772,25.0772,-14.396,-1.47363,17.4054,0.629545,-0.0411136,0.402104,1,1,5.215,-0.4725,-1.26,0.56608,0.219356,-0.582184,-0.04256,-0.10038,0.52388
10.5128,0,0,5,5,25.5128,25.5128,-15.0182,-1.50422,17.4193,-0.0250941,0.557191,0.246141,0,1,4.445,-0.7525,-1.9075,-0.091866,0.827526,-0.734196,-0.04256,-0.10038,0.52388
10.9425,0,0,5,5,25.9425,25.9425,-15.6322,-1.53163,17.4309,-0.0246158,0.546863,0.243298,0,1,3.3425,1.05,-2.8875,-0.091866,0.827526,-0.734196,-0.04256,-0.10038,0.52388
10.9441,0,0,5,5,25.9441,25.9441,-15.6344,-1.53105,17.4247,-0.659024,0.567099,0.479103,1,1,2.24,1.295,-3.675,-0.72895,0.847778,-0.5002,-0.04256,-0.10038,0.52388
10.9461,0,0,5,5,25.9461,25.9461,-15.6373,-1.52968,17.418,-0.659048,0.567051,0.47909,1,1,1.855,1.82,-3.85,-0.72895,0.847778,-0.5002,-0.04256,-0.10038,0.52388
10.9481,0,0,5,5,25.9481,25.9481,-15.6401,-1.52949,17.4111,-0.177239,0.659697,-0.158043,1,1,1.855,1.19,-4.1475,-0.245098,0.940376,-1.1324,-0.04312,-0.10094,0.5285
10.9486,0,0,5,5,25.9486,25.9486,-15.6408,-1.52776,17.4052,0.411207,0.0396479,-0.886884,1,1,3.08,1.9075,-3.36,0.34587,0.320982,-1.85562,-0.04312,-0.10094,0.5285
10.9496,0,0,5,5,25.9496,25.9496,-15.6423,-1.52875,17.3987,0.411225,0.0396224,-0.886891,1,1,2.6075,0.4725,-4.1475,0.34587,0.320982,-1.85562,-0.04312,-0.10094,0.5285
10.9505,0,0,5,5,25.9505,25.9505,-15.6435,-1.5301,17.3938,-0.280977,-0.580557,0.349595,1,1,2.8175,0,-3.2375,-0.349286,-0.298534,-0.628666,-0.04312,-0.10094,0.5285
10.9487,0,0,5,5,25.9487,25.9487,-15.6409,-1.53192,17.39,-0.280945,-0.580513,0.349607,1,1,4.9525,-0.42,-2.7825,-0.349286,-0.298534,-0.628666,-0.04312,-0.10094,0.5285
10.9494,0,0,5,5,25.9494,25.9494,-15.642,-1.53387,17.3893,-0.145941,-0.0807887,0.648612,1,1,2.94,-0.9975,-0.9975,-0.213744,0.20069,-0.331962,-0.04312,-0.10094,0.5285
10.9501,0,0,5,5,25.9501,25.9501,-15.643,-1.53474,17.3891,-0.145926,-0.0808045,0.648607,1,1,3.0275,-0.4725,-0.525,-0.213744,0.20069,-0.331962,-0.04312,-0.10094,0.5285
10.9501,0,0,5,5,25.9501,25.9501,-15.643,-1.53487,17.3892,0.00520472,0.146594,0.240417,1,1,3.5175,-0.0875,-0.28,-0.061976,0.427854,-0.737002,-0.04312,-0.10094,0.5285
10.95,0,0,5,5,25.95,25.95,-15.6429,-1.53422,17.3904,0.00519343,0.146597,0.240418,1,1,3.675,0.175,0.455,-0.061976,0.427854,-0.737002,-0.0455,-0.09506,0.51996
10.9479,0,0,5,5,25.9479,25.9479,-15.6399,-1.53619,17.3921,0.328987,0.0169486,-0.265747,1,1,5.25,-1.3825,0.3325,0.263154,0.29829,-1.23928,-0.0455,-0.09506,0.51996
10.9452,0,0,5,5,25.9452,25.9452,-15.6359,-1.53285,17.396,0.328929,0.0170149,-0.265727,1,1,5.845,1.26,2.415,0.263154,0.29829,-1.23928,-0.0455,-0.09506,0.51996
10.9411,0,0,5,5,25.9411,25.9411,-15.6302,-1.53029,17.4011,-0.638506,0.2439,-0.935769,1,1,6.8425,0.6475,2.9225,-0.708332,0.524844,-1.90418,-0.0455,-0.09506,0.51996
10.9417,0,0,5,5,25.9417,25.9417,-15.631,-1.5294,17.4071,-0.638522,0.243888,-0.935772,1,1,3.2375,-0.455,3.22,-0.708332,0.524844,-1.90418,-0.0455,-0.09506,0.51996
10.9419,0,0,5,5,25.9419,25.9419,-15.6313,-1.52778,17.4125,0.357754,0.126273,0.331212,1,1,3.43,0.0525,2.9925,0.29219,0.407358,-0.646966,-0.0455,-0.09506,0.51996
10.9418,0,0,5,5,25.9418,25.9418,-15.6312,-1.52748,17.4183,0.357749,0.126275,0.331212,1,1,3.7275,-0.735,2.9575,0.29219,0.407358,-0.646966,-0.0455,-0.09506,0.51996
10.9426,0,0,5,5,25.9426,25.9426,-15.6323,-1.52635,17.4237,0.685497,0.242887,1.02415,1,1,2.9925,-0.2275,2.94,0.621346,0.523868,0.040626,-0.0455,-0.09506,0.51996
10.9434,0,0,5,5,25.9434,25.9434,-15.6335,-1.52287,17.4287,0.685437,0.242868,1.02414,1,1,3.01,1.1725,3.0275,0.621346,0.523868,0.040626,-0.0553,-0.0889,0.52822
11.3244,0,0,5,5,26.3244,26.3244,-16.1777,-1.00168,17.4449,0.428026,0.333946,0.430226,0,1,2.485,0.2275,2.3275,0.371978,0.62403,-0.546316,-0.0553,-0.0889,0.52822
11.7001,0,0,5,5,26.7001,26.7001,-16.7144,-0.490312,17.454,0.419101,0.324929,0.427686,0,1,2.17,-0.805,0.7875,0.371978,0.62403,-0.546316,-0.0553,-0.0889,0.52822
11.7,0,0,5,5,26.7,26.7,-16.7143,-0.490111,17.4541,-0.0278479,-0.405997,0.120561,1,1,3.64,0.105,-0.2625,-0.07686,-0.10614,-0.851072,-0.0553,-0.0889,0.52822
11.6985,0,0,5,5,26.6985,26.6985,-16.7122,-0.487808,17.4543,-0.0278881,-0.405962,0.120572,1,1,4.725,1.2425,0.2275,-0.07686,-0.10614,-0.851072,-0.0553,-0.0889,0.52822
11.6934,0,0,5,5,26.6934,26.6934,-16.7049,-0.489975,17.4558,-0.137916,0.463947,-0.685565,1,1,7.6825,-1.47,0.1575,-0.187392,0.762744,-1.65103,-0.0553,-0.0889,0.52822
11.6885,0,0,5,5,26.6885,26.6885,-16.6979,-0.491459,17.4559,-0.13789,0.464064,-0.68553,1,1,7.4725,-0.8575,-0.49,-0.187392,0.762744,-1.65103,-0.0553,-0.0889,0.52822
11.685,0,0,5,5,26.685,26.685,-16.6928,-0.494099,17.4545,0.287963,0.216965,-0.0399021,1,1,6.405,-1.2425,-1.5575,0.240218,0.515816,-1.0104,-0.0553,-0.0889,0.52822
11.6814,0,0,5,5,26.6814,26.6814,-16.6877,-0.496738,17.4531,0.288009,0.21705,-0.039877,1,1,6.405,-1.2425,-1.5575,0.240218,0.515816,-1.0104,-0.04424,-0.08834,0.53494
11.9678,0,0,5,5,26.9678,26.9678,-17.0968,0.0685259,17.4503,0.486613,0.260402,0.340699,0,1,1.2075,1.0325,-2.625,0.44957,0.565958,-0.63074,-0.04424,-0.08834,0.53494
12.2526,0,0,5,5,27.2526,27.2526,-17.5037,0.62631,17.4428,0.476878,0.253639,0.338531,0,1,-1.015,1.785,-2.8,0.44957,0.565958,-0.63074,-0.04424,-0.08834,0.53494
12.2567,0,0,5,5,27.2567,27.2567,-17.5096,0.625455,17.439,0.10539,0.180753,0.308747,1,1,0.28,0.1925,-2.59,0.076494,0.493246,-0.660264,-0.04424,-0.08834,0.53494
12.2554,0,0,5,5,27.2554,27.2554,-17.5077,0.623347,17.4361,0.105426,0.180784,0.308757,1,1,4.62,-0.665,-2.31,0.076494,0.493246,-0.660264,-0.04424,-0.08834,0.53494
12.3338,0,0,5,5,27.3338,27.3338,-17.6197,0.721715,17.4326,0.0973925,0.123237,-0.0197556,0,1,6.16,-1.19,-1.96,0.07015,0.437614,-0.985638,-0.04424,-0.08834,0.53494
12.3332,0,0,5,5,27.3332,27.3332,-17.6188,0.716696,17.4315,-0.217168,-0.244716,-0.270442,1,1,4.0775,-2.6075,-1.82,-0.24583,0.070028,-1.2344,-0.04424,-0.08834,0.53494
12.3328,0,0,5,5,27.3328,27.3328,-17.6183,0.7166,17.4297,-0.217166,-0.244707,-0.270439,1,1,3.8675,0.2625,-1.33,-0.24583,0.070028,-1.2344,-0.04424,-0.08834,0.53494
12.3329,0,0,5,5,27.3329,27.3329,-17.6184,0.717268,17.428,-0.18875,0.285932,-0.208105,1,1,3.5175,0.665,-1.12,-0.217282,0.600118,-1.17254,-0.04984,-0.09506,0.53368
12.3334,0,0,5,5,27.3334,27.3334,-17.6192,0.717884,17.4282,-0.188761,0.285919,-0.208109,1,1,3.115,0.315,-0.1225,-0.217282,0.600118,-1.17254,-0.04984,-0.09506,0.53368
12.332,0,0,5,5,27.332,27.332,-17.6172,0.718293,17.4283,0.131954,-0.0580789,0.175501,1,1,4.69,0.21,-0.1925,0.104798,0.256444,-0.791902,-0.04984,-0.09506,0.53368
12.3287,0,0,5,5,27.3287,27.3287,-17.6124,0.718078,17.4291,0.131958,-0.058,0.175526,1,1,6.2125,-0.2625,0.0875,0.104798,0.256444,-0.791902,-0.04984,-0.09506,0.53368
12.3263,0,0,5,5,27.3263,27.3263,-17.6091,0.71859,17.43,-0.204931,0.0446425,0.171609,1,1,5.4425,0.1225,0.28,-0.233508,0.358924,-0.795806,-0.04984,-0.09506,0.53368
12.3256,0,0,5,5,27.3256,27.3256,-17.608,0.720624,17.4315,-0.204966,0.0446599,0.171614,1,1,4.13,0.8575,0.91,-0.233508,0.358924,-0.795806,-0.04984,-0.09506,0.53368
12.3266,0,0,5,5,27.3266,27.3266,-17.6094,0.721951,17.4336,0.364657,0.491133,0.186115,1,1,2.7825,0.3675,1.085,0.33855,0.804956,-0.78141,-0.04984,-0.09506,0.53368
12.2838,0,0,5,5,27.2838,27.2838,-17.5483,0.236014,17.4374,-0.456852,-0.0757626,0.0384741,0,1,1.6625,-0.9625,1.4,-0.494954,0.237656,-0.928298,-0.04984,-0.09506,0.53368
12.2399,0,0,5,5,27.2399,27.2399,-17.4856,-0.243167,17.4405,-0.448489,-0.0747177,0.0388033,0,1,3.255,-1.89,0.9975,-0.494954,0.237656,-0.928298,-0.0462,-0.08764,0.5327
12.1983,0,0,5,5,27.1983,27.1983,-17.4261,-0.155874,17.4432,0.0813656,-0.0458838,-0.030223,0,1,4.585,-1.3475,1.015,0.038674,0.265472,-0.997106,-0.0462,-0.08764,0.5327
12.1566,0,0,5,5,27.1566,27.1566,-17.3666,-0.068098,17.4443,0.0798337,-0.0448944,-0.0299099,0,1,5.1975,0.1575,0.455,0.038674,0.265472,-0.997106,-0.0462,-0.08764,0.5327
12.2841,0,0,5,5,27.2841,27.2841,-17.5486,0.0797677,17.4449,0.12524,0.130624,0.112741,0,1,5.04,0.8925,0.35,0.086864,0.443836,-0.85461,-0.0462,-0.08764,0.5327
12.4102,0,0,5,5,27.4102,27.4102,-17.7288,0.224989,17.4447,0.122705,0.127629,0.111781,0,1,4.1475,1.0325,0.1925,0.086864,0.443836,-0.85461,-0.0462,-0.08764,0.5327
12.4104,0,0,5,5,27.4104,27.4104,-17.7291,0.227036,17.4454,-0.1169,0.455535,0.0491989,1,1,3.4125,1.015,0.4375,-0.15372,0.771406,-0.916708,-0.0462,-0.08764,0.5327
12.4096,0,0,5,5,27.4096,27.4096,-17.728,0.23059,17.4448,-0.116962,0.455553,0.0492044,1,1,4.165,2.0825,0,-0.15372,0.771406,-0.916708,-0.0462,-0.08764,0.5327
12.2355,0,0,5,5,27.2355,27.2355,-17.4792,0.193026,17.4446,-0.0352758,-0.221532,-0.0102167,0,1,5.215,1.645,-0.455,-0.072346,0.09089,-0.976976,-0.0462,-0.08764,0.5327
12.0704,0,0,5,5,27.0704,27.0704,-17.2434,0.15364,17.4448,-0.0345884,-0.217603,-0.00898631,0,1,0.6125,0.14,-0.6125,-0.072346,0.09089,-0.976976,-0.0539,-0.08092,0.53326
12.0686,0,0,5,5,27.0686,27.0686,-17.2408,0.152551,17.4446,0.116073,-0.128774,0.1125,1,1,5.005,-0.5775,-0.6125,0.078934,0.179584,-0.85644,-0.0539,-0.08092,0.53326
12.0664,0,0,5,5,27.0664,27.0664,-17.2377,0.150166,17.4444,0.116115,-0.128723,0.112516,1,1,5.285,-1.3125,-0.805,0.078934,0.179584,-0.85644,-0.0539,-0.08092,0.53326
12.0687,0,0,5,5,27.0687,27.0687,-17.2411,0.146842,17.4445,0.0358705,0.160173,0.256103,1,1,1.68,-1.8725,-0.8575,-0.001708,0.468236,-0.713944,-0.0539,-0.08092,0.53326
12.0707,0,0,5,5,27.0707,27.0707,-17.2438,0.145714,17.4424,0.0358902,0.160127,0.256089,1,1,2.0125,-0.28,-1.645,-0.001708,0.468236,-0.713944,-0.0539,-0.08092,0.53326
12.0729,0,0,5,5,27.0729,27.0729,-17.2471,0.144979,17.4401,0.0332303,0.321158,0.0161994,1,1,1.75,0,-1.7675,-0.004392,0.629154,-0.951966,-0.0539,-0.08092,0.53326
12.0757,0,0,5,5,27.0757,27.0757,-17.251,0.145241,17.438,0.0332257,0.321092,0.0161787,1,1,1.33,0.5075,-1.435,-0.004392,0.629154,-0.951966,-0.0539,-0.08092,0.53326
12.1301,0,0,5,5,27.1301,27.1301,-17.3286,0.221397,17.4359,0.0639688,0.047091,0.0744186,0,1,3.99,0.98,-1.1375,0.027816,0.356728,-0.893772,-0.0539,-0.08092,0.53326
12.1883,0,0,5,5,27.1883,27.1883,-17.4119,0.297406,17.4339,0.0626422,0.0457065,0.0739792,0,1,0,1.68,-0.7875,0.027816,0.356728,-0.893772,-0.0518,-0.07658,0.54264
12.2929,0,0,5,5,27.2929,27.2929,-17.5613,0.319871,17.4319,0.0221598,0.162049,-0.0233211,0,1,4.2875,0.315,-0.91,-0.012444,0.475434,-0.989542,-0.0518,-0.07658,0.54264
12.3957,0,0,5,5,27.3957,27.3957,-17.7081,0.341597,17.431,0.0217807,0.159608,-0.0240993,0,1,4.1825,-0.0525,-0.35,-0.012444,0.475434,-0.989542,-0.0518,-0.07658,0.54264
12.3155,0,0,5,5,27.3155,27.3155,-17.5935,0.260725,17.4323,-0.0680436,-0.115717,0.0465946,0,1,3.535,-0.2625,0,-0.104066,0.198494,-0.920002,-0.0518,-0.07658,0.54264
12.2372,0,0,5,5,27.2372,27.2372,-17.4817,0.181287,17.4331,-0.0666572,-0.113858,0.0471878,0,1,3.22,-0.28,-0.14,-0.104066,0.198494,-0.920002,-0.0518,-0.07658,0.54264
12.2393,0,0,5,5,27.2393,27.2393,-17.4847,0.180715,17.4337,0.0739117,0.0239739,0.275733,1,1,1.89,-0.42,-0.105,0.037088,0.336232,-0.693204,-0.0518,-0.07658,0.54264
12.2405,0,0,5,5,27.2405,27.2405,-17.4865,0.180551,17.4347,0.0739146,0.0239441,0.275724,1,1,2.555,-0.28,0.245,0.037088,0.336232,-0.693204,-0.0518,-0.07658,0.54264
12.5083,0,0,5,5,27.5083,27.5083,-17.869,0.273578,17.434,0.0861404,0.318261,0.156398,0,1,2.59,-0.5425,0.0175,0.050996,0.636596,-0.809592,-0.0518,-0.07658,0.54264
12.7716,0,0,5,5,27.7716,27.7716,-18.2452,0.366617,17.4323,0.0845165,0.312022,0.154354,0,1,2.3275,0.49,0.035,0.050996,0.636596,-0.809592,-0.0518,-0.07658,0.54264
12.7723,0,0,5,5,27.7723,27.7723,-18.2461,0.367858,17.4327,0.0651787,0.248379,-0.108023,1,1,3.0625,0.6125,0.14,0.031598,0.573034,-1.06994,-0.04886,-0.07546,0.54894
12.7738,0,0,5,5,27.7738,27.7738,-18.2483,0.369427,17.4341,0.0651513,0.248342,-0.108035,1,1,2.2925,0.6125,0.7525,0.031598,0.573034,-1.06994,-0.04886,-0.07546,0.54894
12.9884,0,0,5,5,27.9884,27.9884,-18.5549,0.557971,17.4332,0.160993,0.218482,0.180163,0,1,3.08,0.42,0.7875,0.13115,0.548268,-0.782264,-0.04886,-0.07546,0.54894
13.1992,0,0,5,5,28.1992,28.1992,-18.856,0.74173,17.4318,0.157786,0.213515,0.178443,0,1,3.01,-0.4375,0.8225,0.13115,0.548268,-0.782264,-0.04886,-0.07546,0.54894
13.1992,0,0,5,5,28.1992,28.1992,-18.856,0.741133,17.4334,0.11637,-0.00423648,-0.101019,1,1,3.5525,-0.63,0.4375,0.089548,0.330742,-1.05957,-0.04886,-0.07546,0.54894
13.1992,0,0,5,5,28.1992,28.1992,-18.856,0.740535,17.4349,0.11638,-0.00423641,-0.101019,1,1,3.5525,-0.63,0.4375,0.089548,0.330742,-1.05957,-0.04886,-0.07546,0.54894
13.1519,0,0,5,5,28.1519,28.1519,-18.7885,0.690528,17.4368,-0.04408,-0.0632105,-0.000793861,0,1,3.6925,-0.7,0.0875,-0.072468,0.270718,-0.960506,-0.04886,-0.07546,0.54894
13.1056,0,0,5,5,28.1056,28.1056,-18.7222,0.641466,17.4386,-0.0432238,-0.0621186,-0.0004126,0,1,3.6925,-0.7,0.0875,-0.072468,0.270718,-0.960506,-0.04886,-0.07546,0.54894
13.1079,0,0,5,5,28.1079,28.1079,-18.7256,0.641705,17.4385,-0.473652,0.111001,-0.0138332,1,1,1.645,0.1575,-0.35,-0.504714,0.443714,-0.973804,-0.04508,-0.06874,0.55062
13.1094,0,0,5,5,28.1094,28.1094,-18.7277,0.644119,17.437,0.406591,-0.0501189,0.223691,1,1,2.3975,1.61,-0.665,0.379298,0.282796,-0.7381,-0.04508,-0.06874,0.55062
13.1097,0,0,5,5,28.1097,28.1097,-18.7282,0.6466,17.4357,-0.159454,0.00238806,-0.30622,1,1,3.3075,1.61,-0.5425,-0.1891,0.335256,-1.26392,-0.04508,-0.06874,0.55062
13.1092,0,0,5,5,28.1092,28.1092,-18.7274,0.646708,17.4358,-0.159456,0.00240127,-0.306215,1,1,4.0075,0.0525,-0.28,-0.1891,0.335256,-1.26392,-0.04508,-0.06874,0.55062
13.1086,0,0,5,5,28.1086,28.1086,-18.7265,0.646449,17.4362,-0.0497495,-0.339539,0.140215,1,1,4.0425,-0.2275,-0.1225,-0.078934,-0.006344,-0.820938,-0.04508,-0.06874,0.55062
13.1083,0,0,5,5,28.1083,28.1083,-18.7261,0.645177,17.4362,-0.0497273,-0.339532,0.140218,1,1,3.7975,-0.7175,-0.525,-0.078934,-0.006344,-0.820938,-0.04508,-0.06874,0.55062
13.1093,0,0,5,5,28.1093,28.1093,-18.7276,0.642401,17.436,-0.0829659,0.312599,0.0391464,1,1,2.7125,-1.505,-0.945,-0.112362,0.645136,-0.921222,-0.04508,-0.06874,0.55062
13.1111,0,0,5,5,28.1111,28.1111,-18.7301,0.641869,17.4349,-0.0829566,0.312558,0.0391326,1,1,2.17,-0.0875,-1.0325,-0.112362,0.645136,-0.921222,-0.04508,-0.06874,0.55062
13.1118,0,0,5,5,28.1118,28.1118,-18.7311,0.642082,17.4337,0.163413,-0.145434,-0.18673,1,1,2.9925,0.35,-0.9625,0.135054,0.187636,-1.14534,-0.04914,-0.05712,0.57106
13.1138,0,0,5,5,28.1138,28.1138,-18.7339,0.64155,17.4327,-0.188279,-0.0166368,-0.163139,1,1,1.995,-0.1225,-0.9275,-0.218136,0.316346,-1.12191,-0.04914,-0.05712,0.57106
13.1152,0,0,5,5,28.1152,28.1152,-18.736,0.641227,17.4319,-0.188274,-0.0166702,-0.16315,1,1,2.4325,-0.035,-0.805,-0.218136,0.316346,-1.12191,-0.04914,-0.05712,0.57106
13.1157,0,0,5,5,28.1157,28.1157,-18.7367,0.641502,17.4315,-0.0561019,-0.0387873,0.156389,1,1,3.15,0.2275,-0.49,-0.0854,0.294264,-0.804834,-0.04914,-0.05712,0.57106
13.1164,0,0,5,5,28.1164,28.1164,-18.7377,0.641899,17.431,-0.0561088,-0.0388041,0.156383,1,1,2.9925,0.315,-0.525,-0.0854,0.294264,-0.804834,-0.04914,-0.05712,0.57106
13.1182,0,0,5,5,28.1182,28.1182,-18.7402,0.64204,17.4303,0.0284427,0.033087,0.133869,1,1,2.1525,0.21,-0.6825,-0.000488,0.366122,-0.82716,-0.04914,-0.05712,0.57106
13.1194,0,0,5,5,28.1194,28.1194,-18.742,0.641286,17.4301,0.0284559,0.0330583,0.13386,1,1,2.59,-0.385,-0.56,-0.000488,0.366122,-0.82716,-0.04914,-0.05712,0.57106
13.1204,0,0,5,5,28.1204,28.1204,-18.7434,0.640139,17.4304,0.480767,0.200836,0.0922949,1,1,2.73,-0.7,-0.35,0.453718,0.53375,-0.868396,-0.05558,-0.04326,0.57596
13.1203,0,0,5,5,28.1203,28.1203,-18.7434,0.638197,17.4306,0.480801,0.200837,0.0922957,1,1,3.605,-1.12,-0.56,0.453718,0.53375,-0.868396,-0.05558,-0.04326,0.57596
13.1211,0,0,5,5,28.1211,28.1211,-18.7444,0.637101,17.4302,0.0229406,0.146108,-0.230941,1,1,2.9925,-0.525,-0.77,-0.0061,0.479094,-1.18913,-0.05558,-0.04326,0.57596
13.1224,0,0,5,5,28.1224,28.1224,-18.7463,0.637827,17.4293,0.0229279,0.146076,-0.230952,1,1,2.5025,0.56,-0.6475,-0.0061,0.479094,-1.18913,-0.05558,-0.04326,0.57596
13.1615,0,0,5,5,28.1615,28.1615,-18.8021,0.39645,17.4285,-0.206233,0.0120235,0.106264,0,1,2.4325,0.5075,-0.315,-0.240462,0.346114,-0.854244,-0.05558,-0.04326,0.57596
13.2007,0,0,5,5,28.2007,28.2007,-18.8582,0.159001,17.4287,-0.202089,0.0110904,0.105967,0,1,1.6975,0.0875,-0.035,-0.240462,0.346114,-0.854244,-0.05558,-0.04326,0.57596
13.4232,0,0,5,5,28.4232,28.4232,-19.1761,0.470729,17.4273,0.270516,0.214081,0.21835,0,1,1.7675,-0.21,-0.175,0.239608,0.554124,-0.740906,-0.05558,-0.04326,0.57596
13.4063,0,0,5,5,28.4063,28.4063,-19.1518,0.285149,17.4276,-0.158005,-0.0517627,0.0805608,0,1,2.24,0.5775,-0.0175,-0.19398,0.288164,-0.87779,-0.05558,-0.04326,0.57596
13.3887,0,0,5,5,28.3887,28.3887,-19.1266,0.102164,17.4285,-0.154811,-0.0513511,0.0807151,0,1,3.0275,-0.035,0.175,-0.19398,0.288164,-0.87779,-0.04942,-0.04256,0.57638
13.4572,0,0,5,5,28.4572,28.4572,-19.2246,-0.0583886,17.4295,-0.160149,0.115935,-0.0393514,0,1,2.66,-0.63,0.1225,-0.202154,0.45689,-0.996374,-0.04942,-0.04256,0.57638
13.5249,0,0,5,5,28.5249,28.5249,-19.3213,-0.216979,17.4308,-0.157381,0.114345,-0.0399145,0,1,2.38,-1.19,-0.105,-0.202154,0.45689,-0.996374,-0.04942,-0.04256,0.57638
13.5272,0,0,5,5,28.5272,28.5272,-19.3245,-0.218869,17.4317,0.162403,0.15325,0.253422,1,1,1.7325,-1.225,-0.175,0.11895,0.495808,-0.705282,-0.04942,-0.04256,0.57638
13.5294,0,0,5,5,28.5294,28.5294,-19.3278,-0.218347,17.4321,0.162394,0.153196,0.253403,1,1,1.7325,0.1925,0.0525,0.11895,0.495808,-0.705282,-0.04942,-0.04256,0.57638
13.4554,0,0,5,5,28.4554,28.4554,-19.222,-0.0914101,17.4321,0.106238,-0.115452,0.0537348,0,1,2.4325,0.875,0.1225,0.064782,0.2257,-0.90402,-0.04942,-0.04256,0.57638
13.3836,0,0,5,5,28.3836,28.3836,-19.1194,0.032443,17.4328,0.104077,-0.11376,0.0543242,0,1,1.8025,0.3675,0.315,0.064782,0.2257,-0.90402,-0.04942,-0.04256,0.57638
13.3629,0,0,5,5,28.3629,28.3629,-19.0899,-0.110302,17.4337,-0.133973,-0.0268076,-0.0163273,0,1,1.7325,0.14,0.315,-0.176778,0.312076,-0.974292,-0.04942,-0.04256,0.57638
13.3427,0,0,5,5,28.3427,28.3427,-19.061,-0.251793,17.4346,-0.131504,-0.0263286,-0.0161699,0,1,1.6975,-0.665,0.0875,-0.176778,0.312076,-0.974292,-0.04522,-0.05138,0.57526
13.5678,0,0,5,5,28.5678,28.5678,-19.3825,-0.233901,17.4366,0.0176111,0.280528,0.114276,0,1,2.0125,-0.4375,-0.105,-0.026718,0.623908,-0.84302,-0.04522,-0.05138,0.57526
13.7889,0,0,5,5,28.7889,28.7889,-19.6985,-0.216919,17.4378,0.0173147,0.275331,0.112433,0,1,1.9075,-0.6475,-0.56,-0.026718,0.623908,-0.84302,-0.04522,-0.05138,0.57526
13.7911,0,0,5,5,28.7911,28.7911,-19.7016,-0.217952,17.4375,0.236614,0.0427499,0.293641,1,1,1.8025,-0.525,-0.6475,0.193492,0.39162,-0.663192,-0.04522,-0.05138,0.57526
13.7935,0,0,5,5,28.7935,28.7935,-19.7051,-0.219005,17.4368,0.236633,0.0426933,0.29362,1,1,1.6275,-0.4375,-0.9275,0.193492,0.39162,-0.663192,-0.04522,-0.05138,0.57526
13.9898,0,0,5,5,28.9898,28.9898,-19.9854,0.105756,17.436,0.277858,0.17084,0.22213,0,1,1.68,-0.3325,-1.085,0.240584,0.524234,-0.732488,-0.04522,-0.05138,0.57526
14.1828,0,0,5,5,29.1828,29.1828,-20.2612,0.425708,17.4328,0.272274,0.166331,0.22045,0,1,1.575,0.28,-1.3825,0.240584,0.524234,-0.732488,-0.04522,-0.05138,0.57526
14.1827,0,0,5,5,29.1827,29.1827,-20.261,0.262749,17.4308,-0.155792,0.00585333,-0.0246925,0,1,1.9075,0.5075,-1.3825,-0.19215,0.363926,-0.975756,-0.04522,-0.05138,0.57526
14.1829,0,0,5,5,29.1829,29.1829,-20.2612,0.102708,17.4288,-0.152998,0.00584618,-0.0246856,0,1,1.6625,0.455,-1.435,-0.19215,0.363926,-0.975756,-0.04522,-0.05138,0.57526
14.3346,0,0,5,5,29.3346,29.3346,-20.4779,0.371606,17.426,0.263378,0.197343,0.0680351,0,1,1.4175,0.5425,-1.26,0.230702,0.55876,-0.882426,-0.0525,-0.05614,0.56028
14.3363,0,0,5,5,29.3363,29.3363,-20.4804,0.371224,17.4243,0.344658,-0.0482933,-0.122673,1,1,2.205,0.14,-1.33,0.31232,0.313418,-1.07165,-0.0525,-0.05614,0.56028
14.3384,0,0,5,5,29.3384,29.3384,-20.4835,0.371381,17.4233,0.652986,0.10688,-0.0963806,1,1,1.8375,0.28,-0.805,0.621956,0.46848,-1.04554,-0.0525,-0.05614,0.56028
14.3413,0,0,5,5,29.3413,29.3413,-20.4876,0.37093,17.4225,0.686524,-0.0412063,-0.135012,1,1,1.225,-0.0875,-0.84,0.655628,0.320616,-1.08385,-0.0525,-0.05614,0.56028
14.3438,0,0,5,5,29.3438,29.3438,-20.4912,0.370412,17.4222,0.686533,-0.0412642,-0.135033,1,1,1.575,-0.2275,-0.5775,0.655628,0.320616,-1.08385,-0.0525,-0.05614,0.56028
14.4058,0,0,5,5,29.4058,29.4058,-20.5797,0.522125,17.422,0.132948,0.0457161,0.0892781,0,1,1.5225,-0.63,-0.2625,0.102358,0.408944,-0.86071,-0.0525,-0.05614,0.56028
14.4668,0,0,5,5,29.4668,29.4668,-20.6668,0.672364,17.4222,0.130326,0.0443022,0.0887168,0,1,1.365,-0.0175,0.3325,0.102358,0.408944,-0.86071,-0.0525,-0.05614,0.56028
14.2931,0,0,5,5,29.2931,29.2931,-20.4187,1.13621,17.4273,0.46883,-0.258259,-0.0395942,0,1,1.47,0.5075,0.595,0.450424,0.102602,-0.98942,-0.0525,-0.05614,0.56028
14.1224,0,0,5,5,29.1224,29.1224,-20.1748,1.59396,17.435,0.460843,-0.254202,-0.0382965,0,1,1.3475,1.225,1.295,0.450424,0.102602,-0.98942,-0.04844,-0.06104,0.56224
14.4604,0,0,5,5,29.4604,29.4604,-20.6577,1.18349,17.4257,-0.368181,0.314158,0.35851,0,1,0.7,0.805,1.365,-0.389302,0.67832,-0.59292,-0.04844,-0.06104,0.56224
14.7935,0,0,5,5,29.7935,29.7935,-21.1335,0.777327,17.4205,-0.361093,0.306358,0.355662,0,1,0.4725,-0.35,1.3125,-0.389302,0.67832,-0.59292,-0.04844,-0.06104,0.56224
14.797,0,0,5,5,29.797,29.797,-21.1386,0.777257,17.4233,0.440349,-0.025177,-0.338292,1,1,0.6825,-0.63,1.19,0.415532,0.347212,-1.28149,-0.04844,-0.06104,0.56224
14.7999,0,0,5,5,29.7999,29.7999,-21.1428,0.776716,17.4255,0.440359,-0.0252448,-0.338318,1,1,1.2075,-0.77,0.7875,0.415532,0.347212,-1.28149,-0.04844,-0.06104,0.56224
14.8023,0,0,5,5,29.8023,29.8023,-21.1461,0.775807,17.4274,0.0500409,-0.109445,0.165258,1,1,1.6625,-0.8925,0.5075,0.023546,0.263154,-0.781776,-0.04844,-0.06104,0.56224
14.8048,0,0,5,5,29.8048,29.8048,-21.1497,0.77487,17.4281,0.0500573,-0.109504,0.165236,1,1,1.5225,-0.665,-0.1225,0.023546,0.263154,-0.781776,-0.04844,-0.06104,0.56224
14.7901,0,0,5,5,29.7901,29.7901,-21.1287,0.500363,17.4283,-0.263809,-0.0202724,-0.016054,0,1,1.05,-0.525,-0.5425,-0.29646,0.35197,-0.961848,-0.04844,-0.06104,0.56224
14.7763,0,0,5,5,29.7763,29.7763,-21.109,0.231518,17.4271,-0.259117,-0.0199627,-0.0159023,0,1,0.5075,0.1225,-1.12,-0.29646,0.35197,-0.961848,-0.04858,-0.06622,0.55496
14.7804,0,0,5,5,29.7804,29.7804,-21.1149,0.231445,17.4249,-0.0902504,-0.205935,-0.298721,1,1,0.28,0.42,-1.5225,-0.12688,0.166286,-1.24245,-0.04858,-0.06622,0.55496
14.7843,0,0,5,5,29.7843,29.7843,-21.1205,0.231793,17.4222,-0.0902565,-0.206026,-0.298756,1,1,0.42,0.7525,-1.6975,-0.12688,0.166286,-1.24245,-0.04858,-0.06622,0.55496
14.788,0,0,5,5,29.788,29.788,-21.1257,0.23169,17.4196,-0.316218,-0.0497894,-0.2442,1,1,0.63,0.49,-1.75,-0.3538,0.322446,-1.18828,-0.04858,-0.06622,0.55496
14.7915,0,0,5,5,29.7915,29.7915,-21.1307,0.231212,17.4173,-0.31621,-0.0498701,-0.244231,1,1,0.7875,0.2275,-1.68,-0.3538,0.322446,-1.18828,-0.04858,-0.06622,0.55496
14.795,0,0,5,5,29.795,29.795,-21.1357,0.230215,17.4152,0.0740197,0.261349,-0.125986,1,1,0.735,-0.105,-1.6625,0.038064,0.633424,-1.07092,-0.04858,-0.06622,0.55496
14.7997,0,0,5,5,29.7997,29.7997,-21.1425,0.230187,17.4134,0.0740202,0.261239,-0.126029,1,1,-0.2275,0.3675,-1.3125,0.038064,0.633424,-1.07092,-0.04858,-0.06622,0.55496
14.8411,0,0,5,5,29.8411,29.8411,-21.2016,0.497154,17.4112,0.23118,0.00650808,0.10705,0,1,-0.63,0.49,-1.2425,0.200568,0.379908,-0.839238,-0.04858,-0.06622,0.55496
14.8826,0,0,5,5,29.8826,29.8826,-21.2608,0.760004,17.4094,0.226592,0.00556327,0.106629,0,1,-1.2775,0.77,-0.7875,0.200568,0.379908,-0.839238,-0.04368,-0.06902,0.55258
14.8886,0,0,5,5,29.8886,29.8886,-21.2694,0.761722,17.4087,0.293015,0.303657,0.0273958,1,1,-1.2425,1.085,-0.3325,0.267302,0.677832,-0.917806,-0.04368,-0.06902,0.55258
14.8939,0,0,5,5,29.8939,29.8939,-21.277,0.763935,17.4086,0.292977,0.303533,0.0273468,1,1,-0.735,1.225,0.105,0.267302,0.677832,-0.917806,-0.04368,-0.06902,0.55258
14.9537,0,0,5,5,29.9537,29.9537,-21.3625,0.581104,17.4079,-0.169487,0.0528696,0.0594209,0,1,-0.7,1.33,0.315,-0.200324,0.42883,-0.885476,-0.04368,-0.06902,0.55258
15.013,0,0,5,5,30.013,30.013,-21.4471,0.401726,17.4082,-0.166357,0.0514853,0.0589071,0,1,-1.1025,1.225,0.7525,-0.200324,0.42883,-0.885476,-0.04368,-0.06902,0.55258
15.0191,0,0,5,5,30.0191,30.0191,-21.4559,0.403962,17.409,0.0209352,0.139763,-0.0831547,1,1,-1.365,1.0325,0.63,-0.0122,0.517158,-1.02639,-0.04368,-0.06902,0.55258
15.0251,0,0,5,5,30.0251,30.0251,-21.4644,0.404332,17.41,0.0209287,0.139623,-0.0832096,1,1,-1.26,-0.0175,0.315,-0.0122,0.517158,-1.02639,-0.04368,-0.06902,0.55258
15.0315,0,0,5,5,30.0315,30.0315,-21.4735,0.404216,17.4106,0.212878,0.0175934,-0.463424,1,1,-1.5225,-0.1925,-0.0175,0.18056,0.395402,-1.40361,-0.04368,-0.06902,0.55258
15.0368,0,0,5,5,30.0368,30.0368,-21.4811,0.40266,17.4105,0.212905,0.0174694,-0.463473,1,1,-0.7175,-0.8225,-0.7175,0.18056,0.395402,-1.40361,-0.05152,-0.06888,0.55482
15.0418,0,0,5,5,30.0418,30.0418,-21.4883,0.401361,17.41,0.184257,-0.0382142,-0.351143,1,1,-0.4375,-0.6125,-0.84,0.151768,0.339892,-1.2921,-0.05152,-0.06888,0.55482
15.0474,0,0,5,5,30.0474,30.0474,-21.4963,0.401231,17.4086,0.18426,-0.0383443,-0.351195,1,1,-0.9275,0.2275,-1.1025,0.151768,0.339892,-1.2921,-0.05152,-0.06888,0.55482
15.0534,0,0,5,5,30.0534,30.0534,-21.5049,0.401464,17.4068,-0.294763,0.0600727,0.322754,1,1,-1.2425,0.525,-1.2775,-0.329278,0.438346,-0.623298,-0.05152,-0.06888,0.55482
15.0606,0,0,5,5,30.0606,30.0606,-21.5152,0.402185,17.4047,-0.294775,0.059905,0.322688,1,1,-2.2225,0.84,-1.295,-0.329278,0.438346,-0.623298,-0.05152,-0.06888,0.55482
15.0336,0,0,5,5,30.0336,30.0336,-21.4765,0.190777,17.4026,-0.195841,-0.0542735,0.0120162,0,1,-2.625,0.7175,-1.4875,-0.23363,0.323666,-0.931836,-0.05152,-0.06888,0.55482
15.0072,0,0,5,5,30.0072,30.0072,-21.4389,-0.0172424,17.4009,-0.19221,-0.0536641,0.0122617,0,1,-2.8,0.3675,-1.33,-0.23363,0.323666,-0.931836,-0.05152,-0.06888,0.55482
15.015,0,0,5,5,30.015,30.015,-21.45,-0.0182602,17.3996,0.350606,0.232299,-0.10584,1,1,-2.66,-0.2975,-1.19,0.311466,0.609512,-1.04896,-0.05152,-0.06888,0.55482
15.0213,0,0,5,5,30.0213,30.0213,-21.459,-0.0191049,17.3994,0.350621,0.232152,-0.105897,1,1,-1.505,-0.4025,-0.6475,0.311466,0.609512,-1.04896,-0.04102,-0.07322,0.56154
15.0882,0,0,5,5,30.0882,30.0882,-21.5546,0.259881,17.3995,0.250871,0.0436282,0.101142,0,1,-1.4,-0.4375,-0.28,0.216184,0.42273,-0.842898,-0.04102,-0.07322,0.56154
15.1557,0,0,5,5,30.1557,30.1557,-21.6509,0.534585,17.3994,0.246077,0.0420767,0.100492,0,1,-2.8175,-0.105,-0.0175,0.216184,0.42273,-0.842898,-0.04102,-0.07322,0.56154
15.1644,0,0,5,5,30.1644,30.1644,-21.6635,0.534471,17.4001,0.0170781,0.0743593,0.246843,1,1,-3.465,-0.2275,0.07,-0.013786,0.455182,-0.697596,-0.04102,-0.07322,0.56154
15.1746,0,0,5,5,30.1746,30.1746,-21.678,0.535938,17.4006,0.0170525,0.0741238,0.246749,1,1,-4.585,0.7,0.245,-0.013786,0.455182,-0.697596,-0.04102,-0.07322,0.56154
15.1847,0,0,5,5,30.1847,30.1847,-21.6925,0.537312,17.4012,0.13001,0.0394487,-0.185017,1,1,-4.585,0.6125,0.315,0.099674,0.420778,-1.12594,-0.04102,-0.07322,0.56154
15.1949,0,0,5,5,30.1949,30.1949,-21.707,0.538686,17.4018,0.129986,0.0392133,-0.185111,1,1,-4.585,0.6125,0.315,0.099674,0.420778,-1.12594,-0.04102,-0.07322,0.56154
15.2031,0,0,5,5,30.2031,30.2031,-21.7187,0.539349,17.4016,0.0858754,0.0850656,0.28755,1,1,-2.9925,0.4025,-0.28,0.055388,0.466772,-0.656848,-0.04102,-0.07322,0.56154
15.2113,0,0,5,5,30.2113,30.2113,-21.7304,0.540013,17.4014,0.0858638,0.0848761,0.287475,1,1,-2.9925,0.4025,-0.28,0.055388,0.466772,-0.656848,-0.04102,-0.07322,0.56154
15.298,0,0,5,5,30.298,30.298,-21.8543,0.537905,17.399,-0.00144762,0.091172,0.05516,0,1,-2.205,-0.105,-1.1725,-0.03233,0.475068,-0.886574,-0.04802,-0.07252,0.55748
15.1597,0,0,5,5,30.1597,30.1597,-21.6568,0.579386,17.3992,0.0368253,-0.19775,-0.0109443,0,1,-2.835,0.2625,-1.3475,0.006832,0.183244,-0.95343,-0.04802,-0.07252,0.55748
15.026,0,0,5,5,30.026,30.026,-21.4657,0.620777,17.3992,0.036103,-0.194645,-0.00972564,0,1,-4.445,0.7,-1.4,0.006832,0.183244,-0.95343,-0.04802,-0.07252,0.55748
14.9488,0,0,5,5,29.9488,29.9488,-21.3555,0.42802,17.398,-0.189412,-0.1064,-0.0648136,0,1,-4.62,0.7525,-1.505,-0.223016,0.26962,-1.00882,-0.04802,-0.07252,0.55748
14.8724,0,0,5,5,29.8724,29.8724,-21.2463,0.239674,17.3966,-0.186125,-0.104633,-0.0641038,0,1,-4.095,1.2075,-1.1725,-0.223016,0.26962,-1.00882,-0.04802,-0.07252,0.55748
14.8818,0,0,5,5,29.8818,29.8818,-21.2597,0.241154,17.3945,0.0539051,0.203398,-0.0290252,1,1,-3.9375,1.2425,-1.12,0.018056,0.577548,-0.973926,-0.04802,-0.07252,0.55748
14.8906,0,0,5,5,29.8906,29.8906,-21.2723,0.241995,17.3931,0.0538904,0.203193,-0.0291049,1,1,-3.4825,0.7525,-0.8925,0.018056,0.577548,-0.973926,-0.04802,-0.07252,0.55748
15.0638,0,0,5,5,30.0638,30.0638,-21.5196,0.720192,17.3903,0.457989,0.164882,0.196341,0,1,-3.64,0.455,-0.6125,0.432246,0.543266,-0.748592,-0.04802,-0.07252,0.55748
15.2359,0,0,5,5,30.2359,30.2359,-21.7656,1.18992,17.3864,0.449791,0.160943,0.194631,0,1,-5.0225,-0.1225,-0.4025,0.432246,0.543266,-0.748592,-0.03878,-0.06888,0.54684
15.5018,0,0,5,5,30.5018,30.5018,-22.1454,1.54475,17.3776,0.316769,0.241072,0.27894,0,1,-5.3725,-0.42,-0.4725,0.304878,0.629398,-0.662338,-0.03878,-0.06888,0.54684
15.7636,0,0,5,5,30.7636,30.7636,-22.5194,1.89421,17.3664,0.310673,0.235108,0.276292,0,1,-5.39,-0.0875,-0.6125,0.304878,0.629398,-0.662338,-0.03878,-0.06888,0.54684
15.774,0,0,5,5,30.774,30.774,-22.5343,1.89397,17.3661,0.307154,0.294832,0.0614019,1,1,-4.795,-0.0525,-0.56,0.30134,0.6893,-0.875472,-0.03878,-0.06888,0.54684
15.7829,0,0,5,5,30.7829,30.7829,-22.547,1.89353,17.3651,0.307162,0.294627,0.0613173,1,1,-3.535,-0.035,-0.91,0.30134,0.6893,-0.875472,-0.03878,-0.06888,0.54684
15.9786,0,0,5,5,30.9786,30.9786,-22.8266,2.18947,17.3547,0.297991,0.239637,0.124798,0,1,-3.08,-0.175,-0.91,0.297314,0.638792,-0.810446,-0.03878,-0.06888,0.54684
16.1718,0,0,5,5,31.1718,31.1718,-23.1026,2.47946,17.3424,0.292934,0.235286,0.12273,0,1,-3.605,-0.4725,-1.4875,0.297314,0.638792,-0.810446,-0.03878,-0.06888,0.54684
16.2882,0,0,5,5,31.2882,31.2882,-23.2689,3.02604,17.3331,0.480941,0.0370327,0.258378,0,1,-4.5325,0.0525,-1.5225,0.495686,0.443226,-0.674294,-0.03878,-0.06888,0.54684
16.4047,0,0,5,5,31.4047,31.4047,-23.4352,3.56523,17.3212,0.471546,0.0345863,0.256733,0,1,-5.88,0.98,-1.9425,0.495686,0.443226,-0.674294,-0.04998,-0.07308,0.5446
16.6397,0,0,5,5,31.6397,31.6397,-23.7711,3.49142,17.2989,-0.0739757,0.303979,0.104834,0,1,-6.755,0.9975,-1.6975,-0.053436,0.717726,-0.822768,-0.04998,-0.07308,0.5446
16.8695,0,0,5,5,31.8695,31.8695,-24.0994,3.41862,17.2777,-0.0727073,0.29872,0.102584,0,1,-5.8625,0.7875,-1.47,-0.053436,0.717726,-0.822768,-0.04998,-0.07308,0.5446
16.8806,0,0,5,5,31.8806,31.8806,-24.1151,3.41808,17.2757,-0.249945,0.254015,0.0445637,1,1,-5.215,0.1925,-1.5225,-0.231434,0.673318,-0.88023,-0.04998,-0.07308,0.5446
16.8906,0,0,5,5,31.8906,31.8906,-24.1294,3.41844,17.2747,-0.249952,0.253788,0.0444617,1,1,-4.41,0.42,-0.735,-0.231434,0.673318,-0.88023,-0.04998,-0.07308,0.5446
17.0041,0,0,5,5,32.0041,32.0041,-24.2916,3.54688,17.2652,0.129033,0.144773,0.037646,0,1,-3.7975,0.245,-0.5075,0.151402,0.566934,-0.88572,-0.04998,-0.07308,0.5446
17.1179,0,0,5,5,32.1179,32.1179,-24.4541,3.67436,17.2567,0.126812,0.142252,0.0363502,0,1,-5.635,0.6825,0.49,0.151402,0.566934,-0.88572,-0.04998,-0.07308,0.5446
17.2612,0,0,5,5,32.2612,32.2612,-24.6588,3.68623,17.2455,0.00767098,0.14109,0.104076,0,1,-6.895,0.4025,0.315,0.031964,0.569008,-0.817034,-0.04998,-0.07308,0.5446
17.4041,0,0,5,5,32.4041,32.4041,-24.863,3.69805,17.2345,0.00746502,0.137868,0.102575,0,1,-8.6275,0.5075,0.385,0.031964,0.569008,-0.817034,-0.042,-0.07266,0.54348
17.3672,0,0,5,5,32.3672,32.3672,-24.8103,3.74076,17.2398,0.0398868,-0.0597364,-0.0395811,0,1,-8.1725,0.8925,0.5075,0.06527,0.370758,-0.958432,-0.042,-0.07266,0.54348
17.3284,0,0,5,5,32.3284,32.3284,-24.7548,3.7815,17.2458,0.0391773,-0.0588394,-0.0392184,0,1,-6.0375,0.1225,0.525,0.06527,0.370758,-0.958432,-0.042,-0.07266,0.54348
17.3005,0,0,5,5,32.3005,32.3005,-24.715,3.96798,17.2508,0.154986,-0.0904806,0.0797635,0,1,-5.635,-0.665,0.175,0.18483,0.338428,-0.840458,-0.042,-0.07266,0.54348
17.2716,0,0,5,5,32.2716,32.2716,-24.6737,4.14954,17.2557,0.151825,-0.0897337,0.0798601,0,1,-4.4275,-1.435,-0.3325,0.18483,0.338428,-0.840458,-0.042,-0.07266,0.54348
17.2819,0,0,5,5,32.2819,32.2819,-24.6884,4.14797,17.2563,0.221464,0.103115,-0.0868404,1,1,-4.725,-0.98,-0.385,0.254736,0.53131,-1.00577,-0.042,-0.07266,0.54348
17.2931,0,0,5,5,32.2931,32.2931,-24.7044,4.14764,17.2553,0.221469,0.102863,-0.086956,1,1,-5.3375,0.07,-0.9275,0.254736,0.53131,-1.00577,-0.042,-0.07266,0.54348
17.3054,0,0,5,5,32.3054,32.3054,-24.722,4.14844,17.2538,0.12779,0.0141639,-0.287246,1,1,-6.2825,0.77,-0.875,0.160674,0.442982,-1.20438,-0.042,-0.07266,0.54348
17.3184,0,0,5,5,32.3184,32.3184,-24.7406,4.15038,17.2522,0.127756,0.0138717,-0.287383,1,1,-6.7725,1.435,-0.7175,0.160674,0.442982,-1.20438,-0.05138,-0.07574,0.5432
17.3319,0,0,5,5,32.3319,32.3319,-24.7599,4.15189,17.2507,-0.437178,0.098689,-0.401253,1,1,-7.2275,1.155,-0.7,-0.406626,0.528016,-1.31723,-0.05138,-0.07574,0.5432
17.3455,0,0,5,5,32.3455,32.3455,-24.7793,4.15341,17.2493,-0.437205,0.098384,-0.401396,1,1,-7.2275,1.155,-0.7,-0.406626,0.528016,-1.31723,-0.05138,-0.07574,0.5432
17.3582,0,0,5,5,32.3582,32.3582,-24.7975,4.15315,17.2492,-0.15426,-0.196962,-0.275629,1,1,-6.6325,-0.1225,-0.42,-0.122488,0.233264,-1.19231,-0.05138,-0.07574,0.5432
17.3723,0,0,5,5,32.3723,32.3723,-24.8175,4.15359,17.249,0.133896,-0.058909,0.359499,1,1,-7.6825,0.28,-0.315,0.166896,0.37149,-0.561932,-0.05138,-0.07574,0.5432
17.3864,0,0,5,5,32.3864,32.3864,-24.8377,4.1531,17.2488,0.133905,-0.0592287,0.359352,1,1,-7.77,-0.21,-0.5425,0.166896,0.37149,-0.561932,-0.05138,-0.07574,0.5432
17.402,0,0,5,5,32.402,32.402,-24.86,4.15307,17.2485,-0.0601073,-0.059703,0.135545,1,1,-8.925,0.0525,-0.4725,-0.027938,0.371368,-0.78385,-0.05138,-0.07574,0.5432
17.4159,0,0,5,5,32.4159,32.4159,-24.8799,4.15361,17.2474,-0.0601168,-0.0600157,0.1354,1,1,-7.5075,0.56,-0.77,-0.027938,0.371368,-0.78385,-0.05138,-0.07574,0.5432
17.43,0,0,5,5,32.43,32.43,-24.9,4.15391,17.2462,0.143974,-0.0854912,0.0998427,1,1,-7.665,0.455,-0.875,0.177022,0.346236,-0.818986,-0.04452,-0.0609,0.54978
17.4417,0,0,5,5,32.4417,32.4417,-24.9167,4.15152,17.2453,-0.413482,-0.201533,-0.227935,1,1,-5.7925,-1.0675,-1.3475,-0.382836,0.23058,-1.14412,-0.04452,-0.0609,0.54978
17.4543,0,0,5,5,32.4543,32.4543,-24.9347,4.14967,17.2439,-0.41345,-0.201818,-0.228065,1,1,-6.4575,-0.63,-1.5225,-0.382836,0.23058,-1.14412,-0.04452,-0.0609,0.54978
17.2455,0,0,5,5,32.2455,32.2455,-24.6364,3.83149,17.2635,-0.31631,-0.299484,-0.0913997,0,1,-5.88,0.105,-1.82,-0.290848,0.128466,-1.01101,-0.04452,-0.0609,0.54978
17.0416,0,0,5,5,32.0416,32.0416,-24.3451,3.52019,17.281,-0.310888,-0.295012,-0.0889798,0,1,-6.965,1.015,-1.3825,-0.290848,0.128466,-1.01101,-0.04452,-0.0609,0.54978
17.055,0,0,5,5,32.055,32.055,-24.3643,3.52044,17.2783,-0.265943,-0.133255,-0.198911,1,1,-7.1225,0.7875,-1.6975,-0.245708,0.29036,-1.11996,-0.04452,-0.0609,0.54978
17.0711,0,0,5,5,32.0711,32.0711,-24.3873,3.52012,17.2752,-0.265937,-0.13362,-0.199076,1,1,-9.2225,0.56,-1.995,-0.245708,0.29036,-1.11996,-0.04452,-0.0609,0.54978
17.0876,0,0,5,5,32.0876,32.0876,-24.4109,3.51905,17.2724,-0.0280495,-0.446272,-0.192359,1,1,-9.5375,0.1225,-2.1,-0.006832,-0.021594,-1.11313,-0.04452,-0.0609,0.54978
17.1035,0,0,5,5,32.1035,32.1035,-24.4335,3.5189,17.2713,-0.0280469,-0.446631,-0.192522,1,1,-9.1,0.175,-0.91,-0.006832,-0.021594,-1.11313,-0.04592,-0.06398,0.54502
17.0991,0,0,5,5,32.0991,32.0991,-24.4273,3.59428,17.2718,0.0661278,-0.0407936,0.0254359,0,1,-8.925,0.805,-0.7525,0.08906,0.38369,-0.896822,-0.04592,-0.06398,0.54502
17.0948,0,0,5,5,32.0948,32.0948,-24.4212,3.6683,17.2723,0.0648386,-0.0406629,0.0254054,0,1,-8.925,0.805,-0.7525,0.08906,0.38369,-0.896822,-0.04592,-0.06398,0.54502
17.1099,0,0,5,5,32.1099,32.1099,-24.4427,3.67017,17.271,0.317496,-0.126736,0.15041,1,1,-8.4525,1.3125,-0.56,0.34282,0.298046,-0.772626,-0.04592,-0.06398,0.54502
17.0826,0,0,5,5,32.0826,32.0826,-24.4038,3.52715,17.2735,-0.132304,-0.0798976,0.0464498,0,1,-8.4175,0.945,-0.7175,-0.111386,0.344284,-0.876204,-0.04592,-0.06398,0.54502
17.0573,0,0,5,5,32.0573,32.0573,-24.3676,3.38726,17.2758,-0.129867,-0.0793839,0.0468444,0,1,-9.5375,1.2425,-0.595,-0.111386,0.344284,-0.876204,-0.04592,-0.06398,0.54502
17.0732,0,0,5,5,32.0732,32.0732,-24.3904,3.38781,17.2748,-0.405527,-0.370407,-0.184463,1,1,-9.1875,0.525,-0.7,-0.388204,0.053924,-1.10556,-0.04592,-0.06398,0.54502
17.0878,0,0,5,5,32.0878,32.0878,-24.4111,3.38604,17.2748,-0.405497,-0.370737,-0.184611,1,1,-8.085,-0.945,-0.735,-0.388204,0.053924,-1.10556,-0.04592,-0.06398,0.54502
17.1006,0,0,5,5,32.1006,32.1006,-24.4294,3.38411,17.274,-0.683422,-0.250611,-0.215109,1,1,-6.6675,-0.84,-1.2075,-0.66734,0.174216,-1.1357,-0.04298,-0.05922,0.54278
17.1132,0,0,5,5,32.1132,32.1132,-24.4474,3.38526,17.2724,0.498249,0.378789,0.244833,1,1,-6.475,0.9975,-0.875,0.519354,0.803248,-0.679174,-0.04298,-0.05922,0.54278
17.1277,0,0,5,5,32.1277,32.1277,-24.4682,3.38545,17.2707,0.498246,0.37846,0.244683,1,1,-8.015,0.525,-1.2075,0.519354,0.803248,-0.679174,-0.04298,-0.05922,0.54278
17.1447,0,0,5,5,32.1447,32.1447,-24.4924,3.38687,17.2691,0.650686,0.38919,0.140615,1,1,-9.9925,1.12,-0.77,0.672464,0.81435,-0.782264,-0.04298,-0.05922,0.54278
17.1631,0,0,5,5,32.1631,32.1631,-24.5187,3.38867,17.2681,0.650654,0.388773,0.140423,1,1,-11.165,1.2075,-0.42,0.672464,0.81435,-0.782264,-0.04298,-0.05922,0.54278
17.1819,0,0,5,5,32.1819,32.1819,-24.5455,3.39037,17.2679,0.589274,0.328629,0.0595739,1,1,-11.445,0.945,0,0.610854,0.754692,-0.862296,-0.04298,-0.05922,0.54278
17.2001,0,0,5,5,32.2001,32.2001,-24.5716,3.39091,17.2678,0.589265,0.328216,0.0593845,1,1,-11.06,0.315,-0.245,0.610854,0.754692,-0.862296,-0.04298,-0.05922,0.54278
17.2164,0,0,5,5,32.2164,32.2164,-24.5949,3.39536,17.2747,-0.319769,-0.10973,0.172693,1,1,-9.7125,0.6825,4.445,-0.30195,0.317566,-0.74969,-0.04298,-0.05922,0.54278
17.2316,0,0,5,5,32.2316,32.2316,-24.6166,3.3969,17.2748,-0.319795,-0.110074,0.172534,1,1,-8.61,0.805,0.0875,-0.30195,0.317566,-0.74969,-0.04326,-0.06496,0.54278
17.0752,0,0,5,5,32.0752,32.0752,-24.3932,2.93601,17.2886,-0.479657,-0.249482,-0.063598,0,1,-9.0125,0.6125,0.035,-0.470554,0.174948,-0.986004,-0.04326,-0.06496,0.54278
16.9224,0,0,5,5,31.9224,31.9224,-24.1748,2.48248,17.2998,-0.47175,-0.246165,-0.0616912,0,1,-9.73,0.8225,-0.14,-0.470554,0.174948,-0.986004,-0.04326,-0.06496,0.54278
16.9387,0,0,5,5,31.9387,31.9387,-24.1981,2.48395,17.2992,0.434872,0.134256,-0.283412,1,1,-9.485,0.9275,-0.28,0.439932,0.555344,-1.20585,-0.04326,-0.06496,0.54278
16.955,0,0,5,5,31.955,31.955,-24.2214,2.48543,17.2986,0.434846,0.133886,-0.283579,1,1,-9.485,0.9275,-0.28,0.439932,0.555344,-1.20585,-0.04326,-0.06496,0.54278
17.0305,0,0,5,5,32.0305,32.0305,-24.3293,2.52208,17.2931,0.0347622,0.0779577,0.0328287,0,1,-7.5425,0.7875,-0.98,0.038796,0.501176,-0.891088,-0.04326,-0.06496,0.54278
17.1047,0,0,5,5,32.1047,32.1047,-24.4353,2.55807,17.2877,0.0341347,0.076286,0.0320404,0,1,-7.5425,0.7875,-0.98,0.038796,0.501176,-0.891088,-0.04326,-0.06496,0.54278
17.1182,0,0,5,5,32.1182,32.1182,-24.4546,2.55903,17.2851,-0.379784,0.239752,0.00177815,1,1,-7.1925,1.1375,-1.4525,-0.376858,0.664778,-0.920978,-0.04326,-0.06496,0.54278
17.1317,0,0,5,5,32.1317,32.1317,-24.4739,2.55999,17.2825,-0.379801,0.239446,0.00163815,1,1,-7.1925,1.1375,-1.4525,-0.376858,0.664778,-0.920978,-0.04816,-0.06664,0.53998
17.2653,0,0,5,5,32.2653,32.2653,-24.6648,2.69285,17.2729,0.13444,0.161234,0.0468782,0,1,-10.8325,0.9975,-1.1375,0.141886,0.589626,-0.874618,-0.04816,-0.06664,0.53998
17.3966,0,0,5,5,32.3966,32.3966,-24.8523,2.82333,17.2631,0.132166,0.15831,0.0454093,0,1,-10.8325,0.9975,-1.1375,0.141886,0.589626,-0.874618,-0.04816,-0.06664,0.53998
17.4163,0,0,5,5,32.4163,32.4163,-24.8804,2.82964,17.2588,0.338095,-0.146715,0.206999,1,1,-12.0575,4.41,-1.0325,0.348798,0.285358,-0.714066,-0.04816,-0.06664,0.53998
17.4359,0,0,5,5,32.4359,32.4359,-24.9085,2.83595,17.2545,0.337985,-0.147157,0.206788,1,1,-12.0575,4.41,-1.0325,0.348798,0.285358,-0.714066,-0.04816,-0.06664,0.53998
17.4516,0,0,5,5,32.4516,32.4516,-24.9308,2.83582,17.2535,-0.253162,-0.2606,0.079372,1,1,-8.96,0.1925,-0.91,-0.244854,0.172386,-0.840336,-0.04816,-0.06664,0.53998
17.4673,0,0,5,5,32.4673,32.4673,-24.9532,2.8357,17.2524,-0.25316,-0.260954,0.0792075,1,1,-8.96,0.1925,-0.91,-0.244854,0.172386,-0.840336,-0.04816,-0.06664,0.53998
17.4826,0,0,5,5,32.4826,32.4826,-24.9751,2.83574,17.2512,0.0767947,-0.264476,0.124783,1,1,-8.6975,0.315,-0.9275,0.086498,0.169214,-0.794952,-0.04816,-0.06664,0.53998
17.4988,0,0,5,5,32.4988,32.4988,-24.9983,2.83582,17.2499,-0.0761571,0.332847,-0.069277,1,1,-9.3625,0.35,-0.9625,-0.0671,0.766282,-0.987346,-0.05138,-0.06132,0.54138
17.5147,0,0,5,5,32.5147,32.5147,-25.021,2.83542,17.2479,-0.0761501,0.332487,-0.0694445,1,1,-9.1525,0.28,-1.47,-0.0671,0.766282,-0.987346,-0.05138,-0.06132,0.54138
17.5297,0,0,5,5,32.5297,32.5297,-25.0424,2.83559,17.2457,-0.466365,0.164592,-0.147183,1,1,-8.365,0.63,-1.4175,-0.458964,0.598898,-1.06433,-0.05138,-0.06132,0.54138
17.5446,0,0,5,5,32.5446,32.5446,-25.0638,2.83577,17.2436,-0.466368,0.164254,-0.147341,1,1,-8.365,0.63,-1.4175,-0.458964,0.598898,-1.06433,-0.05138,-0.06132,0.54138
17.5584,0,0,5,5,32.5584,32.5584,-25.0835,2.83527,17.2416,-0.316932,-0.189614,-0.367072,1,1,-7.4375,0.2275,-1.4875,-0.308904,0.245708,-1.28222,-0.05138,-0.06132,0.54138
17.5722,0,0,5,5,32.5722,32.5722,-25.1032,2.83478,17.2396,-0.316924,-0.189925,-0.367217,1,1,-7.4375,0.2275,-1.4875,-0.308904,0.245708,-1.28222,-0.05138,-0.06132,0.54138
17.5895,0,0,5,5,32.5895,32.5895,-25.1279,2.83453,17.2383,-0.190696,-0.134137,-0.314901,1,1,-10.2375,0.1925,-1.0675,-0.182146,0.301828,-1.23013,-0.05138,-0.06132,0.54138
17.6105,0,0,5,5,32.6105,32.6105,-25.1578,2.83511,17.2371,0.00877379,0.00742454,0.270481,1,1,-13.195,0.5775,-0.7525,0.018178,0.443714,-0.64904,-0.05138,-0.06132,0.54138
17.6317,0,0,5,5,32.6317,32.6317,-25.1881,2.83576,17.2363,0.00876244,0.00694721,0.270256,1,1,-13.3875,0.56,-0.6125,0.018178,0.443714,-0.64904,-0.04648,-0.0686,0.54026
17.6516,0,0,5,5,32.6516,32.6516,-25.2165,2.83705,17.2356,0.407578,-0.354019,0.216069,1,1,-12.3725,0.8575,-0.3675,0.418704,0.08357,-0.702598,-0.04648,-0.0686,0.54026
17.6688,0,0,5,5,32.6688,32.6688,-25.2412,2.83819,17.2354,0.407558,-0.354407,0.215885,1,1,-10.2375,0.63,-0.0875,0.418704,0.08357,-0.702598,-0.04648,-0.0686,0.54026
17.6908,0,0,5,5,32.6908,32.6908,-25.2726,2.34082,17.2353,-0.521519,-0.00297795,0.0341658,0,1,-7.4725,0.4025,0.0875,-0.523014,0.435296,-0.883036,-0.04648,-0.0686,0.54026
17.7114,0,0,5,5,32.7114,32.7114,-25.3021,1.85079,17.2355,-0.512972,-0.00357694,0.0342287,0,1,-6.7025,0.0875,0.07,-0.523014,0.435296,-0.883036,-0.04648,-0.0686,0.54026
17.7253,0,0,5,5,32.7253,32.7253,-25.3219,1.85198,17.2356,-0.0545055,-0.239105,-0.260504,1,1,-7.5425,0.6125,0.0175,-0.062586,0.200324,-1.17535,-0.04648,-0.0686,0.54026
17.7389,0,0,5,5,32.7389,32.7389,-25.3412,1.85385,17.235,-0.0545382,-0.23941,-0.26065,1,1,-7.28,1.1375,-0.1575,-0.062586,0.200324,-1.17535,-0.04648,-0.0686,0.54026
17.7563,0,0,5,5,32.7563,32.7563,-25.3661,1.85566,17.2337,0.404889,0.10655,-0.187928,1,1,-10.36,1.2775,-0.5425,0.398818,0.546316,-1.103,-0.04648,-0.0686,0.54026
17.775,0,0,5,5,32.775,32.775,-25.3928,1.85627,17.2327,0.404879,0.106129,-0.188128,1,1,-11.3925,0.56,-0.665,0.398818,0.546316,-1.103,-0.05096,-0.06636,0.53536
17.7935,0,0,5,5,32.7935,32.7935,-25.4193,1.85758,17.2312,0.30876,0.13722,0.0222838,1,1,-11.2875,1.0675,-0.77,0.302316,0.577792,-0.894016,-0.05096,-0.06636,0.53536
17.8123,0,0,5,5,32.8123,32.8123,-25.4461,1.8584,17.2304,0.308746,0.136799,0.0220827,1,1,-11.445,0.63,-0.525,0.302316,0.577792,-0.894016,-0.05096,-0.06636,0.53536
17.8323,0,0,5,5,32.8323,32.8323,-25.4746,1.86033,17.2297,0.0263798,-0.175562,0.18502,1,1,-12.425,1.2075,-0.2275,0.018788,0.266204,-0.732122,-0.05096,-0.06636,0.53536
17.8518,0,0,5,5,32.8518,32.8518,-25.5025,1.86261,17.2289,0.0263401,-0.176001,0.18481,1,1,-12.0575,1.4,-0.1575,0.018788,0.266204,-0.732122,-0.05096,-0.06636,0.53536
17.5568,0,0,5,5,32.5568,32.5568,-25.0812,1.70492,17.2428,-0.156782,-0.442345,-0.0748364,0,1,-13.3175,1.225,0.14,-0.167872,-0.006466,-0.992958,-0.05096,-0.06636,0.53536
17.2613,0,0,5,5,32.2613,32.2613,-24.6589,1.54984,17.2556,-0.154077,-0.435694,-0.0716685,0,1,-9.0125,1.225,0.4025,-0.167872,-0.006466,-0.992958,-0.05096,-0.06636,0.53536
17.2245,0,0,5,5,32.2245,32.2245,-24.6065,1.22323,17.2574,-0.303758,-0.107253,0.0616228,0,1,-10.8325,1.645,0.2975,-0.32391,0.32086,-0.861198,-0.05096,-0.06636,0.53536
17.1873,0,0,5,5,32.1873,32.1873,-24.5533,0.900707,17.2593,-0.29813,-0.106453,0.0621034,0,1,-9.9575,0.735,0.2625,-0.32391,0.32086,-0.861198,-0.05096,-0.06636,0.53536
17.2034,0,0,5,5,32.2034,32.2034,-24.5763,0.902183,17.2588,0.422133,0.0238576,-0.0948231,1,1,-9.3275,0.8925,-0.1925,0.399428,0.4514,-1.01675,-0.04928,-0.05782,0.5355
17.2186,0,0,5,5,32.2186,32.2186,-24.5979,0.903422,17.2574,0.422111,0.0235149,-0.0949803,1,1,-8.54,0.9975,-0.7525,0.399428,0.4514,-1.01675,-0.04928,-0.05782,0.5355
17.2349,0,0,5,5,32.2349,32.2349,-24.6213,0.90379,17.2556,0.203188,0.0403643,-0.256582,1,1,-9.52,0.63,-1.1725,0.179584,0.468602,-1.17693,-0.04928,-0.05782,0.5355
17.2538,0,0,5,5,32.2538,32.2538,-24.6483,0.90316,17.2537,0.203199,0.0399357,-0.256778,1,1,-11.5675,0.14,-1.505,0.179584,0.468602,-1.17693,-0.04928,-0.05782,0.5355
17.272,0,0,5,5,32.272,32.272,-24.6744,0.902828,17.252,-0.643672,-0.203265,-0.393563,1,1,-11.025,0.2275,-1.2775,-0.670878,0.226066,-1.31248,-0.04928,-0.05782,0.5355
17.2932,0,0,5,5,32.2932,32.2932,-24.7046,0.901607,17.2509,-0.643651,-0.203745,-0.393783,1,1,-13.3875,-0.385,-1.19,-0.670878,0.226066,-1.31248,-0.04928,-0.05782,0.5355
17.3136,0,0,5,5,32.3136,32.3136,-24.7338,0.899158,17.2497,-0.234444,-0.31058,-0.324038,1,1,-12.775,-1.015,-1.54,-0.259982,0.119804,-1.24306,-0.04928,-0.05782,0.5355
17.334,0,0,5,5,32.334,32.334,-24.7629,0.896708,17.2485,-0.234402,-0.311042,-0.32425,1,1,-12.775,-1.015,-1.54,-0.259982,0.119804,-1.24306,-0.04928,-0.05782,0.5355
17.3569,0,0,5,5,32.3569,32.3569,-24.7956,0.897283,17.2468,-0.00917727,0.0240447,0.157592,1,1,-14.735,0.7175,-1.0675,-0.033794,0.45506,-0.764696,-0.0518,-0.06174,0.54236
17.3786,0,0,5,5,32.3786,32.3786,-24.8266,0.897748,17.2456,0.238888,-0.101505,0.155028,1,1,-13.8425,0.5425,-0.84,0.21533,0.330132,-0.767014,-0.0518,-0.06174,0.54236
17.3986,0,0,5,5,32.3986,32.3986,-24.8552,0.899094,17.2444,0.238865,-0.101957,0.154819,1,1,-12.425,0.9975,-0.595,0.21533,0.330132,-0.767014,-0.0518,-0.06174,0.54236
17.3692,0,0,5,5,32.3692,32.3692,-24.8131,0.582633,17.2451,-0.281281,-0.11158,0.0937174,0,1,-11.8475,-0.0525,-0.56,-0.312564,0.319884,-0.828014,-0.0518,-0.06174,0.54236
17.3382,0,0,5,5,32.3382,32.3382,-24.7689,0.271603,17.2443,-0.275853,-0.110896,0.0940779,0,1,-10.2025,0.2275,-1.0675,-0.312564,0.319884,-0.828014,-0.0518,-0.06174,0.54236
17.3558,0,0,5,5,32.3558,32.3558,-24.7941,0.272874,17.2421,0.521922,0.402004,0.246842,1,1,-10.5525,1.2075,-1.155,0.48861,0.83265,-0.676246,-0.0518,-0.06174,0.54236
17.3736,0,0,5,5,32.3736,32.3736,-24.8194,0.273362,17.2397,0.521913,0.401602,0.246656,1,1,-10.6575,0.8575,-1.4875,0.48861,0.83265,-0.676246,-0.0518,-0.06174,0.54236
17.3934,0,0,5,5,32.3934,32.3934,-24.8477,0.273901,17.2373,0.621279,-0.060241,0.0137067,1,1,-12.3025,0.875,-1.4525,0.588406,0.371734,-0.907192,-0.0518,-0.06174,0.54236
17.4151,0,0,5,5,32.4151,32.4151,-24.8787,0.273999,17.2334,0.621277,-0.0607318,0.0134792,1,1,-13.8075,0.9975,-2.3275,0.588406,0.371734,-0.907192,-0.04984,-0.05698,0.53578
17.3243,0,0,5,5,32.3243,32.3243,-24.749,-0.0756071,17.2306,-0.3473,-0.170549,-0.0167899,0,1,-14.9275,1.12,-1.8375,-0.3904,0.259982,-0.93818,-0.04984,-0.05698,0.53578
17.2365,0,0,5,5,32.2365,32.2365,-24.6236,-0.419877,17.2278,-0.341292,-0.168549,-0.0158993,0,1,-16.1525,0.6475,-1.435,-0.3904,0.259982,-0.93818,-0.04984,-0.05698,0.53578
17.1796,0,0,5,5,32.1796,32.1796,-24.5424,-0.340969,17.2251,0.0706253,-0.128672,0.0262554,0,1,-16.275,1.2075,-0.9975,0.024644,0.298534,-0.896944,-0.04984,-0.05698,0.53578
17.1228,0,0,5,5,32.1228,32.1228,-24.4612,-0.262967,17.2237,0.0692639,-0.127385,0.0268496,0,1,-15.4875,1.19,-0.28,0.024644,0.298534,-0.896944,-0.04984,-0.05698,0.53578
17.1464,0,0,5,5,32.1464,32.1464,-24.4949,-0.26173,17.2236,0.117108,-0.00506119,0.182751,1,1,-15.33,0.6825,-0.07,0.072712,0.421266,-0.742004,-0.04984,-0.05698,0.53578
17.1677,0,0,5,5,32.1677,32.1677,-24.5253,-0.259355,17.2234,0.117066,-0.00554476,0.18253,1,1,-13.51,1.295,0.1925,0.072712,0.421266,-0.742004,-0.04984,-0.05698,0.53578
17.1868,0,0,5,5,32.1868,32.1868,-24.5526,-0.25742,17.2236,0.228556,0.086227,-0.260774,1,1,-11.76,0.98,0.2625,0.184708,0.513376,-1.18169,-0.04984,-0.05698,0.53578
17.2056,0,0,5,5,32.2056,32.2056,-24.5795,-0.256495,17.224,0.22854,0.0858006,-0.260969,1,1,-11.4975,0.385,0.14,0.184708,0.513376,-1.18169,-0.04914,-0.05852,0.54124
16.9693,0,0,5,5,31.9693,31.9693,-24.2419,0.0484678,17.2227,0.326116,-0.367547,-0.137052,0,1,-11.4625,0.6825,-0.4025,0.288042,0.055144,-1.06116,-0.04914,-0.05852,0.54124
16.7393,0,0,5,5,31.7393,31.7393,-23.9133,0.34775,17.2228,0.320893,-0.362303,-0.134729,0,1,-13.4925,0.315,-0.84,0.288042,0.055144,-1.06116,-0.04914,-0.05852,0.54124
16.7618,0,0,5,5,31.7618,31.7618,-23.9455,0.346866,17.2217,-0.326489,0.182846,-0.0460645,1,1,-14.4725,-0.21,-1.12,-0.362096,0.60024,-0.97295,-0.04914,-0.05852,0.54124
16.7854,0,0,5,5,31.7854,31.7854,-23.9791,0.347024,17.22,-0.326492,0.18231,-0.0463028,1,1,-15.2775,0.49,-1.19,-0.362096,0.60024,-0.97295,-0.04914,-0.05852,0.54124
16.8091,0,0,5,5,31.8091,31.8091,-24.013,0.348779,17.2175,0.769521,0.428344,0.143289,1,1,-15.435,1.5225,-1.2075,0.738588,0.846558,-0.784582,-0.04914,-0.05852,0.54124
16.8356,0,0,5,5,31.8356,31.8356,-24.0509,0.349872,17.2155,0.769502,0.42774,0.14302,1,1,-17.675,1.0675,-1.1375,0.738588,0.846558,-0.784582,-0.04914,-0.05852,0.54124
16.8634,0,0,5,5,31.8634,31.8634,-24.0905,0.351977,17.2142,0.0231788,-0.119287,0.258432,1,1,-18.655,1.435,-0.5075,-0.010858,0.30073,-0.66978,-0.04914,-0.05852,0.54124
16.8906,0,0,5,5,31.8906,31.8906,-24.1295,0.355221,17.2134,0.0231222,-0.119907,0.258154,1,1,-18.2875,1.9075,0.07,-0.010858,0.30073,-0.66978,-0.05376,-0.0574,0.5383
17.0326,0,0,5,5,32.0326,32.0326,-24.3322,-0.0193763,17.2129,-0.358487,0.0969304,0.161926,0,1,-18.4625,1.0325,0.07,-0.400648,0.520574,-0.763842,-0.05376,-0.0574,0.5383
17.1705,0,0,5,5,32.1705,32.1705,-24.5293,-0.388158,17.2137,-0.35205,0.0938077,0.160482,0,1,-17.15,0.84,0.105,-0.400648,0.520574,-0.763842,-0.05376,-0.0574,0.5383
17.5619,0,0,5,5,32.5619,32.5619,-25.0885,-0.308723,17.2165,0.0724922,0.360342,0.378686,0,1,-15.2775,1.3475,0.0525,0.027084,0.795684,-0.543266,-0.05376,-0.0574,0.5383
17.9468,0,0,5,5,32.9468,32.9468,-25.6383,-0.232254,17.2189,0.0711576,0.351668,0.374581,0,1,-14.7875,0.28,-0.14,0.027084,0.795684,-0.543266,-0.05376,-0.0574,0.5383
17.968,0,0,5,5,32.968,32.968,-25.6686,-0.232462,17.2187,0.298096,0.11219,-0.120884,1,1,-13.4225,-0.0525,-0.49,0.25498,0.55693,-1.03468,-0.05376,-0.0574,0.5383
17.9899,0,0,5,5,32.9899,32.9899,-25.6999,-0.232316,17.217,0.298094,0.111697,-0.121121,1,1,-14,0.5075,-1.1725,0.25498,0.55693,-1.03468,-0.05376,-0.0574,0.5383
18.0133,0,0,5,5,33.0133,33.0133,-25.7333,-0.232437,17.2152,0.00154946,-0.0926579,-0.358542,1,1,-15.19,0.385,-1.2775,-0.042822,0.353312,-1.27002,-0.05376,-0.0574,0.5383
18.0391,0,0,5,5,33.0391,33.0391,-25.7702,-0.233386,17.2122,0.00156603,-0.0932379,-0.358822,1,1,-17.1325,0.2625,-2.135,-0.042822,0.353312,-1.27002,-0.05334,-0.05516,0.53102
18.1577,0,0,5,5,33.1577,33.1577,-25.9395,-0.280595,17.2086,-0.0447465,0.100606,0.0777057,0,1,-18.4275,0.7875,-2.66,-0.090158,0.54961,-0.835578,-0.05334,-0.05516,0.53102
18.278,0,0,5,5,33.278,33.278,-26.1114,-0.32785,17.206,-0.0439217,0.0979129,0.0763856,0,1,-21.525,0.0875,-2.38,-0.090158,0.54961,-0.835578,-0.05334,-0.05516,0.53102
18.3092,0,0,5,5,33.3092,33.3092,-26.156,-0.328606,17.2032,0.248993,0.11651,0.250015,1,1,-21.4725,0.3325,-1.995,0.203984,0.568886,-0.662948,-0.05334,-0.05516,0.53102
18.3388,0,0,5,5,33.3388,33.3388,-26.1983,-0.326597,17.2004,0.248958,0.115847,0.249689,1,1,-20.1775,1.7675,-1.2425,0.203984,0.568886,-0.662948,-0.05334,-0.05516,0.53102
18.467,0,0,5,5,33.467,33.467,-26.3815,-0.497119,17.1995,-0.171929,0.124837,0.0655525,0,1,-19.81,1.12,-1.0675,-0.221674,0.58072,-0.84424,-0.05334,-0.05516,0.53102
18.5929,0,0,5,5,33.5929,33.5929,-26.5613,-0.665487,17.2,-0.168991,0.122041,0.064127,0,1,-19.705,0.42,-0.7,-0.221674,0.58072,-0.84424,-0.05334,-0.05516,0.53102
18.6195,0,0,5,5,33.6195,33.6195,-26.5993,-0.664577,17.1992,0.492119,0.0779707,-0.0153484,1,1,-17.745,0.7,-0.525,0.44225,0.537288,-0.922808,-0.05334,-0.05516,0.53102
18.6471,0,0,5,5,33.6471,33.6471,-26.6388,-0.663372,17.1988,0.492098,0.0773549,-0.0156567,1,1,-18.5675,0.735,-0.21,0.44225,0.537288,-0.922808,-0.05334,-0.05516,0.53102
18.5116,0,0,5,5,33.5116,33.5116,-26.4451,-0.285119,17.1949,0.34275,-0.2627,0.0529093,0,1,-18.095,1.54,-0.7525,0.2989,0.19459,-0.856318,-0.0497,-0.05208,0.53508
18.538,0,0,5,5,33.538,33.538,-26.4829,-0.282108,17.1909,-0.333127,-0.178657,-0.312541,1,1,-17.64,2.6075,-1.5925,-0.379786,0.279136,-1.21866,-0.0497,-0.05208,0.53508
18.5669,0,0,5,5,33.5669,33.5669,-26.5241,-0.281519,17.1874,-0.333137,-0.1793,-0.312862,1,1,-19.5475,1.225,-1.995,-0.379786,0.279136,-1.21866,-0.0497,-0.05208,0.53508
18.5962,0,0,5,5,33.5962,33.5962,-26.566,-0.28231,17.1834,0.164482,-0.0677202,-0.133193,1,1,-19.95,0.63,-2.6075,0.119926,0.391254,-1.04005,-0.0497,-0.05208,0.53508
18.6288,0,0,5,5,33.6288,33.6288,-26.6126,-0.281433,17.1796,0.164466,-0.068447,-0.133556,1,1,-22.5575,1.4525,-2.065,0.119926,0.391254,-1.04005,-0.0497,-0.05208,0.53508
18.6621,0,0,5,5,33.6621,33.6621,-26.6601,-0.280609,17.1768,0.683803,0.443744,0.124141,1,1,-23.1,1.1725,-1.575,0.641476,0.903654,-0.783972,-0.0497,-0.05208,0.53508
18.6963,0,0,5,5,33.6963,33.6963,-26.709,-0.278006,17.1751,0.683758,0.442981,0.123757,1,1,-23.87,1.8025,-0.5075,0.641476,0.903654,-0.783972,-0.0497,-0.05208,0.53508
18.7297,0,0,5,5,33.7297,33.7297,-26.7567,-0.274841,17.1737,0.257409,0.126663,0.402231,1,1,-23.1525,2.0125,-0.1925,0.213378,0.588406,-0.507276,-0.0497,-0.05208,0.53508
18.7624,0,0,5,5,33.7624,33.7624,-26.8035,-0.274621,17.1743,0.257406,0.125933,0.401863,1,1,-22.68,-0.0525,0.07,0.213378,0.588406,-0.507276,-0.04872,-0.04662,0.54124
18.6457,0,0,5,5,33.6457,33.6457,-26.6367,-0.320547,17.1742,-0.0424699,-0.215497,-0.00686572,0,1,-22.3825,0.2625,0.4725,-0.088572,0.244732,-0.914146,-0.04872,-0.04662,0.54124
18.5293,0,0,5,5,33.5293,33.5293,-26.4704,-0.364545,17.174,-0.041702,-0.212898,-0.00557221,0,1,-21,0.8575,0.77,-0.088572,0.244732,-0.914146,-0.04872,-0.04662,0.54124
18.5101,0,0,5,5,33.5101,33.5101,-26.443,0.207781,17.1738,0.554523,-0.148115,0.138503,0,1,-21.595,0.6125,0.0875,0.520208,0.309026,-0.771406,-0.04872,-0.04662,0.54124
18.4909,0,0,5,5,33.4909,33.4909,-26.4155,0.772028,17.1725,0.544675,-0.147648,0.138641,0,1,-21.3675,1.2075,-0.8225,0.520208,0.309026,-0.771406,-0.04872,-0.04662,0.54124
18.5213,0,0,5,5,33.5213,33.5213,-26.459,0.774265,17.1703,0.230353,-0.44595,-0.355212,1,1,-20.79,1.75,-0.8925,0.204594,0.011712,-1.26111,-0.04872,-0.04662,0.54124
18.5524,0,0,5,5,33.5524,33.5524,-26.5035,0.775243,17.168,0.230336,-0.446645,-0.355559,1,1,-21.3675,1.1025,-1.2425,0.204594,0.011712,-1.26111,-0.04872,-0.04662,0.54124
18.5849,0,0,5,5,33.5849,33.5849,-26.5499,0.775083,17.1655,-0.458971,-0.34234,-0.417764,1,1,-22.435,0.5775,-1.68,-0.487634,0.116632,-1.32248,-0.04872,-0.04662,0.54124
18.62,0,0,5,5,33.62,33.62,-26.6,0.775119,17.1617,-0.458972,-0.343122,-0.418155,1,1,-24.4825,0.9975,-2.2575,-0.487634,0.116632,-1.32248,-0.05222,-0.04396,0.53382
18.6564,0,0,5,5,33.6564,33.6564,-26.6519,0.775513,17.1581,-0.579007,-0.061942,-0.238442,1,1,-25.55,1.155,-2.1,-0.60817,0.39833,-1.14375,-0.05222,-0.04396,0.53382
18.6938,0,0,5,5,33.6938,33.6938,-26.7054,0.779142,17.1555,-0.57907,-0.0627752,-0.238861,1,1,-26.39,2.5725,-0.7,-0.60817,0.39833,-1.14375,-0.05222,-0.04396,0.53382
18.7704,0,0,5,5,33.7704,33.7704,-26.8148,1.25018,17.152,0.466963,-0.00164136,0.123708,0,1,-26.88,2.0125,-0.8225,0.450546,0.461038,-0.782996,-0.05222,-0.04396,0.53382
18.8463,0,0,5,5,33.8463,33.8463,-26.9233,1.71196,17.149,0.458906,-0.00323578,0.122667,0,1,-27.3,0.7525,-0.8225,0.450546,0.461038,-0.782996,-0.05222,-0.04396,0.53382
18.8841,0,0,5,5,33.8841,33.8841,-26.9773,1.71287,17.1482,0.0227565,-0.351281,0.254286,1,1,-26.6875,0.6825,-0.49,0.012566,0.114192,-0.651968,-0.05222,-0.04396,0.53382
18.92,0,0,5,5,33.92,33.92,-27.0286,1.71402,17.147,0.0227363,-0.352079,0.253879,1,1,-25.2175,0.9275,-0.6475,0.012566,0.114192,-0.651968,-0.05222,-0.04396,0.53382
19.0877,0,0,5,5,34.0877,34.0877,-27.2682,1.85686,17.1388,0.13274,0.125783,0.144691,0,1,-24.675,0.7,-1.4175,0.125538,0.595238,-0.758352,-0.05222,-0.04396,0.53382
19.2504,0,0,5,5,34.2504,34.2504,-27.5006,1.99922,17.1293,0.130257,0.122221,0.142752,0,1,-22.925,1.995,-1.3825,0.125538,0.595238,-0.758352,-0.04942,-0.0406,0.53956
19.3134,0,0,5,5,34.3134,34.3134,-27.5906,2.55272,17.1229,0.557467,-0.0349484,0.160129,0,1,-22.7325,2.52,-1.9425,0.56425,0.439444,-0.740052,-0.04942,-0.0406,0.53956
19.3756,0,0,5,5,34.3756,34.3756,-27.6794,3.09813,17.1162,0.547959,-0.0361015,0.158995,0,1,-22.7325,2.52,-1.9425,0.56425,0.439444,-0.740052,-0.04942,-0.0406,0.53956
19.4125,0,0,5,5,34.4125,34.4125,-27.7322,3.09588,17.1114,-0.190999,-0.0542588,-0.610596,1,1,-25.8825,0.1225,-3.3775,-0.177876,0.42212,-1.50328,-0.04942,-0.0406,0.53956
19.4494,0,0,5,5,34.4494,34.4494,-27.7849,3.09362,17.1066,-0.19096,-0.0550736,-0.611023,1,1,-25.8825,0.1225,-3.3775,-0.177876,0.42212,-1.50328,-0.04942,-0.0406,0.53956
19.4893,0,0,5,5,34.4893,34.4893,-27.8419,3.09544,17.1029,-0.221849,-0.541527,-0.338419,1,1,-28.28,1.96,-1.75,-0.208864,-0.062952,-1.23232,-0.04942,-0.0406,0.53956
19.5292,0,0,5,5,34.5292,34.5292,-27.8989,3.09725,17.0991,-0.22188,-0.542405,-0.338885,1,1,-28.28,1.96,-1.75,-0.208864,-0.062952,-1.23232,-0.04942,-0.0406,0.53956
19.3785,0,0,5,5,34.3785,34.3785,-27.6836,3.16837,17.1116,0.0740343,-0.249003,-0.142445,0,1,-29.2425,1.12,-1.365,0.089548,0.226798,-1.03907,-0.04942,-0.0406,0.53956
19.2304,0,0,5,5,34.2304,34.2304,-27.472,3.23826,17.1242,0.0728164,-0.245702,-0.140798,0,1,-29.2425,1.12,-1.365,0.089548,0.226798,-1.03907,-0.04662,-0.03318,0.54558
19.2737,0,0,5,5,34.2737,34.2737,-27.5339,3.23982,17.1218,0.600766,-0.227973,-0.0928558,1,1,-31.08,1.4525,-1.12,0.61976,0.245464,-0.991006,-0.04662,-0.03318,0.54558
19.3171,0,0,5,5,34.3171,34.3171,-27.5958,3.24139,17.1194,0.600739,-0.228929,-0.0933565,1,1,-31.08,1.4525,-1.12,0.61976,0.245464,-0.991006,-0.04662,-0.03318,0.54558
19.3585,0,0,5,5,34.3585,34.3585,-27.655,3.24385,17.1167,-0.274366,0.178551,-0.00101076,1,1,-29.54,1.995,-1.015,-0.259006,0.653432,-0.898896,-0.04662,-0.03318,0.54558
19.3986,0,0,5,5,34.3986,34.3986,-27.7123,3.24549,17.1137,0.0421976,-0.239884,-0.194259,1,1,-28.4725,1.68,-1.4525,0.058926,0.236314,-1.09019,-0.04662,-0.03318,0.54558
19.4361,0,0,5,5,34.4361,34.4361,-27.7659,3.24541,17.1089,0.0421989,-0.24071,-0.194694,1,1,-26.32,1.2425,-2.765,0.058926,0.236314,-1.09019,-0.04662,-0.03318,0.54558
19.4751,0,0,5,5,34.4751,34.4751,-27.8216,3.2444,17.1043,0.00236929,-0.0593575,-0.373544,1,1,-27.5625,0.735,-2.975,0.01891,0.418338,-1.26721,-0.04662,-0.03318,0.54558
19.5161,0,0,5,5,34.5161,34.5161,-27.8802,3.24521,17.1003,0.00235509,-0.0602597,-0.374022,1,1,-29.155,1.5225,-2.17,0.01891,0.418338,-1.26721,-0.04662,-0.03318,0.54558
19.5583,0,0,5,5,34.5583,34.5583,-27.9404,3.24709,17.0969,0.04302,0.021982,0.137935,1,1,-30.1,1.9075,-1.5575,0.05978,0.50142,-0.758718,-0.04942,-0.02394,0.53844
19.6033,0,0,5,5,34.6033,34.6033,-28.0047,3.24935,17.094,-0.0568806,-0.669022,-0.405656,1,1,-32.375,1.9425,-1.155,-0.040504,-0.18788,-1.29759,-0.04942,-0.02394,0.53844
19.6506,0,0,5,5,34.6506,34.6506,-28.0723,3.25038,17.0924,-0.0568985,-0.670061,-0.406211,1,1,-34.3,0.9625,-0.84,-0.040504,-0.18788,-1.29759,-0.04942,-0.02394,0.53844
19.699,0,0,5,5,34.699,34.699,-28.1415,3.25107,17.0912,-0.577963,-0.42626,0.407509,1,1,-35.175,0.6825,-0.735,-0.563762,0.05673,-0.489586,-0.04942,-0.02394,0.53844
19.7478,0,0,5,5,34.7478,34.7478,-28.2112,3.25356,17.0906,-0.578006,-0.427329,0.406933,1,1,-35.49,1.4525,0.0525,-0.563762,0.05673,-0.489586,-0.04942,-0.02394,0.53844
19.9281,0,0,5,5,34.9281,34.9281,-28.4687,3.15598,17.0795,-0.0998388,0.153296,0.105384,0,1,-35.0525,1.2775,-0.07,-0.085278,0.640744,-0.786778,-0.04942,-0.02394,0.53844
20.1053,0,0,5,5,35.1053,35.1053,-28.7218,3.0585,17.0692,-0.0981399,0.149379,0.103354,0,1,-35.07,0.4025,-0.3325,-0.085278,0.640744,-0.786778,-0.04942,-0.02394,0.53844
20.0516,0,0,5,5,35.0516,35.0516,-28.6452,3.42523,17.0766,0.352742,-0.179629,0.0327357,0,1,-34.335,0,-0.6825,0.37393,0.310734,-0.857172,-0.04942,-0.02394,0.53844
19.997,0,0,5,5,34.997,34.997,-28.5671,3.78729,17.0817,0.346435,-0.178244,0.0330382,0,1,-32.7425,1.5225,-1.925,0.37393,0.310734,-0.857172,-0.05222,-0.01638,0.5488
20.0442,0,0,5,5,35.0442,35.0442,-28.6345,3.78854,17.077,0.0216823,0.119569,-0.385182,1,1,-34.09,1.9425,-2.345,0.047824,0.609268,-1.27161,-0.05222,-0.01638,0.5488
20.0918,0,0,5,5,35.0918,35.0918,-28.7025,3.79106,17.0722,0.0216384,0.118532,-0.385752,1,1,-34.3875,2.6425,-2.065,0.047824,0.609268,-1.27161,-0.05222,-0.01638,0.5488
20.1394,0,0,5,5,35.1394,35.1394,-28.7705,3.79455,17.0674,0.119859,-0.116622,-0.154075,1,1,-34.3875,3.1325,-1.7675,0.146522,0.375394,-1.04115,-0.05222,-0.01638,0.5488
20.1906,0,0,5,5,35.1906,35.1906,-28.8437,3.79669,17.0634,0.119822,-0.117736,-0.154691,1,1,-37.2925,2.24,-1.785,0.146522,0.375394,-1.04115,-0.05222,-0.01638,0.5488
20.2423,0,0,5,5,35.2423,35.2423,-28.9175,3.79831,17.0587,-0.142615,-0.783842,-0.403301,1,1,-37.66,2.135,-2.2225,-0.116998,-0.288896,-1.28722,-0.05222,-0.01638,0.5488
20.298,0,0,5,5,35.298,35.298,-28.9971,3.80157,17.0536,-0.142672,-0.785053,-0.403976,1,1,-40.88,3.115,-1.995,-0.116998,-0.288896,-1.28722,-0.05222,-0.01638,0.5488
20.2804,0,0,5,5,35.2804,35.2804,-28.972,3.7361,17.0567,-0.0682759,-0.121681,0.0154332,0,1,-41.5975,2.6775,-1.435,-0.043432,0.373442,-0.871324,-0.05222,-0.01638,0.5488
20.2623,0,0,5,5,35.2623,35.2623,-28.9462,3.6719,17.0614,-0.0671577,-0.121322,0.0157146,0,1,-40.9675,2.2575,-0.525,-0.043432,0.373442,-0.871324,-0.05334,-0.02058,0.54264
20.3168,0,0,5,5,35.3168,35.3168,-29.0239,3.67362,17.059,-0.357781,-0.0994238,-0.188546,1,1,-39.9525,1.5575,-1.05,-0.335256,0.3965,-1.07336,-0.05334,-0.02058,0.54264
20.3712,0,0,5,5,35.3712,35.3712,-29.1017,3.67533,17.0565,-0.357811,-0.100607,-0.189206,1,1,-39.9525,1.5575,-1.05,-0.335256,0.3965,-1.07336,-0.05334,-0.02058,0.54264
20.4242,0,0,5,5,35.4242,35.4242,-29.1774,3.67362,17.0528,-0.190374,-0.200682,0.102157,1,1,-38.745,0.1925,-2.7125,-0.16714,0.29768,-0.783606,-0.05334,-0.02058,0.54264
20.4772,0,0,5,5,35.4772,35.4772,-29.2531,3.67191,17.049,-0.190344,-0.201834,0.101515,1,1,-38.745,0.1925,-2.7125,-0.16714,0.29768,-0.783606,-0.05334,-0.02058,0.54264
20.5318,0,0,5,5,35.5318,35.5318,-29.3312,3.67349,17.0427,0.250621,0.426178,-0.00660942,1,1,-40.005,2.6075,-3.0625,0.27572,0.926224,-0.890234,-0.05334,-0.02058,0.54264
20.5865,0,0,5,5,35.5865,35.5865,-29.4093,3.67506,17.0364,0.250594,0.424993,-0.00727819,1,1,-40.005,2.6075,-3.0625,0.27572,0.926224,-0.890234,-0.05334,-0.02058,0.54264
20.6433,0,0,5,5,35.6433,35.6433,-29.4904,3.67552,17.0321,0.122176,-0.0425163,-0.292599,1,1,-41.7375,1.47,-2.3625,0.146766,0.460428,-1.17266,-0.05334,-0.02058,0.54264
20.7019,0,0,5,5,35.7019,35.7019,-29.5742,3.67613,17.0279,-0.182035,-0.279124,-0.325531,1,1,-43.26,1.5225,-2.275,-0.158722,0.225334,-1.20463,-0.05348,-0.01022,0.53998
20.763,0,0,5,5,35.763,35.763,-29.6615,3.67847,17.022,-0.182076,-0.280445,-0.326285,1,1,-45.185,2.8875,-2.6075,-0.158722,0.225334,-1.20463,-0.05348,-0.01022,0.53998
20.4717,0,0,5,5,35.4717,35.4717,-29.2453,3.09523,17.0474,-0.630644,-0.613816,0.0125932,0,1,-47.1275,3.2025,-1.8375,-0.619394,-0.113704,-0.872422,-0.05348,-0.01022,0.53998
20.1838,0,0,5,5,35.1838,35.1838,-28.834,2.51816,17.0675,-0.620585,-0.607788,0.0165043,0,1,-47.1275,3.2025,-1.8375,-0.619394,-0.113704,-0.872422,-0.05348,-0.01022,0.53998
20.2477,0,0,5,5,35.2477,35.2477,-28.9253,2.52031,17.0655,-0.0346968,-0.158655,0.228804,1,1,-47.5475,1.6625,-0.7175,-0.030988,0.336354,-0.660996,-0.05348,-0.01022,0.53998
20.3116,0,0,5,5,35.3116,35.3116,-29.0165,2.52246,17.0635,-0.0347343,-0.160046,0.228032,1,1,-47.5475,1.6625,-0.7175,-0.030988,0.336354,-0.660996,-0.05348,-0.01022,0.53998
20.2768,0,0,5,5,35.2768,35.2768,-28.9669,2.98324,17.065,0.425317,-0.211128,0.106518,0,1,-46.97,1.1025,-2.9575,0.439078,0.284382,-0.781654,-0.05348,-0.01022,0.53998
20.3375,0,0,5,5,35.3375,35.3375,-29.0536,2.98441,17.0589,0.0135818,-0.196329,0.386475,1,1,-44.8875,2.3275,-3.08,0.02562,0.300486,-0.503128,-0.05348,-0.01022,0.53998
20.3973,0,0,5,5,35.3973,35.3973,-29.1391,2.98682,17.0536,0.0135399,-0.197629,0.385749,1,1,-44.1875,2.7475,-2.345,0.02562,0.300486,-0.503128,-0.05362,-0.0084,0.54278
20.4572,0,0,5,5,35.4572,35.4572,-29.2246,2.99033,17.0492,-0.161582,-0.0146404,-0.326853,1,1,-44.2925,3.045,-1.5575,-0.150182,0.484584,-1.20951,-0.05362,-0.0084,0.54278
20.5191,0,0,5,5,35.5191,35.5191,-29.3129,2.99235,17.0448,-0.161617,-0.015982,-0.327607,1,1,-45.815,2.2925,-1.9775,-0.150182,0.484584,-1.20951,-0.05362,-0.0084,0.54278
20.5844,0,0,5,5,35.5844,35.5844,-29.4063,2.99253,17.0404,-1.08345,-0.237351,-0.509017,1,1,-48.6675,1.3475,-2.485,-1.07592,0.264862,-1.38873,-0.05362,-0.0084,0.54278
20.6526,0,0,5,5,35.6526,35.6526,-29.5038,2.99482,17.0349,-1.08349,-0.238828,-0.509854,1,1,-50.9075,2.73,-2.415,-1.07592,0.264862,-1.38873,-0.05362,-0.0084,0.54278
20.723,0,0,5,5,35.723,35.723,-29.6043,2.99868,17.0287,-0.0437651,0.308976,-0.0054023,1,1,-52.605,3.7625,-2.3625,-0.03172,0.813618,-0.887306,-0.05362,-0.0084,0.54278
20.7951,0,0,5,5,35.7951,35.7951,-29.7073,3.00378,17.025,-0.0438539,0.307417,-0.00629484,1,1,-54.0925,3.675,-0.735,-0.03172,0.813618,-0.887306,-0.05362,-0.0084,0.54278
20.8659,0,0,5,5,35.8659,35.8659,-29.8085,3.00765,17.0226,1.0401,-0.126196,0.274748,1,1,-53.095,2.66,-0.4025,1.05689,0.381982,-0.60756,-0.05362,-0.0084,0.54278
20.9382,0,0,5,5,35.9382,35.9382,-29.9116,3.00607,17.0206,1.04012,-0.127757,0.273854,1,1,-54.2325,-0.2275,-1.7675,1.05689,0.381982,-0.60756,-0.05362,-0.0084,0.54278
21.0112,0,0,5,5,36.0112,36.0112,-30.016,3.00433,17.0176,0.676547,-0.410469,-0.0733997,1,1,-54.88,-0.0175,-2.3275,0.69174,0.101138,-0.951234,-0.04634,0.00742,0.5558
21.0846,0,0,5,5,36.0846,36.0846,-30.1209,3.00568,17.0105,-0.401298,-0.774522,-0.282714,1,1,-55.0025,2.765,-3.5,-0.390644,-0.260958,-1.15802,-0.04634,0.00742,0.5558
21.1543,0,0,5,5,36.1543,36.1543,-30.2204,3.01054,17.003,-0.401383,-0.776019,-0.283589,1,1,-52.01,4.6725,-2.6775,-0.390644,-0.260958,-1.15802,-0.04634,0.00742,0.5558
21.0516,0,0,5,5,36.0516,36.0516,-30.0737,3.27129,17.0098,0.221304,-0.277605,0.0357922,0,1,-51.3975,4.4625,-2.03,0.239242,0.234606,-0.842166,-0.04634,0.00742,0.5558
20.9511,0,0,5,5,35.9511,35.9511,-29.9301,3.52445,17.0185,0.216893,-0.275307,0.0368166,0,1,-51.835,2.485,-2.5375,0.239242,0.234606,-0.842166,-0.04634,0.00742,0.5558
21.0238,0,0,5,5,36.0238,36.0238,-30.034,3.52464,17.0121,0.73612,0.0367463,-0.225231,1,1,-54.4775,1.96,-3.4825,0.76067,0.547902,-1.10129,-0.04634,0.00742,0.5558
21.1014,0,0,5,5,36.1014,36.1014,-30.1449,3.52547,17.0051,0.736105,0.035075,-0.2262,1,1,-58.38,2.4675,-3.5875,0.76067,0.547902,-1.10129,-0.04634,0.00742,0.5558
21.1796,0,0,5,5,36.1796,36.1796,-30.2566,3.53053,16.9974,0.0309141,-0.0591761,-0.280543,1,1,-58.8,4.83,-2.7125,0.052582,0.455426,-1.15424,-0.0483,0.00966,0.5544
21.2575,0,0,5,5,36.2575,36.2575,-30.3678,3.53656,16.9915,-0.109871,0.0526104,-0.20702,1,1,-58.59,4.7775,-1.4875,-0.088694,0.568764,-1.08031,-0.0483,0.00966,0.5544
21.3402,0,0,5,5,36.3402,36.3402,-30.486,3.53677,16.9884,-0.109875,0.0508351,-0.208063,1,1,-62.5975,1.0325,-1.82,-0.088694,0.568764,-1.08031,-0.0483,0.00966,0.5544
21.4244,0,0,5,5,36.4244,36.4244,-30.6062,3.53248,16.9864,0.238499,-0.337135,0.386439,1,1,-63.7525,-1.575,-2.59,0.26108,0.183,-0.489342,-0.0483,0.00966,0.5544
21.5078,0,0,5,5,36.5078,36.5078,-30.7254,3.53096,16.9813,0.238526,-0.338922,0.385382,1,1,-63.105,0.7525,-3.325,0.26108,0.183,-0.489342,-0.0483,0.00966,0.5544
21.5918,0,0,5,5,36.5918,36.5918,-30.8454,3.53278,16.9745,0.384641,0.0193127,0.356032,1,1,-63.4725,2.9575,-3.185,0.407846,0.542656,-0.517402,-0.0483,0.00966,0.5544
21.6707,0,0,5,5,36.6707,36.6707,-30.9581,3.53807,16.9662,0.384549,0.0176315,0.355019,1,1,-59.325,5.1275,-2.835,0.407846,0.542656,-0.517402,-0.0483,0.00966,0.5544
21.7493,0,0,5,5,36.7493,36.7493,-31.0705,3.54237,16.9599,-0.119205,-0.0321617,-0.64704,1,1,-59.22,4.0775,-2.205,-0.097966,0.494588,-1.51073,-0.0483,0.00966,0.5544
21.8319,0,0,5,5,36.8319,36.8319,-31.1884,3.54235,16.9544,-0.119205,-0.0339203,-0.648102,1,1,-62.37,1.6275,-3.0275,-0.097966,0.494588,-1.51073,-0.05208,0.01904,0.54642
21.9175,0,0,5,5,36.9175,36.9175,-31.3107,3.54179,16.9484,-0.188321,-0.00789718,-0.274583,1,1,-64.8025,1.5575,-3.5,-0.167384,0.522404,-1.13899,-0.05208,0.01904,0.54642
22.0091,0,0,5,5,37.0091,37.0091,-31.4416,3.54257,16.9407,-0.188334,-0.00984304,-0.275771,1,1,-69.545,2.7125,-3.8675,-0.167384,0.522404,-1.13899,-0.05208,0.01904,0.54642
22.0996,0,0,5,5,37.0996,37.0996,-31.5709,3.54896,16.9325,-0.221854,-0.011394,-0.211299,1,1,-68.67,5.6875,-2.4325,-0.200934,0.52277,-1.07384,-0.05208,0.01904,0.54642
22.1902,0,0,5,5,37.1902,37.1902,-31.7003,3.55532,16.9243,-0.221965,-0.0133087,-0.212487,1,1,-68.67,5.6875,-2.4325,-0.200934,0.52277,-1.07384,-0.05208,0.01904,0.54642
22.1394,0,0,5,5,37.1394,37.1394,-31.6276,3.7731,16.9308,0.201993,-0.213248,-0.0284678,0,1,-67.7425,4.2175,-1.9075,0.228628,0.321836,-0.891698,-0.05208,0.01904,0.54642
22.0893,0,0,5,5,37.0893,37.0893,-31.5562,3.98731,16.9379,0.198263,-0.212055,-0.0280315,0,1,-67.7425,4.2175,-1.9075,0.228628,0.321836,-0.891698,-0.05208,0.01904,0.54642
22.189,0,0,5,5,37.189,37.189,-31.6986,3.98359,16.9331,0.0282477,-0.963538,0.0995222,1,1,-76.09,-0.385,-3.8325,0.057828,-0.426756,-0.763842,-0.05208,0.01904,0.54642
22.2887,0,0,5,5,37.2887,37.2887,-31.841,3.97986,16.9283,0.0283126,-0.965649,0.0982206,1,1,-76.09,-0.385,-3.8325,0.057828,-0.426756,-0.763842,-0.05026,0.03206,0.54796
22.3782,0,0,5,5,37.3782,37.3782,-31.9689,3.98658,16.9213,0.0850508,-0.30402,0.264124,1,1,-67.865,5.495,-1.68,0.114924,0.23607,-0.598044,-0.05026,0.03206,0.54796
22.4675,0,0,5,5,37.4675,37.4675,-32.0964,3.99067,16.9138,-0.276683,-0.12674,-0.244098,1,1,-67.655,4.34,-2.73,-0.24827,0.415044,-1.10117,-0.05026,0.03206,0.54796
22.5649,0,0,5,5,37.5649,37.5649,-32.2355,3.99035,16.9058,-0.276678,-0.12879,-0.245387,1,1,-74.1125,2.3275,-4.3575,-0.24827,0.415044,-1.10117,-0.05026,0.03206,0.54796
22.6636,0,0,5,5,37.6636,37.6636,-32.3766,3.99113,16.8978,-0.0572882,-0.271312,-0.34678,1,1,-75.2325,2.8875,-4.0075,-0.027938,0.274744,-1.20048,-0.05026,0.03206,0.54796
22.7679,0,0,5,5,37.7679,37.7679,-32.5255,3.9928,16.8912,-0.0573172,-0.273498,-0.348173,1,1,-79.66,2.8875,-3.0275,-0.027938,0.274744,-1.20048,-0.05026,0.03206,0.54796
22.8689,0,0,5,5,37.8689,37.8689,-32.6698,3.99973,16.8822,0.154676,-0.420819,-0.475802,1,1,-77,6.265,-2.5725,0.185074,0.129686,-1.32577,-0.05026,0.03206,0.54796
22.9679,0,0,5,5,37.9679,37.9679,-32.8113,4.00572,16.8745,0.154572,-0.422886,-0.47714,1,1,-75.425,5.3725,-2.17,0.185074,0.129686,-1.32577,-0.05026,0.03206,0.54796
23.0736,0,0,5,5,38.0736,38.0736,-32.9623,4.00982,16.8679,-0.55449,-0.691329,-0.26747,1,1,-80.885,4.095,-2.2225,-0.526918,-0.136274,-1.1163,-0.05026,0.03206,0.54796
23.189,0,0,5,5,38.189,38.189,-33.1271,4.0072,16.8627,-0.554444,-0.693736,-0.269032,1,0,-88.6375,0.385,-3.71,-0.526918,-0.136274,-1.1163,-0.04718,0.03108,0.53942
23.3062,0,0,5,5,38.3062,38.3062,-33.2946,4.00579,16.8565,-0.415319,-0.35068,0.0495305,1,0,-90.09,1.2775,-3.7625,-0.387228,0.208864,-0.798612,-0.04718,0.03108,0.53942
23.4112,0,0,5,5,38.4112,38.4112,-33.4445,4.00913,16.849,-0.415377,-0.352858,0.0480913,1,0,-80.2025,4.0425,-2.8875,-0.387228,0.208864,-0.798612,-0.04718,0.03108,0.53942
23.5074,0,0,5,5,38.5074,38.5074,-33.582,4.13634,16.8797,0.25629,-0.0183064,-0.0540561,0,0,-76.37,5.04,-1.96,0.289506,0.544974,-0.89853,-0.04718,0.03108,0.53942
23.605,0,0,5,5,38.605,38.605,-33.7214,4.25997,16.9103,0.254138,-0.0202396,-0.0555328,0,0,-78.8025,4.235,-3.08,0.289506,0.544974,-0.89853,-0.04718,0.03108,0.53942
23.3844,0,0,5,5,38.3844,38.3844,-33.4063,4.3425,16.969,0.0640341,-0.465402,-0.12845,0,0,-81.76,2.4325,-5.1275,0.10004,0.095648,-0.973804,-0.04718,0.03108,0.53942
23.1772,0,0,5,5,38.1772,38.1772,-33.1103,4.42605,17.0274,0.0625801,-0.461034,-0.125718,0,0,-89.81,3.815,-4.62,0.10004,0.095648,-0.973804,-0.04718,0.03108,0.53942
23.2923,0,0,5,5,38.2923,38.2923,-33.2747,4.42719,17.0203,-0.63331,-0.0905735,-0.715594,1,0,-88.2875,2.835,-3.4125,-0.598776,0.468114,-1.55757,-0.04718,0.03108,0.53942
23.3995,0,0,5,5,38.3995,38.3995,-33.4278,4.43494,17.0117,-0.633445,-0.092794,-0.717068,1,1,-81.935,6.545,-1.995,-0.598776,0.468114,-1.55757,-0.05362,0.03794,0.55104
23.5076,0,0,5,5,38.5076,38.5076,-33.5823,4.44076,17.0016,0.0153091,-0.0212658,-0.780524,1,1,-82.5825,6.09,-3.325,0.052826,0.541802,-1.61906,-0.05362,0.03794,0.55104
23.6318,0,0,5,5,38.6318,38.6318,-33.7597,4.44465,16.993,0.0152414,-0.0238326,-0.78224,1,1,-95.55,4.69,-3.2375,0.052826,0.541802,-1.61906,-0.05362,0.03794,0.55104
23.7576,0,0,5,5,38.7576,38.7576,-33.9395,4.44558,16.9852,-0.267593,-1.00955,-0.315795,1,1,-96.88,2.975,-3.7625,-0.23119,-0.440298,-1.15449,-0.05362,0.03794,0.55104
23.8886,0,0,5,5,38.8886,38.8886,-34.1266,4.44591,16.9794,-0.267599,-1.01225,-0.317618,1,1,-101.115,2.0475,-2.9925,-0.23119,-0.440298,-1.15449,-0.05362,0.03794,0.55104
23.6528,0,0,5,5,38.6528,38.6528,-33.7898,4.51053,17.0137,0.0597738,-0.518465,-0.226755,0,1,-96.6,2.835,-2.555,0.098698,0.048068,-1.0675,-0.05362,0.03794,0.55104
23.4075,0,0,5,5,38.4075,38.4075,-33.4393,4.57622,17.0465,0.0586309,-0.513336,-0.223455,0,1,-86.135,4.445,-2.625,0.098698,0.048068,-1.0675,-0.05362,0.03794,0.55104
23.5264,0,0,5,5,38.5264,38.5264,-33.6091,4.57689,17.03,-0.579545,-0.70192,-0.308201,1,1,-90.93,5.635,-8.085,-0.542168,-0.13786,-1.14997,-0.05362,0.03794,0.55104
23.6561,0,0,5,5,38.6561,38.6561,-33.7944,4.57652,17.0181,-0.579539,-0.704601,-0.309989,1,1,-99.75,3.6925,-6.2125,-0.542168,-0.13786,-1.14997,-0.0532,0.06258,0.55762
23.79,0,0,5,5,38.79,38.79,-33.9857,4.57758,17.0054,-0.311317,-0.00293629,-0.160373,1,1,-103.128,4.6375,-6.09,-0.272792,0.565836,-0.999668,-0.0532,0.06258,0.55762
23.9152,0,0,5,5,38.9152,38.9152,-34.1646,4.57983,16.9963,-0.311356,-0.00551272,-0.16212,1,1,-96.3375,4.0775,-3.9725,-0.272792,0.565836,-0.999668,-0.0532,0.06258,0.55762
24.0362,0,0,5,5,39.0362,39.0362,-34.3375,4.58511,16.988,0.5641,0.226489,-0.469346,1,1,-92.995,5.285,-2.5725,0.606462,0.800076,-1.30284,-0.0532,0.06258,0.55762
24.1627,0,0,5,5,39.1627,39.1627,-34.5181,4.58927,16.9758,0.564027,0.223899,-0.471127,1,1,-97.1775,6.0375,-4.795,0.606462,0.800076,-1.30284,-0.0532,0.06258,0.55762
23.9137,0,0,5,5,38.9137,38.9137,-34.1624,4.52406,17.006,-0.0818709,-0.554362,-0.142977,0,1,-103.828,5.53,-6.02,-0.04331,0.017568,-0.980758,-0.0532,0.06258,0.55762
23.6791,0,0,5,5,38.6791,38.6791,-33.8273,4.46008,17.0378,-0.0807577,-0.549578,-0.139645,0,1,-112.665,4.9175,-4.6025,-0.04331,0.017568,-0.980758,-0.0532,0.06258,0.55762
23.8211,0,0,5,5,38.8211,38.8211,-34.0301,4.46181,17.0308,0.00206535,-0.124572,0.511732,1,1,-109.813,3.115,-3.115,0.039894,0.445056,-0.33245,-0.0532,0.06258,0.55762
23.9488,0,0,5,5,38.9488,38.9488,-34.2126,4.46245,17.0257,0.00205417,-0.1272,0.50995,1,0,-98.5425,1.9775,-2.555,0.039894,0.445056,-0.33245,-0.0504,0.07504,0.54278
24.0765,0,0,5,5,39.0765,39.0765,-34.395,4.458,17.0122,0.344235,0.38897,-0.366981,1,0,-98.0875,2.2925,-8.2775,0.383446,0.963312,-1.20085,-0.0504,0.07504,0.54278
24.2166,0,0,5,5,39.2166,39.2166,-34.5952,4.45963,17,0.344207,0.3861,-0.368956,1,0,-108.15,4.83,-5.635,0.383446,0.963312,-1.20085,-0.0504,0.07504,0.54278
24.36,0,0,5,5,39.36,39.36,-34.8,4.46207,16.9859,0.285973,-0.74186,0.10384,1,0,-110.653,5.8625,-6.2475,0.325008,-0.160552,-0.729682,-0.0504,0.07504,0.54278
24.5131,0,0,5,5,39.5131,39.5131,-35.0187,4.46448,16.9737,0.285931,-0.744979,0.101659,1,0,-118.528,5.215,-5.3025,0.325008,-0.160552,-0.729682,-0.0504,0.07504,0.54278
24.6588,0,0,5,5,39.6588,39.6588,-35.2269,4.46632,16.965,-0.409485,-0.8432,-0.343902,1,0,-112.788,3.815,-3.85,-0.37332,-0.255712,-1.16974,-0.0504,0.07504,0.54278
24.7957,0,0,5,5,39.7957,39.7957,-35.4225,4.47007,16.9561,-0.40955,-0.845973,-0.345874,1,0,-105.7,4.795,-3.2725,-0.37332,-0.255712,-1.16974,-0.0504,0.07504,0.54278
24.9414,0,0,5,5,39.9414,39.9414,-35.6305,4.47388,16.9444,-0.596097,-1.22348,-0.570887,1,0,-112.56,5.775,-4.55,-0.56059,-0.629886,-1.39092,-0.0504,0.07504,0.54278
25.1023,0,0,5,5,40.1023,40.1023,-35.8604,4.4776,16.9261,-0.596162,-1.22672,-0.573228,1,0,-124.548,7.9975,-7.665,-0.56059,-0.629886,-1.39092,-0.04704,0.0805,0.54292
24.9007,0,0,5,5,39.9007,39.9007,-35.5724,4.40777,17.1517,-0.225752,-0.47627,-0.255355,0,0,-127.348,8.3825,-1.33,-0.189832,0.115778,-1.07848,-0.04704,0.0805,0.54292
24.6892,0,0,5,5,39.6892,39.6892,-35.2702,4.33205,17.3819,-0.224434,-0.472043,-0.252225,0,0,-117.32,3.99,-0.84,-0.189832,0.115778,-1.07848,-0.04704,0.0805,0.54292
24.8338,0,0,5,5,39.8338,39.8338,-35.4769,4.33524,17.3781,0.137781,-0.177229,-0.432709,1,0,-112.158,2.8175,-1.05,0.173972,0.413214,-1.2555,-0.04704,0.0805,0.54292
24.9878,0,0,5,5,39.9878,39.9878,-35.6969,4.33475,17.3665,0.137789,-0.180342,-0.434936,1,0,-119.28,3.71,-5.9675,0.173972,0.413214,-1.2555,-0.04704,0.0805,0.54292
24.5541,0,0,5,5,39.5541,39.5541,-35.0773,4.23072,17.5264,-0.302851,-0.918801,-0.0475637,0,0,-123.83,5.565,-7.035,-0.270352,-0.333182,-0.877424,-0.04704,0.0805,0.54292
24.1271,0,0,5,5,39.1271,39.1271,-34.4672,4.12792,17.6878,-0.301062,-0.910153,-0.0414,0,0,-126,6.0725,-4.9525,-0.270352,-0.333182,-0.877424,-0.04704,0.0805,0.54292
24.4816,0,0,5,5,39.4816,39.4816,-34.9737,4.33296,17.5371,0.377998,0.0298445,0.283232,0,0,-126.823,6.3,-3.8675,0.415166,0.612928,-0.550098,-0.04704,0.0805,0.54292
24.8192,0,0,5,5,39.8192,39.8192,-35.4559,4.53153,17.3891,0.374542,0.0231436,0.278175,0,0,-117.565,4.34,-3.5525,0.415166,0.612928,-0.550098,-0.04704,0.0805,0.54292
24.976,0,0,5,5,39.976,39.976,-35.68,4.53008,17.3804,0.351485,0.670908,-0.903781,1,0,-121.643,2.275,-4.935,0.391986,1.26319,-1.72069,-0.05544,0.09212,0.5327
25.1504,0,0,5,5,40.1504,40.1504,-35.9291,4.53171,17.3655,-0.546079,-1.26477,0.0261221,1,0,-135.485,5.8625,-6.79,-0.50935,-0.666974,-0.79544,-0.05544,0.09212,0.5327
25.3302,0,0,5,5,40.3302,40.3302,-36.1859,4.54138,17.3494,-0.546248,-1.26838,0.0234815,1,0,-139.703,10.08,-4.515,-0.50935,-0.666974,-0.79544,-0.05544,0.09212,0.5327
25.5078,0,0,5,5,40.5078,40.5078,-36.4398,4.55317,17.3378,0.375016,-0.748126,0.250644,1,0,-138.233,9.59,-1.6975,0.41602,-0.143716,-0.567422,-0.05544,0.09212,0.5327
25.6717,0,0,5,5,40.6717,40.6717,-36.6738,4.55388,17.3354,0.375004,-0.751396,0.248218,1,0,-127.54,1.155,-1.1725,0.41602,-0.143716,-0.567422,-0.05544,0.09212,0.5327
25.8414,0,0,5,5,40.8414,40.8414,-36.9163,4.55039,17.3305,-0.622333,-0.650481,-0.382818,1,0,-132.16,0.07,-3.815,-0.5856,-0.039528,-1.19109,-0.05544,0.09212,0.5327
26.0253,0,0,5,5,41.0253,41.0253,-37.179,4.55066,17.3115,-0.622338,-0.654129,-0.385572,1,0,-142.905,6.8075,-9.03,-0.5856,-0.039528,-1.19109,-0.05544,0.09212,0.5327
26.2127,0,0,5,5,41.2127,41.2127,-37.4468,4.55372,17.2904,0.419106,-0.314167,0.432405,1,0,-145.618,8.9075,-9.0125,0.460306,0.30378,-0.376614,-0.05544,0.09212,0.5327
26.3918,0,0,5,5,41.3918,41.3918,-37.7026,4.56201,17.2771,0.418962,-0.317688,0.429681,1,0,-139.283,8.575,-3.4825,0.460306,0.30378,-0.376614,-0.05446,0.11704,0.52864
26.563,0,0,5,5,41.563,41.563,-37.9472,4.57069,17.2671,0.0942009,-0.561997,-0.453372,1,0,-133.123,7.595,-1.8025,0.134322,0.063074,-1.25026,-0.05446,0.11704,0.52864
26.742,0,0,5,5,41.742,41.742,-38.2028,4.56895,17.2542,0.0942312,-0.565499,-0.456112,1,0,-139.16,3.85,-6.86,0.134322,0.063074,-1.25026,-0.05446,0.11704,0.52864
26.9347,0,0,5,5,41.9347,41.9347,-38.4781,4.56384,17.2377,0.993922,-0.801057,0.152591,1,0,-150.045,3.605,-9.66,1.03773,-0.168482,-0.643306,-0.05446,0.11704,0.52864
27.134,0,0,5,5,42.134,42.134,-38.7629,4.56494,17.2207,0.993902,-0.804927,0.149497,1,0,-155.348,6.72,-7.665,1.03773,-0.168482,-0.643306,-0.05446,0.11704,0.52864
27.3279,0,0,5,5,42.3279,42.3279,-39.0399,4.57298,17.2055,0.0126442,-0.16201,0.0623649,1,0,-151.095,9.2225,-4.235,0.05246,0.477508,-0.726754,-0.05446,0.11704,0.52864
27.5079,0,0,5,5,42.5079,42.5079,-39.297,4.58492,17.1937,0.0124364,-0.165467,0.0595272,1,0,-140.035,9.7825,-1.2425,0.05246,0.477508,-0.726754,-0.05446,0.11704,0.52864
27.6915,0,0,5,5,42.6915,42.6915,-39.5593,4.58923,17.1833,-0.00112343,0.0254377,-0.798482,1,0,-143.028,5.81,-3.395,0.038918,0.671732,-1.57526,-0.05446,0.11704,0.52864
27.894,0,0,5,5,42.894,42.894,-39.8486,4.5777,17.176,-0.000922949,0.0215545,-0.801686,1,0,-158.34,-2.5025,-7.84,0.038918,0.671732,-1.57526,-0.0476,0.13342,0.5236
28.1002,0,0,5,5,43.1002,43.1002,-40.1432,4.57169,17.1617,-0.530374,-0.939362,0.390578,1,0,-160.948,2.695,-8.9775,-0.49288,-0.28426,-0.388936,-0.0476,0.13342,0.5236
28.3041,0,0,5,5,43.3041,43.3041,-40.4344,4.58149,17.1422,-0.530545,-0.943218,0.387291,1,0,-158.83,11.7425,-5.2675,-0.49288,-0.28426,-0.388936,-0.0476,0.13342,0.5236
28.5005,0,0,5,5,43.5005,43.5005,-40.715,4.59263,17.1272,-0.137004,-0.438379,-0.462027,1,0,-153.073,10.6225,-2.6775,-0.097478,0.223748,-1.22854,-0.0476,0.13342,0.5236
28.6982,0,0,5,5,43.6982,43.6982,-40.9974,4.5943,17.1164,-0.137033,-0.442095,-0.465243,1,0,-154.315,4.8825,-4.445,-0.097478,0.223748,-1.22854,-0.0476,0.13342,0.5236
28.9072,0,0,5,5,43.9072,43.9072,-41.296,4.58703,17.1053,-0.295323,-1.41191,-0.261976,1,0,-163.31,1.0325,-7.945,-0.256566,-0.74115,-1.02346,-0.0476,0.13342,0.5236
29.1342,0,0,5,5,44.1342,44.1342,-41.6203,4.58285,17.0826,-0.295251,-1.41615,-0.265708,1,0,-177.275,6.965,-11.8475,-0.256566,-0.74115,-1.02346,-0.0476,0.13342,0.5236
29.3608,0,0,5,5,44.3608,44.3608,-41.944,4.58727,17.0594,-0.469903,-1.10574,-0.513887,1,0,-176.873,10.955,-8.6625,-0.43188,-0.426878,-1.26599,-0.0476,0.13342,0.5236
29.5594,0,0,5,5,44.5594,44.5594,-42.2277,4.60368,17.0447,-0.470188,-1.10939,-0.517212,1,0,-154.84,12.88,-0.2275,-0.43188,-0.426878,-1.26599,-0.0518,0.14672,0.51324
29.7561,0,0,5,5,44.7561,44.7561,-42.5087,4.6197,17.0312,0.420388,0.399187,-0.792239,1,0,-153.37,12.25,0.175,0.462746,1.08373,-1.53561,-0.0518,0.14672,0.51324
29.9768,0,0,5,5,44.9768,44.9768,-42.824,4.61283,17.017,0.420507,0.395148,-0.795949,1,0,-172.55,2.6425,-9.0825,0.462746,1.08373,-1.53561,-0.0518,0.14672,0.51324
30.2085,0,0,5,5,45.2085,45.2085,-43.155,4.59768,17.0039,-0.203423,-1.06507,-0.0689306,1,0,-181.423,-1.295,-11.9,-0.16409,-0.370758,-0.810324,-0.0518,0.14672,0.51324
30.435,0,0,5,5,45.435,45.435,-43.4785,4.59812,16.9876,-0.20343,-1.06917,-0.0727929,1,0,-177.118,6.72,-7.035,-0.16409,-0.370758,-0.810324,-0.0518,0.14672,0.51324
30.6475,0,0,5,5,45.6475,45.6475,-43.7822,4.60918,16.9698,-0.461415,-0.805647,-0.0658756,1,0,-165.883,11.865,-3.36,-0.422974,-0.1037,-0.799832,-0.0518,0.14672,0.51324
30.8584,0,0,5,5,45.8584,45.8584,-44.0835,4.6213,16.9462,-0.461626,-0.809409,-0.0695244,1,0,-164.29,14.665,-5.285,-0.422974,-0.1037,-0.799832,-0.0518,0.14672,0.51324
31.0842,0,0,5,5,46.0842,46.0842,-44.4061,4.62176,16.9254,-0.377323,-1.28301,-0.929654,1,0,-176.348,8.68,-8.8025,-0.338306,-0.57279,-1.64944,-0.0518,0.14672,0.51324
31.3332,0,0,5,5,46.3332,46.3332,-44.7617,4.60385,16.9198,-0.377012,-1.28743,-0.933979,1,0,-195.598,-5.1975,-9.9575,-0.338306,-0.57279,-1.64944,-0.05152,0.17388,0.51744
31.5897,0,0,5,5,46.5897,46.5897,-45.1281,4.59626,16.9067,-0.416727,0.803745,-0.227217,1,0,-201.268,2.24,-8.82,-0.378322,1.52073,-0.94367,-0.05152,0.17388,0.51744
31.8191,0,0,5,5,46.8191,46.8191,-45.4558,4.61194,16.8864,-0.417,0.79975,-0.231284,1,0,-179.235,14.91,-2.135,-0.378322,1.52073,-0.94367,-0.05152,0.17388,0.51744
32.0362,0,0,5,5,47.0362,47.0362,-45.766,4.62587,16.8696,-1.93338,-0.104451,-2.21659,1,0,-169.575,12.7225,-1.3475,-1.90088,0.621224,-2.90982,-0.05152,0.17388,0.51744
32.2772,0,0,5,5,47.2772,47.2772,-46.1102,4.62552,16.8539,-1.93338,-0.108616,-2.22089,1,0,-188.738,6.4225,-6.79,-1.90088,0.621224,-2.90982,-0.05152,0.17388,0.51744
31.9389,0,0,5,5,46.9389,46.9389,-45.627,4.42482,17.022,-0.388961,-0.938429,-0.20237,0,0,-195.423,3.0275,-10.78,-0.353434,-0.213378,-0.913048,-0.05152,0.17388,0.51744
31.6187,0,0,5,5,46.6187,46.6187,-45.1696,4.22725,17.1845,-0.385522,-0.933025,-0.19652,0,0,-207.585,5.4075,-10.815,-0.353434,-0.213378,-0.913048,-0.05152,0.17388,0.51744
31.8671,0,0,5,5,46.8671,46.8671,-45.5245,4.23993,17.1659,0.629999,-1.97507,0.209231,1,0,-194.618,12.915,-2.625,0.666608,-1.25001,-0.506056,-0.05152,0.17388,0.51744
32.0928,0,0,5,5,47.0928,47.0928,-45.8468,4.25327,17.1453,0.629767,-1.97897,0.205205,1,0,-176.313,14.0875,-3.1325,0.666608,-1.25001,-0.506056,-0.05152,0.17388,0.51744
32.3385,0,0,5,5,47.3385,47.3385,-46.1978,4.25752,17.1128,1.14443,-0.54932,-0.731513,1,0,-191.853,15.4,-11.6725,1.18352,0.18239,-1.43118,-0.05502,0.21168,0.5117
32.6065,0,0,5,5,47.6065,47.6065,-46.5807,4.23917,17.108,-1.07686,-0.559307,-1.06705,1,0,-210.91,-5.4075,-9.975,-1.04749,0.177022,-1.75936,-0.05502,0.21168,0.5117
32.8738,0,0,5,5,47.8738,47.8738,-46.9625,4.23496,17.0914,-1.07679,-0.563864,-1.07189,1,0,-209.843,5.3725,-8.715,-1.04749,0.177022,-1.75936,-0.05502,0.21168,0.5117
32.4669,0,0,5,5,47.4669,47.4669,-46.3813,4.08934,17.0046,-0.182184,-1.43075,-0.128768,0,0,-195.44,17.465,-2.205,-0.151646,-0.695766,-0.830942,-0.05502,0.21168,0.5117
32.0601,0,0,5,5,47.0601,47.0601,-45.8002,3.94431,16.9164,-0.179659,-1.42386,-0.121356,0,0,-195.44,17.465,-2.205,-0.151646,-0.695766,-0.830942,-0.05502,0.21168,0.5117
32.3249,0,0,5,5,47.3249,47.3249,-46.1785,3.94099,16.8937,1.29985,-1.17173,0.560085,1,0,-207.655,8.1725,-10.8675,1.33407,-0.439322,-0.15006,-0.05502,0.21168,0.5117
32.5897,0,0,5,5,47.5897,47.5897,-46.5568,3.93753,16.8711,1.29991,-1.17628,0.55532,1,0,-207.655,8.1725,-10.8675,1.33407,-0.439322,-0.15006,-0.05502,0.21168,0.5117
32.8783,0,0,5,5,47.8783,47.8783,-46.969,3.93538,16.8533,-0.343631,-0.841074,-0.424889,1,0,-226.888,6.7025,-8.3125,-0.316468,-0.099552,-1.11752,-0.05166,0.22442,0.50624
33.1464,0,0,5,5,48.1464,48.1464,-47.352,3.94944,16.8282,1.52044,0.547259,-0.078158,1,0,-210.21,16.3625,-4.235,1.55574,1.29186,-0.7686,-0.05166,0.22442,0.50624
33.4101,0,0,5,5,48.4101,48.4101,-47.7287,3.94886,16.81,3.8757,3.25099,2.91609,1,0,-206.903,7.595,-7.7,3.92096,3.99721,2.20735,-0.05166,0.22442,0.50624
33.7076,0,0,5,5,48.7076,48.7076,-48.1537,3.9429,16.7932,3.8758,3.24603,2.9106,1,0,-234.098,4.9525,-9.45,3.92096,3.99721,2.20735,-0.05166,0.22442,0.50624
34.0071,0,0,5,5,49.0071,49.0071,-48.5815,3.91492,16.7993,2.27584,0.0644165,-1.7124,1,0,-236.513,-13.5625,-10.15,2.31373,0.823866,-2.37449,-0.05166,0.22442,0.50624
34.2902,0,0,5,5,49.2902,49.2902,-48.986,3.93063,16.7671,2.27556,0.0597894,-1.71771,1,0,-222.005,20.2475,-5.7925,2.31373,0.823866,-2.37449,-0.05166,0.22442,0.50624
34.5528,0,0,5,5,49.5528,49.5528,-49.3611,3.95632,16.7354,-2.21888,-2.58069,-1.54194,1,0,-205.52,23.835,-1.015,-2.19929,-1.80963,-2.19515,-0.05166,0.22442,0.50624
34.8479,0,0,5,5,49.8479,49.8479,-49.7828,3.96028,16.7106,-2.21895,-2.58544,-1.54753,1,0,-231.858,12.53,-7.91,-2.19929,-1.80963,-2.19515,-0.05166,0.22442,0.50624
35.1702,0,0,5,5,50.1702,50.1702,-50.2431,3.97212,16.6744,0.051651,-2.01121,-1.96101,1,0,-253.12,20.7025,-8.5925,0.08113,-1.23086,-2.59933,-0.05474,0.2541,0.48902
35.4811,0,0,5,5,50.4811,50.4811,-50.6872,3.94929,16.6777,-1.18808,-2.52164,-0.287112,1,0,-245.578,-10.0275,-9.345,-1.16425,-1.73582,-0.932446,-0.05474,0.2541,0.48902
35.7682,0,0,5,5,50.7682,50.7682,-51.0974,3.9674,16.6483,-1.18839,-2.52613,-0.292668,1,0,-225.278,20.02,-2.905,-1.16425,-1.73582,-0.932446,-0.05474,0.2541,0.48902
36.0595,0,0,5,5,51.0595,51.0595,-51.5135,3.98741,16.6078,-3.8709,-3.99811,-2.90534,1,0,-228.148,25.795,-5.9325,-3.85776,-3.20177,-3.51933,-0.05474,0.2541,0.48902
36.3724,0,0,5,5,51.3724,51.3724,-51.9605,3.99474,16.5654,-3.87103,-4.00292,-2.91145,1,0,-245.403,22.12,-12.25,-3.85776,-3.20177,-3.51933,-0.05474,0.2541,0.48902
36.7057,0,0,5,5,51.7057,51.7057,-52.4367,3.99846,16.537,-4.00995,0.939474,-2.64039,1,0,-262.29,14.455,-8.7325,-3.99721,1.74057,-3.24386,-0.05474,0.2541,0.48902
37.0285,0,0,5,5,52.0285,52.0285,-52.8979,3.97793,16.5418,-4.0096,0.934584,-2.64676,1,0,-255.203,-9.555,-8.12,-3.99721,1.74057,-3.24386,-0.05474,0.2541,0.48902
37.3371,0,0,5,5,52.3371,52.3371,-53.3387,3.99058,16.5216,1.46858,2.99723,-1.97017,1,0,-242.795,13.895,-1.47,1.50438,3.80567,-2.56639,-0.05474,0.2541,0.48902
37.6411,0,0,5,5,52.6411,52.6411,-53.773,3.99568,16.5125,1.46849,2.99274,-1.97626,1,0,-239.575,6.0725,-1.085,1.50438,3.80567,-2.56639,-0.05726,0.27846,0.47656
37.956,0,0,5,5,52.956,52.956,-54.2229,4.01144,16.4631,3.95054,2.66818,4.41329,1,0,-246.733,28.77,-9.765,3.99721,3.48603,3.78017,-0.05726,0.27846,0.47656
38.271,0,0,5,5,53.271,53.271,-54.6728,4.02682,16.4136,3.95027,2.66364,4.40691,1,0,-246.733,28.77,-9.765,3.99721,3.48603,3.78017,-0.05726,0.27846,0.47656
38.6187,0,0,5,5,53.6187,53.6187,-55.1695,4.02275,16.3959,-2.5783,-3.45695,-1.94738,1,0,-274.225,7.0875,-8.1725,-2.55907,-2.62324,-2.51808,-0.05726,0.27846,0.47656
38.9664,0,0,5,5,53.9664,53.9664,-55.6662,4.01853,16.3782,-2.57823,-3.46186,-1.9545,1,0,-274.225,7.0875,-8.1725,-2.55907,-2.62324,-2.51808,-0.05726,0.27846,0.47656
39.2842,0,0,5,5,54.2842,54.2842,-56.1203,4.0052,16.3593,-4.01007,-4.8417,-3.45166,1,0,-250.285,4.8125,-12.95,-3.99721,-3.99721,-3.99721,-0.05726,0.27846,0.47656
39.64,0,0,5,5,54.64,54.64,-56.6286,4.00534,16.3022,0.685106,2.69668,1.95476,1,0,-279.16,27.8075,-18.6375,0.717848,3.53824,1.37482,-0.05726,0.27846,0.47656
40.0091,0,0,5,5,55.0091,55.0091,-57.1558,3.9802,16.3071,0.685544,2.69164,1.94709,1,0,-292.233,-10.4475,-11.0425,0.717848,3.53824,1.37482,-0.05726,0.27846,0.47656
40.3414,0,0,5,5,55.3414,55.3414,-57.6305,3.96097,16.3053,2.22049,-4.85611,4.43304,1,0,-262.518,-5.1975,-10.325,2.25895,-3.99721,3.84849,-0.06552,0.29974,0.45486
40.6966,0,0,5,5,55.6966,55.6966,-58.138,3.98049,16.2568,2.22015,-4.86079,4.42555,1,0,-279.073,30.0825,-5.67,2.25895,-3.99721,3.84849,-0.06552,0.29974,0.45486
41.0378,0,0,5,5,56.0378,56.0378,-58.6254,3.95873,16.2463,-2.70475,-1.89245,0.320215,1,0,-269.273,-1.4525,-14.3325,-2.68717,-1.02748,-0.218014,-0.06552,0.29974,0.45486
41.3789,0,0,5,5,56.3789,56.3789,-59.1127,3.93689,16.236,-2.70437,-1.89686,0.312965,1,0,-269.273,-1.4525,-14.3325,-2.68717,-1.02748,-0.218014,-0.06552,0.29974,0.45486
41.7621,0,0,5,5,56.7621,56.7621,-59.6602,3.90319,16.2505,-1.20744,-1.90884,1.09682,1,0,-303.94,-17.36,-12.9325,-1.1845,-1.03456,0.56791,-0.06552,0.29974,0.45486
42.1191,0,0,5,5,57.1191,57.1191,-60.1702,3.87527,16.2495,3.89617,2.05531,0.724974,1,0,-282.328,-7.7,-14.7,3.94023,2.92995,0.206546,-0.06552,0.29974,0.45486
42.4907,0,0,5,5,57.4907,57.4907,-60.701,3.89118,16.2012,3.8959,2.05077,0.716925,1,0,-292.198,29.155,-6.1075,3.94023,2.92995,0.206546,-0.06552,0.29974,0.45486
42.845,0,0,5,5,57.845,57.845,-61.2072,3.87534,16.1812,3.95291,2.76434,-0.153378,1,0,-279.475,5.6875,-14.035,3.99721,3.64707,-0.649406,-0.06552,0.29974,0.45486
43.2555,0,0,5,5,58.2555,58.2555,-61.7936,3.89326,16.112,3.95259,2.75948,-0.162362,1,0,-322.578,40.5475,-10.3425,3.99721,3.64707,-0.649406,-0.06048,0.31766,0.43568
43.6467,0,0,5,5,58.6467,58.6467,-62.3525,3.87108,16.114,3.71827,-4.89732,-3.1372,1,0,-309.855,-7.1225,-11.2,3.7615,-3.99721,-3.59278,-0.06048,0.31766,0.43568
43.9905,0,0,5,5,58.9905,58.9905,-62.8436,3.85476,16.099,3.71855,-4.90127,-3.14479,1,0,-271.215,3.395,-12.7925,3.7615,-3.99721,-3.59278,-0.06048,0.31766,0.43568
44.3619,0,0,5,5,59.3619,59.3619,-63.3742,3.85899,16.065,1.1312,-2.74429,-3.5606,1,0,-292.635,18.8475,-7.07,1.16327,-1.8383,-3.99721,-0.06048,0.31766,0.43568
44.7533,0,0,5,5,59.7533,59.7533,-63.9333,3.83738,16.0374,1.13158,-2.74863,-3.56932,1,0,-308.893,8.8375,-18.7425,1.16327,-1.8383,-3.99721,-0.06048,0.31766,0.43568
45.1583,0,0,5,5,60.1583,60.1583,-64.5119,3.84088,15.969,-3.55188,2.20411,-3.57839,1,0,-318.238,36.9075,-15.8025,-3.53995,3.11368,-3.99721,-0.06048,0.31766,0.43568
45.4852,0,0,5,5,60.4852,60.4852,-64.9789,3.82508,15.9743,-3.55161,2.20063,-3.58574,1,0,-258.475,-6.755,-7.3325,-3.53995,3.11368,-3.99721,-0.06048,0.31766,0.43568
45.78,0,0,5,5,60.78,60.78,-65.4,3.79633,15.9909,3.23812,3.08196,-3.50644,1,0,-233.17,-15.89,-11.48,3.27802,3.99721,-3.91193,-0.06048,0.31766,0.43568
46.1662,0,0,5,5,61.1662,61.1662,-65.9517,3.79804,15.9434,3.23809,3.07801,-3.5152,1,0,-303.958,25.725,-10.7975,3.27802,3.99721,-3.91193,-0.06328,0.35056,0.41328
46.5349,0,0,5,5,61.5349,61.5349,-66.4784,3.78189,15.918,-2.95897,1.58752,-0.927525,1,0,-290.78,9.7475,-14.8925,-2.94557,2.51198,-1.3359,-0.06328,0.35056,0.41328
46.8829,0,0,5,5,61.8829,61.8829,-66.9756,3.79003,15.8906,-2.95912,1.58411,-0.935485,1,0,-274.225,16.5725,-2.24,-2.94557,2.51198,-1.3359,-0.06328,0.35056,0.41328
47.197,0,0,5,5,62.197,62.197,-67.4243,3.78709,15.8824,-3.61594,-2.31391,-2.17549,1,0,-247.66,3.745,-3.745,-3.60522,-1.37897,-2.55919,-0.06328,0.35056,0.41328
47.5236,0,0,5,5,62.5236,62.5236,-67.8908,3.77398,15.841,-3.61571,-2.31702,-2.183,1,0,-256.463,19.4775,-16.555,-3.60522,-1.37897,-2.55919,-0.06328,0.35056,0.41328
47.8621,0,0,5,5,62.8621,62.8621,-68.3744,3.76092,15.8226,-3.23912,-1.27757,-1.0453,1,0,-266.893,7.1225,-11.375,-3.22727,-0.337452,-1.42252,-0.06328,0.35056,0.41328
48.2048,0,0,5,5,63.2048,63.2048,-68.864,3.75031,15.7828,-3.23894,-1.28069,-1.05323,1,0,-269.5,19.4075,-14.525,-3.22727,-0.337452,-1.42252,-0.06328,0.35056,0.41328
48.536,0,0,5,5,63.536,63.536,-69.3371,3.75109,15.7397,3.95507,-0.996386,2.52425,1,0,-260.085,23.73,-8.855,3.99721,-0.050508,2.135,-0.06328,0.35056,0.41328
48.7981,0,0,5,5,63.7981,63.7981,-69.7115,3.75232,15.7364,3.95505,-0.998666,2.51814,1,0,-206.238,2.03,-0.2975,3.99721,-0.050508,2.135,-0.06454,0.36078,0.36834
49.0631,0,0,5,5,64.0631,64.0631,-70.0902,3.72905,15.7132,2.2453,-4.47937,1.42755,1,0,-207.9,8.05,-17.71,2.27981,-3.52531,1.05896,-0.06454,0.36078,0.36834
49.3838,0,0,5,5,64.3838,64.3838,-70.5483,3.71517,15.6811,2.24554,-4.48207,1.42004,1,0,-252.105,14.91,-14.2275,2.27981,-3.52531,1.05896,-0.06454,0.36078,0.36834
49.7113,0,0,5,5,64.7113,64.7113,-71.0162,3.70864,15.6419,3.51737,-3.48174,-0.407167,1,0,-257.32,20.3875,-11.4275,3.55691,-2.52333,-0.746518,-0.06454,0.36078,0.36834
50.0149,0,0,5,5,65.0149,65.0149,-71.4498,3.72361,15.6008,3.51711,-3.48415,-0.414324,1,0,-238.07,25.5675,0.2625,3.55691,-2.52333,-0.746518,-0.06454,0.36078,0.36834
50.2812,0,0,5,5,65.2812,65.2812,-71.8304,3.73257,15.5869,-0.470818,-4.76489,-0.201646,1,0,-209.283,9.3625,2.1,-0.44774,-3.80067,-0.529236,-0.06454,0.36078,0.36834
50.5224,0,0,5,5,65.5224,65.5224,-72.1749,3.71294,15.5794,-0.470476,-4.76677,-0.207346,1,0,-189.333,0.595,-12.5475,-0.44774,-3.80067,-0.529236,-0.06454,0.36078,0.36834
50.7999,0,0,5,5,65.7999,65.7999,-72.5712,3.7043,15.5587,-3.33593,-0.691423,-1.03509,1,0,-217.893,10.01,-8.7675,-3.32548,0.272548,-1.34407,-0.06454,0.36078,0.36834
51.0586,0,0,5,5,66.0586,66.0586,-72.9408,3.70498,15.532,-3.33594,-0.693331,-1.04124,1,0,-202.703,15.0325,-4.55,-3.32548,0.272548,-1.34407,-0.06454,0.36078,0.36834
51.3128,0,0,5,5,66.3128,66.3128,-73.304,3.71465,15.5142,-0.724897,-0.932083,0.47886,1,0,-199.413,11.6025,2.0825,-0.703208,0.035868,0.170312,-0.07336,0.36708,0.34776
51.5257,0,0,5,5,66.5257,66.5257,-73.6081,3.71328,15.5183,-0.724873,-0.933592,0.473784,1,0,-167.055,-2.52,-0.4025,-0.703208,0.035868,0.170312,-0.07336,0.36708,0.34776
51.7409,0,0,5,5,66.7409,66.7409,-73.9156,3.69631,15.5181,1.27581,2.53158,-2.99162,1,0,-168.858,-2.66,-9.8525,1.30564,3.49896,-3.26326,-0.07336,0.36708,0.34776
51.9701,0,0,5,5,66.9701,66.9701,-74.2431,3.70404,15.5062,1.27567,2.53003,-2.9971,1,0,-179.585,7.8925,2.135,1.30564,3.49896,-3.26326,-0.07336,0.36708,0.34776
52.1827,0,0,5,5,67.1827,67.1827,-74.5468,3.71524,15.4892,2.79611,-2.63051,-1.04449,1,0,-166.093,11.375,3.3075,2.83272,-1.65481,-1.32065,-0.07336,0.36708,0.34776
52.4027,0,0,5,5,67.4027,67.4027,-74.8611,3.72432,15.4873,2.79595,-2.63194,-1.04977,1,0,-172.585,2.4325,4.515,2.83272,-1.65481,-1.32065,-0.07336,0.36708,0.34776
52.5945,0,0,5,5,67.5945,67.5945,-75.1351,3.71653,15.4939,1.07002,-0.507325,-0.369066,1,0,-150.29,-4.8825,-3.71,1.09934,0.468846,-0.640622,-0.07336,0.36708,0.34776
52.7592,0,0,5,5,67.7592,67.7592,-75.3703,3.71033,15.4992,1.07013,-0.508375,-0.373026,1,0,-128.503,-3.92,-3.0275,1.09934,0.468846,-0.640622,-0.07336,0.36708,0.34776
52.9334,0,0,5,5,67.9334,67.9334,-75.6192,3.71358,15.4915,0.646209,-1.7074,-1.45733,1,0,-135.73,4.83,0.4025,0.673684,-0.727852,-1.71239,-0.08428,0.38332,0.3304
53.1113,0,0,5,5,68.1113,68.1113,-75.8733,3.72625,15.4883,0.489879,-1.88788,-0.635037,1,0,-138.793,3.605,6.405,0.516914,-0.90707,-0.892186,-0.08428,0.38332,0.3304
53.2736,0,0,5,5,68.2736,68.2736,-76.1052,3.73771,15.4815,-0.761137,-2.53428,-2.6065,1,0,-126.193,5.495,5.215,-0.739198,-1.55184,-2.84455,-0.08428,0.38332,0.3304
53.4109,0,0,5,5,68.4109,68.4109,-76.3013,3.73723,15.4894,0.239428,-1.97832,-1.53845,1,0,-106.698,-4.55,0.5075,0.265594,-0.995642,-1.78144,-0.08428,0.38332,0.3304
53.5452,0,0,5,5,68.5452,68.5452,-76.4932,3.74347,15.4902,-1.76155,-2.1204,0.552362,1,0,-104.02,0.385,3.3425,-1.74375,-1.1368,0.29646,-0.08428,0.38332,0.3304
53.6584,0,0,5,5,68.6584,68.6584,-76.6549,3.75299,15.4835,0.667026,-2.23792,0.31024,1,0,-86.835,5.1275,4.1825,0.695278,-1.25355,0.058926,-0.08428,0.38332,0.3304
53.7666,0,0,5,5,68.7666,68.7666,-76.8094,3.7615,15.4864,0.715107,-2.69748,-0.349665,1,0,-83.195,-0.5425,4.9175,0.743712,-1.71203,-0.593286,-0.08428,0.38332,0.3304
53.8731,0,0,5,5,68.8731,68.8731,-76.9616,3.77275,15.4999,0.376331,-1.9305,-0.631219,1,0,-82.25,-6.1775,7.8575,0.403698,-0.945256,-0.870104,-0.08428,0.38332,0.3304
53.5711,0,0,5,5,68.5711,68.5711,-76.5302,3.5211,15.5073,0.210513,-1.74281,-0.385443,0,0,-74.025,-6.9125,0.7175,0.232776,-0.759206,-0.633546,-0.0826,0.38724,0.31752
53.661,0,0,5,5,68.661,68.661,-76.6585,3.51825,15.5082,-1.09031,-2.05927,-0.864043,1,0,-68.4425,-0.91,-1.8025,-1.0736,-1.07482,-1.1063,-0.0826,0.38724,0.31752
53.7236,0,0,5,5,68.7236,68.7236,-76.7481,3.52966,15.5026,-1.09051,-2.05962,-0.865564,1,0,-46.445,4.69,5.425,-1.0736,-1.07482,-1.1063,-0.0826,0.38724,0.31752
53.7831,0,0,5,5,68.7831,68.7831,-76.833,3.54205,15.5009,-0.089679,-2.07411,-0.449721,1,0,-44.0125,2.66,6.4925,-0.06832,-1.08897,-0.692228,-0.0826,0.38724,0.31752
53.8589,0,0,5,5,68.8589,68.8589,-76.9413,3.54565,15.5034,-0.0897416,-2.07454,-0.451558,1,0,-57.225,-0.9625,2.065,-0.06832,-1.08897,-0.692228,-0.0826,0.38724,0.31752
53.9348,0,0,5,5,68.9348,68.9348,-77.0497,3.54776,15.507,-1.19396,-1.57851,0.0208133,1,0,-57.3475,-1.8025,1.365,-1.17718,-0.593042,-0.221674,-0.0826,0.38724,0.31752
53.9633,0,0,5,5,68.9633,68.9633,-77.0904,3.54737,15.5094,-1.19396,-1.57867,0.0201224,1,0,-19.3375,-1.3825,-0.2275,-1.17718,-0.593042,-0.221674,-0.0826,0.38724,0.31752
53.7279,0,0,5,5,68.7279,68.7279,-76.7542,3.42068,15.3927,0.48767,-1.62743,-0.215613,0,0,-18.41,6.72,0.91,0.50935,-0.64294,-0.461282,-0.0826,0.38724,0.31752
53.4952,0,0,5,5,68.4952,68.4952,-76.4218,3.2864,15.3141,0.49001,-1.62622,-0.209947,0,0,-22.085,-1.54,4.83,0.50935,-0.64294,-0.461282,-0.06944,0.39466,0.30674
53.4054,0,0,5,5,68.4054,68.4054,-76.2935,3.24673,15.3647,0.308594,-1.87316,0.152228,0,0,-15.645,-0.3675,3.815,0.326472,-0.890112,-0.104066,-0.06944,0.39466,0.30674
53.2991,0,0,5,5,68.2991,68.2991,-76.1415,3.20515,15.4157,0.309319,-1.87257,0.154809,0,0,-3.29,-1.7675,3.325,0.326472,-0.890112,-0.104066,-0.06944,0.39466,0.30674
53.3078,0,0,5,5,68.3078,68.3078,-76.1541,3.21386,15.4196,-0.388404,-1.43442,-1.09591,1,0,-3.5875,-0.98,5.1625,-0.374052,-0.452376,-1.34493,-0.06944,0.39466,0.30674
53.33,0,0,5,5,68.33,68.33,-76.1857,3.22943,15.4224,-0.388675,-1.43454,-1.09645,1,0,-14.28,0.56,8.9075,-0.374052,-0.452376,-1.34493,-0.06944,0.39466,0.30674
53.3437,0,0,5,5,68.3437,68.3437,-76.2053,3.2412,15.4288,0.551419,-2.60018,-0.49766,1,0,-7.63,-1.96,7.245,0.570228,-1.61674,-0.750422,-0.06944,0.39466,0.30674
53.3467,0,0,5,5,68.3467,68.3467,-76.2096,3.25338,15.4447,0.551207,-2.60019,-0.497735,1,0,0.665,-7.35,8.8025,0.570228,-1.61674,-0.750422,-0.06944,0.39466,0.30674
53.3466,0,0,5,5,68.3466,68.3466,-76.2094,3.2693,15.4551,-0.223542,-2.93553,0.193972,1,0,3.325,-3.675,10.15,-0.207522,-1.95176,-0.06405,-0.06944,0.39466,0.30674
53.3383,0,0,5,5,68.3383,68.3383,-76.1976,3.28306,15.4737,-0.223782,-2.93547,0.194169,1,0,9.59,-8.68,10.08,-0.207522,-1.95176,-0.06405,-0.06482,0.38682,0.30464
53.3286,0,0,5,5,68.3286,68.3286,-76.1836,3.29613,15.4908,-0.720036,-1.91662,-0.709392,1,0,10.8325,-7.8575,9.4675,-0.705648,-0.934032,-0.960872,-0.06482,0.38682,0.30464
53.311,0,0,5,5,68.311,68.311,-76.1586,3.31172,15.5016,-0.720307,-1.9165,-0.708972,1,0,17.2725,-3.9725,10.0275,-0.705648,-0.934032,-0.960872,-0.06482,0.38682,0.30464
53.2915,0,0,5,5,68.2915,68.2915,-76.1307,3.32722,15.5202,-0.0668629,-1.7195,0.0724649,1,0,18.585,-8.365,11.06,-0.049166,-0.737368,-0.185928,-0.06482,0.38682,0.30464
53.2709,0,0,5,5,68.2709,68.2709,-76.1013,3.34371,15.5419,-0.0671503,-1.71936,0.0729573,1,0,19.3025,-10.045,12.075,-0.049166,-0.737368,-0.185928,-0.06482,0.38682,0.30464
53.2538,0,0,5,5,68.2538,68.2538,-76.0769,3.35989,15.5553,-0.357175,-1.55962,-0.302487,1,0,16.8175,-5.3375,10.7275,-0.340136,-0.577914,-0.558882,-0.06482,0.38682,0.30464
53.2449,0,0,5,5,68.2449,68.2449,-76.0642,3.37391,15.5666,-0.35742,-1.55956,-0.302275,1,0,10.325,-4.3925,9.205,-0.340136,-0.577914,-0.558882,-0.06482,0.38682,0.30464
53.2343,0,0,5,5,68.2343,68.2343,-76.0489,3.38757,15.5776,0.397133,-1.70823,-0.859838,1,0,11.7425,-4.3575,8.9775,0.41785,-0.72651,-1.1124,-0.06482,0.38682,0.30464
53.2171,0,0,5,5,68.2171,68.2171,-76.0244,3.40197,15.6059,0.396882,-1.70811,-0.859426,1,0,16.3975,-14,11.8125,0.41785,-0.72651,-1.1124,-0.07014,0.3829,0.30982
53.196,0,0,5,5,68.196,68.196,-75.9943,3.41511,15.6329,0.513036,-2.72516,0.0994616,1,0,19.495,-13.475,10.9375,0.534726,-1.74265,-0.161406,-0.07014,0.3829,0.30982
53.1799,0,0,5,5,68.1799,68.1799,-75.9713,3.42342,15.6513,0.512892,-2.72506,0.0998493,1,0,15.8725,-9.2575,6.9825,0.534726,-1.74265,-0.161406,-0.07014,0.3829,0.30982
53.1631,0,0,5,5,68.1631,68.1631,-75.9472,3.43276,15.6733,0.739664,-1.89778,0.131728,1,0,16.31,-11.1475,8.085,0.762622,-0.916342,-0.130174,-0.07014,0.3829,0.30982
53.1337,0,0,5,5,68.1337,68.1337,-75.9053,3.44044,15.6975,0.73953,-1.8976,0.132434,1,0,26.2325,-12.67,7.4725,0.762622,-0.916342,-0.130174,-0.07014,0.3829,0.30982
53.1044,0,0,5,5,68.1044,68.1044,-75.8634,3.44745,15.724,0.309956,-2.18661,0.399201,1,0,26.1625,-14.035,7.42,0.331352,-1.20524,0.133834,-0.07014,0.3829,0.30982
53.077,0,0,5,5,68.077,68.077,-75.8242,3.45607,15.7476,0.309806,-2.18643,0.399861,1,0,24.7275,-12.145,7.9275,0.331352,-1.20524,0.133834,-0.07014,0.3829,0.30982
53.058,0,0,5,5,68.058,68.058,-75.7971,3.46519,15.7666,-0.102311,-1.25753,-0.398357,1,0,18.13,-9.4675,7.56,-0.08235,-0.277428,-0.658678,-0.07014,0.3829,0.30982
53.0427,0,0,5,5,68.0427,68.0427,-75.7753,3.47417,15.7849,-0.102467,-1.25743,-0.397991,1,0,15.155,-9.0825,7.385,-0.08235,-0.277428,-0.658678,-0.07014,0.3829,0.30982
53.0208,0,0,5,5,68.0208,68.0208,-75.7441,3.48306,15.8043,0.00829426,-1.66544,0.212236,1,0,20.4225,-9.6775,7.49,0.029036,-0.685152,-0.05368,-0.06734,0.38178,0.31206
52.9954,0,0,5,5,67.9954,67.9954,-75.7077,3.49213,15.8282,0.00813631,-1.66527,0.212848,1,0,23.135,-12.285,8.26,0.029036,-0.685152,-0.05368,-0.06734,0.38178,0.31206
52.9691,0,0,5,5,67.9691,67.9691,-75.6701,3.50073,15.8503,-0.194773,-1.83657,0.19344,1,0,23.8875,-11.2875,7.735,-0.174582,-0.85644,-0.073566,-0.06734,0.38178,0.31206
52.9434,0,0,5,5,67.9434,67.9434,-75.6334,3.50993,15.8633,-0.194933,-1.8364,0.194056,1,0,23.6775,-5.985,6.755,-0.174582,-0.85644,-0.073566,-0.06734,0.38178,0.31206
52.8811,0,0,5,5,67.8811,67.8811,-75.5444,3.55783,15.7118,0.697638,-1.5657,0.124603,0,0,22.6975,-5.4775,5.915,0.722606,-0.586454,-0.14396,-0.06734,0.38178,0.31206
52.8067,0,0,5,5,67.8067,67.8067,-75.4382,3.60438,15.565,0.696827,-1.56518,0.126382,0,0,30.7475,-7.98,6.055,0.722606,-0.586454,-0.14396,-0.06734,0.38178,0.31206
52.7686,0,0,5,5,67.7686,67.7686,-75.3837,3.61017,15.5864,0.396414,-2.27107,0.240412,1,0,33.3725,-11.2175,6.09,0.421022,-1.29186,-0.03172,-0.06734,0.38178,0.31206
52.7392,0,0,5,5,67.7392,67.7392,-75.3418,3.61476,15.6047,0.396334,-2.27089,0.241117,1,0,26.39,-9.6775,4.97,0.421022,-1.29186,-0.03172,-0.06734,0.38178,0.31206
52.7144,0,0,5,5,67.7144,67.7144,-75.3062,3.61996,15.6209,0.0349446,-1.75156,0.0670044,1,0,22.9075,-8.4175,5.0225,0.058194,-0.773236,-0.205082,-0.06734,0.3857,0.31262
52.4812,0,0,5,5,67.4812,67.4812,-74.9731,3.51089,15.6715,0.281517,-1.97625,0.0174397,0,0,24.9725,-8.855,4.9175,0.303902,-0.999058,-0.25986,-0.06734,0.3857,0.31262
52.2363,0,0,5,5,67.2363,67.2363,-74.6233,3.39919,15.7256,0.283463,-1.97476,0.0233523,0,0,31.7975,-13.1075,5.355,0.303902,-0.999058,-0.25986,-0.06734,0.3857,0.31262
51.7973,0,0,5,5,66.7973,66.7973,-73.9961,3.12153,15.8334,-0.0254966,-1.90453,-0.269489,0,0,32.655,-11.6025,2.555,-0.011224,-0.931592,-0.560956,-0.06734,0.3857,0.31262
51.3537,0,0,5,5,66.3537,66.3537,-73.3624,2.84103,15.9336,-0.0206075,-1.90167,-0.258818,0,0,32.655,-11.6025,2.555,-0.011224,-0.931592,-0.560956,-0.06734,0.3857,0.31262
51.3221,0,0,5,5,66.3221,66.3221,-73.3174,2.83888,15.9467,0.144893,-1.11776,-0.343514,1,0,28.455,-7.7175,0.6825,0.15494,-0.148718,-0.645746,-0.06734,0.3857,0.31262
51.2906,0,0,5,5,66.2906,66.2906,-73.2723,2.83673,15.9598,0.144931,-1.11754,-0.342761,1,0,28.455,-7.7175,0.6825,0.15494,-0.148718,-0.645746,-0.06734,0.3857,0.31262
51.2437,0,0,5,5,66.2437,66.2437,-73.2052,2.83109,15.976,0.129358,-2.24029,-0.592455,1,0,40.705,-10.045,-0.735,0.139202,-1.27063,-0.894626,-0.06734,0.3857,0.31262
51.1967,0,0,5,5,66.1967,66.1967,-73.1382,2.82544,15.9923,0.129456,-2.23995,-0.591335,1,0,40.705,-10.045,-0.735,0.139202,-1.27063,-0.894626,-0.06776,0.38178,0.30982
51.163,0,0,5,5,66.163,66.163,-73.09,2.82226,15.9984,-0.0114118,-2.33534,-0.539262,1,0,30.38,-3.9725,-1.05,-0.002318,-1.36616,-0.843752,-0.06776,0.38178,0.30982
51.1293,0,0,5,5,66.1293,66.1293,-73.0419,2.81907,16.0045,-0.0113563,-2.33509,-0.538458,1,0,30.38,-3.9725,-1.05,-0.002318,-1.36616,-0.843752,-0.06776,0.38178,0.30982
50.8256,0,0,5,5,65.8256,65.8256,-72.6081,2.67958,15.9773,0.35529,-1.90699,-0.040879,0,0,38.43,-3.2375,0.8225,0.363438,-0.94062,-0.357216,-0.06776,0.38178,0.30982
50.518,0,0,5,5,65.518,65.518,-72.1686,2.53874,15.9458,0.357745,-1.90478,-0.0335416,0,0,38.43,-3.2375,0.8225,0.363438,-0.94062,-0.357216,-0.06776,0.38178,0.30982
50.471,0,0,5,5,65.471,65.471,-72.1015,2.53653,15.9487,0.376371,-1.63147,0.0578168,1,0,41.1075,-2.0475,-1.015,0.382104,-0.66795,-0.267668,-0.06776,0.38178,0.30982
50.424,0,0,5,5,65.424,65.424,-72.0344,2.5343,15.9517,0.37641,-1.63111,0.0589305,1,0,41.1075,-2.0475,-1.015,0.382104,-0.66795,-0.267668,-0.06776,0.38178,0.30982
50.3776,0,0,5,5,65.3776,65.3776,-71.968,2.53431,15.9488,0.525351,-1.00791,0.0126955,1,0,40.8275,1.5925,-0.8225,0.531676,-0.04575,-0.314638,-0.06776,0.38178,0.30982
50.3206,0,0,5,5,65.3206,65.3206,-71.8866,2.53221,15.9517,0.137484,-2.65997,-0.178246,1,0,49.14,-1.9775,-0.9625,0.14213,-1.69653,-0.505446,-0.06958,0.38472,0.3206
50.2607,0,0,5,5,65.2607,65.2607,-71.8009,2.52767,15.9524,0.137563,-2.6595,-0.176826,1,0,51.555,-1.2425,-2.695,0.14213,-1.69653,-0.505446,-0.06958,0.38472,0.3206
50.21,0,0,5,5,65.21,65.21,-71.7286,2.52294,15.9462,0.39228,-1.05669,-0.70787,1,0,44.2925,2.5725,-4.06,0.397842,-0.09577,-1.03358,-0.06958,0.38472,0.3206
50.1593,0,0,5,5,65.1593,65.1593,-71.6562,2.51822,15.94,0.392362,-1.0563,-0.706671,1,0,44.2925,2.5725,-4.06,0.397842,-0.09577,-1.03358,-0.06958,0.38472,0.3206
49.9981,0,0,5,5,64.9981,64.9981,-71.4259,2.529,15.7545,0.606353,-1.57002,0.180643,0,0,53.0425,-0.4025,-1.61,0.612928,-0.610244,-0.156892,-0.06958,0.38472,0.3206
49.8338,0,0,5,5,64.8338,64.8338,-71.1912,2.53924,15.5682,0.606175,-1.56871,0.184518,0,0,53.0425,-0.4025,-1.61,0.612928,-0.610244,-0.156892,-0.06958,0.38472,0.3206
