pid_x,pid_y,pid_z,front_left_speed,front_right_speed,back_left_speed,back_right_speed,orientation_x,orientation_y,orientation_z,acceleration_x,acceleration_y,acceleration_z,accel_rejected,mag_rejected,gyro_x,gyro_y,gyro_z,accel_x,accel_y,accel_z,mag_x,mag_y,mag_z
-0.0223934,0,0,15.0224,15.0224,14.9776,14.9776,0.0159951,0.065865,0.0139756,0.0502828,-0.0137104,0.00399554,0,0,3.395,0.0525,-0.805,0.011346,-0.00183,-1.0087,-0.07406,0.11074,0.46466
-0.045123,0,0,15.0451,15.0451,14.9549,14.9549,0.0322302,0.125565,0.0319261,0.0462037,-0.0137934,-0.00448976,0,0,3.5525,-0.1575,-0.77,0.008296,-0.002196,-1.01711,-0.07406,0.11074,0.46466
-0.0615883,0,0,15.0616,15.0616,14.9384,14.9384,0.0439907,0.183749,0.0496671,0.0453097,-0.00992433,-0.00498443,0,0,3.57,-0.175,-0.805,0.008418,0.001464,-1.0176,-0.07406,0.11074,0.46466
-0.0815892,0,0,15.0816,15.0816,14.9184,14.9184,0.0582764,0.244913,0.0636616,0.0467933,-0.0119954,0.00988812,0,0,3.5175,-0.175,-0.7875,0.01098,-0.000854,-1.00284,-0.07406,0.11074,0.46466
-0.10136,0,0,15.1014,15.1014,14.8986,14.8986,0.0723973,0.304821,0.0773365,0.0457478,-0.011749,0.00988282,0,0,3.5875,-0.105,-0.9625,0.01098,-0.000854,-1.00284,-0.07406,0.11074,0.46466
-0.123996,0,0,15.124,15.124,14.876,14.876,0.088565,0.360021,0.0940069,0.0424761,-0.0137872,0.00286877,0,0,3.465,-0.1925,-0.98,0.008662,-0.003172,-1.00979,-0.07406,0.11074,0.46466
-0.146178,0,0,15.1462,15.1462,14.8538,14.8538,0.104409,0.413984,0.110652,0.0415343,-0.0135107,0.00286194,0,0,3.465,-0.1925,-0.98,0.008662,-0.003172,-1.00979,-0.07406,0.11074,0.46466
-0.162246,0,0,15.1622,15.1622,14.8378,14.8378,0.115884,0.468344,0.128398,0.0424079,-0.00976875,-0.00329317,0,0,3.5175,0.0525,-0.9625,0.010492,0.000366,-1.01589,-0.06804,0.10836,0.4662
-0.182006,0,0,15.182,15.182,14.818,14.818,0.129997,0.521739,0.146224,0.041233,-0.011965,0.00247683,0,0,3.5175,0.07,-0.875,0.010248,-0.002074,-1.01016,-0.06804,0.10836,0.4662
-0.200383,0,0,15.2004,15.2004,14.7996,14.7996,0.143122,0.57447,0.163198,0.0409202,-0.0111253,0.00615593,0,0,3.4825,-0.175,-0.8225,0.010858,-0.001464,-1.0065,-0.06804,0.10836,0.4662
-0.215855,0,0,15.2159,15.2159,14.7841,14.7841,0.154172,0.621906,0.183967,0.0369337,-0.00971124,0.00344192,0,0,3.2725,-0.14,-0.77,0.007686,-0.000244,-1.00918,-0.06804,0.10836,0.4662
-0.231625,0,0,15.2316,15.2316,14.7684,14.7684,0.165434,0.668616,0.204547,0.0361185,-0.00951471,0.00343219,0,0,3.5175,0.0525,-0.8575,0.007686,-0.000244,-1.00918,-0.06804,0.10836,0.4662
-0.250047,0,0,15.25,15.25,14.75,14.75,0.178591,0.718441,0.221535,0.038529,-0.0112392,0.000716111,0,0,3.4825,0.14,-0.8575,0.01098,-0.002196,-1.01187,-0.06804,0.10836,0.4662
-0.267751,0,0,15.2678,15.2678,14.7322,14.7322,0.191234,0.766738,0.238551,0.0376862,-0.0110185,0.000704475,0,0,3.3425,-0.105,-0.8225,0.01098,-0.002196,-1.01187,-0.06804,0.10836,0.4662
-0.280224,0,0,15.2802,15.2802,14.7198,14.7198,0.200142,0.806616,0.267865,0.0314019,-0.00817634,-0.00766611,0,0,3.1675,-0.1575,-0.945,0.005368,0.000488,-1.02016,-0.07252,0.1057,0.46256
-0.299098,0,0,15.2991,15.2991,14.7009,14.7009,0.213621,0.854516,0.289351,0.0368832,-0.0112386,0.00363218,0,0,3.64,-0.0525,-0.98,0.011712,-0.002806,-1.00894,-0.07252,0.1057,0.46256
-0.312057,0,0,15.3121,15.3121,14.6879,14.6879,0.222875,0.903209,0.315952,0.0317815,-0.00765758,0.00140546,0,0,3.6225,4.3575,-0.84,0.007442,0.00061,-1.01114,-0.07252,0.1057,0.46256
-0.326192,0,0,15.3262,15.3262,14.6738,14.6738,0.232969,0.948963,0.337473,0.035478,-0.00870276,0.000162368,0,0,3.43,0,-0.84,0.011956,-0.00061,-1.01236,-0.07252,0.1057,0.46256
-0.339864,0,0,15.3399,15.3399,14.6601,14.6601,0.242732,0.993876,0.358767,0.0346942,-0.00853244,0.000148371,0,0,3.36,0.105,-0.945,0.011956,-0.00061,-1.01236,-0.07252,0.1057,0.46256
-0.353433,0,0,15.3534,15.3534,14.6466,14.6466,0.252421,1.03429,0.382929,0.0311948,-0.00824128,0.00529899,0,0,3.465,-0.0875,-0.91,0.00915,-0.000488,-1.00723,-0.07252,0.1057,0.46256
-0.366945,0,0,15.3669,15.3669,14.6331,14.6331,0.26207,1.07354,0.406886,0.0305099,-0.00807296,0.00528564,0,0,3.5525,-0.245,-0.9975,0.00915,-0.000488,-1.00723,-0.07252,0.1057,0.46256
-0.38331,0,0,15.3833,15.3833,14.6167,14.6167,0.273756,1.11059,0.432649,0.02877,-0.0100674,-0.00185865,0,0,3.465,-0.035,-0.875,0.008052,-0.002684,-1.01431,-0.07252,0.1057,0.46256
-0.398417,0,0,15.3984,15.3984,14.6016,14.6016,0.284544,1.15,0.46032,0.0306335,-0.00926856,-0.000151858,0,0,3.465,0.0525,-0.84,0.010614,-0.002074,-1.0126,-0.06888,0.10234,0.46592
-0.415669,0,0,15.4157,15.4157,14.5843,14.5843,0.296864,1.18461,0.491043,0.0271138,-0.0105192,-0.00348487,0,0,3.5525,-0.07,-1.05,0.007686,-0.003538,-1.01589,-0.06888,0.10234,0.46592
-0.427024,0,0,15.427,15.427,14.573,14.573,0.304971,1.22011,0.519759,0.0280738,-0.00708036,-0.00300681,0,0,3.4125,-0.14,-1.1025,0.009272,-0.000244,-1.01541,-0.06888,0.10234,0.46592
-0.438289,0,0,15.4383,15.4383,14.5617,14.5617,0.313014,1.25496,0.548593,0.0274656,-0.00694009,-0.00302071,0,0,3.465,-0.0525,-0.9975,0.009272,-0.000244,-1.01541,-0.06888,0.10234,0.46592
-0.451081,0,0,15.4511,15.4511,14.5489,14.5489,0.322148,1.28598,0.580509,0.0242517,-0.00787992,-0.0022959,0,0,3.465,0.0175,-0.8925,0.006588,-0.001342,-1.01467,-0.06888,0.10234,0.46592
-0.463398,0,0,15.4634,15.4634,14.5366,14.5366,0.330943,1.31637,0.612293,0.0237214,-0.00772654,-0.00230882,0,0,3.3775,0.0525,-0.9275,0.006588,-0.001342,-1.01467,-0.06888,0.10234,0.46592
-0.472827,0,0,15.4728,15.4728,14.5272,14.5272,0.337674,1.34801,0.642081,0.025356,-0.00602152,-0.00982221,0,0,3.3775,-0.07,-0.84,0.008784,0.000244,-1.02212,-0.06888,0.10234,0.46592
-0.483804,0,0,15.4838,15.4838,14.5162,14.5162,0.345511,1.38428,0.661267,0.0283678,-0.00698401,-0.000739923,0,0,3.3075,0,-0.7875,0.012444,-0.000854,-1.01309,-0.07196,0.10612,0.46662
-0.495459,0,0,15.4955,15.4955,14.5045,14.5045,0.353832,1.41406,0.685781,0.0231102,-0.00757167,-0.00235183,0,0,3.22,0.14,-0.805,0.007686,-0.001586,-1.01467,-0.07196,0.10612,0.46662
-0.503766,0,0,15.5038,15.5038,14.4962,14.4962,0.359762,1.45135,0.702893,0.0287768,-0.00551427,0.000336118,0,0,3.185,0.315,-0.8575,0.01403,0.000366,-1.01199,-0.07196,0.10612,0.46662
-0.511994,0,0,15.512,15.512,14.488,14.488,0.365635,1.48749,0.719934,0.0281463,-0.0054119,0.000319296,0,0,3.22,0.1225,-0.875,0.01403,0.000366,-1.01199,-0.07196,0.10612,0.46662
-0.514876,0,0,15.5149,15.5149,14.4851,14.4851,0.367689,1.50811,0.74993,0.0161239,-0.00183445,0.00301453,0,0,3.3775,-0.035,-0.805,0.002318,0.003904,-1.00931,-0.07196,0.10612,0.46662
-0.517643,0,0,15.5176,15.5176,14.4824,14.4824,0.369662,1.52828,0.779498,0.015772,-0.00180009,0.00300498,0,0,3.36,-0.035,-1.015,0.002318,0.003904,-1.00931,-0.07196,0.10612,0.46662
-0.246352,0,0,15.2464,15.2464,14.7536,14.7536,0.175881,1.49184,0.849217,-0.0223462,0.175445,-0.0289288,0,0,3.3775,-0.035,-0.91,-0.0366,0.184342,-1.04103,-0.07196,0.10612,0.46662
-0.0708436,0,0,15.0708,15.0708,14.9292,14.9292,0.0505172,1.31947,1.04474,-0.152487,0.127216,-0.154627,0,0,3.6925,0.175,-0.98,-0.170312,0.138348,-1.16583,-0.07084,0.10766,0.47376
-0.0696687,0,0,15.0697,15.0697,14.9303,14.9303,0.0496774,1.31921,1.0445,-0.107168,0.0412237,-0.114054,1,0,2.975,-0.175,-1.0325,-0.124806,0.05246,-1.12557,-0.07084,0.10766,0.47376
-0.0696271,0,0,15.0696,15.0696,14.9304,14.9304,0.0496471,1.31961,1.04417,-0.107175,0.0412231,-0.114054,1,0,3.43,0.21,-1.085,-0.124806,0.05246,-1.12557,-0.07084,0.10766,0.47376
-0.290105,0,0,15.2901,15.2901,14.7099,14.7099,0.207129,1.47605,0.955028,0.122254,-0.140318,-0.00396491,0,0,3.535,0.0175,-1.26,0.108336,-0.131638,-1.01626,-0.07084,0.10766,0.47376
-0.50579,0,0,15.5058,15.5058,14.4942,14.4942,0.361186,1.62863,0.866208,0.119592,-0.137631,-0.00405039,0,0,3.36,-0.175,-1.5575,0.108336,-0.131638,-1.01626,-0.07084,0.10766,0.47376
-0.616319,0,0,15.6163,15.6163,14.3837,14.3837,0.440131,1.92225,0.643672,0.225751,-0.0671313,0.0519687,0,0,3.745,0.1575,-1.365,0.220088,-0.062586,-0.960506,-0.07084,0.10766,0.47376
-0.722661,0,0,15.7227,15.7227,14.2773,14.2773,0.516084,2.20887,0.422783,0.220752,-0.0658081,0.0517773,0,0,2.9575,-0.245,-1.0675,0.220088,-0.062586,-0.960506,-0.07084,0.10766,0.47376
-1.13156,0,0,16.1316,16.1316,13.8684,13.8684,0.808145,2.4368,0.264351,0.183611,-0.271019,0.00434503,0,0,2.9575,0.5075,-0.945,0.186782,-0.27267,-1.00735,-0.07084,0.10766,0.47376
-1.53209,0,0,16.5321,16.5321,13.4679,13.4679,1.09422,2.65653,0.0951283,0.17978,-0.266035,0.00409184,0,0,2.7125,1.05,-0.4725,0.186782,-0.27267,-1.00735,-0.06986,0.11592,0.47866
-1.4837,0,0,16.4837,16.4837,13.5163,13.5163,1.05965,2.43812,0.300523,-0.213062,0.0314771,-0.293632,0,0,2.4675,0.5425,-0.1925,-0.211548,0.025132,-1.30296,-0.06986,0.11592,0.47866
-1.48135,0,0,16.4814,16.4814,13.5186,13.5186,1.05796,2.43906,0.30174,-0.213079,0.0314477,-0.293632,1,0,2.4675,0.5425,-0.1925,-0.211548,0.025132,-1.30296,-0.06986,0.11592,0.47866
-1.51749,0,0,16.5175,16.5175,13.4825,13.4825,1.08377,3.31002,-0.470947,0.670733,-0.0213642,0.322553,0,0,3.36,-0.525,-0.2975,0.691252,-0.02806,-0.690764,-0.06986,0.11592,0.47866
-1.25038,0,0,16.2504,16.2504,13.7496,13.7496,0.892959,2.49911,0.246189,-0.878531,0.226171,-0.0617471,0,0,5.1275,-0.7525,-0.2975,-0.878766,0.222528,-1.07287,-0.06986,0.11592,0.47866
-1.25299,0,0,16.253,16.253,13.747,13.747,0.894815,2.49825,0.248456,-0.878516,0.226204,-0.0617469,1,0,4.4275,-0.5075,0.4375,-0.878766,0.222528,-1.07287,-0.06986,0.11592,0.47866
-1.24644,0,0,16.2464,16.2464,13.7536,13.7536,0.890125,1.62948,1.04095,-0.746251,0.00312683,0.205722,0,0,4.3225,-0.9275,0.455,-0.761158,-0.000244,-0.808006,-0.06986,0.11592,0.47866
-1.23609,0,0,16.2361,16.2361,13.7639,13.7639,0.882728,0.775601,1.83121,-0.731351,0.00300261,0.206036,0,0,3.3425,-0.28,-0.035,-0.761158,-0.000244,-0.808006,-0.06986,0.11592,0.47866
-0.657084,0,0,15.6571,15.6571,14.3429,14.3429,0.469145,0.451307,2.14579,-0.300613,0.434954,-0.0918452,0,0,2.9925,-1.6625,0.385,-0.33428,0.438468,-1.10373,-0.0679,0.12656,0.48874
-0.651798,0,0,15.6518,15.6518,14.3482,14.3482,0.465365,0.452791,2.14823,0.529594,-0.40852,0.569864,1,0,1.3125,0.8575,0.525,0.499468,-0.404064,-0.44713,-0.0679,0.12656,0.48874
-0.650261,0,0,15.6503,15.6503,14.3497,14.3497,0.464262,0.454939,2.14978,0.529556,-0.408539,0.569864,1,0,2.8175,1.2425,0,0.499468,-0.404064,-0.44713,-0.0679,0.12656,0.48874
-0.648542,0,0,15.6485,15.6485,14.3515,14.3515,0.463029,0.456883,2.15066,-0.245313,0.284997,-0.416552,1,0,2.7475,1.12,-0.385,-0.278648,0.288774,-1.42594,-0.0679,0.12656,0.48874
-0.649267,0,0,15.6493,15.6493,14.3507,14.3507,0.463542,0.459456,2.15131,-0.245358,0.285006,-0.416552,1,0,3.7275,1.4875,-0.525,-0.278648,0.288774,-1.42594,-0.0679,0.12656,0.48874
-0.656234,0,0,15.6562,15.6562,14.3438,14.3438,0.468513,0.460302,2.15129,-0.251447,-0.260081,-0.374751,1,0,6.23,0.4725,-0.91,-0.284748,-0.255834,-1.38446,-0.0679,0.12656,0.48874
-0.658083,0,0,15.6581,15.6581,14.3419,14.3419,0.469829,0.460794,2.15081,-0.251456,-0.260058,-0.374751,1,0,4.1825,0.2625,-1.1725,-0.284748,-0.255834,-1.38446,-0.0679,0.12656,0.48874
-1.08305,0,0,16.083,16.083,13.917,13.917,0.773367,1.11515,1.57819,0.473814,-0.242428,0.266457,0,0,4.235,-0.7,-1.4525,0.45506,-0.243512,-0.747982,-0.0679,0.12656,0.48874
-1.50321,0,0,16.5032,16.5032,13.4968,13.4968,1.07347,1.75765,1.01244,0.462604,-0.237197,0.266091,0,0,5.32,-0.7525,-1.8375,0.45506,-0.243512,-0.747982,-0.06916,0.12656,0.49812
-1.50347,0,0,16.5035,16.5035,13.4965,13.4965,1.07364,1.75748,1.01076,0.112242,-0.0885657,0.211256,1,0,3.57,-0.14,-1.8725,0.103212,-0.095038,-0.802394,-0.06916,0.12656,0.49812
-1.4994,0,0,16.4994,16.4994,13.5006,13.5006,1.07072,1.75863,1.00892,0.112222,-0.0886166,0.211257,1,0,1.8375,0.63,-1.9775,0.103212,-0.095038,-0.802394,-0.06916,0.12656,0.49812
-1.49379,0,0,16.4938,16.4938,13.5062,13.5062,1.06671,1.75912,1.00701,-0.181661,0.00767138,-0.295536,1,0,1.225,0.245,-2.0125,-0.191906,0.00122,-1.30528,-0.06916,0.12656,0.49812
-1.48614,0,0,16.4861,16.4861,13.5139,13.5139,1.06123,1.76087,1.00521,-0.181691,0.00757582,-0.295535,1,0,0.4025,0.98,-1.96,-0.191906,0.00122,-1.30528,-0.06916,0.12656,0.49812
-1.48065,0,0,16.4807,16.4807,13.5193,13.5193,1.0573,1.76216,1.00403,0.110338,0.157357,-0.347911,1,0,1.26,0.7175,-1.5925,0.101382,0.150914,-1.35725,-0.06916,0.12656,0.49812
-1.47517,0,0,16.4752,16.4752,13.5248,13.5248,1.05337,1.76344,1.00285,0.110316,0.157288,-0.34791,1,0,1.26,0.7175,-1.5925,0.101382,0.150914,-1.35725,-0.06916,0.12656,0.49812
-1.65111,0,0,16.6511,16.6511,13.3489,13.3489,1.17903,1.92268,0.866451,0.1322,-0.114696,-0.0251794,0,0,4.4975,0.665,-2.1,0.126148,-0.122976,-1.03688,-0.06916,0.12656,0.49812
-1.82361,0,0,16.8236,16.8236,13.1764,13.1764,1.30224,2.07945,0.727908,0.129465,-0.11255,-0.0253215,0,0,4.4975,0.665,-2.1,0.126148,-0.122976,-1.03688,-0.07518,0.12922,0.4942
-1.5674,0,0,16.5674,16.5674,13.4326,13.4326,1.11922,2.11356,0.687431,0.0212339,0.153181,0.105173,0,0,6.79,-0.84,-1.6975,0.018056,0.145668,-0.907436,-0.07518,0.12922,0.4942
-1.31611,0,0,16.3161,16.3161,13.6839,13.6839,0.939712,2.14691,0.646935,0.0206522,0.150051,0.105207,0,0,6.79,-0.84,-1.6975,0.018056,0.145668,-0.907436,-0.07518,0.12922,0.4942
-1.32106,0,0,16.3211,16.3211,13.6789,13.6789,0.943238,2.14511,0.645854,0.0297949,-0.0720365,0.134715,1,0,5.4425,-1.085,-1.505,0.027206,-0.07625,-0.878156,-0.07518,0.12922,0.4942
-1.3922,0,0,16.3922,16.3922,13.6078,13.6078,0.994043,2.03303,0.741065,-0.0839045,-0.0425716,0.075756,0,0,2.03,-0.9625,-1.295,-0.088938,-0.047702,-0.936716,-0.07518,0.12922,0.4942
-1.46006,0,0,16.4601,16.4601,13.5399,13.5399,1.0425,1.92463,0.836797,-0.0820138,-0.0417254,0.0758063,0,0,1.26,-0.2275,-0.735,-0.088938,-0.047702,-0.936716,-0.07518,0.12922,0.4942
-1.61642,0,0,16.6164,16.6164,13.3836,13.3836,1.15418,1.86307,0.895159,-0.0503255,-0.105848,-0.0149315,0,0,0.6825,0.56,-0.5425,-0.058194,-0.113704,-1.02675,-0.07518,0.12922,0.4942
-1.77006,0,0,16.7701,16.7701,13.2299,13.2299,1.2639,1.80238,0.952763,-0.0492668,-0.103933,-0.0149381,0,0,0.8225,0.28,-0.7175,-0.058194,-0.113704,-1.02675,-0.07518,0.12922,0.4942
-2.28964,0,0,17.2896,17.2896,12.7104,12.7104,1.63502,2.05171,0.722382,0.185468,-0.311798,0.138683,0,0,1.68,0.91,-0.8225,0.181902,-0.327814,-0.874008,-0.07252,0.13832,0.50148
-2.80558,0,0,17.8056,17.8056,12.1944,12.1944,2.00352,2.29459,0.495758,0.181232,-0.305379,0.138319,0,0,3.955,0.175,-0.7175,0.181902,-0.327814,-0.874008,-0.07252,0.13832,0.50148
-2.8094,0,0,17.8094,17.8094,12.1906,12.1906,2.00623,2.29232,0.496098,0.27032,-0.0960069,0.238768,1,0,4.9525,-1.3475,-0.6475,0.271328,-0.118706,-0.774334,-0.07252,0.13832,0.50148
-2.81532,0,0,17.8153,17.8153,12.1847,12.1847,2.01043,2.29016,0.496502,-0.32067,-0.0628371,0.161801,1,0,5.7925,-1.2775,-0.6125,-0.322202,-0.085644,-0.850706,-0.07252,0.13832,0.50148
-2.82261,0,0,17.8226,17.8226,12.1774,12.1774,2.01562,2.28982,0.49721,-0.320664,-0.0627467,0.161798,1,0,6.335,-0.21,-0.4725,-0.322202,-0.085644,-0.850706,-0.07252,0.13832,0.50148
-2.82798,0,0,17.828,17.828,12.172,12.172,2.01943,2.29001,0.497906,0.478466,0.0290369,-0.0201684,1,0,5.565,0.105,-0.49,0.480314,0.005978,-1.03127,-0.07252,0.13832,0.50148
-2.82976,0,0,17.8298,17.8298,12.1702,12.1702,2.02069,2.29114,0.499357,0.478446,0.0290587,-0.02017,1,0,4.1125,0.665,-0.07,0.480314,0.005978,-1.03127,-0.07252,0.13832,0.50148
-3.21392,0,0,18.2139,18.2139,11.7861,11.7861,2.29506,2.32879,0.450857,0.0342452,-0.254014,0.0108523,0,0,1.8025,0.4375,-0.2275,0.034892,-0.281576,-1.00028,-0.07252,0.13832,0.50148
-3.58982,0,0,18.5898,18.5898,11.4102,11.4102,2.56353,2.36492,0.398427,0.0336152,-0.249337,0.0106281,0,0,1.4175,0.945,-0.0875,0.034892,-0.281576,-1.00028,-0.06496,0.14042,0.51142
-3.58423,0,0,18.5842,18.5842,11.4158,11.4158,2.55951,2.36651,0.39976,0.00868284,-0.0201753,0.120546,1,0,1.155,0.945,-0.1575,0.009882,-0.052582,-0.89121,-0.06496,0.14042,0.51142
-3.58273,0,0,18.5827,18.5827,11.4173,11.4173,2.55841,2.36653,0.400211,0.0086825,-0.0201944,0.120547,1,0,2.8175,0,-0.63,0.009882,-0.052582,-0.89121,-0.06496,0.14042,0.51142
-3.82128,0,0,18.8213,18.8213,11.1787,11.1787,2.72878,2.14228,0.571952,-0.178625,-0.156688,-0.00496681,0,0,3.85,-0.525,-1.0325,-0.182146,-0.191906,-1.01577,-0.06496,0.14042,0.51142
-4.05986,0,0,19.0599,19.0599,10.9401,10.9401,2.89916,1.92385,0.74193,-0.174815,-0.153713,-0.00497762,0,0,5.74,0,-1.05,-0.182146,-0.191906,-1.01577,-0.06496,0.14042,0.51142
-3.95723,0,0,18.9572,18.9572,11.0428,11.0428,2.82583,1.77084,0.855139,-0.130719,0.0698488,-0.0958096,0,0,5.25,-0.0875,-1.3825,-0.140544,0.032696,-1.10605,-0.06496,0.14042,0.51142
-3.85718,0,0,18.8572,18.8572,11.1428,11.1428,2.75433,1.62099,0.968262,-0.128105,0.0686067,-0.0956716,0,0,5.495,-0.1575,-1.4875,-0.140544,0.032696,-1.10605,-0.06496,0.14042,0.51142
-3.86059,0,0,18.8606,18.8606,11.1394,11.1394,2.75673,1.6211,0.966914,0.0846144,0.328656,-0.153214,1,0,4.8125,0,-1.68,0.073078,0.292434,-1.16315,-0.06496,0.14042,0.51142
-3.86217,0,0,18.8622,18.8622,11.1378,11.1378,2.75783,1.62117,0.966887,0.0846132,0.328676,-0.153215,1,0,4.06,0.0175,-0.91,0.073078,0.292434,-1.16315,-0.07014,0.14378,0.51576
-3.60548,0,0,18.6055,18.6055,11.3945,11.3945,2.57446,1.3429,1.19293,-0.234899,0.172705,-0.0371228,0,0,4.1125,-0.0875,-0.84,-0.252662,0.139812,-1.04822,-0.07014,0.14378,0.51576
-3.35236,0,0,18.3524,18.3524,11.6476,11.6476,2.39363,1.0704,1.41981,-0.230144,0.169557,-0.0368859,0,0,3.6575,-0.07,-1.015,-0.252662,0.139812,-1.04822,-0.07014,0.14378,0.51576
-3.35117,0,0,18.3512,18.3512,11.6488,11.6488,2.39276,1.07134,1.41916,0.0857028,-0.126982,0.25856,1,0,2.9575,0.5075,-1.295,0.064538,-0.156404,-0.755058,-0.07014,0.14378,0.51576
-3.34936,0,0,18.3494,18.3494,11.6506,11.6506,2.39144,1.07094,1.41815,0.0857097,-0.127005,0.258561,1,0,2.7125,-0.28,-1.47,0.064538,-0.156404,-0.755058,-0.07014,0.14378,0.51576
-3.34798,0,0,18.348,18.348,11.652,11.652,2.39043,1.06997,1.41718,0.0886423,-0.322914,0.201514,1,0,2.8875,-0.6125,-1.435,0.067466,-0.352092,-0.811666,-0.07014,0.14378,0.51576
-3.34819,0,0,18.3482,18.3482,11.6518,11.6518,2.39055,1.06846,1.41648,0.0886687,-0.322912,0.201514,1,0,3.5175,-0.9275,-1.26,0.067466,-0.352092,-0.811666,-0.07014,0.14378,0.51576
-3.34953,0,0,18.3495,18.3495,11.6505,11.6505,2.39148,1.06715,1.41589,0.0696183,-0.208219,-0.189217,1,0,3.9725,-0.805,-1.2075,0.048312,-0.237534,-1.19938,-0.07014,0.14378,0.51576
-3.35422,0,0,18.3542,18.3542,11.6458,11.6458,2.39481,1.06525,1.41638,0.0696514,-0.20816,-0.189218,1,0,5.3025,-1.12,-0.56,0.048312,-0.237534,-1.19938,-0.05908,0.14812,0.5201
-3.35781,0,0,18.3578,18.3578,11.6422,11.6422,2.39735,1.06436,1.41649,-0.304509,0.112466,-0.0709434,1,0,4.865,-0.5425,-0.805,-0.327448,0.082716,-1.08202,-0.05908,0.14812,0.5201
-3.36303,0,0,18.363,18.363,11.637,11.637,2.40105,1.06506,1.41709,-0.304521,0.112531,-0.0709464,1,0,5.5125,0.4025,-0.56,-0.327448,0.082716,-1.08202,-0.05908,0.14812,0.5201
-3.36546,0,0,18.3655,18.3655,11.6345,11.6345,2.40276,1.06716,1.41781,0.0334153,0.319932,-0.211233,1,0,4.3925,1.225,-0.525,0.011956,0.289872,-1.22122,-0.05908,0.14812,0.5201
-3.36858,0,0,18.3686,18.3686,11.6314,11.6314,2.40496,1.06843,1.41849,0.0333932,0.31997,-0.211235,1,0,4.6725,0.735,-0.525,0.011956,0.289872,-1.22122,-0.05908,0.14812,0.5201
-3.25199,0,0,18.252,18.252,11.748,11.748,2.32166,0.913864,1.54149,-0.11601,0.0728009,0.0974727,0,0,4.48,0.4025,-0.7,-0.140788,0.044408,-0.915,-0.05908,0.14812,0.5201
-3.13617,0,0,18.1362,18.1362,11.8638,11.8638,2.2389,0.76157,1.66415,-0.113352,0.0713593,0.097569,0,0,3.9025,-0.175,-0.9625,-0.140788,0.044408,-0.915,-0.05908,0.14812,0.5201
-3.33814,0,0,18.3381,18.3381,11.6619,11.6619,2.38315,1.04211,1.39627,0.237098,-0.132767,0.00554801,0,0,4.3575,-0.35,-1.19,0.216062,-0.162016,-1.00613,-0.05908,0.14812,0.5201
-3.53687,0,0,18.5369,18.5369,11.4631,11.4631,2.52506,1.31953,1.12713,0.232257,-0.130297,0.00534228,0,0,4.585,-0.8925,-1.12,0.216062,-0.162016,-1.00613,-0.07182,0.15218,0.53004
-3.36468,0,0,18.3647,18.3647,11.6353,11.6353,2.40205,1.21114,1.19721,-0.0919191,0.115599,-0.0628831,0,0,3.885,-0.6125,-1.0325,-0.111386,0.085766,-1.07397,-0.07182,0.15218,0.53004
-3.19349,0,0,18.1935,18.1935,11.8065,11.8065,2.27974,1.10579,1.26755,-0.0900808,0.113469,-0.0627588,0,0,2.9575,-0.1575,-1.05,-0.111386,0.085766,-1.07397,-0.07182,0.15218,0.53004
-2.96595,0,0,17.9659,17.9659,12.0341,12.0341,2.11719,1.06014,1.28885,-0.0409329,0.15399,-0.0845197,0,0,2.3625,0.105,-0.875,-0.06283,0.129076,-1.09568,-0.07182,0.15218,0.53004
-2.74182,0,0,17.7418,17.7418,12.2582,12.2582,1.95708,1.01581,1.31081,-0.0401593,0.151198,-0.0844064,0,0,1.9775,0.35,-0.6125,-0.06283,0.129076,-1.09568,-0.07182,0.15218,0.53004
-2.33023,0,0,17.3302,17.3302,12.6698,12.6698,1.66307,1.09301,1.2293,0.0596912,0.274791,-0.00927055,0,0,3.2725,0.56,-0.49,0.038796,0.257664,-1.02126,-0.07182,0.15218,0.53004
-1.93029,0,0,16.9303,16.9303,13.0697,13.0697,1.37738,1.16927,1.14649,0.0583604,0.269807,-0.00916456,0,0,4.9,0.9625,-0.9275,0.038796,0.257664,-1.02126,-0.07182,0.15218,0.53004
-1.89143,0,0,16.8914,16.8914,13.1086,13.1086,1.34961,1.2675,1.03722,0.0724396,0.0281209,0.0557273,0,0,5.4075,0.8925,-0.9975,0.054656,0.016714,-0.956846,-0.07182,0.15218,0.53004
-1.85493,0,0,16.8549,16.8549,13.1451,13.1451,1.32353,1.36173,0.927646,0.0707953,0.0276651,0.0557002,0,0,6.0725,-0.2275,-1.225,0.054656,0.016714,-0.956846,-0.07182,0.15218,0.53004
-1.85987,0,0,16.8599,16.8599,13.1401,13.1401,1.32704,1.36164,0.927913,-0.140224,-0.00683555,0.111886,1,0,5.4075,-0.07,-0.735,-0.157258,-0.017812,-0.901092,-0.07112,0.16492,0.53228
-1.7663,0,0,16.7663,16.7663,13.2337,13.2337,1.26019,1.37029,0.876228,0.00309997,0.0584352,0.0692459,0,0,4.0075,-0.28,-0.805,-0.013176,0.048556,-0.943426,-0.07112,0.16492,0.53228
-1.67033,0,0,16.6703,16.6703,13.3297,13.3297,1.19162,1.37783,0.824388,0.00296829,0.0572391,0.0692684,0,0,2.3275,-0.7875,-0.9275,-0.013176,0.048556,-0.943426,-0.07112,0.16492,0.53228
-1.66708,0,0,16.6671,16.6671,13.3329,13.3329,1.1893,1.37691,0.824518,0.236237,0.0170188,-0.275109,1,0,2.135,-0.56,-0.805,0.221064,0.008418,-1.28515,-0.07112,0.16492,0.53228
-1.66307,0,0,16.6631,16.6631,13.3369,13.3369,1.18642,1.37682,0.825235,0.236239,0.0169686,-0.275108,1,0,1.82,-0.07,-0.4725,0.221064,0.008418,-1.28515,-0.07112,0.16492,0.53228
-1.66054,0,0,16.6605,16.6605,13.3395,13.3395,1.1846,1.37709,0.82566,-0.0221663,0.128316,-0.111709,1,0,2.415,0.14,-0.6475,-0.03843,0.119682,-1.12301,-0.07112,0.16492,0.53228
-1.66066,0,0,16.6607,16.6607,13.3393,13.3393,1.18467,1.37758,0.825699,-0.0221747,0.128318,-0.111709,1,0,3.4825,0.2625,-0.875,-0.03843,0.119682,-1.12301,-0.07112,0.16492,0.53228
-1.53974,0,0,16.5397,16.5397,13.4603,13.4603,1.09829,1.31103,0.842954,-0.0558801,0.0750295,0.0570334,0,0,3.71,0.4025,-1.015,-0.073444,0.067954,-0.955626,-0.07112,0.16492,0.53228
-1.42494,0,0,16.4249,16.4249,13.5751,13.5751,1.01628,1.24369,0.861546,-0.054705,0.0735992,0.057086,0,0,5.2325,-0.91,-1.3475,-0.073444,0.067954,-0.955626,-0.06762,0.16296,0.52276
-1.42953,0,0,16.4295,16.4295,13.5705,13.5705,1.01954,1.24207,0.860616,0.170679,0.183326,-0.256064,1,0,5.285,-0.98,-1.4175,0.152866,0.17751,-1.26636,-0.06762,0.16296,0.52276
-1.43617,0,0,16.4362,16.4362,13.5638,13.5638,1.02427,1.24108,0.859668,0.170696,0.183409,-0.256065,1,0,6.1075,-0.6125,-1.435,0.152866,0.17751,-1.26636,-0.06762,0.16296,0.52276
-1.28651,0,0,16.2865,16.2865,13.7135,13.7135,0.917363,1.48235,0.602357,0.187868,0.0971522,0.057016,0,0,5.1625,-0.2975,-1.3825,0.174338,0.093208,-0.955626,-0.06762,0.16296,0.52276
-1.13644,0,0,16.1364,16.1364,13.8636,13.8636,0.810162,1.71898,0.344357,0.18374,0.0952804,0.0569289,0,0,3.955,-0.105,-1.54,0.174338,0.093208,-0.955626,-0.06762,0.16296,0.52276
-1.13755,0,0,16.1375,16.1375,13.8625,13.8625,0.810948,1.71933,0.343221,0.22844,-0.144319,0.35262,1,0,3.9025,0.175,-1.5575,0.219234,-0.146156,-0.662216,-0.06762,0.16296,0.52276
-1.13624,0,0,16.1362,16.1362,13.8638,13.8638,0.810007,1.71994,0.342778,0.22843,-0.144335,0.35262,1,0,2.9225,0.3325,-1.155,0.219234,-0.146156,-0.662216,-0.06762,0.16296,0.52276
-1.13497,0,0,16.135,16.135,13.865,13.865,0.809089,1.72137,0.342077,0.116031,-0.21091,0.181967,1,0,2.94,0.805,-1.3125,0.106384,-0.212646,-0.831552,-0.06762,0.16296,0.52276
-1.13533,0,0,16.1353,16.1353,13.8647,13.8647,0.809335,1.72155,0.340639,0.116028,-0.210906,0.181966,1,0,3.605,0.07,-1.7325,0.106384,-0.212646,-0.831552,-0.07098,0.16548,0.52878
-1.16196,0,0,16.162,16.162,13.838,13.838,0.828346,1.34245,0.632525,-0.284214,-0.014314,0.136033,0,0,3.6225,0.14,-1.6975,-0.302194,-0.016592,-0.877302,-0.07098,0.16548,0.52878
-1.19082,0,0,16.1908,16.1908,13.8092,13.8092,0.848955,0.969953,0.923625,-0.277714,-0.0139525,0.136159,0,0,4.795,-0.455,-1.645,-0.302194,-0.016592,-0.877302,-0.07098,0.16548,0.52878
-1.13032,0,0,16.1303,16.1303,13.8697,13.8697,0.80573,0.960742,0.892229,-0.00736904,0.0441584,-0.0930037,0,0,4.935,-0.5425,-1.6975,-0.030866,0.042212,-1.10471,-0.07098,0.16548,0.52878
-1.0708,0,0,16.0708,16.0708,13.9292,13.9292,0.763208,0.952322,0.860903,-0.0072221,0.0434165,-0.0929911,0,0,4.865,-0.175,-1.6975,-0.030866,0.042212,-1.10471,-0.07098,0.16548,0.52878
-0.91374,0,0,15.9137,15.9137,14.0863,14.0863,0.651016,1.2173,0.585049,0.219706,0.105208,0.0116977,0,0,4.2875,-0.035,-1.715,0.201666,0.105896,-1.00077,-0.07098,0.16548,0.52878
-0.759778,0,0,15.7598,15.7598,14.2402,14.2402,0.541037,1.47822,0.310009,0.215153,0.103288,0.0116105,0,0,4.4275,0.77,-0.945,0.201666,0.105896,-1.00077,-0.07098,0.16548,0.52878
-0.708023,0,0,15.708,15.708,14.292,14.292,0.504064,1.56174,0.189313,0.0730154,0.0369384,-0.0691994,0,0,4.34,1.015,-0.8575,0.06039,0.04026,-1.08092,-0.07098,0.16548,0.52878
-0.658452,0,0,15.6585,15.6585,14.3415,14.3415,0.468651,1.64173,0.0880611,0.0716199,0.0363203,-0.0692332,0,0,4.8125,0.875,-0.49,0.06039,0.04026,-1.08092,-0.06286,0.15204,0.52822
-0.651425,0,0,15.6514,15.6514,14.3486,14.3486,0.463627,1.03842,0.619554,-0.538038,0.00558079,0.0816257,0,0,5.0925,0.7175,-0.35,-0.56242,0.009638,-0.93147,-0.06286,0.15204,0.52822
-0.64308,0,0,15.6431,15.6431,14.3569,14.3569,0.457661,0.444398,1.15045,-0.527671,0.00547776,0.0817607,0,0,4.725,-0.1225,-0.2625,-0.56242,0.009638,-0.93147,-0.06286,0.15204,0.52822
-0.588806,0,0,15.5888,15.5888,14.4112,14.4112,0.418889,0.0576345,1.49885,-0.305162,0.0339896,0.111795,0,0,4.4625,-0.315,-0.3675,-0.345748,0.038796,-0.901702,-0.06286,0.15204,0.52822
-0.532248,0,0,15.5322,15.5322,14.4678,14.4678,0.378487,-0.322595,1.84753,-0.298526,0.0332844,0.111784,0,0,3.2375,-0.8925,-0.14,-0.345748,0.038796,-0.901702,-0.06286,0.15204,0.52822
-0.531166,0,0,15.5312,15.5312,14.4688,14.4688,0.37771,-0.324265,1.84845,-0.126352,-0.14247,-0.0952609,1,0,3.01,-0.9975,-0.35,-0.172874,-0.136762,-1.10715,-0.06286,0.15204,0.52822
-0.528986,0,0,15.529,15.529,14.471,14.471,0.376149,-0.32549,1.85009,-0.12633,-0.142497,-0.0952609,1,0,2.5725,-0.735,0.07,-0.172874,-0.136762,-1.10715,-0.06286,0.15204,0.52822
-0.729968,0,0,15.73,15.73,14.27,14.27,0.519702,-0.815388,2.30024,-0.451502,-0.145732,0.0211896,0,0,3.675,-0.455,0.0525,-0.508008,-0.142496,-0.991494,-0.06286,0.15204,0.52822
-0.930342,0,0,15.9303,15.9303,14.0697,14.0697,0.662819,-1.29348,2.75701,-0.443159,-0.143236,0.0210103,0,0,4.9175,0.385,0.2625,-0.508008,-0.142496,-0.991494,-0.06314,0.1449,0.52206
-0.934327,0,0,15.9343,15.9343,14.0657,14.0657,0.665658,-1.29233,2.75882,0.121244,-0.00664925,0.240596,1,0,5.0575,0.665,0.1575,0.058804,-0.0061,-0.773602,-0.06314,0.1449,0.52206
-0.939338,0,0,15.9393,15.9393,14.0607,14.0607,0.669231,-1.29206,2.75997,0.121239,-0.00658692,0.240596,1,0,5.46,0.14,-0.2275,0.058804,-0.0061,-0.773602,-0.06314,0.1449,0.52206
-0.941112,0,0,15.9411,15.9411,14.0589,14.0589,0.670491,-1.29022,2.76122,0.151821,-0.0888783,0.242932,1,0,4.165,1.0675,-0.175,0.089548,-0.088328,-0.771284,-0.06314,0.1449,0.52206
-0.940908,0,0,15.9409,15.9409,14.0591,14.0591,0.670337,-1.29066,2.76148,0.151829,-0.088881,0.242932,1,0,3.36,-0.28,-0.735,0.089548,-0.088328,-0.771284,-0.06314,0.1449,0.52206
-1.11441,0,0,16.1144,16.1144,13.8856,13.8856,0.794257,-1.00628,2.52502,0.217328,-0.102228,0.114277,0,0,2.8,-0.21,-0.9975,0.160308,-0.103822,-0.899018,-0.06314,0.1449,0.52206
-1.28572,0,0,16.2857,16.2857,13.7143,13.7143,0.916615,-0.7289,2.28949,0.212488,-0.100092,0.114318,0,0,3.2725,-0.9275,-1.365,0.160308,-0.103822,-0.899018,-0.06314,0.1449,0.52206
-1.28349,0,0,16.2835,16.2835,13.7165,13.7165,0.915009,-0.730105,2.28884,-0.0584043,0.132654,-0.126907,1,0,2.5375,-0.735,-1.26,-0.111752,0.12871,-1.13838,-0.06314,0.1449,0.52206
-1.28243,0,0,16.2824,16.2824,13.7176,13.7176,0.914247,-0.730053,2.28803,-0.0584053,0.132641,-0.126906,1,0,3.01,0,-1.365,-0.111752,0.12871,-1.13838,-0.06314,0.1449,0.52206
-1.28152,0,0,16.2815,16.2815,13.7185,13.7185,0.913581,-0.729939,2.2871,-0.12899,0.0503157,-0.152111,1,0,3.0625,0.035,-1.435,-0.182634,0.046482,-1.16339,-0.06496,0.14294,0.51814
-1.28056,0,0,16.2806,16.2806,13.7194,13.7194,0.912887,-0.728118,2.28593,-0.129022,0.0503036,-0.15211,1,0,3.045,1.0325,-1.5925,-0.182634,0.046482,-1.16339,-0.06496,0.14294,0.51814
-1.27946,0,0,16.2795,16.2795,13.7205,13.7205,0.912094,-0.726692,2.28514,0.264202,-0.0231084,-0.0971516,1,0,2.9925,0.805,-1.365,0.21228,-0.02684,-1.10886,-0.06496,0.14294,0.51814
-1.27836,0,0,16.2784,16.2784,13.7216,13.7216,0.911301,-0.725265,2.28435,0.264177,-0.0231223,-0.0971511,1,0,2.9925,0.805,-1.365,0.21228,-0.02684,-1.10886,-0.06496,0.14294,0.51814
-1.04045,0,0,16.0405,16.0405,13.9595,13.9595,0.741356,-0.592088,2.18977,0.117285,0.159789,-0.00388661,0,0,4.1125,0.0875,-1.5575,0.0671,0.158844,-1.01638,-0.06496,0.14294,0.51814
-1.23594,0,0,16.2359,16.2359,13.7641,13.7641,0.880982,-0.477146,2.10105,0.102523,-0.139305,-0.0841878,0,0,4.515,-0.2975,-1.3475,0.05429,-0.142374,-1.09605,-0.06496,0.14294,0.51814
-1.42593,0,0,16.4259,16.4259,13.5741,13.5741,1.01668,-0.365707,2.01309,0.100578,-0.136936,-0.0842127,0,0,3.7975,-0.9275,-1.295,0.05429,-0.142374,-1.09605,-0.06496,0.14294,0.51814
-1.42279,0,0,16.4228,16.4228,13.5772,13.5772,1.01443,-0.444173,2.09951,-0.0678895,0.000660921,-0.045247,0,0,3.2025,-0.7525,-1.435,-0.116266,-0.00488,-1.05737,-0.06496,0.14294,0.51814
-1.4188,0,0,16.4188,16.4188,13.5812,13.5812,1.01156,-0.521401,2.19182,-0.0665417,0.000610762,-0.0452575,0,0,2.87,-0.28,-0.7875,-0.116266,-0.00488,-1.05737,-0.07588,0.14042,0.50596
-1.59563,0,0,16.5956,16.5956,13.4044,13.4044,1.13786,-0.121756,1.8564,0.294585,-0.101847,0.153794,0,0,2.9925,0.14,-0.665,0.253394,-0.109434,-0.859856,-0.07588,0.14042,0.50596
-1.77036,0,0,16.7704,16.7704,13.2296,13.2296,1.26265,0.270875,1.52315,0.287732,-0.0996699,0.153739,0,0,3.5525,0.735,-0.7875,0.253394,-0.109434,-0.859856,-0.07588,0.14042,0.50596
-1.38292,0,0,16.3829,16.3829,13.6171,13.6171,0.985898,0.462969,1.36572,0.146858,0.236967,0.117174,0,0,3.7975,0.6125,-0.91,0.11529,0.231678,-0.896212,-0.07588,0.14042,0.50596
-1.00323,0,0,16.0032,16.0032,13.9968,13.9968,0.714684,0.649366,1.20765,0.143605,0.232234,0.117213,0,0,4.13,-0.5425,-0.4725,0.11529,0.231678,-0.896212,-0.07588,0.14042,0.50596
-1.35691,0,0,16.3569,16.3569,13.6431,13.6431,0.967302,0.316241,1.50988,-0.292546,-0.244537,0.0176087,0,0,4.3925,-0.1225,-0.735,-0.328546,-0.249002,-0.995032,-0.07588,0.14042,0.50596
-1.70255,0,0,16.7025,16.7025,13.2975,13.2975,1.21417,-0.0113751,1.8083,-0.286828,-0.240229,0.0175419,0,0,3.745,-0.77,-0.8575,-0.328546,-0.249002,-0.995032,-0.07588,0.14042,0.50596
-1.7017,0,0,16.7017,16.7017,13.2983,13.2983,1.21356,-0.0119832,1.80784,-0.296779,0.23117,0.191883,1,0,3.0975,-0.385,-1.155,-0.33855,0.221918,-0.822036,-0.07588,0.14042,0.50596
-1.70086,0,0,16.7009,16.7009,13.2991,13.2991,1.21294,-0.0125912,1.80737,-0.296769,0.231159,0.191883,1,0,3.0975,-0.385,-1.155,-0.33855,0.221918,-0.822036,-0.06874,0.13692,0.49784
-1.69866,0,0,16.6987,16.6987,13.3013,13.3013,1.21136,-0.0136739,1.80675,0.469946,-0.00151994,-0.167495,1,0,2.555,-0.665,-1.2425,0.431392,-0.010492,-1.17864,-0.06874,0.13692,0.49784
-1.81938,0,0,16.8194,16.8194,13.1806,13.1806,1.29757,-0.410529,2.18079,-0.331129,-0.0800092,0.063713,0,0,3.5525,0.1925,-1.26,-0.38003,-0.090402,-0.94916,-0.06874,0.13692,0.49784
-1.93825,0,0,16.9382,16.9382,13.0618,13.0618,1.38246,-0.798764,2.55317,-0.324353,-0.0785297,0.0636069,0,0,3.7625,0.665,-1.0325,-0.38003,-0.090402,-0.94916,-0.06874,0.13692,0.49784
-1.93846,0,0,16.9385,16.9385,13.0615,13.0615,1.3826,-0.797436,2.55302,0.479373,0.00354183,-0.0211044,1,0,3.5175,0.7525,-0.9975,0.427122,-0.008418,-1.03322,-0.06874,0.13692,0.49784
-1.93885,0,0,16.9389,16.9389,13.0611,13.0611,1.38286,-0.797296,2.55257,0.479371,0.00354645,-0.0211044,1,0,3.5875,0.0525,-1.155,0.427122,-0.008418,-1.03322,-0.06874,0.13692,0.49784
-1.76758,0,0,16.7676,16.7676,13.2324,13.2324,1.26051,-0.749601,2.54626,0.0453202,0.119509,-0.0794445,0,0,2.9925,0.315,-0.9975,-0.00793,0.109556,-1.09117,-0.06874,0.13692,0.49784
-1.59858,0,0,16.5986,16.5986,13.4014,13.4014,1.13979,-0.70363,2.54053,0.0445179,0.117402,-0.0793902,0,0,2.625,-0.1575,-0.5775,-0.00793,0.109556,-1.09117,-0.06874,0.13692,0.49784
-1.43037,0,0,16.4304,16.4304,13.5696,13.5696,1.01962,-0.789013,2.66134,-0.0622357,0.10236,0.073332,0,0,2.3625,0.035,-0.4375,-0.116632,0.096624,-0.939644,-0.0616,0.1309,0.50218
-1.42793,0,0,16.4279,16.4279,13.5721,13.5721,1.01787,-0.788811,2.6623,0.348139,-0.10895,-0.178958,1,0,2.4675,0.105,-0.3325,0.295484,-0.114436,-1.18999,-0.0616,0.1309,0.50218
-1.42906,0,0,16.4291,16.4291,13.5709,13.5709,1.01867,-0.788528,2.66375,0.348134,-0.108936,-0.178958,1,0,3.9025,0.1575,-0.0525,0.295484,-0.114436,-1.18999,-0.0616,0.1309,0.50218
-1.35002,0,0,16.35,16.35,13.65,13.65,0.962198,-1.09931,2.99111,-0.258608,0.0515287,0.0479327,0,0,4.1125,0.735,-0.105,-0.319274,0.046848,-0.964776,-0.0616,0.1309,0.50218
-1.27323,0,0,16.2732,16.2732,13.7268,13.7268,0.907342,-1.40392,3.31807,-0.253293,0.0505697,0.0478322,0,0,4.515,0.735,-0.2975,-0.319274,0.046848,-0.964776,-0.0616,0.1309,0.50218
-1.38493,0,0,16.3849,16.3849,13.6151,13.6151,0.987119,-1.25442,3.23351,0.114386,-0.0650349,0.078115,0,0,4.305,1.1025,-0.315,0.052582,-0.070028,-0.934764,-0.0616,0.1309,0.50218
-1.49333,0,0,16.4933,16.4933,13.5067,13.5067,1.06453,-1.10925,3.14891,0.111853,-0.0636833,0.0781431,0,0,3.8325,0.385,-0.63,0.052582,-0.070028,-0.934764,-0.0616,0.1309,0.50218
-1.4593,0,0,16.4593,16.4593,13.5407,13.5407,1.04021,-1.01741,3.11378,0.0748985,0.0224807,0.0492877,0,0,3.395,0.56,-0.7,0.01708,0.01647,-0.963434,-0.0616,0.1309,0.50218
-1.42728,0,0,16.4273,16.4273,13.5727,13.5727,1.01733,-0.928077,3.08151,0.0733394,0.022082,0.0493213,0,0,3.92,-0.385,-0.8575,0.01708,0.01647,-0.963434,-0.07042,0.1295,0.50022
-1.65678,0,0,16.6568,16.6568,13.3432,13.3432,1.18125,-1.58448,3.70297,-0.565884,-0.158253,0.183029,0,0,3.4125,-0.2275,-0.98,-0.636352,-0.16653,-0.830454,-0.07042,0.1295,0.50022
-1.88255,0,0,16.8826,16.8826,13.1174,13.1174,1.3425,-2.22972,4.3177,-0.554629,-0.155449,0.182593,0,0,3.4825,-0.2975,-1.785,-0.636352,-0.16653,-0.830454,-0.07042,0.1295,0.50022
-1.88256,0,0,16.8826,16.8826,13.1174,13.1174,1.34249,-2.23066,4.31576,0.149397,-0.345357,-0.0646575,1,0,3.395,-0.595,-2.0125,0.070638,-0.35624,-1.0758,-0.07042,0.1295,0.50022
-1.88485,0,0,16.8848,16.8848,13.1152,13.1152,1.34411,-2.23128,4.31358,0.149408,-0.345328,-0.0646586,1,0,4.305,-0.42,-2.1525,0.070638,-0.35624,-1.0758,-0.07042,0.1295,0.50022
-1.7915,0,0,16.7915,16.7915,13.2085,13.2085,1.27742,-1.8814,4.0662,0.312413,0.0674011,-0.0190449,0,0,4.025,-0.1225,-2.345,0.240462,0.057218,-1.03078,-0.07042,0.1295,0.50022
-1.70034,0,0,16.7003,16.7003,13.2997,13.2997,1.21229,-1.53852,3.81788,0.306432,0.0662691,-0.0188417,0,0,4.305,-0.2625,-2.695,0.240462,0.057218,-1.03078,-0.07042,0.1295,0.50022
-1.70394,0,0,16.7039,16.7039,13.2961,13.2961,1.21485,-1.53815,3.81465,0.076817,0.0716874,-0.108472,1,0,4.83,0.1575,-2.7825,0.009882,0.062586,-1.11972,-0.07042,0.1295,0.50022
-1.70532,0,0,16.7053,16.7053,13.2947,13.2947,1.21582,-1.53803,3.81261,0.076815,0.0717043,-0.108472,1,0,3.955,0.0175,-2.0825,0.009882,0.062586,-1.11972,-0.06216,0.13244,0.49854
-1.77187,0,0,16.7719,16.7719,13.2281,13.2281,1.26334,-1.33925,3.67745,0.168592,-0.041287,0.000283401,0,0,4.7075,-0.665,-2.205,0.10553,-0.051118,-1.01187,-0.06216,0.13244,0.49854
-1.83302,0,0,16.833,16.833,13.167,13.167,1.30701,-1.14435,3.54252,0.165191,-0.0405236,0.000340014,0,0,3.08,-0.56,-2.38,0.10553,-0.051118,-1.01187,-0.06216,0.13244,0.49854
-1.68031,0,0,16.6803,16.6803,13.3197,13.3197,1.19792,-0.8057,3.27883,0.268618,0.0953342,0.125152,0,0,3.15,-0.9975,-1.505,0.21533,0.086498,-0.88816,-0.06216,0.13244,0.49854
-1.53013,0,0,16.5301,16.5301,13.4699,13.4699,1.09064,-0.473477,3.01434,0.26282,0.0934636,0.125254,0,0,3.15,-0.9975,-1.505,0.21533,0.086498,-0.88816,-0.06216,0.13244,0.49854
-1.26454,0,0,16.2645,16.2645,13.7355,13.7355,0.900917,-0.207112,2.8087,0.216988,0.165994,0.10284,0,0,3.15,0.0175,-0.5075,0.173972,0.16226,-0.910486,-0.06216,0.13244,0.49854
-1.00359,0,0,16.0036,16.0036,13.9964,13.9964,0.714517,0.0542601,2.60177,0.212426,0.162741,0.102892,0,0,3.15,0.0175,-0.5075,0.173972,0.16226,-0.910486,-0.06216,0.13244,0.49854
-0.459264,0,0,15.4593,15.4593,14.5407,14.5407,0.32571,-0.075842,2.75597,-0.101409,0.353312,0.0955758,0,0,4.515,1.1375,0.5425,-0.143472,0.359412,-0.917806,-0.06216,0.13244,0.49854
0.0760261,0,0,14.924,14.924,15.076,15.076,-0.0566389,-0.207801,2.91961,-0.0991062,0.346639,0.0955858,0,0,4.515,1.1375,0.5425,-0.143472,0.359412,-0.917806,-0.0693,0.12754,0.49462
-0.0407111,0,0,15.0407,15.0407,14.9593,14.9593,0.0267445,-0.507431,3.23185,-0.277199,-0.0836235,-0.024936,0,0,3.9725,0.14,0.875,-0.32757,-0.071858,-1.03737,-0.0693,0.12754,0.49462
-0.155256,0,0,15.1553,15.1553,14.8447,14.8447,0.108561,-0.801275,3.54259,-0.27207,-0.0821957,-0.0249962,0,0,3.9725,0.14,0.875,-0.32757,-0.071858,-1.03737,-0.0693,0.12754,0.49462
-0.153472,0,0,15.1535,15.1535,14.8465,14.8465,0.107286,-0.80145,3.54511,0.250807,-0.0268946,-0.100487,1,0,2.7475,-0.1225,0.5775,0.197518,-0.016592,-1.11227,-0.0693,0.12754,0.49462
-0.151434,0,0,15.1514,15.1514,14.8486,14.8486,0.105829,-0.801056,3.54724,-0.202827,0.0218086,0.126968,1,0,2.6425,0.21,0.35,-0.25803,0.032086,-0.886574,-0.0693,0.12754,0.49462
-0.15133,0,0,15.1513,15.1513,14.8487,14.8487,0.105753,-0.800392,3.54877,-0.202839,0.0218073,0.126968,1,0,3.4125,0.3675,0,-0.25803,0.032086,-0.886574,-0.0693,0.12754,0.49462
-0.278822,0,0,15.2788,15.2788,14.7212,14.7212,0.196817,-0.604069,3.415,0.152725,-0.0769916,0.0840972,0,0,3.8675,0.42,-0.1575,0.10248,-0.068198,-0.929152,-0.0693,0.12754,0.49462
-0.394288,0,0,15.3943,15.3943,14.6057,14.6057,0.27929,-0.412092,3.28071,0.149374,-0.0755521,0.0841209,0,0,0.0175,0.2275,-0.91,0.10248,-0.068198,-0.929152,-0.0693,0.12754,0.49462
-0.442226,0,0,15.4422,15.4422,14.5578,14.5578,0.313528,-0.297121,3.21933,0.103269,-0.033065,-0.0742274,0,0,4.0775,0.3675,-1.2075,0.058194,-0.026352,-1.08629,-0.07028,0.12502,0.49504
-0.443564,0,0,15.4436,15.4436,14.5564,14.5564,0.31448,-0.296984,3.21795,-0.449129,0.0111615,-0.0834486,1,0,3.9725,0.0525,-1.6975,-0.49654,0.017812,-1.09544,-0.07028,0.12502,0.49504
-0.444471,0,0,15.4445,15.4445,14.5555,14.5555,0.315125,-0.296544,3.21573,-0.449137,0.0111727,-0.0834487,1,0,3.7975,0.2275,-2.1875,-0.49654,0.017812,-1.09544,-0.07028,0.12502,0.49504
-0.864976,0,0,15.865,15.865,14.135,14.135,0.615479,-0.215355,3.17305,0.0554339,-0.263744,0.0920856,0,0,3.64,-0.4025,-2.52,0.01159,-0.262056,-0.921222,-0.07028,0.12502,0.49504
-1.27963,0,0,16.2796,16.2796,13.7204,13.7204,0.911649,-0.136082,3.13076,0.0540504,-0.258575,0.0920209,0,0,4.3225,-0.42,-2.765,0.01159,-0.262056,-0.921222,-0.07028,0.12502,0.49504
-1.28111,0,0,16.2811,16.2811,13.7189,13.7189,0.912694,-0.137042,3.12783,0.19985,0.0250212,0.164929,1,0,4.025,-0.6125,-2.59,0.15799,0.021228,-0.848876,-0.07028,0.12502,0.49504
-1.28306,0,0,16.2831,16.2831,13.7169,13.7169,0.914081,-0.137568,3.12581,0.199859,0.0250454,0.164929,1,0,4.2175,-0.35,-2.065,0.15799,0.021228,-0.848876,-0.07028,0.12502,0.49504
-1.28458,0,0,16.2846,16.2846,13.7154,13.7154,0.915156,-0.138184,3.12385,0.0895609,0.251365,-0.145025,1,0,4.0425,-0.4025,-2.03,0.047214,0.247294,-1.15644,-0.07028,0.12502,0.49504
-1.28443,0,0,16.2844,16.2844,13.7156,13.7156,0.915042,-0.138787,3.12294,0.0895714,0.251363,-0.145025,1,0,3.3775,-0.385,-1.4175,0.047214,0.247294,-1.15644,-0.06734,0.13146,0.49364
-1.02674,0,0,16.0267,16.0267,13.9733,13.9733,0.730968,-0.114094,3.13351,0.0273042,0.181103,-0.0435452,0,0,3.5,0.105,-1.0325,-0.014884,0.180316,-1.05579,-0.06734,0.13146,0.49364
-0.773451,0,0,15.7735,15.7735,14.2265,14.2265,0.550041,-0.0896023,3.1453,0.0268768,0.177946,-0.0435092,0,0,3.3775,0.2275,-0.28,-0.014884,0.180316,-1.05579,-0.06734,0.13146,0.49364
-0.773163,0,0,15.7732,15.7732,14.2268,14.2268,0.54983,-0.088827,3.14644,-0.077493,0.00330064,-0.170515,1,0,3.325,0.4375,-0.2275,-0.119682,0.005856,-1.18181,-0.06734,0.13146,0.49364
-0.773268,0,0,15.7733,15.7733,14.2267,14.2267,0.549898,-0.0897874,3.1479,-0.0774762,0.00330184,-0.170515,1,0,3.4825,-0.5775,-0.035,-0.119682,0.005856,-1.18181,-0.06734,0.13146,0.49364
-0.799418,0,0,15.7994,15.7994,14.2006,14.2006,0.568571,-0.118274,3.20199,-0.0255906,-0.0196985,-0.0626932,0,0,3.22,-0.63,0.2275,-0.068076,-0.017446,-1.07482,-0.06734,0.13146,0.49364
-0.826308,0,0,15.8263,15.8263,14.1737,14.1737,0.587772,-0.145415,3.2557,-0.0251169,-0.0193634,-0.0626977,0,0,3.71,-0.175,0.0875,-0.068076,-0.017446,-1.07482,-0.06734,0.13146,0.49364
-1.0129,0,0,16.0129,16.0129,13.9871,13.9871,0.721047,-0.214865,3.34446,-0.0635091,-0.124998,-0.000147273,0,0,4.2,-0.175,0.0875,-0.107848,-0.125294,-1.01272,-0.06734,0.13146,0.49364
-1.19684,0,0,16.1968,16.1968,13.8032,13.8032,0.852421,-0.281795,3.42733,-0.062341,-0.122705,-0.000183818,0,0,4.5325,0.9275,-0.1225,-0.107848,-0.125294,-1.01272,-0.0686,0.13482,0.49952
-1.199,0,0,16.199,16.199,13.801,13.801,0.853956,-0.280329,3.42789,-0.0198465,-0.0910473,-0.107149,1,0,4.305,0.84,-0.5775,-0.065148,-0.093696,-1.11886,-0.0686,0.13482,0.49952
-1.20069,0,0,16.2007,16.2007,13.7993,13.7993,0.855153,-0.279149,3.42748,-0.0198672,-0.0910265,-0.107149,1,0,4.1125,0.665,-1.1375,-0.065148,-0.093696,-1.11886,-0.0686,0.13482,0.49952
-1.11248,0,0,16.1125,16.1125,13.8875,13.8875,0.792138,-0.267884,3.44505,0.0104291,0.061265,-0.0262326,0,0,4.0425,0.63,-1.4175,-0.034526,0.059536,-1.03859,-0.0686,0.13482,0.49952
-1.02254,0,0,16.0225,16.0225,13.9775,13.9775,0.727888,-0.257522,3.46201,0.0102483,0.0601438,-0.0262169,0,0,2.695,0.21,-1.75,-0.034526,0.059536,-1.03859,-0.0686,0.13482,0.49952
-0.951619,0,0,15.9516,15.9516,14.0484,14.0484,0.677221,-0.280983,3.50793,-0.0183773,0.0455814,-0.00211011,0,0,2.38,-0.35,-1.8375,-0.063684,0.045872,-1.01467,-0.0686,0.13482,0.49952
-0.881403,0,0,15.8814,15.8814,14.1186,14.1186,0.62706,-0.304265,3.55304,-0.017971,0.0447059,-0.00210222,0,0,2.135,-0.5425,-2.2925,-0.063684,0.045872,-1.01467,-0.0686,0.13482,0.49952
-1.18892,0,0,16.1889,16.1889,13.8111,13.8111,0.846707,-0.147455,3.42497,0.131149,-0.211224,0.0140885,0,0,2.0825,-0.3675,-2.0475,0.088816,-0.213622,-0.99857,-0.0686,0.13482,0.49952
-1.4931,0,0,16.4931,16.4931,13.5069,13.5069,1.06397,0.0100297,3.31448,0.128401,-0.207433,0.0140285,0,0,2.8875,0.0875,-1.8375,0.088816,-0.213622,-0.99857,-0.06706,0.12432,0.48594
-1.64725,0,0,16.6473,16.6473,13.3527,13.3527,1.17406,-0.254461,3.58385,-0.248327,-0.115138,-0.045403,0,0,3.2725,0.0175,-1.645,-0.294142,-0.123342,-1.0575,-0.06706,0.12432,0.48594
-1.80077,0,0,16.8008,16.8008,13.1992,13.1992,1.2837,-0.513608,3.85243,-0.243804,-0.113226,-0.0454743,0,0,4.1475,0.1225,-1.12,-0.294142,-0.123342,-1.0575,-0.06706,0.12432,0.48594
-1.80342,0,0,16.8034,16.8034,13.1966,13.1966,1.28558,-0.513748,3.85245,0.201687,-0.249364,-0.0741221,1,0,4.4975,-0.105,-0.875,0.153232,-0.259372,-1.08592,-0.06706,0.12432,0.48594
-1.80479,0,0,16.8048,16.8048,13.1952,13.1952,1.28655,-0.513457,3.85321,0.201682,-0.249347,-0.0741224,1,0,3.99,0.1575,-0.455,0.153232,-0.259372,-1.08592,-0.06706,0.12432,0.48594
-1.83611,0,0,16.8361,16.8361,13.1639,13.1639,1.3089,-0.321419,3.72605,0.166987,-0.0215568,-0.0225914,0,0,3.255,0.5075,-0.175,0.121756,-0.032208,-1.0348,-0.06706,0.12432,0.48594
-1.86567,0,0,16.8657,16.8657,13.1343,13.1343,1.33001,-0.134297,3.59999,0.163721,-0.0211883,-0.0225869,0,0,2.8175,-0.0875,0.2625,0.121756,-0.032208,-1.0348,-0.06706,0.12432,0.48594
-1.84743,0,0,16.8474,16.8474,13.1526,13.1526,1.31697,-0.0558561,3.56977,0.0675929,0.00997084,-7.97871e-05,0,0,1.855,-0.315,0.6125,0.026596,-0.000854,-1.01248,-0.06706,0.12432,0.48594
-1.83044,0,0,16.8304,16.8304,13.1696,13.1696,1.30481,0.0207685,3.54054,0.0662556,0.0097588,-7.45252e-05,0,0,2.2225,-0.4375,1.1725,0.026596,-0.000854,-1.01248,-0.06706,0.12432,0.48594
-1.87357,0,0,16.8736,16.8736,13.1264,13.1264,1.33561,0.0138345,3.57386,-0.0067578,-0.0324482,-0.0267667,0,0,2.275,-0.07,1.155,-0.046848,-0.043554,-1.03895,-0.07168,0.13118,0.48916
-1.91643,0,0,16.9164,16.9164,13.0836,13.0836,1.36621,0.00668908,3.60606,-0.00663309,-0.0319143,-0.0267793,0,0,2.485,-0.28,0.56,-0.046848,-0.043554,-1.03895,-0.07168,0.13118,0.48916
-1.91515,0,0,16.9152,16.9152,13.0848,13.0848,1.36528,0.00633659,3.60746,0.0305477,0.0942264,-0.127843,1,0,2.9225,-0.21,-0.07,-0.009516,0.082472,-1.13924,-0.07168,0.13118,0.48916
-1.91388,0,0,16.9139,16.9139,13.0861,13.0861,1.36435,0.00598411,3.60886,0.0305538,0.0942102,-0.127842,1,0,2.9225,-0.21,-0.07,-0.009516,0.082472,-1.13924,-0.07168,0.13118,0.48916
-1.91391,0,0,16.9139,16.9139,13.0861,13.0861,1.36436,0.00614516,3.60877,-0.0124549,0.0366887,0.111416,1,0,3.4475,0.07,-0.945,-0.052704,0.02501,-0.901824,-0.07168,0.13118,0.48916
-1.91394,0,0,16.9139,16.9139,13.0861,13.0861,1.36437,0.00630622,3.60868,-0.0124577,0.0366888,0.111416,1,0,3.4475,0.07,-0.945,-0.052704,0.02501,-0.901824,-0.07168,0.13118,0.48916
-1.82728,0,0,16.8273,16.8273,13.1727,13.1727,1.30246,0.208802,3.45307,0.173769,0.0601559,0.00901803,0,0,3.605,0.1925,-2.135,0.13786,0.049532,-1.00345,-0.07168,0.13118,0.48916
-1.74208,0,0,16.7421,16.7421,13.2579,13.2579,1.24159,0.407302,3.29737,0.170304,0.0590933,0.00902299,0,0,3.605,0.1925,-2.135,0.13786,0.049532,-1.00345,-0.07168,0.13118,0.48916
-1.66573,0,0,16.6657,16.6657,13.3343,13.3343,1.18704,0.470793,3.26054,0.0575508,0.0528899,-0.0193664,0,0,3.7275,-0.6125,-3.185,0.025742,0.044286,-1.03163,-0.06902,0.12768,0.48664
-1.48756,0,0,16.4876,16.4876,13.5124,13.5124,1.05976,0.676389,3.09636,0.196101,0.130906,-0.0693988,0,0,3.4475,-0.105,-3.43,0.168482,0.12444,-1.08129,-0.06902,0.12768,0.48664
-1.31103,0,0,16.311,16.311,13.689,13.689,0.933656,0.878684,2.93189,0.192571,0.128704,-0.0694085,0,0,2.87,0.2975,-3.3075,0.168482,0.12444,-1.08129,-0.06902,0.12768,0.48664
-1.22248,0,0,16.2225,16.2225,13.7775,13.7775,0.8704,0.835379,2.98381,-0.0381039,0.0637285,-0.0933547,0,0,3.535,0.0175,-3.4825,-0.063928,0.060634,-1.10508,-0.06902,0.12768,0.48664
-1.13287,0,0,16.1329,16.1329,13.8671,13.8671,0.80638,0.793103,3.03619,-0.0373662,0.0626115,-0.0933279,0,0,2.45,0.105,-3.22,-0.063928,0.060634,-1.10508,-0.06902,0.12768,0.48664
-1.56883,0,0,16.5688,16.5688,13.4312,13.4312,1.11777,0.547816,3.26446,-0.197577,-0.265971,0.16138,0,0,2.6075,0.21,-2.5725,-0.229116,-0.273036,-0.852292,-0.06902,0.12768,0.48664
-1.99595,0,0,16.996,16.996,13.004,13.004,1.42284,0.3074,3.49082,-0.193381,-0.260647,0.161293,0,0,2.065,0.385,-1.855,-0.229116,-0.273036,-0.852292,-0.06902,0.12768,0.48664
-2.30513,0,0,17.3051,17.3051,12.6949,12.6949,1.64367,0.479891,3.3543,0.142675,-0.213928,0.0217461,0,0,1.7675,0.175,-1.5575,0.111386,-0.230214,-0.99064,-0.06902,0.12768,0.48664
-2.60975,0,0,17.6097,17.6097,12.3903,12.3903,1.86123,0.649096,3.22185,0.139722,-0.210134,0.0216009,0,0,2.17,0.2275,-0.8225,0.111386,-0.230214,-0.99064,-0.06944,0.12684,0.4893
-2.60617,0,0,17.6062,17.6062,12.3938,12.3938,1.85866,0.648755,3.22253,-0.265913,0.0340746,-0.163066,1,0,1.995,-0.21,-0.49,-0.295972,0.013786,-1.17388,-0.06944,0.12684,0.4893
-2.60555,0,0,17.6055,17.6055,12.3945,12.3945,1.85819,0.648123,3.22479,-0.265902,0.0340665,-0.163066,1,0,3.1675,-0.35,0.4375,-0.295972,0.013786,-1.17388,-0.06944,0.12684,0.4893
-2.30104,0,0,17.301,17.301,12.699,12.699,1.64067,0.633055,3.26481,-0.00772468,0.21334,-0.0232775,0,0,3.605,-0.1925,0.63,-0.036966,0.196664,-1.03529,-0.06944,0.12684,0.4893
-2.00314,0,0,17.0031,17.0031,12.9969,12.9969,1.42787,0.618345,3.30568,-0.00746795,0.209628,-0.0231753,0,0,4.06,-0.1925,1.015,-0.036966,0.196664,-1.03529,-0.06944,0.12684,0.4893
-2.0041,0,0,17.0041,17.0041,12.9959,12.9959,1.42854,0.618243,3.30894,0.0547345,0.0536835,-0.134198,1,0,3.7975,-0.035,1.015,0.025498,0.04087,-1.14546,-0.06944,0.12684,0.4893
-2.00393,0,0,17.0039,17.0039,12.9961,12.9961,1.4284,0.618222,3.31257,0.0547349,0.053681,-0.134198,1,0,3.3425,0.0175,1.225,0.025498,0.04087,-1.14546,-0.06944,0.12684,0.4893
-2.00314,0,0,17.0031,17.0031,12.9969,12.9969,1.42782,0.618263,3.31611,0.176098,-0.121092,-0.125222,1,0,3.0975,0.0525,1.1725,0.147376,-0.133712,-1.13655,-0.06944,0.12684,0.4893
-2.00086,0,0,17.0009,17.0009,12.9991,12.9991,1.42617,0.618082,3.31896,0.176102,-0.121121,-0.125222,1,0,2.5025,-0.0875,0.77,0.147376,-0.133712,-1.13655,-0.06538,0.12852,0.4963
-2.19912,0,0,17.1991,17.1991,12.8009,12.8009,1.56777,0.687293,3.2725,0.0547443,-0.130864,0.0424017,0,0,2.275,-0.245,0.385,0.026718,-0.145912,-0.970144,-0.06538,0.12852,0.4963
-2.39428,0,0,17.3943,17.3943,12.6057,12.6057,1.70716,0.755691,3.22526,0.0535506,-0.128433,0.0423172,0,0,2.485,0.1225,-0.2975,0.026718,-0.145912,-0.970144,-0.06538,0.12852,0.4963
-2.46842,0,0,17.4684,17.4684,12.5316,12.5316,1.7601,0.871543,3.13472,0.101216,-0.051303,-0.00814836,0,0,3.1325,-0.9275,-0.49,0.076616,-0.069784,-1.02016,-0.06538,0.12852,0.4963
-2.54173,0,0,17.5417,17.5417,12.4583,12.4583,1.81244,0.985718,3.0437,0.099224,-0.050391,-0.00820911,0,0,3.36,-0.5425,-0.9975,0.076616,-0.069784,-1.02016,-0.06538,0.12852,0.4963
-2.63932,0,0,17.6393,17.6393,12.3607,12.3607,1.88213,0.992893,3.04579,0.00676966,-0.0709142,-0.0518972,0,0,3.78,-0.315,-1.4525,-0.016104,-0.0915,-1.06347,-0.06538,0.12852,0.4963
-2.73643,0,0,17.7364,17.7364,12.2636,12.2636,1.95147,1.00103,3.04718,0.0066277,-0.069705,-0.0519401,0,0,4.305,0.3325,-1.8725,-0.016104,-0.0915,-1.06347,-0.06538,0.12852,0.4963
-2.7384,0,0,17.7384,17.7384,12.2616,12.2616,1.95285,1.00235,3.04563,0.02094,0.169321,0.320961,1,0,4.235,0.7175,-1.82,-0.001708,0.147254,-0.693448,-0.06538,0.12852,0.4963
-2.74121,0,0,17.7412,17.7412,12.2588,12.2588,1.95484,1.00325,3.04299,0.0209242,0.169356,0.32096,1,0,4.585,0.455,-2.45,-0.001708,0.147254,-0.693448,-0.06818,0.12712,0.49168
-2.57761,0,0,17.5776,17.5776,12.4224,12.4224,1.83797,1.4044,2.69847,0.315452,0.108814,0.137318,0,0,3.57,0.0525,-2.415,0.301096,0.088816,-0.875594,-0.06818,0.12712,0.49168
-2.41651,0,0,17.4165,17.4165,12.5835,12.5835,1.72288,1.79805,2.35238,0.308584,0.106801,0.137189,0,0,3.64,0.035,-2.8,0.301096,0.088816,-0.875594,-0.06818,0.12712,0.49168
-2.47545,0,0,17.4754,17.4754,12.5246,12.5246,1.76495,1.86408,2.29067,0.0640965,-0.0463459,-0.0865136,0,0,3.3775,-0.07,-2.9225,0.05673,-0.064904,-1.09751,-0.06818,0.12712,0.49168
-2.53393,0,0,17.5339,17.5339,12.4661,12.4661,1.80671,1.92895,2.22963,0.0629648,-0.0456192,-0.0865738,0,0,3.6225,0.0525,-2.66,0.05673,-0.064904,-1.09751,-0.06818,0.12712,0.49168
-2.62304,0,0,17.623,17.623,12.377,12.377,1.87034,1.83571,2.30836,-0.0827709,-0.0663687,-0.0618433,0,0,3.85,-0.105,-2.415,-0.091256,-0.086742,-1.07299,-0.06818,0.12712,0.49168
-2.70952,0,0,17.7095,17.7095,12.2905,12.2905,1.93209,1.74482,2.38741,-0.0811853,-0.0652905,-0.0618295,0,0,3.43,0.175,-1.995,-0.091256,-0.086742,-1.07299,-0.06818,0.12712,0.49168
-2.70906,0,0,17.7091,17.7091,12.2909,12.2909,1.93174,1.74523,2.38604,0.339269,0.0495026,0.289188,1,0,3.2725,0.1925,-1.6975,0.330986,0.027938,-0.72468,-0.06818,0.12712,0.49168
-2.70903,0,0,17.709,17.709,12.291,12.291,1.9317,1.74598,2.38535,0.339256,0.0495018,0.289188,1,0,3.43,0.4025,-1.3125,0.330986,0.027938,-0.72468,-0.06818,0.12712,0.49168
-2.70866,0,0,17.7087,17.7087,12.2913,12.2913,1.93141,1.74618,2.38502,0.0352957,0.0475429,0.176813,1,0,3.29,0.0875,-1.085,0.025742,0.025986,-0.836188,-0.0686,0.13006,0.48188
-2.70854,0,0,17.7085,17.7085,12.2915,12.2915,1.9313,1.74624,2.38524,0.053639,-0.00558419,0.214804,1,0,3.3775,0.0175,-0.77,0.044164,-0.027084,-0.79849,-0.0686,0.13006,0.48188
-2.70888,0,0,17.7089,17.7089,12.2911,12.2911,1.93153,1.74655,2.38609,0.0536336,-0.00558033,0.214804,1,0,3.5525,0.175,-0.4025,0.044164,-0.027084,-0.79849,-0.0686,0.13006,0.48188
-2.90004,0,0,17.9,17.9,12.1,12.1,2.06805,1.85576,2.2868,0.0935196,-0.130214,0.00761577,0,0,3.99,0.0525,-0.175,0.086132,-0.153964,-1.00394,-0.0686,0.13006,0.48188
-3.08978,0,0,18.0898,18.0898,11.9102,11.9102,2.20356,1.96263,2.18927,0.0916555,-0.127854,0.00746558,0,0,4.7775,0.0175,0.455,0.086132,-0.153964,-1.00394,-0.0686,0.13006,0.48188
-2.89707,0,0,17.8971,17.8971,12.1029,12.1029,2.06588,2.06407,2.09666,0.0883067,0.137812,-0.0153756,0,0,5.1625,0.175,0.595,0.084546,0.113826,-1.02663,-0.0686,0.13006,0.48188
-2.7075,0,0,17.7075,17.7075,12.2925,12.2925,1.93045,2.16305,2.00386,0.0865803,0.135449,-0.0153569,0,0,5.0575,-0.0875,0.6125,0.084546,0.113826,-1.02663,-0.0686,0.13006,0.48188
-2.66819,0,0,17.6682,17.6682,12.3318,12.3318,1.90235,2.11509,2.03908,-0.0401432,0.0283436,0.0476404,0,0,4.2525,-0.4025,0.7525,-0.043554,0.00732,-0.964166,-0.0686,0.13006,0.48188
-2.62837,0,0,17.6284,17.6284,12.3716,12.3716,1.87389,2.0682,2.07486,-0.0393253,0.0278485,0.0476866,0,0,3.7625,-0.4375,0.665,-0.043554,0.00732,-0.964166,-0.06608,0.12936,0.4837
-2.62885,0,0,17.6288,17.6288,12.3712,12.3712,1.87421,2.06798,2.07741,0.084351,-0.0787626,0.157603,1,0,3.57,-0.105,0.595,0.080642,-0.099186,-0.855098,-0.06608,0.12936,0.4837
-2.62832,0,0,17.6283,17.6283,12.3717,12.3717,1.87382,2.06757,2.07916,0.0843581,-0.0787695,0.157603,1,0,3.185,-0.2275,0.14,0.080642,-0.099186,-0.855098,-0.06608,0.12936,0.4837
-2.43205,0,0,17.432,17.432,12.568,12.568,1.7336,1.89907,2.22376,-0.138545,0.127748,0.0645867,0,0,3.3425,-0.4375,0.0175,-0.146156,0.109556,-0.947574,-0.06608,0.12936,0.4837
-2.23945,0,0,17.2394,17.2394,12.7606,12.7606,1.59601,1.73443,2.36832,-0.135673,0.125351,0.0647475,0,0,3.43,-0.105,-0.3325,-0.146156,0.109556,-0.947574,-0.06608,0.12936,0.4837
-2.24051,0,0,17.2405,17.2405,12.7595,12.7595,1.59676,1.73427,2.36898,0.327312,-0.113882,-0.229469,1,0,3.85,-0.105,-0.5075,0.318786,-0.129442,-1.23952,-0.06608,0.12936,0.4837
-2.24201,0,0,17.242,17.242,12.758,12.758,1.59781,1.73445,2.36829,0.327309,-0.113863,-0.229469,1,0,4.0425,0.07,-1.295,0.318786,-0.129442,-1.23952,-0.06608,0.12936,0.4837
-2.30984,0,0,17.3098,17.3098,12.6902,12.6902,1.64624,1.85344,2.25924,0.103643,-0.0446297,-0.00480816,0,0,4.7075,0.245,-1.5225,0.096258,-0.061122,-1.0165,-0.06608,0.12936,0.4837
-2.37616,0,0,17.3762,17.3762,12.6238,12.6238,1.6936,1.96962,2.14906,0.101617,-0.043806,-0.00489984,0,0,4.62,-0.0175,-1.96,0.096258,-0.061122,-1.0165,-0.06748,0.12992,0.49448
-2.23339,0,0,17.2334,17.2334,12.7666,12.7666,1.5916,2.01198,2.10338,0.0346682,0.098158,0.0220512,0,0,4.3925,0,-2.135,0.029768,0.082472,-0.989786,-0.06748,0.12992,0.49448
-2.09261,0,0,17.0926,17.0926,12.9074,12.9074,1.49103,2.05399,2.05707,0.0339355,0.0964038,0.0220724,0,0,4.1825,0.28,-2.5025,0.029768,0.082472,-0.989786,-0.06748,0.12992,0.49448
-2.09202,0,0,17.092,17.092,12.908,12.908,1.49059,2.05479,2.05418,0.00269965,-0.12734,0.150799,1,0,3.255,0.4025,-2.59,-0.001586,-0.141032,-0.862052,-0.06748,0.12992,0.49448
-2.09202,0,0,17.092,17.092,12.908,12.908,1.49058,2.05516,2.05092,0.00269331,-0.12734,0.150799,1,0,3.5,0.14,-2.8,-0.001586,-0.141032,-0.862052,-0.06748,0.12992,0.49448
-2.08959,0,0,17.0896,17.0896,12.9104,12.9104,1.48882,2.05554,2.0478,0.13705,-0.0667961,-0.126326,1,0,2.52,0.1575,-2.7125,0.133346,-0.08052,-1.13704,-0.06748,0.12992,0.49448
-2.08826,0,0,17.0883,17.0883,12.9117,12.9117,1.48786,2.05553,2.04513,0.13705,-0.0668129,-0.126326,1,0,2.9575,-0.07,-2.45,0.133346,-0.08052,-1.13704,-0.06748,0.12992,0.49448
-2.23894,0,0,17.2389,17.2389,12.7611,12.7611,1.59547,2.13621,1.96411,0.0751429,-0.10927,-0.0460196,0,0,4.095,0.4725,-2.065,0.07259,-0.124806,-1.05725,-0.06748,0.12992,0.49448
-2.38682,0,0,17.3868,17.3868,12.6132,12.6132,1.70108,2.21655,1.89557,0.0737416,-0.10743,-0.0461258,0,0,4.025,0.595,-1.6625,0.07259,-0.124806,-1.05725,-0.06734,0.12236,0.49364
-2.406,0,0,17.406,17.406,12.594,12.594,1.71476,2.06019,2.03666,-0.137103,-0.0124185,-0.00508932,0,0,4.4275,0.665,-1.5925,-0.141886,-0.030134,-1.01663,-0.06734,0.12236,0.49364
-2.42574,0,0,17.4257,17.4257,12.5743,12.5743,1.72884,1.90575,2.1786,-0.134409,-0.0121703,-0.00500347,0,0,4.7775,0,-0.84,-0.141886,-0.030134,-1.01663,-0.06734,0.12236,0.49364
-2.57505,0,0,17.575,17.575,12.425,12.425,1.83547,1.85404,2.23218,-0.04543,-0.0959211,0.0440247,0,0,4.305,0.1575,-0.6125,-0.053436,-0.115656,-0.967948,-0.06734,0.12236,0.49364
-2.71147,0,0,17.7115,17.7115,12.2885,12.2885,1.93289,1.80323,2.28595,-0.0445437,-0.0942215,0.0439971,0,0,0.21,0.105,-0.28,-0.053436,-0.115656,-0.967948,-0.06734,0.12236,0.49364
-2.71257,0,0,17.7126,17.7126,12.2874,12.2874,1.93366,1.80239,2.28724,0.193583,0.040864,-0.232514,1,0,3.85,-0.49,-0.1225,0.185684,0.019276,-1.24233,-0.06734,0.12236,0.49364
-2.71331,0,0,17.7133,17.7133,12.2867,12.2867,1.93416,1.80003,2.28912,0.193624,0.0408729,-0.232513,1,0,3.6925,-1.365,0.245,0.185684,0.019276,-1.24233,-0.06734,0.12236,0.49364
-2.71463,0,0,17.7146,17.7146,12.2854,12.2854,1.93509,1.79839,2.29131,0.0338991,-0.070857,-0.191817,1,0,3.92,-0.945,0.42,0.025254,-0.092354,-1.20194,-0.06734,0.12236,0.49364
-2.71473,0,0,17.7147,17.7147,12.2853,12.2853,1.93514,1.79712,2.29373,0.0339212,-0.0708561,-0.191816,1,0,3.43,-0.7175,0.5425,0.025254,-0.092354,-1.20194,-0.06832,0.12936,0.49336
-2.97254,0,0,17.9725,17.9725,12.0275,12.0275,2.11927,1.73589,2.34549,-0.0515085,-0.166323,0.0708442,0,0,3.1675,-0.49,0.3675,-0.06161,-0.19093,-0.94123,-0.06832,0.12936,0.49336
-3.22554,0,0,18.2255,18.2255,11.7745,11.7745,2.29996,1.6759,2.39659,-0.050462,-0.163172,0.0707538,0,0,3.08,-0.4725,0.315,-0.06161,-0.19093,-0.94123,-0.06832,0.12936,0.49336
-3.22476,0,0,18.2248,18.2248,11.7752,11.7752,2.29937,1.67541,2.39873,-0.149464,0.200511,-0.122766,1,0,3.08,-0.2625,0.3675,-0.16104,0.172386,-1.13326,-0.06832,0.12936,0.49336
-3.22475,0,0,18.2247,18.2247,11.7753,11.7753,2.29934,1.67535,2.40044,-0.149463,0.200511,-0.122766,1,0,3.395,-0.0175,0.105,-0.16104,0.172386,-1.13326,-0.06832,0.12936,0.49336
-3.22567,0,0,18.2257,18.2257,11.7743,11.7743,2.29997,1.67505,2.40151,-0.097705,-0.0520365,-0.225429,1,0,3.78,-0.175,-0.2625,-0.109068,-0.07991,-1.23513,-0.06832,0.12936,0.49336
-3.22644,0,0,18.2264,18.2264,11.7736,11.7736,2.3005,1.67533,2.40227,-0.0977098,-0.0520272,-0.225429,1,0,3.7275,0.1575,-0.455,-0.109068,-0.07991,-1.23513,-0.06832,0.12936,0.49336
-3.24578,0,0,18.2458,18.2458,11.7542,11.7542,2.31429,1.65509,2.41935,-0.0168118,-0.0145378,-0.0295717,0,0,3.675,-0.14,-0.595,-0.028182,-0.0427,-1.04078,-0.06832,0.12936,0.49336
-3.26418,0,0,18.2642,18.2642,11.7358,11.7358,2.32741,1.63562,2.4356,-0.0164721,-0.0143088,-0.0295712,0,0,3.4475,0.0525,-1.05,-0.028182,-0.0427,-1.04078,-0.06832,0.12936,0.49336
-3.26358,0,0,18.2636,18.2636,11.7364,11.7364,2.32696,1.63623,2.43481,-0.148659,0.153241,0.18399,1,0,3.2025,0.315,-1.365,-0.160918,0.124684,-0.828868,-0.06846,0.12922,0.49686
-3.26329,0,0,18.2633,18.2633,11.7367,11.7367,2.32672,1.63757,2.43294,-0.148683,0.153237,0.18399,1,0,3.3425,0.7175,-2.0125,-0.160918,0.124684,-0.828868,-0.06846,0.12922,0.49686
-3.24678,0,0,18.2468,18.2468,11.7532,11.7532,2.31491,1.9786,2.13046,0.307864,0.0128221,-0.00171875,0,0,3.5525,0.875,-2.6425,0.303536,-0.015372,-1.01297,-0.06846,0.12922,0.49686
-3.23024,0,0,18.2302,18.2302,11.7698,11.7698,2.30307,2.31309,1.82843,0.302031,0.0126069,-0.00192885,0,0,3.5525,0.875,-2.6425,0.303536,-0.015372,-1.01297,-0.06846,0.12922,0.49686
-3.22899,0,0,18.229,18.229,11.771,11.771,2.30215,2.31417,1.82472,0.00996003,-0.0615401,0.111675,1,0,3.01,0.525,-3.08,0.010248,-0.089426,-0.900238,-0.06846,0.12922,0.49686
-3.22773,0,0,18.2277,18.2277,11.7723,11.7723,2.30122,2.31526,1.821,0.0099411,-0.0615562,0.111675,1,0,3.01,0.525,-3.08,0.010248,-0.089426,-0.900238,-0.06846,0.12922,0.49686
-3.22587,0,0,18.2259,18.2259,11.7741,11.7741,2.29987,2.31685,1.81812,-0.0515584,-0.194209,0.17401,1,0,2.7475,0.84,-2.6075,-0.051484,-0.221918,-0.838384,-0.06846,0.12922,0.49686
-3.224,0,0,18.224,18.224,11.776,11.776,2.29851,2.31844,1.81524,-0.0515861,-0.194233,0.17401,1,0,2.7475,0.84,-2.6075,-0.051484,-0.221918,-0.838384,-0.06846,0.12922,0.49686
-3.17402,0,0,18.174,18.174,11.826,11.826,2.26278,2.47117,1.6732,0.124213,0.034616,0.0464258,0,0,2.9575,-0.1225,-2.3275,0.127734,0.00732,-0.964898,-0.07168,0.12572,0.49154
-3.17202,0,0,18.172,18.172,11.828,11.828,2.26134,2.47129,1.67125,-0.134311,-0.264986,0.211792,1,0,2.6775,0,-2.03,-0.131882,-0.291946,-0.800808,-0.07168,0.12572,0.49154
-3.1701,0,0,18.1701,18.1701,11.8299,11.8299,2.25994,2.4716,1.67051,-0.134316,-0.26501,0.211793,1,0,2.6775,0.14,-1.33,-0.131882,-0.291946,-0.800808,-0.07168,0.12572,0.49154
-3.1685,0,0,18.1685,18.1685,11.8315,11.8315,2.25877,2.47107,1.67064,0.22274,0.155085,-0.204755,1,0,2.7825,-0.3325,-0.805,0.226676,0.127734,-1.21414,-0.07168,0.12572,0.49154
-3.16876,0,0,18.1688,18.1688,11.8312,11.8312,2.25893,2.46958,1.67217,0.222766,0.155088,-0.204754,1,0,3.5,-0.8575,0.035,0.226676,0.127734,-1.21414,-0.07168,0.12572,0.49154
-3.16893,0,0,18.1689,18.1689,11.8311,11.8311,2.25903,2.46822,1.67419,-0.148228,0.037726,-0.221474,1,0,3.4475,-0.77,0.315,-0.145912,0.010492,-1.23074,-0.07168,0.12572,0.49154
-3.16873,0,0,18.1687,18.1687,11.8313,11.8313,2.25886,2.46676,1.67737,-0.148203,0.0377232,-0.221473,1,0,3.2725,-0.805,0.9975,-0.145912,0.010492,-1.23074,-0.07168,0.12572,0.49154
-3.16901,0,0,18.169,18.169,11.831,11.831,2.25903,2.46597,1.68113,-0.219501,-0.0359163,-0.179301,1,0,3.4475,-0.4025,1.3125,-0.217526,-0.063074,-1.18889,-0.07168,0.12572,0.49154
-3.16693,0,0,18.1669,18.1669,11.8331,11.8331,2.25753,2.46585,1.68578,-0.219499,-0.0359426,-0.1793,1,0,2.485,0.0175,1.82,-0.217526,-0.063074,-1.18889,-0.0651,0.1295,0.49294
-3.16433,0,0,18.1643,18.1643,11.8357,11.8357,2.25564,2.4652,1.69047,0.365952,-0.373534,0.0362304,1,0,2.275,-0.2975,1.855,0.370392,-0.400282,-0.975024,-0.0651,0.1295,0.49294
-3.16312,0,0,18.1631,18.1631,11.8369,11.8369,2.25476,2.46398,1.69504,0.365973,-0.373549,0.036232,1,0,2.835,-0.63,1.8025,0.370392,-0.400282,-0.975024,-0.0651,0.1295,0.49294
-3.16319,0,0,18.1632,18.1632,11.8368,11.8368,2.25478,2.46347,1.69908,-0.226139,0.0449798,-0.0932324,1,0,3.36,-0.2275,1.47,-0.224236,0.017812,-1.10349,-0.0651,0.1295,0.49294
-3.16615,0,0,18.1661,18.1661,11.8339,11.8339,2.25687,2.46296,1.70173,-0.22613,0.0450162,-0.0932335,1,0,4.55,-0.2625,0.665,-0.224236,0.017812,-1.10349,-0.0651,0.1295,0.49294
-3.21139,0,0,18.2114,18.2114,11.7886,11.7886,2.28917,2.39198,1.75304,-0.0623445,-0.0328244,-0.046483,0,0,4.5325,0.1925,0.1575,-0.061,-0.060512,-1.05713,-0.0651,0.1295,0.49294
-3.25412,0,0,18.2541,18.2541,11.7459,11.7459,2.31966,2.32207,1.80185,-0.0611253,-0.0322911,-0.0464542,0,0,3.9025,-0.07,-1.1725,-0.061,-0.060512,-1.05713,-0.0651,0.1295,0.49294
-3.20627,0,0,18.2063,18.2063,11.7937,11.7937,2.28546,2.56098,1.57748,0.226274,0.0340313,-0.0522634,0,0,3.3425,0.07,-1.575,0.2318,0.006344,-1.06274,-0.0651,0.1295,0.49294
-3.15663,0,0,18.1566,18.1566,11.8434,11.8434,2.24998,2.7979,1.36072,0.222144,0.0334056,-0.052432,0,0,2.345,0.0875,-2.38,0.2318,0.006344,-1.06274,-0.0742,0.12474,0.48608
-3.24915,0,0,18.2491,18.2491,11.7509,11.7509,2.31603,2.71996,1.41597,-0.0668482,-0.068394,-0.0165115,0,0,2.3975,-0.035,-3.22,-0.05978,-0.096502,-1.02712,-0.0742,0.12474,0.48608
-3.34059,0,0,18.3406,18.3406,11.6594,11.6594,2.38133,2.64323,1.46914,-0.0655105,-0.067254,-0.0164956,0,0,2.6775,-0.2975,-4.2175,-0.05978,-0.096502,-1.02712,-0.0742,0.12474,0.48608
-3.33913,0,0,18.3391,18.3391,11.6609,11.6609,2.38026,2.64357,1.46341,0.0885274,0.0919806,-0.108829,1,0,2.9925,0.035,-4.235,0.094916,0.062586,-1.11874,-0.0742,0.12474,0.48608
-3.34102,0,0,18.341,18.341,11.659,11.659,2.38158,2.64514,1.4581,0.0885,0.0920036,-0.108832,1,0,4.3225,0.77,-4.025,0.094916,0.062586,-1.11874,-0.0742,0.12474,0.48608
-3.29407,0,0,18.2941,18.2941,11.7059,11.7059,2.34802,2.63778,1.45175,-0.00831727,0.0331647,0.0194337,0,0,3.85,0.5775,-4.025,-0.00244,0.004392,-0.991494,-0.0742,0.12474,0.48608
-3.24664,0,0,18.2466,18.2466,11.7534,11.7534,2.31412,2.6297,1.44616,-0.00817631,0.0325744,0.0194642,0,0,3.3075,0.0875,-3.5875,-0.00244,0.004392,-0.991494,-0.0742,0.12474,0.48608
-3.11974,0,0,18.1197,18.1197,11.8803,11.8803,2.22345,2.65777,1.40966,0.0237708,0.0868059,-0.0102493,0,0,2.3975,0.28,-2.8525,0.030134,0.060146,-1.02102,-0.0742,0.12474,0.48608
-2.99799,0,0,17.998,17.998,12.002,12.002,2.13646,2.68472,1.37879,0.0233011,0.0852896,-0.0102135,0,0,3.4825,0.2625,-1.0325,0.030134,0.060146,-1.02102,-0.06776,0.1225,0.4837
-2.81461,0,0,17.8146,17.8146,12.1854,12.1854,2.00546,2.72163,1.33908,0.0328624,0.130025,-0.0186448,0,0,3.4825,0.175,-0.14,0.040382,0.107116,-1.02944,-0.06776,0.1225,0.4837
-2.63379,0,0,17.6338,17.6338,12.3662,12.3662,1.87628,2.75684,1.30054,0.0322486,0.127773,-0.0185979,0,0,3.185,-0.3675,0.56,0.040382,0.107116,-1.02944,-0.06776,0.1225,0.4837
-2.55084,0,0,17.5508,17.5508,12.4492,12.4492,1.81701,2.53036,1.49651,-0.182963,0.0546914,0.102353,0,0,3.3425,-0.56,1.05,-0.179706,0.035136,-0.909632,-0.06776,0.1225,0.4837
-2.46815,0,0,17.4682,17.4682,12.5318,12.5318,1.75793,2.3089,1.69384,-0.179101,0.0536668,0.102548,0,0,2.87,-0.1575,1.8025,-0.179706,0.035136,-0.909632,-0.06776,0.1225,0.4837
-2.46625,0,0,17.4662,17.4662,12.5338,12.5338,1.75655,2.30843,1.6989,-0.0899226,-0.209418,0.194761,1,0,2.555,-0.21,2.065,-0.090158,-0.227652,-0.818132,-0.06776,0.1225,0.4837
-2.46605,0,0,17.466,17.466,12.534,12.534,1.75639,2.30766,1.70392,-0.0899091,-0.209421,0.194761,1,0,3.2375,-0.385,2.0475,-0.090158,-0.227652,-0.818132,-0.06776,0.1225,0.4837
-2.77039,0,0,17.7704,17.7704,12.2296,12.2296,1.97376,2.63055,1.42443,0.280094,-0.210892,0.0802992,0,0,2.765,-0.63,2.065,0.287066,-0.232898,-0.931348,-0.06776,0.1225,0.4837
-3.07555,0,0,18.0755,18.0755,11.9245,11.9245,2.1917,2.9467,1.13873,0.274583,-0.207105,0.0798928,0,0,5.18,-0.6475,1.645,0.287066,-0.232898,-0.931348,-0.07084,0.1288,0.48566
-2.6853,0,0,17.6853,17.6853,12.3147,12.3147,1.91293,2.65327,1.37912,-0.245241,0.257258,0.12298,0,0,5.075,0.0525,1.085,-0.240096,0.235826,-0.889014,-0.07084,0.1288,0.48566
-2.30048,0,0,17.3005,17.3005,12.6995,12.6995,1.63805,2.36458,1.61936,-0.240208,0.252474,0.123349,0,0,4.7425,-0.245,-0.4025,-0.240096,0.235826,-0.889014,-0.07084,0.1288,0.48566
-2.15253,0,0,17.1525,17.1525,12.8475,12.8475,1.53234,2.22654,1.73172,-0.124819,0.106891,-0.0321564,0,0,4.2175,0.1925,-1.1725,-0.126636,0.092232,-1.04347,-0.07084,0.1288,0.48566
-2.00368,0,0,17.0037,17.0037,12.9963,12.9963,1.42601,2.09042,1.84295,-0.122445,0.10504,-0.0320191,0,0,2.8525,-0.2625,-1.995,-0.126636,0.092232,-1.04347,-0.07084,0.1288,0.48566
-2.00204,0,0,17.002,17.002,12.998,12.998,1.42482,2.08973,1.84011,0.173628,0.0914629,-0.0989021,1,0,2.835,-0.4725,-2.5375,0.170678,0.07869,-1.10983,-0.07084,0.1288,0.48566
-1.99987,0,0,16.9999,16.9999,13.0001,13.0001,1.42326,2.08941,1.83632,0.173634,0.0914356,-0.0989012,1,0,2.6425,-0.2625,-3.0975,0.170678,0.07869,-1.10983,-0.07084,0.1288,0.48566
-2.16482,0,0,17.1648,17.1648,12.8352,12.8352,1.54106,1.79552,2.08854,-0.261626,-0.118151,0.0197418,0,0,3.4475,-0.21,-3.535,-0.271572,-0.132736,-0.992226,-0.07084,0.1288,0.48566
-2.32833,0,0,17.3283,17.3283,12.6717,12.6717,1.65784,1.50764,2.33855,-0.256603,-0.116111,0.0198297,0,0,4.06,0,-3.78,-0.271572,-0.132736,-0.992226,-0.07084,0.1288,0.48566
-2.33034,0,0,17.3303,17.3303,12.6697,12.6697,1.65926,1.50808,2.334,-0.0192279,-0.309291,-0.103612,1,0,4.305,0.1575,-3.5525,-0.033184,-0.32574,-1.11471,-0.06986,0.1288,0.48538
-1.98923,0,0,16.9892,16.9892,13.0108,13.0108,1.41559,1.45394,2.38456,-0.0450101,0.223696,0.100621,0,0,4.9,0.14,-2.8175,-0.060024,0.210938,-0.912194,-0.06986,0.1288,0.48538
-1.64908,0,0,16.6491,16.6491,13.3509,13.3509,1.17261,1.40157,2.4373,-0.0440963,0.219458,0.10074,0,0,2.905,0.6125,-1.8375,-0.060024,0.210938,-0.912194,-0.06986,0.1288,0.48538
-1.64881,0,0,16.6488,16.6488,13.3512,13.3512,1.17241,1.40267,2.43633,0.142972,0.0217312,0.122624,1,0,3.3425,0.6125,-1.47,0.127856,0.01342,-0.890478,-0.06986,0.1288,0.48538
-1.64784,0,0,16.6478,16.6478,13.3522,13.3522,1.1717,1.404,2.43642,0.142949,0.0217188,0.122624,1,0,3.045,0.7525,-0.8575,0.127856,0.01342,-0.890478,-0.06986,0.1288,0.48538
-1.6469,0,0,16.6469,16.6469,13.3531,13.3531,1.17102,1.40533,2.43746,-0.0480495,-0.204594,-0.156223,1,0,3.045,0.77,-0.2975,-0.063928,-0.212646,-1.16717,-0.06986,0.1288,0.48538
-1.65909,0,0,16.6591,16.6591,13.3409,13.3409,1.17972,1.40632,2.43913,-0.0480668,-0.204442,-0.156227,1,0,8.295,0.5775,0.07,-0.063928,-0.212646,-1.16717,-0.06986,0.1288,0.48538
-1.66146,0,0,16.6615,16.6615,13.3385,13.3385,1.1814,1.40727,2.44116,-0.36589,-0.106101,-0.0672133,1,0,4.3575,0.56,0.28,-0.38308,-0.114436,-1.07885,-0.06986,0.1288,0.48538
-1.66626,0,0,16.6663,16.6663,13.3337,13.3337,1.18481,1.40693,2.44388,-0.365884,-0.106041,-0.0672143,1,0,5.32,-0.1925,0.7,-0.38308,-0.114436,-1.07885,-0.07224,0.12306,0.48468
-1.61495,0,0,16.6149,16.6149,13.3851,13.3851,1.14815,1.26514,2.58709,-0.11643,0.0365749,0.0779356,0,0,4.935,-0.21,0.525,-0.135054,0.02867,-0.934886,-0.07224,0.12306,0.48468
-1.56169,0,0,16.5617,16.5617,13.4383,13.4383,1.11009,1.12628,2.7295,-0.114006,0.0359119,0.0779992,0,0,3.815,-0.1225,0.1225,-0.135054,0.02867,-0.934886,-0.07224,0.12306,0.48468
-1.56192,0,0,16.5619,16.5619,13.4381,13.4381,1.11025,1.12528,2.73071,0.116469,0.228264,0.210046,1,0,3.5175,-0.595,-0.175,0.09638,0.22082,-0.803858,-0.07224,0.12306,0.48468
-1.56411,0,0,16.5641,16.5641,13.4359,13.4359,1.1118,1.12491,2.73139,0.116476,0.228291,0.210046,1,0,4.305,-0.2275,-0.49,0.09638,0.22082,-0.803858,-0.07224,0.12306,0.48468
-1.56595,0,0,16.5659,16.5659,13.4341,13.4341,1.1131,1.12503,2.73196,0.0186776,0.012394,0.13185,1,0,4.165,0.0525,-0.56,-0.00183,0.005124,-0.88145,-0.07224,0.12306,0.48468
-1.56964,0,0,16.5696,16.5696,13.4304,13.4304,1.11573,1.12364,2.73176,0.0187019,0.0124398,0.13185,1,0,4.9175,-0.84,-0.9975,-0.00183,0.005124,-0.88145,-0.07224,0.12306,0.48468
-1.79809,0,0,16.7981,16.7981,13.2019,13.2019,1.27889,1.20227,2.67738,0.0695688,-0.162775,-0.0140546,0,0,4.795,-0.735,-1.26,0.05063,-0.172752,-1.02614,-0.07224,0.12306,0.48468
-2.02171,0,0,17.0217,17.0217,12.9783,12.9783,1.4386,1.27738,2.60983,0.0682581,-0.15999,-0.014149,0,0,4.5325,-0.49,-1.3125,0.05063,-0.172752,-1.02614,-0.06972,0.13202,0.48104
-1.74526,0,0,16.7453,16.7453,13.2547,13.2547,1.24112,1.64611,2.28426,0.303824,0.187554,0.134781,0,0,4.3925,-0.28,-1.26,0.293654,0.177876,-0.878278,-0.06972,0.13202,0.48104
-1.47096,0,0,16.471,16.471,13.529,13.529,1.04518,2.00685,1.95698,0.297531,0.184133,0.134649,0,0,3.605,-1.12,-1.155,0.293654,0.177876,-0.878278,-0.06972,0.13202,0.48104
-1.4706,0,0,16.4706,16.4706,13.5294,13.5294,1.04491,1.87508,2.065,-0.123183,-0.00260222,-0.0835071,0,0,3.0625,-0.595,-1.33,-0.13115,-0.008662,-1.09483,-0.06972,0.13202,0.48104
-1.46877,0,0,16.4688,16.4688,13.5312,13.5312,1.0436,1.74657,2.17341,-0.120942,-0.00262386,-0.0834358,0,0,2.4675,-0.175,-0.98,-0.13115,-0.008662,-1.09483,-0.06972,0.13202,0.48104
-1.46784,0,0,16.4678,16.4678,13.5322,13.5322,1.04292,1.74721,2.17339,0.219693,-0.205122,0.252828,1,0,3.0625,0.35,-0.91,0.210938,-0.210938,-0.761158,-0.06972,0.13202,0.48104
-1.46753,0,0,16.4675,16.4675,13.5325,13.5325,1.04269,1.74636,2.17283,0.219708,-0.205126,0.252829,1,0,3.325,-0.525,-1.2075,0.210938,-0.210938,-0.761158,-0.06972,0.13202,0.48104
-1.66638,0,0,16.6664,16.6664,13.3336,13.3336,1.18472,1.73286,2.17722,-0.0097861,-0.152088,-0.0660177,0,0,3.395,-0.6125,-1.54,-0.019764,-0.16043,-1.0775,-0.06972,0.13202,0.48104
-1.86421,0,0,16.8642,16.8642,13.1358,13.1358,1.32601,1.72223,2.193,-0.00960056,-0.149624,-0.0660661,0,0,4.34,0,-1.3125,-0.019764,-0.16043,-1.0775,-0.06944,0.12446,0.4886
-2.07991,0,0,17.0799,17.0799,12.9201,12.9201,1.48006,1.575,2.33181,-0.129733,-0.14376,0.0524643,0,0,4.6025,0.6475,-1.295,-0.142984,-0.157258,-0.959896,-0.06944,0.12446,0.4886
-2.29245,0,0,17.2925,17.2925,12.7075,12.7075,1.63186,1.43043,2.46855,-0.12721,-0.14111,0.0524586,0,0,4.865,0.5425,-1.8375,-0.142984,-0.157258,-0.959896,-0.06944,0.12446,0.4886
-2.29443,0,0,17.2944,17.2944,12.7056,12.7056,1.63325,1.43199,2.46656,-0.221389,-0.209966,-0.153359,1,0,4.2525,0.8575,-2.0825,-0.237534,-0.226066,-1.16412,-0.06944,0.12446,0.4886
-2.29302,0,0,17.293,17.293,12.707,12.707,1.63223,1.43446,2.46522,-0.221432,-0.209983,-0.153359,1,0,2.8875,1.4,-1.715,-0.237534,-0.226066,-1.16412,-0.06944,0.12446,0.4886
-2.29091,0,0,17.2909,17.2909,12.7091,12.7091,1.63071,1.43689,2.46384,0.101192,-0.0361016,-0.168851,1,0,2.6075,1.3825,-1.7325,0.086498,-0.052338,-1.1795,-0.06944,0.12446,0.4886
-2.28753,0,0,17.2875,17.2875,12.7125,12.7125,1.62828,1.43686,2.4624,0.101192,-0.036144,-0.16885,1,0,2.1,-0.07,-1.7325,0.086498,-0.052338,-1.1795,-0.06944,0.12446,0.4886
-2.28596,0,0,17.286,17.286,12.714,12.714,1.62714,1.43612,2.46142,-0.0524742,0.10477,-0.275076,1,0,2.8175,-0.4725,-1.4525,-0.067832,0.08845,-1.2849,-0.06944,0.12446,0.4886
-2.28666,0,0,17.2867,17.2867,12.7133,12.7133,1.62762,1.43409,2.46163,-0.0524388,0.104779,-0.275076,1,0,3.71,-1.2075,-0.735,-0.067832,0.08845,-1.2849,-0.06762,0.1295,0.4844
-2.28717,0,0,17.2872,17.2872,12.7128,12.7128,1.62796,1.43222,2.46254,-0.03309,-0.389828,-0.115365,1,0,3.6225,-1.1025,-0.3325,-0.048434,-0.40565,-1.12643,-0.06762,0.1295,0.4844
-2.28676,0,0,17.2868,17.2868,12.7132,12.7132,1.62766,1.43201,2.46379,-0.0330864,-0.389834,-0.115365,1,0,3.255,-0.1225,-0.1575,-0.048434,-0.40565,-1.12643,-0.06762,0.1295,0.4844
-2.52271,0,0,17.5227,17.5227,12.4773,12.4773,1.79617,1.53334,2.37629,0.0948924,-0.17635,-0.030172,0,0,3.255,-0.4025,0.1225,0.081862,-0.195322,-1.04176,-0.06762,0.1295,0.4844
-2.7533,0,0,17.7533,17.7533,12.2467,12.2467,1.96085,1.63342,2.29048,0.0931464,-0.17348,-0.0303145,0,0,2.73,0.07,0.6825,0.081862,-0.195322,-1.04176,-0.06762,0.1295,0.4844
-2.75053,0,0,17.7505,17.7505,12.2495,12.2495,1.95886,1.63398,2.29347,0.171373,-0.180232,-0.161991,1,0,2.275,0.3675,0.84,0.16043,-0.202032,-1.17242,-0.06762,0.1295,0.4844
-2.7489,0,0,17.7489,17.7489,12.2511,12.2511,1.95767,1.63377,2.2964,0.171377,-0.180252,-0.161991,1,0,2.73,-0.0875,0.8225,0.16043,-0.202032,-1.17242,-0.06762,0.1295,0.4844
-2.40731,0,0,17.4073,17.4073,12.5927,12.5927,1.71366,1.88234,2.07828,0.228391,0.249649,0.0199765,0,0,2.7475,-0.385,0.455,0.22204,0.231678,-0.99186,-0.06762,0.1295,0.4844
-2.07386,0,0,17.0739,17.0739,12.9261,12.9261,1.47547,2.12352,1.86112,0.224184,0.245492,0.0199451,0,0,3.8675,-0.665,0.28,0.22204,0.231678,-0.99186,-0.06272,0.12698,0.48734
-1.74817,0,0,16.7482,16.7482,13.2518,13.2518,1.24282,2.05884,1.91514,-0.0585997,0.232399,0.0101237,0,0,3.57,-0.525,-0.14,-0.063074,0.22265,-1.00174,-0.06272,0.12698,0.48734
-1.42535,0,0,16.4254,16.4254,13.5746,13.5746,1.01222,1.99594,1.96808,-0.0575026,0.228379,0.0102417,0,0,2.52,-0.175,-1.1025,-0.063074,0.22265,-1.00174,-0.06272,0.12698,0.48734
-1.42287,0,0,16.4229,16.4229,13.5771,13.5771,1.01044,1.99579,1.96685,-0.120673,0.116968,0.21323,1,0,2.4675,-0.1225,-1.61,-0.126514,0.111386,-0.80032,-0.06272,0.12698,0.48734
-1.42038,0,0,16.4204,16.4204,13.5796,13.5796,1.00865,1.99617,1.96454,-0.120679,0.116937,0.213231,1,0,2.485,0.175,-2.24,-0.126514,0.111386,-0.80032,-0.06272,0.12698,0.48734
-1.42107,0,0,16.4211,16.4211,13.5789,13.5789,1.00913,1.9967,1.96188,0.130058,0.227592,0.163682,1,0,3.7625,0.2625,-2.45,0.125294,0.221918,-0.849486,-0.06272,0.12698,0.48734
-1.42207,0,0,16.4221,16.4221,13.5779,13.5779,1.00983,1.99783,1.9577,0.130038,0.227604,0.163681,1,0,3.92,0.595,-3.3425,0.125294,0.221918,-0.849486,-0.06272,0.12698,0.48734
-1.10737,0,0,16.1074,16.1074,13.8926,13.8926,0.785039,2.04608,1.90638,0.0388113,0.21318,0.0706406,0,0,3.8675,0.1575,-3.9375,0.034526,0.211426,-0.94184,-0.06272,0.12698,0.48734
-0.797983,0,0,15.798,15.798,14.202,14.202,0.564044,2.09341,1.8549,0.0379859,0.209326,0.0706562,0,0,3.8675,0.1575,-3.9375,0.034526,0.211426,-0.94184,-0.06272,0.12698,0.48734
-0.798599,0,0,15.7986,15.7986,14.2014,14.2014,0.564478,2.09434,1.85203,-0.0573967,0.189182,0.265775,1,0,3.745,0.5075,-2.5725,-0.061244,0.191296,-0.748226,-0.07266,0.12502,0.49224
-0.797982,0,0,15.798,15.798,14.202,14.202,0.564031,2.09434,1.84981,-0.106477,0.238758,-0.0959396,1,0,3.2375,-0.035,-2.1875,-0.110532,0.240828,-1.10715,-0.07266,0.12502,0.49224
-0.795565,0,0,15.7956,15.7956,14.2044,14.2044,0.562298,2.09448,1.84915,-0.106479,0.238728,-0.0959394,1,0,2.485,0.0525,-1.2775,-0.110532,0.240828,-1.10715,-0.07266,0.12502,0.49224
-0.571619,0,0,15.5716,15.5716,14.4284,14.4284,0.402332,1.95555,1.9768,-0.119849,0.147519,0.0758059,0,0,2.905,0.2975,0.0525,-0.126392,0.1525,-0.936838,-0.07266,0.12502,0.49224
-0.351497,0,0,15.3515,15.3515,14.6485,14.6485,0.2451,1.8192,2.10507,-0.117471,0.144776,0.0758997,0,0,2.905,0.2975,0.0525,-0.126392,0.1525,-0.936838,-0.07266,0.12502,0.49224
-0.351291,0,0,15.3513,15.3513,14.6487,14.6487,0.244951,1.8194,2.10894,-0.0793277,0.100442,0.145488,1,0,3.29,0.105,1.365,-0.088084,0.108214,-0.867786,-0.07266,0.12502,0.49224
-0.351086,0,0,15.3511,15.3511,14.6489,14.6489,0.244801,1.8196,2.11281,-0.0793312,0.100439,0.145488,1,0,3.29,0.105,1.365,-0.088084,0.108214,-0.867786,-0.07266,0.12502,0.49224
-0.769218,0,0,15.7692,15.7692,14.2308,14.2308,0.543461,1.63703,2.28807,-0.183418,-0.326801,-0.0326037,0,0,2.7125,-0.315,1.995,-0.19581,-0.323788,-1.04456,-0.06314,0.12558,0.48804
-0.770963,0,0,15.771,15.771,14.229,14.229,0.544702,1.63654,2.29295,0.196476,-0.190119,-0.0707177,1,0,4.06,-0.28,1.96,0.185684,-0.18727,-1.08238,-0.06314,0.12558,0.48804
-0.773856,0,0,15.7739,15.7739,14.2261,14.2261,0.546762,1.63591,2.29703,0.196487,-0.190083,-0.0707177,1,0,4.5325,-0.3675,1.4875,0.185684,-0.18727,-1.08238,-0.06314,0.12558,0.48804
-0.848161,0,0,15.8482,15.8482,14.1518,14.1518,0.599831,1.47587,2.4523,-0.146712,-0.0521306,0.0111096,0,0,3.92,0.2975,0.49,-0.161772,-0.050386,-1.00125,-0.06314,0.12558,0.48804
-0.921145,0,0,15.9211,15.9211,14.0789,14.0789,0.651956,1.31881,2.60699,-0.143971,-0.0512205,0.0111665,0,0,3.92,0.2975,0.49,-0.161772,-0.050386,-1.00125,-0.06314,0.12558,0.48804
-1.06116,0,0,16.0612,16.0612,13.9388,13.9388,0.75196,1.18452,2.73218,-0.124013,-0.107729,-0.059745,0,0,3.3775,-4.2,-1.3825,-0.144082,-0.10858,-1.07165,-0.06314,0.12558,0.48804
-1.19876,0,0,16.1988,16.1988,13.8012,13.8012,0.850233,1.05275,2.85665,-0.121713,-0.106014,-0.0597241,0,0,3.3775,-4.2,-1.3825,-0.144082,-0.10858,-1.07165,-0.06314,0.12558,0.48804
-1.19653,0,0,16.1965,16.1965,13.8035,13.8035,0.848631,1.32085,2.62375,0.250214,0.00203866,0.00816997,0,0,3.3075,-0.035,-2.7825,0.234118,-0.00061,-1.00418,-0.06314,0.12558,0.48804
-1.19425,0,0,16.1943,16.1943,13.8057,13.8057,0.846995,1.58547,2.38709,0.245597,0.0020084,0.00805328,0,0,3.3075,-0.035,-2.7825,0.234118,-0.00061,-1.00418,-0.06664,0.1288,0.48398
-1.0485,0,0,16.0485,16.0485,13.9515,13.9515,0.742879,1.6274,2.34663,0.0349382,0.0983817,0.070147,0,0,3.955,-0.7,-3.535,0.023302,0.097478,-0.942572,-0.06664,0.1288,0.48398
-1.28769,0,0,16.2877,16.2877,13.7123,13.7123,0.913721,1.92131,2.07499,0.23743,-0.151321,0.145927,0,0,3.85,-0.7,-3.8325,0.2318,-0.15494,-0.867176,-0.06664,0.1288,0.48398
-1.52163,0,0,16.5216,16.5216,13.4784,13.4784,1.08081,2.21087,1.80583,0.23238,-0.14841,0.145694,0,0,3.3775,-0.07,-3.605,0.2318,-0.15494,-0.867176,-0.06664,0.1288,0.48398
-1.51854,0,0,16.5185,16.5185,13.4815,13.4815,1.07859,2.21155,1.80158,-0.0624781,-0.135992,-0.160816,1,0,2.2925,0.3325,-3.3775,-0.064294,-0.142496,-1.17132,-0.06664,0.1288,0.48398
-1.51591,0,0,16.5159,16.5159,13.4841,13.4841,1.0767,2.21201,1.79843,-0.0624861,-0.136025,-0.160816,1,0,2.45,0.21,-2.73,-0.064294,-0.142496,-1.17132,-0.06664,0.1288,0.48398
-1.51429,0,0,16.5143,16.5143,13.4857,13.4857,1.07553,2.21287,1.79635,-0.199415,-0.340974,-0.0994646,1,0,2.835,0.455,-2.1175,-0.201788,-0.347212,-1.11044,-0.06664,0.1288,0.48398
-1.51485,0,0,16.5149,16.5149,13.4851,13.4851,1.07592,2.21323,1.7965,-0.199422,-0.340967,-0.099465,1,0,3.6575,0.1925,-0.805,-0.201788,-0.347212,-1.11044,-0.06664,0.1288,0.48398
-1.5143,0,0,16.5143,16.5143,13.4857,13.4857,1.07552,2.21374,1.79711,0.111694,-0.155341,-0.184423,1,0,3.2025,0.28,-0.5425,0.110654,-0.161772,-1.19475,-0.06664,0.1288,0.48398
-1.5141,0,0,16.5141,16.5141,13.4859,13.4859,1.07536,2.21415,1.79931,0.111687,-0.155344,-0.184423,1,0,3.3075,0.245,0.385,0.110654,-0.161772,-1.19475,-0.06762,0.12698,0.48552
-1.51508,0,0,16.5151,16.5151,13.4849,13.4849,1.07605,2.21423,1.8024,-0.362351,0.276508,-0.0472126,1,0,3.7625,0.0525,0.91,-0.36539,0.26962,-1.05859,-0.06762,0.12698,0.48552
-1.51291,0,0,16.5129,16.5129,13.4871,13.4871,1.07449,2.21467,1.80616,-0.362359,0.276481,-0.0472123,1,0,2.485,0.28,1.295,-0.36539,0.26962,-1.05859,-0.06762,0.12698,0.48552
-1.7106,0,0,16.7106,16.7106,13.2894,13.2894,1.21568,2.14876,1.86509,-0.0582244,-0.130303,0.0812634,0,0,2.6775,0.175,1.0325,-0.061122,-0.139202,-0.931104,-0.06762,0.12698,0.48552
-1.90567,0,0,16.9057,16.9057,13.0943,13.0943,1.355,2.08442,1.92281,-0.0571021,-0.127873,0.0812504,0,0,3.01,0.35,0.6125,-0.061122,-0.139202,-0.931104,-0.06762,0.12698,0.48552
-1.90512,0,0,16.9051,16.9051,13.0949,13.0949,1.3546,2.08515,1.92519,0.0999662,-0.185646,-0.17436,1,0,3.1675,0.4375,0.49,0.096624,-0.196908,-1.18474,-0.06762,0.12698,0.48552
-1.90737,0,0,16.9074,16.9074,13.0926,13.0926,1.35619,2.08575,1.92656,0.0999556,-0.185618,-0.174361,1,0,4.305,0.35,-0.105,0.096624,-0.196908,-1.18474,-0.06762,0.12698,0.48552
-1.90941,0,0,16.9094,16.9094,13.0906,13.0906,1.35763,2.08652,1.92742,0.237707,-0.135643,-0.0638313,1,0,4.235,0.4375,-0.4025,0.234972,-0.14701,-1.07506,-0.06762,0.12698,0.48552
-1.91163,0,0,16.9116,16.9116,13.0884,13.0884,1.3592,2.08659,1.92754,0.237706,-0.135616,-0.063832,1,0,4.3225,0.0175,-0.8225,0.234972,-0.14701,-1.07506,-0.06664,0.12068,0.48496
-1.57013,0,0,16.5701,16.5701,13.4299,13.4299,1.11526,2.10795,1.91074,0.0246118,0.259851,-0.0354756,0,0,4.48,-0.42,-0.8925,0.02135,0.252296,-1.047,-0.06664,0.12068,0.48496
-1.22927,0,0,16.2293,16.2293,13.7707,13.7707,0.871779,2.13019,1.8927,0.0242238,0.255605,-0.0354163,0,0,2.4675,0.315,-1.6625,0.02135,0.252296,-1.047,-0.06664,0.12068,0.48496
-1.39975,0,0,16.3997,16.3997,13.6003,13.6003,0.99354,2.29179,1.75135,0.13463,-0.112684,0.082225,0,0,3.43,-0.49,-1.8375,0.135054,-0.11773,-0.930128,-0.06664,0.12068,0.48496
-1.56542,0,0,16.5654,16.5654,13.4346,13.4346,1.11186,2.45003,1.61083,0.131871,-0.110623,0.0820728,0,0,2.6775,-0.6475,-1.8375,0.135054,-0.11773,-0.930128,-0.06664,0.12068,0.48496
-1.65841,0,0,16.6584,16.6584,13.3416,13.3416,1.17827,2.22655,1.81205,-0.200018,-0.065985,0.0304475,0,0,3.255,-0.42,-1.855,-0.202154,-0.074298,-0.98149,-0.06664,0.12068,0.48496
-1.75158,0,0,16.7516,16.7516,13.2484,13.2484,1.24481,2.00774,2.01225,-0.196202,-0.0648219,0.030564,0,0,3.99,-0.14,-1.89,-0.202154,-0.074298,-0.98149,-0.06664,0.12068,0.48496
-1.78946,0,0,16.7895,16.7895,13.2105,13.2105,1.27185,2.10466,1.93191,0.089664,-0.0291791,-0.0174569,0,0,2.7125,0.245,-1.6275,0.08662,-0.039162,-1.02907,-0.06664,0.12068,0.48496
-1.82919,0,0,16.8292,16.8292,13.1708,13.1708,1.30022,2.19862,1.84643,0.0880252,-0.0286859,-0.0175296,0,0,3.7275,-0.4375,-1.6275,0.08662,-0.039162,-1.02907,-0.0679,0.12446,0.48314
-1.66765,0,0,16.6677,16.6677,13.3323,13.3323,1.18482,2.65421,1.44128,0.423764,0.123053,0.0608645,0,0,3.71,4.445,-1.1725,0.431758,0.114436,-0.95099,-0.0679,0.12446,0.48314
-1.50811,0,0,16.5081,16.5081,13.4919,13.4919,1.07085,3.10202,1.035,0.415958,0.121059,0.0605113,0,0,3.71,4.445,-1.1725,0.431758,0.114436,-0.95099,-0.0679,0.12446,0.48314
-1.60486,0,0,16.6049,16.6049,13.3951,13.3951,1.13994,2.98551,1.13368,-0.111446,-0.0670317,0.00858876,0,0,4.3925,4.4275,-1.015,-0.099918,-0.074664,-1.0026,-0.0679,0.12446,0.48314
-1.6999,0,0,16.6999,16.6999,13.3001,13.3001,1.20782,2.87122,1.23188,-0.109454,-0.0658467,0.0086664,0,0,4.3925,4.4275,-1.015,-0.099918,-0.074664,-1.0026,-0.0679,0.12446,0.48314
-1.69946,0,0,16.6995,16.6995,13.3005,13.3005,1.20749,2.87276,1.23197,-0.191848,-0.238784,0.278291,1,0,3.255,0.875,-0.8575,-0.182634,-0.247416,-0.73505,-0.0679,0.12446,0.48314
-1.69901,0,0,16.699,16.699,13.301,13.301,1.20716,2.87429,1.23206,-0.191875,-0.23879,0.27829,1,0,3.255,0.875,-0.8575,-0.182634,-0.247416,-0.73505,-0.0679,0.12446,0.48314
-1.6977,0,0,16.6977,16.6977,13.3023,13.3023,1.20621,2.87586,1.23161,-0.0364004,-0.0535401,-0.134695,1,0,2.9225,0.8925,-1.1725,-0.026474,-0.062342,-1.14485,-0.0679,0.12446,0.48314
-1.69639,0,0,16.6964,16.6964,13.3036,13.3036,1.20526,2.87743,1.23116,-0.0364278,-0.0535567,-0.134696,1,0,2.9225,0.8925,-1.1725,-0.026474,-0.062342,-1.14485,-0.06734,0.12096,0.48818
-1.57259,0,0,16.5726,16.5726,13.4274,13.4274,1.11682,2.87344,1.22662,-0.00452891,0.0896222,0.00623768,0,0,4.2875,0.0875,-0.7175,0.00549,0.082228,-1.00504,-0.06734,0.12096,0.48818
-1.45091,0,0,16.4509,16.4509,13.5491,13.5491,1.02989,2.86951,1.22217,-0.00446036,0.0881073,0.0062695,0,0,4.2875,0.0875,-0.7175,0.00549,0.082228,-1.00504,-0.06734,0.12096,0.48818
-1.48221,0,0,16.4822,16.4822,13.5178,13.5178,1.05224,2.44517,1.59942,-0.405619,-0.0236092,0.0122614,0,0,4.5325,-0.5425,-1.015,-0.404796,-0.029768,-0.999424,-0.06734,0.12096,0.48818
-1.34247,0,0,16.3425,16.3425,13.6575,13.6575,0.952417,2.66569,1.39751,0.199423,0.100927,0.0353575,0,0,3.745,-0.4725,-0.9975,0.206668,0.09638,-0.976366,-0.06734,0.12096,0.48818
-1.2031,0,0,16.2031,16.2031,13.7969,13.7969,0.85286,2.88254,1.19599,0.195642,0.0991883,0.0352017,0,0,2.9925,-0.245,-0.5775,0.206668,0.09638,-0.976366,-0.06734,0.12096,0.48818
-1.19993,0,0,16.1999,16.1999,13.8001,13.8001,0.850584,2.88263,1.1965,-0.0626378,-0.42331,-0.405445,1,0,2.1525,0.035,-0.595,-0.052704,-0.425536,-1.41361,-0.06734,0.12096,0.48818
-1.20068,0,0,16.2007,16.2007,13.7993,13.7993,0.851113,2.88207,1.19691,-0.062628,-0.4233,-0.405445,1,0,3.7275,-0.35,-0.6475,-0.052704,-0.425536,-1.41361,-0.06734,0.12096,0.48818
-1.20064,0,0,16.2006,16.2006,13.7994,13.7994,0.85107,2.88165,1.19774,0.0116071,-0.111145,-0.191391,1,0,3.395,-0.2625,-0.4025,0.021838,-0.113704,-1.20121,-0.07014,0.12712,0.48832
-1.3332,0,0,16.3332,16.3332,13.6668,13.6668,0.945749,3.19558,0.902761,0.280936,-0.0905701,0.0714023,0,0,4.8125,-0.4375,-0.2275,0.297802,-0.094794,-0.940132,-0.07014,0.12712,0.48832
-1.46096,0,0,16.461,16.461,13.539,13.539,1.03699,3.50444,0.608328,0.275555,-0.088986,0.0710599,0,0,3.8325,-0.07,-0.7525,0.297802,-0.094794,-0.940132,-0.07014,0.12712,0.48832
-1.23526,0,0,16.2353,16.2353,13.7647,13.7647,0.875771,3.53667,0.550062,0.0316576,0.172976,-0.0660153,0,0,3.3425,0,-1.1025,0.053436,0.169702,-1.07616,-0.07014,0.12712,0.48832
-1.01354,0,0,16.0135,16.0135,13.9865,13.9865,0.71739,3.56809,0.492054,0.0311102,0.170217,-0.066011,0,0,3.395,-0.07,-0.9625,0.053436,0.169702,-1.07616,-0.07014,0.12712,0.48832
-1.01346,0,0,16.0135,16.0135,13.9865,13.9865,0.717323,3.56858,0.491849,-0.136306,-0.00613529,-0.256705,1,0,3.4125,0.2625,-1.015,-0.11468,-0.006466,-1.26538,-0.07014,0.12712,0.48832
-1.01473,0,0,16.0147,16.0147,13.9853,13.9853,0.718224,3.56869,0.491128,-0.136308,-0.00611961,-0.256705,1,0,3.9725,0.035,-1.3125,-0.11468,-0.006466,-1.26538,-0.07014,0.12712,0.48832
-1.17459,0,0,16.1746,16.1746,13.8254,13.8254,0.832402,3.49397,0.536603,-0.0669738,-0.126501,-0.0914087,0,0,3.745,0.3675,-1.5225,-0.04636,-0.12871,-1.10142,-0.07014,0.12712,0.48832
-1.33229,0,0,16.3323,16.3323,13.6677,13.6677,0.945033,3.41947,0.586986,-0.065676,-0.124538,-0.0913608,0,0,4.0075,-0.4725,-1.8375,-0.04636,-0.12871,-1.10142,-0.07588,0.12362,0.49014
-1.33211,0,0,16.3321,16.3321,13.6679,13.6679,0.944897,3.41965,0.585605,-0.146467,-0.0929091,-0.191072,1,0,3.4125,0.07,-1.6975,-0.12749,-0.097112,-1.20036,-0.07588,0.12362,0.49014
-1.33297,0,0,16.333,16.333,13.667,13.667,0.945498,3.42064,0.584028,-0.146484,-0.0928986,-0.191073,1,0,3.8325,0.5425,-1.82,-0.12749,-0.097112,-1.20036,-0.07588,0.12362,0.49014
-1.33331,0,0,16.3333,16.3333,13.6667,13.6667,0.945732,3.42142,0.582568,0.100482,-0.0202291,-0.179763,1,0,3.6225,0.42,-1.75,0.120536,-0.024522,-1.18913,-0.07588,0.12362,0.49014
-1.3323,0,0,16.3323,16.3323,13.6677,13.6677,0.944999,3.42264,0.581656,0.100461,-0.0202419,-0.179764,1,0,3.0625,0.6825,-1.435,0.120536,-0.024522,-1.18913,-0.07588,0.12362,0.49014
-1.32848,0,0,16.3285,16.3285,13.6715,13.6715,0.942265,3.32272,0.654205,-0.0882874,0.00413749,0.0780394,0,0,3.745,0.3675,-1.12,-0.07076,-0.000122,-0.933422,-0.07588,0.12362,0.49014
-1.32147,0,0,16.3215,16.3215,13.6785,13.6785,0.937249,3.22425,0.726972,-0.0865716,0.0040517,0.0781389,0,0,2.4325,0.105,-0.91,-0.07076,-0.000122,-0.933422,-0.07588,0.12362,0.49014
-1.50813,0,0,16.5081,16.5081,13.4919,13.4919,1.07056,3.2013,0.738026,-0.0222702,-0.123324,0.0852517,0,0,2.73,-0.0875,-0.84,-0.006588,-0.129686,-0.926346,-0.07588,0.12362,0.49014
-1.69035,0,0,16.6903,16.6903,13.3097,13.3097,1.20071,3.17966,0.751921,-0.021893,-0.121056,0.0852278,0,0,2.205,0.1575,-0.315,-0.006588,-0.129686,-0.926346,-0.06804,0.12152,0.47936
-1.68744,0,0,16.6874,16.6874,13.3126,13.3126,1.19862,3.17918,0.753503,0.194603,-0.11462,-0.0910792,1,0,2.2225,-0.28,0.035,0.210816,-0.12322,-1.10129,-0.06804,0.12152,0.47936
-1.6869,0,0,16.6869,16.6869,13.3131,13.3131,1.19822,3.1779,0.755187,0.194625,-0.114626,-0.0910778,1,0,3.1675,-0.7525,0.105,0.210816,-0.12322,-1.10129,-0.06804,0.12152,0.47936
-1.18724,0,0,16.1872,16.1872,13.8128,13.8128,0.841312,3.00384,0.891638,-0.168378,0.368153,0.0418581,0,0,3.185,-0.4025,0.0875,-0.15677,0.365268,-0.969656,-0.06804,0.12152,0.47936
-0.695562,0,0,15.6956,15.6956,14.3044,14.3044,0.490105,2.83256,1.03022,-0.165392,0.362033,0.0420814,0,0,3.185,-0.4025,0.0875,-0.15677,0.365268,-0.969656,-0.06804,0.12152,0.47936
-0.675009,0,0,15.675,15.675,14.325,14.325,0.475419,2.74578,1.1046,-0.0793255,0.0133502,0.0222396,0,0,2.8175,0.1225,-0.2975,-0.071858,0.017202,-0.98942,-0.06804,0.12152,0.47936
-0.654798,0,0,15.6548,15.6548,14.3452,14.3452,0.460978,2.66063,1.17891,-0.077841,0.0130991,0.0223118,0,0,2.8175,0.1225,-0.2975,-0.071858,0.017202,-0.98942,-0.06804,0.12152,0.47936
-0.653703,0,0,15.6537,15.6537,14.3463,14.3463,0.460191,2.6682,1.17858,0.0648942,-0.0368645,0.148205,1,0,3.01,4.41,-1.12,0.071614,-0.032696,-0.864492,-0.06804,0.12152,0.47936
-0.652608,0,0,15.6526,15.6526,14.3474,14.3474,0.459404,2.67577,1.17825,0.0647623,-0.0368783,0.148199,1,0,3.01,4.41,-1.12,0.071614,-0.032696,-0.864492,-0.07112,0.12712,0.48426
-0.526598,0,0,15.5266,15.5266,14.4734,14.4734,0.369393,2.806,1.04596,0.10975,0.086121,0.0651114,0,0,3.22,-0.07,-1.75,0.119072,0.091744,-0.946842,-0.07112,0.12712,0.48426
-0.624735,0,0,15.6247,15.6247,14.3753,14.3753,0.439486,2.7045,1.12451,-0.0919692,-0.0694672,0.00826277,0,0,3.955,-0.2625,-1.9075,-0.085278,-0.064904,-1.00333,-0.07112,0.12712,0.48426
-0.720651,0,0,15.7207,15.7207,14.2793,14.2793,0.507992,2.60505,1.20196,-0.0902353,-0.0682722,0.00833328,0,0,3.7625,-0.1925,-2.31,-0.085278,-0.064904,-1.00333,-0.07112,0.12712,0.48426
-0.74084,0,0,15.7408,15.7408,14.2592,14.2592,0.522407,2.74484,1.06317,0.13402,-0.0152632,-0.0204298,0,0,3.43,-0.1225,-2.3625,0.142374,-0.0122,-1.03175,-0.07112,0.12712,0.48426
-0.759505,0,0,15.7595,15.7595,14.2405,14.2405,0.535733,2.88189,0.925374,0.131631,-0.015032,-0.0205494,0,0,2.9575,-0.1925,-1.96,0.142374,-0.0122,-1.03175,-0.07112,0.12712,0.48426
-0.75905,0,0,15.7591,15.7591,14.2409,14.2409,0.535403,2.88168,0.9236,0.0612941,-0.0244415,-0.127514,1,0,3.3075,-0.1575,-1.925,0.071736,-0.021594,-1.13789,-0.07112,0.12712,0.48426
-0.758107,0,0,15.7581,15.7581,14.2419,14.2419,0.534724,2.88152,0.922336,0.0612969,-0.0244533,-0.127514,1,0,3.0975,-0.1225,-1.6275,0.071736,-0.021594,-1.13789,-0.07112,0.12712,0.48426
-0.851576,0,0,15.8516,15.8516,14.1484,14.1484,0.60148,2.89096,0.90107,0.00294078,-0.0607827,0.100167,0,0,2.7825,0.3675,-1.4175,0.013298,-0.059048,-0.91195,-0.07112,0.12712,0.48426
-0.944873,0,0,15.9449,15.9449,14.0551,14.0551,0.668114,2.89959,0.884443,0.00279027,-0.0596214,0.100146,0,0,3.325,-0.1575,-0.8225,0.013298,-0.059048,-0.91195,-0.07378,0.12488,0.48748
-0.716748,0,0,15.7167,15.7167,14.2833,14.2833,0.505162,2.79009,0.969598,-0.106825,0.174343,-0.061653,0,0,2.73,0.315,-0.5775,-0.098698,0.17751,-1.07262,-0.07378,0.12488,0.48748
-0.493055,0,0,15.4931,15.4931,14.5069,14.5069,0.345377,2.68136,1.05601,-0.104929,0.171558,-0.0615418,0,0,2.94,-0.385,-0.1575,-0.098698,0.17751,-1.07262,-0.07378,0.12488,0.48748
-0.465346,0,0,15.4653,15.4653,14.5347,14.5347,0.325582,2.83637,0.909177,0.152348,0.0209964,-0.0349901,0,0,3.4475,-0.4375,0.2275,0.162382,0.02745,-1.04615,-0.07378,0.12488,0.48748
-0.434864,0,0,15.4349,15.4349,14.5651,14.5651,0.303806,2.98843,0.762474,0.149697,0.0206161,-0.0351229,0,0,2.17,-0.4725,0.21,0.162382,0.02745,-1.04615,-0.07378,0.12488,0.48748
-0.730262,0,0,15.7303,15.7303,14.2697,14.2697,0.514799,3.00353,0.744655,0.0168932,-0.219838,0.00135276,0,0,2.5375,-0.2975,0.105,0.02928,-0.216428,-1.00992,-0.07378,0.12488,0.48748
-1.02278,0,0,16.0228,16.0228,13.9772,13.9772,0.723734,3.01829,0.726829,0.016636,-0.216197,0.00129987,0,0,3.36,-0.3325,0.0875,0.02928,-0.216428,-1.00992,-0.07378,0.12488,0.48748
-1.13087,0,0,16.1309,16.1309,13.8691,13.8691,0.800933,2.93973,0.789185,-0.0718942,-0.0825871,-0.0341789,0,0,2.7825,0.07,0.0525,-0.061,-0.084302,-1.04517,-0.07378,0.12488,0.48748
-1.23882,0,0,16.2388,16.2388,13.7612,13.7612,0.878028,2.86323,0.84652,-0.0705607,-0.0812424,-0.034131,0,0,3.4825,0.35,-0.175,-0.061,-0.084302,-1.04517,-0.06944,0.1274,0.4865
-1.15486,0,0,16.1549,16.1549,13.8451,13.8451,0.818047,2.86339,0.83164,0.00184201,0.0626765,-0.0553858,0,0,3.1675,0.14,-0.4725,0.011712,0.060512,-1.06628,-0.06944,0.1274,0.4865
-1.07457,0,0,16.0746,16.0746,13.9254,13.9254,0.760693,2.86313,0.815764,0.0018466,0.0616769,-0.0553718,0,0,4.095,-0.105,-1.085,0.011712,0.060512,-1.06628,-0.06944,0.1274,0.4865
-1.09144,0,0,16.0914,16.0914,13.9086,13.9086,0.77273,2.74884,0.905071,-0.104283,-0.00906765,0.0221806,0,0,5.005,0.35,-1.3125,-0.096868,-0.01037,-0.98942,-0.06944,0.1274,0.4865
-1.10354,0,0,16.1035,16.1035,13.8965,13.8965,0.781366,2.63742,0.993491,-0.102341,-0.00891586,0.0222699,0,0,3.2375,0.77,-1.715,-0.096868,-0.01037,-0.98942,-0.06944,0.1274,0.4865
-1.32067,0,0,16.3207,16.3207,13.6793,13.6793,0.936453,2.75601,0.878252,0.106248,-0.154476,0.0392219,0,0,3.2025,0.42,-1.8375,0.11468,-0.158478,-0.972462,-0.06944,0.1274,0.4865
-1.53278,0,0,16.5328,16.5328,13.4672,13.4672,1.08794,2.87134,0.763729,0.104237,-0.151837,0.0390764,0,0,2.6425,-0.1925,-1.855,0.11468,-0.158478,-0.972462,-0.06944,0.1274,0.4865
-1.53063,0,0,16.5306,16.5306,13.4694,13.4694,1.08639,2.87087,0.761947,-0.00861471,0.0817644,0.21182,1,0,2.625,-0.315,-1.925,0.001342,0.074908,-0.801052,-0.06944,0.1274,0.4865
-1.52972,0,0,16.5297,16.5297,13.4703,13.4703,1.08573,2.87025,0.760433,-0.00860392,0.0817529,0.211821,1,0,3.115,-0.4025,-1.7675,0.001342,0.074908,-0.801052,-0.06846,0.1323,0.48832
-1.32147,0,0,16.3215,16.3215,13.6785,13.6785,0.936979,2.99223,0.624636,0.116708,0.157686,-0.0321721,0,0,3.29,-0.1575,-1.785,0.12932,0.153354,-1.0431,-0.06846,0.1323,0.48832
-1.11973,0,0,16.1197,16.1197,13.8803,13.8803,0.792865,3.11125,0.488969,0.114634,0.155173,-0.0322448,0,0,4.515,-0.5425,-1.5225,0.12932,0.153354,-1.0431,-0.06846,0.1323,0.48832
-1.1225,0,0,16.1225,16.1225,13.8775,13.8775,0.794836,3.11102,0.488905,0.00639438,-0.149377,-0.221709,1,0,4.55,-0.1575,-0.9275,0.020618,-0.150914,-1.2311,-0.06846,0.1323,0.48832
-1.12527,0,0,16.1253,16.1253,13.8747,13.8747,0.796808,3.11079,0.488841,0.00639837,-0.149342,-0.221709,1,0,4.55,-0.1575,-0.9275,0.020618,-0.150914,-1.2311,-0.06846,0.1323,0.48832
-1.12404,0,0,16.124,16.124,13.876,13.876,0.795924,3.10417,0.489078,-0.353813,-0.478367,-0.11818,1,0,2.94,-3.9025,-0.7,-0.341234,-0.479582,-1.12838,-0.06846,0.1323,0.48832
-1.12282,0,0,16.1228,16.1228,13.8772,13.8772,0.79504,3.09754,0.489316,-0.353697,-0.478382,-0.118173,1,0,2.94,-3.9025,-0.7,-0.341234,-0.479582,-1.12838,-0.06846,0.1323,0.48832
-1.43498,0,0,16.435,16.435,13.565,13.565,1.018,3.35026,0.245379,0.22831,-0.223409,0.087087,0,0,2.275,0.8225,-0.3675,0.24766,-0.22875,-0.924394,-0.06846,0.1323,0.48832
-1.74223,0,0,16.7422,16.7422,13.2578,13.2578,1.23745,3.60038,0.0119247,0.223953,-0.219592,0.0867472,0,0,2.275,0.8225,-0.3675,0.24766,-0.22875,-0.924394,-0.06832,0.12628,0.48482
-1.83423,0,0,16.8342,16.8342,13.1658,13.1658,1.30316,3.60292,-0.0110868,0.00244033,-0.0656673,0.0245071,0,0,2.8175,-0.105,-0.665,0.025254,-0.076128,-0.986126,-0.06832,0.12628,0.48482
-1.92468,0,0,16.9247,16.9247,13.0753,13.0753,1.36775,3.60543,-0.0340842,0.00239656,-0.0645425,0.0244781,0,0,2.8175,-0.105,-0.665,0.025254,-0.076128,-0.986126,-0.06832,0.12628,0.48482
-1.92599,0,0,16.926,16.926,13.074,13.074,1.36866,3.60483,-0.0335284,0.110894,-0.113621,-0.113962,1,0,3.9375,-0.3675,-0.56,0.1342,-0.125172,-1.1235,-0.06832,0.12628,0.48482
-1.92729,0,0,16.9273,16.9273,13.0727,13.0727,1.36958,3.60423,-0.0329726,0.110904,-0.113605,-0.113961,1,0,3.9375,-0.3675,-0.56,0.1342,-0.125172,-1.1235,-0.06832,0.12628,0.48482
-1.93609,0,0,16.9361,16.9361,13.0639,13.0639,1.37585,3.53105,0.00874471,-0.066162,-0.00321396,0.0524648,0,0,4.34,-0.2275,-0.945,-0.044896,-0.015006,-0.958432,-0.06832,0.12628,0.48482
-1.93655,0,0,16.9365,16.9365,13.0635,13.0635,1.37616,3.5312,0.00907806,0.0344255,-0.144631,-0.102205,1,0,3.605,0.07,-0.7,0.05612,-0.156282,-1.11191,-0.06832,0.12628,0.48482
-1.93695,0,0,16.937,16.937,13.063,13.063,1.37644,3.53244,0.00886657,0.0344039,-0.144627,-0.102206,1,0,3.605,0.7,-1.0325,0.05612,-0.156282,-1.11191,-0.06832,0.12628,0.48482
-1.86643,0,0,16.8664,16.8664,13.1336,13.1336,1.32605,3.3448,0.151241,-0.168124,0.0481935,0.0547703,0,0,2.6775,0.42,-1.1725,-0.150548,0.03721,-0.956358,-0.06902,0.12768,0.4837
-1.79716,0,0,16.7972,16.7972,13.2028,13.2028,1.27656,3.15986,0.293806,-0.164901,0.0473354,0.054973,0,0,2.7125,-0.0175,-1.085,-0.150548,0.03721,-0.956358,-0.06902,0.12768,0.4837
-1.79635,0,0,16.7964,16.7964,13.2036,13.2036,1.27597,3.15978,0.293713,-0.210457,0.0894589,-0.201374,1,0,3.115,-0.07,-0.945,-0.196298,0.0793,-1.21073,-0.06902,0.12768,0.4837
-1.79779,0,0,16.7978,16.7978,13.2022,13.2022,1.27698,3.15857,0.293805,-0.210436,0.0894765,-0.201374,1,0,4.0075,-0.735,-0.8225,-0.196298,0.0793,-1.21073,-0.06902,0.12768,0.4837
-1.79924,0,0,16.7992,16.7992,13.2008,13.2008,1.278,3.15754,0.293511,0.0122654,0.0165847,-0.102768,1,0,4.025,-0.63,-1.05,0.027328,0.006466,-1.11288,-0.06902,0.12768,0.4837
-1.79945,0,0,16.7994,16.7994,13.2006,13.2006,1.27814,3.15675,0.292982,0.0122791,0.0165871,-0.102768,1,0,3.535,-0.49,-1.19,0.027328,0.006466,-1.11288,-0.06902,0.12768,0.4837
-2.34181,0,0,17.3418,17.3418,12.6582,12.6582,1.66552,3.45002,0.0271495,0.239085,-0.353434,0.22516,0,0,3.605,-0.56,-1.1025,0.260226,-0.369904,-0.787022,-0.06902,0.12768,0.4837
-2.87477,0,0,17.8748,17.8748,12.1252,12.1252,2.04619,3.73921,-0.234233,0.234048,-0.346817,0.224629,0,0,2.9925,0.0175,-0.9625,0.260226,-0.369904,-0.787022,-0.06902,0.12768,0.4837
-2.8728,0,0,17.8728,17.8728,12.1272,12.1272,2.04476,3.73963,-0.23476,0.0324959,-0.326813,-0.145569,1,0,2.66,0.21,-1.2075,0.057828,-0.349896,-1.15436,-0.07462,0.1204,0.483
-2.22243,0,0,17.2224,17.2224,12.7776,12.7776,1.58019,3.72172,-0.258167,-0.0342523,0.44146,0.171054,0,0,3.29,0.4025,-1.295,-0.009516,0.425658,-0.840458,-0.07462,0.1204,0.483
-1.58239,0,0,16.5824,16.5824,13.4176,13.4176,1.12301,3.70353,-0.281018,-0.0339354,0.433501,0.171262,0,0,3.5175,0.245,-1.3125,-0.009516,0.425658,-0.840458,-0.07462,0.1204,0.483
-1.4185,0,0,16.4185,16.4185,13.5815,13.5815,1.00593,3.64994,-0.254298,-0.0521969,0.119429,0.00857622,0,0,4.025,0.595,-1.2425,-0.028792,0.113948,-1.00199,-0.07462,0.1204,0.483
-1.25765,0,0,16.2576,16.2576,13.7424,13.7424,0.891025,3.59674,-0.227288,-0.0512703,0.117429,0.00866803,0,0,4.13,0.2625,-1.2075,-0.028792,0.113948,-1.00199,-0.07462,0.1204,0.483
-1.19682,0,0,16.1968,16.1968,13.8032,13.8032,0.847571,3.4765,-0.135194,-0.111012,0.0441306,0.0116368,0,0,3.675,0.3675,-1.2075,-0.09089,0.04148,-0.99918,-0.07462,0.1204,0.483
-1.13523,0,0,16.1352,16.1352,13.8648,13.8648,0.803569,3.35822,-0.042985,-0.108951,0.0433659,0.0117709,0,0,2.9575,0.21,-1.155,-0.09089,0.04148,-0.99918,-0.07462,0.1204,0.483
-1.13345,0,0,16.1335,16.1335,13.8665,13.8665,0.802288,3.35862,-0.0431605,-0.071662,0.0841339,0.238488,1,0,2.73,0.21,-0.9975,-0.053436,0.082228,-0.774212,-0.07462,0.1204,0.483
-1.13158,0,0,16.1316,16.1316,13.8684,13.8684,0.800942,3.35839,-0.0428342,-0.071658,0.0841104,0.238488,1,0,2.6775,-0.1575,-0.7,-0.053436,0.082228,-0.774212,-0.06972,0.12418,0.47866
-1.13126,0,0,16.1313,16.1313,13.8687,13.8687,0.800709,3.35792,-0.0426914,0.0484996,0.00545674,-0.234494,1,0,3.3075,-0.2975,-0.805,0.067222,0.00366,-1.24355,-0.06972,0.12418,0.47866
-1.13286,0,0,16.1329,16.1329,13.8671,13.8671,0.801841,3.35691,-0.0427064,0.0485171,0.00547647,-0.234493,1,0,4.0775,-0.6125,-0.8925,0.067222,0.00366,-1.24355,-0.06972,0.12418,0.47866
-1.13275,0,0,16.1327,16.1327,13.8673,13.8673,0.801751,3.35701,-0.0422554,-0.252526,-0.230352,-0.495513,1,0,3.3775,0.035,-0.63,-0.235094,-0.231922,-1.50255,-0.06972,0.12418,0.47866
-1.13414,0,0,16.1341,16.1341,13.8659,13.8659,0.802736,3.35652,-0.0410313,-0.252518,-0.230335,-0.495513,1,0,3.955,-0.2975,-0.175,-0.235094,-0.231922,-1.50255,-0.06972,0.12418,0.47866
-1.13535,0,0,16.1353,16.1353,13.8647,13.8647,0.803591,3.3555,-0.0399048,0.146216,-0.252058,-0.223796,1,0,3.885,-0.6125,-0.2275,0.16531,-0.253638,-1.23293,-0.06972,0.12418,0.47866
-1.13417,0,0,16.1342,16.1342,13.8658,13.8658,0.802742,3.3554,-0.0385551,0.146218,-0.252073,-0.223795,1,0,2.9225,-0.07,-0.105,0.16531,-0.253638,-1.23293,-0.06972,0.12418,0.47866
-1.13273,0,0,16.1327,16.1327,13.8673,13.8673,0.801707,3.35462,-0.0377257,0.0986092,-0.082335,0.218943,1,0,2.835,-0.4725,-0.4025,0.117486,-0.084058,-0.79361,-0.06972,0.12418,0.47866
-1.13061,0,0,16.1306,16.1306,13.8694,13.8694,0.800179,3.35393,-0.0367749,0.0986212,-0.0823616,0.218944,1,0,2.555,-0.42,-0.3325,0.117486,-0.084058,-0.79361,-0.06972,0.12418,0.47866
-1.1557,0,0,16.1557,16.1557,13.8443,13.8443,0.818092,3.34366,-0.044923,-0.00494859,-0.021963,-0.0859619,0,0,2.975,-0.035,-0.7525,0.013298,-0.024034,-1.09617,-0.06608,0.12544,0.47754
-1.18136,0,0,16.1814,16.1814,13.8186,13.8186,0.836412,3.33301,-0.0532019,-0.00476316,-0.0216437,-0.0859557,0,0,3.3775,-0.3675,-0.8225,0.013298,-0.024034,-1.09617,-0.06608,0.12544,0.47754
-1.03929,0,0,16.0393,16.0393,13.9607,13.9607,0.734928,3.52157,-0.248135,0.191674,0.112024,-0.0475224,0,0,4.095,-0.63,-1.26,0.213866,0.111264,-1.05786,-0.06608,0.12544,0.47754
-0.899438,0,0,15.8994,15.8994,14.1006,14.1006,0.635026,3.70669,-0.443348,0.18845,0.110282,-0.0477052,0,0,4.095,-0.63,-1.26,0.213866,0.111264,-1.05786,-0.06608,0.12544,0.47754
-1.20826,0,0,16.2083,16.2083,13.7917,13.7917,0.855605,3.69313,-0.444327,-0.00593415,-0.238945,-0.0370434,0,0,4.2525,0.315,-1.785,0.018422,-0.241438,-1.04725,-0.06608,0.12544,0.47754
-1.512,0,0,16.512,16.512,13.488,13.488,1.07255,3.67987,-0.445531,-0.00570328,-0.235167,-0.0370921,0,0,4.2525,0.315,-1.785,0.018422,-0.241438,-1.04725,-0.06608,0.12544,0.47754
-1.50427,0,0,16.5043,16.5043,13.4957,13.4957,1.06701,3.43371,-0.246713,-0.2275,0.00557588,0.0299372,0,0,3.36,0.665,-1.96,-0.20862,-0.000854,-0.981002,-0.06608,0.12544,0.47754
-1.49658,0,0,16.4966,16.4966,13.5034,13.5034,1.06151,3.19199,-0.0481932,-0.223288,0.00548454,0.0301828,0,0,3.36,0.665,-1.96,-0.20862,-0.000854,-0.981002,-0.06608,0.12544,0.47754
-1.58334,0,0,16.5833,16.5833,13.4167,13.4167,1.12348,3.03824,0.082981,-0.143344,-0.0652435,0.00239866,0,0,2.59,0.8575,-1.61,-0.131028,-0.07259,-1.0087,-0.06986,0.12208,0.47978
-1.55054,0,0,16.5505,16.5505,13.4495,13.4495,1.10003,2.91005,0.188869,-0.11414,0.0215487,0.0744475,0,0,2.3625,0.3675,-1.575,-0.103944,0.014518,-0.937326,-0.06986,0.12208,0.47978
-1.52045,0,0,16.5204,16.5204,13.4796,13.4796,1.07853,2.78219,0.295132,-0.111911,0.021176,0.0745654,0,0,3.22,-0.8225,-1.2775,-0.103944,0.014518,-0.937326,-0.06986,0.12208,0.47978
-1.51982,0,0,16.5198,16.5198,13.4802,13.4802,1.07807,2.78136,0.295116,-0.0148295,0.210587,-0.199117,1,0,3.185,-0.5075,-0.8925,-0.006466,0.20374,-1.2089,-0.06986,0.12208,0.47978
-1.52129,0,0,16.5213,16.5213,13.4787,13.4787,1.07911,2.78034,0.295786,-0.0148117,0.210605,-0.199117,1,0,4.0075,-0.6125,-0.49,-0.006466,0.20374,-1.2089,-0.06986,0.12208,0.47978
-1.5228,0,0,16.5228,16.5228,13.4772,13.4772,1.08017,2.77983,0.296406,-0.29179,0.0527134,-0.11502,1,0,4.025,-0.315,-0.525,-0.284626,0.045994,-1.12545,-0.06986,0.12208,0.47978
-1.52231,0,0,16.5223,16.5223,13.4777,13.4777,1.07981,2.7797,0.297784,-0.291788,0.0527071,-0.115019,1,0,3.2025,-0.0875,-0.0875,-0.284626,0.045994,-1.12545,-0.06986,0.12208,0.47978
-1.44829,0,0,16.4483,16.4483,13.5517,13.5517,1.02693,2.7855,0.289071,0.0058724,0.0537393,-0.0219354,0,0,2.7825,0.28,0.315,0.014396,0.047946,-1.0331,-0.06986,0.12208,0.47978
-1.37424,0,0,16.3742,16.3742,13.6258,13.6258,0.974023,2.7909,0.278195,0.00577837,0.0528171,-0.0219239,0,0,2.2575,0.035,0.56,0.014396,0.047946,-1.0331,-0.06846,0.12362,0.48552
-1.49727,0,0,16.4973,16.4973,13.5027,13.5027,1.06189,2.79022,0.277294,0.00214568,-0.0967221,-0.0432206,0,0,2.555,-0.035,0.1575,0.010736,-0.102968,-1.0542,-0.06846,0.12362,0.48552
-1.61999,0,0,16.62,16.62,13.38,13.38,1.14954,2.78974,0.275711,0.00215399,-0.0951945,-0.0432497,0,0,3.2725,0.07,-0.21,0.010736,-0.102968,-1.0542,-0.06846,0.12362,0.48552
-1.62011,0,0,16.6201,16.6201,13.3799,13.3799,1.14961,2.78966,0.27706,-0.113378,-0.176041,0.130108,1,0,3.4475,-0.0525,-0.105,-0.105286,-0.183732,-0.882182,-0.06846,0.12362,0.48552
-1.62227,0,0,16.6223,16.6223,13.3777,13.3777,1.15114,2.78947,0.278196,-0.113374,-0.176014,0.130107,1,0,4.27,-0.1225,-0.2275,-0.105286,-0.183732,-0.882182,-0.06846,0.12362,0.48552
-1.49332,0,0,16.4933,16.4933,13.5067,13.5067,1.05902,2.81946,0.24082,0.0220455,0.0908141,0.0696221,0,0,4.27,-0.0875,-0.91,0.031232,0.084424,-0.942206,-0.06846,0.12362,0.48552
-1.36462,0,0,16.3646,16.3646,13.6354,13.6354,0.967082,2.84839,0.202444,0.0215412,0.0892112,0.0696254,0,0,3.535,-0.385,-1.505,0.031232,0.084424,-0.942206,-0.06846,0.12362,0.48552
-1.30768,0,0,16.3077,16.3077,13.6923,13.6923,0.926399,3.18957,-0.116608,0.321739,0.0426995,0.0497748,0,0,3.605,-0.2625,-1.82,0.338672,0.038674,-0.961604,-0.06846,0.12362,0.48552
-1.24788,0,0,16.2479,16.2479,13.7521,13.7521,0.88368,3.5253,-0.432639,0.315889,0.0419499,0.0494434,0,0,2.205,0.49,-1.89,0.338672,0.038674,-0.961604,-0.06678,0.12124,0.48104
-1.42785,0,0,16.4279,16.4279,13.5721,13.5721,1.01222,3.1712,-0.119759,-0.336272,-0.13643,0.0362429,0,0,2.0125,0.6825,-2.1175,-0.322446,-0.141764,-0.975024,-0.06678,0.12124,0.48104
-1.6068,0,0,16.6068,16.6068,13.3932,13.3932,1.14003,2.82281,0.190375,-0.3302,-0.134197,0.0365189,0,0,2.8875,0.3675,-2.4325,-0.322446,-0.141764,-0.975024,-0.06678,0.12124,0.48104
-1.60528,0,0,16.6053,16.6053,13.3947,13.3947,1.13893,2.82322,0.18822,-0.0952537,-0.0859762,-0.153682,1,0,2.8875,0.1925,-2.1525,-0.086498,-0.093574,-1.16376,-0.06678,0.12124,0.48104
-1.60595,0,0,16.606,16.606,13.394,13.394,1.1394,2.82395,0.186702,-0.0952664,-0.0859681,-0.153683,1,0,3.745,0.385,-1.785,-0.086498,-0.093574,-1.16376,-0.06678,0.12124,0.48104
-1.60636,0,0,16.6064,16.6064,13.3936,13.3936,1.13967,2.82446,0.18524,0.0778417,0.175388,0.155286,1,0,3.64,0.2625,-1.75,0.087352,0.167506,-0.857172,-0.06678,0.12124,0.48104
-1.60628,0,0,16.6063,16.6063,13.3937,13.3937,1.13961,2.82479,0.184344,0.077836,0.175387,0.155286,1,0,3.43,0.1575,-1.4175,0.087352,0.167506,-0.857172,-0.06678,0.12124,0.48104
-1.60486,0,0,16.6049,16.6049,13.3951,13.3951,1.13858,2.82441,0.184186,-0.0453439,0.122122,0.205326,1,0,2.87,-0.245,-0.98,-0.036356,0.114314,-0.807518,-0.06678,0.12124,0.48104
-1.60213,0,0,16.6021,16.6021,13.3979,13.3979,1.13662,2.82381,0.184714,-0.0453335,0.122087,0.205328,1,0,2.3275,-0.3675,-0.5775,-0.036356,0.114314,-0.807518,-0.06146,0.1267,0.48804
-1.59867,0,0,16.5987,16.5987,13.4013,13.4013,1.13413,2.82345,0.185486,0.0585431,-0.0838615,0.159715,1,0,2.03,-0.2275,-0.4375,0.067954,-0.091378,-0.85278,-0.06146,0.1267,0.48804
-1.59696,0,0,16.597,16.597,13.403,13.403,1.1329,2.82355,0.186809,0.0585413,-0.0838831,0.159715,1,0,2.7125,0.0525,-0.1225,0.067954,-0.091378,-0.85278,-0.06146,0.1267,0.48804
-1.73187,0,0,16.7319,16.7319,13.2681,13.2681,1.22925,3.07216,-0.0468129,0.219064,-0.0925893,0.0928194,0,0,3.43,-0.4025,0.175,0.233508,-0.101748,-0.918904,-0.06146,0.1267,0.48804
-1.86456,0,0,16.8646,16.8646,13.1354,13.1354,1.32402,3.31632,-0.279298,0.214809,-0.0909436,0.0925452,0,0,3.43,-0.4025,0.175,0.233508,-0.101748,-0.918904,-0.06146,0.1267,0.48804
-1.76202,0,0,16.762,16.762,13.238,13.238,1.25076,3.23567,-0.227563,-0.0765659,0.0750956,0.0207294,0,0,3.9725,-0.0875,0.21,-0.060512,0.065392,-0.990274,-0.06146,0.1267,0.48804
-1.66119,0,0,16.6612,16.6612,13.3388,13.3388,1.17873,3.15646,-0.175671,-0.0751856,0.0738423,0.0208331,0,0,3.9725,-0.0875,0.21,-0.060512,0.065392,-0.990274,-0.06146,0.1267,0.48804
-1.66249,0,0,16.6625,16.6625,13.3375,13.3375,1.17964,3.15756,-0.174598,0.0374126,0.0970622,-0.123018,1,0,3.92,0.63,-0.28,0.052582,0.088572,-1.13301,-0.06146,0.1267,0.48804
-1.66378,0,0,16.6638,16.6638,13.3362,13.3362,1.18055,3.15865,-0.173525,0.0373936,0.0970781,-0.123019,1,0,3.92,0.63,-0.28,0.052582,0.088572,-1.13301,-0.07154,0.12908,0.48342
-1.27573,0,0,16.2757,16.2757,13.7243,13.7243,0.903365,2.94271,-0.0152621,-0.201328,0.284845,0.049151,0,0,3.4825,-4.27,-0.9975,-0.19093,0.280966,-0.962458,-0.07154,0.12908,0.48342
-0.893875,0,0,15.8939,15.8939,14.1061,14.1061,0.630601,2.73026,0.144883,-0.197625,0.280094,0.0493981,0,0,3.4825,-4.27,-0.9975,-0.19093,0.280966,-0.962458,-0.07154,0.12908,0.48342
-1.00452,0,0,16.0045,16.0045,13.9955,13.9955,0.709626,2.65136,0.202641,-0.0725769,-0.0853967,-0.0369862,0,0,3.3075,-0.7875,-2.24,-0.066734,-0.085522,-1.04822,-0.07154,0.12908,0.48342
-1.11331,0,0,16.1133,16.1133,13.8867,13.8867,0.787321,2.57393,0.260049,-0.071227,-0.0840414,-0.0369423,0,0,3.3075,-0.7875,-2.24,-0.066734,-0.085522,-1.04822,-0.07154,0.12908,0.48342
-0.984127,0,0,15.9841,15.9841,14.0159,14.0159,0.695043,2.6475,0.178581,0.0765533,0.102302,-0.0741104,0,0,3.71,0.0525,-2.1175,0.08296,0.102236,-1.08507,-0.07154,0.12908,0.48342
-0.985304,0,0,15.9853,15.9853,14.0147,14.0147,0.695876,2.6481,0.176156,-0.231059,-0.0301909,-0.180093,1,0,3.9725,0.315,-2.31,-0.225944,-0.030134,-1.19023,-0.07154,0.12908,0.48342
-0.985698,0,0,15.9857,15.9857,14.0143,14.0143,0.69615,2.64913,0.173795,-0.231077,-0.0301861,-0.180094,1,0,3.6575,0.56,-2.275,-0.225944,-0.030134,-1.19023,-0.07154,0.12908,0.48342
-0.960154,0,0,15.9602,15.9602,14.0398,14.0398,0.677897,2.65897,0.160815,0.00965759,0.0177357,-0.0264121,0,0,2.8525,0.5775,-2.0125,0.015982,0.018056,-1.03773,-0.06608,0.12222,0.47936
-0.933915,0,0,15.9339,15.9339,14.0661,14.0661,0.659148,2.66847,0.149421,0.00949201,0.0174087,-0.026416,0,0,2.3625,0.49,-1.1025,0.015982,0.018056,-1.03773,-0.06608,0.12222,0.47936
-1.03602,0,0,16.036,16.036,13.964,13.964,0.732071,3.00737,-0.157514,0.350912,-0.0851315,-0.017626,0,0,2.695,0.3325,-0.84,0.36478,-0.085644,-1.0287,-0.06608,0.12222,0.47936
-1.13638,0,0,16.1364,16.1364,13.8636,13.8636,0.80375,3.34036,-0.463162,0.345109,-0.0838868,-0.0179645,0,0,2.695,0.3325,-0.84,0.36478,-0.085644,-1.0287,-0.06608,0.12222,0.47936
-1.14138,0,0,16.1414,16.1414,13.8586,13.8586,0.807314,3.11048,-0.266173,-0.229886,-0.00480554,-0.0702387,0,0,3.6225,-0.1925,-0.4025,-0.216672,-0.00671,-1.0808,-0.06608,0.12222,0.47936
-1.14621,0,0,16.1462,16.1462,13.8538,13.8538,0.810751,2.88472,-0.0695328,-0.225951,-0.00474272,-0.0700335,0,0,3.6225,-0.1925,-0.4025,-0.216672,-0.00671,-1.0808,-0.06608,0.12222,0.47936
-1.06538,0,0,16.0654,16.0654,13.9346,13.9346,0.753009,2.93684,-0.123067,0.0552302,0.0655723,-0.0631808,0,0,4.8475,-0.035,0.5775,0.066612,0.064538,-1.07397,-0.06608,0.12222,0.47936
-1.06779,0,0,16.0678,16.0678,13.9322,13.9322,0.754723,2.93674,-0.120847,0.00675929,-0.198924,-0.217481,1,0,4.34,-0.07,0.4025,0.017934,-0.199714,-1.22708,-0.06608,0.12222,0.47936
-1.0688,0,0,16.0688,16.0688,13.9312,13.9312,0.755434,2.93746,-0.118706,0.0067466,-0.198912,-0.217482,1,0,3.78,0.42,0.35,0.017934,-0.199714,-1.22708,-0.06706,0.12586,0.49266
-1.0699,0,0,16.0699,16.0699,13.9301,13.9301,0.756214,2.93756,-0.116453,-0.0615301,-0.0367141,0.138453,1,0,3.815,0.0525,0.42,-0.05063,-0.037698,-0.873886,-0.06706,0.12586,0.49266
-1.06906,0,0,16.0691,16.0691,13.9309,13.9309,0.755609,2.93908,-0.115023,-0.0615565,-0.0367247,0.138452,1,0,3.0625,0.875,-0.07,-0.05063,-0.037698,-0.873886,-0.06706,0.12586,0.49266
-0.796634,0,0,15.7966,15.7966,14.2034,14.2034,0.56101,2.90831,-0.105118,-0.0324711,0.208534,-0.0247571,0,0,3.2725,0.49,-0.3325,-0.02196,0.210694,-1.0359,-0.06706,0.12586,0.49266
-0.530617,0,0,15.5306,15.5306,14.4694,14.4694,0.370994,2.87667,-0.0960388,-0.0319195,0.205222,-0.0247023,0,0,4.0775,-0.315,-0.98,-0.02196,0.210694,-1.0359,-0.06706,0.12586,0.49266
-0.625934,0,0,15.6259,15.6259,14.3741,14.3741,0.439073,3.01674,-0.23347,0.135355,-0.0688658,0.00971214,0,0,4.55,-0.6825,-0.945,0.148474,-0.064294,-1.00162,-0.06706,0.12586,0.49266
-0.720063,0,0,15.7201,15.7201,14.2799,14.2799,0.506302,3.1542,-0.371519,0.132959,-0.0676953,0.00957334,0,0,4.7425,-0.735,-1.5925,0.148474,-0.064294,-1.00162,-0.06706,0.12586,0.49266
-0.72182,0,0,15.7218,15.7218,14.2782,14.2782,0.507552,3.15402,-0.373353,-0.117663,0.163024,0.240471,1,0,4.2,-0.14,-1.96,-0.103212,0.166164,-0.772504,-0.06706,0.12586,0.49266
-0.722316,0,0,15.7223,15.7223,14.2777,14.2777,0.507901,3.15327,-0.375674,-0.11765,0.16303,0.240471,1,0,3.71,-0.4725,-2.24,-0.103212,0.166164,-0.772504,-0.06608,0.12516,0.48496
-0.402274,0,0,15.4023,15.4023,14.5977,14.5977,0.279296,3.23831,-0.480422,0.0645545,0.215835,0.114517,0,0,3.08,-0.175,-2.0125,0.081252,0.222894,-0.897432,-0.06608,0.12516,0.48496
-0.08667,0,0,15.0867,15.0867,14.9133,14.9133,0.0538644,3.32195,-0.585763,0.0630971,0.211906,0.114445,0,0,2.8175,-0.07,-2.135,0.081252,0.222894,-0.897432,-0.06608,0.12516,0.48496
-0.0857085,0,0,15.0857,15.0857,14.9143,14.9143,0.053177,3.32232,-0.588077,0.142056,0.28859,-0.0869455,1,0,3.1325,0.1925,-2.24,0.160552,0.29951,-1.09727,-0.06608,0.12516,0.48496
-0.0843466,0,0,15.0843,15.0843,14.9157,14.9157,0.0522036,3.32395,-0.589939,0.142028,0.288573,-0.0869471,1,0,2.9575,0.9275,-1.9775,0.160552,0.29951,-1.09727,-0.06608,0.12516,0.48496
-0.0209994,0,0,15.021,15.021,14.979,14.979,0.00695558,3.08541,-0.389455,-0.220095,0.0441419,0.0734879,0,0,3.745,0.5775,-1.785,-0.207278,0.05612,-0.938302,-0.06608,0.12516,0.48496
0.0412142,0,0,14.9588,14.9588,15.0412,15.0412,-0.0374823,2.85089,-0.188051,-0.216007,0.0433673,0.0736997,0,0,3.78,0.49,-1.3125,-0.207278,0.05612,-0.938302,-0.06608,0.12516,0.48496
0.0400959,0,0,14.9599,14.9599,15.0401,15.0401,-0.0366832,2.85209,-0.188473,-0.131231,0.020055,0.169844,1,0,3.9025,0.6825,-1.1375,-0.122122,0.032818,-0.842898,-0.06608,0.12516,0.48496
0.0382843,0,0,14.9617,14.9617,15.0383,15.0383,-0.0353887,2.85255,-0.187723,-0.131239,0.0200776,0.169844,1,0,4.1475,0.245,-0.455,-0.122122,0.032818,-0.842898,-0.06608,0.12516,0.48496
0.0373796,0,0,14.9626,14.9626,15.0374,15.0374,-0.0347422,2.85214,-0.186193,0.20577,-0.0669875,0.186196,1,0,3.7625,-0.2625,0,0.216306,-0.054168,-0.826672,-0.07084,0.12446,0.48874
0.0373592,0,0,14.9626,14.9626,15.0374,15.0374,-0.0347272,2.85186,-0.184182,-0.203875,-0.135134,-0.0973225,1,0,3.395,-0.1925,0.28,-0.195078,-0.122244,-1.108,-0.07084,0.12446,0.48874
0.0384043,0,0,14.9616,14.9616,15.0384,15.0384,-0.0354733,2.85196,-0.182411,-0.203877,-0.135147,-0.0973226,1,0,2.975,0.035,0.14,-0.195078,-0.122244,-1.108,-0.07084,0.12446,0.48874
0.10952,0,0,14.8905,14.8905,15.1095,15.1095,-0.0862695,2.81476,-0.156758,-0.0354568,0.0526533,-0.00643251,0,0,3.29,-0.1925,0.2275,-0.026596,0.066246,-1.01785,-0.07084,0.12446,0.48874
0.179129,0,0,14.8209,14.8209,15.1791,15.1791,-0.135989,2.77799,-0.130836,-0.0348158,0.0517865,-0.00640288,0,0,3.4125,-0.3325,0.35,-0.026596,0.066246,-1.01785,-0.07084,0.12446,0.48874
0.36732,0,0,14.6327,14.6327,15.3673,15.3673,-0.270408,2.81243,-0.174016,0.030915,0.138596,0.025895,0,0,4.2875,-0.4375,0.1575,0.040016,0.155306,-0.98576,-0.07084,0.12446,0.48874
0.551158,0,0,14.4488,14.4488,15.5512,15.5512,-0.401717,2.84617,-0.218016,0.0303269,0.136307,0.0258525,0,0,4.8125,-0.4725,-0.315,0.040016,0.155306,-0.98576,-0.07084,0.12446,0.48874
0.549176,0,0,14.4508,14.4508,15.5492,15.5492,-0.400296,2.84618,-0.217236,0.160195,0.103113,0.303224,1,0,4.2175,-0.0175,-0.4375,0.170434,0.122122,-0.710528,-0.07084,0.12446,0.48874
0.549621,0,0,14.4504,14.4504,15.5496,15.5496,-0.40061,2.84592,-0.217445,0.160199,0.103108,0.303225,1,0,3.2725,-0.175,-1.015,0.170434,0.122122,-0.710528,-0.06734,0.12516,0.48496
0.551211,0,0,14.4488,14.4488,15.5512,15.5512,-0.401741,2.84509,-0.217771,-0.0803278,0.314123,0.206711,1,0,2.8175,-0.5075,-1.085,-0.071126,0.332938,-0.806298,-0.06734,0.12516,0.48496
0.552464,0,0,14.4475,14.4475,15.5525,15.5525,-0.402632,2.84393,-0.218904,-0.0803076,0.314108,0.206712,1,0,2.975,-0.7,-1.5575,-0.071126,0.332938,-0.806298,-0.06734,0.12516,0.48496
0.552641,0,0,14.4474,14.4474,15.5526,15.5526,-0.402754,2.84303,-0.22028,-0.18562,-0.00171418,-0.113323,1,0,3.4125,-0.5425,-1.6975,-0.1769,0.017446,-1.12386,-0.06734,0.12516,0.48496
0.5522,0,0,14.4478,14.4478,15.5522,15.5522,-0.402435,2.843,-0.222203,-0.185619,-0.00170861,-0.113323,1,0,3.675,-0.035,-2.0125,-0.1769,0.017446,-1.12386,-0.06734,0.12516,0.48496
0.388269,0,0,14.6117,14.6117,15.3883,15.3883,-0.285338,2.94683,-0.325307,0.106323,-0.124603,-0.0165184,0,0,3.92,-0.6125,-2.205,0.118096,-0.10736,-1.02773,-0.06734,0.12516,0.48496
0.227017,0,0,14.773,14.773,15.227,15.227,-0.170156,3.04882,-0.427927,0.104545,-0.122595,-0.0166036,0,0,3.92,-0.6125,-2.205,0.118096,-0.10736,-1.02773,-0.06734,0.12516,0.48496
0.284535,0,0,14.7155,14.7155,15.2845,15.2845,-0.211238,3.06052,-0.453086,0.00618104,0.0403391,0.0545704,0,0,3.64,0.63,-1.54,0.01952,0.05612,-0.95709,-0.06734,0.12516,0.48496
0.341098,0,0,14.6589,14.6589,15.3411,15.3411,-0.251638,3.07202,-0.476719,0.00598067,0.0396351,0.0545568,0,0,3.64,0.63,-1.54,0.01952,0.05612,-0.95709,-0.0728,0.12488,0.48188
0.10603,0,0,14.894,14.894,15.106,15.106,-0.0837313,3.13128,-0.533151,0.0665412,-0.189479,-0.0692997,0,0,3.5525,0.525,-1.295,0.081374,-0.17568,-1.07994,-0.0728,0.12488,0.48188
-0.125221,0,0,15.1252,15.1252,14.8748,14.8748,0.0814474,3.18947,-0.589262,0.065527,-0.186601,-0.0693557,0,0,3.5525,0.525,-1.295,0.081374,-0.17568,-1.07994,-0.0728,0.12488,0.48188
0.0417464,0,0,14.9583,14.9583,15.0417,15.0417,-0.0378149,3.2844,-0.692991,0.0728628,0.111875,0.106368,0,0,3.3775,0.945,-0.6825,0.090402,0.124562,-0.905484,-0.0728,0.12488,0.48188
0.206021,0,0,14.794,14.794,15.206,15.206,-0.155152,3.37761,-0.79687,0.0712388,0.109831,0.10627,0,0,3.3775,0.945,-0.6825,0.090402,0.124562,-0.905484,-0.0728,0.12488,0.48188
0.0656995,0,0,14.9343,14.9343,15.0657,15.0657,-0.054922,3.34009,-0.773514,-0.0319777,-0.104832,-0.0145469,0,0,3.85,-1.12,-0.455,-0.013908,-0.091622,-1.02541,-0.0728,0.12488,0.48188
-0.0722912,0,0,15.0723,15.0723,14.9277,14.9277,0.0436424,3.30326,-0.750387,-0.0313361,-0.103114,-0.0145095,0,0,3.85,-1.12,-0.455,-0.013908,-0.091622,-1.02541,-0.0728,0.12488,0.48188
-0.38388,0,0,15.3839,15.3839,14.6161,14.6161,0.266203,3.12651,-0.589826,-0.172095,-0.2442,-0.0231992,0,0,3.4125,-0.2275,0.21,-0.158356,-0.236436,-1.03419,-0.0728,0.12488,0.48188
-0.0879467,0,0,15.0879,15.0879,14.9121,14.9121,0.0548214,2.88907,-0.391657,-0.24097,0.2278,0.00174119,0,0,3.4125,0.2625,-0.0875,-0.231678,0.238754,-1.00967,-0.06398,0.12432,0.48496
0.20373,0,0,14.7963,14.7963,15.2037,15.2037,-0.153518,2.65501,-0.192072,-0.236889,0.224168,0.00193562,0,0,3.2375,-0.0525,-0.175,-0.231678,0.238754,-1.00967,-0.06398,0.12432,0.48496
0.469634,0,0,14.5304,14.5304,15.4696,15.4696,-0.343445,2.63691,-0.186856,-0.0192357,0.204858,-0.0265882,0,0,2.555,0.5425,-0.21,-0.01342,0.222772,-1.03798,-0.06398,0.12432,0.48496
0.731205,0,0,14.2688,14.2688,15.7312,15.7312,-0.530276,2.61908,-0.181414,-0.0189248,0.201601,-0.0265988,0,0,2.555,0.5425,-0.21,-0.01342,0.222772,-1.03798,-0.06398,0.12432,0.48496
0.732801,0,0,14.2672,14.2672,15.7328,15.7328,-0.53141,2.61881,-0.181833,-0.000332945,-0.0264299,-0.153482,1,0,2.8175,-0.175,-1.1375,0.005246,-0.005002,-1.16388,-0.06398,0.12432,0.48496
0.793118,0,0,14.2069,14.2069,15.7931,15.7931,-0.574488,2.74504,-0.307242,0.137418,0.0486609,-0.0720771,0,0,3.185,-0.35,-1.0325,0.14579,0.07076,-1.08299,-0.06398,0.12432,0.48496
0.850097,0,0,14.1499,14.1499,15.8501,15.8501,-0.615181,2.86842,-0.433034,0.135267,0.0479526,-0.0721899,0,0,4.1475,-0.7175,-1.26,0.14579,0.07076,-1.08299,-0.06398,0.12432,0.48496
0.784958,0,0,14.215,14.215,15.785,15.785,-0.568647,2.86326,-0.43654,-0.00277223,-0.0493041,-0.0209075,0,0,3.3775,-0.525,-1.4875,0.007076,-0.027206,-1.03212,-0.06398,0.12432,0.48496
