pid_x,pid_y,pid_z,front_left_speed,front_right_speed,back_left_speed,back_right_speed,orientation_x,orientation_y,orientation_z,acceleration_x,acceleration_y,acceleration_z,accel_rejected,mag_rejected,gyro_x,gyro_y,gyro_z,accel_x,accel_y,accel_z,mag_x,mag_y,mag_z
-0.0440466,0,0,15.044,15.044,14.956,14.956,0.0163135,0.0622401,0.0221948,0.0475519,-0.0140712,0.00264318,0,0,3.3425,-0.035,-0.98,0.00854,-0.002196,-1.01004,-0.07308,0.10836,0.44912
-0.0945727,0,0,15.0946,15.0946,14.9054,14.9054,0.0350269,0.122277,0.0383071,0.0516064,-0.0159429,0.00436263,0,0,3.4475,-4.41,-1.05,0.013664,-0.004392,-1.00833,-0.07308,0.10836,0.44912
-0.147998,0,0,15.148,15.148,14.852,14.852,0.0548139,0.183022,0.0596227,0.0465372,-0.0169409,-0.00178789,0,0,3.465,-0.07,-0.875,0.009638,-0.005734,-1.01443,-0.07308,0.10836,0.44912
-0.201015,0,0,15.201,15.201,14.799,14.799,0.0744501,0.242419,0.0805742,0.0455005,-0.0165982,-0.00179213,0,0,3.605,-0.0525,-1.0675,0.009638,-0.005734,-1.01443,-0.07308,0.10836,0.44912
-0.246445,0,0,15.2464,15.2464,14.7536,14.7536,0.0912757,0.29977,0.102028,0.0438921,-0.0143505,0.000169885,0,0,3.4825,0,-1.085,0.009028,-0.003782,-1.01248,-0.07308,0.10836,0.44912
-0.290963,0,0,15.291,15.291,14.709,14.709,0.107764,0.355832,0.123446,0.0429137,-0.0140628,0.000163787,0,0,3.4825,0,-1.085,0.009028,-0.003782,-1.01248,-0.07308,0.10836,0.44912
-0.328721,0,0,15.3287,15.3287,14.6713,14.6713,0.121748,0.408016,0.154621,0.0400592,-0.0121089,-0.0057443,0,0,3.4125,0.07,-0.8575,0.007076,-0.002074,-1.01833,-0.07504,0.10472,0.44954
-0.367159,0,0,15.3672,15.3672,14.6328,14.6328,0.135985,0.467758,0.177771,0.0458197,-0.012349,-0.000957837,0,0,3.36,0.0175,-0.8575,0.013908,-0.002562,-1.01358,-0.07504,0.10472,0.44954
-0.405586,0,0,15.4056,15.4056,14.5944,14.5944,0.150217,0.526059,0.200995,0.0448022,-0.0121006,-0.000967282,0,0,3.5175,-0.035,-0.7875,0.013908,-0.002562,-1.01358,-0.07504,0.10472,0.44954
-0.451044,0,0,15.451,15.451,14.549,14.549,0.167053,0.581432,0.225864,0.042135,-0.0142493,0.00160448,0,0,3.5525,0.07,-0.84,0.0122,-0.005002,-1.01101,-0.07504,0.10472,0.44954
-0.494996,0,0,15.495,15.495,14.505,14.505,0.183332,0.63546,0.25059,0.0411921,-0.0139653,0.0015936,0,0,3.43,0.0175,-0.8925,0.0122,-0.005002,-1.01101,-0.07504,0.10472,0.44954
-0.53001,0,0,15.53,15.53,14.47,14.47,0.1963,0.690624,0.273273,0.0421731,-0.0112965,-0.000754312,0,0,3.3425,0.175,-0.84,0.014152,-0.002562,-1.01333,-0.07504,0.10472,0.44954
-0.563824,0,0,15.5638,15.5638,14.4362,14.4362,0.208824,0.740937,0.299153,0.0383794,-0.0110779,-0.000520158,0,0,3.2375,0.1925,-0.8575,0.011224,-0.002562,-1.01309,-0.07504,0.10472,0.44954
-0.597548,0,0,15.5975,15.5975,14.4025,14.4025,0.221314,0.790025,0.324944,0.0375227,-0.01086,-0.000532422,0,0,3.36,0.14,-0.875,0.011224,-0.002562,-1.01309,-0.07504,0.10472,0.44954
-0.633629,0,0,15.6336,15.6336,14.3664,14.3664,0.234677,0.837242,0.343125,0.0364558,-0.0116039,-0.000913897,0,0,3.3775,0,-0.9275,0.01098,-0.003538,-1.01345,-0.07238,0.10878,0.44898
-0.666943,0,0,15.6669,15.6669,14.3331,14.3331,0.247016,0.881346,0.363007,0.0338638,-0.0110222,0.00300801,0,0,3.15,0,-0.98,0.00915,-0.003172,-1.00955,-0.07238,0.10878,0.44898
-0.697207,0,0,15.6972,15.6972,14.3028,14.3028,0.258225,0.922378,0.384466,0.0320544,-0.00984963,-0.0037663,0,0,3.3425,-0.14,-0.9625,0.008052,-0.002196,-1.01626,-0.07238,0.10878,0.44898
-0.727302,0,0,15.7273,15.7273,14.2727,14.2727,0.269371,0.964399,0.404084,0.0326574,-0.00953305,0.00138457,0,0,3.465,-0.175,-0.9625,0.009394,-0.002074,-1.01114,-0.07238,0.10878,0.44898
-0.758055,0,0,15.7581,15.7581,14.2419,14.2419,0.280761,1.00554,0.423598,0.0319395,-0.00933435,0.00137127,0,0,3.7275,-0.14,-0.9975,0.009394,-0.002074,-1.01114,-0.07238,0.10878,0.44898
-0.785464,0,0,15.7855,15.7855,14.2145,14.2145,0.290913,1.04435,0.444345,0.0302904,-0.0084245,5.8397e-06,0,0,3.64,-0.175,-0.9275,0.008418,-0.001342,-1.01248,-0.07238,0.10878,0.44898
-0.815612,0,0,15.8156,15.8156,14.1844,14.1844,0.302079,1.087,0.460968,0.0328262,-0.00932887,0.00417124,0,0,3.5875,0,-1.015,0.011712,-0.00244,-1.00833,-0.07238,0.10878,0.44898
-0.846078,0,0,15.8461,15.8461,14.1539,14.1539,0.313362,1.12868,0.473246,0.0320989,-0.00913205,0.00415611,0,0,3.78,-0.14,-1.0325,0.011712,-0.00244,-1.00833,-0.07714,0.11158,0.45178
-0.870773,0,0,15.8708,15.8708,14.1292,14.1292,0.322508,1.16888,0.486099,0.0312758,-0.00799551,-0.0031128,0,0,3.395,-0.0525,-0.9975,0.01159,-0.001464,-1.01553,-0.07714,0.11158,0.45178
-0.897306,0,0,15.8973,15.8973,14.1027,14.1027,0.332336,1.20448,0.502432,0.027739,-0.00855687,-0.00472498,0,0,3.43,-0.0525,-0.91,0.008662,-0.002196,-1.01711,-0.07714,0.11158,0.45178
-0.932197,0,0,15.9322,15.9322,14.0678,14.0678,0.345258,1.24634,0.512556,0.0322324,-0.0111404,0.00337266,0,0,3.4125,-0.1225,-0.84,0.013908,-0.005002,-1.00906,-0.07714,0.11158,0.45178
-0.966389,0,0,15.9664,15.9664,14.0336,14.0336,0.357922,1.28723,0.522658,0.0315189,-0.0109195,0.00335553,0,0,3.4125,-0.14,-0.84,0.013908,-0.005002,-1.00906,-0.07714,0.11158,0.45178
-0.98801,0,0,15.988,15.988,14.012,14.012,0.365929,1.32999,0.536969,0.0271283,-0.00711611,-0.000227902,0,0,3.3075,4.41,-0.875,0.010248,-0.001342,-1.0126,-0.07714,0.11158,0.45178
-1.01719,0,0,16.0172,16.0172,13.9828,13.9828,0.376737,1.36329,0.552243,0.0254539,-0.00961442,0.00270798,0,0,3.2375,0.0525,-0.91,0.00915,-0.004026,-1.00967,-0.07714,0.11158,0.45178
-1.04596,0,0,16.046,16.046,13.954,13.954,0.387391,1.39589,0.567708,0.0248851,-0.00942862,0.00269304,0,0,3.2725,0.0875,-0.8575,0.00915,-0.004026,-1.00967,-0.07714,0.11144,0.45332
-1.06296,0,0,16.063,16.063,13.937,13.937,0.393689,1.4336,0.577603,0.0296941,-0.00577716,-0.00888111,0,0,3.29,0.0525,-0.875,0.01464,-0.000488,-1.02114,-0.07714,0.11144,0.45332
-1.39379,0,0,16.3938,16.3938,13.6062,13.6062,0.516218,1.43355,0.625904,-0.00407817,-0.106592,0.00388858,0,0,3.4125,0.1575,-1.0325,-0.019276,-0.103334,-1.00845,-0.07714,0.11144,0.45332
-1.71872,0,0,16.7187,16.7187,13.2813,13.2813,0.636565,1.43322,0.674244,-0.00407235,-0.104493,0.0038676,0,0,3.5525,0.0525,-0.8575,-0.019276,-0.103334,-1.00845,-0.07714,0.11144,0.45332
-1.51446,0,0,16.5145,16.5145,13.4855,13.4855,0.56091,1.41995,0.724816,-0.0078498,0.0663863,-0.0191042,0,0,3.1675,0.07,-0.84,-0.023302,0.068686,-1.03127,-0.07714,0.11144,0.45332
-1.57703,0,0,16.577,16.577,13.423,13.423,0.584083,1.64174,0.570218,0.207319,-0.0250498,-0.15593,0,0,3.605,0.35,-0.8225,0.196664,-0.023058,-1.16693,-0.07714,0.11144,0.45332
-1.57679,0,0,16.5768,16.5768,13.4232,13.4232,0.583998,1.64135,0.569937,0.207326,-0.0250513,-0.15593,1,0,3.395,-0.2275,-1.0675,0.196664,-0.023058,-1.16693,-0.07714,0.11144,0.45332
-1.85391,0,0,16.8539,16.8539,13.1461,13.1461,0.686633,1.4185,0.801724,-0.184951,-0.0949479,-0.0389222,0,0,3.71,-0.595,-1.225,-0.201178,-0.094672,-1.05091,-0.07546,0.11564,0.46466
-1.98177,0,0,16.9818,16.9818,13.0182,13.0182,0.733988,1.38536,0.865855,-0.0271699,-0.0417292,-0.0115007,0,0,3.57,0,-1.5225,-0.04331,-0.042334,-1.0237,-0.07546,0.11564,0.46466
-2.10858,0,0,17.1086,17.1086,12.8914,12.8914,0.780957,1.35181,0.929624,-0.0265846,-0.0409096,-0.0114976,0,0,3.885,-0.6475,-1.575,-0.04331,-0.042334,-1.0237,-0.07546,0.11564,0.46466
-2.10076,0,0,17.1008,17.1008,12.8992,12.8992,0.778059,1.51259,0.817747,0.118701,0.0041037,0.0604808,0,0,3.99,-0.5075,-1.9075,0.105408,0.002684,-0.95221,-0.07546,0.11564,0.46466
-2.08862,0,0,17.0886,17.0886,12.9114,12.9114,0.773564,1.67149,0.706414,0.115929,0.00402425,0.0604048,0,0,3.08,0.455,-1.75,0.105408,0.002684,-0.95221,-0.07546,0.11564,0.46466
-2.69337,0,0,17.6934,17.6934,12.3066,12.3066,0.997546,1.66484,0.749608,-0.0122439,-0.182831,0.0779294,0,0,3.43,0.4725,-1.4875,-0.023424,-0.18788,-0.934764,-0.07546,0.11564,0.46466
-3.27906,0,0,18.2791,18.2791,11.7209,11.7209,1.21447,1.65843,0.791363,-0.0121322,-0.179047,0.0778596,0,0,1.9425,0.6125,-2.1175,-0.023424,-0.18788,-0.934764,-0.07546,0.11564,0.46466
-3.6407,0,0,18.6407,18.6407,11.3593,11.3593,1.34841,1.64464,0.83709,-0.0143212,-0.12444,-0.0308722,0,0,2.205,0.735,-1.89,-0.025864,-0.135664,-1.04261,-0.07546,0.11564,0.46466
-4.00041,0,0,19.0004,19.0004,10.9996,10.9996,1.48163,1.63023,0.874784,-0.0140698,-0.122117,-0.0309224,0,0,3.29,0.84,-1.33,-0.025864,-0.135664,-1.04261,-0.0742,0.1204,0.4718
-4.23921,0,0,19.2392,19.2392,10.7608,10.7608,1.57008,1.67627,0.857296,0.0380947,-0.0854022,-0.0693466,0,0,3.2025,0.6825,-1.47,0.027328,-0.100528,-1.08068,-0.0742,0.1204,0.4718
-4.48029,0,0,19.4803,19.4803,10.5197,10.5197,1.65937,1.71896,0.841209,0.0373499,-0.0838457,-0.0694125,0,0,4.6375,-0.63,-0.6825,0.027328,-0.100528,-1.08068,-0.0742,0.1204,0.4718
-4.02648,0,0,19.0265,19.0265,10.9735,10.9735,1.49129,1.92821,0.669341,0.178511,0.157474,-0.0409241,0,0,4.2175,-0.385,-0.245,0.172752,0.143472,-1.05237,-0.0742,0.1204,0.4718
-3.58114,0,0,18.5811,18.5811,11.4189,11.4189,1.32635,2.13304,0.496842,0.174938,0.154594,-0.04098,0,0,4.2175,-0.385,-0.245,0.172752,0.143472,-1.05237,-0.0742,0.1204,0.4718
-3.21425,0,0,18.2143,18.2143,11.7857,11.7857,1.19046,2.37965,0.283165,0.157638,0.104714,0.182915,0,0,3.955,-1.19,0.14,0.159698,0.096014,-0.830088,-0.0742,0.1204,0.4718
-3.21693,0,0,18.2169,18.2169,11.7831,11.7831,1.19146,2.37758,0.284916,0.157674,0.104732,0.182916,1,0,3.955,-1.19,0.14,0.159698,0.096014,-0.830088,-0.0742,0.1204,0.4718
-3.21269,0,0,18.2127,18.2127,11.7873,11.7873,1.18989,2.37807,0.288042,-0.259759,0.165157,0.157343,1,0,2.485,0.3325,0.91,-0.259494,0.156404,-0.855464,-0.0742,0.1204,0.4718
-3.20845,0,0,18.2084,18.2084,11.7916,11.7916,1.18831,2.37857,0.291168,-0.259768,0.165129,0.157343,1,0,2.485,0.3325,0.91,-0.259494,0.156404,-0.855464,-0.0728,0.1253,0.4788
-3.20545,0,0,18.2054,18.2054,11.7946,11.7946,1.1872,2.38059,0.295587,0.0423319,-0.0626563,0.153777,1,0,2.7125,1.2425,1.645,0.04392,-0.071126,-0.859002,-0.0728,0.1253,0.4788
-3.20245,0,0,18.2024,18.2024,11.7976,11.7976,1.18609,2.38261,0.300006,0.0422966,-0.0626757,0.153775,1,0,2.7125,1.2425,1.645,0.04392,-0.071126,-0.859002,-0.0728,0.1253,0.4788
-3.36549,0,0,18.3655,18.3655,11.6345,11.6345,1.24648,2.30564,0.372647,-0.0609603,-0.0546605,-0.0602453,0,0,5.075,-0.5075,1.7325,-0.061122,-0.064172,-1.0714,-0.0728,0.1253,0.4788
-3.52529,0,0,18.5253,18.5253,11.4747,11.4747,1.30566,2.23035,0.44492,-0.0596472,-0.0536274,-0.0602163,0,0,5.075,-0.5075,1.7325,-0.061122,-0.064172,-1.0714,-0.0728,0.1253,0.4788
-3.80582,0,0,18.8058,18.8058,11.1942,11.1942,1.40956,2.31024,0.379868,0.0671268,-0.0895544,-0.018266,0,0,6.2125,-1.26,1.365,0.067588,-0.10187,-1.02968,-0.0728,0.1253,0.4788
-3.48486,0,0,18.4849,18.4849,11.5151,11.5151,1.29069,2.54925,0.163301,0.187482,0.107436,0.0326296,0,0,5.18,-1.12,0.77,0.192638,0.09699,-0.97905,-0.0728,0.1253,0.4788
-3.16707,0,0,18.1671,18.1671,11.8329,11.8329,1.17299,2.78408,-0.0544279,0.183388,0.10538,0.0324831,0,0,4.6375,-0.595,0.2975,0.192638,0.09699,-0.97905,-0.0728,0.1253,0.4788
-3.17066,0,0,18.1707,18.1707,11.8293,11.8293,1.17432,2.78354,-0.0530942,0.00432732,0.0025725,0.138711,1,0,4.1475,-0.2975,-0.1225,0.01281,-0.005734,-0.873642,-0.0728,0.1253,0.4788
-3.16376,0,0,18.1638,18.1638,11.8362,11.8362,1.17176,2.78491,-0.0533128,0.00430343,0.00252796,0.13871,1,0,2.0125,0.805,-1.05,0.01281,-0.005734,-0.873642,-0.07322,0.13188,0.49434
-3.15412,0,0,18.1541,18.1541,11.8459,11.8459,1.16819,2.78674,-0.0539126,-0.0564713,-0.147872,0.182972,1,0,1.4525,1.0675,-1.2775,-0.04819,-0.155916,-0.829722,-0.07322,0.13188,0.49434
-3.14516,0,0,18.1452,18.1452,11.8548,11.8548,1.16487,2.7888,-0.055709,-0.0565072,-0.14793,0.182971,1,0,1.6275,1.19,-1.9775,-0.04819,-0.155916,-0.829722,-0.07322,0.13188,0.49434
-3.23221,0,0,18.2322,18.2322,11.7678,11.7678,1.19711,2.6247,0.0720987,-0.13735,-0.0348867,-0.0673515,0,0,1.785,1.26,-2.2575,-0.132248,-0.043554,-1.07824,-0.07322,0.13188,0.49434
-3.33375,0,0,18.3338,18.3338,11.6662,11.6662,1.23472,2.46263,0.197542,-0.134524,-0.0342285,-0.0672399,0,0,5.215,0.3325,-3.3075,-0.132248,-0.043554,-1.07824,-0.07322,0.13188,0.49434
-3.34927,0,0,18.3493,18.3493,11.6507,11.6507,1.24047,2.46261,0.192881,0.0201276,-0.126212,-0.240599,1,0,6.7725,-0.07,-3.6225,0.023058,-0.135542,-1.25026,-0.07322,0.13188,0.49434
-3.37135,0,0,18.3714,18.3714,11.6286,11.6286,1.24865,2.46089,0.187493,0.0201575,-0.126069,-0.240601,1,0,8.155,-1.0675,-4.025,0.023058,-0.135542,-1.25026,-0.07322,0.13188,0.49434
-3.39189,0,0,18.3919,18.3919,11.6081,11.6081,1.25626,2.45898,0.1818,0.153461,-0.0359292,-0.103884,1,0,7.84,-1.19,-4.2,0.156892,-0.045628,-1.11459,-0.07322,0.13188,0.49434
-3.40005,0,0,18.4001,18.4001,11.5999,11.5999,1.25928,2.45845,0.175507,0.15347,-0.0358765,-0.103885,1,0,5.285,-0.385,-4.5675,0.156892,-0.045628,-1.11459,-0.0714,0.1351,0.48846
-3.39798,0,0,18.398,18.398,11.602,11.602,1.25851,2.45893,0.169626,0.0337981,-0.0207461,0.132791,1,0,3.15,0.21,-4.34,0.036722,-0.0305,-0.879742,-0.0714,0.1351,0.48846
-3.38088,0,0,18.3809,18.3809,11.6191,11.6191,1.25218,2.46065,0.164193,0.033768,-0.0208566,0.132792,1,0,0.0175,0.945,-4.095,0.036722,-0.0305,-0.879742,-0.0714,0.1351,0.48846
-3.3581,0,0,18.3581,18.3581,11.6419,11.6419,1.24374,2.46326,0.159319,-0.0432994,0.162797,0.190333,1,0,-1.1725,1.47,-3.78,-0.040626,0.15311,-0.822646,-0.0714,0.1351,0.48846
-3.33936,0,0,18.3394,18.3394,11.6606,11.6606,1.2368,2.465,0.155748,-0.0433297,0.162676,0.190335,1,0,-0.3675,0.98,-3.01,-0.040626,0.15311,-0.822646,-0.0714,0.1351,0.48846
-3.32835,0,0,18.3284,18.3284,11.6716,11.6716,1.23272,2.46572,0.152754,-0.132634,-0.0494071,0.150869,1,0,1.225,0.385,-2.66,-0.130296,-0.058682,-0.861808,-0.0714,0.1351,0.48846
-3.34053,0,0,18.3405,18.3405,11.6595,11.6595,1.23723,2.46452,0.151281,-0.132613,-0.0493285,0.150868,1,0,6.0025,-0.7175,-1.75,-0.130296,-0.058682,-0.861808,-0.0714,0.1351,0.48846
-3.67093,0,0,18.6709,18.6709,11.3291,11.3291,1.3596,2.4362,0.157796,-0.0203527,-0.0984879,0.0230976,0,0,8.12,-0.805,-1.3825,-0.018056,-0.109922,-0.988566,-0.0714,0.1351,0.48846
-4.00065,0,0,19.0006,19.0006,10.9994,10.9994,1.48172,2.40864,0.168338,-0.0198721,-0.0963586,0.0230652,0,0,9.31,-0.8225,-1.0325,-0.018056,-0.109922,-0.988566,-0.07966,0.13384,0.49616
-4.36202,0,0,19.362,19.362,10.638,10.638,1.61556,2.48678,0.088181,0.0718234,-0.119552,-0.0652102,0,0,9.31,-0.8225,-0.175,0.075396,-0.13542,-1.07604,-0.07966,0.13384,0.49616
-4.69465,0,0,19.6947,19.6947,10.3053,10.3053,1.73876,2.56424,0.00852743,0.0704728,-0.117406,-0.0653326,0,0,4.795,-0.2275,-0.175,0.075396,-0.13542,-1.07604,-0.07966,0.13384,0.49616
-4.68831,0,0,19.6883,19.6883,10.3117,10.3117,1.73641,2.56469,0.0100364,-0.121725,-0.00741105,0.18327,1,0,2.0825,0.2975,-0.035,-0.117608,-0.025498,-0.829356,-0.07966,0.13384,0.49616
-4.68196,0,0,19.682,19.682,10.318,10.318,1.73406,2.56515,0.0115453,-0.121733,-0.00745204,0.183271,1,0,2.0825,0.2975,-0.035,-0.117608,-0.025498,-0.829356,-0.07966,0.13384,0.49616
-4.39117,0,0,19.3912,19.3912,10.6088,10.6088,1.62636,3.10557,-0.477833,0.38516,0.0848174,0.175114,0,0,-1.68,0.945,0.8925,0.400892,0.068564,-0.837042,-0.07966,0.13384,0.49616
-4.10399,0,0,19.104,19.104,10.896,10.896,1.52,3.63526,-0.967787,0.375931,0.0829501,0.174622,0,0,-1.68,0.945,0.8925,0.400892,0.068564,-0.837042,-0.07966,0.13384,0.49616
-4.10367,0,0,19.1037,19.1037,10.8963,10.8963,1.51988,3.63571,-0.964535,0.190901,-0.106471,-0.105087,1,0,3.255,0.315,0.98,0.215086,-0.120658,-1.11459,-0.07966,0.13384,0.49616
-4.10334,0,0,19.1033,19.1033,10.8967,10.8967,1.51976,3.63615,-0.961283,0.190893,-0.106473,-0.105087,1,0,3.255,0.315,0.98,0.215086,-0.120658,-1.11459,-0.0714,0.14378,0.5005
-4.12457,0,0,19.1246,19.1246,10.8754,10.8754,1.52762,3.63564,-0.959109,-0.165537,-0.0770254,-0.0994346,1,0,7.77,-0.2625,0.3675,-0.142862,-0.091378,-1.10898,-0.0714,0.14378,0.5005
-4.1458,0,0,19.1458,19.1458,10.8542,10.8542,1.53548,3.63512,-0.956935,-0.165528,-0.0768885,-0.0994377,1,0,7.77,-0.2625,0.3675,-0.142862,-0.091378,-1.10898,-0.0714,0.14378,0.5005
-4.54699,0,0,19.547,19.547,10.453,10.453,1.68407,3.2221,-0.627748,-0.329505,-0.124605,0.0565733,0,0,6.5275,4.2,-0.3325,-0.31476,-0.141642,-0.954528,-0.0714,0.14378,0.5005
-4.93985,0,0,19.9399,19.9399,10.0601,10.0601,1.82958,2.81762,-0.301329,-0.322456,-0.122059,0.0568673,0,0,6.5275,4.2,-0.3325,-0.31476,-0.141642,-0.954528,-0.0714,0.14378,0.5005
-4.93466,0,0,19.9347,19.9347,10.0653,10.0653,1.82765,2.81957,-0.300131,0.0955424,-0.00912501,0.172807,1,0,2.3275,1.1725,-0.245,0.105042,-0.028792,-0.839482,-0.0714,0.14378,0.5005
-4.92947,0,0,19.9295,19.9295,10.0705,10.0705,1.82573,2.82153,-0.298934,0.0955083,-0.00915857,0.172806,1,0,2.3275,1.1725,-0.245,0.105042,-0.028792,-0.839482,-0.0714,0.14378,0.5005
-4.92438,0,0,19.9244,19.9244,10.0756,10.0756,1.82384,2.82387,-0.299496,-0.16925,0.022073,0.248173,1,0,2.3975,1.365,-1.2775,-0.160796,0.00244,-0.764696,-0.0714,0.14378,0.5005
-4.98461,0,0,19.9846,19.9846,10.0154,10.0154,1.84615,2.92147,-0.426314,0.0852622,-0.021751,-0.054747,0,0,4.2,0.98,-1.4875,0.096502,-0.041724,-1.06518,-0.06412,0.14364,0.50372
-5.28545,0,0,20.2855,20.2855,9.71455,9.71455,1.95758,2.83658,-0.390511,-0.0635358,-0.0879541,0.0582526,0,0,6.0725,-0.385,-0.9625,-0.054412,-0.1098,-0.953064,-0.06412,0.14364,0.50372
-5.57895,0,0,20.579,20.579,9.42105,9.42105,2.06628,2.75293,-0.356648,-0.0620776,-0.0860577,0.0582572,0,0,5.81,-0.805,-1.8375,-0.054412,-0.1098,-0.953064,-0.06412,0.14364,0.50372
-5.58753,0,0,20.5875,20.5875,9.41247,9.41247,2.06945,2.75215,-0.358456,-0.0680168,-0.220708,-0.168215,1,0,5.2675,-0.49,-1.9425,-0.06039,-0.244366,-1.17779,-0.06412,0.14364,0.50372
-5.59123,0,0,20.5912,20.5912,9.40877,9.40877,2.07083,2.75167,-0.359501,-0.0680085,-0.220684,-0.168216,1,0,4.235,-0.2975,-1.505,-0.06039,-0.244366,-1.17779,-0.06412,0.14364,0.50372
-5.63199,0,0,20.632,20.632,9.36801,9.36801,2.08592,2.41775,-0.100663,-0.268348,-0.0141396,0.02396,0,0,2.8525,-0.0525,-1.9075,-0.267424,-0.038308,-0.987346,-0.06412,0.14364,0.50372
-5.66416,0,0,20.6642,20.6642,9.33584,9.33584,2.09784,2.09216,0.15686,-0.26267,-0.0139239,0.0241759,0,0,1.3125,0.7175,-2.24,-0.267424,-0.038308,-0.987346,-0.06412,0.14364,0.50372
-5.93448,0,0,20.9345,20.9345,9.06552,9.06552,2.19796,2.03703,0.179507,-0.0435195,-0.0941245,-0.00413311,0,0,1.3475,0.875,-1.9425,-0.048312,-0.12017,-1.01541,-0.06412,0.14364,0.50372
-6.21385,0,0,21.2139,21.2139,8.78615,8.78615,2.30143,1.98007,0.184173,-0.042526,-0.0923198,-0.00416914,0,0,4.3225,0.3325,-1.9775,-0.048312,-0.12017,-1.01541,-0.07126,0.15554,0.5033
-5.78039,0,0,20.7804,20.7804,9.21961,9.21961,2.14089,2.08716,0.0465262,0.0880255,0.15414,-0.0663388,0,0,4.55,0.0875,-1.785,0.084668,0.128832,-1.07714,-0.07126,0.15554,0.5033
-5.36361,0,0,20.3636,20.3636,9.63639,9.63639,1.98652,2.19159,-0.0910807,0.0862041,0.151447,-0.0663099,0,0,6.3175,-0.07,-1.61,0.084668,0.128832,-1.07714,-0.07126,0.15554,0.5033
-4.84439,0,0,19.8444,19.8444,10.1556,10.1556,1.79422,1.85208,0.163625,-0.287031,0.184007,0.00507394,0,0,7,-0.735,-1.295,-0.296094,0.1647,-1.00662,-0.07126,0.15554,0.5033
-4.33225,0,0,19.3322,19.3322,10.6678,10.6678,1.60454,1.51806,0.42048,-0.281204,0.180704,0.00534343,0,0,6.51,-1.4175,-0.9625,-0.296094,0.1647,-1.00662,-0.07126,0.15554,0.5033
-4.34136,0,0,19.3414,19.3414,10.6586,10.6586,1.60791,1.73653,0.190536,0.170435,0.00184457,0.0469131,0,0,5.775,-1.19,-0.7175,0.161284,-0.01403,-0.965264,-0.07126,0.15554,0.5033
-4.33945,0,0,19.3395,19.3395,10.6605,10.6605,1.60721,1.9517,-0.0387963,0.166681,0.00182888,0.0467926,0,0,3.57,-0.4025,-0.7,0.161284,-0.01403,-0.965264,-0.07126,0.15554,0.5033
-4.95711,0,0,19.9571,19.9571,10.0429,10.0429,1.83597,1.82249,0.0352063,-0.0940814,-0.197765,0.0702301,0,0,1.2425,-0.0875,-0.7525,-0.102846,-0.217404,-0.941962,-0.07126,0.15554,0.5033
-5.55785,0,0,20.5578,20.5578,9.44215,9.44215,2.05846,1.70207,0.126762,-0.0919807,-0.193884,0.0701628,0,0,0.1925,0.98,-0.5775,-0.102846,-0.217404,-0.941962,-0.0707,0.14364,0.49994
-5.53131,0,0,20.5313,20.5313,9.46869,9.46869,2.04863,1.2636,0.498743,-0.372616,1.10212e-05,-0.00364811,0,0,-1.05,0.6825,-0.3325,-0.392352,-0.023546,-1.01541,-0.0707,0.14364,0.49994
-5.52129,0,0,20.5213,20.5213,9.47871,9.47871,2.04492,0.833347,0.870365,-0.365108,-4.87816e-05,-0.00350847,0,0,2.4325,0.2625,0.0175,-0.392352,-0.023546,-1.01541,-0.0707,0.14364,0.49994
-5.51923,0,0,20.5192,20.5192,9.48077,9.48077,2.04416,0.833293,0.872487,-0.152021,0.0938533,-0.234282,1,0,2.9925,0.0175,0.3325,-0.178364,0.070272,-1.2444,-0.0707,0.14364,0.49994
-5.53786,0,0,20.5379,20.5379,9.46214,9.46214,2.05106,0.832226,0.873673,-0.152002,0.0939737,-0.234286,1,0,7.2975,-0.595,-0.1925,-0.178364,0.070272,-1.2444,-0.0707,0.14364,0.49994
-5.5564,0,0,20.5564,20.5564,9.4436,9.4436,2.05793,0.831196,0.87468,-0.177861,-0.124391,-0.368427,1,0,7.28,-0.5775,-0.2975,-0.20435,-0.147986,-1.3775,-0.0707,0.14364,0.49994
-5.5724,0,0,20.5724,20.5724,9.4276,9.4276,2.06385,0.830356,0.875364,-0.177846,-0.124288,-0.368431,1,0,6.755,-0.4725,-0.49,-0.20435,-0.147986,-1.3775,-0.0707,0.14364,0.49994
-5.58119,0,0,20.5812,20.5812,9.41881,9.41881,2.06711,0.830268,0.875084,0.384998,-0.535798,-0.0576189,1,0,5.2675,-0.0525,-1.0675,0.360876,-0.559126,-1.06909,-0.0707,0.14364,0.49994
-5.58999,0,0,20.59,20.59,9.41001,9.41001,2.07037,0.830181,0.874804,0.385,-0.535741,-0.057621,1,0,5.2675,-0.0525,-1.0675,0.360876,-0.559126,-1.06909,-0.0567,0.15022,0.4956
-6.15698,0,0,21.157,21.157,8.84302,8.84302,2.28036,0.691699,0.981021,-0.111647,-0.194886,0.0311638,0,0,-0.5775,0.9625,-0.945,-0.1403,-0.222284,-0.98088,-0.0567,0.15022,0.4956
-6.71329,0,0,21.7133,21.7133,8.28671,8.28671,2.4864,0.556195,1.08601,-0.109282,-0.191292,0.03104,0,0,-0.5775,0.9625,-0.945,-0.1403,-0.222284,-0.98088,-0.0567,0.15022,0.4956
-6.69655,0,0,21.6965,21.6965,8.30345,8.30345,2.4802,0.557819,1.08563,0.110701,0.168141,-0.171698,1,0,-0.035,0.945,-1.1725,0.080642,0.136884,-1.18206,-0.0567,0.15022,0.4956
-6.67981,0,0,21.6798,21.6798,8.32019,8.32019,2.474,0.559442,1.08524,0.110672,0.168033,-0.171693,1,0,-0.035,0.945,-1.1725,0.080642,0.136884,-1.18206,-0.0567,0.15022,0.4956
-7.15123,0,0,22.1512,22.1512,7.84877,7.84877,2.6486,0.582525,1.04871,0.0223138,-0.16868,-0.0577373,0,0,5.5825,-0.105,-1.225,-0.007686,-0.20252,-1.06884,-0.0567,0.15022,0.4956
-7.61372,0,0,22.6137,22.6137,7.38628,7.38628,2.8199,0.605148,1.01241,0.0219189,-0.165694,-0.057884,0,0,5.5825,-0.105,-1.225,-0.007686,-0.20252,-1.06884,-0.0567,0.15022,0.4956
-8.35964,0,0,23.3596,23.3596,6.64036,6.64036,3.09616,0.786233,0.832916,0.15871,-0.262124,-0.00456554,0,0,5.74,-0.7,-1.6625,0.132858,-0.303658,-1.01565,-0.0567,0.15022,0.4956
-8.35535,0,0,23.3554,23.3554,6.64465,6.64465,3.09457,0.785588,0.831973,0.0564305,-0.0616198,-0.21788,1,0,2.555,-0.4025,-1.435,0.030134,-0.103334,-1.22732,-0.0567,0.15022,0.4956
-8.3464,0,0,23.3464,23.3464,6.6536,6.6536,3.09126,0.784981,0.830312,0.056441,-0.0616776,-0.217876,1,0,1.5925,-0.4025,-1.855,0.030134,-0.103334,-1.22732,-0.05656,0.15246,0.49308
-8.33292,0,0,23.3329,23.3329,6.66708,6.66708,3.08627,0.784941,0.829252,0.241221,0.446771,-0.147299,1,0,0.6475,-0.0525,-1.5225,0.215696,0.404674,-1.15729,-0.05656,0.15246,0.49308
-8.31986,0,0,23.3199,23.3199,6.68014,6.68014,3.08143,0.785106,0.828263,0.241219,0.446687,-0.147295,1,0,0.735,0.07,-1.4875,0.215696,0.404674,-1.15729,-0.05656,0.15246,0.49308
-8.31948,0,0,23.3195,23.3195,6.68052,6.68052,3.08129,0.78588,0.828178,0.238289,-0.0514705,-0.167704,1,0,3.36,0.455,-0.98,0.212768,-0.092964,-1.17754,-0.05656,0.15246,0.49308
-8.34557,0,0,23.3456,23.3456,6.65443,6.65443,3.09095,0.785412,0.828387,0.238298,-0.0513021,-0.167713,1,0,8.855,-0.2625,-0.77,0.212768,-0.092964,-1.17754,-0.05656,0.15246,0.49308
-9.45371,0,0,24.4537,24.4537,5.54629,5.54629,3.50138,0.398361,1.14334,-0.296652,-0.348609,0.165996,0,0,6.3175,-0.665,-0.91,-0.33123,-0.39711,-0.84607,-0.05656,0.15246,0.49308
-10.5377,0,0,25.5377,25.5377,5,5,3.90286,0.0190486,1.45245,-0.290032,-0.341615,0.165567,0,0,5.32,-0.6825,-0.805,-0.33123,-0.39711,-0.84607,-0.05656,0.15246,0.49308
-10.8366,0,0,25.8366,25.8366,5,5,4.01357,-0.150903,1.58882,-0.135452,-0.100686,0.00313861,0,0,4.62,-1.05,-0.5425,-0.178974,-0.158356,-1.00711,-0.05656,0.15246,0.49308
-11.1237,0,0,26.1237,26.1237,5,5,4.11987,-0.318212,1.72618,-0.132532,-0.0988358,0.00299512,0,0,3.36,-1.225,-0.5775,-0.178974,-0.158356,-1.00711,-0.06216,0.15176,0.49938
-11.1162,0,0,26.1162,26.1162,5,5,4.11711,-0.318766,1.72628,-0.0116436,-0.0365993,0.153242,1,0,1.89,-0.315,-0.8225,-0.057584,-0.096136,-0.858026,-0.06216,0.15176,0.49938
-11.1116,0,0,26.1116,26.1116,5,5,4.11541,-0.318387,1.72672,-0.0116502,-0.0366289,0.153244,1,0,2.485,0.245,-0.665,-0.057584,-0.096136,-0.858026,-0.06216,0.15176,0.49938
-11.1088,0,0,26.1088,26.1088,5,5,4.11436,-0.318161,1.72764,-0.281352,-0.10858,0.368651,1,0,2.8525,0.175,-0.385,-0.328424,-0.167994,-0.644282,-0.06216,0.15176,0.49938
-11.1107,0,0,26.1107,26.1107,5,5,4.11509,-0.316914,1.7285,-0.281374,-0.108567,0.36865,1,0,3.85,0.77,-0.455,-0.328424,-0.167994,-0.644282,-0.06216,0.15176,0.49938
-11.1146,0,0,26.1146,26.1146,5,5,4.11653,-0.316626,1.72897,-0.64207,-0.156416,0.1273,1,0,4.2525,0.1925,-0.6475,-0.690642,-0.215818,-0.883768,-0.06216,0.15176,0.49938
-11.1256,0,0,26.1256,26.1256,5,5,4.12061,-0.316195,1.72911,-0.642078,-0.156345,0.127295,1,0,5.7225,0.2625,-0.84,-0.690642,-0.215818,-0.883768,-0.06216,0.15176,0.49938
-11.1377,0,0,26.1377,26.1377,5,5,4.12509,-0.31716,1.72909,0.349019,0.526055,-0.274998,1,0,5.95,-0.56,-0.875,0.304634,0.465796,-1.28295,-0.06216,0.15176,0.49938
-11.1539,0,0,26.1539,26.1539,5,5,4.13107,-0.317309,1.72772,0.349022,0.52616,-0.275005,1,0,6.79,-0.14,-1.6975,0.304634,0.465796,-1.28295,-0.06818,0.1498,0.50106
-11.1669,0,0,26.1669,26.1669,5,5,4.1359,-0.317194,1.72643,0.491401,-0.341955,-0.00550837,1,0,6.1425,0.0175,-1.6625,0.447618,-0.401502,-1.01553,-0.06818,0.1498,0.50106
-11.1739,0,0,26.1739,26.1739,5,5,4.13849,-0.317193,1.72465,0.491401,-0.34191,-0.00551162,1,0,4.8825,-0.07,-1.9425,0.447618,-0.401502,-1.01553,-0.06818,0.1498,0.50106
-11.4257,0,0,26.4257,26.4257,5,5,4.23176,-0.485127,1.86848,-0.120264,-0.0698998,0.105249,0,0,3.815,0.3325,-1.9075,-0.16958,-0.131394,-0.905484,-0.06818,0.1498,0.50106
-11.6684,0,0,26.6684,26.6684,5,5,4.32165,-0.649125,2.01154,-0.117402,-0.0683375,0.105103,0,0,2.9225,0.49,-1.785,-0.16958,-0.131394,-0.905484,-0.06818,0.1498,0.50106
-11.9879,0,0,26.9879,26.9879,5,5,4.43998,-0.464589,1.86008,0.146039,-0.112928,-0.00936522,0,0,2.625,0.945,-1.855,0.09821,-0.177998,-1.01894,-0.06818,0.1498,0.50106
-12.3099,0,0,27.3099,27.3099,5,5,4.55923,-0.284614,1.71008,0.142898,-0.110852,-0.00950804,0,0,4.445,0.6825,-1.6975,0.09821,-0.177998,-1.01894,-0.06818,0.1498,0.50106
-12.3118,0,0,27.3118,27.3118,5,5,4.55994,-0.358063,1.77622,-0.0623462,-0.00397929,-0.0631217,0,0,4.62,0.63,-1.33,-0.10919,-0.071248,-1.07214,-0.06818,0.1498,0.50106
-12.3233,0,0,27.3233,27.3233,5,5,4.56419,-0.430989,1.84236,-0.0610734,-0.00390602,-0.0631364,0,0,6.615,-0.14,-1.1025,-0.10919,-0.071248,-1.07214,-0.06566,0.14966,0.50232
-13.1914,0,0,28.1914,28.1914,5,5,4.8857,-0.257716,1.69116,0.144736,-0.314498,-0.0078848,0,0,6.7025,-0.105,-1.0675,0.100528,-0.387106,-1.01687,-0.06566,0.14966,0.50232
-14.0454,0,0,29.0454,29.0454,5,5,5.20201,-0.0876773,1.54216,0.141769,-0.308998,-0.00836126,0,0,7.105,0.2275,-1.19,0.100528,-0.387106,-1.01687,-0.06566,0.14966,0.50232
-14.0609,0,0,29.0609,29.0609,5,5,5.20774,-0.0876442,1.54237,-0.398236,0.149321,-0.0292716,1,0,6.65,0.035,-0.7875,-0.441762,0.070638,-1.03761,-0.06566,0.14966,0.50232
-14.0764,0,0,29.0764,29.0764,5,5,5.21347,-0.0876112,1.54258,-0.398236,0.14942,-0.0292807,1,0,6.65,0.035,-0.7875,-0.441762,0.070638,-1.03761,-0.06566,0.14966,0.50232
-14.0494,0,0,29.0494,29.0494,5,5,5.20349,-0.11787,1.56243,-0.0162432,0.0151517,0.0583965,0,0,4.2875,-4.41,-0.1575,-0.058682,-0.063318,-0.950624,-0.06566,0.14966,0.50232
-14.023,0,0,29.023,29.023,5,5,5.19371,-0.147462,1.58224,-0.0157268,0.0149815,0.0584108,0,0,4.2875,-4.41,-0.1575,-0.058682,-0.063318,-0.950624,-0.06566,0.14966,0.50232
-14.9332,0,0,29.9332,29.9332,5,5,5.53082,0.326333,1.17754,0.385897,-0.313789,0.112314,0,0,3.4475,-1.015,-0.245,0.352946,-0.397598,-0.896578,-0.06566,0.14966,0.50232
-15.8267,0,0,30.8267,30.8267,5,5,5.86173,0.785179,0.766879,0.377889,-0.30805,0.111664,0,0,3.4475,-1.015,-0.245,0.352946,-0.397598,-0.896578,-0.0651,0.15918,0.51814
-15.8447,0,0,30.8447,30.8447,5,5,5.86842,0.783801,0.768811,0.0839174,0.0280367,-0.151581,1,0,7.175,-0.6825,0.2975,0.057706,-0.061976,-1.15778,-0.0651,0.15918,0.51814
-15.8713,0,0,30.8713,30.8713,5,5,5.87827,0.782444,0.770836,0.0863708,0.33267,0.340565,1,0,8.9425,-0.665,0.35,0.060146,0.24217,-0.669414,-0.0651,0.15918,0.51814
-15.8925,0,0,30.8925,30.8925,5,5,5.88612,0.783027,0.771221,0.0863606,0.332806,0.340551,1,0,7.84,0.3675,-0.7175,0.060146,0.24217,-0.669414,-0.0651,0.15918,0.51814
-15.712,0,0,30.712,30.712,5,5,5.81925,0.534364,0.952723,-0.179484,0.0690777,0.0847407,0,0,6.2125,-0.4025,-0.4725,-0.211182,-0.02013,-0.923418,-0.0651,0.15918,0.51814
-15.5272,0,0,30.5272,30.5272,5,5,5.75082,0.291464,1.13432,-0.175245,0.0678925,0.0848914,0,0,4.69,-0.1575,-0.4025,-0.211182,-0.02013,-0.923418,-0.0651,0.15918,0.51814
-15.5283,0,0,30.5283,30.5283,5,5,5.75122,0.291136,1.13452,0.143418,0.39581,0.303862,1,0,3.6575,-0.175,-0.77,0.108824,0.30744,-0.706136,-0.0651,0.15918,0.51814
-15.5293,0,0,30.5293,30.5293,5,5,5.7516,0.291777,1.13403,0.143407,0.395816,0.303861,1,0,3.6575,0.35,-1.225,0.108824,0.30744,-0.706136,-0.0651,0.15918,0.51814
-15.2988,0,0,30.2988,30.2988,5,5,5.66623,0.0584759,1.30664,-0.191102,0.0810799,-0.0251112,0,0,5.18,0.2275,-1.2075,-0.23119,-0.00549,-1.03273,-0.05838,0.16324,0.5138
-15.3239,0,0,30.3239,30.3239,5,5,5.67552,0.0585875,1.30664,0.224256,0.111284,-0.323523,1,0,8.645,0.07,-0.91,0.185928,0.024522,-1.32882,-0.05838,0.16324,0.5138
-15.3571,0,0,30.3571,30.3571,5,5,5.68783,0.0599117,1.30532,0.224233,0.111498,-0.323545,1,0,10.3425,0.7,-1.75,0.185928,0.024522,-1.32882,-0.05838,0.16324,0.5138
-15.3895,0,0,30.3895,30.3895,5,5,5.6998,0.0608764,1.30429,0.236364,-0.116305,-0.436186,1,0,10.15,0.5075,-1.5575,0.198128,-0.203252,-1.44058,-0.05838,0.16324,0.5138
-15.4161,0,0,30.4161,30.4161,5,5,5.70968,0.0611399,1.30338,0.23636,-0.116133,-0.436203,1,0,8.9775,0.105,-1.4525,0.198128,-0.203252,-1.44058,-0.05838,0.16324,0.5138
-15.1517,0,0,30.1517,30.1517,5,5,5.61174,0.14936,1.20958,0.0595163,0.097231,0.0922723,0,0,7.595,1.015,-1.575,0.022082,0.01159,-0.916342,-0.05838,0.16324,0.5138
-14.8922,0,0,29.8922,29.8922,5,5,5.51561,0.235659,1.11573,0.0580101,0.0955606,0.0924299,0,0,7.595,1.015,-1.575,0.022082,0.01159,-0.916342,-0.05838,0.16324,0.5138
-14.9054,0,0,29.9054,29.9054,5,5,5.52053,0.236261,1.11563,-0.11779,-0.0404032,0.284713,1,0,6.195,0.35,-0.9975,-0.154452,-0.124318,-0.725534,-0.05838,0.16324,0.5138
-14.9187,0,0,29.9187,29.9187,5,5,5.52544,0.236863,1.11553,-0.117801,-0.0403178,0.284705,1,0,6.195,0.35,-0.9975,-0.154452,-0.124318,-0.725534,-0.0574,0.1561,0.51436
-14.9381,0,0,29.9381,29.9381,5,5,5.53264,0.23725,1.1164,-0.20309,0.0700877,0.269447,1,0,7.4725,0.28,-0.42,-0.240096,-0.014152,-0.740662,-0.0574,0.1561,0.51436
-14.9576,0,0,29.9576,29.9576,5,5,5.53984,0.237638,1.11728,-0.203097,0.0702127,0.269435,1,0,7.4725,0.28,-0.42,-0.240096,-0.014152,-0.740662,-0.0574,0.1561,0.51436
-14.9859,0,0,29.9859,29.9859,5,5,5.55035,0.236637,1.11823,-0.0195149,0.433478,0.406874,1,0,9.3275,-0.525,-0.2975,-0.055754,0.348554,-0.604266,-0.0574,0.1561,0.51436
-15.0143,0,0,30.0143,30.0143,5,5,5.56086,0.235636,1.11918,-0.0194974,0.433661,0.406856,1,0,9.3275,-0.525,-0.2975,-0.055754,0.348554,-0.604266,-0.0574,0.1561,0.51436
-15.0428,0,0,30.0428,30.0428,5,5,5.57142,0.236068,1.11897,0.168433,0.153563,0.121106,1,0,9.3625,0.245,-1.05,0.13298,0.068564,-0.887794,-0.0574,0.1561,0.51436
-15.0714,0,0,30.0714,30.0714,5,5,5.58199,0.2365,1.11877,0.168426,0.153747,0.121088,1,0,9.3625,0.245,-1.05,0.13298,0.068564,-0.887794,-0.0574,0.1561,0.51436
-15.0947,0,0,30.0947,30.0947,5,5,5.59065,0.236221,1.11786,0.455015,0.12019,-0.139578,1,0,8.295,-0.21,-1.4175,0.420778,0.034892,-1.14643,-0.0574,0.1561,0.51436
-13.5428,0,0,28.5428,28.5428,5,5,5.01584,0.0278647,1.29066,-0.168093,0.533005,0.156434,0,0,6.895,-0.49,-1.1375,-0.20862,0.457256,-0.853634,-0.06342,0.16464,0.52038
-13.5609,0,0,28.5609,28.5609,5,5,5.02257,0.0278205,1.29005,0.0306587,-0.363655,-0.0685718,1,0,7.21,-0.0525,-1.26,-0.009028,-0.43859,-1.07689,-0.06342,0.16464,0.52038
-13.5901,0,0,28.5901,28.5901,5,5,5.03335,0.028522,1.29016,0.0306464,-0.363468,-0.0685883,1,0,9.485,0.42,-0.875,-0.009028,-0.43859,-1.07689,-0.06342,0.16464,0.52038
-13.6233,0,0,28.6233,28.6233,5,5,5.04567,0.0284525,1.29018,0.521328,0.541706,-0.234219,1,0,10.3425,-0.035,-0.8925,0.48373,0.46543,-1.24123,-0.06342,0.16464,0.52038
-13.6546,0,0,28.6546,28.6546,5,5,5.05726,0.0291017,1.28987,0.521317,0.541907,-0.234237,1,0,9.94,0.3675,-1.12,0.48373,0.46543,-1.24123,-0.06342,0.16464,0.52038
-13.6879,0,0,28.6879,28.6879,5,5,5.06961,0.0289527,1.29079,0.0076781,0.239736,-0.173642,1,0,10.36,-0.035,-0.3675,-0.032086,0.163358,-1.18108,-0.06342,0.16464,0.52038
-13.7156,0,0,28.7156,28.7156,5,5,5.07987,0.0294278,1.29142,0.00766981,0.239914,-0.173658,1,0,9.1875,0.315,-0.56,-0.032086,0.163358,-1.18108,-0.06342,0.16464,0.52038
-13.7398,0,0,28.7398,28.7398,5,5,5.08881,0.0295442,1.29272,0.601004,0.103532,0.0338654,1,0,8.4525,0.14,-0.1575,0.563762,0.026962,-0.975146,-0.06342,0.16464,0.52038
-13.762,0,0,28.762,28.762,5,5,5.09703,0.0300779,1.29472,0.600995,0.103675,0.0338526,1,0,8.05,0.42,0.2275,0.563762,0.026962,-0.975146,-0.0623,0.15624,0.51408
-13.7845,0,0,28.7845,28.7845,5,5,5.10539,0.0307382,1.29664,-0.116876,0.0323762,0.30322,1,0,8.12,0.49,0.175,-0.157136,-0.044408,-0.707844,-0.0623,0.15624,0.51408
-13.8071,0,0,28.8071,28.8071,5,5,5.11374,0.0312439,1.29827,-0.116885,0.0325213,0.303207,1,0,8.12,0.385,0.0175,-0.157136,-0.044408,-0.707844,-0.0623,0.15624,0.51408
-13.4962,0,0,28.4962,28.4962,5,5,4.9986,-0.202921,1.49105,-0.167709,0.11271,0.112316,0,0,8.47,0.2625,-0.14,-0.21228,0.037698,-0.897432,-0.0623,0.15624,0.51408
-13.194,0,0,28.194,28.194,5,5,4.88665,-0.431196,1.6831,-0.163725,0.110762,0.112462,0,0,9.1175,0.805,-0.805,-0.21228,0.037698,-0.897432,-0.0623,0.15624,0.51408
-13.37,0,0,28.37,28.37,5,5,4.95187,-0.452012,1.69557,-0.0172146,-0.050655,-0.000750785,0,0,9.5725,0.3675,-0.7175,-0.065514,-0.124684,-1.00967,-0.0623,0.15624,0.51408
-13.5437,0,0,28.5437,28.5437,5,5,5.01619,-0.472634,1.70679,-0.0168547,-0.0495369,-0.000851205,0,0,9.7475,0.1575,-1.4,-0.065514,-0.124684,-1.00967,-0.0623,0.15624,0.51408
-13.573,0,0,28.573,28.573,5,5,5.02705,-0.472656,1.70557,0.126499,0.0898763,-0.233732,1,0,9.52,-0.07,-1.61,0.078446,0.014396,-1.24074,-0.0623,0.15624,0.51408
-13.6031,0,0,28.6031,28.6031,5,5,5.03819,-0.47152,1.70416,0.126479,0.09007,-0.233749,1,0,9.6775,0.595,-1.785,0.078446,0.014396,-1.24074,-0.06748,0.14924,0.5068
-13.6323,0,0,28.6323,28.6323,5,5,5.04898,-0.469635,1.70276,0.0954672,0.00208223,-0.138234,1,0,9.485,1.0325,-1.82,0.047336,-0.073688,-1.14595,-0.06748,0.14924,0.5068
-13.6599,0,0,28.6599,28.6599,5,5,5.05922,-0.468279,1.70124,0.0954435,0.00226018,-0.13825,1,0,9.17,0.7175,-1.855,0.047336,-0.073688,-1.14595,-0.06748,0.14924,0.5068
-13.6802,0,0,28.6802,28.6802,5,5,5.06674,-0.46756,1.69946,0.297826,0.396738,-0.310758,1,0,7.6475,0.3325,-1.9775,0.250588,0.32025,-1.31711,-0.06748,0.14924,0.5068
-13.7011,0,0,28.7011,28.7011,5,5,5.0745,-0.467003,1.69918,0.297816,0.396873,-0.31077,1,0,7.7875,0.315,-1.1025,0.250588,0.32025,-1.31711,-0.06748,0.14924,0.5068
-13.7195,0,0,28.7195,28.7195,5,5,5.08131,-0.466666,1.69968,0.278859,0.560764,-0.179472,1,0,7.2625,0.2275,-0.63,0.231556,0.483852,-1.18682,-0.06748,0.14924,0.5068
-13.7438,0,0,28.7438,28.7438,5,5,5.09028,-0.466661,1.70055,0.278859,0.560919,-0.179485,1,0,8.47,0.0525,-0.4025,0.231556,0.483852,-1.18682,-0.06748,0.14924,0.5068
-13.7701,0,0,28.7701,28.7701,5,5,5.10002,-0.466931,1.70214,0.227596,0.15978,-0.0799123,1,0,8.9075,-0.07,0.035,0.180072,0.08296,-1.088,-0.06748,0.14924,0.5068
-13.7982,0,0,28.7982,28.7982,5,5,5.11044,-0.467382,1.70475,0.227604,0.159961,-0.0799286,1,0,9.2925,-0.1225,0.63,0.180072,0.08296,-1.088,-0.06552,0.14462,0.49406
-13.8266,0,0,28.8266,28.8266,5,5,5.12096,-0.467828,1.70696,0.183877,-0.241775,0.530986,1,0,9.345,-0.14,0.4025,0.136152,-0.318542,-0.481778,-0.06552,0.14462,0.49406
-13.8432,0,0,28.8432,28.8432,5,5,5.12711,-0.466413,1.70883,0.183853,-0.241668,0.530977,1,0,6.895,0.9275,0.105,0.136152,-0.318542,-0.481778,-0.06552,0.14462,0.49406
-15.3525,0,0,30.3525,30.3525,5,5,5.6861,-0.715631,1.91778,-0.18646,-0.451422,0.282517,0,0,6.125,0.1575,0.21,-0.240096,-0.537776,-0.727364,-0.06552,0.14462,0.49406
-16.8385,0,0,31.8385,31.8385,5,5,6.23647,-0.960182,2.12155,-0.182192,-0.441875,0.281458,0,0,6.125,0.1575,0.21,-0.240096,-0.537776,-0.727364,-0.06552,0.14462,0.49406
-16.8537,0,0,31.8537,31.8537,5,5,6.24211,-0.959962,2.12111,0.0579812,-0.252603,-0.240346,1,0,6.5975,0.105,-1.1725,0.001098,-0.348798,-1.24513,-0.06552,0.14462,0.49406
-16.8689,0,0,31.8689,31.8689,5,5,6.24775,-0.959742,2.12068,0.0579774,-0.252505,-0.240357,1,0,6.5975,0.105,-1.1725,0.001098,-0.348798,-1.24513,-0.06552,0.14462,0.49406
-15.4083,0,0,30.4083,30.4083,5,5,5.70678,-0.682092,1.92343,0.212521,0.492489,0.196671,0,0,9.625,0.035,-1.0675,0.161162,0.404796,-0.81252,-0.06552,0.14462,0.49406
-13.9699,0,0,28.9699,28.9699,5,5,5.17402,-0.408849,1.72179,0.207752,0.483238,0.197597,0,0,9.625,0.035,-1.0675,0.161162,0.404796,-0.81252,-0.06552,0.14462,0.49406
-13.994,0,0,28.994,28.994,5,5,5.18297,-0.408334,1.72099,0.276869,0.388379,-0.0776983,1,0,8.4525,0.2625,-1.4,0.23058,0.30988,-1.08568,-0.0693,0.14014,0.49252
-14.0111,0,0,29.0111,29.0111,5,5,5.18929,-0.408896,1.72048,0.393262,0.0654632,-0.373891,1,0,6.9825,-0.35,-1.1725,0.347456,-0.01281,-1.37958,-0.0693,0.14014,0.49252
-14.0282,0,0,29.0282,29.0282,5,5,5.19562,-0.409458,1.71997,0.393272,0.0655732,-0.373901,1,0,6.9825,-0.35,-1.1725,0.347456,-0.01281,-1.37958,-0.0693,0.14014,0.49252
-14.1573,0,0,29.1573,29.1573,5,5,5.24343,-0.243955,1.59494,0.141945,-0.0455846,-0.0365901,0,0,5.7575,-3.9725,-0.77,0.097966,-0.124684,-1.04481,-0.0693,0.14014,0.49252
-14.2838,0,0,29.2838,29.2838,5,5,5.29029,-0.0820425,1.47054,0.139119,-0.0447694,-0.0366572,0,0,5.7575,-3.9725,-0.77,0.097966,-0.124684,-1.04481,-0.0693,0.14014,0.49252
-14.414,0,0,29.414,29.414,5,5,5.33853,0.0964978,1.33666,0.127863,-0.0250015,0.102442,0,0,7.385,-0.245,-0.245,0.089792,-0.105774,-0.906704,-0.0693,0.14014,0.49252
-14.5417,0,0,29.5417,29.5417,5,5,5.38582,0.271176,1.20346,0.124815,-0.0241807,0.102355,0,0,7.385,-0.245,-0.245,0.089792,-0.105774,-0.906704,-0.0693,0.14014,0.49252
-14.5529,0,0,29.5529,29.5529,5,5,5.38996,0.271479,1.20429,-0.0247394,0.253607,-0.109984,1,0,5.7575,0.2275,-0.4375,-0.06039,0.171654,-1.1174,-0.06748,0.13846,0.4942
-15.0606,0,0,30.0606,30.0606,5,5,5.578,0.242134,1.23935,-0.0245917,-0.157501,0.0685951,0,0,6.72,-0.035,-1.155,-0.060756,-0.242292,-0.939888,-0.06748,0.13846,0.4942
-15.5591,0,0,30.5591,30.5591,5,5,5.76262,0.213371,1.27407,-0.0240897,-0.154295,0.0682787,0,0,6.72,-0.035,-1.155,-0.060756,-0.242292,-0.939888,-0.06748,0.13846,0.4942
-16.1289,0,0,31.1289,31.1289,5,5,5.97368,0.341308,1.17806,0.0964994,-0.184827,0.054367,0,0,6.4925,0.0175,-1.7675,0.062586,-0.276452,-0.953308,-0.06748,0.13846,0.4942
-16.6884,0,0,31.6884,31.6884,5,5,6.18088,0.466383,1.08322,0.0943165,-0.181233,0.0539689,0,0,6.4925,0.0175,-1.7675,0.062586,-0.276452,-0.953308,-0.06748,0.13846,0.4942
-16.9975,0,0,31.9975,31.9975,5,5,6.29538,0.537437,1.0314,0.0533506,-0.093881,0.0439051,0,0,6.9825,-0.4725,-1.4875,0.022692,-0.191174,-0.963068,-0.06748,0.13846,0.4942
-17.3009,0,0,32.3009,32.3009,5,5,6.40776,0.606901,0.980002,0.0521383,-0.091933,0.043676,0,0,6.9825,-0.4725,-1.4875,0.022692,-0.191174,-0.963068,-0.06748,0.13846,0.4942
-17.625,0,0,32.625,32.625,5,5,6.52779,0.485281,1.08613,-0.0999045,-0.118915,-0.015801,0,0,3.885,0.4025,-1.26,-0.132126,-0.22021,-1.02187,-0.06748,0.13846,0.4942
-17.9431,0,0,32.9431,32.9431,5,5,6.64558,0.365981,1.18895,-0.0978224,-0.116871,-0.0160214,0,0,3.885,0.4025,-1.26,-0.132126,-0.22021,-1.02187,-0.06846,0.14014,0.49826
-17.9482,0,0,32.9482,32.9482,5,5,6.64747,0.366598,1.18874,0.249251,0.403543,-0.223808,1,0,4.4975,0.35,-1.0675,0.216428,0.299632,-1.22805,-0.06846,0.14014,0.49826
-17.9533,0,0,32.9533,32.9533,5,5,6.64936,0.367216,1.18854,0.249241,0.403576,-0.223812,1,0,4.4975,0.35,-1.0675,0.216428,0.299632,-1.22805,-0.06846,0.14014,0.49826
-17.9655,0,0,32.9655,32.9655,5,5,6.65387,0.366822,1.18927,0.554055,0.350285,-0.110586,1,0,5.9675,-0.175,-0.455,0.522526,0.246318,-1.11569,-0.06846,0.14014,0.49826
-17.9776,0,0,32.9776,32.9776,5,5,6.65839,0.366427,1.19,0.554062,0.350363,-0.110595,1,0,5.9675,-0.175,-0.455,0.522526,0.246318,-1.11569,-0.06846,0.14014,0.49826
-17.2577,0,0,32.2577,32.2577,5,5,6.39175,0.505609,1.08476,0.0987343,0.243395,0.108026,0,0,6.1425,0.21,-0.6825,0.06771,0.144082,-0.899262,-0.06846,0.14014,0.49826
-16.5504,0,0,31.5504,31.5504,5,5,6.12977,0.641994,0.978708,0.096354,0.238848,0.108501,0,0,6.1425,0.21,-0.6825,0.06771,0.144082,-0.899262,-0.06846,0.14014,0.49826
-16.5505,0,0,31.5505,31.5505,5,5,6.12983,0.64277,0.979238,-0.584222,0.388943,0.0307975,1,0,3.465,0.49,-0.6475,-0.615734,0.29402,-0.976366,-0.06846,0.14014,0.49826
-16.5507,0,0,31.5507,31.5507,5,5,6.12988,0.643547,0.979767,-0.584236,0.388944,0.0307973,1,0,3.465,0.49,-0.6475,-0.615734,0.29402,-0.976366,-0.06846,0.14014,0.49826
-16.5541,0,0,31.5541,31.5541,5,5,6.13115,0.650931,0.980312,-0.100609,0.0703369,0.157553,1,0,4.1475,4.34,-1.05,-0.12993,-0.024278,-0.850584,-0.07308,0.13104,0.48972
-16.5676,0,0,31.5676,31.5676,5,5,6.13616,0.64967,0.980231,0.0852864,-0.060496,0.280124,1,0,6.2475,-0.735,-0.875,0.05673,-0.155062,-0.72895,-0.07308,0.13104,0.48972
-16.5889,0,0,31.5889,31.5889,5,5,6.14404,0.650006,0.980381,0.0852805,-0.0603592,0.280109,1,0,7.8575,0.21,-0.84,0.05673,-0.155062,-0.72895,-0.07308,0.13104,0.48972
-16.2277,0,0,31.2277,31.2277,5,5,6.01025,0.704962,0.952295,0.0479972,0.132965,-0.0744843,0,0,6.3875,0.805,-1.19,0.020252,0.040382,-1.08104,-0.07308,0.13104,0.48972
-15.8624,0,0,30.8624,30.8624,5,5,5.87497,0.75817,0.925116,0.0470686,0.130615,-0.0742517,0,0,4.1825,0.5075,-0.5775,0.020252,0.040382,-1.08104,-0.07308,0.13104,0.48972
-15.3333,0,0,30.3333,30.3333,5,5,5.679,1.04422,0.703306,0.205961,0.179475,0.110314,0,0,2.6425,0.49,-0.6125,0.18483,0.092598,-0.898164,-0.07308,0.13104,0.48972
-14.8096,0,0,29.8096,29.8096,5,5,5.48503,1.32325,0.480884,0.201092,0.176097,0.110543,0,0,1.925,-0.1925,-0.315,0.18483,0.092598,-0.898164,-0.07308,0.13104,0.48972
-14.8051,0,0,29.8051,29.8051,5,5,5.48339,1.32312,0.481919,0.0508165,0.154085,0.45763,1,0,2.5025,-0.0175,-0.2975,0.033916,0.070638,-0.553758,-0.07308,0.13104,0.48972
-14.815,0,0,29.815,29.815,5,5,5.48704,1.32136,0.482919,0.0508471,0.154149,0.457624,1,0,5.4775,-0.9625,-0.2275,0.033916,0.070638,-0.553758,-0.07252,0.13216,0.4942
-14.8245,0,0,29.8245,29.8245,5,5,5.49055,1.31997,0.484195,-0.317959,0.176193,0.276393,1,0,5.39,-0.735,-0.0875,-0.336476,0.092598,-0.733586,-0.07252,0.13216,0.4942
-14.8348,0,0,29.8348,29.8348,5,5,5.49437,1.32076,0.483964,-0.317973,0.176259,0.276386,1,0,5.5825,0.455,-1.085,-0.336476,0.092598,-0.733586,-0.07252,0.13216,0.4942
-14.7527,0,0,29.7527,29.7527,5,5,5.46395,1.23057,0.564311,-0.0713626,0.0291819,-0.000654082,0,0,3.8325,0.0875,-0.805,-0.090402,-0.053802,-1.00857,-0.07252,0.13216,0.4942
-14.6648,0,0,29.6648,29.6648,5,5,5.4314,1.14223,0.643958,-0.0698211,0.0286196,-0.000568391,0,0,2.345,0,-1.1025,-0.090402,-0.053802,-1.00857,-0.07252,0.13216,0.4942
-14.6522,0,0,29.6522,29.6522,5,5,5.42675,1.1424,0.643063,0.164522,-0.0124958,0.367178,1,0,0.84,0.0525,-1.435,0.144936,-0.094794,-0.643672,-0.07252,0.13216,0.4942
-14.6579,0,0,29.6579,29.6579,5,5,5.42886,1.14274,0.641642,0.164516,-0.0124591,0.367175,1,0,4.6375,0.1225,-1.75,0.144936,-0.094794,-0.643672,-0.07252,0.13216,0.4942
-14.6679,0,0,29.6679,29.6679,5,5,5.43254,1.1421,0.640701,-0.316678,0.393676,0.315162,1,0,5.5125,-0.42,-1.4175,-0.338306,0.310856,-0.695278,-0.07252,0.13216,0.4942
-14.6924,0,0,29.6924,29.6924,5,5,5.44163,1.14189,0.640283,-0.316674,0.393834,0.315147,1,0,8.54,-0.14,-1.1375,-0.338306,0.310856,-0.695278,-0.07224,0.14896,0.5075
-14.7144,0,0,29.7144,29.7144,5,5,5.44978,1.14294,0.639533,-0.583475,-0.230825,0.030384,1,0,8.015,0.5775,-1.4,-0.606218,-0.313296,-0.97783,-0.07224,0.14896,0.5075
-14.7173,0,0,29.7173,29.7173,5,5,5.45085,1.14492,0.639143,-0.58351,-0.230806,0.0303815,1,0,4.0425,1.1375,-1.2425,-0.606218,-0.313296,-0.97783,-0.07224,0.14896,0.5075
-14.7165,0,0,29.7165,29.7165,5,5,5.45055,1.14558,0.639079,0.118909,-0.312514,0.229312,1,0,3.2725,0.385,-0.98,0.099186,-0.394914,-0.780434,-0.07224,0.14896,0.5075
-14.7048,0,0,29.7048,29.7048,5,5,5.44623,1.14579,0.638972,0.118905,-0.312589,0.22932,1,0,1.015,0.1225,-0.98,0.099186,-0.394914,-0.780434,-0.07224,0.14896,0.5075
-14.7005,0,0,29.7005,29.7005,5,5,5.44463,1.14579,0.637941,-0.00379507,-0.589234,0.737714,1,0,2.555,-0.0525,-1.505,-0.024034,-0.671244,-0.275964,-0.07224,0.14896,0.5075
-14.6958,0,0,29.6958,29.6958,5,5,5.44288,1.1444,0.637019,-0.0037708,-0.589265,0.737718,1,0,2.4675,-0.8575,-1.365,-0.024034,-0.671244,-0.275964,-0.07224,0.14896,0.5075
-14.6996,0,0,29.6996,29.6996,5,5,5.44429,1.14205,0.636456,0.16307,-0.478227,0.408337,1,0,4.235,-1.4,-1.1025,0.143472,-0.560346,-0.602802,-0.07224,0.14896,0.5075
-14.7059,0,0,29.7059,29.7059,5,5,5.44663,1.14378,0.63553,0.16304,-0.478186,0.408333,1,0,4.76,0.9625,-1.54,0.143472,-0.560346,-0.602802,-0.06552,0.13748,0.48944
-14.7054,0,0,29.7054,29.7054,5,5,5.44643,1.14571,0.634442,-0.269118,0.0250947,-0.175796,1,0,3.3425,1.0675,-1.645,-0.290482,-0.057584,-1.18242,-0.06552,0.13748,0.48944
-14.7081,0,0,29.7081,29.7081,5,5,5.44745,1.14621,0.634423,-0.269127,0.0251123,-0.175798,1,0,4.0075,0.2975,-0.945,-0.290482,-0.057584,-1.18242,-0.06552,0.13748,0.48944
-14.3397,0,0,29.3397,29.3397,5,5,5.31102,0.84488,0.884603,-0.255122,0.134985,-0.0323717,0,0,4.6375,-0.2625,-0.9975,-0.281698,0.054534,-1.04042,-0.06552,0.13748,0.48944
-13.9911,0,0,28.9911,28.9911,5,5,5.18191,0.551004,1.13339,-0.249993,0.132747,-0.0321034,0,0,7.49,0.42,-2.2225,-0.281698,0.054534,-1.04042,-0.06552,0.13748,0.48944
-13.9995,0,0,28.9995,28.9995,5,5,5.18499,0.552013,1.13143,0.56528,0.520431,0.0104317,1,0,5.18,0.49,-2.1,0.537044,0.441762,-0.998204,-0.06552,0.13748,0.48944
-14.0288,0,0,29.0288,29.0288,5,5,5.19584,0.55034,1.13194,0.565309,0.520619,0.0104148,1,0,9.52,-0.945,-0.525,0.537044,0.441762,-0.998204,-0.06552,0.13748,0.48944
-14.046,0,0,29.046,29.046,5,5,5.20223,0.551733,1.13203,0.28198,0.543568,-0.110208,1,0,7.0175,0.8225,-0.9275,0.25254,0.464576,-1.11789,-0.06552,0.13748,0.48944
-14.0404,0,0,29.0404,29.0404,5,5,5.20015,0.553673,1.13205,0.281946,0.543532,-0.110205,1,0,2.275,1.1375,-0.9975,0.25254,0.464576,-1.11789,-0.07196,0.1407,0.49574
-13.2826,0,0,28.2826,28.2826,5,5,4.9195,-0.0260913,1.62442,-0.429074,0.259231,0.199735,0,0,2.9225,0.525,-0.1575,-0.471652,0.18544,-0.810812,-0.07196,0.1407,0.49574
-12.5393,0,0,27.5393,27.5393,5,5,4.64418,-0.596423,2.11922,-0.41912,0.254438,0.200081,0,0,3.885,0,-1.015,-0.471652,0.18544,-0.810812,-0.07196,0.1407,0.49574
-12.5438,0,0,27.5438,27.5438,5,5,4.64587,-0.592953,2.11736,-0.525967,0.0649268,0.404297,1,0,4.375,1.9425,-2.1525,-0.57889,-0.003904,-0.60817,-0.07196,0.1407,0.49574
-12.5421,0,0,27.5421,27.5421,5,5,4.64522,-0.597167,2.11785,-0.525893,0.0649156,0.404297,1,0,3.08,-2.4325,-0.42,-0.57889,-0.003904,-0.60817,-0.07196,0.1407,0.49574
-12.5549,0,0,27.5549,27.5549,5,5,4.64998,-0.597441,2.11854,0.0220121,-0.191102,-0.287418,1,0,6.1075,-0.1225,-0.49,-0.02867,-0.259738,-1.29454,-0.07196,0.1407,0.49574
-12.5564,0,0,27.5564,27.5564,5,5,4.65051,-0.594623,2.11696,0.021963,-0.191092,-0.287418,1,0,3.7275,1.575,-1.96,-0.02867,-0.259738,-1.29454,-0.07196,0.1407,0.49574
-12.568,0,0,27.568,27.568,5,5,4.65483,-0.591197,2.11711,-0.0839109,0.45772,-0.103615,1,0,5.8625,2.0125,-0.98,-0.134932,0.388326,-1.11215,-0.07196,0.1407,0.49574
-12.5884,0,0,27.5884,27.5884,5,5,4.66239,-0.592773,2.11833,-0.0838834,0.457852,-0.103626,1,0,7.6825,-0.8575,-0.1225,-0.134932,0.388326,-1.11215,-0.07196,0.1407,0.49574
-12.6161,0,0,27.6161,27.6161,5,5,4.67265,-0.590704,2.11786,-0.206741,-0.769954,0.996502,1,0,9.1875,1.19,-1.2775,-0.258274,-0.838384,-0.020496,-0.0756,0.12768,0.49112
-12.632,0,0,27.632,27.632,5,5,4.67853,-0.591984,2.11802,0.342396,0.152816,-0.196721,1,0,6.7375,-0.735,-0.7525,0.293166,0.083326,-1.20451,-0.0756,0.12768,0.49112
-12.6544,0,0,27.6544,27.6544,5,5,4.68683,-0.591491,2.11995,0.342388,0.15296,-0.196733,1,0,8.1025,0.385,0.1925,0.293166,0.083326,-1.20451,-0.0756,0.12768,0.49112
-12.6595,0,0,27.6595,27.6595,5,5,4.68872,-0.590831,2.11985,-0.445702,0.574941,-0.293373,1,0,4.4975,0.385,-0.9975,-0.498248,0.504836,-1.3004,-0.0756,0.12768,0.49112
-12.6477,0,0,27.6477,27.6477,5,5,4.68435,-0.589527,2.12139,-0.445724,0.574865,-0.293367,1,0,0.9975,0.84,-0.07,-0.498248,0.504836,-1.3004,-0.0756,0.12768,0.49112
-12.6418,0,0,27.6418,27.6418,5,5,4.68216,-0.592639,2.12306,-0.332688,-0.249162,-0.223898,1,0,2.2225,-1.7325,0.21,-0.384788,-0.318298,-1.23147,-0.0756,0.12768,0.49112
-12.6444,0,0,27.6444,27.6444,5,5,4.68312,-0.589551,2.12186,-0.332742,-0.249146,-0.223899,1,0,3.9725,1.75,-1.75,-0.384788,-0.318298,-1.23147,-0.0756,0.12768,0.49112
-12.7727,0,0,27.7727,27.7727,5,5,4.73061,0.222009,1.47352,0.676853,-0.0244576,0.229635,0,0,5.425,-0.3675,-1.2425,0.643306,-0.094672,-0.78141,-0.0756,0.12768,0.49112
-12.8952,0,0,27.8952,27.8952,5,5,4.776,1.01841,0.826303,0.662955,-0.0236806,0.22942,0,0,5.39,-0.8925,-0.735,0.643306,-0.094672,-0.78141,-0.07406,0.12936,0.48734
-12.9081,0,0,27.9081,27.9081,5,5,4.78078,1.0182,0.825436,0.384027,-0.608463,0.625676,1,0,6.125,-0.1575,-1.4,0.363194,-0.67893,-0.388204,-0.07406,0.12936,0.48734
-12.9146,0,0,27.9146,27.9146,5,5,4.78319,1.02109,0.82519,0.383977,-0.608421,0.625671,1,0,4.795,1.68,-1.19,0.363194,-0.67893,-0.388204,-0.07406,0.12936,0.48734
-12.9261,0,0,27.9261,27.9261,5,5,4.78744,1.02167,0.826074,-0.760672,-0.831717,0.0764541,1,0,5.81,0.385,-0.42,-0.78629,-0.902068,-0.933178,-0.07406,0.12936,0.48734
-12.9476,0,0,27.9476,27.9476,5,5,4.79542,1.02495,0.826133,-0.760729,-0.831578,0.0764415,1,0,7.91,1.925,-1.0325,-0.78629,-0.902068,-0.933178,-0.07406,0.12936,0.48734
-12.969,0,0,27.969,27.969,5,5,4.80334,1.02623,0.826475,-0.0765439,0.149726,-0.262048,1,0,7.875,0.77,-0.77,-0.099186,0.07808,-1.26904,-0.07406,0.12936,0.48734
-12.9806,0,0,27.9806,27.9806,5,5,4.80764,1.0241,0.827191,-0.0765066,0.149801,-0.262053,1,0,5.845,-1.2075,-0.385,-0.099186,0.07808,-1.26904,-0.07406,0.12936,0.48734
-12.9919,0,0,27.9919,27.9919,5,5,4.81183,1.02363,0.826574,0.601392,0.184069,-0.255051,1,0,5.7925,-0.2975,-1.2425,0.581574,0.11224,-1.26209,-0.07406,0.12936,0.48734
-13.0032,0,0,28.0032,28.0032,5,5,4.81602,1.02317,0.825956,0.6014,0.184142,-0.255057,1,0,5.7925,-0.2975,-1.2425,0.581574,0.11224,-1.26209,-0.07756,0.12376,0.48314
-12.9943,0,0,27.9943,27.9943,5,5,4.8127,1.02437,0.826201,0.321962,0.335521,-0.378124,1,0,1.575,0.7175,-0.8225,0.300974,0.26352,-1.38421,-0.07756,0.12376,0.48314
-12.9853,0,0,27.9853,27.9853,5,5,4.80938,1.02557,0.826446,0.321941,0.335464,-0.37812,1,0,1.575,0.7175,-0.8225,0.300974,0.26352,-1.38421,-0.07756,0.12376,0.48314
-12.9783,0,0,27.9783,27.9783,5,5,4.80677,1.02486,0.824815,0.0613664,-0.574426,0.503794,1,0,1.995,-0.49,-1.82,0.039284,-0.64538,-0.509106,-0.07756,0.12376,0.48314
-12.9713,0,0,27.9713,27.9713,5,5,4.80417,1.02415,0.823183,0.0613788,-0.574471,0.503798,1,0,1.995,-0.49,-1.82,0.039284,-0.64538,-0.509106,-0.07756,0.12376,0.48314
-12.9786,0,0,27.9786,27.9786,5,5,4.80687,1.02382,0.82339,-0.341462,0.0277828,0.673586,1,0,4.9525,-0.175,-0.77,-0.365268,-0.043798,-0.340624,-0.07756,0.12376,0.48314
-13.0008,0,0,28.0008,28.0008,5,5,4.8151,1.02487,0.823653,-0.269561,0.641124,-0.186328,1,0,8.05,0.63,-0.805,-0.293044,0.568764,-1.19389,-0.07756,0.12376,0.48314
-13.0147,0,0,28.0147,28.0147,5,5,4.82028,1.02409,0.824243,-0.269547,0.641214,-0.186336,1,0,6.335,-0.42,-0.525,-0.293044,0.568764,-1.19389,-0.07756,0.12376,0.48314
-13.0268,0,0,28.0268,28.0268,5,5,4.82472,1.02481,0.824176,0.598334,0.255127,-0.189416,1,0,5.9325,0.42,-0.98,0.578524,0.183,-1.19694,-0.07448,0.12768,0.4767
-13.0407,0,0,28.0407,28.0407,5,5,4.82988,1.02696,0.823479,0.598296,0.255216,-0.189424,1,0,6.335,1.225,-1.4175,0.578524,0.183,-1.19694,-0.07448,0.12768,0.4767
-13.0577,0,0,28.0577,28.0577,5,5,4.83618,1.01943,0.8241,0.661357,0.0492984,-0.0748432,1,0,6.965,-4.3575,-0.175,0.64172,-0.022814,-1.08324,-0.07448,0.12768,0.4767
-13.0747,0,0,28.0747,28.0747,5,5,4.84248,1.01191,0.82472,0.661489,0.0494081,-0.0748501,1,0,6.965,-4.3575,-0.175,0.64172,-0.022814,-1.08324,-0.07448,0.12768,0.4767
-13.0804,0,0,28.0804,28.0804,5,5,4.84458,1.01114,0.824107,-0.331279,-0.0803761,0.264731,1,0,4.62,-0.4725,-1.225,-0.355264,-0.1525,-0.746274,-0.07448,0.12768,0.4767
-13.086,0,0,28.086,28.086,5,5,4.84667,1.01038,0.823494,-0.331266,-0.0803396,0.264728,1,0,4.62,-0.4725,-1.225,-0.355264,-0.1525,-0.746274,-0.07448,0.12768,0.4767
-13.0767,0,0,28.0767,28.0767,5,5,4.84323,1.01021,0.822209,-0.859847,-0.505034,0.0086313,1,0,1.5225,-0.1575,-1.645,-0.886086,-0.576694,-1.0004,-0.07448,0.12768,0.4767
-13.0769,0,0,28.0769,28.0769,5,5,4.84329,1.0099,0.821183,0.816539,-0.476211,0.19871,1,0,3.4825,-0.2275,-1.4875,0.797392,-0.547902,-0.811788,-0.07448,0.12768,0.4767
-13.0746,0,0,28.0746,28.0746,5,5,4.84245,1.01,0.818777,0.816538,-0.476226,0.198711,1,0,2.9925,-0.0525,-2.31,0.797392,-0.547902,-0.811788,-0.07532,0.12586,0.48146
-12.7088,0,0,27.7088,27.7088,5,5,4.70696,1.29759,0.592378,0.214782,0.122762,0.112251,0,0,-0.3325,-1.0325,-1.6625,0.198128,0.052826,-0.897676,-0.07532,0.12586,0.48146
-12.387,0,0,27.387,27.387,5,5,4.58778,1.58186,0.367507,0.209822,0.120679,0.112295,0,0,7.5775,0.49,-0.6475,0.198128,0.052826,-0.897676,-0.07532,0.12586,0.48146
-12.3995,0,0,27.3995,27.3995,5,5,4.59241,1.58231,0.367446,0.869238,0.719181,-0.430406,1,0,6.0375,0.2625,-0.9625,0.860344,0.650626,-1.43618,-0.07532,0.12586,0.48146
-12.4115,0,0,27.4115,27.4115,5,5,4.59684,1.58191,0.367799,0.869245,0.719258,-0.430412,1,0,5.915,-0.21,-0.6825,0.860344,0.650626,-1.43618,-0.07532,0.12586,0.48146
-12.4304,0,0,27.4304,27.4304,5,5,4.60385,1.58091,0.367922,0.638197,0.548891,-0.105222,1,0,7.3675,-0.5775,-0.7875,0.6283,0.480314,-1.11349,-0.07532,0.12586,0.48146
-12.4409,0,0,27.4409,27.4409,5,5,4.60774,1.58193,0.368118,0.638179,0.548958,-0.105228,1,0,5.6175,0.6125,-0.84,0.6283,0.480314,-1.11349,-0.07532,0.12586,0.48146
-11.8218,0,0,26.8218,26.8218,5,5,4.37845,1.29863,0.610572,-0.227687,0.220855,0.038198,0,0,3.2725,-0.4375,-0.3325,-0.246196,0.156526,-0.971608,-0.07532,0.12586,0.48146
-11.219,0,0,26.219,26.219,5,5,4.1552,1.02198,0.85583,-0.22286,0.216978,0.0385854,0,0,4.55,1.2425,-0.875,-0.246196,0.156526,-0.971608,-0.0798,0.12474,0.48594
-11.2146,0,0,26.2146,26.2146,5,5,4.15355,1.02168,0.85532,-0.253348,0.200828,0.162028,1,0,2.52,-0.1925,-1.19,-0.276818,0.140422,-0.84912,-0.0798,0.12474,0.48594
-11.1915,0,0,26.1915,26.1915,5,5,4.14498,1.02132,0.855197,-0.253341,0.200679,0.162039,1,0,-1.365,-0.21,-0.9625,-0.276818,0.140422,-0.84912,-0.0798,0.12474,0.48594
-11.1749,0,0,26.1749,26.1749,5,5,4.13886,1.02017,0.854115,0.254003,-0.0654193,0.303315,1,0,0.0175,-0.7175,-1.4875,0.232654,-0.125294,-0.708942,-0.0798,0.12474,0.48594
-11.1693,0,0,26.1693,26.1693,5,5,4.13676,1.02151,0.852792,0.25398,-0.0654558,0.303317,1,0,2.275,0.735,-1.7325,0.232654,-0.125294,-0.708942,-0.0798,0.12474,0.48594
-10.2887,0,0,25.2887,25.2887,5,5,3.81062,0.747252,1.09548,-0.207375,0.302091,0.102887,0,0,2.625,-0.7875,-1.4,-0.23546,0.247538,-0.90829,-0.0798,0.12474,0.48594
-9.43162,0,0,24.4316,24.4316,5.56838,5.56838,3.49319,0.480377,1.34216,-0.202717,0.296565,0.10329,0,0,4.5325,0.56,-0.595,-0.23546,0.247538,-0.90829,-0.0798,0.12474,0.48594
-9.63067,0,0,24.6307,24.6307,5.36933,5.36933,3.56692,0.0152489,1.76603,-0.402583,-0.069994,0.0441074,0,0,6.09,-0.8225,0.0875,-0.444324,-0.119926,-0.966972,-0.0798,0.12474,0.48594
-9.8183,0,0,24.8183,24.8183,5.1817,5.1817,3.63641,-0.431456,2.18311,-0.394786,-0.0687853,0.044003,0,0,4.515,1.855,-0.63,-0.444324,-0.119926,-0.966972,-0.07098,0.12698,0.48902
-9.83062,0,0,24.8306,24.8306,5.16938,5.16938,3.64097,-0.432263,2.18437,0.1852,0.166022,0.135963,1,0,6.0025,-0.42,-0.14,0.138104,0.114558,-0.875716,-0.07098,0.12698,0.48902
-9.84125,0,0,24.8413,24.8413,5.15875,5.15875,3.64491,-0.430609,2.18601,0.185171,0.16609,0.135959,1,0,5.6525,1.0325,-0.0175,0.138104,0.114558,-0.875716,-0.07098,0.12698,0.48902
-9.40121,0,0,24.4012,24.4012,5.59879,5.59879,3.48193,0.191017,1.68699,0.552386,0.174977,0.115257,0,0,4.585,0.8225,-0.84,0.517768,0.12627,-0.896456,-0.07098,0.12698,0.48902
-8.95152,0,0,23.9515,23.9515,6.04848,6.04848,3.31538,0.800736,1.18604,0.541744,0.17207,0.115338,0,0,1.575,-0.07,-0.525,0.517768,0.12627,-0.896456,-0.07098,0.12698,0.48902
-8.94813,0,0,23.9481,23.9481,6.05187,6.05187,3.31412,0.801247,1.1864,-0.0890182,-0.430281,0.26509,1,0,2.73,0.315,-0.7175,-0.115656,-0.475434,-0.74786,-0.07098,0.12698,0.48902
-8.92831,0,0,23.9283,23.9283,6.07169,6.07169,3.30678,0.803953,1.18498,-0.0890654,-0.430409,0.265097,1,0,-0.665,1.54,-1.82,-0.115656,-0.475434,-0.74786,-0.07098,0.12698,0.48902
-8.90802,0,0,23.908,23.908,6.09198,6.09198,3.29927,0.802117,1.18451,-0.372217,-0.466689,0.0771166,1,0,-0.77,-1.085,-1.12,-0.400038,-0.511546,-0.934398,-0.07098,0.12698,0.48902
-8.89898,0,0,23.899,23.899,6.10102,6.10102,3.29592,0.801103,1.18276,-0.372199,-0.466748,0.0771202,1,0,1.575,-0.6475,-1.89,-0.400038,-0.511546,-0.934398,-0.07014,0.12656,0.48818
-8.0618,0,0,23.0618,23.0618,6.9382,6.9382,2.98585,0.800771,1.1969,0.00550595,0.29163,0.0549172,0,0,1.54,-0.5075,-1.75,-0.02074,0.251442,-0.956724,-0.07014,0.12656,0.48818
-7.23889,0,0,22.2389,22.2389,7.76111,7.76111,2.68107,0.800503,1.2112,0.00551063,0.286317,0.0551802,0,0,1.54,-0.5075,-1.75,-0.02074,0.251442,-0.956724,-0.07014,0.12656,0.48818
-8.90171,0,0,23.9017,23.9017,6.09829,6.09829,3.29693,0.54192,1.46605,-0.219342,-0.52315,0.329831,0,0,5.495,3.6225,-0.385,-0.251076,-0.56791,-0.683688,-0.07014,0.12656,0.48818
-10.5415,0,0,25.5415,25.5415,5,5,3.90426,0.287233,1.71484,-0.214897,-0.512569,0.329198,0,0,5.495,3.6225,-0.385,-0.251076,-0.56791,-0.683688,-0.07014,0.12656,0.48818
-12.1396,0,0,27.1396,27.1396,5,5,4.49615,-0.105476,2.0704,-0.374721,-0.607295,0.237839,0,0,6.0375,-0.35,-0.42,-0.41846,-0.67283,-0.773602,-0.07014,0.12656,0.48818
-13.7162,0,0,28.7162,28.7162,5,5,5.08006,-0.492018,2.4172,-0.367975,-0.597142,0.236953,0,0,6.0375,-0.35,-0.42,-0.41846,-0.67283,-0.773602,-0.07014,0.12656,0.48818
-13.3963,0,0,28.3963,28.3963,5,5,4.96158,-0.472715,2.44151,0.0198354,0.112431,0.0412801,0,0,2.8525,0.035,-0.98,-0.02867,0.038064,-0.967948,-0.07014,0.12656,0.48818
-12.7815,0,0,27.7815,27.7815,5,5,4.73391,-0.883546,2.82963,-0.306837,0.209585,0.127226,0,0,0.98,-0.105,-0.4375,-0.363926,0.13908,-0.882914,-0.06846,0.12404,0.48034
-12.1805,0,0,27.1805,27.1805,5,5,4.51129,-1.28759,3.21797,-0.299787,0.205702,0.127406,0,0,1.9425,-0.84,-1.4,-0.363926,0.13908,-0.882914,-0.06846,0.12404,0.48034
-12.5289,0,0,27.5289,27.5289,5,5,4.64032,-2.29857,4.08593,-0.800773,-0.0948501,0.549127,0,0,1.9425,-4.2525,-1.9425,-0.884744,-0.163358,-0.463722,-0.06846,0.12404,0.48034
-12.87,0,0,27.87,27.87,5,5,4.76666,-3.29828,4.94683,-0.783346,-0.092725,0.548098,0,0,1.9425,-4.2525,-1.9425,-0.884744,-0.163358,-0.463722,-0.06846,0.12404,0.48034
-12.8554,0,0,27.8554,27.8554,5,5,4.76128,-3.29093,4.94518,0.337717,-0.446863,0.398731,1,0,0.3675,4.2175,-2.2225,0.241194,-0.517036,-0.611952,-0.06846,0.12404,0.48034
-12.8409,0,0,27.8409,27.8409,5,5,4.75589,-3.28358,4.94352,0.337589,-0.446956,0.398746,1,0,0.3675,4.2175,-2.2225,0.241194,-0.517036,-0.611952,-0.06846,0.12404,0.48034
-12.8416,0,0,27.8416,27.8416,5,5,4.75616,-3.28482,4.94293,-0.385107,0.311944,0.274074,1,0,3.57,-0.7525,-1.19,-0.484584,0.241072,-0.73566,-0.06846,0.12404,0.48034
-12.8472,0,0,27.8472,27.8472,5,5,4.75822,-3.28763,4.94377,0.366816,-0.0145874,-0.131662,1,0,4.62,-1.5925,-0.28,0.270474,-0.085156,-1.13826,-0.06846,0.12404,0.48034
-12.8586,0,0,27.8586,27.8586,5,5,4.76245,-3.28451,4.94433,0.366762,-0.0145137,-0.131665,1,0,5.8275,1.855,-0.735,0.270474,-0.085156,-1.13826,-0.06776,0.12278,0.47628
-12.8673,0,0,27.8673,27.8673,5,5,4.76565,-3.28342,4.94487,1.0399,-0.090543,-0.157364,1,0,5.25,0.665,-0.6475,0.946476,-0.161162,-1.16376,-0.06776,0.12278,0.47628
-12.8746,0,0,27.8746,27.8746,5,5,4.76838,-3.28269,4.94534,1.03988,-0.0904955,-0.157368,1,0,4.9875,0.455,-0.665,0.946476,-0.161162,-1.16376,-0.06776,0.12278,0.47628
-12.8749,0,0,27.8749,27.8749,5,5,4.76846,-3.28226,4.94585,0.329791,-0.257197,-0.0762213,1,0,3.5,0.28,-0.63,0.233386,-0.327692,-1.08324,-0.06776,0.12278,0.47628
-12.8656,0,0,27.8656,27.8656,5,5,4.76503,-3.28282,4.94671,0.329801,-0.257257,-0.0762168,1,0,1.54,-0.28,-0.385,0.233386,-0.327692,-1.08324,-0.06776,0.12278,0.47628
-14.0771,0,0,29.0771,29.0771,5,5,5.21374,-3.75502,5.37864,-0.438024,-0.448825,0.247552,0,0,-0.175,-0.77,-0.3675,-0.54595,-0.526796,-0.760792,-0.06776,0.12278,0.47628
-15.2793,0,0,30.2793,30.2793,5,5,5.65901,-4.21705,5.79997,-0.429979,-0.44116,0.24626,0,0,1.12,0.5775,-1.6275,-0.54595,-0.526796,-0.760792,-0.06776,0.12278,0.47628
-15.2644,0,0,30.2644,30.2644,5,5,5.65349,-4.21759,5.79891,-0.0882307,0.203451,-0.160322,1,0,0.2975,-0.3675,-1.4875,-0.202764,0.117242,-1.16425,-0.06776,0.12278,0.47628
-15.2504,0,0,30.2504,30.2504,5,5,5.6483,-4.21878,5.79788,-0.0882099,0.203361,-0.160315,1,0,0.49,-0.7525,-1.435,-0.202764,0.117242,-1.16425,-0.06776,0.12278,0.47628
-15.2505,0,0,30.2505,30.2505,5,5,5.64835,-3.73277,5.49015,0.431548,-0.000653776,-0.0340762,0,0,0.9975,-0.735,-1.4525,0.327692,-0.08662,-1.03956,-0.07854,0.12376,0.48006
-13.5992,0,0,28.5992,28.5992,5,5,5.03674,-3.84974,5.70094,-0.0362003,0.642595,0.0854265,0,0,5.1975,0.3675,-1.61,-0.144082,0.566568,-0.921832,-0.07854,0.12376,0.48006
-11.9748,0,0,26.9748,26.9748,5,5,4.43512,-3.96574,5.91763,-0.0341805,0.632144,0.0861539,0,0,6.195,-0.4375,0.3675,-0.144082,0.566568,-0.921832,-0.07854,0.12376,0.48006
-12.0455,0,0,27.0455,27.0455,5,5,4.4613,-3.71016,5.79922,0.214666,-0.0172148,-0.0294013,0,0,7.6475,1.085,-0.175,0.110288,-0.082594,-1.03676,-0.07854,0.12376,0.48006
-12.1035,0,0,27.1035,27.1035,5,5,4.48279,-3.4612,5.68204,0.21033,-0.0168204,-0.0291596,0,0,5.39,0.315,0.315,0.110288,-0.082594,-1.03676,-0.07854,0.12376,0.48006
-12.1037,0,0,27.1037,27.1037,5,5,4.48286,-3.46081,5.68423,0.120788,0.0121249,-0.499437,1,0,3.5525,0.3325,0.35,0.020374,-0.05368,-1.50341,-0.07854,0.12376,0.48006
-12.101,0,0,27.101,27.101,5,5,4.48186,-3.45883,5.68444,0.120754,0.0121078,-0.499434,1,0,2.8875,1.1725,-0.875,0.020374,-0.05368,-1.50341,-0.07854,0.12376,0.48006
-12.0996,0,0,27.0996,27.0996,5,5,4.48133,-3.45792,5.68577,0.130335,0.0633918,-0.276035,1,0,3.185,0.595,-0.175,0.030012,-0.00244,-1.28173,-0.0728,0.11998,0.47824
-12.4078,0,0,27.4078,27.4078,5,5,4.59549,-3.34185,5.6716,0.088101,-0.124523,-0.0496012,0,0,0.91,0.105,-0.77,-0.01037,-0.19215,-1.05701,-0.0728,0.11998,0.47824
-12.7167,0,0,27.7167,27.7167,5,5,4.70988,-3.23005,5.6566,0.086153,-0.122527,-0.0496514,0,0,2.17,-0.91,-1.435,-0.01037,-0.19215,-1.05701,-0.0728,0.11998,0.47824
-12.702,0,0,27.702,27.702,5,5,4.70443,-3.23012,5.65553,0.941778,0.608429,-0.311401,1,0,0.35,-0.0875,-1.5225,0.848876,0.538142,-1.31675,-0.0728,0.11998,0.47824
-12.6926,0,0,27.6926,27.6926,5,5,4.70097,-3.23077,5.65463,0.941789,0.608368,-0.311397,1,0,1.47,-0.42,-1.4,0.848876,0.538142,-1.31675,-0.0728,0.11998,0.47824
-12.6868,0,0,27.6868,27.6868,5,5,4.6988,-3.23193,5.65402,0.555606,0.45152,-0.251888,1,0,2.205,-0.7,-1.2075,0.461038,0.381494,-1.2577,-0.0728,0.11998,0.47824
-12.7026,0,0,27.7026,27.7026,5,5,4.70468,-3.23106,5.65248,0.555591,0.451622,-0.251895,1,0,6.685,0.4375,-1.8375,0.461038,0.381494,-1.2577,-0.0728,0.11998,0.47824
-12.7183,0,0,27.7183,27.7183,5,5,4.7105,-3.23323,5.65248,-0.253587,0.0242795,0.202389,1,0,6.7025,-1.26,-0.805,-0.351604,-0.045506,-0.806908,-0.0728,0.11998,0.47824
-12.7402,0,0,27.7402,27.7402,5,5,4.71859,-3.23076,5.65262,-0.25363,0.0244202,0.20238,1,0,7.98,1.4525,-0.945,-0.351604,-0.045506,-0.806908,-0.07224,0.1323,0.48524
-13.3411,0,0,28.3411,28.3411,5,5,4.94113,-2.87203,5.40155,0.278178,-0.191637,0.0917317,0,0,7.245,0.6825,-1.1025,0.188734,-0.265228,-0.916708,-0.07224,0.1323,0.48524
-13.911,0,0,28.911,28.911,5,5,5.15223,-2.52186,5.155,0.272073,-0.187946,0.0916944,0,0,3.2375,0.0875,-0.2975,0.188734,-0.265228,-0.916708,-0.07224,0.1323,0.48524
-13.9028,0,0,28.9028,28.9028,5,5,5.14919,-2.52373,5.155,0.471099,0.361694,-0.233255,1,0,1.7325,-1.085,-0.805,0.38857,0.283894,-1.23915,-0.07224,0.1323,0.48524
-13.8965,0,0,28.8965,28.8965,5,5,5.14684,-2.52437,5.155,0.47111,0.361653,-0.233252,1,0,2.1175,-0.3675,-0.875,0.38857,0.283894,-1.23915,-0.07224,0.1323,0.48524
-13.8926,0,0,28.8926,28.8926,5,5,5.1454,-2.5253,5.15467,-0.383768,0.0754847,0.351493,1,0,2.625,-0.56,-1.05,-0.469944,-0.001952,-0.658922,-0.07224,0.1323,0.48524
-13.8984,0,0,28.8984,28.8984,5,5,5.14755,-2.52474,5.15363,-0.383778,0.0755222,0.35149,1,0,4.62,0.28,-1.54,-0.469944,-0.001952,-0.658922,-0.07224,0.1323,0.48524
-13.9097,0,0,28.9097,28.9097,5,5,5.15175,-2.52626,5.15146,-0.415702,-0.258422,0.491889,1,0,5.74,-0.9975,-2.0825,-0.50203,-0.335622,-0.519598,-0.07224,0.1323,0.48524
-13.8999,0,0,28.8999,28.8999,5,5,5.14811,-2.52612,5.15011,-0.415705,-0.258485,0.491895,1,0,1.365,0.0175,-1.6975,-0.50203,-0.335622,-0.519598,-0.07238,0.1309,0.49112
-13.3021,0,0,28.3021,28.3021,5,5,4.92672,-1.72744,4.53696,0.724723,0.25028,0.223492,0,0,1.1025,-1.1725,-2.45,0.657214,0.176412,-0.786778,-0.07238,0.1309,0.49112
-12.7088,0,0,27.7088,27.7088,5,5,4.70698,-0.939549,3.9187,0.710975,0.246486,0.224133,0,0,1.1025,-1.1725,-2.45,0.657214,0.176412,-0.786778,-0.07238,0.1309,0.49112
-12.7229,0,0,27.7229,27.7229,5,5,4.71218,-0.940089,3.92006,0.539325,0.250607,-0.339716,1,0,6.37,-0.245,-0.0875,0.484828,0.180438,-1.34627,-0.07238,0.1309,0.49112
-12.737,0,0,27.737,27.737,5,5,4.71739,-0.94063,3.92143,0.539335,0.250698,-0.339724,1,0,6.37,-0.245,-0.0875,0.484828,0.180438,-1.34627,-0.07238,0.1309,0.49112
-12.7579,0,0,27.7579,27.7579,5,5,4.72514,-0.948086,3.92198,-0.383584,-0.0415391,-0.102816,1,0,7.7875,-4.3225,-0.2275,-0.442128,-0.11163,-1.11118,-0.07238,0.1309,0.49112
-12.7788,0,0,27.7788,27.7788,5,5,4.73289,-0.955544,3.92253,-0.383453,-0.0414045,-0.102829,1,0,7.7875,-4.3225,-0.2275,-0.442128,-0.11163,-1.11118,-0.07238,0.1309,0.49112
-12.7852,0,0,27.7852,27.7852,5,5,4.73528,-0.956352,3.92423,-1.03557,0.498681,-0.54225,1,0,4.795,-0.385,0.1225,-1.09702,0.427854,-1.5472,-0.07238,0.1309,0.49112
-12.7842,0,0,27.7842,27.7842,5,5,4.73488,-0.954933,3.92618,0.819973,-0.204409,-0.0413573,1,0,3.2375,0.9275,0.1575,0.766404,-0.2745,-1.05018,-0.07238,0.1309,0.49112
-12.7853,0,0,27.7853,27.7853,5,5,4.7353,-0.957021,3.92669,0.82001,-0.204402,-0.0413585,1,0,3.675,-1.19,-0.5075,0.766404,-0.2745,-1.05018,-0.0784,0.1239,0.48622
-12.7713,0,0,27.7713,27.7713,5,5,4.7301,-0.957862,3.92698,0.208951,0.103267,0.249176,1,0,0.525,-0.4725,-0.7,0.152744,0.03294,-0.76189,-0.0784,0.1239,0.48622
-12.7644,0,0,27.7644,27.7644,5,5,4.72754,-0.958721,3.92566,0.208966,0.103223,0.249179,1,0,1.995,-0.56,-1.6275,0.152744,0.03294,-0.76189,-0.0784,0.1239,0.48622
-12.7591,0,0,27.7591,27.7591,5,5,4.72557,-0.958905,3.92489,-0.332857,0.505352,-0.0564678,1,0,2.3275,-0.14,-1.3475,-0.391376,0.434686,-1.06518,-0.0784,0.1239,0.48622
-12.7548,0,0,27.7548,27.7548,5,5,4.72401,-0.959795,3.92433,-0.332841,0.505324,-0.0564658,1,0,2.555,-0.5425,-1.19,-0.391376,0.434686,-1.06518,-0.0784,0.1239,0.48622
-12.7578,0,0,27.7578,27.7578,5,5,4.72513,-0.960039,3.92355,0.408712,0.220178,-0.158761,1,0,4.06,-0.175,-1.3475,0.353312,0.149816,-1.16669,-0.0784,0.1239,0.48622
-12.7757,0,0,27.7757,27.7757,5,5,4.73174,-0.961361,3.92313,0.408735,0.220293,-0.15877,1,0,7.14,-0.7875,-1.085,0.353312,0.149816,-1.16669,-0.0784,0.1239,0.48622
-12.7898,0,0,27.7898,27.7898,5,5,4.73695,-0.960924,3.92391,-0.00493155,0.609846,0.025276,1,0,6.37,0.2975,-0.4725,-0.062098,0.538874,-0.984052,-0.0784,0.1239,0.48622
-12.8181,0,0,27.8181,27.8181,5,5,4.74743,-0.961976,3.92566,-0.0049132,0.610028,0.0252606,1,0,9.3275,-0.525,0.1575,-0.062098,0.538874,-0.984052,-0.07294,0.13314,0.48678
-12.8386,0,0,27.8386,27.8386,5,5,4.75505,-0.960654,3.92624,-0.603496,-0.0963426,-0.189787,1,0,7.7175,0.805,-0.63,-0.663192,-0.166896,-1.19743,-0.07294,0.13314,0.48678
-12.8356,0,0,27.8356,27.8356,5,5,4.75392,-0.96084,3.9273,-0.603493,-0.0963622,-0.189785,1,0,2.8175,-0.0525,-0.28,-0.663192,-0.166896,-1.19743,-0.07294,0.13314,0.48678
-12.98,0,0,27.98,27.98,5,5,4.80741,-0.802005,3.82479,0.124836,-0.0477991,0.0606254,0,0,0.945,0.07,-0.84,0.071004,-0.119316,-0.948916,-0.07294,0.13314,0.48678
-13.1322,0,0,28.1322,28.1322,5,5,4.86378,-0.646191,3.72192,0.122117,-0.0468158,0.0605767,0,0,3.1325,0.1925,-1.4175,0.071004,-0.119316,-0.948916,-0.07294,0.13314,0.48678
-11.5103,0,0,26.5103,26.5103,5,5,4.26307,-0.252392,3.43449,0.352384,0.608939,0.229904,0,0,1.3475,-0.105,-1.19,0.309148,0.546194,-0.781776,-0.07294,0.13314,0.48678
-9.92354,0,0,24.9235,24.9235,5.07646,5.07646,3.67538,0.135052,3.13875,0.345622,0.598707,0.230621,0,0,4.4625,-0.8575,-1.96,0.309148,0.546194,-0.781776,-0.07294,0.13314,0.48678
-9.92972,0,0,24.9297,24.9297,5.07028,5.07028,3.67767,0.133322,3.1362,-0.142478,0.00924127,0.405451,1,0,4.725,-1.1025,-2.3275,-0.181048,-0.0427,-0.608292,-0.07294,0.13314,0.48678
-9.91474,0,0,24.9147,24.9147,5.08526,5.08526,3.67213,0.132549,3.13413,-0.142464,0.00914469,0.405457,1,0,0.3325,-0.525,-2.0825,-0.181048,-0.0427,-0.608292,-0.0714,0.1288,0.48314
-9.91014,0,0,24.9101,24.9101,5.08986,5.08986,3.67042,0.131901,3.1315,-0.0529178,0.218318,-0.215185,1,0,2.485,-0.4725,-2.415,-0.091134,0.166286,-1.22415,-0.0714,0.1288,0.48314
-9.9202,0,0,24.9202,24.9202,5.0798,5.0798,3.67415,0.131423,3.13089,-0.0529094,0.218383,-0.215189,1,0,5.53,-0.2975,-1.2425,-0.091134,0.166286,-1.22415,-0.0714,0.1288,0.48314
-9.93541,0,0,24.9354,24.9354,5.06459,5.06459,3.67978,0.13058,3.12945,0.480427,0.798827,-0.230318,1,0,6.5975,-0.5425,-1.715,0.444446,0.74603,-1.23915,-0.0714,0.1288,0.48314
-9.94337,0,0,24.9434,24.9434,5.05663,5.05663,3.68273,0.130382,3.12961,0.480431,0.798879,-0.230321,1,0,5.0925,-0.105,-0.805,0.444446,0.74603,-1.23915,-0.0714,0.1288,0.48314
-9.95797,0,0,24.958,24.958,5.04203,5.04203,3.68814,0.13073,3.13849,0.259321,-0.0561585,0.283966,1,0,6.4575,0.5425,4.2525,0.222406,-0.108214,-0.728828,-0.0714,0.1288,0.48314
-9.9533,0,0,24.9533,24.9533,5.0467,5.0467,3.68641,0.13083,3.14053,0.259319,-0.0561886,0.283968,1,0,2.4675,0.14,0.28,0.222406,-0.108214,-0.728828,-0.0714,0.1288,0.48314
-9.94433,0,0,24.9443,24.9443,5.05567,5.05567,3.68309,0.130282,3.14148,-0.575399,0.00396199,-0.0463905,1,0,1.575,-0.28,-0.3325,-0.615856,-0.048068,-1.05664,-0.0714,0.1288,0.48314
-9.94977,0,0,24.9498,24.9498,5.05023,5.05023,3.6851,0.129358,3.14223,-0.575383,0.00399709,-0.0463927,1,0,4.5675,-0.5075,-0.4375,-0.615856,-0.048068,-1.05664,-0.07616,0.12082,0.48426
-9.95167,0,0,24.9517,24.9517,5.04833,5.04833,3.6858,0.127948,3.14168,-0.0137304,0.742998,-0.35647,1,0,3.8325,-0.84,-1.1725,-0.05185,0.690154,-1.36433,-0.07616,0.12082,0.48426
-9.94969,0,0,24.9497,24.9497,5.05031,5.05031,3.68507,0.128265,3.14175,-0.0137359,0.742985,-0.356469,1,0,3.0275,0.1925,-0.875,-0.05185,0.690154,-1.36433,-0.07616,0.12082,0.48426
-9.9589,0,0,24.9589,24.9589,5.0411,5.0411,3.68848,0.127456,3.13977,1.14817,0.145723,-0.690278,1,0,5.355,-0.5425,-2.03,1.11496,0.093452,-1.69556,-0.07616,0.12082,0.48426
-9.96812,0,0,24.9681,24.9681,5.03188,5.03188,3.6919,0.126648,3.13779,1.14818,0.145782,-0.690281,1,0,5.355,-0.5425,-2.03,1.11496,0.093452,-1.69556,-0.07616,0.12082,0.48426
-9.94523,0,0,24.9452,24.9452,5.05477,5.05477,3.68342,0.125289,3.13646,0.318215,0.428114,-0.166634,1,0,-1.3125,-0.84,-1.6275,0.281454,0.375638,-1.17596,-0.07616,0.12082,0.48426
-9.92234,0,0,24.9223,24.9223,5.07766,5.07766,3.67494,0.123929,3.13514,0.318239,0.427966,-0.166625,1,0,-1.3125,-0.84,-1.6275,0.281454,0.375638,-1.17596,-0.07616,0.12082,0.48426
-9.93234,0,0,24.9323,24.9323,5.06766,5.06766,3.67864,0.123441,3.13609,-0.205964,-0.463617,-0.0650734,1,0,5.5125,-0.245,-0.3325,-0.244976,-0.515084,-1.07519,-0.07616,0.12082,0.48426
-9.94233,0,0,24.9423,24.9423,5.05767,5.05767,3.68234,0.122953,3.13705,-0.205955,-0.463552,-0.0650775,1,0,5.5125,-0.245,-0.3325,-0.244976,-0.515084,-1.07519,-0.0735,0.12432,0.4851
-9.96513,0,0,24.9651,24.9651,5.03487,5.03487,3.69079,0.130063,3.13807,0.551749,-0.414799,-0.366557,1,0,8.1725,4.2,-0.5775,0.51606,-0.466528,-1.37433,-0.0735,0.12432,0.4851
-9.98794,0,0,24.9879,24.9879,5.01206,5.01206,3.69924,0.137173,3.13909,0.551625,-0.414651,-0.366567,1,0,8.1725,4.2,-0.5775,0.51606,-0.466528,-1.37433,-0.0735,0.12432,0.4851
-9.98394,0,0,24.9839,24.9839,5.01606,5.01606,3.69775,0.137013,3.13959,0.765928,0.838099,-0.56193,1,0,2.6075,-0.07,-0.6125,0.731268,0.784948,-1.56819,-0.0735,0.12432,0.4851
-9.97994,0,0,24.9799,24.9799,5.02006,5.02006,3.69627,0.136853,3.14008,0.765931,0.838073,-0.561929,1,0,2.6075,-0.07,-0.6125,0.731268,0.784948,-1.56819,-0.0735,0.12432,0.4851
-10.9668,0,0,25.9668,25.9668,5,5,4.06176,0.0912188,3.20034,-0.0491706,-0.333231,0.149759,0,0,1.6975,0.385,-1.33,-0.088084,-0.391498,-0.861564,-0.0735,0.12432,0.4851
-11.9376,0,0,26.9376,26.9376,5,5,4.42132,0.0461702,3.25981,-0.0483843,-0.326972,0.149296,0,0,1.6975,0.385,-1.33,-0.088084,-0.391498,-0.861564,-0.0735,0.12432,0.4851
-11.9294,0,0,26.9294,26.9294,5,5,4.41828,0.0444063,3.25849,-0.496271,-1.24908,0.736133,1,0,1.7325,-1.085,-1.5925,-0.537898,-1.3126,-0.279258,-0.0735,0.12432,0.4851
-11.9198,0,0,26.9198,26.9198,5,5,4.41474,0.046169,3.25613,0.089259,0.957198,-0.527158,1,0,1.4525,0.9275,-2.3625,0.050142,0.891454,-1.53281,-0.0735,0.12432,0.4851
-11.9223,0,0,26.9223,26.9223,5,5,4.41566,0.0457247,3.25479,0.0892667,0.957214,-0.527159,1,0,3.955,-0.315,-1.6625,0.050142,0.891454,-1.53281,-0.07224,0.1211,0.4753
-11.9294,0,0,26.9294,26.9294,5,5,4.41829,0.0462217,3.25407,0.0683625,0.440297,-0.309175,1,0,4.9175,0.2625,-1.3475,0.029158,0.375028,-1.3165,-0.07224,0.1211,0.4753
-11.9433,0,0,26.9433,26.9433,5,5,4.42343,0.0457981,3.25286,0.0683699,0.440387,-0.309182,1,0,6.3175,-0.2975,-1.5925,0.029158,0.375028,-1.3165,-0.07224,0.1211,0.4753
-10.7697,0,0,25.7697,25.7697,5,5,3.98879,0.811647,2.63136,0.643602,0.452477,0.402163,0,0,5.25,0.2275,-1.2425,0.620248,0.39467,-0.611098,-0.07224,0.1211,0.4753
-9.6059,0,0,24.6059,24.6059,5.3941,5.3941,3.55774,1.56876,2.00078,0.630391,0.444954,0.402384,0,0,5.3725,0.035,-0.4725,0.620248,0.39467,-0.611098,-0.07224,0.1211,0.4753
-9.61228,0,0,24.6123,24.6123,5.38772,5.38772,3.56011,1.57187,2.00103,0.457098,-0.476696,0.101156,1,0,4.76,1.8375,-0.875,0.446276,-0.526064,-0.909998,-0.07224,0.1211,0.4753
-9.5939,0,0,24.5939,24.5939,5.4061,5.4061,3.5533,1.57207,2.00259,0.457094,-0.476814,0.101163,1,0,-0.4025,0.175,0,0.446276,-0.526064,-0.909998,-0.07224,0.1211,0.4753
-9.5742,0,0,24.5742,24.5742,5.4258,5.4258,3.546,1.57213,2.0034,-0.0423343,0.106214,-0.266076,1,0,-0.665,0.07,-0.4375,-0.055266,0.056486,-1.27441,-0.07224,0.1211,0.4753
-9.57497,0,0,24.575,24.575,5.42503,5.42503,3.54628,1.57131,2.00296,-0.04232,0.106219,-0.266076,1,0,3.605,-0.49,-1.1375,-0.055266,0.056486,-1.27441,-0.07224,0.12474,0.48482
-9.5693,0,0,24.5693,24.5693,5.4307,5.4307,3.54418,1.57121,2.00207,-1.04919,0.801816,0.135599,1,0,2.275,-0.0875,-1.4175,-1.0664,0.751398,-0.875838,-0.07224,0.12474,0.48482
-9.57253,0,0,24.5725,24.5725,5.42747,5.42747,3.54538,1.56978,2.00183,-1.04917,0.801837,0.135599,1,0,4.1125,-0.84,-0.9975,-1.0664,0.751398,-0.875838,-0.07224,0.12474,0.48482
-9.57457,0,0,24.5746,24.5746,5.42543,5.42543,3.54614,1.56953,2.00036,-0.519728,-0.219007,0.35125,1,0,3.885,-0.1925,-1.75,-0.534726,-0.2684,-0.66185,-0.07224,0.12474,0.48482
-9.54712,0,0,24.5471,24.5471,5.45288,5.45288,3.53597,1.56938,1.99788,-0.519725,-0.219184,0.351261,1,0,-2.2225,-0.175,-2.345,-0.534726,-0.2684,-0.66185,-0.07224,0.12474,0.48482
-9.52574,0,0,24.5257,24.5257,5.47426,5.47426,3.52805,1.56963,1.99654,0.465398,-0.288935,0.562863,1,0,-0.98,0.105,-1.6975,0.454572,-0.33794,-0.451888,-0.07224,0.12474,0.48482
-9.52821,0,0,24.5282,24.5282,5.47179,5.47179,3.52897,1.56863,1.99626,0.465416,-0.288919,0.562863,1,0,3.955,-0.595,-1.0325,0.454572,-0.33794,-0.451888,-0.07224,0.12474,0.48482
-8.28589,0,0,23.2859,23.2859,6.71411,6.71411,3.06885,1.48266,2.07682,-0.07321,0.471369,0.0777182,0,0,5.495,0.5425,-0.84,-0.08784,0.429562,-0.933788,-0.07224,0.12474,0.48482
-7.06222,0,0,22.0622,22.0622,7.93778,7.93778,2.61564,1.39311,2.16875,-0.0716475,0.463473,0.0781495,0,0,5.495,0.5425,-0.84,-0.08784,0.429562,-0.933788,-0.07084,0.11732,0.476
-7.07976,0,0,22.0798,22.0798,7.92024,7.92024,2.62213,1.40012,2.16957,-0.789872,-0.139232,-0.514102,1,0,7.07,4.13,-0.6125,-0.808982,-0.17263,-1.52146,-0.07084,0.11732,0.476
-7.0973,0,0,22.0973,22.0973,7.9027,7.9027,2.62863,1.40713,2.1704,-0.789994,-0.139119,-0.51411,1,0,7.07,4.13,-0.6125,-0.808982,-0.17263,-1.52146,-0.07084,0.11732,0.476
-7.08719,0,0,22.0872,22.0872,7.91281,7.91281,2.62488,1.41451,2.17232,0.0197008,0.234402,-0.516815,1,0,1.3125,4.375,0.0175,0.00427,0.200568,-1.52415,-0.07084,0.11732,0.476
-7.07708,0,0,22.0771,22.0771,7.92292,7.92292,2.62114,1.42189,2.17425,0.019572,0.234336,-0.516815,1,0,1.3125,4.375,0.0175,0.00427,0.200568,-1.52415,-0.07084,0.11732,0.476
-7.0722,0,0,22.0722,22.0722,7.9278,7.9278,2.61933,1.41461,2.17376,0.800731,0.574916,-0.358699,1,0,2.4325,-4.27,-0.9975,0.788608,0.540826,-1.36725,-0.07084,0.11732,0.476
-8.10758,0,0,23.1076,23.1076,6.89242,6.89242,3.00281,0.606834,2.8881,-0.669486,-0.34362,0.484771,0,0,0.245,-1.47,-0.98,-0.701988,-0.383446,-0.530212,-0.07084,0.11732,0.476
-9.16854,0,0,24.1685,24.1685,5.83146,5.83146,3.39575,-0.186697,3.58888,-0.655636,-0.33677,0.484439,0,0,8.2075,1.155,-1.75,-0.701988,-0.383446,-0.530212,-0.07084,0.11732,0.476
-9.15308,0,0,24.1531,24.1531,5.84692,5.84692,3.39003,-0.185663,3.58747,-0.192915,0.572486,-0.00993077,1,0,0.2275,0.56,-1.7675,-0.23729,0.524966,-1.02077,-0.07756,0.12306,0.48202
-9.1447,0,0,24.1447,24.1447,5.8553,5.8553,3.38693,-0.185497,3.58705,-0.192918,0.572432,-0.00992756,1,0,1.6975,0.0875,-1.155,-0.23729,0.524966,-1.02077,-0.07756,0.12306,0.48202
-9.21472,0,0,24.2147,24.2147,5.78528,5.78528,3.41286,0.379836,3.13641,0.494179,-0.0161344,0.116051,0,0,3.7625,-0.5425,-1.295,0.462624,-0.06344,-0.895724,-0.07756,0.12306,0.48202
-9.28194,0,0,24.2819,24.2819,5.71806,5.71806,3.43776,0.935319,2.68708,0.484484,-0.0157073,0.115914,0,0,3.7625,-0.5425,-1.295,0.462624,-0.06344,-0.895724,-0.07756,0.12306,0.48202
-8.29427,0,0,23.2943,23.2943,6.70573,6.70573,3.07195,1.43526,2.27848,0.466406,0.400346,0.12126,0,0,5.11,-0.42,0.0875,0.45323,0.358558,-0.8906,-0.07756,0.12306,0.48202
-8.31162,0,0,23.3116,23.3116,6.68838,6.68838,3.07838,1.43525,2.28018,-0.651384,-0.450033,-0.143208,1,0,7.0175,0.0525,0.0875,-0.669292,-0.49105,-1.15302,-0.07756,0.12306,0.48202
-8.28746,0,0,23.2875,23.2875,6.71254,6.71254,3.06943,1.43543,2.28124,-0.651387,-0.450189,-0.1432,1,0,-1.5925,0.14,-0.2975,-0.669292,-0.49105,-1.15302,-0.07756,0.12306,0.48202
-8.26431,0,0,23.2643,23.2643,6.73569,6.73569,3.06086,1.43614,2.28232,0.040462,0.57858,-0.347041,1,0,-1.3825,0.455,-0.2975,0.025498,0.5368,-1.3553,-0.07756,0.12306,0.48202
-8.26868,0,0,23.2687,23.2687,6.73132,6.73132,3.06247,1.43497,2.28397,0.0404824,0.578608,-0.347042,1,0,4.3225,-0.63,0.0875,0.025498,0.5368,-1.3553,-0.07462,0.12292,0.47782
-8.27463,0,0,23.2746,23.2746,6.72537,6.72537,3.06468,1.43692,2.28409,0.652979,0.809466,-0.601671,1,0,4.6725,1.155,-0.8925,0.640622,0.76738,-1.60796,-0.07462,0.12292,0.47782
-8.2731,0,0,23.2731,23.2731,6.7269,6.7269,3.06411,1.43266,2.2832,0.653054,0.809456,-0.601669,1,0,3.1325,-2.52,-1.295,0.640622,0.76738,-1.60796,-0.07462,0.12292,0.47782
-8.28625,0,0,23.2863,23.2863,6.71375,6.71375,3.06898,1.43001,2.28272,0.326911,-0.511748,-0.238851,1,0,6.1775,-1.5575,-1.1025,0.313052,-0.552538,-1.24794,-0.07462,0.12292,0.47782
-8.27857,0,0,23.2786,23.2786,6.72143,6.72143,3.06614,1.43043,2.27931,0.326903,-0.511798,-0.238848,1,0,1.89,0.14,-2.905,0.313052,-0.552538,-1.24794,-0.07462,0.12292,0.47782
-8.26458,0,0,23.2646,23.2646,6.73542,6.73542,3.06095,1.43046,2.27741,0.167635,-0.276183,-0.282613,1,0,0.56,-0.035,-2.0125,0.15311,-0.317078,-1.29137,-0.07462,0.12292,0.47782
-8.26815,0,0,23.2682,23.2682,6.73185,6.73185,3.06228,1.43031,2.27608,0.167638,-0.27616,-0.282614,1,0,4.2,-0.1225,-1.68,0.15311,-0.317078,-1.29137,-0.07462,0.12292,0.47782
-8.27735,0,0,23.2773,23.2773,6.72265,6.72265,3.06568,1.43043,2.27433,-0.116398,-0.0581047,-0.327125,1,0,5.3725,0.0175,-1.925,-0.132126,-0.099308,-1.33553,-0.07462,0.12292,0.47782
-8.27663,0,0,23.2766,23.2766,6.72337,6.72337,3.06542,1.42922,2.27435,-0.116377,-0.0581093,-0.327124,1,0,3.29,-0.7,-0.8575,-0.132126,-0.099308,-1.33553,-0.07238,0.12348,0.47978
-8.2846,0,0,23.2846,23.2846,6.7154,6.7154,3.06837,1.427,2.27558,0.327814,-0.552793,-0.746872,1,0,5.075,-1.26,-0.1225,0.313906,-0.59353,-1.75204,-0.07238,0.12348,0.47978
-8.28842,0,0,23.2884,23.2884,6.71158,6.71158,3.06979,1.42911,2.27668,0.327777,-0.552769,-0.746875,1,0,4.2175,1.2775,-0.3325,0.313906,-0.59353,-1.75204,-0.07238,0.12348,0.47978
-8.27743,0,0,23.2774,23.2774,6.72257,6.72257,3.06571,1.42933,2.27797,0.270189,0.176623,-0.511179,1,0,1.1375,0.175,-0.1575,0.256078,0.135176,-1.51817,-0.07238,0.12348,0.47978
-8.27054,0,0,23.2705,23.2705,6.72946,6.72946,3.06316,1.42757,2.27901,0.270219,0.176579,-0.511175,1,0,1.995,-0.9975,-0.245,0.256078,0.135176,-1.51817,-0.07238,0.12348,0.47978
-8.26593,0,0,23.2659,23.2659,6.73407,6.73407,3.06145,1.425,2.27992,0.34352,-0.128645,0.46676,1,0,2.4675,-1.47,-0.2975,0.329644,-0.169702,-0.54778,-0.07238,0.12348,0.47978
-8.26088,0,0,23.2609,23.2609,6.73912,6.73912,3.05958,1.42601,2.27811,0.343502,-0.128678,0.466761,1,0,2.415,0.5425,-1.995,0.329644,-0.169702,-0.54778,-0.07238,0.12348,0.47978
-8.25372,0,0,23.2537,23.2537,6.74628,6.74628,3.05693,1.42379,2.27756,0.536946,-0.953446,0.621925,1,0,1.96,-1.3125,-1.155,0.523868,-0.993568,-0.393816,-0.07238,0.12348,0.47978
-8.26353,0,0,23.2635,23.2635,6.73647,6.73647,3.06057,1.42388,2.27624,0.536945,-0.953383,0.621922,1,0,5.495,0.0175,-1.68,0.523868,-0.993568,-0.393816,-0.07812,0.11662,0.47516
-8.25149,0,0,23.2515,23.2515,6.74851,6.74851,3.05611,1.42359,2.27321,0.0841728,-0.0157713,0.312711,1,0,0.98,-0.2625,-2.66,0.069174,-0.056852,-0.700646,-0.07812,0.11662,0.47516
-8.24585,0,0,23.2458,23.2458,6.75415,6.75415,3.05402,1.42367,2.27264,0.0841714,-0.0158077,0.312713,1,0,2.275,0.035,-1.2425,0.069174,-0.056852,-0.700646,-0.07812,0.11662,0.47516
-8.2511,0,0,23.2511,23.2511,6.7489,6.7489,3.05596,1.42194,2.27242,-0.136052,-0.0559535,-0.211418,1,0,4.5325,-1.015,-0.98,-0.152012,-0.09699,-1.22073,-0.07812,0.11662,0.47516
-8.27019,0,0,23.2702,23.2702,6.72981,6.72981,3.06303,1.42499,2.27122,-0.136105,-0.0558303,-0.211426,1,0,7.42,1.75,-1.6975,-0.152012,-0.09699,-1.22073,-0.07812,0.11662,0.47516
-8.27869,0,0,23.2787,23.2787,6.72131,6.72131,3.06618,1.42338,2.27155,-0.125143,0.615189,-0.183765,1,0,5.1975,-0.9275,-0.665,-0.141032,0.573278,-1.19328,-0.07812,0.11662,0.47516
-8.29163,0,0,23.2916,23.2916,6.70837,6.70837,3.07098,1.42368,2.27297,-0.125149,0.615272,-0.183769,1,0,6.1075,0.2275,-0.0875,-0.141032,0.573278,-1.19328,-0.07812,0.11662,0.47516
-8.29083,0,0,23.2908,23.2908,6.70917,6.70917,3.07068,1.42553,2.27412,-0.291738,1.15262,0.109708,1,0,3.255,1.12,-0.2975,-0.308294,1.11008,-0.902068,-0.07812,0.11662,0.47516
-8.27522,0,0,23.2752,23.2752,6.72478,6.72478,3.0649,1.42785,2.27574,-0.291778,1.15252,0.109713,1,0,0.175,1.4175,-0.035,-0.308294,1.11008,-0.902068,-0.07602,0.11942,0.47432
-8.26302,0,0,23.263,23.263,6.73698,6.73698,3.06038,1.42761,2.27791,-0.0382335,0.0320546,0.163937,1,0,0.875,-0.07,0.3675,-0.05368,-0.00915,-0.848266,-0.07602,0.11942,0.47432
-8.26384,0,0,23.2638,23.2638,6.73616,6.73616,3.06068,1.42902,2.27819,-0.0382581,0.0320598,0.163936,1,0,3.605,0.84,-0.7875,-0.05368,-0.00915,-0.848266,-0.07602,0.11942,0.47432
-8.26349,0,0,23.2635,23.2635,6.73651,6.73651,3.06055,1.43046,2.27742,0.00581609,0.0915333,0.679705,1,0,3.3775,0.8225,-1.4,-0.009394,0.050264,-0.336476,-0.07602,0.11942,0.47432
-8.27813,0,0,23.2781,23.2781,6.72187,6.72187,3.06597,1.42781,2.27757,0.0058623,0.0916278,0.679701,1,0,6.475,-1.54,-0.735,-0.009394,0.050264,-0.336476,-0.07602,0.11942,0.47432
-7.77454,0,0,22.7745,22.7745,7.22546,7.22546,2.87946,1.28149,2.4206,-0.123032,0.188647,0.0362947,0,0,6.09,0.8925,-1.785,-0.141398,0.150426,-0.975146,-0.07602,0.11942,0.47432
-7.25388,0,0,22.2539,22.2539,7.74612,7.74612,2.68662,1.13677,2.56391,-0.120507,0.185289,0.0365113,0,0,0.805,0.175,-1.995,-0.141398,0.150426,-0.975146,-0.07602,0.11942,0.47432
-6.34716,0,0,21.3472,21.3472,8.65284,8.65284,2.3508,1.04504,2.66408,-0.0766291,0.355787,-0.0246749,0,0,1.155,-0.14,-1.3475,-0.098942,0.326594,-1.03615,-0.07602,0.11942,0.47432
-5.45943,0,0,20.4594,20.4594,9.54057,9.54057,2.02201,0.954768,2.76562,-0.0750538,0.350054,-0.0244286,0,0,2.0475,-0.28,-1.1725,-0.098942,0.326594,-1.03615,-0.07602,0.11942,0.47432
-5.46187,0,0,20.4619,20.4619,9.53813,9.53813,2.02291,0.956475,2.76444,-0.340044,0.342742,-0.272048,1,0,3.955,0.98,-1.6275,-0.365024,0.319274,-1.28185,-0.07154,0.12054,0.47642
-7.0098,0,0,22.0098,22.0098,7.9902,7.9902,2.59622,1.14939,2.61311,0.158811,-0.58361,0.206126,0,0,3.465,-1.4,0.2975,0.139324,-0.6161,-0.806908,-0.07154,0.12054,0.47642
-8.54767,0,0,23.5477,23.5477,6.45233,6.45233,3.16581,1.34256,2.46519,0.155441,-0.573687,0.205553,0,0,5.845,0.91,-0.14,0.139324,-0.6161,-0.806908,-0.07154,0.12054,0.47642
-8.5382,0,0,23.5382,23.5382,6.4618,6.4618,3.1623,1.34389,2.46532,0.0345394,-0.10295,0.185638,1,0,1.47,0.7875,-0.875,0.017934,-0.14579,-0.826672,-0.07154,0.12054,0.47642
-8.52728,0,0,23.5273,23.5273,6.47272,6.47272,3.15825,1.34342,2.46778,0.0345476,-0.10302,0.185642,1,0,1.1375,-0.1925,0.5425,0.017934,-0.14579,-0.826672,-0.07154,0.12054,0.47642
-8.51967,0,0,23.5197,23.5197,6.48033,6.48033,3.15543,1.34189,2.46937,-0.398158,-0.715901,0.210604,1,0,1.8375,-0.84,0.07,-0.41663,-0.757986,-0.801906,-0.07154,0.12054,0.47642
-8.517,0,0,23.517,23.517,6.483,6.483,3.15444,1.34331,2.46782,-0.398183,-0.715919,0.210604,1,0,2.905,0.7875,-1.855,-0.41663,-0.757986,-0.801906,-0.07154,0.12054,0.47642
-7.2213,0,0,22.2213,22.2213,7.7787,7.7787,2.67456,1.26616,2.54528,-0.0572838,0.469143,0.134956,0,0,2.1525,-1.3475,-2.17,-0.07564,0.434198,-0.877424,-0.07154,0.12054,0.47642
-5.95068,0,0,20.9507,20.9507,9.04932,9.04932,2.20396,1.19515,2.62017,-0.0560448,0.46094,0.135332,0,0,3.2025,-0.0525,-1.3125,-0.07564,0.434198,-0.877424,-0.07336,0.12502,0.47404
-5.95322,0,0,20.9532,20.9532,9.04678,9.04678,2.2049,1.19588,2.61806,0.0710165,0.835763,-0.0494608,1,0,3.99,0.385,-2.1525,0.051972,0.808616,-1.06079,-0.07336,0.12502,0.47404
-5.94345,0,0,20.9435,20.9435,9.05655,9.05655,2.20128,1.19745,2.61595,0.0709892,0.8357,-0.0494589,1,0,1.435,0.875,-2.17,0.051972,0.808616,-1.06079,-0.07336,0.12502,0.47404
-6.058,0,0,21.058,21.058,8.942,8.942,2.2437,0.843282,2.93628,-0.338433,-0.0498296,-0.0233126,0,0,3.5875,-0.455,-1.6975,-0.36539,-0.076738,-1.03493,-0.07336,0.12502,0.47404
-6.17371,0,0,21.1737,21.1737,8.82629,8.82629,2.28656,0.498601,3.25466,-0.332418,-0.0490795,-0.0232717,0,0,4.305,1.2425,-2.1,-0.36539,-0.076738,-1.03493,-0.07336,0.12502,0.47404
-5.05317,0,0,20.0532,20.0532,9.94683,9.94683,1.87154,0.253353,3.49941,-0.197905,0.399216,0.150008,0,0,3.9375,1.155,-2.0825,-0.234606,0.378322,-0.863272,-0.07336,0.12502,0.47404
-3.937,0,0,18.937,18.937,11.063,11.063,1.45815,0.00792118,3.75002,-0.193621,0.392004,0.150227,0,0,1.3825,-1.33,-0.4725,-0.234606,0.378322,-0.863272,-0.07336,0.12502,0.47404
-3.92541,0,0,18.9254,18.9254,11.0746,11.0746,1.45386,0.00940888,3.75113,-0.359232,0.159766,0.311414,1,0,1.0325,0.8925,-0.28,-0.400892,0.1464,-0.70333,-0.07336,0.12502,0.47404
-3.90143,0,0,18.9014,18.9014,11.0986,11.0986,1.44498,0.00921429,3.75142,-0.359229,0.159611,0.311418,1,0,-1.54,-0.105,-0.735,-0.400892,0.1464,-0.70333,-0.07392,0.11942,0.47586
-3.88765,0,0,18.8877,18.8877,11.1123,11.1123,1.43987,0.0103726,3.75139,-0.112147,-0.0327052,0.241709,1,0,0.5775,0.6825,-0.945,-0.152744,-0.045628,-0.772504,-0.07392,0.11942,0.47586
-3.87927,0,0,18.8793,18.8793,11.1207,11.1207,1.43677,0.008563,3.75292,-0.112115,-0.0327593,0.24171,1,0,1.6975,-1.0325,0.0175,-0.152744,-0.045628,-0.772504,-0.07392,0.11942,0.47586
-3.72708,0,0,18.7271,18.7271,11.2729,11.2729,1.3804,0.490457,3.36451,0.446934,0.0695755,0.0814958,0,0,7.455,0.91,-1.2775,0.417118,0.057584,-0.93147,-0.07392,0.11942,0.47586
-3.54899,0,0,18.549,18.549,11.451,11.451,1.31444,0.960552,2.97529,0.43873,0.0684223,0.081419,0,0,1.785,-1.2425,-1.4175,0.417118,0.057584,-0.93147,-0.07392,0.11942,0.47586
-3.56168,0,0,18.5617,18.5617,11.4383,11.4383,1.31914,0.957999,2.9755,0.0241436,-0.52552,-0.142594,1,0,6.0725,-1.4875,-0.7525,0.000732,-0.535824,-1.15375,-0.07392,0.11942,0.47586
-3.56729,0,0,18.5673,18.5673,11.4327,11.4327,1.32122,0.960136,2.97188,0.0241063,-0.525484,-0.142596,1,0,4.6375,1.2075,-3.045,0.000732,-0.535824,-1.15375,-0.07392,0.11942,0.47586
-3.61554,0,0,18.6155,18.6155,11.3845,11.3845,1.33909,1.55007,2.46929,0.556489,-0.0223816,0.125322,0,0,-0.1575,0.7,-2.0825,0.545706,-0.03355,-0.887672,-0.07392,0.11942,0.47586
-3.65905,0,0,18.6591,18.6591,11.3409,11.3409,1.35521,2.13114,1.97805,0.546353,-0.0221083,0.12499,0,0,-0.805,-0.245,-0.7175,0.545706,-0.03355,-0.887672,-0.0763,0.11382,0.46858
-3.6527,0,0,18.6527,18.6527,11.3473,11.3473,1.35285,2.13076,1.97731,-0.274884,-0.0220271,-0.315287,1,0,2.135,-0.2275,-1.33,-0.279014,-0.033428,-1.32455,-0.0763,0.11382,0.46858
-3.65683,0,0,18.6568,18.6568,11.3432,11.3432,1.35438,2.13185,1.97769,-0.274903,-0.0220005,-0.315289,1,0,4.2875,0.6475,-0.7,-0.279014,-0.033428,-1.32455,-0.0763,0.11382,0.46858
-3.65789,0,0,18.6579,18.6579,11.3421,11.3421,1.35477,2.12995,1.97947,-0.226761,-0.306183,-0.313935,1,0,3.6225,-1.085,0.1575,-0.230702,-0.317322,-1.32321,-0.0763,0.11382,0.46858
-3.67164,0,0,18.6716,18.6716,11.3284,11.3284,1.35987,2.13216,1.98168,-0.2268,-0.306094,-0.313939,1,0,6.2475,1.33,0.35,-0.230702,-0.317322,-1.32321,-0.0763,0.11382,0.46858
-4.25577,0,0,19.2558,19.2558,10.7442,10.7442,1.57621,2.22642,1.9239,0.0747844,-0.215247,0.058436,0,0,1.505,1.1725,0.21,0.07381,-0.230336,-0.953552,-0.0763,0.11382,0.46858
-4.83123,0,0,19.8312,19.8312,10.1688,10.1688,1.78934,2.31626,1.86689,0.0732177,-0.211534,0.0582647,0,0,1.715,-0.28,0.315,0.07381,-0.230336,-0.953552,-0.0763,0.11382,0.46858
-4.80664,0,0,19.8066,19.8066,10.1934,10.1934,1.78024,2.3146,1.86903,-0.0281939,0.177281,0.203227,1,0,-1.715,-0.9275,0.3675,-0.02806,0.158234,-0.809714,-0.0763,0.11382,0.46858
-4.79413,0,0,19.7941,19.7941,10.2059,10.2059,1.77561,2.31424,1.87066,-0.0281877,0.177201,0.20323,1,0,0.805,-0.175,0.0525,-0.02806,0.158234,-0.809714,-0.07126,0.1232,0.46606
-4.78157,0,0,19.7816,19.7816,10.2184,10.2184,1.77095,2.31434,1.87099,-0.328259,-0.162149,0.554742,1,0,0.8225,0.07,-0.7175,-0.3294,-0.180682,-0.460916,-0.07126,0.1232,0.46606
-4.76987,0,0,19.7699,19.7699,10.2301,10.2301,1.76662,2.31286,1.87226,-0.328233,-0.162224,0.554745,1,0,0.98,-0.84,-0.14,-0.3294,-0.180682,-0.460916,-0.07126,0.1232,0.46606
-4.77196,0,0,19.772,19.772,10.228,10.228,1.76739,2.31329,1.87169,-1.07125,0.0126749,0.36233,1,0,3.885,0.245,-1.2425,-1.07555,-0.005978,-0.651846,-0.07126,0.1232,0.46606
-4.76105,0,0,19.761,19.761,10.239,10.239,1.76335,2.31407,1.86943,-1.07126,0.0126045,0.362332,1,0,1.225,0.42,-2.24,-1.07555,-0.005978,-0.651846,-0.07126,0.1232,0.46606
-4.7581,0,0,19.7581,19.7581,10.2419,10.2419,1.76226,2.31213,1.86906,0.223567,0.243771,0.333441,1,0,2.835,-1.1375,-1.085,0.224724,0.224968,-0.680516,-0.07126,0.1232,0.46606
-4.74495,0,0,19.7449,19.7449,10.2551,10.2551,1.75739,2.3124,1.8678,0.223563,0.243686,0.333443,1,0,0.735,0.14,-1.645,0.224724,0.224968,-0.680516,-0.07126,0.1232,0.46606
-4.76038,0,0,19.7604,19.7604,10.2396,10.2396,1.7631,2.31361,1.86522,-0.020523,0.0880745,0.248728,1,0,6.7025,0.665,-2.4325,-0.020374,0.069418,-0.764574,-0.07126,0.1232,0.46606
-4.76536,0,0,19.7654,19.7654,10.2346,10.2346,1.76495,2.31156,1.86647,-0.0204873,0.0881067,0.248728,1,0,4.445,-1.1725,-0.14,-0.020374,0.069418,-0.764574,-0.07126,0.1232,0.46606
-4.76998,0,0,19.77,19.77,10.23,10.23,1.76666,2.31048,1.86823,-0.00285305,-0.409164,-0.123437,1,0,4.3575,-0.595,0.14,-0.002684,-0.427366,-1.13387,-0.06888,0.11998,0.46872
-4.75047,0,0,19.7505,19.7505,10.2495,10.2495,1.75943,2.31327,1.86747,-0.00290179,-0.40929,-0.123435,1,0,-0.595,1.6275,-1.4,-0.002684,-0.427366,-1.13387,-0.06888,0.11998,0.46872
-4.73227,0,0,19.7323,19.7323,10.2677,10.2677,1.75269,2.31402,1.86713,-0.0167642,-0.258092,-0.210356,1,0,-0.3325,0.4375,-1.12,-0.016592,-0.276208,-1.22012,-0.06888,0.11998,0.46872
-4.71827,0,0,19.7183,19.7183,10.2817,10.2817,1.74751,2.31358,1.86582,-0.0167564,-0.258182,-0.210353,1,0,0.56,-0.28,-1.6625,-0.016592,-0.276208,-1.22012,-0.06888,0.11998,0.46872
-4.71352,0,0,19.7135,19.7135,10.2865,10.2865,1.74575,2.31284,1.86438,-0.204682,-0.627524,-0.186992,1,0,2.485,-0.455,-1.7325,-0.205326,-0.645136,-1.19694,-0.06888,0.11998,0.46872
-4.7075,0,0,19.7075,19.7075,10.2925,10.2925,1.74352,2.31477,1.86131,-0.204716,-0.627563,-0.186992,1,0,2.2575,1.085,-2.73,-0.205326,-0.645136,-1.19694,-0.06888,0.11998,0.46872
-4.69672,0,0,19.6967,19.6967,10.3033,10.3033,1.73953,2.31286,1.86025,0.666613,-0.557288,0.0444007,1,0,1.225,-1.1375,-1.4875,0.669658,-0.574864,-0.967338,-0.06888,0.11998,0.46872
-4.70079,0,0,19.7008,19.7008,10.2992,10.2992,1.74103,2.31274,1.85703,0.666615,-0.557261,0.0444,1,0,4.3575,-0.1225,-2.7825,0.669658,-0.574864,-0.967338,-0.06888,0.11998,0.46872
-4.68538,0,0,19.6854,19.6854,10.3146,10.3146,1.73533,2.31465,1.85363,0.540723,0.474121,-0.461654,1,0,0.315,1.0675,-2.9225,0.543266,0.455548,-1.46949,-0.07294,0.12138,0.47642
-4.68043,0,0,19.6804,19.6804,10.3196,10.3196,1.73349,2.3132,1.85192,-0.0293845,0.016847,0.455297,1,0,2.45,-0.875,-1.8725,-0.02928,-0.00122,-0.559614,-0.07294,0.12138,0.47642
-4.66683,0,0,19.6668,19.6668,10.3332,10.3332,1.72845,2.31332,1.84964,-0.0293866,0.0167592,0.4553,1,0,0.665,0.035,-2.24,-0.02928,-0.00122,-0.559614,-0.07294,0.12138,0.47642
-4.67222,0,0,19.6722,19.6722,10.3278,10.3278,1.73045,2.31188,1.8477,0.152381,-0.201202,0.198215,1,0,4.6025,-0.875,-2.0125,0.153232,-0.21899,-0.814716,-0.07294,0.12138,0.47642
-4.65702,0,0,19.657,19.657,10.343,10.343,1.72482,2.3102,1.84782,0.152411,-0.2013,0.198219,1,0,0.28,-0.98,-0.805,0.153232,-0.21899,-0.814716,-0.07294,0.12138,0.47642
-5.65481,0,0,20.6548,20.6548,9.34519,9.34519,2.09437,2.48488,1.70168,0.170989,-0.405899,0.0304208,0,0,3.7275,-1.61,0.56,0.174948,-0.429806,-0.98088,-0.07294,0.12138,0.47642
-6.62919,0,0,21.6292,21.6292,8.37081,8.37081,2.45526,2.66138,1.55604,0.167912,-0.399617,0.0300329,0,0,2.1175,1.365,-0.6125,0.174948,-0.429806,-0.98088,-0.07294,0.12138,0.47642
-6.84937,0,0,21.8494,21.8494,8.15063,8.15063,2.5368,2.31523,1.85882,-0.324023,-0.0898151,0.00699573,0,0,2.5375,1.2075,-0.5075,-0.32513,-0.121756,-1.00394,-0.07294,0.12138,0.47642
-7.06418,0,0,22.0642,22.0642,7.93582,7.93582,2.61636,1.96929,2.15607,-0.317989,-0.0884188,0.00715882,0,0,2.275,-0.5775,1.1725,-0.32513,-0.121756,-1.00394,-0.07798,0.12628,0.4739
-7.06446,0,0,22.0645,22.0645,7.93554,7.93554,2.61647,1.97015,2.15868,-0.49428,-0.232527,0.293136,1,0,3.4475,0.5775,0.595,-0.502152,-0.265716,-0.720166,-0.07798,0.12628,0.4739
-7.07306,0,0,22.0731,22.0731,7.92694,7.92694,2.61965,1.971,2.1601,-0.494295,-0.232471,0.293133,1,0,5.1975,0.5425,-0.105,-0.502152,-0.265716,-0.720166,-0.07798,0.12628,0.4739
-6.63614,0,0,21.6361,21.6361,8.36386,8.36386,2.45783,2.67337,1.55485,0.672961,0.183338,0.192313,0,0,1.085,0.525,0.035,0.682346,0.1525,-0.81984,-0.07798,0.12628,0.4739
-6.21272,0,0,21.2127,21.2127,8.78728,8.78728,2.30101,3.36429,0.946922,0.660919,0.180581,0.191792,0,0,3.3075,-0.2275,0.105,0.682346,0.1525,-0.81984,-0.07798,0.12628,0.4739
-5.03891,0,0,20.0389,20.0389,9.96109,9.96109,1.86626,3.90756,0.446718,0.509075,0.479041,0.189254,0,0,-1.0675,0.63,-0.7525,0.539362,0.458232,-0.822036,-0.07798,0.12628,0.4739
-3.88169,0,0,18.8817,18.8817,11.1183,11.1183,1.43766,4.44172,-0.0597678,0.499777,0.471564,0.18879,0,0,-0.1575,-0.105,-0.4025,0.539362,0.458232,-0.822036,-0.07798,0.12628,0.4739
-3.86879,0,0,18.8688,18.8688,11.1312,11.1312,1.43288,4.44027,-0.0592091,-0.134596,0.918465,-0.574347,1,0,0.735,-0.84,-0.56,-0.097722,0.904752,-1.57929,-0.07798,0.12628,0.4739
-3.87344,0,0,18.8734,18.8734,11.1266,11.1266,1.43461,4.44189,-0.0589039,-0.134624,0.918495,-0.57435,1,0,4.3925,0.9625,-0.7525,-0.097722,0.904752,-1.57929,-0.0756,0.12348,0.47236
-3.89225,0,0,18.8922,18.8922,11.1078,11.1078,1.44157,4.44038,-0.0586475,-0.312574,1.34276,-0.88873,1,0,7.3325,-0.875,-0.735,-0.276452,1.32846,-1.89124,-0.0756,0.12348,0.47236
-3.89182,0,0,18.8918,18.8918,11.1082,11.1082,1.44141,4.43957,-0.0572906,-0.31256,1.34276,-0.888729,1,0,3.29,-0.455,-0.105,-0.276452,1.32846,-1.89124,-0.0756,0.12348,0.47236
-3.90696,0,0,18.907,18.907,11.093,11.093,1.44702,4.43934,-0.0556179,0.828559,0.240297,-0.801807,1,0,6.51,-0.105,0.07,0.869494,0.227042,-1.80499,-0.0756,0.12348,0.47236
-3.89238,0,0,18.8924,18.8924,11.1076,11.1076,1.44162,4.44184,-0.0558018,0.828516,0.240203,-0.801808,1,0,0.42,1.47,-1.05,0.869494,0.227042,-1.80499,-0.0756,0.12348,0.47236
-3.88479,0,0,18.8848,18.8848,11.1152,11.1152,1.43881,4.44304,-0.0548454,0.515305,-0.321995,-0.474888,1,0,1.82,0.7175,-0.3675,0.554978,-0.334524,-1.48059,-0.0756,0.12348,0.47236
-3.86677,0,0,18.8668,18.8668,11.1332,11.1332,1.43214,4.44286,-0.0541342,0.515308,-0.322111,-0.474885,1,0,-0.3325,-0.0875,-0.49,0.554978,-0.334524,-1.48059,-0.0756,0.12348,0.47236
-3.85918,0,0,18.8592,18.8592,11.1408,11.1408,1.42932,4.44389,-0.0548071,-0.00236066,-1.06591,0.115268,1,0,1.89,0.595,-1.3125,0.035136,-1.0775,-0.894992,-0.0756,0.12348,0.47236
-3.86457,0,0,18.8646,18.8646,11.1354,11.1354,1.43132,4.44335,-0.0574148,-0.00235126,-1.06588,0.115268,1,0,4.6725,-0.35,-2.415,0.035136,-1.0775,-0.894992,-0.07182,0.12432,0.48258
-3.86448,0,0,18.8645,18.8645,11.1355,11.1355,1.43129,4.44436,-0.0588703,0.52901,-0.515086,0.13211,1,0,3.4825,0.5775,-1.7675,0.568764,-0.527284,-0.878278,-0.07182,0.12432,0.48258
-3.87806,0,0,18.8781,18.8781,11.1219,11.1219,1.43632,4.44511,-0.0618368,0.528996,-0.514999,0.132107,1,0,6.3875,0.4025,-2.6425,0.568764,-0.527284,-0.878278,-0.07182,0.12432,0.48258
-3.86332,0,0,18.8633,18.8633,11.1367,11.1367,1.43086,4.44717,-0.0668165,-0.993012,-0.105237,-0.148093,1,0,0.595,1.1375,-3.8325,-0.959652,-0.117852,-1.15632,-0.07182,0.12432,0.48258
-3.85104,0,0,18.851,18.851,11.149,11.149,1.42631,4.44746,-0.0701559,-0.993017,-0.105316,-0.148091,1,0,1.0325,0.1225,-2.8525,-0.959652,-0.117852,-1.15632,-0.07182,0.12432,0.48258
-3.83223,0,0,18.8322,18.8322,11.1678,11.1678,1.41935,4.44721,-0.0728162,0.0244298,1.02033,-0.540048,1,0,-0.35,-0.175,-2.45,0.062098,1.00674,-1.54525,-0.07182,0.12432,0.48258
-3.8266,0,0,18.8266,18.8266,11.1734,11.1734,1.41726,4.44662,-0.0757862,0.0244401,1.02029,-0.540046,1,0,2.3975,-0.385,-2.625,0.062098,1.00674,-1.54525,-0.07182,0.12432,0.48258
-3.82328,0,0,18.8233,18.8233,11.1767,11.1767,1.41603,4.44389,-0.0781472,0.664596,0.724479,-0.0610347,1,0,2.8525,-1.6275,-2.24,0.704916,0.71126,-1.06994,-0.07182,0.12432,0.48258
-3.82197,0,0,18.822,18.822,11.178,11.178,1.41555,4.44354,-0.0797573,0.664602,0.72447,-0.061034,1,0,3.2375,-0.2275,-1.8375,0.704916,0.71126,-1.06994,-0.07182,0.12432,0.48258
-3.83637,0,0,18.8364,18.8364,11.1636,11.1636,1.42088,4.44346,-0.0804578,0.221666,0.0445615,0.178222,1,0,6.4575,-0.0525,-1.3125,0.260104,0.031964,-0.832528,-0.07686,0.12334,0.48062
-3.83808,0,0,18.8381,18.8381,11.1619,11.1619,1.42151,4.44494,-0.0805477,0.322109,-0.732764,-0.0754234,1,0,3.7975,0.875,-0.98,0.360998,-0.744566,-1.08421,-0.07686,0.12334,0.48062
-3.85113,0,0,18.8511,18.8511,11.1489,11.1489,1.42634,4.44668,-0.0796083,0.322079,-0.73268,-0.0754279,1,0,6.1075,1.0325,-0.385,0.360998,-0.744566,-1.08421,-0.07686,0.12334,0.48062
-3.84502,0,0,18.845,18.845,11.155,11.155,1.42408,4.44743,-0.0787837,0.286592,-0.545133,0.101741,1,0,2.135,0.455,-0.4375,0.325374,-0.557174,-0.908412,-0.07686,0.12334,0.48062
-3.84277,0,0,18.8428,18.8428,11.1572,11.1572,1.42325,4.44462,-0.0768442,0.286641,-0.545147,0.101745,1,0,2.8875,-1.61,0.2625,0.325374,-0.557174,-0.908412,-0.07686,0.12334,0.48062
-3.83806,0,0,18.8381,18.8381,11.1619,11.1619,1.4215,4.44167,-0.0749985,0.0176016,0.801758,0.114413,1,0,2.38,-1.6975,0.21,0.055144,0.788364,-0.895846,-0.07686,0.12334,0.48062
-3.83127,0,0,18.8313,18.8313,11.1687,11.1687,1.41899,4.44194,-0.074216,0.0175969,0.801714,0.114414,1,0,1.995,0.175,-0.455,0.055144,0.788364,-0.895846,-0.07686,0.12334,0.48062
-2.65478,0,0,17.6548,17.6548,12.3452,12.3452,0.983253,4.96853,-0.588666,0.483932,0.478546,0.218571,0,0,3.57,0.1225,-0.875,0.532652,0.473116,-0.791902,-0.07686,0.12334,0.48062
-1.47591,0,0,16.4759,16.4759,13.5241,13.5241,0.546635,5.48539,-1.10697,0.474949,0.470947,0.217851,0,0,0.5775,-0.6125,-0.56,0.532652,0.473116,-0.791902,-0.07784,0.12124,0.48076
-1.47412,0,0,16.4741,16.4741,13.5259,13.5259,0.54597,5.48535,-1.10626,0.163582,0.12837,0.272194,1,0,3.0275,-0.0175,-0.49,0.219966,0.130906,-0.737978,-0.07784,0.12124,0.48076
-1.46931,0,0,16.4693,16.4693,13.5307,13.5307,0.544187,5.48674,-1.10613,0.163557,0.128339,0.272192,1,0,2.4325,0.8225,-0.84,0.219966,0.130906,-0.737978,-0.07784,0.12124,0.48076
-1.47744,0,0,16.4774,16.4774,13.5226,13.5226,0.547199,5.4862,-1.10581,-0.870155,-0.173506,-0.0640713,1,0,5.11,-0.315,-0.7175,-0.818132,-0.170678,-1.07165,-0.07784,0.12124,0.48076
-1.48283,0,0,16.4828,16.4828,13.5172,13.5172,0.549195,5.4856,-1.10338,-0.870144,-0.173472,-0.0640706,1,0,4.4275,-0.3325,0.5075,-0.818132,-0.170678,-1.07165,-0.07784,0.12124,0.48076
-1.48483,0,0,16.4848,16.4848,13.5152,13.5152,0.549938,5.48703,-1.10133,-0.708107,0.287081,-0.216038,1,0,3.745,0.8575,0.28,-0.655384,0.289384,-1.22244,-0.07784,0.12124,0.48076
-1.482,0,0,16.482,16.482,13.518,13.518,0.548888,5.48988,-1.10007,-0.708157,0.287063,-0.216042,1,0,2.7825,1.68,-0.1925,-0.655384,0.289384,-1.22244,-0.07784,0.12124,0.48076
-1.47763,0,0,16.4776,16.4776,13.5224,13.5224,0.54727,5.4906,-1.09757,-0.254056,-0.24959,-0.59829,1,0,2.3975,0.4375,0.5425,-0.199348,-0.246684,-1.60174,-0.07784,0.12124,0.48076
-1.47863,0,0,16.4786,16.4786,13.5214,13.5214,0.547639,5.49311,-1.09583,-0.2541,-0.249584,-0.598294,1,0,3.5525,1.4875,0.0875,-0.199348,-0.246684,-1.60174,-0.07364,0.1274,0.48132
-1.47121,0,0,16.4712,16.4712,13.5288,13.5288,0.544894,5.49485,-1.09468,0.332889,-0.443447,-0.435636,1,0,1.8375,1.0325,-0.245,0.390156,-0.440298,-1.44033,-0.07364,0.1274,0.48132
-1.47596,0,0,16.476,16.476,13.524,13.524,0.54665,5.4926,-1.0941,0.332928,-0.443416,-0.435632,1,0,4.3925,-1.3125,-0.56,0.390156,-0.440298,-1.44033,-0.07364,0.1274,0.48132
-1.47438,0,0,16.4744,16.4744,13.5256,13.5256,0.546068,5.48903,-1.09318,0.258641,0.196884,-0.189114,1,0,3.0625,-2.0825,-0.35,0.315492,0.199348,-1.19572,-0.07364,0.1274,0.48132
-1.48116,0,0,16.4812,16.4812,13.5188,13.5188,0.548579,5.49113,-1.09516,0.258604,0.196928,-0.189118,1,0,4.9525,1.225,-2.065,0.315492,0.199348,-1.19572,-0.07364,0.1274,0.48132
-1.35058,0,0,16.3506,16.3506,13.6494,13.6494,0.500215,5.99668,-1.60259,0.449548,0.045742,0.168524,0,0,2.6775,0.77,-2.5725,0.51606,0.049166,-0.83997,-0.07364,0.1274,0.48132
-1.21699,0,0,16.217,16.217,13.783,13.783,0.450739,6.4919,-2.10858,0.440956,0.0448758,0.167591,0,0,1.8375,-0.385,-1.8025,0.51606,0.049166,-0.83997,-0.07364,0.1274,0.48132
-1.20445,0,0,16.2044,16.2044,13.7956,13.7956,0.446091,6.49195,-2.11146,-0.346637,0.390414,-0.083838,1,0,1.015,0.0175,-2.5725,-0.274866,0.394426,-1.08946,-0.07364,0.1274,0.48132
-1.1938,0,0,16.1938,16.1938,13.8062,13.8062,0.442148,6.49412,-2.11582,-0.346674,0.390345,-0.0838418,1,0,1.505,1.26,-3.4475,-0.274866,0.394426,-1.08946,-0.06846,0.12628,0.48384
-1.19257,0,0,16.1926,16.1926,13.8074,13.8074,0.441693,6.49259,-2.11916,-0.760792,0.470697,-0.361579,1,0,3.395,-0.91,-2.835,-0.690764,0.474702,-1.36506,-0.06846,0.12628,0.48384
-1.19899,0,0,16.199,16.199,13.801,13.801,0.444069,6.49049,-2.11982,-0.760756,0.470738,-0.361576,1,0,4.8125,-1.225,-1.2775,-0.690764,0.474702,-1.36506,-0.06846,0.12628,0.48384
-1.21192,0,0,16.2119,16.2119,13.7881,13.7881,0.448859,6.49044,-2.12148,-0.119068,0.133996,-0.214899,1,0,6.23,-0.035,-1.8725,-0.04636,0.138226,-1.21951,-0.06846,0.12628,0.48384
-1.20149,0,0,16.2015,16.2015,13.7985,13.7985,0.444995,6.4928,-2.12295,-0.119109,0.133929,-0.214903,1,0,1.365,1.3825,-1.7675,-0.04636,0.138226,-1.21951,-0.06846,0.12628,0.48384
-1.20154,0,0,16.2015,16.2015,13.7985,13.7985,0.445016,6.49294,-2.12235,0.238421,-0.317451,-0.242566,1,0,3.4125,0.0875,-0.56,0.312686,-0.312686,-1.24696,-0.06846,0.12628,0.48384
-1.19312,0,0,16.1931,16.1931,13.8069,13.8069,0.441898,6.4952,-2.12246,0.238382,-0.317505,-0.24257,1,0,1.6975,1.33,-0.98,0.312686,-0.312686,-1.24696,-0.06846,0.12628,0.48384
-2.11566,0,0,17.1157,17.1157,12.8843,12.8843,0.783579,6.47792,-2.14012,-0.0115789,-0.321472,0.148254,0,0,0.6125,1.75,-1.47,0.061366,-0.322568,-0.859124,-0.06846,0.12628,0.48384
-3.02833,0,0,18.0283,18.0283,11.9717,11.9717,1.12161,6.45627,-2.15369,-0.0112034,-0.31561,0.148199,0,0,1.505,-1.6975,-0.385,0.061366,-0.322568,-0.859124,-0.07476,0.12544,0.47656
-3.01497,0,0,18.015,18.015,11.985,11.985,1.11666,6.45366,-2.15981,0.238859,-0.0548334,0.217794,1,0,1.05,-1.5925,-4.4275,0.312442,-0.061976,-0.790072,-0.07476,0.12544,0.47656
-3.02663,0,0,18.0266,18.0266,11.9734,11.9734,1.12097,6.45467,-2.15986,0.238842,-0.0547586,0.217791,1,0,5.8625,0.595,-0.945,0.312442,-0.061976,-0.790072,-0.07476,0.12544,0.47656
-3.02072,0,0,18.0207,18.0207,11.9793,11.9793,1.11878,6.45708,-2.16115,0.616135,0.0134722,-0.113559,1,0,2.2925,1.4,-1.68,0.691374,0.006222,-1.11886,-0.07476,0.12544,0.47656
-3.03046,0,0,18.0305,18.0305,11.9695,11.9695,1.12239,6.45621,-2.16002,0.61615,0.0135348,-0.113559,1,0,5.39,-0.49,-0.245,0.691374,0.006222,-1.11886,-0.07476,0.12544,0.47656
-3.03153,0,0,18.0315,18.0315,11.9685,11.9685,1.12279,6.45547,-2.1608,-0.617525,0.322644,-0.132123,1,0,3.71,-0.4375,-1.3475,-0.547536,0.315004,-1.13728,-0.07476,0.12544,0.47656
-3.0326,0,0,18.0326,18.0326,11.9674,11.9674,1.12319,6.45473,-2.16158,-0.617512,0.322651,-0.132121,1,0,3.71,-0.4375,-1.3475,-0.547536,0.315004,-1.13728,-0.07476,0.12544,0.47656
-3.02715,0,0,18.0272,18.0272,11.9728,11.9728,1.12117,6.4537,-2.15967,-0.250364,0.22003,0.142179,1,0,2.1875,-0.5775,0.21,-0.178852,0.212524,-0.865102,-0.07476,0.12544,0.47656
-3.02171,0,0,18.0217,18.0217,11.9783,11.9783,1.11915,6.45267,-2.15777,-0.250346,0.219995,0.142182,1,0,2.1875,-0.5775,0.21,-0.178852,0.212524,-0.865102,-0.077,0.11872,0.47908
-3.03238,0,0,18.0324,18.0324,11.9676,11.9676,1.1231,6.45983,-2.15772,-0.147572,0.137506,0.123847,1,0,5.6525,4.2,-0.9625,-0.075518,0.130052,-0.88328,-0.077,0.11872,0.47908
-3.04306,0,0,18.0431,18.0431,11.9569,11.9569,1.12706,6.46699,-2.15768,-0.147696,0.137574,0.123832,1,0,5.6525,4.2,-0.9625,-0.075518,0.130052,-0.88328,-0.077,0.11872,0.47908
-3.04252,0,0,18.0425,18.0425,11.9575,11.9575,1.12686,6.46747,-2.15487,-0.0903633,-0.620104,-0.209974,1,0,3.15,0.315,0.7175,-0.017934,-0.626836,-1.21451,-0.077,0.11872,0.47908
-3.04199,0,0,18.042,18.042,11.958,11.958,1.12666,6.46794,-2.15206,-0.0903715,-0.620107,-0.209975,1,0,3.15,0.315,0.7175,-0.017934,-0.626836,-1.21451,-0.077,0.11872,0.47908
-3.03218,0,0,18.0322,18.0322,11.9678,11.9678,1.12303,6.46921,-2.15174,-0.295218,-0.806169,0.0507976,1,0,1.3825,0.7525,-0.735,-0.223626,-0.812642,-0.955748,-0.077,0.11872,0.47908
-3.02676,0,0,18.0268,18.0268,11.9732,11.9732,1.12102,6.46748,-2.15057,0.346378,0.748958,-0.303659,1,0,2.24,-0.9975,-0.21,0.420656,0.740906,-1.30747,-0.077,0.11872,0.47908
-3.01431,0,0,18.0143,18.0143,11.9857,11.9857,1.11641,6.46679,-2.14953,0.346389,0.748878,-0.303656,1,0,0.7875,-0.385,-0.2975,0.420656,0.740906,-1.30747,-0.077,0.11872,0.47908
-3.01886,0,0,18.0189,18.0189,11.9811,11.9811,1.1181,6.46622,-2.1494,-0.299661,0.628124,-0.0829628,1,0,4.375,-0.3325,-0.8225,-0.22814,0.620248,-1.08848,-0.07602,0.12278,0.47712
-3.00827,0,0,18.0083,18.0083,11.9917,11.9917,1.11417,6.46849,-2.14972,-0.299701,0.628056,-0.082966,1,0,1.26,1.33,-1.12,-0.22814,0.620248,-1.08848,-0.07602,0.12278,0.47712
-3.01202,0,0,18.012,18.012,11.988,11.988,1.11556,6.46805,-2.14917,-0.017239,-0.289458,-0.110383,1,0,4.1825,-0.245,-0.5775,0.05551,-0.296338,-1.11569,-0.07602,0.12278,0.47712
-3.00476,0,0,18.0048,18.0048,11.9952,11.9952,1.11287,6.47031,-2.15046,0.13713,0.250295,-0.0534615,1,0,2.0125,1.3125,-1.68,0.210572,0.242902,-1.0592,-0.07602,0.12278,0.47712
-3.00381,0,0,18.0038,18.0038,11.9962,11.9962,1.11252,6.46976,-2.15343,0.13714,0.250289,-0.0534603,1,0,3.43,-0.35,-2.625,0.210572,0.242902,-1.0592,-0.07602,0.12278,0.47712
-2.9864,0,0,17.9864,17.9864,12.0136,12.0136,1.10607,6.46842,-2.15431,0.394227,0.0794441,-0.0403,1,0,-0.1225,-0.7875,-1.4,0.468724,0.072346,-1.04615,-0.07602,0.12278,0.47712
-2.97031,0,0,17.9703,17.9703,12.0297,12.0297,1.10011,6.46708,-2.15664,0.39425,0.0793408,-0.0402954,1,0,0.245,-0.805,-2.24,0.468724,0.072346,-1.04615,-0.07602,0.12278,0.47712
-2.96074,0,0,17.9607,17.9607,12.0393,12.0393,1.09657,6.46677,-2.15915,-0.298578,0.563268,-0.177996,1,0,1.61,-0.21,-2.3625,-0.227042,0.555832,-1.18279,-0.07602,0.12278,0.47712
-2.95533,0,0,17.9553,17.9553,12.0447,12.0447,1.09457,6.46695,-2.15961,-0.298581,0.563233,-0.177996,1,0,2.345,0.105,-1.1725,-0.227042,0.555832,-1.18279,-0.07224,0.12572,0.48048
-2.95895,0,0,17.9589,17.9589,12.0411,12.0411,1.09591,6.46697,-2.1595,-0.249136,0.401805,-0.180578,1,0,4.1825,0.0175,-0.84,-0.177388,0.394548,-1.18535,-0.07224,0.12572,0.48048
-2.95815,0,0,17.9582,17.9582,12.0418,12.0418,1.09561,6.468,-2.16114,-0.249154,0.401799,-0.18058,1,0,3.3775,0.595,-1.8725,-0.177388,0.394548,-1.18535,-0.07224,0.12572,0.48048
-2.76851,0,0,17.7685,17.7685,12.2315,12.2315,1.02537,6.85287,-2.57246,0.365087,0.0750998,0.0623476,0,0,4.2875,0.63,-1.89,0.446154,0.069418,-0.943548,-0.07224,0.12572,0.48048
-2.56757,0,0,17.5676,17.5676,12.4324,12.4324,0.950951,7.22828,-2.98221,0.358584,0.0737971,0.0615668,0,0,1.4175,-0.945,-0.9275,0.446154,0.069418,-0.943548,-0.07224,0.12572,0.48048
-3.33208,0,0,18.3321,18.3321,11.6679,11.6679,1.2341,7.00969,-2.8293,-0.184437,-0.276924,0.0903471,0,0,1.0325,0.56,-0.9625,-0.102968,-0.285846,-0.915366,-0.07224,0.12572,0.48048
-4.07828,0,0,19.0783,19.0783,10.9217,10.9217,1.51047,6.79281,-2.67883,-0.180679,-0.272126,0.0906872,0,0,-0.07,-0.91,-0.8225,-0.102968,-0.285846,-0.915366,-0.07224,0.12572,0.48048
-4.06031,0,0,19.0603,19.0603,10.9397,10.9397,1.50382,6.79333,-2.67822,-0.12444,0.0866892,-0.295984,1,0,-0.3325,0.315,-0.56,-0.046482,0.072712,-1.29906,-0.07224,0.12572,0.48048
-4.05803,0,0,19.058,19.058,10.942,10.942,1.50298,6.79097,-2.6765,-0.124399,0.0866748,-0.295979,1,0,2.8525,-1.3475,0.1225,-0.046482,0.072712,-1.29906,-0.0777,0.12614,0.47488
-4.0541,0,0,19.0541,19.0541,10.9459,10.9459,1.50152,6.79035,-2.67577,-0.157433,-0.314781,-0.271879,1,0,2.5725,-0.35,-0.4725,-0.079666,-0.328302,-1.27514,-0.0777,0.12614,0.47488
-4.06751,0,0,19.0675,19.0675,10.9325,10.9325,1.50649,6.79163,-2.67692,-0.157455,-0.314695,-0.271884,1,0,6.3,0.735,-1.5925,-0.079666,-0.328302,-1.27514,-0.0777,0.12614,0.47488
-4.06859,0,0,19.0686,19.0686,10.9314,10.9314,1.50688,6.79028,-2.67606,-0.216352,0.625688,-0.524048,1,0,3.605,-0.77,-0.385,-0.138836,0.611098,-1.52537,-0.0777,0.12614,0.47488
-4.06788,0,0,19.0679,19.0679,10.9321,10.9321,1.50662,6.79221,-2.67577,-0.216385,0.625683,-0.524052,1,0,3.2725,1.1375,-0.77,-0.138836,0.611098,-1.52537,-0.0777,0.12614,0.47488
-4.05734,0,0,19.0573,19.0573,10.9427,10.9427,1.50272,6.79318,-2.67539,0.296389,0.546722,-0.352785,1,0,1.225,0.5775,-0.7,0.376126,0.532286,-1.35542,-0.0777,0.12614,0.47488
-4.04944,0,0,19.0494,19.0494,10.9506,10.9506,1.49979,6.79337,-2.67412,0.296385,0.546671,-0.352784,1,0,1.715,0.14,-0.175,0.376126,0.532286,-1.35542,-0.0777,0.12614,0.47488
-4.04017,0,0,19.0402,19.0402,10.9598,10.9598,1.49636,6.79423,-2.67269,0.394896,0.148234,-0.0117254,1,0,1.4175,0.525,-0.0875,0.475068,0.134322,-1.01699,-0.0777,0.12614,0.47488
-4.03089,0,0,19.0309,19.0309,10.9691,10.9691,1.49292,6.79508,-2.67125,0.394881,0.148174,-0.0117256,1,0,1.4175,0.525,-0.0875,0.475068,0.134322,-1.01699,-0.0777,0.12614,0.47488
-4.02937,0,0,19.0294,19.0294,10.9706,10.9706,1.49236,6.79787,-2.67194,-0.147723,0.286656,-0.139721,1,0,3.1675,1.6275,-1.3475,-0.069784,0.27267,-1.14399,-0.07462,0.12404,0.48104
-4.02259,0,0,19.0226,19.0226,10.9774,10.9774,1.48985,6.79571,-2.67085,0.402037,-0.166233,-0.121519,1,0,1.96,-1.2425,-0.245,0.482266,-0.179706,-1.12594,-0.07462,0.12404,0.48104
-4.01582,0,0,19.0158,19.0158,10.9842,10.9842,1.48734,6.79355,-2.66977,0.402075,-0.166276,-0.121513,1,0,1.96,-1.2425,-0.245,0.482266,-0.179706,-1.12594,-0.07462,0.12404,0.48104
-3.97441,0,0,18.9744,18.9744,11.0256,11.0256,1.47201,7.40685,-3.26522,0.581092,0.00782083,0.200895,0,0,-0.175,0.665,-0.91,0.672708,-0.00549,-0.804712,-0.07462,0.12404,0.48104
-3.93196,0,0,18.932,18.932,11.068,11.068,1.45628,8.01059,-3.8595,0.57065,0.00751285,0.199489,0,0,-0.175,0.665,-0.91,0.672708,-0.00549,-0.804712,-0.07462,0.12404,0.48104
-3.37897,0,0,18.379,18.379,11.621,11.621,1.25147,7.43034,-3.43767,-0.618257,0.228473,0.0360585,0,0,1.575,-0.455,-0.4025,-0.53131,0.218746,-0.968314,-0.07462,0.12404,0.48104
-2.83378,0,0,17.8338,17.8338,12.1662,12.1662,1.04955,6.85824,-3.01224,-0.608349,0.225002,0.0373703,0,0,1.575,-0.455,-0.4025,-0.53131,0.218746,-0.968314,-0.07462,0.12404,0.48104
-2.84047,0,0,17.8405,17.8405,12.1595,12.1595,1.05203,6.86016,-3.01306,-0.439882,-0.416732,0.531987,1,0,4.8825,1.12,-1.4,-0.362096,-0.422364,-0.477508,-0.07364,0.12488,0.48328
-2.84102,0,0,17.841,17.841,12.159,12.159,1.05223,6.85851,-3.01306,0.545396,-0.0444857,-0.452827,1,0,3.5525,-0.9625,-0.8925,0.627324,-0.050508,-1.45473,-0.07364,0.12488,0.48328
-2.84156,0,0,17.8416,17.8416,12.1584,12.1584,1.05243,6.85686,-3.01307,0.545424,-0.0444821,-0.452823,1,0,3.5525,-0.9625,-0.8925,0.627324,-0.050508,-1.45473,-0.07364,0.12488,0.48328
-2.82894,0,0,17.8289,17.8289,12.1711,12.1711,1.04776,6.85085,-3.0134,0.701759,-0.071675,-0.175315,1,0,0.84,-3.5175,-1.0325,0.784216,-0.077592,-1.17937,-0.07364,0.12488,0.48328
-2.81632,0,0,17.8163,17.8163,12.1837,12.1837,1.04308,6.84484,-3.01373,0.701863,-0.0717558,-0.175301,1,0,0.84,-3.5175,-1.0325,0.784216,-0.077592,-1.17937,-0.07364,0.12488,0.48328
-2.80318,0,0,17.8032,17.8032,12.1968,12.1968,1.03821,6.84405,-3.0149,-0.309856,0.337162,-0.313492,1,0,0.7875,-0.4725,-1.575,-0.2318,0.330986,-1.3165,-0.07364,0.12488,0.48328
-2.79003,0,0,17.79,17.79,12.21,12.21,1.03335,6.84325,-3.01607,-0.309842,0.337078,-0.313488,1,0,0.7875,-0.4725,-1.575,-0.2318,0.330986,-1.3165,-0.07364,0.12488,0.48328
-2.7882,0,0,17.7882,17.7882,12.2118,12.2118,1.03267,6.84444,-3.01744,-0.240616,0.38323,-0.582502,1,0,3.15,0.6825,-1.715,-0.16226,0.377102,-1.58344,-0.07364,0.12488,0.48328
-2.78637,0,0,17.7864,17.7864,12.2136,12.2136,1.03199,6.84562,-3.01882,-0.240636,0.383218,-0.582504,1,0,3.15,0.6825,-1.715,-0.16226,0.377102,-1.58344,-0.0805,0.12614,0.48062
-2.79605,0,0,17.796,17.796,12.204,12.204,1.03557,6.84786,-3.02108,0.212466,-0.0105784,-0.279934,1,0,5.6,1.295,-2.24,0.2928,-0.016348,-1.2832,-0.0805,0.12614,0.48062
-2.80573,0,0,17.8057,17.8057,12.1943,12.1943,1.03916,6.85011,-3.02334,0.212428,-0.0105163,-0.27994,1,0,5.6,1.295,-2.24,0.2928,-0.016348,-1.2832,-0.0805,0.12614,0.48062
-3.78581,0,0,18.7858,18.7858,11.2142,11.2142,1.40215,7.14162,-3.30061,0.31064,-0.404941,0.103152,0,0,2.6075,-0.56,-0.5075,0.3965,-0.41663,-0.902312,-0.0805,0.12614,0.48062
-3.77561,0,0,18.7756,18.7756,11.2244,11.2244,1.39837,7.1391,-3.30049,-0.46731,0.354378,-0.442609,1,0,1.3125,-1.47,-0.805,-0.384788,0.341966,-1.44387,-0.0805,0.12614,0.48062
-3.76427,0,0,18.7643,18.7643,11.2357,11.2357,1.39417,7.13886,-3.30102,-0.467306,0.354306,-0.442607,1,0,1.12,-0.14,-1.2075,-0.384788,0.341966,-1.44387,-0.0805,0.12614,0.48062
-4.0914,0,0,19.0914,19.0914,10.9086,10.9086,1.51533,6.86633,-3.11896,-0.256302,-0.131844,-0.0742186,0,0,5.4075,0.5775,-1.4875,-0.177632,-0.14579,-1.07885,-0.0805,0.12614,0.48062
-4.41614,0,0,19.4161,19.4161,10.5839,10.5839,1.63561,6.59606,-2.93557,-0.251618,-0.129745,-0.0737232,0,0,5.9675,-1.0325,0.2275,-0.177632,-0.14579,-1.07885,-0.0805,0.12614,0.48062
-4.43511,0,0,19.4351,19.4351,10.5649,10.5649,1.64263,6.59374,-2.93432,-0.284622,-0.125593,0.145249,1,0,7.2975,-1.33,-0.14,-0.210816,-0.141764,-0.861564,-0.0805,0.12614,0.48062
-4.42527,0,0,19.4253,19.4253,10.5747,10.5747,1.63899,6.59637,-2.93549,-0.284667,-0.125656,0.145246,1,0,1.47,1.5225,-1.6275,-0.210816,-0.141764,-0.861564,-0.0707,0.1197,0.47712
-4.41254,0,0,19.4125,19.4125,10.5875,10.5875,1.63428,6.59699,-2.93562,0.333684,-0.558922,0.00016763,1,0,0.805,0.3675,-0.9975,0.410164,-0.574498,-1.00552,-0.0707,0.1197,0.47712
-4.39924,0,0,19.3992,19.3992,10.6008,10.6008,1.62935,6.59601,-2.9349,0.333701,-0.559007,0.000172036,1,0,0.63,-0.56,-0.4725,0.410164,-0.574498,-1.00552,-0.0707,0.1197,0.47712
-4.37636,0,0,19.3764,19.3764,10.6236,10.6236,1.62087,6.59485,-2.93437,0.122215,-0.0363292,-0.244366,1,0,-1.3475,-0.665,-0.5775,0.197762,-0.052216,-1.24818,-0.0707,0.1197,0.47712
-4.36889,0,0,19.3689,19.3689,10.6311,10.6311,1.61811,6.59529,-2.93548,0.122207,-0.0363772,-0.244366,1,0,1.96,0.245,-1.5575,0.197762,-0.052216,-1.24818,-0.0707,0.1197,0.47712
-4.3669,0,0,19.3669,19.3669,10.6331,10.6331,1.61737,6.59529,-2.93579,0.182342,-0.260981,0.296239,1,0,3.045,0,-1.085,0.258152,-0.276574,-0.711748,-0.0707,0.1197,0.47712
-4.38554,0,0,19.3855,19.3855,10.6145,10.6145,1.62428,6.59388,-2.93478,0.182367,-0.260861,0.296239,1,0,7.245,-0.805,-0.2975,0.258152,-0.276574,-0.711748,-0.0707,0.1197,0.47712
-4.2456,0,0,19.2456,19.2456,10.7544,10.7544,1.57244,5.76491,-2.23952,-0.842195,0.0699794,0.271387,0,0,7.315,0.9625,-1.33,-0.785192,0.054778,-0.737978,-0.0707,0.1197,0.47712
-4.0918,0,0,19.0918,19.0918,10.9082,10.9082,1.51548,4.94313,-1.54388,-0.827915,0.069026,0.272751,0,0,4.5325,0.9625,-0.9975,-0.785192,0.054778,-0.737978,-0.07322,0.1211,0.48202
-4.10212,0,0,19.1021,19.1021,10.8979,10.8979,1.5193,4.94291,-1.54284,-0.521524,0.115989,-0.136423,1,0,5.53,-0.105,-0.2975,-0.477508,0.101626,-1.14399,-0.07322,0.1211,0.48202
-4.09043,0,0,19.0904,19.0904,10.9096,10.9096,1.51497,4.94157,-1.54219,-0.521501,0.115914,-0.136419,1,0,0.98,-0.77,-0.5075,-0.477508,0.101626,-1.14399,-0.07322,0.1211,0.48202
-4.08134,0,0,19.0813,19.0813,10.9187,10.9187,1.51161,4.94184,-1.54231,-0.0371418,-0.513097,-0.398667,1,0,1.5575,0.1575,-0.98,0.008906,-0.526674,-1.40422,-0.07322,0.1211,0.48202
-4.07756,0,0,19.0776,19.0776,10.9224,10.9224,1.51021,4.94215,-1.54098,-0.0371473,-0.513122,-0.398667,1,0,2.59,0.21,-0.14,0.008906,-0.526674,-1.40422,-0.07322,0.1211,0.48202
-4.07118,0,0,19.0712,19.0712,10.9288,10.9288,1.50785,4.9396,-1.53852,0.118034,0.21227,-0.210182,1,0,1.995,-1.4525,0.56,0.1647,0.198006,-1.21719,-0.07322,0.1211,0.48202
-4.07613,0,0,19.0761,19.0761,10.9239,10.9239,1.50968,4.93972,-1.53771,0.118032,0.212302,-0.210183,1,0,4.4275,0.0875,-0.4375,0.1647,0.198006,-1.21719,-0.07322,0.1211,0.48202
-4.07023,0,0,19.0702,19.0702,10.9298,10.9298,1.50749,4.942,-1.53826,0.597983,0.334269,0.108129,1,0,2.24,1.33,-1.26,0.646722,0.319884,-0.901336,-0.07322,0.1211,0.48202
-4.0748,0,0,19.0748,19.0748,10.9252,10.9252,1.50918,4.94182,-1.53767,0.597986,0.334298,0.108128,1,0,4.3575,-0.0875,-0.56,0.646722,0.319884,-0.901336,-0.0721,0.13076,0.48132
-4.07205,0,0,19.0721,19.0721,10.9279,10.9279,1.50817,4.94124,-1.53733,0.308981,0.258562,-0.106047,1,0,2.8525,-0.3325,-0.7,0.356484,0.244244,-1.11386,-0.0721,0.13076,0.48132
-4.05692,0,0,19.0569,19.0569,10.9431,10.9431,1.50256,4.94142,-1.53881,0.308978,0.258464,-0.106045,1,0,0.3675,0.0875,-1.7675,0.356484,0.244244,-1.11386,-0.0721,0.13076,0.48132
-5.64474,0,0,20.6447,20.6447,9.35526,9.35526,2.09064,5.08349,-1.6635,0.144568,-0.617108,0.252428,0,0,2.1,-0.07,-2.1,0.193858,-0.640622,-0.75762,-0.0721,0.13076,0.48132
-7.22342,0,0,22.2234,22.2234,7.77658,7.77658,2.67534,5.22071,-1.78522,0.142182,-0.606962,0.25179,0,0,4.235,-1.715,-1.9075,0.193858,-0.640622,-0.75762,-0.0721,0.13076,0.48132
-7.23771,0,0,22.2377,22.2377,7.76229,7.76229,2.68063,5.21874,-1.78728,-0.675261,0.106594,-0.0577951,1,0,6.51,-1.2075,-2.0475,-0.62708,0.072102,-1.06482,-0.0721,0.13076,0.48132
-7.25046,0,0,22.2505,22.2505,7.74954,7.74954,2.68536,5.22284,-1.79077,-0.675332,0.106676,-0.0578054,1,0,6.265,2.31,-3.045,-0.62708,0.072102,-1.06482,-0.0721,0.13076,0.48132
-7.26004,0,0,22.26,22.26,7.73996,7.73996,2.6889,5.22566,-1.79242,-0.133312,-0.0415246,-0.139942,1,0,5.5125,1.61,-1.9425,-0.082716,-0.076006,-1.14631,-0.0721,0.13076,0.48132
-7.26548,0,0,22.2655,22.2655,7.73452,7.73452,2.69092,5.22369,-1.79445,-0.133277,-0.0414894,-0.139941,1,0,4.6725,-1.2075,-2.03,-0.082716,-0.076006,-1.14631,-0.07938,0.12376,0.48314
