pid_x,pid_y,pid_z,front_left_speed,front_right_speed,back_left_speed,back_right_speed,orientation_x,orientation_y,orientation_z,acceleration_x,acceleration_y,acceleration_z,accel_rejected,mag_rejected,ahrs_initialized,gyro_x,gyro_y,gyro_z,accel_x,accel_y,accel_z,mag_x,mag_y,mag_z
-0.0179974,0,0,15.018,15.018,14.982,14.982,0.0128539,-0.00756081,0.222372,-0.0062629,-0.0109563,-0.00424134,0,0,0,3.5525,0.035,-0.8225,-0.046726,0.000976,-1.01687,-0.2191,0.05418,0.36414
-0.0333608,0,0,15.0334,15.0334,14.9666,14.9666,0.0238252,-0.0102111,0.439754,-0.00293653,-0.00942139,-0.00202833,0,0,0,3.4825,0.0525,-0.7525,-0.043432,0.002318,-1.01467,-0.2191,0.05418,0.36414
-0.0542739,0,0,15.0543,15.0543,14.9457,14.9457,0.038759,-0.00616099,0.651251,0.000880324,-0.0130688,0.00596319,0,0,0,3.2375,-0.035,-0.8225,-0.039528,-0.001586,-1.00674,-0.2191,0.05418,0.36414
-0.0715224,0,0,15.0715,15.0715,14.9285,14.9285,0.0510739,-0.00690762,0.863984,-0.00190082,-0.0106556,-6.14611e-05,0,0,0,3.4125,0.0525,-0.91,-0.042334,0.00061,-1.01272,-0.2191,0.05418,0.36414
-0.0892174,0,0,15.0892,15.0892,14.9108,14.9108,0.0637064,-0.00741215,1.07503,-0.00189201,-0.0104351,-6.1683e-05,0,0,0,3.7275,0.21,-0.98,-0.042334,0.00061,-1.01272,-0.2191,0.05418,0.36414
-0.102789,0,0,15.1028,15.1028,14.8972,14.8972,0.0733927,-0.0128001,1.28747,-0.00459214,-0.00794564,-0.00313561,0,0,0,3.745,0.1575,-0.9625,-0.04514,0.002928,-1.01577,-0.2191,0.05418,0.36414
-0.115519,0,0,15.1155,15.1155,14.8845,14.8845,0.0824767,-0.0179104,1.50642,-0.00450295,-0.0077871,-0.00313585,0,0,0,3.5175,0.2275,-0.8575,-0.04514,0.002928,-1.01577,-0.22456,0.049,0.37058
-0.129157,0,0,15.1292,15.1292,14.8708,14.8708,0.092208,-0.0146588,1.7183,0.000664182,-0.00835001,0.00129005,0,0,0,3.4475,0.28,-0.805,-0.039894,0.002196,-1.01138,-0.22456,0.049,0.37058
-0.142833,0,0,15.1428,15.1428,14.8572,14.8572,0.101965,-0.0120715,1.92859,0.000619026,-0.00817971,0.00128977,0,0,0,3.57,-0.035,-0.805,-0.039894,0.002196,-1.01138,-0.22456,0.049,0.37058
-0.158085,0,0,15.1581,15.1581,14.8419,14.8419,0.112848,-0.0134865,2.13991,-0.00202896,-0.00921104,0.00042877,0,0,0,3.5525,-0.07,-0.875,-0.042578,0.000976,-1.01223,-0.22456,0.049,0.37058
-0.173168,0,0,15.1732,15.1732,14.8268,14.8268,0.123608,-0.0146669,2.34981,-0.00200836,-0.00902325,0.000428378,0,0,0,3.605,0.07,-0.77,-0.042578,0.000976,-1.01223,-0.22456,0.049,0.37058
-0.186088,0,0,15.1861,15.1861,14.8139,14.8139,0.132823,-0.0229253,2.56301,-0.00648068,-0.00776328,0.00239515,0,0,0,3.605,0.2275,-0.7525,-0.047214,0.002074,-1.01028,-0.22456,0.049,0.37058
-0.199135,0,0,15.1991,15.1991,14.8009,14.8009,0.142127,-0.0282455,2.77276,-0.00468703,-0.00796728,-0.00215438,0,0,0,3.535,0.245,-0.7525,-0.045506,0.001708,-1.0148,-0.22456,0.049,0.37058
-0.211569,0,0,15.2116,15.2116,14.7884,14.7884,0.150992,-0.0333084,2.98168,-0.00459866,-0.00781256,-0.00215482,0,0,0,3.395,0.3325,-0.735,-0.045506,0.001708,-1.0148,-0.22288,0.04956,0.36386
-0.224534,0,0,15.2245,15.2245,14.7755,14.7755,0.160235,-0.0354741,3.18708,-0.00273858,-0.00801761,0.0031315,0,0,0,3.4125,0.2975,-0.735,-0.043676,0.001342,-1.00955,-0.22288,0.04956,0.36386
-0.237491,0,0,15.2375,15.2375,14.7625,14.7625,0.169472,-0.0376441,3.39079,-0.00270071,-0.00797851,0.00128679,0,0,0,3.4475,0.2625,-0.7875,-0.043676,0.00122,-1.01138,-0.22288,0.04956,0.36386
-0.250715,0,0,15.2507,15.2507,14.7493,14.7493,0.178899,-0.0398216,3.59296,-0.0026627,-0.00781399,0.00128626,0,0,0,3.6575,0.245,-0.7875,-0.043676,0.00122,-1.01138,-0.22288,0.04956,0.36386
-0.265898,0,0,15.2659,15.2659,14.7341,14.7341,0.189724,-0.0365772,3.78982,0.000682273,-0.00884633,0.00312992,0,0,0,3.6925,0.1925,-0.84,-0.04026,0,-1.00955,-0.22288,0.04956,0.36386
-0.281278,0,0,15.2813,15.2813,14.7187,14.7187,0.200688,-0.0337598,3.9853,0.000390128,-0.00914348,0.00214571,0,0,0,3.5875,0.175,-0.8925,-0.040504,-0.000488,-1.01053,-0.22288,0.04956,0.36386
-0.295786,0,0,15.2958,15.2958,14.7042,14.7042,0.211028,-0.03112,4.17913,0.000344055,-0.00896301,0.00214509,0,0,0,3.36,0.14,-0.98,-0.040504,-0.000488,-1.01053,-0.22288,0.04956,0.36386
-0.303401,0,0,15.3034,15.3034,14.6966,14.6966,0.216444,-0.0354419,4.37578,-0.00334657,-0.00496042,-0.00351094,0,0,0,3.3425,0,-0.8925,-0.044286,0.003416,-1.01614,-0.22288,0.04956,0.36386
-0.310865,0,0,15.3109,15.3109,14.6891,14.6891,0.221751,-0.0393329,4.5702,-0.00327866,-0.0048678,-0.00351134,0,0,0,3.3425,0.1925,-0.945,-0.044286,0.003416,-1.01614,-0.22302,0.04928,0.36848
-0.326318,0,0,15.3263,15.3263,14.6737,14.6737,0.232765,-0.0390361,4.76082,-0.0010971,-0.00907214,0.00115994,0,0,0,3.6925,0.0875,-0.7525,-0.04209,-0.000976,-1.0115,-0.22302,0.04928,0.36848
-0.34116,0,0,15.3412,15.3412,14.6588,14.6588,0.24334,-0.0387597,4.94995,-0.00110192,-0.00888758,0.00115918,0,0,0,3.57,0.105,-0.77,-0.04209,-0.000976,-1.0115,-0.22302,0.04928,0.36848
-0.353145,0,0,15.3531,15.3531,14.6469,14.6469,0.251874,-0.0400581,5.13881,-0.00192966,-0.00739524,-0.00326762,0,0,0,3.465,0.14,-0.6475,-0.042944,0.000366,-1.01589,-0.22302,0.04928,0.36848
-0.365241,0,0,15.3652,15.3652,14.6348,14.6348,0.260486,-0.041951,5.32593,-0.00189662,-0.00724493,-0.00326832,0,0,0,3.605,-0.21,-0.8225,-0.042944,0.000366,-1.01589,-0.22302,0.04928,0.36848
-0.378966,0,0,15.379,15.379,14.621,14.621,0.270261,-0.0339433,5.50521,0.00415939,-0.00780709,0.00349315,0,0,0,3.6925,-0.0525,-0.7525,-0.036722,-0.000366,-1.00918,-0.22302,0.04928,0.36848
-0.387046,0,0,15.387,15.387,14.613,14.613,0.276002,-0.0352165,5.68916,-0.00152822,-0.00489796,-0.00351541,0,0,0,3.535,0.1225,-0.8225,-0.042456,0.00244,-1.01614,-0.22302,0.04928,0.36848
-0.395535,0,0,15.3955,15.3955,14.6045,14.6045,0.282036,-0.0362564,5.8738,-0.00151007,-0.00479266,-0.00351593,0,0,0,3.7625,0.245,-0.8925,-0.042456,0.00244,-1.01614,-0.2219,0.0483,0.36694
-0.405092,0,0,15.4051,15.4051,14.5949,14.5949,0.288831,-0.0409386,6.0595,-0.00385806,-0.0057732,-0.00314773,0,0,0,3.605,0.1225,-0.8225,-0.044896,0.001342,-1.01577,-0.2219,0.0483,0.36694
-0.415583,0,0,15.4156,15.4156,14.5844,14.5844,0.296293,-0.0493641,6.24642,-0.0063837,-0.00637573,-0.004378,0,0,0,3.6575,0.14,-0.8225,-0.04758,0.00061,-1.01699,-0.2219,0.0483,0.36694
-0.425867,0,0,15.4259,15.4259,14.5741,14.5741,0.303606,-0.0575928,6.43193,-0.00624008,-0.00624809,-0.0043788,0,0,0,3.6575,0.14,-0.8225,-0.04758,0.00061,-1.01699,-0.2219,0.0483,0.36694
-0.43362,0,0,15.4336,15.4336,14.5664,14.5664,0.309111,-0.0624103,6.61339,-0.00396925,-0.0046865,-0.00302697,0,0,0,3.605,0.28,-1.12,-0.045384,0.002074,-1.01565,-0.2219,0.0483,0.36694
-0.443885,0,0,15.4439,15.4439,14.5561,14.5561,0.316409,-0.0676688,6.79422,-0.00460639,-0.0062689,-0.00278187,0,0,0,3.5875,0.385,-0.98,-0.046116,0.000366,-1.01541,-0.2219,0.0483,0.36694
-0.45399,0,0,15.454,15.454,14.546,14.546,0.323592,-0.0727258,6.97387,-0.00451813,-0.00614353,-0.00278268,0,0,0,3.605,0.4375,-0.8575,-0.046116,0.000366,-1.01541,-0.2219,0.0483,0.36694
-0.463486,0,0,15.4635,15.4635,14.5365,14.5365,0.33034,-0.0720608,7.14828,-0.000642193,-0.00553726,0.00336409,0,0,0,3.605,0.35,-0.805,-0.042212,0.000854,-1.00931,-0.2219,0.0483,0.36694
-0.474102,0,0,15.4741,15.4741,14.5259,14.5259,0.337886,-0.0694115,7.31004,0.000647911,-0.00638257,0.00299453,0,0,0,3.465,0.2625,-0.84,-0.04087,-0.000122,-1.00967,-0.22148,0.05306,0.37254
-0.482952,0,0,15.483,15.483,14.517,14.517,0.344171,-0.0661358,7.4698,0.00144114,-0.00541799,0.00483818,0,0,0,3.36,0.035,-0.84,-0.040016,0.000732,-1.00784,-0.22148,0.05306,0.37254
-0.491497,0,0,15.4915,15.4915,14.5085,14.5085,0.350237,-0.0624036,7.62835,0.001376,-0.00531212,0.00483761,0,0,0,3.3075,0.3675,-0.84,-0.040016,0.000732,-1.00784,-0.22148,0.05306,0.37254
-0.501379,0,0,15.5014,15.5014,14.4986,14.4986,0.357257,-0.0579939,7.7851,0.00166349,-0.00604448,-0.00131049,0,0,0,3.395,0.42,-0.8925,-0.03965,-0.000122,-1.01394,-0.22148,0.05306,0.37254
-0.511105,0,0,15.5111,15.5111,14.4889,14.4889,0.364165,-0.0543867,7.94089,0.00160054,-0.00592391,-0.00131119,0,0,0,3.4125,0.035,-0.7525,-0.03965,-0.000122,-1.01394,-0.22148,0.05306,0.37254
-0.447023,0,0,15.447,15.447,14.553,14.553,0.318359,0.0377463,8.03489,0.0651088,0.0418831,0.00926738,0,0,0,3.5,0.07,-0.7175,0.025742,0.048434,-1.00345,-0.22148,0.05306,0.37254
-0.383593,0,0,15.3836,15.3836,14.6164,14.6164,0.273022,0.127702,8.12792,0.0635388,0.0410918,0.00926919,0,0,0,3.2725,0.1225,-0.875,0.025742,0.048434,-1.00345,-0.22148,0.05306,0.37254
-0.349013,0,0,15.349,15.349,14.651,14.651,0.248295,0.282188,8.16934,0.101054,0.0249058,0.034343,0,0,0,3.15,0.105,-0.91,0.066124,0.032696,-0.978562,-0.2191,0.05432,0.38276
-0.458225,0,0,15.4582,15.4582,14.5418,14.5418,0.326269,0.251048,8.33565,-0.0287563,-0.0653283,0.03606,0,0,0,3.5,0.2625,-0.8225,-0.064782,-0.058804,-0.976854,-0.2191,0.05432,0.38276
-0.565057,0,0,15.5651,15.5651,14.4349,14.4349,0.402535,0.219502,8.49998,-0.0282058,-0.0639973,0.0360538,0,0,0,3.4125,-0.2975,-1.12,-0.064782,-0.058804,-0.976854,-0.2191,0.05432,0.38276
-0.344209,0,0,15.3442,15.3442,14.6558,14.6558,0.24476,-0.121458,8.87466,-0.196708,0.118638,0.0695164,0,0,0,3.7275,-0.1925,-1.1725,-0.239974,0.126392,-0.94367,-0.2191,0.05432,0.38276
-0.128074,0,0,15.1281,15.1281,14.8719,14.8719,0.0903679,-0.452347,9.24889,-0.190933,0.115943,0.0694954,0,0,0,4.06,0.3325,-0.8925,-0.239974,0.126392,-0.94367,-0.2191,0.05432,0.38276
0.020634,0,0,14.9794,14.9794,15.0206,15.0206,-0.0158504,-0.424304,9.38269,0.0376992,0.116532,-0.239469,0,0,0,4.62,0.2275,-1.19,-0.009882,0.128832,-1.25026,-0.2191,0.05432,0.38276
0.0216098,0,0,14.9784,14.9784,15.0216,15.0216,-0.0165457,-0.424643,9.38206,0.0377052,0.116519,-0.239469,1,0,0,3.0975,-0.07,-1.225,-0.009882,0.128832,-1.25026,-0.2191,0.05432,0.38276
-0.0888452,0,0,15.0888,15.0888,14.9112,14.9112,0.0623441,-0.656798,9.68623,-0.160881,-0.0761631,0.0325769,0,0,0,2.7825,0.28,-1.19,-0.213378,-0.065026,-0.98027,-0.2191,0.05432,0.38276
-0.199299,0,0,15.1993,15.1993,14.8007,14.8007,0.141225,-0.88374,9.98135,-0.156921,-0.0747866,0.0325213,0,0,0,3.5875,-0.385,-1.225,-0.213378,-0.065026,-0.98027,-0.2177,0.0574,0.39158
-0.0821677,0,0,15.0822,15.0822,14.9178,14.9178,0.0575531,-0.29538,9.71243,0.427605,0.0972954,0.0262361,0,0,0,2.8175,0.805,-1.3825,0.383934,0.108336,-0.986614,-0.2177,0.0574,0.39158
0.0334751,0,0,14.9665,14.9665,15.0335,15.0335,-0.0250462,0.277775,9.44475,0.417602,0.0958538,0.0262381,0,0,0,3.15,-0.35,-0.5075,0.383934,0.108336,-0.986614,-0.2177,0.0574,0.39158
0.133387,0,0,14.8666,14.8666,15.1334,15.1334,-0.0964013,-0.163648,9.87772,-0.320009,0.0492994,-0.0713767,0,0,0,3.2375,-0.525,-0.735,-0.364536,0.063074,-1.08348,-0.2177,0.0574,0.39158
0.13574,0,0,14.8643,14.8643,15.1357,15.1357,-0.0980714,-0.163926,9.87863,-0.320004,0.0492702,-0.0713767,1,0,0,2.555,-0.035,-0.3325,-0.364536,0.063074,-1.08348,-0.2177,0.0574,0.39158
0.129662,0,0,14.8703,14.8703,15.1297,15.1297,-0.0937203,-0.160856,9.88064,-0.944008,0.718112,-0.492475,1,0,0,5.9325,1.925,0.315,-0.991128,0.731146,-1.50133,-0.2177,0.0574,0.39158
0.126981,0,0,14.873,14.873,15.127,15.127,-0.0917954,-0.160599,9.87966,-0.944013,0.718146,-0.492475,1,0,0,4.5675,0.28,-1.435,-0.991128,0.731146,-1.50133,-0.2177,0.0574,0.39158
0.118094,0,0,14.8819,14.8819,15.1181,15.1181,-0.0854382,-0.157235,9.87867,0.648485,0.191891,-0.292806,1,0,0,7.0525,2.1,-1.435,0.60817,0.205326,-1.3032,-0.2177,0.0574,0.39158
0.116471,0,0,14.8835,14.8835,15.1165,15.1165,-0.0842701,-0.158318,9.88045,0.648503,0.191911,-0.292806,1,0,0,4.1475,-0.5075,0.175,0.60817,0.205326,-1.3032,-0.2177,0.0574,0.39158
-0.361037,0,0,15.361,15.361,14.639,14.639,0.25678,-0.774826,10.3936,-0.434351,-0.309452,0.194834,0,0,0,3.99,0.525,-0.49,-0.490074,-0.301462,-0.81923,-0.2233,0.0609,0.38948
-0.82675,0,0,15.8268,15.8268,14.1732,14.1732,0.589369,-1.3799,10.8957,-0.423792,-0.30365,0.194592,0,0,0,2.5025,-0.665,-0.4025,-0.490074,-0.301462,-0.81923,-0.2233,0.0609,0.38948
-0.822702,0,0,15.8227,15.8227,14.1773,14.1773,0.586414,-1.38093,10.896,-0.843629,-0.036732,-0.0629846,1,0,0,1.8375,-0.4725,-0.6825,-0.911706,-0.03477,-1.07482,-0.2233,0.0609,0.38948
-0.827441,0,0,15.8274,15.8274,14.1726,14.1726,0.589736,-1.37919,10.8975,-0.843659,-0.0366741,-0.0629845,1,0,0,5.3725,1.155,0,-0.911706,-0.03477,-1.07482,-0.2233,0.0609,0.38948
-0.833328,0,0,15.8333,15.8333,14.1667,14.1667,0.593877,-1.37901,10.8986,-0.585141,0.505641,-0.0559771,1,0,0,5.8275,0.245,-0.175,-0.65209,0.50691,-1.06787,-0.2233,0.0609,0.38948
-0.83329,0,0,15.8333,15.8333,14.1667,14.1667,0.593787,-1.37892,10.9006,-0.585143,0.505639,-0.055977,1,0,0,3.465,0.1925,0.2625,-0.65209,0.50691,-1.06787,-0.2233,0.0609,0.38948
-0.835148,0,0,15.8351,15.8351,14.1649,14.1649,0.59505,-1.37891,10.902,-0.378495,0.0672264,-0.288104,1,0,0,4.2175,0.14,-0.035,-0.444568,0.06893,-1.2982,-0.2233,0.0609,0.38948
-0.828535,0,0,15.8285,15.8285,14.1715,14.1715,0.590263,-1.37755,10.9019,-0.378519,0.0671429,-0.288103,1,0,0,0.805,0.9275,-0.91,-0.444568,0.06893,-1.2982,-0.2233,0.0609,0.38948
-0.821449,0,0,15.8214,15.8214,14.1786,14.1786,0.585139,-1.37737,10.9016,0.0553031,0.0409183,0.108284,1,0,0,0.6125,0.2275,-1.0675,-0.008906,0.042822,-0.904874,-0.22386,0.06048,0.39298
-0.600681,0,0,15.6007,15.6007,14.3993,14.3993,0.427402,-0.996469,10.7864,0.28774,0.15663,-0.012535,0,0,0,1.435,0.07,-1.365,0.23119,0.161162,-1.02492,-0.22386,0.06048,0.39298
-0.383806,0,0,15.3838,15.3838,14.6162,14.6162,0.272462,-0.624774,10.6699,0.281254,0.153927,-0.0124267,0,0,0,1.575,-0.2625,-1.645,0.23119,0.161162,-1.02492,-0.22386,0.06048,0.39298
-0.38625,0,0,15.3863,15.3863,14.6137,14.6137,0.274178,-0.624749,10.6688,0.214072,-0.55047,-0.268897,1,0,0,4.445,0.14,-1.54,0.163724,-0.542534,-1.27941,-0.22386,0.06048,0.39298
-0.392942,0,0,15.3929,15.3929,14.6071,14.6071,0.278928,-0.624363,10.6671,0.214065,-0.550387,-0.268898,1,0,0,6.1425,0.35,-1.855,0.163724,-0.542534,-1.27941,-0.22386,0.06048,0.39298
-0.438674,0,0,15.4387,15.4387,14.5613,14.5613,0.311561,-0.0615914,10.4017,0.390602,-0.00391098,0.0191035,0,0,0,5.0225,1.225,-1.9775,0.350872,0.002806,-0.99369,-0.22386,0.06048,0.39298
-0.481388,0,0,15.4814,15.4814,14.5186,14.5186,0.342034,0.485422,10.1392,0.381055,-0.00337933,0.0190652,0,0,0,4.83,-0.14,-1.26,0.350872,0.002806,-0.99369,-0.22386,0.06048,0.39298
-0.481372,0,0,15.4814,15.4814,14.5186,14.5186,0.341986,0.485205,10.1388,-0.0731763,-0.0195009,0.103285,1,0,0,3.465,0,-1.1375,-0.105286,-0.013298,-0.91012,-0.22386,0.06048,0.39298
-0.475382,0,0,15.4754,15.4754,14.5246,14.5246,0.337671,0.486915,10.1358,-0.0732062,-0.0195762,0.103285,1,0,0,1.085,1.12,-2.6075,-0.105286,-0.013298,-0.91012,-0.22498,0.06692,0.39494
-0.818115,0,0,15.8181,15.8181,14.1819,14.1819,0.582419,0.31644,10.3351,-0.142636,-0.231103,0.00909317,0,0,0,0.14,0.49,-2.0475,-0.177998,-0.228872,-1.00357,-0.22498,0.06692,0.39494
-1.15499,0,0,16.155,16.155,13.845,13.845,0.822952,0.150555,10.5314,-0.139741,-0.226905,0.00905348,0,0,0,0.35,1.015,-1.9775,-0.177998,-0.228872,-1.00357,-0.22498,0.06692,0.39494
-1.14726,0,0,16.1473,16.1473,13.8527,13.8527,0.817348,0.150475,10.53,-0.0596807,-0.271945,-0.198113,1,0,0,0.35,0.07,-1.68,-0.0976,-0.273768,-1.20914,-0.22498,0.06692,0.39494
-1.145,0,0,16.145,16.145,13.855,13.855,0.815647,0.148833,10.5293,-0.059652,-0.271975,-0.198113,1,0,0,2.5375,-0.84,-1.295,-0.0976,-0.273768,-1.20914,-0.22498,0.06692,0.39494
-1.40681,0,0,16.4068,16.4068,13.5932,13.5932,1.00255,0.00171701,10.7172,-0.122687,-0.178339,-0.0298447,0,0,0,3.5,-0.07,-1.1025,-0.16348,-0.183488,-1.04212,-0.22498,0.06692,0.39494
-1.67375,0,0,16.6737,16.6737,13.3263,13.3263,1.19308,-0.142092,10.9041,-0.120177,-0.175015,-0.0299115,0,0,0,7.525,-0.035,-0.1925,-0.16348,-0.183488,-1.04212,-0.22498,0.06692,0.39494
-1.68391,0,0,16.6839,16.6839,13.3161,13.3161,1.20022,-0.141438,10.9052,0.1127,0.042984,-0.156674,1,0,0,7.49,0.525,-0.245,0.070394,0.03416,-1.16791,-0.22498,0.06692,0.39494
-1.69171,0,0,16.6917,16.6917,13.3083,13.3083,1.20566,-0.141097,10.907,0.112694,0.043079,-0.156676,1,0,0,6.545,0.35,0.175,0.070394,0.03416,-1.16791,-0.21924,0.07574,0.3962
-1.85104,0,0,16.851,16.851,13.149,13.149,1.31933,-0.274551,11.0779,-0.0970908,-0.100757,0.0360551,0,0,0,4.0075,0.315,-0.35,-0.142618,-0.111508,-0.97661,-0.21924,0.07574,0.3962
-2.00741,0,0,17.0074,17.0074,12.9926,12.9926,1.43086,-0.404827,11.247,-0.0948171,-0.0988114,0.0359949,0,0,0,4.0075,0.315,-0.35,-0.142618,-0.111508,-0.97661,-0.21924,0.07574,0.3962
-2.16217,0,0,17.1622,17.1622,12.8378,12.8378,1.54124,-0.516474,11.4028,-0.0935975,-0.117037,-0.0780439,0,0,0,0.8575,-0.0875,-0.2975,-0.14335,-0.131638,-1.0897,-0.21924,0.07574,0.3962
-2.31405,0,0,17.3141,17.3141,12.6859,12.6859,1.64955,-0.625503,11.557,-0.0916947,-0.115148,-0.0781155,0,0,0,0.8575,-0.0875,-0.2975,-0.14335,-0.131638,-1.0897,-0.21924,0.07574,0.3962
-2.30575,0,0,17.3058,17.3058,12.6942,12.6942,1.64345,-0.626184,11.5574,0.114235,0.0985895,-0.237085,1,0,0,0.07,-0.2625,-0.5775,0.06344,0.081984,-1.24745,-0.21924,0.07574,0.3962
-2.29745,0,0,17.2975,17.2975,12.7025,12.7025,1.63734,-0.626865,11.5579,0.114247,0.098483,-0.237082,1,0,0,0.07,-0.2625,-0.5775,0.06344,0.081984,-1.24745,-0.21924,0.07574,0.3962
-2.38784,0,0,17.3878,17.3878,12.6122,12.6122,1.70173,-0.548965,11.5929,0.0489863,-0.0562272,-0.0904233,0,0,0,5.635,0.035,-0.28,-0.000732,-0.073688,-1.1019,-0.21924,0.07574,0.3962
-2.47633,0,0,17.4763,17.4763,12.5237,12.5237,1.76474,-0.473258,11.6301,0.0476651,-0.0551276,-0.0904448,0,0,0,5.635,0.035,-0.28,-0.000732,-0.073688,-1.1019,-0.2205,0.07392,0.40124
-2.48565,0,0,17.4857,17.4857,12.5143,12.5143,1.77121,-0.472607,11.6309,-0.116109,0.0252226,-0.149709,1,0,0,7.1225,0.525,-0.3675,-0.165188,0.006466,-1.16071,-0.2205,0.07392,0.40124
-2.49498,0,0,17.495,17.495,12.505,12.505,1.77768,-0.471957,11.6318,-0.11612,0.0253355,-0.149713,1,0,0,7.1225,0.525,-0.3675,-0.165188,0.006466,-1.16071,-0.2205,0.07392,0.40124
-2.49819,0,0,17.4982,17.4982,12.5018,12.5018,1.77979,-0.471486,11.6327,-0.019183,0.0988925,-0.140616,1,0,0,4.6725,0.42,-0.3675,-0.067832,0.07991,-1.15168,-0.2205,0.07392,0.40124
-2.5014,0,0,17.5014,17.5014,12.4986,12.4986,1.78189,-0.471015,11.6335,-0.0191912,0.0989291,-0.140617,1,0,0,4.6725,0.42,-0.3675,-0.067832,0.07991,-1.15168,-0.2205,0.07392,0.40124
-2.5283,0,0,17.5283,17.5283,12.4717,12.4717,1.80091,-0.404407,11.6771,0.0446411,-0.0223771,-0.093529,0,0,0,0.77,0.455,-1.12,-0.002562,-0.041602,-1.10495,-0.2205,0.07392,0.40124
-2.51968,0,0,17.5197,17.5197,12.4803,12.4803,1.79456,-0.405032,11.6767,-0.135997,-0.023709,-0.100288,1,0,0,-0.07,-0.245,-1.1025,-0.183976,-0.042822,-1.11166,-0.2205,0.07392,0.40124
-2.516,0,0,17.516,17.516,12.484,12.484,1.79174,-0.406106,11.6763,-0.135978,-0.0237582,-0.100286,1,0,0,1.9075,-0.5075,-1.0675,-0.183976,-0.042822,-1.11166,-0.2205,0.07392,0.40124
-2.71537,0,0,17.7154,17.7154,12.2846,12.2846,1.93394,-0.138707,11.5794,0.161854,-0.112384,0.0246938,0,0,0,2.17,-0.525,-1.05,0.119804,-0.133834,-0.98759,-0.22722,0.07,0.39942
-2.91413,0,0,17.9141,17.9141,12.0859,12.0859,2.07569,0.121366,11.4839,0.157315,-0.109911,0.0246079,0,0,0,3.78,-0.49,-1.2075,0.119804,-0.133834,-0.98759,-0.22722,0.07,0.39942
-2.79185,0,0,17.7919,17.7919,12.2081,12.2081,1.98813,-0.210079,11.7898,-0.212899,0.0622259,0.00387935,0,0,0,4.13,-0.455,-1.6625,-0.257786,0.03965,-1.00821,-0.22722,0.07,0.39942
-2.67192,0,0,17.6719,17.6719,12.3281,12.3281,1.90227,-0.532732,12.0941,-0.207267,0.0607268,0.00389374,0,0,0,4.13,-0.455,-1.6625,-0.257786,0.03965,-1.00821,-0.22722,0.07,0.39942
-2.67732,0,0,17.6773,17.6773,12.3227,12.3227,1.90592,-0.531141,12.0927,0.0371341,0.0955967,-0.116106,1,0,0,5.53,1.0325,-1.715,-0.012322,0.07442,-1.12728,-0.22722,0.07,0.39942
-2.68272,0,0,17.6827,17.6827,12.3173,12.3173,1.90957,-0.529551,12.0913,0.0371064,0.0956604,-0.116108,1,0,0,5.53,1.0325,-1.715,-0.012322,0.07442,-1.12728,-0.22722,0.07,0.39942
-2.5232,0,0,17.5232,17.5232,12.4768,12.4768,1.79543,-0.679704,12.2909,-0.0875901,0.092081,0.00650869,0,0,0,3.5175,0.4025,-1.855,-0.140178,0.072834,-1.00565,-0.22722,0.07,0.39942
-2.36688,0,0,17.3669,17.3669,12.6331,12.6331,1.68359,-0.825651,12.4895,-0.0850431,0.090129,0.00653449,0,0,0,3.5175,0.4025,-1.855,-0.140178,0.072834,-1.00565,-0.22722,0.07,0.39942
-2.25818,0,0,17.2582,17.2582,12.7418,12.7418,1.60578,-0.877747,12.6207,-0.02412,0.0615369,0.0476248,0,0,0,2.205,-0.245,-1.645,-0.07991,0.045628,-0.964898,-0.2282,0.07252,0.39494
-2.30959,0,0,17.3096,17.3096,12.6904,12.6904,1.64233,-0.721735,12.6036,0.10582,-0.0288088,-0.0578451,0,0,0,2.31,-0.7175,-1.3825,0.053314,-0.045262,-1.06957,-0.2282,0.07252,0.39494
-2.35971,0,0,17.3597,17.3597,12.6403,12.6403,1.67795,-0.570251,12.5876,0.103176,-0.0281866,-0.0578334,0,0,0,2.345,-0.91,-0.91,0.053314,-0.045262,-1.06957,-0.2282,0.07252,0.39494
-2.29834,0,0,17.2983,17.2983,12.7017,12.7017,1.63394,-0.428419,12.5839,0.0953553,0.0446887,0.0492985,0,0,0,3.0975,-0.7525,-0.805,0.047946,0.028304,-0.963312,-0.2282,0.07252,0.39494
-2.23926,0,0,17.2393,17.2393,12.7607,12.7607,1.59157,-0.287603,12.5799,0.0928976,0.0439499,0.0493347,0,0,0,3.64,0.7175,-0.875,0.047946,0.028304,-0.963312,-0.2282,0.07252,0.39494
-2.31639,0,0,17.3164,17.3164,12.6836,12.6836,1.64648,0.00867264,12.4619,0.197064,-0.034352,-0.0162113,0,0,0,3.6575,0.98,-0.56,0.157746,-0.050874,-1.02834,-0.2282,0.07252,0.39494
-2.39119,0,0,17.3912,17.3912,12.6088,12.6088,1.69973,0.297656,12.3453,0.19202,-0.0334234,-0.016252,0,0,0,3.6575,1.225,-0.385,0.157746,-0.050874,-1.02834,-0.2282,0.07252,0.39494
-2.53823,0,0,17.5382,17.5382,12.4618,12.4618,1.80457,0.449251,12.31,0.0889057,-0.0832546,0.0205594,0,0,0,3.22,0.5425,-0.28,0.056852,-0.10248,-0.991738,-0.2282,0.07252,0.39494
-2.68055,0,0,17.6806,17.6806,12.3194,12.3194,1.90602,0.595965,12.2769,0.0863451,-0.0814857,0.0204787,0,0,0,2.5725,-0.105,-0.4375,0.056852,-0.10248,-0.991738,-0.23324,0.07056,0.4011
-2.78499,0,0,17.785,17.785,12.215,12.215,1.98041,0.717134,12.2606,0.0709885,-0.0572293,0.0399593,0,0,0,2.5025,-0.7525,-0.0525,0.043554,-0.079544,-0.97234,-0.23324,0.07056,0.4011
-2.88856,0,0,17.8886,17.8886,12.1114,12.1114,2.05416,0.835701,12.2449,0.0689193,-0.0559439,0.039886,0,0,0,3.08,-0.28,0.105,0.043554,-0.079544,-0.97234,-0.23324,0.07056,0.4011
-2.88861,0,0,17.8886,17.8886,12.1114,12.1114,2.05398,0.835554,12.2462,0.0790052,0.0562874,0.139474,1,0,0,3.3775,0.07,-0.105,0.05368,0.032574,-0.87352,-0.23324,0.07056,0.4011
-2.88967,0,0,17.8897,17.8897,12.1103,12.1103,2.05452,0.8354,12.2477,0.0790079,0.0562968,0.139474,1,0,0,3.78,0.07,0.035,0.05368,0.032574,-0.87352,-0.23324,0.07056,0.4011
-2.67411,0,0,17.6741,17.6741,12.3259,12.3259,1.90034,0.73305,12.3932,-0.0538121,0.131648,-0.000569888,0,0,0,3.8325,0.0875,-0.0175,-0.081496,0.110532,-1.0126,-0.23324,0.07056,0.4011
-2.46543,0,0,17.4654,17.4654,12.5346,12.5346,1.7511,0.634781,12.5377,-0.0520971,0.129045,-0.000466446,0,0,0,4.8825,0.7175,-0.3325,-0.081496,0.110532,-1.0126,-0.23324,0.07056,0.4011
-2.47033,0,0,17.4703,17.4703,12.5297,12.5297,1.75441,0.636258,12.539,-0.150648,0.00685386,-0.115179,1,0,0,5.3375,1.015,-0.175,-0.180438,-0.01159,-1.12643,-0.23324,0.07056,0.4011
-2.47155,0,0,17.4715,17.4715,12.5285,12.5285,1.75509,0.638227,12.5397,-0.150682,0.00686574,-0.11518,1,0,0,3.8675,1.295,-0.4725,-0.180438,-0.01159,-1.12643,-0.23338,0.07462,0.40978
-2.29938,0,0,17.2994,17.2994,12.7006,12.7006,1.63193,0.60478,12.6334,-0.0123336,0.111456,-0.0726931,0,0,0,2.7125,0.7,-0.805,-0.04209,0.095038,-1.08434,-0.23338,0.07462,0.40978
-2.12819,0,0,17.1282,17.1282,12.8718,12.8718,1.5095,0.570755,12.7264,-0.0117398,0.10932,-0.0726284,0,0,0,1.75,-0.315,-0.9625,-0.04209,0.095038,-1.08434,-0.23338,0.07462,0.40978
-2.25453,0,0,17.2545,17.2545,12.7455,12.7455,1.59957,0.606561,12.752,0.0159415,-0.0760843,0.0379761,0,0,0,2.0825,-0.9625,-0.98,-0.013664,-0.091744,-0.974536,-0.23338,0.07462,0.40978
-2.37924,0,0,17.3792,17.3792,12.6208,12.6208,1.68847,0.641916,12.7769,0.0153244,-0.0745338,0.0379249,0,0,0,2.45,-0.5425,-1.26,-0.013664,-0.091744,-0.974536,-0.23338,0.07462,0.40978
-2.37811,0,0,17.3781,17.3781,12.6219,12.6219,1.68748,0.640975,12.7761,-0.143198,0.0804278,0.146735,1,0,0,2.94,-0.4375,-1.3475,-0.172874,0.063074,-0.866566,-0.23338,0.07462,0.40978
-2.38117,0,0,17.3812,17.3812,12.6188,12.6188,1.68948,0.639857,12.7751,-0.143178,0.0804628,0.146734,1,0,0,4.62,-0.5425,-1.4,-0.172874,0.063074,-0.866566,-0.23338,0.07462,0.40978
-2.34969,0,0,17.3497,17.3497,12.6503,12.6503,1.66682,0.680326,12.8073,0.0319051,0.0244995,-0.0502258,0,0,0,5.0225,-0.3675,-1.47,0.00366,0.007564,-1.06201,-0.23338,0.07462,0.40978
-2.31709,0,0,17.3171,17.3171,12.6829,12.6829,1.64336,0.721479,12.8393,0.0311869,0.02409,-0.0502228,0,0,0,4.3575,0.6125,-1.47,0.00366,0.007564,-1.06201,-0.23338,0.07462,0.40978
-2.1306,0,0,17.1306,17.1306,12.8694,12.8694,1.50999,0.662698,12.9464,-0.0302309,0.121541,-0.0751049,0,0,0,3.36,1.05,-1.3475,-0.059048,0.107238,-1.08678,-0.23464,0.07504,0.41286
-2.10185,0,0,17.1018,17.1018,12.8982,12.8982,1.48929,0.582322,13.0568,-0.0538542,0.0124877,-0.0149584,0,0,0,2.8,1.0325,-1.47,-0.08418,-0.001342,-1.02712,-0.23464,0.07504,0.41286
-2.07243,0,0,17.0724,17.0724,12.9276,12.9276,1.46812,0.502595,13.1663,-0.0524628,0.0121187,-0.0149357,0,0,0,2.2575,0.1575,-1.5575,-0.08418,-0.001342,-1.02712,-0.23464,0.07504,0.41286
-1.9962,0,0,16.9962,16.9962,13.0038,13.0038,1.41352,0.419144,13.2824,-0.0508849,0.0423087,0.00182096,0,0,0,2.66,-0.14,-1.435,-0.084058,0.029768,-1.01053,-0.23464,0.07504,0.41286
-1.92207,0,0,16.9221,16.9221,13.0779,13.0779,1.36042,0.337678,13.3979,-0.049463,0.0413825,0.00185278,0,0,0,2.8525,-0.315,-1.3825,-0.084058,0.029768,-1.01053,-0.23464,0.07504,0.41286
-1.9205,0,0,16.9205,16.9205,13.0795,13.0795,1.35916,0.393825,13.4183,0.034354,0.00630991,0.095042,0,0,0,3.5875,-0.5425,-1.1025,0.001098,-0.005246,-0.91805,-0.23464,0.07504,0.41286
-1.91977,0,0,16.9198,16.9198,13.0802,13.0802,1.35849,0.448758,13.4391,0.0333953,0.00629812,0.0950352,0,0,0,3.955,-0.4025,-0.8225,0.001098,-0.005246,-0.91805,-0.23464,0.07504,0.41286
-1.79477,0,0,16.7948,16.7948,13.2052,13.2052,1.26907,0.579496,13.419,0.0985381,0.0891269,-0.01339,0,0,0,4.165,-0.0525,-0.735,0.068808,0.079056,-1.02565,-0.23464,0.07504,0.41286
-1.67221,0,0,16.6722,16.6722,13.3278,13.3278,1.1814,0.708641,13.3946,0.0962843,0.0875968,-0.0133826,0,0,0,4.27,0.7875,-0.42,0.068808,0.079056,-1.02565,-0.2324,0.07812,0.41678
-1.47524,0,0,16.4752,16.4752,13.5248,13.5248,1.04059,0.538593,13.5729,-0.106788,0.119336,-0.0188354,0,0,0,4.1825,0.875,-0.49,-0.138104,0.113216,-1.03114,-0.2324,0.07812,0.41678
-1.27822,0,0,16.2782,16.2782,13.7218,13.7218,0.899768,0.372559,13.7507,-0.10389,0.116879,-0.0187707,0,0,0,2.59,0.5425,-0.49,-0.138104,0.113216,-1.03114,-0.2324,0.07812,0.41678
-1.23359,0,0,16.2336,16.2336,13.7664,13.7664,0.867798,0.301912,13.8542,-0.0461661,0.0226499,-0.0170336,0,0,0,2.3625,0.1925,-0.56,-0.081374,0.019642,-1.02944,-0.2324,0.07812,0.41678
-1.18964,0,0,16.1896,16.1896,13.8104,13.8104,0.836314,0.232665,13.9574,-0.0449576,0.0221006,-0.0170198,0,0,0,2.24,-0.0875,-0.3675,-0.081374,0.019642,-1.02944,-0.2324,0.07812,0.41678
-1.07406,0,0,16.0741,16.0741,13.9259,13.9259,0.753679,0.0215885,14.1611,-0.134696,0.0587621,0.0208766,0,0,0,2.3275,-0.2625,-0.5425,-0.175192,0.057706,-0.99186,-0.2324,0.07812,0.41678
-0.961086,0,0,15.9611,15.9611,14.0389,14.0389,0.67291,-0.18415,14.3644,-0.131105,0.0573525,0.020889,0,0,0,2.3975,-0.385,-0.21,-0.175192,0.057706,-0.99186,-0.2324,0.07812,0.41678
-0.843924,0,0,15.8439,15.8439,14.1561,14.1561,0.58916,-0.4446,14.6069,-0.152801,0.0534481,0.109772,0,0,0,2.9575,-0.4725,-0.2275,-0.201544,0.055266,-0.903654,-0.2324,0.07812,0.41678
-0.731258,0,0,15.7313,15.7313,14.2687,14.2687,0.50863,-0.697697,14.8566,-0.148383,0.0520423,0.109741,0,0,0,3.8325,0.035,-0.63,-0.201544,0.055266,-0.903654,-0.22946,0.0728,0.41006
-0.755515,0,0,15.7555,15.7555,14.2445,14.2445,0.5259,-0.754322,14.9661,-0.042796,-0.01849,-0.0408858,0,0,0,4.27,0.0875,-0.7,-0.096502,-0.015494,-1.0531,-0.22946,0.0728,0.41006
-0.778221,0,0,15.7782,15.7782,14.2218,14.2218,0.542061,-0.809258,15.0747,-0.0418373,-0.0182081,-0.0409015,0,0,0,3.7975,0.2625,-0.7175,-0.096502,-0.015494,-1.0531,-0.22946,0.0728,0.41006
-0.607233,0,0,15.6072,15.6072,14.3928,14.3928,0.419881,-0.65621,15.0643,0.113666,0.112412,0.0534521,0,0,0,3.5175,0.3675,-0.7,0.062342,0.11712,-0.95953,-0.22946,0.0728,0.41006
-0.439644,0,0,15.4396,15.4396,14.5604,14.5604,0.300143,-0.506403,15.0534,0.111052,0.110322,0.0534917,0,0,0,3.675,0.455,-0.735,0.062342,0.11712,-0.95953,-0.22946,0.0728,0.41006
-0.532098,0,0,15.5321,15.5321,14.4679,14.4679,0.366142,-0.329734,14.996,0.114528,-0.0471684,0.00887721,0,0,0,3.8675,0.49,-1.085,0.06893,-0.041358,-1.00382,-0.22946,0.0728,0.41006
-0.621313,0,0,15.6213,15.6213,14.3787,14.3787,0.429821,-0.158404,14.9388,0.111538,-0.0460569,0.00888222,0,0,0,3.4825,0.0525,-1.365,0.06893,-0.041358,-1.00382,-0.22946,0.0728,0.41006
-0.738179,0,0,15.7382,15.7382,14.2618,14.2618,0.513241,0.0116964,14.8767,0.11185,-0.0660953,-0.0165763,0,0,0,3.1675,-0.14,-1.4,0.072224,-0.06283,-1.02907,-0.22946,0.0728,0.41006
-0.851619,0,0,15.8516,15.8516,14.1484,14.1484,0.594207,0.177244,14.8184,0.10896,-0.0646823,-0.0165947,0,0,0,2.905,-0.14,-1.3475,0.072224,-0.06283,-1.02907,-0.22498,0.07196,0.40166
-0.672437,0,0,15.6724,15.6724,14.3276,14.3276,0.466169,0.00431915,15.0111,-0.108397,0.104061,-0.0047662,0,0,0,3.2025,0.14,-1.3825,-0.149084,0.10797,-1.01736,-0.22498,0.07196,0.40166
-0.497256,0,0,15.4973,15.4973,14.5027,14.5027,0.341003,-0.164223,15.2033,-0.105455,0.101876,-0.00475492,0,0,0,3.36,0,-1.3125,-0.149084,0.10797,-1.01736,-0.22498,0.07196,0.40166
-0.389376,0,0,15.3894,15.3894,14.6106,14.6106,0.263918,-0.429373,15.4555,-0.185867,0.0541225,-0.0361237,0,0,0,3.2725,0.1225,-1.2775,-0.234484,0.06161,-1.04847,-0.22498,0.07196,0.40166
-0.284049,0,0,15.284,15.284,14.716,14.716,0.188664,-0.68661,15.7064,-0.181378,0.0528089,-0.0361622,0,0,0,3.3775,0.7525,-1.225,-0.234484,0.06161,-1.04847,-0.22498,0.07196,0.40166
-0.111021,0,0,15.111,15.111,14.889,14.889,0.065066,-0.796541,15.8701,-0.0589457,0.096083,0.0693076,0,0,0,3.535,0.63,-1.2425,-0.11346,0.106994,-0.943792,-0.22498,0.07196,0.40166
0.0583659,0,0,14.9416,14.9416,15.0584,15.0584,-0.0559187,-0.904362,16.0333,-0.0570641,0.0939717,0.0692798,0,0,0,3.605,0.07,-1.2075,-0.11346,0.106994,-0.943792,-0.22498,0.07196,0.40166
0.0625184,0,0,14.9375,14.9375,15.0625,15.0625,-0.0588785,-1.03386,16.1939,-0.0895492,-0.0054911,0.00801317,0,0,0,3.5525,0,-1.1375,-0.148352,0.007686,-1.00455,-0.22498,0.07196,0.40166
0.0661477,0,0,14.9339,14.9339,15.0661,15.0661,-0.0614642,-1.16055,16.3517,-0.0873383,-0.00553617,0.00797078,0,0,0,3.78,0.1925,-0.91,-0.148352,0.007686,-1.00455,-0.2296,0.07224,0.3969
0.0881282,0,0,14.9119,14.9119,15.0881,15.0881,-0.0771563,-1.06409,16.3659,0.0685452,0.0209357,0.00333109,0,0,0,4.06,0.35,-0.735,0.009882,0.034404,-1.00918,-0.2296,0.07224,0.3969
0.109644,0,0,14.8904,14.8904,15.1096,15.1096,-0.092515,-0.970351,16.3803,0.0669095,0.0206677,0.00335974,0,0,0,4.165,0.1225,-0.6125,0.009882,0.034404,-1.00918,-0.2296,0.07224,0.3969
-0.16756,0,0,15.1676,15.1676,14.8324,14.8324,0.105477,-0.963201,16.4147,-0.0157041,-0.169326,0.0393854,0,0,0,4.0775,0.175,-0.315,-0.072956,-0.158844,-0.973438,-0.2296,0.07224,0.3969
-0.165273,0,0,15.1653,15.1653,14.8347,14.8347,0.103832,-0.788271,16.3704,0.127512,0.0138355,-0.0457712,0,0,0,3.7275,-0.0175,-0.4025,0.073932,0.024156,-1.05798,-0.2296,0.07224,0.3969
-0.162175,0,0,15.1622,15.1622,14.8378,14.8378,0.101608,-0.616535,16.3263,0.124515,0.0137968,-0.0457344,0,0,0,3.57,0.63,-0.3675,0.073932,0.024156,-1.05798,-0.2296,0.07224,0.3969
-0.139476,0,0,15.1395,15.1395,14.8605,14.8605,0.0853858,-0.484403,16.3079,0.0966968,0.0235281,-0.0378431,0,0,0,3.3075,0.3675,-0.315,0.048312,0.03416,-1.05018,-0.2296,0.07224,0.3969
-0.117684,0,0,15.1177,15.1177,14.8823,14.8823,0.0698122,-0.356085,16.2891,0.0944573,0.0232563,-0.0378263,0,0,0,3.6225,0.0175,-0.49,0.048312,0.03416,-1.05018,-0.2296,0.07224,0.3969
0.106351,0,0,14.8936,14.8936,15.1064,15.1064,-0.090203,-0.37221,16.3924,0.00605418,0.130866,0.0789725,0,0,0,3.57,0.2975,-0.6825,-0.040748,0.144448,-0.934276,-0.23268,0.06734,0.39564
0.0479926,0,0,14.952,14.952,15.048,15.048,-0.0485132,-0.352938,16.4425,0.00814754,-0.0353535,0.0447958,0,0,0,2.7125,0.5075,-0.525,-0.038308,-0.022326,-0.968192,-0.23268,0.06734,0.39564
-0.0101864,0,0,15.0102,15.0102,14.9898,14.9898,-0.00695601,-0.334909,16.4919,0.00783288,-0.0346282,0.0447981,0,0,0,3.115,0.14,-0.7875,-0.038308,-0.022326,-0.968192,-0.23268,0.06734,0.39564
-0.116462,0,0,15.1165,15.1165,14.8835,14.8835,0.0689477,-0.20456,16.4611,0.0859814,-0.0601713,-0.0383051,0,0,0,4.13,0.0175,-0.875,0.042456,-0.049166,-1.05066,-0.23268,0.06734,0.39564
-0.218282,0,0,15.2183,15.2183,14.7817,14.7817,0.141661,-0.0775481,16.4305,0.0837646,-0.0589023,-0.038302,0,0,0,3.325,0.105,-0.98,0.042456,-0.049166,-1.05066,-0.23268,0.06734,0.39564
-0.230633,0,0,15.2306,15.2306,14.7694,14.7694,0.150467,-0.07737,16.4906,-0.0007925,-0.00843234,-0.00264733,0,0,0,3.115,0.0525,-1.1375,-0.042456,0.001098,-1.01528,-0.23268,0.06734,0.39564
-0.243006,0,0,15.243,15.243,14.757,14.757,0.159288,-0.0785655,16.5497,-0.000771635,-0.00827839,-0.00264778,0,0,0,3.22,-0.735,-1.3825,-0.042456,0.001098,-1.01528,-0.23268,0.06734,0.39564
-0.143537,0,0,15.1435,15.1435,14.8565,14.8565,0.0882295,-0.237154,16.7234,-0.108313,0.0547201,-0.0535534,0,0,0,3.0625,-0.5775,-1.47,-0.153232,0.06527,-1.06579,-0.23268,0.06734,0.39564
-0.0439196,0,0,15.0439,15.0439,14.9561,14.9561,0.0170721,-0.390973,16.89,-0.105628,0.0534781,-0.053567,0,0,0,2.135,-0.21,-1.7325,-0.153232,0.06527,-1.06579,-0.2317,0.07112,0.3892
-0.17059,0,0,15.1706,15.1706,14.8294,14.8294,0.107539,-0.442041,16.9648,-0.0464237,-0.0877091,-0.013371,0,0,0,2.135,0.2625,-1.925,-0.094672,-0.077348,-1.0259,-0.2317,0.07112,0.3892
-0.298021,0,0,15.298,15.298,14.702,14.702,0.19854,-0.492448,17.0392,-0.045544,-0.0861209,-0.0133824,0,0,0,3.3775,0.0525,-1.7675,-0.094672,-0.077348,-1.0259,-0.2317,0.07112,0.3892
-0.186772,0,0,15.1868,15.1868,14.8132,14.8132,0.119064,-0.583137,17.1684,-0.0527082,0.0619751,0.0297615,0,0,0,3.08,-0.035,-1.61,-0.103456,0.07198,-0.983076,-0.2317,0.07112,0.3892
-0.0786259,0,0,15.0786,15.0786,14.9214,14.9214,0.0418123,-0.671846,17.2968,-0.05116,0.0606269,0.0297464,0,0,0,3.395,-0.3325,-1.6625,-0.103456,0.07198,-0.983076,-0.2317,0.07112,0.3892
-0.0708245,0,0,15.0708,15.0708,14.9292,14.9292,0.036236,-0.846465,17.4694,-0.120032,-0.0071287,0.0139687,0,0,0,3.6925,-0.035,-1.82,-0.17568,0.004392,-0.998692,-0.2317,0.07112,0.3892
-0.0653106,0,0,15.0653,15.0653,14.9347,14.9347,0.032294,-1.01718,17.6416,-0.117053,-0.00719752,0.0139203,0,0,0,4.4275,-0.3325,-1.2425,-0.17568,0.004392,-0.998692,-0.2317,0.07112,0.3892
0.0108414,0,0,14.9892,14.9892,15.0108,15.0108,-0.0220979,-1.0766,17.753,-0.0352281,0.0455891,-0.0056474,0,0,0,4.27,-0.21,-1.155,-0.09455,0.058072,-1.01809,-0.2317,0.07112,0.3892
0.0884697,0,0,14.9115,14.9115,15.0885,15.0885,-0.0775384,-1.13421,17.8659,-0.0342229,0.0446217,-0.00566763,0,0,0,2.975,-0.315,-1.12,-0.09455,0.058072,-1.01809,-0.22652,0.07098,0.39228
0.237429,0,0,14.7626,14.7626,15.2374,15.2374,-0.183918,-1.38627,18.1155,-0.181925,0.0811135,-0.0683494,0,0,0,2.31,-0.42,-0.77,-0.247294,0.09638,-1.08019,-0.22652,0.07098,0.39228
0.237626,0,0,14.7624,14.7624,15.2376,15.2376,-0.184039,-1.38711,18.1161,-0.0504625,0.0251773,0.142384,1,0,0,3.43,-0.3675,-0.525,-0.11529,0.040504,-0.87108,-0.22652,0.07098,0.39228
0.239,0,0,14.761,14.761,15.239,15.239,-0.185001,-1.38679,18.1166,-0.0504681,0.0251605,0.142384,1,0,0,2.9575,0.315,-0.56,-0.11529,0.040504,-0.87108,-0.22652,0.07098,0.39228
0.296415,0,0,14.7036,14.7036,15.2964,15.2964,-0.225987,-1.23181,18.0932,0.121524,0.0511909,-0.0782493,0,0,0,3.29,0.5425,-0.3675,0.060146,0.067222,-1.09007,-0.22652,0.07098,0.39228
0.351078,0,0,14.6489,14.6489,15.3511,15.3511,-0.265004,-1.08062,18.0706,0.118886,0.0505099,-0.0781989,0,0,0,4.1125,0.4375,0.07,0.060146,0.067222,-1.09007,-0.22652,0.07098,0.39228
0.285319,0,0,14.7147,14.7147,15.2853,15.2853,-0.21801,-1.06233,18.1175,0.00704292,-0.0405094,-0.067616,0,0,0,4.9,0.2275,0.2975,-0.05185,-0.024522,-1.07958,-0.22652,0.07098,0.39228
0.222414,0,0,14.7776,14.7776,15.2224,15.2224,-0.173059,-1.04397,18.1638,0.00672243,-0.0397251,-0.0676074,0,0,0,4.2875,0.63,0.1575,-0.05185,-0.024522,-1.07958,-0.22652,0.07098,0.39228
0.193332,0,0,14.8067,14.8067,15.1933,15.1933,-0.15227,-1.12128,18.2831,-0.0621472,-0.0240964,-0.0545993,0,0,0,4.235,0.7175,0.0525,-0.122366,-0.009272,-1.06665,-0.22386,0.06748,0.38794
-0.00405298,0,0,15.0041,15.0041,14.9959,14.9959,-0.0112795,-1.15561,18.3504,-0.0362792,-0.11836,0.0775619,0,0,0,3.78,0.0175,0.14,-0.09699,-0.105896,-0.935496,-0.22386,0.06748,0.38794
-0.196442,0,0,15.1964,15.1964,14.8036,14.8036,0.126128,-1.18953,18.4164,-0.0356872,-0.115963,0.0775474,0,0,0,3.2725,0.035,-0.2275,-0.09699,-0.105896,-0.935496,-0.22386,0.06748,0.38794
-0.323856,0,0,15.3239,15.3239,14.6761,14.6761,0.217115,-0.893938,18.2751,0.19022,-0.0567309,0.064481,0,0,0,3.29,-0.1225,-0.4025,0.135054,-0.048312,-0.94855,-0.22386,0.06748,0.38794
-0.448722,0,0,15.4487,15.4487,14.5513,14.5513,0.306272,-0.60494,18.1351,0.185177,-0.0551747,0.0645398,0,0,0,3.675,0.315,-0.525,0.135054,-0.048312,-0.94855,-0.22386,0.06748,0.38794
-0.450231,0,0,15.4502,15.4502,14.5498,14.5498,0.307316,-0.604444,18.1354,-0.241611,0.106417,-0.112014,1,0,0,4.0775,0.42,-0.6825,-0.293532,0.113094,-1.12374,-0.22386,0.06748,0.38794
-0.45127,0,0,15.4513,15.4513,14.5487,14.5487,0.308025,-0.603407,18.135,-0.241629,0.10643,-0.112014,1,0,0,3.885,0.735,-1.1025,-0.293532,0.113094,-1.12374,-0.22386,0.06748,0.38794
-0.417816,0,0,15.4178,15.4178,14.5822,14.5822,0.2841,-0.764169,18.3036,-0.116123,0.0106309,-0.0348338,0,0,0,4.095,0.3325,-1.33,-0.170312,0.017812,-1.04713,-0.22386,0.06748,0.38794
-0.38385,0,0,15.3838,15.3838,14.6162,14.6162,0.25981,-0.921309,18.4679,-0.113381,0.0102068,-0.0348721,0,0,0,3.5525,0.21,-1.575,-0.170312,0.017812,-1.04713,-0.22666,0.06832,0.3906
-0.460508,0,0,15.4605,15.4605,14.5395,14.5395,0.314532,-0.940616,18.5292,-0.0181634,-0.0481919,0.0426981,0,0,0,3.255,-0.0525,-1.6625,-0.07503,-0.04148,-0.970144,-0.22666,0.06832,0.3906
-0.544115,0,0,15.5441,15.5441,14.4559,14.4559,0.374211,-0.874871,18.5338,0.0388809,-0.0461733,0.0455379,0,0,0,3.2025,-0.21,-1.785,-0.016592,-0.040504,-0.967338,-0.22666,0.06832,0.3906
-0.623726,0,0,15.6237,15.6237,14.3763,14.3763,0.431031,-0.81174,18.5375,0.0377792,-0.0451816,0.0455471,0,0,0,2.3275,-0.6825,-2.31,-0.016592,-0.040504,-0.967338,-0.22666,0.06832,0.3906
-0.831928,0,0,15.8319,15.8319,14.1681,14.1681,0.579684,-0.434607,18.3183,0.231892,-0.0972995,0.108423,0,0,0,2.555,-0.5075,-2.5375,0.184952,-0.09516,-0.904996,-0.22666,0.06832,0.3906
-1.03598,0,0,16.036,16.036,13.964,13.964,0.725358,-0.066222,18.1025,0.225462,-0.0947569,0.108422,0,0,0,3.115,-0.175,-2.0475,0.184952,-0.09516,-0.904996,-0.22666,0.06832,0.3906
-0.96614,0,0,15.9661,15.9661,14.0339,14.0339,0.6754,-0.028189,18.1318,0.0316362,0.0464046,0.0111806,0,0,0,2.975,0.0175,-2.1,-0.009028,0.046726,-1.0015,-0.22666,0.06832,0.3906
-0.896902,0,0,15.8969,15.8969,14.1031,14.1031,0.625877,0.00895082,18.161,0.030988,0.0455403,0.0111905,0,0,0,2.7125,-0.035,-1.995,-0.009028,0.046726,-1.0015,-0.22666,0.06832,0.3906
-0.949734,0,0,15.9497,15.9497,14.0503,14.0503,0.663543,-0.107439,18.2845,-0.0883448,-0.0452753,-0.0198016,0,0,0,2.52,-0.1225,-1.68,-0.130906,-0.044652,-1.03224,-0.22666,0.06132,0.39354
-1.10882,0,0,16.1088,16.1088,13.8912,13.8912,0.777091,-0.0510232,18.2846,0.029848,-0.108021,-0.0773651,0,0,0,2.6075,-0.455,-1.1025,-0.011224,-0.109312,-1.08934,-0.22666,0.06132,0.39354
-1.26612,0,0,16.2661,16.2661,13.7339,13.7339,0.889357,0.00386406,18.2851,0.02889,-0.106062,-0.0773932,0,0,0,3.2025,-0.315,-0.9625,-0.011224,-0.109312,-1.08934,-0.22666,0.06132,0.39354
-1.04769,0,0,16.0477,16.0477,13.9523,13.9523,0.733252,-0.169431,18.4782,-0.100748,0.121301,0.0494009,0,0,0,2.87,-0.0175,-0.7175,-0.144448,0.120536,-0.963556,-0.22666,0.06132,0.39354
-0.834193,0,0,15.8342,15.8342,14.1658,14.1658,0.580694,-0.338821,18.6714,-0.0977914,0.118638,0.0494183,0,0,0,3.0975,-0.455,-0.385,-0.144448,0.120536,-0.963556,-0.22666,0.06132,0.39354
-0.741745,0,0,15.7417,15.7417,14.2583,14.2583,0.514605,-0.367854,18.7622,-0.0126092,0.0556887,0.0109434,0,0,0,3.0625,-0.105,-0.245,-0.059414,0.058804,-1.00174,-0.22666,0.06132,0.39354
-0.651404,0,0,15.6514,15.6514,14.3486,14.3486,0.450027,-0.394997,18.8534,-0.0121354,0.0545616,0.0109497,0,0,0,3.1675,0.4725,0.28,-0.059414,0.058804,-1.00174,-0.22666,0.06132,0.39354
-0.449669,0,0,15.4497,15.4497,14.5503,14.5503,0.305898,-0.437397,18.9691,-0.0158904,0.132161,-0.0593656,0,0,0,2.73,0.7175,0.14,-0.063928,0.138836,-1.07153,-0.22666,0.06132,0.39354
-0.252649,0,0,15.2526,15.2526,14.7474,14.7474,0.165152,-0.478738,19.0837,-0.0151689,0.129705,-0.0593613,0,0,0,3.0275,0.455,0.4725,-0.063928,0.138836,-1.07153,-0.22596,0.0623,0.38934
-0.326987,0,0,15.327,15.327,14.673,14.673,0.218227,-0.371579,19.0669,0.0729818,-0.042178,-0.0527113,0,0,0,3.2025,0.63,0.5075,0.026474,-0.033794,-1.06494,-0.22596,0.0623,0.38934
-0.399778,0,0,15.3998,15.3998,14.6002,14.6002,0.270191,-0.267266,19.0504,0.0711612,-0.0412711,-0.052705,0,0,0,3.29,0.595,0.5775,0.026474,-0.033794,-1.06494,-0.22596,0.0623,0.38934
-0.463911,0,0,15.4639,15.4639,14.5361,14.5361,0.315967,-0.136934,19.0164,0.0858945,-0.0313126,0.0107403,0,0,0,3.185,0.9275,0.2975,0.043554,-0.024644,-1.00199,-0.22596,0.0623,0.38934
-0.527543,0,0,15.5275,15.5275,14.4725,14.4725,0.36138,-0.0106592,18.9825,0.0836906,-0.03052,0.0107385,0,0,0,3.64,0.49,0.175,0.043554,-0.024644,-1.00199,-0.22596,0.0623,0.38934
-0.519529,0,0,15.5195,15.5195,14.4805,14.4805,0.355617,-0.0242905,19.0461,-0.00973697,0.00369704,-0.0117605,0,0,0,3.29,0.56,0.035,-0.050508,0.009638,-1.02431,-0.22596,0.0623,0.38934
-0.511092,0,0,15.5111,15.5111,14.4889,14.4889,0.349554,-0.03843,19.1085,-0.00949019,0.00359121,-0.01176,0,0,0,3.045,0.0525,-0.4375,-0.050508,0.009638,-1.02431,-0.22596,0.0623,0.38934
-0.50806,0,0,15.5081,15.5081,14.4919,14.4919,0.34735,-0.0216508,19.1502,0.011477,0.00294212,0.0384034,0,0,0,3.22,0.2975,-0.5775,-0.029158,0.009028,-0.974536,-0.22596,0.0623,0.38934
-0.505501,0,0,15.5055,15.5055,14.4945,14.4945,0.345486,-0.0055283,19.1947,0.0111956,0.00290958,0.0384036,0,0,0,3.395,0.1225,-1.2425,-0.029158,0.009028,-0.974536,-0.22904,0.05894,0.38682
-0.579077,0,0,15.5791,15.5791,14.4209,14.4209,0.397997,0.0223266,19.221,0.014111,-0.0488106,-0.0640185,0,0,0,3.185,0.525,-1.505,-0.025742,-0.043554,-1.07616,-0.22904,0.05894,0.38682
-0.654463,0,0,15.6545,15.6545,14.3455,14.3455,0.451796,0.0493075,19.2458,0.0136401,-0.0478716,-0.0640257,0,0,0,4.515,0.5075,-2.1875,-0.025742,-0.043554,-1.07616,-0.22904,0.05894,0.38682
-0.440119,0,0,15.4401,15.4401,14.5599,14.5599,0.298661,-0.0843039,19.4102,-0.0803661,0.130936,-0.0175344,0,0,0,4.06,0.63,-2.31,-0.122488,0.137738,-1.03005,-0.22904,0.05894,0.38682
-0.227667,0,0,15.2277,15.2277,14.7723,14.7723,0.146894,-0.21482,19.5738,-0.0780882,0.128287,-0.0175301,0,0,0,3.0975,0.2975,-2.485,-0.122488,0.137738,-1.03005,-0.22904,0.05894,0.38682
-0.182018,0,0,15.182,15.182,14.818,14.818,0.114275,-0.353433,19.7211,-0.10191,0.0190251,-0.0631546,0,0,0,3.4125,0.0175,-2.905,-0.14884,0.029158,-1.07531,-0.22904,0.05894,0.38682
-0.136638,0,0,15.1366,15.1366,14.8634,14.8634,0.0818521,-0.489101,19.8676,-0.0995421,0.0184592,-0.0631711,0,0,0,3.045,-0.315,-2.765,-0.14884,0.029158,-1.07531,-0.22904,0.05894,0.38682
-0.133505,0,0,15.1335,15.1335,14.8665,14.8665,0.079606,-0.497074,19.9282,-0.00525151,0.000833747,-0.0281319,0,0,0,3.115,-0.385,-2.73,-0.05429,0.01159,-1.04054,-0.22904,0.05894,0.38682
-0.13048,0,0,15.1305,15.1305,14.8695,14.8695,0.0774372,-0.504797,19.9801,-0.00511671,0.000795895,-0.028133,0,0,0,3.115,-0.385,-2.73,-0.05429,0.01159,-1.04054,-0.22386,0.06538,0.39046
0.0710911,0,0,14.9289,14.9289,15.0711,15.0711,-0.0665353,-0.409677,19.9951,0.0896828,0.144103,-0.0418898,0,0,0,3.3075,-0.4025,-2.3275,0.042578,0.157258,-1.0542,-0.22386,0.06538,0.39046
0.269079,0,0,14.7309,14.7309,15.2691,15.2691,-0.207933,-0.316397,20.0098,0.0880548,0.141635,-0.0418854,0,0,0,3.3075,-0.4025,-2.3275,0.042578,0.157258,-1.0542,-0.22386,0.06538,0.39046
0.353804,0,0,14.6462,14.6462,15.3538,15.3538,-0.268422,-0.457444,20.1612,-0.088189,0.0410458,0.0704685,0,0,0,4.235,0.0525,-1.5225,-0.136884,0.057828,-0.942694,-0.22386,0.06538,0.39046
0.43663,0,0,14.5634,14.5634,15.4366,15.4366,-0.327548,-0.594914,20.3118,-0.0857898,0.040014,0.0704411,0,0,0,4.235,0.0525,-1.5225,-0.136884,0.057828,-0.942694,-0.22386,0.06538,0.39046
0.564653,0,0,14.4353,14.4353,15.5647,15.5647,-0.418948,-0.638989,20.412,-0.0186894,0.0727366,0.0758322,0,0,0,3.815,-0.1925,-0.4375,-0.070272,0.09211,-0.937326,-0.22386,0.06538,0.39046
0.69014,0,0,14.3099,14.3099,15.6901,15.6901,-0.508527,-0.681748,20.5117,-0.0179431,0.0711733,0.0758109,0,0,0,3.815,-0.1925,-0.4375,-0.070272,0.09211,-0.937326,-0.22386,0.06538,0.39046
0.52723,0,0,14.4728,14.4728,15.5272,15.5272,-0.392122,-0.605131,20.4911,0.0408552,-0.0928877,0.0612111,0,0,0,3.605,-0.21,0.42,-0.009882,-0.07381,-0.951844,-0.22386,0.06538,0.39046
0.367718,0,0,14.6323,14.6323,15.3677,15.3677,-0.278154,-0.530724,20.4708,0.0395566,-0.0908988,0.0612356,0,0,0,3.605,-0.21,0.42,-0.009882,-0.07381,-0.951844,-0.22386,0.06538,0.39046
0.366418,0,0,14.6336,14.6336,15.3664,15.3664,-0.277196,-0.530391,20.4738,0.161522,-0.0945459,0.136972,1,0,0,4.0425,0.315,0.8575,0.112606,-0.07747,-0.876692,-0.22708,0.06664,0.38654
0.317201,0,0,14.6828,14.6828,15.3172,15.3172,-0.242015,-0.724822,20.6396,-0.140742,-0.0458138,0.030956,0,0,0,4.27,-0.14,1.295,-0.194346,-0.029402,-0.981856,-0.22708,0.06664,0.38654
0.221275,0,0,14.7787,14.7787,15.2213,15.2213,-0.173478,-0.664496,20.6373,0.0360599,-0.0560976,-0.00714096,0,0,0,4.0775,0.105,1.3125,-0.015738,-0.04087,-1.01968,-0.22708,0.06664,0.38654
0.12752,0,0,14.8725,14.8725,15.1275,15.1275,-0.106498,-0.604833,20.6346,0.0350186,-0.0549287,-0.00712657,0,0,0,4.025,0.7,0.9625,-0.015738,-0.04087,-1.01968,-0.22708,0.06664,0.38654
-0.0476854,0,0,15.0477,15.0477,14.9523,14.9523,0.018646,-0.544831,20.6173,0.0300839,-0.116128,-0.0775639,0,0,0,3.815,0.7,0.9975,-0.019642,-0.104188,-1.08958,-0.22708,0.06664,0.38654
-0.219568,0,0,15.2196,15.2196,14.7804,14.7804,0.141404,-0.486146,20.5996,0.0290597,-0.113986,-0.0775577,0,0,0,3.92,1.015,0.4725,-0.019642,-0.104188,-1.08958,-0.22708,0.06664,0.38654
-0.476666,0,0,15.4767,15.4767,14.5233,14.5233,0.325011,-0.187867,20.4138,0.208634,-0.152427,-0.0497537,0,0,0,3.6225,0.7525,0.315,0.16592,-0.14579,-1.06201,-0.22708,0.06664,0.38654
-0.726564,0,0,15.7266,15.7266,14.2734,14.2734,0.503455,0.101647,20.225,0.203581,-0.149312,-0.0497724,0,0,0,3.3425,0.4025,-0.2975,0.16592,-0.14579,-1.06201,-0.22694,0.06944,0.38696
-0.726534,0,0,15.7265,15.7265,14.2735,14.2735,0.50338,0.102471,20.2253,-0.0312656,-0.0461165,-0.194237,1,0,0,3.4475,0.6125,-0.7,-0.069906,-0.0427,-1.20536,-0.22694,0.06944,0.38696
-0.726851,0,0,15.7269,15.7269,14.2731,14.2731,0.503552,0.102827,20.2243,-0.0312718,-0.0461135,-0.194237,1,0,0,3.5875,0.3325,-1.4175,-0.069906,-0.0427,-1.20536,-0.22694,0.06944,0.38696
-0.726424,0,0,15.7264,15.7264,14.2736,14.2736,0.503194,0.102916,20.2232,-0.115706,0.166503,-0.133132,1,0,0,3.29,0.175,-1.5225,-0.154696,0.169702,-1.14473,-0.22694,0.06944,0.38696
-0.72464,0,0,15.7246,15.7246,14.2754,14.2754,0.501865,0.102419,20.2209,-0.115697,0.16648,-0.133131,1,0,0,2.7475,-0.175,-2.2225,-0.154696,0.169702,-1.14473,-0.22694,0.06944,0.38696
-0.77915,0,0,15.7791,15.7791,14.2209,14.2209,0.540743,0.164218,20.1985,0.0418845,-0.0317862,-0.0264207,0,0,0,3.08,-0.28,-2.5375,0.004636,-0.029036,-1.03883,-0.22694,0.06944,0.38696
-0.831487,0,0,15.8315,15.8315,14.1685,14.1685,0.578065,0.225193,20.1758,0.0408203,-0.0311349,-0.0264307,0,0,0,2.7125,0.175,-2.8525,0.004636,-0.029036,-1.03883,-0.22694,0.06944,0.38696
-1.01896,0,0,16.019,16.019,13.981,13.981,0.711901,0.191297,20.1918,-0.035853,-0.114899,0.0822317,0,0,0,3.0625,0.455,-2.9925,-0.072956,-0.115046,-0.930982,-0.22694,0.06944,0.38696
-1.20341,0,0,16.2034,16.2034,13.7966,13.7966,0.843554,0.156696,20.2074,-0.0352491,-0.112601,0.0822023,0,0,0,3.2375,-0.2275,-3.08,-0.072956,-0.115046,-0.930982,-0.22694,0.06944,0.38696
-1.14808,0,0,16.1481,16.1481,13.8519,13.8519,0.803953,0.226371,20.2033,0.0550135,0.040954,0.00671781,0,0,0,3.0625,-0.7,-2.87,0.01891,0.03904,-1.00589,-0.22232,0.0637,0.3906
-1.12756,0,0,16.1276,16.1276,13.8724,13.8724,0.789209,0.161505,20.2795,-0.0449304,0.00772251,-0.0135613,0,0,0,3.36,-0.5425,-2.695,-0.082594,0.0061,-1.02602,-0.22232,0.0637,0.3906
-1.10735,0,0,16.1073,16.1073,13.8927,13.8927,0.774688,0.0985166,20.3559,-0.0438311,0.00746913,-0.0135553,0,0,0,3.255,-0.385,-2.2575,-0.082594,0.0061,-1.02602,-0.22232,0.0637,0.3906
-0.969772,0,0,15.9698,15.9698,14.0302,14.0302,0.676347,0.178918,20.3598,0.074672,0.102233,-0.0730441,0,0,0,3.2725,-0.1925,-1.8725,0.03782,0.10248,-1.08507,-0.22232,0.0637,0.3906
-0.834859,0,0,15.8349,15.8349,14.1651,14.1651,0.579919,0.257335,20.3644,0.0733034,0.10055,-0.0730308,0,0,0,3.3775,-0.385,-1.295,0.03782,0.10248,-1.08507,-0.22232,0.0637,0.3906
-0.652014,0,0,15.652,15.652,14.348,14.348,0.449267,0.26423,20.4217,0.0179071,0.111704,0.0646914,0,0,0,2.8875,-0.2975,-0.8925,-0.01769,0.1159,-0.948428,-0.22232,0.0637,0.3906
-0.473316,0,0,15.4733,15.4733,14.5267,14.5267,0.321591,0.271555,20.4798,0.0177792,0.109476,0.0647058,0,0,0,3.1675,-0.14,-0.2625,-0.01769,0.1159,-0.948428,-0.22232,0.0637,0.3906
-0.441653,0,0,15.4417,15.4417,14.5583,14.5583,0.298942,0.0193991,20.6749,-0.172318,-0.00144442,0.0524243,0,0,0,3.2725,0.1925,0.035,-0.213012,0.00549,-0.960628,-0.23338,0.06426,0.39102
-0.499319,0,0,15.4993,15.4993,14.5007,14.5007,0.340096,-0.168693,20.8194,-0.126273,-0.0475007,0.106513,0,0,0,3.8325,0.385,0.245,-0.170068,-0.041236,-0.906948,-0.23338,0.06426,0.39102
-0.556378,0,0,15.5564,15.5564,14.4436,14.4436,0.380811,-0.352305,20.9624,-0.123068,-0.0467902,0.106494,0,0,0,3.8325,0.385,0.245,-0.170068,-0.041236,-0.906948,-0.23338,0.06426,0.39102
-0.504607,0,0,15.5046,15.5046,14.4954,14.4954,0.343796,-0.314435,20.9868,0.0306793,0.0370755,0.00125832,0,0,0,3.71,0.735,0.7175,-0.015006,0.043188,-1.01138,-0.23338,0.06426,0.39102
-0.453717,0,0,15.4537,15.4537,14.5463,14.5463,0.307413,-0.277364,21.011,0.0300323,0.0364405,0.00126527,0,0,0,3.71,0.735,0.7175,-0.015006,0.043188,-1.01138,-0.23338,0.06426,0.39102
-0.529202,0,0,15.5292,15.5292,14.4708,14.4708,0.361292,-0.0699499,20.9078,0.140973,-0.0296667,0.0226638,0,0,0,3.955,0.8225,0.665,0.10004,-0.02379,-0.990152,-0.23338,0.06426,0.39102
-0.602499,0,0,15.6025,15.6025,14.3975,14.3975,0.413602,0.132418,20.8055,0.137441,-0.0287537,0.0226557,0,0,0,3.955,0.8225,0.665,0.10004,-0.02379,-0.990152,-0.23338,0.06426,0.39102
-0.505993,0,0,15.506,15.506,14.494,14.494,0.344633,0.147984,20.8429,0.0198144,0.0699423,-0.0902037,0,0,0,3.85,0.7175,0.1225,-0.017812,0.076006,-1.10215,-0.23338,0.06426,0.39102
-0.411363,0,0,15.4114,15.4114,14.5886,14.5886,0.27701,0.163511,20.8778,0.0195434,0.068762,-0.0901981,0,0,0,3.85,0.7175,0.1225,-0.017812,0.076006,-1.10215,-0.23016,0.0665,0.38612
-0.31462,0,0,15.3146,15.3146,14.6854,14.6854,0.207886,0.107775,20.9567,-0.0320871,0.0552208,0.0567328,0,0,0,3.6925,0.8575,-0.63,-0.070638,0.063684,-0.956358,-0.23016,0.0665,0.38612
-0.334445,0,0,15.3344,15.3344,14.6656,14.6656,0.222023,-0.13727,21.1367,-0.176995,-0.0338071,0.0328788,0,0,0,3.64,1.1375,-0.7875,-0.220454,-0.025498,-0.980026,-0.23016,0.0665,0.38612
-0.354835,0,0,15.3548,15.3548,14.6452,14.6452,0.236562,-0.376981,21.3139,-0.172811,-0.0335534,0.032859,0,0,0,3.78,0.7875,-1.4525,-0.220454,-0.025498,-0.980026,-0.23016,0.0665,0.38612
-0.385779,0,0,15.3858,15.3858,14.6142,14.6142,0.258637,-0.31808,21.3047,0.0411907,-0.0153376,-0.0465612,0,0,0,3.7625,0.6475,-1.4175,-0.004514,-0.007686,-1.05884,-0.23016,0.0665,0.38612
-0.415156,0,0,15.4152,15.4152,14.5848,14.5848,0.27959,-0.261549,21.2946,0.0402041,-0.0149719,-0.0465579,0,0,0,3.4475,0.1225,-2.0125,-0.004514,-0.007686,-1.05884,-0.23016,0.0665,0.38612
-0.362828,0,0,15.3628,15.3628,14.6372,14.6372,0.242188,-0.191325,21.2877,0.0602384,0.043851,-0.0976967,0,0,0,3.5,0.0175,-2.1875,0.016836,0.051728,-1.10959,-0.23016,0.0665,0.38612
-0.311456,0,0,15.3115,15.3115,14.6885,14.6885,0.205471,-0.123389,21.281,0.0590527,0.0432102,-0.0976909,0,0,0,3.57,-0.4025,-2.1,0.016836,0.051728,-1.10959,-0.23016,0.0665,0.38612
-0.334793,0,0,15.3348,15.3348,14.6652,14.6652,0.222116,-0.19531,21.3476,-0.0520663,-0.0196388,0.0256219,0,0,0,4.235,-0.2275,-2.205,-0.096014,-0.011346,-0.987224,-0.22932,0.06804,0.39158
-0.388994,0,0,15.389,15.389,14.611,14.611,0.260804,-0.138212,21.3282,0.0365936,-0.0294665,0.0327529,0,0,0,3.22,-0.21,-2.135,-0.005978,-0.021838,-0.980148,-0.22932,0.06804,0.39158
-0.441963,0,0,15.442,15.442,14.558,14.558,0.298607,-0.0828916,21.3095,0.0356281,-0.0288067,0.0327516,0,0,0,3.22,-0.385,-1.8025,-0.005978,-0.021838,-0.980148,-0.22932,0.06804,0.39158
-0.433473,0,0,15.4335,15.4335,14.5665,14.5665,0.292511,-0.0797303,21.333,0.00350069,0.00540455,0.00398224,0,0,0,3.185,-0.3675,-1.5925,-0.038186,0.012444,-1.0087,-0.22932,0.06804,0.39158
-0.42378,0,0,15.4238,15.4238,14.5762,14.5762,0.285557,-0.0764832,21.3573,0.00344402,0.00528318,0.00398293,0,0,0,2.6425,-0.28,-1.12,-0.038186,0.012444,-1.0087,-0.22932,0.06804,0.39158
-0.526118,0,0,15.5261,15.5261,14.4739,14.4739,0.358617,0.0518256,21.2847,0.0817496,-0.0541387,0.0486066,0,0,0,2.5375,-0.0175,-0.98,0.0427,-0.04819,-0.96441,-0.22932,0.06804,0.39158
-0.627301,0,0,15.6273,15.6273,14.3727,14.3727,0.430844,0.176011,21.213,0.0795822,-0.0528781,0.0485936,0,0,0,3.045,-0.525,-0.9275,0.0427,-0.04819,-0.96441,-0.22932,0.06804,0.39158
-0.769849,0,0,15.7698,15.7698,14.2302,14.2302,0.532607,0.24747,21.1665,0.04031,-0.0830994,0.0445167,0,0,0,3.29,-0.5775,-0.665,0.004514,-0.080154,-0.968436,-0.22932,0.06804,0.39158
-0.909617,0,0,15.9096,15.9096,14.0904,14.0904,0.632374,0.317373,21.1195,0.0390899,-0.0813583,0.044493,0,0,0,3.3775,-0.2975,-0.315,0.004514,-0.080154,-0.968436,-0.2275,0.06958,0.3843
-0.920513,0,0,15.9205,15.9205,14.0795,14.0795,0.640088,0.397086,21.0858,0.0573794,-0.000497977,-0.00137696,0,0,0,3.15,-0.1575,-0.315,0.024278,0.000488,-1.01394,-0.2275,0.06958,0.3843
-0.932078,0,0,15.9321,15.9321,14.0679,14.0679,0.648279,0.475318,21.0527,0.056014,-0.000355146,-0.00138896,0,0,0,3.605,0.105,-0.1575,0.024278,0.000488,-1.01394,-0.2275,0.06958,0.3843
-0.814339,0,0,15.8143,15.8143,14.1857,14.1857,0.56412,0.282688,21.2085,-0.135123,0.0608274,-0.0209,0,0,0,3.2025,0.2275,-0.105,-0.171044,0.063074,-1.03334,-0.2275,0.06958,0.3843
-0.697788,0,0,15.6978,15.6978,14.3022,14.3022,0.480817,0.0948485,21.3636,-0.131844,0.0593736,-0.0208759,0,0,0,2.625,0.1925,-0.105,-0.171044,0.063074,-1.03334,-0.2275,0.06958,0.3843
-0.723358,0,0,15.7234,15.7234,14.2766,14.2766,0.499028,0.0489234,21.409,-0.0339756,-0.0206679,0.0428097,0,0,0,2.8,0.1925,-0.2975,-0.073566,-0.017202,-0.970144,-0.2275,0.06958,0.3843
-0.749413,0,0,15.7494,15.7494,14.2506,14.2506,0.517584,0.00489735,21.4538,-0.0332072,-0.0203441,0.0428072,0,0,0,3.1325,0.6825,-0.4025,-0.073566,-0.017202,-0.970144,-0.2275,0.06958,0.3843
-0.823446,0,0,15.8234,15.8234,14.1766,14.1766,0.570403,-0.0183042,21.4782,-0.02199,-0.0476335,0.0467327,0,0,0,3.5875,0.6825,-0.35,-0.062708,-0.045384,-0.96624,-0.2275,0.06958,0.3843
-0.893917,0,0,15.8939,15.8939,14.1061,14.1061,0.620673,-0.0405765,21.5017,-0.0216013,-0.0467562,0.0467234,0,0,0,2.695,0.98,-0.735,-0.062708,-0.045384,-0.96624,-0.2275,0.06958,0.3843
-0.893117,0,0,15.8931,15.8931,14.1069,14.1069,0.620035,-0.0391836,21.5018,-0.0622018,0.0693752,-0.103274,1,0,0,3.1325,0.945,-0.8225,-0.103456,0.070638,-1.11508,-0.2268,0.06314,0.38304
-0.892624,0,0,15.8926,15.8926,14.1074,14.1074,0.619617,-0.0379933,21.5013,-0.0622226,0.0693679,-0.103274,1,0,0,3.255,0.8225,-1.1725,-0.103456,0.070638,-1.11508,-0.2268,0.06314,0.38304
-0.891039,0,0,15.891,15.891,14.109,14.109,0.618418,-0.0372153,21.5002,-0.177891,0.0272132,-0.106962,1,0,0,2.8175,0.5775,-1.4875,-0.2196,0.028548,-1.11874,-0.2268,0.06314,0.38304
-0.889453,0,0,15.8895,15.8895,14.1105,14.1105,0.617219,-0.0364374,21.4991,-0.177904,0.0271923,-0.106962,1,0,0,2.8175,0.5775,-1.4875,-0.2196,0.028548,-1.11874,-0.2268,0.06314,0.38304
-0.909268,0,0,15.9093,15.9093,14.0907,14.0907,0.631305,0.0320122,21.4821,0.0506306,-0.00810073,-0.0389736,0,0,0,3.045,-0.245,-1.5925,0.011102,-0.006954,-1.05127,-0.2268,0.06314,0.38304
-0.928479,0,0,15.9285,15.9285,14.0715,14.0715,0.644958,0.0987941,21.4652,0.0494651,-0.00786247,-0.0389776,0,0,0,3.045,-0.245,-1.5925,0.011102,-0.006954,-1.05127,-0.2268,0.06314,0.38304
-0.979836,0,0,15.9798,15.9798,14.0202,14.0202,0.681569,0.0990729,21.4841,-0.00387201,-0.0339693,-0.00406766,0,0,0,3.325,0.1225,-1.6275,-0.042456,-0.033672,-1.01663,-0.2268,0.06314,0.38304
-1.03022,0,0,16.0302,16.0302,13.9698,13.9698,0.71748,0.0992406,21.5029,-0.00387494,-0.0333426,-0.00407531,0,0,0,3.325,0.1225,-1.6275,-0.042456,-0.033672,-1.01663,-0.2268,0.06314,0.38304
-1.03179,0,0,16.0318,16.0318,13.9682,13.9682,0.718527,0.099448,21.5022,0.102543,-0.109287,-0.10809,1,0,0,4.0775,0.245,-1.26,0.064416,-0.109556,-1.11984,-0.22946,0.0616,0.38892
-1.03096,0,0,16.031,16.031,13.969,13.969,0.717858,0.0993223,21.5019,-0.103373,0.124208,-0.0997293,1,0,0,3.115,0.0525,-1.05,-0.142374,0.123708,-1.11154,-0.22946,0.0616,0.38892
-1.2011,0,0,16.2011,16.2011,13.7989,13.7989,0.839296,-0.156036,21.6609,-0.182741,-0.122079,0.111342,0,0,0,3.5175,0,-1.12,-0.226554,-0.12444,-0.902068,-0.22946,0.0616,0.38892
-1.36953,0,0,16.3695,16.3695,13.6305,13.6305,0.959498,-0.40594,21.8176,-0.17838,-0.119982,0.111288,0,0,0,3.7975,-0.21,-1.1375,-0.226554,-0.12444,-0.902068,-0.22946,0.0616,0.38892
-1.37374,0,0,16.3737,16.3737,13.6263,13.6263,0.962404,-0.396344,21.8438,0.00720431,-0.00171229,0.00432305,0,0,0,3.43,-0.315,-0.77,-0.040016,-0.006344,-1.00821,-0.22946,0.0616,0.38892
-1.37785,0,0,16.3778,16.3778,13.6222,13.6222,0.965233,-0.386987,21.8698,0.00704099,-0.0016629,0.00432333,0,0,0,3.43,-0.315,-0.77,-0.040016,-0.006344,-1.00821,-0.22946,0.0616,0.38892
-1.37871,0,0,16.3787,16.3787,13.6213,13.6213,0.965746,-0.387337,21.8705,-0.161697,0.0920173,-0.0983389,1,0,0,3.78,-0.07,-0.4725,-0.209474,0.08723,-1.11008,-0.22946,0.0616,0.38892
-1.37957,0,0,16.3796,16.3796,13.6204,13.6204,0.966259,-0.387687,21.8711,-0.16169,0.0920262,-0.098339,1,0,0,3.78,-0.07,-0.4725,-0.209474,0.08723,-1.11008,-0.22694,0.0637,0.38948
-1.58227,0,0,16.5823,16.5823,13.4177,13.4177,1.11092,-0.272515,21.7971,0.0640852,-0.114164,0.0641647,0,0,0,3.535,0.3675,-0.4025,0.019276,-0.121268,-0.948794,-0.22694,0.0637,0.38948
-1.78066,0,0,16.7807,16.7807,13.2193,13.2193,1.2525,-0.16052,21.7241,0.0621305,-0.111693,0.0641211,0,0,0,3.535,0.3675,-0.4025,0.019276,-0.121268,-0.948794,-0.22694,0.0637,0.38948
-1.54531,0,0,16.5453,16.5453,13.4547,13.4547,1.08427,-0.488897,21.9921,-0.243506,0.134631,-0.0619967,0,0,0,3.9025,0.56,-0.6825,-0.29341,0.127734,-1.07397,-0.22694,0.0637,0.38948
-1.44507,0,0,16.4451,16.4451,13.5549,13.5549,1.01256,-0.356646,21.9583,0.100298,0.0768357,0.0504182,0,0,0,4.375,0.455,-0.7175,0.054168,0.071248,-0.962458,-0.22694,0.0637,0.38948
-1.34517,0,0,16.3452,16.3452,13.6548,13.6548,0.941107,-0.227858,21.924,0.0980507,0.0755889,0.0504509,0,0,0,3.92,0.105,-1.015,0.054168,0.071248,-0.962458,-0.22694,0.0637,0.38948
-1.48021,0,0,16.4802,16.4802,13.5198,13.5198,1.03745,-0.364803,22.0132,-0.108272,-0.0976155,0.035041,0,0,0,3.99,0.14,-1.0675,-0.155428,-0.103456,-0.977708,-0.22694,0.0637,0.38948
-1.61297,0,0,16.613,16.613,13.387,13.387,1.13216,-0.499028,22.1015,-0.105929,-0.0959632,0.034992,0,0,0,3.92,-0.035,-0.9625,-0.155428,-0.103456,-0.977708,-0.22694,0.0637,0.38948
-1.50228,0,0,16.5023,16.5023,13.4977,13.4977,1.05298,-0.585302,22.1992,-0.0571654,0.0663047,-0.0425764,0,0,0,3.36,0.245,-1.0325,-0.10797,0.060024,-1.05469,-0.22764,0.06566,0.38682
-1.39415,0,0,16.3942,16.3942,13.6058,13.6058,0.975642,-0.668852,22.2966,-0.0557073,0.0649549,-0.0425684,0,0,0,3.465,0.5075,-0.8575,-0.10797,0.060024,-1.05469,-0.22764,0.06566,0.38682
-1.40623,0,0,16.4062,16.4062,13.5938,13.5938,0.984166,-0.719787,22.3545,-0.0352592,-0.0106151,0.0685637,0,0,0,3.5525,0.5075,-0.7525,-0.088328,-0.015616,-0.944402,-0.22764,0.06566,0.38682
-1.59358,0,0,16.5936,16.5936,13.4064,13.4064,1.11787,-0.740847,22.3636,-0.0288173,-0.116364,0.0624917,0,0,0,3.8675,0.5425,-0.7,-0.082228,-0.123586,-0.95038,-0.22764,0.06566,0.38682
-1.77815,0,0,16.7781,16.7781,13.2219,13.2219,1.24957,-0.761782,22.3725,-0.028452,-0.114067,0.0624395,0,0,0,4.1475,0.56,-0.7525,-0.082228,-0.123586,-0.95038,-0.22764,0.06566,0.38682
-1.69112,0,0,16.6911,16.6911,13.3089,13.3089,1.18727,-0.814071,22.448,-0.0333708,0.0543582,-0.042548,0,0,0,4.0425,0.49,-0.56,-0.088084,0.04575,-1.05457,-0.22764,0.06566,0.38682
-1.60535,0,0,16.6053,16.6053,13.3947,13.3947,1.12589,-0.865476,22.5235,-0.0324737,0.0532869,-0.0425395,0,0,0,3.8325,0.175,-0.3675,-0.088084,0.04575,-1.05457,-0.22764,0.06566,0.38682
-1.73867,0,0,16.7387,16.7387,13.2613,13.2613,1.22099,-0.630561,22.3847,0.16157,-0.0653476,0.0131757,0,0,0,3.045,-0.14,-0.42,0.110898,-0.07442,-0.999302,-0.22764,0.06566,0.38682
-1.86582,0,0,16.8658,16.8658,13.1342,13.1342,1.31167,-0.40365,22.2462,0.15761,-0.0637645,0.0131764,0,0,0,2.485,-0.1925,-0.175,0.110898,-0.07442,-0.999302,-0.22358,0.06734,0.39984
-1.9105,0,0,16.9105,16.9105,13.0895,13.0895,1.34344,-0.258401,22.1698,0.102957,-0.0172902,0.01367,0,0,0,2.2225,-0.3325,-0.2625,0.05856,-0.028548,-0.998814,-0.22358,0.06734,0.39984
-1.95555,0,0,16.9556,16.9556,13.0444,13.0444,1.37547,-0.116584,22.0944,0.100482,-0.0167311,0.0136649,0,0,0,2.9225,-0.2975,-0.0175,0.05856,-0.028548,-0.998814,-0.22358,0.06734,0.39984
-1.81251,0,0,16.8125,16.8125,13.1875,13.1875,1.27316,-0.171546,22.1711,-0.0301277,0.091642,-0.037197,0,0,0,3.2375,-0.455,-0.455,-0.073566,0.081496,-1.04932,-0.22358,0.06734,0.39984
-1.67162,0,0,16.6716,16.6716,13.3284,13.3284,1.1724,-0.224946,22.247,-0.0291957,0.0898838,-0.0371627,0,0,0,2.975,-0.455,-0.735,-0.073566,0.081496,-1.04932,-0.22358,0.06734,0.39984
-1.67416,0,0,16.6742,16.6742,13.3258,13.3258,1.17409,-0.164058,22.2281,0.043362,0.00491303,0.0506256,0,0,0,3.395,-0.4725,-0.665,0.000366,-0.003416,-0.962214,-0.22358,0.06734,0.39984
-1.67623,0,0,16.6762,16.6762,13.3238,13.3238,1.17544,-0.104166,22.2082,0.0423167,0.00493672,0.0506275,0,0,0,3.3075,-0.2275,-1.295,0.000366,-0.003416,-0.962214,-0.22358,0.06734,0.39984
-1.86961,0,0,16.8696,16.8696,13.1304,13.1304,1.31343,0.124934,22.0487,0.161991,-0.112218,-0.0254077,0,0,0,3.3075,-0.2625,-1.505,0.124562,-0.122854,-1.03761,-0.22358,0.06734,0.39984
-2.05874,0,0,17.0587,17.0587,12.9413,12.9413,1.44837,0.350735,21.8939,0.15805,-0.109864,-0.0254808,0,0,0,2.87,-0.385,-1.7675,0.124562,-0.122854,-1.03761,-0.22778,0.06454,0.38584
-2.05749,0,0,17.0575,17.0575,12.9425,12.9425,1.44732,0.349776,21.8925,-0.0183309,-0.0196303,0.11714,1,0,0,2.905,-0.455,-1.6975,-0.052582,-0.032696,-0.89609,-0.22778,0.06454,0.38584
-2.05701,0,0,17.057,17.057,12.943,12.943,1.44682,0.349049,21.89,-0.0183182,-0.0196389,0.11714,1,0,0,3.22,-0.3325,-2.2575,-0.052582,-0.032696,-0.89609,-0.22778,0.06454,0.38584
-1.92398,0,0,16.924,16.924,13.076,13.076,1.35165,0.229935,21.9962,-0.0773466,0.0770129,-0.00747837,0,0,0,3.3075,-0.2625,-2.24,-0.113948,0.065514,-1.0198,-0.22778,0.06454,0.38584
-1.7933,0,0,16.7933,16.7933,13.2067,13.2067,1.25818,0.1138,22.1022,-0.0753197,0.075382,-0.00743514,0,0,0,3.1325,-0.315,-2.065,-0.113948,0.065514,-1.0198,-0.22778,0.06454,0.38584
-1.58977,0,0,16.5898,16.5898,13.4102,13.4102,1.11268,-0.0492791,22.2512,-0.102237,0.117175,0.0238479,0,0,0,3.255,-0.0525,-2.135,-0.143838,0.1098,-0.98881,-0.22778,0.06454,0.38584
-1.39041,0,0,16.3904,16.3904,13.6096,13.6096,0.970176,-0.207943,22.4001,-0.0994682,0.114688,0.0238869,0,0,0,3.2725,0.07,-1.96,-0.143838,0.1098,-0.98881,-0.22778,0.06454,0.38584
-1.62885,0,0,16.6288,16.6288,13.3712,13.3712,1.14037,-0.0601362,22.289,0.0939085,-0.150532,-0.0306279,0,0,0,3.57,0.1575,-1.6275,0.052948,-0.158112,-1.04286,-0.22778,0.06454,0.38584
-1.54409,0,0,16.5441,16.5441,13.4559,13.4559,1.07971,-0.194593,22.4014,-0.0904683,0.0425909,0.0301239,0,0,0,3.5525,0.5775,-1.3825,-0.134566,0.035868,-0.982588,-0.2275,0.0672,0.3892
-1.37345,0,0,16.3735,16.3735,13.6265,13.6265,0.957727,-0.31709,22.5246,-0.0789759,0.104334,-0.0150928,0,0,0,4.34,0.385,-0.665,-0.125172,0.099674,-1.02748,-0.2275,0.0672,0.3892
-1.20579,0,0,16.2058,16.2058,13.7942,13.7942,0.837879,-0.435979,22.6477,-0.076901,0.102243,-0.0150737,0,0,0,4.1475,0.63,-0.42,-0.125172,0.099674,-1.02748,-0.2275,0.0672,0.3892
-1.49804,0,0,16.498,16.498,13.502,13.502,1.04651,-0.162661,22.4577,0.182439,-0.170245,0.00898925,0,0,0,3.955,0.6825,4.4275,0.140056,-0.176168,-1.00357,-0.2275,0.0672,0.3892
-1.78265,0,0,16.7827,16.7827,13.2173,13.2173,1.24968,0.10354,22.2635,0.177793,-0.166699,0.0089206,0,0,0,3.5525,0.455,0.42,0.140056,-0.176168,-1.00357,-0.2275,0.0672,0.3892
-1.71034,0,0,16.7103,16.7103,13.2897,13.2897,1.19789,0.0354286,22.3329,-0.0428515,0.0402568,0.0512356,0,0,0,3.43,0.525,0.42,-0.082716,0.031476,-0.961604,-0.2275,0.0672,0.3892
-1.64001,0,0,16.64,16.64,13.36,13.36,1.14754,-0.0306083,22.4022,-0.0416989,0.039378,0.0512537,0,0,0,3.605,0.7175,0.63,-0.082716,0.031476,-0.961604,-0.2275,0.0672,0.3892
-1.41501,0,0,16.415,16.415,13.585,13.585,0.986719,-0.0549999,22.4738,-0.00154739,0.158454,-0.0786509,0,0,0,3.605,0.5775,0.84,-0.042822,0.153232,-1.09056,-0.2275,0.0672,0.3892
-1.19455,0,0,16.1946,16.1946,13.8054,13.8054,0.829158,-0.079351,22.5496,-0.00112238,0.155705,-0.0786079,0,0,0,3.885,0.42,0.805,-0.042822,0.153232,-1.09056,-0.22638,0.06454,0.38556
-1.11441,0,0,16.1144,16.1144,13.8856,13.8856,0.771832,0.0491246,22.5075,0.101963,0.0675057,0.0035363,0,0,0,4.5675,0.14,0.6125,0.062952,0.066124,-1.00906,-0.22638,0.06454,0.38556
-1.03535,0,0,16.0354,16.0354,13.9646,13.9646,0.715283,0.174812,22.4655,0.0997697,0.0665187,0.00354482,0,0,0,4.5675,0.14,0.6125,0.062952,0.066124,-1.00906,-0.22638,0.06454,0.38556
-1.22917,0,0,16.2292,16.2292,13.7708,13.7708,0.853631,0.111268,22.4909,-0.062641,-0.13453,0.00105556,0,0,0,4.375,0.1575,-0.035,-0.10126,-0.137128,-1.0115,-0.22638,0.06454,0.38556
-1.4196,0,0,16.4196,16.4196,13.5804,13.5804,0.989546,0.0488282,22.516,-0.0615512,-0.132158,0.00101893,0,0,0,4.375,0.1575,-0.035,-0.10126,-0.137128,-1.0115,-0.22638,0.06454,0.38556
-1.4199,0,0,16.4199,16.4199,13.5801,13.5801,0.989658,0.0488744,22.5162,-0.0344607,0.0451719,-0.126602,1,0,0,3.5525,0.1575,-0.7525,-0.074054,0.040016,-1.13814,-0.22638,0.06454,0.38556
-1.42021,0,0,16.4202,16.4202,13.5798,13.5798,0.98977,0.0489207,22.5164,-0.0344615,0.0451738,-0.126602,1,0,0,3.5525,0.1575,-0.7525,-0.074054,0.040016,-1.13814,-0.22638,0.06454,0.38556
-1.54785,0,0,16.5478,16.5478,13.4522,13.4522,1.08083,0.227807,22.4007,0.120834,-0.0676701,0.0204085,0,0,0,2.73,0.21,-1.575,0.085034,-0.074298,-0.992226,-0.22638,0.06454,0.38556
-1.56499,0,0,16.565,16.565,13.435,13.435,1.09295,0.164801,22.4461,-0.0481466,-0.0173864,-0.00762404,0,0,0,3.6925,0.0875,-1.855,-0.085766,-0.024278,-1.02004,-0.22834,0.06664,0.39144
-1.58049,0,0,16.5805,16.5805,13.4195,13.4195,1.1039,0.103248,22.4902,-0.0470723,-0.0171953,-0.00762519,0,0,0,3.08,0.07,-2.38,-0.085766,-0.024278,-1.02004,-0.22834,0.06664,0.39144
-1.61779,0,0,16.6178,16.6178,13.3822,13.3822,1.13043,-0.0461259,22.5848,-0.120394,-0.0438446,-0.0560746,0,0,0,3.01,-0.105,-2.24,-0.162016,-0.051362,-1.06811,-0.22834,0.06664,0.39144
-1.65487,0,0,16.6549,16.6549,13.3451,13.3451,1.15679,-0.192014,22.6785,-0.117848,-0.0433847,-0.0560891,0,0,0,3.01,-0.105,-2.24,-0.162016,-0.051362,-1.06811,-0.22834,0.06664,0.39144
-1.76676,0,0,16.7668,16.7668,13.2332,13.2332,1.23658,-0.112542,22.6227,0.0527891,-0.0721577,-0.057344,0,0,0,3.29,0.2625,-2.3975,0.010736,-0.081496,-1.06933,-0.22834,0.06664,0.39144
-1.74931,0,0,16.7493,16.7493,13.2507,13.2507,1.22398,0.0755202,22.522,0.137341,0.0302091,0.0311847,0,0,0,3.5525,0.07,-2.2925,0.098942,0.020984,-0.98149,-0.22834,0.06664,0.39144
-1.73153,0,0,16.7315,16.7315,13.2685,13.2685,1.21115,0.259473,22.4227,0.13413,0.029985,0.0311801,0,0,0,3.57,0.175,-1.8025,0.098942,0.020984,-0.98149,-0.22834,0.06664,0.39144
-1.76,0,0,16.76,16.76,13.24,13.24,1.23136,0.315828,22.3916,0.0404533,-0.0136282,-0.0110037,0,0,0,3.535,-0.175,-1.5575,0.005856,-0.022936,-1.02334,-0.22834,0.06664,0.39144
-1.78703,0,0,16.787,16.787,13.213,13.213,1.25053,0.371405,22.3634,0.0394833,-0.0132937,-0.0110168,0,0,0,3.2375,0.14,-1.3825,0.005856,-0.022936,-1.02334,-0.22946,0.06482,0.39186
-1.69588,0,0,16.6959,16.6959,13.3041,13.3041,1.1853,0.471714,22.3278,0.0847476,0.071667,-0.040636,0,0,0,2.7125,0.1925,-0.84,0.05307,0.063074,-1.05274,-0.22946,0.06482,0.39186
-1.60657,0,0,16.6066,16.6066,13.3934,13.3934,1.12139,0.569462,22.293,0.0830416,0.0705516,-0.0406291,0,0,0,2.905,-0.035,-0.3675,0.05307,0.063074,-1.05274,-0.22946,0.06482,0.39186
-1.67614,0,0,16.6761,16.6761,13.3239,13.3239,1.17095,0.624901,22.2566,0.0388252,-0.0459476,-0.0572545,0,0,0,2.695,-0.105,-0.2625,0.009638,-0.054168,-1.06921,-0.22946,0.06482,0.39186
-1.74421,0,0,16.7442,16.7442,13.2558,13.2558,1.21944,0.678907,22.2205,0.0378827,-0.0451018,-0.0572829,0,0,0,2.695,-0.105,-0.2625,0.009638,-0.054168,-1.06921,-0.22946,0.06482,0.39186
-1.65403,0,0,16.654,16.654,13.346,13.346,1.1549,0.523102,22.3397,-0.101415,0.0428032,0.0775205,0,0,0,3.15,0.1225,0,-0.13298,0.03477,-0.935496,-0.22946,0.06482,0.39186
-1.56592,0,0,16.5659,16.5659,13.4341,13.4341,1.09185,0.371133,22.4582,-0.0987627,0.0417034,0.0775628,0,0,0,3.15,0.1225,0,-0.13298,0.03477,-0.935496,-0.22946,0.06482,0.39186
-1.45354,0,0,16.4535,16.4535,13.5465,13.5465,1.01147,0.387181,22.48,0.0190413,0.0743741,0.0560707,0,0,0,4.025,0.0875,-0.0525,-0.014396,0.068808,-0.956846,-0.22946,0.06482,0.39186
-1.39552,0,0,16.3955,16.3955,13.6045,13.6045,0.969925,0.231954,22.5983,-0.111276,0.0243101,-0.00205676,0,0,0,3.7975,-0.245,-0.2275,-0.147986,0.01952,-1.01455,-0.22652,0.06496,0.3885
-1.33663,0,0,16.3366,16.3366,13.6634,13.6634,0.927759,0.0808268,22.7158,-0.108639,0.0235744,-0.00203737,0,0,0,2.8525,-0.0525,-0.2275,-0.147986,0.01952,-1.01455,-0.22652,0.06496,0.3885
-1.54147,0,0,16.5415,16.5415,13.4585,13.4585,1.07396,0.318799,22.5491,0.159457,-0.11371,0.0308538,0,0,0,2.485,0.175,-0.63,0.125416,-0.12017,-0.981856,-0.22652,0.06496,0.3885
-1.74149,0,0,16.7415,16.7415,13.2585,13.2585,1.2167,0.550962,22.3844,0.155405,-0.11122,0.0307732,0,0,0,2.485,0.175,-0.63,0.125416,-0.12017,-0.981856,-0.22652,0.06496,0.3885
-1.50371,0,0,16.5037,16.5037,13.4963,13.4963,1.04674,0.602336,22.4021,0.0505171,0.152417,0.0897151,0,0,0,3.0975,0.035,-0.5425,0.020984,0.146156,-0.923418,-0.22652,0.06496,0.3885
-1.54405,0,0,16.544,16.544,13.456,13.456,1.07544,0.416049,22.5189,-0.150571,-0.0501781,-0.0566969,0,0,0,3.01,-0.0525,-0.63,-0.18422,-0.05673,-1.06872,-0.22652,0.06496,0.3885
-1.58497,0,0,16.585,16.585,13.415,13.415,1.10456,0.234287,22.6346,-0.147398,-0.0496697,-0.0566886,0,0,0,3.325,0.0525,-0.6475,-0.18422,-0.05673,-1.06872,-0.22652,0.06496,0.3885
-1.49904,0,0,16.499,16.499,13.501,13.501,1.04306,0.135509,22.7231,-0.0725399,0.0506225,-0.0822362,0,0,0,3.6925,0.245,-0.7525,-0.110776,0.04453,-1.0941,-0.22652,0.06496,0.3885
-1.41477,0,0,16.4148,16.4148,13.5852,13.5852,0.982768,0.0389967,22.8063,-0.0708555,0.0495703,-0.082215,0,0,0,3.64,0.1925,-0.945,-0.110776,0.04453,-1.0941,-0.22848,0.06734,0.38612
-1.472,0,0,16.472,16.472,13.528,13.528,1.02354,0.270626,22.6656,0.174755,-0.0156668,-0.0256821,0,0,0,3.955,0.3325,-0.875,0.139934,-0.02135,-1.03798,-0.22848,0.06734,0.38612
-1.5276,0,0,16.5276,16.5276,13.4724,13.4724,1.06314,0.496539,22.5259,0.170812,-0.0149763,-0.0257211,0,0,0,4.095,0.1225,-0.8925,0.139934,-0.02135,-1.03798,-0.22848,0.06734,0.38612
-1.64333,0,0,16.6433,16.6433,13.3567,13.3567,1.14568,0.688272,22.3945,0.135758,-0.0592121,-0.00340682,0,0,0,3.85,0.455,-0.84,0.108092,-0.066978,-1.01577,-0.22848,0.06734,0.38612
-1.75601,0,0,16.756,16.756,13.244,13.244,1.22603,0.875301,22.2644,0.132494,-0.057811,-0.00348037,0,0,0,3.7975,0.4025,-0.7875,0.108092,-0.066978,-1.01577,-0.22848,0.06734,0.38612
-1.51899,0,0,16.519,16.519,13.481,13.481,1.05662,0.734529,22.3914,-0.0904051,0.151002,-0.0246571,0,0,0,3.9725,0.0875,-0.7175,-0.118218,0.14457,-1.03688,-0.22848,0.06734,0.38612
-1.28619,0,0,16.2862,16.2862,13.7138,13.7138,0.890242,0.59713,22.5183,-0.0880072,0.148099,-0.0245799,0,0,0,3.815,-0.0525,-0.7,-0.118218,0.14457,-1.03688,-0.22848,0.06734,0.38612
-1.33729,0,0,16.3373,16.3373,13.6627,13.6627,0.92664,0.585624,22.5213,-0.0119993,-0.0353111,-0.0056538,0,0,0,3.675,-0.07,-0.8225,-0.04209,-0.039284,-1.01809,-0.22848,0.06734,0.38612
-1.38792,0,0,16.3879,16.3879,13.6121,13.6121,0.962698,0.575164,22.5244,-0.0118167,-0.0346818,-0.00566232,0,0,0,3.85,0.4375,-0.805,-0.04209,-0.039284,-1.01809,-0.23226,0.06636,0.39312
-1.35028,0,0,16.3503,16.3503,13.6497,13.6497,0.935713,0.717292,22.4486,0.111319,0.0408097,-0.0172397,0,0,0,3.9375,0.2275,-0.945,0.084058,0.0366,-1.02956,-0.23226,0.06636,0.39312
-1.31283,0,0,16.3128,16.3128,13.6872,13.6872,0.908865,0.856247,22.3731,0.108894,0.0403406,-0.0172654,0,0,0,3.9375,0.2275,-0.945,0.084058,0.0366,-1.02956,-0.23226,0.06636,0.39312
-1.09194,0,0,16.0919,16.0919,13.9081,13.9081,0.751011,0.655893,22.535,-0.136655,0.132113,-0.00894182,0,0,0,3.7975,0.1925,-1.33,-0.166042,0.131028,-1.02138,-0.23226,0.06636,0.39312
-0.875465,0,0,15.8755,15.8755,14.1245,14.1245,0.596319,0.460497,22.6966,-0.133245,0.129414,-0.00887686,0,0,0,3.7975,0.1925,-1.33,-0.166042,0.131028,-1.02138,-0.23226,0.06636,0.39312
-0.876399,0,0,15.8764,15.8764,14.1236,14.1236,0.596922,0.237633,22.8398,-0.175763,-0.0237225,-0.0389757,0,0,0,3.9025,0.3325,-1.715,-0.212646,-0.02196,-1.05127,-0.23226,0.06636,0.39312
-0.877933,0,0,15.8779,15.8779,14.1221,14.1221,0.597954,0.0199951,22.9817,-0.171964,-0.0237044,-0.0389673,0,0,0,3.9025,0.3325,-1.715,-0.212646,-0.02196,-1.05127,-0.23226,0.06636,0.39312
-0.779383,0,0,15.7794,15.7794,14.2206,14.2206,0.527504,-0.0762916,23.0692,-0.0651987,0.0565246,0.000141573,0,0,0,3.4825,0.455,-1.855,-0.107116,0.059414,-1.01248,-0.23226,0.06636,0.39312
-0.683125,0,0,15.6831,15.6831,14.3169,14.3169,0.458699,-0.169811,23.1583,-0.0635665,0.0553238,0.000148402,0,0,0,3.4825,0.455,-1.855,-0.107116,0.059414,-1.01248,-0.22932,0.06594,0.3962
-0.575154,0,0,15.5752,15.5752,14.4248,14.4248,0.381537,-0.116587,23.1605,0.0490937,0.0790131,-0.00684747,0,0,0,3.9025,0.2275,-1.645,0.006954,0.084424,-1.01943,-0.22932,0.06594,0.3962
-0.469006,0,0,15.469,15.469,14.531,14.531,0.305684,-0.0643761,23.1625,0.0481824,0.0776892,-0.00683809,0,0,0,3.9025,0.2275,-1.645,0.006954,0.084424,-1.01943,-0.22932,0.06594,0.3962
-0.521893,0,0,15.5219,15.5219,14.4781,14.4781,0.343423,-0.300834,23.3143,-0.1954,-0.0633192,-0.0457067,0,0,0,3.3775,0.1575,-1.2075,-0.241804,-0.057096,-1.05798,-0.22932,0.06594,0.3962
-0.451151,0,0,15.4512,15.4512,14.5488,14.5488,0.292862,-0.259028,23.3191,0.0346932,0.0476665,0.0739307,0,0,0,3.2025,0.245,-1.1375,-0.010004,0.054656,-0.939278,-0.22932,0.06594,0.3962
-0.382678,0,0,15.3827,15.3827,14.6173,14.6173,0.243927,-0.217571,23.3246,0.0339697,0.0468124,0.0739377,0,0,0,3.64,0.525,-0.665,-0.010004,0.054656,-0.939278,-0.22932,0.06594,0.3962
-0.620608,0,0,15.6206,15.6206,14.3794,14.3794,0.413832,0.0494086,23.1333,0.175943,-0.128527,0.0633539,0,0,0,3.2375,0.28,-0.56,0.13725,-0.123464,-0.94977,-0.22932,0.06594,0.3962
-0.854171,0,0,15.8542,15.8542,14.1458,14.1458,0.580601,0.309624,22.945,0.171402,-0.125617,0.0633144,0,0,0,3.71,0.07,-0.14,0.13725,-0.123464,-0.94977,-0.22932,0.06594,0.3962
-0.809061,0,0,15.8091,15.8091,14.1909,14.1909,0.548321,0.222655,23.0142,-0.0620338,0.022326,-0.00810605,0,0,0,3.745,-0.1925,-0.105,-0.098698,0.024888,-1.02065,-0.22834,0.06832,0.38514
-0.748873,0,0,15.7489,15.7489,14.2511,14.2511,0.505275,0.250985,23.0166,0.0271282,0.0445346,-0.0368711,0,0,0,3.395,0,0.0175,-0.008662,0.047824,-1.0492,-0.22834,0.06832,0.38514
-0.688264,0,0,15.6883,15.6883,14.3117,14.3117,0.461933,0.278562,23.0189,0.0266469,0.0437781,-0.036867,0,0,0,2.8175,-0.1225,0,-0.008662,0.047824,-1.0492,-0.22834,0.06832,0.38514
-0.858985,0,0,15.859,15.859,14.141,14.141,0.583815,0.354136,22.9502,0.0480457,-0.117012,-0.0676308,0,0,0,3.0625,-0.0875,-0.035,0.014152,-0.114924,-1.0797,-0.22834,0.06832,0.38514
-1.02608,0,0,16.0261,16.0261,13.9739,13.9739,0.703091,0.427009,22.8822,0.0467739,-0.11493,-0.0676628,0,0,0,2.9925,-0.455,-0.0525,0.014152,-0.114924,-1.0797,-0.22834,0.06832,0.38514
-0.896387,0,0,15.8964,15.8964,14.1036,14.1036,0.61039,0.198762,23.0504,-0.171683,0.0663979,-0.0484426,0,0,0,2.625,-0.1925,-0.1575,-0.20923,0.067832,-1.06067,-0.22834,0.06832,0.38514
-0.770229,0,0,15.7702,15.7702,14.2298,14.2298,0.520221,-0.0241358,23.2177,-0.167793,0.0648243,-0.0484211,0,0,0,2.8875,-0.2975,-0.245,-0.20923,0.067832,-1.06067,-0.22834,0.06832,0.38514
-1.02286,0,0,16.0229,16.0229,13.9771,13.9771,0.700594,0.148135,23.0763,0.112019,-0.154299,0.00797545,0,0,0,3.605,-0.2275,-0.5425,0.074786,-0.154208,-1.00467,-0.22834,0.06832,0.38514
-1.27041,0,0,16.2704,16.2704,13.7296,13.7296,0.877325,0.316234,22.9388,0.109086,-0.151214,0.00792109,0,0,0,3.7275,-0.1225,-0.7875,0.074786,-0.154208,-1.00467,-0.2268,0.06706,0.38458
-1.07173,0,0,16.0717,16.0717,13.9283,13.9283,0.735329,0.0689454,23.1327,-0.176463,0.113033,-0.0160045,0,0,0,3.7625,-0.3325,-0.84,-0.216306,0.11224,-1.02846,-0.2268,0.06706,0.38458
-0.875541,0,0,15.8755,15.8755,14.1245,14.1245,0.595132,-0.171739,23.3251,-0.172263,0.110586,-0.0159798,0,0,0,3.1325,0,-1.3475,-0.216306,0.11224,-1.02846,-0.2268,0.06706,0.38458
-0.875266,0,0,15.8753,15.8753,14.1247,14.1247,0.594872,-0.171889,23.3241,-0.219032,0.183247,-0.115199,1,0,0,3.3425,0.035,-1.4525,-0.263276,0.18483,-1.12691,-0.2268,0.06706,0.38458
-0.873377,0,0,15.8734,15.8734,14.1266,14.1266,0.593459,-0.171523,23.3224,-0.219038,0.183222,-0.115199,1,0,0,2.695,0.3325,-1.855,-0.263276,0.18483,-1.12691,-0.2268,0.06706,0.38458
-1.05259,0,0,16.0526,16.0526,13.9474,13.9474,0.721395,0.0829022,23.1453,0.17876,-0.0972687,0.0137518,0,0,0,2.7125,0.4725,-1.96,0.140666,-0.0976,-0.998936,-0.2268,0.06706,0.38458
-1.22841,0,0,16.2284,16.2284,13.7716,13.7716,0.846885,0.33047,22.9702,0.174439,-0.0950789,0.0137063,0,0,0,3.115,-0.0175,-1.9075,0.140666,-0.0976,-0.998936,-0.2268,0.06706,0.38458
-1.32958,0,0,16.3296,16.3296,13.6704,13.6704,0.919052,0.474828,22.869,0.106804,-0.0576703,-0.0462068,0,0,0,3.4125,0.1575,-1.9775,0.075274,-0.061488,-1.05835,-0.2268,0.06706,0.38458
-1.42784,0,0,16.4278,16.4278,13.5722,13.5722,0.989133,0.616403,22.7746,0.104333,-0.0564477,-0.0462507,0,0,0,3.0625,0.1925,-1.5575,0.075274,-0.061488,-1.05835,-0.231,0.06258,0.3871
-1.34076,0,0,16.3408,16.3408,13.6592,13.6592,0.92683,0.562364,22.83,-0.032003,0.0505474,0.0828731,0,0,0,3.6225,0.21,-1.365,-0.062586,0.046482,-0.93025,-0.231,0.06258,0.3871
-1.25535,0,0,16.2554,16.2554,13.7446,13.7446,0.865734,0.509515,22.8857,-0.0310806,0.0494814,0.0828984,0,0,0,3.5875,0.0875,-1.015,-0.062586,0.046482,-0.93025,-0.231,0.06258,0.3871
-1.21831,0,0,16.2183,16.2183,13.7817,13.7817,0.839186,0.452729,22.9365,-0.0402943,0.0198299,-0.0199942,0,0,0,3.71,0.035,-0.8575,-0.072834,0.017324,-1.03236,-0.231,0.06258,0.3871
-1.18235,0,0,16.1824,16.1824,13.8176,13.8176,0.813414,0.397445,22.9876,-0.0393295,0.0193803,-0.0199806,0,0,0,3.7975,0.105,-0.525,-0.072834,0.017324,-1.03236,-0.231,0.06258,0.3871
-1.25693,0,0,16.2569,16.2569,13.7431,13.7431,0.866593,0.300382,23.0454,-0.0816133,-0.0618828,-0.0344918,0,0,0,4.13,0.0875,-0.665,-0.116998,-0.064782,-1.04676,-0.231,0.06258,0.3871
-1.33077,0,0,16.3308,16.3308,13.6692,13.6692,0.919235,0.20601,23.103,-0.0799662,-0.060964,-0.0344988,0,0,0,4.2525,0.42,-0.3675,-0.116998,-0.064782,-1.04676,-0.231,0.06258,0.3871
-1.47727,0,0,16.4773,16.4773,13.5227,13.5227,1.02377,0.447003,22.9445,0.155398,-0.0667122,0.0956487,0,0,0,3.71,0.4725,-0.3675,0.123586,-0.072346,-0.917562,-0.231,0.06258,0.3871
-1.62016,0,0,16.6202,16.6202,13.3798,13.3798,1.12571,0.681821,22.7876,0.151299,-0.0649341,0.095575,0,0,0,3.745,0.1925,-0.28,0.123586,-0.072346,-0.917562,-0.231,0.06258,0.3871
-1.62201,0,0,16.622,16.622,13.378,13.378,1.12691,0.804839,22.7157,0.0975211,0.0111713,-0.0486719,0,0,0,3.535,0.14,-0.35,0.071736,0.00366,-1.06067,-0.23254,0.0651,0.3836
-1.66804,0,0,16.668,16.668,13.332,13.332,1.15966,0.872233,22.6684,0.0469003,-0.0234301,0.000847758,0,0,0,3.9725,0.3325,-0.665,0.022082,-0.031476,-1.0115,-0.23254,0.0651,0.3836
-1.71236,0,0,16.7124,16.7124,13.2876,13.2876,1.19119,0.937743,22.6216,0.0457571,-0.0228803,0.000818416,0,0,0,3.7275,0.1925,-0.6125,0.022082,-0.031476,-1.0115,-0.23254,0.0651,0.3836
-1.40565,0,0,16.4056,16.4056,13.5944,13.5944,0.972011,0.796343,22.7586,-0.0892971,0.208879,-0.0568578,0,0,0,4.2,0.21,-0.9275,-0.116022,0.203862,-1.06884,-0.23254,0.0651,0.3836
-1.10453,0,0,16.1045,16.1045,13.8955,13.8955,0.75685,0.657812,22.8955,-0.0868795,0.205124,-0.0567705,0,0,0,4.1475,-0.245,-0.98,-0.116022,0.203862,-1.06884,-0.23254,0.0651,0.3836
-1.23498,0,0,16.235,16.235,13.765,13.765,0.849932,0.649219,22.8815,-0.0159033,-0.0841571,0.044518,0,0,0,4.0075,0.07,-1.12,-0.044896,-0.086742,-0.968314,-0.23254,0.0651,0.3836
-1.36195,0,0,16.362,16.362,13.638,13.638,0.940529,0.640677,22.8673,-0.0157543,-0.0825762,0.044495,0,0,0,3.57,0.1225,-1.365,-0.044896,-0.086742,-0.968314,-0.23254,0.0651,0.3836
-1.4916,0,0,16.4916,16.4916,13.5084,13.5084,1.03302,0.511511,22.9253,-0.106558,-0.100991,0.0125232,0,0,0,3.395,0.0525,-1.225,-0.138348,-0.10675,-1.00003,-0.23254,0.0651,0.3836
-1.61806,0,0,16.6181,16.6181,13.3819,13.3819,1.12323,0.385646,22.9823,-0.104361,-0.0994162,0.0125108,0,0,0,2.8525,0.245,-1.3825,-0.138348,-0.10675,-1.00003,-0.23114,0.06552,0.38542
-1.49949,0,0,16.4995,16.4995,13.5005,13.5005,1.03843,0.313519,23.0508,-0.0443034,0.0708144,0.0266855,0,0,0,2.975,0.105,-1.3125,-0.0793,0.064782,-0.986004,-0.23114,0.06552,0.38542
-1.38408,0,0,16.3841,16.3841,13.6159,13.6159,0.955892,0.243439,23.1193,-0.0430803,0.0693742,0.0267165,0,0,0,3.29,0.21,-1.1375,-0.0793,0.064782,-0.986004,-0.23114,0.06552,0.38542
-1.38438,0,0,16.3844,16.3844,13.6156,13.6156,0.956003,0.243431,23.1191,-0.0400431,0.11786,-0.121559,1,0,0,3.5525,0.1225,-0.945,-0.07625,0.113216,-1.13314,-0.23114,0.06552,0.38542
-1.38468,0,0,16.3847,16.3847,13.6153,13.6153,0.956114,0.243423,23.119,-0.0400429,0.117862,-0.121559,1,0,0,3.5525,0.1225,-0.945,-0.07625,0.113216,-1.13314,-0.23114,0.06552,0.38542
-1.27208,0,0,16.2721,16.2721,13.7279,13.7279,0.875588,-0.0686791,23.3361,-0.24756,0.0472114,-0.061038,0,0,0,3.78,0.3325,-0.5775,-0.290116,0.044042,-1.07311,-0.23114,0.06552,0.38542
-1.16215,0,0,16.1622,16.1622,13.8378,13.8378,0.796985,-0.373384,23.552,-0.242242,0.0458394,-0.0610385,0,0,0,3.78,0.3325,-0.5775,-0.290116,0.044042,-1.07311,-0.23114,0.06552,0.38542
-1.14208,0,0,16.1421,16.1421,13.8579,13.8579,0.782562,-0.455385,23.6206,-0.057975,0.00577424,0.0373134,0,0,0,3.7275,0.1575,-0.21,-0.106506,0.00427,-0.975512,-0.23114,0.06552,0.38542
-1.1225,0,0,16.1225,16.1225,13.8775,13.8775,0.768499,-0.535643,23.6879,-0.0565743,0.00552866,0.0373046,0,0,0,3.7275,0.1575,-0.21,-0.106506,0.00427,-0.975512,-0.2317,0.06566,0.38024
-0.86506,0,0,15.8651,15.8651,14.1349,14.1349,0.584548,-0.729287,23.8688,-0.127058,0.155099,0.00435499,0,0,0,3.185,-0.035,-0.0525,-0.180682,0.156892,-1.00821,-0.2317,0.06566,0.38024
-0.612576,0,0,15.6126,15.6126,14.3874,14.3874,0.404159,-0.918059,24.0494,-0.123764,0.15195,0.00433479,0,0,0,3.185,-0.035,-0.0525,-0.180682,0.156892,-1.00821,-0.2317,0.06566,0.38024
-0.543978,0,0,15.544,15.544,14.456,14.456,0.355122,-0.838131,24.0357,0.069583,0.0564465,-0.0528092,0,0,0,3.01,0.07,-0.0875,0.014884,0.062342,-1.06494,-0.2317,0.06566,0.38024
-0.763249,0,0,15.7632,15.7632,14.2368,14.2368,0.51169,-0.69857,23.9289,0.0887719,-0.137323,-0.00361782,0,0,0,2.415,-0.0175,-0.3675,0.0366,-0.133956,-1.01614,-0.2317,0.06566,0.38024
-0.979871,0,0,15.9799,15.9799,14.0201,14.0201,0.666349,-0.562939,23.8231,0.0864048,-0.134624,-0.0036195,0,0,0,3.22,-0.1925,-0.63,0.0366,-0.133956,-1.01614,-0.2317,0.06566,0.38024
-0.977937,0,0,15.9779,15.9779,14.0221,14.0221,0.664896,-0.563222,23.8235,0.217371,-0.0243685,0.132485,1,0,0,2.6775,-0.035,-0.63,0.168116,-0.02379,-0.881084,-0.2317,0.06566,0.38024
-0.977017,0,0,15.977,15.977,14.023,14.023,0.664167,-0.563558,23.8232,0.217377,-0.0243813,0.132485,1,0,0,3.08,-0.07,-1.015,0.168116,-0.02379,-0.881084,-0.2317,0.06566,0.38024
-0.700081,0,0,15.7001,15.7001,14.2999,14.2999,0.466306,-0.428107,23.8191,0.140178,0.217519,-0.0628258,0,0,0,3.0625,-0.28,-1.3125,0.092964,0.221308,-1.07494,-0.22596,0.0574,0.38542
-0.827186,0,0,15.8272,15.8272,14.1728,14.1728,0.557035,-0.212307,23.6914,0.146738,-0.0605681,0.0630803,0,0,0,3.1675,0.105,-1.54,0.103334,-0.058072,-0.950014,-0.22596,0.0574,0.38542
-0.950374,0,0,15.9504,15.9504,14.0496,14.0496,0.644958,-0.000985726,23.5647,0.14305,-0.0590336,0.0630711,0,0,0,2.8875,0.4375,-1.7325,0.103334,-0.058072,-0.950014,-0.22596,0.0574,0.38542
-0.811986,0,0,15.812,15.812,14.188,14.188,0.546051,0.106306,23.546,0.0953771,0.106554,-0.0138784,0,0,0,3.4125,0.63,-1.82,0.05734,0.109068,-1.02639,-0.22596,0.0574,0.38542
-0.675821,0,0,15.6758,15.6758,14.3242,14.3242,0.448742,0.21103,23.5268,0.0935493,0.104856,-0.0138687,0,0,0,3.43,0.3675,-2.0475,0.05734,0.109068,-1.02639,-0.22596,0.0574,0.38542
-0.745556,0,0,15.7456,15.7456,14.2544,14.2544,0.4985,0.108348,23.5981,-0.0861582,-0.0581701,-0.0131332,0,0,0,3.85,0.21,-1.9425,-0.124928,-0.054656,-1.02565,-0.22596,0.0574,0.38542
-0.813646,0,0,15.8136,15.8136,14.1864,14.1864,0.547076,0.00809636,23.6693,-0.0844085,-0.0573223,-0.0131392,0,0,0,3.57,0.3325,-1.5925,-0.124928,-0.054656,-1.02565,-0.22596,0.0574,0.38542
-0.814365,0,0,15.8144,15.8144,14.1856,14.1856,0.547531,0.0082144,23.6684,-0.0302279,-0.210706,-0.0871543,1,0,0,3.745,0.1925,-1.4,-0.070516,-0.207888,-1.0991,-0.22596,0.0574,0.38542
-0.814735,0,0,15.8147,15.8147,14.1853,14.1853,0.547737,0.00841719,23.668,-0.0302315,-0.210702,-0.0871543,1,0,0,3.605,0.245,-1.1025,-0.070516,-0.207888,-1.0991,-0.22722,0.06146,0.38668
-0.814536,0,0,15.8145,15.8145,14.1855,14.1855,0.547536,0.0082578,23.668,-0.26664,0.0644461,-0.1683,1,0,0,3.3775,0.035,-0.875,-0.307928,0.066978,-1.17962,-0.22722,0.06146,0.38668
-0.813988,0,0,15.814,15.814,14.186,14.186,0.547086,0.0076162,23.6684,-0.266629,0.0644383,-0.1683,1,0,0,3.2375,-0.245,-0.6125,-0.307928,0.066978,-1.17962,-0.22722,0.06146,0.38668
-0.812716,0,0,15.8127,15.8127,14.1873,14.1873,0.546119,0.423814,23.4303,0.288829,0.0407285,0.142609,0,0,0,3.815,0,-0.49,0.257176,0.04331,-0.87108,-0.22722,0.06146,0.38668
-0.810582,0,0,15.8106,15.8106,14.1894,14.1894,0.544536,0.83138,23.1933,0.281716,0.0407002,0.142532,0,0,0,4.13,-0.0525,-0.2275,0.257176,0.04331,-0.87108,-0.22722,0.06146,0.38668
-0.915323,0,0,15.9153,15.9153,14.0847,14.0847,0.619285,0.908519,23.1369,0.0474819,-0.0587502,0.0588931,0,0,0,3.92,0,-0.28,0.023302,-0.05734,-0.95404,-0.22722,0.06146,0.38668
-1.01687,0,0,16.0169,16.0169,13.9831,13.9831,0.691742,0.983351,23.0811,0.0461761,-0.0574861,0.058857,0,0,0,3.5175,-0.21,-0.2275,0.023302,-0.05734,-0.95404,-0.22722,0.06146,0.38668
-1.0227,0,0,16.0227,16.0227,13.9773,13.9773,0.695833,0.825816,23.1837,-0.130874,-0.0232187,-0.0896222,0,0,0,3.36,0.0175,-0.1925,-0.157258,-0.02318,-1.10142,-0.22722,0.06146,0.38668
-1.03116,0,0,16.0312,16.0312,13.9688,13.9688,0.701804,0.671976,23.2761,-0.128189,-0.0231141,-0.0895884,0,0,0,4.3225,0.1925,-0.0525,-0.157258,-0.02318,-1.10142,-0.2261,0.06846,0.38542
-1.05976,0,0,16.0598,16.0598,13.9402,13.9402,0.722152,0.51996,23.3643,-0.128208,-0.0381466,-0.0871062,0,0,0,4.235,0.035,-0.455,-0.159942,-0.038552,-1.09898,-0.2261,0.06846,0.38542
-1.08794,0,0,16.0879,16.0879,13.9121,13.9121,0.742205,0.371405,23.4514,-0.125616,-0.0377964,-0.0870906,0,0,0,4.095,0.035,-0.5775,-0.159942,-0.038552,-1.09898,-0.2261,0.06846,0.38542
-1.05592,0,0,16.0559,16.0559,13.9441,13.9441,0.719252,0.257339,23.5302,-0.085357,0.011753,-0.00801864,0,0,0,4.41,0.035,-0.4725,-0.121512,0.011346,-1.02053,-0.2261,0.06846,0.38542
-1.02481,0,0,16.0248,16.0248,13.9752,13.9752,0.696955,0.146437,23.6076,-0.0834214,0.011364,-0.00800701,0,0,0,4.41,0.315,-1.0325,-0.121512,0.011346,-1.02053,-0.2261,0.06846,0.38542
-0.902669,0,0,15.9027,15.9027,14.0973,14.0973,0.609648,0.23549,23.5813,0.0753855,0.0926422,0.0260619,0,0,0,4.445,0.6475,-0.9275,0.039528,0.094062,-0.986736,-0.2261,0.06846,0.38542
-0.781055,0,0,15.7811,15.7811,14.2189,14.2189,0.522726,0.32307,23.555,0.0738569,0.0911251,0.0260695,0,0,0,3.885,0.8225,-0.945,0.039528,0.094062,-0.986736,-0.2261,0.06846,0.38542
-0.782077,0,0,15.7821,15.7821,14.2179,14.2179,0.523399,0.324165,23.555,-0.067936,-0.0145028,-0.110772,1,0,0,3.8675,0.77,-0.8925,-0.102846,-0.011468,-1.12252,-0.2261,0.06846,0.38542
-0.782044,0,0,15.782,15.782,14.218,14.218,0.52332,0.324818,23.5543,-0.0679474,-0.0145042,-0.110772,1,0,0,3.4475,0.5075,-1.225,-0.102846,-0.011468,-1.12252,-0.22288,0.06692,0.38948
-0.854759,0,0,15.8548,15.8548,14.1452,14.1452,0.575197,0.140548,23.6618,-0.150136,-0.0701433,8.49236e-06,0,0,0,3.115,0.455,-1.085,-0.188612,-0.067954,-1.0126,-0.22288,0.06692,0.38948
-0.926459,0,0,15.9265,15.9265,14.0735,14.0735,0.626345,-0.0400254,23.7685,-0.146984,-0.0692507,1.89678e-06,0,0,0,3.01,0.2275,-0.875,-0.188612,-0.067954,-1.0126,-0.22288,0.06692,0.38948
-0.887164,0,0,15.8872,15.8872,14.1128,14.1128,0.598212,-0.0414379,23.7876,0.00198197,0.027227,-0.00823042,0,0,0,3.71,0.1925,-0.84,-0.03904,0.028914,-1.02077,-0.22288,0.06692,0.38948
-0.847147,0,0,15.8471,15.8471,14.1529,14.1529,0.569568,-0.0435232,23.8064,0.00201836,0.0267271,-0.00822536,0,0,0,3.1325,-0.2625,-0.8925,-0.03904,0.028914,-1.02077,-0.22288,0.06692,0.38948
-0.882997,0,0,15.883,15.883,14.117,14.117,0.595112,0.323621,23.5835,0.277336,0.0131281,0.0529828,0,0,0,3.605,-0.0525,-0.735,0.243878,0.014884,-0.960018,-0.22288,0.06692,0.38948
-0.914626,0,0,15.9146,15.9146,14.0854,14.0854,0.617637,0.683179,23.3612,0.271061,0.0135207,0.0529235,0,0,0,2.765,0.0175,-0.98,0.243878,0.014884,-0.960018,-0.22288,0.06692,0.38948
-0.91295,0,0,15.9129,15.9129,14.0871,14.0871,0.616374,0.68326,23.361,0.00354771,0.0547775,-0.1015,1,0,0,2.7825,0.175,-0.945,-0.024766,0.05612,-1.11325,-0.22288,0.06692,0.38948
-0.911797,0,0,15.9118,15.9118,14.0882,14.0882,0.615484,0.683282,23.3608,0.00354733,0.0547619,-0.101499,1,0,0,2.9925,0.14,-0.98,-0.024766,0.05612,-1.11325,-0.2254,0.06286,0.38388
-0.909203,0,0,15.9092,15.9092,14.0908,14.0908,0.613566,0.683123,23.3607,0.0881041,-0.176946,-0.107401,1,0,0,2.415,0.035,-0.91,0.060146,-0.175314,-1.11911,-0.2254,0.06286,0.38388
-0.9087,0,0,15.9087,15.9087,14.0913,14.0913,0.613141,0.683058,23.3602,0.0881053,-0.176953,-0.1074,1,0,0,3.255,0.0875,-1.155,0.060146,-0.175314,-1.11911,-0.2254,0.06286,0.38388
-1.03632,0,0,16.0363,16.0363,13.9637,13.9637,0.704224,0.582791,23.4053,-0.0852057,-0.0962255,0.0289505,0,0,0,2.9225,-0.105,-1.33,-0.115656,-0.096258,-0.983808,-0.2254,0.06286,0.38388
-1.16319,0,0,16.1632,16.1632,13.8368,13.8368,0.794762,0.483994,23.4496,-0.0834815,-0.0946454,0.0289459,0,0,0,3.4125,-0.455,-1.4875,-0.115656,-0.096258,-0.983808,-0.2254,0.06286,0.38388
-1.05741,0,0,16.0574,16.0574,13.9426,13.9426,0.719127,0.312548,23.5799,-0.111104,0.0499764,0.106442,0,0,0,3.1325,-0.42,-1.7675,-0.1464,0.049532,-0.906948,-0.2254,0.06286,0.38388
-0.95328,0,0,15.9533,15.9533,14.0467,14.0467,0.644677,0.145312,23.7096,-0.108185,0.0486773,0.106469,0,0,0,2.8525,-0.35,-1.715,-0.1464,0.049532,-0.906948,-0.2254,0.06286,0.38388
-0.673168,0,0,15.6732,15.6732,14.3268,14.3268,0.44455,0.270174,23.6946,0.108796,0.187829,0.10883,0,0,0,3.2725,-0.2275,-1.855,0.073688,0.192028,-0.90463,-0.2254,0.06286,0.38388
-0.397224,0,0,15.3972,15.3972,14.6028,14.6028,0.24742,0.39332,23.6792,0.106647,0.184388,0.108838,0,0,0,3.115,0.07,-1.8375,0.073688,0.192028,-0.90463,-0.2254,0.06286,0.38388
-0.330985,0,0,15.331,15.331,14.669,14.669,0.200085,0.493217,23.6353,0.0869235,0.0580156,-0.0483,0,0,0,3.22,0.14,-1.8025,0.055632,0.066612,-1.06055,-0.22862,0.06524,0.3843
-0.238737,0,0,15.2387,15.2387,14.7613,14.7613,0.134179,0.483881,23.6629,-0.000383279,0.061384,0.017974,0,0,0,3.5525,0.2275,-1.54,-0.032208,0.071126,-0.994788,-0.22862,0.06524,0.3843
-0.147579,0,0,15.1476,15.1476,14.8524,14.8524,0.0690589,0.474759,23.6911,-0.000224084,0.0602475,0.0179773,0,0,0,3.3075,0.14,-1.155,-0.032208,0.071126,-0.994788,-0.22862,0.06524,0.3843
0.0154524,0,0,14.9845,14.9845,15.0155,15.0155,-0.0473868,0.272878,23.8525,-0.146614,0.092655,-0.0073267,0,0,0,3.4825,0.105,-0.7175,-0.182756,0.10553,-1.01992,-0.22862,0.06524,0.3843
0.175919,0,0,14.8241,14.8241,15.1759,15.1759,-0.161989,0.0758427,24.0135,-0.143175,0.0906548,-0.00731989,0,0,0,3.1675,0.1225,-0.6475,-0.182756,0.10553,-1.01992,-0.22862,0.06524,0.3843
0.313121,0,0,14.6869,14.6869,15.3131,15.3131,-0.259962,0.0167868,24.089,-0.035237,0.0866244,0.00804321,0,0,0,3.0975,0.42,-0.1925,-0.075396,0.103212,-1.00467,-0.22862,0.06524,0.3843
0.446739,0,0,14.5533,14.5533,15.4467,15.4467,-0.355365,-0.0414205,24.1648,-0.0342211,0.0849593,0.00803405,0,0,0,3.4825,0,0.1225,-0.075396,0.103212,-1.00467,-0.22862,0.06524,0.3843
0.275354,0,0,14.7246,14.7246,15.2754,15.2754,-0.232923,0.188497,24.0063,0.153714,-0.0874228,0.084022,0,0,0,3.78,0.07,0.4025,0.117364,-0.071126,-0.929274,-0.22862,0.06524,0.3843
0.106823,0,0,14.8932,14.8932,15.1068,15.1068,-0.112532,0.412335,23.8461,0.149807,-0.0853215,0.0840079,0,0,0,4.515,0.2275,0.77,0.117364,-0.071126,-0.929274,-0.22638,0.06832,0.38668
-0.000366607,0,0,15.0004,15.0004,14.9996,14.9996,-0.0359634,0.272317,23.9205,-0.111009,-0.0823975,0.0655819,0,0,0,3.9725,0.4725,0.7875,-0.14701,-0.06954,-0.947574,-0.22638,0.06832,0.38668
-0.105542,0,0,15.1055,15.1055,14.8945,14.8945,0.0391574,0.134802,23.9942,-0.108609,-0.0810864,0.0655904,0,0,0,3.7625,0.1925,0.9275,-0.14701,-0.06954,-0.947574,-0.22638,0.06832,0.38668
-0.0550047,0,0,15.055,15.055,14.945,14.945,0.00305928,0.00661705,24.0928,-0.0908214,0.0213585,0.0560034,0,0,0,4.1825,0.2625,0.805,-0.131394,0.033428,-0.95709,-0.22638,0.06832,0.38668
-0.00441416,0,0,15.0044,15.0044,14.9956,14.9956,-0.0330733,-0.11894,24.1899,-0.08863,0.0207279,0.0560011,0,0,0,3.6575,0.0525,0.2975,-0.131394,0.033428,-0.95709,-0.22638,0.06832,0.38668
-0.110265,0,0,15.1103,15.1103,14.8897,14.8897,0.0425302,-0.138589,24.1924,-0.0226848,-0.0712574,0.0386645,0,0,0,3.8675,0.14,-0.035,-0.065514,-0.05978,-0.974292,-0.22638,0.06832,0.38668
-0.21387,0,0,15.2139,15.2139,14.7861,14.7861,0.116521,-0.158561,24.1942,-0.0223362,-0.0699661,0.0386618,0,0,0,3.71,-0.1925,-0.455,-0.065514,-0.05978,-0.974292,-0.22638,0.06832,0.38668
-0.214698,0,0,15.2147,15.2147,14.7853,14.7853,0.1171,-0.15908,24.1944,0.0895611,-0.197212,0.163086,1,0,0,3.815,-0.175,-0.7525,0.046848,-0.186904,-0.850828,-0.22638,0.06832,0.38668
-0.206439,0,0,15.2064,15.2064,14.7936,14.7936,0.111189,-0.159686,24.1939,0.0895717,-0.197315,0.163086,1,0,0,0.175,-0.2275,-1.1375,0.046848,-0.186904,-0.850828,-0.22428,0.06328,0.38374
-0.33353,0,0,15.3335,15.3335,14.6665,14.6665,0.201946,0.12772,24.0083,0.224143,-0.0607811,-0.0225693,0,0,0,3.3425,-0.0525,-1.5575,0.187026,-0.052094,-1.03505,-0.22428,0.06328,0.38374
-0.459577,0,0,15.4596,15.4596,14.5404,14.5404,0.291949,0.409097,23.8227,0.219232,-0.0592104,-0.0225991,0,0,0,4.3225,0.14,-2.415,0.187026,-0.052094,-1.03505,-0.22428,0.06328,0.38374
-0.579581,0,0,15.5796,15.5796,14.4204,14.4204,0.377625,0.482407,23.7626,0.0471434,-0.074813,0.0110701,0,0,0,3.2025,-0.0175,-2.555,0.015494,-0.069174,-1.00162,-0.22428,0.06328,0.38374
-0.696988,0,0,15.697,15.697,14.303,14.303,0.461438,0.554008,23.7026,0.0458937,-0.0733503,0.0110481,0,0,0,3.15,0.07,-2.87,0.015494,-0.069174,-1.00162,-0.22428,0.06328,0.38374
-0.695548,0,0,15.6955,15.6955,14.3045,14.3045,0.46036,0.553489,23.699,-0.182976,-0.0312354,-0.0869416,1,0,0,2.905,-0.1925,-2.975,-0.214354,-0.027084,-1.09885,-0.22428,0.06328,0.38374
-0.694282,0,0,15.6943,15.6943,14.3057,14.3057,0.459406,0.554106,23.6953,-0.182987,-0.0312521,-0.0869416,1,0,0,2.975,0.4725,-2.9925,-0.214354,-0.027084,-1.09885,-0.22428,0.06328,0.38374
-0.778254,0,0,15.7783,15.7783,14.2217,14.2217,0.519331,0.55628,23.6833,-0.00529139,-0.054021,0.0591119,0,0,0,3.3075,0.175,-2.87,-0.035868,-0.050874,-0.953918,-0.22428,0.06328,0.38374
-0.860525,0,0,15.8605,15.8605,14.1395,14.1395,0.578034,0.55772,23.6693,-0.00531654,-0.0529965,0.0591019,0,0,0,3.3075,0.035,-2.4675,-0.035868,-0.050874,-0.953918,-0.22092,0.06622,0.3899
-0.86139,0,0,15.8614,15.8614,14.1386,14.1386,0.57859,0.557436,23.6668,-0.0936317,0.0397074,0.111601,1,0,0,3.815,-0.0525,-2.2925,-0.124562,0.041724,-0.901824,-0.22092,0.06622,0.3899
-0.861838,0,0,15.8618,15.8618,14.1382,14.1382,0.578848,0.556809,23.6658,-0.0936207,0.0397119,0.111601,1,0,0,3.64,-0.245,-1.4525,-0.124562,0.041724,-0.901824,-0.22092,0.06622,0.3899
-0.918509,0,0,15.9185,15.9185,14.0815,14.0815,0.619261,0.444085,23.7285,-0.0957839,-0.0545973,-0.0412143,0,0,0,2.835,-0.1575,-1.33,-0.12871,-0.053192,-1.05347,-0.22092,0.06622,0.3899
-0.975177,0,0,15.9752,15.9752,14.0248,14.0248,0.659667,0.334259,23.7909,-0.0938671,-0.053892,-0.0412091,0,0,0,3.0975,0.105,-1.155,-0.12871,-0.053192,-1.05347,-0.22092,0.06622,0.3899
-0.9533,0,0,15.9533,15.9533,14.0467,14.0467,0.643972,0.446255,23.7318,0.0933314,0.026804,-0.0385145,0,0,0,3.1675,-0.0875,-0.945,0.061244,0.027694,-1.05079,-0.22092,0.06622,0.3899
-0.931536,0,0,15.9315,15.9315,14.0685,14.0685,0.628358,0.556083,23.6742,0.0914146,0.0265313,-0.0385282,0,0,0,3.2025,0.07,-0.2625,0.061244,0.027694,-1.05079,-0.22092,0.06622,0.3899
-0.866314,0,0,15.8663,15.8663,14.1337,14.1337,0.581709,0.487334,23.7336,-0.0480659,0.036953,0.0114084,0,0,0,3.0275,-0.0525,-0.455,-0.080032,0.038918,-1.00125,-0.22092,0.06622,0.3899
-0.800997,0,0,15.801,15.801,14.199,14.199,0.534997,0.420327,23.7904,-0.0468965,0.0361379,0.0114256,0,0,0,2.5375,0.245,0,-0.080032,0.038918,-1.00125,-0.22652,0.06636,0.38738
-0.800463,0,0,15.8005,15.8005,14.1995,14.1995,0.534558,0.420183,23.792,-0.212965,0.174011,-0.118777,1,0,0,3.2375,0.0525,0.07,-0.246806,0.176656,-1.13045,-0.22652,0.06636,0.38738
-0.79897,0,0,15.799,15.799,14.201,14.201,0.533435,0.419857,23.7938,-0.212959,0.173992,-0.118777,1,0,0,2.8525,-0.0525,0.175,-0.246806,0.176656,-1.13045,-0.22652,0.06636,0.38738
-0.920278,0,0,15.9203,15.9203,14.0797,14.0797,0.620017,0.419504,23.7766,-0.00922155,-0.0851157,-0.0134248,0,0,0,3.5875,-0.1575,0.315,-0.042212,-0.083692,-1.0259,-0.22652,0.06636,0.38738
-1.03983,0,0,16.0398,16.0398,13.9602,13.9602,0.705338,0.419235,23.7594,-0.00921686,-0.0836267,-0.013442,0,0,0,3.7625,0.0175,0.1925,-0.042212,-0.083692,-1.0259,-0.22652,0.06636,0.38738
-1.04143,0,0,16.0414,16.0414,13.9586,13.9586,0.7064,0.418992,23.7613,-0.0202678,0.0236191,-0.102334,1,0,0,4.0775,0,0.28,-0.053314,0.023424,-1.1141,-0.22652,0.06636,0.38738
-1.04183,0,0,16.0418,16.0418,13.9582,13.9582,0.706616,0.419114,23.7627,-0.0202699,0.0236228,-0.102334,1,0,0,3.605,0.21,-0.035,-0.053314,0.023424,-1.1141,-0.22652,0.06636,0.38738
-0.965147,0,0,15.9651,15.9651,14.0349,14.0349,0.651769,0.428887,23.7756,0.0112673,0.0497778,0.0823447,0,0,0,2.9925,0.455,0.28,-0.021472,0.050508,-0.93086,-0.22652,0.06636,0.38738
-0.888663,0,0,15.8887,15.8887,14.1113,14.1113,0.597074,0.43822,23.7878,0.0111044,0.0488233,0.0823538,0,0,0,2.5375,0.245,-0.035,-0.021472,0.050508,-0.93086,-0.22652,0.06636,0.38738
-0.569878,0,0,15.5699,15.5699,14.4301,14.4301,0.369331,0.219051,23.9858,-0.145675,0.194088,0.0386396,0,0,0,2.7125,0.315,0.035,-0.182756,0.199592,-0.974292,-0.22582,0.06706,0.38976
-0.937251,0,0,15.9373,15.9373,14.0627,14.0627,0.631673,0.349807,23.8425,0.0746051,-0.248196,0.00981836,0,0,0,2.6425,0.42,-0.1575,0.040748,-0.246806,-1.00284,-0.22582,0.06706,0.38976
-1.3001,0,0,16.3001,16.3001,13.6999,13.6999,0.890755,0.47632,23.7014,0.0723971,-0.243675,0.00974237,0,0,0,3.675,0.035,-0.0875,0.040748,-0.246806,-1.00284,-0.22582,0.06706,0.38976
-1.50531,0,0,16.5053,16.5053,13.4947,13.4947,1.03722,0.579627,23.6017,0.0589315,-0.120214,0.0857879,0,0,0,3.395,0.14,-0.28,0.029036,-0.126026,-0.927322,-0.22582,0.06706,0.38976
-1.70803,0,0,16.708,16.708,13.292,13.292,1.18189,0.679417,23.5031,0.05719,-0.11769,0.0857199,0,0,0,4.0425,-0.35,-0.315,0.029036,-0.126026,-0.927322,-0.22582,0.06706,0.38976
-1.77988,0,0,16.7799,16.7799,13.2201,13.2201,1.23308,0.598366,23.5361,-0.0654324,-0.0557327,0.0385046,0,0,0,3.3075,-0.315,-0.6475,-0.095526,-0.065026,-0.97417,-0.22582,0.06706,0.38976
-1.85185,0,0,16.8518,16.8518,13.1482,13.1482,1.28435,0.5203,23.5683,-0.06407,-0.0548378,0.0384982,0,0,0,3.7625,0.42,-0.8575,-0.095526,-0.065026,-0.97417,-0.22582,0.06706,0.38976
-1.69426,0,0,16.6943,16.6943,13.3057,13.3057,1.17166,0.500615,23.6065,-0.00359099,0.106846,-0.000431249,0,0,0,3.01,0.175,-1.26,-0.035136,0.098454,-1.01284,-0.22582,0.06706,0.38976
-1.54031,0,0,16.5403,16.5403,13.4597,13.4597,1.06159,0.480913,23.6457,-0.00324713,0.104925,-0.000390867,0,0,0,3.4475,0.035,-1.7675,-0.035136,0.098454,-1.01284,-0.22932,0.06454,0.38654
-1.43623,0,0,16.4362,16.4362,13.5638,13.5638,0.987139,0.439759,23.6891,-0.0239104,0.0685757,-0.0269187,0,0,0,3.1325,-0.14,-1.82,-0.056608,0.06344,-1.0392,-0.22932,0.06454,0.38654
-1.33548,0,0,16.3355,16.3355,13.6645,13.6645,0.915076,0.400285,23.7315,-0.0232214,0.0673183,-0.0268928,0,0,0,3.675,0.1925,-2.2925,-0.056608,0.06344,-1.0392,-0.22932,0.06454,0.38654
-1.33675,0,0,16.3368,16.3368,13.6632,13.6632,0.915888,0.400256,23.7289,0.106161,0.0491356,-0.10226,1,0,0,3.955,0.0875,-2.3625,0.073322,0.045262,-1.11398,-0.22932,0.06454,0.38654
-1.33837,0,0,16.3384,16.3384,13.6616,13.6616,0.916944,0.400119,23.7256,0.106164,0.049154,-0.102261,1,0,0,4.095,0.0175,-2.8,0.073322,0.045262,-1.11398,-0.22932,0.06454,0.38654
-1.64734,0,0,16.6473,16.6473,13.3527,13.3527,1.13751,0.497653,23.6098,0.0511293,-0.201632,0.0295806,0,0,0,3.9375,-0.0875,-2.8875,0.019764,-0.209108,-0.983076,-0.22932,0.06454,0.38654
-1.94991,0,0,16.9499,16.9499,13.0501,13.0501,1.35349,0.592224,23.4951,0.0494788,-0.197863,0.029483,0,0,0,3.7625,-0.21,-3.1325,0.019764,-0.209108,-0.983076,-0.22932,0.06454,0.38654
-2.07939,0,0,17.0794,17.0794,12.9206,12.9206,1.44582,0.598395,23.4632,-0.00529749,-0.0814534,0.068909,0,0,0,3.64,-0.105,-3.22,-0.035136,-0.094428,-0.943914,-0.22932,0.06454,0.38654
-2.20662,0,0,17.2066,17.2066,12.7934,12.7934,1.53654,0.603755,23.4323,-0.00539104,-0.0798708,0.0688668,0,0,0,3.71,-0.28,-2.8875,-0.035136,-0.094428,-0.943914,-0.2233,0.06608,0.3815
-2.1949,0,0,17.1949,17.1949,12.8051,12.8051,1.528,0.309759,23.6072,-0.23497,-0.0246952,-0.0146933,0,0,0,3.675,-0.0875,-2.7825,-0.27084,-0.039162,-1.02687,-0.2233,0.06608,0.3815
-2.18384,0,0,17.1838,17.1838,12.8162,12.8162,1.51994,0.0224403,23.7816,-0.229956,-0.0248355,-0.014675,0,0,0,3.535,-0.0875,-2.205,-0.27084,-0.039162,-1.02687,-0.2233,0.06608,0.3815
-1.96383,0,0,16.9638,16.9638,13.0362,13.0362,1.36264,-0.161466,23.9374,-0.113035,0.123491,0.100962,0,0,0,3.71,-0.1925,-1.1725,-0.156648,0.111752,-0.912194,-0.2233,0.06608,0.3815
-1.74807,0,0,16.7481,16.7481,13.2519,13.2519,1.2084,-0.340912,24.0929,-0.109903,0.120799,0.101008,0,0,0,3.71,-0.1925,-1.1725,-0.156648,0.111752,-0.912194,-0.2233,0.06608,0.3815
-1.89277,0,0,16.8928,16.8928,13.1072,13.1072,1.31162,-0.374218,24.0961,-0.0393464,-0.106876,-0.0198932,0,0,0,3.5525,0.35,-0.28,-0.086376,-0.117486,-1.03212,-0.2233,0.06608,0.3815
-2.035,0,0,17.035,17.035,12.965,12.965,1.41306,-0.407058,24.0993,-0.0387733,-0.105106,-0.0199392,0,0,0,3.5525,0.35,-0.28,-0.086376,-0.117486,-1.03212,-0.2233,0.06608,0.3815
-2.03499,0,0,17.035,17.035,12.965,12.965,1.4129,-0.406847,24.1024,-0.111668,0.181522,-0.118913,1,0,0,3.4125,0.2975,0.98,-0.159576,0.168848,-1.13033,-0.2233,0.06608,0.3815
-2.03498,0,0,17.035,17.035,12.965,12.965,1.41274,-0.406637,24.1056,-0.111672,0.18152,-0.118913,1,0,0,3.4125,0.2975,0.98,-0.159576,0.168848,-1.13033,-0.2289,0.0665,0.39004
-1.87944,0,0,16.8794,16.8794,13.1206,13.1206,1.3015,-0.445099,24.1694,-0.0187931,0.109356,-0.0609628,0,0,0,3.815,0.3675,1.5575,-0.066978,0.098698,-1.07287,-0.2289,0.0665,0.39004
-2.0888,0,0,17.0888,17.0888,12.9112,12.9112,1.45089,-0.31212,24.0615,0.0829992,-0.124353,0.0455862,0,0,0,3.955,0.5075,1.715,0.037576,-0.137372,-0.967094,-0.2289,0.0665,0.39004
-2.29323,0,0,17.2932,17.2932,12.7068,12.7068,1.59674,-0.183241,23.9549,0.0807499,-0.121808,0.0455283,0,0,0,3.71,0.0875,1.785,0.037576,-0.137372,-0.967094,-0.2289,0.0665,0.39004
-2.26171,0,0,17.2617,17.2617,12.7383,12.7383,1.57406,-0.390544,24.0922,-0.161762,-0.00142063,-0.0107893,0,0,0,3.5,0.28,1.7675,-0.209596,-0.016714,-1.02297,-0.2289,0.0665,0.39004
-2.23025,0,0,17.2302,17.2302,12.7698,12.7698,1.55141,-0.592674,24.2276,-0.158234,-0.00181646,-0.0108088,0,0,0,3.0625,0.49,1.225,-0.209596,-0.016714,-1.02297,-0.2289,0.0665,0.39004
-2.22994,0,0,17.2299,17.2299,12.7701,12.7701,1.55103,-0.592194,24.2305,0.0592167,-0.116012,0.127017,1,0,0,3.29,0.455,0.805,0.008784,-0.130784,-0.886208,-0.2289,0.0665,0.39004
-2.22925,0,0,17.2292,17.2292,12.7708,12.7708,1.55037,-0.59199,24.2325,0.0592131,-0.116023,0.127017,1,0,0,3.1325,0.28,0.315,0.008784,-0.130784,-0.886208,-0.2289,0.0665,0.39004
-2.23759,0,0,17.2376,17.2376,12.7624,12.7624,1.55616,-0.686809,24.2935,-0.0709441,-0.0154124,0.045604,0,0,0,2.94,0.5775,-0.0875,-0.123586,-0.030378,-0.966972,-0.2289,0.06776,0.38164
-2.34345,0,0,17.3435,17.3435,12.6565,12.6565,1.6316,-0.666338,24.2662,0.00729993,-0.0711293,-0.00213242,0,0,0,3.5875,-0.105,-1.015,-0.044652,-0.087352,-1.01431,-0.2289,0.06776,0.38164
-2.44674,0,0,17.4467,17.4467,12.5533,12.5533,1.70519,-0.64579,24.238,0.00694132,-0.0698454,-0.00216571,0,0,0,3.3425,0.315,-1.645,-0.044652,-0.087352,-1.01431,-0.2289,0.06776,0.38164
-2.38042,0,0,17.3804,17.3804,12.6196,12.6196,1.65765,-0.816668,24.3546,-0.130878,0.0258042,-0.02222,0,0,0,2.905,0.14,-1.8725,-0.18605,0.009028,-1.03419,-0.2289,0.06776,0.38164
-2.31517,0,0,17.3152,17.3152,12.6848,12.6848,1.61087,-0.98406,24.4694,-0.127957,0.0249868,-0.0222426,0,0,0,2.6425,-0.1925,-2.5025,-0.18605,0.009028,-1.03419,-0.2289,0.06776,0.38164
-2.45728,0,0,17.4573,17.4573,12.5427,12.5427,1.71219,-0.844477,24.3633,0.10128,-0.0909748,-0.0529922,0,0,0,2.45,-0.3325,-2.6775,0.046604,-0.10858,-1.06469,-0.2289,0.06776,0.38164
-2.59756,0,0,17.5976,17.5976,12.4024,12.4024,1.8122,-0.707903,24.2578,0.0988966,-0.0892293,-0.0530136,0,0,0,2.9925,-0.1225,-3.08,0.046604,-0.10858,-1.06469,-0.2289,0.06776,0.38164
-2.45571,0,0,17.4557,17.4557,12.5443,12.5443,1.71069,-0.755725,24.3143,-0.0241842,0.0909686,0.0198158,0,0,0,2.8525,-0.1225,-3.08,-0.077836,0.0732,-0.99247,-0.2289,0.06776,0.38164
-2.31852,0,0,17.3185,17.3185,12.6815,12.6815,1.61253,-0.801963,24.3663,-0.0233773,0.0892558,0.0198545,0,0,0,3.5,-0.2975,-2.9225,-0.077836,0.0732,-0.99247,-0.23058,0.0707,0.3913
-2.40036,0,0,17.4004,17.4004,12.5996,12.5996,1.67081,-0.719445,24.2995,0.0580359,-0.046631,0.00091037,0,0,0,3.885,-0.385,-2.8525,0.005368,-0.063562,-1.01126,-0.23058,0.0707,0.3913
-2.47829,0,0,17.4783,17.4783,12.5217,12.5217,1.72629,-0.63858,24.2338,0.0566246,-0.0456627,0.00089839,0,0,0,3.045,-0.175,-2.5725,0.005368,-0.063562,-1.01126,-0.23058,0.0707,0.3913
-2.46958,0,0,17.4696,17.4696,12.5304,12.5304,1.71988,-0.659,24.2446,-0.0138452,0.00466375,0.0477411,0,0,0,3.1675,0.07,-2.5025,-0.065758,-0.013176,-0.964776,-0.23058,0.0707,0.3913
-2.4624,0,0,17.4624,17.4624,12.5376,12.5376,1.71457,-0.678581,24.2563,-0.0135034,0.00457097,0.0477399,0,0,0,3.6925,0.2975,-1.9775,-0.065758,-0.013176,-0.964776,-0.23058,0.0707,0.3913
-2.36129,0,0,17.3613,17.3613,12.6387,12.6387,1.64217,-0.81785,24.3577,-0.101215,0.0553331,-0.0079505,0,0,0,3.57,0.1575,-1.9075,-0.156282,0.038796,-1.02004,-0.23058,0.0707,0.3913
-2.26229,0,0,17.2623,17.2623,12.7377,12.7377,1.57129,-0.953562,24.459,-0.098847,0.0540955,-0.00795242,0,0,0,3.535,0.2975,-1.645,-0.156282,0.038796,-1.02004,-0.23058,0.0707,0.3913
-2.31746,0,0,17.3175,17.3175,12.6825,12.6825,1.61052,-0.896346,24.4175,0.0394986,-0.0300976,0.0263473,0,0,0,3.5,-0.07,-0.8925,-0.016348,-0.045994,-0.986004,-0.23058,0.0707,0.3913
-2.3715,0,0,17.3715,17.3715,12.6285,12.6285,1.64894,-0.840415,24.3847,0.0385226,-0.029427,0.026343,0,0,0,3.5,-0.07,-0.8925,-0.016348,-0.045994,-0.986004,-0.22806,0.06566,0.38962
-2.43661,0,0,17.4366,17.4366,12.5634,12.5634,1.69527,-0.780799,24.3475,0.0422201,-0.0420524,-0.0508775,0,0,0,3.3775,0.1225,-0.56,-0.01159,-0.059414,-1.06262,-0.22806,0.06566,0.38962
-2.50032,0,0,17.5003,17.5003,12.4997,12.4997,1.74059,-0.722643,24.3106,0.0412052,-0.0412614,-0.0508879,0,0,0,3.3775,0.1225,-0.56,-0.01159,-0.059414,-1.06262,-0.22806,0.06566,0.38962
-2.50029,0,0,17.5003,17.5003,12.4997,12.4997,1.74038,-0.73051,24.3115,-0.257877,0.124461,-0.110151,1,0,0,3.3775,-4.4625,-0.1925,-0.312076,0.10614,-1.12142,-0.22806,0.06566,0.38962
-2.50025,0,0,17.5003,17.5003,12.4997,12.4997,1.74017,-0.738378,24.3124,-0.257739,0.124457,-0.110152,1,0,0,3.3775,-4.4625,-0.1925,-0.312076,0.10614,-1.12142,-0.22806,0.06566,0.38962
-2.33565,0,0,17.3357,17.3357,12.6643,12.6643,1.62242,-0.726906,24.3493,0.0232997,0.120449,-0.0359516,0,0,0,4.1475,0.35,0.2975,-0.029646,0.104188,-1.04786,-0.22806,0.06566,0.38962
-2.17392,0,0,17.1739,17.1739,12.8261,12.8261,1.50674,-0.715384,24.386,0.0230986,0.118431,-0.0358939,0,0,0,4.1475,0.35,0.2975,-0.029646,0.104188,-1.04786,-0.22806,0.06566,0.38962
-2.27177,0,0,17.2718,17.2718,12.7282,12.7282,1.57646,-0.652559,24.3418,0.0403465,-0.0584129,0.0154789,0,0,0,4.2175,0.245,0.455,-0.011224,-0.073688,-0.996862,-0.22806,0.06566,0.38962
-2.3676,0,0,17.3676,17.3676,12.6324,12.6324,1.64474,-0.591369,24.301,0.0392786,-0.0572216,0.015457,0,0,0,4.2175,0.245,0.455,-0.011224,-0.073688,-0.996862,-0.2247,0.06454,0.3878
-2.28804,0,0,17.288,17.288,12.712,12.712,1.58774,-0.786103,24.4463,-0.14599,0.0338665,0.00732963,0,0,0,3.4825,0.2625,0.7525,-0.20069,0.0183,-1.00491,-0.2247,0.06454,0.3878
-2.21039,0,0,17.2104,17.2104,12.7896,12.7896,1.53211,-0.976302,24.5907,-0.142671,0.0328947,0.00730503,0,0,0,3.4825,0.2625,0.7525,-0.20069,0.0183,-1.00491,-0.2247,0.06454,0.3878
-1.92521,0,0,16.9252,16.9252,13.0748,13.0748,1.32827,-1.17616,24.7847,-0.131894,0.178087,0.0182707,0,0,0,4.445,0.3325,0.5425,-0.19337,0.166896,-0.994056,-0.2247,0.06454,0.3878
-1.64527,0,0,16.6453,16.6453,13.3547,13.3547,1.12819,-1.37112,24.9785,-0.128492,0.174595,0.0182699,0,0,0,4.445,0.3325,0.5425,-0.19337,0.166896,-0.994056,-0.2247,0.06454,0.3878
-1.50167,0,0,16.5017,16.5017,13.4983,13.4983,1.02551,-1.43697,25.0706,-0.041696,0.0986727,-0.0434447,0,0,0,5.215,0.385,0.1925,-0.10736,0.092842,-1.0553,-0.2247,0.06454,0.3878
-1.36079,0,0,16.3608,16.3608,13.6392,13.6392,0.924778,-1.50109,25.1623,-0.0405774,0.096915,-0.0434435,0,0,0,5.215,0.385,0.1925,-0.10736,0.092842,-1.0553,-0.2247,0.06454,0.3878
-1.38837,0,0,16.3884,16.3884,13.6116,13.6116,0.944376,-1.59581,25.2368,-0.0719688,-0.0257255,0.0572011,0,0,0,4.3575,0.4025,-0.525,-0.140544,-0.030012,-0.955382,-0.2247,0.06454,0.3878
-1.41582,0,0,16.4158,16.4158,13.5842,13.5842,0.963884,-1.68838,25.3113,-0.0703538,-0.025386,0.0571491,0,0,0,4.3575,0.4025,-0.525,-0.140544,-0.030012,-0.955382,-0.22554,0.06398,0.39242
-1.44789,0,0,16.4479,16.4479,13.5521,13.5521,0.986685,-1.53691,25.2318,0.121624,-0.0047139,0.0172585,0,0,0,3.045,-4.2175,-1.61,0.0549,-0.00976,-0.995032,-0.22554,0.06398,0.39242
-1.4788,0,0,16.4788,16.4788,13.5212,13.5212,1.00866,-1.38876,25.1528,0.119039,-0.00432947,0.0173178,0,0,0,3.045,-4.2175,-1.61,0.0549,-0.00976,-0.995032,-0.22554,0.06398,0.39242
-1.73003,0,0,16.73,16.73,13.27,13.27,1.18797,-1.03857,24.908,0.239152,-0.125279,0.10382,0,0,0,2.8175,-0.245,-2.38,0.181658,-0.133712,-0.909266,-0.22554,0.06398,0.39242
-1.9751,0,0,16.9751,16.9751,13.0249,13.0249,1.36288,-0.696098,24.6659,0.233175,-0.122226,0.103843,0,0,0,2.8175,-0.245,-2.38,0.181658,-0.133712,-0.909266,-0.22554,0.06398,0.39242
-2.00242,0,0,17.0024,17.0024,12.9976,12.9976,1.38225,-0.508092,24.5554,0.151171,0.00146095,-0.0280548,0,0,0,3.5,-0.2975,-3.15,0.102602,-0.010492,-1.04017,-0.22554,0.06398,0.39242
-2.02851,0,0,17.0285,17.0285,12.9715,12.9715,1.40073,-0.324179,24.4456,0.147962,0.00178401,-0.0280393,0,0,0,3.5,-0.2975,-3.15,0.102602,-0.010492,-1.04017,-0.22554,0.06398,0.39242
-2.14493,0,0,17.1449,17.1449,12.8551,12.8551,1.48373,-0.483573,24.5211,-0.137664,-0.10192,-0.00645642,0,0,0,3.1325,-0.4025,-3.64,-0.187026,-0.115534,-1.0187,-0.22554,0.06398,0.39242
-2.25987,0,0,17.2599,17.2599,12.7401,12.7401,1.56566,-0.639604,24.5956,-0.13494,-0.100491,-0.00652115,0,0,0,3.1325,-0.4025,-3.64,-0.187026,-0.115534,-1.0187,-0.22554,0.06398,0.39242
-2.24032,0,0,17.2403,17.2403,12.7597,12.7597,1.55153,-0.595519,24.5748,0.0374073,0.0163825,-0.0531036,0,0,0,2.45,0.0525,-3.395,-0.013176,0.001464,-1.06494,-0.224,0.0672,0.39116
-2.21237,0,0,17.2124,17.2124,12.7876,12.7876,1.53141,-0.89456,24.761,-0.232053,-0.0137694,0.0297053,0,0,0,3.29,-0.2975,-3.0975,-0.289018,-0.028304,-0.98271,-0.224,0.0672,0.39116
-2.18535,0,0,17.1854,17.1854,12.8146,12.8146,1.51194,-1.18695,24.947,-0.226951,-0.0141114,0.0296216,0,0,0,3.15,-0.3325,-2.2925,-0.289018,-0.028304,-0.98271,-0.224,0.0672,0.39116
-2.26429,0,0,17.2643,17.2643,12.7357,12.7357,1.56816,-1.27388,24.9923,-0.080137,-0.0697984,-0.0480178,0,0,0,3.29,-0.2975,-1.8725,-0.143106,-0.084912,-1.05969,-0.224,0.0672,0.39116
-2.34288,0,0,17.3429,17.3429,12.6571,12.6571,1.62412,-1.35878,25.0387,-0.0786555,-0.0688233,-0.048079,0,0,0,3.605,-0.14,-0.98,-0.143106,-0.084912,-1.05969,-0.224,0.0672,0.39116
-2.03997,0,0,17.04,17.04,12.96,12.96,1.40761,-1.38388,25.1304,0.00572903,0.224168,-0.0717186,0,0,0,3.325,0.2975,-0.455,-0.058804,0.211548,-1.08324,-0.224,0.0672,0.39116
-1.74016,0,0,16.7402,16.7402,13.2598,13.2598,1.19333,-1.40868,25.2231,0.00616162,0.22043,-0.0716443,0,0,0,2.4675,-0.14,0.28,-0.058804,0.211548,-1.08324,-0.224,0.0672,0.39116
-1.76309,0,0,16.7631,16.7631,13.2369,13.2369,1.20958,-1.27042,25.1535,0.107498,-0.000945476,0.000945736,0,0,0,3.1325,0.175,0.7,0.045384,-0.009882,-1.01126,-0.224,0.0672,0.39116
-1.78482,0,0,16.7848,16.7848,13.2152,13.2152,1.22497,-1.13518,25.0806,0.105138,-0.00067593,0.000989568,0,0,0,3.0275,0.1925,1.3825,0.045384,-0.009882,-1.01126,-0.22246,0.07098,0.38766
-1.79416,0,0,16.7942,16.7942,13.2058,13.2058,1.2315,-1.05525,25.043,0.0645035,0.00151477,-0.0482886,0,0,0,3.43,0.175,1.8025,0.005978,-0.007808,-1.06018,-0.22246,0.07098,0.38766
-1.80269,0,0,16.8027,16.8027,13.1973,13.1973,1.23747,-0.976709,25.0057,0.0631329,0.0016193,-0.0482665,0,0,0,3.29,0.4025,1.89,0.005978,-0.007808,-1.06018,-0.22246,0.07098,0.38766
-1.82644,0,0,16.8264,16.8264,13.1736,13.1736,1.2543,-1.04844,25.0546,-0.0613531,-0.0261767,-0.0250577,0,0,0,3.3775,0.5775,1.925,-0.120292,-0.035868,-1.03712,-0.22246,0.07098,0.38766
-1.84922,0,0,16.8492,16.8492,13.1508,13.1508,1.27044,-1.11902,25.1028,-0.0601214,-0.0258957,-0.0250872,0,0,0,3.0625,0.3325,1.75,-0.120292,-0.035868,-1.03712,-0.22246,0.07098,0.38766
-1.61526,0,0,16.6153,16.6153,13.3847,13.3847,1.1032,-1.1254,25.1667,0.0145822,0.169032,-0.0405205,0,0,0,3.0275,0.2275,1.5575,-0.045384,0.161772,-1.05249,-0.22246,0.07098,0.38766
-1.38608,0,0,16.3861,16.3861,13.6139,13.6139,0.939403,-1.1313,25.2292,0.0146851,0.166174,-0.0404716,0,0,0,3.29,0.175,0.8925,-0.045384,0.161772,-1.05249,-0.22246,0.07098,0.38766
-1.54469,0,0,16.5447,16.5447,13.4553,13.4553,1.05258,-1.0258,25.144,0.0726152,-0.105048,-0.0511678,0,0,0,3.7975,0.7,0.6125,0.01464,-0.111142,-1.06311,-0.22246,0.07098,0.38766
-1.70166,0,0,16.7017,16.7017,13.2983,13.2983,1.16458,-0.922741,25.0728,0.0708166,-0.103093,-0.051175,0,0,0,4.1475,0.1575,-0.2275,0.01464,-0.111142,-1.06311,-0.22498,0.06006,0.3969
-1.77477,0,0,16.7748,16.7748,13.2252,13.2252,1.21667,-1.09889,25.1842,-0.14199,-0.0667689,0.0442829,0,0,0,4.0425,0.455,-0.6825,-0.202154,-0.075762,-0.968314,-0.22498,0.06006,0.3969
-1.84751,0,0,16.8475,16.8475,13.1525,13.1525,1.26849,-1.2712,25.2929,-0.138983,-0.0658663,0.0442011,0,0,0,4.165,0.4725,-1.505,-0.202154,-0.075762,-0.968314,-0.22498,0.06006,0.3969
-1.74844,0,0,16.7484,16.7484,13.2516,13.2516,1.1976,-1.20825,25.2966,0.0592767,0.0770071,-0.0147638,0,0,0,3.5875,0.595,-1.89,-0.001952,0.068198,-1.02687,-0.22498,0.06006,0.3969
-1.65075,0,0,16.6507,16.6507,13.3493,13.3493,1.1277,-1.14687,25.2992,0.0582057,0.075788,-0.0147171,0,0,0,3.5,0.35,-2.45,-0.001952,0.068198,-1.02687,-0.22498,0.06006,0.3969
-1.48749,0,0,16.4875,16.4875,13.5125,13.5125,1.01098,-1.27233,25.4262,-0.0817433,0.0976876,0.0340853,0,0,0,3.6925,0.0175,-2.73,-0.144692,0.09211,-0.97844,-0.22498,0.06006,0.3969
-1.32658,0,0,16.3266,16.3266,13.6734,13.6734,0.89594,-1.39466,25.5521,-0.0796089,0.0956799,0.034069,0,0,0,3.3425,0.0525,-3.15,-0.144692,0.09211,-0.97844,-0.22498,0.06006,0.3969
-1.46436,0,0,16.4644,16.4644,13.5356,13.5356,0.994252,-1.54206,25.632,-0.133164,-0.113885,0.00163935,0,0,0,3.5875,0.105,-3.255,-0.201056,-0.11895,-1.01053,-0.22498,0.06006,0.3969
-1.60043,0,0,16.6004,16.6004,13.3996,13.3996,1.09133,-1.68766,25.702,-0.130623,-0.112193,0.00153693,0,0,0,4.0425,0.2275,-2.975,-0.201056,-0.11895,-1.01053,-0.22694,0.06622,0.39452
-1.47435,0,0,16.4744,16.4744,13.5256,13.5256,1.00116,-1.82365,25.8233,-0.0981226,0.0735751,-0.00637576,0,0,0,3.85,0.035,-3.0275,-0.1708,0.068198,-1.01833,-0.22694,0.06622,0.39452
-1.3514,0,0,16.3514,16.3514,13.6486,13.6486,0.91324,-1.95642,25.9442,-0.0958065,0.0720403,-0.00642655,0,0,0,4.06,0.0175,-2.8875,-0.1708,0.068198,-1.01833,-0.22694,0.06622,0.39452
-1.22273,0,0,16.2227,16.2227,13.7773,13.7773,0.821245,-1.94037,25.9804,0.0249134,0.0947392,-0.0307365,0,0,0,4.025,0.035,-2.555,-0.049288,0.092476,-1.04249,-0.22694,0.06622,0.39452
-1.09583,0,0,16.0958,16.0958,13.9042,13.9042,0.730528,-1.92377,26.0168,0.0246238,0.093157,-0.0307054,0,0,0,3.85,0.42,-2.2225,-0.049288,0.092476,-1.04249,-0.22694,0.06622,0.39452
-1.16198,0,0,16.162,16.162,13.838,13.838,0.777692,-1.84355,25.9733,0.0595486,-0.0393821,-0.0658334,0,0,0,3.745,0.245,-1.9425,-0.01281,-0.040748,-1.07738,-0.22694,0.06622,0.39452
-1.22537,0,0,16.2254,16.2254,13.7746,13.7746,0.822887,-1.76528,25.9307,0.0581832,-0.0385932,-0.0658014,0,0,0,3.255,0.21,-1.6625,-0.01281,-0.040748,-1.07738,-0.22694,0.06622,0.39452
-1.31463,0,0,16.3146,16.3146,13.6854,13.6854,0.886549,-1.80562,25.9523,-0.0404884,-0.0666714,0.00141289,0,0,0,3.5,0.0525,-1.4,-0.112606,-0.069906,-1.01065,-0.22694,0.06622,0.39452
-1.40233,0,0,16.4023,16.4023,13.5977,13.5977,0.949091,-1.84504,25.9786,-0.0398006,-0.0655808,0.00137351,0,0,0,3.395,0.0175,-0.9275,-0.112606,-0.069906,-1.01065,-0.22498,0.06398,0.39368
-1.63682,0,0,16.6368,16.6368,13.3632,13.3632,1.11646,-1.44722,25.7128,0.291475,-0.113585,0.0663142,0,0,0,3.745,0.0525,-0.5775,0.227042,-0.12078,-0.946354,-0.22498,0.06398,0.39368
-1.86334,0,0,16.8633,16.8633,13.1367,13.1367,1.27812,-1.05773,25.4499,0.284679,-0.110761,0.0664038,0,0,0,2.975,0.1225,-0.455,0.227042,-0.12078,-0.946354,-0.22498,0.06398,0.39368
-1.863,0,0,16.863,16.863,13.137,13.137,1.27774,-1.05768,25.4512,0.0968611,0.0486075,0.14755,1,0,0,3.29,0.175,-0.0875,0.03843,0.03843,-0.865834,-0.22498,0.06398,0.39368
-1.86278,0,0,16.8628,16.8628,13.1372,13.1372,1.27745,-1.05794,25.453,0.0968657,0.0486023,0.14755,1,0,0,3.3425,0,0.1925,0.03843,0.03843,-0.865834,-0.22498,0.06398,0.39368
-1.84481,0,0,16.8448,16.8448,13.1552,13.1552,1.26448,-0.853225,25.3493,0.17068,0.0371418,-0.0289395,0,0,0,3.71,0.14,0.315,0.116144,0.027206,-1.04103,-0.22498,0.06398,0.39368
-1.82606,0,0,16.8261,16.8261,13.1739,13.1739,1.25095,-0.652955,25.2463,0.167185,0.0369067,-0.0288884,0,0,0,3.57,0.0525,0.5075,0.116144,0.027206,-1.04103,-0.22498,0.06398,0.39368
-1.69216,0,0,16.6922,16.6922,13.3078,13.3078,1.15519,-0.674823,25.2986,-0.00822364,0.0976425,-0.0967253,0,0,0,3.1675,0.56,0.8575,-0.06039,0.089548,-1.10837,-0.22498,0.06398,0.39368
-1.55863,0,0,16.5586,16.5586,13.4414,13.4414,1.05969,-0.69642,25.3509,-0.00784674,0.0959761,-0.0966976,0,0,0,2.345,0.2975,1.0325,-0.06039,0.089548,-1.10837,-0.22498,0.06398,0.39368
-1.52188,0,0,16.5219,16.5219,13.4781,13.4781,1.03333,-0.620793,25.3261,0.0661545,0.0339646,-0.0573305,0,0,0,2.8,0.3675,0.8225,0.01525,0.02806,-1.06933,-0.22232,0.0644,0.38962
-1.65211,0,0,16.6521,16.6521,13.3479,13.3479,1.12623,-0.475742,25.2243,0.0954523,-0.066634,0.103111,0,0,0,2.8525,-0.035,0.91,0.047214,-0.074054,-0.91012,-0.22232,0.0644,0.38962
-1.78149,0,0,16.7815,16.7815,13.2185,13.2185,1.21852,-0.333921,25.1234,0.0929771,-0.0650234,0.103096,0,0,0,3.675,0.0525,0.91,0.047214,-0.074054,-0.91012,-0.22232,0.0644,0.38962
-1.64927,0,0,16.6493,16.6493,13.3507,13.3507,1.12395,-0.332701,25.1576,0.0126538,0.0950224,-0.0267042,0,0,0,3.3775,-0.105,0.735,-0.033428,0.087474,-1.03895,-0.22232,0.0644,0.38962
-1.52078,0,0,16.5208,16.5208,13.4792,13.4792,1.03206,-0.330833,25.1904,0.0126212,0.0934189,-0.0266739,0,0,0,3.9375,0.14,0.0875,-0.033428,0.087474,-1.03895,-0.22232,0.0644,0.38962
-1.58763,0,0,16.5876,16.5876,13.4124,13.4124,1.0797,-0.325836,25.1815,-0.000950951,-0.0415549,0.0705636,0,0,0,3.57,0.0175,-0.0875,-0.04697,-0.04819,-0.94245,-0.22232,0.0644,0.38962
-1.65135,0,0,16.6514,16.6514,13.3486,13.3486,1.12509,-0.32067,25.1718,-0.00104112,-0.0407627,0.0705488,0,0,0,2.8,0.245,-0.63,-0.04697,-0.04819,-0.94245,-0.22232,0.0644,0.38962
