pid_x,pid_y,pid_z,front_left_speed,front_right_speed,back_left_speed,back_right_speed,orientation_x,orientation_y,orientation_z,acceleration_x,acceleration_y,acceleration_z,accel_rejected,mag_rejected,gyro_x,gyro_y,gyro_z,accel_x,accel_y,accel_z,mag_x,mag_y,mag_z
-0.319003,0,0,5.319,5.319,5,5,0.476123,-0.0514013,-0.224825,0.0297331,-0.415171,0.0735502,0,0,3.4825,-0.035,-0.175,-0.011346,-0.410896,-0.939644,-0.05796,0.24626,0.34188
-0.635931,0,0,5.63593,5.63593,5,5,0.949151,-0.0909107,-0.456068,0.0377118,-0.408259,0.0841431,0,0,3.36,0,-0.14,-0.004026,-0.412238,-0.92903,-0.05796,0.24626,0.34188
-0.947433,0,0,5.94743,5.94743,5,5,1.41408,-0.127436,-0.685887,0.0383493,-0.400146,0.0839746,0,0,3.57,-0.035,-0.1575,-0.004026,-0.412238,-0.92903,-0.05796,0.24626,0.34188
-1.25298,0,0,6.25298,6.25298,5,5,1.87012,-0.163032,-0.912271,0.0371483,-0.392312,0.0825155,0,0,3.5525,0.14,-0.2275,-0.005856,-0.41236,-0.93025,-0.05796,0.24626,0.34188
-1.55352,0,0,6.55352,6.55352,5,5,2.31868,-0.198456,-1.13517,0.0357013,-0.381924,0.0888666,0,0,3.7275,0,-0.28,-0.00793,-0.409798,-0.923662,-0.05796,0.24626,0.34188
-1.84852,0,0,6.84852,6.84852,5,5,2.75898,-0.23153,-1.35731,0.0362785,-0.374247,0.088524,0,0,3.6925,0.035,-0.28,-0.00793,-0.409798,-0.923662,-0.05516,0.24822,0.35168
-2.1356,0,0,7.1356,7.1356,5,5,3.18747,-0.266458,-1.57393,0.0331221,-0.366779,0.0790353,0,0,3.815,-0.0175,-0.2975,-0.011712,-0.409798,-0.93269,-0.05516,0.24822,0.35168
-2.41769,0,0,7.41769,7.41769,5,5,3.60849,-0.293854,-1.79288,0.0371233,-0.358711,0.0817941,0,0,3.7275,0.105,-0.2975,-0.008174,-0.409066,-0.929518,-0.05516,0.24822,0.35168
-2.69416,0,0,7.69416,7.69416,5,5,4.02113,-0.316518,-2.01188,0.0393411,-0.353601,0.076272,0,0,3.5875,0.1225,-0.245,-0.006344,-0.41114,-0.93452,-0.05516,0.24822,0.35168
-2.96805,0,0,7.96805,7.96805,5,5,4.42992,-0.337693,-2.22895,0.0398322,-0.349051,0.0791867,0,0,3.5,-0.105,-0.1925,-0.006222,-0.413702,-0.931104,-0.05516,0.24822,0.35168
-3.237,0,0,8.237,8.237,5,5,4.83135,-0.356938,-2.44426,0.0401681,-0.342068,0.0786191,0,0,3.6225,-0.315,-0.14,-0.006222,-0.413702,-0.931104,-0.05516,0.24822,0.35168
-3.4985,0,0,8.4985,8.4985,5,5,5.22164,-0.374915,-2.65684,0.039267,-0.332352,0.0767908,0,0,3.5,-0.28,-0.14,-0.007442,-0.410774,-0.932324,-0.05516,0.24822,0.35168
-3.75513,0,0,8.75513,8.75513,5,5,5.60467,-0.391263,-2.86873,0.0395523,-0.325697,0.0761582,0,0,3.5,-0.28,-0.14,-0.007442,-0.410774,-0.932324,-0.0518,0.2478,0.35042
-4.00937,0,0,9.00937,9.00937,5,5,5.98414,-0.404529,-3.08004,0.0407557,-0.320696,0.0801601,0,0,3.535,-0.175,-0.3675,-0.006466,-0.41236,-0.927688,-0.0518,0.2478,0.35042
-4.25651,0,0,9.25651,9.25651,5,5,6.353,-0.415554,-3.28991,0.0409481,-0.311853,0.0771309,0,0,3.57,-0.35,-0.385,-0.006466,-0.40992,-0.930006,-0.0518,0.2478,0.35042
-4.49535,0,0,9.49535,9.49535,5,5,6.70948,-0.428667,-3.49482,0.0380184,-0.304695,0.0665857,0,0,3.5175,-0.5075,-0.3325,-0.009638,-0.408944,-0.939766,-0.0518,0.2478,0.35042
-4.72971,0,0,9.72971,9.72971,5,5,7.05927,-0.439934,-3.69805,0.038215,-0.298634,0.0658524,0,0,3.5175,-0.5075,-0.3325,-0.009638,-0.408944,-0.939766,-0.0518,0.2478,0.35042
-4.9665,0,0,9.9665,9.9665,5,5,7.41269,-0.443318,-3.90377,0.043255,-0.295813,0.0808125,0,0,3.6225,-0.14,-0.175,-0.004636,-0.412238,-0.92415,-0.0518,0.2478,0.35042
-5.20109,0,0,10.2011,10.2011,5,5,7.76281,-0.444443,-4.10831,0.0442465,-0.293053,0.0816038,0,0,3.3425,-0.1225,-0.2275,-0.00366,-0.415532,-0.922564,-0.0518,0.2478,0.35042
-5.43134,0,0,10.4313,10.4313,5,5,8.10647,-0.443019,-4.3089,0.0442217,-0.287112,0.080776,0,0,3.5,0.035,-0.2975,-0.00366,-0.415532,-0.922564,-0.0532,0.24584,0.34468
-5.65269,0,0,10.6527,10.6527,5,5,8.43684,-0.442465,-4.50581,0.0420252,-0.278109,0.0724467,0,0,3.4825,-0.0525,-0.28,-0.005856,-0.412238,-0.930006,-0.0532,0.24584,0.34468
-5.86966,0,0,10.8697,10.8697,5,5,8.76068,-0.441897,-4.69991,0.0409219,-0.272032,0.0716018,0,0,3.64,-0.0175,-0.3675,-0.006954,-0.41175,-0.930006,-0.0532,0.24584,0.34468
-6.08271,0,0,11.0827,11.0827,5,5,9.07867,-0.439413,-4.89279,0.041486,-0.267038,0.0704957,0,0,3.675,-0.1225,-0.3675,-0.006344,-0.412238,-0.93025,-0.0532,0.24584,0.34468
-6.29171,0,0,11.2917,11.2917,5,5,9.39061,-0.43577,-5.08364,0.0414225,-0.261664,0.0696225,0,0,3.71,-0.1575,-0.245,-0.006344,-0.412238,-0.93025,-0.0532,0.24584,0.34468
-6.49713,0,0,11.4971,11.4971,5,5,9.69721,-0.432859,-5.27139,0.0400353,-0.256509,0.0700881,0,0,3.675,-0.1575,-0.3675,-0.007686,-0.41236,-0.928908,-0.0532,0.24584,0.34468
-6.6986,0,0,11.6986,11.6986,5,5,9.99792,-0.428528,-5.45712,0.0399597,-0.251338,0.0691911,0,0,3.6925,0,-0.2625,-0.007686,-0.41236,-0.928908,-0.0532,0.24584,0.34468
-6.89679,0,0,11.8968,11.8968,5,5,10.2937,-0.421278,-5.63991,0.0409266,-0.246623,0.0695121,0,0,3.7975,-0.0875,-0.1225,-0.006588,-0.412726,-0.927688,-0.0553,0.2464,0.34986
-7.08956,0,0,12.0896,12.0896,5,5,10.5814,-0.415591,-5.81936,0.038762,-0.23973,0.0671277,0,0,3.9375,-0.1575,-0.315,-0.008662,-0.410774,-0.929152,-0.0553,0.2464,0.34986
-7.27795,0,0,12.278,12.278,5,5,10.8626,-0.409285,-5.99659,0.038166,-0.234542,0.0658466,0,0,3.7275,-0.035,-0.35,-0.00915,-0.410408,-0.929518,-0.0553,0.2464,0.34986
-7.46514,0,0,12.4651,12.4651,5,5,11.142,-0.401693,-6.17234,0.0390054,-0.233419,0.0654088,0,0,3.64,-0.21,-0.1925,-0.008174,-0.414068,-0.92903,-0.0553,0.2464,0.34986
-7.64871,0,0,12.6487,12.6487,5,5,11.416,-0.393176,-6.34636,0.0388568,-0.22873,0.0644745,0,0,3.64,-0.21,-0.1925,-0.008174,-0.414068,-0.92903,-0.0553,0.2464,0.34986
-7.82786,0,0,12.8279,12.8279,5,5,11.6834,-0.381641,-6.51997,0.0397488,-0.221348,0.0674759,0,0,3.57,-0.105,-0.1925,-0.007076,-0.411262,-0.925126,-0.0553,0.2464,0.34986
-8.00353,0,0,13.0035,13.0035,5,5,11.9456,-0.369341,-6.69184,0.0395342,-0.216869,0.0665403,0,0,3.57,-0.105,-0.1925,-0.007076,-0.411262,-0.925126,-0.0553,0.2464,0.34986
-8.17931,0,0,13.1793,13.1793,5,5,12.2079,-0.400053,-6.83069,0.0106706,-0.225948,0.0451693,0,0,3.57,-0.1225,-0.1225,-0.0366,-0.424804,-0.945378,-0.0553,0.2464,0.34986
-8.31877,0,0,13.3188,13.3188,5,5,12.4161,-0.387708,-7.00084,0.0323226,-0.161457,0.0756251,0,0,3.78,-0.0175,-0.1575,-0.01464,-0.363926,-0.91439,-0.05264,0.2464,0.34678
-8.52255,0,0,13.5226,13.5226,5,5,12.7202,-0.66535,-6.9599,-0.151135,-0.243973,0.0883197,0,0,3.4475,-0.0175,-0.07,-0.20374,-0.451522,-0.900604,-0.05264,0.2464,0.34678
-8.72208,0,0,13.7221,13.7221,5,5,13.018,-0.934614,-6.9217,-0.146436,-0.238921,0.0870982,0,0,3.36,-0.0525,-0.315,-0.20374,-0.451522,-0.900604,-0.05264,0.2464,0.34678
-8.89177,0,0,13.8918,13.8918,5,5,13.2713,-1.16597,-6.90709,-0.128549,-0.210575,0.0558987,0,0,3.29,0.0175,-0.35,-0.189832,-0.427488,-0.930494,-0.05264,0.2464,0.34678
-9.05812,0,0,14.0581,14.0581,5,5,13.5196,-1.38996,-6.89398,-0.124641,-0.206381,0.0548102,0,0,3.395,0.2275,-0.4375,-0.189832,-0.427488,-0.930494,-0.05264,0.2464,0.34678
-9.24356,0,0,14.2436,14.2436,5,5,13.7964,-0.758386,-7.45913,0.43277,-0.200662,0.222925,0,0,3.36,0.49,-0.3325,0.381006,-0.426512,-0.762744,-0.05264,0.2464,0.34678
-9.42556,0,0,14.4256,14.4256,5,5,14.068,-0.141878,-8.01379,0.42201,-0.19604,0.221865,0,0,3.5,0.0525,-0.14,0.381006,-0.426512,-0.762744,-0.05264,0.2464,0.34678
-9.4601,0,0,14.4601,14.4601,5,5,14.1196,-0.334847,-8.03106,-0.11086,-0.0139348,0.0910614,0,0,3.29,-0.0875,-0.2275,-0.157502,-0.245464,-0.892308,-0.05264,0.2464,0.34678
-9.4949,0,0,14.4949,14.4949,5,5,14.1715,-0.52353,-8.07161,-0.107567,-0.0130617,0.0908159,0,0,4.165,-0.665,-0.2275,-0.157502,-0.245464,-0.892308,-0.04956,0.25774,0.34986
-9.56534,0,0,14.5653,14.5653,5,5,14.2766,-0.210645,-8.45178,0.209274,-0.0719716,0.0994972,0,0,4.13,-0.3325,-0.3325,0.166164,-0.306098,-0.88328,-0.04956,0.25774,0.34986
-9.63461,0,0,14.6346,14.6346,5,5,14.38,0.0942893,-8.82795,0.203952,-0.070222,0.0990559,0,0,4.3575,-0.4725,-0.455,0.166164,-0.306098,-0.88328,-0.04956,0.25774,0.34986
-9.7944,0,0,14.7944,14.7944,5,5,14.6185,0.221757,-9.08228,0.10624,-0.157178,0.15149,0,0,4.2525,-0.385,-0.5075,0.070272,-0.396988,-0.83021,-0.04956,0.25774,0.34986
-9.94987,0,0,14.9499,14.9499,5,5,14.8506,0.347309,-9.33353,0.104048,-0.153264,0.15045,0,0,3.22,-0.1925,-0.7,0.070272,-0.396988,-0.83021,-0.04956,0.25774,0.34986
-9.98597,0,0,14.986,14.986,5,5,14.9044,0.517686,-9.61902,0.101439,-0.00617519,0.15449,0,0,3.0975,-0.105,-0.5075,0.070638,-0.250954,-0.82594,-0.04956,0.25774,0.34986
-9.98541,0,0,14.9854,14.9854,5,5,14.9036,0.518319,-9.61885,0.101428,-0.0061894,0.154493,1,0,3.115,0.315,-0.245,0.070638,-0.250954,-0.82594,-0.04956,0.25774,0.34986
-10.0504,0,0,15.0504,15.0504,5,5,15.0006,0.807429,-9.97864,0.209486,-0.0954313,0.0221996,0,0,3.045,0.805,0,0.18422,-0.341722,-0.956724,-0.04956,0.25774,0.34986
-10.1149,0,0,15.1149,15.1149,5,5,15.0969,1.08925,-10.3301,0.204568,-0.0938298,0.0216847,0,0,3.8675,-0.1925,-0.21,0.18422,-0.341722,-0.956724,-0.05404,0.25956,0.36344
-10.3031,0,0,15.3031,15.3031,5,5,15.3778,0.825429,-10.3096,-0.143501,-0.249799,0.0231755,0,0,3.4825,-0.5425,-0.2625,-0.169946,-0.502274,-0.95404,-0.05404,0.25956,0.36344
-10.4881,0,0,15.4881,15.4881,5,5,15.6539,0.570128,-10.2908,-0.139046,-0.245141,0.0219388,0,0,4.1825,-0.35,-0.1575,-0.169946,-0.502274,-0.95404,-0.05404,0.25956,0.36344
-10.6095,0,0,15.6095,15.6095,5,5,15.8351,0.845747,-10.6208,0.188772,-0.121941,0.138931,0,0,3.885,0.21,0.0175,0.16409,-0.382226,-0.837042,-0.05404,0.25956,0.36344
-10.7281,0,0,15.7281,15.7281,5,5,16.0121,1.11422,-10.9464,0.184087,-0.118993,0.138007,0,0,3.4475,-0.14,-0.035,0.16409,-0.382226,-0.837042,-0.05404,0.25956,0.36344
-10.8027,0,0,15.8027,15.8027,5,5,16.1234,1.22278,-11.1738,0.0732198,-0.050577,0.143456,0,0,3.4475,0.21,-0.1225,0.054656,-0.315736,-0.831064,-0.05404,0.25956,0.36344
-10.8017,0,0,15.8017,15.8017,5,5,16.1219,1.22314,-11.1725,0.0732135,-0.0506033,0.143464,1,0,2.695,0.3325,0.385,0.054656,-0.315736,-0.831064,-0.05404,0.25956,0.36344
-10.8009,0,0,15.8009,15.8009,5,5,16.1208,1.22285,-11.1715,0.190574,-0.205966,-0.00517591,1,0,2.975,-0.07,0.3675,0.172508,-0.47092,-0.978562,-0.05026,0.26754,0.3759
-10.7987,0,0,15.7987,15.7987,5,5,16.1175,0.783032,-11.0494,-0.286358,0.0324072,0.0394764,0,0,2.6775,-0.42,0.28,-0.31415,-0.232776,-0.934398,-0.05026,0.26754,0.3759
-10.7966,0,0,15.7966,15.7966,5,5,16.1143,0.355209,-10.9276,-0.278891,0.0323738,0.0395633,0,0,3.0975,0.21,0.28,-0.31415,-0.232776,-0.934398,-0.05026,0.26754,0.3759
-10.83,0,0,15.83,15.83,5,5,16.1641,0.451725,-11.1496,0.0736768,-0.0605876,-0.0299098,0,0,3.1325,0.455,0.5425,0.041602,-0.326472,-1.00308,-0.05026,0.26754,0.3759
-10.8627,0,0,15.8627,15.8627,5,5,16.2129,0.546171,-11.3694,0.0720284,-0.0597735,-0.0301611,0,0,3.0975,0.6475,0.56,0.041602,-0.326472,-1.00308,-0.05026,0.26754,0.3759
-10.862,0,0,15.862,15.862,5,5,16.2119,0.546454,-11.3675,-0.0162966,-0.215258,0.316559,1,0,2.9925,0.385,0.7175,-0.047092,-0.481778,-0.659044,-0.05026,0.26754,0.3759
-10.8632,0,0,15.8632,15.8632,5,5,16.2137,0.545742,-11.3663,-0.0162842,-0.215227,0.31655,1,0,4.62,-0.2625,0.5775,-0.047092,-0.481778,-0.659044,-0.05026,0.26754,0.3759
-10.8646,0,0,15.8646,15.8646,5,5,16.2158,0.544736,-11.3651,0.210426,0.0399297,0.122773,1,0,4.725,-0.4375,0.595,0.18056,-0.22692,-0.851316,-0.05026,0.26754,0.3759
-10.8658,0,0,15.8658,15.8658,5,5,16.2177,0.544029,-11.3647,0.210438,0.0399612,0.122764,1,0,4.6375,-0.4025,0.0875,0.18056,-0.22692,-0.851316,-0.04676,0.26894,0.38136
-11.0044,0,0,16.0044,16.0044,5,5,16.4245,0.95555,-11.7809,0.29267,-0.156523,0.142684,0,0,4.4975,-0.49,-0.035,0.270352,-0.426634,-0.830454,-0.04676,0.26894,0.38136
-11.1393,0,0,16.1393,16.1393,5,5,16.6259,1.35742,-12.1912,0.285657,-0.153194,0.141549,0,0,3.605,-0.5425,-0.42,0.270352,-0.426634,-0.830454,-0.04676,0.26894,0.38136
-11.1392,0,0,16.1392,16.1392,5,5,16.6256,1.35651,-12.1916,-0.378732,0.0528295,-0.123281,1,0,3.4475,-0.6475,-0.315,-0.396866,-0.22082,-1.09324,-0.04676,0.26894,0.38136
-11.1394,0,0,16.1394,16.1394,5,5,16.626,1.35515,-12.1935,-0.378708,0.0528357,-0.123282,1,0,3.815,-1.155,-1.1025,-0.396866,-0.22082,-1.09324,-0.04676,0.26894,0.38136
-11.1398,0,0,16.1398,16.1398,5,5,16.6265,1.35447,-12.1961,0.0467464,-0.00516552,-0.162013,1,0,3.92,-0.8925,-1.5925,0.030378,-0.27877,-1.13167,-0.04676,0.26894,0.38136
-11.1391,0,0,16.1391,16.1391,5,5,16.6255,1.35722,-12.1977,0.0466983,-0.00518319,-0.162009,1,0,3.0275,1.2075,-1.61,0.030378,-0.27877,-1.13167,-0.04676,0.26894,0.38136
-11.3393,0,0,16.3393,16.3393,5,5,16.9243,1.26776,-12.2847,-0.0174645,-0.222451,0.116966,0,0,3.115,0.9625,-1.505,-0.035624,-0.50081,-0.85339,-0.04676,0.26894,0.38136
-11.5352,0,0,16.5352,16.5352,5,5,17.2167,1.18196,-12.3667,-0.0159672,-0.217564,0.115498,0,0,3.0975,0.1925,-1.5575,-0.035624,-0.50081,-0.85339,-0.04928,0.2667,0.38066
-11.5344,0,0,16.5344,16.5344,5,5,17.2155,1.18278,-12.3684,0.125428,0.0692916,0.187429,1,0,2.9225,0.105,-1.3125,0.106384,-0.214232,-0.78202,-0.04928,0.2667,0.38066
-11.5336,0,0,16.5336,16.5336,5,5,17.2143,1.18361,-12.37,0.125413,0.0692712,0.187435,1,0,2.9225,0.105,-1.3125,0.106384,-0.214232,-0.78202,-0.04928,0.2667,0.38066
-11.5341,0,0,16.5341,16.5341,5,5,17.2151,1.18402,-12.3701,-0.034469,-0.0701841,0.147596,1,0,4.0425,0.14,-0.385,-0.054168,-0.353556,-0.821548,-0.04928,0.2667,0.38066
-11.5347,0,0,16.5347,16.5347,5,5,17.2159,1.18443,-12.3702,-0.0344762,-0.0701707,0.147591,1,0,4.0425,0.14,-0.385,-0.054168,-0.353556,-0.821548,-0.04928,0.2667,0.38066
-11.5644,0,0,16.5644,16.5644,5,5,17.2603,1.66849,-12.8287,0.339879,-0.0567927,0.0398271,0,0,4.34,-1.0325,-0.105,0.330254,-0.340868,-0.928054,-0.04928,0.2667,0.38066
-11.5935,0,0,16.5935,16.5935,5,5,17.3037,2.14018,-13.2819,0.331651,-0.0561506,0.0393408,0,0,4.34,-1.0325,-0.105,0.330254,-0.340868,-0.928054,-0.04928,0.2667,0.38066
-11.7235,0,0,16.7235,16.7235,5,5,17.4978,2.01076,-13.3446,-0.0586115,-0.175999,0.00250534,0,0,3.22,0.665,-0.4375,-0.063928,-0.463844,-0.963678,-0.04928,0.2667,0.38066
-11.8511,0,0,16.8511,16.8511,5,5,17.6882,1.88424,-13.4191,-0.0564047,-0.172811,0.00157333,0,0,3.22,0.665,-0.4375,-0.063928,-0.463844,-0.963678,-0.04718,0.27216,0.37912
-11.9855,0,0,16.9855,16.9855,5,5,17.8887,1.38174,-13.2442,-0.305674,-0.133009,0.0708229,0,0,2.8525,-0.77,0.805,-0.323056,-0.427488,-0.894138,-0.04718,0.27216,0.37912
-12.1163,0,0,17.1163,17.1163,5,5,18.084,0.892747,-13.0729,-0.297141,-0.129716,0.0699317,0,0,2.8525,-0.77,0.805,-0.323056,-0.427488,-0.894138,-0.04718,0.27216,0.37912
-12.1163,0,0,17.1163,17.1163,5,5,18.084,0.891779,-13.0712,-0.248651,-0.501592,-0.112155,1,0,3.5525,-0.2975,0.875,-0.274378,-0.798978,-1.07482,-0.04718,0.27216,0.37912
-11.8563,0,0,16.8563,16.8563,5,5,17.6959,1.60884,-13.6878,0.419035,0.321487,0.0413841,0,0,3.185,0.0525,1.085,0.4087,0.029768,-0.924272,-0.04718,0.27216,0.37912
-11.6004,0,0,16.6004,16.6004,5,5,17.3141,2.30685,-14.3085,0.40686,0.31501,0.0429906,0,0,3.885,-0.875,0.7,0.4087,0.029768,-0.924272,-0.04718,0.27216,0.37912
-11.6025,0,0,16.6025,16.6025,5,5,17.3171,2.66086,-14.6993,0.253325,-0.0319815,-0.0177715,0,0,3.92,-0.35,0.7175,0.260714,-0.316834,-0.984296,-0.04718,0.27216,0.37912
-11.6041,0,0,16.6041,16.6041,5,5,17.3195,3.00708,-15.0866,0.24729,-0.0320301,-0.0180693,0,0,3.57,0.42,0.1575,0.260714,-0.316834,-0.984296,-0.04718,0.27216,0.37912
-11.6218,0,0,16.6218,16.6218,5,5,17.346,3.11575,-15.3277,0.0697274,-0.010614,0.0597689,0,0,3.4475,0.315,-0.105,0.084302,-0.29585,-0.906826,-0.04718,0.27216,0.37912
-11.6394,0,0,16.6394,16.6394,5,5,17.3722,3.22024,-15.5717,0.0679065,-0.0102082,0.0595364,0,0,3.4825,-0.35,-0.56,0.084302,-0.29585,-0.906826,-0.04466,0.2765,0.3934
-11.8512,0,0,16.8512,16.8512,5,5,17.6883,3.1385,-15.6547,-0.00599012,-0.220974,0.138484,0,0,3.955,-0.0875,-0.56,0.008662,-0.511668,-0.826916,-0.04466,0.2765,0.3934
-12.0582,0,0,17.0582,17.0582,5,5,17.9973,3.06118,-15.7369,-0.00464265,-0.215826,0.136904,0,0,3.605,0.35,-0.2625,0.008662,-0.511668,-0.826916,-0.04466,0.2765,0.3934
-12.0574,0,0,17.0574,17.0574,5,5,17.9962,3.06208,-15.7363,0.370732,0.0423309,0.272152,1,0,2.94,0.5425,-0.07,0.385642,-0.25376,-0.692716,-0.04466,0.2765,0.3934
-12.057,0,0,17.057,17.057,5,5,17.9955,3.06216,-15.737,0.370731,0.0423204,0.272156,1,0,3.255,-0.1575,-0.665,0.385642,-0.25376,-0.692716,-0.04466,0.2765,0.3934
-12.042,0,0,17.042,17.042,5,5,17.9731,3.48538,-16.1701,0.286578,-0.00239111,0.0274532,0,0,3.045,-0.1925,-0.2975,0.308538,-0.297924,-0.935252,-0.04466,0.2765,0.3934
-12.027,0,0,17.027,17.027,5,5,17.9507,3.89741,-16.5985,0.279401,-0.00290473,0.027133,0,0,2.7475,-0.0875,0,0.308538,-0.297924,-0.935252,-0.04466,0.2765,0.3934
-12.0267,0,0,17.0267,17.0267,5,5,17.9502,3.89676,-16.5988,-0.148339,-0.19514,-0.0761403,1,0,3.325,-0.49,-0.315,-0.121024,-0.489952,-1.03773,-0.04466,0.2765,0.3934
-12.0274,0,0,17.0274,17.0274,5,5,17.9513,3.89625,-16.6007,-0.14833,-0.195122,-0.0761454,1,0,4.2525,-0.7,-1.2075,-0.121024,-0.489952,-1.03773,-0.04634,0.26852,0.39186
-12.1551,0,0,17.1551,17.1551,5,5,18.142,4.50712,-17.0925,0.394526,-0.114659,0.262036,0,0,4.2,-0.1925,-0.8575,0.434808,-0.412482,-0.700402,-0.04634,0.26852,0.39186
-12.281,0,0,17.281,17.281,5,5,18.3298,5.10378,-17.5752,0.384149,-0.111828,0.260185,0,0,4.2,-0.1925,-0.8575,0.434808,-0.412482,-0.700402,-0.04634,0.26852,0.39186
-12.2923,0,0,17.2923,17.2923,5,5,18.3467,5.25644,-17.84,0.0876217,0.00854682,0.0984334,0,0,4.0075,-0.5425,-1.1725,0.13969,-0.292434,-0.860588,-0.04634,0.26852,0.39186
-12.3035,0,0,17.3035,17.3035,5,5,18.3634,5.40512,-18.1022,0.0850379,0.00874654,0.0981132,0,0,4.0075,-0.5425,-1.1725,0.13969,-0.292434,-0.860588,-0.04634,0.26852,0.39186
-12.3038,0,0,17.3038,17.3038,5,5,18.3639,5.40538,-18.1026,0.468321,-0.0177475,-0.115697,1,0,3.8675,0,-0.5075,0.5246,-0.318908,-1.07275,-0.04634,0.26852,0.39186
-12.3041,0,0,17.3041,17.3041,5,5,18.3643,5.40563,-18.103,0.468317,-0.01774,-0.1157,1,0,3.8675,0,-0.5075,0.5246,-0.318908,-1.07275,-0.04634,0.26852,0.39186
-12.3045,0,0,17.3045,17.3045,5,5,18.365,5.40588,-18.1026,-0.0661034,-0.110302,-0.153695,1,0,3.92,0.14,-0.0875,-0.012078,-0.411384,-1.11044,-0.04634,0.26852,0.39186
-12.3049,0,0,17.3049,17.3049,5,5,18.3656,5.40613,-18.1022,-0.0661078,-0.110292,-0.153699,1,0,3.92,0.14,-0.0875,-0.012078,-0.411384,-1.11044,-0.04536,0.2702,0.38612
-12.3048,0,0,17.3048,17.3048,5,5,18.3653,5.40495,-18.1019,0.0900219,-0.2174,-0.189105,1,0,3.43,-0.665,0.1575,0.144692,-0.518378,-1.14558,-0.04536,0.2702,0.38612
-12.4594,0,0,17.4594,17.4594,5,5,18.5962,5.31184,-18.179,-0.0215849,-0.178986,0.0589842,0,0,3.9025,-0.56,0.0875,0.030988,-0.483852,-0.898286,-0.04536,0.2702,0.38612
-12.6105,0,0,17.6105,17.6105,5,5,18.8216,5.22196,-18.2566,-0.0200228,-0.175229,0.057864,0,0,3.71,-0.9625,-0.1225,0.030988,-0.483852,-0.898286,-0.04536,0.2702,0.38612
-12.6111,0,0,17.6111,17.6111,5,5,18.8226,5.22014,-18.2568,-0.338041,-0.452683,0.0935161,1,0,4.165,-1.12,-0.0175,-0.288408,-0.761036,-0.862906,-0.04536,0.2702,0.38612
-12.6122,0,0,17.6122,17.6122,5,5,18.8241,5.21919,-18.256,-0.338024,-0.452658,0.0935089,1,0,4.41,-0.4375,0.385,-0.288408,-0.761036,-0.862906,-0.04536,0.2702,0.38612
-12.6131,0,0,17.6131,17.6131,5,5,18.8255,5.21916,-18.2555,0.0883912,-0.1704,-0.0536682,1,0,4.34,0,0.0175,0.139812,-0.479094,-1.00894,-0.04536,0.2702,0.38612
-12.6135,0,0,17.6135,17.6135,5,5,18.8262,5.22033,-18.2544,0.0883709,-0.17039,-0.0536735,1,0,3.885,0.7875,0.14,0.139812,-0.479094,-1.00894,-0.04536,0.2702,0.38612
-12.6106,0,0,17.6106,17.6106,5,5,18.8218,4.8961,-18.2422,-0.21408,0.0452525,0.0476411,0,0,4.4625,0.385,0.455,-0.16958,-0.263764,-0.9089,-0.03682,0.27538,0.38122
-12.6114,0,0,17.6114,17.6114,5,5,18.823,4.89652,-18.2411,0.326888,-0.41136,-0.156707,1,0,4.2175,0.3675,0.2625,0.373686,-0.719922,-1.11166,-0.03682,0.27538,0.38122
-12.6126,0,0,17.6126,17.6126,5,5,18.8247,4.89597,-18.2407,0.326898,-0.411331,-0.156716,1,0,4.5325,-0.2975,0.0875,0.373686,-0.719922,-1.11166,-0.03682,0.27538,0.38122
-12.6133,0,0,17.6133,17.6133,5,5,18.8259,4.89585,-18.2402,0.300052,0.115543,0.391137,1,0,4.2175,-0.0525,0.0175,0.346724,-0.193614,-0.568032,-0.03682,0.27538,0.38122
-12.6136,0,0,17.6136,17.6136,5,5,18.8262,4.89503,-18.2404,0.300066,0.115549,0.391136,1,0,3.7975,-0.5425,-0.1575,0.346724,-0.193614,-0.568032,-0.03682,0.27538,0.38122
-12.6679,0,0,17.6679,17.6679,5,5,18.9073,4.48609,-18.1562,-0.280082,-0.0640408,-0.0585139,0,0,3.535,-0.63,-0.0875,-0.243024,-0.37454,-1.01431,-0.03682,0.27538,0.38122
-12.7203,0,0,17.7203,17.7203,5,5,18.9856,4.08811,-18.0736,-0.273156,-0.0625844,-0.0584649,0,0,3.465,-0.455,-0.35,-0.243024,-0.37454,-1.01431,-0.03682,0.27538,0.38122
-12.7204,0,0,17.7204,17.7204,5,5,18.9856,4.08833,-18.0735,0.0588608,-0.588462,-0.253953,1,0,3.605,0.07,-0.2275,0.090402,-0.899872,-1.20829,-0.03682,0.27538,0.38122
-12.7215,0,0,17.7215,17.7215,5,5,18.9874,4.08977,-18.0729,0.0588356,-0.588433,-0.253965,1,0,4.55,0.84,-0.21,0.090402,-0.899872,-1.20829,-0.04116,0.27426,0.3913
-12.723,0,0,17.723,17.723,5,5,18.9896,4.09082,-18.0722,0.105589,-0.383957,-0.156358,1,0,4.795,0.6475,-0.0525,0.137372,-0.695644,-1.11142,-0.04116,0.27426,0.3913
-12.7243,0,0,17.7243,17.7243,5,5,18.9914,4.09207,-18.0724,0.105568,-0.383927,-0.15637,1,0,4.6375,0.5775,-0.6125,0.137372,-0.695644,-1.11142,-0.04116,0.27426,0.3913
-12.9141,0,0,17.9141,17.9141,5,5,19.2747,4.25889,-18.2777,0.161827,-0.233763,0.112055,0,0,4.83,0.525,-0.14,0.196786,-0.55022,-0.843264,-0.04116,0.27426,0.3913
-13.099,0,0,18.099,18.099,5,5,19.5508,4.42195,-18.481,0.15899,-0.229304,0.110255,0,0,3.6925,-0.2275,-0.665,0.196786,-0.55022,-0.843264,-0.04116,0.27426,0.3913
-13.0991,0,0,18.0991,18.0991,5,5,19.5509,4.42203,-18.481,0.392362,0.191426,0.277095,1,0,3.6925,-0.035,-0.28,0.431148,-0.12993,-0.67771,-0.04116,0.27426,0.3913
-13.0995,0,0,18.0995,18.0995,5,5,19.5516,4.42067,-18.4824,0.392386,0.191437,0.277093,1,0,3.99,-1.085,-0.735,0.431148,-0.12993,-0.67771,-0.04116,0.27426,0.3913
-13.3065,0,0,18.3065,18.3065,5,5,19.8605,3.55636,-18.0476,-0.552789,-0.153284,0.172376,0,0,4.3925,-1.2425,-0.6125,-0.53314,-0.479704,-0.7808,-0.04116,0.27426,0.3913
-13.5079,0,0,18.5079,18.5079,5,5,20.161,2.7093,-17.6284,-0.538027,-0.148086,0.171343,0,0,4.3575,-0.5775,-0.63,-0.53314,-0.479704,-0.7808,-0.04382,0.28,0.39396
-13.5086,0,0,18.5086,18.5086,5,5,20.1621,2.70839,-17.6298,-0.138445,-0.0723488,-0.163329,1,0,4.2525,-0.84,-0.805,-0.131882,-0.404064,-1.11288,-0.04382,0.28,0.39396
-13.5086,0,0,18.5086,18.5086,5,5,20.1621,2.70897,-17.6301,-0.138455,-0.0723492,-0.16333,1,0,3.5875,0.175,-0.56,-0.131882,-0.404064,-1.11288,-0.04382,0.28,0.39396
-13.509,0,0,18.509,18.509,5,5,20.1627,2.70963,-17.6305,0.295967,-0.323187,-0.0757946,1,0,3.955,0.21,-0.6125,0.30439,-0.654652,-1.02602,-0.04382,0.28,0.39396
-13.51,0,0,18.51,18.51,5,5,20.1642,2.70994,-17.631,0.295961,-0.323163,-0.0758039,1,0,4.445,0.0175,-0.5425,0.30439,-0.654652,-1.02602,-0.04382,0.28,0.39396
-13.5252,0,0,18.5252,18.5252,5,5,20.1869,3.00767,-17.9451,0.200872,-0.0298992,0.0398799,0,0,4.48,-0.2275,-0.5775,0.21411,-0.361974,-0.910852,-0.04382,0.28,0.39396
-13.5412,0,0,18.5412,18.5412,5,5,20.2107,3.29722,-18.2556,0.195826,-0.0296061,0.039476,0,0,5.1625,-0.385,-0.4375,0.21411,-0.361974,-0.910852,-0.04382,0.28,0.39396
-13.6277,0,0,18.6277,18.6277,5,5,20.3399,2.78178,-18.0716,-0.333615,-0.0638446,0.0295532,0,0,4.935,-0.7175,-0.56,-0.326594,-0.398452,-0.920368,-0.04382,0.28,0.39396
-13.7111,0,0,18.7111,18.7111,5,5,20.4644,2.27825,-17.8783,-0.324835,-0.0616751,0.0291602,0,0,4.5325,-0.98,-0.5425,-0.326594,-0.398452,-0.920368,-0.0455,0.2702,0.37968
-13.7115,0,0,18.7115,18.7115,5,5,20.465,2.27773,-17.8791,-0.0850137,-0.0713128,0.434887,1,0,3.955,-0.5075,-0.56,-0.085766,-0.40809,-0.517768,-0.0455,0.2702,0.37968
-13.7124,0,0,18.7124,18.7124,5,5,20.4662,2.27749,-17.8793,-0.0850095,-0.071293,0.43488,1,0,4.27,-0.245,-0.315,-0.085766,-0.40809,-0.517768,-0.0455,0.2702,0.37968
-13.7132,0,0,18.7132,18.7132,5,5,20.4674,2.27793,-17.8795,-0.103848,0.0186124,-0.126511,1,0,4.2875,0.1225,-0.4725,-0.104676,-0.318298,-1.07482,-0.0455,0.2702,0.37968
-13.7145,0,0,18.7145,18.7145,5,5,20.4694,2.27885,-17.8795,-0.103863,0.0186448,-0.126524,1,0,4.7075,0.4375,-0.42,-0.104676,-0.318298,-1.07482,-0.0455,0.2702,0.37968
-13.7159,0,0,18.7159,18.7159,5,5,20.4715,2.27973,-17.8794,0.364691,-0.203959,-0.0836278,1,0,4.725,0.4375,-0.3675,0.365878,-0.540704,-1.03224,-0.0455,0.2702,0.37968
-13.7172,0,0,18.7172,18.7172,5,5,20.4735,2.28061,-17.8793,0.364676,-0.203926,-0.0836408,1,0,4.725,0.4375,-0.3675,0.365878,-0.540704,-1.03224,-0.0455,0.2702,0.37968
-13.7181,0,0,18.7181,18.7181,5,5,20.4747,2.28091,-17.8786,0.0194086,0.0005342,0.417367,1,0,4.27,0.2275,0.0525,0.019154,-0.336476,-0.535092,-0.0455,0.2702,0.37968
-13.7189,0,0,18.7189,18.7189,5,5,20.476,2.2812,-17.878,0.0194035,0.000554443,0.417359,1,0,4.27,0.2275,0.0525,0.019154,-0.336476,-0.535092,-0.04284,0.27874,0.37352
-13.8208,0,0,18.8208,18.8208,5,5,20.6281,2.49631,-18.1164,0.170668,-0.136364,0.0625583,0,0,4.515,-0.21,0.28,0.174826,-0.475678,-0.886086,-0.04284,0.27874,0.37352
-13.921,0,0,18.921,18.921,5,5,20.7776,2.70644,-18.3513,0.167004,-0.133984,0.0614809,0,0,4.515,-0.21,0.28,0.174826,-0.475678,-0.886086,-0.04284,0.27874,0.37352
-13.7934,0,0,18.7934,18.7934,5,5,20.5871,2.52752,-18.4139,-0.156916,0.166566,-0.100365,0,0,5.6175,-0.56,0.2275,-0.153598,-0.172386,-1.04798,-0.04284,0.27874,0.37352
-13.668,0,0,18.668,18.668,5,5,20.4001,2.3522,-18.4754,-0.153859,0.163557,-0.0991012,0,0,5.6175,-0.56,0.2275,-0.153598,-0.172386,-1.04798,-0.04284,0.27874,0.37352
-13.6693,0,0,18.6693,18.6693,5,5,20.4019,2.35202,-18.4743,-0.0535081,-0.229417,-0.103907,1,0,4.6025,0.0525,0.385,-0.052826,-0.564982,-1.05274,-0.04284,0.27874,0.37352
-13.6705,0,0,18.6705,18.6705,5,5,20.4038,2.35184,-18.4732,-0.0535049,-0.229387,-0.103919,1,0,4.6025,0.0525,0.385,-0.052826,-0.564982,-1.05274,-0.04284,0.27874,0.37352
-13.8311,0,0,18.8311,18.8311,5,5,20.6434,2.1733,-18.4616,-0.0827066,-0.181708,0.0694412,0,0,3.4125,0.525,0.1225,-0.085278,-0.521306,-0.879376,-0.04284,0.27874,0.37352
-13.9881,0,0,18.9881,18.9881,5,5,20.8777,2.00065,-18.4511,-0.0796953,-0.177848,0.0680954,0,0,3.4125,0.525,0.1225,-0.085278,-0.521306,-0.879376,-0.04284,0.27874,0.37352
-14.3736,0,0,19.3736,19.3736,5,5,21.4532,1.53875,-18.1887,-0.220943,-0.370638,0.299043,0,0,3.7975,-0.3675,-0.35,-0.235216,-0.723338,-0.646844,-0.04788,0.27482,0.38668
-14.3751,0,0,19.3751,19.3751,5,5,21.4554,1.53843,-18.1893,0.12068,0.187883,0.300012,1,0,4.83,-0.3675,-0.5075,0.107848,-0.165432,-0.645868,-0.04788,0.27482,0.38668
-14.3766,0,0,19.3766,19.3766,5,5,21.4576,1.53812,-18.1899,0.120685,0.187919,0.299998,1,0,4.83,-0.3675,-0.5075,0.107848,-0.165432,-0.645868,-0.04788,0.27482,0.38668
-14.3784,0,0,19.3784,19.3784,5,5,21.4603,1.53759,-18.1912,-0.225175,-0.351471,0.0306012,1,0,5.1275,-0.6475,-0.8575,-0.239486,-0.704306,-0.91317,-0.04788,0.27482,0.38668
-14.3802,0,0,19.3802,19.3802,5,5,21.463,1.53705,-18.1925,-0.225166,-0.351427,0.0305841,1,0,5.1275,-0.6475,-0.8575,-0.239486,-0.704306,-0.91317,-0.04788,0.27482,0.38668
-14.2871,0,0,19.2871,19.2871,5,5,21.324,1.37479,-18.2237,-0.120894,0.14645,0.0248965,0,0,4.76,-0.2975,-0.8925,-0.137616,-0.204716,-0.919758,-0.04788,0.27482,0.38668
-14.3995,0,0,19.3995,19.3995,5,5,21.4917,1.60086,-18.426,0.154579,-0.0965811,0.162419,0,0,4.5675,-0.1925,-0.6475,0.142984,-0.45018,-0.782142,-0.04788,0.27482,0.38668
-14.5098,0,0,19.5098,19.5098,5,5,21.6565,1.82358,-18.6145,0.150693,-0.0939511,0.161254,0,0,4.935,-0.5075,-0.6125,0.142984,-0.45018,-0.782142,-0.05124,0.26866,0.38052
-14.5292,0,0,19.5292,19.5292,5,5,21.6853,1.65811,-18.6083,-0.100204,0.0134096,0.0563977,0,0,4.6375,-0.3675,-0.5425,-0.111874,-0.34343,-0.886086,-0.05124,0.26866,0.38052
-14.5477,0,0,19.5477,19.5477,5,5,21.713,1.49719,-18.602,-0.0973961,0.0138867,0.056291,0,0,4.55,-0.28,-0.385,-0.111874,-0.34343,-0.886086,-0.05124,0.26866,0.38052
-14.5487,0,0,19.5487,19.5487,5,5,21.7144,1.49716,-18.602,0.0687968,-0.0885544,0.288654,1,0,4.3925,-0.0875,-0.245,0.055022,-0.445788,-0.655506,-0.05124,0.26866,0.38052
-14.5502,0,0,19.5502,19.5502,5,5,21.7167,1.49751,-18.6018,0.0687907,-0.0885169,0.288639,1,0,4.8825,0.175,-0.1925,0.055022,-0.445788,-0.655506,-0.05124,0.26866,0.38052
-14.5519,0,0,19.5519,19.5519,5,5,21.7193,1.49829,-18.601,-0.011282,-0.0757746,0.227394,1,0,5.005,0.5075,-0.035,-0.025376,-0.4331,-0.716262,-0.05124,0.26866,0.38052
-14.5539,0,0,19.5539,19.5539,5,5,21.7222,1.49803,-18.6004,-0.0112775,-0.0757272,0.227375,1,0,5.215,-0.07,0.1575,-0.025376,-0.4331,-0.716262,-0.05124,0.26866,0.38052
-14.556,0,0,19.556,19.556,5,5,21.7254,1.4973,-18.6,0.0646639,0.0341166,-0.123663,1,0,5.3725,-0.385,0.1225,0.050874,-0.323422,-1.06457,-0.05124,0.26866,0.38052
-14.5582,0,0,19.5582,19.5582,5,5,21.7286,1.49634,-18.599,0.0646805,0.0341693,-0.123683,1,0,5.39,-0.3675,0.5075,0.050874,-0.323422,-1.06457,-0.05124,0.26866,0.38052
-14.5604,0,0,19.5604,19.5604,5,5,21.7319,1.49506,-18.5981,0.238306,-0.212473,-0.0050586,1,0,5.4075,-0.5775,0.5075,0.225212,-0.569862,-0.946842,-0.04508,0.26642,0.37716
-14.7978,0,0,19.7978,19.7978,5,5,22.0862,0.820188,-18.233,-0.39367,-0.183811,0.204081,0,0,5.4075,-0.21,0.4025,-0.421266,-0.547048,-0.737246,-0.04508,0.26642,0.37716
-15.0288,0,0,20.0288,20.0288,5,5,22.4311,0.163056,-17.8755,-0.382202,-0.178203,0.201892,0,0,5.425,0.315,0.6125,-0.421266,-0.547048,-0.737246,-0.04508,0.26642,0.37716
-15.115,0,0,20.115,20.115,5,5,22.5596,-0.13202,-17.7586,-0.191179,-0.108594,-0.0219937,0,0,5.5125,-0.1925,0.1925,-0.234606,-0.479582,-0.958554,-0.04508,0.26642,0.37716
-15.1981,0,0,20.1981,20.1981,5,5,22.6837,-0.418114,-17.643,-0.186185,-0.106605,-0.0228485,0,0,4.935,0.35,0.2975,-0.234606,-0.479582,-0.958554,-0.04508,0.26642,0.37716
-15.2006,0,0,20.2006,20.2006,5,5,22.6875,-0.419144,-17.6433,-0.123602,0.11414,-0.235944,1,0,5.74,-0.7,-0.1925,-0.171776,-0.259128,-1.16998,-0.04508,0.26642,0.37716
-15.203,0,0,20.203,20.203,5,5,22.691,-0.41978,-17.6429,-0.123591,0.114197,-0.235968,1,0,5.565,-0.3325,0.0875,-0.171776,-0.259128,-1.16998,-0.04508,0.26642,0.37716
-15.2061,0,0,20.2061,20.2061,5,5,22.6956,-0.420562,-17.6438,0.0893869,0.127949,-0.21854,1,0,6.16,-0.6825,-0.525,0.04209,-0.245464,-1.15266,-0.0511,0.27062,0.37394
-15.2091,0,0,20.2091,20.2091,5,5,22.7002,-0.421455,-17.6446,0.311478,-0.0136452,-0.435821,1,0,6.125,-0.7525,-0.525,0.265106,-0.386984,-1.36823,-0.0511,0.27062,0.37394
-15.212,0,0,20.212,20.212,5,5,22.7044,-0.421183,-17.6451,0.311474,-0.0135768,-0.43585,1,0,5.9675,-0.035,-0.5775,0.265106,-0.386984,-1.36823,-0.0511,0.27062,0.37394
-15.2151,0,0,20.2151,20.2151,5,5,22.7091,-0.420946,-17.6456,0.442431,-0.157488,-0.121871,1,0,6.23,-0.035,-0.525,0.396622,-0.530822,-1.05664,-0.0511,0.27062,0.37394
-15.218,0,0,20.218,20.218,5,5,22.7134,-0.42073,-17.6457,0.442427,-0.157419,-0.1219,1,0,6.0025,0.0175,-0.3675,0.396622,-0.530822,-1.05664,-0.0511,0.27062,0.37394
-15.2153,0,0,20.2153,20.2153,5,5,22.7094,-1.18966,-17.2721,-0.520777,0.112587,0.0736875,0,0,6.2475,-0.0525,-0.21,-0.584136,-0.260958,-0.862418,-0.0511,0.27062,0.37394
-15.2107,0,0,20.2107,20.2107,5,5,22.7026,-1.94213,-16.8991,-0.507649,0.112339,0.0734023,0,0,6.2475,-0.0525,-0.21,-0.584136,-0.260958,-0.862418,-0.0511,0.27062,0.37394
-14.9888,0,0,19.9888,19.9888,5,5,22.3713,-1.49212,-17.231,0.256299,0.261948,-0.0622364,0,0,6.6325,4.2,0.21,0.19093,-0.106262,-0.999424,-0.0511,0.27062,0.37394
-14.7715,0,0,19.7715,19.7715,5,5,22.047,-1.05654,-17.5637,0.248698,0.256773,-0.0599409,0,0,6.6325,4.2,0.21,0.19093,-0.106262,-0.999424,-0.04732,0.2681,0.37492
-14.7746,0,0,19.7746,19.7746,5,5,22.0516,-1.05747,-17.5628,-0.127527,-0.260359,-0.0763237,1,0,6.195,-0.385,0.42,-0.186904,-0.622932,-1.01565,-0.04732,0.2681,0.37492
-14.7777,0,0,19.7777,19.7777,5,5,22.0563,-1.0584,-17.562,-0.12751,-0.260284,-0.0763543,1,0,6.195,-0.385,0.42,-0.186904,-0.622932,-1.01565,-0.04732,0.2681,0.37492
-14.7806,0,0,19.7806,19.7806,5,5,22.0606,-1.06029,-17.5614,-0.269251,0.248445,0.146522,1,0,6.055,-0.98,0.455,-0.329278,-0.114802,-0.794464,-0.04732,0.2681,0.37492
-14.7843,0,0,19.7843,19.7843,5,5,22.0661,-1.06226,-17.5605,0.464071,-0.276857,-0.211172,1,0,6.65,-0.9275,0.7,0.407114,-0.639646,-1.14936,-0.04732,0.2681,0.37492
-14.7882,0,0,19.7882,19.7882,5,5,22.072,-1.06436,-17.5603,0.464107,-0.276762,-0.211211,1,0,6.8775,-1.1725,0.2975,0.407114,-0.639646,-1.14936,-0.04732,0.2681,0.37492
-14.7928,0,0,19.7928,19.7928,5,5,22.0788,-1.06459,-17.5592,0.0271275,0.020238,0.133123,1,0,7.42,0.0525,0.42,-0.03172,-0.343064,-0.80764,-0.04732,0.2681,0.37492
-14.7965,0,0,19.7965,19.7965,5,5,22.0844,-1.06474,-17.559,0.02713,0.0203288,0.133087,1,0,6.7375,-0.1225,-0.1575,-0.03172,-0.343064,-0.80764,-0.04732,0.2681,0.37492
-14.8703,0,0,19.8703,19.8703,5,5,22.1945,-0.987203,-17.6423,0.0652598,-0.111733,0.0020595,0,0,6.4925,0.28,0.0525,0.00793,-0.476776,-0.93696,-0.04354,0.2632,0.37058
-14.942,0,0,19.942,19.942,5,5,22.3015,-0.911253,-17.7254,0.0639344,-0.109997,0.00137306,0,0,5.845,0.1225,-0.49,0.00793,-0.476776,-0.93696,-0.04354,0.2632,0.37058
-14.945,0,0,19.945,19.945,5,5,22.306,-0.911506,-17.7275,0.195265,0.104653,0.122939,1,0,6.1425,-0.6825,-1.3475,0.139812,-0.262422,-0.816302,-0.04354,0.2632,0.37058
-14.9484,0,0,19.9484,19.9484,5,5,22.311,-0.912512,-17.7299,0.150211,-0.145504,-0.151024,1,0,6.37,-1.1375,-1.295,0.09455,-0.5124,-1.08812,-0.04354,0.2632,0.37058
-14.9531,0,0,19.9531,19.9531,5,5,22.318,-0.913539,-17.7323,0.150229,-0.145391,-0.151071,1,0,7.49,-1.1725,-1.3475,0.09455,-0.5124,-1.08812,-0.04354,0.2632,0.37058
-14.9583,0,0,19.9583,19.9583,5,5,22.3258,-0.914225,-17.7349,-0.248232,-0.143067,-0.115098,1,0,7.9275,-1.015,-1.4875,-0.30561,-0.510204,-1.05237,-0.04354,0.2632,0.37058
-14.9639,0,0,19.9639,19.9639,5,5,22.3341,-0.914097,-17.7368,-0.248234,-0.142933,-0.115153,1,0,8.225,-0.42,-1.295,-0.30561,-0.510204,-1.05237,-0.04354,0.2632,0.37058
-14.8251,0,0,19.8251,19.8251,5,5,22.127,-1.08259,-17.723,-0.142638,0.19578,-0.0896129,0,0,8.1025,-0.6475,-1.4875,-0.20252,-0.168482,-1.02834,-0.04354,0.2632,0.37058
-14.6887,0,0,19.6887,19.6887,5,5,21.9235,-1.2503,-17.696,-0.139712,0.192465,-0.088336,0,0,7.5775,-0.245,-0.5775,-0.20252,-0.168482,-1.02834,-0.04816,0.25956,0.3752
-14.6932,0,0,19.6932,19.6932,5,5,21.9302,-1.25009,-17.6963,0.31051,-0.112621,-0.418251,1,0,7.35,-0.035,-0.49,0.249612,-0.47336,-1.35566,-0.04816,0.25956,0.3752
-14.6972,0,0,19.6972,19.6972,5,5,21.9361,-1.25009,-17.6957,0.31051,-0.112526,-0.418289,1,0,6.895,0.07,0.105,0.249612,-0.47336,-1.35566,-0.04816,0.25956,0.3752
-14.7021,0,0,19.7021,19.7021,5,5,21.9435,-1.2506,-17.6948,-0.0679087,-0.318923,0.0721044,1,0,7.735,-0.14,0.3675,-0.130418,-0.679662,-0.869006,-0.04816,0.25956,0.3752
-14.7072,0,0,19.7072,19.7072,5,5,21.951,-1.25183,-17.6926,-0.0678873,-0.318802,0.072055,1,0,7.8225,-0.2625,1.19,-0.130418,-0.679662,-0.869006,-0.04816,0.25956,0.3752
-14.8341,0,0,19.8341,19.8341,5,5,22.1405,-1.63856,-17.4815,-0.235836,-0.109651,0.0798771,0,0,7.77,-0.14,1.2425,-0.305854,-0.473726,-0.859856,-0.04816,0.25956,0.3752
-14.9585,0,0,19.9585,19.9585,5,5,22.326,-2.01453,-17.2728,-0.229277,-0.106734,0.0784588,0,0,8.3125,0.245,1.575,-0.305854,-0.473726,-0.859856,-0.04816,0.25956,0.3752
-14.7805,0,0,19.7805,19.7805,5,5,22.0605,-1.88369,-17.4081,0.0579406,0.237189,0.00528201,0,0,7.875,0.0175,1.68,-0.015128,-0.125904,-0.934276,-0.04816,0.25956,0.3752
-14.6057,0,0,19.6057,19.6057,5,5,21.7996,-1.75575,-17.5485,0.0557088,0.232994,0.00704758,0,0,7.7875,-0.0875,1.645,-0.015128,-0.125904,-0.934276,-0.04788,0.2618,0.37254
-14.5104,0,0,19.5104,19.5104,5,5,21.6572,-1.46332,-17.7717,0.192867,0.0833336,-0.113127,0,0,7.9975,-0.0175,1.645,0.127734,-0.273158,-1.05457,-0.04788,0.2618,0.37254
-14.4167,0,0,19.4167,19.4167,5,5,21.5175,-1.17874,-17.9951,0.187901,0.0811085,-0.112124,0,0,7.7,-0.1925,1.0325,0.127734,-0.273158,-1.05457,-0.04788,0.2618,0.37254
-14.5259,0,0,19.5259,19.5259,5,5,21.6805,-1.29584,-17.9498,-0.0666333,-0.161372,-0.0240741,0,0,7.7875,-0.7,0.2625,-0.12993,-0.518012,-0.966118,-0.04788,0.2618,0.37254
-14.6328,0,0,19.6328,19.6328,5,5,21.8401,-1.40875,-17.906,-0.0646632,-0.158803,-0.0251494,0,0,7.8225,-0.525,-0.1575,-0.12993,-0.518012,-0.966118,-0.04788,0.2618,0.37254
-14.5249,0,0,19.5249,19.5249,5,5,21.6789,-1.33189,-18.014,0.0316702,0.159424,0.0466183,0,0,7.77,-0.3325,-0.8225,-0.031842,-0.197518,-0.895968,-0.04788,0.2618,0.37254
-14.419,0,0,19.419,19.419,5,5,21.5209,-1.25746,-18.1217,0.0303714,0.156872,0.0476603,0,0,7.77,-0.3325,-0.8225,-0.031842,-0.197518,-0.895968,-0.04788,0.2618,0.37254
-14.3974,0,0,19.3974,19.3974,5,5,21.4887,-0.757114,-18.4575,0.309561,0.0328131,0.107147,0,0,7.7875,-0.5075,-1.3825,0.257298,-0.320982,-0.837286,-0.04788,0.2618,0.37254
-14.3766,0,0,19.3766,19.3766,5,5,21.4576,-0.269703,-18.7899,0.301055,0.0323353,0.107417,0,0,7.7875,-0.5075,-1.3825,0.257298,-0.320982,-0.837286,-0.04788,0.2618,0.37254
-14.3824,0,0,19.3824,19.3824,5,5,21.4663,-0.269485,-18.7924,0.208965,-0.303983,-0.065258,1,0,8.4525,-0.49,-1.6625,0.164822,-0.657092,-1.00857,-0.04802,0.25816,0.3738
-14.2583,0,0,19.2583,19.2583,5,5,21.2811,-0.282247,-18.8636,-0.0297749,0.175041,-0.0134263,0,0,8.3125,-0.735,-1.7675,-0.075152,-0.175558,-0.95831,-0.04802,0.25816,0.3738
-14.1355,0,0,19.1355,19.1355,5,5,21.0978,-0.294867,-18.9334,-0.0295546,0.172057,-0.0122707,0,0,7.3675,-0.2975,-1.26,-0.075152,-0.175558,-0.95831,-0.04802,0.25816,0.3738
-14.1397,0,0,19.1397,19.1397,5,5,21.104,-0.294507,-18.9347,-0.289176,-0.267741,0.0388364,1,0,7.105,-0.14,-1.015,-0.335866,-0.615002,-0.907558,-0.04802,0.25816,0.3738
-14.1439,0,0,19.1439,19.1439,5,5,21.1104,-0.29393,-18.9345,-0.289186,-0.267638,0.0387966,1,0,7.14,0.28,-0.28,-0.335866,-0.615002,-0.907558,-0.04802,0.25816,0.3738
-14.148,0,0,19.148,19.148,5,5,21.1164,-0.293764,-18.9337,0.514925,-0.0383077,-0.0437396,1,0,6.965,0.1925,0.1575,0.471652,-0.386008,-0.98942,-0.04802,0.25816,0.3738
-14.1532,0,0,19.1532,19.1532,5,5,21.1242,-0.29464,-18.9323,0.51494,-0.0381798,-0.0437891,1,0,7.9975,-0.245,0.7175,0.471652,-0.386008,-0.98942,-0.04802,0.25816,0.3738
-14.1547,0,0,19.1547,19.1547,5,5,21.1264,-0.120037,-19.077,0.127148,-0.0389955,-0.0696116,0,0,8.26,-0.175,0.9975,0.085278,-0.386862,-1.01504,-0.04802,0.25816,0.3738
-14.1574,0,0,19.1574,19.1574,5,5,21.1305,0.0489461,-19.2213,0.124198,-0.0389289,-0.0696354,0,0,9.03,-0.42,1.05,0.085278,-0.386862,-1.01504,-0.04424,0.25606,0.37044
-14.4086,0,0,19.4086,19.4086,5,5,21.5054,-0.0923626,-19.1204,-0.0453591,-0.21004,0.239414,0,0,8.7325,-0.1225,1.0675,-0.087474,-0.563884,-0.706014,-0.04424,0.25606,0.37044
-14.6539,0,0,19.6539,19.6539,5,5,21.8715,-0.228429,-19.023,-0.0429843,-0.204104,0.237046,0,0,8.1025,-0.1575,0.6125,-0.087474,-0.563884,-0.706014,-0.04424,0.25606,0.37044
-14.7429,0,0,19.7429,19.7429,5,5,22.0044,-0.0458885,-19.1455,0.147842,-0.150657,-0.0014729,0,0,7.735,-0.0175,0.6825,0.10736,-0.512644,-0.94184,-0.04424,0.25606,0.37044
-14.8298,0,0,19.8298,19.8298,5,5,22.134,0.131886,-19.2668,0.14474,-0.148562,-0.00232506,0,0,7.1225,-0.385,0.42,0.10736,-0.512644,-0.94184,-0.04424,0.25606,0.37044
-14.8338,0,0,19.8338,19.8338,5,5,22.14,0.130938,-19.2666,-0.132231,-0.185469,-0.0524045,1,0,6.9475,-0.525,0.105,-0.1708,-0.54961,-0.991494,-0.04424,0.25606,0.37044
-14.8377,0,0,19.8377,19.8377,5,5,22.1459,0.130084,-19.2672,-0.132216,-0.185374,-0.0524432,1,0,6.895,-0.665,-0.385,-0.1708,-0.54961,-0.991494,-0.04424,0.25606,0.37044
-14.8424,0,0,19.8424,19.8424,5,5,22.1528,0.130092,-19.2679,0.118773,0.110652,0.136975,1,0,7.49,-0.2275,-0.6475,0.081252,-0.254004,-0.803492,-0.04424,0.25606,0.37044
-14.8472,0,0,19.8472,19.8472,5,5,22.16,0.130717,-19.2686,0.118762,0.110767,0.136928,1,0,7.595,0.105,-0.7875,0.081252,-0.254004,-0.803492,-0.04354,0.25704,0.37464
-15.0524,0,0,20.0524,20.0524,5,5,22.4663,-0.0534995,-19.1553,-0.0884358,-0.221234,0.124941,0,0,7.595,0.1925,-0.9975,-0.130052,-0.590602,-0.813374,-0.04354,0.25704,0.37464
-15.2534,0,0,20.2534,20.2534,5,5,22.7663,-0.231878,-19.0449,-0.0853226,-0.216404,0.12292,0,0,7.735,0.1225,-1.1025,-0.130052,-0.590602,-0.813374,-0.04354,0.25704,0.37464
-15.2579,0,0,20.2579,20.2579,5,5,22.7729,-0.231021,-19.0455,0.284951,0.115644,0.270291,1,0,7.315,0.2625,-0.7525,0.241804,-0.259006,-0.667096,-0.04354,0.25704,0.37464
-15.2623,0,0,20.2623,20.2623,5,5,22.7796,-0.23085,-19.0465,0.284948,0.115752,0.270246,1,0,7.3325,-0.21,-0.84,0.241804,-0.259006,-0.667096,-0.04354,0.25704,0.37464
-15.295,0,0,20.295,20.295,5,5,22.8283,-0.619549,-18.8567,-0.238796,0.0333475,0.0856928,0,0,6.7375,0.1925,-0.6125,-0.29097,-0.342088,-0.849852,-0.04354,0.25704,0.37464
-15.3263,0,0,20.3263,20.3263,5,5,22.8751,-0.998855,-18.6675,-0.232177,0.0340633,0.0852897,0,0,6.895,0.2275,-0.07,-0.29097,-0.342088,-0.849852,-0.04354,0.25704,0.37464
-15.3077,0,0,20.3077,20.3077,5,5,22.8473,-0.652685,-18.894,0.207999,0.039635,0.100804,0,0,6.4925,0.595,0.385,0.157136,-0.33611,-0.834724,-0.04354,0.25704,0.37464
-15.2887,0,0,20.2887,20.2887,5,5,22.819,-0.313254,-19.1127,0.202075,0.0391981,0.101042,0,0,6.02,0.6125,0.5425,0.157136,-0.33611,-0.834724,-0.05068,0.2576,0.3731
-15.3401,0,0,20.3401,20.3401,5,5,22.8957,-0.605584,-18.9677,-0.190567,-0.037622,0.00851819,0,0,6.265,0.3675,0.5425,-0.242292,-0.414068,-0.92598,-0.05068,0.2576,0.3731
-15.3907,0,0,20.3907,20.3907,5,5,22.9712,-0.891349,-18.8249,-0.18558,-0.0364344,0.00794496,0,0,6.9125,-0.35,0.525,-0.242292,-0.414068,-0.92598,-0.05068,0.2576,0.3731
-15.3951,0,0,20.3951,20.3951,5,5,22.9777,-0.891828,-18.8237,0.215817,0.0644251,-0.22644,1,0,7.2625,-0.0525,0.5075,0.160796,-0.313418,-1.15851,-0.05068,0.2576,0.3731
-15.3991,0,0,20.3991,20.3991,5,5,22.9837,-0.89192,-18.8229,0.215819,0.0645212,-0.22648,1,0,6.9475,0.0525,0.175,0.160796,-0.313418,-1.15851,-0.05068,0.2576,0.3731
-15.4893,0,0,20.4893,20.4893,5,5,23.1184,-1.32244,-18.5875,-0.240501,-0.0086039,0.156311,0,0,6.405,-0.0875,-0.2275,-0.305,-0.38857,-0.777628,-0.05068,0.2576,0.3731
-15.5757,0,0,20.5757,20.5757,5,5,23.2473,-1.74199,-18.3556,-0.233181,-0.0066129,0.155246,0,0,5.5125,-0.2975,-0.5425,-0.305,-0.38857,-0.777628,-0.05068,0.2576,0.3731
-15.578,0,0,20.578,20.578,5,5,23.2508,-1.74205,-18.3564,-0.00187156,0.0549944,-0.189157,1,0,5.5125,-0.2975,-0.7,-0.072712,-0.327082,-1.11935,-0.05068,0.2576,0.3731
-15.5805,0,0,20.5805,20.5805,5,5,23.2545,-1.74233,-18.3574,-0.00186655,0.0550544,-0.189183,1,0,5.67,-0.455,-0.7175,-0.072712,-0.327082,-1.11935,-0.04074,0.25592,0.37534
-15.514,0,0,20.514,20.514,5,5,23.1552,-1.55037,-18.501,0.120036,0.0638811,-0.0500947,0,0,6.0375,-0.56,-1.0675,0.05307,-0.316712,-0.9821,-0.04074,0.25592,0.37534
-15.4495,0,0,20.4495,20.4495,5,5,23.059,-1.36382,-18.6443,0.116781,0.0623688,-0.0493595,0,0,6.475,-0.735,-1.26,0.05307,-0.316712,-0.9821,-0.04074,0.25592,0.37534
-15.4525,0,0,20.4525,20.4525,5,5,23.0635,-1.36395,-18.6457,0.0367245,-0.0589525,-0.104348,1,0,6.1075,-0.455,-0.9625,-0.027328,-0.43798,-1.03663,-0.04074,0.25592,0.37534
-15.4546,0,0,20.4546,20.4546,5,5,23.0666,-1.36326,-18.6466,0.0367124,-0.0589024,-0.104369,1,0,5.32,0.0875,-0.91,-0.027328,-0.43798,-1.03663,-0.04074,0.25592,0.37534
-15.3341,0,0,20.3341,20.3341,5,5,22.8868,-1.07194,-18.862,0.186888,0.117166,-0.10366,0,0,5.0225,0.2625,-0.91,0.128588,-0.25925,-1.03724,-0.04074,0.25592,0.37534
-15.2163,0,0,20.2163,20.2163,5,5,22.7109,-0.788899,-19.0764,0.181949,0.114369,-0.102397,0,0,5.1975,0.1925,-0.525,0.128588,-0.25925,-1.03724,-0.04074,0.25592,0.37534
-15.2187,0,0,20.2187,20.2187,5,5,22.7145,-0.788389,-19.0765,0.119374,-0.0604599,0.223885,1,0,5.565,0.175,-0.4375,0.065758,-0.433954,-0.713456,-0.04074,0.25592,0.37534
-15.2209,0,0,20.2209,20.2209,5,5,22.7178,-0.788812,-19.076,0.119382,-0.0604068,0.223863,1,0,5.4425,-0.175,0.14,0.065758,-0.433954,-0.713456,-0.04074,0.25592,0.37534
-15.3135,0,0,20.3135,20.3135,5,5,22.8559,-0.972369,-18.9737,-0.117349,-0.130014,-0.0180955,0,0,5.775,-0.0525,0.4725,-0.175192,-0.50569,-0.952576,-0.04704,0.25564,0.37464
-15.3629,0,0,20.3629,20.3629,5,5,22.9297,-0.95375,-18.9923,0.0200908,-0.0450468,0.0571449,0,0,5.3025,0.1925,0.525,-0.036844,-0.421998,-0.877424,-0.04704,0.25564,0.37464
-15.4106,0,0,20.4106,20.4106,5,5,23.0009,-0.93587,-19.0103,0.0197788,-0.0439,0.0566645,0,0,4.655,0.035,0.875,-0.036844,-0.421998,-0.877424,-0.04704,0.25564,0.37464
-15.412,0,0,20.412,20.412,5,5,23.003,-0.936632,-19.0089,0.050285,-0.0834355,-0.350801,1,0,4.7775,-0.1575,0.6825,-0.006222,-0.461526,-1.28173,-0.04704,0.25564,0.37464
-15.4137,0,0,20.4137,20.4137,5,5,23.0055,-0.936283,-19.0077,0.0502789,-0.0833951,-0.350818,1,0,5.005,0.385,0.2975,-0.006222,-0.461526,-1.28173,-0.04704,0.25564,0.37464
-15.4614,0,0,20.4614,20.4614,5,5,23.0767,-0.772209,-19.1074,0.121643,-0.0891969,-0.00172247,0,0,5.215,0.14,0.1575,0.06832,-0.46848,-0.934886,-0.04704,0.25564,0.37464
-15.5082,0,0,20.5082,20.5082,5,5,23.1465,-0.612697,-19.2064,0.11886,-0.088063,-0.00216982,0,0,5.005,-0.245,-0.0875,0.06832,-0.46848,-0.934886,-0.04704,0.25564,0.37464
-15.5095,0,0,20.5095,20.5095,5,5,23.1485,-0.613207,-19.2068,-0.0182889,-0.295159,0.0232671,1,0,4.6725,-0.4375,-0.35,-0.069418,-0.675392,-0.909632,-0.04704,0.25564,0.37464
-15.5115,0,0,20.5115,20.5115,5,5,23.1515,-0.613896,-19.208,-0.0182769,-0.29511,0.0232461,1,0,5.285,-0.7175,-0.735,-0.069418,-0.675392,-0.909632,-0.04732,0.26138,0.3703
-15.5127,0,0,20.5127,20.5127,5,5,23.1532,-0.614373,-19.2088,0.0327554,0.0192717,0.158109,1,0,4.55,-0.5075,-0.56,-0.018178,-0.361364,-0.775798,-0.04732,0.26138,0.3703
-15.5135,0,0,20.5135,20.5135,5,5,23.1545,-0.614902,-19.2095,0.0327646,0.0192918,0.1581,1,0,4.2875,-0.525,-0.525,-0.018178,-0.361364,-0.775798,-0.04732,0.26138,0.3703
-15.5907,0,0,20.5907,20.5907,5,5,23.2697,-0.785742,-19.1314,-0.101776,-0.0819499,0.033465,0,0,3.8675,-0.4025,-0.945,-0.156282,-0.464332,-0.898652,-0.04732,0.26138,0.3703
-15.6658,0,0,20.6658,20.6658,5,5,23.3818,-0.951504,-19.0541,-0.0988829,-0.0801702,0.0326499,0,0,3.71,-0.1925,-0.8225,-0.156282,-0.464332,-0.898652,-0.04732,0.26138,0.3703
-15.5957,0,0,20.5957,20.5957,5,5,23.2771,-0.487517,-19.3546,0.307043,0.0525316,-0.00649138,0,0,3.815,-0.0525,-0.525,0.259494,-0.330132,-0.938302,-0.04732,0.26138,0.3703
-15.5273,0,0,20.5273,20.5273,5,5,23.1751,-0.03623,-19.6528,0.299167,0.0509099,-0.00575625,0,0,3.9375,-0.245,-0.3325,0.259494,-0.330132,-0.938302,-0.04732,0.26138,0.3703
-15.5283,0,0,20.5283,20.5283,5,5,23.1765,-0.0364051,-19.6535,0.0638518,-0.0158704,-0.332809,1,0,4.3925,-0.315,-0.56,0.02318,-0.396866,-1.26282,-0.04732,0.26138,0.3703
-15.5297,0,0,20.5297,20.5297,5,5,23.1786,-0.0369574,-19.6537,0.0638615,-0.0158374,-0.332823,1,0,4.7425,-0.42,-0.245,0.02318,-0.396866,-1.26282,-0.0518,0.2562,0.37478
-15.5305,0,0,20.5305,20.5305,5,5,23.1798,-0.0374827,-19.6535,0.206373,-0.0564861,-0.132794,1,0,4.27,-0.2975,0,0.166286,-0.437492,-1.06433,-0.0518,0.2562,0.37478
-15.5305,0,0,20.5305,20.5305,5,5,23.1799,-0.0377265,-19.6523,0.206378,-0.0564851,-0.132795,1,0,3.6225,0.07,0.4375,0.166286,-0.437492,-1.06433,-0.0518,0.2562,0.37478
-15.6348,0,0,20.6348,20.6348,5,5,23.3356,-0.455154,-19.4198,-0.258309,-0.0736636,0.0835994,0,0,2.94,-0.0875,0.105,-0.307684,-0.457134,-0.84851,-0.0518,0.2562,0.37478
-15.736,0,0,20.736,20.736,5,5,23.4865,-0.861655,-19.1905,-0.251215,-0.0712787,0.0824779,0,0,2.835,-0.035,0.0525,-0.307684,-0.457134,-0.84851,-0.0518,0.2562,0.37478
-15.7358,0,0,20.7358,20.7358,5,5,23.4863,-0.862551,-19.1902,0.0530012,-0.10047,-0.180262,1,0,3.4825,-0.4725,0.14,-0.002196,-0.486292,-1.10922,-0.0518,0.2562,0.37478
-15.7366,0,0,20.7366,20.7366,5,5,23.4874,-0.863756,-19.1901,0.0530222,-0.100453,-0.18027,1,0,4.2,-0.7,0.07,-0.002196,-0.486292,-1.10922,-0.0518,0.2562,0.37478
-15.8524,0,0,20.8524,20.8524,5,5,23.6602,-0.722011,-19.2543,0.118702,-0.17376,0.0493297,0,0,4.2,-0.8925,-0.175,0.066246,-0.562298,-0.88023,-0.0518,0.2562,0.37478
-15.9667,0,0,20.9667,20.9667,5,5,23.831,-0.585768,-19.3315,0.116324,-0.171021,0.0481548,0,0,4.095,-0.63,-0.35,0.066246,-0.562298,-0.88023,-0.04732,0.26222,0.37184
-15.9664,0,0,20.9664,20.9664,5,5,23.8304,-0.586473,-19.3319,0.0390717,-0.149047,-0.166633,1,0,3.29,-0.5425,-0.2975,-0.011346,-0.540338,-1.09336,-0.04732,0.26222,0.37184
-15.9657,0,0,20.9657,20.9657,5,5,23.8294,-0.58644,-19.332,0.0390711,-0.149063,-0.166626,1,0,3.0275,-0.07,-0.2975,-0.011346,-0.540338,-1.09336,-0.04732,0.26222,0.37184
-15.9645,0,0,20.9645,20.9645,5,5,23.8277,-0.586598,-19.3324,0.202108,-0.0623809,0.225715,1,0,2.6075,-0.2625,-0.455,0.152378,-0.453718,-0.704062,-0.04732,0.26222,0.37184
-15.9636,0,0,20.9636,20.9636,5,5,23.8262,-0.586043,-19.3325,0.202098,-0.0624042,0.225726,1,0,2.765,0.21,-0.42,0.152378,-0.453718,-0.704062,-0.04732,0.26222,0.37184
-15.9626,0,0,20.9626,20.9626,5,5,23.8247,-0.585794,-19.3325,0.133697,-0.061817,0.172499,1,0,2.765,0.0525,-0.3325,0.083692,-0.453108,-0.756888,-0.04732,0.26222,0.37184
-15.9615,0,0,20.9615,20.9615,5,5,23.8232,-0.58547,-19.3327,0.133692,-0.0618424,0.172511,1,0,2.695,0.07,-0.4025,0.083692,-0.453108,-0.756888,-0.04732,0.26222,0.37184
-15.8335,0,0,20.8335,20.8335,5,5,23.6321,-0.809887,-19.2711,-0.183479,0.181416,-0.104055,0,0,3.1325,-0.49,-0.4375,-0.238754,-0.207034,-1.03261,-0.04732,0.26222,0.37184
-15.7078,0,0,20.7078,20.7078,5,5,23.4445,-1.03,-19.2003,-0.179637,0.178389,-0.102804,0,0,3.115,0.1575,0.0525,-0.238754,-0.207034,-1.03261,-0.04648,0.2583,0.37618
-15.7071,0,0,20.7071,20.7071,5,5,23.4434,-1.03023,-19.2004,0.068319,-0.0842,-0.150747,1,0,2.9925,-0.21,-0.2275,0.010248,-0.469334,-1.08019,-0.04648,0.2583,0.37618
-15.7063,0,0,20.7063,20.7063,5,5,23.4422,-1.02985,-19.1999,0.0683122,-0.0842201,-0.150738,1,0,2.8875,0.2625,-0.0525,0.010248,-0.469334,-1.08019,-0.04648,0.2583,0.37618
-15.7047,0,0,20.7047,20.7047,5,5,23.4398,-1.0331,-19.1927,-0.0714611,0.147661,0.130953,1,0,2.345,-0.14,4.3575,-0.130174,-0.237656,-0.800686,-0.04648,0.2583,0.37618
-15.7038,0,0,20.7038,20.7038,5,5,23.4385,-1.03265,-19.1918,-0.0714689,0.147639,0.130962,1,0,2.8525,0.385,0.14,-0.130174,-0.237656,-0.800686,-0.04648,0.2583,0.37618
-15.5361,0,0,20.5361,20.5361,5,5,23.1882,-0.587912,-19.4972,0.282311,0.181531,-0.0591311,0,0,2.835,0.035,-0.28,0.232898,-0.199836,-0.991128,-0.04648,0.2583,0.37618
-15.3716,0,0,20.3716,20.3716,5,5,22.9427,-0.154823,-19.8027,0.274753,0.177608,-0.0574076,0,0,2.835,0.035,-0.28,0.232898,-0.199836,-0.991128,-0.04648,0.2583,0.37618
-15.3722,0,0,20.3722,20.3722,5,5,22.9436,-0.155552,-19.8027,0.17454,-0.0629679,-0.178395,1,0,4.06,-0.4725,-0.105,0.132248,-0.440176,-1.11118,-0.04648,0.2583,0.37618
-15.3728,0,0,20.3728,20.3728,5,5,22.9444,-0.156281,-19.8028,0.174552,-0.0629544,-0.1784,1,0,4.06,-0.4725,-0.105,0.132248,-0.440176,-1.11118,-0.04704,0.25872,0.37744
-15.4829,0,0,20.4829,20.4829,5,5,23.1087,-0.0167014,-19.8792,0.118055,-0.159725,0.0603536,0,0,2.625,-0.4725,-0.0875,0.077958,-0.539484,-0.873154,-0.04704,0.25872,0.37744
-15.5911,0,0,20.5911,20.5911,5,5,23.2704,0.119816,-19.9543,0.115672,-0.157133,0.0592409,0,0,2.625,-0.4725,-0.0875,0.077958,-0.539484,-0.873154,-0.04704,0.25872,0.37744
-15.5896,0,0,20.5896,20.5896,5,5,23.2681,0.119376,-19.9551,-0.0574371,0.156574,0.515887,1,0,2.31,-0.5075,-0.6125,-0.095892,-0.226066,-0.420046,-0.04704,0.25872,0.37744
-15.5881,0,0,20.5881,20.5881,5,5,23.2658,0.118936,-19.956,-0.0574294,0.156538,0.515903,1,0,2.31,-0.5075,-0.6125,-0.095892,-0.226066,-0.420046,-0.04704,0.25872,0.37744
-15.6161,0,0,20.6161,20.6161,5,5,23.3076,0.861377,-20.3802,0.472533,-0.0168669,0.238141,0,0,2.94,-0.175,-0.14,0.449326,-0.399916,-0.695278,-0.04704,0.25872,0.37744
-15.6158,0,0,20.6158,20.6158,5,5,23.3072,0.861429,-20.3801,-0.277156,-0.12923,-0.0638177,1,0,3.3775,-0.035,-0.245,-0.303536,-0.512156,-0.99491,-0.04704,0.25872,0.37744
-15.6149,0,0,20.6149,20.6149,5,5,23.3058,0.860788,-20.3808,-0.277145,-0.129253,-0.0638076,1,0,2.7825,-0.56,-0.4375,-0.303536,-0.512156,-0.99491,-0.04704,0.25872,0.37744
-15.614,0,0,20.614,20.614,5,5,23.3045,0.860762,-20.3809,-0.347607,0.0884798,-0.210968,1,0,2.905,-0.1225,-0.3325,-0.374296,-0.29463,-1.14094,-0.04942,0.25998,0.37772
-15.6121,0,0,20.6121,20.6121,5,5,23.3017,0.861037,-20.3807,-0.347611,0.0884343,-0.210949,1,0,1.995,0.1225,-0.21,-0.374296,-0.29463,-1.14094,-0.04942,0.25998,0.37772
-15.611,0,0,20.611,20.611,5,5,23.3,0.861256,-20.3813,-0.102093,-0.0657173,-0.140119,1,0,2.625,-0.0875,-0.6125,-0.127734,-0.448594,-1.07067,-0.04942,0.25998,0.37772
-15.6098,0,0,20.6098,20.6098,5,5,23.2982,0.861474,-20.3819,-0.102096,-0.065745,-0.140107,1,0,2.625,-0.0875,-0.6125,-0.127734,-0.448594,-1.07067,-0.04942,0.25998,0.37772
-15.6622,0,0,20.6622,20.6622,5,5,23.3764,0.364684,-20.1326,-0.309428,0.0237195,0.105212,0,0,3.115,-0.0525,-0.525,-0.34465,-0.36051,-0.826794,-0.04942,0.25998,0.37772
-15.7536,0,0,20.7536,20.7536,5,5,23.5128,0.561147,-20.2436,0.155349,-0.14484,0.0462076,0,0,3.4475,0.49,-0.21,0.125538,-0.531066,-0.884378,-0.04942,0.25998,0.37772
-15.8431,0,0,20.8431,20.8431,5,5,23.6465,0.752032,-20.3535,0.152018,-0.142718,0.0452396,0,0,3.0275,-0.1925,-0.4375,0.125538,-0.531066,-0.884378,-0.04942,0.25998,0.37772
-15.8287,0,0,20.8287,20.8287,5,5,23.625,0.601815,-20.3104,-0.108984,0.0147389,-0.0583502,0,0,3.395,-0.2625,-0.175,-0.139202,-0.373442,-0.987346,-0.04942,0.25998,0.37772
-15.8138,0,0,20.8138,20.8138,5,5,23.6027,0.454187,-20.2667,-0.106408,0.0143928,-0.058173,0,0,2.94,-0.7525,0.0525,-0.139202,-0.373442,-0.987346,-0.04984,0.25746,0.36666
-15.7244,0,0,20.7244,20.7244,5,5,23.4693,0.465873,-20.3274,-0.00833002,0.096158,-0.100645,0,0,3.605,-0.245,0.1225,-0.040504,-0.289628,-1.03041,-0.04984,0.25746,0.36666
-15.636,0,0,20.636,20.636,5,5,23.3373,0.477628,-20.3874,-0.00853518,0.0940439,-0.0997322,0,0,3.01,0.2625,0.1225,-0.040504,-0.289628,-1.03041,-0.04984,0.25746,0.36666
-15.636,0,0,20.636,20.636,5,5,23.3373,0.478004,-20.3868,-0.0400065,-0.086094,-0.256491,1,0,3.5525,0.2625,-0.035,-0.072102,-0.469578,-1.18596,-0.04984,0.25746,0.36666
-15.6359,0,0,20.6359,20.6359,5,5,23.3372,0.477284,-20.3862,-0.039994,-0.0860949,-0.256491,1,0,3.5525,-0.315,0.245,-0.072102,-0.469578,-1.18596,-0.04984,0.25746,0.36666
-15.6358,0,0,20.6358,20.6358,5,5,23.337,0.476927,-20.3861,-0.356579,-0.103197,-0.124319,1,0,3.4475,-0.2275,-0.0875,-0.390034,-0.486658,-1.05481,-0.04984,0.25746,0.36666
-15.6359,0,0,20.6359,20.6359,5,5,23.3372,0.476849,-20.386,-0.356578,-0.103194,-0.124321,1,0,3.6925,-0.0875,-0.175,-0.390034,-0.486658,-1.05481,-0.04984,0.25746,0.36666
-15.6354,0,0,20.6354,20.6354,5,5,23.3364,0.47731,-20.3853,0.0823417,0.0488412,0.127484,1,0,3.1325,0.3325,0,0.050752,-0.334768,-0.804956,-0.04984,0.25746,0.36666
-15.6349,0,0,20.6349,20.6349,5,5,23.3357,0.476768,-20.3861,0.0823511,0.0488307,0.127488,1,0,3.22,-0.5425,-0.5425,0.050752,-0.334768,-0.804956,-0.04998,0.2611,0.36666
-15.634,0,0,20.634,20.634,5,5,23.3343,0.477097,-20.3866,0.0281628,0.0723785,-0.175816,1,0,2.8,-0.0175,-0.6125,-0.00366,-0.311222,-1.10593,-0.04998,0.2611,0.36666
-15.6337,0,0,20.6337,20.6337,5,5,23.3339,0.477524,-20.3873,0.0281553,0.0723719,-0.175813,1,0,3.36,0,-0.7175,-0.00366,-0.311222,-1.10593,-0.04998,0.2611,0.36666
-15.6339,0,0,20.6339,20.6339,5,5,23.3342,0.479023,-20.388,0.150587,-0.128278,-0.079301,1,0,3.7625,0.5775,-0.9625,0.119316,-0.511668,-1.01016,-0.04998,0.2611,0.36666
-15.6341,0,0,20.6341,20.6341,5,5,23.3345,0.479733,-20.3897,0.150574,-0.128272,-0.0793034,1,0,3.78,-0.07,-1.295,0.119316,-0.511668,-1.01016,-0.04998,0.2611,0.36666
-15.7239,0,0,20.7239,20.7239,5,5,23.4685,0.112208,-20.2014,-0.229214,-0.055402,0.0786478,0,0,3.9725,0.56,-0.9625,-0.268522,-0.44103,-0.852536,-0.04998,0.2611,0.36666
-15.8109,0,0,20.8109,20.8109,5,5,23.5984,-0.247393,-20.0164,-0.222938,-0.0533257,0.0777355,0,0,3.9025,-0.455,-1.015,-0.268522,-0.44103,-0.852536,-0.04998,0.2611,0.36666
-15.8502,0,0,20.8502,20.8502,5,5,23.6569,-0.175937,-20.0729,0.058512,-0.0815763,-0.0242251,0,0,3.535,-0.21,-0.77,0.015372,-0.470188,-0.953308,-0.04998,0.2611,0.36666
-15.8888,0,0,20.8888,20.8888,5,5,23.7147,-0.106802,-20.1282,0.0573054,-0.0806525,-0.0246271,0,0,3.605,-0.4375,-0.3325,0.015372,-0.470188,-0.953308,-0.04998,0.2611,0.36666
-15.8885,0,0,20.8885,20.8885,5,5,23.7141,-0.110103,-20.1214,-0.0590203,-0.151373,-0.0676554,1,0,3.29,-0.2275,4.1825,-0.101504,-0.540826,-0.996008,-0.04942,0.26054,0.3675
-15.8878,0,0,20.8878,20.8878,5,5,23.7131,-0.110016,-20.1206,0.332405,0.065508,-0.278013,1,0,3.01,0.1575,0.14,0.29158,-0.324154,-1.20475,-0.04942,0.26054,0.3675
-15.8879,0,0,20.8879,20.8879,5,5,23.7133,-0.110495,-20.1205,0.332413,0.0655115,-0.278015,1,0,3.71,-0.2975,-0.07,0.29158,-0.324154,-1.20475,-0.04942,0.26054,0.3675
-15.8883,0,0,20.8883,20.8883,5,5,23.7138,-0.110992,-20.1202,0.156025,-0.0866505,0.466927,1,0,3.8675,-0.2625,0.035,0.114436,-0.476166,-0.465552,-0.04942,0.26054,0.3675
-15.889,0,0,20.889,20.889,5,5,23.7149,-0.111212,-20.1197,0.156029,-0.0866335,0.466919,1,0,4.1825,-0.07,0.07,0.114436,-0.476166,-0.465552,-0.04942,0.26054,0.3675
-15.8889,0,0,20.8889,20.8889,5,5,23.7148,-0.111158,-20.1188,-0.312178,0.0370803,-0.161593,1,0,3.57,0.175,0.2275,-0.355752,-0.35258,-1.08922,-0.04942,0.26054,0.3675
-15.8885,0,0,20.8885,20.8885,5,5,23.7142,-0.111124,-20.1183,-0.312179,0.0370693,-0.161588,1,0,3.2025,0.07,0.0175,-0.355752,-0.35258,-1.08922,-0.04942,0.26054,0.3675
-15.8883,0,0,20.8883,20.8883,5,5,23.7139,-0.111675,-20.1188,-0.169302,0.155528,-0.18925,1,0,3.4475,-0.49,-0.4025,-0.21228,-0.23424,-1.11667,-0.04942,0.26054,0.3675
-15.888,0,0,20.888,20.888,5,5,23.7134,-0.112796,-20.1192,-0.169282,0.15552,-0.189246,1,0,3.3075,-0.77,-0.21,-0.21228,-0.23424,-1.11667,-0.04662,0.25718,0.37212
-15.7587,0,0,20.7587,20.7587,5,5,23.5205,0.0773183,-20.2807,0.0962474,0.175884,0.0465663,0,0,3.5,-0.1925,-0.5775,0.057706,-0.210816,-0.884012,-0.04662,0.25718,0.37212
-15.6333,0,0,20.6333,20.6333,5,5,23.3333,0.262525,-20.4425,0.093015,0.172882,0.0478565,0,0,4.5325,-0.1225,-1.05,0.057706,-0.210816,-0.884012,-0.04662,0.25718,0.37212
-15.6343,0,0,20.6343,20.6343,5,5,23.3348,0.262774,-20.4438,0.267707,0.0461393,0.153336,1,0,4.4625,-0.2275,-0.98,0.233142,-0.337452,-0.779336,-0.04662,0.25718,0.37212
-15.6354,0,0,20.6354,20.6354,5,5,23.3364,0.263023,-20.445,0.267703,0.0461642,0.153325,1,0,4.4625,-0.2275,-0.98,0.233142,-0.337452,-0.779336,-0.04662,0.25718,0.37212
-15.7224,0,0,20.7224,20.7224,5,5,23.4663,-0.0123369,-20.2969,-0.163382,-0.0482314,0.102394,0,0,4.1475,0.2275,-0.595,-0.204594,-0.433832,-0.82899,-0.04662,0.25718,0.37212
-15.7765,0,0,20.7765,20.7765,5,5,23.547,0.151107,-20.3937,0.122051,-0.0833346,0.0406006,0,0,3.605,0.1925,-0.5075,0.084912,-0.470188,-0.889746,-0.04662,0.25718,0.37212
-15.8305,0,0,20.8305,20.8305,5,5,23.6277,0.309453,-20.4883,0.119287,-0.0820483,0.0400269,0,0,4.2,-0.1925,0.2625,0.084912,-0.470188,-0.889746,-0.04662,0.25718,0.37212
-15.8321,0,0,20.8321,20.8321,5,5,23.6299,0.307994,-20.4874,0.134377,0.19778,0.183,1,0,4.8475,-0.6475,0.56,0.10004,-0.190686,-0.74786,-0.04718,0.25788,0.36946
-15.8333,0,0,20.8333,20.8333,5,5,23.6317,0.307085,-20.4862,0.134393,0.197809,0.182988,1,0,4.6025,-0.28,0.595,0.10004,-0.190686,-0.74786,-0.04718,0.25788,0.36946
-15.7585,0,0,20.7585,20.7585,5,5,23.5202,0.45931,-20.6163,0.0914028,0.0808518,-0.0397701,0,0,4.935,0.0525,0.315,0.059536,-0.305732,-0.969656,-0.04718,0.25788,0.36946
-15.7586,0,0,20.7586,20.7586,5,5,23.5204,0.459472,-20.6157,-0.0631298,0.103448,0.224568,1,0,3.6925,0.1575,0.035,-0.095648,-0.283162,-0.707356,-0.04718,0.25788,0.36946
-15.7593,0,0,20.7593,20.7593,5,5,23.5213,0.459705,-20.6147,-0.0631339,0.103464,0.224561,1,0,4.13,0.28,0.21,-0.095648,-0.283162,-0.707356,-0.04718,0.25788,0.36946
-15.5453,0,0,20.5453,20.5453,5,5,23.2019,0.332913,-20.6338,-0.138186,0.298518,-0.155092,0,0,3.5175,0.2275,0.1575,-0.17324,-0.083204,-1.08629,-0.04718,0.25788,0.36946
-15.3363,0,0,20.3363,20.3363,5,5,22.89,0.208084,-20.6533,-0.136007,0.293512,-0.152952,0,0,4.69,-0.0875,-0.455,-0.17324,-0.083204,-1.08629,-0.04718,0.25788,0.36946
-15.2105,0,0,20.2105,20.2105,5,5,22.7023,0.0133467,-20.6116,-0.167839,0.180825,-0.10803,0,0,4.69,-0.6475,-0.91,-0.20862,-0.19276,-1.04298,-0.04718,0.25788,0.36946
-15.086,0,0,20.086,20.086,5,5,22.5164,-0.176601,-20.5664,-0.164524,0.177829,-0.106787,0,0,4.0425,-0.175,-0.91,-0.20862,-0.19276,-1.04298,-0.04396,0.25634,0.37772
-15.0871,0,0,20.0871,20.0871,5,5,22.5181,-0.175899,-20.5676,0.117432,0.192877,0.20168,1,0,4.515,0.035,-1.0675,0.074542,-0.177754,-0.73688,-0.04396,0.25634,0.37772
-15.0873,0,0,20.0873,20.0873,5,5,22.5184,-0.174275,-20.5693,0.117404,0.192882,0.201678,1,0,3.745,0.4375,-1.505,0.074542,-0.177754,-0.73688,-0.04396,0.25634,0.37772
-15.0883,0,0,20.0883,20.0883,5,5,22.5198,-0.173292,-20.5715,0.280056,-0.0757743,0.39396,1,0,4.375,-0.035,-1.6625,0.2379,-0.446154,-0.546072,-0.04396,0.25634,0.37772
-15.0897,0,0,20.0897,20.0897,5,5,22.522,-0.172728,-20.5728,0.280046,-0.075739,0.393945,1,0,4.8125,-0.0525,-1.0675,0.2379,-0.446154,-0.546072,-0.04396,0.25634,0.37772
-15.288,0,0,20.288,20.288,5,5,22.8179,-0.0263219,-20.6195,0.127213,-0.201892,0.211963,0,0,4.795,0.035,-0.7175,0.086986,-0.576938,-0.72468,-0.04396,0.25634,0.37772
-15.4829,0,0,20.4829,20.4829,5,5,23.1088,0.11744,-20.6639,0.124704,-0.197217,0.209979,0,0,4.8125,0.2275,-0.245,0.086986,-0.576938,-0.72468,-0.04396,0.25634,0.37772
-15.4841,0,0,20.4841,20.4841,5,5,23.1107,0.116499,-20.6637,-0.133072,-0.00215126,0.187344,1,0,4.6025,-0.525,0.0875,-0.171898,-0.382104,-0.747128,-0.04396,0.25634,0.37772
-15.4849,0,0,20.4849,20.4849,5,5,23.1118,0.114318,-20.6625,-0.133034,-0.00213266,0.187337,1,0,4.235,-0.9625,0.91,-0.171898,-0.382104,-0.747128,-0.04522,0.26264,0.3724
-15.2302,0,0,20.2302,20.2302,5,5,22.7316,0.504762,-20.9807,0.237121,0.313178,-0.10396,0,0,4.4625,-0.9975,0.945,0.206668,-0.061,-1.03871,-0.04522,0.26264,0.3724
-14.9801,0,0,19.9801,19.9801,5,5,22.3583,0.887401,-21.3001,0.230443,0.307131,-0.101537,0,0,4.655,0.3325,0.63,0.206668,-0.061,-1.03871,-0.04522,0.26264,0.3724
-14.9812,0,0,19.9812,19.9812,5,5,22.36,0.887601,-21.2984,0.399305,0.0610735,-0.336995,1,0,4.5325,0.42,0.63,0.376248,-0.30683,-1.27234,-0.04522,0.26264,0.3724
-14.9831,0,0,19.9831,19.9831,5,5,22.3628,0.886954,-21.2978,0.399316,0.0611185,-0.337013,1,0,5.145,-0.2975,0.1925,0.376248,-0.30683,-1.27234,-0.04522,0.26264,0.3724
-14.9849,0,0,19.9849,19.9849,5,5,22.3656,0.886071,-21.2976,0.0301368,-0.0846564,-0.538052,1,0,5.1275,-0.49,0.0875,0.00549,-0.452498,-1.47181,-0.04522,0.26264,0.3724
-14.9859,0,0,19.9859,19.9859,5,5,22.3669,0.885847,-21.2977,0.0301407,-0.0846342,-0.538061,1,0,4.3575,-0.21,-0.245,0.00549,-0.452498,-1.47181,-0.04522,0.26264,0.3724
-14.9874,0,0,19.9874,19.9874,5,5,22.3693,0.884624,-21.2988,0.047656,0.151841,0.315432,1,0,4.9175,-0.98,-0.5775,0.023058,-0.216306,-0.624884,-0.04522,0.26264,0.3724
-14.9874,0,0,19.9874,19.9874,5,5,22.3693,0.883685,-21.3004,0.0476723,0.151841,0.315432,1,0,3.605,-0.945,-0.9275,0.023058,-0.216306,-0.624884,-0.04438,0.25844,0.3759
-14.9887,0,0,19.9887,19.9887,5,5,22.3711,0.882598,-21.3023,-0.101372,-0.24614,-0.0489989,1,0,4.62,-1.0675,-0.9975,-0.126636,-0.613904,-0.986492,-0.04438,0.25844,0.3759
-14.9899,0,0,19.9899,19.9899,5,5,22.3729,0.881512,-21.3041,-0.101353,-0.246111,-0.0490106,1,0,4.62,-1.0675,-0.9975,-0.126636,-0.613904,-0.986492,-0.04438,0.25844,0.3759
-15.1205,0,0,20.1205,20.1205,5,5,22.5679,0.637311,-21.1656,-0.155404,-0.166615,0.0231412,0,0,4.6025,-0.07,-1.3825,-0.185196,-0.537654,-0.913658,-0.04438,0.25844,0.3759
-15.2481,0,0,20.2481,20.2481,5,5,22.7584,0.399755,-21.0295,-0.151258,-0.163534,0.0218952,0,0,4.6025,-0.07,-1.3825,-0.185196,-0.537654,-0.913658,-0.04438,0.25844,0.3759
-15.2501,0,0,20.2501,20.2501,5,5,22.7613,0.400446,-21.0289,-0.0500726,-0.0198657,-0.177178,1,0,5.2325,0.4375,-0.0875,-0.08357,-0.394182,-1.11118,-0.04438,0.25844,0.3759
-15.252,0,0,20.252,20.252,5,5,22.7642,0.401138,-21.0283,-0.0500847,-0.0198184,-0.177198,1,0,5.2325,0.4375,-0.0875,-0.08357,-0.394182,-1.11118,-0.04438,0.25844,0.3759
-15.1961,0,0,20.1961,20.1961,5,5,22.6808,0.200042,-20.9625,-0.164902,0.0703185,-0.117358,0,0,4.4275,-0.4725,0.7175,-0.202398,-0.302804,-1.05237,-0.04438,0.25844,0.3759
-15.1413,0,0,20.1413,20.1413,5,5,22.5989,0.00208019,-20.8871,-0.161447,0.0690015,-0.116802,0,0,4.4275,-0.4725,0.7175,-0.202398,-0.302804,-1.05237,-0.04648,0.25256,0.37142
-15.0255,0,0,20.0255,20.0255,5,5,22.4261,-0.111716,-20.8722,-0.0970171,0.175518,-0.0212243,0,0,4.5675,0.4375,1.12,-0.13969,-0.193614,-0.958676,-0.04648,0.25256,0.37142
-14.9116,0,0,19.9116,19.9116,5,5,22.2562,-0.223279,-20.8571,-0.09507,0.172773,-0.0201022,0,0,4.5675,0.4375,1.12,-0.13969,-0.193614,-0.958676,-0.04648,0.25256,0.37142
-14.9131,0,0,19.9131,19.9131,5,5,22.2583,-0.223651,-20.8562,-0.0394231,-0.144723,-0.370396,1,0,4.7775,-0.0875,0.28,-0.083814,-0.510814,-1.30625,-0.04648,0.25256,0.37142
-14.9145,0,0,19.9145,19.9145,5,5,22.2604,-0.224022,-20.8554,-0.0394166,-0.144688,-0.370411,1,0,4.7775,-0.0875,0.28,-0.083814,-0.510814,-1.30625,-0.04648,0.25256,0.37142
-14.9175,0,0,19.9175,19.9175,5,5,22.2649,-0.225106,-20.855,0.278895,-0.0327483,0.335776,1,0,6.09,-0.56,0.2275,0.235826,-0.399062,-0.605486,-0.04648,0.25256,0.37142
-14.8036,0,0,19.8036,19.8036,5,5,22.095,-0.235547,-20.8986,-0.026338,0.159542,-0.0331803,0,0,5.355,-0.49,-0.1925,-0.070882,-0.204228,-0.972706,-0.04648,0.25256,0.37142
-14.6914,0,0,19.6914,19.6914,5,5,21.9274,-0.246387,-20.9432,-0.0261488,0.15683,-0.0320847,0,0,4.8825,-0.8575,-0.805,-0.070882,-0.204228,-0.972706,-0.04648,0.25256,0.37142
-14.6922,0,0,19.6922,19.6922,5,5,21.9286,-0.247423,-20.9445,0.0341262,0.000650206,-0.120001,1,0,4.2875,-0.9275,-0.7525,-0.01037,-0.360266,-1.05994,-0.04382,0.25522,0.37198
-14.6931,0,0,19.6931,19.6931,5,5,21.9299,-0.248126,-20.9459,0.113347,0.114615,0.134371,1,0,4.305,-0.7525,-0.84,0.069174,-0.24644,-0.807518,-0.04382,0.25522,0.37198
-14.6945,0,0,19.6945,19.6945,5,5,21.932,-0.247088,-20.9466,0.113329,0.114649,0.134357,1,0,4.76,0.3325,-0.875,0.069174,-0.24644,-0.807518,-0.04382,0.25522,0.37198
-14.7917,0,0,19.7917,19.7917,5,5,22.0771,-0.20577,-20.9642,0.0477345,-0.139956,0.0344375,0,0,4.585,-0.3675,-0.9275,0.004026,-0.503128,-0.905728,-0.04382,0.25522,0.37198
-14.8882,0,0,19.8882,19.8882,5,5,22.2213,-0.165859,-20.9802,0.047038,-0.137626,0.0334912,0,0,5.495,-0.525,0.0175,0.004026,-0.503128,-0.905728,-0.04382,0.25522,0.37198
-14.9266,0,0,19.9266,19.9266,5,5,22.2785,-0.0356367,-21.0626,0.0961536,-0.044005,0.0548784,0,0,6.125,-0.4375,0.6825,0.055632,-0.41053,-0.884134,-0.04382,0.25522,0.37198
-14.9635,0,0,19.9635,19.9635,5,5,22.3336,0.0910508,-21.1446,0.0939425,-0.0431155,0.0545123,0,0,5.3375,-0.805,0.4725,0.055632,-0.41053,-0.884134,-0.04382,0.25522,0.37198
-14.9482,0,0,19.9482,19.9482,5,5,22.3108,0.294998,-21.2855,0.143472,0.0013313,0.000801389,0,0,4.7075,-0.9625,0.7525,0.108946,-0.365756,-0.93757,-0.04382,0.25522,0.37198
-14.9328,0,0,19.9328,19.9328,5,5,22.2878,0.495422,-21.4273,0.139974,0.000950679,0.000931408,0,0,4.2,0.0875,1.155,0.108946,-0.365756,-0.93757,-0.0448,0.25704,0.3668
-14.9336,0,0,19.9336,19.9336,5,5,22.2889,0.495006,-21.4254,0.21591,0.00951848,0.391285,1,0,4.235,0.1225,0.8575,0.185196,-0.357216,-0.55022,-0.0448,0.25704,0.3668
-14.9343,0,0,19.9343,19.9343,5,5,22.2901,0.495017,-21.4245,0.21591,0.00953675,0.391278,1,0,4.2175,0.14,0.245,0.185196,-0.357216,-0.55022,-0.0448,0.25704,0.3668
-14.9358,0,0,19.9358,19.9358,5,5,22.2922,0.494448,-21.424,-0.41617,-0.30979,-0.0161876,1,0,4.7775,-0.2625,0.1575,-0.44957,-0.676246,-0.954528,-0.0448,0.25704,0.3668
-14.9393,0,0,19.9393,19.9393,5,5,22.2974,0.49412,-21.4237,-0.416165,-0.309706,-0.0162223,1,0,6.5275,-0.175,0,-0.44957,-0.676246,-0.954528,-0.0448,0.25704,0.3668
-14.9415,0,0,19.9415,19.9415,5,5,22.3008,0.493132,-21.4239,-0.156411,0.0037261,-0.366525,1,0,5.4775,-0.665,-0.175,-0.188734,-0.363194,-1.30211,-0.0448,0.25704,0.3668
-14.9445,0,0,19.9445,19.9445,5,5,22.3052,0.493347,-21.4257,-0.156415,0.00379741,-0.366554,1,0,6.0725,-0.35,-1.26,-0.188734,-0.363194,-1.30211,-0.0448,0.25704,0.3668
-14.9464,0,0,19.9464,19.9464,5,5,22.3081,0.492989,-21.4285,0.182172,-0.0733407,-0.104447,1,0,5.1975,-0.8925,-1.6975,0.15128,-0.440298,-1.042,-0.0448,0.25704,0.3668
-14.9462,0,0,19.9462,19.9462,5,5,22.3078,0.493588,-21.4304,0.182162,-0.073345,-0.104445,1,0,3.4475,-0.1575,-1.3825,0.15128,-0.440298,-1.042,-0.04984,0.2611,0.3724
-14.9872,0,0,19.9872,19.9872,5,5,22.369,0.188403,-21.2829,-0.187174,0.02499,0.115625,0,0,4.025,-0.455,-1.47,-0.224968,-0.343064,-0.823256,-0.04984,0.2611,0.3724
-15.0276,0,0,20.0276,20.0276,5,5,22.4293,-0.108412,-21.1364,-0.181993,0.0259636,0.115228,0,0,4.7075,0.14,-1.4175,-0.224968,-0.343064,-0.823256,-0.04984,0.2611,0.3724
-15.0079,0,0,20.0079,20.0079,5,5,22.3999,-0.316037,-21.0545,-0.144354,0.065176,0.0236911,0,0,5.355,-0.665,-1.3825,-0.190808,-0.303414,-0.914268,-0.04984,0.2611,0.3724
-14.9895,0,0,19.9895,19.9895,5,5,22.3724,-0.518696,-20.9708,-0.140817,0.0647228,0.0238499,0,0,6.4575,-0.14,-0.2275,-0.190808,-0.303414,-0.914268,-0.04984,0.2611,0.3724
-14.9925,0,0,19.9925,19.9925,5,5,22.3769,-0.519955,-20.9701,-0.115404,-0.0198387,0.176768,1,0,6.1075,-0.6125,0.3675,-0.16531,-0.38796,-0.7625,-0.04984,0.2611,0.3724
-14.9944,0,0,19.9944,19.9944,5,5,22.3797,-0.521184,-20.9687,-0.115383,-0.0197941,0.176749,1,0,5.145,-0.42,0.7875,-0.16531,-0.38796,-0.7625,-0.04984,0.2611,0.3724
-14.9955,0,0,19.9955,19.9955,5,5,22.3813,-0.523258,-20.9671,0.185938,0.00539032,-0.302269,1,0,4.515,-0.84,1.0675,0.13725,-0.362828,-1.23781,-0.04984,0.2611,0.3724
-14.9955,0,0,19.9955,19.9955,5,5,22.3813,-0.524463,-20.9645,0.185959,0.00538984,-0.302269,1,0,3.5875,-0.1225,1.47,0.13725,-0.362828,-1.23781,-0.05264,0.25984,0.36848
-14.996,0,0,19.996,19.996,5,5,22.382,-0.525436,-20.9626,0.14212,-0.311762,0.40972,1,0,4.0075,-0.1925,0.945,0.093208,-0.679662,-0.53131,-0.05264,0.25984,0.36848
-14.9975,0,0,19.9975,19.9975,5,5,22.3843,-0.525404,-20.9614,0.142119,-0.311724,0.409705,1,0,4.8825,0.2275,0.42,0.093208,-0.679662,-0.53131,-0.05264,0.25984,0.36848
-15.1331,0,0,20.1331,20.1331,5,5,22.5867,-0.65412,-20.8693,-0.0730939,-0.202219,0.00444702,0,0,5.915,0.035,0.07,-0.125172,-0.573522,-0.93208,-0.05264,0.25984,0.36848
-15.2659,0,0,20.2659,20.2659,5,5,22.7849,-0.778968,-20.7788,-0.070915,-0.199038,0.00308786,0,0,5.915,0.035,0.07,-0.125172,-0.573522,-0.93208,-0.05264,0.25984,0.36848
-15.205,0,0,20.205,20.205,5,5,22.694,-0.77824,-20.8109,-0.00969894,0.085886,-0.0219951,0,0,5.3725,-0.91,-0.9275,-0.063684,-0.287432,-0.957578,-0.05264,0.25984,0.36848
-15.1452,0,0,20.1452,20.1452,5,5,22.6048,-0.777796,-20.8429,-0.00970668,0.0844492,-0.0213954,0,0,5.3725,-0.91,-0.9275,-0.063684,-0.287432,-0.957578,-0.05264,0.25984,0.36848
-14.9367,0,0,19.9367,19.9367,5,5,22.2936,-0.402967,-21.1133,0.237292,0.247013,-0.117987,0,0,4.5325,4.27,-1.4525,0.19093,-0.120048,-1.05554,-0.05264,0.25984,0.36848
-14.732,0,0,19.732,19.732,5,5,21.9881,-0.0376711,-21.3846,0.230917,0.242083,-0.115954,0,0,4.5325,4.27,-1.4525,0.19093,-0.120048,-1.05554,-0.05264,0.25984,0.36848
-14.7339,0,0,19.7339,19.7339,5,5,21.9909,-0.0364696,-21.3858,0.00250268,0.0888593,-0.17634,1,0,5.1625,0.315,-1.1725,-0.03843,-0.273158,-1.11545,-0.0511,0.25718,0.37604
-14.824,0,0,19.824,19.824,5,5,22.1253,0.303751,-21.5625,0.270879,-0.160307,0.0579658,0,0,5.6,-0.035,-1.015,0.237046,-0.524234,-0.88206,-0.0511,0.25718,0.37604
-14.913,0,0,19.913,19.913,5,5,22.2583,0.635991,-21.7359,0.265081,-0.158178,0.0570457,0,0,5.6,-0.035,-1.015,0.237046,-0.524234,-0.88206,-0.0511,0.25718,0.37604
-14.9158,0,0,19.9158,19.9158,5,5,22.2624,0.635797,-21.7345,0.172755,-0.00520817,-0.112405,1,0,5.8975,0.14,0.56,0.144326,-0.37149,-1.05018,-0.0511,0.25718,0.37604
-15,0,0,20,20,5,5,22.3881,0.235804,-21.5091,-0.286161,-0.082785,-0.000199272,0,0,5.04,0.35,0.7875,-0.323544,-0.451034,-0.938058,-0.0511,0.25718,0.37604
-15.0761,0,0,20.0761,20.0761,5,5,22.5017,-0.154861,-21.286,-0.279343,-0.0809506,-0.000951829,0,0,0.4025,0.2275,1.015,-0.323544,-0.451034,-0.938058,-0.0511,0.25718,0.37604
-15.076,0,0,20.076,20.076,5,5,22.5014,-0.154993,-21.2834,0.148289,0.0963728,0.242242,1,0,3.43,0.4375,1.1725,0.105896,-0.27389,-0.696742,-0.0511,0.25718,0.37604
-15.0783,0,0,20.0783,20.0783,5,5,22.5049,-0.155348,-21.2808,0.148295,0.096429,0.242219,1,0,5.5475,0.3325,1.26,0.105896,-0.27389,-0.696742,-0.0469,0.25242,0.36904
-15.0809,0,0,20.0809,20.0809,5,5,22.5089,-0.154819,-21.2779,0.0158664,-0.0810795,-0.379189,1,0,5.81,0.8575,1.1725,-0.027084,-0.451278,-1.31333,-0.0469,0.25242,0.36904
-15.0846,0,0,20.0846,20.0846,5,5,22.5144,-0.154968,-21.2765,0.015869,-0.0809905,-0.379226,1,0,6.685,0.1575,0.525,-0.027084,-0.451278,-1.31333,-0.0469,0.25242,0.36904
-15.0895,0,0,20.0895,20.0895,5,5,22.5216,-0.155665,-21.2765,-0.205223,-0.226327,-0.241572,1,0,7.6475,-0.4375,-0.07,-0.249124,-0.59658,-1.17669,-0.0469,0.25242,0.36904
-15.0914,0,0,20.0914,20.0914,5,5,22.5244,-0.156092,-21.2776,-0.205215,-0.226281,-0.241591,1,0,5.1625,-0.5425,-0.735,-0.249124,-0.59658,-1.17669,-0.0469,0.25242,0.36904
-15.3232,0,0,20.3232,20.3232,5,5,22.8705,-0.189675,-21.2006,0.0162318,-0.236587,0.216642,0,0,5.215,-0.3675,-1.015,-0.027328,-0.61244,-0.719678,-0.0469,0.25242,0.36904
-15.549,0,0,20.549,20.549,5,5,23.2074,-0.220465,-21.1255,0.0167692,-0.231176,0.214339,0,0,3.675,-0.0525,-1.4525,-0.027328,-0.61244,-0.719678,-0.0469,0.25242,0.36904
-15.7204,0,0,20.7204,20.7204,5,5,23.4633,-0.112607,-21.1409,0.100777,-0.191901,0.172125,0,0,2.5725,-0.1925,-1.645,0.058926,-0.577304,-0.759816,-0.0469,0.25242,0.36904
-15.8935,0,0,20.8935,20.8935,5,5,23.7217,-0.00965095,-21.1647,0.0989802,-0.187767,0.170322,0,0,5.8625,-0.49,-1.4525,0.058926,-0.577304,-0.759816,-0.04634,0.25942,0.37562
-15.7594,0,0,20.7594,20.7594,5,5,23.5215,0.179877,-21.3244,0.109643,0.160021,-0.0665569,0,0,5.215,-0.14,-0.875,0.072956,-0.226676,-0.996252,-0.04634,0.25942,0.37562
-15.6316,0,0,20.6316,20.6316,5,5,23.3308,0.363495,-21.4839,0.106438,0.156962,-0.0652477,0,0,8.3475,-0.525,-0.7,0.072956,-0.226676,-0.996252,-0.04634,0.25942,0.37562
-15.6368,0,0,20.6368,20.6368,5,5,23.3385,0.362427,-21.4837,-0.100433,0.384607,-0.224519,1,0,7.8925,-0.6125,0.07,-0.13481,0.00061,-1.15424,-0.04634,0.25942,0.37562
-15.6419,0,0,20.6419,20.6419,5,5,23.3461,0.36136,-21.4836,-0.100414,0.38473,-0.224572,1,0,7.8925,-0.6125,0.07,-0.13481,0.00061,-1.15424,-0.04634,0.25942,0.37562
-15.6459,0,0,20.6459,20.6459,5,5,23.3521,0.419415,-21.5343,0.0453271,-0.0437203,-0.0808926,0,0,6.37,0.42,0.5075,0.012566,-0.427488,-1.01162,-0.04634,0.25942,0.37562
-15.6499,0,0,20.6499,20.6499,5,5,23.3581,0.476044,-21.5844,0.0443387,-0.0436274,-0.0809411,0,0,6.37,0.42,0.5075,0.012566,-0.427488,-1.01162,-0.04634,0.25942,0.37562
-15.65,0,0,20.65,20.65,5,5,23.3583,0.47537,-21.5835,0.0165303,0.0541992,0.438023,1,0,3.6925,-0.21,0.42,-0.015372,-0.329766,-0.496662,-0.04634,0.25942,0.37562
-15.6502,0,0,20.6502,20.6502,5,5,23.3584,0.474696,-21.5825,0.0165421,0.0542024,0.438022,1,0,3.6925,-0.21,0.42,-0.015372,-0.329766,-0.496662,-0.04634,0.25942,0.37562
-15.6531,0,0,20.6531,20.6531,5,5,23.3629,0.474616,-21.5812,0.0367101,-0.491878,-0.416624,1,0,6.055,0.1925,0.4725,0.00488,-0.87535,-1.34468,-0.04284,0.25844,0.36932
-15.4788,0,0,20.4788,20.4788,5,5,23.1027,0.30872,-21.5716,-0.156108,0.265784,-0.08605,0,0,7.945,-0.5775,-0.8225,-0.191662,-0.114314,-1.01846,-0.04284,0.25844,0.36932
-15.3073,0,0,20.3073,20.3073,5,5,22.8467,0.145799,-21.5611,-0.153265,0.261676,-0.0842959,0,0,7.945,-0.5775,-0.8225,-0.191662,-0.114314,-1.01846,-0.04284,0.25844,0.36932
-15.3112,0,0,20.3112,20.3112,5,5,22.8525,0.152611,-21.5599,-0.0751466,0.0852955,-0.319044,1,0,6.825,3.885,-1.1375,-0.113094,-0.290604,-1.25135,-0.04284,0.25844,0.36932
-15.3151,0,0,20.3151,20.3151,5,5,22.8583,0.159423,-21.5587,-0.0752655,0.0853883,-0.319083,1,0,6.825,3.885,-1.1375,-0.113094,-0.290604,-1.25135,-0.04284,0.25844,0.36932
-15.3154,0,0,20.3154,20.3154,5,5,22.8588,0.160192,-21.5615,-0.166029,0.0637798,0.1282,1,0,3.8675,-0.2975,-1.9425,-0.204228,-0.312198,-0.807518,-0.04284,0.25844,0.36932
-15.3157,0,0,20.3157,20.3157,5,5,22.8593,0.160961,-21.5643,-0.166042,0.0637877,0.128196,1,0,3.8675,-0.2975,-1.9425,-0.204228,-0.312198,-0.807518,-0.04284,0.25844,0.36932
-15.3186,0,0,20.3186,20.3186,5,5,22.8636,0.160853,-21.5651,0.317594,0.108068,-0.133222,1,0,6.0375,-0.315,-0.665,0.281454,-0.268034,-1.06689,-0.04676,0.25942,0.36792
-15.3227,0,0,20.3227,20.3227,5,5,22.8697,0.161457,-21.5653,-0.188404,-0.21315,-0.142853,1,0,7,0.2275,-0.455,-0.226676,-0.589016,-1.07641,-0.04676,0.25942,0.36792
-15.3268,0,0,20.3268,20.3268,5,5,22.8758,0.162062,-21.5654,-0.188415,-0.213052,-0.142894,1,0,7,0.2275,-0.455,-0.226676,-0.589016,-1.07641,-0.04676,0.25942,0.36792
-15.33,0,0,20.33,20.33,5,5,22.8806,0.161435,-21.5636,-0.129969,0.0817173,-0.158664,1,0,6.2825,0,0.8575,-0.167994,-0.29463,-1.09202,-0.04676,0.25942,0.36792
-15.3332,0,0,20.3332,20.3332,5,5,22.8854,0.160807,-21.5618,-0.129958,0.0817947,-0.158697,1,0,6.2825,0,0.8575,-0.167994,-0.29463,-1.09202,-0.04676,0.25942,0.36792
-15.0208,0,0,20.0208,20.0208,5,5,22.4191,0.749518,-21.9967,0.366605,0.406071,-0.022116,0,0,5.3725,0.315,1.0325,0.34099,0.036844,-0.95953,-0.04676,0.25942,0.36792
-15.2812,0,0,20.2812,20.2812,5,5,22.8078,0.190304,-21.6357,-0.337728,-0.216101,0.241165,0,0,5.53,0.0175,0.735,-0.376126,-0.590968,-0.695766,-0.04676,0.25942,0.36792
-15.5372,0,0,20.5372,20.5372,5,5,23.1898,-0.356065,-21.2824,-0.328192,-0.209969,0.238547,0,0,7.0525,-0.1575,0.98,-0.376126,-0.590968,-0.695766,-0.04676,0.25942,0.36792
-15.5403,0,0,20.5403,20.5403,5,5,23.1945,-0.356542,-21.2801,-0.140124,-0.40322,-0.0572996,1,0,6.23,0.1925,1.0675,-0.18727,-0.784094,-0.989298,-0.05026,0.25998,0.37058
-15.5448,0,0,20.5448,20.5448,5,5,23.2012,-0.3577,-21.2797,-0.140103,-0.403112,-0.0573461,1,0,7.3675,-0.595,0.245,-0.18727,-0.784094,-0.989298,-0.05026,0.25998,0.37058
-15.5475,0,0,20.5475,20.5475,5,5,23.2052,-0.35762,-21.2803,-0.223444,-0.0816113,-0.498389,1,0,5.7925,-0.175,-0.6125,-0.270962,-0.46299,-1.42691,-0.05026,0.25998,0.37058
-15.5501,0,0,20.5501,20.5501,5,5,23.2091,-0.357539,-21.281,-0.223445,-0.0815481,-0.498416,1,0,5.7925,-0.175,-0.6125,-0.270962,-0.46299,-1.42691,-0.05026,0.25998,0.37058
-15.5525,0,0,20.5525,20.5525,5,5,23.2126,-0.35689,-21.2815,-0.0946819,0.231153,0.0831059,1,0,5.5475,0.1575,-0.6825,-0.141642,-0.15067,-0.849852,-0.05026,0.25998,0.37058
-15.7637,0,0,20.7637,20.7637,5,5,23.528,-0.272885,-21.2798,0.0979861,-0.258405,0.172035,0,0,5.5125,-0.7,-1.155,0.053314,-0.64477,-0.75945,-0.05026,0.25998,0.37058
-15.9722,0,0,20.9722,20.9722,5,5,23.8391,-0.19021,-21.2774,0.0965432,-0.25343,0.169859,0,0,6.1425,-0.805,-0.84,0.053314,-0.64477,-0.75945,-0.05026,0.25998,0.37058
-16.0604,0,0,21.0604,21.0604,5,5,23.9707,0.125386,-21.4315,0.222847,-0.094029,0.151718,0,0,6.4575,-0.315,-0.385,0.185684,-0.487634,-0.77653,-0.05026,0.25998,0.37058
-16.1487,0,0,21.1487,21.1487,5,5,24.1025,0.43534,-21.5722,0.217437,-0.0919401,0.150757,0,0,7.56,0.28,-0.2625,0.185684,-0.487634,-0.77653,-0.04746,0.2527,0.37744
-16.0205,0,0,21.0205,21.0205,5,5,23.9113,0.572939,-21.6921,0.077757,0.148523,-0.111997,0,0,6.44,0.28,-0.245,0.047824,-0.244366,-1.03859,-0.04746,0.2527,0.37744
-15.8951,0,0,20.8951,20.8951,5,5,23.724,0.706684,-21.8107,0.0754229,0.145523,-0.110701,0,0,6.5625,0.525,0.2975,0.047824,-0.244366,-1.03859,-0.04746,0.2527,0.37744
-15.8977,0,0,20.8977,20.8977,5,5,23.7279,0.706764,-21.8089,0.0620581,0.148639,0.236232,1,0,5.775,0.385,0.665,0.034404,-0.241316,-0.694302,-0.04746,0.2527,0.37744
-15.9,0,0,20.9,20.9,5,5,23.7313,0.707331,-21.8071,0.0620482,0.148694,0.236207,1,0,5.5125,0.665,0.595,0.034404,-0.241316,-0.694302,-0.04746,0.2527,0.37744
-15.9031,0,0,20.9031,20.9031,5,5,23.736,0.707581,-21.8052,-0.102569,0.122145,0.154537,1,0,6.195,0.525,0.735,-0.130906,-0.267912,-0.77531,-0.04746,0.2527,0.37744
-15.9075,0,0,20.9075,20.9075,5,5,23.7426,0.706311,-21.8034,-0.102547,0.122249,0.154491,1,0,7.245,-0.3325,0.9975,-0.130906,-0.267912,-0.77531,-0.04746,0.2527,0.37744
-15.9118,0,0,20.9118,20.9118,5,5,23.7489,0.704796,-21.8019,0.101818,0.0737446,0.358049,1,0,7.14,-0.5425,0.875,0.074298,-0.316468,-0.573278,-0.04746,0.2527,0.37744
-15.9161,0,0,20.9161,20.9161,5,5,23.7554,0.703684,-21.8025,0.101838,0.0738478,0.358004,1,0,7.21,-0.7875,-0.2625,0.074298,-0.316468,-0.573278,-0.04298,0.25816,0.37268
-15.9203,0,0,20.9203,20.9203,5,5,23.7616,0.703413,-21.803,0.198909,0.374623,0.32833,1,0,7.0875,-0.35,-0.49,0.171776,-0.016104,-0.60268,-0.04298,0.25816,0.37268
-15.9237,0,0,20.9237,20.9237,5,5,23.7667,0.703579,-21.8048,0.198907,0.374705,0.328294,1,0,6.4575,-0.4025,-1.2425,0.171776,-0.016104,-0.60268,-0.04298,0.25816,0.37268
-16.0053,0,0,21.0053,21.0053,5,5,23.8885,1.19482,-22.0642,0.36005,-0.112281,0.159357,0,0,6.51,-0.2975,-1.0675,0.34221,-0.50447,-0.769332,-0.04298,0.25816,0.37268
-16.0848,0,0,21.0848,21.0848,5,5,24.0072,1.67433,-22.3194,0.351683,-0.110474,0.158325,0,0,5.3375,-0.6125,-1.3825,0.34221,-0.50447,-0.769332,-0.04298,0.25816,0.37268
-16.1168,0,0,21.1168,21.1168,5,5,24.0549,1.99533,-22.5101,0.250474,-0.0851178,0.0175387,0,0,5.7925,-0.8925,-1.19,0.246196,-0.479826,-0.908534,-0.04298,0.25816,0.37268
-16.1497,0,0,21.1497,21.1497,5,5,24.104,2.3085,-22.697,0.245012,-0.0844195,0.0170019,0,0,6.6325,-0.6125,-0.525,0.246196,-0.479826,-0.908534,-0.04298,0.25816,0.37268
-16.2709,0,0,21.2709,21.2709,5,5,24.2849,2.12177,-22.5912,-0.104404,-0.0940683,0.117379,0,0,7.0175,-0.0875,-0.2625,-0.10797,-0.492392,-0.807762,-0.04298,0.25816,0.37268
-16.3894,0,0,21.3894,21.3894,5,5,24.4618,1.94024,-22.4873,-0.101238,-0.0912123,0.116208,0,0,7.0175,-0.0875,-0.2625,-0.10797,-0.492392,-0.807762,-0.04298,0.25816,0.37268
-16.3166,0,0,21.3166,21.3166,5,5,24.3532,2.1479,-22.6438,0.126692,0.092276,0.00892428,0,0,6.9825,-0.4375,0.1575,0.124562,-0.307318,-0.914878,-0.04592,0.25536,0.37576
-16.1571,0,0,21.1571,21.1571,5,5,24.115,2.1877,-22.7447,-0.00423484,0.20633,-0.119843,0,0,6.755,0.035,0.735,-0.006222,-0.189588,-1.04432,-0.04592,0.25536,0.37576
-16.0004,0,0,21.0004,21.0004,5,5,23.8812,2.2258,-22.8452,-0.0048993,0.202593,-0.118208,0,0,6.755,0.035,0.735,-0.006222,-0.189588,-1.04432,-0.04592,0.25536,0.37576
-16.0031,0,0,21.0031,21.0031,5,5,23.8852,2.21915,-22.8461,-0.0407432,-0.175811,-0.0925359,1,0,5.88,-3.85,0.8225,-0.042334,-0.567666,-1.01882,-0.04592,0.25536,0.37576
-16.0058,0,0,21.0058,21.0058,5,5,23.8893,2.21251,-22.847,-0.0406273,-0.175745,-0.0925605,1,0,5.88,-3.85,0.8225,-0.042334,-0.567666,-1.01882,-0.04592,0.25536,0.37576
-16.0103,0,0,21.0103,21.0103,5,5,23.8959,2.21095,-22.8459,-0.137546,-0.329274,-0.292152,1,0,7.28,-0.63,0.735,-0.13969,-0.721142,-1.21683,-0.04592,0.25536,0.37576
-15.7723,0,0,20.7723,20.7723,5,5,23.5407,2.58244,-23.1542,0.205977,0.308432,-0.019299,0,0,9.03,-0.525,0.42,0.211792,-0.078324,-0.948306,-0.04592,0.25536,0.37576
-15.5374,0,0,20.5374,20.5374,5,5,23.1901,2.94742,-23.4673,0.199614,0.3027,-0.017157,0,0,8.575,0.175,-0.2275,0.211792,-0.078324,-0.948306,-0.04662,0.25816,0.37394
-15.542,0,0,20.542,20.542,5,5,23.1971,2.94719,-23.4677,0.0872435,0.169693,0.449385,1,0,7.49,-0.2975,-0.4375,0.098942,-0.211304,-0.485316,-0.04662,0.25816,0.37394
-15.5452,0,0,20.5452,20.5452,5,5,23.2018,2.94583,-23.4689,0.0872672,0.16977,0.449353,1,0,6.3,-1.085,-0.595,0.098942,-0.211304,-0.485316,-0.04662,0.25816,0.37394
-15.6156,0,0,20.6156,20.6156,5,5,23.3068,2.91999,-23.4689,0.000855434,-0.121644,-0.0315846,0,0,5.8275,-0.875,-0.595,0.011712,-0.504104,-0.961848,-0.04662,0.25816,0.37394
-15.6845,0,0,20.6845,20.6845,5,5,23.4097,2.89521,-23.4695,0.0012873,-0.119989,-0.0322754,0,0,5.8275,-0.98,-0.875,0.011712,-0.504104,-0.961848,-0.04662,0.25816,0.37394
-15.6874,0,0,20.6874,20.6874,5,5,23.414,2.89421,-23.4709,-0.0870153,0.0609499,-0.205293,1,0,6.055,-0.9275,-0.7525,-0.076982,-0.323422,-1.1335,-0.04662,0.25816,0.37394
-15.6915,0,0,20.6915,20.6915,5,5,23.4201,2.89423,-23.4708,-0.0870156,0.0610474,-0.205335,1,0,7,-0.035,-0.1925,-0.076982,-0.323422,-1.1335,-0.04662,0.25816,0.37394
-15.698,0,0,20.698,20.698,5,5,23.4298,2.79672,-23.4543,-0.0695228,0.0224002,0.0260639,0,0,8.015,0.21,-0.0525,-0.061122,-0.362218,-0.903898,-0.04662,0.25816,0.37394
-15.7042,0,0,20.7042,20.7042,5,5,23.4391,2.70074,-23.4297,-0.0678496,0.0225807,0.0260731,0,0,7.875,0.175,0.1225,-0.061122,-0.362218,-0.903898,-0.05334,0.25676,0.3752
-15.7,0,0,20.7,20.7,5,5,23.4329,2.96051,-23.5905,0.20218,-0.0407479,-0.040727,0,0,7.98,0.315,0.6125,0.214598,-0.425292,-0.970022,-0.05334,0.25676,0.3752
-15.6964,0,0,20.6964,20.6964,5,5,23.4274,3.21383,-23.7497,0.197765,-0.0409302,-0.0409075,0,0,7.98,0.315,0.6125,0.214598,-0.425292,-0.970022,-0.05334,0.25676,0.3752
-15.7005,0,0,20.7005,20.7005,5,5,23.4335,3.21423,-23.7478,0.208935,0.239693,0.0829818,1,0,6.965,0.5775,0.6475,0.225822,-0.145058,-0.847046,-0.05334,0.25676,0.3752
-15.7046,0,0,20.7046,20.7046,5,5,23.4396,3.21463,-23.746,0.208928,0.239791,0.0829389,1,0,6.965,0.5775,0.6475,0.225822,-0.145058,-0.847046,-0.05334,0.25676,0.3752
-15.6202,0,0,20.6202,20.6202,5,5,23.3137,3.45854,-23.9352,0.167139,0.0787912,-0.0642019,0,0,6.93,-0.4725,0.14,0.188124,-0.30378,-0.99369,-0.05334,0.25676,0.3752
-15.5377,0,0,20.5377,20.5377,5,5,23.1905,3.69602,-24.1233,0.163002,0.0767177,-0.0635925,0,0,6.93,-0.4725,0.14,0.188124,-0.30378,-0.99369,-0.05334,0.25676,0.3752
-15.5436,0,0,20.5436,20.5436,5,5,23.1993,3.69645,-24.1235,0.0297248,0.0179936,0.592769,1,0,8.54,0.105,-0.4725,0.05429,-0.362584,-0.342332,-0.05334,0.25676,0.3752
-15.5495,0,0,20.5495,20.5495,5,5,23.2082,3.69687,-24.1238,0.0297174,0.0181346,0.592708,1,0,8.54,0.105,-0.4725,0.05429,-0.362584,-0.342332,-0.04424,0.26124,0.37296
-15.7498,0,0,20.7498,20.7498,5,5,23.5072,3.82033,-24.1589,0.144558,-0.27745,0.122448,0,0,9.45,-0.56,-1.0325,0.171776,-0.662582,-0.806786,-0.04424,0.26124,0.37296
-15.9469,0,0,20.9469,20.9469,5,5,23.8013,3.94207,-24.193,0.142438,-0.272817,0.120262,0,0,9.45,-0.56,-1.0325,0.171776,-0.662582,-0.806786,-0.04424,0.26124,0.37296
-15.9506,0,0,20.9506,20.9506,5,5,23.8069,3.94109,-24.194,-0.163324,-0.0783009,-0.0737894,1,0,6.79,-0.8225,-0.5425,-0.135298,-0.468358,-0.999302,-0.04424,0.26124,0.37296
-15.9544,0,0,20.9544,20.9544,5,5,23.8126,3.94012,-24.195,-0.163307,-0.0782105,-0.073828,1,0,6.79,-0.8225,-0.5425,-0.135298,-0.468358,-0.999302,-0.04424,0.26124,0.37296
-15.79,0,0,20.79,20.79,5,5,23.5672,3.87729,-24.2763,-0.0851913,0.247039,0.0223816,0,0,5.3025,-0.3675,-0.4375,-0.05795,-0.139568,-0.905606,-0.04424,0.26124,0.37296
-15.7945,0,0,20.7945,20.7945,5,5,23.5739,3.8771,-24.2764,0.0414,-0.203502,-0.142908,1,0,7.3675,-0.1925,-0.2625,0.069174,-0.589748,-1.06957,-0.04424,0.26124,0.37296
-15.8,0,0,20.8,20.8,5,5,23.5821,3.87729,-24.2757,0.0413968,-0.203372,-0.142965,1,0,8.12,0.21,0.1225,0.069174,-0.589748,-1.06957,-0.04424,0.26124,0.37296
-15.9061,0,0,20.9061,20.9061,5,5,23.7405,3.44052,-24.0545,-0.309379,-0.0918344,0.0131328,0,0,8.855,-0.0875,0.105,-0.290726,-0.481046,-0.914024,-0.04424,0.26124,0.37296
-16.0099,0,0,21.0099,21.0099,5,5,23.8953,3.01266,-23.8252,-0.301923,-0.0891961,0.0124277,0,0,9.415,-0.4725,0.5075,-0.290726,-0.481046,-0.914024,-0.04718,0.25536,0.37226
-15.9782,0,0,20.9782,20.9782,5,5,23.8481,3.17711,-23.9496,0.116888,0.0188036,-0.0395112,0,0,8.4875,0.28,0.8575,0.132736,-0.372344,-0.965752,-0.04718,0.25536,0.37226
-15.9457,0,0,20.9457,20.9457,5,5,23.7995,3.33675,-24.074,0.114106,0.0179649,-0.0393139,0,0,7.0175,-0.2975,0.42,0.132736,-0.372344,-0.965752,-0.04718,0.25536,0.37226
-15.8483,0,0,20.8483,20.8483,5,5,23.6542,3.41404,-24.1838,0.0402327,0.106234,-0.112629,0,0,7.1225,-0.4375,0.315,0.059902,-0.28182,-1.03944,-0.04718,0.25536,0.37226
-15.7533,0,0,20.7533,20.7533,5,5,23.5124,3.4888,-24.2933,0.0389302,0.103938,-0.111713,0,0,7.5075,-0.5775,0.1925,0.059902,-0.28182,-1.03944,-0.04718,0.25536,0.37226
-15.6189,0,0,20.6189,20.6189,5,5,23.3118,3.52045,-24.3977,-0.01386,0.20306,0.0264865,0,0,8.505,-0.21,0.0175,0.007442,-0.179584,-0.903654,-0.04718,0.25536,0.37226
-15.4874,0,0,20.4874,20.4874,5,5,23.1155,3.5513,-24.5021,-0.0143974,0.199905,0.0278039,0,0,8.855,0.035,-0.4025,0.007442,-0.179584,-0.903654,-0.04718,0.25536,0.37226
-15.494,0,0,20.494,20.494,5,5,23.1254,3.55129,-24.5032,0.0197403,0.0886829,0.333263,1,0,9.1525,-0.3325,-0.84,0.041724,-0.290848,-0.600484,-0.04718,0.25536,0.37226
-15.5004,0,0,20.5004,20.5004,5,5,23.135,3.55146,-24.5042,0.0197373,0.0888359,0.333198,1,0,8.9775,-0.1925,-0.7875,0.041724,-0.290848,-0.600484,-0.04704,0.25676,0.37184
-15.5102,0,0,20.5102,20.5102,5,5,23.1496,3.53772,-24.5303,-0.0116096,0.0144572,0.0452887,0,0,7.84,0,-0.42,0.010004,-0.36539,-0.886086,-0.04704,0.25676,0.37184
-15.5202,0,0,20.5202,20.5202,5,5,23.1645,3.52359,-24.5562,-0.0113634,0.014701,0.0452009,0,0,8.12,-0.4375,-0.28,0.010004,-0.36539,-0.886086,-0.04704,0.25676,0.37184
-15.5253,0,0,20.5253,20.5253,5,5,23.1721,3.52307,-24.5565,0.0836474,0.062697,-0.222879,1,0,7.875,-0.42,-0.2975,0.105408,-0.317566,-1.15205,-0.04704,0.25676,0.37184
-15.5311,0,0,20.5311,20.5311,5,5,23.1808,3.5227,-24.5564,0.0836538,0.0628358,-0.222938,1,0,8.435,-0.2275,-0.07,0.105408,-0.317566,-1.15205,-0.04704,0.25676,0.37184
-15.4539,0,0,20.4539,20.4539,5,5,23.0655,3.60715,-24.6628,0.0356537,0.125559,0.0464088,0,0,8.7325,-0.1575,4.4625,0.058682,-0.253028,-0.885476,-0.04704,0.25676,0.37184
-15.3775,0,0,20.3775,20.3775,5,5,22.9515,3.69259,-24.7752,0.0341655,0.123693,0.0470981,0,0,8.3125,0.175,0.1225,0.058682,-0.253028,-0.885476,-0.04704,0.25676,0.37184
-15.4047,0,0,20.4047,20.4047,5,5,22.992,3.34252,-24.6194,-0.245592,0.0344825,0.0423725,0,0,8.9075,-0.3675,0.0175,-0.228384,-0.342942,-0.890234,-0.04704,0.25676,0.37184
-15.4295,0,0,20.4295,20.4295,5,5,23.0291,3.00121,-24.468,-0.239644,0.0352065,0.0424231,0,0,8.2075,-0.0875,0.3675,-0.228384,-0.342942,-0.890234,-0.04564,0.25858,0.37128
-15.4354,0,0,20.4354,20.4354,5,5,23.0379,3.00091,-24.4668,-0.0674936,-0.0045887,0.206254,1,0,8.4525,0.035,0.455,-0.05551,-0.382836,-0.727608,-0.04564,0.25858,0.37128
-15.4419,0,0,20.4419,20.4419,5,5,23.0476,2.99926,-24.4658,-0.0674649,-0.0044316,0.206189,1,0,9.03,-0.735,0.6475,-0.05551,-0.382836,-0.727608,-0.04564,0.25858,0.37128
-15.4487,0,0,20.4487,20.4487,5,5,23.0577,2.99717,-24.4655,0.0794478,-0.171216,-0.279156,1,0,9.2575,-1.1375,0.3675,0.091988,-0.54961,-1.20914,-0.04564,0.25858,0.37128
-15.4564,0,0,20.4564,20.4564,5,5,23.0692,2.99627,-24.465,0.0794634,-0.171032,-0.279234,1,0,9.9925,-0.4375,0.2275,0.091988,-0.54961,-1.20914,-0.04564,0.25858,0.37128
-15.4639,0,0,20.4639,20.4639,5,5,23.0805,2.9957,-24.4648,0.0361029,0.0157589,-0.167673,1,0,9.905,-0.3325,-0.0175,0.048434,-0.363194,-1.09837,-0.04564,0.25858,0.37128
-15.4709,0,0,20.4709,20.4709,5,5,23.091,2.99505,-24.466,0.0361142,0.0159274,-0.167744,1,0,9.5025,-0.6825,-0.7175,0.048434,-0.363194,-1.09837,-0.04564,0.25858,0.37128
-15.478,0,0,20.478,20.478,5,5,23.1015,2.9946,-24.4672,0.0677083,0.0584746,0.252053,1,0,9.5375,-0.595,-0.805,0.080154,-0.32086,-0.681736,-0.04564,0.25858,0.37128
-15.484,0,0,20.484,20.484,5,5,23.1105,2.99488,-24.4679,0.0677035,0.0586181,0.251992,1,0,8.6275,-0.07,-0.665,0.080154,-0.32086,-0.681736,-0.04284,0.25606,0.378
-15.6583,0,0,20.6583,20.6583,5,5,23.3707,2.9329,-24.3956,-0.0115183,-0.175218,0.148944,0,0,8.6975,-0.035,-0.4725,-0.000488,-0.558638,-0.782264,-0.04284,0.25606,0.378
-15.8303,0,0,20.8303,20.8303,5,5,23.6273,2.87332,-24.3247,-0.0104797,-0.171094,0.147209,0,0,9.555,-0.035,-0.385,-0.000488,-0.558638,-0.782264,-0.04284,0.25606,0.378
-15.8374,0,0,20.8374,20.8374,5,5,23.6379,2.87402,-24.3246,-0.0882427,-0.0869025,-0.122246,1,0,9.5025,0.3325,-0.35,-0.078568,-0.474702,-1.04957,-0.04284,0.25606,0.378
-15.8467,0,0,20.8467,20.8467,5,5,23.6518,2.87434,-24.3237,-0.0882484,-0.0866806,-0.122343,1,0,11.3575,0.315,0.1575,-0.078568,-0.474702,-1.04957,-0.04284,0.25606,0.378
-15.8238,0,0,20.8238,20.8238,5,5,23.6176,2.8319,-24.3375,-0.0380638,0.033206,-0.052851,0,0,10.465,0.6825,0.315,-0.028914,-0.35441,-0.98088,-0.04284,0.25606,0.378
-15.8014,0,0,20.8014,20.8014,5,5,23.5842,2.78937,-24.3515,-0.0373224,0.0326863,-0.0525842,0,0,10.57,0.0875,0.3675,-0.028914,-0.35441,-0.98088,-0.04284,0.25606,0.378
-15.6814,0,0,20.6814,20.6814,5,5,23.4051,3.0125,-24.5421,0.136765,0.14723,-0.0463565,0,0,9.835,0.21,0.42,0.149816,-0.237046,-0.975756,-0.04284,0.25606,0.378
-15.563,0,0,20.563,20.563,5,5,23.2284,3.22928,-24.7242,0.132987,0.144322,-0.045327,0,0,9.1,0.0875,0.28,0.149816,-0.237046,-0.975756,-0.04508,0.25046,0.36946
-15.5264,0,0,20.5264,20.5264,5,5,23.1738,3.2159,-24.7556,-0.0219173,0.0828771,0.04346,0,0,9.45,0.1225,0.3325,-0.005978,-0.297558,-0.888038,-0.04508,0.25046,0.36946
-15.4906,0,0,20.4906,20.4906,5,5,23.1202,3.20136,-24.7876,-0.0216639,0.0820245,0.0438399,0,0,9.52,-0.7525,0.21,-0.005978,-0.297558,-0.888038,-0.04508,0.25046,0.36946
-15.499,0,0,20.499,20.499,5,5,23.1328,3.20015,-24.7872,-0.155034,0.0855243,0.12195,1,0,10.64,-0.63,0.245,-0.139934,-0.294264,-0.810446,-0.04508,0.25046,0.36946
-15.5082,0,0,20.5082,20.5082,5,5,23.1466,3.19999,-24.7863,-0.155031,0.0857447,0.121856,1,0,11.27,0.035,0.2275,-0.139934,-0.294264,-0.810446,-0.04508,0.25046,0.36946
-15.5716,0,0,20.5716,20.5716,5,5,23.2413,3.33158,-24.8519,0.113953,-0.0975683,0.0197765,0,0,11.235,-0.105,0.07,0.132492,-0.47885,-0.910974,-0.04508,0.25046,0.36946
-15.6344,0,0,20.6344,20.6344,5,5,23.335,3.45972,-24.9171,0.111721,-0.0961213,0.0190094,0,0,11.445,-0.5425,-0.07,0.132492,-0.47885,-0.910974,-0.04508,0.25046,0.36946
-15.6425,0,0,20.6425,20.6425,5,5,23.347,3.45882,-24.9174,-0.0977049,-0.0958063,-0.0726693,1,0,10.3425,-0.63,-0.21,-0.077836,-0.478728,-1.00186,-0.04508,0.25046,0.36946
-15.6495,0,0,20.6495,20.6495,5,5,23.3575,3.45743,-24.9177,-0.0976807,-0.0956373,-0.0727407,1,0,9.5025,-0.8925,-0.105,-0.077836,-0.478728,-1.00186,-0.04508,0.25046,0.36946
-15.656,0,0,20.656,20.656,5,5,23.3672,3.45604,-24.9182,-0.0473613,-0.102322,-0.102682,1,0,9.0125,-0.945,-0.21,-0.027328,-0.48556,-1.03151,-0.04214,0.25144,0.37814
-15.6634,0,0,20.6634,20.6634,5,5,23.3783,3.45543,-24.9187,-0.125587,0.280235,0.0558448,1,0,9.835,-0.5075,-0.3675,-0.105896,-0.103578,-0.87413,-0.04214,0.25144,0.37814
-15.6721,0,0,20.6721,20.6721,5,5,23.3912,3.4555,-24.9181,-0.125589,0.280441,0.0557556,1,0,10.7975,0.1225,0.0875,-0.105896,-0.103578,-0.87413,-0.04214,0.25144,0.37814
-15.6824,0,0,20.6824,20.6824,5,5,23.4066,3.45613,-24.917,0.0723004,0.00565885,0.197285,1,0,12.215,0.525,0.1925,0.092842,-0.378322,-0.733586,-0.04214,0.25144,0.37814
-15.693,0,0,20.693,20.693,5,5,23.4224,3.45644,-24.9159,0.0722951,0.00591121,0.197175,1,0,12.4075,0.3325,0.2275,0.092842,-0.378322,-0.733586,-0.04214,0.25144,0.37814
-15.7029,0,0,20.7029,20.7029,5,5,23.4372,3.45676,-24.9143,0.348426,-0.140283,-0.0185792,1,0,11.8125,0.4725,0.525,0.370148,-0.5246,-0.947574,-0.04214,0.25144,0.37814
-15.7121,0,0,20.7121,20.7121,5,5,23.4508,3.4569,-24.9131,0.348424,-0.140065,-0.0186739,1,0,11.2,0.2975,0.385,0.370148,-0.5246,-0.947574,-0.04214,0.25144,0.37814
-15.72,0,0,20.72,20.72,5,5,23.4627,3.457,-24.9119,-0.0340147,0.0489334,0.179928,1,0,10.22,0.2625,0.3675,-0.013908,-0.335988,-0.750422,-0.04214,0.25144,0.37814
-15.7276,0,0,20.7276,20.7276,5,5,23.474,3.45505,-24.9118,-0.0339807,0.0491149,0.179852,1,0,9.9225,-1.1025,0.245,-0.013908,-0.335988,-0.750422,-0.04494,0.2569,0.37716
-15.7368,0,0,20.7368,20.7368,5,5,23.4878,3.45281,-24.9121,-0.474327,0.211642,-0.168309,1,0,11.305,-1.33,0.14,-0.456158,-0.17385,-1.0958,-0.04494,0.2569,0.37716
-15.7466,0,0,20.7466,20.7466,5,5,23.5024,3.45166,-24.912,-0.474307,0.211876,-0.168409,1,0,11.795,-0.665,0.07,-0.456158,-0.17385,-1.0958,-0.04494,0.2569,0.37716
-15.6009,0,0,20.6009,20.6009,5,5,23.285,3.52516,-25.0444,0.0199525,0.199087,-0.0847243,0,0,12.4075,-0.7175,-0.4025,0.04148,-0.183122,-1.01419,-0.04494,0.2569,0.37716
-15.4572,0,0,20.4572,20.4572,5,5,23.0704,3.59653,-25.1757,0.0187091,0.195621,-0.0833245,0,0,11.795,-0.4025,-0.1925,0.04148,-0.183122,-1.01419,-0.04494,0.2569,0.37716
-15.4668,0,0,20.4668,20.4668,5,5,23.0848,3.59595,-25.1757,0.307612,0.0292696,-0.191248,1,0,11.62,-0.385,-0.1225,0.331596,-0.34953,-1.12118,-0.04494,0.2569,0.37716
-15.4754,0,0,20.4754,20.4754,5,5,23.0976,3.59498,-25.1763,0.307629,0.0294755,-0.191334,1,0,10.7975,-0.735,-0.35,0.331596,-0.34953,-1.12118,-0.04494,0.2569,0.37716
-15.4273,0,0,20.4273,20.4273,5,5,23.0258,4.17483,-25.5296,0.395207,0.0596878,0.13692,0,0,10.535,-0.805,-0.2275,0.429684,-0.317932,-0.795318,-0.04494,0.2569,0.37716
-15.3813,0,0,20.3813,20.3813,5,5,22.9572,4.74208,-25.878,0.385336,0.0582878,0.136678,0,0,11.375,-0.6825,-0.21,0.429684,-0.317932,-0.795318,-0.04648,0.25732,0.3766
-15.5484,0,0,20.5484,20.5484,5,5,23.2066,4.60162,-25.7739,-0.0680347,-0.144158,0.143275,0,0,12.285,-0.455,0.035,-0.02806,-0.524234,-0.787266,-0.04648,0.25732,0.3766
-15.7184,0,0,20.7184,20.7184,5,5,23.4603,4.46556,-25.672,-0.0656673,-0.140032,0.141699,0,0,17.605,-0.4025,-0.035,-0.02806,-0.524234,-0.787266,-0.04648,0.25732,0.3766
-15.73,0,0,20.73,20.73,5,5,23.4777,4.46514,-25.6717,-0.351516,0.173623,0.100637,1,0,13.335,-0.21,0.035,-0.315126,-0.211182,-0.827892,-0.04648,0.25732,0.3766
-15.7412,0,0,20.7412,20.7412,5,5,23.4943,4.46472,-25.6713,-0.351509,0.17389,0.100522,1,0,12.915,-0.21,0.0525,-0.315126,-0.211182,-0.827892,-0.04648,0.25732,0.3766
-15.7522,0,0,20.7522,20.7522,5,5,23.5108,4.4641,-25.6708,0.00068922,0.154246,0.0865158,1,0,12.7925,-0.28,0.175,0.038552,-0.231068,-0.841678,-0.04648,0.25732,0.3766
-15.7629,0,0,20.7629,20.7629,5,5,23.5267,4.46385,-25.6695,0.000693463,0.154499,0.086406,1,0,12.425,0.105,0.5075,0.038552,-0.231068,-0.841678,-0.04648,0.25732,0.3766
-15.7741,0,0,20.7741,20.7741,5,5,23.5435,4.46337,-25.6682,-0.184564,-0.0682355,-0.11928,1,0,12.9675,-0.035,0.5425,-0.147498,-0.45384,-1.04566,-0.04648,0.25732,0.3766
-15.7909,0,0,20.7909,20.7909,5,5,23.5685,4.462,-25.668,-0.18454,-0.0678362,-0.119452,1,0,17.5875,-0.7525,0.1925,-0.147498,-0.45384,-1.04566,-0.04676,0.25172,0.37604
-15.7807,0,0,20.7807,20.7807,5,5,23.5533,4.65828,-25.8027,0.157308,-0.0186041,-0.0544335,0,0,13.615,-0.6825,0.2625,0.199226,-0.404308,-0.981002,-0.04676,0.25172,0.37604
-15.7708,0,0,20.7708,20.7708,5,5,23.5385,4.84962,-25.9367,0.153979,-0.0189504,-0.0545845,0,0,13.4225,-0.91,-0.035,0.199226,-0.404308,-0.981002,-0.04676,0.25172,0.37604
-15.7813,0,0,20.7813,20.7813,5,5,23.5541,4.84811,-25.9369,-0.266092,-0.0686502,0.26227,1,0,12.355,-0.91,0.035,-0.22265,-0.454206,-0.666486,-0.04676,0.25172,0.37604
-15.7914,0,0,20.7914,20.7914,5,5,23.5693,4.84644,-25.9371,-0.266063,-0.0684078,0.262167,1,0,12.0925,-1.0325,0,-0.22265,-0.454206,-0.666486,-0.04676,0.25172,0.37604
-15.8021,0,0,20.8021,20.8021,5,5,23.5853,4.84537,-25.937,-0.0697232,0.380053,0.139355,1,0,12.565,-0.6125,0.07,-0.025498,-0.006466,-0.788242,-0.04676,0.25172,0.37604
-15.8129,0,0,20.8129,20.8129,5,5,23.6013,4.84369,-25.9367,-0.0696941,0.38031,0.139245,1,0,12.565,-0.8925,0.315,-0.025498,-0.006466,-0.788242,-0.04676,0.25172,0.37604
-15.9743,0,0,20.9743,20.9743,5,5,23.8423,4.88188,-25.9124,0.0694718,-0.216251,0.0738203,0,0,13.3175,-0.4025,0.5425,0.114924,-0.606218,-0.851438,-0.04676,0.25172,0.37604
-16.133,0,0,21.133,21.133,5,5,24.0791,4.92405,-25.8723,0.0687386,-0.212513,0.0720902,0,0,14.2975,0.07,0.63,0.114924,-0.606218,-0.851438,-0.05012,0.24276,0.3759
-16.1455,0,0,21.1455,21.1455,5,5,24.0977,4.92417,-25.8706,0.463808,-0.0663987,-0.0238188,1,0,13.93,0.4025,0.63,0.511668,-0.46055,-0.946476,-0.05012,0.24276,0.3759
-16.1589,0,0,21.1589,21.1589,5,5,24.1178,4.92406,-25.8692,0.46381,-0.0660798,-0.0239614,1,0,14.7875,0.1925,0.49,0.511668,-0.46055,-0.946476,-0.05012,0.24276,0.3759
-16.1882,0,0,21.1882,21.1882,5,5,24.1615,4.75599,-25.7855,-0.12308,-0.0409818,-0.0911762,0,0,13.825,0.21,0.455,-0.080642,-0.436272,-1.01309,-0.05012,0.24276,0.3759
-16.2165,0,0,21.2165,21.2165,5,5,24.2037,4.59151,-25.7023,-0.120219,-0.0402165,-0.0912635,0,0,13.7725,0.035,0.7525,-0.080642,-0.436272,-1.01309,-0.05012,0.24276,0.3759
-16.2292,0,0,21.2292,21.2292,5,5,24.2227,4.59056,-25.701,-0.130043,-0.00425316,-0.21115,1,0,14.1925,-0.2625,0.665,-0.090524,-0.400648,-1.13192,-0.05012,0.24276,0.3759
-16.2422,0,0,21.2422,21.2422,5,5,24.2421,4.58937,-25.6995,-0.130022,-0.00394457,-0.211287,1,0,14.4025,-0.35,0.8225,-0.090524,-0.400648,-1.13192,-0.05012,0.24276,0.3759
-16.2574,0,0,21.2574,21.2574,5,5,24.2648,4.5874,-25.6986,0.00571159,0.220396,0.202644,1,0,16.24,-0.91,0.7,0.04575,-0.1769,-0.72102,-0.05012,0.24276,0.3759
-16.2722,0,0,21.2722,21.2722,5,5,24.2868,4.58618,-25.6976,0.00573284,0.220746,0.202488,1,0,15.89,-0.4725,0.595,0.04575,-0.1769,-0.72102,-0.05012,0.24276,0.3759
-16.2867,0,0,21.2867,21.2867,5,5,24.3085,4.58525,-25.6969,-0.0619186,-0.0203546,-0.242862,1,0,15.6975,-0.4025,0.3325,-0.022204,-0.418094,-1.16278,-0.04382,0.24808,0.37604
-16.2998,0,0,21.2998,21.2998,5,5,24.3281,4.58418,-25.6969,-0.266968,-0.092098,-0.260214,1,0,14.5775,-0.6475,0,-0.22814,-0.490074,-1.17986,-0.04382,0.24808,0.37604
-16.3114,0,0,21.3114,21.3114,5,5,24.3453,4.5827,-25.697,-0.266942,-0.0918231,-0.260336,1,0,13.2825,-0.875,0.07,-0.22814,-0.490074,-1.17986,-0.04382,0.24808,0.37604
-16.152,0,0,21.152,21.152,5,5,24.1074,4.27455,-25.6393,-0.276037,0.282432,-0.0909254,0,0,13.9475,-1.2425,-0.2275,-0.242658,-0.112606,-1.01382,-0.04382,0.24808,0.37604
-15.9947,0,0,20.9947,20.9947,5,5,23.8727,3.97169,-25.5797,-0.270764,0.278854,-0.0889172,0,0,13.8425,-1.295,0,-0.242658,-0.112606,-1.01382,-0.04382,0.24808,0.37604
-16.1128,0,0,21.1128,21.1128,5,5,24.049,3.8678,-25.4962,-0.0533183,-0.091511,0.107528,0,0,14.84,-1.47,-0.07,-0.026108,-0.485438,-0.817766,-0.04382,0.24808,0.37604
-16.2292,0,0,21.2292,21.2292,5,5,24.2228,3.76839,-25.4135,-0.0515873,-0.0887017,0.106396,0,0,15.54,-0.56,-0.0525,-0.026108,-0.485438,-0.817766,-0.04382,0.24808,0.37604
-16.1711,0,0,21.1711,21.1711,5,5,24.136,4.42212,-25.7874,0.465252,0.0681078,0.122746,0,0,15.785,-0.385,-0.315,0.504348,-0.327082,-0.801418,-0.04382,0.24808,0.37604
-16.115,0,0,21.115,21.115,5,5,24.0522,5.05981,-26.1572,0.45416,0.066401,0.122502,0,0,15.7675,-0.14,-0.3325,0.504348,-0.327082,-0.801418,-0.04298,0.24906,0.392
-16.1234,0,0,21.1234,21.1234,5,5,24.0648,4.92665,-26.1125,-0.100901,0.0207645,-0.0194086,0,0,15.19,0.4375,-0.2275,-0.055388,-0.372954,-0.942328,-0.04298,0.24906,0.392
-16.1326,0,0,21.1326,21.1326,5,5,24.0785,4.79611,-26.0686,-0.0986305,0.0210595,-0.0193289,0,0,16.135,0.0875,-0.2975,-0.055388,-0.372954,-0.942328,-0.04298,0.24906,0.392
-16.1368,0,0,21.1368,21.1368,5,5,24.0847,4.6341,-26.0102,-0.119867,0.058258,0.042805,0,0,16.135,-0.385,-0.2275,-0.079544,-0.335988,-0.88084,-0.04298,0.24906,0.392
-16.1409,0,0,21.1409,21.1409,5,5,24.0909,4.4749,-25.952,-0.117097,0.0584462,0.0429626,0,0,16.45,-0.84,0.0875,-0.079544,-0.335988,-0.88084,-0.04298,0.24906,0.392
-16.1578,0,0,21.1578,21.1578,5,5,24.1162,4.47326,-25.9516,0.0922515,0.207721,0.0598748,1,0,17.745,-0.8575,0.3325,0.130662,-0.18727,-0.863882,-0.04298,0.24906,0.392
-16.1741,0,0,21.1741,21.1741,5,5,24.1405,4.47246,-25.951,0.0922655,0.208108,0.0597027,1,0,17.2025,-0.35,0.28,0.130662,-0.18727,-0.863882,-0.04298,0.24906,0.392
-16.319,0,0,21.319,21.319,5,5,24.3567,4.3322,-25.834,-0.0757382,-0.167466,0.043329,0,0,16.8175,-0.21,0.14,-0.040504,-0.565958,-0.878766,-0.04298,0.24906,0.392
-16.4603,0,0,21.4603,21.4603,5,5,24.5677,4.19476,-25.7159,-0.073346,-0.16405,0.0419709,0,0,16.3625,-0.7,0.1225,-0.040504,-0.565958,-0.878766,-0.04774,0.24738,0.3808
-16.3825,0,0,21.3825,21.3825,5,5,24.4515,4.19018,-25.7624,-0.0201771,0.107432,-0.10128,0,0,15.5575,-0.77,0.1925,0.01281,-0.292922,-1.02175,-0.04774,0.24738,0.3808
-16.307,0,0,21.307,21.307,5,5,24.3388,4.18506,-25.8086,-0.0200879,0.105649,-0.100464,0,0,16.38,-0.91,0.2275,0.01281,-0.292922,-1.02175,-0.04774,0.24738,0.3808
-16.3221,0,0,21.3221,21.3221,5,5,24.3614,4.18292,-25.8085,-0.279544,-0.0371244,-0.144271,1,0,16.2575,-1.19,0.315,-0.247782,-0.435906,-1.06506,-0.04774,0.24738,0.3808
-16.338,0,0,21.338,21.338,5,5,24.385,4.18064,-25.8085,-0.279504,-0.036749,-0.144438,1,0,16.8175,-1.2775,0.315,-0.247782,-0.435906,-1.06506,-0.04774,0.24738,0.3808
-16.3551,0,0,21.3551,21.3551,5,5,24.4106,4.17833,-25.8085,-0.165025,-0.186924,-0.141176,1,0,17.9375,-1.3125,0.28,-0.132858,-0.586332,-1.06164,-0.04774,0.24738,0.3808
-16.3722,0,0,21.3722,21.3722,5,5,24.4362,4.17603,-25.8086,-0.164985,-0.186518,-0.141358,1,0,17.9375,-1.3125,0.28,-0.132858,-0.586332,-1.06164,-0.04774,0.24738,0.3808
-16.4965,0,0,21.4965,21.4965,5,5,24.6217,3.97572,-25.6646,-0.12736,-0.135969,0.0184669,0,0,17.325,0.21,0.0525,-0.098576,-0.538874,-0.901946,-0.04774,0.24738,0.3808
-16.6178,0,0,21.6178,21.6178,5,5,24.8026,3.7812,-25.5178,-0.123973,-0.133011,0.0173584,0,0,17.325,0.21,0.0525,-0.098576,-0.538874,-0.901946,-0.04914,0.24654,0.39186
-16.6558,0,0,21.6558,21.6558,5,5,24.8594,3.71093,-25.4684,-0.0477923,0.0133734,0.0750474,0,0,17.1325,-0.14,0.42,-0.023302,-0.393572,-0.844362,-0.04914,0.24654,0.39186
-16.693,0,0,21.693,21.693,5,5,24.9149,3.64251,-25.4195,-0.0466005,0.0142824,0.0747101,0,0,17.1325,-0.14,0.42,-0.023302,-0.393572,-0.844362,-0.04914,0.24654,0.39186
-16.7106,0,0,21.7106,21.7106,5,5,24.9412,3.64071,-25.4178,0.121931,0.0923718,-0.13142,1,0,18.2875,-0.595,1.12,0.145912,-0.31598,-1.04871,-0.04914,0.24654,0.39186
-16.6122,0,0,21.6122,21.6122,5,5,24.7943,3.51637,-25.4027,-0.118753,0.161795,-0.125672,0,0,19.7575,-0.56,1.085,-0.097966,-0.244366,-1.0442,-0.04914,0.24654,0.39186
-16.5144,0,0,21.5144,21.5144,5,5,24.6484,3.39556,-25.3867,-0.116648,0.159539,-0.124493,0,0,19.0225,0.175,1.015,-0.097966,-0.244366,-1.0442,-0.04914,0.24654,0.39186
-16.5328,0,0,21.5328,21.5328,5,5,24.6758,3.39484,-25.3849,0.0877037,-0.307162,0.0452234,1,0,18.865,-0.0175,0.875,0.107238,-0.711016,-0.875594,-0.04914,0.24654,0.39186
-16.5511,0,0,21.5511,21.5511,5,5,24.7032,3.39333,-25.3839,0.08773,-0.306728,0.0450254,1,0,18.9175,-0.63,0.6475,0.107238,-0.711016,-0.875594,-0.04914,0.24654,0.39186
-16.5438,0,0,21.5438,21.5438,5,5,24.6922,3.5152,-25.4539,0.0823267,0.0259632,0.0141284,0,0,17.78,-0.21,0.6125,0.103944,-0.378444,-0.906216,-0.04858,0.24948,0.38388
-16.5614,0,0,21.5614,21.5614,5,5,24.7185,3.51347,-25.4529,-0.167175,0.235338,-0.256302,1,0,18.27,-0.7525,0.6825,-0.146644,-0.169702,-1.17437,-0.04858,0.24948,0.38388
-16.5839,0,0,21.5839,21.5839,5,5,24.752,3.51127,-25.4526,-0.167137,0.23587,-0.256544,1,0,22.3825,-1.155,0.4725,-0.146644,-0.169702,-1.17437,-0.04858,0.24948,0.38388
-16.6372,0,0,21.6372,21.6372,5,5,24.8317,3.34292,-25.3554,-0.119497,-0.0646941,-0.0724208,0,0,19.2675,-1.575,0.2975,-0.101748,-0.471286,-0.99125,-0.04858,0.24948,0.38388
-16.6905,0,0,21.6905,21.6905,5,5,24.9113,3.17993,-25.2592,-0.116657,-0.0633677,-0.0728574,0,0,20.4225,-0.9275,0.0525,-0.101748,-0.471286,-0.99125,-0.04858,0.24948,0.38388
-16.6843,0,0,21.6843,21.6843,5,5,24.9019,3.63737,-25.494,0.332038,0.000279491,0.068786,0,0,19.88,-0.07,-0.2975,0.35685,-0.407358,-0.85034,-0.04858,0.24948,0.38388
-16.6787,0,0,21.6787,21.6787,5,5,24.8936,4.08417,-25.7271,0.324258,-7.28464e-05,0.0683707,0,0,19.81,-0.245,-0.98,0.35685,-0.407358,-0.85034,-0.04858,0.24948,0.38388
-16.5825,0,0,21.5825,21.5825,5,5,24.75,3.50955,-25.4996,-0.440935,0.277607,0.0359664,0,0,19.215,-0.1225,-0.8575,-0.421632,-0.127978,-0.884134,-0.04858,0.24948,0.38388
-16.487,0,0,21.487,21.487,5,5,24.6075,2.94611,-25.2673,-0.431117,0.275581,0.0375065,0,0,19.95,-0.4375,-0.1225,-0.421632,-0.127978,-0.884134,-0.0434,0.24598,0.38262
-16.509,0,0,21.509,21.509,5,5,24.6404,2.70537,-25.1409,-0.183828,0.00946331,-0.0574601,0,0,20.3525,-0.91,0,-0.17751,-0.394426,-0.978318,-0.0434,0.24598,0.38262
-16.5307,0,0,21.5307,21.5307,5,5,24.6727,2.46993,-25.0149,-0.179723,0.0100527,-0.0575265,0,0,20.8425,-0.8925,0.3325,-0.17751,-0.394426,-0.978318,-0.0434,0.24598,0.38262
-16.553,0,0,21.553,21.553,5,5,24.7059,2.46823,-25.0146,-0.0910083,0.12428,-0.177273,1,0,22.225,-0.91,0.315,-0.08845,-0.280844,-1.0969,-0.0434,0.24598,0.38262
-16.5743,0,0,21.5743,21.5743,5,5,24.7378,2.46799,-25.0135,-0.0910042,0.124785,-0.177506,1,0,21.42,0.0875,0.42,-0.08845,-0.280844,-1.0969,-0.0434,0.24598,0.38262
-16.5957,0,0,21.5957,21.5957,5,5,24.7697,2.46713,-25.0126,-0.0625616,-0.377994,-0.198393,1,0,21.4375,-0.2975,0.455,-0.059902,-0.783606,-1.1174,-0.0434,0.24598,0.38262
-16.6165,0,0,21.6165,21.6165,5,5,24.8008,2.46546,-25.0122,-0.0625324,-0.377501,-0.19862,1,0,21.035,-0.875,0.35,-0.059902,-0.783606,-1.1174,-0.0434,0.24598,0.38262
-16.6042,0,0,21.6042,21.6042,5,5,24.7823,2.21403,-24.8895,-0.190567,0.0817225,-0.019186,0,0,20.5275,-0.805,0.315,-0.192882,-0.324642,-0.939644,-0.0434,0.24598,0.38262
-16.5923,0,0,21.5923,21.5923,5,5,24.7646,1.96851,-24.7685,-0.186285,0.0815075,-0.0189145,0,0,21.35,-0.77,0.5775,-0.192882,-0.324642,-0.939644,-0.04172,0.2464,0.38332
-16.5843,0,0,21.5843,21.5843,5,5,24.7527,2.11111,-24.8415,0.107896,0.00434232,-0.0439896,0,0,20.4575,-1.3475,0.6825,0.105042,-0.401502,-0.964532,-0.04172,0.2464,0.38332
-16.5786,0,0,21.5786,21.5786,5,5,24.7442,2.24892,-24.9149,0.105492,0.00416897,-0.0440105,0,0,22.015,-2.3275,0.4725,0.105042,-0.401502,-0.964532,-0.04172,0.2464,0.38332
-16.6007,0,0,21.6007,21.6007,5,5,24.7771,2.2455,-24.9153,-0.17593,0.184583,0.0986176,1,0,22.0325,-1.9775,0.385,-0.177632,-0.221796,-0.822768,-0.04172,0.2464,0.38332
-16.6228,0,0,21.6228,21.6228,5,5,24.8102,2.24525,-24.9155,-0.175926,0.185107,0.098376,1,0,22.12,-0.245,-0.28,-0.177632,-0.221796,-0.822768,-0.04172,0.2464,0.38332
-16.4033,0,0,21.4033,21.4033,5,5,24.4826,2.48888,-25.1317,0.113578,0.32676,0.018469,0,0,22.645,0.49,-0.2975,0.117364,-0.07503,-0.904264,-0.04172,0.2464,0.38332
-16.1875,0,0,21.1875,21.1875,5,5,24.1605,2.72551,-25.3485,0.109452,0.321566,0.0206104,0,0,22.5925,0.105,-0.035,0.117364,-0.07503,-0.904264,-0.04172,0.2464,0.38332
-16.2117,0,0,21.2117,21.2117,5,5,24.1966,2.72448,-25.3474,0.0401019,0.129546,0.117237,1,0,23.765,-0.3675,0.56,0.047702,-0.267424,-0.808128,-0.04172,0.2464,0.38332
-16.2358,0,0,21.2358,21.2358,5,5,24.2326,2.72344,-25.3464,0.0401199,0.130119,0.11698,1,0,23.765,-0.3675,0.56,0.047702,-0.267424,-0.808128,-0.0504,0.24094,0.3808
-16.2599,0,0,21.2599,21.2599,5,5,24.2686,2.72024,-25.3447,0.104685,-0.0426059,0.168486,1,0,23.7125,-1.365,1.435,0.112484,-0.440542,-0.756766,-0.0504,0.24094,0.3808
-16.2841,0,0,21.2841,21.2841,5,5,24.3046,2.71704,-25.3429,0.10474,-0.0420331,0.168231,1,0,23.7125,-1.365,1.435,0.112484,-0.440542,-0.756766,-0.0504,0.24094,0.3808
-16.3083,0,0,21.3083,21.3083,5,5,24.3408,2.71532,-25.341,0.105135,-0.262385,-0.159071,1,0,23.835,-0.525,1.19,0.11285,-0.66124,-1.08129,-0.0504,0.24094,0.3808
-16.0435,0,0,21.0435,21.0435,5,5,23.9455,2.69921,-25.4422,-0.0723177,0.427332,-0.18292,0,0,23.835,-0.5425,1.3825,-0.065636,0.034038,-1.10776,-0.0504,0.24094,0.3808
-15.7825,0,0,20.7825,20.7825,5,5,23.556,2.68211,-25.543,-0.0720197,0.421123,-0.180172,0,0,23.6075,-0.6825,1.54,-0.065636,0.034038,-1.10776,-0.0504,0.24094,0.3808
-15.8078,0,0,20.8078,20.8078,5,5,23.5937,2.68043,-25.5405,0.125545,0.100166,-0.180065,1,0,24.64,-0.3675,1.5225,0.132736,-0.287188,-1.10739,-0.0504,0.24094,0.3808
-15.8332,0,0,20.8332,20.8332,5,5,23.6317,2.67832,-25.5383,0.125582,0.100774,-0.180329,1,0,24.85,-0.7,1.4,0.132736,-0.287188,-1.10739,-0.0504,0.24094,0.3808
-15.9905,0,0,20.9905,20.9905,5,5,23.8664,2.61103,-25.434,-0.0213357,-0.18551,0.0490932,0,0,25.3925,-1.4525,1.4875,-0.015982,-0.576938,-0.878156,-0.04746,0.24332,0.38388
-16.0166,0,0,21.0166,21.0166,5,5,23.9053,2.6068,-25.4335,0.0262389,0.0984459,-0.238632,1,0,25.3925,-2.2225,0.9975,0.03172,-0.293898,-1.16339,-0.04746,0.24332,0.38388
-16.0417,0,0,21.0417,21.0417,5,5,23.9429,2.6051,-25.4337,0.0262685,0.0990457,-0.238897,1,0,24.675,-1.015,0.07,0.03172,-0.293898,-1.16339,-0.04746,0.24332,0.38388
-15.9482,0,0,20.9482,20.9482,5,5,23.8033,2.5103,-25.4242,-0.0981807,0.160234,-0.134445,0,0,24.465,-0.14,-0.2975,-0.094916,-0.23058,-1.06079,-0.04746,0.24332,0.38388
-15.8571,0,0,20.8571,20.8571,5,5,23.6674,2.41743,-25.4139,-0.0965612,0.158092,-0.133426,0,0,25.235,0.1225,-0.0525,-0.094916,-0.23058,-1.06079,-0.04746,0.24332,0.38388
-15.8847,0,0,20.8847,20.8847,5,5,23.7085,2.41692,-25.4135,0.0544543,0.0310041,-0.160886,1,0,26.635,-0.245,0.0875,0.05673,-0.358192,-1.08775,-0.04746,0.24332,0.38388
-15.9137,0,0,20.9137,20.9137,5,5,23.7518,2.41387,-25.4137,0.0545076,0.0316969,-0.161188,1,0,27.895,-1.7675,0.3325,0.05673,-0.358192,-1.08775,-0.04746,0.24332,0.38388
-15.9275,0,0,20.9275,20.9275,5,5,23.7724,2.46048,-25.4315,0.0372941,0.00160193,-0.0393994,0,0,28.35,-2.1,0.56,0.04026,-0.38857,-0.966728,-0.04746,0.24332,0.38388
-15.941,0,0,20.941,20.941,5,5,23.7925,2.50645,-25.4513,0.0364925,0.00190808,-0.0395723,0,0,28.07,-1.505,0.84,0.04026,-0.38857,-0.966728,-0.0406,0.2422,0.39046
-15.9698,0,0,20.9698,20.9698,5,5,23.8355,2.50385,-25.4508,0.120363,0.0927249,0.440855,1,0,27.7025,-1.3475,0.63,0.12444,-0.298534,-0.489708,-0.0406,0.2422,0.39046
-15.9972,0,0,20.9972,20.9972,5,5,23.8765,2.50299,-25.4498,0.120378,0.0933784,0.440567,1,0,26.53,-0.2975,0.4725,0.12444,-0.298534,-0.489708,-0.0406,0.2422,0.39046
-16.0248,0,0,21.0248,21.0248,5,5,23.9175,2.50149,-25.4489,0.0252809,0.165477,0.166595,1,0,26.5825,-0.665,0.5775,0.028914,-0.227164,-0.76128,-0.0406,0.2422,0.39046
-16.0539,0,0,21.0539,21.0539,5,5,23.961,2.49919,-25.448,0.0253211,0.166171,0.166288,1,0,27.9475,-1.085,0.7875,0.028914,-0.227164,-0.76128,-0.0406,0.2422,0.39046
-16.0039,0,0,21.0039,21.0039,5,5,23.8864,3.15662,-25.8117,0.426548,0.11004,0.19556,0,0,28.4725,-1.155,1.12,0.443348,-0.28182,-0.732244,-0.0406,0.2422,0.39046
-15.9569,0,0,20.9569,20.9569,5,5,23.8162,3.79874,-26.1731,0.415361,0.108647,0.195433,0,0,29.9075,-1.82,0.77,0.443348,-0.28182,-0.732244,-0.0406,0.2422,0.39046
-16.0795,0,0,21.0795,21.0795,5,5,23.9993,3.64984,-26.0545,-0.0897343,-0.0934205,0.0615106,0,0,29.2775,-2.1875,0.665,-0.06649,-0.486658,-0.864004,-0.0406,0.2422,0.39046
-16.1978,0,0,21.1978,21.1978,5,5,24.1758,3.50551,-25.9301,-0.0872201,-0.0905501,0.0603995,0,0,28.035,-2.5725,0,-0.06649,-0.486658,-0.864004,-0.04158,0.23618,0.38738
-16.2263,0,0,21.2263,21.2263,5,5,24.2184,3.50287,-25.9321,-0.238788,-0.032228,-0.187643,1,0,27.545,-1.96,-0.6825,-0.218746,-0.429074,-1.10983,-0.04158,0.23618,0.38738
-16.2549,0,0,21.2549,21.2549,5,5,24.261,3.50024,-25.9341,-0.238742,-0.03155,-0.187946,1,0,27.545,-1.96,-0.6825,-0.218746,-0.429074,-1.10983,-0.04158,0.23618,0.38738
-16.285,0,0,21.285,21.285,5,5,24.306,3.50037,-25.9341,0.00131109,0.166643,-0.253554,1,0,28.805,0,-0.28,0.022326,-0.2318,-1.17462,-0.04158,0.23618,0.38738
-16.3151,0,0,21.3151,21.3151,5,5,24.351,3.5005,-25.9341,0.00130882,0.167357,-0.253877,1,0,28.805,0,-0.28,0.022326,-0.2318,-1.17462,-0.04158,0.23618,0.38738
-16.462,0,0,21.462,21.462,5,5,24.5701,3.47414,-25.8528,0.00796381,-0.172943,0.0296857,0,0,31.955,-1.4875,1.0325,0.028548,-0.57523,-0.891698,-0.04158,0.23618,0.38738
-16.6061,0,0,21.6061,21.6061,5,5,24.7852,3.44907,-25.7727,0.00840046,-0.169527,0.0281452,0,0,31.955,-1.4875,1.0325,0.028548,-0.57523,-0.891698,-0.04158,0.23618,0.38738
-16.6391,0,0,21.6391,21.6391,5,5,24.8345,3.44569,-25.7712,-0.110597,0.189452,0.197211,1,0,31.1675,-1.505,1.365,-0.091012,-0.217404,-0.723582,-0.04158,0.23618,0.38738
-16.6908,0,0,21.6908,21.6908,5,5,24.9117,3.59385,-25.8022,0.121533,-0.0587774,-0.0018147,0,0,30.2925,-1.2075,1.19,0.144692,-0.466528,-0.920368,-0.05054,0.231,0.385
-16.7412,0,0,21.7412,21.7412,5,5,24.9869,3.74061,-25.8317,0.118977,-0.0576597,-0.00251535,0,0,29.575,0.035,1.26,0.144692,-0.466528,-0.920368,-0.05054,0.231,0.385
-16.5728,0,0,21.5728,21.5728,5,5,24.7355,3.9266,-25.9902,0.0887679,0.271684,-0.00997036,0,0,30.975,-1.1025,1.68,0.117608,-0.133468,-0.929396,-0.05054,0.231,0.385
-16.4074,0,0,21.4074,21.4074,5,5,24.4887,4.10775,-26.1488,0.085614,0.267684,-0.00838189,0,0,30.975,-1.1025,1.68,0.117608,-0.133468,-0.929396,-0.05054,0.231,0.385
-16.5219,0,0,21.5219,21.5219,5,5,24.6595,4.34151,-26.2011,0.215544,-0.169759,0.0223208,0,0,33.705,-2.205,1.9775,0.252174,-0.573034,-0.897432,-0.05054,0.231,0.385
-16.4738,0,0,21.4738,21.4738,5,5,24.5878,4.19191,-26.1472,-0.124806,0.136457,-0.0537022,0,0,34.475,-2.3275,1.645,-0.092232,-0.266082,-0.97356,-0.05054,0.231,0.385
-16.4231,0,0,21.4231,21.4231,5,5,24.5121,4.04566,-26.0946,-0.12226,0.135336,-0.0529883,0,0,31.8675,-2.5375,0.805,-0.092232,-0.266082,-0.97356,-0.05054,0.231,0.385
-16.4564,0,0,21.4564,21.4564,5,5,24.5618,4.04175,-26.0951,-0.0603561,0.0128984,0.138334,1,0,31.4475,-2.275,0.4375,-0.030134,-0.38918,-0.783362,-0.05054,0.231,0.385
-16.4885,0,0,21.4885,21.4885,5,5,24.6097,4.04128,-26.0954,-0.060348,0.0136573,0.137987,1,0,30.4675,-0.385,-0.28,-0.030134,-0.38918,-0.783362,-0.04536,0.2296,0.39046
-16.3351,0,0,21.3351,21.3351,5,5,24.3807,4.32075,-26.3043,0.161115,0.240702,-0.0138775,0,0,31.7975,-0.2275,-0.245,0.197152,-0.1586,-0.935374,-0.04536,0.2296,0.39046
-16.1891,0,0,21.1891,21.1891,5,5,24.1629,4.59339,-26.5118,0.156371,0.237094,-0.0126565,0,0,35.6475,0.14,0.4725,0.197152,-0.1586,-0.935374,-0.04536,0.2296,0.39046
-16.3293,0,0,21.3293,21.3293,5,5,24.3721,4.35631,-26.3239,-0.15075,-0.0584198,0.118434,0,0,36.8725,-0.6475,0.8925,-0.115412,-0.457256,-0.804102,-0.04536,0.2296,0.39046
-16.4674,0,0,21.4674,21.4674,5,5,24.5782,4.12341,-26.1386,-0.146696,-0.0550311,0.117222,0,0,37.7825,-1.54,1.3125,-0.115412,-0.457256,-0.804102,-0.04536,0.2296,0.39046
-16.3588,0,0,21.3588,21.3588,5,5,24.4161,4.00046,-26.1272,-0.121595,0.216028,-0.11249,0,0,35.945,-1.505,1.3125,-0.092354,-0.183976,-1.03334,-0.04536,0.2296,0.39046
-16.249,0,0,21.249,21.249,5,5,24.2522,3.87973,-26.116,-0.119493,0.213489,-0.111183,0,0,33.5825,-1.6625,0.8925,-0.092354,-0.183976,-1.03334,-0.04536,0.2296,0.39046
-16.2843,0,0,21.2843,21.2843,5,5,24.3049,3.87844,-26.1142,0.214372,0.0656967,-0.130001,1,0,33.04,-0.315,1.0325,0.242902,-0.33245,-1.05164,-0.04536,0.2296,0.39046
-16.3216,0,0,21.3216,21.3216,5,5,24.3606,3.87715,-26.1123,0.214395,0.0665805,-0.130399,1,0,34.72,-0.2975,1.085,0.242902,-0.33245,-1.05164,-0.04228,0.22176,0.38542
-16.3618,0,0,21.3618,21.3618,5,5,24.4205,3.87549,-26.1098,-0.140679,0.209322,0.0990854,1,0,37.1175,-0.35,1.47,-0.113704,-0.190808,-0.8235,-0.04228,0.22176,0.38542
-16.4039,0,0,21.4039,21.4039,5,5,24.4834,3.87178,-26.1082,-0.140614,0.210321,0.098636,1,0,38.7975,-1.68,1.4525,-0.113704,-0.190808,-0.8235,-0.04228,0.22176,0.38542
-16.5133,0,0,21.5133,21.5133,5,5,24.6468,3.59661,-25.905,-0.192434,-0.0574728,0.0157312,0,0,39.375,-2.59,1.4525,-0.170556,-0.461038,-0.904874,-0.04228,0.22176,0.38542
-16.6185,0,0,21.6185,21.6185,5,5,24.8037,3.32798,-25.7041,-0.187754,-0.0548706,0.0148446,0,0,38.0625,-2.555,1.3825,-0.170556,-0.461038,-0.904874,-0.04228,0.22176,0.38542
-16.5552,0,0,21.5552,21.5552,5,5,24.7092,3.48156,-25.7948,0.0855854,0.149839,0.043914,0,0,36.2075,-2.625,0.9625,0.106628,-0.25498,-0.87657,-0.04228,0.22176,0.38542
-16.4924,0,0,21.4924,21.4924,5,5,24.6156,3.63354,-25.8867,0.0829379,0.148288,0.0444449,0,0,35.665,-1.855,-0.385,0.106628,-0.25498,-0.87657,-0.04228,0.22176,0.38542
-16.5301,0,0,21.5301,21.5301,5,5,24.6718,3.63313,-25.8876,0.040182,0.234423,0.336777,1,0,35.1575,-0.5075,-0.63,0.063684,-0.169824,-0.586088,-0.04228,0.22176,0.38542
-16.5714,0,0,21.5714,21.5714,5,5,24.7334,3.63296,-25.888,0.0401851,0.235398,0.336329,1,0,38.1325,-0.245,-0.385,0.063684,-0.169824,-0.586088,-0.04228,0.22176,0.38542
-16.6144,0,0,21.6144,21.6144,5,5,24.7976,3.63248,-25.8873,-0.0409591,0.366356,0.0899641,1,0,39.55,-0.1575,0.2275,-0.017812,-0.040016,-0.830088,-0.03892,0.21812,0.3934
-16.8795,0,0,21.8795,21.8795,5,5,25.1932,3.17377,-25.5112,-0.32672,-0.258103,0.107769,0,0,42.105,-1.9775,0.6475,-0.312808,-0.670268,-0.809958,-0.03892,0.21812,0.3934
-17.1373,0,0,22.1373,22.1373,5,5,25.5781,2.7253,-25.1407,-0.318903,-0.251869,0.105257,0,0,41.1775,-1.6975,1.26,-0.312808,-0.670268,-0.809958,-0.03892,0.21812,0.3934
-17.1796,0,0,22.1796,22.1796,5,5,25.6412,2.72119,-25.1402,-0.174263,0.0941323,0.270519,1,0,38.9375,-2.1175,1.05,-0.167628,-0.325618,-0.645502,-0.03892,0.21812,0.3934
-17.2216,0,0,22.2216,22.2216,5,5,25.7039,2.71858,-25.1391,-0.174218,0.0951179,0.270048,1,0,38.6925,-1.1725,0.98,-0.167628,-0.325618,-0.645502,-0.03892,0.21812,0.3934
-17.1668,0,0,22.1668,22.1668,5,5,25.6221,2.68249,-25.1137,-0.0417764,0.151124,-0.0176228,0,0,38.605,-0.14,1.1375,-0.035258,-0.2684,-0.931592,-0.03892,0.21812,0.3934
-17.1173,0,0,22.1173,22.1173,5,5,25.5483,2.64587,-25.0869,-0.0411379,0.149975,-0.0170398,0,0,42.2275,-0.35,2.24,-0.035258,-0.2684,-0.931592,-0.03892,0.21812,0.3934
-17.1482,0,0,22.1482,22.1482,5,5,25.5944,2.44688,-24.9406,-0.15721,0.0182598,-0.0985168,0,0,43.4,-0.385,2.66,-0.155306,-0.40077,-1.01223,-0.03892,0.21812,0.3934
-17.1795,0,0,22.1795,22.1795,5,5,25.641,2.24927,-24.8,-0.153764,0.0190539,-0.0987409,0,0,44.24,-1.8725,2.17,-0.155306,-0.40077,-1.01223,-0.04704,0.224,0.39144
-17.2282,0,0,22.2282,22.2282,5,5,25.7138,2.24422,-24.7979,-0.403086,0.346156,-0.223097,1,0,44.345,-2.205,2.135,-0.405772,-0.075152,-1.13509,-0.04704,0.224,0.39144
-17.2733,0,0,22.2733,22.2733,5,5,25.781,2.23885,-24.7961,-0.402993,0.347213,-0.223603,1,0,41.2475,-2.45,2.0475,-0.405772,-0.075152,-1.13509,-0.04704,0.224,0.39144
-17.3589,0,0,22.3589,22.3589,5,5,25.9089,2.71893,-24.9678,0.355211,-0.0723978,0.149231,0,0,41.1075,-3.325,1.5225,0.364048,-0.496174,-0.763842,-0.04704,0.224,0.39144
-17.4432,0,0,22.4432,22.4432,5,5,26.0346,3.19242,-25.1368,0.346958,-0.0706146,0.147889,0,0,40.3725,-1.3475,0.0875,0.364048,-0.496174,-0.763842,-0.04704,0.224,0.39144
-17.4886,0,0,22.4886,22.4886,5,5,26.1023,3.19107,-25.1374,0.579262,-0.14283,-0.0173798,1,0,41.58,-0.9275,-0.1925,0.597312,-0.569374,-0.927322,-0.04704,0.224,0.39144
