pid_x,pid_y,pid_z,front_left_speed,front_right_speed,back_left_speed,back_right_speed,orientation_x,orientation_y,orientation_z,acceleration_x,acceleration_y,acceleration_z,accel_rejected,mag_rejected,gyro_x,gyro_y,gyro_z,accel_x,accel_y,accel_z,mag_x,mag_y,mag_z
0.0391209,0,0,14.9609,14.9609,15.0391,15.0391,-0.130403,-0.170148,0.250079,-0.10438,0.0897405,0.20169,0,0,3.57,-0.0525,-0.4725,-0.148108,0.104066,-0.81252,-0.0427,0.09156,0.46172
-0.0297855,0,0,15.0298,15.0298,14.9702,14.9702,0.0992849,-0.10048,0.302771,0.0516067,-0.255289,-0.269813,0,0,3.535,-0.1925,-0.4725,0.00976,-0.24461,-1.28039,-0.0427,0.09156,0.46172
-0.0200459,0,0,15.02,15.02,14.98,14.98,0.0668196,-0.0470788,0.351054,0.0472731,0.0282113,-0.0187502,0,0,3.465,-0.1575,-0.455,0.006344,0.039162,-1.03127,-0.0427,0.09156,0.46172
-0.0105024,0,0,15.0105,15.0105,14.9895,14.9895,0.0350079,0.00525174,0.399277,0.0463598,0.0276561,-0.0187494,0,0,3.465,-0.1575,-0.455,0.006344,0.039162,-1.03127,-0.0427,0.09156,0.46172
-0.0197598,0,0,15.0198,15.0198,14.9802,14.9802,0.0658661,0.0702772,0.439718,0.0457108,-0.0239535,0.099034,0,0,3.3775,0.1925,-0.4025,0.006832,-0.012932,-0.91439,-0.0427,0.09156,0.46172
-0.0955183,0,0,15.0955,15.0955,14.9045,14.9045,0.318394,0.070561,0.554419,-0.0245129,-0.30288,-0.355153,0,0,3.5525,0.21,-0.49,-0.063684,-0.295972,-1.36506,-0.0427,0.09156,0.46172
-0.169635,0,0,15.1696,15.1696,14.8304,14.8304,0.565451,0.0692573,0.66682,-0.0244901,-0.298568,-0.355186,0,0,3.29,-0.105,-0.385,-0.063684,-0.295972,-1.36506,-0.04676,0.0931,0.4613
-0.0475575,0,0,15.0476,15.0476,14.9524,14.9524,0.158525,0.108192,0.691632,0.0420119,0.248297,0.33755,0,0,3.5875,-0.1925,-0.2625,0.003782,0.25742,-0.67771,-0.04676,0.0931,0.4613
-0.0849512,0,0,15.085,15.085,14.915,14.915,0.283171,0.110078,0.79344,-0.00697975,-0.101986,0.0476289,0,0,3.7275,0.1925,-0.3325,-0.045384,-0.094672,-0.965386,-0.04676,0.0931,0.4613
-0.144251,0,0,15.1443,15.1443,14.8557,14.8557,0.480837,0.139282,0.872779,0.0137705,-0.221518,-0.273291,0,0,3.6925,0.0525,-0.42,-0.024034,-0.217526,-1.28381,-0.04676,0.0931,0.4613
-0.202204,0,0,15.2022,15.2022,14.7978,14.7978,0.674013,0.16704,0.951781,0.0132861,-0.218146,-0.273326,0,0,3.3775,-0.21,-0.4725,-0.024034,-0.217526,-1.28381,-0.04676,0.0931,0.4613
-0.100702,0,0,15.1007,15.1007,14.8993,14.8993,0.335674,0.332944,0.862288,0.118027,0.222078,0.282932,0,0,3.2025,-0.105,-0.385,0.084058,0.22814,-0.731878,-0.04676,0.0931,0.4613
-0.00113038,0,0,15.0011,15.0011,14.9989,14.9989,0.00376793,0.495921,0.771576,0.115182,0.216285,0.282929,0,0,3.2025,-0.105,-0.385,0.084058,0.22814,-0.731878,-0.04676,0.0931,0.4613
-0.0643566,0,0,15.0644,15.0644,14.9356,14.9356,0.214522,0.454032,0.910886,-0.0572036,-0.225921,-0.218948,0,0,3.5525,0,-0.455,-0.089792,-0.217282,-1.22988,-0.04676,0.0931,0.4613
-0.0643188,0,0,15.0643,15.0643,14.9357,14.9357,0.214396,0.453528,0.911062,0.210074,-0.0583657,-0.155506,1,0,3.4825,-0.1925,-0.2975,0.178608,-0.049898,-1.16693,-0.04242,0.08904,0.46396
-0.0641682,0,0,15.0642,15.0642,14.9358,14.9358,0.213894,0.453382,0.91112,-0.0286431,0.212991,0.330755,1,0,3.2725,0.0175,-0.3675,-0.061122,0.221186,-0.68442,-0.04242,0.08904,0.46396
-0.127473,0,0,15.1275,15.1275,14.8725,14.8725,0.424911,0.383174,1.08396,-0.0752831,-0.192451,-0.0329382,0,0,3.29,-0.2975,-0.3325,-0.10919,-0.187514,-1.0453,-0.04242,0.08904,0.46396
-0.137402,0,0,15.1374,15.1374,14.8626,14.8626,0.458005,0.462043,1.10601,0.0765338,-0.0359172,-0.19463,0,0,3.395,-0.14,-0.5075,0.044652,-0.03172,-1.20573,-0.04242,0.08904,0.46396
-0.147308,0,0,15.1473,15.1473,14.8527,14.8527,0.491028,0.539421,1.12825,0.0751834,-0.035341,-0.194647,0,0,3.7275,0,-0.4025,0.044652,-0.03172,-1.20573,-0.04242,0.08904,0.46396
-0.101602,0,0,15.1016,15.1016,14.8984,14.8984,0.338674,0.600466,1.15106,0.040102,0.095851,0.292976,0,0,3.7625,0.07,-0.4375,0.010492,0.101992,-0.721874,-0.04242,0.08904,0.46396
-0.101713,0,0,15.1017,15.1017,14.8983,14.8983,0.339044,0.600262,1.15082,0.0401056,0.0958574,0.292976,1,0,3.7625,-0.0175,-0.5425,0.010492,0.101992,-0.721874,-0.04242,0.08904,0.46396
-0.10174,0,0,15.1017,15.1017,14.8983,14.8983,0.339133,0.600148,1.15067,0.0049982,-0.106505,-0.226482,1,0,3.605,0.035,-0.49,-0.024766,-0.100162,-1.23732,-0.0448,0.09198,0.46158
-0.101767,0,0,15.1018,15.1018,14.8982,14.8982,0.339223,0.599585,1.1506,0.29548,0.0169667,-0.0707058,1,0,3.605,-0.2275,-0.4375,0.266936,0.02318,-1.08275,-0.0448,0.09198,0.46158
-0.101729,0,0,15.1017,15.1017,14.8983,14.8983,0.339095,0.598961,1.1506,0.295491,0.0169644,-0.0707056,1,0,3.4825,-0.2625,-0.4025,0.266936,0.02318,-1.08275,-0.0448,0.09198,0.46158
-0.147478,0,0,15.1475,15.1475,14.8525,14.8525,0.491594,0.422413,1.40997,-0.152139,-0.130346,0.0329481,0,0,3.5875,-0.175,-0.3675,-0.185684,-0.126636,-0.979904,-0.0448,0.09198,0.46158
-0.192276,0,0,15.1923,15.1923,14.8077,14.8077,0.64092,0.249446,1.66782,-0.149121,-0.127739,0.03294,0,0,3.4825,-0.0875,-0.35,-0.185684,-0.126636,-0.979904,-0.0448,0.09198,0.46158
-0.198262,0,0,15.1983,15.1983,14.8017,14.8017,0.660874,0.507715,1.5168,0.277039,-0.0259042,-0.279998,0,0,3.4825,0.14,-0.4375,0.246806,-0.025254,-1.29039,-0.0448,0.09198,0.46158
-0.204089,0,0,15.2041,15.2041,14.7959,14.7959,0.680297,0.760491,1.36598,0.272627,-0.0255658,-0.28005,0,0,3.43,0.0875,-0.525,0.246806,-0.025254,-1.29039,-0.0448,0.09198,0.46158
-0.204032,0,0,15.204,15.204,14.796,14.796,0.680107,0.760376,1.36601,-0.18355,-0.0160432,0.215924,1,0,3.4475,0.035,-0.385,-0.211304,-0.015738,-0.798246,-0.0448,0.09198,0.46158
-0.203975,0,0,15.204,15.204,14.796,14.796,0.679918,0.76026,1.36604,-0.183548,-0.0160465,0.215924,1,0,3.4475,0.035,-0.385,-0.211304,-0.015738,-0.798246,-0.04592,0.08946,0.46186
-0.203955,0,0,15.204,15.204,14.796,14.796,0.67985,0.760624,1.36589,0.322677,-0.138052,-0.2396,1,0,3.5175,0.315,-0.49,0.29707,-0.137616,-1.25026,-0.04592,0.08946,0.46186
-0.203935,0,0,15.2039,15.2039,14.7961,14.7961,0.679783,0.760988,1.36574,0.32267,-0.138053,-0.2396,1,0,3.5175,0.315,-0.49,0.29707,-0.137616,-1.25026,-0.04592,0.08946,0.46186
-0.203849,0,0,15.2038,15.2038,14.7962,14.7962,0.679498,0.761143,1.36562,-0.184778,0.0270569,0.150392,1,0,3.395,0.1925,-0.4725,-0.212524,0.027328,-0.863272,-0.04592,0.08946,0.46186
-0.203764,0,0,15.2038,15.2038,14.7962,14.7962,0.679212,0.761298,1.3655,-0.184781,0.0270519,0.150392,1,0,3.395,0.1925,-0.4725,-0.212524,0.027328,-0.863272,-0.04592,0.08946,0.46186
-0.20365,0,0,15.2037,15.2037,14.7963,14.7963,0.678834,0.761123,1.36544,0.146028,-0.0324304,-0.139397,1,0,3.3425,0,-0.4375,0.119682,-0.032086,-1.15083,-0.04592,0.08946,0.46186
-0.203537,0,0,15.2035,15.2035,14.7965,14.7965,0.678456,0.760949,1.36538,0.146031,-0.032437,-0.139397,1,0,3.3425,0,-0.4375,0.119682,-0.032086,-1.15083,-0.04592,0.08946,0.46186
-0.215947,0,0,15.2159,15.2159,14.7841,14.7841,0.719823,0.760248,1.44783,0.00196116,-0.0319594,0.0795656,0,0,3.64,-4.4625,-0.35,-0.02501,-0.03233,-0.933544,-0.04592,0.08946,0.46186
-0.228108,0,0,15.2281,15.2281,14.7719,14.7719,0.760361,0.759241,1.52286,0.00197872,-0.031252,0.0795567,0,0,3.64,-4.4625,-0.35,-0.02501,-0.03233,-0.933544,-0.04508,0.0938,0.45738
-0.192832,0,0,15.1928,15.1928,14.8072,14.8072,0.642773,0.826887,1.53168,0.0616625,0.101524,0.0135421,0,0,3.4125,0.1225,-0.42,0.036112,0.102358,-0.999058,-0.04508,0.0938,0.45738
-0.158249,0,0,15.1582,15.1582,14.8418,14.8418,0.527498,0.89327,1.54043,0.0605041,0.099512,0.0135453,0,0,3.4125,0.1225,-0.42,0.036112,0.102358,-0.999058,-0.04508,0.0938,0.45738
-0.16133,0,0,15.1613,15.1613,14.8387,14.8387,0.537767,0.838132,1.66939,-0.0481138,-0.00997845,-0.0654977,0,0,3.7275,0.2275,-0.385,-0.073932,-0.007198,-1.0775,-0.04508,0.0938,0.45738
-0.164349,0,0,15.1643,15.1643,14.8357,14.8357,0.547829,0.784137,1.79813,-0.0471715,-0.00980272,-0.0654861,0,0,3.7275,0.2275,-0.385,-0.073932,-0.007198,-1.0775,-0.04508,0.0938,0.45738
-0.120495,0,0,15.1205,15.1205,14.8795,14.8795,0.40165,0.675957,1.96973,-0.0701881,0.109163,0.156112,0,0,3.535,0,-0.5425,-0.098942,0.114192,-0.85766,-0.04508,0.0938,0.45738
-0.120502,0,0,15.1205,15.1205,14.8795,14.8795,0.401672,0.675845,1.96921,-0.171019,0.108674,-0.440926,1,0,3.57,0.035,-0.7,-0.200202,0.113704,-1.45009,-0.04508,0.0938,0.45738
-0.120564,0,0,15.1206,15.1206,14.8794,14.8794,0.401879,0.675526,1.96846,-0.171014,0.108678,-0.440926,1,0,3.675,-0.0875,-0.84,-0.200202,0.113704,-1.45009,-0.04508,0.0938,0.45738
-0.120356,0,0,15.1204,15.1204,14.8796,14.8796,0.401188,0.674903,1.96836,0.197099,0.0709288,0.134351,1,0,3.1675,-0.2625,-0.455,0.169458,0.076006,-0.879254,-0.04886,0.09114,0.4634
-0.120063,0,0,15.1201,15.1201,14.8799,14.8799,0.400211,0.674732,1.96782,0.197102,0.0709118,0.134351,1,0,3.01,0,-0.7175,0.169458,0.076006,-0.879254,-0.04886,0.09114,0.4634
-0.0187077,0,0,15.0187,15.0187,14.9813,14.9813,0.062359,0.670046,2.03487,0.0206648,0.320383,-0.0404571,0,0,3.3075,-0.385,-0.7175,-0.007808,0.331108,-1.05274,-0.04886,0.09114,0.4634
0.0807412,0,0,14.9193,14.9193,15.0807,15.0807,-0.269137,0.665767,2.10249,0.0207395,0.314597,-0.0404667,0,0,3.3075,-0.385,-0.7175,-0.007808,0.331108,-1.05274,-0.04886,0.09114,0.4634
0.0185276,0,0,14.9815,14.9815,15.0185,15.0185,-0.0617588,0.461961,2.38666,-0.204826,-0.203875,-0.0899695,0,0,3.92,-0.07,-0.28,-0.2379,-0.190442,-1.1019,-0.04886,0.09114,0.4634
0.0183692,0,0,14.9816,14.9816,15.0184,15.0184,-0.0612308,0.462532,2.38669,0.0414159,0.0899708,0.108715,1,0,3.85,0.4375,-0.385,0.009394,0.10309,-0.904752,-0.04886,0.09114,0.4634
0.0179471,0,0,14.9821,14.9821,15.0179,15.0179,-0.0598237,0.463015,2.38735,0.0414075,0.0899954,0.108715,1,0,4.34,0.385,-0.0175,0.009394,0.10309,-0.904752,-0.04886,0.09114,0.4634
0.0177494,0,0,14.9823,14.9823,15.0177,15.0177,-0.0591647,0.463408,2.38812,-0.114465,0.186243,-0.177632,1,0,3.92,0.3325,0.0525,-0.147132,0.199226,-1.18889,-0.04886,0.09114,0.4634
0.0176194,0,0,14.9824,14.9824,15.0176,15.0176,-0.0587313,0.461978,2.38803,-0.114441,0.18625,-0.177632,1,0,3.7975,-0.735,-0.455,-0.147132,0.199226,-1.18889,-0.0511,0.09366,0.46746
0.017481,0,0,14.9825,14.9825,15.0175,15.0175,-0.0582701,0.460876,2.38752,-0.530145,0.132156,0.280352,1,0,3.815,-0.5425,-0.7,-0.564616,0.14518,-0.73444,-0.0511,0.09366,0.46746
0.017307,0,0,14.9827,14.9827,15.0173,15.0173,-0.05769,0.460431,2.38626,-0.530138,0.132166,0.280352,1,0,3.885,-0.1575,-1.1375,-0.564616,0.14518,-0.73444,-0.0511,0.09366,0.46746
0.0169174,0,0,14.9831,14.9831,15.0169,15.0169,-0.0563914,0.458671,2.38506,-0.0311651,-0.389781,0.212484,1,0,4.2875,-0.9275,-1.1025,-0.063562,-0.376248,-0.801784,-0.0511,0.09366,0.46746
0.016901,0,0,14.9831,14.9831,15.0169,15.0169,-0.0563367,0.460168,2.38446,-0.0311913,-0.38978,0.212484,1,0,3.5875,0.98,-0.7525,-0.063562,-0.376248,-0.801784,-0.0511,0.09366,0.46746
0.0170905,0,0,14.9829,14.9829,15.0171,15.0171,-0.0569684,0.461277,2.38389,-0.163509,-0.0721391,0.221582,1,0,3.2025,0.7525,-0.735,-0.19642,-0.058926,-0.792756,-0.0511,0.09366,0.46746
0.0178716,0,0,14.9821,14.9821,15.0179,15.0179,-0.0595719,0.460234,2.38266,-0.16349,-0.0721845,0.221582,1,0,2.1,-0.5075,-1.12,-0.19642,-0.058926,-0.792756,-0.0511,0.09366,0.46746
0.0188398,0,0,14.9812,14.9812,15.0188,15.0188,-0.0627995,0.460805,2.38146,0.437975,-1.24099,0.724073,1,0,1.75,0.4375,-1.1025,0.407602,-1.22647,-0.294142,-0.0511,0.09366,0.46746
0.0199851,0,0,14.98,14.98,15.02,15.02,-0.0666172,0.459045,2.38062,0.438006,-1.24106,0.724073,1,0,1.4175,-0.9275,-0.8925,0.407602,-1.22647,-0.294142,-0.04228,0.09674,0.46816
0.0208589,0,0,14.9791,14.9791,15.0209,15.0209,-0.0695296,0.456957,2.37978,-0.72251,-0.182883,-0.436315,1,0,1.925,-1.12,-0.8925,-0.757864,-0.169336,-1.44558,-0.04228,0.09674,0.46816
0.0203478,0,0,14.9797,14.9797,15.0203,15.0203,-0.067826,0.457946,2.37849,-0.722528,-0.182853,-0.436315,1,0,4.515,0.6825,-1.155,-0.757864,-0.169336,-1.44558,-0.04228,0.09674,0.46816
0.0198545,0,0,14.9801,14.9801,15.0199,15.0199,-0.0661817,0.458636,2.37759,0.350422,-0.26294,0.356949,1,0,4.48,0.5075,-0.9275,0.31964,-0.249368,-0.658434,-0.04228,0.09674,0.46816
0.0183671,0,0,14.9816,14.9816,15.0184,15.0184,-0.0612237,0.458042,2.37732,0.350432,-0.262853,0.356949,1,0,6.335,-0.245,-0.56,0.31964,-0.249368,-0.658434,-0.04228,0.09674,0.46816
0.017253,0,0,14.9827,14.9827,15.0173,15.0173,-0.0575099,0.457299,2.37758,-0.0443831,0.113118,-0.253244,1,0,5.635,-0.3325,-0.245,-0.07686,0.126148,-1.26392,-0.04228,0.09674,0.46816
0.0172224,0,0,14.9828,14.9828,15.0172,15.0172,-0.0574079,0.458231,2.37899,-0.0443994,0.113119,-0.253244,1,0,3.605,0.6475,0.42,-0.07686,0.126148,-1.26392,-0.04228,0.09674,0.46816
0.0175279,0,0,14.9825,14.9825,15.0175,15.0175,-0.0584264,0.458954,2.38079,0.0892223,-0.0547004,0.17019,1,0,2.975,0.525,0.6475,0.05734,-0.04148,-0.843752,-0.04228,0.09674,0.46816
0.018413,0,0,14.9816,14.9816,15.0184,15.0184,-0.0613766,0.459617,2.38304,0.0892107,-0.0547519,0.17019,1,0,1.89,0.49,0.91,0.05734,-0.04148,-0.843752,-0.04312,0.09814,0.46438
0.019495,0,0,14.9805,14.9805,15.0195,15.0195,-0.0649834,0.458936,2.38513,0.112062,-0.275742,-0.249925,1,0,1.5225,-0.2975,0.8225,0.080276,-0.262178,-1.26063,-0.04312,0.09814,0.46438
0.0201278,0,0,14.9799,14.9799,15.0201,15.0201,-0.0670925,0.457509,2.38717,0.112087,-0.275779,-0.249925,1,0,2.3625,-0.735,0.7875,0.080276,-0.262178,-1.26063,-0.04312,0.09814,0.46438
0.0206762,0,0,14.9793,14.9793,15.0207,15.0207,-0.0689207,0.457067,2.38921,0.225562,-0.186048,-0.341276,1,0,2.52,-0.1575,0.7875,0.194224,-0.172508,-1.35127,-0.04312,0.09814,0.46438
0.0198201,0,0,14.9802,14.9802,15.0198,15.0198,-0.0660671,0.456864,2.39122,0.225566,-0.185998,-0.341276,1,0,5.145,-0.0175,0.77,0.194224,-0.172508,-1.35127,-0.04312,0.09814,0.46438
0.0190748,0,0,14.9809,14.9809,15.0191,15.0191,-0.0635825,0.455378,2.39392,-0.17191,0.327711,-0.264433,1,0,4.935,-0.77,1.1725,-0.20496,0.340624,-1.27502,-0.04312,0.09814,0.46438
0.0183294,0,0,14.9817,14.9817,15.0183,15.0183,-0.061098,0.453891,2.39662,-0.171884,0.327754,-0.264432,1,0,4.935,-0.77,1.1725,-0.20496,0.340624,-1.27502,-0.04312,0.09814,0.46438
0.017146,0,0,14.9829,14.9829,15.0171,15.0171,-0.0571532,0.454256,2.39848,-0.125847,-0.085332,0.187403,1,0,5.7575,0.315,0.6825,-0.158722,-0.072102,-0.826672,-0.04312,0.09814,0.46438
0.0159625,0,0,14.984,14.984,15.016,15.016,-0.0532084,0.45462,2.40033,-0.125853,-0.0852632,0.187403,1,0,5.7575,0.315,0.6825,-0.158722,-0.072102,-0.826672,-0.04228,0.09996,0.46956
0.0158424,0,0,14.9842,14.9842,15.0158,15.0158,-0.0528081,0.45552,2.4,0.273697,-0.0803711,0.191707,1,0,3.78,0.63,-0.595,0.242536,-0.067222,-0.822402,-0.04228,0.09996,0.46956
0.0157223,0,0,14.9843,14.9843,15.0157,15.0157,-0.0524078,0.45642,2.39967,0.273682,-0.0803641,0.191706,1,0,3.78,0.63,-0.595,0.242536,-0.067222,-0.822402,-0.04228,0.09996,0.46956
0.0162214,0,0,14.9838,14.9838,15.0162,15.0162,-0.0540712,0.456154,2.39889,0.253641,-0.0717222,-0.151074,1,0,2.625,-0.0525,-0.8575,0.222406,-0.05856,-1.16254,-0.04228,0.09996,0.46956
0.0167204,0,0,14.9833,14.9833,15.0167,15.0167,-0.0557346,0.455889,2.39811,0.253646,-0.0717512,-0.151074,1,0,2.625,-0.0525,-0.8575,0.222406,-0.05856,-1.16254,-0.04228,0.09996,0.46956
0.0168483,0,0,14.9832,14.9832,15.0168,15.0168,-0.0561609,0.45595,2.39589,0.315481,-0.144302,-0.354431,1,0,3.325,0.14,-1.6975,0.284504,-0.131028,-1.36433,-0.04228,0.09996,0.46956
0.0169762,0,0,14.983,14.983,15.017,15.017,-0.0565872,0.456012,2.39367,0.31548,-0.144309,-0.354431,1,0,3.325,0.14,-1.6975,0.284504,-0.131028,-1.36433,-0.04228,0.09996,0.46956
0.0164412,0,0,14.9836,14.9836,15.0164,15.0164,-0.054804,0.457745,2.3906,0.0389483,-0.275198,-0.20886,1,0,4.5675,1.12,-2.1875,0.006832,-0.261812,-1.21988,-0.04228,0.09996,0.46956
0.0159063,0,0,14.9841,14.9841,15.0159,15.0159,-0.053021,0.459479,2.38754,0.038918,-0.275167,-0.20886,1,0,4.5675,1.12,-2.1875,0.006832,-0.261812,-1.21988,-0.04214,0.1029,0.47614
0.0837732,0,0,14.9162,14.9162,15.0838,15.0838,-0.279244,0.285253,2.6106,-0.12557,0.18289,0.113642,0,0,4.095,0.2625,-1.5575,-0.161406,0.199714,-0.899872,-0.04214,0.1029,0.47614
0.150375,0,0,14.8496,14.8496,15.1504,15.1504,-0.501249,0.114621,2.83505,-0.122592,0.179016,0.113626,0,0,4.095,0.2625,-1.5575,-0.161406,0.199714,-0.899872,-0.04214,0.1029,0.47614
0.13389,0,0,14.8661,14.8661,15.1339,15.1339,-0.4463,0.874172,2.15845,0.644333,-0.0543858,0.252574,0,0,3.08,0.6125,-2.1875,0.622078,-0.034404,-0.76189,-0.04214,0.1029,0.47614
0.134393,0,0,14.8656,14.8656,15.1344,15.1344,-0.447977,0.873044,2.1551,-0.624808,0.074795,0.0131937,1,0,2.6425,-0.5425,-2.3625,-0.652456,0.094672,-0.999424,-0.04214,0.1029,0.47614
0.135033,0,0,14.865,14.865,15.135,15.135,-0.45011,0.872282,2.15255,-0.624795,0.0747578,0.0131936,1,0,2.38,-0.3325,-1.89,-0.652456,0.094672,-0.999424,-0.04214,0.1029,0.47614
0.134219,0,0,14.8658,14.8658,15.1342,15.1342,-0.447395,0.871464,2.15064,-0.42518,0.244928,-0.228277,1,0,5.0925,-0.3675,-1.5225,-0.45201,0.264618,-1.23903,-0.04214,0.1029,0.47614
0.13342,0,0,14.8666,14.8666,15.1334,15.1334,-0.444733,0.870174,2.14936,-0.425157,0.244974,-0.228276,1,0,5.0575,-0.6475,-1.155,-0.45201,0.264618,-1.23903,-0.04214,0.1029,0.47614
0.133674,0,0,14.8663,14.8663,15.1337,15.1337,-0.445581,0.972519,2.10593,0.0809885,0.00266017,0.0789435,0,0,5.2325,-0.5075,-1.2775,0.058072,0.02257,-0.934154,-0.04214,0.1029,0.47614
0.13394,0,0,14.8661,14.8661,15.1339,15.1339,-0.446467,1.07305,2.06237,0.0792342,0.00264494,0.0789121,0,0,5.1975,-0.385,-0.8575,0.058072,0.02257,-0.934154,-0.04284,0.10318,0.48328
0.133336,0,0,14.8667,14.8667,15.1333,15.1333,-0.444453,1.07329,2.06176,-0.0322938,0.100626,0.312391,1,0,4.69,0.245,-0.7525,-0.053924,0.120414,-0.702476,-0.04284,0.10318,0.48328
0.133279,0,0,14.8667,14.8667,15.1333,15.1333,-0.444262,1.0744,2.06208,-0.0323132,0.100629,0.312391,1,0,3.6575,0.7525,-0.21,-0.053924,0.120414,-0.702476,-0.04284,0.10318,0.48328
0.121902,0,0,14.8781,14.8781,15.1219,15.1219,-0.406342,1.56013,1.64614,0.382103,-0.0348792,0.164663,0,0,2.6775,0.4725,0.1225,0.370758,-0.015616,-0.848876,-0.04284,0.10318,0.48328
0.111357,0,0,14.8886,14.8886,15.1114,15.1114,-0.371189,2.03793,1.23102,0.373768,-0.0342642,0.164405,0,0,1.5575,1.085,0.0875,0.370758,-0.015616,-0.848876,-0.04284,0.10318,0.48328
0.11183,0,0,14.8882,14.8882,15.1118,15.1118,-0.372767,2.03839,1.23237,-0.420756,0.11336,0.263501,1,0,2.6425,0.3675,0.385,-0.427122,0.131882,-0.750544,-0.04284,0.10318,0.48328
0.111736,0,0,14.8883,14.8883,15.1117,15.1117,-0.372452,2.03775,1.23429,-0.420745,0.113365,0.263502,1,0,3.6925,-0.28,0.7175,-0.427122,0.131882,-0.750544,-0.04284,0.10318,0.48328
0.110958,0,0,14.889,14.889,15.111,15.111,-0.369861,2.03657,1.23613,-0.33775,-0.0557353,-0.284602,1,0,4.97,-0.595,0.665,-0.343796,-0.037088,-1.29442,-0.04284,0.10318,0.48328
0.110317,0,0,14.8897,14.8897,15.1103,15.1103,-0.367725,2.03545,1.23749,-0.33773,-0.0556981,-0.284601,1,0,4.725,-0.56,0.385,-0.343796,-0.037088,-1.29442,-0.04928,0.10724,0.48076
0.0902877,0,0,14.9097,14.9097,15.0903,15.0903,-0.300959,2.43599,0.89033,0.364396,-0.0639359,0.00430827,0,0,4.1475,0.805,0.77,0.368318,-0.046482,-1.00748,-0.04928,0.10724,0.48076
0.0696418,0,0,14.9304,14.9304,15.0696,15.0696,-0.232139,2.82766,0.544617,0.357568,-0.0627346,0.00399997,0,0,6.0025,0.1225,0.91,0.368318,-0.046482,-1.00748,-0.04928,0.10724,0.48076
0.0688285,0,0,14.9312,14.9312,15.0688,15.0688,-0.229428,2.82854,0.546473,-0.733511,0.0777584,-0.417714,1,0,5.0225,0.6125,0.6825,-0.727364,0.093818,-1.42594,-0.04928,0.10724,0.48076
0.0677669,0,0,14.9322,14.9322,15.0678,15.0678,-0.22589,2.83046,0.547395,-0.733544,0.0778201,-0.417715,1,0,5.5125,1.225,0.14,-0.727364,0.093818,-1.42594,-0.04928,0.10724,0.48076
0.0666692,0,0,14.9333,14.9333,15.0667,15.0667,-0.222231,2.83115,0.548862,0.375365,0.232252,0.283951,1,0,5.565,0.5075,0.455,0.386252,0.248026,-0.729682,-0.04928,0.10724,0.48076
0.0660588,0,0,14.9339,14.9339,15.0661,15.0661,-0.220196,2.83218,0.550298,0.375347,0.232288,0.283951,1,0,4.655,0.7,0.4375,0.386252,0.248026,-0.729682,-0.04928,0.10724,0.48076
0.0665767,0,0,14.9334,14.9334,15.0666,15.0666,-0.221922,2.65311,0.737618,-0.162993,0.00400204,-0.0774915,0,0,4.8825,1.015,0.3675,-0.157502,0.020008,-1.08848,-0.04928,0.10724,0.48076
0.0679625,0,0,14.932,14.932,15.068,15.068,-0.226542,2.47617,0.908468,-0.159908,0.00392096,-0.0773536,0,0,3.255,-0.2625,-0.035,-0.157502,0.020008,-1.08848,-0.04676,0.11634,0.48804
0.0678603,0,0,14.9321,14.9321,15.0679,15.0679,-0.226201,2.47611,0.908467,-0.265599,0.025177,-0.163663,1,0,3.745,0.07,-0.4025,-0.263642,0.041236,-1.17413,-0.04676,0.11634,0.48804
0.0678625,0,0,14.9321,14.9321,15.0679,15.0679,-0.226208,2.47773,0.908369,-0.265627,0.0251768,-0.163665,1,0,3.5525,1.05,-0.455,-0.263642,0.041236,-1.17413,-0.04676,0.11634,0.48804
0.0559436,0,0,14.9441,14.9441,15.0559,15.0559,-0.186479,2.23671,1.14575,-0.210279,-0.0355607,0.000893049,0,0,4.2525,0.735,-0.315,-0.21228,-0.02013,-1.01101,-0.04676,0.11634,0.48804
0.0435813,0,0,14.9564,14.9564,15.0436,15.0436,-0.145271,1.99851,1.38158,-0.206124,-0.0348425,0.00104874,0,0,5.5475,-0.4025,-0.84,-0.21228,-0.02013,-1.01101,-0.04676,0.11634,0.48804
0.0426904,0,0,14.9573,14.9573,15.0427,15.0427,-0.142301,1.99738,1.38089,-0.021325,-0.10538,0.265266,1,0,5.2325,-0.56,-0.805,-0.026718,-0.090646,-0.748836,-0.04676,0.11634,0.48804
0.0411612,0,0,14.9588,14.9588,15.0412,15.0412,-0.137204,1.996,1.37945,-0.021301,-0.105291,0.265267,1,0,6.44,-0.7,-1.2425,-0.026718,-0.090646,-0.748836,-0.04676,0.11634,0.48804
0.100313,0,0,14.8997,14.8997,15.1003,15.1003,-0.334376,2.34586,1.05233,0.319682,0.190726,0.0230588,0,0,5.775,0.1575,-1.33,0.321836,0.208498,-0.988932,-0.04676,0.11634,0.48804
0.158911,0,0,14.8411,14.8411,15.1589,15.1589,-0.529702,2.68588,0.717806,0.313753,0.187322,0.0227727,0,0,4.9175,-0.035,-1.0325,0.321836,0.208498,-0.988932,-0.03906,0.11914,0.50176
0.158132,0,0,14.8419,14.8419,15.1581,15.1581,-0.527106,2.68438,0.716648,-0.382212,0.105909,-0.194845,1,0,5.04,-0.77,-1.085,-0.377102,0.127124,-1.20487,-0.03906,0.11914,0.50176
0.157623,0,0,14.8424,14.8424,15.1576,15.1576,-0.52541,2.68285,0.71561,-0.382186,0.105938,-0.194843,1,0,4.5325,-0.7875,-1.015,-0.377102,0.127124,-1.20487,-0.03906,0.11914,0.50176
0.156248,0,0,14.8438,14.8438,15.1562,15.1562,-0.520826,2.68318,0.714915,-0.0783556,0.0691361,-0.211195,1,0,6.1425,0.2975,-0.805,-0.07198,0.09028,-1.2211,-0.03906,0.11914,0.50176
0.155509,0,0,14.8445,14.8445,15.1555,15.1555,-0.518363,2.68413,0.714244,-0.0783722,0.0691791,-0.211195,1,0,4.9525,0.665,-0.7875,-0.07198,0.09028,-1.2211,-0.03906,0.11914,0.50176
0.15426,0,0,14.8457,14.8457,15.1543,15.1543,-0.514201,2.68458,0.713848,-0.0997615,-0.177078,0.272608,1,0,5.8975,0.3675,-0.63,-0.093452,-0.155794,-0.741028,-0.03906,0.11914,0.50176
0.154112,0,0,14.8459,14.8459,15.1541,15.1541,-0.513706,2.68381,0.713824,-0.099748,-0.177069,0.272608,1,0,3.8325,-0.35,-0.42,-0.093452,-0.155794,-0.741028,-0.03906,0.11914,0.50176
0.154377,0,0,14.8456,14.8456,15.1544,15.1544,-0.51459,2.68379,0.714333,-0.0687688,-0.112968,0.126054,1,0,3.045,0.0875,-0.105,-0.062342,-0.091744,-0.886452,-0.03906,0.11914,0.50176
0.154084,0,0,14.8459,14.8459,15.1541,15.1541,-0.513613,2.68305,0.715269,-0.068756,-0.112951,0.126054,1,0,4.0775,-0.3325,0.14,-0.062342,-0.091744,-0.886452,-0.03654,0.12572,0.50022
0.145361,0,0,14.8546,14.8546,15.1454,15.1454,-0.484537,2.69458,0.689436,0.0162044,-0.0273219,-0.0812419,0,0,3.71,-0.5425,0.3325,0.02318,-0.00671,-1.09214,-0.03654,0.12572,0.50022
0.136805,0,0,14.8632,14.8632,15.1368,15.1368,-0.456017,2.70589,0.663614,0.0160072,-0.0268246,-0.0812471,0,0,3.71,-0.5425,0.3325,0.02318,-0.00671,-1.09214,-0.03654,0.12572,0.50022
0.223705,0,0,14.7763,14.7763,15.2237,15.2237,-0.745684,2.28805,1.05003,-0.385506,0.271606,0.0684,0,0,5.7225,-0.8225,-0.175,-0.38735,0.29646,-0.943914,-0.03654,0.12572,0.50022
0.309088,0,0,14.6909,14.6909,15.3091,15.3091,-1.03029,1.87731,1.44053,-0.378342,0.266639,0.0685836,0,0,5.7225,-0.8225,-0.175,-0.38735,0.29646,-0.943914,-0.03654,0.12572,0.50022
0.30795,0,0,14.6921,14.6921,15.3079,15.3079,-1.0265,1.87886,1.44017,0.199052,0.158379,-0.213214,1,0,5.6875,1.015,-0.595,0.192516,0.188246,-1.22354,-0.03654,0.12572,0.50022
0.306812,0,0,14.6932,14.6932,15.3068,15.3068,-1.02271,1.88042,1.43981,0.199025,0.158445,-0.213214,1,0,5.6875,1.015,-0.595,0.192516,0.188246,-1.22354,-0.03654,0.12572,0.50022
0.306739,0,0,14.6933,14.6933,15.3067,15.3067,-1.02246,1.88212,1.43966,-0.0304912,0.18837,0.145918,1,0,3.6925,1.1025,-0.4725,-0.037942,0.218136,-0.867176,-0.03654,0.12572,0.50022
0.21744,0,0,14.7826,14.7826,15.2174,15.2174,-0.7248,1.99075,1.33734,0.0943235,-0.271496,0.0352793,0,0,3.5175,0.84,-0.0875,0.089304,-0.24644,-0.976976,-0.03654,0.12572,0.50022
0.128916,0,0,14.8711,14.8711,15.1289,15.1289,-0.429719,2.09493,1.23491,0.0925063,-0.266349,0.0352664,0,0,5.145,-0.245,-0.245,0.089304,-0.24644,-0.976976,-0.0357,0.12614,0.51058
0.127741,0,0,14.8723,14.8723,15.1277,15.1277,-0.425805,2.09404,1.23533,0.104427,0.267291,0.278828,1,0,5.74,-0.42,-0.1575,0.10126,0.286578,-0.735294,-0.0357,0.12614,0.51058
0.126591,0,0,14.8734,14.8734,15.1266,15.1266,-0.421969,2.09363,1.2353,0.104435,0.267358,0.278829,1,0,5.705,-0.14,-0.42,0.10126,0.286578,-0.735294,-0.0357,0.12614,0.51058
0.125761,0,0,14.8742,14.8742,15.1258,15.1258,-0.419203,2.09292,1.23507,-0.163064,0.0989938,-0.19612,1,0,5.11,-0.315,-0.5425,-0.167384,0.11834,-1.20658,-0.0357,0.12614,0.51058
0.125715,0,0,14.8743,14.8743,15.1257,15.1257,-0.419049,2.09337,1.23509,-0.163072,0.0989965,-0.19612,1,0,3.64,0.3675,-0.385,-0.167384,0.11834,-1.20658,-0.0357,0.12614,0.51058
0.1261,0,0,14.8739,14.8739,15.1261,15.1261,-0.420335,2.09463,1.23499,0.151675,-0.33482,-0.191818,1,0,2.835,0.84,-0.455,0.148718,-0.315004,-1.20231,-0.0357,0.12614,0.51058
0.125794,0,0,14.8742,14.8742,15.1258,15.1258,-0.419313,2.09621,1.23486,0.151648,-0.334802,-0.191819,1,0,4.13,1.0325,-0.4725,0.148718,-0.315004,-1.20231,-0.0357,0.12614,0.51058
0.125433,0,0,14.8746,14.8746,15.1254,15.1254,-0.418111,2.09765,1.23452,-0.10617,0.0789841,-0.156656,1,0,4.235,0.945,-0.595,-0.110166,0.098332,-1.16742,-0.0357,0.12614,0.51058
0.124016,0,0,14.876,14.876,15.124,15.124,-0.413388,2.09798,1.23484,-0.106176,0.0790664,-0.156656,1,0,6.195,0.2975,-0.21,-0.110166,0.098332,-1.16742,-0.0413,0.12936,0.5026
0.122198,0,0,14.8778,14.8778,15.1222,15.1222,-0.407328,2.09802,1.23505,-0.0566104,-0.106827,0.199772,1,0,6.9475,0.1225,-0.28,-0.06039,-0.087474,-0.81374,-0.0413,0.12936,0.5026
0.121042,0,0,14.879,14.879,15.121,15.121,-0.403474,2.09791,1.23553,-0.0566084,-0.10676,0.199773,1,0,5.705,0.035,-0.1225,-0.06039,-0.087474,-0.81374,-0.0413,0.12936,0.5026
0.00632992,0,0,14.9937,14.9937,15.0063,15.0063,-0.0210997,2.00994,1.313,-0.0756052,-0.343001,0.0651011,0,0,5.495,-0.315,-0.28,-0.081008,-0.330132,-0.947452,-0.0413,0.12936,0.5026
-0.10568,0,0,15.1057,15.1057,14.8943,14.8943,0.352265,1.92293,1.38887,-0.0740875,-0.336488,0.0651344,0,0,4.305,-0.7175,-0.4375,-0.081008,-0.330132,-0.947452,-0.0413,0.12936,0.5026
-0.105411,0,0,15.1054,15.1054,14.8946,14.8946,0.35137,2.01762,1.29072,0.0710156,0.00178721,0.105528,0,0,3.815,-0.6125,-0.4725,0.066368,0.007808,-0.907314,-0.0413,0.12936,0.5026
-0.105354,0,0,15.1054,15.1054,14.8946,14.8946,0.35118,2.11092,1.19295,0.0693882,0.00178353,0.105469,0,0,4.2,-0.315,-0.315,0.066368,0.007808,-0.907314,-0.0413,0.12936,0.5026
-0.10569,0,0,15.1057,15.1057,14.8943,14.8943,0.3523,2.11137,1.19293,0.0199357,-0.0593824,-0.100839,1,0,4.1825,0.3675,-0.42,0.016714,-0.053314,-1.11203,-0.0413,0.12936,0.5026
-0.10631,0,0,15.1063,15.1063,14.8937,14.8937,0.354367,2.11122,1.19319,0.0199382,-0.0593464,-0.100839,1,0,4.7075,0.0175,-0.245,0.016714,-0.053314,-1.11203,-0.04424,0.12782,0.50694
-0.106881,0,0,15.1069,15.1069,14.8931,14.8931,0.35627,2.11159,1.19325,-0.154886,0.108489,0.317431,1,0,4.62,0.315,-0.3675,-0.158844,0.114314,-0.696986,-0.04424,0.12782,0.50694
-0.107754,0,0,15.1078,15.1078,14.8922,14.8922,0.35918,2.11198,1.19352,-0.154893,0.10854,0.317431,1,0,5.18,0.3325,-0.245,-0.158844,0.114314,-0.696986,-0.04424,0.12782,0.50694
-0.121049,0,0,15.121,15.121,14.879,14.879,0.403497,2.2007,1.10331,0.0771767,-0.0384611,-0.00242172,0,0,4.9,0.4375,-0.35,0.075762,-0.033306,-1.01431,-0.04424,0.12782,0.50694
-0.134058,0,0,15.1341,15.1341,14.8659,14.8659,0.446861,2.28649,1.01286,0.0756805,-0.0377053,-0.00248595,0,0,4.8475,-0.245,-0.6125,0.075762,-0.033306,-1.01431,-0.04424,0.12782,0.50694
-0.134756,0,0,15.1348,15.1348,14.8652,14.8652,0.449186,2.2856,1.01252,0.206901,0.0655323,-0.271866,1,0,4.865,-0.42,-0.595,0.207522,0.069784,-1.28161,-0.04424,0.12782,0.50694
-0.134927,0,0,15.1349,15.1349,14.8651,14.8651,0.449755,2.284,1.01199,0.206929,0.0655423,-0.271865,1,0,3.885,-0.84,-0.7,0.207522,0.069784,-1.28161,-0.04424,0.12782,0.50694
-0.135146,0,0,15.1351,15.1351,14.8649,14.8649,0.450487,2.28338,1.01163,-0.176591,0.0399084,-0.15408,1,0,3.9725,-0.2625,-0.6125,-0.177632,0.044164,-1.16473,-0.04424,0.12782,0.50694
-0.135366,0,0,15.1354,15.1354,14.8646,14.8646,0.451219,2.28276,1.01126,-0.17658,0.0399212,-0.154079,1,0,3.9725,-0.2625,-0.6125,-0.177632,0.044164,-1.16473,-0.04998,0.12852,0.5124
-0.174334,0,0,15.1743,15.1743,14.8257,14.8257,0.581114,2.29069,0.996434,0.00198696,-0.108152,0.0954801,0,0,2.8875,1.085,-0.6125,0.00183,-0.106018,-0.917074,-0.04998,0.12852,0.5124
-0.212571,0,0,15.2126,15.2126,14.7874,14.7874,0.708571,2.29848,0.981604,0.00185119,-0.105929,0.0954496,0,0,2.8875,1.085,-0.6125,0.00183,-0.106018,-0.917074,-0.04998,0.12852,0.5124
-0.216705,0,0,15.2167,15.2167,14.7833,14.7833,0.722351,2.06629,1.18865,-0.187504,-0.0120157,0.0872404,0,0,2.975,0.6475,-0.63,-0.192394,-0.012444,-0.92537,-0.04998,0.12852,0.5124
-0.22075,0,0,15.2208,15.2208,14.7792,14.7792,0.735835,1.8387,1.39527,-0.183535,-0.0117788,0.0873728,0,0,2.975,0.6475,-0.63,-0.192394,-0.012444,-0.92537,-0.04998,0.12852,0.5124
-0.246171,0,0,15.2462,15.2462,14.7538,14.7538,0.820571,1.88459,1.34935,0.0387125,-0.0749062,0.0167542,0,0,4.41,-0.14,-0.7,0.031598,-0.076982,-0.995398,-0.04998,0.12852,0.5124
-0.246598,0,0,15.2466,15.2466,14.7534,14.7534,0.821994,1.88448,1.34905,0.156556,0.177555,-0.174062,1,0,4.3575,0.035,-0.5775,0.149938,0.175192,-1.18474,-0.04998,0.12852,0.5124
-0.246582,0,0,15.2466,15.2466,14.7534,14.7534,0.82194,1.88466,1.34941,0.156552,0.177554,-0.174062,1,0,3.5175,0.21,-0.1925,0.149938,0.175192,-1.18474,-0.04998,0.12852,0.5124
-0.24612,0,0,15.2461,15.2461,14.7539,14.7539,0.820399,1.88418,1.35009,-0.0619919,-0.0611088,-0.226438,1,0,2.6775,-0.175,0,-0.06954,-0.063196,-1.23671,-0.04564,0.12978,0.51632
-0.245419,0,0,15.2454,15.2454,14.7546,14.7546,0.818062,1.88458,1.35124,-0.0619989,-0.0611496,-0.226437,1,0,2.2225,0.35,0.2625,-0.06954,-0.063196,-1.23671,-0.04564,0.12978,0.51632
-0.309053,0,0,15.3091,15.3091,14.6909,14.6909,1.03018,1.8283,1.4005,-0.0498405,-0.212184,-0.0517553,0,0,2.345,0.35,0.315,-0.058316,-0.21777,-1.06335,-0.04564,0.12978,0.51632
-0.371509,0,0,15.3715,15.3715,14.6285,14.6285,1.23836,1.77313,1.44921,-0.048878,-0.208552,-0.051797,0,0,2.345,0.35,0.315,-0.058316,-0.21777,-1.06335,-0.04564,0.12978,0.51632
-0.44109,0,0,15.4411,15.4411,14.5589,14.5589,1.4703,1.68669,1.52758,-0.0743399,-0.213421,0.029176,0,0,2.7125,0.28,0.42,-0.0854,-0.226676,-0.982954,-0.04564,0.12978,0.51632
-0.509388,0,0,15.5094,15.5094,14.4906,14.4906,1.69796,1.60195,1.60505,-0.0728615,-0.20945,0.0291086,0,0,2.7125,0.28,0.42,-0.0854,-0.226676,-0.982954,-0.04564,0.12978,0.51632
-0.506848,0,0,15.5068,15.5068,14.4932,14.4932,1.68949,2.05075,1.18934,0.413027,0.00680355,0.0150932,0,0,2.8,-0.07,0.2975,0.410408,-0.010492,-0.996618,-0.04564,0.12978,0.51632
-0.514177,0,0,15.5142,15.5142,14.4858,14.4858,1.71392,1.77422,1.43674,-0.216426,-0.0187787,0.112986,0,0,2.8875,0.0175,0.14,-0.226554,-0.036478,-0.899628,-0.04564,0.12978,0.51632
-0.521546,0,0,15.5215,15.5215,14.4785,14.4785,1.73849,1.50332,1.70362,-0.2117,-0.0183463,0.113108,0,0,3.2725,-0.35,0.175,-0.226554,-0.036478,-0.899628,-0.04438,0.11662,0.49658
-0.540633,0,0,15.5406,15.5406,14.4594,14.4594,1.80211,1.53738,1.69436,0.0315278,-0.0635233,-0.0561193,0,0,3.605,-0.1925,0.175,0.0183,-0.082716,-1.0675,-0.04438,0.11662,0.49658
-0.559658,0,0,15.5597,15.5597,14.4403,14.4403,1.86553,1.57112,1.68485,0.0309393,-0.062418,-0.0561707,0,0,4.165,0.035,0,0.0183,-0.082716,-1.0675,-0.04438,0.11662,0.49658
-0.544565,0,0,15.5446,15.5446,14.4554,14.4554,1.81522,1.79413,1.4977,0.206362,0.048325,-0.0512158,0,0,3.5875,0.35,-0.28,0.198372,0.028792,-1.0625,-0.04438,0.11662,0.49658
-0.52923,0,0,15.5292,15.5292,14.4708,14.4708,1.7641,2.01307,1.30971,0.202542,0.0474298,-0.0513149,0,0,2.66,0.5425,-0.7525,0.198372,0.028792,-1.0625,-0.04438,0.11662,0.49658
-0.528469,0,0,15.5285,15.5285,14.4715,14.4715,1.76156,2.01346,1.30873,-0.00180332,-0.0021979,-0.163566,1,0,2.1525,0.315,-0.98,-0.006832,-0.02074,-1.17388,-0.04438,0.11662,0.49658
-0.527709,0,0,15.5277,15.5277,14.4723,14.4723,1.75903,2.01245,1.30771,-0.00178569,-0.00224209,-0.163564,1,0,2.1525,-0.5075,-0.98,-0.006832,-0.02074,-1.17388,-0.04438,0.11662,0.49658
-0.526953,0,0,15.527,15.527,14.473,14.473,1.75651,2.01136,1.30629,-0.272072,0.0965146,-0.207331,1,0,2.17,-0.56,-1.2075,-0.278282,0.077958,-1.21732,-0.04438,0.11662,0.49658
-0.526869,0,0,15.5269,15.5269,14.4731,14.4731,1.75623,2.0104,1.30458,-0.272056,0.0965097,-0.207331,1,0,3.43,-0.49,-1.3825,-0.278282,0.077958,-1.21732,-0.04228,0.12026,0.49476
-0.526885,0,0,15.5269,15.5269,14.4731,14.4731,1.75628,2.00993,1.30267,-0.218715,0.0146857,-0.091267,1,0,3.6225,-0.21,-1.505,-0.224724,-0.003782,-1.10215,-0.04228,0.12026,0.49476
-0.526986,0,0,15.527,15.527,14.473,14.473,1.75662,2.01014,1.30078,-0.218719,0.0146916,-0.0912673,1,0,3.78,0.1925,-1.505,-0.224724,-0.003782,-1.10215,-0.04228,0.12026,0.49476
-0.551628,0,0,15.5516,15.5516,14.4484,14.4484,1.83876,2.45919,0.891159,0.34018,-0.0640013,0.18182,0,0,3.36,0.595,-1.4,0.344406,-0.083814,-0.83082,-0.04228,0.12026,0.49476
-0.57533,0,0,15.5753,15.5753,14.4247,14.4247,1.91777,2.89962,0.483603,0.332502,-0.0626365,0.181415,0,0,2.485,0.49,-1.225,0.344406,-0.083814,-0.83082,-0.04228,0.12026,0.49476
-0.513136,0,0,15.5131,15.5131,14.4869,14.4869,1.71045,2.60886,0.737071,-0.239,0.17789,0.0993981,0,0,2.065,0.6475,-1.05,-0.234606,0.160064,-0.91256,-0.04228,0.12026,0.49476
-0.452627,0,0,15.4526,15.4526,14.5474,14.5474,1.50876,2.32328,0.992634,-0.234021,0.174381,0.0997113,0,0,3.115,0.49,-0.84,-0.234606,0.160064,-0.91256,-0.04228,0.12026,0.49476
-0.445091,0,0,15.4451,15.4451,14.5549,14.5549,1.48364,2.47029,0.855973,0.136498,0.0232356,-0.0511194,0,0,3.5,0.4375,-0.49,0.140056,0.009516,-1.06213,-0.04228,0.12026,0.49476
-0.438033,0,0,15.438,15.438,14.562,14.562,1.46011,2.61271,0.719999,0.134015,0.0228227,-0.0512191,0,0,4.13,-0.525,-0.1225,0.140056,0.009516,-1.06213,-0.04228,0.12026,0.49476
-0.437961,0,0,15.438,15.438,14.562,14.562,1.45987,2.61221,0.720976,0.0101084,-0.0742722,0.32525,1,0,3.395,-0.175,0.175,0.015616,-0.087474,-0.688568,-0.04634,0.12026,0.4921
-0.447529,0,0,15.4475,15.4475,14.5525,14.5525,1.49176,2.54437,0.781941,-0.0569837,-0.0280395,0.050007,0,0,2.7125,-0.1575,0.35,-0.052948,-0.041846,-0.961726,-0.04634,0.12026,0.4921
-0.456927,0,0,15.4569,15.4569,14.5431,14.5431,1.52309,2.47725,0.843588,-0.0558134,-0.0274921,0.0500439,0,0,2.7125,-0.525,0.875,-0.052948,-0.041846,-0.961726,-0.04634,0.12026,0.4921
-0.411009,0,0,15.411,15.411,14.589,14.589,1.37003,2.45398,0.861915,-0.0209057,0.137276,0.0307029,0,0,2.73,0.105,1.05,-0.0183,0.125416,-0.981002,-0.04634,0.12026,0.4921
-0.366428,0,0,15.3664,15.3664,14.6336,14.6336,1.22143,2.43192,0.88017,-0.020521,0.134686,0.0307779,0,0,3.64,0.5425,0.875,-0.0183,0.125416,-0.981002,-0.04634,0.12026,0.4921
-0.348583,0,0,15.3486,15.3486,14.6514,14.6514,1.16194,2.34999,0.957637,-0.0699947,0.0530463,0.0539734,0,0,3.5525,0.7875,0.945,-0.069418,0.044896,-0.958066,-0.04634,0.12026,0.4921
-0.331489,0,0,15.3315,15.3315,14.6685,14.6685,1.10496,2.26789,1.03414,-0.068563,0.052054,0.0540508,0,0,4.3575,-0.28,0.35,-0.069418,0.044896,-0.958066,-0.04634,0.12026,0.4921
-0.345455,0,0,15.3455,15.3455,14.6545,14.6545,1.15152,2.17477,1.1355,-0.0803024,-0.0403158,0.0366391,0,0,3.9375,0.49,0.2975,-0.082838,-0.04819,-0.97539,-0.04368,0.11452,0.48958
-0.345648,0,0,15.3456,15.3456,14.6544,14.6544,1.15216,2.17425,1.13609,0.265576,0.0429859,-0.106596,1,0,3.9025,-0.1925,-0.0525,0.264496,0.035014,-1.11752,-0.04368,0.11452,0.48958
-0.345427,0,0,15.3454,15.3454,14.6546,14.6546,1.15142,2.17304,1.13567,0.265598,0.0429731,-0.106595,1,0,3.15,-0.6125,-0.63,0.264496,0.035014,-1.11752,-0.04368,0.11452,0.48958
-0.342547,0,0,15.3425,15.3425,14.6575,14.6575,1.14182,1.91862,1.38492,-0.232065,0.00678145,-0.0400407,0,0,3.0275,-0.0175,-0.7,-0.23973,-0.000976,-1.05164,-0.04368,0.11452,0.48958
-0.340653,0,0,15.3407,15.3407,14.6593,14.6593,1.13551,1.66831,1.63307,-0.227699,0.00667406,-0.0399018,0,0,4.8125,-0.525,-1.155,-0.23973,-0.000976,-1.05164,-0.04368,0.11452,0.48958
-0.386669,0,0,15.3867,15.3867,14.6133,14.6133,1.2889,1.25489,2.03988,-0.353634,-0.135367,0.101616,0,0,5.04,0.2975,-1.4175,-0.373442,-0.145546,-0.91134,-0.04368,0.11452,0.48958
-0.431763,0,0,15.4318,15.4318,14.5682,14.5682,1.43921,0.849369,2.44359,-0.346557,-0.132741,0.101684,0,0,4.8825,0.4725,-1.54,-0.373442,-0.145546,-0.91134,-0.04368,0.11452,0.48958
-0.458366,0,0,15.4584,15.4584,14.5416,14.5416,1.52789,1.08712,2.2559,0.199624,-0.0789259,0.0383782,0,0,4.3225,0.455,-1.9075,0.179218,-0.09333,-0.974048,-0.04368,0.11452,0.48958
-0.484475,0,0,15.4845,15.4845,14.5155,14.5155,1.61492,1.32028,2.0861,0.195555,-0.0774102,0.0382511,0,0,4.3225,0.455,-1.9075,0.179218,-0.09333,-0.974048,-0.04018,0.10346,0.4851
-0.482594,0,0,15.4826,15.4826,14.5174,14.5174,1.60865,1.21228,2.22838,-0.0960696,0.00528354,-0.0322767,0,0,3.9025,0.14,-1.6975,-0.115534,-0.010614,-1.04408,-0.04018,0.10346,0.4851
-0.480746,0,0,15.4807,15.4807,14.5193,14.5193,1.60249,1.10643,2.37047,-0.0942225,0.00517715,-0.0322363,0,0,3.9025,0.14,-1.6975,-0.115534,-0.010614,-1.04408,-0.04018,0.10346,0.4851
-0.427839,0,0,15.4278,15.4278,14.5722,14.5722,1.42613,1.1295,2.3901,0.0295334,0.170513,-0.0305645,0,0,4.0775,-0.1575,-1.26,0.00915,0.157624,-1.04249,-0.04018,0.10346,0.4851
-0.375902,0,0,15.3759,15.3759,14.6241,14.6241,1.25301,1.15223,2.40978,0.0291368,0.167493,-0.0305018,0,0,4.0775,-0.1575,-1.26,0.00915,0.157624,-1.04249,-0.04018,0.10346,0.4851
-0.376794,0,0,15.3768,15.3768,14.6232,14.6232,1.25598,1.15174,2.41031,0.30759,0.086697,0.215517,1,0,5.215,-0.175,-0.0875,0.288774,0.07686,-0.798368,-0.04018,0.10346,0.4851
-0.377686,0,0,15.3777,15.3777,14.6223,14.6223,1.25895,1.15126,2.41083,0.307599,0.0867489,0.215516,1,0,5.215,-0.175,-0.0875,0.288774,0.07686,-0.798368,-0.04018,0.10346,0.4851
-0.373112,0,0,15.3731,15.3731,14.6269,14.6269,1.24371,1.39903,2.22738,0.228319,0.0174792,-0.0218648,0,0,5.1275,0.7525,0.9275,0.2135,0.00793,-1.03383,-0.04018,0.10346,0.4851
-0.368629,0,0,15.3686,15.3686,14.6314,14.6314,1.22876,1.64418,2.03734,0.224042,0.0172161,-0.0219727,0,0,5.1275,0.7525,0.9275,0.2135,0.00793,-1.03383,-0.04564,0.10836,0.48202
-0.393091,0,0,15.3931,15.3931,14.6069,14.6069,1.3103,1.65836,2.06171,0.0075498,-0.0703922,0.046348,0,0,4.2,0.665,1.575,-0.00366,-0.081008,-0.965996,-0.04564,0.10836,0.48202
-0.4171,0,0,15.4171,15.4171,14.5829,14.5829,1.39033,1.6722,2.08599,0.00730842,-0.0689966,0.0463081,0,0,4.2,0.665,1.575,-0.00366,-0.081008,-0.965996,-0.04564,0.10836,0.48202
-0.417342,0,0,15.4173,15.4173,14.5827,14.5827,1.39114,1.6643,2.08909,-0.092658,-0.278063,0.234915,1,0,3.955,-4.48,1.5225,-0.104188,-0.289872,-0.778848,-0.04564,0.10836,0.48202
-0.417584,0,0,15.4176,15.4176,14.5824,14.5824,1.39195,1.6564,2.0922,-0.0925201,-0.278049,0.234918,1,0,3.955,-4.48,1.5225,-0.104188,-0.289872,-0.778848,-0.04564,0.10836,0.48202
-0.511811,0,0,15.5118,15.5118,14.4882,14.4882,1.70604,1.55951,2.21987,-0.0873068,-0.261945,0.134861,0,0,4.69,-0.4725,1.2775,-0.10065,-0.279258,-0.878034,-0.04564,0.10836,0.48202
-0.512493,0,0,15.5125,15.5125,14.4875,14.4875,1.70831,1.55957,2.22209,0.0644279,-0.210612,0.181088,1,0,4.795,0.175,0.8925,0.051728,-0.228018,-0.832162,-0.04564,0.10836,0.48202
-0.513397,0,0,15.5134,15.5134,14.4866,14.4866,1.71132,1.55979,2.22279,0.0816749,0.14202,0.130309,1,0,5.2325,0.245,0,0.069052,0.124196,-0.882548,-0.04564,0.10836,0.48202
-0.493255,0,0,15.4933,15.4933,14.5067,14.5067,1.64418,1.80081,2.03127,0.21888,0.0670811,-0.0109253,0,0,4.655,0.315,-0.1925,0.21106,0.050508,-1.0226,-0.04564,0.10836,0.48202
-0.463807,0,0,15.4638,15.4638,14.5362,14.5362,1.54602,1.96014,1.91177,0.151348,0.0983412,-0.0485911,0,0,4.6025,0.63,-1.1025,0.146034,0.083448,-1.05994,-0.04284,0.10598,0.48006
-0.464019,0,0,15.464,15.464,14.536,14.536,1.54673,1.96017,1.90973,-0.1175,0.100674,0.108537,1,0,3.99,0.0875,-1.5925,-0.123952,0.085766,-0.90402,-0.04284,0.10598,0.48006
-0.464117,0,0,15.4641,15.4641,14.5359,14.5359,1.54706,1.95989,1.90663,-0.117495,0.10068,0.108537,1,0,3.7975,-0.105,-2.205,-0.123952,0.085766,-0.90402,-0.04284,0.10598,0.48006
-0.444538,0,0,15.4445,15.4445,14.5555,14.5555,1.48179,1.91576,1.96992,-0.0358159,0.0611945,0.0144143,0,0,4.2,-0.525,-2.73,-0.0427,0.047458,-0.997472,-0.04284,0.10598,0.48006
-0.425309,0,0,15.4253,15.4253,14.5747,14.5747,1.4177,1.87307,2.03282,-0.0350712,0.0600774,0.0144673,0,0,4.1825,-0.21,-3.01,-0.0427,0.047458,-0.997472,-0.04284,0.10598,0.48006
-0.462017,0,0,15.462,15.462,14.538,14.538,1.54006,2.09436,1.85487,0.196751,-0.116098,0.00198368,0,0,4.6725,-0.42,-3.1675,0.19398,-0.130662,-1.00967,-0.04284,0.10598,0.48006
-0.498301,0,0,15.4983,15.4983,14.5017,14.5017,1.661,2.31209,1.67814,0.192954,-0.113993,0.00177872,0,0,5.145,0.07,-3.08,0.19398,-0.130662,-1.00967,-0.04284,0.10598,0.48006
-0.499249,0,0,15.4992,15.4992,14.5008,14.5008,1.66416,2.31204,1.67379,0.027734,0.00696753,-0.100147,1,0,5.425,0,-2.94,0.02806,-0.009882,-1.11081,-0.04284,0.10598,0.48006
-0.500353,0,0,15.5004,15.5004,14.4996,14.4996,1.66784,2.31268,1.67068,0.027723,0.00703167,-0.100149,1,0,5.6875,0.42,-2.2225,0.02806,-0.009882,-1.11081,-0.04648,0.10122,0.47614
-0.453065,0,0,15.4531,15.4531,14.5469,14.5469,1.51022,2.08985,1.89814,-0.203587,0.161099,-0.0674655,0,0,5.53,0.42,-2.0825,-0.208132,0.146766,-1.0786,-0.04648,0.10122,0.47614
-0.406625,0,0,15.4066,15.4066,14.5934,14.5934,1.35542,1.87093,2.12852,-0.199769,0.158403,-0.067266,0,0,5.495,0.21,-0.9625,-0.208132,0.146766,-1.0786,-0.04648,0.10122,0.47614
-0.407073,0,0,15.4071,15.4071,14.5929,14.5929,1.35691,1.87118,2.1284,0.136985,0.135469,0.145188,1,0,4.3925,0.245,-0.4725,0.130052,0.12383,-0.867786,-0.04648,0.10122,0.47614
-0.407162,0,0,15.4072,15.4072,14.5928,14.5928,1.35721,1.87025,2.12991,0.137002,0.135474,0.145189,1,0,3.6925,-0.42,0.49,0.130052,0.12383,-0.867786,-0.04648,0.10122,0.47614
-0.406929,0,0,15.4069,15.4069,14.5931,14.5931,1.35643,1.8697,2.13206,0.315717,0.120195,-0.201157,1,0,3.08,-0.1925,0.8575,0.309514,0.10858,-1.21146,-0.04648,0.10122,0.47614
-0.406881,0,0,15.4069,15.4069,14.5931,14.5931,1.35627,1.8685,2.13584,0.315738,0.120192,-0.201156,1,0,3.395,-0.5425,1.82,0.309514,0.10858,-1.21146,-0.04648,0.10122,0.47614
-0.45747,0,0,15.4575,15.4575,14.5425,14.5425,1.5249,1.76472,2.27926,-0.0925877,-0.146522,0.0742322,0,0,3.9375,-0.07,2.1875,-0.102358,-0.160796,-0.93818,-0.04648,0.10122,0.47614
-0.507745,0,0,15.5077,15.5077,14.4923,14.4923,1.69248,1.66281,2.4227,-0.0908098,-0.143598,0.0742033,0,0,5.075,-0.2975,2.5375,-0.102358,-0.160796,-0.93818,-0.04424,0.1008,0.47544
-0.588334,0,0,15.5883,15.5883,14.4117,14.4117,1.96111,1.66052,2.47792,-0.0124115,-0.256766,0.00876942,0,0,5.0575,0.07,2.625,-0.023668,-0.278526,-1.00296,-0.04424,0.1008,0.47544
-0.667625,0,0,15.6676,15.6676,14.3324,14.3324,2.22542,1.65887,2.53238,-0.0123827,-0.252158,0.00860183,0,0,5.3375,0.595,2.3975,-0.023668,-0.278526,-1.00296,-0.04424,0.1008,0.47544
-0.620314,0,0,15.6203,15.6203,14.3797,14.3797,2.06771,2.05547,2.20763,0.356819,0.156774,0.0563077,0,0,4.795,0.28,2.1875,0.354044,0.132736,-0.955504,-0.04424,0.1008,0.47544
-0.573529,0,0,15.5735,15.5735,14.4265,14.4265,1.91176,2.44463,1.88036,0.350032,0.154046,0.0561356,0,0,4.3925,0.0875,1.5925,0.354044,0.132736,-0.955504,-0.04424,0.1008,0.47544
-0.562111,0,0,15.5621,15.5621,14.4379,14.4379,1.8737,2.39591,1.9552,-0.0412745,0.0365089,0.0506607,0,0,4.2,0.14,1.19,-0.039772,0.015982,-0.960994,-0.04424,0.1008,0.47544
-0.550615,0,0,15.5506,15.5506,14.4494,14.4494,1.83538,2.34789,2.02786,-0.0404371,0.0358421,0.050717,0,0,3.71,-0.07,-0.07,-0.039772,0.015982,-0.960994,-0.04424,0.1008,0.47544
-0.550866,0,0,15.5509,15.5509,14.4491,14.4491,1.83622,2.34813,2.02778,0.259507,0.0477029,-0.256286,1,0,4.025,0.245,-0.455,0.261446,0.027816,-1.26563,-0.04424,0.1008,0.47544
-0.551278,0,0,15.5513,15.5513,14.4487,14.4487,1.83759,2.34783,2.02633,0.259512,0.0477269,-0.256287,1,0,4.3575,-0.105,-1.2425,0.261446,0.027816,-1.26563,-0.04354,0.10542,0.4725
-0.524607,0,0,15.5246,15.5246,14.4754,14.4754,1.74869,2.15267,2.22444,-0.157668,0.080499,0.0896268,0,0,4.7425,-0.0525,-1.575,-0.160918,0.062098,-0.922564,-0.04354,0.10542,0.4725
-0.497699,0,0,15.4977,15.4977,14.5023,14.5023,1.659,1.96213,2.42158,-0.154344,0.0789388,0.0897926,0,0,3.43,0.385,-2.3625,-0.160918,0.062098,-0.922564,-0.04354,0.10542,0.4725
-0.48525,0,0,15.4852,15.4852,14.5148,14.5148,1.6175,1.86894,2.53378,-0.0834719,0.0381592,-0.0431626,0,0,3.0975,0.7,-2.5725,-0.091378,0.022082,-1.05457,-0.04354,0.10542,0.4725
-0.473091,0,0,15.4731,15.4731,14.5269,14.5269,1.57697,1.77675,2.64552,-0.0818638,0.0374539,-0.0430917,0,0,3.22,0.1925,-2.8175,-0.091378,0.022082,-1.05457,-0.04354,0.10542,0.4725
-0.50957,0,0,15.5096,15.5096,14.4904,14.4904,1.69857,1.86916,2.5908,0.0746985,-0.112353,0.0289671,0,0,3.22,0.3325,-2.87,0.067466,-0.129686,-0.982954,-0.04354,0.10542,0.4725
-0.545593,0,0,15.5456,15.5456,14.4544,14.4544,1.81864,1.95961,2.53626,0.0731208,-0.110261,0.0288501,0,0,3.6225,0.2975,-2.975,0.067466,-0.129686,-0.982954,-0.04354,0.10542,0.4725
-0.545457,0,0,15.5455,15.5455,14.4545,14.4545,1.81819,1.96046,2.53224,-0.299977,0.0891641,0.222494,1,0,3.3775,0.525,-2.765,-0.307196,0.06954,-0.790804,-0.04354,0.10542,0.4725
-0.545526,0,0,15.5455,15.5455,14.4545,14.4545,1.81842,1.96065,2.52906,-0.29998,0.0891681,0.222494,1,0,3.745,0.1575,-2.2575,-0.307196,0.06954,-0.790804,-0.04354,0.10542,0.4725
-0.54533,0,0,15.5453,15.5453,14.4547,14.4547,1.81777,1.96056,2.52647,-0.217976,0.0221092,-0.260448,1,0,3.2375,0,-1.9075,-0.224846,0.002562,-1.27002,-0.04732,0.10024,0.47208
-0.544868,0,0,15.5449,15.5449,14.4551,14.4551,1.81623,1.96075,2.52531,0.0364122,-0.108349,-0.106393,1,0,2.7125,0.1925,-1.085,0.030622,-0.127734,-1.11715,-0.04732,0.10024,0.47208
-0.54453,0,0,15.5445,15.5445,14.4555,14.4555,1.8151,1.96094,2.52525,0.0364089,-0.108369,-0.106392,1,0,2.9225,0.21,-0.4375,0.030622,-0.127734,-1.11715,-0.04732,0.10024,0.47208
-0.589313,0,0,15.5893,15.5893,14.4107,14.4107,1.96438,2.05803,2.47892,0.0757776,-0.137766,0.0425992,0,0,2.38,0.1925,0.0875,0.071858,-0.159698,-0.969168,-0.04732,0.10024,0.47208
-0.633624,0,0,15.6336,15.6336,14.3664,14.3664,2.11208,2.1528,2.43425,0.0741247,-0.135193,0.0424469,0,0,2.9925,0.07,0.8225,0.071858,-0.159698,-0.969168,-0.04732,0.10024,0.47208
-0.574029,0,0,15.574,15.574,14.426,14.426,1.91343,1.98902,2.61389,-0.132703,0.179976,0.0499258,0,0,2.45,-0.0525,0.8575,-0.138714,0.1586,-0.96197,-0.04732,0.10024,0.47208
-0.515256,0,0,15.5153,15.5153,14.4847,14.4847,1.71752,1.82784,2.79498,-0.129891,0.176564,0.0501277,0,0,1.995,-0.42,1.12,-0.138714,0.1586,-0.96197,-0.04732,0.10024,0.47208
-0.524985,0,0,15.525,15.525,14.475,14.475,1.74995,1.65816,2.99284,-0.146005,-0.0325596,0.0283158,0,0,1.96,-0.5425,1.3125,-0.157868,-0.050874,-0.983686,-0.04732,0.10024,0.47208
-0.53445,0,0,15.5344,15.5344,14.4656,14.4656,1.7815,1.49171,3.18692,-0.143101,-0.032007,0.0283786,0,0,1.8375,-0.0525,1.435,-0.157868,-0.050874,-0.983686,-0.05096,0.10248,0.4746
-0.552493,0,0,15.5525,15.5525,14.4475,14.4475,1.84164,1.827,2.92489,0.257055,-0.0470843,0.144362,0,0,2.8875,-0.14,1.4525,0.249856,-0.066978,-0.868396,-0.05096,0.10248,0.4746
-0.57034,0,0,15.5703,15.5703,14.4297,14.4297,1.90113,2.15608,2.66331,0.251315,-0.0460537,0.144129,0,0,3.185,0,1.12,0.249856,-0.066978,-0.868396,-0.05096,0.10248,0.4746
-0.570448,0,0,15.5704,15.5704,14.4296,14.4296,1.90149,2.15586,2.66544,0.168952,0.0407846,-0.122055,1,0,3.71,0.0175,0.84,0.16714,0.019764,-1.13253,-0.05096,0.10248,0.4746
-0.570282,0,0,15.5703,15.5703,14.4297,14.4297,1.90094,2.15601,2.66742,0.168949,0.040775,-0.122054,1,0,3.2025,0.2275,0.7525,0.16714,0.019764,-1.13253,-0.05096,0.10248,0.4746
-0.570243,0,0,15.5702,15.5702,14.4298,14.4298,1.90081,2.15647,2.669,-0.189563,-0.0122303,0.315027,1,0,3.4475,0.4025,0.5075,-0.192882,-0.033184,-0.698816,-0.05096,0.10248,0.4746
-0.569925,0,0,15.5699,15.5699,14.4301,14.4301,1.89975,2.15743,2.66996,-0.18958,-0.0122488,0.315027,1,0,2.94,0.6825,0.14,-0.192882,-0.033184,-0.698816,-0.05096,0.10248,0.4746
-0.614482,0,0,15.6145,15.6145,14.3855,14.3855,2.04827,2.03052,2.82024,-0.10913,-0.127754,0.0998591,0,0,2.2925,0.735,-0.105,-0.114314,-0.151158,-0.912316,-0.05096,0.10248,0.4746
-0.658456,0,0,15.6585,15.6585,14.3415,14.3415,2.19485,1.90769,2.96939,-0.106987,-0.125196,0.0998381,0,0,2.6775,0.665,-0.2275,-0.114314,-0.151158,-0.912316,-0.0406,0.10164,0.47698
-0.632753,0,0,15.6328,15.6328,14.3672,14.3672,2.10918,1.8489,3.05642,-0.0484989,0.0762866,0.046937,0,0,2.0825,0.35,-0.7525,-0.056608,0.051606,-0.964898,-0.0406,0.10164,0.47698
-0.60796,0,0,15.608,15.608,14.392,14.392,2.02653,1.79133,3.14282,-0.0474947,0.074847,0.0470209,0,0,2.9225,0.35,-1.19,-0.056608,0.051606,-0.964898,-0.0406,0.10164,0.47698
-0.607287,0,0,15.6073,15.6073,14.3927,14.3927,2.02429,1.79131,3.14105,0.309552,0.0114241,-0.184981,1,0,2.3275,0.0525,-1.435,0.30195,-0.011712,-1.19511,-0.0406,0.10164,0.47698
-0.606498,0,0,15.6065,15.6065,14.3935,14.3935,2.02166,1.79204,3.13891,0.309539,0.0113783,-0.18498,1,0,2.1175,0.49,-1.6625,0.30195,-0.011712,-1.19511,-0.0406,0.10164,0.47698
-0.586424,0,0,15.5864,15.5864,14.4136,14.4136,1.95475,1.77676,3.18626,-0.0110378,0.0624822,-0.00862333,0,0,2.9925,0.0525,-1.7325,-0.020252,0.040504,-1.02016,-0.0406,0.10164,0.47698
-0.566459,0,0,15.5665,15.5665,14.4335,14.4335,1.8882,1.76177,3.23322,-0.0107762,0.0613221,-0.00857633,0,0,2.52,0.0175,-1.9775,-0.020252,0.040504,-1.02016,-0.0406,0.10164,0.47698
-0.574651,0,0,15.5747,15.5747,14.4253,14.4253,1.9155,1.60828,3.40994,-0.140275,-0.0289393,-0.0231443,0,0,3.22,0.315,-1.8725,-0.152988,-0.050142,-1.03468,-0.0406,0.10164,0.47698
-0.582554,0,0,15.5826,15.5826,14.4174,14.4174,1.94185,1.45675,3.58305,-0.137631,-0.0284775,-0.0230891,0,0,3.01,0.5075,-1.925,-0.152988,-0.050142,-1.03468,-0.04718,0.1036,0.48454
-0.572468,0,0,15.5725,15.5725,14.4275,14.4275,1.90823,1.51746,3.56451,0.0583593,0.0306552,-0.0572765,0,0,2.765,0.49,-1.7675,0.044896,0.009516,-1.0686,-0.04718,0.1036,0.48454
-0.562975,0,0,15.563,15.563,14.437,14.437,1.87658,1.57601,3.54615,0.0573379,0.0301026,-0.0572859,0,0,3.535,-0.0875,-1.645,0.044896,0.009516,-1.0686,-0.04718,0.1036,0.48454
-0.601574,0,0,15.6016,15.6016,14.3984,14.3984,2.00525,1.54853,3.60497,-0.0279517,-0.131303,-0.0418573,0,0,3.01,-0.6125,-1.645,-0.041236,-0.153964,-1.05323,-0.04718,0.1036,0.48454
-0.639751,0,0,15.6398,15.6398,14.3602,14.3602,2.1325,1.52249,3.66421,-0.0274973,-0.129084,-0.0419253,0,0,3.5175,-0.0175,-1.225,-0.041236,-0.153964,-1.05323,-0.04718,0.1036,0.48454
-0.630327,0,0,15.6303,15.6303,14.3697,14.3697,2.10109,1.37102,3.83778,-0.121314,0.028769,0.0913149,0,0,2.9925,-0.3675,-0.91,-0.138104,0.00427,-0.9211,-0.04718,0.1036,0.48454
-0.621394,0,0,15.6214,15.6214,14.3786,14.3786,2.07131,1.22299,4.01202,-0.118731,0.0282519,0.0913922,0,0,3.5875,-0.0875,-0.4375,-0.138104,0.00427,-0.9211,-0.04718,0.1036,0.48454
-0.621515,0,0,15.6215,15.6215,14.3785,14.3785,2.07172,1.22173,4.01203,0.0938906,0.136097,-0.193971,1,0,3.78,-0.63,-0.3675,0.075396,0.111996,-1.20426,-0.04718,0.1036,0.48454
-0.621409,0,0,15.6214,15.6214,14.3786,14.3786,2.07136,1.22071,4.01319,0.0939085,0.136091,-0.19397,1,0,3.3425,-0.4725,0.2975,0.075396,0.111996,-1.20426,-0.04928,0.10598,0.47964
-0.583756,0,0,15.5838,15.5838,14.4162,14.4162,1.94585,1.10401,4.16029,-0.0938158,0.115096,0.041717,0,0,3.255,-0.2275,0.7,-0.115168,0.093208,-0.97051,-0.04928,0.10598,0.47964
-0.546705,0,0,15.5467,15.5467,14.4533,14.4533,1.82235,0.989304,4.3081,-0.0918141,0.112943,0.0418244,0,0,3.115,-0.4375,0.9275,-0.115168,0.093208,-0.97051,-0.04928,0.10598,0.47964
-0.546606,0,0,15.5466,15.5466,14.4534,14.4534,1.82202,0.988504,4.31081,0.122622,-0.138766,0.170306,1,0,3.3425,-0.315,1.19,0.100162,-0.158234,-0.84302,-0.04928,0.10598,0.47964
-0.546583,0,0,15.5466,15.5466,14.4534,14.4534,1.82194,0.987635,4.31384,0.122637,-0.138767,0.170306,1,0,3.4825,-0.35,1.3825,0.100162,-0.158234,-0.84302,-0.04928,0.10598,0.47964
-0.54661,0,0,15.5466,15.5466,14.4534,14.4534,1.82203,0.987288,4.31737,-0.244243,0.399203,0.278993,1,0,3.57,-0.035,1.6625,-0.268278,0.379176,-0.735172,-0.04928,0.10598,0.47964
-0.546973,0,0,15.547,15.547,14.453,14.453,1.82324,0.987424,4.32073,-0.244246,0.399224,0.278992,1,0,4.2,0.245,1.5575,-0.268278,0.379176,-0.735172,-0.04928,0.10598,0.47964
-0.488272,0,0,15.4883,15.4883,14.5117,14.5117,1.62757,1.15044,4.21835,0.138627,0.178057,0.100152,0,0,4.9,-0.1575,1.4525,0.119072,0.16165,-0.912682,-0.04928,0.10598,0.47964
-0.430613,0,0,15.4306,15.4306,14.5694,14.5694,1.43538,1.31076,4.1144,0.135829,0.174703,0.100181,0,0,4.935,-0.035,0.9275,0.119072,0.16165,-0.912682,-0.04928,0.10598,0.47964
-0.431177,0,0,15.4312,15.4312,14.5688,14.5688,1.43726,1.31039,4.11619,0.220147,0.081309,-0.21174,1,0,4.585,-0.0875,0.6475,0.20374,0.06832,-1.2222,-0.0441,0.09982,0.46984
-0.431426,0,0,15.4314,15.4314,14.5686,14.5686,1.43809,1.31034,4.11714,0.220148,0.0813235,-0.21174,1,0,4.0075,0.0875,0.1575,0.20374,0.06832,-1.2222,-0.0441,0.09982,0.46984
-0.431307,0,0,15.4313,15.4313,14.5687,14.5687,1.43769,1.31009,4.11768,-0.000830591,0.066295,0.255587,1,0,3.325,-0.035,-0.0875,-0.018178,0.053314,-0.758474,-0.0441,0.09982,0.46984
-0.431001,0,0,15.431,15.431,14.569,14.569,1.43667,1.31041,4.1169,-0.000836213,0.0662772,0.255588,1,0,2.9925,0.28,-0.8575,-0.018178,0.053314,-0.758474,-0.0441,0.09982,0.46984
-0.40021,0,0,15.4002,15.4002,14.5998,14.5998,1.33403,1.21643,4.25061,-0.0769472,0.0930654,0.0469007,0,0,2.9575,0.2975,-1.1025,-0.096258,0.081862,-0.96563,-0.0441,0.09982,0.46984
-0.369971,0,0,15.37,15.37,14.63,14.63,1.23324,1.12433,4.38456,-0.07534,0.0913077,0.0469729,0,0,2.9575,0.2975,-1.1025,-0.096258,0.081862,-0.96563,-0.0441,0.09982,0.46984
-0.440457,0,0,15.4405,15.4405,14.5595,14.5595,1.46819,1.48179,4.09785,0.286646,-0.208693,0.137225,0,0,3.0275,0.7175,-2.03,0.273524,-0.221918,-0.875838,-0.0441,0.09982,0.46984
-0.509721,0,0,15.5097,15.5097,14.4903,14.4903,1.69907,1.8325,3.81406,0.280527,-0.204671,0.136936,0,0,3.0275,0.7175,-2.03,0.273524,-0.221918,-0.875838,-0.0441,0.09982,0.46984
-0.478542,0,0,15.4785,15.4785,14.5215,14.5215,1.59514,1.78867,3.88765,-0.0352997,0.0932161,0.0813169,0,0,3.5525,0.315,-2.1,-0.044408,0.07747,-0.931104,-0.0455,0.10108,0.476
-0.438136,0,0,15.4381,15.4381,14.5619,14.5619,1.46045,1.84971,3.86603,0.0594877,0.133244,-0.0092673,0,0,4.9,0.7525,-1.9425,0.05185,0.119804,-1.02102,-0.0455,0.10108,0.476
-0.398284,0,0,15.3983,15.3983,14.6017,14.6017,1.32761,1.9096,3.84441,0.058443,0.130927,-0.0092452,0,0,4.585,0.7175,-1.89,0.05185,0.119804,-1.02102,-0.0455,0.10108,0.476
-0.399009,0,0,15.399,15.399,14.601,14.601,1.33003,1.9107,3.84209,0.0111658,0.0186126,-0.283668,1,0,4.9525,0.7175,-1.7675,0.004392,0.007564,-1.29332,-0.0455,0.10108,0.476
-0.399166,0,0,15.3992,15.3992,14.6008,14.6008,1.33055,1.91111,3.84006,0.0111587,0.0186217,-0.283668,1,0,3.885,0.315,-1.5925,0.004392,0.007564,-1.29332,-0.0455,0.10108,0.476
-0.399531,0,0,15.3995,15.3995,14.6005,14.6005,1.33177,1.91118,3.83832,0.0491824,0.0638299,-0.158876,1,0,4.27,0.1225,-1.4175,0.042578,0.052704,-1.16949,-0.0455,0.10108,0.476
-0.399712,0,0,15.3997,15.3997,14.6003,14.6003,1.33237,1.91141,3.83775,0.0491784,0.0638404,-0.158876,1,0,3.9025,0.2275,-0.735,0.042578,0.052704,-1.16949,-0.0455,0.10108,0.476
-0.435185,0,0,15.4352,15.4352,14.5648,14.5648,1.45062,1.83134,3.94781,-0.0779567,-0.117897,-0.0198262,0,0,3.2725,0.595,-0.2975,-0.086498,-0.130906,-1.03151,-0.0455,0.10108,0.476
-0.470178,0,0,15.4702,15.4702,14.5298,14.5298,1.56726,1.75074,4.05631,-0.0765506,-0.115862,-0.0198358,0,0,3.57,-0.6125,-0.1575,-0.086498,-0.130906,-1.03151,-0.0434,0.10178,0.47432
-0.440428,0,0,15.4404,15.4404,14.5596,14.5596,1.46809,1.7127,4.12772,-0.0291149,0.0955204,-0.00661448,0,0,3.675,-0.7525,0.3675,-0.039528,0.081984,-1.01846,-0.0434,0.10178,0.47432
-0.411212,0,0,15.4112,15.4112,14.5888,14.5888,1.37071,1.67544,4.19928,-0.0284649,0.0938224,-0.00655318,0,0,3.675,-0.7525,0.3675,-0.039528,0.081984,-1.01846,-0.0434,0.10178,0.47432
-0.400236,0,0,15.4002,15.4002,14.5998,14.5998,1.33412,1.56799,4.33703,-0.0991174,0.03774,-0.0860327,0,0,4.76,-0.875,0.7875,-0.112362,0.026596,-1.09739,-0.0434,0.10178,0.47432
-0.389455,0,0,15.3895,15.3895,14.6105,14.6105,1.29818,1.46263,4.47475,-0.0972791,0.0371143,-0.0859697,0,0,4.76,-0.875,0.7875,-0.112362,0.026596,-1.09739,-0.0434,0.10178,0.47432
-0.427015,0,0,15.427,15.427,14.573,14.573,1.42338,1.47724,4.50278,0.00718663,-0.112872,0.0436825,0,0,4.55,-0.1925,1.12,-0.007198,-0.125416,-0.96868,-0.0434,0.10178,0.47432
-0.463902,0,0,15.4639,15.4639,14.5361,14.5361,1.54634,1.49145,4.5307,0.00693874,-0.110728,0.0436205,0,0,4.55,-0.1925,1.12,-0.007198,-0.125416,-0.96868,-0.0434,0.10178,0.47432
-0.464529,0,0,15.4645,15.4645,14.5355,14.5355,1.54843,1.49052,4.53311,0.167073,0.0682245,-0.100967,1,0,4.69,-0.4025,1.015,0.153598,0.053314,-1.11215,-0.0434,0.10178,0.47432
-0.465155,0,0,15.4652,15.4652,14.5348,14.5348,1.55052,1.48959,4.53551,0.167089,0.0682609,-0.100968,1,0,4.69,-0.4025,1.015,0.153598,0.053314,-1.11215,-0.03976,0.09618,0.47418
-0.465573,0,0,15.4656,15.4656,14.5344,14.5344,1.55191,1.49005,4.53753,-0.103224,0.097962,-0.16773,1,0,4.305,0.4025,0.77,-0.117852,0.08296,-1.1784,-0.03976,0.09618,0.47418
-0.46599,0,0,15.466,15.466,14.534,14.534,1.5533,1.49051,4.53955,-0.103232,0.0979863,-0.167731,1,0,4.305,0.4025,0.77,-0.117852,0.08296,-1.1784,-0.03976,0.09618,0.47418
-0.458132,0,0,15.4581,15.4581,14.5419,14.5419,1.52711,1.19778,4.86101,-0.282904,0.0240123,-0.0468633,0,0,3.85,0.56,0.49,-0.303414,0.009516,-1.05859,-0.03976,0.09618,0.47418
-0.45039,0,0,15.4504,15.4504,14.5496,14.5496,1.5013,0.910488,5.18218,-0.277891,0.0235646,-0.0467592,0,0,3.85,0.56,0.49,-0.303414,0.009516,-1.05859,-0.03976,0.09618,0.47418
-0.450053,0,0,15.4501,15.4501,14.5499,14.5499,1.50018,0.910454,5.18251,-0.0422083,-0.0653633,0.156967,1,0,2.9225,0.0875,-0.21,-0.066734,-0.0793,-0.85644,-0.03976,0.09618,0.47418
-0.449717,0,0,15.4497,15.4497,14.5503,14.5503,1.49906,0.910419,5.18284,-0.0422077,-0.0653828,0.156968,1,0,2.9225,0.0875,-0.21,-0.066734,-0.0793,-0.85644,-0.03976,0.09618,0.47418
-0.440889,0,0,15.4409,15.4409,14.5591,14.5591,1.46963,1.32032,4.85676,0.352636,0.031191,0.116146,0,0,3.5875,1.26,-0.9625,0.336964,0.01769,-0.896822,-0.03976,0.09618,0.47418
-0.41468,0,0,15.4147,15.4147,14.5853,14.5853,1.38227,1.33904,4.88103,0.0199242,0.0867001,-0.0280426,0,0,4.06,1.155,-1.2775,0.003172,0.074664,-1.03993,-0.0427,0.10374,0.47082
-0.388971,0,0,15.389,15.389,14.611,14.611,1.29657,1.35752,4.9045,0.0196018,0.0852051,-0.0280152,0,0,4.13,1.1725,-1.75,0.003172,0.074664,-1.03993,-0.0427,0.10374,0.47082
-0.387483,0,0,15.3875,15.3875,14.6125,14.6125,1.29161,1.61181,4.70471,0.219139,0.00842038,0.0640832,0,0,4.4625,0.8225,-2.24,0.20801,-0.001952,-0.948428,-0.0427,0.10374,0.47082
-0.385917,0,0,15.3859,15.3859,14.6141,14.6141,1.28639,1.86031,4.50461,0.214804,0.00832636,0.0639538,0,0,4.3225,0.1925,-2.5025,0.20801,-0.001952,-0.948428,-0.0427,0.10374,0.47082
-0.322052,0,0,15.3221,15.3221,14.6779,14.6779,1.07351,1.82778,4.5638,-0.0227401,0.220045,-0.0505394,0,0,4.865,0.1925,-2.9575,-0.03111,0.213256,-1.06213,-0.0427,0.10374,0.47082
-0.258974,0,0,15.259,15.259,14.741,14.741,0.863247,1.79613,4.62329,-0.0221879,0.216378,-0.05046,0,0,4.235,0.315,-3.0275,-0.03111,0.213256,-1.06213,-0.0427,0.10374,0.47082
-0.211088,0,0,15.2111,15.2111,14.7889,14.7889,0.703626,1.89163,4.5635,0.0999401,0.162789,-0.0438363,0,0,3.5,-0.2275,-2.6775,0.093208,0.162504,-1.05554,-0.0427,0.10374,0.47082
-0.164037,0,0,15.164,15.164,14.836,14.836,0.546792,1.98541,4.50345,0.0983041,0.160053,-0.0438618,0,0,3.5,-0.2275,-2.6775,0.093208,0.162504,-1.05554,-0.0427,0.10374,0.47082
-0.197066,0,0,15.1971,15.1971,14.8029,14.8029,0.656888,1.82727,4.68706,-0.149198,-0.108537,0.00538923,0,0,3.08,-0.35,-1.4,-0.158112,-0.107726,-1.00674,-0.04466,0.09786,0.47348
-0.226443,0,0,15.2264,15.2264,14.7736,14.7736,0.75481,1.63397,4.9068,-0.186159,-0.100477,-0.0215786,0,0,3.0275,-0.1575,-0.6125,-0.198616,-0.101382,-1.03358,-0.04466,0.09786,0.47348
-0.2553,0,0,15.2553,15.2553,14.7447,14.7447,0.850998,1.4442,5.12546,-0.182848,-0.0987975,-0.0215132,0,0,3.0275,-0.1575,-0.6125,-0.198616,-0.101382,-1.03358,-0.04466,0.09786,0.47348
-0.255313,0,0,15.2553,15.2553,14.7447,14.7447,0.851044,1.44334,5.1274,0.0607459,-0.143617,-0.144461,1,0,3.5525,-0.385,0.735,0.045994,-0.146156,-1.15558,-0.04466,0.09786,0.47348
-0.255327,0,0,15.2553,15.2553,14.7447,14.7447,0.85109,1.44248,5.12933,0.0607609,-0.143616,-0.144461,1,0,3.5525,-0.385,0.735,0.045994,-0.146156,-1.15558,-0.04466,0.09786,0.47348
-0.281801,0,0,15.2818,15.2818,14.7182,14.7182,0.939337,1.54305,5.08467,0.0959379,-0.0900516,-0.0568684,0,0,4.095,-0.5425,2.3625,0.083082,-0.094184,-1.0686,-0.04466,0.09786,0.47348
-0.268996,0,0,15.269,15.269,14.731,14.731,0.896655,1.53867,5.13943,-0.0012958,0.0421998,0.00363621,0,0,4.165,-0.3325,2.8525,-0.01464,0.038674,-1.00857,-0.04466,0.09786,0.47348
-0.256075,0,0,15.2561,15.2561,14.7439,14.7439,0.853584,1.53451,5.19424,-0.00122315,0.0414485,0.00364964,0,0,3.5175,-0.28,2.8875,-0.01464,0.038674,-1.00857,-0.04466,0.09786,0.47348
-0.26653,0,0,15.2665,15.2665,14.7335,14.7335,0.888433,1.54064,5.23687,0.00765985,-0.0368375,-0.0784921,0,0,3.78,-0.525,2.975,-0.005612,-0.040138,-1.09007,-0.04256,0.09842,0.47558
-0.242187,0,0,15.2422,15.2422,14.7578,14.7578,0.80729,1.78079,5.0618,0.218986,0.0770329,0.0436182,0,0,2.38,0.3675,2.765,0.210816,0.07503,-0.968802,-0.04256,0.09842,0.47558
-0.218191,0,0,15.2182,15.2182,14.7818,14.7818,0.727303,2.0166,4.88447,0.214872,0.075636,0.0435006,0,0,2.2925,0.35,1.6625,0.210816,0.07503,-0.968802,-0.04256,0.09842,0.47558
-0.214044,0,0,15.214,15.214,14.786,14.786,0.713479,1.92177,5.01288,-0.085487,0.0107905,0.0225363,0,0,2.3275,0.2625,1.2075,-0.092476,0.010492,-0.989664,-0.04256,0.09842,0.47558
-0.210119,0,0,15.2101,15.2101,14.7899,14.7899,0.700396,1.82892,5.13925,-0.0838672,0.010563,0.0225921,0,0,2.6425,0.35,0.0875,-0.092476,0.010492,-0.989664,-0.04256,0.09842,0.47558
-0.210138,0,0,15.2101,15.2101,14.7899,14.7899,0.700459,1.82951,5.1374,0.158486,-0.0268067,0.244391,1,0,3.6225,0.4375,-1.4875,0.150914,-0.02684,-0.769576,-0.04256,0.09842,0.47558
-0.210157,0,0,15.2102,15.2102,14.7898,14.7898,0.700522,1.8301,5.13554,0.158476,-0.0268056,0.244391,1,0,3.6225,0.4375,-1.4875,0.150914,-0.02684,-0.769576,-0.04256,0.09842,0.47558
-0.176539,0,0,15.1765,15.1765,14.8235,14.8235,0.588465,2.00016,5.00867,0.155874,0.108998,0.0227601,0,0,3.4825,1.26,-3.0975,0.15128,0.110776,-0.98942,-0.04858,0.10304,0.4739
-0.200965,0,0,15.201,15.201,14.799,14.799,0.669884,1.84278,5.17818,-0.153113,-0.0853503,-0.0391294,0,0,3.0625,0.7875,-3.9375,-0.161772,-0.08479,-1.05091,-0.04858,0.10304,0.4739
-0.224963,0,0,15.225,15.225,14.775,14.775,0.749876,1.68832,5.34692,-0.150418,-0.083954,-0.0390637,0,0,3.0625,0.7875,-3.9375,-0.161772,-0.08479,-1.05091,-0.04858,0.10304,0.4739
-0.241474,0,0,15.2415,15.2415,14.7585,14.7585,0.804914,1.76743,5.30055,0.0785385,-0.0602789,-0.0918632,0,0,3.1675,0.63,-4.4625,0.06954,-0.062098,-1.10325,-0.04858,0.10304,0.4739
-0.257686,0,0,15.2577,15.2577,14.7423,14.7423,0.858955,1.845,5.25434,0.0771852,-0.0593369,-0.0919196,0,0,3.1675,0.63,-4.4625,0.06954,-0.062098,-1.10325,-0.04858,0.10304,0.4739
-0.257471,0,0,15.2575,15.2575,14.7425,14.7425,0.858236,1.84618,5.24956,-0.123044,-0.155463,-0.168394,1,0,3.2375,0.7525,-3.2025,-0.131516,-0.158112,-1.17913,-0.04858,0.10304,0.4739
-0.257255,0,0,15.2573,15.2573,14.7427,14.7427,0.857517,1.84736,5.24477,-0.123064,-0.155476,-0.168394,1,0,3.2375,0.7525,-3.2025,-0.131516,-0.158112,-1.17913,-0.04858,0.10304,0.4739
-0.294801,0,0,15.2948,15.2948,14.7052,14.7052,0.982671,1.90537,5.21097,0.0469755,-0.108473,0.103622,0,0,3.22,-4.48,-1.155,0.04026,-0.113338,-0.909144,-0.04858,0.10304,0.4739
-0.331665,0,0,15.3317,15.3317,14.6683,14.6683,1.10555,1.96165,5.17784,0.0459939,-0.10633,0.10355,0,0,3.22,-4.48,-1.155,0.04026,-0.113338,-0.909144,-0.04214,0.10276,0.46802
-0.336315,0,0,15.3363,15.3363,14.6637,14.6637,1.12105,2.00405,5.16997,0.0360214,-0.0161753,0.0368812,0,0,1.96,-0.21,1.12,0.030988,-0.023546,-0.975268,-0.04214,0.10276,0.46802
-0.340882,0,0,15.3409,15.3409,14.6591,14.6591,1.13627,2.04563,5.16211,0.0352961,-0.0159103,0.0368503,0,0,1.96,-0.21,1.12,0.030988,-0.023546,-0.975268,-0.04214,0.10276,0.46802
-0.387213,0,0,15.3872,15.3872,14.6128,14.6128,1.29071,2.00358,5.23004,-0.0433006,-0.166608,-0.0722361,0,0,2.5025,-0.4725,2.625,-0.048678,-0.176778,-1.08348,-0.04214,0.10276,0.46802
-0.418018,0,0,15.418,15.418,14.582,14.582,1.39339,1.97487,5.2883,-0.0288289,-0.105341,-0.0283681,0,0,2.695,-0.1925,3.045,-0.034648,-0.117364,-1.03993,-0.04214,0.10276,0.46802
-0.44904,0,0,15.449,15.449,14.551,14.551,1.4968,1.94579,5.34693,-0.0283218,-0.103538,-0.0283962,0,0,4.1125,-0.665,3.4475,-0.034648,-0.117364,-1.03993,-0.04214,0.10276,0.46802
-0.419516,0,0,15.4195,15.4195,14.5805,14.5805,1.39839,2.08161,5.25833,0.1321,0.099673,-0.0168789,0,0,3.8325,-0.2625,3.395,0.128832,0.087352,-1.02846,-0.04214,0.10276,0.46802
-0.390896,0,0,15.3909,15.3909,14.6091,14.6091,1.30299,2.21495,5.16844,0.129774,0.0980076,-0.0169269,0,0,4.585,-0.28,2.765,0.128832,0.087352,-1.02846,-0.04214,0.10276,0.46802
-0.405161,0,0,15.4052,15.4052,14.5948,14.5948,1.35054,2.34496,5.07707,0.125563,-0.0478397,-0.0367081,0,0,3.92,-0.5425,2.2575,0.12688,-0.05917,-1.04798,-0.04368,0.10164,0.47082
-0.35175,0,0,15.3517,15.3517,14.6483,14.6483,1.1725,2.56917,4.89608,0.2039,0.171324,0.0614283,0,0,3.115,-0.735,0.7,0.209474,0.16287,-0.950502,-0.04368,0.10164,0.47082
-0.298824,0,0,15.2988,15.2988,14.7012,14.7012,0.99608,2.78951,4.71227,0.200058,0.168245,0.0613068,0,0,2.415,-0.6825,-0.4025,0.209474,0.16287,-0.950502,-0.04368,0.10164,0.47082
-0.298453,0,0,15.2985,15.2985,14.7015,14.7015,0.994842,2.78896,4.71127,-0.0245593,-0.0733433,0.158314,1,0,2.8875,-0.2275,-0.98,-0.016104,-0.078446,-0.854244,-0.04368,0.10164,0.47082
-0.297985,0,0,15.298,15.298,14.702,14.702,0.993283,2.78944,4.70815,-0.0245676,-0.0733705,0.158314,1,0,2.765,0.35,-2.2225,-0.016104,-0.078446,-0.854244,-0.04368,0.10164,0.47082
-0.322294,0,0,15.3223,15.3223,14.6777,14.6777,1.07431,2.97524,4.5471,0.187709,-0.088204,-0.065026,0,0,2.975,0.175,-3.08,0.200324,-0.094672,-1.07567,-0.04368,0.10164,0.47082
-0.346169,0,0,15.3462,15.3462,14.6538,14.6538,1.1539,3.15754,4.38665,0.184532,-0.0868206,-0.0652231,0,0,2.975,0.175,-3.08,0.200324,-0.094672,-1.07567,-0.04368,0.10164,0.47082
-0.34617,0,0,15.3462,15.3462,14.6538,14.6538,1.1539,3.15805,4.38113,-0.0473929,-0.112223,-0.131247,1,0,3.7275,0.3325,-3.6225,-0.032574,-0.120048,-1.14119,-0.04368,0.10164,0.47082
-0.346172,0,0,15.3462,15.3462,14.6538,14.6538,1.15391,3.15855,4.37561,-0.0474017,-0.112223,-0.131247,1,0,3.7275,0.3325,-3.6225,-0.032574,-0.120048,-1.14119,-0.04774,0.10024,0.46956
-0.34612,0,0,15.3461,15.3461,14.6539,14.6539,1.15373,3.15979,4.37083,0.0546247,-0.0391941,0.123009,1,0,3.605,0.77,-3.2025,0.069906,-0.047092,-0.888892,-0.04774,0.10024,0.46956
-0.313053,0,0,15.3131,15.3131,14.6869,14.6869,1.04351,2.94705,4.57992,-0.202133,0.111425,-0.0432288,0,0,3.85,1.015,-2.555,-0.191662,0.105286,-1.05408,-0.04774,0.10024,0.46956
-0.280304,0,0,15.2803,15.2803,14.7197,14.7197,0.934348,2.73725,4.79165,-0.198476,0.109526,-0.0430144,0,0,3.3075,0.4375,-1.33,-0.191662,0.105286,-1.05408,-0.04774,0.10024,0.46956
-0.300356,0,0,15.3004,15.3004,14.6996,14.6996,1.00119,2.76454,4.78708,0.0274978,-0.0711562,-0.0704744,0,0,3.535,0.665,-0.735,0.035746,-0.076372,-1.08129,-0.04774,0.10024,0.46956
-0.319549,0,0,15.3195,15.3195,14.6805,14.6805,1.06516,2.79203,4.78403,0.0270187,-0.0700415,-0.0705178,0,0,2.555,1.12,0.14,0.035746,-0.076372,-1.08129,-0.04774,0.10024,0.46956
-0.281666,0,0,15.2817,15.2817,14.7183,14.7183,0.938888,2.89375,4.71273,0.0972865,0.124502,-0.00257681,0,0,2.8175,0.2975,0.6475,0.108092,0.12017,-1.01382,-0.04774,0.10024,0.46956
-0.244442,0,0,15.2444,15.2444,14.7556,14.7556,0.814808,2.99342,4.64276,0.0955492,0.122338,-0.00263303,0,0,2.7825,0.1925,1.5225,0.108092,0.12017,-1.01382,-0.04774,0.10024,0.46956
-0.257452,0,0,15.2575,15.2575,14.7425,14.7425,0.858175,3.02746,4.62876,0.0325122,-0.044342,-0.0232077,0,0,3.045,0.1225,1.7675,0.045384,-0.047092,-1.03419,-0.04746,0.1015,0.47852
-0.246652,0,0,15.2467,15.2467,14.7533,14.7533,0.822174,2.87219,4.79198,-0.148103,0.0360026,-0.0582223,0,0,3.7625,0.42,1.96,-0.138714,0.033794,-1.06909,-0.04746,0.1015,0.47852
-0.236136,0,0,15.2361,15.2361,14.7639,14.7639,0.78712,2.71867,4.95488,-0.145427,0.0353934,-0.058083,0,0,3.955,-0.2625,1.8025,-0.138714,0.033794,-1.06909,-0.04746,0.1015,0.47852
-0.236447,0,0,15.2364,15.2364,14.7636,14.7636,0.788158,2.71792,4.95775,0.0472624,0.177933,0.232813,1,0,4.06,-0.315,1.2775,0.054778,0.176168,-0.780434,-0.04746,0.1015,0.47852
-0.236759,0,0,15.2368,15.2368,14.7632,14.7632,0.789197,2.71717,4.96062,0.0472755,0.177952,0.232814,1,0,4.06,-0.315,1.2775,0.054778,0.176168,-0.780434,-0.04746,0.1015,0.47852
-0.229197,0,0,15.2292,15.2292,14.7708,14.7708,0.76399,2.77432,4.92742,0.0580632,0.0277841,-0.0412802,0,0,4.76,-0.1925,0.3325,0.066612,0.026596,-1.05237,-0.04746,0.1015,0.47852
-0.221766,0,0,15.2218,15.2218,14.7782,14.7782,0.73922,2.83042,4.89423,0.0570853,0.0273517,-0.0413224,0,0,4.76,-0.1925,0.3325,0.066612,0.026596,-1.05237,-0.04746,0.1015,0.47852
-0.222183,0,0,15.2222,15.2222,14.7778,14.7778,0.740609,2.82985,4.89461,-0.0511485,-0.245699,-0.0820182,1,0,4.3225,-0.2275,-0.175,-0.04209,-0.246196,-1.09275,-0.04746,0.1015,0.47852
-0.2226,0,0,15.2226,15.2226,14.7774,14.7774,0.741998,2.82928,4.89499,-0.0511386,-0.245675,-0.082018,1,0,4.3225,-0.2275,-0.175,-0.04209,-0.246196,-1.09275,-0.04298,0.1001,0.47292
-0.222478,0,0,15.2225,15.2225,14.7775,14.7775,0.741593,2.82782,4.89317,-0.0362918,0.00773072,0.109291,1,0,3.3775,-0.77,-1.4525,-0.027206,0.006954,-0.902922,-0.04298,0.1001,0.47292
-0.222357,0,0,15.2224,15.2224,14.7776,14.7776,0.741189,2.82635,4.89135,-0.0362663,0.00772368,0.109293,1,0,3.3775,-0.77,-1.4525,-0.027206,0.006954,-0.902922,-0.04298,0.1001,0.47292
-0.181437,0,0,15.1814,15.1814,14.8186,14.8186,0.604791,2.99723,4.75612,0.163272,0.139195,-0.0166073,0,0,3.185,3.99,-1.2775,0.176168,0.140666,-1.02773,-0.04298,0.1001,0.47292
-0.141204,0,0,15.1412,15.1412,14.8588,14.8588,0.470679,3.16507,4.62041,0.160347,0.136857,-0.0167428,0,0,3.185,3.99,-1.2775,0.176168,0.140666,-1.02773,-0.04298,0.1001,0.47292
-0.123849,0,0,15.1238,15.1238,14.8762,14.8762,0.412828,3.03536,4.75532,-0.113773,0.0523149,0.0961312,0,0,4.235,0.175,-1.6975,-0.101382,0.057218,-0.915854,-0.04298,0.1001,0.47292
-0.1068,0,0,15.1068,15.1068,14.8932,14.8932,0.356001,2.90804,4.89039,-0.111553,0.0513252,0.096253,0,0,4.235,0.175,-1.6975,-0.101382,0.057218,-0.915854,-0.04298,0.1001,0.47292
-0.146638,0,0,15.1466,15.1466,14.8534,14.8534,0.488792,2.7586,5.04793,-0.145637,-0.133457,-0.00555943,0,0,3.535,0.7,-0.875,-0.138226,-0.129686,-1.01699,-0.04298,0.1001,0.47292
-0.185739,0,0,15.1857,15.1857,14.8143,14.8143,0.619131,2.61038,5.20214,-0.143053,-0.131184,-0.00546024,0,0,3.535,0.7,-0.875,-0.138226,-0.129686,-1.01699,-0.049,0.10164,0.47614
-0.216941,0,0,15.2169,15.2169,14.7831,14.7831,0.723138,2.79751,5.04657,0.18777,-0.110443,-0.0598558,0,0,3.9025,0.4725,-0.5775,0.197274,-0.110776,-1.07079,-0.049,0.10164,0.47614
-0.247598,0,0,15.2476,15.2476,14.7524,14.7524,0.825327,2.98113,4.8917,0.184569,-0.108664,-0.0600414,0,0,3.9025,0.4725,-0.5775,0.197274,-0.110776,-1.07079,-0.049,0.10164,0.47614
-0.247759,0,0,15.2478,15.2478,14.7522,14.7522,0.825864,2.98259,4.89187,-0.109816,0.0297149,0.146265,1,0,3.85,0.9625,-0.315,-0.098332,0.02745,-0.866078,-0.049,0.10164,0.47614
-0.24792,0,0,15.2479,15.2479,14.7521,14.7521,0.8264,2.98406,4.89204,-0.109841,0.0297242,0.146263,1,0,3.85,0.9625,-0.315,-0.098332,0.02745,-0.866078,-0.049,0.10164,0.47614
-0.247561,0,0,15.2476,15.2476,14.7524,14.7524,0.825203,2.98543,4.89248,-0.215922,-0.022689,0.164213,1,0,2.87,0.91,-0.1575,-0.204838,-0.024888,-0.848266,-0.049,0.10164,0.47614
-0.247202,0,0,15.2472,15.2472,14.7528,14.7528,0.824006,2.9868,4.89292,-0.215946,-0.0227099,0.164212,1,0,2.87,0.91,-0.1575,-0.204838,-0.024888,-0.848266,-0.049,0.10164,0.47614
-0.236415,0,0,15.2364,15.2364,14.7636,14.7636,0.788049,3.0111,4.88532,0.0284239,0.0358946,-0.0696496,0,0,2.975,0.035,-0.1575,0.040992,0.034282,-1.08031,-0.049,0.10164,0.47614
-0.225811,0,0,15.2258,15.2258,14.7742,14.7742,0.752703,3.03473,4.88095,0.028012,0.0352783,-0.0696631,0,0,2.975,0.035,-0.1575,0.040992,0.034282,-1.08031,-0.04508,0.09968,0.46998
-0.19421,0,0,15.1942,15.1942,14.8058,14.8058,0.647366,2.89283,5.03155,-0.137286,0.113193,-0.0913974,0,0,4.41,-0.07,-0.245,-0.12749,0.113948,-1.10203,-0.04508,0.09968,0.46998
-0.16316,0,0,15.1632,15.1632,14.8368,14.8368,0.543865,2.75354,5.18258,-0.134858,0.11139,-0.0912589,0,0,4.41,-0.07,-0.245,-0.12749,0.113948,-1.10203,-0.04508,0.09968,0.46998
-0.103632,0,0,15.1036,15.1036,14.8964,14.8964,0.345441,2.80633,5.15768,0.0633366,0.216868,-0.0736951,0,0,5.075,0,-0.0875,0.072468,0.222772,-1.08458,-0.04508,0.09968,0.46998
-0.0451215,0,0,15.0451,15.0451,14.9549,14.9549,0.150405,2.85821,5.13274,0.0624321,0.213468,-0.0737252,0,0,5.075,0,-0.0875,0.072468,0.222772,-1.08458,-0.04508,0.09968,0.46998
-0.0451157,0,0,15.0451,15.0451,14.9549,14.9549,0.150386,2.85708,5.13367,-0.0829665,-0.145341,-0.131879,1,0,3.5175,-0.56,0.14,-0.073566,-0.135664,-1.14229,-0.04508,0.09968,0.46998
-0.0451279,0,0,15.0451,15.0451,14.9549,14.9549,0.150426,2.85631,5.13454,0.134506,0.111004,-0.114051,1,0,3.5525,-0.35,0.105,0.144814,0.120414,-1.1246,-0.04508,0.09968,0.46998
-0.0449523,0,0,15.045,15.045,14.955,14.955,0.149841,2.85604,5.13537,0.134511,0.110993,-0.11405,1,0,3.2025,-0.0525,0.0875,0.144814,0.120414,-1.1246,-0.04508,0.09968,0.46998
-0.0446862,0,0,15.0447,15.0447,14.9553,14.9553,0.148954,2.85598,5.13642,-0.150372,-0.0823487,-0.109624,1,0,3.0275,0.07,0.21,-0.141276,-0.072712,-1.1202,-0.04508,0.09968,0.46998
-0.0445088,0,0,15.0445,15.0445,14.9555,14.9555,0.148363,2.85476,5.13777,-0.150351,-0.082359,-0.109623,1,0,3.185,-0.6125,0.385,-0.141276,-0.072712,-1.1202,-0.05194,0.09772,0.46998
-0.0830334,0,0,15.083,15.083,14.917,14.917,0.276778,2.88191,5.13476,0.0246015,-0.132024,-0.0283861,0,0,3.0275,-0.2975,0.21,0.034892,-0.124562,-1.03956,-0.05194,0.09772,0.46998
-0.120911,0,0,15.1209,15.1209,14.8791,14.8791,0.403038,2.90876,5.13092,0.0241334,-0.129824,-0.0284228,0,0,3.0975,-0.1225,-0.2625,0.034892,-0.124562,-1.03956,-0.05194,0.09772,0.46998
-0.0995129,0,0,15.0995,15.0995,14.9005,14.9005,0.33171,3.00202,5.06659,0.0861663,0.068976,0.0242461,0,0,3.0975,-0.175,-0.4025,0.09882,0.075274,-0.987224,-0.05194,0.09772,0.46998
-0.0785702,0,0,15.0786,15.0786,14.9214,14.9214,0.261901,3.09335,5.00191,0.0845747,0.0677589,0.0241677,0,0,3.2725,-0.315,-0.5775,0.09882,0.075274,-0.987224,-0.05194,0.09772,0.46998
-0.0383891,0,0,15.0384,15.0384,14.9616,14.9616,0.127964,2.95722,5.1489,-0.126625,0.136258,-0.0274603,0,0,3.85,0.1225,-0.8925,-0.115656,0.146034,-1.03859,-0.05194,0.09772,0.46998
0.00110081,0,0,14.9989,14.9989,15.0011,15.0011,-0.00366936,2.82414,5.29588,-0.124305,0.133964,-0.0273407,0,0,3.85,0.4375,-1.2425,-0.115656,0.146034,-1.03859,-0.05194,0.09772,0.46998
-0.0336604,0,0,15.0337,15.0337,14.9663,14.9663,0.112201,2.63247,5.49672,-0.184743,-0.115597,0.00773402,0,0,3.9725,0.7875,-1.2425,-0.179706,-0.105286,-1.00394,-0.05194,0.09772,0.46998
-0.067608,0,0,15.0676,15.0676,14.9324,14.9324,0.22536,2.44342,5.69219,-0.181447,-0.113623,0.00787432,0,0,3.605,0.385,-1.54,-0.179706,-0.105286,-1.00394,-0.05082,0.1001,0.47194
-0.0410741,0,0,15.0411,15.0411,14.9589,14.9589,0.136914,2.54333,5.62514,0.105461,0.0928161,-0.0642445,0,0,2.87,0.4025,-1.6975,0.110166,0.10248,-1.07543,-0.05082,0.1001,0.47194
-0.0152365,0,0,15.0152,15.0152,14.9848,14.9848,0.0507883,2.64147,5.55861,0.10375,0.0913143,-0.0643195,0,0,3.3075,0.42,-1.33,0.110166,0.10248,-1.07543,-0.05082,0.1001,0.47194
0.0320584,0,0,14.9679,14.9679,15.0321,15.0321,-0.106861,2.56002,5.66067,-0.0702554,0.140836,0.100003,0,0,3.6225,0.315,-1.19,-0.066002,0.154696,-0.912438,-0.05082,0.1001,0.47194
0.0784927,0,0,14.9215,14.9215,15.0785,15.0785,-0.261642,2.48026,5.76334,-0.0688647,0.138137,0.100055,0,0,3.6925,0.42,-1.1375,-0.066002,0.154696,-0.912438,-0.05082,0.1001,0.47194
0.0851875,0,0,14.9148,14.9148,15.0852,15.0852,-0.283958,2.37254,5.891,-0.101124,0.0216048,-6.99038e-05,0,0,3.7275,0.4025,-1.015,-0.100284,0.038674,-1.01187,-0.05082,0.1001,0.47194
0.0919447,0,0,14.9081,14.9081,15.0919,15.0919,-0.306482,2.26583,6.01918,-0.099263,0.0212116,3.43892e-06,0,0,3.3775,-0.175,-0.6825,-0.100284,0.038674,-1.01187,-0.05082,0.1001,0.47194
0.069338,0,0,14.9307,14.9307,15.0693,15.0693,-0.231127,2.13844,6.16578,-0.125955,-0.0792061,-0.0407239,0,0,3.1325,-0.1925,-0.315,-0.12932,-0.062952,-1.05237,-0.05082,0.1001,0.47194
0.0473226,0,0,14.9527,14.9527,15.0473,15.0473,-0.157742,2.01468,6.32152,-0.123796,-0.0779264,-0.0406413,0,0,2.695,-0.1575,-0.315,-0.12932,-0.062952,-1.05237,-0.04774,0.0938,0.4676
0.0247693,0,0,14.9752,14.9752,15.0248,15.0248,-0.0825642,2.05075,6.32841,0.02974,-0.0740505,0.0211823,0,0,2.7125,-0.28,-0.14,0.025498,-0.06039,-0.991006,-0.04774,0.0938,0.4676
0.00198297,0,0,14.998,14.998,15.002,15.002,-0.00660991,2.08666,6.33623,0.0291137,-0.0727257,0.0211607,0,0,3.8675,0.0525,0.4025,0.025498,-0.06039,-0.991006,-0.04774,0.0938,0.4676
-0.0208295,0,0,15.0208,15.0208,14.9792,14.9792,0.0694318,2.20124,6.26984,0.110576,-0.0783607,-0.038299,0,0,3.43,0.4025,0.49,0.109312,-0.067344,-1.04993,-0.04774,0.0938,0.4676
-0.0432425,0,0,15.0432,15.0432,14.9568,14.9568,0.144142,2.31341,6.20374,0.10862,-0.0770579,-0.0383785,0,0,3.43,0.2625,0.5075,0.109312,-0.067344,-1.04993,-0.04774,0.0938,0.4676
-0.0591722,0,0,15.0592,15.0592,14.9408,14.9408,0.197241,2.2006,6.34664,-0.108087,-0.0542709,0.00386758,0,0,2.87,0.0175,0.28,-0.110288,-0.045506,-1.00809,-0.04774,0.0938,0.4676
-0.0746012,0,0,15.0746,15.0746,14.9254,14.9254,0.248671,2.08938,6.48932,-0.106147,-0.0533737,0.00393675,0,0,2.45,-0.245,0.4375,-0.110288,-0.045506,-1.00809,-0.04774,0.0938,0.4676
-0.0822331,0,0,15.0822,15.0822,14.9178,14.9178,0.27411,2.03017,6.58575,-0.0543335,-0.0247185,0.0890522,0,0,2.345,-0.245,0.4375,-0.059292,-0.017324,-0.923662,-0.04774,0.0938,0.4676
-0.0898969,0,0,15.0899,15.0899,14.9101,14.9101,0.299656,1.97179,6.65976,-0.0533154,-0.0242728,0.0890856,0,0,2.7125,0.035,-0.07,-0.059292,-0.017324,-0.923662,-0.049,0.10766,0.47348
-0.0735285,0,0,15.0735,15.0735,14.9265,14.9265,0.245095,1.89467,6.75577,-0.0678848,0.0495173,0.0655294,0,0,3.15,-0.175,-0.2975,-0.075274,0.05734,-0.947086,-0.049,0.10766,0.47348
-0.0577908,0,0,15.0578,15.0578,14.9422,14.9422,0.192636,1.81948,6.85155,-0.066573,0.0486024,0.0655754,0,0,3.7975,0.105,-0.4725,-0.075274,0.05734,-0.947086,-0.049,0.10766,0.47348
-0.0283695,0,0,15.0284,15.0284,14.9716,14.9716,0.0945651,2.14584,6.57326,0.325357,0.104901,0.0163262,0,0,4.2175,-0.0875,-0.7875,0.324032,0.11529,-0.995764,-0.049,0.10766,0.47348
0.000818323,0,0,14.9992,14.9992,15.0008,15.0008,-0.00272774,2.46731,6.29363,0.319751,0.103205,0.0161017,0,0,3.8325,0.3325,-1.0675,0.324032,0.11529,-0.995764,-0.049,0.10766,0.47348
0.0275741,0,0,14.9724,14.9724,15.0276,15.0276,-0.0919138,2.29758,6.47018,-0.157279,0.086017,0.0229858,0,0,3.6575,0.28,-1.12,-0.15799,0.099674,-0.989054,-0.049,0.10766,0.47348
0.0542411,0,0,14.9458,14.9458,15.0542,15.0542,-0.180804,2.13129,6.64705,-0.154379,0.0844665,0.0230942,0,0,2.9575,0.49,-1.1375,-0.15799,0.099674,-0.989054,-0.049,0.10766,0.47348
0.0546176,0,0,14.9454,14.9454,15.0546,15.0546,-0.182059,2.13192,6.64611,0.00973686,0.150759,0.166452,1,0,2.87,0.4725,-0.945,0.006832,0.16592,-0.846802,-0.049,0.10766,0.47348
0.054785,0,0,14.9452,14.9452,15.0548,15.0548,-0.182617,2.13237,6.64545,0.00972902,0.15075,0.166451,1,0,3.255,0.3675,-0.7875,0.006832,0.16592,-0.846802,-0.0504,0.0994,0.4732
0.0627266,0,0,14.9373,14.9373,15.0627,15.0627,-0.209089,1.91183,6.88444,-0.191735,0.0203446,0.104742,0,0,2.6775,0.0525,-0.77,-0.199348,0.036112,-0.908168,-0.0504,0.0994,0.4732
0.0706858,0,0,14.9293,14.9293,15.0707,15.0707,-0.235619,1.69504,7.12314,-0.187953,0.0198814,0.10486,0,0,2.3975,-0.0875,-0.84,-0.199348,0.036112,-0.908168,-0.0504,0.0994,0.4732
0.0712169,0,0,14.9288,14.9288,15.0712,15.0712,-0.23739,1.69436,7.12248,0.124763,-0.0701569,-0.0997263,1,0,2.5725,-0.2975,-0.7875,0.11468,-0.053802,-1.11118,-0.0504,0.0994,0.4732
0.071301,0,0,14.9287,14.9287,15.0713,15.0713,-0.23767,1.69337,7.1226,0.12478,-0.0701618,-0.0997258,1,0,3.395,-0.4725,-0.3325,0.11468,-0.053802,-1.11118,-0.0504,0.0994,0.4732
0.0887084,0,0,14.9113,14.9113,15.0887,15.0887,-0.295695,1.60652,7.24587,-0.0815666,0.0595013,-0.0465731,0,0,3.395,-0.2625,-0.2275,-0.094062,0.076738,-1.05847,-0.0504,0.0994,0.4732
0.10617,0,0,14.8938,14.8938,15.1062,15.1062,-0.353901,1.52212,7.36891,-0.0800941,0.0584856,-0.0465387,0,0,2.73,0.2275,-0.4025,-0.094062,0.076738,-1.05847,-0.0504,0.0994,0.4732
0.0668731,0,0,14.9331,14.9331,15.0669,15.0669,-0.22291,1.62678,7.30456,0.0986076,-0.136219,-0.0313317,0,0,2.8525,-0.21,-0.2975,0.08723,-0.120048,-1.04334,-0.0504,0.0994,0.4732
0.0282477,0,0,14.9718,14.9718,15.0282,15.0282,-0.0941591,1.73033,7.2408,0.096801,-0.133973,-0.0313785,0,0,2.87,0.3325,-0.1925,0.08723,-0.120048,-1.04334,-0.0504,0.0994,0.4732
0.0283481,0,0,14.9717,14.9717,15.0283,15.0283,-0.0944935,1.73052,7.24118,0.226302,-0.0828077,-0.0863365,1,0,3.36,0.21,-0.175,0.217282,-0.06893,-1.09788,-0.04914,0.09926,0.48146
0.0462056,0,0,14.9538,14.9538,15.0462,15.0462,-0.154019,1.59719,7.40747,-0.125017,0.0568437,-0.00610881,0,0,2.5725,0.0525,-0.105,-0.13786,0.071614,-1.01833,-0.04914,0.09926,0.48146
0.064012,0,0,14.936,14.936,15.064,15.064,-0.213373,1.46578,7.57329,-0.122725,0.0558079,-0.00605084,0,0,2.1,-0.2625,-0.4375,-0.13786,0.071614,-1.01833,-0.04914,0.09926,0.48146
0.0640318,0,0,14.936,14.936,15.064,15.064,-0.213439,1.4659,7.57325,0.0505119,-0.000493648,0.136938,1,0,3.5175,0.175,-0.42,0.036112,0.015372,-0.876448,-0.04914,0.09926,0.48146
0.0639082,0,0,14.9361,14.9361,15.0639,15.0639,-0.213027,1.46674,7.57361,0.0504972,-0.000486458,0.136938,1,0,3.78,0.595,-0.1925,0.036112,0.015372,-0.876448,-0.04914,0.09926,0.48146
0.107758,0,0,14.8922,14.8922,15.1078,15.1078,-0.359193,1.47728,7.6145,0.0131387,0.134967,0.0844214,0,0,4.305,0.3675,-0.385,-0.00122,0.153232,-0.928542,-0.04914,0.09926,0.48146
0.151063,0,0,14.8489,14.8489,15.1511,15.1511,-0.503544,1.48785,7.65488,0.0129544,0.132448,0.0843977,0,0,3.92,0.4375,-0.7525,-0.00122,0.153232,-0.928542,-0.04914,0.09926,0.48146
0.170045,0,0,14.83,14.83,15.17,15.17,-0.566815,1.78088,7.42134,0.271102,0.0617335,0.0826432,0,0,3.99,0.2275,-0.77,0.263154,0.083692,-0.930128,-0.04914,0.09926,0.48146
0.188671,0,0,14.8113,14.8113,15.1887,15.1887,-0.628905,2.06809,7.19145,0.266092,0.0606522,0.0824635,0,0,4.0775,-0.35,-0.6475,0.263154,0.083692,-0.930128,-0.04984,0.09688,0.47446
0.188651,0,0,14.8113,14.8113,15.1887,15.1887,-0.628838,2.06853,7.19078,-0.0300982,-0.184455,-0.121262,1,0,3.605,0.3675,-0.7875,-0.034282,-0.161162,-1.13228,-0.04984,0.09688,0.47446
0.188797,0,0,14.8112,14.8112,15.1888,15.1888,-0.629322,2.0682,7.19042,-0.0300924,-0.184463,-0.121262,1,0,3.29,-0.0875,-0.6125,-0.034282,-0.161162,-1.13228,-0.04984,0.09688,0.47446
0.184146,0,0,14.8159,14.8159,15.1841,15.1841,-0.613819,2.05399,7.24061,-0.012715,-0.0172459,-0.0975214,0,0,2.8875,0.4025,-0.42,-0.01708,0.005612,-1.10874,-0.04984,0.09688,0.47446
0.179526,0,0,14.8205,14.8205,15.1795,15.1795,-0.598421,2.0391,7.29097,-0.0124553,-0.0169774,-0.0975093,0,0,2.975,-0.14,-0.28,-0.01708,0.005612,-1.10874,-0.04984,0.09688,0.47446
0.179497,0,0,14.8205,14.8205,15.1795,15.1795,-0.598323,2.03865,7.29118,0.0881426,-0.0368824,-0.205335,1,0,3.605,-0.1575,-0.28,0.083936,-0.014274,-1.21573,-0.04984,0.09688,0.47446
0.179683,0,0,14.8203,14.8203,15.1797,15.1797,-0.598945,2.03833,7.29133,0.0881482,-0.0368932,-0.205335,1,0,3.2025,-0.0875,-0.315,0.083936,-0.014274,-1.21573,-0.04984,0.09688,0.47446
0.179755,0,0,14.8202,14.8202,15.1798,15.1798,-0.599183,2.03759,7.29173,0.0416321,0.0862064,0.156257,1,0,3.4125,-0.3325,-0.175,0.03721,0.108702,-0.856928,-0.04984,0.09688,0.47446
0.179964,0,0,14.82,14.82,15.18,15.18,-0.59988,2.03644,7.2924,0.0416522,0.0861942,0.156258,1,0,3.15,-0.5775,-0.0175,0.03721,0.108702,-0.856928,-0.04704,0.09478,0.47348
0.123071,0,0,14.8769,14.8769,15.1231,15.1231,-0.410236,2.0938,7.26925,0.0510994,-0.198351,-0.0376389,0,0,3.7625,-0.245,-0.0175,0.047702,-0.178852,-1.04932,-0.04704,0.09478,0.47348
0.0670319,0,0,14.933,14.933,15.067,15.067,-0.22344,2.15034,7.24595,0.0501134,-0.195092,-0.0376574,0,0,3.99,-0.0175,-0.2275,0.047702,-0.178852,-1.04932,-0.04704,0.09478,0.47348
0.0608162,0,0,14.9392,14.9392,15.0608,15.0608,-0.202721,2.17809,7.25757,0.022781,-0.020334,0.0386767,0,0,3.2375,0.3325,-0.1225,0.02074,-0.004636,-0.97356,-0.04704,0.09478,0.47348
0.0547543,0,0,14.9452,14.9452,15.0548,15.0548,-0.182514,2.20479,7.26933,0.0223155,-0.0199816,0.03866,0,0,3.15,0.0175,-0.035,0.02074,-0.004636,-0.97356,-0.04704,0.09478,0.47348
0.0722825,0,0,14.9277,14.9277,15.0723,15.0723,-0.240942,2.06349,7.44291,-0.139833,0.0600912,-0.0623155,0,0,2.9575,0.35,-0.0875,-0.14457,0.076372,-1.07384,-0.04704,0.09478,0.47348
0.0895106,0,0,14.9105,14.9105,15.0895,15.0895,-0.298369,1.92462,7.61645,-0.137411,0.0590892,-0.0622359,0,0,2.9575,0.2625,-0.175,-0.14457,0.076372,-1.07384,-0.04704,0.09478,0.47348
0.0654055,0,0,14.9346,14.9346,15.0654,15.0654,-0.218018,1.91456,7.6632,-0.0116194,-0.0859392,-0.0822643,0,0,3.7975,0.035,-0.3325,-0.018422,-0.069906,-1.09373,-0.04704,0.09478,0.47348
0.0418033,0,0,14.9582,14.9582,15.0418,15.0418,-0.139344,1.90368,7.69298,-0.0114296,-0.0845669,-0.0822537,0,0,3.745,0.2625,-0.49,-0.018422,-0.069906,-1.09373,-0.04858,0.10584,0.47362
0.0134643,0,0,14.9865,14.9865,15.0135,15.0135,-0.044881,1.91974,7.69598,0.0100362,-0.0889033,0.050278,0,0,4.06,0.14,-0.5775,0.003416,-0.075884,-0.962214,-0.04858,0.10584,0.47362
-0.0143631,0,0,15.0144,15.0144,14.9856,14.9856,0.047877,1.93518,7.69869,0.009767,-0.0872853,0.0502689,0,0,4.025,-0.0175,-0.735,0.003416,-0.075884,-0.962214,-0.04858,0.10584,0.47362
0.0335103,0,0,14.9665,14.9665,15.0335,15.0335,-0.111701,1.90408,7.76187,-0.0260149,0.143315,0.109547,0,0,3.7275,0.175,-0.9275,-0.033062,0.157258,-0.90341,-0.04858,0.10584,0.47362
0.0804269,0,0,14.9196,14.9196,15.0804,15.0804,-0.26809,1.8731,7.82499,-0.0254743,0.140587,0.109556,0,0,3.99,-0.1225,-1.1375,-0.033062,0.157258,-0.90341,-0.04858,0.10584,0.47362
0.0803277,0,0,14.9197,14.9197,15.0803,15.0803,-0.267759,1.87223,7.82373,0.0520487,-0.0360023,-0.0999482,1,0,3.7625,-0.4025,-1.1375,0.044774,-0.019154,-1.1113,-0.04858,0.10584,0.47362
0.0803886,0,0,14.9196,14.9196,15.0804,15.0804,-0.267962,1.87145,7.82239,0.0520623,-0.0360058,-0.0999478,1,0,3.465,-0.35,-1.19,0.044774,-0.019154,-1.1113,-0.04858,0.10584,0.47362
0.0801504,0,0,14.9198,14.9198,15.0802,15.0802,-0.267168,1.87067,7.82098,0.0509825,-0.1111,-0.212445,1,0,4.025,-0.35,-1.225,0.043676,-0.094184,-1.22293,-0.04858,0.10584,0.47362
0.0805277,0,0,14.9195,14.9195,15.0805,15.0805,-0.268426,1.87106,7.81983,0.0509758,-0.111122,-0.212445,1,0,2.87,0.3325,-1.0675,0.043676,-0.094184,-1.22293,-0.04214,0.09772,0.46606
0.0541303,0,0,14.9459,14.9459,15.0541,15.0541,-0.180434,1.69282,8.0199,-0.16544,-0.0836964,0.0853156,0,0,3.0625,0.0875,-1.1025,-0.176778,-0.06832,-0.927566,-0.04214,0.09772,0.46606
0.0284839,0,0,14.9715,14.9715,15.0285,15.0285,-0.0949462,1.51749,8.21985,-0.162381,-0.0822051,0.0854049,0,0,2.485,-0.0175,-0.6475,-0.176778,-0.06832,-0.927566,-0.04214,0.09772,0.46606
0.028933,0,0,14.9711,14.9711,15.0289,15.0289,-0.0964434,1.51717,8.22,0.159926,-0.0512111,-0.114386,1,0,2.7125,-0.0875,-0.315,0.146888,-0.037332,-1.12582,-0.04214,0.09772,0.46606
0.0288158,0,0,14.9712,14.9712,15.0288,15.0288,-0.0960526,1.51658,8.22072,0.159937,-0.0512043,-0.114386,1,0,3.7625,-0.245,0.0175,0.146888,-0.037332,-1.12582,-0.04214,0.09772,0.46606
-0.008243,0,0,15.0082,15.0082,14.9918,14.9918,0.0274767,1.39402,8.37148,-0.127911,-0.129042,-0.0275288,0,0,3.5525,-0.0875,0.0875,-0.144326,-0.117242,-1.03968,-0.04214,0.09772,0.46606
-0.0446908,0,0,15.0447,15.0447,14.9553,14.9553,0.148969,1.27334,8.52182,-0.125806,-0.126922,-0.027483,0,0,3.5875,-0.1925,0.315,-0.144326,-0.117242,-1.03968,-0.04214,0.09772,0.46606
-0.0444011,0,0,15.0444,15.0444,14.9556,14.9556,0.148004,1.2728,8.52344,0.22955,0.229549,0.18989,1,0,2.9925,-0.21,0.5425,0.212524,0.238876,-0.823988,-0.04214,0.09772,0.46606
-0.044415,0,0,15.0444,15.0444,14.9556,14.9556,0.14805,1.27223,8.52566,0.229559,0.22955,0.18989,1,0,3.5525,-0.2275,0.8925,0.212524,0.238876,-0.823988,-0.04214,0.09772,0.46606
-0.044878,0,0,15.0449,15.0449,14.9551,14.9551,0.149593,1.27175,8.52781,0.0779537,0.0682474,-0.183381,1,0,4.3925,-0.175,0.8575,0.060268,0.077714,-1.19438,-0.0448,0.10262,0.46284
-0.0449997,0,0,15.045,15.045,14.955,14.955,0.149999,1.2725,8.52934,0.0779407,0.0682544,-0.183381,1,0,3.7625,0.5425,0.49,0.060268,0.077714,-1.19438,-0.0448,0.10262,0.46284
-0.0452314,0,0,15.0452,15.0452,14.9548,14.9548,0.150771,1.27339,8.53052,-0.0399161,-0.172078,-0.0954736,1,0,3.9725,0.63,0.28,-0.058072,-0.162382,-1.10715,-0.0448,0.10262,0.46284
-0.0454631,0,0,15.0455,15.0455,14.9545,14.9545,0.151544,1.27429,8.53169,-0.0399318,-0.172064,-0.095474,1,0,3.9725,0.63,0.28,-0.058072,-0.162382,-1.10715,-0.0448,0.10262,0.46284
-0.0452902,0,0,15.0453,15.0453,14.9547,14.9547,0.150967,1.27465,8.53118,-0.126193,-0.159373,0.126202,1,0,3.2375,0.315,-0.7,-0.144692,-0.149694,-0.887184,-0.0448,0.10262,0.46284
-0.0451174,0,0,15.0451,15.0451,14.9549,14.9549,0.150391,1.27502,8.53067,-0.126199,-0.159383,0.126202,1,0,3.2375,0.315,-0.7,-0.144692,-0.149694,-0.887184,-0.0448,0.10262,0.46284
-0.0659852,0,0,15.066,15.066,14.934,14.934,0.219951,1.26386,8.57358,-0.0137517,-0.0709707,-0.0041231,0,0,3.0625,0,-0.9975,-0.031964,-0.062586,-1.0165,-0.0448,0.10262,0.46284
-0.0864942,0,0,15.0865,15.0865,14.9135,14.9135,0.288314,1.25283,8.61635,-0.0135594,-0.0697778,-0.00412417,0,0,3.0625,0,-0.9975,-0.031964,-0.062586,-1.0165,-0.0448,0.10262,0.46284
-0.1102,0,0,15.1102,15.1102,14.8898,14.8898,0.367334,1.56628,8.34999,0.309469,-0.0812232,0.0114708,0,0,3.3775,-0.175,-1.5225,0.297924,-0.075396,-1.00089,-0.04634,0.10402,0.47376
-0.110708,0,0,15.1107,15.1107,14.8893,14.8893,0.369026,1.56666,8.34807,0.137803,0.0800136,-0.102626,1,0,4.5325,0.315,-1.5225,0.125538,0.085644,-1.1141,-0.04634,0.10402,0.47376
-0.110942,0,0,15.1109,15.1109,14.8891,14.8891,0.369806,1.56652,8.34588,0.137805,0.0800272,-0.102626,1,0,4.025,0.0175,-1.68,0.125538,0.085644,-1.1141,-0.04634,0.10402,0.47376
-0.0736565,0,0,15.0737,15.0737,14.9263,14.9263,0.245522,1.50197,8.44477,-0.0588471,0.131595,-0.0550029,0,0,3.6925,0.0875,-1.7675,-0.073078,0.139324,-1.06689,-0.04634,0.10402,0.47376
-0.0365834,0,0,15.0366,15.0366,14.9634,14.9634,0.121945,1.43935,8.5444,-0.0577545,0.129439,-0.054968,0,0,2.8875,0.5075,-1.505,-0.073078,0.139324,-1.06689,-0.04634,0.10402,0.47376
-0.056514,0,0,15.0565,15.0565,14.9435,14.9435,0.18838,1.57995,8.44011,0.134412,-0.0692016,-0.0102825,0,0,2.5375,0.595,-1.2775,0.122366,-0.060268,-1.02248,-0.04634,0.10402,0.47376
-0.0760776,0,0,15.0761,15.0761,14.9239,14.9239,0.253592,1.71672,8.33742,0.132026,-0.0680642,-0.0103556,0,0,2.485,-0.14,-0.5425,0.122366,-0.060268,-1.02248,-0.04634,0.10402,0.47376
-0.0695552,0,0,15.0696,15.0696,14.9304,14.9304,0.231851,1.62043,8.45809,-0.0905564,0.0194879,0.00936673,0,0,2.8175,-0.035,-0.2275,-0.102846,0.027572,-1.00296,-0.04634,0.10402,0.47376
-0.062977,0,0,15.063,15.063,14.937,14.937,0.209923,1.52606,8.58358,-0.0889099,0.0191056,0.00941343,0,0,2.4675,-0.1225,0.105,-0.102846,0.027572,-1.00296,-0.04326,0.10136,0.469
-0.124468,0,0,15.1245,15.1245,14.8755,14.8755,0.414894,1.38544,8.73466,-0.149143,-0.217541,-0.0118138,0,0,2.5725,-0.28,0.385,-0.165798,-0.212402,-1.02407,-0.04326,0.10136,0.469
-0.18563,0,0,15.1856,15.1856,14.8144,14.8144,0.618768,1.24834,8.88525,-0.146751,-0.213984,-0.0117909,0,0,3.8675,0.455,0.8575,-0.165798,-0.212402,-1.02407,-0.04326,0.10136,0.469
-0.170266,0,0,15.1703,15.1703,14.8297,14.8297,0.567555,1.2479,8.93259,0.0014694,0.0519698,-0.00256035,0,0,3.8325,0.49,0.8575,-0.016958,0.054168,-1.01492,-0.04326,0.10136,0.469
-0.155233,0,0,15.1552,15.1552,14.8448,14.8448,0.517445,1.24742,8.98008,0.00147784,0.0510955,-0.00255189,0,0,3.955,0.4375,0.945,-0.016958,0.054168,-1.01492,-0.04326,0.10136,0.469
-0.155396,0,0,15.1554,15.1554,14.8446,14.8446,0.517987,1.2477,8.98215,0.0109488,0.103131,-0.171852,1,0,3.8325,0.28,0.805,-0.007442,0.10614,-1.18291,-0.04326,0.10136,0.469
-0.155743,0,0,15.1557,15.1557,14.8443,14.8443,0.519143,1.2485,8.98377,0.0109349,0.103151,-0.171853,1,0,4.1825,0.5775,0.5425,-0.007442,0.10614,-1.18291,-0.04326,0.10136,0.469
-0.127674,0,0,15.1277,15.1277,14.8723,14.8723,0.425579,1.35467,8.93449,0.110887,0.0996863,-0.0333183,0,0,4.06,0.6125,0.3675,0.094794,0.10431,-1.04542,-0.04326,0.10136,0.469
-0.0998397,0,0,15.0998,15.0998,14.9002,14.9002,0.332799,1.45825,8.87979,0.10908,0.0980673,-0.033352,0,0,3.57,-0.175,0.105,0.094794,0.10431,-1.04542,-0.04382,0.10458,0.46858
-0.0996827,0,0,15.0997,15.0997,14.9003,14.9003,0.332276,1.45727,8.87282,0.192072,-0.00929127,0.156235,1,0,3.36,-0.49,-4.4625,0.17812,-0.002928,-0.857294,-0.04382,0.10458,0.46858
-0.0990532,0,0,15.0991,15.0991,14.9009,14.9009,0.330177,1.45656,8.87267,0.192084,-0.00932788,0.156236,1,0,2.38,-0.315,-0.49,0.17812,-0.002928,-0.857294,-0.04382,0.10458,0.46858
-0.0754026,0,0,15.0754,15.0754,14.9246,14.9246,0.251342,1.60214,8.77378,0.146538,0.0800365,-0.00378121,0,0,2.555,-0.2625,-0.7875,0.134932,0.087718,-1.01602,-0.04382,0.10458,0.46858
-0.0526607,0,0,15.0527,15.0527,14.9473,14.9473,0.175536,1.74461,8.67396,0.144053,0.0787138,-0.0038489,0,0,3.535,-0.595,-1.2075,0.134932,0.087718,-1.01602,-0.04382,0.10458,0.46858
-0.052682,0,0,15.0527,15.0527,14.9473,14.9473,0.175607,1.74388,8.67228,-0.0653757,0.00409555,0.187582,1,0,3.6225,-0.3325,-1.3825,-0.075396,0.013176,-0.826062,-0.04382,0.10458,0.46858
-0.0528776,0,0,15.0529,15.0529,14.9471,14.9471,0.176259,1.74398,8.67021,-0.0653774,0.00410692,0.187582,1,0,3.955,0.1575,-1.61,-0.075396,0.013176,-0.826062,-0.04382,0.10458,0.46858
-0.0546139,0,0,15.0546,15.0546,14.9454,14.9454,0.182046,1.87927,8.56835,0.141096,-0.00580674,-0.057775,0,0,3.4125,0.14,-1.6975,0.134322,0.003172,-1.06945,-0.04382,0.10458,0.46858
-0.0563047,0,0,15.0563,15.0563,14.9437,14.9437,0.187682,2.01196,8.4738,0.138782,-0.00570868,-0.0578539,0,0,3.4125,0.14,-1.6975,0.134322,0.003172,-1.06945,-0.04228,0.1001,0.46046
-0.0694354,0,0,15.0694,15.0694,14.9306,14.9306,0.231451,1.88421,8.62072,-0.127838,-0.0476893,-0.0200358,0,0,2.835,0.385,-0.8225,-0.135664,-0.039528,-1.032,-0.04228,0.1001,0.46046
-0.0823444,0,0,15.0823,15.0823,14.9177,14.9177,0.274481,1.7587,8.7672,-0.125648,-0.0469384,-0.0199694,0,0,2.835,0.385,-0.8225,-0.135664,-0.039528,-1.032,-0.04228,0.1001,0.46046
-0.084024,0,0,15.084,15.084,14.916,14.916,0.28008,1.65597,8.89712,-0.0923913,-0.00763775,0.101188,0,0,2.1875,0.1225,-0.5075,-0.104066,-0.000366,-0.911828,-0.04228,0.1001,0.46046
-0.0856768,0,0,15.0857,15.0857,14.9143,14.9143,0.285589,1.55507,9.02684,-0.090631,-0.00754139,0.101237,0,0,2.1875,0.1225,-0.5075,-0.104066,-0.000366,-0.911828,-0.04228,0.1001,0.46046
-0.145677,0,0,15.1457,15.1457,14.8543,14.8543,0.48559,1.67567,8.935,0.101764,-0.194204,0.0623021,0,0,3.01,0.0525,0.28,0.091256,-0.19032,-0.95038,-0.04228,0.1001,0.46046
-0.204669,0,0,15.2047,15.2047,14.7953,14.7953,0.68223,1.79395,8.84393,0.0997003,-0.190774,0.0622046,0,0,3.01,0.0525,0.28,0.091256,-0.19032,-0.95038,-0.04228,0.1001,0.46046
-0.204879,0,0,15.2049,15.2049,14.7951,14.7951,0.68293,1.79429,8.84543,0.0438109,0.226789,-0.112383,1,0,3.92,0.315,0.4725,0.035136,0.226798,-1.12362,-0.04228,0.1001,0.46046
-0.205089,0,0,15.2051,15.2051,14.7949,14.7949,0.68363,1.79464,8.84693,0.0438048,0.226801,-0.112383,1,0,3.92,0.315,0.4725,0.035136,0.226798,-1.12362,-0.0427,0.10164,0.47054
-0.261226,0,0,15.2612,15.2612,14.7388,14.7388,0.870753,1.71308,8.93774,-0.0887711,-0.198599,-0.0239836,0,0,3.5175,0.28,0.42,-0.09943,-0.201422,-1.0359,-0.0427,0.10164,0.47054
-0.316423,0,0,15.3164,15.3164,14.6836,14.6836,1.05474,1.63281,9.0278,-0.0873707,-0.195389,-0.0239967,0,0,3.5175,0.28,0.42,-0.09943,-0.201422,-1.0359,-0.0427,0.10164,0.47054
-0.330128,0,0,15.3301,15.3301,14.6699,14.6699,1.10043,1.76159,8.93609,0.111684,-0.0394921,0.0755101,0,0,4.165,-0.4025,0.0875,0.102724,-0.046482,-0.937082,-0.0427,0.10164,0.47054
-0.330105,0,0,15.3301,15.3301,14.6699,14.6699,1.10035,1.76122,8.93674,-0.171371,0.09106,0.115591,1,0,3.5,-0.105,-0.0175,-0.181536,0.083936,-0.89731,-0.0427,0.10164,0.47054
-0.329711,0,0,15.3297,15.3297,14.6703,14.6703,1.09904,1.76089,8.93679,-0.171365,0.0910372,0.115592,1,0,2.8175,-0.0875,-0.3675,-0.181536,0.083936,-0.89731,-0.0427,0.10164,0.47054
-0.325405,0,0,15.3254,15.3254,14.6746,14.6746,1.08468,1.85447,8.87965,0.0918412,0.0149451,-0.00482121,0,0,3.29,-0.455,-0.455,0.084424,0.008174,-1.01675,-0.0427,0.10164,0.47054
-0.321247,0,0,15.3212,15.3212,14.6788,14.6788,1.07082,1.94579,8.82214,0.0902484,0.0147024,-0.00486949,0,0,3.4475,-0.805,-0.6825,0.084424,0.008174,-1.01675,-0.0427,0.10164,0.47054
-0.321479,0,0,15.3215,15.3215,14.6785,14.6785,1.0716,1.94443,8.8211,-0.0811443,-0.0501334,0.212627,1,0,4.0075,-0.7,-0.9975,-0.087718,-0.056608,-0.80093,-0.0427,0.10164,0.47054
-0.321642,0,0,15.3216,15.3216,14.6784,14.6784,1.07214,1.94393,8.81977,-0.0811354,-0.0501239,0.212627,1,0,3.885,-0.21,-1.1725,-0.087718,-0.056608,-0.80093,-0.04284,0.10836,0.4683
-0.321767,0,0,15.3218,15.3218,14.6782,14.6782,1.07256,1.94357,8.81838,-0.0791854,-0.219506,-0.0968342,1,0,3.815,-0.1225,-1.2075,-0.085766,-0.225822,-1.108,-0.04284,0.10836,0.4683
-0.321707,0,0,15.3217,15.3217,14.6783,14.6783,1.07236,1.94347,8.81714,-0.0791838,-0.21951,-0.0968341,1,0,3.465,0.035,-1.12,-0.085766,-0.225822,-1.108,-0.04284,0.10836,0.4683
-0.321397,0,0,15.3214,15.3214,14.6786,14.6786,1.07132,1.94406,8.81619,0.0897925,0.147463,-0.108022,1,0,2.9925,0.4375,-0.9625,0.083936,0.140788,-1.11911,-0.04284,0.10836,0.4683
-0.321315,0,0,15.3213,15.3213,14.6787,14.6787,1.07105,1.94366,8.81558,0.0897995,0.147458,-0.108022,1,0,3.4125,-0.14,-0.7525,0.083936,0.140788,-1.11911,-0.04284,0.10836,0.4683
-0.281336,0,0,15.2813,15.2813,14.7187,14.7187,0.937787,2.1212,8.67889,0.181583,0.141468,-0.0151422,0,0,3.1325,-0.07,-0.665,0.179218,0.137128,-1.02687,-0.04284,0.10836,0.4683
-0.242298,0,0,15.2423,15.2423,14.7577,14.7577,0.807659,2.29616,8.54214,0.178532,0.139197,-0.0152253,0,0,3.675,0.2275,-0.385,0.179218,0.137128,-1.02687,-0.04284,0.10836,0.4683
-0.24262,0,0,15.2426,15.2426,14.7574,14.7574,0.808734,2.29748,8.54255,-0.0373712,-0.0393332,0.223785,1,0,4.1475,0.875,-0.175,-0.037576,-0.041236,-0.789706,-0.04284,0.10836,0.4683
-0.242668,0,0,15.2427,15.2427,14.7573,14.7573,0.808894,2.29839,8.54349,-0.0373872,-0.0393304,0.223785,1,0,3.6225,0.6475,0.14,-0.037576,-0.041236,-0.789706,-0.04368,0.09954,0.46886
-0.242595,0,0,15.2426,15.2426,14.7574,14.7574,0.808649,2.29904,8.54446,0.123206,0.0479859,-0.102644,1,0,3.395,0.49,0.1575,0.123708,0.045994,-1.11362,-0.04368,0.09954,0.46886
-0.242583,0,0,15.2426,15.2426,14.7574,14.7574,0.808611,2.29933,8.54515,0.1232,0.0479853,-0.102644,1,0,3.5175,0.28,0,0.123708,0.045994,-1.11362,-0.04368,0.09954,0.46886
-0.222368,0,0,15.2224,15.2224,14.7776,14.7776,0.741226,2.5083,8.37969,0.209334,0.0719663,0.001848,0,0,3.5875,-0.175,-0.28,0.213866,0.071126,-1.00979,-0.04368,0.09954,0.46886
-0.202858,0,0,15.2029,15.2029,14.7971,14.7971,0.676194,2.71299,8.21438,0.205766,0.0708306,0.00169932,0,0,4.305,-0.56,-0.0175,0.213866,0.071126,-1.00979,-0.04368,0.09954,0.46886
-0.203005,0,0,15.203,15.203,14.797,14.797,0.676684,2.71245,8.21491,-0.332771,0.121277,-0.087438,1,0,3.815,-0.21,-0.0875,-0.32696,0.121512,-1.09824,-0.04368,0.09954,0.46886
-0.203084,0,0,15.2031,15.2031,14.7969,14.7969,0.676948,2.71269,8.21527,-0.332775,0.121282,-0.0874382,1,0,3.6925,0.245,-0.1925,-0.32696,0.121512,-1.09824,-0.04368,0.09954,0.46886
-0.195595,0,0,15.1956,15.1956,14.8044,14.8044,0.651983,3.04187,7.92734,0.304875,0.0281494,0.0926439,0,0,3.885,-0.0875,-0.2975,0.319152,0.028914,-0.91927,-0.04368,0.09954,0.46886
-0.187808,0,0,15.1878,15.1878,14.8122,14.8122,0.626027,3.36718,7.63126,0.299206,0.0276936,0.0923315,0,0,3.0275,-0.2625,-0.21,0.319152,0.028914,-0.91927,-0.04732,0.10528,0.46998
-0.150769,0,0,15.1508,15.1508,14.8492,14.8492,0.502565,3.21308,7.78242,-0.148699,0.125688,-0.00449928,0,0,3.5875,0.105,-0.35,-0.133346,0.128954,-1.01553,-0.04732,0.10528,0.46998
-0.114356,0,0,15.1144,15.1144,14.8856,14.8856,0.381187,3.06168,7.93414,-0.146061,0.123574,-0.00433836,0,0,3.5875,0.105,-0.35,-0.133346,0.128954,-1.01553,-0.04732,0.10528,0.46998
-0.171659,0,0,15.1717,15.1717,14.8283,14.8283,0.572196,3.13444,7.85675,0.0584681,-0.179514,0.0920799,0,0,3.6225,-0.2625,-0.595,0.073322,-0.177144,-0.919758,-0.04732,0.10528,0.46998
-0.228012,0,0,15.228,15.228,14.772,14.772,0.760041,3.20582,7.77981,0.0572241,-0.176242,0.0919729,0,0,3.6225,-0.2625,-0.595,0.073322,-0.177144,-0.919758,-0.04732,0.10528,0.46998
-0.150261,0,0,15.1503,15.1503,14.8497,14.8497,0.500869,3.39723,7.62683,0.175861,0.266347,0.0612161,0,0,4.0425,4.0775,-0.8925,0.19581,0.269498,-0.950136,-0.04732,0.10528,0.46998
-0.0737144,0,0,15.0737,15.0737,14.9263,14.9263,0.245715,3.58543,7.47265,0.172582,0.2619,0.061045,0,0,4.0425,4.0775,-0.8925,0.19581,0.269498,-0.950136,-0.04732,0.10528,0.46998
-0.073764,0,0,15.0738,15.0738,14.9262,14.9262,0.24588,3.58415,7.47235,-0.291471,-0.141726,-0.279398,1,0,3.6575,-0.6475,-0.5775,-0.27023,-0.133712,-1.28795,-0.04732,0.10528,0.46998
-0.0551952,0,0,15.0552,15.0552,14.9448,14.9448,0.183984,3.72706,7.34033,0.133548,0.0622466,0.0401131,0,0,3.3425,0.035,-0.63,0.159088,0.071126,-0.970754,-0.0455,0.10388,0.47166
-0.0373818,0,0,15.0374,15.0374,14.9626,14.9626,0.124606,3.86793,7.20817,0.131095,0.0612121,0.0399531,0,0,4.2,0.315,-0.63,0.159088,0.071126,-0.970754,-0.0455,0.10388,0.47166
-0.0289182,0,0,15.0289,15.0289,14.9711,14.9711,0.0963939,3.93048,7.14625,0.0631884,0.0297005,-0.0219633,0,0,3.465,0.5775,-0.455,0.091988,0.040138,-1.03212,-0.0455,0.10388,0.47166
-0.0205932,0,0,15.0206,15.0206,14.9794,14.9794,0.068644,3.99192,7.08435,0.0621186,0.0292172,-0.0220367,0,0,3.465,0.5775,-0.455,0.091988,0.040138,-1.03212,-0.0455,0.10388,0.47166
0.0074447,0,0,14.9926,14.9926,15.0074,15.0074,-0.0248157,3.80324,7.25995,-0.175138,0.0858444,0.0869972,0,0,3.3075,0.1575,-0.6825,-0.149572,0.098332,-0.92415,-0.0455,0.10388,0.47166
-0.0814726,0,0,15.0815,15.0815,14.9185,14.9185,0.271575,3.78489,7.25561,-0.0181015,-0.323614,-0.0199579,0,0,3.5525,-0.14,-0.63,0.007808,-0.315858,-1.03029,-0.0455,0.10388,0.47166
-0.169317,0,0,15.1693,15.1693,14.8307,14.8307,0.564391,3.76623,7.2515,-0.0177765,-0.318515,-0.0199737,0,0,4.2175,-0.4375,-0.3325,0.007808,-0.315858,-1.03029,-0.0455,0.10388,0.47166
-0.14481,0,0,15.1448,15.1448,14.8552,14.8552,0.4827,3.81464,7.20605,0.0472256,0.0836911,0.00322072,0,0,3.43,-0.105,-0.4025,0.073932,0.087352,-1.00723,-0.0455,0.10388,0.47166
-0.120815,0,0,15.1208,15.1208,14.8792,14.8792,0.402717,3.86274,7.15518,0.0463879,0.0822978,0.00317527,0,0,3.5875,-0.035,-0.35,0.073932,0.087352,-1.00723,-0.04494,0.10766,0.47096
-0.0756503,0,0,15.0757,15.0757,14.9243,14.9243,0.252168,3.69601,7.3099,-0.158084,0.14587,0.0625203,0,0,4.06,-0.105,-0.245,-0.134322,0.153476,-0.94855,-0.04494,0.10766,0.47096
-0.0310678,0,0,15.0311,15.0311,14.9689,14.9689,0.103559,3.5321,7.46544,-0.155229,0.143282,0.0627087,0,0,3.7275,-0.1225,-0.245,-0.134322,0.153476,-0.94855,-0.04494,0.10766,0.47096
-0.0476878,0,0,15.0477,15.0477,14.9523,14.9523,0.158959,3.77866,7.22553,0.217932,-0.0514009,0.104112,0,0,3.7625,0.4375,-0.2275,0.244732,-0.041968,-0.907192,-0.04494,0.10766,0.47096
-0.0638577,0,0,15.0639,15.0639,14.9361,14.9361,0.212859,4.02162,6.98625,0.213702,-0.0504633,0.10382,0,0,3.4475,0.8225,-0.1575,0.244732,-0.041968,-0.907192,-0.04494,0.10766,0.47096
-0.0639507,0,0,15.064,15.064,14.936,14.936,0.213169,4.02261,6.98671,-0.136073,0.165951,0.197875,1,0,3.71,0.6825,-0.14,-0.106506,0.174216,-0.813862,-0.04494,0.10766,0.47096
-0.0642858,0,0,15.0643,15.0643,14.9357,14.9357,0.214286,4.02144,6.98754,-0.136053,0.16597,0.197876,1,0,4.1475,-0.5775,0.0875,-0.106506,0.174216,-0.813862,-0.04494,0.10766,0.47096
-0.064335,0,0,15.0643,15.0643,14.9357,14.9357,0.21445,4.02127,6.98814,0.0780082,0.139716,0.147221,1,0,3.6225,0,-0.0525,0.108458,0.147986,-0.864126,-0.04494,0.10766,0.47096
-0.0640543,0,0,15.0641,15.0641,14.9359,14.9359,0.213514,4.01981,6.98819,0.0780336,0.139699,0.147223,1,0,3.0275,-0.7525,-0.3675,0.108458,0.147986,-0.864126,-0.05208,0.10738,0.46858
-0.0637756,0,0,15.0638,15.0638,14.9362,14.9362,0.212585,4.01826,6.98834,-0.0977292,-0.172473,-0.126704,1,0,3.0275,-0.805,-0.315,-0.068076,-0.163846,-1.13594,-0.05208,0.10738,0.46858
-0.0638176,0,0,15.0638,15.0638,14.9362,14.9362,0.212725,4.01745,6.98815,-0.0977152,-0.17247,-0.126703,1,0,3.64,-0.3675,-0.5075,-0.068076,-0.163846,-1.13594,-0.05208,0.10738,0.46858
-0.0642642,0,0,15.0643,15.0643,14.9357,14.9357,0.214214,4.01713,6.98761,0.0123564,-0.0512946,-0.117605,1,0,4.41,-0.0875,-0.7175,0.042456,-0.042822,-1.12691,-0.05208,0.10738,0.46858
-0.0642038,0,0,15.0642,15.0642,14.9358,14.9358,0.214013,4.01738,6.98656,0.0123521,-0.0512981,-0.117605,1,0,3.4825,0.245,-1.015,0.042456,-0.042822,-1.12691,-0.05208,0.10738,0.46858
-0.0848934,0,0,15.0849,15.0849,14.9151,14.9151,0.282978,3.79777,7.17413,-0.209909,-0.0714683,0.0317876,0,0,3.3075,0.735,-0.945,-0.184586,-0.064172,-0.978928,-0.05208,0.10738,0.46858
-0.105406,0,0,15.1054,15.1054,14.8946,14.8946,0.351354,3.58234,7.3606,-0.206157,-0.070276,0.0320229,0,0,3.64,0.91,-1.0675,-0.184586,-0.064172,-0.978928,-0.05208,0.10738,0.46858
-0.125869,0,0,15.1259,15.1259,14.8741,14.8741,0.419562,3.52572,7.40196,-0.0556214,-0.067622,0.0371171,0,0,3.4825,0.595,-1.155,-0.034404,-0.062708,-0.973926,-0.05208,0.10738,0.46858
-0.145996,0,0,15.146,15.146,14.854,14.854,0.486653,3.46947,7.44919,-0.0546415,-0.0664527,0.0371677,0,0,3.43,-0.3325,-1.0675,-0.034404,-0.062708,-0.973926,-0.04494,0.10318,0.4746
-0.145782,0,0,15.1458,15.1458,14.8542,14.8542,0.485942,3.46877,7.44832,0.000525288,0.301625,0.190362,1,0,3.185,-0.315,-0.91,0.020984,0.305,-0.821914,-0.04494,0.10318,0.4746
-0.145444,0,0,15.1454,15.1454,14.8546,14.8546,0.484813,3.46818,7.44777,0.000535546,0.301605,0.190363,1,0,2.94,-0.245,-0.7175,0.020984,0.305,-0.821914,-0.04494,0.10318,0.4746
-0.115657,0,0,15.1157,15.1157,14.8843,14.8843,0.385523,3.377,7.53901,-0.0860746,0.0984891,0.0326055,0,0,3.85,-0.5075,-0.665,-0.067588,0.103822,-0.978562,-0.04494,0.10318,0.4746
-0.0865177,0,0,15.0865,15.0865,14.9135,14.9135,0.288392,3.28716,7.63124,-0.0845092,0.0967973,0.0327066,0,0,4.095,-0.665,-0.2625,-0.067588,0.103822,-0.978562,-0.04494,0.10318,0.4746
-0.0804883,0,0,15.0805,15.0805,14.9195,14.9195,0.268294,3.28444,7.64016,-0.00391679,0.0204843,0.0309897,0,0,3.78,-0.0175,0.0525,0.013298,0.027938,-0.98027,-0.04494,0.10318,0.4746
-0.0742237,0,0,15.0742,15.0742,14.9258,14.9258,0.247412,3.28264,7.64965,-0.00388537,0.0201205,0.0309932,0,0,3.1325,0.49,0.3675,0.013298,0.027938,-0.98027,-0.04494,0.10318,0.4746
-0.0740432,0,0,15.074,15.074,14.926,14.926,0.246811,3.28335,7.65118,-0.197303,0.189133,-0.224372,1,0,3.1675,0.525,0.49,-0.180926,0.196786,-1.23366,-0.04494,0.10318,0.4746
-0.0742289,0,0,15.0742,15.0742,14.9258,14.9258,0.24743,3.28332,7.65277,-0.197302,0.189144,-0.224372,1,0,3.85,0.0875,0.525,-0.180926,0.196786,-1.23366,-0.04494,0.10318,0.4746
-0.107999,0,0,15.108,15.108,14.892,14.892,0.359997,3.32664,7.61097,0.0381109,-0.11128,0.0342581,0,0,3.85,0.105,0.6475,0.056242,-0.105286,-0.976976,-0.0427,0.1036,0.46844
-0.140646,0,0,15.1406,15.1406,14.8594,14.8594,0.468819,3.36835,7.56888,0.0373841,-0.109385,0.0342019,0,0,2.8175,-0.3675,0.42,0.056242,-0.105286,-0.976976,-0.0427,0.1036,0.46844
-0.203067,0,0,15.2031,15.2031,14.7969,14.7969,0.67689,3.62691,7.31684,0.258965,-0.222028,0.0329068,0,0,2.94,0,-0.07,0.283284,-0.22143,-0.977952,-0.0427,0.1036,0.46844
-0.264505,0,0,15.2645,15.2645,14.7355,14.7355,0.881682,3.88101,7.06661,0.254539,-0.218465,0.0325679,0,0,2.94,0,-0.07,0.283284,-0.22143,-0.977952,-0.0427,0.1036,0.46844
-0.264541,0,0,15.2645,15.2645,14.7355,14.7355,0.881804,3.88042,7.06615,-0.0272972,0.106394,-0.236566,1,0,3.64,-0.245,-0.665,0.000244,0.10309,-1.24501,-0.0427,0.1036,0.46844
-0.264578,0,0,15.2646,15.2646,14.7354,14.7354,0.881926,3.87983,7.06569,-0.027287,0.106396,-0.236565,1,0,3.64,-0.245,-0.665,0.000244,0.10309,-1.24501,-0.0427,0.1036,0.46844
-0.277906,0,0,15.2779,15.2779,14.7221,14.7221,0.926354,4.04407,6.90287,0.165445,-0.0469575,-0.0111648,0,0,3.3425,0.3675,-1.3825,0.196664,-0.050874,-1.02114,-0.0427,0.1036,0.46844
-0.291005,0,0,15.291,15.291,14.709,14.709,0.970015,4.20541,6.74037,0.162637,-0.0462009,-0.0113799,0,0,3.3425,0.3675,-1.3825,0.196664,-0.050874,-1.02114,-0.0427,0.1036,0.46844
-0.28822,0,0,15.2882,15.2882,14.7118,14.7118,0.960734,3.98563,6.93253,-0.201031,0.00884344,0.0942636,0,0,3.9375,0.6125,-1.82,-0.172386,0.00427,-0.916586,-0.04522,0.10318,0.46984
-0.288005,0,0,15.288,15.288,14.712,14.712,0.960015,3.98651,6.93032,-0.0126224,0.0389962,0.136434,1,0,3.2375,0.595,-1.6975,0.016836,0.034404,-0.87474,-0.04522,0.10318,0.46984
-0.287742,0,0,15.2877,15.2877,14.7123,14.7123,0.959138,3.9871,6.92762,-0.0126326,0.0389809,0.136434,1,0,3.1675,0.42,-1.9775,0.016836,0.034404,-0.87474,-0.04522,0.10318,0.46984
-0.281394,0,0,15.2814,15.2814,14.7186,14.7186,0.937981,4.24909,6.67659,0.232217,0.0212652,0.0997187,0,0,2.2925,0.3675,-1.54,0.267302,0.01708,-0.910852,-0.04522,0.10318,0.46984
-0.275677,0,0,15.2757,15.2757,14.7243,14.7243,0.918922,4.50581,6.42675,0.227749,0.0209281,0.0993821,0,0,3.29,-0.0525,-0.84,0.267302,0.01708,-0.910852,-0.04522,0.10318,0.46984
-0.275577,0,0,15.2756,15.2756,14.7244,14.7244,0.91859,4.50525,6.42653,-0.247615,0.150377,-0.131514,1,0,3.3775,-0.2275,-0.525,-0.210084,0.1464,-1.13997,-0.04522,0.10318,0.46984
-0.275548,0,0,15.2755,15.2755,14.7245,14.7245,0.918492,4.50504,6.42731,-0.247611,0.150375,-0.131514,1,0,3.465,-0.0175,0.0525,-0.210084,0.1464,-1.13997,-0.04522,0.10318,0.46984
-0.275297,0,0,15.2753,15.2753,14.7247,14.7247,0.917656,4.50478,6.42863,0.117337,-0.0702005,-0.0952436,1,0,3.0275,-0.035,0.3675,0.156404,-0.073932,-1.10398,-0.04522,0.10318,0.46984
-0.27509,0,0,15.2751,15.2751,14.7249,14.7249,0.916966,4.50475,6.431,0.117337,-0.0702125,-0.0952434,1,0,3.0625,0.105,0.98,0.156404,-0.073932,-1.10398,-0.04704,0.09996,0.47656
-0.231983,0,0,15.232,15.232,14.768,14.768,0.773277,4.69729,6.24842,0.205831,0.161401,-0.0402722,0,0,3.6225,-0.3675,1.26,0.248636,0.159942,-1.0492,-0.04704,0.09996,0.47656
-0.189487,0,0,15.1895,15.1895,14.8105,14.8105,0.631622,4.88648,6.06562,0.20254,0.158934,-0.0405178,0,0,3.5,-0.3675,1.4875,0.248636,0.159942,-1.0492,-0.04704,0.09996,0.47656
-0.181845,0,0,15.1818,15.1818,14.8182,14.8182,0.606148,4.70702,6.22066,-0.169486,0.0230554,0.0545422,0,0,2.87,-0.035,1.5225,-0.1281,0.024644,-0.955138,-0.04704,0.09996,0.47656
-0.174492,0,0,15.1745,15.1745,14.8255,14.8255,0.581641,4.53099,6.37468,-0.166424,0.0226316,0.054794,0,0,3.22,0.1225,0.9625,-0.1281,0.024644,-0.955138,-0.04704,0.09996,0.47656
-0.231232,0,0,15.2312,15.2312,14.7688,14.7688,0.770774,4.55419,6.33858,0.0207461,-0.194029,0.0248466,0,0,3.2725,0.56,0.8575,0.060268,-0.195078,-0.984784,-0.04704,0.09996,0.47656
-0.287142,0,0,15.2871,15.2871,14.7129,14.7129,0.95714,4.57692,6.30162,0.0203506,-0.190787,0.0247662,0,0,3.5,0.5425,0.3325,0.060268,-0.195078,-0.984784,-0.04704,0.09996,0.47656
-0.287065,0,0,15.2871,15.2871,14.7129,14.7129,0.956884,4.57677,6.30198,0.11171,-0.0628027,-0.0837971,1,0,3.395,0.0175,-0.1925,0.152012,-0.067222,-1.09251,-0.04704,0.09996,0.47656
-0.286632,0,0,15.2866,15.2866,14.7134,14.7134,0.95544,4.57645,6.30035,0.111716,-0.0628278,-0.0837962,1,0,2.8175,-0.105,-1.3475,0.152012,-0.067222,-1.09251,-0.04578,0.1029,0.46942
-0.258262,0,0,15.2583,15.2583,14.7417,14.7417,0.860875,4.46458,6.38965,-0.10817,0.0935615,0.0276521,0,0,3.3075,-0.1225,-1.5925,-0.07076,0.090646,-0.9821,-0.04578,0.1029,0.46942
-0.230985,0,0,15.231,15.231,14.769,14.769,0.769952,4.35499,6.4786,-0.106263,0.0919815,0.0278217,0,0,4.48,0.07,-1.995,-0.07076,0.090646,-0.9821,-0.04578,0.1029,0.46942
-0.164486,0,0,15.1645,15.1645,14.8355,14.8355,0.548286,4.31968,6.50631,-0.0371309,0.232478,0.00307708,0,0,3.745,0.315,-2.1175,-0.001952,0.23485,-1.00674,-0.04578,0.1029,0.46942
-0.0987317,0,0,15.0987,15.0987,14.9013,14.9013,0.329106,4.28477,6.53374,-0.0365233,0.228664,0.003152,0,0,3.1325,0.245,-2.59,-0.001952,0.23485,-1.00674,-0.04578,0.1029,0.46942
-0.0761111,0,0,15.0761,15.0761,14.9239,14.9239,0.253704,4.13477,6.66423,-0.154062,0.0805564,-0.0813607,0,0,2.7125,0.28,-2.5025,-0.12261,0.088206,-1.0908,-0.04578,0.1029,0.46942
-0.0541921,0,0,15.0542,15.0542,14.9458,14.9458,0.18064,3.98758,6.79623,-0.151499,0.0792851,-0.0811739,0,0,3.255,0.4025,-1.785,-0.12261,0.088206,-1.0908,-0.04578,0.1029,0.46942
-0.0543521,0,0,15.0544,15.0544,14.9456,14.9456,0.181174,3.98839,6.79452,-0.147747,-0.050282,0.162386,1,0,3.92,0.5775,-1.4,-0.118828,-0.041236,-0.84912,-0.04578,0.1029,0.46942
-0.0541721,0,0,15.0542,15.0542,14.9458,14.9458,0.180574,3.98929,6.79446,-0.147763,-0.0502925,0.162385,1,0,3.22,0.63,-0.4375,-0.118828,-0.041236,-0.84912,-0.0427,0.10094,0.47474
-0.0539634,0,0,15.054,15.054,14.946,14.946,0.179878,3.98948,6.79482,0.207094,0.143633,0.188696,1,0,3.15,0.21,-0.1925,0.237534,0.1525,-0.823012,-0.0427,0.10094,0.47474
-0.053688,0,0,15.0537,15.0537,14.9463,14.9463,0.17896,3.98912,6.79647,0.2071,0.143617,0.188696,1,0,2.975,-0.105,0.56,0.237534,0.1525,-0.823012,-0.0427,0.10094,0.47474
-0.0537654,0,0,15.0538,15.0538,14.9462,14.9462,0.179218,3.98941,6.79888,-0.0500905,0.146064,-0.125069,1,0,3.605,0.28,0.9975,-0.02074,0.15494,-1.13436,-0.0427,0.10094,0.47474
-0.0542349,0,0,15.0542,15.0542,14.9458,14.9458,0.180783,3.98827,6.80257,-0.0500706,0.146091,-0.125067,1,0,4.2875,-0.56,1.75,-0.02074,0.15494,-1.13436,-0.0427,0.10094,0.47474
-0.054363,0,0,15.0544,15.0544,14.9456,14.9456,0.18121,3.98704,6.8065,0.189035,0.110071,-0.0825257,1,0,3.64,-0.6125,1.89,0.219356,0.11895,-1.09214,-0.0427,0.10094,0.47474
-0.0544816,0,0,15.0545,15.0545,14.9455,14.9455,0.181605,3.9864,6.80998,0.189046,0.110078,-0.082525,1,0,3.64,-0.2625,1.6275,0.219356,0.11895,-1.09214,-0.0427,0.10094,0.47474
-0.0506927,0,0,15.0507,15.0507,14.9493,14.9493,0.168976,3.97546,6.82251,-0.0117012,0.0133779,0.00146279,0,0,3.6575,0.6125,1.715,0.017568,0.02257,-1.00882,-0.0427,0.10094,0.47474
-0.04714,0,0,15.0471,15.0471,14.9529,14.9529,0.157133,3.964,6.83047,-0.0115016,0.0131718,0.00147723,0,0,4.0075,0.1575,1.2425,0.017568,0.02257,-1.00882,-0.04228,0.1036,0.47278
-0.0474818,0,0,15.0475,15.0475,14.9525,14.9525,0.158273,3.96403,6.83254,0.094069,0.0354187,-0.174585,1,0,4.1125,0.1225,0.805,0.123586,0.044774,-1.18352,-0.04228,0.1036,0.47278
-0.0472082,0,0,15.0472,15.0472,14.9528,14.9528,0.157361,3.96493,6.83248,0.0940533,0.0354028,-0.174586,1,0,3.045,0.63,-0.4375,0.123586,0.044774,-1.18352,-0.04228,0.1036,0.47278
-0.0214992,0,0,15.0215,15.0215,14.9785,14.9785,0.0716641,4.15866,6.64577,0.179851,0.0866691,0.0703366,0,0,3.885,0.0175,-1.155,0.213134,0.097478,-0.940254,-0.04228,0.1036,0.47278
0.00358625,0,0,14.9964,14.9964,15.0036,15.0036,-0.0119542,4.34875,6.45759,0.176542,0.0852136,0.0700913,0,0,4.3575,-0.175,-1.785,0.213134,0.097478,-0.940254,-0.04228,0.1036,0.47278
0.0030896,0,0,14.9969,14.9969,15.0031,15.0031,-0.0102987,4.3487,6.45476,-0.270159,0.0608171,0.202507,1,0,4.6025,0.07,-2.0475,-0.23546,0.073078,-0.80886,-0.04228,0.1036,0.47278
0.00300765,0,0,14.997,14.997,15.003,15.003,-0.0100255,4.34793,6.45058,-0.270146,0.0608218,0.202508,1,0,3.885,-0.35,-2.835,-0.23546,0.073078,-0.80886,-0.04228,0.1036,0.47278
0.00327284,0,0,14.9967,14.9967,15.0033,15.0033,-0.0109095,4.34703,6.44637,0.107204,-0.0894095,-0.125149,1,0,3.2375,-0.42,-2.8525,0.143472,-0.076982,-1.13399,-0.04228,0.1036,0.47278
0.00328908,0,0,14.9967,14.9967,15.0033,15.0033,-0.0109636,4.34647,6.4424,0.107214,-0.0894104,-0.125148,1,0,3.6925,-0.2275,-2.7125,0.143472,-0.076982,-1.13399,-0.04228,0.1036,0.47278
-0.0108558,0,0,15.0109,15.0109,14.9891,14.9891,0.0361861,4.45134,6.34163,0.0853438,-0.0432809,0.108805,0,0,3.8325,-0.0875,-2.6775,0.123342,-0.03172,-0.901702,-0.0441,0.09268,0.47208
-0.0405282,0,0,15.0405,15.0405,14.9595,14.9595,0.135094,4.28166,6.5003,-0.170225,-0.102745,0.0110384,0,0,3.6925,0.875,-1.995,-0.136274,-0.092842,-0.998936,-0.0441,0.09268,0.47208
-0.0693026,0,0,15.0693,15.0693,14.9307,14.9307,0.231009,4.11371,6.66027,-0.167301,-0.101075,0.0112477,0,0,2.8525,0.1925,-0.735,-0.136274,-0.092842,-0.998936,-0.0441,0.09268,0.47208
-0.0615508,0,0,15.0616,15.0616,14.9384,14.9384,0.205169,4.28383,6.50801,0.165645,0.0262194,0.0289825,0,0,2.87,0.21,-0.28,0.201056,0.03477,-0.981124,-0.0441,0.09268,0.47208
-0.0544357,0,0,15.0544,15.0544,14.9456,14.9456,0.181452,4.45084,6.35726,0.162739,0.0258059,0.0287619,0,0,3.78,0.105,0.6125,0.201056,0.03477,-0.981124,-0.0441,0.09268,0.47208
-0.053379,0,0,15.0534,15.0534,14.9466,14.9466,0.17793,4.38581,6.42287,-0.0627003,0.00510544,-0.0509441,0,0,4.3925,-0.2975,1.155,-0.026474,0.014152,-1.0603,-0.0441,0.09268,0.47208
-0.0522465,0,0,15.0522,15.0522,14.9478,14.9478,0.174155,4.32233,6.48966,-0.0615956,0.00504001,-0.0508597,0,0,4.165,-0.0525,1.8725,-0.026474,0.014152,-1.0603,-0.0441,0.09268,0.47208
-0.00267551,0,0,15.0027,15.0027,14.9973,14.9973,0.00891835,4.37585,6.43523,0.0609025,0.186942,-0.0600242,0,0,4.165,-0.245,2.0475,0.097478,0.198738,-1.06933,-0.0392,0.10598,0.47194
-0.00282553,0,0,15.0028,15.0028,14.9972,14.9972,0.00941843,4.37528,6.43896,0.231721,-0.0128486,-0.206086,1,0,3.675,-0.2275,1.7675,0.26901,-0.000854,-1.21427,-0.0392,0.10598,0.47194
-0.00303986,0,0,15.003,15.003,14.997,14.997,0.0101329,4.37481,6.44182,0.231729,-0.0128362,-0.206086,1,0,3.8325,-0.175,1.26,0.26901,-0.000854,-1.21427,-0.0392,0.10598,0.47194
-0.0569006,0,0,15.0569,15.0569,14.9431,14.9431,0.189669,4.2469,6.54157,-0.128922,-0.194123,-0.0235906,0,0,3.6225,0.1925,0.7175,-0.095404,-0.185074,-1.03334,-0.0392,0.10598,0.47194
-0.110081,0,0,15.1101,15.1101,14.8899,14.8899,0.366936,4.12201,6.63837,-0.126748,-0.191036,-0.0234466,0,0,4.095,0.6825,-0.42,-0.095404,-0.185074,-1.03334,-0.0392,0.10598,0.47194
-0.0994877,0,0,15.0995,15.0995,14.9005,14.9005,0.331626,4.24876,6.50671,0.109886,0.0368473,0.090369,0,0,4.7075,-0.14,-0.8225,0.144448,0.043188,-0.920246,-0.0392,0.10598,0.47194
-0.0888314,0,0,15.0888,15.0888,14.9112,14.9112,0.296105,4.37386,6.37405,0.107709,0.0362282,0.0902082,0,0,4.3225,0.175,-1.3825,0.144448,0.043188,-0.920246,-0.0392,0.10598,0.47194
-0.146123,0,0,15.1461,15.1461,14.8539,14.8539,0.487076,4.49869,6.2292,0.119629,-0.193101,0.0547308,0,0,4.025,0.2625,-1.9425,0.1586,-0.189222,-0.95526,-0.0392,0.10598,0.47194
-0.202208,0,0,15.2022,15.2022,14.7978,14.7978,0.674027,4.62335,6.09028,0.11746,-0.189851,0.0545248,0,0,3.36,-0.3675,-2.8,0.1586,-0.189222,-0.95526,-0.04802,0.10136,0.47488
-0.235429,0,0,15.2354,15.2354,14.7646,14.7646,0.784763,4.42253,6.25444,-0.186647,-0.107561,0.0855138,0,0,3.2025,-0.2625,-3.045,-0.150304,-0.108946,-0.92476,-0.04802,0.10136,0.47488
-0.26833,0,0,15.2683,15.2683,14.7317,14.7317,0.894433,4.22587,6.41781,-0.183225,-0.105649,0.0857446,0,0,3.6225,0.1225,-2.87,-0.150304,-0.108946,-0.92476,-0.04802,0.10136,0.47488
-0.283822,0,0,15.2838,15.2838,14.7162,14.7162,0.946072,4.16364,6.46184,-0.0601699,-0.0568754,-0.0332045,0,0,3.4125,0.175,-2.4325,-0.027816,-0.061122,-1.04286,-0.04802,0.10136,0.47488
-0.299058,0,0,15.2991,15.2991,14.7009,14.7009,0.996859,4.10252,6.50566,-0.0591058,-0.0559901,-0.0331427,0,0,3.4125,0.175,-2.4325,-0.027816,-0.061122,-1.04286,-0.04802,0.10136,0.47488
-0.335649,0,0,15.3356,15.3356,14.6644,14.6644,1.11883,4.0015,6.58743,-0.0990168,-0.12824,0.0108353,0,0,2.8,0.35,-0.665,-0.069662,-0.13542,-0.999302,-0.04802,0.10136,0.47488
-0.371634,0,0,15.3716,15.3716,14.6284,14.6284,1.23878,3.90226,6.66858,-0.0972888,-0.126149,0.0109117,0,0,2.8,0.35,-0.665,-0.069662,-0.13542,-0.999302,-0.04802,0.10136,0.47488
-0.368336,0,0,15.3683,15.3683,14.6317,14.6317,1.22779,4.0199,6.55786,0.111319,0.0117816,0.0277409,0,0,2.975,-0.42,0.7175,0.141886,0.002562,-0.982466,-0.04802,0.10136,0.47488
