pid_x,pid_y,pid_z,front_left_speed,front_right_speed,back_left_speed,back_right_speed,orientation_x,orientation_y,orientation_z,acceleration_x,acceleration_y,acceleration_z,accel_rejected,mag_rejected,gyro_x,gyro_y,gyro_z,accel_x,accel_y,accel_z,mag_x,mag_y,mag_z
-0.0248322,0,0,15.0248,15.0248,14.9752,14.9752,0.0177363,0.0613187,0.00982483,0.047325,-0.0147791,0.00362678,0,0,3.6575,0.1225,-0.9275,0.008296,-0.002928,-1.00906,-0.06524,0.11396,0.46592
-0.0474305,0,0,15.0474,15.0474,14.9526,14.9526,0.0338762,0.123179,0.017644,0.0477031,-0.0135204,0.00264132,0,0,3.605,0.2625,-1.155,0.00976,-0.001952,-1.01004,-0.06524,0.11396,0.46592
-0.0714441,0,0,15.0714,15.0714,14.9286,14.9286,0.051026,0.180522,0.028348,0.0443941,-0.0144424,0.000794223,0,0,3.5875,0.1225,-1.0675,0.007442,-0.003172,-1.01187,-0.06524,0.11396,0.46592
-0.0951482,0,0,15.0951,15.0951,14.9049,14.9049,0.0679538,0.236676,0.0391945,0.043414,-0.0141469,0.000790348,0,0,3.6575,0.175,-0.98,0.007442,-0.003172,-1.01187,-0.06524,0.11396,0.46592
-0.112097,0,0,15.1121,15.1121,14.8879,14.8879,0.0800557,0.289311,0.0517221,0.0412805,-0.0102719,-0.00486977,0,0,3.535,0.0525,-0.9625,0.006222,0.000488,-1.01748,-0.06524,0.11396,0.46592
-0.134962,0,0,15.135,15.135,14.865,14.865,0.0963828,0.351958,0.0538933,0.0489341,-0.0137729,0.00360712,0,0,3.5525,-0.1575,-0.9275,0.015006,-0.003294,-1.00906,-0.06524,0.11396,0.46592
-0.157364,0,0,15.1574,15.1574,14.8426,14.8426,0.112378,0.413676,0.0597596,0.0478569,-0.0134937,0.00359941,0,0,3.5525,0.035,-1.0325,0.015006,-0.003294,-1.00906,-0.06664,0.11186,0.46774
-0.178617,0,0,15.1786,15.1786,14.8214,14.8214,0.127552,0.465543,0.0734963,0.040513,-0.0127404,-0.00243257,0,0,3.64,-0.0175,-0.91,0.00854,-0.002806,-1.01504,-0.06664,0.11186,0.46774
-0.194234,0,0,15.1942,15.1942,14.8058,14.8058,0.1387,0.514095,0.0891646,0.0379648,-0.00937058,-0.00121078,0,0,3.57,0.0175,-0.84,0.006832,0.000366,-1.01382,-0.06664,0.11186,0.46774
-0.209059,0,0,15.2091,15.2091,14.7909,14.7909,0.149281,0.561749,0.104896,0.0371332,-0.00918593,-0.00121905,0,0,3.3775,0.1225,-0.7875,0.006832,0.000366,-1.01382,-0.06664,0.11186,0.46774
-0.229034,0,0,15.229,15.229,14.771,14.771,0.16354,0.611638,0.117875,0.0383277,-0.0121124,0.00086148,0,0,3.5175,0.385,-0.9625,0.008906,-0.002806,-1.01175,-0.06664,0.11186,0.46774
-0.24703,0,0,15.247,15.247,14.753,14.753,0.176385,0.665779,0.125735,0.0418778,-0.0107891,0.00121913,0,0,3.5875,0.2975,-0.945,0.01342,-0.001708,-1.01138,-0.06664,0.11186,0.46774
-0.264621,0,0,15.2646,15.2646,14.7354,14.7354,0.18894,0.71842,0.133616,0.0409591,-0.01057,0.00120733,0,0,3.57,0.1225,-0.9275,0.01342,-0.001708,-1.01138,-0.06664,0.11186,0.46774
-0.280953,0,0,15.281,15.281,14.719,14.719,0.200594,0.763761,0.14099,0.0354299,-0.00987818,-0.0023691,0,0,3.5525,-0.035,-1.085,0.008662,-0.00122,-1.01492,-0.07098,0.11578,0.46438
-0.29554,0,0,15.2955,15.2955,14.7045,14.7045,0.211003,0.806027,0.150164,0.0333559,-0.00908594,-0.00717485,0,0,3.4125,-0.0875,-1.05,0.00732,-0.00061,-1.01968,-0.07098,0.11578,0.46438
-0.310037,0,0,15.31,15.31,14.69,14.69,0.221346,0.852359,0.154689,0.0363134,-0.00902761,-5.62221e-05,0,0,3.36,-0.14,-1.05,0.011102,-0.000732,-1.0126,-0.07098,0.11578,0.46438
-0.324416,0,0,15.3244,15.3244,14.6756,14.6756,0.231604,0.897601,0.15915,0.0355239,-0.00884864,-6.89875e-05,0,0,3.43,-0.175,-1.085,0.011102,-0.000732,-1.0126,-0.07098,0.11578,0.46438
-0.341666,0,0,15.3417,15.3417,14.6583,14.6583,0.243913,0.938724,0.166865,0.0320121,-0.0104658,-0.00426163,0,0,3.57,0.14,-1.1725,0.008296,-0.002562,-1.01675,-0.07098,0.11578,0.46438
-0.355187,0,0,15.3552,15.3552,14.6448,14.6448,0.253557,0.982,0.17153,0.0335651,-0.00809927,0.00494612,0,0,3.535,-0.0175,-1.1025,0.010614,-0.000366,-1.0076,-0.07098,0.11578,0.46438
-0.368002,0,0,15.368,15.368,14.632,14.632,0.262696,1.02431,0.17625,0.0328267,-0.00793984,0.00493247,0,0,3.36,-0.0175,-1.0675,0.010614,-0.000366,-1.0076,-0.07098,0.11578,0.46438
-0.385136,0,0,15.3851,15.3851,14.6149,14.6149,0.274921,1.06013,0.186783,0.0277067,-0.0109019,0.00282997,0,0,3.185,0,-1.015,0.0061,-0.003538,-1.00967,-0.07084,0.11564,0.45976
-0.39375,0,0,15.3937,15.3937,14.6063,14.6063,0.281058,1.0968,0.195749,0.0287676,-0.00554339,-0.0048054,0,0,3.3075,0.1225,-0.98,0.007808,0.001708,-1.01724,-0.07084,0.11564,0.45976
-0.408724,0,0,15.4087,15.4087,14.5913,14.5913,0.291738,1.1383,0.199898,0.032174,-0.00926514,-0.000148412,0,0,3.4125,0.175,-0.9625,0.011956,-0.002196,-1.0126,-0.07084,0.11564,0.45976
-0.423402,0,0,15.4234,15.4234,14.5766,14.5766,0.302206,1.17888,0.204043,0.0314659,-0.00908256,-0.00016368,0,0,3.4125,0.175,-0.9625,0.011956,-0.002196,-1.0126,-0.07084,0.11564,0.45976
-0.438108,0,0,15.4381,15.4381,14.5619,14.5619,0.312694,1.21709,0.209404,0.0298273,-0.0087775,-0.00411296,0,0,3.6575,0.175,-1.015,0.01098,-0.002074,-1.0165,-0.07084,0.11564,0.45976
-0.451603,0,0,15.4516,15.4516,14.5484,14.5484,0.322316,1.25102,0.217898,0.026441,-0.00836542,-0.00449549,0,0,3.4475,0.21,-1.015,0.008174,-0.00183,-1.01687,-0.07084,0.11564,0.45976
-0.464658,0,0,15.4647,15.4647,14.5353,14.5353,0.331623,1.28426,0.226524,0.025861,-0.0082031,-0.00450925,0,0,3.3775,0.245,-0.9275,0.008174,-0.00183,-1.01687,-0.07084,0.11564,0.45976
-0.479033,0,0,15.479,15.479,14.521,14.521,0.341872,1.31523,0.236304,0.0244703,-0.00912348,-0.00722742,0,0,3.3425,0.035,-0.8925,0.00732,-0.002928,-1.01955,-0.07084,0.11564,0.45976
-0.493756,0,0,15.4938,15.4938,14.5062,14.5062,0.35237,1.35378,0.24499,0.0298718,-0.00918466,0.00701782,0,0,3.3075,0.035,-0.9275,0.01342,-0.003172,-1.0054,-0.06804,0.1113,0.46648
-0.507147,0,0,15.5071,15.5071,14.4929,14.4929,0.361915,1.38403,0.260142,0.0239987,-0.00828543,-0.00430709,0,0,3.465,-0.035,-1.015,0.008052,-0.00244,-1.01663,-0.06804,0.1113,0.46648
-0.520627,0,0,15.5206,15.5206,14.4794,14.4794,0.371524,1.4134,0.275438,0.0234862,-0.00811786,-0.00432068,0,0,3.605,-0.1575,-0.91,0.008052,-0.00244,-1.01663,-0.06804,0.1113,0.46648
-0.512017,0,0,15.512,15.512,14.488,14.488,0.365354,1.47966,0.256012,0.0534305,0.00557463,-0.00582456,0,0,3.5525,-0.0175,-0.805,0.039284,0.011346,-1.01809,-0.06804,0.1113,0.46648
-0.554757,0,0,15.5548,15.5548,14.4452,14.4452,0.395862,1.4535,0.321292,-0.0214343,-0.0274779,-0.0144228,0,0,3.1325,-0.105,-0.8575,-0.036356,-0.022204,-1.02663,-0.06804,0.1113,0.46648
-0.596983,0,0,15.597,15.597,14.403,14.403,0.426001,1.42832,0.386101,-0.0209948,-0.026952,-0.0144155,0,0,3.2725,0.14,-1.015,-0.036356,-0.022204,-1.02663,-0.06804,0.1113,0.46648
-0.650119,0,0,15.6501,15.6501,14.3499,14.3499,0.46393,1.38149,0.471079,-0.0382791,-0.0334955,-0.00222872,0,0,3.2025,-0.035,-0.9625,-0.054534,-0.029402,-1.01455,-0.06804,0.1113,0.46648
-0.571747,0,0,15.5717,15.5717,14.4283,14.4283,0.407928,1.4663,0.421875,0.0703071,0.0489397,-0.00754486,0,0,3.22,-0.2625,-1.05,0.055998,0.053924,-1.0198,-0.06566,0.11676,0.4683
-0.756477,0,0,15.7565,15.7565,14.2435,14.2435,0.53985,1.6707,0.270277,0.172555,-0.123645,-0.0420871,0,0,3.2375,-0.0875,-0.8925,0.16226,-0.12078,-1.05396,-0.06566,0.11676,0.4683
-0.937433,0,0,15.9374,15.9374,14.0626,14.0626,0.669068,1.87025,0.119598,0.169074,-0.121392,-0.0422185,0,0,3.185,-0.2975,-0.9975,0.16226,-0.12078,-1.05396,-0.06566,0.11676,0.4683
-1.02154,0,0,16.0215,16.0215,13.9785,13.9785,0.729108,1.77579,0.229758,-0.0786885,-0.0562277,-0.0495557,0,0,3.1675,0.1575,-1.5925,-0.088206,-0.05673,-1.06128,-0.06566,0.11676,0.4683
-0.795168,0,0,15.7952,15.7952,14.2048,14.2048,0.567381,1.56331,0.438771,-0.153218,0.128173,0.117794,0,0,3.955,0.42,-1.575,-0.166774,0.130296,-0.895358,-0.06566,0.11676,0.4683
-0.796881,0,0,15.7969,15.7969,14.2031,14.2031,0.568574,1.56242,0.438078,-0.153203,0.128193,0.117794,1,0,4.1125,-0.5075,-1.3825,-0.166774,0.130296,-0.895358,-0.06566,0.11676,0.4683
-0.797735,0,0,15.7977,15.7977,14.2023,14.2023,0.569153,1.56924,0.437793,0.030972,0.0905884,0.165618,1,0,3.7625,4.0075,-1.19,0.0183,0.09272,-0.8479,-0.06566,0.11676,0.4683
-0.675318,0,0,15.6753,15.6753,14.3247,14.3247,0.481687,1.63196,0.397657,0.0530815,0.0772159,-0.0332063,0,0,2.3625,0.455,-1.0675,0.041602,0.080886,-1.04517,-0.07364,0.12222,0.48272
-0.688387,0,0,15.6884,15.6884,14.3116,14.3116,0.490995,1.71385,0.3435,0.0588206,-0.00847715,0.0568718,0,0,2.5725,0.595,-0.6475,0.0488,-0.00488,-0.955748,-0.07364,0.12222,0.48272
-0.702916,0,0,15.7029,15.7029,14.2971,14.2971,0.501346,1.79388,0.29,0.0574245,-0.00829696,0.0568275,0,0,3.255,0.56,-0.35,0.0488,-0.00488,-0.955748,-0.07364,0.12222,0.48272
-0.79365,0,0,15.7936,15.7936,14.2064,14.2064,0.566126,1.8625,0.24002,0.0663107,-0.0604146,-0.0665385,0,0,3.9725,-4.41,-0.175,0.058926,-0.058072,-1.07811,-0.07364,0.12222,0.48272
-0.87018,0,0,15.8702,15.8702,14.1298,14.1298,0.620757,1.89865,0.224494,0.0288699,-0.0468828,-0.00706204,0,0,4.2875,-0.1575,-0.1225,0.02196,-0.045506,-1.01907,-0.07364,0.12222,0.48272
-0.946498,0,0,15.9465,15.9465,14.0535,14.0535,0.675234,1.93366,0.209712,0.0282592,-0.0459328,-0.00709322,0,0,4.795,-0.35,0.28,0.02196,-0.045506,-1.01907,-0.07364,0.12222,0.48272
-1.33788,0,0,16.3379,16.3379,13.6621,13.6621,0.954744,2.06048,0.120871,0.0890983,-0.227913,0.0992337,0,0,3.885,-0.4725,0.4025,0.085278,-0.232166,-0.913414,-0.07364,0.12222,0.48272
-1.72182,0,0,16.7218,16.7218,13.2782,13.2782,1.22892,2.18358,0.0290562,0.0869513,-0.223133,0.0990631,0,0,3.885,-0.4725,0.4025,0.085278,-0.232166,-0.913414,-0.07616,0.12488,0.49448
-1.62769,0,0,16.6277,16.6277,13.3723,13.3723,1.16162,2.24478,-0.0215168,0.0219825,0.0457146,0.297977,0,0,1.7675,0.28,0.5075,0.021106,0.037576,-0.716018,-0.07616,0.12488,0.49448
-1.62376,0,0,16.6238,16.6238,13.3762,13.3762,1.15875,2.24518,-0.0189506,0.0219755,0.0456645,0.297978,1,0,1.7675,0.28,0.5075,0.021106,0.037576,-0.716018,-0.07616,0.12488,0.49448
-1.42731,0,0,16.4273,16.4273,13.5727,13.5727,1.01838,1.93501,0.258804,-0.225426,0.111978,0.121422,0,0,2.835,0.84,0.5775,-0.232776,0.106262,-0.891454,-0.07616,0.12488,0.49448
-1.28303,0,0,16.283,16.283,13.717,13.717,0.91527,1.83736,0.353738,-0.0835285,0.101387,-0.116643,0,0,4.5675,1.1375,0,-0.091988,0.097478,-1.12777,-0.07616,0.12488,0.49448
-1.29096,0,0,16.291,16.291,13.709,13.709,0.920883,1.83803,0.354716,-0.0835403,0.101485,-0.116645,1,0,6.5625,0.42,-0.42,-0.091988,0.097478,-1.12777,-0.07616,0.12488,0.49448
-1.29834,0,0,16.2983,16.2983,13.7017,13.7017,0.926106,1.83818,0.355205,-0.0122307,0.161174,-0.240333,1,0,6.3525,0.105,-0.7,-0.020374,0.157014,-1.2505,-0.07616,0.12488,0.49448
-1.30159,0,0,16.3016,16.3016,13.6984,13.6984,0.928376,1.8382,0.354161,-0.0122311,0.161214,-0.240333,1,0,4.725,0.0175,-1.5925,-0.020374,0.157014,-1.2505,-0.07616,0.12488,0.49448
-1.30238,0,0,16.3024,16.3024,13.6976,13.6976,0.928889,1.83766,0.352809,-0.141118,0.118478,-0.148122,1,0,3.745,-0.315,-1.7675,-0.149816,0.114314,-1.159,-0.06412,0.13356,0.50064
-1.35025,0,0,16.3502,16.3502,13.6498,13.6498,0.963032,2.14765,0.0625554,0.259359,-0.0345648,0.0042592,0,0,1.75,-0.2625,-1.9775,0.257786,-0.039162,-1.0076,-0.06412,0.13356,0.50064
-1.39457,0,0,16.3946,16.3946,13.6054,13.6054,0.994634,2.45177,-0.22739,0.254055,-0.0340174,0.00403683,0,0,0.77,0.105,-2.3625,0.257786,-0.039162,-1.0076,-0.06412,0.13356,0.50064
-1.38864,0,0,16.3886,16.3886,13.6114,13.6114,0.990352,2.45383,-0.23032,-0.0908788,0.176699,0.228786,1,0,1.1025,1.19,-2.7125,-0.088572,0.17141,-0.784582,-0.06412,0.13356,0.50064
-1.38703,0,0,16.387,16.387,13.613,13.613,0.989142,2.45432,-0.234388,-0.0908874,0.176678,0.228786,1,0,2.8525,0.2625,-3.36,-0.088572,0.17141,-0.784582,-0.06412,0.13356,0.50064
-1.39019,0,0,16.3902,16.3902,13.6098,13.6098,0.991348,2.45503,-0.238872,-0.0762,0.0159972,0.179975,1,0,4.7775,0.385,-3.605,-0.07381,0.010858,-0.833016,-0.06412,0.13356,0.50064
-1.39439,0,0,16.3944,16.3944,13.6056,13.6056,0.994293,2.45499,-0.242859,-0.0761992,0.0160485,0.179974,1,0,5.18,-0.0525,-3.3075,-0.07381,0.010858,-0.833016,-0.06412,0.13356,0.50064
-1.6375,0,0,16.6375,16.6375,13.3625,13.3625,1.16788,2.12098,0.0450724,-0.264873,-0.146768,0.0543731,0,0,5.81,0.245,-3.3075,-0.269132,-0.154818,-0.957822,-0.06412,0.13356,0.50064
-1.86931,0,0,16.8693,16.8693,13.1307,13.1307,1.33339,1.78944,0.3344,-0.25909,-0.143878,0.0545074,0,0,3.2025,0.0175,-2.66,-0.269132,-0.154818,-0.957822,-0.07518,0.13272,0.50036
-1.93302,0,0,16.933,16.933,13.067,13.067,1.37882,1.6021,0.497137,-0.15183,-0.0441605,-0.0248393,0,0,2.3975,-0.1225,-2.3625,-0.1647,-0.055998,-1.03663,-0.07518,0.13272,0.50036
-1.99052,0,0,16.9905,16.9905,13.0095,13.0095,1.41982,1.41773,0.659927,-0.148613,-0.0434434,-0.024772,0,0,0.42,-0.77,-1.89,-0.1647,-0.055998,-1.03663,-0.07518,0.13272,0.50036
-1.80308,0,0,16.8031,16.8031,13.1969,13.1969,1.28586,1.30274,0.761986,-0.0887794,0.112986,0.0222971,0,0,1.1725,-0.42,-1.7325,-0.106628,0.102602,-0.99003,-0.07518,0.13272,0.50036
-1.62185,0,0,16.6219,16.6219,13.3781,13.3781,1.15635,1.19135,0.866088,-0.0868358,0.110727,0.0223876,0,0,2.1875,0.2625,-0.735,-0.106628,0.102602,-0.99003,-0.07518,0.13272,0.50036
-1.6248,0,0,16.6248,16.6248,13.3752,13.3752,1.15839,1.19187,0.866916,0.00451231,-0.0351784,0.265333,1,0,4.5675,0.3325,-0.5075,-0.014884,-0.043188,-0.748958,-0.07518,0.13272,0.50036
-1.62749,0,0,16.6275,16.6275,13.3725,13.3725,1.16025,1.1935,0.868035,0.00448394,-0.035146,0.265332,1,0,4.4625,0.98,-0.35,-0.014884,-0.043188,-0.748958,-0.07518,0.13272,0.50036
-1.63416,0,0,16.6342,16.6342,13.3658,13.3658,1.16496,1.19393,0.86928,0.0197837,-0.182471,0.421966,1,0,6.055,0.28,-0.2625,0.000488,-0.190442,-0.59353,-0.07518,0.13272,0.50036
-1.6346,0,0,16.6346,16.6346,13.3654,13.3654,1.16521,1.19359,0.87138,0.0197895,-0.182466,0.421966,1,0,3.5525,-0.1575,0.245,0.000488,-0.190442,-0.59353,-0.07182,0.13874,0.50722
-1.63271,0,0,16.6327,16.6327,13.3673,13.3673,1.1638,1.19354,0.874116,0.0419008,-0.14109,0.146685,1,0,2.6075,0.0175,0.6125,0.022692,-0.149084,-0.866688,-0.07182,0.13874,0.50722
-1.62645,0,0,16.6264,16.6264,13.3736,13.3736,1.15926,1.19361,0.876944,0.0418997,-0.141169,0.146687,1,0,0.8575,0.0875,0.665,0.022692,-0.149084,-0.866688,-0.07182,0.13874,0.50722
-1.62132,0,0,16.6213,16.6213,13.3787,13.3787,1.15554,1.19298,0.879878,-0.0838272,-0.251026,0.146811,1,0,1.3125,-0.315,0.735,-0.103578,-0.258762,-0.866566,-0.07182,0.13874,0.50722
-1.62182,0,0,16.6218,16.6218,13.3782,13.3782,1.15584,1.19315,0.882318,-0.0838301,-0.251021,0.146811,1,0,3.57,0.14,0.4375,-0.103578,-0.258762,-0.866566,-0.07182,0.13874,0.50722
-1.69599,0,0,16.696,16.696,13.304,13.304,1.20875,1.19347,0.882423,-0.000132049,-0.0455356,-0.0194345,0,0,5.0925,0.63,0.035,-0.01952,-0.054412,-1.03151,-0.07182,0.13874,0.50722
-1.77039,0,0,16.7704,16.7704,13.2296,13.2296,1.26182,1.19432,0.882703,-0.000146835,-0.0446098,-0.0194548,0,0,5.7575,0.945,0.14,-0.01952,-0.054412,-1.03151,-0.07182,0.13874,0.50722
-1.7779,0,0,16.7779,16.7779,13.2221,13.2221,1.26712,1.19435,0.884061,0.0704357,0.0622214,0.162015,1,0,6.3875,0.0525,-0.1925,0.051362,0.052216,-0.851438,-0.07182,0.13874,0.50722
-1.77859,0,0,16.7786,16.7786,13.2214,13.2214,1.26754,1.19538,0.88514,0.0704178,0.0622288,0.162015,1,0,3.6575,0.63,-0.3675,0.051362,0.052216,-0.851438,-0.07182,0.13874,0.50722
-1.77693,0,0,16.7769,16.7769,13.2231,13.2231,1.26629,1.18922,0.88543,0.390033,-0.225401,0.335375,1,0,2.73,-3.5875,-0.735,0.372222,-0.235094,-0.679418,-0.06958,0.14826,0.5138
-1.77125,0,0,16.7712,16.7712,13.2288,13.2288,1.26217,1.18815,0.885383,-0.0324759,0.417402,-0.570508,1,0,1.12,-0.6125,-0.9975,-0.052094,0.407114,-1.57831,-0.06958,0.14826,0.5138
-1.76557,0,0,16.7656,16.7656,13.2344,13.2344,1.25804,1.18708,0.885336,-0.0324573,0.41733,-0.570506,1,0,1.12,-0.6125,-0.9975,-0.052094,0.407114,-1.57831,-0.06958,0.14826,0.5138
-1.75926,0,0,16.7593,16.7593,13.2407,13.2407,1.25347,1.18758,0.883373,0.0980097,0.401129,-0.355467,1,0,0.8925,0.28,-2.135,0.078934,0.39101,-1.36494,-0.06958,0.14826,0.5138
-1.75295,0,0,16.753,16.753,13.247,13.247,1.24889,1.18808,0.88141,0.098001,0.401049,-0.355466,1,0,0.8925,0.28,-2.135,0.078934,0.39101,-1.36494,-0.06958,0.14826,0.5138
-1.9239,0,0,16.9239,16.9239,13.0761,13.0761,1.37093,1.3661,0.702201,0.137293,-0.0990084,0.055679,0,0,6.335,0.4725,-2.03,0.121512,-0.110654,-0.956846,-0.06958,0.14826,0.5138
-2.09155,0,0,17.0916,17.0916,12.9084,12.9084,1.4906,1.54037,0.52408,0.134253,-0.0969231,0.0555497,0,0,6.335,0.4725,-2.03,0.121512,-0.110654,-0.956846,-0.06958,0.14826,0.5138
-2.10294,0,0,17.1029,17.1029,12.8971,12.8971,1.49865,1.54303,0.521905,0.201388,0.0054374,-0.0840017,1,0,7.98,1.54,-2.2925,0.188978,-0.00854,-1.09532,-0.06804,0.14952,0.51954
-2.11012,0,0,17.1101,17.1101,12.8899,12.8899,1.5037,1.54289,0.520737,0.417513,0.0231117,-0.15015,1,0,6.2825,-0.0875,-1.6625,0.406016,0.009028,-1.16095,-0.06804,0.14952,0.51954
-2.1173,0,0,17.1173,17.1173,12.8827,12.8827,1.50875,1.54275,0.51957,0.417516,0.0231998,-0.150153,1,0,6.2825,-0.0875,-1.6625,0.406016,0.009028,-1.16095,-0.06804,0.14952,0.51954
-2.10924,0,0,17.1092,17.1092,12.8908,12.8908,1.50291,1.54227,0.517253,0.192168,-0.0926782,-0.308384,1,0,0.1925,-0.2975,-2.3275,0.179706,-0.106628,-1.31797,-0.06804,0.14952,0.51954
-2.10117,0,0,17.1012,17.1012,12.8988,12.8988,1.49707,1.5418,0.514936,0.192176,-0.0927801,-0.308381,1,0,0.1925,-0.2975,-2.3275,0.179706,-0.106628,-1.31797,-0.06804,0.14952,0.51954
-2.09156,0,0,17.0916,17.0916,12.9084,12.9084,1.49012,1.53841,0.514554,0.0632177,0.0369195,-0.299401,1,0,-0.455,-1.9775,-1.155,0.050142,0.023058,-1.30906,-0.06804,0.14952,0.51954
-2.08774,0,0,17.0877,17.0877,12.9123,12.9123,1.48732,1.5367,0.513766,0.334039,0.0247801,-0.087805,1,0,1.8725,-0.9975,-1.4175,0.32208,0.01098,-1.0991,-0.06804,0.14952,0.51954
-2.0957,0,0,17.0957,17.0957,12.9043,12.9043,1.49292,1.53788,0.514613,0.334019,0.0248778,-0.0878081,1,0,6.5625,0.7175,-0.5075,0.32208,0.01098,-1.0991,-0.06804,0.14952,0.51954
-2.10746,0,0,17.1075,17.1075,12.8925,12.8925,1.50124,1.53891,0.516567,0.342019,-0.12385,-0.125681,1,0,8.0675,0.6475,0.14,0.330132,-0.137738,-1.13667,-0.07028,0.15078,0.525
-2.11848,0,0,17.1185,17.1185,12.8815,12.8815,1.50903,1.53862,0.518697,-0.385068,0.327056,-0.0206859,1,0,7.77,-0.1225,0.2625,-0.400038,0.312564,-1.03249,-0.07028,0.15078,0.525
-2.12597,0,0,17.126,17.126,12.874,12.874,1.5143,1.54012,0.519763,-0.385094,0.327148,-0.0206891,1,0,6.37,0.91,-0.385,-0.400038,0.312564,-1.03249,-0.07028,0.15078,0.525
-2.12913,0,0,17.1291,17.1291,12.8709,12.8709,1.51647,1.54138,0.521874,-0.111045,0.0836651,-0.132697,1,0,4.62,0.7875,0.2275,-0.124806,0.069296,-1.14363,-0.07028,0.15078,0.525
-2.13081,0,0,17.1308,17.1308,12.8692,12.8692,1.51759,1.53959,0.524234,-0.111013,0.0836847,-0.132696,1,0,4.025,-0.9975,0.42,-0.124806,0.069296,-1.14363,-0.07028,0.15078,0.525
-2.12482,0,0,17.1248,17.1248,12.8752,12.8752,1.51323,1.5383,0.526007,0.475907,0.262402,-0.0216713,1,0,0.9625,-0.7175,0.07,0.464576,0.247904,-1.03346,-0.07028,0.15078,0.525
-2.11878,0,0,17.1188,17.1188,12.8812,12.8812,1.50884,1.53912,0.526515,0.475892,0.262326,-0.0216697,1,0,0.9625,0.5075,-0.7,0.464576,0.247904,-1.03346,-0.07028,0.15078,0.525
-2.365,0,0,17.365,17.365,12.635,12.635,1.68462,1.88397,0.195124,0.301983,-0.172927,-0.00509088,0,0,2.135,0.9625,-0.2275,0.295972,-0.189954,-1.01675,-0.07028,0.15078,0.525
-2.615,0,0,17.615,17.615,12.385,12.385,1.86309,2.22026,-0.141085,0.296117,-0.169822,-0.00539731,0,0,5.53,-0.49,-0.805,0.295972,-0.189954,-1.01675,-0.07462,0.15596,0.5208
-2.61898,0,0,17.619,17.619,12.381,12.381,1.86583,2.22033,-0.141137,-0.0911803,-0.22119,0.166852,1,0,4.97,0.0525,-1.015,-0.092964,-0.241316,-0.845826,-0.07462,0.15596,0.5208
-2.62139,0,0,17.6214,17.6214,12.3786,12.3786,1.86746,2.22262,-0.141716,-0.0912203,-0.221161,0.166849,1,0,4.3575,1.3475,-1.365,-0.092964,-0.241316,-0.845826,-0.07462,0.15596,0.5208
-2.6241,0,0,17.6241,17.6241,12.3759,12.3759,1.86929,2.22394,-0.141786,-0.0973176,-0.19707,-0.266054,1,0,4.4625,0.7875,-1.05,-0.099064,-0.217282,-1.27539,-0.07462,0.15596,0.5208
-2.62593,0,0,17.6259,17.6259,12.3741,12.3741,1.8705,2.22383,-0.142714,-0.0973156,-0.197049,-0.266055,1,0,4.13,-0.07,-1.5225,-0.099064,-0.217282,-1.27539,-0.07462,0.15596,0.5208
-2.8327,0,0,17.8327,17.8327,12.1673,12.1673,2.01808,2.27423,-0.232204,0.0446725,-0.134514,0.00885921,0,0,2.66,0.5425,-1.645,0.044408,-0.15738,-1.00247,-0.07462,0.15596,0.5208
-3.03302,0,0,18.033,18.033,11.967,11.967,2.16105,2.32382,-0.321628,0.0438078,-0.132024,0.00873361,0,0,1.6625,0.63,-1.9075,0.044408,-0.15738,-1.00247,-0.07462,0.15596,0.5208
-3.73034,0,0,18.7303,18.7303,11.2697,11.2697,2.659,2.09246,-0.159865,-0.17314,-0.453815,0.116473,0,0,3.185,-0.2275,-2.0825,-0.17751,-0.487512,-0.895358,-0.07462,0.15596,0.5208
-4.41765,0,0,19.4177,19.4177,10.5823,10.5823,3.14976,1.86482,-0.00420315,-0.169169,-0.445259,0.116176,0,0,4.06,-0.2625,-2.1525,-0.17751,-0.487512,-0.895358,-0.07868,0.1582,0.53928
-4.42049,0,0,19.4205,19.4205,10.5795,10.5795,3.15162,1.86423,-0.00639295,0.859096,0.0943292,-0.362833,1,0,4.515,-0.4025,-2.24,0.855098,0.051484,-1.37067,-0.07868,0.1582,0.53928
-4.42398,0,0,19.424,19.424,10.576,10.576,3.15394,1.86469,-0.00873496,0.859088,0.0943696,-0.362835,1,0,4.7775,0.21,-2.3625,0.855098,0.051484,-1.37067,-0.07868,0.1582,0.53928
-4.4275,0,0,19.4275,19.4275,10.5725,10.5725,3.1563,1.86463,-0.0101745,0.528162,0.0561849,-0.331855,1,0,4.7775,-0.07,-1.82,0.52277,0.013298,-1.33993,-0.07868,0.1582,0.53928
-4.42961,0,0,19.4296,19.4296,10.5704,10.5704,3.15763,1.86579,-0.0121175,0.528142,0.0562081,-0.331857,1,0,4.2175,0.63,-2.1525,0.52277,0.013298,-1.33993,-0.07868,0.1582,0.53928
-4.43197,0,0,19.432,19.432,10.568,10.568,3.15915,1.86627,-0.0142481,0.306665,0.325646,-0.0452653,1,0,4.3225,0.2275,-2.24,0.300364,0.28243,-1.05554,-0.07868,0.1582,0.53928
-4.42614,0,0,19.4261,19.4261,10.5739,10.5739,3.15481,1.86621,-0.0158374,0.306666,0.325571,-0.0452611,1,0,1.0325,-0.07,-1.9075,0.300364,0.28243,-1.05554,-0.07868,0.1582,0.53928
-4.23219,0,0,19.2322,19.2322,10.7678,10.7678,3.01611,2.16815,-0.318126,0.239442,0.126399,0.00988777,0,0,2.205,-0.42,-1.82,0.238144,0.085888,-1.00077,-0.07868,0.1582,0.53928
-4.03749,0,0,19.0375,19.0375,10.9625,10.9625,2.87689,2.46382,-0.620669,0.234286,0.123963,0.00980431,0,0,0.6125,-0.2975,-1.6625,0.238144,0.085888,-1.00077,-0.07868,0.1582,0.53928
-4.03208,0,0,19.0321,19.0321,10.9679,10.9679,2.87287,2.46449,-0.621861,0.279831,-0.144297,-0.18691,1,0,1.2075,0.3675,-1.6975,0.283894,-0.182024,-1.19597,-0.07392,0.15568,0.52766
-4.03359,0,0,19.0336,19.0336,10.9664,10.9664,2.8738,2.46339,-0.62191,-0.0265365,0.222222,0.237016,1,0,3.955,-0.63,-0.98,-0.02379,0.184098,-0.77531,-0.07392,0.15568,0.52766
-4.04089,0,0,19.0409,19.0409,10.9591,10.9591,2.87886,2.462,-0.621011,-0.0265124,0.22231,0.237013,1,0,6.2475,-0.77,-0.42,-0.02379,0.184098,-0.77531,-0.07392,0.15568,0.52766
-3.78998,0,0,18.79,18.79,11.21,11.21,2.69949,2.48147,-0.687359,0.00327659,0.157145,0.0964972,0,0,7.035,0.07,-0.5775,0.006466,0.122122,-0.914878,-0.07392,0.15568,0.52766
-3.54378,0,0,18.5438,18.5438,11.4562,11.4562,2.5235,2.50038,-0.753679,0.00294684,0.154078,0.0966227,0,0,7.035,0.07,-0.5775,0.006466,0.122122,-0.914878,-0.07392,0.15568,0.52766
-3.55,0,0,18.55,18.55,11.45,11.45,2.52781,2.50017,-0.75206,-0.382888,0.124232,-0.103786,1,0,5.81,-0.07,-0.035,-0.381006,0.092232,-1.11374,-0.07392,0.15568,0.52766
-3.55623,0,0,18.5562,18.5562,11.4438,11.4438,2.53212,2.49995,-0.75044,-0.382884,0.124308,-0.10379,1,0,5.81,-0.07,-0.035,-0.381006,0.092232,-1.11374,-0.07392,0.15568,0.52766
-3.5481,0,0,18.5481,18.5481,11.4519,11.4519,2.52618,2.49221,-0.749123,-0.0852308,0.311669,-0.103533,1,0,0.07,-4.48,-0.0175,-0.082228,0.279502,-1.11349,-0.06524,0.15246,0.51996
-3.53846,0,0,18.5385,18.5385,11.4615,11.4615,2.51916,2.49202,-0.747412,0.276557,-0.0146539,0.307612,1,0,-0.5425,-0.0525,0.0175,0.281088,-0.04636,-0.705526,-0.06524,0.15246,0.51996
-3.53406,0,0,18.5341,18.5341,11.4659,11.4659,2.51588,2.49172,-0.745887,0.0893527,0.490039,-0.0837303,1,0,1.5575,-0.1225,-0.0875,0.093086,0.457866,-1.09385,-0.06524,0.15246,0.51996
-3.53761,0,0,18.5376,18.5376,11.4624,11.4624,2.51828,2.49223,-0.744476,0.0893438,0.490081,-0.0837325,1,0,4.7425,0.35,-0.175,0.093086,0.457866,-1.09385,-0.06524,0.15246,0.51996
-3.35618,0,0,18.3562,18.3562,11.6438,11.6438,2.38856,2.58172,-0.869665,0.0735697,0.128765,-0.0604675,0,0,6.8425,0.6825,-0.5425,0.078812,0.099186,-1.07079,-0.06524,0.15246,0.51996
-3.18379,0,0,18.1838,18.1838,11.8162,11.8162,2.26531,2.66812,-0.994765,0.0720632,0.126615,-0.0604493,0,0,9.1,0.035,-0.4025,0.078812,0.099186,-1.07079,-0.06524,0.15246,0.51996
-3.2493,0,0,18.2493,18.2493,11.7507,11.7507,2.31197,2.63015,-1.00652,-0.031388,-0.0308467,0.0606531,0,0,7.525,0.8925,-0.595,-0.025742,-0.058926,-0.950624,-0.06524,0.15246,0.51996
-3.30546,0,0,18.3055,18.3055,11.6945,11.6945,2.35196,2.59304,-1.01862,-0.030741,-0.030149,0.0606543,0,0,4.2875,0.8925,-0.7875,-0.025742,-0.058926,-0.950624,-0.06524,0.15246,0.51996
-3.00097,0,0,18.001,18.001,11.999,11.999,2.13435,2.59704,-1.07236,-0.00517715,0.201764,-0.0183792,0,0,2.9575,0.455,-0.84,0,0.176534,-1.02919,-0.06496,0.15246,0.5152
-2.82486,0,0,17.8249,17.8249,12.1751,12.1751,2.00845,2.81483,-1.3165,0.185767,0.114931,-0.0374133,0,0,0.9275,-0.07,-1.4175,0.195566,0.091988,-1.04798,-0.06496,0.15246,0.5152
-2.65288,0,0,17.6529,17.6529,12.3471,12.3471,1.88551,3.02864,-1.56172,0.182041,0.112782,-0.0375306,0,0,1.365,0.28,-1.8725,0.195566,0.091988,-1.04798,-0.06496,0.15246,0.5152
-2.55928,0,0,17.5593,17.5593,12.4407,12.4407,1.81856,3.11442,-1.69611,0.0767969,0.0605645,-0.0786379,0,0,2.135,0.245,-2.0825,0.091378,0.040992,-1.08873,-0.06496,0.15246,0.5152
-2.47465,0,0,17.4746,17.4746,12.5254,12.5254,1.75801,3.19705,-1.83073,0.0753568,0.0595074,-0.0786843,0,0,5.04,-0.5075,-2.275,0.091378,0.040992,-1.08873,-0.06496,0.15246,0.5152
-3.00645,0,0,18.0064,18.0064,11.9936,11.9936,2.13775,2.96043,-1.6612,-0.191675,-0.371939,-0.00713154,0,0,6.3,-0.1225,-2.3975,-0.180926,-0.396622,-1.01772,-0.06496,0.15246,0.5152
-3.52915,0,0,18.5292,18.5292,11.4708,11.4708,2.51098,2.72937,-1.49527,-0.187648,-0.365431,-0.00719541,0,0,6.5625,0.1225,-2.52,-0.180926,-0.396622,-1.01772,-0.06496,0.15246,0.5152
-3.53543,0,0,18.5354,18.5354,11.4646,11.4646,2.51533,2.72906,-1.49753,-0.345088,0.0658747,-0.0963361,1,0,5.9325,-0.2275,-2.2925,-0.339038,0.03416,-1.10617,-0.06496,0.15246,0.5152
-3.53772,0,0,18.5377,18.5377,11.4623,11.4623,2.51683,2.72839,-1.49933,-0.345076,0.0659009,-0.0963367,1,0,4.3225,-0.42,-2.0125,-0.339038,0.03416,-1.10617,-0.06566,0.14896,0.51296
-3.5371,0,0,18.5371,18.5371,11.4629,11.4629,2.51625,2.72775,-1.50094,0.0795276,0.265079,-0.0794918,1,0,3.15,-0.4025,-1.9075,0.087352,0.233142,-1.08946,-0.06566,0.14896,0.51296
-3.53647,0,0,18.5365,18.5365,11.4635,11.4635,2.51566,2.72711,-1.50256,0.0795388,0.265069,-0.0794908,1,0,3.15,-0.4025,-1.9075,0.087352,0.233142,-1.08946,-0.06566,0.14896,0.51296
-3.53474,0,0,18.5347,18.5347,11.4653,11.4653,2.51429,2.72663,-1.50308,0.0641185,0.219004,0.288004,1,0,2.6775,-0.28,-1.2775,0.071858,0.187148,-0.724802,-0.06566,0.14896,0.51296
-3.533,0,0,18.533,18.533,11.467,11.467,2.51292,2.72615,-1.50361,0.0641269,0.21898,0.288005,1,0,2.6775,-0.28,-1.2775,0.071858,0.187148,-0.724802,-0.06566,0.14896,0.51296
-3.53728,0,0,18.5373,18.5373,11.4627,11.4627,2.51584,2.7255,-1.50306,-0.125015,-0.220137,0.228742,1,0,5.0575,-0.35,-0.6475,-0.118096,-0.251564,-0.783606,-0.06566,0.14896,0.51296
-3.54157,0,0,18.5416,18.5416,11.4584,11.4584,2.51876,2.72485,-1.50251,-0.125004,-0.220086,0.228741,1,0,5.0575,-0.35,-0.6475,-0.118096,-0.251564,-0.783606,-0.06566,0.14896,0.51296
-3.54993,0,0,18.5499,18.5499,11.4501,11.4501,2.52461,2.72458,-1.50098,-0.31804,-0.361041,0.00472412,1,0,6.6675,-0.105,-0.0875,-0.311954,-0.392474,-1.00589,-0.06566,0.14896,0.51296
-3.44659,0,0,18.4466,18.4466,11.5534,11.5534,2.45066,2.66019,-1.47964,-0.0548725,0.0735439,-0.0950014,0,0,5.4425,0,0.14,-0.0488,0.042944,-1.10495,-0.07042,0.14392,0.50582
-3.54931,0,0,18.5493,18.5493,11.4507,11.4507,2.5239,2.81289,-1.64093,0.137814,-0.074547,-0.0531355,0,0,3.4825,-0.2275,0.3675,0.147376,-0.106262,-1.06323,-0.07042,0.14392,0.50582
-3.6498,0,0,18.6498,18.6498,11.3502,11.3502,2.59553,2.96278,-1.80133,0.135202,-0.0733054,-0.0533229,0,0,3.36,0.0175,0.4025,0.147376,-0.106262,-1.06323,-0.07042,0.14392,0.50582
-3.00356,0,0,18.0036,18.0036,11.9964,11.9964,2.13382,2.69051,-1.61491,-0.256338,0.459195,0.0238402,0,0,4.0075,-0.42,0.2975,-0.250588,0.43371,-0.987224,-0.07042,0.14392,0.50582
-2.37729,0,0,17.3773,17.3773,12.6227,12.6227,1.68639,2.42197,-1.42468,-0.251656,0.451406,0.0243091,0,0,7.6475,-0.875,0.2975,-0.250588,0.43371,-0.987224,-0.07042,0.14392,0.50582
-2.01439,0,0,17.0144,17.0144,12.9856,12.9856,1.4271,2.06113,-1.13759,-0.294808,0.233781,0.0982014,0,0,5.74,0.2275,-0.175,-0.300242,0.22082,-0.914268,-0.07042,0.14392,0.50582
-1.65898,0,0,16.659,16.659,13.341,13.341,1.17317,1.70646,-0.848281,-0.288621,0.229357,0.0985054,0,0,6.23,-0.0875,-0.42,-0.300242,0.22082,-0.914268,-0.07042,0.14392,0.50582
-1.46686,0,0,16.4669,16.4669,13.5331,13.5331,1.03589,1.25924,-0.463326,-0.358812,0.125112,0.112032,0,0,5.81,0.6125,-0.5075,-0.378566,0.119072,-0.901092,-0.07042,0.14392,0.50582
-1.27551,0,0,16.2755,16.2755,13.7245,13.7245,0.899168,0.822,-0.0707427,-0.351182,0.122729,0.112211,0,0,4.9175,0.525,-0.8575,-0.378566,0.119072,-0.901092,-0.06608,0.13874,0.50456
-1.65483,0,0,16.6548,16.6548,13.3452,13.3452,1.17005,0.68902,0.0599596,-0.104311,-0.222193,0.123098,0,0,4.9175,0.4725,-1.3825,-0.13298,-0.230214,-0.890234,-0.06608,0.13874,0.50456
-2.02724,0,0,17.0272,17.0272,12.9728,12.9728,1.43597,0.558697,0.189115,-0.102036,-0.217552,0.123018,0,0,4.9175,0.4725,-1.3825,-0.13298,-0.230214,-0.890234,-0.06608,0.13874,0.50456
-2.46853,0,0,17.4685,17.4685,12.5315,12.5315,1.75109,1.07065,-0.258129,0.415306,-0.282526,0.16454,0,0,4.2,-0.21,-1.82,0.395524,-0.300608,-0.848754,-0.06608,0.13874,0.50456
-2.13466,0,0,17.1347,17.1347,12.8653,12.8653,1.51253,0.918127,-0.127291,-0.130055,0.227468,-0.00643935,0,0,4.585,0.07,-2.0125,-0.154818,0.213012,-1.01858,-0.06608,0.13874,0.50456
-1.80822,0,0,16.8082,16.8082,13.1918,13.1918,1.27929,0.7692,0.00374106,-0.127456,0.2234,-0.00630193,0,0,5.1275,0.4025,-2.5025,-0.154818,0.213012,-1.01858,-0.06608,0.13874,0.50456
-1.8143,0,0,16.8143,16.8143,13.1857,13.1857,1.28356,0.76946,0.00171337,0.400638,-0.170629,-0.130359,1,0,5.845,0.14,-2.17,0.375516,-0.180682,-1.14168,-0.06608,0.13874,0.50456
-1.81955,0,0,16.8196,16.8196,13.1804,13.1804,1.28725,0.769863,-7.10694e-05,0.400631,-0.170565,-0.13036,1,0,5.5125,0.2275,-2.03,0.375516,-0.180682,-1.14168,-0.06608,0.13874,0.50456
-1.56388,0,0,16.5639,16.5639,13.4361,13.4361,1.10456,0.876469,-0.0903059,0.0959066,0.180659,-0.0445024,0,0,5.3725,-0.1925,-1.8725,0.07137,0.173362,-1.05652,-0.07462,0.13636,0.50134
-1.57005,0,0,16.5701,16.5701,13.4299,13.4299,1.10891,0.87658,-0.0911372,-0.0965286,0.188673,-0.26409,1,0,5.88,0.07,-1.47,-0.121878,0.181292,-1.27441,-0.07462,0.13636,0.50134
-1.57549,0,0,16.5755,16.5755,13.4245,13.4245,1.11274,0.876445,-0.0916433,-0.0965263,0.18874,-0.264091,1,0,5.5825,-0.07,-1.2775,-0.121878,0.181292,-1.27441,-0.07462,0.13636,0.50134
-1.58129,0,0,16.5813,16.5813,13.4187,13.4187,1.11682,0.876602,-0.0917838,0.490004,0.305809,-0.169299,1,0,5.7225,0.105,-1.0675,0.467138,0.298168,-1.18035,-0.07462,0.13636,0.50134
-1.58483,0,0,16.5848,16.5848,13.4152,13.4152,1.11929,0.875345,-0.0914118,0.490026,0.305852,-0.1693,1,0,4.8125,-0.7175,-0.7525,0.467138,0.298168,-1.18035,-0.07462,0.13636,0.50134
-1.18717,0,0,16.1872,16.1872,13.8128,13.8128,0.835203,0.392299,0.34466,-0.418154,0.275005,0.0725948,0,0,4.3225,0.21,-0.7525,-0.453352,0.272304,-0.940498,-0.07462,0.13636,0.50134
-0.794399,0,0,15.7944,15.7944,14.2056,14.2056,0.554621,-0.0833126,0.785218,-0.409853,0.270109,0.0726765,0,0,3.8325,-0.5075,-0.4025,-0.453352,0.272304,-0.940498,-0.07462,0.13636,0.50134
-0.793382,0,0,15.7934,15.7934,14.2066,14.2066,0.553865,-0.0832008,0.786515,-0.311816,-0.0137267,0.212592,1,0,3.01,0.0875,-0.2275,-0.354898,-0.011224,-0.801662,-0.07462,0.13636,0.50134
-0.795423,0,0,15.7954,15.7954,14.2046,14.2046,0.555293,-0.0830614,0.788053,-0.311818,-0.0137018,0.212592,1,0,4.235,0.105,-0.0875,-0.354898,-0.011224,-0.801662,-0.0665,0.13286,0.49588
-0.480012,0,0,15.48,15.48,14.52,14.52,0.329982,0.121483,0.626805,0.196796,0.229184,-0.0520871,0,0,4.865,-0.91,-0.035,0.159454,0.235338,-1.06433,-0.0665,0.13286,0.49588
-0.173845,0,0,15.1738,15.1738,14.8262,14.8262,0.111285,0.32348,0.464547,0.19327,0.225367,-0.0520861,0,0,6.3,-0.14,0.0525,0.159454,0.235338,-1.06433,-0.0665,0.13286,0.49588
-0.182951,0,0,15.183,15.183,14.817,14.817,0.117783,0.323511,0.466413,-0.248938,-0.151036,0.357455,1,0,7.07,0.035,0.105,-0.284626,-0.140788,-0.657946,-0.0665,0.13286,0.49588
-0.189083,0,0,15.1891,15.1891,14.8109,14.8109,0.122157,0.324139,0.46813,-0.248949,-0.15096,0.357455,1,0,5.88,0.385,0.0175,-0.284626,-0.140788,-0.657946,-0.0665,0.13286,0.49588
-0.194118,0,0,15.1941,15.1941,14.8059,14.8059,0.125746,0.324859,0.469038,0.178425,-0.14418,0.174261,1,0,5.4425,0.4375,-0.455,0.14457,-0.134078,-0.839726,-0.0665,0.13286,0.49588
-0.194437,0,0,15.1944,15.1944,14.8056,14.8056,0.125967,0.325279,0.470485,0.178418,-0.144176,0.174261,1,0,3.5525,0.2625,-0.14,0.14457,-0.134078,-0.839726,-0.0665,0.13286,0.49588
0.111602,0,0,14.8884,14.8884,15.1116,15.1116,-0.0926269,0.268363,0.54215,-0.0449732,0.206054,0.0058282,0,0,4.1125,-0.0525,-0.49,-0.080764,0.2196,-1.00687,-0.0665,0.13286,0.49588
0.411615,0,0,14.5884,14.5884,15.4116,15.4116,-0.306906,0.212626,0.612235,-0.0440004,0.202314,0.00581924,0,0,4.27,-0.1575,-0.6825,-0.080764,0.2196,-1.00687,-0.06958,0.13426,0.50316
0.406357,0,0,14.5936,14.5936,15.4064,15.4064,-0.303134,0.21311,0.612479,0.153527,-0.112341,0.20266,1,0,5.5475,0.2975,-0.84,0.117608,-0.094794,-0.811544,-0.06958,0.13426,0.50316
0.398086,0,0,14.6019,14.6019,15.3981,15.3981,-0.29721,0.213561,0.612033,0.153519,-0.112237,0.202661,1,0,6.755,0.28,-1.2425,0.117608,-0.094794,-0.811544,-0.06958,0.13426,0.50316
0.388327,0,0,14.6117,14.6117,15.3883,15.3883,-0.290223,0.213477,0.61213,-0.48841,-0.0738897,-0.0937676,1,0,7.35,-0.035,-0.9275,-0.52704,-0.056608,-1.10569,-0.06958,0.13426,0.50316
0.381152,0,0,14.6188,14.6188,15.3812,15.3812,-0.285083,0.215566,0.610866,-0.488446,-0.0738,-0.0937673,1,0,6.3175,1.2425,-1.715,-0.52704,-0.056608,-1.10569,-0.06958,0.13426,0.50316
0.582841,0,0,14.4172,14.4172,15.5828,15.5828,-0.429124,0.456342,0.40709,0.214398,0.140583,0.00799378,0,0,5.7925,0.245,-1.82,0.183,0.160064,-1.00467,-0.06958,0.13426,0.50316
0.788828,0,0,14.2112,14.2112,15.7888,15.7888,-0.576226,0.692917,0.202418,0.210269,0.138017,0.00792985,0,0,2.6425,0.49,-1.855,0.183,0.160064,-1.00467,-0.06958,0.13426,0.50316
0.66742,0,0,14.3326,14.3326,15.6674,15.6674,-0.48948,0.987649,-0.0567483,0.27583,-0.0906779,-0.0462288,0,0,1.8025,-0.105,-2.1175,0.254004,-0.069906,-1.05835,-0.06958,0.13426,0.50316
0.548984,0,0,14.451,14.451,15.549,15.549,-0.404861,1.279,-0.314289,0.270746,-0.0892006,-0.0463179,0,0,1.54,-0.0875,-2.0475,0.254004,-0.069906,-1.05835,-0.07532,0.13496,0.49854
0.551897,0,0,14.4481,14.4481,15.5519,15.5519,-0.40692,1.27884,-0.316771,0.147441,0.0302034,-0.220044,1,0,2.31,-0.07,-2.4325,0.130174,0.04941,-1.23074,-0.07532,0.13496,0.49854
0.546592,0,0,14.4534,14.4534,15.5466,15.5466,-0.40311,1.27802,-0.319219,0.147456,0.0302699,-0.220044,1,0,5.6,-0.455,-2.415,0.130174,0.04941,-1.23074,-0.07532,0.13496,0.49854
0.624256,0,0,14.3757,14.3757,15.6243,15.6243,-0.45856,1.11721,-0.171357,-0.128062,0.0498192,0.0825841,0,0,5.4425,-0.0525,-2.3975,-0.149328,0.069906,-0.930494,-0.07532,0.13496,0.49854
0.69714,0,0,14.3029,14.3029,15.6971,15.6971,-0.510592,0.958923,-0.0232044,-0.1253,0.0489108,0.0826265,0,0,6.79,-0.455,-2.275,-0.149328,0.069906,-0.930494,-0.07532,0.13496,0.49854
0.572095,0,0,14.4279,14.4279,15.5721,15.5721,-0.421252,0.541139,0.36959,-0.383091,-0.0860685,-0.000993323,0,0,5.7575,0.175,-2.2925,-0.415532,-0.06649,-1.01358,-0.07532,0.13496,0.49854
0.454445,0,0,14.5456,14.5456,15.4544,15.4544,-0.337198,0.130592,0.761396,-0.375925,-0.0846019,-0.000941611,0,0,3.7625,-0.2275,-1.75,-0.415532,-0.06649,-1.01358,-0.07532,0.13496,0.49854
0.457454,0,0,14.5425,14.5425,15.4575,15.4575,-0.339329,0.130381,0.760294,0.0879107,-0.313627,0.168358,1,0,2.24,-0.105,-1.6275,0.050264,-0.29524,-0.845582,-0.07532,0.13496,0.49854
0.462207,0,0,14.5378,14.5378,15.4622,15.4622,-0.342705,0.130417,0.76036,0.0879101,-0.313686,0.168358,1,0,1.54,0.035,-0.945,0.050264,-0.29524,-0.845582,-0.0735,0.1358,0.50204
0.468616,0,0,14.5314,14.5314,15.4686,15.4686,-0.347265,0.129713,0.76175,0.115864,-0.398399,-0.205037,1,0,0.875,-0.4025,-0.175,0.078324,-0.379786,-1.2161,-0.0735,0.1358,0.50204
0.471048,0,0,14.529,14.529,15.471,15.471,-0.348983,0.129819,0.763615,0.115862,-0.398429,-0.205037,1,0,2.4675,0.07,0.105,0.078324,-0.379786,-1.2161,-0.0735,0.1358,0.50204
0.665969,0,0,14.334,14.334,15.666,15.666,-0.488186,-0.19153,1.0812,-0.293403,0.137843,-0.0256762,0,0,3.15,-0.3325,0.2275,-0.338306,0.158356,-1.0381,-0.0735,0.1358,0.50204
0.856025,0,0,14.144,14.144,15.856,15.856,-0.623907,-0.507243,1.4006,-0.287893,0.135474,-0.0257328,0,0,3.7975,-0.665,0.7,-0.338306,0.158356,-1.0381,-0.0735,0.1358,0.50204
0.93203,0,0,14.068,14.068,15.932,15.932,-0.67816,-0.569268,1.49417,-0.0474834,0.0475734,0.0755558,0,0,4.6375,0.175,0.5775,-0.097966,0.071492,-0.93757,-0.0735,0.1358,0.50204
1.00882,0,0,13.9912,13.9912,16.0088,16.0088,-0.732973,-0.62978,1.58768,-0.0464273,0.046617,0.075533,0,0,3.7625,0.315,0.56,-0.097966,0.071492,-0.93757,-0.0735,0.1358,0.50204
0.876758,0,0,14.1232,14.1232,15.8768,15.8768,-0.638606,-0.771455,1.75655,-0.137499,-0.0949906,-0.0711551,0,0,3.36,0.6125,0.7,-0.191906,-0.071614,-1.08312,-0.0735,0.1358,0.50204
0.748492,0,0,14.2515,14.2515,15.7485,15.7485,-0.546959,-0.910815,1.9245,-0.135067,-0.0933909,-0.0711742,0,0,2.8175,0.35,0.63,-0.191906,-0.071614,-1.08312,-0.0735,0.1358,0.50204
0.825921,0,0,14.1741,14.1741,15.8259,15.8259,-0.602233,-0.980807,2.02442,-0.0636266,0.0535402,-0.0579256,0,0,2.66,0.0875,0.5775,-0.12139,0.076128,-1.06994,-0.0714,0.14098,0.49798
0.923939,0,0,14.0761,14.0761,15.9239,15.9239,-0.67221,-0.735334,1.83326,0.195228,0.0564707,0.11081,0,0,2.38,0.63,-0.0175,0.142862,0.080276,-0.902556,-0.0714,0.14098,0.49798
1.02018,0,0,13.9798,13.9798,16.0202,16.0202,-0.740911,-0.495392,1.64077,0.19104,0.0552713,0.11084,0,0,2.3975,0.175,-0.6475,0.142862,0.080276,-0.902556,-0.0714,0.14098,0.49798
0.895645,0,0,14.1044,14.1044,15.8956,15.8956,-0.651925,-0.364219,1.5426,0.120597,-0.0899723,-0.0760052,0,0,2.8175,-0.14,-0.665,0.07442,-0.066368,-1.088,-0.0714,0.14098,0.49798
0.775741,0,0,14.2243,14.2243,15.7757,15.7757,-0.566249,-0.235072,1.44298,0.118343,-0.0884772,-0.0759775,0,0,1.89,0.245,-1.82,0.07442,-0.066368,-1.088,-0.0714,0.14098,0.49798
0.778884,0,0,14.2211,14.2211,15.7789,15.7789,-0.568463,-0.235413,1.44116,-0.123286,-0.0831423,-0.144829,1,0,2.1875,-0.175,-2.0475,-0.168238,-0.061,-1.15632,-0.0714,0.14098,0.49798
0.780665,0,0,14.2193,14.2193,15.7807,15.7807,-0.569705,-0.235438,1.43816,-0.123285,-0.083164,-0.144829,1,0,2.73,0.0175,-2.73,-0.168238,-0.061,-1.15632,-0.0714,0.14098,0.49798
0.782269,0,0,14.2177,14.2177,15.7823,15.7823,-0.57082,-0.235229,1.43466,0.307985,-0.217767,-0.0898715,1,0,2.8,0.1575,-3.0275,0.264862,-0.195444,-1.10178,-0.0714,0.14098,0.49798
0.78483,0,0,14.2152,14.2152,15.7848,15.7848,-0.572619,-0.235385,1.43053,0.307988,-0.217799,-0.0898718,1,0,2.415,-0.0525,-3.395,0.264862,-0.195444,-1.10178,-0.07196,0.13426,0.49224
0.788089,0,0,14.2119,14.2119,15.7881,15.7881,-0.574916,-0.235007,1.42603,-0.132526,-0.146639,0.144714,1,0,2.135,0.2625,-3.605,-0.17751,-0.124318,-0.869006,-0.07196,0.13426,0.49224
0.793059,0,0,14.2069,14.2069,15.7931,15.7931,-0.578435,-0.235694,1.42257,-0.132514,-0.1467,0.144713,1,0,1.4525,-0.3675,-3.01,-0.17751,-0.124318,-0.869006,-0.07196,0.13426,0.49224
0.48966,0,0,14.5103,14.5103,15.4897,15.4897,-0.361702,-0.614363,1.79558,-0.319796,-0.200805,0.117277,0,0,1.3475,0.455,-2.905,-0.372222,-0.182146,-0.896212,-0.07196,0.13426,0.49224
0.19215,0,0,14.8079,14.8079,15.1921,15.1921,-0.149187,-0.985681,2.16546,-0.313316,-0.197096,0.117203,0,0,1.085,0.6475,-2.6425,-0.372222,-0.182146,-0.896212,-0.07196,0.13426,0.49224
0.194442,0,0,14.8056,14.8056,15.1944,15.1944,-0.150816,-0.986099,2.16367,-0.00704343,-0.118841,-0.165701,1,0,2.5025,-0.2275,-2.03,-0.06466,-0.103944,-1.17693,-0.07196,0.13426,0.49224
0.19392,0,0,14.8061,14.8061,15.1939,15.1939,-0.150435,-0.98526,2.16298,-0.00705808,-0.118835,-0.165701,1,0,3.64,0.5075,-1.3825,-0.06466,-0.103944,-1.17693,-0.07196,0.13426,0.49224
0.193073,0,0,14.8069,14.8069,15.1931,15.1931,-0.149822,-0.984866,2.16329,0.426396,0.209697,-0.214634,1,0,3.78,0.245,-0.805,0.370636,0.224236,-1.22549,-0.07196,0.13426,0.49224
0.194126,0,0,14.8059,14.8059,15.1941,15.1941,-0.150566,-0.98438,2.16449,0.426388,0.209684,-0.214634,1,0,3.0275,0.2975,-0.28,0.370636,0.224236,-1.22549,-0.07462,0.13048,0.49658
0.195757,0,0,14.8042,14.8042,15.1958,15.1958,-0.151723,-0.98443,2.16612,-0.0617411,0.281108,-0.140742,1,0,2.8,-0.0175,-0.035,-0.11956,0.295606,-1.15217,-0.07462,0.13048,0.49658
0.203919,0,0,14.7961,14.7961,15.2039,15.2039,-0.157544,-0.984479,2.16849,-0.0617403,0.281006,-0.140743,1,0,0.1925,-0.0175,0.4025,-0.11956,0.295606,-1.15217,-0.07462,0.13048,0.49658
0.210913,0,0,14.7891,14.7891,15.2109,15.2109,-0.162531,-0.984555,2.17138,-0.143499,-0.132602,-0.0977109,1,0,0.665,-0.035,0.7,-0.201666,-0.117486,-1.10947,-0.07462,0.13048,0.49658
0.215593,0,0,14.7844,14.7844,15.2156,15.2156,-0.165866,-0.985169,2.17436,-0.143488,-0.13266,-0.0977112,1,0,1.5925,-0.35,0.7525,-0.201666,-0.117486,-1.10947,-0.07462,0.13048,0.49658
0.339101,0,0,14.6609,14.6609,15.3391,15.3391,-0.254072,-1.39175,2.59414,-0.368431,0.0840417,0.0109454,0,0,2.765,-0.56,0.735,-0.434686,0.100528,-1.0015,-0.07462,0.13048,0.49658
0.45938,0,0,14.5406,14.5406,15.4594,15.4594,-0.339967,-1.78951,3.01385,-0.361492,0.0825442,0.0107449,0,0,3.3425,0.0875,0.4725,-0.434686,0.100528,-1.0015,-0.07462,0.13048,0.49658
0.254638,0,0,14.7454,14.7454,15.2546,15.2546,-0.193713,-1.44166,2.75406,0.270969,-0.124719,0.123303,0,0,3.9025,0.0175,0.525,0.206546,-0.109068,-0.88999,-0.07462,0.13048,0.49658
0.0544698,0,0,14.9455,14.9455,15.0545,15.0545,-0.0507328,-1.10179,2.49783,0.265038,-0.122224,0.12344,0,0,3.64,0.035,0.07,0.206546,-0.109068,-0.88999,-0.07266,0.12866,0.50708
-0.012969,0,0,15.013,15.013,14.987,14.987,-0.00256203,-0.648137,2.13183,0.361842,-0.0429783,0.144708,0,0,2.6075,-0.1225,-0.21,0.31171,-0.030744,-0.869006,-0.07266,0.12866,0.50708
-0.0788927,0,0,15.0789,15.0789,14.9211,14.9211,0.0445239,-0.202761,1.76591,0.354069,-0.0421565,0.144766,0,0,2.59,-0.0175,-0.8925,0.31171,-0.030744,-0.869006,-0.07266,0.12866,0.50708
0.225488,0,0,14.7745,14.7745,15.2255,15.2255,-0.172881,-0.233369,1.83053,-0.0195728,0.204409,0.00472109,0,0,1.8025,0.0175,-0.8575,-0.06405,0.219356,-1.00796,-0.07266,0.12866,0.50708
0.522244,0,0,14.4778,14.4778,15.5222,15.5222,-0.384829,-0.264188,1.89511,-0.0190349,0.20071,0.00470075,0,0,2.66,-0.525,-1.0325,-0.06405,0.219356,-1.00796,-0.07266,0.12866,0.50708
0.522496,0,0,14.4775,14.4775,15.5225,15.5225,-0.384989,-0.264903,1.89465,-0.114753,0.216828,0.310105,1,0,3.3425,-0.4025,-1.26,-0.160186,0.23546,-0.704916,-0.07266,0.12866,0.50708
0.522442,0,0,14.4776,14.4776,15.5224,15.5224,-0.384929,-0.264842,1.89405,-0.114754,0.216829,0.310105,1,0,3.465,0.0525,-1.33,-0.160186,0.23546,-0.704916,-0.07266,0.12866,0.50708
0.532182,0,0,14.4678,14.4678,15.5322,15.5322,-0.391866,-0.181823,1.85634,0.0755013,0.00774886,-0.0525885,0,0,3.6225,0.42,-1.0675,0.03233,0.026718,-1.06482,-0.07266,0.12866,0.50708
0.543427,0,0,14.4566,14.4566,15.5434,15.5434,-0.399877,-0.0997847,1.81181,0.0740694,0.00760903,-0.0525859,0,0,2.9575,0.91,-1.365,0.03233,0.026718,-1.06482,-0.0693,0.13258,0.49644
0.5446,0,0,14.4554,14.4554,15.5446,15.5446,-0.400693,-0.0990074,1.81121,-0.00235863,-0.144209,-0.196559,1,0,2.975,0.4725,-1.33,-0.044408,-0.124928,-1.20768,-0.0693,0.13258,0.49644
0.547388,0,0,14.4526,14.4526,15.5474,15.5474,-0.402663,-0.0979961,1.80989,-0.00237628,-0.144243,-0.196559,1,0,2.3275,0.6125,-1.75,-0.044408,-0.124928,-1.20768,-0.0693,0.13258,0.49644
0.5507,0,0,14.4493,14.4493,15.5507,15.5507,-0.405007,-0.0982415,1.80828,0.16625,-0.0434073,-0.269468,1,0,2.1175,-0.1225,-1.925,0.124928,-0.024156,-1.28002,-0.0693,0.13258,0.49644
0.550427,0,0,14.4496,14.4496,15.5504,15.5504,-0.40479,-0.0986987,1.80631,0.166258,-0.0434036,-0.269468,1,0,3.5525,-0.245,-2.135,0.124928,-0.024156,-1.28002,-0.0693,0.13258,0.49644
0.398871,0,0,14.6011,14.6011,15.3989,15.3989,-0.29652,-0.0888343,1.82332,0.00536039,-0.0970816,0.0613986,0,0,2.975,0.0875,-2.345,-0.036478,-0.079666,-0.951722,-0.0693,0.13258,0.49644
0.248644,0,0,14.7514,14.7514,15.2486,15.2486,-0.189205,-0.0786906,1.83987,0.00518335,-0.0952086,0.0614068,0,0,3.5525,0.4025,-2.59,-0.036478,-0.079666,-0.951722,-0.0693,0.13258,0.49644
0.325642,0,0,14.6744,14.6744,15.3256,15.3256,-0.24419,-0.38239,2.14582,-0.263831,0.0502618,0.0386364,0,0,3.5,0.7,-2.5725,-0.311954,0.066612,-0.974292,-0.0693,0.13258,0.49644
0.399742,0,0,14.6003,14.6003,15.3997,15.3997,-0.297103,-0.683284,2.4612,-0.258579,0.0493385,0.0385832,0,0,4.235,0.4725,-2.73,-0.311954,0.066612,-0.974292,-0.07462,0.12628,0.49266
0.155759,0,0,14.8442,14.8442,15.1558,15.1558,-0.122823,-0.560435,2.39263,0.0987527,-0.163418,0.0147656,0,0,3.78,0.1225,-2.8875,0.049044,-0.148962,-0.99796,-0.07462,0.12628,0.49266
-0.0828866,0,0,15.0829,15.0829,14.9171,14.9171,0.0476358,-0.440282,2.32494,0.0966557,-0.160443,0.0147858,0,0,3.43,0.07,-2.8175,0.049044,-0.148962,-0.99796,-0.07462,0.12628,0.49266
-0.0762505,0,0,15.0763,15.0763,14.9237,14.9237,0.0428934,-0.392832,2.32344,0.0410375,0.00568873,0.0117182,0,0,4.0775,-0.1925,-2.45,-0.005978,0.01708,-1.00101,-0.07462,0.12628,0.49266
-0.0677598,0,0,15.0678,15.0678,14.9322,14.9322,0.0368266,-0.346448,2.32224,0.040228,0.00558285,0.0117235,0,0,3.29,-0.2625,-2.275,-0.005978,0.01708,-1.00101,-0.07462,0.12628,0.49266
-0.0671535,0,0,15.0672,15.0672,14.9328,14.9328,0.0363916,-0.346861,2.32098,0.134873,-0.0339938,0.121639,1,0,3.185,-0.2275,-1.715,0.08906,-0.022448,-0.891942,-0.07462,0.12628,0.49266
-0.0640923,0,0,15.0641,15.0641,14.9359,14.9359,0.0342032,-0.346049,2.32063,0.134858,-0.034032,0.12164,1,0,2.205,0.49,-1.19,0.08906,-0.022448,-0.891942,-0.07462,0.12628,0.49266
-0.0625429,0,0,15.0625,15.0625,14.9375,14.9375,0.0330947,-0.345747,2.32235,0.0365712,-0.0131677,0.253932,1,0,2.8175,0.1925,0.0175,-0.009638,-0.001586,-0.76067,-0.07462,0.12628,0.49266
-0.0634327,0,0,15.0634,15.0634,14.9366,14.9366,0.0337285,-0.346968,2.32502,0.0365925,-0.0131566,0.253932,1,0,3.7975,-0.7,0.5775,-0.009638,-0.001586,-0.76067,-0.07462,0.12628,0.49266
-0.0630408,0,0,15.063,15.063,14.937,14.937,0.0334468,-0.346876,2.32938,-0.0354501,0.0936994,0.296103,1,0,3.29,0.07,1.5575,-0.081984,0.105164,-0.718824,-0.07308,0.13034,0.49392
0.333103,0,0,14.6669,14.6669,15.3331,15.3331,-0.249499,-0.433224,2.45042,-0.0573899,0.244351,0.129857,0,0,5.2325,-0.6125,1.8375,-0.10553,0.260592,-0.883768,-0.07308,0.13034,0.49392
0.720463,0,0,14.2795,14.2795,15.7205,15.7205,-0.526157,-0.516348,2.57272,-0.0559391,0.239522,0.129813,0,0,5.985,0.2275,2.0825,-0.10553,0.260592,-0.883768,-0.07308,0.13034,0.49392
0.714645,0,0,14.2854,14.2854,15.7146,15.7146,-0.521973,-0.515988,2.57893,-0.0871672,0.0495662,0.155756,1,0,5.81,0.1925,2.6425,-0.136884,0.07076,-0.858026,-0.07308,0.13034,0.49392
0.711574,0,0,14.2884,14.2884,15.7116,15.7116,-0.519752,-0.515781,2.58469,-0.0871708,0.049605,0.155756,1,0,4.7075,0.105,2.38,-0.136884,0.07076,-0.858026,-0.07308,0.13034,0.49392
0.64344,0,0,14.3566,14.3566,15.6434,15.6434,-0.471059,-0.259606,2.39248,0.224464,-0.0456592,0.0121897,0,0,3.815,0.3325,2.065,0.18056,-0.025254,-1.00052,-0.07308,0.13034,0.49392
0.578604,0,0,14.4214,14.4214,15.5786,15.5786,-0.424725,-0.00929619,2.20025,0.220095,-0.0448507,0.0122063,0,0,3.01,-0.175,1.6625,0.18056,-0.025254,-1.00052,-0.07308,0.13034,0.49392
0.579693,0,0,14.4203,14.4203,15.5797,15.5797,-0.425481,-0.00932676,2.20352,0.0157568,-0.0242244,-0.176028,1,0,3.01,-0.0175,0.9275,-0.024644,-0.004636,-1.1873,-0.07308,0.13034,0.49392
0.57982,0,0,14.4202,14.4202,15.5798,15.5798,-0.425549,-0.00934458,2.20449,0.0157571,-0.0242256,-0.176028,1,0,3.395,0,-0.42,-0.024644,-0.004636,-1.1873,-0.07252,0.12978,0.49434
0.57951,0,0,14.4205,14.4205,15.5795,15.5795,-0.425305,-0.00916265,2.20419,-0.0526425,0.121109,-0.105087,1,0,3.57,0.1225,-1.155,-0.09333,0.140544,-1.11691,-0.07252,0.12978,0.49434
0.575966,0,0,14.424,14.424,15.576,15.576,-0.42275,-0.008136,2.20098,-0.0526604,0.121154,-0.105086,1,0,4.865,0.63,-2.8525,-0.09333,0.140544,-1.11691,-0.07252,0.12978,0.49434
0.57264,0,0,14.4274,14.4274,15.5726,15.5726,-0.420352,-0.00798009,2.19715,0.180832,0.189098,-0.142216,1,0,4.7775,0.1225,-3.22,0.141154,0.208376,-1.15375,-0.07252,0.12978,0.49434
0.571279,0,0,14.4287,14.4287,15.5713,15.5713,-0.419358,-0.00811181,2.19074,0.180835,0.189116,-0.142216,1,0,3.99,-0.035,-4.725,0.141154,0.208376,-1.15375,-0.07252,0.12978,0.49434
0.890906,0,0,14.1091,14.1091,15.8909,15.8909,-0.647628,0.2899,1.93878,0.290316,0.234227,-0.00788349,0,0,3.6225,-0.42,-5.18,0.256322,0.25742,-1.02041,-0.07252,0.12978,0.49434
1.2056,0,0,13.7944,13.7944,16.2056,16.2056,-0.872363,0.5837,1.68376,0.285188,0.230306,-0.0079746,0,0,3.4825,0.2625,-5.88,0.256322,0.25742,-1.02041,-0.07252,0.12978,0.49434
1.20378,0,0,13.7962,13.7962,16.2038,16.2038,-0.871015,0.583939,1.6756,-0.179742,-0.154737,-0.0795303,1,0,4.235,0.2275,-5.74,-0.210572,-0.127246,-1.09141,-0.07252,0.12978,0.49434
1.2023,0,0,13.7977,13.7977,16.2023,16.2023,-0.869914,0.584752,1.66783,-0.179756,-0.154717,-0.0795302,1,0,4.095,0.56,-5.5125,-0.210572,-0.127246,-1.09141,-0.07406,0.1253,0.49378
1.19968,0,0,13.8003,13.8003,16.1997,16.1997,-0.867992,0.584533,1.66094,-0.166875,-0.0788431,-0.120717,1,0,4.55,-0.0525,-5.005,-0.19764,-0.051484,-1.13228,-0.07406,0.1253,0.49378
1.20169,0,0,13.7983,13.7983,16.2017,16.2017,-0.869385,0.585727,1.65658,-0.166895,-0.0788674,-0.120718,1,0,2.6775,0.7525,-3.5175,-0.19764,-0.051484,-1.13228,-0.07406,0.1253,0.49378
1.20657,0,0,13.7934,13.7934,16.2066,16.2066,-0.872822,1.08373,1.21872,0.442168,0.00155611,0.101937,0,0,3.8325,0.1575,-2.6075,0.42273,0.028914,-0.911218,-0.07406,0.1253,0.49378
1.21388,0,0,13.7861,13.7861,16.2139,16.2139,-0.877996,1.57185,0.784221,0.433651,0.00146885,0.101738,0,0,2.94,-0.525,-0.9275,0.42273,0.028914,-0.911218,-0.07406,0.1253,0.49378
1.21698,0,0,13.783,13.783,16.217,16.217,-0.880165,1.57193,0.785006,0.258225,-0.241968,0.309152,1,0,2.205,0.0525,-0.525,0.246562,-0.214232,-0.705404,-0.07406,0.1253,0.49378
1.21816,0,0,13.7818,13.7818,16.2182,16.2182,-0.880956,1.57258,0.788243,0.258213,-0.241981,0.309151,1,0,2.94,0.3675,0.91,0.246562,-0.214232,-0.705404,-0.07406,0.1253,0.49378
1.22238,0,0,13.7776,13.7776,16.2224,16.2224,-0.883925,1.57388,0.79288,-0.21208,-0.0720327,0.17489,1,0,1.6975,0.735,1.7325,-0.2257,-0.044408,-0.838628,-0.07406,0.1253,0.49378
1.22284,0,0,13.7772,13.7772,16.2228,16.2228,-0.88421,1.57431,0.798611,-0.212088,-0.0720377,0.17489,1,0,3.185,0.21,2.3625,-0.2257,-0.044408,-0.838628,-0.07196,0.12684,0.48874
1.22298,0,0,13.777,13.777,16.223,16.223,-0.88426,1.57298,0.804939,-0.172582,0.304722,-0.0727277,1,0,3.3075,-0.8225,2.695,-0.18605,0.331962,-1.08434,-0.07196,0.12684,0.48874
1.22225,0,0,13.7777,13.7777,16.2223,16.2223,-0.883694,1.57327,0.812112,-0.172587,0.304732,-0.0727277,1,0,3.64,0.1225,3.2025,-0.18605,0.331962,-1.08434,-0.07196,0.12684,0.48874
1.21743,0,0,13.7826,13.7826,16.2174,16.2174,-0.880198,1.57338,0.819138,0.0933434,0.00778104,-0.192356,1,0,5.285,0.0175,3.115,0.081008,0.035258,-1.20304,-0.07196,0.12684,0.48874
1.2138,0,0,13.7862,13.7862,16.2138,16.2138,-0.877562,1.57338,0.824425,0.0933435,0.00782704,-0.192355,1,0,4.83,-0.035,2.1,0.081008,0.035258,-1.20304,-0.07196,0.12684,0.48874
1.2096,0,0,13.7904,13.7904,16.2096,16.2096,-0.874517,1.57252,0.828645,0.23902,-0.272645,-0.118339,1,0,5.075,-0.525,1.47,0.227286,-0.244976,-1.1296,-0.07196,0.12684,0.48874
1.21017,0,0,13.7898,13.7898,16.2102,16.2102,-0.874877,1.5725,0.830543,0.23902,-0.272651,-0.118339,1,0,3.2025,-0.0175,0.1225,0.227286,-0.244976,-1.1296,-0.07196,0.12684,0.48874
1.21247,0,0,13.7875,13.7875,16.2125,16.2125,-0.876474,1.57183,0.831699,0.156422,-0.122219,-0.144896,1,0,2.52,-0.385,-0.315,0.144326,-0.094672,-1.15595,-0.07196,0.12684,0.48874
1.21609,0,0,13.7839,13.7839,16.2161,16.2161,-0.879008,1.57077,0.830552,0.15644,-0.122263,-0.144896,1,0,2.03,-0.595,-1.6625,0.144326,-0.094672,-1.15595,-0.07126,0.12376,0.49308
1.22241,0,0,13.7776,13.7776,16.2224,16.2224,-0.883477,1.56985,0.828262,-0.38537,0.141453,0.193458,1,0,0.9625,-0.5075,-2.3275,-0.399794,0.168848,-0.820206,-0.07126,0.12376,0.49308
1.22775,0,0,13.7722,13.7722,16.2278,16.2278,-0.887246,1.56925,0.824197,-0.38536,0.141387,0.193457,1,0,1.3825,-0.2975,-3.36,-0.399794,0.168848,-0.820206,-0.07126,0.12376,0.49308
1.23334,0,0,13.7667,13.7667,16.2333,16.2333,-0.891187,1.56921,0.819554,0.215509,-0.00474549,-0.118096,1,0,1.295,0.035,-3.6925,0.203618,0.022936,-1.12935,-0.07126,0.12376,0.49308
1.23341,0,0,13.7666,13.7666,16.2334,16.2334,-0.891191,1.57021,0.813934,0.215492,-0.00474554,-0.118096,1,0,3.5175,0.6475,-4.2525,0.203618,0.022936,-1.12935,-0.07126,0.12376,0.49308
1.2311,0,0,13.7689,13.7689,16.2311,16.2311,-0.88949,1.56978,0.808997,0.3676,0.157224,-0.208463,1,0,4.4625,-0.1925,-3.8675,0.356362,0.184708,-1.21902,-0.07126,0.12376,0.49308
1.22776,0,0,13.7722,13.7722,16.2278,16.2278,-0.887062,1.56965,0.804384,0.367602,0.157267,-0.208462,1,0,4.865,-0.0175,-3.675,0.356362,0.184708,-1.21902,-0.07126,0.12376,0.49308
1.60345,0,0,13.3965,13.3965,16.6035,16.6035,-1.15535,1.40358,0.962365,-0.140713,0.243692,0.0998846,0,0,5.7575,1.155,-3.885,-0.157014,0.27572,-0.913048,-0.07126,0.12376,0.49308
1.97605,0,0,13.0239,13.0239,16.9761,16.9761,-1.42142,1.23969,1.12431,-0.137853,0.239049,0.0998462,0,0,4.3575,0.63,-2.45,-0.157014,0.27572,-0.913048,-0.07126,0.12376,0.49308
1.75756,0,0,13.2424,13.2424,16.7576,16.7576,-1.26528,0.652655,1.68237,-0.570788,-0.166012,0.0929482,0,0,3.9025,1.7325,-2.065,-0.60207,-0.131638,-0.920124,-0.07448,0.12978,0.48468
1.76395,0,0,13.2361,13.2361,16.7639,16.7639,-1.26978,0.653833,1.68271,0.316887,-0.0559326,-0.0777063,1,0,0.91,0.7,-0.77,0.289384,-0.021594,-1.08946,-0.07448,0.12978,0.48468
1.77456,0,0,13.2254,13.2254,16.7746,16.7746,-1.27729,0.65369,1.68413,0.316889,-0.0560637,-0.0777092,1,0,-0.7875,-0.0875,-0.1575,0.289384,-0.021594,-1.08946,-0.07448,0.12978,0.48468
1.78185,0,0,13.2182,13.2182,16.7818,16.7818,-1.28243,0.653944,1.68593,-0.035302,-0.171685,0.267159,1,0,0.5425,0.14,0.07,-0.064294,-0.137006,-0.74725,-0.07448,0.12978,0.48468
1.78706,0,0,13.2129,13.2129,16.7871,16.7871,-1.28608,0.65342,1.68901,-0.0352929,-0.171749,0.267158,1,0,1.365,-0.3325,0.805,-0.064294,-0.137006,-0.74725,-0.07448,0.12978,0.48468
1.78913,0,0,13.2109,13.2109,16.7891,16.7891,-1.28749,0.654329,1.692,-0.205389,0.07822,0.137447,1,0,2.625,0.5075,0.77,-0.235094,0.112728,-0.87596,-0.07448,0.12978,0.48468
1.78883,0,0,13.2112,13.2112,16.7888,16.7888,-1.28721,0.654375,1.69515,-0.20539,0.0782249,0.137447,1,0,3.57,0,0.8575,-0.235094,0.112728,-0.87596,-0.07448,0.12978,0.48468
1.84623,0,0,13.1538,13.1538,16.8462,16.8462,-1.32814,0.445518,1.91281,-0.19324,0.0440472,-0.0219989,0,0,5.3725,0.035,0.7,-0.226554,0.0793,-1.03419,-0.07448,0.12978,0.48468
1.90478,0,0,13.0952,13.0952,16.9048,16.9048,-1.36989,0.241642,2.13438,-0.189682,0.0433182,-0.0219947,0,0,4.515,-0.1575,-0.21,-0.226554,0.0793,-1.03419,-0.06944,0.12572,0.48804
1.90633,0,0,13.0937,13.0937,16.9063,16.9063,-1.37092,0.241798,2.13571,0.358823,-0.282412,-0.0471996,1,0,2.8525,0.0875,-0.21,0.324276,-0.246074,-1.0592,-0.06944,0.12572,0.48804
1.90889,0,0,13.0911,13.0911,16.9089,16.9089,-1.37267,0.241983,2.13574,0.35882,-0.282442,-0.0472003,1,0,2.45,0.1225,-0.9625,0.324276,-0.246074,-1.0592,-0.06944,0.12572,0.48804
1.91179,0,0,13.0882,13.0882,16.9118,16.9118,-1.37467,0.239923,2.13564,-0.153328,0.201145,-0.326171,1,0,2.31,-1.19,-1.0675,-0.190076,0.237046,-1.33602,-0.06944,0.12572,0.48804
1.91462,0,0,13.0854,13.0854,16.9146,16.9146,-1.37662,0.237465,2.13508,-0.153285,0.201111,-0.326172,1,0,2.345,-1.4175,-1.3475,-0.190076,0.237046,-1.33602,-0.06944,0.12572,0.48804
1.54723,0,0,13.4528,13.4528,16.5472,16.5472,-1.11414,0.216557,2.1849,-0.026818,-0.25546,0.0282668,0,0,1.7325,-0.35,-1.5925,-0.06344,-0.223626,-0.984418,-0.06944,0.12572,0.48804
1.18445,0,0,13.8155,13.8155,16.1845,16.1845,-0.854963,0.19554,2.23363,-0.0264512,-0.250937,0.0283458,0,0,2.45,-0.525,-2.0125,-0.06344,-0.223626,-0.984418,-0.06944,0.12572,0.48804
0.967161,0,0,14.0328,14.0328,15.9672,15.9672,-0.699718,0.528353,1.95249,0.301583,-0.15248,0.0327721,0,0,3.8675,-0.7875,-2.31,0.271816,-0.127978,-0.980026,-0.06944,0.12572,0.48804
0.753999,0,0,14.246,14.246,15.754,15.754,-0.54743,0.857108,1.67627,0.295845,-0.149822,0.0327316,0,0,3.745,-0.1925,-2.0125,0.271816,-0.127978,-0.980026,-0.0707,0.12432,0.4823
0.756829,0,0,14.2432,14.2432,15.7568,15.7568,-0.549422,0.856741,1.6749,0.116296,0.0321123,0.323505,1,0,2.3275,-0.1925,-1.785,0.0915,0.053802,-0.691496,-0.0707,0.12432,0.4823
0.759269,0,0,14.2407,14.2407,15.7593,15.7593,-0.551135,0.857927,1.67343,0.116275,0.0320824,0.323504,1,0,2.485,0.7175,-1.8375,0.0915,0.053802,-0.691496,-0.0707,0.12432,0.4823
0.846246,0,0,14.1538,14.1538,15.8462,15.8462,-0.613229,0.925928,1.63403,0.0632142,0.0616528,-0.0122979,0,0,3.815,0.1225,-1.365,0.039406,0.084424,-1.02468,-0.0707,0.12432,0.4823
0.930581,0,0,14.0694,14.0694,15.9306,15.9306,-0.673432,0.993842,1.59471,0.0620291,0.0606025,-0.0123295,0,0,4.2525,0.8225,-1.295,0.039406,0.084424,-1.02468,-0.0707,0.12432,0.4823
0.927416,0,0,14.0726,14.0726,15.9274,15.9274,-0.671135,0.99423,1.59426,0.192376,0.000434104,0.128816,1,0,4.725,0.245,-1.2425,0.170312,0.024278,-0.884622,-0.0707,0.12432,0.4823
0.925843,0,0,14.0742,14.0742,15.9258,15.9258,-0.669976,0.994212,1.59484,0.192377,0.000454333,0.128816,1,0,4.0775,0,-0.6475,0.170312,0.024278,-0.884622,-0.0707,0.12432,0.4823
0.756319,0,0,14.2437,14.2437,15.7563,15.7563,-0.548858,1.10741,1.51546,0.0875031,-0.105514,0.0924095,0,0,4.865,0.7875,-0.7525,0.066978,-0.083692,-0.920734,-0.0707,0.12432,0.4823
0.591971,0,0,14.408,14.408,15.592,15.592,-0.431443,1.21775,1.43468,0.0855776,-0.103465,0.0923879,0,0,4.0075,0.665,-0.42,0.066978,-0.083692,-0.920734,-0.07056,0.12586,0.48818
0.583972,0,0,14.416,14.416,15.584,15.584,-0.425707,1.12327,1.53979,-0.0874702,-0.00810621,-0.0221657,0,0,2.1175,0.9975,-0.7875,-0.108458,0.011468,-1.03444,-0.07056,0.12586,0.48818
0.577882,0,0,14.4221,14.4221,15.5779,15.5779,-0.421335,1.02967,1.64453,-0.0858368,-0.00803014,-0.0221344,0,0,1.4175,0.4375,-0.8925,-0.108458,0.011468,-1.03444,-0.07056,0.12586,0.48818
0.3208,0,0,14.6792,14.6792,15.3208,15.3208,-0.237692,1.18272,1.52489,0.127494,-0.175192,0.0530769,0,0,1.7325,0.4025,-0.8225,0.108458,-0.158722,-0.959774,-0.07056,0.12586,0.48818
0.0664288,0,0,14.9336,14.9336,15.0664,15.0664,-0.055995,1.3331,1.40534,0.12487,-0.172022,0.0530274,0,0,2.4675,0.6125,-1.3825,0.108458,-0.158722,-0.959774,-0.07056,0.12586,0.48818
0.0669448,0,0,14.9331,14.9331,15.0669,15.0669,-0.0563606,1.33287,1.40463,0.0998481,-0.0860507,0.179296,1,0,3.2375,-0.1225,-1.4,0.083326,-0.072834,-0.83448,-0.07056,0.12586,0.48818
0.064959,0,0,14.935,14.935,15.065,15.065,-0.0549392,1.33224,1.40425,0.0998589,-0.0860259,0.179296,1,0,4.235,-0.35,-1.2075,0.083326,-0.072834,-0.83448,-0.07056,0.12586,0.48818
0.474593,0,0,14.5254,14.5254,15.4746,15.4746,-0.347516,1.33617,1.40938,0.00891911,0.309445,-0.0420309,0,0,4.3575,0.2625,-1.5925,-0.00793,0.327326,-1.05408,-0.07056,0.12586,0.48818
0.878299,0,0,14.1217,14.1217,15.8783,15.8783,-0.635844,1.3398,1.4131,0.00885574,0.304414,-0.0420755,0,0,3.885,-0.28,-1.1725,-0.00793,0.327326,-1.05408,-0.07462,0.12782,0.48888
0.874281,0,0,14.1257,14.1257,15.8743,15.8743,-0.63294,1.33938,1.41206,-0.153563,0.0482429,-0.312316,1,0,5.075,-0.2275,-1.5925,-0.171044,0.07137,-1.32224,-0.07462,0.12782,0.48888
0.871473,0,0,14.1285,14.1285,15.8715,15.8715,-0.6309,1.33824,1.41142,-0.153543,0.0482785,-0.312315,1,0,4.585,-0.6475,-1.365,-0.171044,0.07137,-1.32224,-0.07462,0.12782,0.48888
0.582914,0,0,14.4171,14.4171,15.5829,15.5829,-0.424764,1.16437,1.58404,-0.148566,-0.186761,0.0920393,0,0,3.71,-0.175,-0.98,-0.169092,-0.167018,-0.9211,-0.07462,0.12782,0.48888
0.3004,0,0,14.6996,14.6996,15.3004,15.3004,-0.222957,0.99303,1.7556,-0.145576,-0.18324,0.0921155,0,0,3.3075,-0.595,-0.665,-0.169092,-0.167018,-0.9211,-0.07462,0.12782,0.48888
0.921283,0,0,14.0787,14.0787,15.9213,15.9213,-0.666409,0.83739,1.91186,-0.141888,0.464476,0.0279197,0,0,2.2925,-0.7,-0.4375,-0.168116,0.487756,-0.984784,-0.07462,0.12782,0.48888
1.53389,0,0,13.4661,13.4661,16.5339,16.5339,-1.10392,0.686014,2.07031,-0.139246,0.456841,0.0278369,0,0,1.645,0.245,-0.56,-0.168116,0.487756,-0.984784,-0.07462,0.12782,0.48888
1.53579,0,0,13.4642,13.4642,16.5358,16.5358,-1.10523,0.68634,2.07145,0.267725,-0.342746,-0.135808,1,0,2.695,0.1925,-0.315,0.240584,-0.310978,-1.14717,-0.07462,0.12782,0.48888
1.53583,0,0,13.4642,13.4642,16.5358,16.5358,-1.10519,0.687015,2.07213,0.267714,-0.342745,-0.135808,1,0,3.4475,0.4025,-0.5775,0.240584,-0.310978,-1.14717,-0.07462,0.12782,0.48888
1.53279,0,0,13.4672,13.4672,16.5328,16.5328,-1.10297,0.684446,2.07345,0.507571,0.0949957,0.0227966,1,0,4.6725,-1.505,-0.245,0.481412,0.12627,-0.989786,-0.07644,0.13272,0.49462
1.52974,0,0,13.4703,13.4703,16.5297,16.5297,-1.10072,0.683766,2.07353,0.507583,0.0950349,0.0227975,1,0,4.69,-0.385,-0.945,0.481412,0.12627,-0.989786,-0.07644,0.13272,0.49462
1.62654,0,0,13.3735,13.3735,16.6265,16.6265,-1.16981,0.68722,2.08527,0.00566534,0.076976,-0.0718974,0,0,5.32,-0.0875,-1.365,-0.02257,0.109434,-1.08373,-0.07644,0.13272,0.49462
1.72249,0,0,13.2775,13.2775,16.7225,16.7225,-1.23827,0.690337,2.09745,0.00561094,0.0757814,-0.0719232,0,0,4.97,-0.2625,-1.12,-0.02257,0.109434,-1.08373,-0.07644,0.13272,0.49462
1.71924,0,0,13.2808,13.2808,16.7192,16.7192,-1.23589,0.690558,2.0964,-0.432349,0.363431,-0.0823729,1,0,4.7775,0.1575,-1.5925,-0.46238,0.396744,-1.0941,-0.07644,0.13272,0.49462
1.72147,0,0,13.2785,13.2785,16.7215,16.7215,-1.23741,0.691037,2.09481,-0.432357,0.363405,-0.0823736,1,0,2.59,0.315,-1.9075,-0.46238,0.396744,-1.0941,-0.07644,0.13272,0.49462
1.85478,0,0,13.1452,13.1452,16.8548,16.8548,-1.33256,0.910833,1.9057,0.180347,0.0814651,0.107983,0,0,2.87,1.1725,-2.2225,0.15677,0.116754,-0.905118,-0.07644,0.13272,0.49462
1.98128,0,0,13.0187,13.0187,16.9813,16.9813,-1.42284,1.12541,1.71631,0.176602,0.0798917,0.107878,0,0,4.7075,0.49,-2.17,0.15677,0.116754,-0.905118,-0.07644,0.13272,0.49462
1.50812,0,0,13.4919,13.4919,16.5081,16.5081,-1.08481,1.11084,1.74298,-0.0187353,-0.349593,-0.0144443,0,0,3.43,-0.315,-1.82,-0.03965,-0.318176,-1.02663,-0.07238,0.12824,0.48804
1.51013,0,0,13.4899,13.4899,16.5101,16.5101,-1.08619,1.11234,1.74131,-0.0518056,-0.200256,0.26723,1,0,2.6775,0.91,-1.9425,-0.072834,-0.16897,-0.747128,-0.07238,0.12824,0.48804
1.51205,0,0,13.488,13.488,16.512,16.512,-1.0875,1.11325,1.74007,-0.0518214,-0.200279,0.267229,1,0,2.7125,0.56,-1.6975,-0.072834,-0.16897,-0.747128,-0.07238,0.12824,0.48804
1.51297,0,0,13.487,13.487,16.513,16.513,-1.0881,1.1131,1.73999,0.180705,0.0600848,-0.172927,1,0,3.0975,-0.07,-1.0325,0.160674,0.091134,-1.18389,-0.07238,0.12824,0.48804
1.51252,0,0,13.4875,13.4875,16.5125,16.5125,-1.08772,1.11243,1.74052,0.180716,0.0600914,-0.172926,1,0,3.64,-0.385,-0.6825,0.160674,0.091134,-1.18389,-0.07238,0.12824,0.48804
1.25741,0,0,13.7426,13.7426,16.2574,16.2574,-0.905452,1.41512,1.47452,0.28295,-0.183789,0.0161072,0,0,4.2,-0.1575,-0.5775,0.268644,-0.155672,-0.996252,-0.07238,0.12824,0.48804
1.0053,0,0,13.9947,13.9947,16.0053,16.0053,-0.725334,1.71374,1.21111,0.27774,-0.180645,0.0160096,0,0,4.7425,0.735,-0.2975,0.268644,-0.155672,-0.996252,-0.07238,0.12824,0.48804
1.0001,0,0,13.9999,13.9999,16.0001,16.0001,-0.721582,1.71478,1.21257,-0.191942,0.190686,-0.289517,1,0,5.5125,0.6125,-0.1225,-0.203008,0.215208,-1.29942,-0.07238,0.12824,0.48804
1.00094,0,0,13.9991,13.9991,16.0009,16.0009,-0.722148,1.71487,1.21471,-0.191944,0.190676,-0.289517,1,0,3.08,0.0525,0.2625,-0.203008,0.215208,-1.29942,-0.07098,0.13048,0.49224
1.0049,0,0,13.9951,13.9951,16.0049,16.0049,-0.724933,1.71517,1.21675,0.101439,-0.210803,-0.169643,1,0,1.8375,0.175,0.21,0.091622,-0.185806,-1.18047,-0.07098,0.13048,0.49224
1.00726,0,0,13.9927,13.9927,16.0073,16.0073,-0.726585,1.71443,1.21907,0.101452,-0.210832,-0.169643,1,0,2.4675,-0.4375,0.3675,0.091622,-0.185806,-1.18047,-0.07098,0.13048,0.49224
1.01195,0,0,13.9881,13.9881,16.0119,16.0119,-0.729892,1.71395,1.22143,0.0780135,0.161108,-0.191037,1,0,1.54,-0.28,0.385,0.068076,0.185806,-1.2017,-0.07098,0.13048,0.49224
1.01224,0,0,13.9878,13.9878,16.0122,16.0122,-0.730059,1.7128,1.22229,0.0780336,0.161106,-0.191036,1,0,3.325,-0.665,-0.49,0.068076,0.185806,-1.2017,-0.07098,0.13048,0.49224
1.01269,0,0,13.9873,13.9873,16.0127,16.0127,-0.730344,1.71166,1.22339,-0.171478,0.315957,-0.120955,1,0,3.255,-0.665,-0.35,-0.182512,0.340502,-1.13216,-0.07098,0.13048,0.49224
1.01064,0,0,13.9894,13.9894,16.0106,16.0106,-0.728843,1.7107,1.2226,-0.171461,0.315983,-0.120954,1,0,4.2875,-0.5425,-1.4525,-0.182512,0.340502,-1.13216,-0.07098,0.13048,0.49224
1.00715,0,0,13.9929,13.9929,16.0071,16.0071,-0.726308,1.70902,1.22197,0.271748,-0.121919,-0.124026,1,0,4.865,-0.9625,-1.365,0.262544,-0.09699,-1.13521,-0.07098,0.13048,0.49224
1.00716,0,0,13.9928,13.9928,16.0072,16.0072,-0.72628,1.71023,1.21998,0.271727,-0.121918,-0.124027,1,0,3.4825,0.735,-2.135,0.262544,-0.09699,-1.13521,-0.07448,0.12852,0.4872
1.00648,0,0,13.9935,13.9935,16.0065,16.0065,-0.725748,1.71028,1.21704,0.238074,-0.288978,-0.0657494,1,0,3.78,0.07,-2.695,0.22875,-0.263886,-1.07738,-0.07448,0.12852,0.4872
1.00579,0,0,13.9942,13.9942,16.0058,16.0058,-0.725217,1.71034,1.21411,0.238073,-0.288969,-0.0657493,1,0,3.78,0.07,-2.695,0.22875,-0.263886,-1.07738,-0.07448,0.12852,0.4872
1.00646,0,0,13.9935,13.9935,16.0065,16.0065,-0.725663,1.70966,1.2119,0.167623,0.0541991,-0.0926748,1,0,3.22,-0.3675,-2.275,0.15799,0.078934,-1.1041,-0.07448,0.12852,0.4872
1.00714,0,0,13.9929,13.9929,16.0071,16.0071,-0.726109,1.70898,1.2097,0.167635,0.0541914,-0.0926745,1,0,3.22,-0.3675,-2.275,0.15799,0.078934,-1.1041,-0.07448,0.12852,0.4872
1.05555,0,0,13.9445,13.9445,16.0555,16.0555,-0.760642,1.82246,1.10739,0.106249,0.0347823,-0.0225398,0,0,3.2725,0.21,-1.96,0.098332,0.060146,-1.03444,-0.07448,0.12852,0.4872
1.10313,0,0,13.8969,13.8969,16.1031,16.1031,-0.79459,1.9338,1.00511,0.104307,0.034191,-0.0226115,0,0,3.2725,0.21,-1.96,0.098332,0.060146,-1.03444,-0.07448,0.12852,0.4872
1.1062,0,0,13.8938,13.8938,16.1062,16.1062,-0.796734,1.92655,1.00555,0.00639436,-0.592112,-0.0715413,1,0,2.2225,-4.235,-0.7875,-0.000122,-0.56547,-1.08299,-0.07448,0.12852,0.4872
1.10926,0,0,13.8907,13.8907,16.1093,16.1093,-0.798879,1.9193,1.00598,0.0065208,-0.59215,-0.0715375,1,0,2.2225,-4.235,-0.7875,-0.000122,-0.56547,-1.08299,-0.07224,0.13076,0.49112
1.11418,0,0,13.8858,13.8858,16.1142,16.1142,-0.802349,1.91902,1.00693,-0.0423116,-0.0868499,-0.129078,1,0,1.47,-0.1575,-0.4375,-0.049166,-0.060634,-1.14009,-0.07224,0.13076,0.49112
1.11909,0,0,13.8809,13.8809,16.1191,16.1191,-0.805819,1.91874,1.00787,-0.0423067,-0.0869105,-0.129079,1,0,1.47,-0.1575,-0.4375,-0.049166,-0.060634,-1.14009,-0.07224,0.13076,0.49112
1.12152,0,0,13.8785,13.8785,16.1215,16.1215,-0.807508,1.91824,1.0098,0.0890282,-0.0261208,-0.181209,1,0,2.45,-0.2975,0.14,0.082716,0.000122,-1.19182,-0.07224,0.13076,0.49112
1.12394,0,0,13.8761,13.8761,16.1239,16.1239,-0.809197,1.91773,1.01173,0.089037,-0.0261503,-0.181209,1,0,2.45,-0.2975,0.14,0.082716,0.000122,-1.19182,-0.07224,0.13076,0.49112
1.12438,0,0,13.8756,13.8756,16.1244,16.1244,-0.809462,1.91801,1.01423,0.147102,0.342546,-0.303174,1,0,3.2375,0.1575,0.4725,0.141032,0.36844,-1.31284,-0.07224,0.13076,0.49112
1.01485,0,0,13.9852,13.9852,16.0148,16.0148,-0.731186,1.89058,1.03993,-0.0240785,-0.0810902,-0.0874884,0,0,3.9725,-0.035,0.2275,-0.031354,-0.05612,-1.09885,-0.07224,0.13076,0.49112
0.910845,0,0,14.0892,14.0892,15.9108,15.9108,-0.656865,1.86437,1.06423,-0.0236214,-0.0797941,-0.0874577,0,0,2.555,0.385,-0.49,-0.031354,-0.05612,-1.09885,-0.07224,0.13076,0.49112
0.792778,0,0,14.2072,14.2072,15.7928,15.7928,-0.572501,1.90616,1.02732,0.0397942,-0.0869933,-0.0296801,0,0,2.3275,0.21,-0.7525,0.033062,-0.064782,-1.04151,-0.07028,0.12936,0.49266
0.79477,0,0,14.2052,14.2052,15.7948,15.7948,-0.573894,1.90589,1.02691,-0.173166,-0.0123981,0.202201,1,0,2.66,-0.14,-1.225,-0.180804,0.00976,-0.811422,-0.07028,0.12936,0.49266
0.797787,0,0,14.2022,14.2022,15.7978,15.7978,-0.576017,1.90686,1.02517,-0.173182,-0.0124351,0.2022,1,0,2.275,0.595,-1.995,-0.180804,0.00976,-0.811422,-0.07028,0.12936,0.49266
0.798659,0,0,14.2013,14.2013,15.7987,15.7987,-0.576609,1.90661,1.02349,-0.0377216,0.0149109,-0.100622,1,0,3.1325,-0.1225,-1.96,-0.044774,0.037088,-1.11191,-0.07028,0.12936,0.49266
0.799938,0,0,14.2001,14.2001,15.7999,15.7999,-0.577492,1.90692,1.02152,-0.037727,0.0148955,-0.100623,1,0,2.975,0.21,-2.135,-0.044774,0.037088,-1.11191,-0.07028,0.12936,0.49266
0.799533,0,0,14.2005,14.2005,15.7995,15.7995,-0.577172,1.9067,1.01913,0.146206,0.375175,-0.0452957,1,0,3.6575,-0.105,-2.38,0.139934,0.396988,-1.05701,-0.07028,0.12936,0.49266
0.797191,0,0,14.2028,14.2028,15.7972,15.7972,-0.575468,1.9053,1.01702,0.146231,0.375205,-0.0452946,1,0,4.4275,-0.7875,-2.2225,0.139934,0.396988,-1.05701,-0.07028,0.12936,0.49266
0.599865,0,0,14.4001,14.4001,15.5999,15.5999,-0.434498,1.99166,0.936094,0.0854392,-0.144428,-0.0501192,0,0,4.6375,-0.1225,-2.2925,0.080398,-0.124562,-1.06177,-0.07028,0.12936,0.49266
0.406193,0,0,14.5938,14.5938,15.4062,15.4062,-0.296145,2.07676,0.858425,0.0839549,-0.142014,-0.0501565,0,0,4.5325,-0.175,-1.8025,0.080398,-0.124562,-1.06177,-0.07154,0.12824,0.4872
0.407011,0,0,14.593,14.593,15.407,15.407,-0.296713,2.07691,0.85753,-0.0665684,-0.109905,0.115209,1,0,3.1325,0.105,-1.505,-0.07076,-0.092476,-0.897676,-0.07154,0.12824,0.4872
0.407219,0,0,14.5928,14.5928,15.4072,15.4072,-0.296846,2.07813,0.857471,-0.0665899,-0.109907,0.115208,1,0,3.36,0.735,-1.015,-0.07076,-0.092476,-0.897676,-0.07154,0.12824,0.4872
0.410614,0,0,14.5894,14.5894,15.4106,15.4106,-0.299255,2.07916,0.858342,-0.0293117,0.0842323,-0.297531,1,0,2.065,0.6125,-0.4725,-0.033306,0.101504,-1.30723,-0.07154,0.12824,0.4872
0.413297,0,0,14.5867,14.5867,15.4133,15.4133,-0.301155,2.07971,0.859456,-0.0293212,0.0841992,-0.297531,1,0,2.345,0.3325,-0.3325,-0.033306,0.101504,-1.30723,-0.07154,0.12824,0.4872
0.415072,0,0,14.5849,14.5849,15.4151,15.4151,-0.302407,2.07883,0.861238,0.321302,-0.0113258,-0.126878,1,0,2.695,-0.5075,0.0525,0.318786,0.0061,-1.13789,-0.07154,0.12824,0.4872
0.417613,0,0,14.5824,14.5824,15.4176,15.4176,-0.304206,2.07771,0.863441,0.321321,-0.0113572,-0.126878,1,0,2.38,-0.6475,0.2975,0.318786,0.0061,-1.13789,-0.07154,0.12824,0.4872
0.416597,0,0,14.5834,14.5834,15.4166,15.4166,-0.303464,2.07629,0.865976,-0.0457837,0.259777,-0.228924,1,0,3.7975,-0.8225,0.49,-0.049898,0.27694,-1.23915,-0.07154,0.12824,0.4872
0.415196,0,0,14.5848,14.5848,15.4152,15.4152,-0.302447,2.0758,0.868355,-0.0457751,0.259795,-0.228924,1,0,3.955,-0.28,0.4025,-0.049898,0.27694,-1.23915,-0.07014,0.12656,0.48314
0.412335,0,0,14.5877,14.5877,15.4123,15.4123,-0.300387,2.07588,0.870222,0.0673267,-0.00726039,0.131684,1,0,4.55,0.0525,0.105,0.063684,0.010126,-0.881328,-0.07014,0.12656,0.48314
0.412351,0,0,14.5876,14.5876,15.4124,15.4124,-0.300382,2.07577,0.87137,0.0673286,-0.0072603,0.131685,1,0,3.4125,-0.0525,-0.315,0.063684,0.010126,-0.881328,-0.07014,0.12656,0.48314
0.41236,0,0,14.5876,14.5876,15.4124,15.4124,-0.300373,2.07658,0.871792,-0.13666,0.136361,-0.131303,1,0,3.43,0.49,-0.735,-0.141154,0.153598,-1.14229,-0.07014,0.12656,0.48314
0.411699,0,0,14.5883,14.5883,15.4117,15.4117,-0.299884,2.07712,0.870775,-0.136669,0.136369,-0.131303,1,0,3.7275,0.3325,-1.575,-0.141154,0.153598,-1.14229,-0.07014,0.12656,0.48314
-0.0308389,0,0,15.0308,15.0308,14.9692,14.9692,0.0162133,1.82558,1.10787,-0.232872,-0.314505,0.0628728,0,0,3.3775,0.28,-1.715,-0.24217,-0.302316,-0.94977,-0.07014,0.12656,0.48314
-0.466059,0,0,15.4661,15.4661,14.5339,14.5339,0.327067,1.57851,1.34174,-0.228562,-0.309081,0.0629846,0,0,3.3775,0.28,-1.715,-0.24217,-0.302316,-0.94977,-0.07014,0.12656,0.48314
-0.465438,0,0,15.4654,15.4654,14.5346,14.5346,0.326606,1.5782,1.33881,0.567904,-0.110023,0.019584,1,0,3.22,-0.175,-2.695,0.557662,-0.103456,-0.992836,-0.07014,0.12656,0.48314
-0.464817,0,0,15.4648,15.4648,14.5352,14.5352,0.326145,1.57789,1.33587,0.567909,-0.110031,0.0195842,1,0,3.22,-0.175,-2.695,0.557662,-0.103456,-0.992836,-0.07448,0.12908,0.49252
-0.0874896,0,0,15.0875,15.0875,14.9125,14.9125,0.0566226,1.87485,1.06195,0.274686,0.270699,0.0646888,0,0,3.395,-1.8025,-2.4675,0.2684,0.281576,-0.94794,-0.07448,0.12908,0.49252
0.284047,0,0,14.716,14.716,15.284,15.284,-0.208749,2.16661,0.785867,0.269597,0.26607,0.0645031,0,0,3.395,-1.8025,-2.4675,0.2684,0.281576,-0.94794,-0.07448,0.12908,0.49252
0.349141,0,0,14.6509,14.6509,15.3491,15.3491,-0.255232,2.04631,0.89531,-0.108312,0.0440876,0.0894126,0,0,5.25,3.9375,-1.9075,-0.113216,0.060634,-0.923296,-0.07448,0.12908,0.49252
0.413113,0,0,14.5869,14.5869,15.4131,15.4131,-0.30091,1.92828,1.0048,-0.106253,0.0432905,0.0894801,0,0,5.25,3.9375,-1.9075,-0.113216,0.060634,-0.923296,-0.07448,0.12908,0.49252
0.408688,0,0,14.5913,14.5913,15.4087,15.4087,-0.297733,1.92974,1.00476,-0.288507,0.0696032,0.335991,1,0,5.215,0.875,-0.9975,-0.296216,0.086864,-0.678686,-0.07448,0.12908,0.49252
0.759064,0,0,14.2409,14.2409,15.7591,15.7591,-0.547972,2.18934,0.762833,0.231905,0.245377,0.0704734,0,0,3.1325,0.9975,-0.9975,0.230946,0.266814,-0.941962,-0.07448,0.12908,0.49252
1.10703,0,0,13.893,13.893,16.107,16.107,-0.796477,2.44377,0.520243,0.227468,0.241045,0.0702431,0,0,1.855,0.665,-0.385,0.230946,0.266814,-0.941962,-0.07448,0.12908,0.49252
1.27406,0,0,13.7259,13.7259,16.2741,16.2741,-0.915737,2.30475,0.649537,-0.131528,0.120746,-0.0302594,0,0,2.345,0.2975,-0.07,-0.132004,0.148718,-1.04176,-0.0728,0.12152,0.48384
1.43958,0,0,13.5604,13.5604,16.4396,16.4396,-1.03391,2.16704,0.780027,-0.129126,0.118684,-0.0302007,0,0,1.785,-0.455,0.35,-0.132004,0.148718,-1.04176,-0.0728,0.12152,0.48384
1.4418,0,0,13.5582,13.5582,16.4418,16.4418,-1.03544,2.16637,0.782477,-0.1426,0.0230317,0.203156,1,0,2.52,-0.4025,0.4375,-0.145546,0.053192,-0.810202,-0.0728,0.12152,0.48384
1.12439,0,0,13.8756,13.8756,16.1244,16.1244,-0.808672,2.30134,0.672957,0.11454,-0.21348,0.0757527,0,0,4.3925,-0.525,0.2625,0.115046,-0.187026,-0.936594,-0.0728,0.12152,0.48384
0.810254,0,0,14.1897,14.1897,15.8103,15.8103,-0.584259,2.43404,0.564467,0.112226,-0.209566,0.0757046,0,0,5.215,-0.35,0.2625,0.115046,-0.187026,-0.936594,-0.0728,0.12152,0.48384
0.838395,0,0,14.1616,14.1616,15.8384,15.8384,-0.604328,2.09625,0.879169,-0.314737,0.0221226,0.0196236,0,0,5.2325,-0.175,-0.035,-0.31964,0.044774,-0.99247,-0.0728,0.12152,0.48384
0.868733,0,0,14.1313,14.1313,15.8687,15.8687,-0.625964,1.76452,1.19248,-0.30895,0.0217431,0.0198146,0,0,4.2525,-0.175,-0.7175,-0.31964,0.044774,-0.99247,-0.0728,0.12152,0.48384
0.784992,0,0,14.215,14.215,15.785,15.785,-0.566119,1.37954,1.56109,-0.363462,-0.0633141,0.0298456,0,0,3.2725,-0.0875,-0.98,-0.381128,-0.041236,-0.98271,-0.0728,0.12152,0.48384
0.701663,0,0,14.2983,14.2983,15.7017,15.7017,-0.506571,1.00239,1.91563,-0.356881,-0.0622763,0.0299922,0,0,3.7275,0.2975,-1.5225,-0.381128,-0.041236,-0.98271,-0.07084,0.12978,0.48986
0.702124,0,0,14.2979,14.2979,15.7021,15.7021,-0.506873,1.00209,1.91474,0.0974805,0.0162459,-0.131439,1,0,3.2725,-0.1575,-1.505,0.075152,0.03721,-1.1429,-0.07084,0.12978,0.48986
0.702697,0,0,14.2973,14.2973,15.7027,15.7027,-0.507255,1.00273,1.91285,0.0974692,0.0162392,-0.131439,1,0,3.2375,0.4025,-2.0825,0.075152,0.03721,-1.1429,-0.07084,0.12978,0.48986
0.656148,0,0,14.3439,14.3439,15.6561,15.6561,-0.473981,1.37789,1.57552,0.379209,-0.0348386,-0.0220234,0,0,4.13,-0.945,-2.0125,0.364658,-0.014396,-1.03419,-0.07084,0.12978,0.48986
0.608711,0,0,14.3913,14.3913,15.6087,15.6087,-0.440073,1.74674,1.23892,0.372773,-0.0342457,-0.0221941,0,0,4.8825,-0.735,-2.065,0.364658,-0.014396,-1.03419,-0.07084,0.12978,0.48986
0.460618,0,0,14.5394,14.5394,15.4606,15.4606,-0.334275,1.77519,1.21153,0.0287154,-0.105187,-0.031664,0,0,5.145,-0.6125,-2.3625,0.019642,-0.087108,-1.04359,-0.07084,0.12978,0.48986
0.317337,0,0,14.6827,14.6827,15.3173,15.3173,-0.231919,1.80328,1.18493,0.0282254,-0.103402,-0.0316705,0,0,4.235,-0.5075,-1.96,0.019642,-0.087108,-1.04359,-0.07084,0.12978,0.48986
0.0464471,0,0,14.9536,14.9536,15.0464,15.0464,-0.038424,1.53003,1.43631,-0.271451,-0.209452,-0.042958,0,0,3.78,0.3325,-2.0475,-0.28609,-0.19642,-1.05493,-0.07084,0.12978,0.48986
-0.217584,0,0,15.2176,15.2176,14.7824,14.7824,0.150162,1.26223,1.68705,-0.266778,-0.206162,-0.0428473,0,0,2.87,0.0875,-1.5225,-0.28609,-0.19642,-1.05493,-0.06846,0.12908,0.4865
-0.573214,0,0,15.5732,15.5732,14.4268,14.4268,0.404162,1.33284,1.63287,0.062188,-0.261694,0.0102171,0,0,1.715,0.42,-1.12,0.045506,-0.256322,-1.00223,-0.06846,0.12908,0.4865
-0.926329,0,0,15.9263,15.9263,14.0737,14.0737,0.656352,1.4025,1.57972,0.0609725,-0.257294,0.0101473,0,0,3.0975,0.7,-0.875,0.045506,-0.256322,-1.00223,-0.06846,0.12908,0.4865
-0.925257,0,0,15.9253,15.9253,14.0747,14.0747,0.655551,1.40262,1.58039,-0.147256,0.203476,-0.127186,1,0,2.975,0.0875,-0.595,-0.163602,0.203984,-1.1385,-0.06846,0.12908,0.4865
-0.922815,0,0,15.9228,15.9228,14.0772,14.0772,0.653771,1.40276,1.58187,-0.147258,0.203445,-0.127186,1,0,2.415,0.105,-0.1225,-0.163602,0.203984,-1.1385,-0.06846,0.12908,0.4865
-1.19152,0,0,16.1915,16.1915,13.8085,13.8085,0.84566,1.58474,1.42643,0.144169,-0.170946,0.128175,0,0,3.115,-0.1575,0.1225,0.132248,-0.173362,-0.884988,-0.06846,0.12908,0.4865
-1.4554,0,0,16.4554,16.4554,13.5446,13.5446,1.03409,1.76299,1.27198,0.14106,-0.167661,0.12803,0,0,3.01,-0.2975,-0.105,0.132248,-0.173362,-0.884988,-0.06846,0.12908,0.4865
-1.67161,0,0,16.6716,16.6716,13.3284,13.3284,1.18846,1.95584,1.10148,0.176449,-0.156544,0.0163542,0,0,2.9925,-0.4725,-0.385,0.171166,-0.164944,-0.995642,-0.06846,0.12908,0.4865
-1.88415,0,0,16.8841,16.8841,13.1159,13.1159,1.3402,2.14501,0.932232,0.17315,-0.153901,0.0161777,0,0,2.9925,-0.4725,-0.385,0.171166,-0.164944,-0.995642,-0.06846,0.12908,0.4865
-1.81298,0,0,16.813,16.813,13.187,13.187,1.2893,1.92813,1.1226,-0.201374,0.0518534,-0.0281748,0,0,3.7625,0.1225,-0.3325,-0.208742,0.04148,-1.03981,-0.06916,0.1288,0.4914
-1.81256,0,0,16.8126,16.8126,13.1874,13.1874,1.28893,1.9286,1.1228,0.0272541,0.0644259,-0.210876,1,0,3.22,0.2975,-0.875,0.020862,0.054046,-1.2211,-0.06916,0.1288,0.4914
-1.81213,0,0,16.8121,16.8121,13.1879,13.1879,1.28855,1.92908,1.123,0.0272457,0.0644194,-0.210877,1,0,3.22,0.2975,-0.875,0.020862,0.054046,-1.2211,-0.06916,0.1288,0.4914
-1.64346,0,0,16.6435,16.6435,13.3565,13.3565,1.16801,1.77863,1.25593,-0.143976,0.126069,-0.0629625,0,0,3.15,0.735,-1.2425,-0.15372,0.11773,-1.07445,-0.06916,0.1288,0.4914
-1.47766,0,0,16.4777,16.4777,13.5223,13.5223,1.04952,1.63098,1.38927,-0.1414,0.124004,-0.0628458,0,0,3.15,0.735,-1.2425,-0.15372,0.11773,-1.07445,-0.06916,0.1288,0.4914
-1.56495,0,0,16.565,16.565,13.435,13.435,1.11182,1.74103,1.29344,0.0985582,-0.0620088,0.0104774,0,0,3.1675,-0.1575,-1.2775,0.089182,-0.069174,-1.00162,-0.06916,0.1288,0.4914
-1.65072,0,0,16.6507,16.6507,13.3493,13.3493,1.17302,1.84896,1.19798,0.0966754,-0.0609425,0.0103972,0,0,3.1675,-0.1575,-1.2775,0.089182,-0.069174,-1.00162,-0.06916,0.1288,0.4914
-1.65201,0,0,16.652,16.652,13.348,13.348,1.17387,1.84825,1.19657,0.00812476,0.154748,-0.152264,1,0,3.9375,-0.42,-1.8025,0.000244,0.146278,-1.16303,-0.07308,0.1316,0.48804
-1.65236,0,0,16.6524,16.6524,13.3476,13.3476,1.17406,1.84115,1.19481,-0.0625775,-0.229703,-0.0829167,1,0,3.57,-4.165,-1.925,-0.070882,-0.237778,-1.09422,-0.07308,0.1316,0.48804
-1.65271,0,0,16.6527,16.6527,13.3473,13.3473,1.17425,1.83405,1.19305,-0.0624537,-0.2297,-0.0829128,1,0,3.57,-4.165,-1.925,-0.070882,-0.237778,-1.09422,-0.07308,0.1316,0.48804
-1.82781,0,0,16.8278,16.8278,13.1722,13.1722,1.29925,1.76444,1.2525,-0.0622114,-0.127009,0.00326513,0,0,2.52,-0.1575,-1.225,-0.071858,-0.137372,-1.0087,-0.07308,0.1316,0.48804
-1.99989,0,0,16.9999,16.9999,13.0001,13.0001,1.42209,1.69618,1.3115,-0.0610206,-0.124866,0.00325021,0,0,2.52,-0.1575,-1.225,-0.071858,-0.137372,-1.0087,-0.07308,0.1316,0.48804
-1.99796,0,0,16.998,16.998,13.002,13.002,1.42063,1.69579,1.31191,-0.258914,-0.0108246,-0.134943,1,0,2.6075,-0.21,-0.735,-0.270596,-0.023424,-1.14582,-0.07308,0.1316,0.48804
-1.7631,0,0,16.7631,16.7631,13.2369,13.2369,1.25281,2.17677,0.880861,0.429538,0.169432,0.116517,0,0,2.695,-0.07,-0.6125,0.429196,0.159576,-0.89609,-0.07308,0.1316,0.48804
-1.53006,0,0,16.5301,16.5301,13.4699,13.4699,1.08629,2.64956,0.448138,0.421294,0.166522,0.116229,0,0,2.2225,-0.0875,-0.4725,0.429196,0.159576,-0.89609,-0.07308,0.1316,0.48804
-1.29891,0,0,16.2989,16.2989,13.7011,13.7011,0.92114,2.82508,0.277775,0.163478,0.16816,0.0010535,0,0,2.765,-0.315,-0.49,0.173362,0.16409,-1.01028,-0.06622,0.12432,0.48538
-1.07214,0,0,16.0721,16.0721,13.9279,13.9279,0.759118,2.99797,0.106699,0.160465,0.165333,0.000941655,0,0,3.01,0.0525,-0.5775,0.173362,0.16409,-1.01028,-0.06622,0.12432,0.48538
-1.46326,0,0,16.4633,16.4633,13.5367,13.5367,1.03844,2.94799,0.153093,-0.0453113,-0.259196,0.102712,0,0,3.2375,0.315,-0.63,-0.03416,-0.264862,-0.909266,-0.06622,0.12432,0.48538
-1.84787,0,0,16.8479,16.8479,13.1521,13.1521,1.31308,2.89894,0.198767,-0.0444562,-0.254408,0.102657,0,0,3.2375,0.315,-0.63,-0.03416,-0.264862,-0.909266,-0.06622,0.12432,0.48538
-1.84782,0,0,16.8478,16.8478,13.1522,13.1522,1.31298,2.89869,0.199249,-0.410367,0.0651954,-0.0661507,1,0,3.36,-0.1225,-0.7,-0.401624,0.054412,-1.07677,-0.06622,0.12432,0.48538
-1.88095,0,0,16.8809,16.8809,13.1191,13.1191,1.33657,2.85455,0.229695,-0.038823,-0.022568,-0.0404253,0,0,4.935,-0.1925,-0.8575,-0.02928,-0.033672,-1.05127,-0.06622,0.12432,0.48538
-1.91164,0,0,16.9116,16.9116,13.0884,13.0884,1.35843,2.8115,0.259651,-0.0380727,-0.0221863,-0.0403972,0,0,4.2,-0.0525,-1.085,-0.02928,-0.033672,-1.05127,-0.06622,0.12432,0.48538
-1.90282,0,0,16.9028,16.9028,13.0972,13.0972,1.35205,2.82859,0.23484,0.0149616,0.00481438,0.00877018,0,0,2.5025,-0.0875,-1.2775,0.024278,-0.006588,-1.00247,-0.06622,0.12432,0.48538
-1.89418,0,0,16.8942,16.8942,13.1058,13.1058,1.34581,2.84457,0.197589,0.0146831,0.00470517,0.00875895,0,0,2.5025,-0.595,-1.0675,0.024278,-0.006588,-1.00247,-0.0672,0.13314,0.48608
-1.89144,0,0,16.8914,16.8914,13.1086,13.1086,1.34378,2.84375,0.197126,-0.515588,-0.0683619,-0.0715249,1,0,2.31,-0.4725,-1.2425,-0.508252,-0.079544,-1.08214,-0.0672,0.13314,0.48608
-1.89171,0,0,16.8917,16.8917,13.1083,13.1083,1.3439,2.84396,0.195906,-0.515591,-0.0683598,-0.0715251,1,0,3.535,0.1225,-1.6975,-0.508252,-0.079544,-1.08214,-0.0672,0.13314,0.48608
-1.89276,0,0,16.8928,16.8928,13.1072,13.1072,1.34458,2.84429,0.194569,0.560159,0.120216,-0.153286,1,0,3.85,0.1925,-1.7675,0.572058,0.108824,-1.16327,-0.0672,0.13314,0.48608
-1.89663,0,0,16.8966,16.8966,13.1034,13.1034,1.34727,2.84535,0.192918,0.56014,0.120263,-0.153288,1,0,4.9875,0.6125,-1.96,0.572058,0.108824,-1.16327,-0.0672,0.13314,0.48608
-1.89955,0,0,16.8995,16.8995,13.1005,13.1005,1.34928,2.84502,0.192046,-0.0375636,0.0161235,-0.21169,1,0,4.585,-0.1925,-1.4875,-0.028182,0.004758,-1.22122,-0.0672,0.13314,0.48608
-1.9029,0,0,16.9029,16.9029,13.0971,13.0971,1.3516,2.84515,0.191755,-0.0375659,0.0161639,-0.211691,1,0,4.7425,0.0875,-1.155,-0.028182,0.004758,-1.22122,-0.0672,0.13314,0.48608
-1.83222,0,0,16.8322,16.8322,13.1678,13.1678,1.30105,2.63793,0.354784,-0.196623,0.0536347,-0.047361,0,0,4.3575,0,-1.19,-0.19154,0.043066,-1.05835,-0.0672,0.13314,0.48608
-1.75823,0,0,16.7582,16.7582,13.2418,13.2418,1.24813,2.43409,0.523369,-0.193069,0.0527158,-0.0471831,0,0,2.555,0.2625,-0.8225,-0.19154,0.043066,-1.05835,-0.07042,0.13006,0.4914
-1.75662,0,0,16.7566,16.7566,13.2434,13.2434,1.24691,2.43419,0.523437,0.120363,0.0656399,-0.129189,1,0,2.7475,0.07,-0.945,0.12322,0.055998,-1.13972,-0.07042,0.13006,0.4914
-1.75368,0,0,16.7537,16.7537,13.2463,13.2463,1.24474,2.43403,0.523951,0.120366,0.0656021,-0.129188,1,0,2.205,-0.07,-0.6825,0.12322,0.055998,-1.13972,-0.07042,0.13006,0.4914
-1.75187,0,0,16.7519,16.7519,13.2481,13.2481,1.24339,2.43426,0.524503,-0.192343,-0.174034,-0.0966067,1,0,2.66,0.1575,-0.665,-0.190808,-0.183366,-1.10739,-0.07042,0.13006,0.4914
-1.75295,0,0,16.753,16.753,13.247,13.247,1.2441,2.43481,0.524371,-0.192352,-0.174022,-0.0966074,1,0,3.8325,0.3325,-1.0675,-0.190808,-0.183366,-1.10739,-0.07042,0.13006,0.4914
-1.58327,0,0,16.5833,16.5833,13.4167,13.4167,1.12283,2.62703,0.338713,0.18236,0.127835,-0.0225739,0,0,3.8675,0,-0.805,0.188856,0.120292,-1.03383,-0.07042,0.13006,0.4914
-1.41663,0,0,16.4166,16.4166,13.5834,13.5834,1.00375,2.81591,0.152976,0.179067,0.125756,-0.0226919,0,0,3.99,0.14,-0.63,0.188856,0.120292,-1.03383,-0.07042,0.13006,0.4914
-1.2219,0,0,16.2219,16.2219,13.7781,13.7781,0.864614,2.5998,0.327507,-0.186239,0.132371,0.0937122,0,0,5.0925,-0.6825,-0.455,-0.18178,0.12932,-0.918538,-0.07042,0.13006,0.4914
-1.03155,0,0,16.0315,16.0315,13.9685,13.9685,0.728606,2.38877,0.502531,-0.182559,0.130002,0.0939054,0,0,5.5475,0.0175,-0.63,-0.18178,0.12932,-0.918538,-0.07042,0.13006,0.4914
-0.704009,0,0,15.704,15.704,14.296,14.296,0.494624,2.33154,0.542276,-0.0560666,0.249026,-0.022688,0,0,5.2325,0.42,-0.7875,-0.055754,0.252296,-1.03432,-0.07014,0.12824,0.48888
-0.705699,0,0,15.7057,15.7057,14.2943,14.2943,0.495804,2.33031,0.543052,0.303067,0.102617,-0.052072,1,0,4.0775,-0.7,-0.525,0.304878,0.106018,-1.06347,-0.07014,0.12824,0.48888
-0.704221,0,0,15.7042,15.7042,14.2958,14.2958,0.494722,2.32939,0.543441,0.303083,0.102598,-0.0520712,1,0,2.8175,-0.525,-0.7525,0.304878,0.106018,-1.06347,-0.07014,0.12824,0.48888
-0.70352,0,0,15.7035,15.7035,14.2965,14.2965,0.494195,2.32909,0.543655,-0.466403,-0.461515,0.0623941,1,0,3.1325,-0.1575,-0.8575,-0.46787,-0.4575,-0.949892,-0.07014,0.12824,0.48888
-0.704818,0,0,15.7048,15.7048,14.2952,14.2952,0.495096,2.33,0.542919,-0.466418,-0.461499,0.0623934,1,0,3.955,0.5425,-1.4175,-0.46787,-0.4575,-0.949892,-0.07014,0.12824,0.48888
-0.704463,0,0,15.7045,15.7045,14.2955,14.2955,0.494815,2.33105,0.542304,-0.323448,0.0227285,-0.250142,1,0,3.29,0.63,-1.3475,-0.324276,0.02623,-1.26002,-0.07014,0.12824,0.48888
-0.703852,0,0,15.7039,15.7039,14.2961,14.2961,0.494352,2.33163,0.541806,-0.323458,0.0227204,-0.250143,1,0,3.185,0.35,-1.2775,-0.324276,0.02623,-1.26002,-0.07014,0.12824,0.48888
-0.704392,0,0,15.7044,15.7044,14.2956,14.2956,0.494711,2.33209,0.540796,0.618291,-0.168524,0.0418595,1,0,3.6575,0.28,-1.575,0.621468,-0.164822,-0.970266,-0.07014,0.12824,0.48888
-0.707754,0,0,15.7078,15.7078,14.2922,14.2922,0.497087,2.33115,0.539473,0.618307,-0.168482,0.0418598,1,0,4.795,-0.5425,-1.75,0.621468,-0.164822,-0.970266,-0.07238,0.13034,0.48678
-0.677937,0,0,15.6779,15.6779,14.3221,14.3221,0.475763,2.5256,0.352396,0.16141,0.0220287,0.0905298,0,0,4.3575,-0.2275,-1.925,0.166042,0.025864,-0.921832,-0.07238,0.13034,0.48678
-0.648531,0,0,15.6485,15.6485,14.3515,14.3515,0.454734,2.71644,0.165499,0.158083,0.0216608,0.0903804,0,0,4.3575,-0.2275,-1.925,0.166042,0.025864,-0.921832,-0.07238,0.13034,0.48678
-0.682995,0,0,15.683,15.683,14.317,14.317,0.479326,2.50731,0.341124,-0.197018,-0.0261491,-0.028102,0,0,3.5,0.1575,-1.225,-0.194224,-0.022326,-1.03956,-0.07238,0.13034,0.48678
-0.716803,0,0,15.7168,15.7168,14.2832,14.2832,0.503447,2.30207,0.51625,-0.193439,-0.0257272,-0.0279554,0,0,3.5,0.1575,-1.225,-0.194224,-0.022326,-1.03956,-0.07238,0.13034,0.48678
-0.822004,0,0,15.822,15.822,14.178,14.178,0.57856,1.83732,0.93124,-0.454667,-0.0824246,0.0240865,0,0,3.5175,0.98,-1.61,-0.464698,-0.080276,-0.9882,-0.07238,0.13034,0.48678
-0.925178,0,0,15.9252,15.9252,14.0748,14.0748,0.652221,1.38056,1.34427,-0.446698,-0.0811372,0.0242965,0,0,3.5175,0.98,-1.61,-0.464698,-0.080276,-0.9882,-0.07238,0.13034,0.48678
-0.924051,0,0,15.9241,15.9241,14.0759,14.0759,0.651381,1.37417,1.34462,0.0173675,-0.192409,-0.100247,1,0,2.9575,-3.7275,-0.735,0.00122,-0.191418,-1.11179,-0.07238,0.13034,0.48678
-0.922924,0,0,15.9229,15.9229,14.0771,14.0771,0.650541,1.36778,1.34498,0.017479,-0.192424,-0.100245,1,0,2.9575,-3.7275,-0.735,0.00122,-0.191418,-1.11179,-0.0714,0.126,0.48846
-1.1063,0,0,16.1063,16.1063,13.8937,13.8937,0.781481,1.76514,1.0068,0.372331,-0.138727,0.0369937,0,0,3.43,4.27,-0.805,0.364536,-0.140056,-0.97539,-0.0714,0.126,0.48846
-1.28656,0,0,16.2866,16.2866,13.7134,13.7134,0.910191,2.15541,0.670858,0.365523,-0.136485,0.0367276,0,0,3.43,4.27,-0.805,0.364536,-0.140056,-0.97539,-0.0714,0.126,0.48846
-1.29091,0,0,16.2909,16.2909,13.7091,13.7091,0.913248,2.15408,0.672614,0.232398,0.0162265,-0.256873,1,0,5.11,-0.7525,0.0525,0.230824,0.012444,-1.26673,-0.0714,0.126,0.48846
-1.29526,0,0,16.2953,16.2953,13.7047,13.7047,0.916305,2.15274,0.67437,0.232422,0.0162799,-0.256873,1,0,5.11,-0.7525,0.0525,0.230824,0.012444,-1.26673,-0.0714,0.126,0.48846
-1.20402,0,0,16.204,16.204,13.796,13.796,0.851088,2.07561,0.743217,-0.0726202,0.0708331,-0.0919322,0,0,3.745,-0.385,-0.105,-0.07686,0.068076,-1.10312,-0.0714,0.126,0.48846
-1.20335,0,0,16.2034,16.2034,13.7966,13.7966,0.850567,2.07542,0.744512,-0.0466188,-0.113221,-0.110128,1,0,3.115,-0.0875,-0.2275,-0.050752,-0.115778,-1.12118,-0.0714,0.126,0.48846
-1.20259,0,0,16.2026,16.2026,13.7974,13.7974,0.849976,2.07535,0.745567,-0.0466176,-0.113231,-0.110128,1,0,3.08,-0.0175,-0.3675,-0.050752,-0.115778,-1.12118,-0.0714,0.126,0.48846
-1.20052,0,0,16.2005,16.2005,13.7995,13.7995,0.848454,2.07562,0.745938,0.439078,0.140277,-0.050252,1,0,2.5725,0.175,-0.77,0.437004,0.137494,-1.06177,-0.07098,0.12572,0.48454
-1.19981,0,0,16.1998,16.1998,13.8002,13.8002,0.847903,2.0753,0.74552,-0.0773526,0.0275447,-0.119841,1,0,3.1325,-0.175,-1.225,-0.081618,0.024888,-1.13082,-0.07098,0.12572,0.48454
-1.20011,0,0,16.2001,16.2001,13.7999,13.7999,0.848067,2.07508,0.744172,-0.0773489,0.0275475,-0.11984,1,0,3.5525,-0.1225,-1.7675,-0.081618,0.024888,-1.13082,-0.07098,0.12572,0.48454
-1.20151,0,0,16.2015,16.2015,13.7985,13.7985,0.849026,2.07407,0.742363,0.315554,0.0789796,-0.0932832,1,0,4.0075,-0.595,-2.03,0.31293,0.07625,-1.10447,-0.07098,0.12572,0.48454
-1.2027,0,0,16.2027,16.2027,13.7973,13.7973,0.849831,2.07434,0.740633,0.315549,0.0789937,-0.0932835,1,0,3.92,0.1575,-1.995,0.31293,0.07625,-1.10447,-0.07098,0.12572,0.48454
-1.41076,0,0,16.4108,16.4108,13.5892,13.5892,0.998389,2.24071,0.594728,0.14609,-0.146062,0.0498004,0,0,3.4125,0.21,-2.415,0.145668,-0.151158,-0.962336,-0.07098,0.12572,0.48454
-1.61658,0,0,16.6166,16.6166,13.3834,13.3834,1.14534,2.40327,0.44985,0.143255,-0.143502,0.0496375,0,0,3.92,-0.175,-2.415,0.145668,-0.151158,-0.962336,-0.07098,0.12572,0.48454
-1.61529,0,0,16.6153,16.6153,13.3847,13.3847,1.14436,2.40309,0.447301,-0.305996,-0.03104,-0.146342,1,0,2.94,-0.1225,-2.4675,-0.305488,-0.038796,-1.1568,-0.07098,0.12572,0.48454
-1.61492,0,0,16.6149,16.6149,13.3851,13.3851,1.14403,2.40367,0.445667,-0.306006,-0.0310457,-0.146342,1,0,3.29,0.3325,-1.9425,-0.305488,-0.038796,-1.1568,-0.07518,0.1253,0.483
-1.62068,0,0,16.6207,16.6207,13.3793,13.3793,1.14809,2.52659,0.334816,0.107575,-0.00435317,0.0213888,0,0,3.0625,0.8925,-1.61,0.111996,-0.0122,-0.990274,-0.07518,0.1253,0.483
-1.62679,0,0,16.6268,16.6268,13.3732,13.3732,1.15239,2.64668,0.224713,0.105481,-0.00428015,0.0212927,0,0,3.2375,0.6125,-1.3125,0.111996,-0.0122,-0.990274,-0.07518,0.1253,0.483
-1.6252,0,0,16.6252,16.6252,13.3748,13.3748,1.15119,2.64729,0.224641,0.100854,0.0369778,0.277394,1,0,2.765,0.3675,-1.0325,0.10736,0.029036,-0.736148,-0.07518,0.1253,0.483
-1.6246,0,0,16.6246,16.6246,13.3754,13.3754,1.1507,2.64706,0.225634,0.100858,0.0369693,0.277395,1,0,3.1325,-0.105,-0.4025,0.10736,0.029036,-0.736148,-0.07518,0.1253,0.483
-1.62445,0,0,16.6245,16.6245,13.3755,13.3755,1.15054,2.6467,0.227555,0.435557,0.0758027,-0.080508,1,0,3.29,-0.175,0.14,0.44347,0.067832,-1.09129,-0.07518,0.1253,0.483
-1.62424,0,0,16.6242,16.6242,13.3758,13.3758,1.15032,2.64556,0.229731,0.435577,0.0757989,-0.080507,1,0,3.255,-0.63,0.2975,0.44347,0.067832,-1.09129,-0.07518,0.1253,0.483
-1.61992,0,0,16.6199,16.6199,13.3801,13.3801,1.14718,2.30897,0.525294,-0.295243,0.00442726,0.0713434,0,0,3.92,-0.5075,0.1225,-0.296338,-0.003416,-0.940864,-0.07518,0.1253,0.483
-1.61451,0,0,16.6145,16.6145,13.3855,13.3855,1.14325,1.98015,0.813878,-0.289508,0.00436298,0.0715595,0,0,3.5,-0.4725,0.6125,-0.296338,-0.003416,-0.940864,-0.07168,0.1302,0.4865
-1.61864,0,0,16.6186,16.6186,13.3814,13.3814,1.14613,1.97973,0.815467,-0.0496878,0.110419,-0.171265,1,0,5.0225,-0.21,-0.0525,-0.05551,0.10248,-1.18181,-0.07168,0.1302,0.4865
-1.62277,0,0,16.6228,16.6228,13.3772,13.3772,1.14902,1.97932,0.817056,-0.0496805,0.11047,-0.171265,1,0,5.0225,-0.21,-0.0525,-0.05551,0.10248,-1.18181,-0.07168,0.1302,0.4865
-1.6212,0,0,16.6212,16.6212,13.3788,13.3788,1.14784,1.9717,0.81736,0.326451,-0.0939909,-0.192407,1,0,2.765,-4.445,-0.7175,0.32208,-0.101748,-1.2028,-0.07168,0.1302,0.4865
-1.61667,0,0,16.6167,16.6167,13.3833,13.3833,1.14454,1.97129,0.816908,-0.260804,0.28772,0.202505,1,0,1.5925,-0.2275,-1.2425,-0.267668,0.279624,-0.810934,-0.07168,0.1302,0.4865
-1.61286,0,0,16.6129,16.6129,13.3871,13.3871,1.14177,1.9713,0.815234,-0.260804,0.287671,0.202506,1,0,1.9075,0,-1.96,-0.267668,0.279624,-0.810934,-0.07168,0.1302,0.4865
-1.60964,0,0,16.6096,16.6096,13.3904,13.3904,1.1394,1.97148,0.813773,-0.377677,0.0147989,-0.0923243,1,0,2.135,0.105,-1.8375,-0.385032,0.007076,-1.10349,-0.07168,0.1302,0.4865
-1.60894,0,0,16.6089,16.6089,13.3911,13.3911,1.13884,1.9727,0.811283,-0.377698,0.0147892,-0.0923248,1,0,3.1675,0.7,-2.45,-0.385032,0.007076,-1.10349,-0.07168,0.1302,0.4865
-1.61284,0,0,16.6128,16.6128,13.3872,13.3872,1.14156,1.97305,0.808895,0.294112,-0.271428,-0.189086,1,0,5.005,0.1925,-2.38,0.289628,-0.278892,-1.1995,-0.07364,0.12712,0.48888
-1.61683,0,0,16.6168,16.6168,13.3832,13.3832,1.14436,1.97307,0.806771,0.252077,0.000107985,-0.134744,1,0,5.04,0,-2.2225,0.247416,-0.007686,-1.14558,-0.07364,0.12712,0.48888
-1.62031,0,0,16.6203,16.6203,13.3797,13.3797,1.14678,1.97354,0.804716,0.252069,0.000150196,-0.134745,1,0,4.83,0.2625,-2.1875,0.247416,-0.007686,-1.14558,-0.07364,0.12712,0.48888
-1.62262,0,0,16.6226,16.6226,13.3774,13.3774,1.14837,1.97357,0.803103,0.0201524,0.211213,-0.225236,1,0,4.3575,0.0175,-1.925,0.014518,0.20313,-1.23537,-0.07364,0.12712,0.48888
-1.61951,0,0,16.6195,16.6195,13.3805,13.3805,1.14608,1.97506,0.802149,0.0201265,0.211173,-0.225236,1,0,2.17,0.875,-1.5575,0.014518,0.20313,-1.23537,-0.07364,0.12712,0.48888
-1.4379,0,0,16.4379,16.4379,13.5621,13.5621,1.01631,2.14909,0.645493,0.169434,0.135754,-0.0346095,0,0,1.8725,0.2275,-0.8575,0.167506,0.130052,-1.04615,-0.07364,0.12712,0.48888
-1.25684,0,0,16.2568,16.2568,13.7432,13.7432,0.886929,2.31976,0.488787,0.166458,0.133496,-0.0346882,0,0,0.91,0.14,-0.665,0.167506,0.130052,-1.04615,-0.07364,0.12712,0.48888
-1.11421,0,0,16.1142,16.1142,13.8858,13.8858,0.785013,2.38011,0.429998,0.0542457,0.100332,0.0051299,0,0,1.68,0.385,-0.21,0.055876,0.098698,-1.00662,-0.07364,0.12712,0.48888
-0.978722,0,0,15.9787,15.9787,14.0213,14.0213,0.688197,2.43804,0.370755,0.0532355,0.0986431,0.0051091,0,0,3.5525,-0.2975,0.35,0.055876,0.098698,-1.00662,-0.06958,0.12768,0.48244
-0.981809,0,0,15.9818,15.9818,14.0182,14.0182,0.690366,2.43742,0.373425,-0.141252,0.107108,-0.333737,1,0,4.585,-0.3325,0.5775,-0.139446,0.107116,-1.34285,-0.06958,0.12768,0.48244
-0.990472,0,0,15.9905,15.9905,14.0095,14.0095,0.696516,2.43683,0.375796,-0.141242,0.107215,-0.333738,1,0,6.825,-0.315,0.4025,-0.139446,0.107116,-1.34285,-0.06958,0.12768,0.48244
-0.997322,0,0,15.9973,15.9973,14.0027,14.0027,0.701371,2.43702,0.377786,0.00210796,-0.315137,-0.117104,1,0,6.1075,0.14,0.175,0.004514,-0.314882,-1.12789,-0.06958,0.12768,0.48244
-0.997941,0,0,15.9979,15.9979,14.0021,14.0021,0.701776,2.4373,0.379357,0.002103,-0.31513,-0.117104,1,0,3.6225,0.1925,-0.07,0.004514,-0.314882,-1.12789,-0.06958,0.12768,0.48244
-0.997454,0,0,15.9975,15.9975,14.0025,14.0025,0.70139,2.43634,0.380703,0.454411,-0.276056,-0.0156707,1,0,3.185,-0.5425,-0.1925,0.45872,-0.275842,-1.02724,-0.06958,0.12768,0.48244
-0.990502,0,0,15.9905,15.9905,14.0095,14.0095,0.696388,2.43568,0.380641,0.454422,-0.276143,-0.0156692,1,0,0.63,-0.3675,-1.015,0.45872,-0.275842,-1.02724,-0.06958,0.12768,0.48244
-0.984327,0,0,15.9843,15.9843,14.0157,14.0157,0.69194,2.43406,0.379667,0.0171023,-0.143835,0.141215,1,0,0.9625,-0.945,-1.54,0.01952,-0.143594,-0.871568,-0.06958,0.12768,0.48244
-0.980766,0,0,15.9808,15.9808,14.0192,14.0192,0.689359,2.43414,0.377844,0.0171008,-0.14388,0.141216,1,0,2.03,0.0525,-2.0475,0.01952,-0.143594,-0.871568,-0.07154,0.12964,0.48398
-0.979184,0,0,15.9792,15.9792,14.0208,14.0208,0.688192,2.43439,0.375482,-0.369349,0.220159,-0.062264,1,0,2.835,0.14,-2.3625,-0.368562,0.220088,-1.07348,-0.07154,0.12964,0.48398
-0.984572,0,0,15.9846,15.9846,14.0154,14.0154,0.692004,2.43398,0.372751,-0.369342,0.220226,-0.0622645,1,0,5.635,-0.245,-2.5725,-0.368562,0.220088,-1.07348,-0.07154,0.12964,0.48398
-0.99056,0,0,15.9906,15.9906,14.0094,14.0094,0.696243,2.4339,0.369815,0.129965,0.138841,0.162239,1,0,5.88,-0.0525,-2.695,0.132858,0.138714,-0.850706,-0.07154,0.12964,0.48398
-0.996996,0,0,15.997,15.997,14.003,14.003,0.700803,2.43453,0.367068,0.129954,0.13892,0.162237,1,0,6.055,0.3675,-2.59,0.132858,0.138714,-0.850706,-0.07154,0.12964,0.48398
-1.00264,0,0,16.0026,16.0026,13.9974,13.9974,0.704799,2.43544,0.364264,0.126172,-0.0209959,-0.189643,1,0,5.74,0.525,-2.625,0.129076,-0.021106,-1.19987,-0.07154,0.12964,0.48398
-1.00223,0,0,16.0022,16.0022,13.9978,13.9978,0.704469,2.43588,0.362504,0.126165,-0.0210017,-0.189643,1,0,3.29,0.2625,-2.0125,0.129076,-0.021106,-1.19987,-0.07154,0.12964,0.48398
-1.29286,0,0,16.2929,16.2929,13.7071,13.7071,0.912013,2.69662,0.125388,0.249664,-0.221704,0.0294422,0,0,2.3625,0.525,-1.4525,0.257664,-0.225212,-0.982222,-0.07154,0.12964,0.48398
-1.57881,0,0,16.5788,16.5788,13.4212,13.4212,1.1162,2.95192,-0.113664,0.245214,-0.218149,0.0291597,0,0,2.3625,0.525,-1.4525,0.257664,-0.225212,-0.982222,-0.07182,0.13272,0.48244
-1.55624,0,0,16.5562,16.5562,13.4438,13.4438,1.10002,2.7139,0.0798434,-0.228926,0.0142241,-0.0416938,0,0,2.3975,0.2975,-0.2625,-0.22265,0.007198,-1.05274,-0.07182,0.13272,0.48244
-1.53395,0,0,16.5339,16.5339,13.4661,13.4661,1.08404,2.48026,0.273103,-0.224852,0.0139491,-0.0415038,0,0,2.3975,0.2975,-0.2625,-0.22265,0.007198,-1.05274,-0.07182,0.13272,0.48244
-1.5358,0,0,16.5358,16.5358,13.4642,13.4642,1.08531,2.47972,0.276552,0.0272398,0.346767,-0.0976913,1,0,4.06,-0.2625,1.0325,0.0305,0.339648,-1.10849,-0.07182,0.13272,0.48244
-1.54109,0,0,16.5411,16.5411,13.4589,13.4589,1.08902,2.47883,0.279604,0.0272553,0.346831,-0.0976918,1,0,5.4425,-0.4725,0.805,0.0305,0.339648,-1.10849,-0.07182,0.13272,0.48244
-1.54678,0,0,16.5468,16.5468,13.4532,13.4532,1.09303,2.47844,0.281495,0.326967,0.174458,-0.182896,1,0,5.635,-0.1925,0.1225,0.331474,0.167384,-1.19304,-0.07182,0.13272,0.48244
-1.5509,0,0,16.5509,16.5509,13.4491,13.4491,1.09592,2.47855,0.284055,0.326965,0.174509,-0.182897,1,0,4.9875,0.105,0.5075,0.331474,0.167384,-1.19304,-0.07182,0.13272,0.48244
-1.46938,0,0,16.4694,16.4694,13.5306,13.5306,1.03763,2.817,-0.03274,0.278909,0.0591768,0.138359,0,0,4.9875,-0.1225,0.0175,0.28914,0.053192,-0.874008,-0.07182,0.13272,0.48244
-1.38893,0,0,16.3889,16.3889,13.6111,13.6111,0.980114,3.14776,-0.342498,0.273144,0.0581692,0.138077,0,0,4.9875,-0.1225,0.0175,0.28914,0.053192,-0.874008,-0.06944,0.12712,0.48272
-1.57925,0,0,16.5792,16.5792,13.4208,13.4208,1.116,2.83252,-0.0693363,-0.311903,-0.158187,-0.049791,0,0,0.8925,-0.6825,-0.875,-0.303902,-0.16531,-1.06067,-0.06944,0.12712,0.48272
-1.76624,0,0,16.7662,16.7662,13.2338,13.2338,1.24949,2.52299,0.201763,-0.306507,-0.155854,-0.0495867,0,0,0.8925,-0.6825,-0.875,-0.303902,-0.16531,-1.06067,-0.06944,0.12712,0.48272
-2.04814,0,0,17.0481,17.0481,12.9519,12.9519,1.45077,2.33664,0.367371,-0.181529,-0.224275,-0.0399416,0,0,2.485,0.3325,-2.0125,-0.181658,-0.237168,-1.05115,-0.06944,0.12712,0.48272
-2.32533,0,0,17.3253,17.3253,12.6747,12.6747,1.64868,2.15374,0.53128,-0.178339,-0.220821,-0.0399099,0,0,2.485,0.3325,-2.0125,-0.181658,-0.237168,-1.05115,-0.06944,0.12712,0.48272
-2.07975,0,0,17.0797,17.0797,12.9203,12.9203,1.47318,2.13436,0.54002,-0.0171539,0.196724,-0.0859196,0,0,4.7425,0.3325,-2.6075,-0.02013,0.183,-1.0969,-0.06944,0.12712,0.48272
-1.83825,0,0,16.8383,16.8383,13.1617,13.1617,1.30062,2.1153,0.548949,-0.0168216,0.193715,-0.0858344,0,0,4.7425,0.3325,-2.6075,-0.02013,0.183,-1.0969,-0.06944,0.12712,0.48272
-1.84405,0,0,16.8441,16.8441,13.1559,13.1559,1.30469,2.11645,0.54607,0.340205,-0.356273,0.024448,1,0,5.775,0.6475,-2.6775,0.338428,-0.366488,-0.987468,-0.06944,0.12712,0.48272
-1.84985,0,0,16.8498,16.8498,13.1502,13.1502,1.30876,2.1176,0.543191,0.340185,-0.356202,0.0244457,1,0,5.775,0.6475,-2.6775,0.338428,-0.366488,-0.987468,-0.07532,0.13216,0.47362
-1.84928,0,0,16.8493,16.8493,13.1507,13.1507,1.30828,2.11866,0.54136,0.224147,0.297901,-0.1092,1,0,3.2025,0.6125,-2.065,0.221918,0.286944,-1.12008,-0.07532,0.13216,0.47362
-1.8487,0,0,16.8487,16.8487,13.1513,13.1513,1.3078,2.11972,0.53953,0.224129,0.297892,-0.1092,1,0,3.2025,0.6125,-2.065,0.221918,0.286944,-1.12008,-0.07532,0.13216,0.47362
-1.84674,0,0,16.8467,16.8467,13.1533,13.1533,1.30633,2.12029,0.53946,-0.246517,0.0388358,0.188827,1,0,2.6075,0.35,-1.0325,-0.25071,0.028182,-0.824354,-0.07532,0.13216,0.47362
-1.84477,0,0,16.8448,16.8448,13.1552,13.1552,1.30485,2.12087,0.539389,-0.246527,0.03881,0.188827,1,0,2.6075,0.35,-1.0325,-0.25071,0.028182,-0.824354,-0.07532,0.13216,0.47362
-1.91683,0,0,16.9168,16.9168,13.0832,13.0832,1.35625,1.97631,0.664132,-0.132481,-0.0534743,-0.000935867,0,0,3.2375,0.2625,0.3325,-0.138714,-0.064904,-1.01272,-0.07532,0.13216,0.47362
-1.98764,0,0,16.9876,16.9876,13.0124,13.0124,1.40675,1.83448,0.788333,-0.130007,-0.0525916,-0.000874824,0,0,3.2375,0.2625,0.3325,-0.138714,-0.064904,-1.01272,-0.07532,0.13216,0.47362
-1.9891,0,0,16.9891,16.9891,13.0109,13.0109,1.40772,1.83482,0.790418,0.0435897,-0.00067089,-0.291034,1,0,3.9375,0.245,0.2275,0.035624,-0.013054,-1.30064,-0.07532,0.13216,0.47362
-1.99056,0,0,16.9906,16.9906,13.0094,13.0094,1.40869,1.83517,0.792504,0.0435838,-0.000654042,-0.291034,1,0,3.9375,0.245,0.2275,0.035624,-0.013054,-1.30064,-0.07532,0.13216,0.47362
-2.29803,0,0,17.298,17.298,12.702,12.702,1.62822,1.65478,0.961546,-0.162954,-0.21372,0.0679695,0,0,4.9525,-0.385,0.0875,-0.174948,-0.229726,-0.944402,-0.06776,0.12782,0.48524
-2.2936,0,0,17.2936,17.2936,12.7064,12.7064,1.62497,1.6543,0.96376,0.452987,-0.308303,-0.0150189,1,0,1.575,-0.2275,0.315,0.443592,-0.324154,-1.02675,-0.06776,0.12782,0.48524
-2.28941,0,0,17.2894,17.2894,12.7106,12.7106,1.62189,1.65303,0.965472,0.453009,-0.308357,-0.0150168,1,0,1.68,-0.7,0.035,0.443592,-0.324154,-1.02675,-0.06776,0.12782,0.48524
-2.28545,0,0,17.2854,17.2854,12.7146,12.7146,1.61898,1.65236,0.966269,0.0331665,-0.234521,0.249816,1,0,1.785,-0.3675,-0.5075,0.02196,-0.250344,-0.763964,-0.06776,0.12782,0.48524
-2.2859,0,0,17.2859,17.2859,12.7141,12.7141,1.61921,1.65225,0.965913,0.0331683,-0.234517,0.249816,1,0,3.57,-0.0525,-1.19,0.02196,-0.250344,-0.763964,-0.06776,0.12782,0.48524
-2.28854,0,0,17.2885,17.2885,12.7115,12.7115,1.62101,1.65289,0.964797,-0.329113,0.109546,-0.101941,1,0,4.4625,0.3675,-1.645,-0.341844,0.09333,-1.11301,-0.06776,0.12782,0.48524
-2.29006,0,0,17.2901,17.2901,12.7099,12.7099,1.62201,1.6531,0.962798,-0.329117,0.109563,-0.101941,1,0,4.025,0.105,-2.1525,-0.341844,0.09333,-1.11301,-0.06776,0.12782,0.48524
-2.29385,0,0,17.2938,17.2938,12.7062,12.7062,1.62463,1.65182,0.960667,-0.0489484,-0.3342,-0.159113,1,0,4.935,-0.77,-2.205,-0.060512,-0.350018,-1.16974,-0.06776,0.12782,0.48524
-2.29375,0,0,17.2938,17.2938,12.7062,12.7062,1.62447,1.65242,0.95757,-0.0489589,-0.334202,-0.159113,1,0,3.395,0.315,-2.8,-0.060512,-0.350018,-1.16974,-0.07154,0.12922,0.4858
-2.29303,0,0,17.293,17.293,12.707,12.707,1.62387,1.6533,0.954209,0.200922,-0.105347,-0.159113,1,0,3.15,0.4725,-2.9575,0.190442,-0.12139,-1.16974,-0.07154,0.12922,0.4858
-2.2924,0,0,17.2924,17.2924,12.7076,12.7076,1.62333,1.65319,0.951932,0.200924,-0.105357,-0.159113,1,0,3.1675,-0.0875,-2.31,0.190442,-0.12139,-1.16974,-0.07154,0.12922,0.4858
-2.28871,0,0,17.2887,17.2887,12.7113,12.7113,1.62061,1.65382,0.949705,0.00216209,0.144223,0.28547,1,0,1.9425,0.35,-2.2925,-0.00915,0.127978,-0.728584,-0.07154,0.12922,0.4858
-2.2901,0,0,17.2901,17.2901,12.7099,12.7099,1.62151,1.65376,0.947759,0.00216313,0.144238,0.285469,1,0,3.9725,-0.0525,-2.1175,-0.00915,0.127978,-0.728584,-0.07154,0.12922,0.4858
-2.29211,0,0,17.2921,17.2921,12.7079,12.7079,1.62286,1.6528,0.947108,0.0200383,0.420635,-0.269643,1,0,4.2,-0.56,-1.3475,0.008784,0.404064,-1.27941,-0.07154,0.12922,0.4858
-2.29236,0,0,17.2924,17.2924,12.7076,12.7076,1.62296,1.65298,0.94733,0.0200352,0.420636,-0.269644,1,0,3.4825,0.1225,-0.8575,0.008784,0.404064,-1.27941,-0.07154,0.12922,0.4858
-2.29376,0,0,17.2938,17.2938,12.7062,12.7062,1.62387,1.65393,0.947753,-0.194161,0.0195882,-0.0902627,1,0,3.9375,0.5775,-0.7525,-0.206302,0.003416,-1.10142,-0.07154,0.12922,0.4858
-2.29114,0,0,17.2911,17.2911,12.7089,12.7089,1.62191,1.65487,0.949437,-0.194177,0.0195541,-0.0902622,1,0,2.31,0.595,-0.0175,-0.206302,0.003416,-1.10142,-0.0644,0.12712,0.48958
-2.50444,0,0,17.5044,17.5044,12.4956,12.4956,1.77417,1.48656,1.11078,-0.147992,-0.141194,0.0984655,0,0,3.7625,0.5425,0.0525,-0.16287,-0.15982,-0.914146,-0.0644,0.12712,0.48958
-2.71016,0,0,17.7102,17.7102,12.2898,12.2898,1.92101,1.32065,1.27132,-0.145097,-0.138631,0.0984538,0,0,2.1525,0.1575,0.3325,-0.16287,-0.15982,-0.914146,-0.0644,0.12712,0.48958
-2.70644,0,0,17.7064,17.7064,12.2936,12.2936,1.91825,1.31989,1.27373,0.4587,-0.379147,0.0664891,1,0,1.855,-0.385,0.4375,0.44347,-0.400038,-0.945866,-0.0644,0.12712,0.48958
-2.70592,0,0,17.7059,17.7059,12.2941,12.2941,1.91778,1.31914,1.27647,0.458713,-0.379155,0.0664897,1,0,3.1325,-0.3675,0.63,0.44347,-0.400038,-0.945866,-0.0644,0.12712,0.48958
-2.70475,0,0,17.7048,17.7048,12.2952,12.2952,1.91684,1.31771,1.27943,-0.196555,0.0993215,-0.143013,1,0,2.87,-0.77,0.77,-0.214598,0.077958,-1.15375,-0.0644,0.12712,0.48958
-2.70686,0,0,17.7069,17.7069,12.2931,12.2931,1.91825,1.31682,1.28097,-0.19654,0.099346,-0.143014,1,0,4.2,-0.4725,-0.07,-0.214598,0.077958,-1.15375,-0.0644,0.12712,0.48958
-2.40087,0,0,17.4009,17.4009,12.5991,12.5991,1.69959,1.28111,1.32093,-0.0309394,0.223278,0.0400681,0,0,4.865,0.1925,-0.6825,-0.048922,0.20557,-0.972218,-0.0644,0.12712,0.48958
-2.09459,0,0,17.0946,17.0946,12.9054,12.9054,1.48074,1.24609,1.35867,-0.0303283,0.219461,0.0401875,0,0,2.7475,0.105,-1.225,-0.048922,0.20557,-0.972218,-0.0679,0.12866,0.48328
-2.09475,0,0,17.0948,17.0948,12.9052,12.9052,1.48078,1.24621,1.3579,0.0577468,-0.0195407,0.292847,1,0,3.465,0.07,-1.435,0.039528,-0.033184,-0.721508,-0.0679,0.12866,0.48328
-2.09156,0,0,17.0916,17.0916,12.9084,12.9084,1.47842,1.24603,1.35577,0.0577499,-0.0195818,0.292848,1,0,2.135,-0.1225,-2.2225,0.039528,-0.033184,-0.721508,-0.0679,0.12866,0.48328
-2.08708,0,0,17.0871,17.0871,12.9129,12.9129,1.47514,1.247,1.35316,-0.0595007,0.205929,0.245514,1,0,1.6275,0.5425,-2.52,-0.078202,0.19215,-0.768478,-0.0679,0.12866,0.48328
-2.08815,0,0,17.0882,17.0882,12.9118,12.9118,1.47582,1.24728,1.35051,-0.0595056,0.205941,0.245513,1,0,3.85,0.14,-2.5375,-0.078202,0.19215,-0.768478,-0.0679,0.12866,0.48328
-2.09015,0,0,17.0902,17.0902,12.9098,12.9098,1.47717,1.24708,1.34826,0.394611,0.215246,-0.0889072,1,0,4.2175,-0.14,-2.2925,0.377834,0.201422,-1.10032,-0.0679,0.12866,0.48328
-2.09377,0,0,17.0938,17.0938,12.9062,12.9062,1.47968,1.24773,1.34603,0.3946,0.21529,-0.0889086,1,0,4.865,0.3675,-2.2925,0.377834,0.201422,-1.10032,-0.0679,0.12866,0.48328
-2.09923,0,0,17.0992,17.0992,12.9008,12.9008,1.4835,1.24836,1.34401,0.143843,-0.0370794,-0.311447,1,0,5.6,0.35,-2.17,0.126026,-0.050752,-1.32114,-0.0679,0.12866,0.48328
-2.1011,0,0,17.1011,17.1011,12.8989,12.8989,1.48475,1.24818,1.34311,0.143846,-0.0370575,-0.311448,1,0,4.1475,-0.105,-1.505,0.126026,-0.050752,-1.32114,-0.07168,0.1295,0.4858
-2.10258,0,0,17.1026,17.1026,12.8974,12.8974,1.48573,1.24904,1.34245,0.201901,-0.40281,-0.188377,1,0,3.99,0.5075,-1.3825,0.184342,-0.416142,-1.19902,-0.07168,0.1295,0.4858
-2.09876,0,0,17.0988,17.0988,12.9012,12.9012,1.48293,1.25026,1.34282,0.20188,-0.402859,-0.188376,1,0,1.855,0.735,-0.7875,0.184342,-0.416142,-1.19902,-0.07168,0.1295,0.4858
-2.09356,0,0,17.0936,17.0936,12.9064,12.9064,1.47913,1.25159,1.34361,0.196997,-0.0803885,-0.151368,1,0,1.295,0.805,-0.5425,0.179462,-0.09394,-1.16229,-0.07168,0.1295,0.4858
-2.09197,0,0,17.092,17.092,12.908,12.908,1.47792,1.25086,1.34546,0.19701,-0.0804097,-0.151367,1,0,2.73,-0.385,0.105,0.179462,-0.09394,-1.16229,-0.07168,0.1295,0.4858
-2.08858,0,0,17.0886,17.0886,12.9114,12.9114,1.47542,1.25109,1.34703,-0.203776,-0.140295,-0.182718,1,0,2.0125,0.175,-0.07,-0.223016,-0.15372,-1.1934,-0.07168,0.1295,0.4858
-2.09097,0,0,17.091,17.091,12.909,12.909,1.47704,1.25069,1.34874,-0.203769,-0.140267,-0.182718,1,0,4.3225,-0.1925,0.0175,-0.223016,-0.15372,-1.1934,-0.07168,0.1295,0.4858
-2.09497,0,0,17.095,17.095,12.905,12.905,1.47982,1.0395,1.54661,-0.185748,-0.00160281,0.0578414,0,0,3.6925,-0.875,0.5075,-0.20862,-0.01525,-0.954772,-0.07168,0.1295,0.4858
-2.10397,0,0,17.104,17.104,12.896,12.896,1.48617,0.833246,1.74373,-0.182149,-0.00149051,0.0578974,0,0,5.7575,-0.2625,0.315,-0.20862,-0.01525,-0.954772,-0.07168,0.1295,0.4858
-1.83263,0,0,16.8326,16.8326,13.1674,13.1674,1.29229,1.03053,1.58482,0.189313,0.207382,0.025465,0,0,5.705,-0.14,-0.175,0.167872,0.196786,-0.98698,-0.06776,0.1267,0.4795
-2.39228,0,0,17.3923,17.3923,12.6077,12.6077,1.69195,1.09582,1.54559,0.0450639,-0.371733,0.176612,0,0,3.9375,0.4025,-0.455,0.024156,-0.388692,-0.836798,-0.06776,0.1267,0.4795
-2.94295,0,0,17.9429,17.9429,12.0571,12.0571,2.08517,1.15946,1.50601,0.0439533,-0.364876,0.176364,0,0,3.7625,0.2275,-1.1375,0.024156,-0.388692,-0.836798,-0.06776,0.1267,0.4795
-2.93754,0,0,17.9375,17.9375,12.0625,12.0625,2.08119,1.15894,1.50567,-0.0396198,0.0407598,-0.26465,1,0,1.2075,-0.2975,-1.1725,-0.05978,0.016592,-1.27441,-0.06776,0.1267,0.4795
-2.93445,0,0,17.9345,17.9345,12.0655,12.0655,2.07888,1.15897,1.50411,-0.0396203,0.0407195,-0.264648,1,0,2.1525,0,-1.89,-0.05978,0.016592,-1.27441,-0.06776,0.1267,0.4795
-2.93543,0,0,17.9354,17.9354,12.0646,12.0646,2.07947,1.15894,1.50268,0.187923,0.282785,-0.119692,1,0,3.78,-0.035,-1.82,0.168726,0.258396,-1.13057,-0.06776,0.1267,0.4795
-2.93941,0,0,17.9394,17.9394,12.0606,12.0606,2.08219,1.15825,1.50047,0.187935,0.282833,-0.119694,1,0,4.9875,-0.4375,-2.2575,0.168726,0.258396,-1.13057,-0.06776,0.1267,0.4795
-2.5864,0,0,17.5864,17.5864,12.4136,12.4136,1.82995,1.41798,1.27687,0.256294,0.278552,0.0119095,0,0,5.11,-0.0875,-2.59,0.241926,0.258518,-1.00003,-0.06776,0.1267,0.4795
-2.23552,0,0,17.2355,17.2355,12.7645,12.7645,1.57923,1.67477,1.04774,0.251814,0.274176,0.0119187,0,0,3.815,-0.3325,-2.2925,0.241926,0.258518,-1.00003,-0.0707,0.1302,0.48958
-2.23901,0,0,17.239,17.239,12.761,12.761,1.58164,1.67578,1.04606,0.173195,0.0647712,-0.193899,1,0,4.8125,0.5775,-1.9775,0.162992,0.049288,-1.20426,-0.0707,0.1302,0.48958
-2.23094,0,0,17.2309,17.2309,12.7691,12.7691,1.57579,1.67665,1.04471,0.17318,0.0646691,-0.193896,1,0,0.175,0.5075,-1.785,0.162992,0.049288,-1.20426,-0.0707,0.1302,0.48958
-2.2301,0,0,17.2301,17.2301,12.7699,12.7699,1.57511,1.67797,1.04391,-0.301244,-0.000436385,-0.165496,1,0,3.0625,0.77,-1.47,-0.313418,-0.015738,-1.17608,-0.0707,0.1302,0.48958
-2.22941,0,0,17.2294,17.2294,12.7706,12.7706,1.57453,1.67977,1.04463,-0.301276,-0.000446485,-0.165496,1,0,3.0975,1.085,-0.595,-0.313418,-0.015738,-1.17608,-0.0707,0.1302,0.48958
-2.22857,0,0,17.2286,17.2286,12.7714,12.7714,1.57385,1.67998,1.04596,-0.0863714,0.00857895,-0.156767,1,0,3.0275,0.1575,-0.21,-0.0976,-0.00671,-1.16742,-0.0707,0.1302,0.48958
-2.23129,0,0,17.2313,17.2313,12.7687,12.7687,1.5757,1.68033,1.0467,-0.0863774,0.00861134,-0.156768,1,0,4.4625,0.2275,-0.56,-0.0976,-0.00671,-1.16742,-0.0707,0.1302,0.48958
-2.23193,0,0,17.2319,17.2319,12.7681,12.7681,1.57608,1.68114,1.04784,0.340631,-0.105815,-0.054967,1,0,3.6225,0.5075,-0.3325,0.33123,-0.121024,-1.0664,-0.0707,0.1302,0.48958
-2.23436,0,0,17.2344,17.2344,12.7656,12.7656,1.57773,1.68012,1.05007,0.340648,-0.105786,-0.0549672,1,0,4.3225,-0.5425,0.3325,0.33123,-0.121024,-1.0664,-0.06818,0.12628,0.48202
-2.23365,0,0,17.2336,17.2336,12.7664,12.7664,1.57714,1.67932,1.05242,-0.0134684,0.521813,-0.0494339,1,0,3.0625,-0.42,0.4025,-0.0244,0.505934,-1.06091,-0.06818,0.12628,0.48202
-2.23162,0,0,17.2316,17.2316,12.7684,12.7684,1.5756,1.678,1.05464,-0.0134455,0.521786,-0.0494325,1,0,2.5375,-0.7175,0.3325,-0.0244,0.505934,-1.06091,-0.06818,0.12628,0.48202
-1.83161,0,0,16.8316,16.8316,13.1684,13.1684,1.28981,1.46814,1.24526,-0.185088,0.282443,0.105708,0,0,4.515,0.14,-0.14,-0.200446,0.271816,-0.907192,-0.06818,0.12628,0.48202
-1.43502,0,0,16.435,16.435,13.565,13.565,1.00648,1.26184,1.43655,-0.181488,0.277502,0.105893,0,0,3.4125,0.14,-0.84,-0.200446,0.271816,-0.907192,-0.06818,0.12628,0.48202
-1.4372,0,0,16.4372,16.4372,13.5628,13.5628,1.00798,1.2615,1.43715,0.039743,0.00579623,0.113638,1,0,4.27,-0.175,-0.63,0.021716,0.000366,-0.899506,-0.06818,0.12628,0.48202
-1.43598,0,0,16.436,16.436,13.564,13.564,1.00706,1.26179,1.43662,0.0397381,0.00578013,0.113638,1,0,2.9225,0.175,-1.295,0.021716,0.000366,-0.899506,-0.06818,0.12628,0.48202
-1.43996,0,0,16.44,16.44,13.56,13.56,1.00985,1.26079,1.43592,0.181529,-0.108726,-0.152054,1,0,5.005,-0.5775,-1.3825,0.16409,-0.11407,-1.16315,-0.06818,0.12628,0.48202
-1.4443,0,0,16.4443,16.4443,13.5557,13.5557,1.01289,1.26157,1.43399,0.181516,-0.108673,-0.152055,1,0,5.1625,0.455,-2.1175,0.16409,-0.11407,-1.16315,-0.07112,0.12992,0.4837
-1.8792,0,0,16.8792,16.8792,13.1208,13.1208,1.32347,1.36994,1.34505,0.103818,-0.340182,0.00455026,0,0,4.5675,0.21,-2.3275,0.087962,-0.35075,-1.0076,-0.07112,0.12992,0.4837
-2.29602,0,0,17.296,17.296,12.704,12.704,1.62111,1.47378,1.25794,0.102006,-0.334991,0.00437187,0,0,0.0525,-1.225,-1.925,0.087962,-0.35075,-1.0076,-0.07112,0.12992,0.4837
-2.2913,0,0,17.2913,17.2913,12.7087,12.7087,1.61765,1.47253,1.25596,-0.151391,0.204504,0.125847,1,0,1.5225,-0.7525,-2.1175,-0.16653,0.188246,-0.887062,-0.07112,0.12992,0.4837
-2.28791,0,0,17.2879,17.2879,12.7121,12.7121,1.61514,1.47275,1.25447,-0.151395,0.20446,0.125848,1,0,2.0475,0.1225,-1.855,-0.16653,0.188246,-0.887062,-0.07112,0.12992,0.4837
-2.46043,0,0,17.4604,17.4604,12.5396,12.5396,1.73828,1.32841,1.38803,-0.146204,-0.141574,-0.0761573,0,0,3.9025,0.5775,-1.715,-0.163846,-0.159576,-1.08751,-0.07112,0.12992,0.4837
-2.6424,0,0,17.6424,17.6424,12.3576,12.3576,1.86816,1.18595,1.52188,-0.143718,-0.139307,-0.0761741,0,0,8.82,0.1575,-0.98,-0.163846,-0.159576,-1.08751,-0.07112,0.12992,0.4837
-2.64533,0,0,17.6453,17.6453,12.3547,12.3547,1.87015,1.18709,1.52192,-0.0256542,-0.138417,-0.163469,1,0,4.55,0.6825,-0.98,-0.045262,-0.158722,-1.17413,-0.07112,0.12992,0.4837
-2.6585,0,0,17.6585,17.6585,12.3415,12.3415,1.87946,1.18851,1.52249,-0.025679,-0.138255,-0.163475,1,0,8.645,0.8575,-0.6825,-0.045262,-0.158722,-1.17413,-0.06972,0.12446,0.48804
-2.66176,0,0,17.6618,17.6618,12.3382,12.3382,1.88169,1.18989,1.52335,0.110118,-0.114279,-0.093519,1,0,4.6725,0.84,-0.5075,0.091134,-0.13481,-1.10471,-0.06972,0.12446,0.48804
-2.66222,0,0,17.6622,17.6622,12.3378,12.3378,1.88191,1.19089,1.52405,0.1101,-0.114275,-0.0935195,1,0,3.5525,0.6125,-0.595,0.091134,-0.13481,-1.10471,-0.06972,0.12446,0.48804
-2.65802,0,0,17.658,17.658,12.342,12.342,1.87881,1.19139,1.52524,0.0207997,0.214802,0.187665,1,0,1.68,0.3325,-0.2975,0.001464,0.19398,-0.825696,-0.06972,0.12446,0.48804
-2.65089,0,0,17.6509,17.6509,12.3491,12.3491,1.87362,1.19175,1.52655,0.0207936,0.214712,0.187668,1,0,0.5075,0.245,-0.2275,0.001464,0.19398,-0.825696,-0.06972,0.12446,0.48804
-2.33368,0,0,17.3337,17.3337,12.6663,12.6663,1.64695,1.48592,1.27712,0.300666,0.250324,-0.00781835,0,0,1.54,-0.595,-0.2625,0.287676,0.233508,-1.01968,-0.06972,0.12446,0.48804
-2.02548,0,0,17.0255,17.0255,12.9745,12.9745,1.42673,1.7758,1.02532,0.295609,0.24648,-0.00785925,0,0,3.29,-0.21,-0.7,0.287676,0.233508,-1.01968,-0.06972,0.12446,0.48804
-2.02874,0,0,17.0287,17.0287,12.9713,12.9713,1.42898,1.77601,1.02551,-0.163975,-0.536924,-0.0992111,1,0,4.69,0.14,-0.875,-0.17385,-0.549122,-1.11032,-0.06972,0.12446,0.48804
-2.03394,0,0,17.0339,17.0339,12.9661,12.9661,1.43262,1.77576,1.02626,-0.163971,-0.536861,-0.0992125,1,0,5.46,-0.1225,-0.5425,-0.17385,-0.549122,-1.11032,-0.06972,0.12446,0.48804
-2.30318,0,0,17.3032,17.3032,12.6968,12.6968,1.62484,1.74413,1.06431,-0.0319716,-0.212315,-0.0450648,0,0,4.69,0.3325,-0.875,-0.041846,-0.228262,-1.05652,-0.07126,0.12614,0.4872
-2.56693,0,0,17.5669,17.5669,12.4331,12.4331,1.81314,1.71341,1.10085,-0.0314356,-0.209031,-0.0451471,0,0,4.27,0.525,-1.54,-0.041846,-0.228262,-1.05652,-0.07126,0.12614,0.4872
-2.50913,0,0,17.5091,17.5091,12.4909,12.4909,1.77176,1.74546,1.07786,0.0263185,0.0408511,0.0433815,0,0,2.555,0.6475,-1.6625,0.016714,0.022082,-0.96868,-0.07126,0.12614,0.4872
-2.44981,0,0,17.4498,17.4498,12.5502,12.5502,1.7293,1.77619,1.05431,0.0257824,0.0401102,0.0433877,0,0,1.575,0.21,-1.995,0.016714,0.022082,-0.96868,-0.07126,0.12614,0.4872
-2.44431,0,0,17.4443,17.4443,12.5557,12.5557,1.72527,1.77445,1.05348,-0.0729553,-0.366276,-0.0796807,1,0,1.19,-1.015,-1.435,-0.082472,-0.383812,-1.0908,-0.07126,0.12614,0.4872
-2.4388,0,0,17.4388,17.4388,12.5612,12.5612,1.72125,1.77272,1.05265,-0.072925,-0.366346,-0.0796777,1,0,1.19,-1.015,-1.435,-0.082472,-0.383812,-1.0908,-0.07126,0.12614,0.4872
-2.63305,0,0,17.633,17.633,12.367,12.367,1.8599,1.9412,0.91054,0.172331,-0.161079,-0.0589473,0,0,2.59,-0.315,-1.295,0.166774,-0.18117,-1.07006,-0.07126,0.12614,0.4872
-2.82412,0,0,17.8241,17.8241,12.1759,12.1759,1.99627,2.10655,0.769439,0.169447,-0.158705,-0.0591291,0,0,2.59,-0.315,-1.295,0.166774,-0.18117,-1.07006,-0.07126,0.12614,0.4872
-2.59492,0,0,17.5949,17.5949,12.4051,12.4051,1.83246,2.34223,0.55851,0.195101,0.164513,0.115271,0,0,5.5825,0.42,-0.8225,0.196664,0.14457,-0.896944,-0.07448,0.12684,0.48412
-2.59948,0,0,17.5995,17.5995,12.4005,12.4005,1.83562,2.34252,0.558857,0.0344917,-0.072358,-0.133333,1,0,5.1975,0.1925,-0.7875,0.03538,-0.09211,-1.14363,-0.07448,0.12684,0.48412
-2.60166,0,0,17.6017,17.6017,12.3983,12.3983,1.83707,2.34367,0.559441,0.0344716,-0.0723327,-0.133335,1,0,4.235,0.7,-0.665,0.03538,-0.09211,-1.14363,-0.07448,0.12684,0.48412
-2.59948,0,0,17.5995,17.5995,12.4005,12.4005,1.83542,2.34425,0.560336,0.374622,-0.0127637,-0.163211,1,0,2.485,0.3675,-0.4725,0.37698,-0.032574,-1.17327,-0.07448,0.12684,0.48412
-2.59472,0,0,17.5947,17.5947,12.4053,12.4053,1.83192,2.34374,0.560477,0.37463,-0.0128246,-0.163208,1,0,1.47,-0.28,-0.8925,0.37698,-0.032574,-1.17327,-0.07448,0.12684,0.48412
-2.58725,0,0,17.5873,17.5873,12.4127,12.4127,1.82649,2.34403,0.559862,0.0752845,-0.0604265,0.184124,1,0,0.4025,0.175,-1.3475,0.076372,-0.080032,-0.828624,-0.07448,0.12684,0.48412
-2.58301,0,0,17.583,17.583,12.417,12.417,1.82336,2.34368,0.559857,0.0752907,-0.060481,0.184126,1,0,1.68,-0.1925,-0.98,0.076372,-0.080032,-0.828624,-0.07448,0.12684,0.48412
-2.58119,0,0,17.5812,17.5812,12.4188,12.4188,1.82197,2.34269,0.560163,-0.17641,0.265329,-0.293528,1,0,2.6425,-0.56,-0.7875,-0.176412,0.245464,-1.30259,-0.07448,0.12684,0.48412
-2.58409,0,0,17.5841,17.5841,12.4159,12.4159,1.82394,2.34292,0.559636,-0.176414,0.265363,-0.293529,1,0,4.55,0.14,-1.295,-0.176412,0.245464,-1.30259,-0.07294,0.1239,0.48286
-2.58743,0,0,17.5874,17.5874,12.4126,12.4126,1.82623,2.34386,0.559252,-0.0815505,0.14291,-0.258982,1,0,4.725,0.56,-1.225,-0.08113,0.123098,-1.26831,-0.07294,0.1239,0.48286
-2.59145,0,0,17.5914,17.5914,12.4086,12.4086,1.829,2.3442,0.559239,-0.0815564,0.142958,-0.258984,1,0,4.9875,0.21,-0.9975,-0.08113,0.123098,-1.26831,-0.07294,0.1239,0.48286
-2.59458,0,0,17.5946,17.5946,12.4054,12.4054,1.83114,2.34475,0.559023,-0.0760991,-0.55215,-0.228126,1,0,4.6375,0.3325,-1.12,-0.07564,-0.571326,-1.23769,-0.07294,0.1239,0.48286
-2.59418,0,0,17.5942,17.5942,12.4058,12.4058,1.83075,2.34592,0.558136,-0.0761195,-0.552157,-0.228126,1,0,3.2375,0.6825,-1.5225,-0.07564,-0.571326,-1.23769,-0.07294,0.1239,0.48286
-2.59043,0,0,17.5904,17.5904,12.4096,12.4096,1.82798,2.34558,0.557561,-0.100411,-0.0667513,-0.267591,1,0,1.89,-0.1925,-1.3125,-0.10004,-0.086376,-1.27685,-0.07294,0.1239,0.48286
-2.58562,0,0,17.5856,17.5856,12.4144,12.4144,1.82444,2.34552,0.557596,-0.10041,-0.0668129,-0.267589,1,0,1.4525,-0.0175,-0.9625,-0.10004,-0.086376,-1.27685,-0.07294,0.1239,0.48286
