pid_x,pid_y,pid_z,front_left_speed,front_right_speed,back_left_speed,back_right_speed,orientation_x,orientation_y,orientation_z,acceleration_x,acceleration_y,acceleration_z,accel_rejected,mag_rejected,ahrs_initialized,gyro_x,gyro_y,gyro_z,accel_x,accel_y,accel_z,mag_x,mag_y,mag_z
-0.0146634,0,0,15.0147,15.0147,14.9853,14.9853,0.0104728,0.00267707,0.219125,0.000604585,-0.00855529,0.00989775,0,0,1,3.7275,0.0175,-0.9625,-0.03965,0.003416,-1.00284,-0.23184,0.05152,0.36918
-0.0238317,0,0,15.0238,15.0238,14.9762,14.9762,0.0170197,-0.00915432,0.445969,-0.00805737,-0.00550999,0.000184784,0,0,1,3.605,0.035,-0.8925,-0.048556,0.006344,-1.01248,-0.23184,0.05152,0.36918
-0.036777,0,0,15.0368,15.0368,14.9632,14.9632,0.0262635,-0.00972913,0.663832,-0.00124414,-0.00803544,0.00288959,0,0,1,3.43,-0.07,-0.945,-0.041724,0.00366,-1.00979,-0.23184,0.05152,0.36918
-0.0501231,0,0,15.0501,15.0501,14.9499,14.9499,0.0357927,-0.0100854,0.880035,-0.00123792,-0.00786912,0.0028895,0,0,1,3.6925,0.07,-0.945,-0.041724,0.00366,-1.00979,-0.23184,0.05152,0.36918
-0.0647186,0,0,15.0647,15.0647,14.9353,14.9353,0.046213,-0.00867007,1.09376,-0.000533712,-0.00866427,0.00694667,0,0,1,3.64,0.3325,-0.945,-0.040992,0.002684,-1.00577,-0.23184,0.05152,0.36918
-0.0751074,0,0,15.0751,15.0751,14.9249,14.9249,0.0536279,-0.0131365,1.30926,-0.00373587,-0.00658083,-0.00817612,0,0,1,3.43,0.14,-0.945,-0.044286,0.004636,-1.02077,-0.23184,0.05152,0.36918
-0.0855025,0,0,15.0855,15.0855,14.9145,14.9145,0.0610463,-0.0176415,1.51532,-0.00365725,-0.00645135,-0.00817627,0,0,1,3.5175,0.0875,-0.8925,-0.044286,0.004636,-1.02077,-0.22974,0.05586,0.36876
-0.0955031,0,0,15.0955,15.0955,14.9045,14.9045,0.0681823,-0.0267388,1.72294,-0.00653561,-0.00596042,-0.00633225,0,0,1,3.6925,0.1225,-0.91,-0.047336,0.005002,-1.01894,-0.22974,0.05586,0.36876
-0.109753,0,0,15.1098,15.1098,14.8902,14.8902,0.0783523,-0.0273462,1.92381,-0.0015441,-0.00834759,-0.00387351,0,0,1,3.78,0.175,-0.84,-0.042334,0.00244,-1.0165,-0.22974,0.05586,0.36876
-0.119072,0,0,15.1191,15.1191,14.8809,14.8809,0.0849998,-0.0290454,2.1237,-0.00212187,-0.00542265,-0.00424253,0,0,1,3.7275,0.4375,-0.9275,-0.042944,0.005246,-1.01687,-0.22974,0.05586,0.36876
-0.128161,0,0,15.1282,15.1282,14.8718,14.8718,0.0914819,-0.0308419,2.32209,-0.00209051,-0.00530952,-0.00424272,0,0,1,3.71,0.3675,-0.91,-0.042944,0.005246,-1.01687,-0.22974,0.05586,0.36876
-0.142154,0,0,15.1422,15.1422,14.8578,14.8578,0.101466,-0.0331197,2.51955,-0.00265818,-0.00831055,0.00510105,0,0,1,3.6575,0.245,-0.8575,-0.043554,0.002074,-1.0076,-0.22974,0.05586,0.36876
-0.15565,0,0,15.1556,15.1556,14.8444,14.8444,0.111094,-0.0354316,2.71551,-0.00261784,-0.00814251,0.00510071,0,0,1,3.57,0.21,-0.84,-0.043554,0.002074,-1.0076,-0.22974,0.05586,0.36876
-0.162348,0,0,15.1623,15.1623,14.8377,14.8377,0.115866,-0.0487393,2.91705,-0.00906729,-0.0042733,-0.00166179,0,0,1,3.5175,0.2275,-0.84,-0.050264,0.005856,-1.01431,-0.22974,0.05586,0.36876
-0.173506,0,0,15.1735,15.1735,14.8265,14.8265,0.123823,-0.0552494,3.12714,-0.00518761,-0.00682122,0.0031328,0,0,1,3.5525,0.2275,-0.84,-0.046482,0.003172,-1.00955,-0.22666,0.04802,0.36904
-0.176906,0,0,15.1769,15.1769,14.8231,14.8231,0.126238,-0.0635033,3.3362,-0.00552949,-0.0023825,-0.00547383,0,0,1,3.4125,0.0875,-0.91,-0.04697,0.007564,-1.01809,-0.22666,0.04802,0.36904
-0.182066,0,0,15.1821,15.1821,14.8179,14.8179,0.12991,-0.0663316,3.54038,-0.0023215,-0.00329543,0.00190288,0,0,1,3.4475,0.21,-0.8925,-0.043798,0.006588,-1.01077,-0.22666,0.04802,0.36904
-0.186773,0,0,15.1868,15.1868,14.8132,14.8132,0.133257,-0.0692459,3.74277,-0.00227064,-0.00323701,0.00190268,0,0,1,3.3075,0.1225,-1.05,-0.043798,0.006588,-1.01077,-0.22666,0.04802,0.36904
-0.197822,0,0,15.1978,15.1978,14.8022,14.8022,0.141135,-0.0741432,3.94537,-0.00400745,-0.00676332,0.00374648,0,0,1,3.535,0.0875,-0.9625,-0.045628,0.002928,-1.00894,-0.22666,0.04802,0.36904
-0.208171,0,0,15.2082,15.2082,14.7918,14.7918,0.148511,-0.07855,4.14651,-0.00393053,-0.00663459,0.00374605,0,0,1,3.3425,0.315,-0.9275,-0.045628,0.002928,-1.00894,-0.22666,0.04802,0.36904
-0.218927,0,0,15.2189,15.2189,14.7811,14.7811,0.156177,-0.0766264,4.34171,4.49207e-05,-0.00686717,-0.00055746,0,0,1,3.3075,0.315,-1.015,-0.041602,0.002562,-1.01321,-0.22666,0.04802,0.36904
-0.229983,0,0,15.23,15.23,14.77,14.77,0.164057,-0.0753415,4.52389,2.24941e-05,-0.00672964,-0.000557814,0,0,1,3.5175,0.035,-0.84,-0.041602,0.002562,-1.01321,-0.22834,0.05488,0.36596
-0.234735,0,0,15.2347,15.2347,14.7653,14.7653,0.167433,-0.0787607,4.7076,-0.00234754,-0.00300692,-0.00289409,0,0,1,3.5,-0.0525,-0.7525,-0.044042,0.006222,-1.01553,-0.22834,0.05488,0.36596
-0.23948,0,0,15.2395,15.2395,14.7605,14.7605,0.170804,-0.0820701,4.88991,-0.00228978,-0.00294808,-0.00289434,0,0,1,3.535,-0.035,-0.7525,-0.044042,0.006222,-1.01553,-0.22834,0.05488,0.36596
-0.248207,0,0,15.2482,15.2482,14.7518,14.7518,0.177019,-0.0834014,5.06962,-0.00141615,-0.00528215,-0.00141932,0,0,1,3.57,0.0175,-0.7875,-0.043188,0.003782,-1.01406,-0.22834,0.05488,0.36596
-0.256763,0,0,15.2568,15.2568,14.7432,14.7432,0.18311,-0.08472,5.24797,-0.00139313,-0.00517583,-0.00141969,0,0,1,3.57,0.0175,-0.7875,-0.043188,0.003782,-1.01406,-0.22834,0.05488,0.36596
-0.261979,0,0,15.262,15.262,14.738,14.738,0.186816,-0.0856325,5.42426,-0.000891264,-0.00303499,0.000424305,0,0,1,3.6225,0.07,-0.98,-0.0427,0.005856,-1.01223,-0.22834,0.05488,0.36596
-0.267093,0,0,15.2671,15.2671,14.7329,14.7329,0.190449,-0.0865342,5.59921,-0.000875527,-0.0029716,0.000424073,0,0,1,3.6225,0.07,-0.98,-0.0427,0.005856,-1.01223,-0.22834,0.05488,0.36596
-0.279385,0,0,15.2794,15.2794,14.7206,14.7206,0.199207,-0.0864122,5.77234,-0.000877657,-0.00733742,-0.000314135,0,0,1,3.6225,0.105,-0.945,-0.0427,0.001342,-1.01297,-0.22834,0.05488,0.36596
-0.291428,0,0,15.2914,15.2914,14.7086,14.7086,0.207787,-0.086361,5.93922,-0.000878551,-0.00718768,-0.000314665,0,0,1,3.6225,0.105,-0.945,-0.0427,0.001342,-1.01297,-0.22736,0.05684,0.37296
-0.299903,0,0,15.2999,15.2999,14.7001,14.7001,0.213818,-0.0822328,6.10207,0.00196506,-0.00512839,0.00263582,0,0,1,3.465,0.14,-0.8925,-0.039772,0.003294,-1.01004,-0.22736,0.05684,0.37296
-0.308211,0,0,15.3082,15.3082,14.6918,14.6918,0.219728,-0.0782375,6.2637,0.00189532,-0.00502524,0.00263552,0,0,1,3.465,0.14,-0.8925,-0.039772,0.003294,-1.01004,-0.22736,0.05684,0.37296
-0.315334,0,0,15.3153,15.3153,14.6847,14.6847,0.224792,-0.0823282,6.42978,-0.00325716,-0.00457048,-0.00412709,0,0,1,3.465,0.175,-0.7,-0.045018,0.00366,-1.01675,-0.22736,0.05684,0.37296
-0.322317,0,0,15.3223,15.3223,14.6777,14.6777,0.229756,-0.0863274,6.59461,-0.00318736,-0.00448385,-0.00412753,0,0,1,3.465,0.175,-0.7,-0.045018,0.00366,-1.01675,-0.22736,0.05684,0.37296
-0.32715,0,0,15.3271,15.3271,14.6729,14.6729,0.233182,-0.088755,6.75677,-0.00193014,-0.00283639,-0.00203771,0,0,1,3.64,0.1575,-0.875,-0.043798,0.005246,-1.01467,-0.22736,0.05684,0.37296
-0.33698,0,0,15.337,15.337,14.663,14.663,0.240178,-0.0913394,6.91796,-0.00249246,-0.00625597,0.000543629,0,0,1,3.395,0.1575,-0.8225,-0.044408,0.001708,-1.01211,-0.22736,0.05684,0.37296
-0.346703,0,0,15.3467,15.3467,14.6533,14.6533,0.247097,-0.0936108,7.07794,-0.00245282,-0.00613522,0.000543052,0,0,1,3.43,0.315,-0.805,-0.044408,0.001708,-1.01211,-0.22736,0.05684,0.37296
-0.359555,0,0,15.3596,15.3596,14.6404,14.6404,0.256249,-0.0496819,7.2054,0.0271519,-0.00683036,-0.000563228,0,0,1,3.36,0.245,-0.7525,-0.013908,0.000854,-1.01321,-0.22736,0.05684,0.37296
-0.373156,0,0,15.3732,15.3732,14.6268,14.6268,0.265936,-0.0070469,7.33665,0.0264078,-0.0066613,-0.00056363,0,0,1,3.78,0.28,-0.98,-0.013908,0.000854,-1.01321,-0.22764,0.05292,0.38234
-0.338237,0,0,15.3382,15.3382,14.6618,14.6618,0.240968,0.00257385,7.48838,0.0089889,0.0219691,0.00140548,0,0,1,3.7625,0.4025,-1.015,-0.031232,0.02989,-1.01126,-0.22764,0.05292,0.38234
-0.303923,0,0,15.3039,15.3039,14.6961,14.6961,0.216435,0.0111625,7.63886,0.008839,0.0215409,0.00140717,0,0,1,3.7275,-0.105,-1.12,-0.031232,0.02989,-1.01126,-0.22764,0.05292,0.38234
-0.0556775,0,0,15.0557,15.0557,14.9443,14.9443,0.0391124,-0.263235,7.97686,-0.154144,0.141183,0.0381651,0,0,1,3.8325,-0.3675,-1.0325,-0.199714,0.1525,-0.97478,-0.22764,0.05292,0.38234
0.189748,0,0,14.8103,14.8103,15.1897,15.1897,-0.136177,-0.528768,8.31429,-0.149509,0.138124,0.0381305,0,0,1,3.15,0.35,-0.9625,-0.199714,0.1525,-0.97478,-0.22764,0.05292,0.38234
0.723678,0,0,14.2763,14.2763,15.7237,15.7237,-0.5175,-0.871365,8.70464,-0.233794,0.409552,-0.203205,0,0,1,3.64,0.595,-0.8575,-0.29036,0.430294,-1.21414,-0.22764,0.05292,0.38234
0.722158,0,0,14.2778,14.2778,15.7222,15.7222,-0.516359,-0.870887,8.70425,-0.233803,0.409572,-0.203205,1,0,1,4.165,0.455,-1.085,-0.29036,0.430294,-1.21414,-0.22764,0.05292,0.38234
0.719492,0,0,14.2805,14.2805,15.7195,15.7195,-0.514399,-0.870891,8.70339,-0.125437,0.115159,-0.124641,1,0,1,4.62,0.175,-1.365,-0.181536,0.136152,-1.13619,-0.22764,0.05292,0.38234
0.716825,0,0,14.2832,14.2832,15.7168,15.7168,-0.51244,-0.870895,8.70252,-0.125437,0.115193,-0.12464,1,0,1,4.62,0.175,-1.365,-0.181536,0.136152,-1.13619,-0.22386,0.06566,0.3871
0.714231,0,0,14.2858,14.2858,15.7142,15.7142,-0.510532,-0.868963,8.70101,-0.123527,0.00286989,-0.275989,1,0,1,4.585,1.3125,-1.7325,-0.179584,0.023912,-1.28637,-0.22386,0.06566,0.3871
0.711637,0,0,14.2884,14.2884,15.7116,15.7116,-0.508625,-0.867031,8.6995,-0.123561,0.00290316,-0.275988,1,0,1,4.585,1.3125,-1.7325,-0.179584,0.023912,-1.28637,-0.22386,0.06566,0.3871
0.71513,0,0,14.2849,14.2849,15.7151,15.7151,-0.511065,-0.865572,8.69856,0.571069,0.0325374,-0.151196,1,0,1,2.1525,1.0325,-1.4,0.518012,0.053558,-1.16254,-0.22386,0.06566,0.3871
0.718624,0,0,14.2814,14.2814,15.7186,15.7186,-0.513506,-0.864113,8.69763,0.571043,0.0324948,-0.151196,1,0,1,2.1525,1.0325,-1.4,0.518012,0.053558,-1.16254,-0.22386,0.06566,0.3871
0.727796,0,0,14.2722,14.2722,15.7278,15.7278,-0.520001,-0.867375,8.69652,-0.188793,-0.0832726,-0.200254,1,0,1,-0.1225,-1.7325,-1.5225,-0.245098,-0.061976,-1.21122,-0.22386,0.06566,0.3871
0.925759,0,0,14.0742,14.0742,15.9258,15.9258,-0.661333,-0.281136,8.42148,0.408769,0.140194,0.0925635,0,0,1,4.27,-0.595,-1.05,0.365268,0.163724,-0.920734,-0.22386,0.06566,0.3871
1.1183,0,0,13.8817,13.8817,16.1183,16.1183,-0.798774,0.294301,8.14568,0.398726,0.137796,0.0925317,0,0,1,5.5475,0.595,-0.805,0.365268,0.163724,-0.920734,-0.22386,0.06566,0.3871
1.2532,0,0,13.7468,13.7468,16.2532,16.2532,-0.895038,0.0513003,8.43235,-0.220012,0.122804,-0.425831,0,0,1,6.825,1.0325,-1.3475,-0.260348,0.150426,-1.43509,-0.22974,0.07014,0.40082
1.243,0,0,13.757,13.757,16.243,16.243,-0.88766,0.0530406,8.4326,-0.220042,0.122933,-0.425829,1,0,1,7.665,1.19,-0.7,-0.260348,0.150426,-1.43509,-0.22974,0.07014,0.40082
1.23713,0,0,13.7629,13.7629,16.2371,16.2371,-0.883372,0.0532797,8.43236,-0.998041,-0.0600605,0.0102703,1,0,1,5.9325,0.315,-0.9975,-1.04164,-0.032452,-1.00235,-0.22974,0.07014,0.40082
1.23904,0,0,13.761,13.761,16.239,16.239,-0.884641,0.0557004,8.43218,0.588763,0.556902,0.158054,1,0,1,2.8175,1.5925,-0.945,0.551928,0.583892,-0.855708,-0.22974,0.07014,0.40082
1.24283,0,0,13.7572,13.7572,16.2428,16.2428,-0.887252,0.0561485,8.43194,0.588755,0.556856,0.158053,1,0,1,2.065,0.4375,-0.9975,0.551928,0.583892,-0.855708,-0.22974,0.07014,0.40082
1.24644,0,0,13.7536,13.7536,16.2464,16.2464,-0.889737,0.0540644,8.43216,-0.104649,0.448853,0.398171,1,0,1,2.135,-1.05,-0.7525,-0.144448,0.476044,-0.617442,-0.22974,0.07014,0.40082
1.25788,0,0,13.7421,13.7421,16.2579,16.2579,-0.897809,0.0531539,8.43293,-0.104633,0.448712,0.398169,1,0,1,-0.9975,-0.3675,-0.42,-0.144448,0.476044,-0.617442,-0.22974,0.07014,0.40082
1.26119,0,0,13.7388,13.7388,16.2612,16.2612,-0.900075,0.0550895,8.4342,-0.149616,0.0692245,-0.132109,1,0,1,2.2575,1.295,-0.105,-0.189588,0.09699,-1.14363,-0.22974,0.07014,0.40082
1.25199,0,0,13.748,13.748,16.252,16.252,-0.893413,0.05491,8.43585,-0.149613,0.0693408,-0.132107,1,0,1,7.2625,0.0525,0.105,-0.189588,0.09699,-1.14363,-0.231,0.0672,0.40292
1.24848,0,0,13.7515,13.7515,16.2485,16.2485,-0.89081,0.0566434,8.43757,0.40992,0.137655,-0.100262,1,0,1,4.9875,1.1725,0.1575,0.372344,0.165188,-1.11203,-0.231,0.0672,0.40292
1.23745,0,0,13.7625,13.7625,16.2375,16.2375,-0.882836,0.0554069,8.44045,0.409941,0.137794,-0.10026,1,0,1,7.9975,-0.5775,0.805,0.372344,0.165188,-1.11203,-0.231,0.0672,0.40292
1.23451,0,0,13.7655,13.7655,16.2345,16.2345,-0.880637,0.0544965,8.44317,1.03439,-0.276055,0.382067,1,0,1,4.76,-0.385,0.7175,0.999424,-0.24827,-0.633424,-0.231,0.0672,0.40292
1.23051,0,0,13.7695,13.7695,16.2305,16.2305,-0.877689,0.0533107,8.44547,1.03441,-0.276003,0.382068,1,0,1,5.18,-0.5425,0.4725,0.999424,-0.24827,-0.633424,-0.231,0.0672,0.40292
1.23325,0,0,13.7668,13.7668,16.2332,16.2332,-0.879549,0.053098,8.44695,0.811249,-0.188105,0.216579,1,0,1,2.485,0.035,0,0.77531,-0.16043,-0.797636,-0.231,0.0672,0.40292
1.24551,0,0,13.7545,13.7545,16.2455,16.2455,-0.888214,0.0541377,8.44826,0.811231,-0.188256,0.216577,1,0,1,-1.33,0.77,-0.0875,0.77531,-0.16043,-0.797636,-0.231,0.0672,0.40292
1.25813,0,0,13.7419,13.7419,16.2581,16.2581,-0.897129,0.055514,8.44816,-0.247662,0.170275,0.258008,1,0,1,-1.47,0.98,-0.91,-0.288042,0.197884,-0.756522,-0.231,0.0672,0.40292
1.26594,0,0,13.7341,13.7341,16.2659,16.2659,-0.902611,0.0559397,8.44839,0.164653,0.343233,-0.137765,1,0,1,0.455,0.42,-0.7175,0.126026,0.370758,-1.14924,-0.22904,0.0742,0.40698
1.26549,0,0,13.7345,13.7345,16.2655,16.2655,-0.902195,0.0570349,8.44751,-0.264333,0.533147,-0.0943641,1,0,1,3.7625,0.8225,-1.365,-0.304756,0.560468,-1.10617,-0.22904,0.0742,0.40698
1.25656,0,0,13.7434,13.7434,16.2566,16.2566,-0.895724,0.0559007,8.44544,-0.264313,0.53326,-0.0943623,1,0,1,7.1575,-0.4725,-2.0825,-0.304756,0.560468,-1.10617,-0.22904,0.0742,0.40698
1.24296,0,0,13.757,13.757,16.243,16.243,-0.885914,0.0622244,8.44265,0.554269,1.21954,-1.24786,1,0,1,9.03,3.9025,-2.4325,0.517402,1.24586,-2.25078,-0.22904,0.0742,0.40698
1.24479,0,0,13.7552,13.7552,16.2448,16.2448,-0.887122,0.0620197,8.44077,0.101981,-0.565486,0.40395,1,0,1,2.8525,0.07,-1.96,0.063196,-0.537288,-0.611708,-0.22904,0.0742,0.40698
1.2509,0,0,13.7491,13.7491,16.2509,16.2509,-0.891391,0.0573941,8.43701,0.102062,-0.565561,0.403949,1,0,1,1.1375,-2.5025,-3.0975,0.063196,-0.537288,-0.611708,-0.22904,0.0742,0.40698
1.26081,0,0,13.7392,13.7392,16.2608,16.2608,-0.898376,0.0543465,8.43292,0.254094,0.318515,0.393128,1,0,1,-0.385,-1.575,-3.2725,0.215818,0.345992,-0.622444,-0.22904,0.0742,0.40698
1.26937,0,0,13.7306,13.7306,16.2694,16.2694,-0.90439,0.052866,8.43163,0.25412,0.31841,0.393126,1,0,1,0.1575,-0.6825,-1.6275,0.215818,0.345992,-0.622444,-0.2317,0.08428,0.4046
1.275,0,0,13.725,13.725,16.275,16.275,-0.908314,0.0519533,8.42847,-0.0687734,-0.687006,0.702955,1,0,1,1.33,-0.3325,-2.7125,-0.108458,-0.658312,-0.315004,-0.2317,0.08428,0.4046
1.28063,0,0,13.7194,13.7194,16.2806,16.2806,-0.912238,0.0510404,8.42531,-0.0687574,-0.687074,0.702954,1,0,1,1.33,-0.3325,-2.7125,-0.108458,-0.658312,-0.315004,-0.2317,0.08428,0.4046
1.27712,0,0,13.7229,13.7229,16.2771,16.2771,-0.909636,0.0516189,8.42576,0.201781,-0.521303,0.487549,1,0,1,4.9875,0.5075,-0.595,0.163236,-0.492758,-0.528748,-0.2317,0.08428,0.4046
1.27361,0,0,13.7264,13.7264,16.2736,16.2736,-0.907033,0.0521973,8.42621,0.201771,-0.521258,0.48755,1,0,1,4.9875,0.5075,-0.595,0.163236,-0.492758,-0.528748,-0.2317,0.08428,0.4046
1.26372,0,0,13.7363,13.7363,16.2637,16.2637,-0.899873,0.050811,8.4271,0.471493,-0.458482,0.679352,1,0,1,7.5425,-0.6475,-0.35,0.434076,-0.430172,-0.338428,-0.2317,0.08428,0.4046
1.25383,0,0,13.7462,13.7462,16.2538,16.2538,-0.892712,0.0494246,8.428,0.471518,-0.458357,0.679354,1,0,1,7.5425,-0.6475,-0.35,0.434076,-0.430172,-0.338428,-0.2317,0.08428,0.4046
1.95048,0,0,13.0495,13.0495,16.9505,16.9505,-1.39017,-0.610017,8.99183,-0.429452,0.442686,0.144544,0,0,1,6.685,1.5225,-0.63,-0.482266,0.478606,-0.868884,-0.2317,0.08428,0.4046
2.63657,0,0,12.3634,12.3634,17.6366,17.6366,-1.88003,-1.24805,9.55171,-0.418318,0.434146,0.14412,0,0,1,6.685,1.5225,-0.63,-0.482266,0.478606,-0.868884,-0.23422,0.09296,0.41706
2.78656,0,0,12.2134,12.2134,17.7866,17.7866,-1.98696,-2.35251,10.4096,-0.70556,0.0313607,0.398201,0,0,1,2.905,0.735,0.2275,-0.790072,0.07808,-0.6161,-0.23422,0.09296,0.41706
2.9389,0,0,12.0611,12.0611,17.9389,17.9389,-2.09555,-3.43733,11.2643,-0.686651,0.0295032,0.397178,0,0,1,2.905,0.735,0.2275,-0.790072,0.07808,-0.6161,-0.23422,0.09296,0.41706
2.95469,0,0,12.0453,12.0453,17.9547,17.9547,-2.1066,-3.43799,11.2682,-0.677285,-0.284921,-0.763587,1,0,1,-2.5375,-0.2975,1.3825,-0.780678,-0.235826,-1.7679,-0.23422,0.09296,0.41706
2.97048,0,0,12.0295,12.0295,17.9705,17.9705,-2.11765,-3.43865,11.2721,-0.677273,-0.285114,-0.763594,1,0,1,-2.5375,-0.2975,1.3825,-0.780678,-0.235826,-1.7679,-0.23422,0.09296,0.41706
2.97721,0,0,12.0228,12.0228,17.9772,17.9772,-2.12223,-3.43582,11.2757,-0.0245797,-1.49632,-0.175163,1,0,1,1.085,1.75,1.3125,-0.125172,-1.4457,-1.18401,-0.23422,0.09296,0.41706
2.98393,0,0,12.0161,12.0161,17.9839,17.9839,-2.1268,-3.43299,11.2793,-0.024629,-1.4964,-0.175163,1,0,1,1.085,1.75,1.3125,-0.125172,-1.4457,-1.18401,-0.23422,0.09296,0.41706
2.97171,0,0,12.0283,12.0283,17.9717,17.9717,-2.11785,-3.43321,11.279,0.541255,0.40038,-0.973462,1,0,1,8.54,0.0525,-1.05,0.443104,0.44896,-1.97616,-0.23422,0.09296,0.41706
2.95949,0,0,12.0405,12.0405,17.9595,17.9595,-2.10889,-3.43342,11.2787,0.541259,0.400536,-0.973456,1,0,1,8.54,0.0525,-1.05,0.443104,0.44896,-1.97616,-0.23842,0.09478,0.42462
2.93844,0,0,12.0616,12.0616,17.9384,17.9384,-2.09363,-3.42613,11.278,-0.402934,1.77351,-1.58093,1,0,1,12.0575,4.4625,-1.1375,-0.504958,1.82024,-2.57896,-0.23842,0.09478,0.42462
2.91739,0,0,12.0826,12.0826,17.9174,17.9174,-2.07837,-3.41882,11.2772,-0.403061,1.77377,-1.58091,1,0,1,12.0575,4.4625,-1.1375,-0.504958,1.82024,-2.57896,-0.23842,0.09478,0.42462
3.2184,0,0,11.7816,11.7816,18.2184,18.2184,-2.29313,-4.59054,12.1994,-0.772508,0.108433,0.458588,0,0,1,-1.0675,-0.1575,-0.56,-0.896456,0.160308,-0.553636,-0.23842,0.09478,0.42462
3.52163,0,0,11.4784,11.4784,18.5216,18.5216,-2.50946,-5.74297,13.1215,-0.752477,0.104752,0.456621,0,0,1,-1.0675,-0.1575,-0.56,-0.896456,0.160308,-0.553636,-0.23842,0.09478,0.42462
3.53979,0,0,11.4602,11.4602,18.5398,18.5398,-2.52216,-5.75074,13.1235,0.387923,-0.197487,0.850893,1,0,1,-3.4825,-4.4275,0.07,0.248636,-0.141398,-0.162382,-0.23842,0.09478,0.42462
3.55795,0,0,11.442,11.442,18.558,18.558,-2.53486,-5.75852,13.1254,0.388058,-0.197707,0.85087,1,0,1,-3.4825,-4.4275,0.07,0.248636,-0.141398,-0.162382,-0.23842,0.09478,0.42462
3.56653,0,0,11.4335,11.4335,18.5665,18.5665,-2.54071,-5.75876,13.1226,-0.282903,0.570858,-0.762711,1,0,1,0.0875,0.105,-2.52,-0.42517,0.62647,-1.76351,-0.23842,0.09478,0.42462
3.5751,0,0,11.4249,11.4249,18.5751,18.5751,-2.54656,-5.759,13.1197,-0.282899,0.570756,-0.762716,1,0,1,0.0875,0.105,-2.52,-0.42517,0.62647,-1.76351,-0.23842,0.09478,0.42462
3.54912,0,0,11.4509,11.4509,18.5491,18.5491,-2.52774,-5.75882,13.1176,-0.362111,0.378489,0.0861353,1,0,1,13.965,0.3325,-2.0825,-0.504714,0.434076,-0.921222,-0.23646,0.09338,0.44142
3.53133,0,0,11.4687,11.4687,18.5313,18.5313,-2.51476,-5.75497,13.1153,0.0236609,0.121515,-0.380806,1,0,1,10.675,2.485,-2.1175,-0.117242,0.177144,-1.38458,-0.23646,0.09338,0.44142
3.53603,0,0,11.464,11.464,18.536,18.536,-2.51784,-5.75703,13.1147,0.0236965,0.121461,-0.380812,1,0,1,1.7675,-1.015,-1.225,-0.117242,0.177144,-1.38458,-0.23646,0.09338,0.44142
3.55148,0,0,11.4485,11.4485,18.5515,18.5515,-2.52861,-5.75716,13.1124,-0.251223,0.54823,0.119088,1,0,1,-2.6425,0.1575,-2.24,-0.393328,0.603656,-0.888526,-0.23646,0.09338,0.44142
3.56862,0,0,11.4314,11.4314,18.5686,18.5686,-2.54059,-5.76454,13.1111,-0.251095,0.548023,0.119066,1,0,1,-3.255,-4.1125,-1.785,-0.393328,0.603656,-0.888526,-0.23646,0.09338,0.44142
4.6475,0,0,10.3525,10.3525,19.6475,19.6475,-3.31085,-5.36297,13.035,0.445939,0.686917,0.348729,0,0,1,-2.45,-3.0625,-2.625,0.313662,0.75579,-0.66063,-0.23646,0.09338,0.44142
5.71968,0,0,9.28032,9.28032,20.7197,20.7197,-4.07626,-4.96233,12.9522,0.438975,0.6736,0.3485,0,0,1,-5.495,-1.2775,-2.24,0.313662,0.75579,-0.66063,-0.23646,0.09338,0.44142
5.71947,0,0,9.28053,9.28053,20.7195,20.7195,-4.07568,-4.96595,12.9517,0.442196,0.0547941,0.478575,1,0,1,3.8325,-1.925,-1.295,0.316834,0.137616,-0.531554,-0.23646,0.09338,0.44142
5.70983,0,0,9.29017,9.29017,20.7098,20.7098,-4.06835,-4.96629,12.9519,0.442202,0.0549212,0.478583,1,0,1,7.6475,-0.035,-0.7525,0.316834,0.137616,-0.531554,-0.23464,0.0959,0.44198
5.6858,0,0,9.3142,9.3142,20.6858,20.6858,-4.05075,-4.96609,12.9522,-0.155389,-0.564689,-0.454328,1,0,1,13.405,0.28,-0.7175,-0.283284,-0.481656,-1.45729,-0.23464,0.0959,0.44198
5.67439,0,0,9.32561,9.32561,20.6744,20.6744,-4.04217,-4.96158,12.9519,-0.155468,-0.564541,-0.454311,1,0,1,8.33,2.8175,-0.805,-0.283284,-0.481656,-1.45729,-0.23464,0.0959,0.44198
5.67594,0,0,9.32406,9.32406,20.6759,20.6759,-4.04285,-4.95465,12.9512,-0.0141791,0.143538,-0.199183,1,0,1,3.115,4.2525,-0.98,-0.141276,0.2257,-1.20414,-0.23464,0.0959,0.44198
5.68605,0,0,9.31395,9.31395,20.6861,20.6861,-4.04963,-4.95336,12.9508,-0.0142015,0.14342,-0.199189,1,0,1,-0.2975,0.945,-1.0675,-0.141276,0.2257,-1.20414,-0.23464,0.0959,0.44198
5.70171,0,0,9.29829,9.29829,20.7017,20.7017,-4.06039,-4.95214,12.9515,0.0913484,-0.294347,0.204316,1,0,1,-2.4675,0.8575,-0.42,-0.035258,-0.211426,-0.803736,-0.23464,0.0959,0.44198
5.72241,0,0,9.27759,9.27759,20.7224,20.7224,-4.07473,-4.95557,12.9525,0.0914079,-0.294595,0.204293,1,0,1,-4.4625,-1.8725,-0.385,-0.035258,-0.211426,-0.803736,-0.23464,0.0959,0.44198
5.74396,0,0,9.25604,9.25604,20.744,20.744,-4.08969,-4.95644,12.952,-0.358438,0.240061,0.43013,1,0,1,-4.8825,-0.315,-1.225,-0.487024,0.322934,-0.579622,-0.23464,0.0959,0.44198
5.75509,0,0,9.24491,9.24491,20.7551,20.7551,-4.0972,-4.9572,12.9535,-0.358425,0.23993,0.430119,1,0,1,-0.6125,-0.3325,-0.035,-0.487024,0.322934,-0.579622,-0.23016,0.10626,0.45262
5.88912,0,0,9.11088,9.11088,20.8891,20.8891,-4.19249,-5.36999,13.3991,-0.31201,0.0707674,0.00468894,0,0,1,4.1475,-0.1925,-0.4025,-0.447618,0.15555,-1.00101,-0.23016,0.10626,0.45262
6.01037,0,0,8.98963,8.98963,21.0104,21.0104,-4.27863,-5.77126,13.8442,-0.30504,0.0693253,0.00390042,0,0,1,8.505,0.7175,0.385,-0.447618,0.15555,-1.00101,-0.23016,0.10626,0.45262
5.98976,0,0,9.01024,9.01024,20.9898,20.9898,-4.26345,-5.77084,13.847,0.190615,-0.61078,-0.190338,1,0,1,12.1975,0.2975,0.7875,0.050142,-0.524112,-1.19377,-0.23016,0.10626,0.45262
5.97797,0,0,9.02203,9.02203,20.978,20.978,-4.25458,-5.76706,13.8483,0.190549,-0.610627,-0.19032,1,0,1,8.575,2.3275,0.0175,0.050142,-0.524112,-1.19377,-0.23016,0.10626,0.45262
5.97086,0,0,9.02914,9.02914,20.9709,20.9709,-4.24905,-5.05673,13.4424,0.509134,0.0123509,0.133593,0,0,1,3.8325,3.0625,-0.385,0.38247,0.09821,-0.87352,-0.23016,0.10626,0.45262
5.97531,0,0,9.02469,9.02469,20.9753,20.9753,-4.25177,-4.36362,13.0366,0.497078,0.0122301,0.13458,0,0,1,0.0525,1.1725,-0.84,0.38247,0.09821,-0.87352,-0.23016,0.10626,0.45262
5.98706,0,0,9.01294,9.01294,20.9871,20.9871,-4.2597,-4.36387,13.0361,0.357009,-0.0525127,0.382803,1,0,1,-0.945,0.0525,-1.19,0.241804,0.033672,-0.627202,-0.23016,0.10626,0.45262
6.00759,0,0,8.99241,8.99241,21.0076,21.0076,-4.27391,-4.36583,13.0363,0.357043,-0.0527591,0.382782,1,0,1,-4.4275,-0.98,-0.8225,0.241804,0.033672,-0.627202,-0.23296,0.1036,0.45262
6.02663,0,0,8.97337,8.97337,21.0266,21.0266,-4.28705,-4.36779,13.036,0.00780592,-0.0418734,0.37268,1,0,1,-3.85,-0.9625,-1.1025,-0.108946,0.044774,-0.637206,-0.23296,0.1036,0.45262
6.04072,0,0,8.95928,8.95928,21.0407,21.0407,-4.29666,-4.36982,13.0353,0.00784123,-0.0420399,0.372665,1,0,1,-1.89,-0.98,-1.3825,-0.108946,0.044774,-0.637206,-0.23296,0.1036,0.45262
6.04237,0,0,8.95763,8.95763,21.0424,21.0424,-4.29738,-4.37295,13.0346,-0.131084,0.230046,0.25131,1,0,1,3.0975,-1.6275,-1.4,-0.248514,0.31659,-0.75762,-0.23296,0.1036,0.45262
6.03017,0,0,8.96983,8.96983,21.0302,21.0302,-4.2882,-4.3733,13.0331,-0.131078,0.230206,0.251321,1,0,1,8.61,0.035,-1.75,-0.248514,0.31659,-0.75762,-0.23296,0.1036,0.45262
6.01265,0,0,8.98735,8.98735,21.0126,21.0126,-4.27523,-4.37205,13.0318,-0.351232,-0.25539,-0.408156,1,0,1,10.745,0.9625,-1.5575,-0.469578,-0.168726,-1.41203,-0.23296,0.1036,0.45262
6.00093,0,0,8.99907,8.99907,21.0009,21.0009,-4.2664,-4.36981,13.0308,-0.351271,-0.255237,-0.408141,1,0,1,8.435,1.5225,-1.33,-0.469578,-0.168726,-1.41203,-0.23296,0.1036,0.45262
5.67396,0,0,9.32604,9.32604,20.674,20.674,-4.03241,-4.03115,12.858,0.228517,-0.196371,-0.0429956,0,0,1,5.565,1.715,-1.785,0.118584,-0.113948,-1.05042,-0.23296,0.1036,0.45262
5.36599,0,0,9.63401,9.63401,20.366,20.366,-3.81203,-3.70301,12.6822,0.222803,-0.192569,-0.0423478,0,0,1,0.805,0.105,-2.1,0.118584,-0.113948,-1.05042,-0.23828,0.10696,0.45234
5.37882,0,0,9.62118,9.62118,20.3788,20.3788,-3.82078,-3.70422,12.6797,0.299603,-0.2191,-0.238708,1,0,1,-1.47,-0.4375,-2.3625,0.195688,-0.1403,-1.24525,-0.23828,0.10696,0.45234
5.39504,0,0,9.60496,9.60496,20.395,20.395,-3.83196,-3.70676,12.678,0.299647,-0.219294,-0.238724,1,0,1,-2.8,-1.2425,-1.9425,0.195688,-0.1403,-1.24525,-0.23828,0.10696,0.45234
5.77575,0,0,9.22425,9.22425,20.7758,20.7758,-4.10346,-3.26559,12.4836,0.382954,0.27008,0.00313269,0,0,1,-3.6575,-0.7175,-1.68,0.287066,0.353312,-1.0054,-0.23828,0.10696,0.45234
6.13941,0,0,8.86059,8.86059,21.1394,21.1394,-4.36275,-2.83359,12.2865,0.375425,0.265544,0.00319915,0,0,1,0.665,-1.1025,-1.6625,0.287066,0.353312,-1.0054,-0.23828,0.10696,0.45234
6.13925,0,0,8.86075,8.86075,21.1393,21.1393,-4.36217,-2.83579,12.2864,0.967342,0.22513,-0.1827,1,0,1,3.85,-1.1025,-1.0325,0.88145,0.31293,-1.18987,-0.23828,0.10696,0.45234
6.1277,0,0,8.8723,8.8723,21.1277,21.1277,-4.35345,-2.83511,12.2858,0.96733,0.225281,-0.182688,1,0,1,8.4,0.595,-1.19,0.88145,0.31293,-1.18987,-0.23828,0.10696,0.45234
6.1099,0,0,8.8901,8.8901,21.1099,21.1099,-4.34027,-2.83319,12.2865,0.455599,-0.0630751,-0.230865,1,0,1,10.9375,1.26,-0.315,0.367586,0.024644,-1.23769,-0.23828,0.10696,0.45234
6.10397,0,0,8.89603,8.89603,21.104,21.104,-4.33557,-2.82934,12.2871,0.455532,-0.0629937,-0.230855,1,0,1,6.1775,2.3975,-0.385,0.367586,0.024644,-1.23769,-0.23828,0.10696,0.45234
6.10385,0,0,8.89615,8.89615,21.1039,21.1039,-4.33502,-2.82562,12.2875,-0.227404,-0.495313,-0.15659,1,0,1,3.85,2.3275,-0.4375,-0.318176,-0.407236,-1.164,-0.23954,0.1106,0.46186
6.11201,0,0,8.88799,8.88799,21.112,21.112,-4.34038,-2.82569,12.2877,-0.228132,0.193144,-0.0664763,1,0,1,0.525,0.1225,-0.7875,-0.318908,0.2806,-1.07458,-0.23954,0.1106,0.46186
6.12308,0,0,8.87692,8.87692,21.1231,21.1231,-4.34782,-2.82608,12.2881,-0.228125,0.193015,-0.0664864,1,0,1,-0.63,-0.07,-0.63,-0.318908,0.2806,-1.07458,-0.23954,0.1106,0.46186
6.13378,0,0,8.86622,8.86622,21.1338,21.1338,-4.355,-2.82766,12.2889,0.40873,0.0148296,0.222555,1,0,1,-0.4725,-0.7875,-0.4375,0.320616,0.102724,-0.787754,-0.23954,0.1106,0.46186
6.14602,0,0,8.85398,8.85398,21.146,21.146,-4.36327,-2.8289,12.2898,0.408752,0.0146859,0.222543,1,0,1,-1.085,-0.595,-0.4025,0.320616,0.102724,-0.787754,-0.23954,0.1106,0.46186
6.35043,0,0,8.64957,8.64957,21.3504,21.3504,-4.5088,-3.167,12.647,-0.240649,0.116599,0.0206491,0,0,1,2.6775,-0.8575,-0.245,-0.337452,0.207034,-0.98759,-0.23954,0.1106,0.46186
6.54321,0,0,8.45679,8.45679,21.5432,21.5432,-4.646,-3.49429,13.0033,-0.234946,0.114243,0.0201275,0,0,1,5.915,0.7175,-0.245,-0.337452,0.207034,-0.98759,-0.23954,0.1106,0.46186
6.35567,0,0,8.64433,8.64433,21.3557,21.3557,-4.51156,-3.86459,13.3505,-0.317424,-0.139612,-0.0305079,0,0,1,7.28,1.925,-0.385,-0.426756,-0.048922,-1.03761,-0.23954,0.1106,0.46186
6.17564,0,0,8.82436,8.82436,21.1756,21.1756,-4.3825,-4.22526,13.6841,-0.311145,-0.137337,-0.0307764,0,0,1,5.425,2.1175,-0.1225,-0.426756,-0.048922,-1.03761,-0.23856,0.11914,0.48076
6.19051,0,0,8.80949,8.80949,21.1905,21.1905,-4.39265,-3.73822,13.4083,0.38074,0.0306099,-0.0124968,0,0,1,3.325,1.6975,-0.4375,0.276574,0.119072,-1.02004,-0.23856,0.11914,0.48076
6.20628,0,0,8.79372,8.79372,21.2063,21.2063,-4.40344,-3.26149,13.133,0.372435,0.0303835,-0.0120048,0,0,1,3.325,1.6975,-0.4375,0.276574,0.119072,-1.02004,-0.23856,0.11914,0.48076
6.21774,0,0,8.78226,8.78226,21.2177,21.2177,-4.41116,-3.26331,13.1328,0.340638,0.0232884,-0.215251,1,0,1,-0.805,-0.875,-1.085,0.24461,0.112118,-1.22171,-0.23856,0.11914,0.48076
6.22921,0,0,8.77079,8.77079,21.2292,21.2292,-4.41887,-3.26512,13.1325,0.340669,0.0231545,-0.215263,1,0,1,-0.805,-0.875,-1.085,0.24461,0.112118,-1.22171,-0.23856,0.11914,0.48076
6.04749,0,0,8.95251,8.95251,21.0475,21.0475,-4.28861,-3.1942,13.1279,0.0426439,-0.118331,0.0480887,0,0,1,-1.3475,-1.3475,-1.6625,-0.053436,-0.031476,-0.960628,-0.23856,0.11914,0.48076
5.86942,0,0,9.13058,9.13058,20.8694,20.8694,-4.16097,-3.12527,13.1236,0.0414426,-0.116117,0.0483187,0,0,1,-1.3475,-1.3475,-1.6625,-0.053436,-0.031476,-0.960628,-0.23856,0.11914,0.48076
5.67645,0,0,9.32355,9.32355,20.6764,20.6764,-4.02271,-3.02443,13.1007,0.0565717,-0.117262,0.0520274,0,0,1,3.08,4.27,-1.1375,-0.036478,-0.035014,-0.957212,-0.23856,0.11914,0.48076
5.48739,0,0,9.51261,9.51261,20.4874,20.4874,-3.88725,-2.92616,13.0741,0.0548589,-0.114913,0.052279,0,0,1,3.08,4.27,-1.1375,-0.036478,-0.035014,-0.957212,-0.24542,0.12138,0.483
5.28699,0,0,9.71301,9.71301,20.287,20.287,-3.74371,-3.01002,13.1744,-0.0686883,-0.127555,0.0465913,0,0,1,4.8825,1.2075,-1.68,-0.162016,-0.050142,-0.962946,-0.24542,0.12138,0.483
5.09027,0,0,9.90973,9.90973,20.0903,20.0903,-3.6028,-3.09219,13.2739,-0.0672561,-0.1251,0.0466725,0,0,1,4.8825,1.2075,-1.68,-0.162016,-0.050142,-0.962946,-0.24542,0.12138,0.483
5.09672,0,0,9.90328,9.90328,20.0967,20.0967,-3.60702,-3.09195,13.2725,-0.0679893,-0.0873137,0.11515,1,0,1,1.12,0.3675,-1.6625,-0.162748,-0.012322,-0.894992,-0.24542,0.12138,0.483
5.16202,0,0,9.83798,9.83798,20.162,20.162,-3.65328,-2.91034,13.2084,0.144968,0.0535383,-0.0890754,0,0,1,0.035,-0.2275,-1.785,0.05429,0.129198,-1.09776,-0.24542,0.12138,0.483
5.22764,0,0,9.77236,9.77236,20.2276,20.2276,-3.69975,-2.73427,13.1448,0.141899,0.0527201,-0.0889764,0,0,1,-0.455,-1.0675,-1.5925,0.05429,0.129198,-1.09776,-0.24542,0.12138,0.483
5.15922,0,0,9.84078,9.84078,20.1592,20.1592,-3.65049,-2.49351,13.0142,0.165157,-0.0412054,0.0642179,0,0,1,0.0875,-0.8575,-1.435,0.081862,0.034526,-0.945988,-0.24542,0.12138,0.483
5.08939,0,0,9.91061,9.91061,20.0894,20.0894,-3.60022,-2.25852,12.8854,0.161059,-0.0403414,0.064443,0,0,1,1.4175,-0.91,-1.0325,0.081862,0.034526,-0.945988,-0.24542,0.12138,0.483
5.30487,0,0,9.69513,9.69513,20.3049,20.3049,-3.75374,-2.24565,12.9541,0.0228273,0.131383,0.0500181,0,0,1,3.9375,-0.1925,-0.8225,-0.05673,0.208742,-0.96014,-0.24332,0.1211,0.47544
5.30208,0,0,9.69792,9.69792,20.3021,20.3021,-3.75134,-2.24414,12.9539,0.284238,-0.246557,-0.081779,1,0,1,4.865,1.0675,-0.9625,0.205814,-0.168848,-1.09092,-0.24332,0.1211,0.47544
5.29852,0,0,9.70148,9.70148,20.2985,20.2985,-3.7484,-2.24223,12.9546,0.284205,-0.246506,-0.0817743,1,0,1,5.1975,1.26,-0.3325,0.205814,-0.168848,-1.09092,-0.24332,0.1211,0.47544
5.29496,0,0,9.70504,9.70504,20.295,20.295,-3.74545,-2.24032,12.9554,-0.211004,0.0218574,-0.100704,1,0,1,5.1975,1.26,-0.3325,-0.291458,0.099186,-1.10971,-0.24332,0.1211,0.47544
5.30121,0,0,9.69879,9.69879,20.3012,20.3012,-3.74952,-2.23933,12.9567,-0.0187095,0.0219088,0.145681,1,0,1,1.2775,0.7,-0.0875,-0.098332,0.099308,-0.865224,-0.24332,0.1211,0.47544
5.29021,0,0,9.70979,9.70979,20.2902,20.2902,-3.74126,-2.34561,13.087,-0.077113,-0.0164126,0.0171353,0,0,1,1.505,0.2275,-0.0525,-0.158844,0.060878,-0.992714,-0.24332,0.1211,0.47544
5.27982,0,0,9.72018,9.72018,20.2798,20.2798,-3.73344,-2.45026,13.2167,-0.0752882,-0.0162715,0.0170679,0,0,1,1.3125,-0.2975,0,-0.158844,0.060878,-0.992714,-0.24332,0.1211,0.47544
5.28305,0,0,9.71695,9.71695,20.2831,20.2831,-3.73535,-2.4507,13.2186,0.0327203,-0.0873825,0.105097,1,0,1,2.5025,-0.1575,0.21,-0.050386,-0.010126,-0.905362,-0.24332,0.1211,0.47544
5.28383,0,0,9.71617,9.71617,20.2838,20.2838,-3.7355,-2.45148,13.2204,0.0327339,-0.0873852,0.105096,1,0,1,3.4825,-0.35,0.14,-0.050386,-0.010126,-0.905362,-0.2499,0.12054,0.47614
4.99573,0,0,10.0043,10.0043,19.9957,19.9957,-3.52934,-2.24562,13.0894,0.142126,-0.186515,-0.0773539,0,0,1,3.92,-0.035,0.2975,0.063074,-0.112728,-1.08678,-0.2499,0.12054,0.47614
4.71342,0,0,10.2866,10.2866,19.7134,19.7134,-3.32733,-2.04345,12.9601,0.1386,-0.183006,-0.0770114,0,0,1,4.0075,0.9275,0.1575,0.063074,-0.112728,-1.08678,-0.2499,0.12054,0.47614
4.71621,0,0,10.2838,10.2838,19.7162,19.7162,-3.32897,-2.04105,12.9616,0.118756,0.236837,-0.167748,1,0,1,2.6425,1.5225,0.0875,0.043188,0.306708,-1.17681,-0.2499,0.12054,0.47614
4.72166,0,0,10.2783,10.2783,19.7217,19.7217,-3.3325,-2.03955,12.9621,0.118729,0.236775,-0.16775,1,0,1,1.5575,1.0325,-0.5075,0.043188,0.306708,-1.17681,-0.2499,0.12054,0.47614
4.72648,0,0,10.2735,10.2735,19.7265,19.7265,-3.33559,-2.03801,12.9624,0.75468,-0.154817,-0.0545168,1,0,1,1.8025,1.0675,-0.665,0.681858,-0.084424,-1.06445,-0.2499,0.12054,0.47614
4.73211,0,0,10.2679,10.2679,19.7321,19.7321,-3.33925,-2.03836,12.9613,0.754686,-0.15488,-0.0545208,1,0,1,1.4525,0,-1.47,0.681858,-0.084424,-1.06445,-0.2499,0.12054,0.47614
4.73588,0,0,10.2641,10.2641,19.7359,19.7359,-3.34159,-2.03753,12.9597,-0.0917191,-0.184476,0.14367,1,0,1,2.1875,0.7175,-1.785,-0.168116,-0.113948,-0.867786,-0.2499,0.12054,0.47614
4.73886,0,0,10.2611,10.2611,19.7389,19.7389,-3.34336,-2.03792,12.958,-0.0917122,-0.184507,0.143668,1,0,1,2.5025,0,-1.8375,-0.168116,-0.113948,-0.867786,-0.24598,0.1148,0.4683
4.72058,0,0,10.2794,10.2794,19.7206,19.7206,-3.32994,-1.87594,12.8903,0.111259,-0.00963736,0.0707469,0,0,1,2.87,-0.035,-2.3975,0.038552,0.060512,-0.940254,-0.24598,0.1148,0.4683
4.70639,0,0,10.2936,10.2936,19.7064,19.7064,-3.31946,-1.71889,12.8223,0.108519,-0.00945973,0.0708433,0,0,1,1.4875,-0.6475,-2.8,0.038552,0.060512,-0.940254,-0.24598,0.1148,0.4683
4.51715,0,0,10.4828,10.4828,19.5172,19.5172,-3.18394,-1.51882,12.7009,0.124831,-0.112012,0.101198,0,0,1,1.155,-0.21,-2.73,0.058438,-0.044286,-0.910364,-0.24598,0.1148,0.4683
4.33119,0,0,10.6688,10.6688,19.3312,19.3312,-3.05079,-1.32249,12.5811,0.121406,-0.109697,0.101409,0,0,1,1.4875,0.525,-2.6425,0.058438,-0.044286,-0.910364,-0.24598,0.1148,0.4683
4.33753,0,0,10.6625,10.6625,19.3375,19.3375,-3.05498,-1.32154,12.5781,-0.00252648,-0.252658,-0.273095,1,0,1,1.1375,0.8225,-2.5725,-0.066002,-0.187026,-1.28198,-0.24598,0.1148,0.4683
4.34418,0,0,10.6558,10.6558,19.3442,19.3442,-3.05941,-1.32086,12.5755,-0.00253821,-0.252735,-0.273099,1,0,1,1.015,0.6475,-2.3625,-0.066002,-0.187026,-1.28198,-0.24598,0.1148,0.4683
4.35225,0,0,10.6478,10.6478,19.3522,19.3522,-3.06484,-1.31998,12.5735,0.123184,-0.126917,0.447006,1,0,1,0.455,0.7525,-2.0125,0.060268,-0.061244,-0.567422,-0.24598,0.1148,0.4683
4.36043,0,0,10.6396,10.6396,19.3604,19.3604,-3.07036,-1.32091,12.5723,0.1232,-0.127013,0.447,1,0,1,0.42,-0.3325,-1.5925,0.060268,-0.061244,-0.567422,-0.24038,0.1204,0.46452
4.36667,0,0,10.6333,10.6333,19.3667,19.3667,-3.07449,-1.32159,12.5718,0.178367,0.164431,-0.0713549,1,0,1,1.2075,-0.21,-1.1725,0.115656,0.22997,-1.08177,-0.24038,0.1204,0.46452
4.37233,0,0,10.6277,10.6277,19.3723,19.3723,-3.0782,-1.32276,12.5723,0.178387,0.164367,-0.0713588,1,0,1,1.4525,-0.525,-0.6125,0.115656,0.22997,-1.08177,-0.24038,0.1204,0.46452
4.37778,0,0,10.6222,10.6222,19.3778,19.3778,-3.08176,-1.32401,12.5729,0.195781,-0.123304,-0.0864853,1,0,1,1.54,-0.5775,-0.5425,0.133102,-0.05734,-1.09678,-0.24038,0.1204,0.46452
4.38524,0,0,10.6148,10.6148,19.3852,19.3852,-3.08676,-1.32486,12.5747,0.195796,-0.123391,-0.0864904,1,0,1,0.7525,-0.385,0.175,0.133102,-0.05734,-1.09678,-0.24038,0.1204,0.46452
4.19692,0,0,10.8031,10.8031,19.1969,19.1969,-2.95193,-1.16024,12.4706,0.113594,-0.123365,-0.0297479,0,0,1,0.525,0.14,0.28,0.053436,-0.059658,-1.04066,-0.24038,0.1204,0.46452
4.01281,0,0,10.9872,10.9872,19.0128,19.0128,-2.82012,-0.999135,12.3681,0.110782,-0.121071,-0.0295792,0,0,1,0.42,0.5075,0.5075,0.053436,-0.059658,-1.04066,-0.24038,0.1204,0.46452
4.02197,0,0,10.978,10.978,19.022,19.022,-2.82636,-0.99888,12.3702,0.1273,-0.0137078,-0.112821,1,0,1,0.0525,0.2625,0.35,0.070028,0.047702,-1.12325,-0.24038,0.1204,0.46452
4.03077,0,0,10.9692,10.9692,19.0308,19.0308,-2.83234,-0.997862,12.3719,0.127282,-0.0138121,-0.112825,1,0,1,0.1925,0.7175,0.1925,0.070028,0.047702,-1.12325,-0.24136,0.10934,0.45458
4.14301,0,0,10.857,10.857,19.143,19.143,-2.9122,-0.918316,12.366,0.0641792,0.0728483,-0.00639871,0,0,1,0.665,0.28,-4.375,0.008052,0.135664,-1.0176,-0.24136,0.10934,0.45458
4.25305,0,0,10.7469,10.7469,19.2531,19.2531,-2.99048,-0.840144,12.3669,0.062815,0.0714828,-0.00644814,0,0,1,0.805,0.28,-0.3325,0.008052,0.135664,-1.0176,-0.24136,0.10934,0.45458
4.25857,0,0,10.7414,10.7414,19.2586,19.2586,-2.9941,-0.840724,12.3677,0.106195,-0.0742775,-0.312716,1,0,1,1.505,-0.1925,-0.385,0.051606,-0.009882,-1.3215,-0.24136,0.10934,0.45458
4.26539,0,0,10.7346,10.7346,19.2654,19.2654,-2.99865,-0.841081,12.3677,0.106202,-0.0743567,-0.312721,1,0,1,0.98,-0.035,-0.8925,0.051606,-0.009882,-1.3215,-0.24136,0.10934,0.45458
4.19304,0,0,10.807,10.807,19.193,19.193,-2.94666,-0.789245,12.3664,0.0345924,-0.0496365,-0.0279119,0,0,1,0.7175,-0.2975,-0.98,-0.019398,0.013908,-1.03895,-0.24136,0.10934,0.45458
4.12215,0,0,10.8778,10.8778,19.1222,19.1222,-2.89571,-0.738748,12.3652,0.0337112,-0.0487492,-0.0278549,0,0,1,0.7175,-0.2975,-0.98,-0.019398,0.013908,-1.03895,-0.24136,0.10934,0.45458
4.10924,0,0,10.8908,10.8908,19.1092,19.1092,-2.88618,-0.850433,12.4876,-0.0931146,-0.0160959,-0.0911919,0,0,1,0.4725,1.365,-1.225,-0.148718,0.04636,-1.10178,-0.24136,0.10934,0.45458
4.09631,0,0,10.9037,10.9037,19.0963,19.0963,-2.87664,-0.958995,12.6149,-0.0912201,-0.0159282,-0.0912135,0,0,1,0.4725,1.365,-1.225,-0.148718,0.04636,-1.10178,-0.23646,0.10598,0.44982
4.1047,0,0,10.8953,10.8953,19.1047,19.1047,-2.88232,-0.956899,12.6155,-0.0214024,0.324218,-0.0901113,1,0,1,0.35,1.3825,-0.4725,-0.078568,0.386252,-1.10068,-0.23646,0.10598,0.44982
4.11308,0,0,10.8869,10.8869,19.1131,19.1131,-2.888,-0.954803,12.616,-0.0214389,0.324119,-0.0901157,1,0,1,0.35,1.3825,-0.4725,-0.078568,0.386252,-1.10068,-0.23646,0.10598,0.44982
4.34498,0,0,10.655,10.655,19.345,19.345,-3.05332,-1.42684,13.0304,-0.302824,0.103373,0.153002,0,0,1,-0.7875,-0.0875,-0.35,-0.369416,0.168604,-0.859124,-0.23646,0.10598,0.44982
4.35513,0,0,10.6449,10.6449,19.3551,19.3551,-3.06023,-1.42788,13.0316,-0.0400324,-0.21269,-0.134213,1,0,1,-0.3325,-0.4725,-0.175,-0.10553,-0.14701,-1.14412,-0.23646,0.10598,0.44982
4.36218,0,0,10.6378,10.6378,19.3622,19.3622,-3.06494,-1.42965,13.033,-0.0400014,-0.212771,-0.134218,1,0,1,0.91,-0.91,-0.0875,-0.10553,-0.14701,-1.14412,-0.23646,0.10598,0.44982
4.36777,0,0,10.6322,10.6322,19.3678,19.3678,-3.06861,-1.43084,13.0342,-0.0380369,0.0195718,-0.127951,1,0,1,1.4875,-0.56,-0.21,-0.103578,0.085156,-1.13789,-0.23646,0.10598,0.44982
4.37409,0,0,10.6259,10.6259,19.3741,19.3741,-3.07279,-1.43132,13.0347,-0.0380285,0.0194989,-0.127956,1,0,1,1.19,-0.1225,-0.6125,-0.103578,0.085156,-1.13789,-0.23646,0.10598,0.44982
4.13261,0,0,10.8674,10.8674,19.1326,19.1326,-2.9,-1.36366,13.015,0.0353831,-0.161781,-0.0167472,0,0,1,0.63,-0.105,-0.98,-0.02867,-0.098942,-1.02773,-0.23646,0.10598,0.44982
3.89566,0,0,11.1043,11.1043,18.8957,18.8957,-2.73045,-1.29635,13.0048,0.0342086,-0.158828,-0.0165747,0,0,1,0.4025,-0.35,-1.9075,-0.02867,-0.098942,-1.02773,-0.23786,0.09884,0.43792
3.90639,0,0,11.0936,11.0936,18.9064,18.9064,-2.73783,-1.298,13.0028,-0.110574,0.0866408,0.162554,1,0,1,-0.63,-0.735,-2.0825,-0.174094,0.1464,-0.849974,-0.23786,0.09884,0.43792
3.9183,0,0,11.0817,11.0817,18.9183,18.9183,-2.74604,-1.29885,12.9992,-0.110559,0.0864977,0.162547,1,0,1,-1.12,-0.2275,-2.9575,-0.174094,0.1464,-0.849974,-0.23786,0.09884,0.43792
3.93085,0,0,11.0692,11.0692,18.9308,18.9308,-2.75471,-1.29985,12.9952,-0.0555082,-0.0749828,-0.229789,1,0,1,-1.3825,-0.2975,-3.2375,-0.118828,-0.014762,-1.23928,-0.23786,0.09884,0.43792
3.94036,0,0,11.0596,11.0596,18.9404,18.9404,-2.7612,-1.30142,12.9904,-0.0554808,-0.075096,-0.229795,1,0,1,-0.175,-0.6125,-3.675,-0.118828,-0.014762,-1.23928,-0.23786,0.09884,0.43792
3.94895,0,0,11.051,11.051,18.949,18.949,-2.76705,-1.44033,13.1487,-0.0903531,-0.0102236,0.08071,0,0,1,0.1225,-0.9275,-3.3425,-0.156282,0.050142,-0.931104,-0.23786,0.09884,0.43792
3.95337,0,0,11.0466,11.0466,18.9534,18.9534,-2.7699,-1.5746,13.3065,-0.0880105,-0.0102704,0.080646,0,0,1,1.68,-0.175,-2.9925,-0.156282,0.050142,-0.931104,-0.23786,0.09884,0.43792
3.95767,0,0,11.0423,11.0423,18.9577,18.9577,-2.77268,-1.57464,13.3033,-0.131016,-0.201691,-0.109681,1,0,1,1.925,0.245,-2.765,-0.19947,-0.141032,-1.11996,-0.23786,0.09884,0.43792
3.96219,0,0,11.0378,11.0378,18.9622,18.9622,-2.77561,-1.57437,13.3014,-0.131021,-0.201742,-0.109683,1,0,1,1.855,0.385,-1.9425,-0.19947,-0.141032,-1.11996,-0.2359,0.10682,0.42546
3.90998,0,0,11.09,11.09,18.91,18.91,-2.73802,-1.65185,13.4046,-0.0534973,-0.0430536,0.0807577,0,0,1,0.91,0.6825,-1.505,-0.122976,0.016836,-0.930982,-0.2359,0.10682,0.42546
3.86069,0,0,11.1393,11.1393,18.8607,18.8607,-2.70252,-1.72716,13.5089,-0.0521834,-0.0424332,0.0807484,0,0,1,0.1225,0.8575,-0.455,-0.122976,0.016836,-0.930982,-0.2359,0.10682,0.42546
4.00187,0,0,10.9981,10.9981,19.0019,19.0019,-2.80307,-1.49599,13.4172,0.165859,0.0863628,0.0881544,0,0,1,0.1225,0.8575,0,0.10004,0.147254,-0.923662,-0.2359,0.10682,0.42546
4.14087,0,0,10.8591,10.8591,19.1409,19.1409,-2.90204,-1.26986,13.3254,0.161914,0.0846333,0.0881636,0,0,1,0.1225,0.8575,0,0.10004,0.147254,-0.923662,-0.2359,0.10682,0.42546
3.86598,0,0,11.134,11.134,18.866,18.866,-2.70541,-0.776782,12.9931,0.332501,-0.158765,0.0961078,0,0,1,2.1525,-0.175,1.015,0.27999,-0.099308,-0.916098,-0.2359,0.10682,0.42546
3.59768,0,0,11.4023,11.4023,18.5977,18.5977,-2.51349,-0.294905,12.6649,0.324091,-0.155423,0.0963388,0,0,1,2.1525,-0.175,1.015,0.27999,-0.099308,-0.916098,-0.2359,0.10682,0.42546
3.69419,0,0,11.3058,11.3058,18.6942,18.6942,-2.58215,-0.313715,12.7259,-0.00808719,0.0622313,-0.011419,0,0,1,2.59,-0.6475,0.805,-0.053924,0.119316,-1.02297,-0.2359,0.10682,0.42546
3.78896,0,0,11.211,11.211,18.789,18.789,-2.64956,-0.332202,12.7954,-0.00776453,0.0610561,-0.0114746,0,0,1,2.59,-0.6475,0.805,-0.053924,0.119316,-1.02297,-0.23142,0.10178,0.43792
3.79237,0,0,11.2076,11.2076,18.7924,18.7924,-2.65171,-0.331856,12.797,0.132059,-0.00663964,-0.159383,1,0,1,2.3275,0.3325,0.07,0.086498,0.051728,-1.16974,-0.23142,0.10178,0.43792
3.79578,0,0,11.2042,11.2042,18.7958,18.7958,-2.65386,-0.33151,12.7986,0.132053,-0.00667715,-0.159385,1,0,1,2.3275,0.3325,0.07,0.086498,0.051728,-1.16974,-0.23142,0.10178,0.43792
3.80281,0,0,11.1972,11.1972,18.8028,18.8028,-2.6586,-0.329805,12.7992,-0.0633253,0.159943,-0.19738,1,0,1,0.875,1.155,-0.4725,-0.109678,0.218258,-1.20743,-0.23142,0.10178,0.43792
3.79639,0,0,11.2036,11.2036,18.7964,18.7964,-2.65373,-0.075904,12.6596,0.19198,0.00223972,-0.0193307,0,0,1,0.2275,0.735,-0.665,0.151158,0.060634,-1.03078,-0.23142,0.10178,0.43792
3.78943,0,0,11.2106,11.2106,18.7894,18.7894,-2.64847,0.170506,12.5195,0.187679,0.00233151,-0.01933,0,0,1,0.7175,-0.21,-1.33,0.151158,0.060634,-1.03078,-0.23142,0.10178,0.43792
3.78007,0,0,11.2199,11.2199,18.7801,18.7801,-2.6415,0.0495049,12.6425,-0.0888973,-0.0159883,0.00428575,0,0,1,1.225,-0.4025,-1.2425,-0.12871,0.042212,-1.00735,-0.23142,0.10178,0.43792
3.76875,0,0,11.2313,11.2313,18.7687,18.7687,-2.63313,-0.0672198,12.7658,-0.08686,-0.0158424,0.00429216,0,0,1,2.03,0.4025,-0.6125,-0.12871,0.042212,-1.00735,-0.23142,0.10178,0.43792
3.39195,0,0,11.6081,11.6081,18.3919,18.3919,-2.36374,-0.133047,12.8252,-0.0725907,-0.260772,-0.00657025,0,0,1,2.555,0.525,-0.4725,-0.115534,-0.207156,-1.01833,-0.23968,0.09604,0.43386
3.02132,0,0,11.9787,11.9787,18.0213,18.0213,-2.09878,-0.199129,12.883,-0.0714373,-0.256151,-0.00639355,0,0,1,2.7825,-0.1575,-0.9625,-0.115534,-0.207156,-1.01833,-0.23968,0.09604,0.43386
2.62642,0,0,12.3736,12.3736,17.6264,17.6264,-1.81651,-0.0687384,12.7998,0.0749854,-0.270279,-0.0279818,0,0,1,1.8725,0.3325,-1.05,0.033794,-0.226188,-1.03993,-0.23968,0.09604,0.43386
2.62991,0,0,12.3701,12.3701,17.6299,17.6299,-1.81881,-0.0690985,12.7996,-0.218639,0.0583235,-0.127571,1,0,1,2.24,-0.035,-0.9625,-0.26108,0.102114,-1.13875,-0.23968,0.09604,0.43386
2.63165,0,0,12.3683,12.3683,17.6317,17.6317,-1.81986,-0.0703645,12.7982,-0.218617,0.0583052,-0.127572,1,0,1,2.94,-0.5425,-1.6975,-0.26108,0.102114,-1.13875,-0.23968,0.09604,0.43386
2.63208,0,0,12.3679,12.3679,17.6321,17.6321,-1.81997,-0.0723295,12.7964,-0.0374477,-0.113163,-0.163227,1,0,1,3.465,-0.945,-1.925,-0.079178,-0.069174,-1.17413,-0.23968,0.09604,0.43386
2.63194,0,0,12.3681,12.3681,17.6319,17.6319,-1.81968,-0.0732781,12.7937,-0.0374311,-0.113157,-0.163227,1,0,1,3.6925,-0.3325,-2.45,-0.079178,-0.069174,-1.17413,-0.23968,0.09604,0.43386
2.63276,0,0,12.3672,12.3672,17.6328,17.6328,-1.82007,-0.0737039,12.7915,-0.103998,-0.014608,-0.121425,1,0,1,3.3075,-0.035,-2.17,-0.146034,0.02928,-1.13265,-0.23968,0.09604,0.43386
2.63376,0,0,12.3662,12.3662,17.6338,17.6338,-1.82058,-0.0730873,12.7882,-0.104009,-0.014617,-0.121425,1,0,1,3.2375,0.595,-2.765,-0.146034,0.02928,-1.13265,-0.23576,0.09296,0.43512
2.79418,0,0,12.2058,12.2058,17.7942,17.7942,-1.93497,-0.308239,13.0157,-0.164413,0.0925695,0.0101737,0,0,1,2.45,0.7,-2.7825,-0.210816,0.138348,-1.00199,-0.23576,0.09296,0.43512
2.95212,0,0,12.0479,12.0479,17.9521,17.9521,-2.04756,-0.538178,13.2435,-0.1604,0.0906067,0.0100758,0,0,1,2.24,0.385,-2.31,-0.210816,0.138348,-1.00199,-0.23576,0.09296,0.43512
2.85928,0,0,12.1407,12.1407,17.8593,17.8593,-1.98103,-0.730779,13.4237,-0.158375,-0.0766445,-0.0585258,0,0,1,2.17,0.3325,-2.205,-0.212158,-0.02989,-1.07006,-0.23576,0.09296,0.43512
2.76527,0,0,12.2347,12.2347,17.7653,17.7653,-1.91368,-0.920241,13.6038,-0.155069,-0.0754682,-0.0585335,0,0,1,3.255,-0.4725,-1.26,-0.212158,-0.02989,-1.07006,-0.23576,0.09296,0.43512
2.78449,0,0,12.2155,12.2155,17.7845,17.7845,-1.9272,-1.13305,13.8148,-0.152813,-0.00108226,0.0226611,0,0,1,2.625,0.14,-0.8575,-0.213622,0.044652,-0.98942,-0.23576,0.09296,0.43512
2.80142,0,0,12.1986,12.1986,17.8014,17.8014,-1.93909,-1.33945,14.0255,-0.149212,-0.00128699,0.0225764,0,0,1,3.3425,0.8925,-0.1925,-0.213622,0.044652,-0.98942,-0.23576,0.09296,0.43512
2.80167,0,0,12.1983,12.1983,17.8017,17.8017,-1.93906,-1.33948,14.0273,-0.0399955,-0.0993542,-0.107872,1,0,1,3.57,0.1225,0.175,-0.103944,-0.053314,-1.11886,-0.23576,0.09296,0.43512
2.80135,0,0,12.1986,12.1986,17.8014,17.8014,-1.93862,-1.33941,14.0292,-0.0399967,-0.0993466,-0.107872,1,0,1,3.7975,0.175,0.28,-0.103944,-0.053314,-1.11886,-0.23436,0.09198,0.43176
2.63556,0,0,12.3644,12.3644,17.6356,17.6356,-1.82,-1.04942,13.8744,0.205933,-0.0972813,-0.00651175,0,0,1,2.975,-0.0875,0.455,0.148108,-0.053314,-1.01846,-0.23436,0.09198,0.43176
2.47065,0,0,12.5293,12.5293,17.4707,17.4707,-1.70203,-0.766115,13.7208,0.200989,-0.095226,-0.00637018,0,0,1,4.165,0.105,0.21,0.148108,-0.053314,-1.01846,-0.23436,0.09198,0.43176
2.35576,0,0,12.6442,12.6442,17.3558,17.3558,-1.61979,-0.799279,13.7833,-0.0337504,-0.0787696,-0.0679337,0,0,1,4.69,-0.42,-4.305,-0.088206,-0.038308,-1.07958,-0.23436,0.09198,0.43176
2.24285,0,0,12.7572,12.7572,17.2428,17.2428,-1.53897,-0.831335,13.8528,-0.033191,-0.0773595,-0.0679028,0,0,1,4.795,-0.245,0.0525,-0.088206,-0.038308,-1.07958,-0.23436,0.09198,0.43176
2.43071,0,0,12.5693,12.5693,17.4307,17.4307,-1.67298,-0.962001,14.0231,-0.0842429,0.118882,0.00478153,0,0,1,4.375,0.49,0.175,-0.141764,0.160064,-1.00735,-0.23436,0.09198,0.43176
2.61505,0,0,12.3849,12.3849,17.6151,17.6151,-1.80446,-1.08934,14.1929,-0.0820209,0.11659,0.00467215,0,0,1,4.375,0.49,0.175,-0.141764,0.160064,-1.00735,-0.23436,0.09198,0.43176
2.15986,0,0,12.8401,12.8401,17.1599,17.1599,-1.47916,-0.969858,14.1193,0.0569391,-0.298952,0.0188884,0,0,1,3.8325,0.875,-0.4375,-0.000122,-0.260714,-0.993446,-0.23436,0.09198,0.43176
1.71272,0,0,13.2873,13.2873,16.7127,16.7127,-1.15965,-0.852479,14.0522,0.0548907,-0.293379,0.0190493,0,0,1,3.8325,0.875,-0.4375,-0.000122,-0.260714,-0.993446,-0.23268,0.08904,0.42434
1.625,0,0,13.375,13.375,16.625,16.625,-1.09688,-0.51575,13.8692,0.245092,-0.0437569,-0.00225198,0,0,1,2.0125,0.525,-0.2975,0.196786,-0.012444,-1.01467,-0.23268,0.08904,0.42434
1.53986,0,0,13.4601,13.4601,16.5399,16.5399,-1.03595,-0.186855,13.6875,0.239352,-0.0426943,-0.002197,0,0,1,2.0125,0.525,-0.2975,0.196786,-0.012444,-1.01467,-0.23268,0.08904,0.42434
1.53917,0,0,13.4608,13.4608,16.5392,16.5392,-1.03535,-0.188552,13.6876,0.0405094,-0.11083,-0.322109,1,0,1,3.8675,-0.8225,-0.805,-0.002928,-0.08052,-1.33212,-0.23268,0.08904,0.42434
1.53848,0,0,13.4615,13.4615,16.5385,16.5385,-1.03475,-0.190249,13.6877,0.040539,-0.11082,-0.322109,1,0,1,3.8675,-0.8225,-0.805,-0.002928,-0.08052,-1.33212,-0.23268,0.08904,0.42434
0.988363,0,0,14.0116,14.0116,15.9884,15.9884,-0.641739,0.0988784,13.4814,0.174351,-0.346139,0.0784388,0,0,1,4.9525,0.0175,-1.05,0.136518,-0.322446,-0.934764,-0.23268,0.08904,0.42434
0.451601,0,0,14.5484,14.5484,15.4516,15.4516,-0.25831,0.379638,13.2794,0.169451,-0.339447,0.0784709,0,0,1,3.8675,-0.42,-1.33,0.136518,-0.322446,-0.934764,-0.23268,0.08904,0.42434
0.519971,0,0,14.48,14.48,15.52,15.52,-0.307112,0.278123,13.3917,-0.0724778,0.0420802,-0.0640204,0,0,1,3.15,-0.49,-2.485,-0.108214,0.059536,-1.07616,-0.23268,0.08904,0.42434
0.58926,0,0,14.4107,14.4107,15.5893,15.5893,-0.356567,0.178933,13.503,-0.0707466,0.041217,-0.0640185,0,0,1,2.2225,-0.6125,-2.7825,-0.108214,0.059536,-1.07616,-0.23268,0.08904,0.42434
0.617304,0,0,14.3827,14.3827,15.6173,15.6173,-0.376558,0.22792,13.5054,0.0415016,0.0227934,-0.0854168,0,0,1,3.01,-0.735,-3.29,0.005368,0.04148,-1.09739,-0.23366,0.0917,0.41888
0.492587,0,0,14.5074,14.5074,15.4926,15.4926,-0.287443,0.199459,13.5457,-0.0293138,-0.0894734,-0.0803651,0,0,1,4.3575,0,-3.57,-0.066246,-0.072224,-1.09239,-0.23366,0.0917,0.41888
0.367897,0,0,14.6321,14.6321,15.3679,15.3679,-0.198358,0.172226,13.5869,-0.0288385,-0.0879186,-0.0803569,0,0,1,5.25,0.42,-2.8525,-0.066246,-0.072224,-1.09239,-0.23366,0.0917,0.41888
0.112498,0,0,14.8875,14.8875,15.1125,15.1125,-0.0159281,0.151579,13.6112,-0.0326086,-0.180971,-0.0525636,0,0,1,4.305,1.0325,-2.555,-0.070394,-0.16836,-1.06482,-0.23366,0.0917,0.41888
-0.135531,0,0,15.1355,15.1355,14.8645,14.8645,0.161218,0.130576,13.6363,-0.0322421,-0.177879,-0.0525666,0,0,1,3.22,0.77,-1.9775,-0.070394,-0.16836,-1.06482,-0.23366,0.0917,0.41888
-0.320043,0,0,15.32,15.32,14.68,14.68,0.292981,0.290167,13.5462,0.100551,-0.112806,0.0317567,0,0,1,2.5725,0.49,-1.33,0.065758,-0.105652,-0.981124,-0.23366,0.0917,0.41888
-0.49854,0,0,15.4985,15.4985,14.5015,14.5015,0.420434,0.446728,13.4594,0.0978182,-0.110582,0.0317253,0,0,1,1.6975,1.155,-0.0875,0.065758,-0.105652,-0.981124,-0.23366,0.0917,0.41888
-0.494799,0,0,15.4948,15.4948,14.5052,14.5052,0.417717,0.448208,13.4618,0.0888024,-0.0702052,0.192419,1,0,1,1.995,1.05,0.525,0.05673,-0.06527,-0.82167,-0.23366,0.0917,0.41888
-0.494693,0,0,15.4947,15.4947,14.5053,14.5053,0.417596,0.448817,13.4648,0.0887918,-0.0702073,0.192419,1,0,1,3.4475,0.5425,0.8925,0.05673,-0.06527,-0.82167,-0.23436,0.09198,0.42028
-0.497605,0,0,15.4976,15.4976,14.5024,14.5024,0.419631,0.448766,13.4681,0.00132294,-0.123053,-0.26495,1,0,1,4.655,0.1575,1.0675,-0.03111,-0.118096,-1.27551,-0.23436,0.09198,0.42028
-0.499335,0,0,15.4993,15.4993,14.5007,14.5007,0.420822,0.448269,13.4712,0.00133161,-0.123032,-0.26495,1,0,1,4.1825,-0.105,0.9625,-0.03111,-0.118096,-1.27551,-0.23436,0.09198,0.42028
-0.500181,0,0,15.5002,15.5002,14.4998,14.4998,0.421382,0.448137,13.4734,0.0999803,-0.162347,0.197951,1,0,1,3.8325,0.105,0.4375,0.067954,-0.15738,-0.81618,-0.23436,0.09198,0.42028
-0.497388,0,0,15.4974,15.4974,14.5026,14.5026,0.419341,0.447028,13.4745,0.0999997,-0.162383,0.197952,1,0,1,2.38,-0.4725,-0.2275,0.067954,-0.15738,-0.81618,-0.23436,0.09198,0.42028
-0.494545,0,0,15.4945,15.4945,14.5055,14.5055,0.417266,0.445713,13.4751,0.0453541,-0.0197747,-0.195483,1,0,1,2.3625,-0.595,-0.5075,0.013054,-0.014884,-1.20658,-0.23436,0.09198,0.42028
-0.49134,0,0,15.4913,15.4913,14.5087,14.5087,0.414932,0.444048,13.4745,0.0453831,-0.0198154,-0.195482,1,0,1,2.2225,-0.805,-1.2075,0.013054,-0.014884,-1.20658,-0.23436,0.09198,0.42028
-0.188411,0,0,15.1884,15.1884,14.8116,14.8116,0.198533,0.546584,13.4613,0.09972,0.224936,-0.0598655,0,0,1,2.9225,-0.665,-1.68,0.069418,0.233386,-1.07201,-0.23436,0.09198,0.42028
0.108324,0,0,14.8917,14.8917,15.1083,15.1083,-0.0134192,0.646507,13.4582,0.0979761,0.221237,-0.0598777,0,0,1,3.5525,0.175,-1.5225,0.069418,0.233386,-1.07201,-0.23408,0.0854,0.4137
0.187377,0,0,14.8126,14.8126,15.1874,15.1874,-0.0698782,0.882929,13.3431,0.165041,0.063807,0.0665805,0,0,1,4.3225,0.35,-1.6275,0.14091,0.077104,-0.946476,-0.23408,0.0854,0.4137
0.270966,0,0,14.729,14.729,15.271,15.271,-0.129571,1.11405,13.229,0.161008,0.0627655,0.0665084,0,0,1,2.1525,0.385,-1.1725,0.14091,0.077104,-0.946476,-0.23408,0.0854,0.4137
0.512163,0,0,14.4878,14.4878,15.5122,15.5122,-0.301822,1.24219,13.1942,0.105318,0.166621,0.0180094,0,0,1,2.31,0.4025,-1.295,0.08723,0.183854,-0.994544,-0.23408,0.0854,0.4137
0.751407,0,0,14.2486,14.2486,15.7514,15.7514,-0.47266,1.36778,13.1597,0.103126,0.16364,0.0179393,0,0,1,1.435,0.455,-0.9975,0.08723,0.183854,-0.994544,-0.23408,0.0854,0.4137
0.753691,0,0,14.2463,14.2463,15.7537,15.7537,-0.474241,1.36758,13.1597,-0.117853,-0.134499,0.207157,1,0,1,2.6425,0.0525,-0.875,-0.134688,-0.113948,-0.806786,-0.23408,0.0854,0.4137
0.753412,0,0,14.2466,14.2466,15.7534,15.7534,-0.47399,1.36696,13.1605,-0.117842,-0.134494,0.207157,1,0,1,3.6575,-0.1925,-0.3675,-0.134688,-0.113948,-0.806786,-0.23408,0.0854,0.4137
0.751601,0,0,14.2484,14.2484,15.7516,15.7516,-0.472646,1.36614,13.1615,0.423999,-0.0867192,-0.123328,1,0,1,4.27,-0.315,-0.3325,0.409432,-0.066246,-1.13472,-0.23408,0.0854,0.4137
0.748471,0,0,14.2515,14.2515,15.7485,15.7485,-0.47036,1.36558,13.1626,0.424008,-0.0866793,-0.123327,1,0,1,4.795,-0.1575,-0.1925,0.409432,-0.066246,-1.13472,-0.2275,0.08624,0.41692
0.746481,0,0,14.2535,14.2535,15.7465,15.7465,-0.468889,1.36512,13.1636,-0.0650848,-0.219161,-0.0834915,1,0,1,4.34,-0.105,-0.28,-0.08174,-0.198616,-1.09519,-0.2275,0.08624,0.41692
0.747391,0,0,14.2526,14.2526,15.7474,15.7474,-0.469488,1.36434,13.1629,-0.0650712,-0.219172,-0.0834913,1,0,1,3.2025,-0.28,-1.295,-0.08174,-0.198616,-1.09519,-0.2275,0.08624,0.41692
0.752607,0,0,14.2474,14.2474,15.7526,15.7526,-0.473163,1.36448,13.1614,-0.177083,-0.0605931,-0.110909,1,0,1,1.4875,0.2625,-1.715,-0.194224,-0.040138,-1.1224,-0.2275,0.08624,0.41692
0.754706,0,0,14.2453,14.2453,15.7547,15.7547,-0.474611,1.36467,13.1591,-0.177087,-0.0606184,-0.11091,1,0,1,2.7475,0.2975,-2.205,-0.194224,-0.040138,-1.1224,-0.2275,0.08624,0.41692
0.757442,0,0,14.2426,14.2426,15.7574,15.7574,-0.476515,1.36433,13.1573,0.136717,-0.383799,-0.160581,1,0,1,2.485,-0.0175,-1.89,0.120902,-0.36295,-1.17169,-0.2275,0.08624,0.41692
0.758991,0,0,14.241,14.241,15.759,15.759,-0.47757,1.36453,13.1558,0.136713,-0.383817,-0.160581,1,0,1,2.9575,0.2975,-1.7675,0.120902,-0.36295,-1.17169,-0.2275,0.08624,0.41692
0.800728,0,0,14.1993,14.1993,15.8007,15.8007,-0.507328,1.03977,13.412,-0.226815,0.00512452,0.0656355,0,0,1,1.225,0.6825,-1.9075,-0.249856,0.026108,-0.94733,-0.2275,0.08624,0.41692
0.841676,0,0,14.1583,14.1583,15.8417,15.8417,-0.536518,0.721903,13.6629,-0.221268,0.00461436,0.0657161,0,0,1,1.3475,1.05,-1.1025,-0.249856,0.026108,-0.94733,-0.23212,0.08862,0.41706
0.654158,0,0,14.3458,14.3458,15.6542,15.6542,-0.402534,1.08642,13.4288,0.278723,-0.119692,-0.0476007,0,0,1,1.435,0.385,-0.9625,0.25864,-0.100406,-1.05969,-0.23212,0.08862,0.41706
0.473,0,0,14.527,14.527,15.473,15.473,-0.273107,1.44192,13.1983,0.27252,-0.117433,-0.0477242,0,0,1,0.6825,0.14,-0.3675,0.25864,-0.100406,-1.05969,-0.23212,0.08862,0.41706
0.47798,0,0,14.522,14.522,15.478,15.478,-0.276634,1.44115,13.1991,0.0125543,-0.113464,0.297146,1,0,1,1.54,-0.28,-0.4025,-0.00244,-0.09638,-0.717482,-0.23212,0.08862,0.41706
0.479671,0,0,14.5203,14.5203,15.4797,15.4797,-0.277812,1.44107,13.2001,0.0125557,-0.113485,0.297146,1,0,1,2.8525,0.1225,-0.2275,-0.00244,-0.09638,-0.717482,-0.23212,0.08862,0.41706
0.477254,0,0,14.5227,14.5227,15.4773,15.4773,-0.276056,1.44132,13.2013,0.00356139,0.156812,0.148625,1,0,1,4.4975,0.315,-0.21,-0.011468,0.173606,-0.864858,-0.23212,0.08862,0.41706
0.476576,0,0,14.5234,14.5234,15.4766,15.4766,-0.275542,1.44079,13.2026,0.0035706,0.156821,0.148625,1,0,1,3.7975,-0.14,-0.07,-0.011468,0.173606,-0.864858,-0.23212,0.08862,0.41706
0.9669,0,0,14.0331,14.0331,15.9669,15.9669,-0.625706,1.19787,13.4334,-0.150851,0.313384,0.0736758,0,0,1,4.2,-0.5425,-0.56,-0.1708,0.33611,-0.939278,-0.23212,0.08862,0.41706
1.45252,0,0,13.5475,13.5475,16.4525,16.4525,-0.972472,0.960723,13.6654,-0.146713,0.307332,0.0736693,0,0,1,2.7475,-0.455,-0.91,-0.1708,0.33611,-0.939278,-0.23212,0.08862,0.41706
1.628,0,0,13.372,13.372,16.628,16.628,-1.0977,1.00122,13.6841,0.0401544,0.121469,0.00390597,0,0,1,3.92,-0.14,-1.4,0.017568,0.152622,-1.00845,-0.23226,0.08834,0.41692
1.80173,0,0,13.1983,13.1983,16.8017,16.8017,-1.22166,1.04126,13.7022,0.0394557,0.119306,0.00384974,0,0,1,3.3775,0.0175,-1.7325,0.017568,0.152622,-1.00845,-0.23226,0.08834,0.41692
1.76989,0,0,13.2301,13.2301,16.7699,16.7699,-1.19879,0.829602,13.8755,-0.160704,-0.0351529,-0.0118189,0,0,1,2.8175,0.0875,-1.5225,-0.187148,-0.002074,-1.02407,-0.23226,0.08834,0.41692
1.73841,0,0,13.2616,13.2616,16.7384,16.7384,-1.17617,0.622898,14.0475,-0.157096,-0.0347592,-0.011765,0,0,1,2.8175,0.0875,-1.5225,-0.187148,-0.002074,-1.02407,-0.23226,0.08834,0.41692
1.74371,0,0,13.2563,13.2563,16.7437,16.7437,-1.17984,0.623183,14.0481,-0.20521,0.0735032,0.186672,1,0,1,1.47,0.3325,-0.5075,-0.23546,0.10614,-0.82716,-0.23226,0.08834,0.41692
1.74902,0,0,13.251,13.251,16.749,16.749,-1.18351,0.623468,14.0487,-0.205215,0.0734393,0.186671,1,0,1,1.47,0.3325,-0.5075,-0.23546,0.10614,-0.82716,-0.23226,0.08834,0.41692
1.75405,0,0,13.2459,13.2459,16.7541,16.7541,-1.18697,0.616518,14.0505,-0.012417,-0.145839,-0.206887,1,0,1,1.575,-3.92,0.1225,-0.041968,-0.11285,-1.21768,-0.23226,0.08834,0.41692
1.75908,0,0,13.2409,13.2409,16.7591,16.7591,-1.19043,0.609568,14.0524,-0.0122957,-0.145899,-0.206887,1,0,1,1.575,-3.92,0.1225,-0.041968,-0.11285,-1.21768,-0.23226,0.08834,0.41692
1.88027,0,0,13.1197,13.1197,16.8803,16.8803,-1.27686,0.501953,14.1798,-0.0717678,0.0754737,-0.000716577,0,0,1,3.5,0.0175,-0.4025,-0.103578,0.1098,-1.01309,-0.23758,0.084,0.41496
1.69224,0,0,13.3078,13.3078,16.6922,16.6922,-1.14243,0.944215,13.9014,0.327005,-0.104514,0.0157107,0,0,1,4.935,0.2975,-0.35,0.304634,-0.072346,-0.99674,-0.23758,0.084,0.41496
1.51297,0,0,13.487,13.487,16.513,16.513,-1.01428,1.3756,13.6257,0.319477,-0.102275,0.0156004,0,0,1,3.3425,-0.1925,-0.385,0.304634,-0.072346,-0.99674,-0.23758,0.084,0.41496
1.73435,0,0,13.2657,13.2657,16.7343,16.7343,-1.17227,1.32737,13.7085,-0.0229995,0.142763,0.0228216,0,0,1,2.555,-0.1225,-0.7,-0.040138,0.175192,-0.989542,-0.23758,0.084,0.41496
1.95039,0,0,13.0496,13.0496,16.9504,16.9504,-1.32645,1.28131,13.789,-0.0221959,0.140073,0.0227812,0,0,1,3.0975,0.385,-2.0125,-0.040138,0.175192,-0.989542,-0.23758,0.084,0.41496
1.95051,0,0,13.0495,13.0495,16.9505,16.9505,-1.32639,1.28273,13.7868,0.128786,-0.0186904,0.125443,1,0,1,3.5875,1.0325,-2.1,0.111508,0.016592,-0.887672,-0.23758,0.084,0.41496
1.94627,0,0,13.0537,13.0537,16.9463,16.9463,-1.32322,1.28306,13.7855,0.12878,-0.0186352,0.125444,1,0,1,5.32,0.385,-1.645,0.111508,0.016592,-0.887672,-0.23758,0.084,0.41496
1.94379,0,0,13.0562,13.0562,16.9438,16.9438,-1.32131,1.28313,13.7842,-0.077382,-0.229515,-0.246106,1,0,1,4.62,0.2275,-1.5925,-0.095526,-0.194102,-1.25636,-0.23758,0.084,0.41496
1.94595,0,0,13.0541,13.0541,16.9459,16.9459,-1.32271,1.28297,13.7824,-0.0773793,-0.229539,-0.246106,1,0,1,2.765,0.105,-1.9075,-0.095526,-0.194102,-1.25636,-0.2324,0.08372,0.4144
1.76937,0,0,13.2306,13.2306,16.7694,16.7694,-1.19646,1.16266,13.883,-0.104679,-0.135254,-0.0640493,0,0,1,2.73,-0.1225,-1.225,-0.12505,-0.102114,-1.0758,-0.2324,0.08372,0.4144
1.59825,0,0,13.4017,13.4017,16.5983,16.5983,-1.07411,1.04602,13.9827,-0.102644,-0.13312,-0.0639678,0,0,1,1.75,0.5075,-1.05,-0.12505,-0.102114,-1.0758,-0.2324,0.08372,0.4144
1.50439,0,0,13.4956,13.4956,16.5044,16.5044,-1.00696,0.665345,14.2708,-0.314189,-0.0967779,-0.0471263,0,0,1,1.54,1.1025,-0.98,-0.344162,-0.066978,-1.0592,-0.2324,0.08372,0.4144
1.40691,0,0,13.5931,13.5931,16.4069,16.4069,-0.937229,0.291447,14.5558,-0.307664,-0.095562,-0.0470512,0,0,1,3.5525,-0.035,-0.9975,-0.344162,-0.066978,-1.0592,-0.2324,0.08372,0.4144
1.29835,0,0,13.7017,13.7017,16.2983,16.2983,-0.859593,0.214837,14.6412,-0.0683361,-0.0829716,-0.0857528,0,0,1,3.6925,-0.2275,-0.6475,-0.105164,-0.055754,-1.09763,-0.2324,0.08372,0.4144
1.19163,0,0,13.8084,13.8084,16.1916,16.1916,-0.783283,0.139861,14.726,-0.0670275,-0.08164,-0.0857296,0,0,1,3.6925,-0.2275,-0.6475,-0.105164,-0.055754,-1.09763,-0.2324,0.08372,0.4144
1.50732,0,0,13.4927,13.4927,16.5073,16.5073,-1.00867,-0.09149,14.9607,-0.161758,0.218644,-0.0471836,0,0,1,5.075,-0.665,-0.4725,-0.20435,0.248148,-1.05933,-0.2324,0.08372,0.4144
1.81808,0,0,13.1819,13.1819,16.8181,16.8181,-1.23051,-0.318923,15.203,-0.157788,0.214774,-0.0472735,0,0,1,5.075,-0.665,-0.4725,-0.20435,0.248148,-1.05933,-0.23366,0.0784,0.41468
2.09948,0,0,12.9005,12.9005,17.0995,17.0995,-1.43135,-0.414785,15.3545,-0.0470209,0.174021,0.0600914,0,0,1,3.4475,-0.8575,-1.645,-0.094794,0.210938,-0.952698,-0.23366,0.0784,0.41468
2.37579,0,0,12.6242,12.6242,17.3758,17.3758,-1.62854,-0.508059,15.5059,-0.045393,0.170581,0.0599864,0,0,1,3.4475,-0.8575,-1.645,-0.094794,0.210938,-0.952698,-0.23366,0.0784,0.41468
2.37426,0,0,12.6257,12.6257,17.3743,17.3743,-1.62728,-0.505312,15.5057,0.122088,-0.182954,0.154289,1,0,1,4.235,1.785,-0.945,0.073444,-0.142252,-0.859124,-0.23366,0.0784,0.41468
2.37274,0,0,12.6273,12.6273,17.3727,17.3727,-1.62602,-0.502565,15.5055,0.12204,-0.182932,0.15429,1,0,1,4.235,1.785,-0.945,0.073444,-0.142252,-0.859124,-0.23366,0.0784,0.41468
2.18905,0,0,12.811,12.811,17.189,17.189,-1.49465,-0.305988,15.4125,0.142906,-0.118234,-0.0697585,0,0,1,3.8325,0.63,-0.5775,0.097844,-0.07991,-1.08153,-0.23366,0.0784,0.41468
2.24831,0,0,12.7517,12.7517,17.2483,17.2483,-1.53681,-0.458111,15.5835,-0.121221,0.0329567,-0.0840577,0,0,1,2.3975,0.8225,-0.14,-0.170068,0.071858,-1.09568,-0.23366,0.0784,0.41468
2.30603,0,0,12.694,12.694,17.306,17.306,-1.57788,-0.606761,15.7547,-0.118627,0.0322409,-0.0841013,0,0,1,2.52,0.7,0.49,-0.170068,0.071858,-1.09568,-0.23366,0.0784,0.41468
2.28486,0,0,12.7151,12.7151,17.2849,17.2849,-1.56258,-0.577161,15.7895,0.0199574,-0.01329,0.0726707,0,0,1,3.7275,0.0525,0.6125,-0.030378,0.026108,-0.940132,-0.23422,0.08274,0.42014
2.33361,0,0,12.6664,12.6664,17.3336,17.3336,-1.59724,-0.23407,15.6127,0.254754,0.0510758,0.0590491,0,0,1,3.885,0.1225,-0.3325,0.211426,0.091012,-0.953674,-0.23422,0.08274,0.42014
2.37992,0,0,12.6201,12.6201,17.3799,17.3799,-1.63014,0.102605,15.437,0.248878,0.0505015,0.0590397,0,0,1,4.8825,0.665,0.105,0.211426,0.091012,-0.953674,-0.23422,0.08274,0.42014
2.35052,0,0,12.6495,12.6495,17.3505,17.3505,-1.60896,0.366599,15.2978,0.210012,0.00202078,-0.0416635,0,0,1,6.4225,-0.6125,-0.0875,0.177022,0.042212,-1.05359,-0.23422,0.08274,0.42014
2.32912,0,0,12.6709,12.6709,17.3291,17.3291,-1.59351,0.623317,15.1573,0.205531,0.00229144,-0.0416947,0,0,1,3.71,-1.365,-1.2775,0.177022,0.042212,-1.05359,-0.23422,0.08274,0.42014
2.80797,0,0,12.192,12.192,17.808,17.808,-1.93534,0.458716,15.356,-0.093974,0.316056,0.045934,0,0,1,2.4325,-1.1725,-1.75,-0.126636,0.361608,-0.966484,-0.23422,0.08274,0.42014
3.27369,0,0,11.7263,11.7263,18.2737,18.2737,-2.26775,0.299696,15.5545,-0.0911986,0.310257,0.0457396,0,0,1,4.41,-0.21,-2.485,-0.126636,0.361608,-0.966484,-0.23422,0.08274,0.42014
3.27075,0,0,11.7292,11.7292,18.2708,18.2708,-2.26541,0.298995,15.5518,-0.191534,0.0389324,0.202746,1,0,1,4.8475,-0.175,-2.45,-0.227408,0.090524,-0.81069,-0.23422,0.08274,0.42014
3.27302,0,0,11.727,11.727,18.273,18.273,-2.26679,0.299048,15.5485,-0.191535,0.0389083,0.202746,1,0,1,2.765,0.28,-2.7825,-0.227408,0.090524,-0.81069,-0.23212,0.08204,0.41328
3.56864,0,0,11.4314,11.4314,18.5686,18.5686,-2.47768,0.154466,15.7249,-0.0874491,0.178974,0.0626878,0,0,1,2.17,0.5775,-2.59,-0.125416,0.234118,-0.949526,-0.23212,0.08204,0.41328
3.85948,0,0,11.1405,11.1405,18.8595,18.8595,-2.68514,0.0126578,15.9038,-0.0849741,0.175356,0.0625283,0,0,1,1.9425,0.035,-1.2775,-0.125416,0.234118,-0.949526,-0.23212,0.08204,0.41328
3.86219,0,0,11.1378,11.1378,18.8622,18.8622,-2.68678,0.0125783,15.9033,0.17282,-0.214501,0.134329,1,0,1,2.6075,0.14,-1.155,0.133468,-0.155306,-0.878278,-0.23212,0.08204,0.41328
3.86249,0,0,11.1375,11.1375,18.8625,18.8625,-2.68671,0.0152615,15.9043,0.172773,-0.2145,0.134329,1,0,1,3.57,1.715,-0.1925,0.133468,-0.155306,-0.878278,-0.23212,0.08204,0.41328
4.05459,0,0,10.9454,10.9454,19.0546,19.0546,-2.82362,-0.532674,16.3605,-0.432381,0.0999124,0.040976,0,0,1,4.2875,1.19,0.1575,-0.483852,0.161162,-0.970754,-0.23212,0.08204,0.41328
4.23722,0,0,10.7628,10.7628,19.2372,19.2372,-2.95375,-1.07003,16.8156,-0.423004,0.0976509,0.0407305,0,0,1,6.965,0.385,0.2975,-0.483852,0.161162,-0.970754,-0.23212,0.08204,0.41328
4.10035,0,0,10.8996,10.8996,19.1004,19.1004,-2.85568,-0.918802,16.7596,0.106951,-0.0780924,-0.00905409,0,0,1,6.58,-0.0525,0.7,0.050996,-0.016104,-1.02029,-0.23212,0.08204,0.41328
3.97385,0,0,11.0261,11.0261,18.9739,18.9739,-2.76503,-0.770468,16.7071,0.104362,-0.0765142,-0.00893841,0,0,1,3.4825,0.035,0.805,0.050996,-0.016104,-1.02029,-0.23464,0.0798,0.41258
3.91818,0,0,11.0818,11.0818,18.9182,18.9182,-2.72497,-0.82296,16.8,-0.0477939,-0.0429631,-0.053425,0,0,1,2.2925,0.1575,0.3325,-0.102724,0.016714,-1.06445,-0.23464,0.0798,0.41258
3.86318,0,0,11.1368,11.1368,18.8632,18.8632,-2.6854,-0.875088,16.8905,-0.0468842,-0.0422728,-0.0534059,0,0,1,2.38,-0.2275,-0.665,-0.102724,0.016714,-1.06445,-0.23464,0.0798,0.41258
3.69663,0,0,11.3034,11.3034,18.6966,18.6966,-2.56616,-0.664384,16.7828,0.138106,-0.096863,0.0730069,0,0,1,2.87,0.7525,-2.1,0.086742,-0.039894,-0.939156,-0.23464,0.0798,0.41258
3.52997,0,0,11.47,11.47,18.53,18.53,-2.44686,-0.459243,16.6761,0.134526,-0.0947844,0.073133,0,0,1,4.375,0.455,-2.2225,0.086742,-0.039894,-0.939156,-0.23464,0.0798,0.41258
3.5281,0,0,11.4719,11.4719,18.5281,18.5281,-2.44526,-0.459811,16.6732,0.188475,-0.232271,-0.0708385,1,0,1,4.41,-0.0875,-2.555,0.14091,-0.177266,-1.08202,-0.23464,0.0798,0.41258
3.52624,0,0,11.4738,11.4738,18.5262,18.5262,-2.44367,-0.460379,16.6703,0.188485,-0.232243,-0.0708374,1,0,1,4.41,-0.0875,-2.555,0.14091,-0.177266,-1.08202,-0.23464,0.0798,0.41258
3.52937,0,0,11.4706,11.4706,18.5294,18.5294,-2.44564,-0.461398,16.6688,-0.271928,-0.00390089,-0.105265,1,0,1,2.415,-0.385,-1.785,-0.32147,0.050874,-1.11618,-0.23464,0.0798,0.41258
3.5325,0,0,11.4675,11.4675,18.5325,18.5325,-2.44761,-0.462417,16.6672,-0.27191,-0.0039353,-0.105266,1,0,1,2.415,-0.385,-1.785,-0.32147,0.050874,-1.11618,-0.23576,0.08526,0.4116
3.53988,0,0,11.4601,11.4601,18.5399,18.5399,-2.45262,-0.463325,16.6669,-0.347337,0.105037,-0.193793,1,0,1,0.7175,-0.35,-1.085,-0.397232,0.15982,-1.20402,-0.23576,0.08526,0.4116
3.54726,0,0,11.4527,11.4527,18.5473,18.5473,-2.45764,-0.464233,16.6665,-0.347321,0.104949,-0.193797,1,0,1,0.7175,-0.35,-1.085,-0.397232,0.15982,-1.20402,-0.23576,0.08526,0.4116
3.54902,0,0,11.451,11.451,18.549,18.549,-2.45863,-0.462075,16.6673,-0.00974987,0.0220077,0.148368,1,0,1,2.975,1.4175,-0.385,-0.058194,0.076982,-0.864492,-0.23576,0.08526,0.4116
3.55078,0,0,11.4492,11.4492,18.5508,18.5508,-2.45962,-0.459918,16.668,-0.00978752,0.0219904,0.148368,1,0,1,2.975,1.4175,-0.385,-0.058194,0.076982,-0.864492,-0.23576,0.08526,0.4116
3.412,0,0,11.588,11.588,18.412,18.412,-2.36024,-0.329532,16.6106,0.0908353,-0.0814284,-0.00522913,0,0,1,6.2825,-0.2625,0.945,0.04514,-0.02806,-1.01699,-0.23576,0.08526,0.4116
3.41009,0,0,11.5899,11.5899,18.4101,18.4101,-2.35862,-0.330703,16.6133,0.0907342,0.0377956,-0.0963329,1,0,1,4.445,-0.5775,0.6825,0.045018,0.091012,-1.10739,-0.23576,0.08526,0.4116
3.41078,0,0,11.5892,11.5892,18.4108,18.4108,-2.35886,-0.332704,16.6147,0.0907691,0.0377913,-0.0963333,1,0,1,3.395,-1.0325,-0.0875,0.045018,0.091012,-1.10739,-0.23576,0.08526,0.4116
3.56923,0,0,11.4308,11.4308,18.5692,18.5692,-2.47177,-0.46146,16.7771,-0.0785215,0.0854066,0.0894662,0,0,1,2.4325,-0.84,-0.5075,-0.127246,0.140544,-0.92293,-0.22918,0.08022,0.41314
3.7241,0,0,11.2759,11.2759,18.7241,18.7241,-2.58212,-0.582888,16.9374,-0.0764023,0.0834835,0.089362,0,0,1,2.66,1.645,-1.33,-0.127246,0.140544,-0.92293,-0.22918,0.08022,0.41314
3.67346,0,0,11.3265,11.3265,18.6735,18.6735,-2.54568,-0.544333,16.96,0.0252158,-0.0341001,-0.0143714,0,0,1,2.205,0.5775,-1.6975,-0.024522,0.022448,-1.0259,-0.22918,0.08022,0.41314
3.62384,0,0,11.3762,11.3762,18.6238,18.6238,-2.50996,-0.506743,16.9824,0.0245597,-0.0334777,-0.0143379,0,0,1,2.205,0.5775,-1.6975,-0.024522,0.022448,-1.0259,-0.22918,0.08022,0.41314
3.62729,0,0,11.3727,11.3727,18.6273,18.6273,-2.51216,-0.505374,16.9815,0.230576,-0.0639256,-0.123149,1,0,1,2.2925,0.9975,-1.365,0.18239,-0.00793,-1.13387,-0.22918,0.08022,0.41314
3.4638,0,0,11.5362,11.5362,18.4638,18.4638,-2.39512,0.0693058,16.611,0.443958,-0.0854569,0.0605389,0,0,1,1.4175,1.75,-1.295,0.406748,-0.031476,-0.951722,-0.22918,0.08022,0.41314
3.30141,0,0,11.6986,11.6986,18.3014,18.3014,-2.27889,0.627821,16.2431,0.43421,-0.0834275,0.0605623,0,0,1,2.9225,-0.91,-1.435,0.406748,-0.031476,-0.951722,-0.22918,0.08022,0.41314
3.30403,0,0,11.696,11.696,18.304,18.304,-2.28051,0.625076,16.2416,-0.0266587,0.128068,0.1422,1,0,1,2.625,-1.4,-1.785,-0.05612,0.179828,-0.870714,-0.22918,0.08022,0.41314
3.30594,0,0,11.6941,11.6941,18.3059,18.3059,-2.28163,0.624612,16.2411,-0.0266506,0.128048,0.142199,1,0,1,2.905,-0.0875,-1.155,-0.05612,0.179828,-0.870714,-0.23968,0.0875,0.413
3.30609,0,0,11.6939,11.6939,18.3061,18.3061,-2.2815,0.624519,16.2409,-0.318458,0.164566,-0.170951,1,0,1,3.605,0.1225,-0.9625,-0.349164,0.216306,-1.18145,-0.23968,0.0875,0.413
3.30813,0,0,11.6919,11.6919,18.3081,18.3081,-2.28271,0.622746,16.2406,-0.318427,0.164545,-0.170951,1,0,1,2.8525,-0.8575,-1.085,-0.349164,0.216306,-1.18145,-0.23968,0.0875,0.413
3.33466,0,0,11.6653,11.6653,18.3347,18.3347,-2.30141,0.849774,16.1119,0.18445,0.0342783,-0.0314688,0,0,1,2.905,-0.9625,-1.3825,0.15982,0.086498,-1.04298,-0.23968,0.0875,0.413
3.3601,0,0,11.6399,11.6399,18.3601,18.3601,-2.31933,1.07636,15.9838,0.180495,0.0339684,-0.0315478,0,0,1,3.395,1.6975,-1.2425,0.15982,0.086498,-1.04298,-0.23968,0.0875,0.413
3.25339,0,0,11.7466,11.7466,18.2534,18.2534,-2.24287,0.658097,16.2798,-0.33508,-0.10295,0.018164,0,0,1,4.8475,0.77,-0.8575,-0.365268,-0.051606,-0.993812,-0.23968,0.0875,0.413
3.14875,0,0,11.8513,11.8513,18.1487,18.1487,-2.1679,0.246468,16.5719,-0.327896,-0.101645,0.018271,0,0,1,4.62,-0.7525,-1.2425,-0.365268,-0.051606,-0.993812,-0.23968,0.0875,0.413
3.1491,0,0,11.8509,11.8509,18.1491,18.1491,-2.16792,0.245917,16.5714,0.371021,0.137113,-0.165168,1,0,1,3.5175,-0.14,-1.1375,0.336598,0.186904,-1.17584,-0.23968,0.0875,0.413
3.15622,0,0,11.8438,11.8438,18.1562,18.1562,-2.17277,0.247145,16.5722,0.371,0.137028,-0.165171,1,0,1,0.805,0.875,-0.385,0.336598,0.186904,-1.17584,-0.23296,0.08876,0.41146
3.237,0,0,11.763,11.763,18.237,18.237,-2.23023,0.0936444,16.7192,-0.108984,0.038202,0.0413515,0,0,1,1.5225,0.4375,-0.28,-0.148108,0.089182,-0.970876,-0.23296,0.08876,0.41146
3.31898,0,0,11.681,11.681,18.319,18.319,-2.28854,-0.0563197,16.8658,-0.106367,0.037185,0.0413122,0,0,1,0.385,0.385,-0.1225,-0.148108,0.089182,-0.970876,-0.23296,0.08876,0.41146
3.3232,0,0,11.6768,11.6768,18.3232,18.3232,-2.29131,-0.05521,16.8673,-0.0265698,-0.104652,0.183931,1,0,1,1.9775,0.7875,0.035,-0.067954,-0.05246,-0.829356,-0.23296,0.08876,0.41146
3.32392,0,0,11.6761,11.6761,18.3239,18.3239,-2.29158,-0.0537923,16.8683,-0.0265945,-0.104657,0.18393,1,0,1,3.3775,0.98,-0.2625,-0.067954,-0.05246,-0.829356,-0.23296,0.08876,0.41146
3.32216,0,0,11.6778,11.6778,18.3222,18.3222,-2.29007,-0.0519865,16.87,0.00168013,-0.316887,-0.172988,1,0,1,4.375,1.19,0.175,-0.039528,-0.264496,-1.18352,-0.23296,0.08876,0.41146
3.31908,0,0,11.6809,11.6809,18.3191,18.3191,-2.28763,-0.0526414,16.8714,0.00169156,-0.316844,-0.172986,1,0,1,4.9,-0.245,-0.0175,-0.039528,-0.264496,-1.18352,-0.23296,0.08876,0.41146
3.21176,0,0,11.7882,11.7882,18.2118,18.2118,-2.21074,0.0341875,16.8302,0.06019,-0.0710058,-0.0129774,0,0,1,1.925,-0.0175,-0.98,0.02074,-0.020252,-1.0248,-0.23296,0.08876,0.41146
3.10914,0,0,11.8909,11.8909,18.1091,18.1091,-2.13721,0.117049,16.79,0.0587438,-0.0697233,-0.0129307,0,0,1,0.91,-1.085,-1.4875,0.02074,-0.020252,-1.0248,-0.23576,0.08736,0.41972
3.11632,0,0,11.8837,11.8837,18.1163,18.1163,-2.1421,0.114327,16.7874,-0.173732,0.108374,-0.182726,1,0,1,0.7875,-1.365,-2.415,-0.212768,0.157746,-1.19328,-0.23576,0.08736,0.41972
3.12349,0,0,11.8765,11.8765,18.1235,18.1235,-2.147,0.111604,16.7849,-0.173685,0.108289,-0.182729,1,0,1,0.7875,-1.365,-2.415,-0.212768,0.157746,-1.19328,-0.23576,0.08736,0.41972
3.11934,0,0,11.8807,11.8807,18.1193,18.1193,-2.14381,0.112022,16.7824,-0.0497766,-0.14116,-0.132687,1,0,1,5.32,0.4725,-2.31,-0.088328,-0.0915,-1.14363,-0.23576,0.08736,0.41972
3.1152,0,0,11.8848,11.8848,18.1152,18.1152,-2.14062,0.11244,16.7799,-0.0497839,-0.141105,-0.132685,1,0,1,5.32,0.4725,-2.31,-0.088328,-0.0915,-1.14363,-0.23576,0.08736,0.41972
3.21021,0,0,11.7898,11.7898,18.2102,18.2102,-2.20824,-0.259528,17.0747,-0.279946,0.0398071,0.0155382,0,0,1,3.29,-4.41,-0.7525,-0.325984,0.090402,-0.996496,-0.23576,0.08736,0.41972
3.30336,0,0,11.6966,11.6966,18.3034,18.3034,-2.27454,-0.623099,17.368,-0.273601,0.0386529,0.0154441,0,0,1,3.29,-4.41,-0.7525,-0.325984,0.090402,-0.996496,-0.23576,0.08736,0.41972
3.06421,0,0,11.9358,11.9358,18.0642,18.0642,-2.10349,-0.262108,17.1269,0.281727,-0.155112,-0.0431626,0,0,1,0.7175,-0.0175,-0.035,0.238022,-0.10614,-1.05481,-0.23576,0.08736,0.41972
2.83053,0,0,12.1695,12.1695,17.8305,17.8305,-1.93637,0.0907376,16.8885,0.275569,-0.152197,-0.0430506,0,0,1,0.7175,-0.0175,-0.035,0.238022,-0.10614,-1.05481,-0.23576,0.08736,0.41972
2.8378,0,0,12.1622,12.1622,17.8378,17.8378,-1.94135,0.0922161,16.8897,-0.44754,-0.103678,0.311776,1,0,1,0.735,1.015,-0.14,-0.488122,-0.057584,-0.70272,-0.23002,0.08666,0.4081
2.57974,0,0,12.4203,12.4203,17.5797,17.5797,-1.75684,0.34896,16.7148,0.162576,-0.146989,0.117112,0,0,1,4.4275,-0.56,0.4375,0.129076,-0.104066,-0.895968,-0.23002,0.08666,0.4081
2.25587,0,0,12.7441,12.7441,17.2559,17.2559,-1.52534,0.0821871,16.8858,-0.206701,-0.220868,0.115278,0,0,1,6.7025,-0.77,0.315,-0.24644,-0.181902,-0.89792,-0.23002,0.08666,0.4081
1.95151,0,0,13.0485,13.0485,16.9515,16.9515,-1.3078,-0.178737,17.0521,-0.202147,-0.217072,0.115368,0,0,1,0.9275,-0.5425,-0.665,-0.24644,-0.181902,-0.89792,-0.23002,0.08666,0.4081
1.95278,0,0,13.0472,13.0472,16.9528,16.9528,-1.30857,-0.180269,17.0516,-0.422496,-0.083845,-0.0479079,1,0,1,3.0975,-0.7175,-1.1725,-0.467748,-0.0488,-1.05994,-0.23002,0.08666,0.4081
1.95256,0,0,13.0474,13.0474,16.9526,16.9526,-1.30827,-0.181593,17.0497,-0.422473,-0.0838398,-0.0479078,1,0,1,3.6925,-0.5775,-1.9775,-0.467748,-0.0488,-1.05994,-0.23002,0.08666,0.4081
1.95727,0,0,13.0427,13.0427,16.9573,16.9573,-1.3115,-0.181737,17.0472,0.147784,0.113827,-0.145161,1,0,1,1.715,0.1225,-2.345,0.10492,0.148718,-1.15644,-0.23002,0.08666,0.4081
1.96172,0,0,13.0383,13.0383,16.9617,16.9617,-1.31453,-0.179417,17.044,0.147743,0.113774,-0.145162,1,0,1,1.82,1.575,-2.7125,0.10492,0.148718,-1.15644,-0.22988,0.08526,0.41636
1.96561,0,0,13.0344,13.0344,16.9656,16.9656,-1.31717,-0.177289,17.0415,0.0875707,0.0226216,0.134299,1,0,1,2.0475,1.4525,-2.275,0.04453,0.057706,-0.879132,-0.22988,0.08526,0.41636
1.96845,0,0,13.0316,13.0316,16.9684,16.9684,-1.31905,-0.175889,17.0398,0.0875463,0.0225886,0.134298,1,0,1,2.4675,1.015,-1.8025,0.04453,0.057706,-0.879132,-0.22988,0.08526,0.41636
1.97033,0,0,13.0297,13.0297,16.9703,16.9703,-1.32026,-0.172647,17.039,0.437976,0.0687315,0.223558,1,0,1,2.8525,2.0825,-1.295,0.3965,0.103822,-0.79056,-0.22988,0.08526,0.41636
1.97218,0,0,13.0278,13.0278,16.9722,16.9722,-1.32143,-0.172687,17.0397,0.437977,0.068711,0.223558,1,0,1,2.87,0.14,-0.455,0.3965,0.103822,-0.79056,-0.22988,0.08526,0.41636
1.97066,0,0,13.0293,13.0293,16.9707,16.9707,-1.32021,-0.1732,17.0406,0.253449,-0.391197,0.302491,1,0,1,4.2175,-0.14,-0.3325,0.211182,-0.35563,-0.712236,-0.22988,0.08526,0.41636
1.96788,0,0,13.0321,13.0321,16.9679,16.9679,-1.31808,-0.175332,17.0426,0.253486,-0.39116,0.302492,1,0,1,4.725,-1.1025,0.2625,0.211182,-0.35563,-0.712236,-0.22988,0.08526,0.41636
1.97117,0,0,13.0288,13.0288,16.9712,16.9712,-1.32029,-0.176244,17.0443,-0.144607,-0.129114,-0.0891001,1,0,1,2.2925,-0.385,0.14,-0.188612,-0.093818,-1.10081,-0.22988,0.08526,0.41636
1.97437,0,0,13.0256,13.0256,16.9744,16.9744,-1.32244,-0.176596,17.0458,-0.144601,-0.129152,-0.089101,1,0,1,2.3275,-0.0525,-0.035,-0.188612,-0.093818,-1.10081,-0.22988,0.08526,0.41636
2.23436,0,0,12.7656,12.7656,17.2344,17.2344,-1.50798,-0.0750361,17.0464,0.0964768,0.18111,0.0397959,0,0,1,3.255,-1.3825,-0.35,0.055266,0.219356,-0.972828,-0.22876,0.08442,0.41328
2.23619,0,0,12.7638,12.7638,17.2362,17.2362,-1.50912,-0.0748805,17.0465,0.104128,-0.104198,0.165695,1,0,1,2.8875,0.2625,-0.805,0.062952,-0.065636,-0.8479,-0.22876,0.08442,0.41328
2.2301,0,0,12.7699,12.7699,17.2301,17.2301,-1.50462,-0.0766983,17.0454,0.104159,-0.104119,0.165697,1,0,1,6.055,-0.875,-1.5225,0.062952,-0.065636,-0.8479,-0.22876,0.08442,0.41328
2.22485,0,0,12.7752,12.7752,17.2248,17.2248,-1.5007,-0.0781302,17.0442,0.0213312,-0.0492161,-0.199336,1,0,1,5.7225,-0.6475,-1.575,-0.020252,-0.010858,-1.21012,-0.22876,0.08442,0.41328
2.22536,0,0,12.7746,12.7746,17.2254,17.2254,-1.50091,-0.0778788,17.0434,0.0213268,-0.0492197,-0.199336,1,0,1,3.4125,0.3325,-1.33,-0.020252,-0.010858,-1.21012,-0.22876,0.08442,0.41328
2.23217,0,0,12.7678,12.7678,17.2322,17.2322,-1.50561,-0.0780133,17.0427,-0.227352,-0.00387053,-0.149052,1,0,1,0.8925,0.105,-1.2775,-0.269986,0.034526,-1.16022,-0.22876,0.08442,0.41328
2.24588,0,0,12.7541,12.7541,17.2459,17.2459,-1.51524,-0.078415,17.0421,-0.227345,-0.00403859,-0.149056,1,0,1,-1.8725,-0.0525,-1.2425,-0.269986,0.034526,-1.16022,-0.22876,0.08442,0.41328
2.25426,0,0,12.7457,12.7457,17.2543,17.2543,-1.52107,-0.0797565,17.0421,0.119398,-0.0808358,0.238352,1,0,1,0.2625,-0.6125,-0.8925,0.078202,-0.04209,-0.775798,-0.23156,0.0882,0.41146
2.2231,0,0,12.7769,12.7769,17.2231,17.2231,-1.49865,0.333888,16.7867,0.318219,0.00309047,0.0354809,0,0,1,2.415,1.365,-0.665,0.285114,0.041358,-0.977098,-0.23156,0.0882,0.41146
2.18137,0,0,12.8186,12.8186,17.1814,17.1814,-1.46868,0.739714,16.5326,0.311136,0.00361497,0.0354281,0,0,1,7.4025,1.855,-0.5775,0.285114,0.041358,-0.977098,-0.23156,0.0882,0.41146
2.16879,0,0,12.8312,12.8312,17.1688,17.1688,-1.45954,0.740613,16.5337,0.0157887,-0.347584,-0.119729,1,0,1,8.645,0.6825,-0.1925,-0.011468,-0.309636,-1.13106,-0.23156,0.0882,0.41146
2.1646,0,0,12.8354,12.8354,17.1646,17.1646,-1.45639,0.738048,16.535,0.0158335,-0.347529,-0.119727,1,0,1,5.285,-1.3475,-0.175,-0.011468,-0.309636,-1.13106,-0.23156,0.0882,0.41146
2.1669,0,0,12.8331,12.8331,17.1669,17.1669,-1.45788,0.734587,16.535,-0.596637,0.0487461,-0.209848,1,0,1,2.695,-1.855,-0.8925,-0.626592,0.086254,-1.22049,-0.23156,0.0882,0.41146
2.17191,0,0,12.8281,12.8281,17.1719,17.1719,-1.4613,0.7325,16.5327,-0.596601,0.0486864,-0.209849,1,0,1,1.6275,-1.015,-2.2225,-0.626592,0.086254,-1.22049,-0.23156,0.0882,0.41146
2.17591,0,0,12.8241,12.8241,17.1759,17.1759,-1.464,0.73275,16.5306,0.0545584,0.0157872,-0.190548,1,0,1,2.03,0.35,-2.065,0.027328,0.053436,-1.20133,-0.23156,0.0882,0.41146
2.17991,0,0,12.8201,12.8201,17.1799,17.1799,-1.4667,0.732999,16.5286,0.054554,0.0157401,-0.190549,1,0,1,2.03,0.35,-2.065,0.027328,0.053436,-1.20133,-0.23478,0.08708,0.41832
2.17752,0,0,12.8225,12.8225,17.1775,17.1775,-1.46483,0.733262,16.527,0.032682,0.255141,-0.138541,1,0,1,4.585,0.35,-1.7675,0.005368,0.292556,-1.14973,-0.23478,0.08708,0.41832
2.17513,0,0,12.8249,12.8249,17.1751,17.1751,-1.46297,0.733525,16.5255,0.0326775,0.255174,-0.13854,1,0,1,4.585,0.35,-1.7675,0.005368,0.292556,-1.14973,-0.23478,0.08708,0.41832
1.92287,0,0,13.0771,13.0771,16.9229,16.9229,-1.28265,1.32091,16.1135,0.443375,-0.142863,0.0954455,0,0,1,3.4825,-0.0525,-0.665,0.428098,-0.108214,-0.91744,-0.23478,0.08708,0.41832
1.67703,0,0,13.323,13.323,16.677,16.677,-1.10693,1.89645,15.7055,0.433334,-0.139792,0.0952275,0,0,1,3.4825,-0.0525,-0.665,0.428098,-0.108214,-0.91744,-0.23478,0.08708,0.41832
1.6854,0,0,13.3146,13.3146,16.6854,16.6854,-1.11279,1.89531,15.7064,-0.332249,-0.148565,0.182274,1,0,1,0.2275,-0.5075,-0.35,-0.340746,-0.116876,-0.831064,-0.23478,0.08708,0.41832
1.69377,0,0,13.3062,13.3062,16.6938,16.6938,-1.11865,1.89417,15.7073,-0.332229,-0.148667,0.182272,1,0,1,0.2275,-0.5075,-0.35,-0.340746,-0.116876,-0.831064,-0.23478,0.08708,0.41832
1.36712,0,0,13.6329,13.6329,16.3671,16.3671,-0.885231,1.41945,16.0033,-0.351281,-0.242301,0.177788,0,0,1,2.1175,1.26,0.9625,-0.368196,-0.214476,-0.835822,-0.23478,0.08708,0.41832
1.22948,0,0,13.7705,13.7705,16.2295,16.2295,-0.786834,1.2625,16.1191,-0.134363,-0.106246,-0.0613805,0,0,1,6.8775,-0.2975,1.0675,-0.15311,-0.080276,-1.07323,-0.2317,0.08092,0.4179
1.0971,0,0,13.9029,13.9029,16.0971,16.0971,-0.692204,1.10898,16.2313,-0.131684,-0.104596,-0.0613038,0,0,1,5.67,-0.2625,-0.315,-0.15311,-0.080276,-1.07323,-0.2317,0.08092,0.4179
1.05789,0,0,13.9421,13.9421,16.0579,16.0579,-0.66412,1.66847,15.8707,0.425892,0.0113068,0.0976837,0,0,1,5.495,0.5775,-0.6125,0.41663,0.035014,-0.915244,-0.2317,0.08092,0.4179
1.02133,0,0,13.9787,13.9787,16.0213,16.0213,-0.637942,2.21697,15.5112,0.416324,0.0117671,0.0973644,0,0,1,5.495,0.5775,-0.6125,0.41663,0.035014,-0.915244,-0.2317,0.08092,0.4179
1.01758,0,0,13.9824,13.9824,16.0176,16.0176,-0.635191,2.21548,15.5085,-0.391165,0.442922,-0.202751,1,0,1,5.1275,-0.6825,-2.3975,-0.394304,0.465674,-1.21305,-0.2317,0.08092,0.4179
1.02492,0,0,13.9751,13.9751,16.0249,16.0249,-0.64037,2.21631,15.5051,0.203493,-0.0312638,-0.175335,1,0,1,0.7,0.6825,-2.87,0.202886,-0.00793,-1.18584,-0.2317,0.08092,0.4179
1.03267,0,0,13.9673,13.9673,16.0327,16.0327,-0.645837,2.21874,15.503,0.20345,-0.0313592,-0.175338,1,0,1,0.5075,1.61,-2.03,0.202886,-0.00793,-1.18584,-0.2317,0.08092,0.4179
1.03864,0,0,13.9614,13.9614,16.0386,16.0386,-0.650029,2.21849,15.5017,-0.372631,-0.172244,-0.107225,1,0,1,1.2075,0.035,-1.645,-0.375638,-0.148596,-1.11825,-0.2317,0.08092,0.4179
1.04278,0,0,13.9572,13.9572,16.0428,16.0428,-0.652914,2.21878,15.5003,-0.372636,-0.172295,-0.107226,1,0,1,1.9425,0.35,-1.6975,-0.375638,-0.148596,-1.11825,-0.22904,0.08568,0.41916
1.49762,0,0,13.5024,13.5024,16.4976,16.4976,-0.977699,1.46658,16.0677,-0.563124,0.260469,0.19938,0,0,1,2.0125,0.42,-0.9625,-0.58011,0.289384,-0.81435,-0.22904,0.08568,0.41916
1.9441,0,0,13.0559,13.0559,16.9441,16.9441,-1.29647,0.727514,16.6387,-0.550227,0.254903,0.199517,0,0,1,3.3075,-0.0875,-0.5425,-0.58011,0.289384,-0.81435,-0.22904,0.08568,0.41916
1.93713,0,0,13.0629,13.0629,16.9371,16.9371,-1.29136,0.726285,16.6397,-0.0570956,0.0247834,-0.161581,1,0,1,6.3875,-0.56,-0.315,-0.084912,0.059414,-1.17266,-0.22904,0.08568,0.41916
1.93404,0,0,13.066,13.066,16.934,16.934,-1.28901,0.725464,16.6415,-0.0570813,0.0248243,-0.16158,1,0,1,4.83,-0.3325,0.2275,-0.084912,0.059414,-1.17266,-0.22904,0.08568,0.41916
1.94145,0,0,13.0585,13.0585,16.9415,16.9415,-1.29417,0.725615,16.6427,-0.303092,-0.285468,-0.154574,1,0,1,0.63,0.245,-0.1575,-0.331962,-0.250466,-1.16571,-0.22904,0.08568,0.41916
1.94664,0,0,13.0534,13.0534,16.9466,16.9466,-1.29773,0.722141,16.6436,-0.303032,-0.28553,-0.154574,1,0,1,1.5225,-1.8725,-0.4375,-0.331962,-0.250466,-1.16571,-0.22904,0.08568,0.41916
1.94896,0,0,13.051,13.051,16.949,16.949,-1.29925,0.720593,16.6437,0.370147,0.110867,-0.0565847,1,0,1,2.6775,-0.735,-0.8225,0.34404,0.145546,-1.06848,-0.22904,0.08568,0.41916
1.94745,0,0,13.0526,13.0526,16.9474,16.9474,-1.29803,0.723333,16.6431,0.3701,0.110888,-0.0565848,1,0,1,4.2175,1.785,-1.1375,0.34404,0.145546,-1.06848,-0.22904,0.08568,0.41916
1.84562,0,0,13.1544,13.1544,16.8456,16.8456,-1.22516,0.602975,16.738,-0.107425,-0.0761602,-0.0773108,0,0,1,7.7175,1.3825,-1.19,-0.137616,-0.042578,-1.08909,-0.22988,0.08554,0.41454
1.75019,0,0,13.2498,13.2498,16.7502,16.7502,-1.15688,0.483548,16.8319,-0.105341,-0.074969,-0.0772663,0,0,1,5.7925,0.42,-1.3125,-0.137616,-0.042578,-1.08909,-0.22988,0.08554,0.41454
1.7669,0,0,13.2331,13.2331,16.7669,16.7669,-1.16869,0.397332,16.9172,-0.0682411,0.00713802,-0.0647181,0,0,1,3.4825,-0.525,-0.945,-0.10187,0.03965,-1.07665,-0.22988,0.08554,0.41454
1.7962,0,0,13.2038,13.2038,16.7962,16.7962,-1.18949,0.314386,17.0009,-0.0667934,0.00677489,-0.0647166,0,0,1,-1.7325,0.245,-1.575,-0.10187,0.03965,-1.07665,-0.22988,0.08554,0.41454
1.80996,0,0,13.19,13.19,16.81,16.81,-1.19919,0.314429,16.9999,-0.242827,-0.299444,-0.0444336,1,0,1,-1.9075,0.21,-1.4525,-0.278648,-0.266082,-1.05652,-0.22988,0.08554,0.41454
1.81616,0,0,13.1838,13.1838,16.8162,16.8162,-1.20349,0.313904,16.9989,-0.242818,-0.299519,-0.0444352,1,0,1,1.12,-0.1225,-1.435,-0.278648,-0.266082,-1.05652,-0.22988,0.08554,0.41454
1.81905,0,0,13.181,13.181,16.819,16.819,-1.20542,0.315673,16.9976,-0.120513,-0.203317,0.254206,1,0,1,2.45,1.225,-1.61,-0.155794,-0.169946,-0.760182,-0.22988,0.08554,0.41454
1.81104,0,0,13.189,13.189,16.811,16.811,-1.19957,0.316448,16.9974,-0.120526,-0.203215,0.254208,1,0,1,6.8075,0.63,-0.98,-0.155794,-0.169946,-0.760182,-0.22988,0.08554,0.41454
1.8022,0,0,13.1978,13.1978,16.8022,16.8022,-1.19313,0.315925,16.9979,-0.10849,0.0180691,0.226424,1,0,1,7.14,-0.14,-0.5775,-0.143716,0.050996,-0.787754,-0.23394,0.08484,0.41426
2.03055,0,0,12.9694,12.9694,17.0306,17.0306,-1.3561,0.574291,16.8771,0.195575,0.158603,0.127721,0,0,1,3.6225,-0.8925,-0.945,0.166164,0.194224,-0.885598,-0.23394,0.08484,0.41426
2.26049,0,0,12.7395,12.7395,17.2605,17.2605,-1.52017,0.82801,16.7551,0.191147,0.155742,0.127595,0,0,1,1.68,-0.63,-1.2775,0.166164,0.194224,-0.885598,-0.23394,0.08484,0.41426
2.32565,0,0,12.6743,12.6743,17.3257,17.3257,-1.56655,0.836001,16.7771,0.010115,0.0414773,0.0142126,0,0,1,1.61,-0.2275,-1.89,-0.015494,0.080886,-0.998082,-0.23394,0.08484,0.41426
2.38599,0,0,12.614,12.614,17.386,17.386,-1.60948,0.845536,16.7999,0.00994863,0.0407285,0.0141894,0,0,1,3.08,0.7175,-1.3475,-0.015494,0.080886,-0.998082,-0.23394,0.08484,0.41426
2.38465,0,0,12.6153,12.6153,17.3847,17.3847,-1.60835,0.846573,16.7994,-0.0413364,-0.058663,-0.133471,1,0,1,4.165,0.7875,-1.1025,-0.066978,-0.018422,-1.1446,-0.23394,0.08484,0.41426
2.38403,0,0,12.616,12.616,17.384,17.384,-1.60773,0.848421,16.8002,-0.0413687,-0.0586522,-0.133472,1,0,1,3.8675,1.2425,-0.385,-0.066978,-0.018422,-1.1446,-0.23394,0.08484,0.41426
2.38299,0,0,12.617,12.617,17.383,17.383,-1.60682,0.849525,16.8021,-0.222645,0.0400421,-0.12007,1,0,1,4.025,0.7875,0.28,-0.249002,0.080154,-1.13131,-0.23394,0.08484,0.41426
2.38592,0,0,12.6141,12.6141,17.3859,17.3859,-1.60873,0.8499,16.8047,-0.222651,0.0400087,-0.120071,1,0,1,2.4325,0.35,0.665,-0.249002,0.080154,-1.13131,-0.22666,0.08414,0.41888
2.3902,0,0,12.6098,12.6098,17.3902,17.3902,-1.61162,0.848747,16.8071,0.0555712,-0.333872,-0.112941,1,0,1,1.89,-0.5425,0.525,0.030378,-0.293288,-1.12423,-0.22666,0.08414,0.41888
2.39608,0,0,12.6039,12.6039,17.3961,17.3961,-1.61565,0.846717,16.8081,0.0556066,-0.333942,-0.112943,1,0,1,1.26,-1.0325,-0.2975,0.030378,-0.293288,-1.12423,-0.22666,0.08414,0.41888
2.52331,0,0,12.4767,12.4767,17.5233,17.5233,-1.70634,1.25598,16.5649,0.338573,0.115006,0.0355252,0,0,1,1.6275,0.98,-0.385,0.321714,0.15677,-0.976732,-0.22666,0.08414,0.41888
2.63986,0,0,12.3601,12.3601,17.6399,17.6399,-1.78941,1.65722,16.3217,0.331572,0.113562,0.035303,0,0,1,5.5125,0.945,-0.1575,0.321714,0.15677,-0.976732,-0.22666,0.08414,0.41888
2.63444,0,0,12.3656,12.3656,17.6344,17.6344,-1.78534,1.6565,16.3216,-0.607864,-0.0746861,-0.215263,1,0,1,5.81,-0.245,-0.8925,-0.621712,-0.031354,-1.22537,-0.22666,0.08414,0.41888
2.63329,0,0,12.3667,12.3667,17.6333,17.6333,-1.78433,1.65503,16.3193,-0.607839,-0.0746686,-0.215262,1,0,1,4.13,-0.6475,-2.2225,-0.621712,-0.031354,-1.22537,-0.22666,0.08414,0.41888
2.63296,0,0,12.367,12.367,17.633,17.633,-1.7839,1.65372,16.3166,-0.667101,0.263508,-0.166942,1,0,1,3.815,-0.5425,-2.485,-0.681248,0.306464,-1.17742,-0.22666,0.08414,0.41888
2.63061,0,0,12.3694,12.3694,17.6306,17.6306,-1.78203,1.65214,16.3127,-0.667073,0.26354,-0.166941,1,0,1,4.6375,-0.6825,-3.1675,-0.681248,0.306464,-1.17742,-0.23072,0.08008,0.42238
2.62997,0,0,12.37,12.37,17.63,17.63,-1.78138,1.65188,16.3089,-0.22401,-0.200286,-0.128088,1,0,1,3.955,0.0875,-3.0625,-0.236314,-0.156892,-1.13887,-0.23072,0.08008,0.42238
2.63826,0,0,12.3617,12.3617,17.6383,17.6383,-1.78711,1.65303,16.3047,-0.22403,-0.200386,-0.128092,1,0,1,0.385,0.9275,-3.3075,-0.236314,-0.156892,-1.13887,-0.23072,0.08008,0.42238
2.64958,0,0,12.3504,12.3504,17.6496,17.6496,-1.79501,1.65562,16.3021,0.0355394,-0.178418,-0.159941,1,0,1,-0.8575,1.7325,-2.31,0.0244,-0.13481,-1.17047,-0.23072,0.08008,0.42238
2.65769,0,0,12.3423,12.3423,17.6577,17.6577,-1.8006,1.65542,16.3015,0.0355428,-0.178516,-0.159944,1,0,1,0.4025,0.07,-1.2425,0.0244,-0.13481,-1.17047,-0.23072,0.08008,0.42238
2.41635,0,0,12.5836,12.5836,17.4164,17.4164,-1.62805,2.04386,16.0249,0.263356,-0.144236,0.125167,0,0,1,0.105,1.015,-0.84,0.259982,-0.103578,-0.887428,-0.23072,0.08008,0.42238
2.171,0,0,12.829,12.829,17.171,17.171,-1.45264,2.42504,15.754,0.256708,-0.141171,0.12499,0,0,1,3.7975,1.6625,0.77,0.259982,-0.103578,-0.887428,-0.23072,0.08008,0.42238
2.16637,0,0,12.8336,12.8336,17.1664,17.1664,-1.44918,2.42707,15.7572,-0.0617416,-0.0278993,-0.146234,1,0,1,5.39,1.3125,1.0675,-0.05978,0.009516,-1.15656,-0.23072,0.08008,0.42238
2.15701,0,0,12.843,12.843,17.157,17.157,-1.44233,2.42553,15.7623,-0.0617147,-0.02778,-0.14623,1,0,1,7.245,-0.805,2.1,-0.05978,0.009516,-1.15656,-0.2324,0.08064,0.42448
2.15157,0,0,12.8484,12.8484,17.1516,17.1516,-1.4383,2.42253,15.7675,-0.177803,0.000379463,-0.25356,1,0,1,5.67,-1.6625,2.1,-0.176412,0.037576,-1.26307,-0.2324,0.08064,0.42448
2.15799,0,0,12.842,12.842,17.158,17.158,-1.44273,2.4207,15.7695,-0.177771,0.000302185,-0.25356,1,0,1,0.9975,-0.9275,0.2625,-0.176412,0.037576,-1.26307,-0.2324,0.08064,0.42448
2.69827,0,0,12.3017,12.3017,17.6983,17.6983,-1.82845,2.17229,16.0063,-0.167972,0.357023,0.0877262,0,0,1,1.4,-1.0675,-0.21,-0.170922,0.400648,-0.924394,-0.2324,0.08064,0.42448
3.22552,0,0,11.7745,11.7745,18.2255,18.2255,-2.20482,1.93297,16.2433,-0.163797,0.350457,0.0876447,0,0,1,3.185,1.2425,-1.3825,-0.170922,0.400648,-0.924394,-0.2324,0.08064,0.42448
3.01686,0,0,11.9831,11.9831,18.0169,18.0169,-2.05555,2.20863,16.0441,0.220634,-0.136908,-0.041897,0,0,1,4.2525,1.3125,-1.89,0.219966,-0.088816,-1.05286,-0.2324,0.08064,0.42448
2.80793,0,0,12.1921,12.1921,17.8079,17.8079,-1.90611,2.47623,15.845,0.215968,-0.134297,-0.0419977,0,0,1,6.16,0.2275,-3.01,0.219966,-0.088816,-1.05286,-0.2324,0.08064,0.42448
2.69121,0,0,12.3088,12.3088,17.6912,17.6912,-1.82255,2.48695,15.8314,0.00476043,-0.081791,-0.0521631,0,0,1,4.9875,0.3325,-3.1675,0.008052,-0.03782,-1.06299,-0.2324,0.08064,0.42448
2.58184,0,0,12.4182,12.4182,17.5818,17.5818,-1.74424,2.49532,15.8072,0.00461438,-0.0804261,-0.052127,0,0,1,2.975,-0.35,-2.31,0.008052,-0.03782,-1.06299,-0.23282,0.08904,0.41846
2.58857,0,0,12.4114,12.4114,17.5886,17.5886,-1.74886,2.49382,15.8047,0.0718222,0.223833,-0.0925783,1,0,1,0.9975,-0.665,-2.3275,0.075518,0.266204,-1.10312,-0.23282,0.08904,0.41846
2.60429,0,0,12.3957,12.3957,17.6043,17.6043,-1.7599,2.49086,15.8027,0.0718738,0.223641,-0.092582,1,0,1,-2.6075,-1.5225,-2.1175,0.075518,0.266204,-1.10312,-0.23282,0.08904,0.41846
2.61508,0,0,12.3849,12.3849,17.6151,17.6151,-1.76742,2.48842,15.801,-0.350368,0.0950323,0.266671,1,0,1,-0.6475,-1.225,-1.89,-0.348554,0.13786,-0.74664,-0.23282,0.08904,0.41846
2.6195,0,0,12.3805,12.3805,17.6195,17.6195,-1.77039,2.49097,15.8014,-0.350412,0.0949806,0.266668,1,0,1,1.855,1.6625,-0.595,-0.348554,0.13786,-0.74664,-0.23282,0.08904,0.41846
2.61705,0,0,12.3829,12.3829,17.6171,17.6171,-1.76845,2.49275,15.8034,-0.160197,-0.135927,-0.214799,1,0,1,4.5675,1.1725,0.3675,-0.157502,-0.092842,-1.22439,-0.23282,0.08904,0.41846
2.60642,0,0,12.3936,12.3936,17.6064,17.6064,-1.76066,2.49316,15.8062,-0.160204,-0.135792,-0.214795,1,0,1,7.8225,0.3675,0.7875,-0.157502,-0.092842,-1.22439,-0.23282,0.08904,0.41846
2.64021,0,0,12.3598,12.3598,17.6402,17.6402,-1.78461,2.05238,16.1157,-0.344221,-0.00224538,0.0451643,0,0,1,6.3525,-0.28,1.12,-0.350018,0.040992,-0.966728,-0.23282,0.08904,0.41846
2.67778,0,0,12.3222,12.3222,17.6778,17.6778,-1.81125,1.61992,16.4226,-0.336677,-0.00271737,0.0453914,0,0,1,4.5675,-0.9625,0.84,-0.350018,0.040992,-0.966728,-0.23282,0.08904,0.41846
2.67941,0,0,12.3206,12.3206,17.6794,17.6794,-1.81222,1.61842,16.4243,-0.041927,0.0588176,-0.23616,1,0,1,2.9575,-0.735,0.0875,-0.054046,0.10248,-1.24611,-0.231,0.08442,0.41314
2.68464,0,0,12.3154,12.3154,17.6846,17.6846,-1.81576,1.62019,16.4243,-0.0419579,0.0587557,-0.236163,1,0,1,1.54,1.2075,-0.8225,-0.054046,0.10248,-1.24611,-0.231,0.08442,0.41314
2.43139,0,0,12.5686,12.5686,17.4314,17.4314,-1.63469,1.54654,16.4603,-0.0782121,-0.197119,-0.0623064,0,0,1,2.8875,1.82,-1.2775,-0.091744,-0.156282,-1.07372,-0.231,0.08442,0.41314
2.18235,0,0,12.8176,12.8176,17.1824,17.1824,-1.45665,1.47418,16.4957,-0.0769495,-0.194014,-0.0621893,0,0,1,2.8875,1.82,-1.2775,-0.091744,-0.156282,-1.07372,-0.231,0.08442,0.41314
1.79168,0,0,13.2083,13.2083,16.7917,16.7917,-1.17747,1.12402,16.7009,-0.323287,-0.327883,-0.00255472,0,0,1,3.325,0.77,-1.295,-0.34526,-0.294874,-1.0148,-0.231,0.08442,0.41314
1.79238,0,0,13.2076,13.2076,16.7924,16.7924,-1.17785,1.12524,16.7004,0.206734,0.085387,0.28871,1,0,1,3.325,0.8925,-1.155,0.187026,0.117974,-0.725778,-0.231,0.08442,0.41314
1.795,0,0,13.205,13.205,16.795,16.795,-1.1796,1.12496,16.6997,0.206739,0.0853565,0.288709,1,0,1,2.555,0.0175,-1.225,0.187026,0.117974,-0.725778,-0.231,0.08442,0.41314
1.86866,0,0,13.1313,13.1313,16.8687,16.8687,-1.23207,1.03744,16.7823,-0.0627686,0.0453598,-0.0160706,0,0,1,2.7125,-1.2075,-1.8725,-0.085156,0.078934,-1.02822,-0.231,0.08442,0.41314
1.94535,0,0,13.0547,13.0547,16.9453,16.9453,-1.28672,0.955331,16.8613,-0.0613357,0.0444059,-0.0160666,0,0,1,0.91,0.735,-2.0475,-0.085156,0.078934,-1.02822,-0.23394,0.08582,0.41916
1.57632,0,0,13.4237,13.4237,16.5763,16.5763,-1.02301,1.68078,16.3375,0.500026,-0.205378,0.250779,0,0,1,2.695,1.3125,-1.33,0.491294,-0.175192,-0.763232,-0.23394,0.08582,0.41916
1.21026,0,0,13.7897,13.7897,16.2103,16.2103,-0.76146,2.3887,15.8208,0.487678,-0.20081,0.250411,0,0,1,4.9175,-1.225,-0.84,0.491294,-0.175192,-0.763232,-0.23394,0.08582,0.41916
1.05185,0,0,13.9481,13.9481,16.0519,16.0519,-0.648245,2.47661,15.7417,0.0534135,-0.0974696,0.0815623,0,0,1,4.655,-0.665,-1.12,0.05673,-0.073932,-0.930738,-0.23394,0.08582,0.41916
0.894246,0,0,14.1058,14.1058,15.8942,15.8942,-0.53561,2.56624,15.6632,0.0518506,-0.0955051,0.0815138,0,0,1,5.53,1.61,-1.1375,0.05673,-0.073932,-0.930738,-0.23394,0.08582,0.41916
0.886192,0,0,14.1138,14.1138,15.8862,15.8862,-0.529801,2.56708,15.663,-0.0537351,-0.193227,-0.338109,1,0,1,6.79,0.665,-0.9625,-0.049288,-0.171654,-1.34712,-0.23394,0.08582,0.41916
0.882108,0,0,14.1179,14.1179,15.8821,15.8821,-0.526827,2.56514,15.663,-0.0537013,-0.193175,-0.338107,1,0,1,5.1975,-0.9625,-0.91,-0.049288,-0.171654,-1.34712,-0.23394,0.08582,0.41916
1.23254,0,0,13.7675,13.7675,16.2325,16.2325,-0.777054,2.14469,15.9796,-0.333197,0.234909,-0.0145007,0,0,1,2.0825,-0.7,-1.2075,-0.33733,0.260348,-1.02626,-0.23394,0.08582,0.41916
1.58559,0,0,13.4144,13.4144,16.5856,16.5856,-1.02912,1.73992,16.2987,-0.326136,0.230509,-0.0143306,0,0,1,-1.505,2.38,-0.6475,-0.33733,0.260348,-1.02626,-0.23114,0.08624,0.42
1.22622,0,0,13.7738,13.7738,16.2262,16.2262,-0.772348,2.18578,15.9614,0.299999,-0.218343,0.149978,0,0,1,0.525,1.05,-0.1575,0.299266,-0.192516,-0.863028,-0.23114,0.08624,0.42
0.872719,0,0,14.1273,14.1273,15.8727,15.8727,-0.519789,2.62045,15.6287,0.292419,-0.213936,0.14971,0,0,1,1.155,0.1225,-0.1925,0.299266,-0.192516,-0.863028,-0.23114,0.08624,0.42
0.874811,0,0,14.1252,14.1252,15.8748,15.8748,-0.521228,2.62119,15.6304,0.105318,-0.180376,0.268231,1,0,1,2.6775,0.595,0.1575,0.111386,-0.158966,-0.74542,-0.23114,0.08624,0.42
0.876903,0,0,14.1231,14.1231,15.8769,15.8769,-0.522666,2.62193,15.6321,0.105305,-0.180401,0.268231,1,0,1,2.6775,0.595,0.1575,0.111386,-0.158966,-0.74542,-0.23114,0.08624,0.42
0.866395,0,0,14.1336,14.1336,15.8664,15.8664,-0.515105,2.62231,15.6341,-0.466777,-0.248905,-0.209669,1,0,1,7.7175,0.385,0.28,-0.463112,-0.22753,-1.21963,-0.23114,0.08624,0.42
0.855886,0,0,14.1441,14.1441,15.8559,15.8559,-0.507544,2.62268,15.6361,-0.466784,-0.248773,-0.209668,1,0,1,7.7175,0.385,0.28,-0.463112,-0.22753,-1.21963,-0.23114,0.08624,0.42
0.860242,0,0,14.1398,14.1398,15.8602,15.8602,-0.510601,2.62178,15.6345,-0.278951,0.0994792,-0.151268,1,0,1,1.855,-0.35,-1.785,-0.2745,0.120414,-1.16168,-0.23114,0.08624,0.42
0.864599,0,0,14.1354,14.1354,15.8646,15.8646,-0.513658,2.62087,15.6329,-0.278936,0.0994259,-0.151267,1,0,1,1.855,-0.35,-1.785,-0.2745,0.120414,-1.16168,-0.22848,0.0798,0.4172
1.22759,0,0,13.7724,13.7724,16.2276,16.2276,-0.772853,2.53607,15.7284,-0.0494283,0.242191,0.0490316,0,0,1,0.9275,0.28,-2.905,-0.045506,0.267546,-0.962946,-0.22848,0.0798,0.4172
1.58441,0,0,13.4156,13.4156,16.5844,16.5844,-1.02762,2.4533,15.8244,-0.0479851,0.237748,0.0490247,0,0,1,0.9275,0.28,-2.905,-0.045506,0.267546,-0.962946,-0.22848,0.0798,0.4172
1.34421,0,0,13.6558,13.6558,16.3442,16.3442,-0.855953,2.60111,15.7074,0.0870809,-0.142124,0.106746,0,0,1,7.315,1.8725,-2.2575,0.09272,-0.114924,-0.905606,-0.22848,0.0798,0.4172
1.10851,0,0,13.8915,13.8915,16.1085,16.1085,-0.687521,2.74537,15.5916,0.0845659,-0.139186,0.106668,0,0,1,7.315,1.8725,-2.2575,0.09272,-0.114924,-0.905606,-0.22848,0.0798,0.4172
1.10543,0,0,13.8946,13.8946,16.1054,16.1054,-0.685248,2.74419,15.5925,0.0821568,-0.19386,-0.0944742,1,0,1,4.7775,-0.525,-0.315,0.09028,-0.16958,-1.1052,-0.22848,0.0798,0.4172
1.11221,0,0,13.8878,13.8878,16.1122,16.1122,-0.690021,2.74307,15.5937,0.245453,0.151798,-0.10222,1,0,1,0.8225,-0.49,-0.21,0.254248,0.175802,-1.11288,-0.22848,0.0798,0.4172
1.1273,0,0,13.8727,13.8727,16.1273,16.1273,-0.70072,2.74228,15.5949,0.245467,0.151611,-0.102222,1,0,1,-2.5025,-0.2975,-0.1575,0.254248,0.175802,-1.11288,-0.22848,0.0798,0.4172
1.13807,0,0,13.8619,13.8619,16.1381,16.1381,-0.708341,2.74236,15.5958,-0.3961,0.134014,0.247565,1,0,1,-0.77,0.21,-0.2975,-0.390034,0.158356,-0.765794,-0.22652,0.08092,0.42084
1.30344,0,0,13.6966,13.6966,16.3034,16.3034,-0.826374,2.90414,15.5073,0.131729,0.127196,0.0287961,0,0,1,3.5175,0.9275,0.56,0.142862,0.153598,-0.98271,-0.22652,0.08092,0.42084
1.45993,0,0,13.5401,13.5401,16.4599,16.4599,-0.938049,3.06028,15.4196,0.129007,0.125252,0.0286244,0,0,1,6.0725,-0.4725,1.0325,0.142862,0.153598,-0.98271,-0.22652,0.08092,0.42084
1.17957,0,0,13.8204,13.8204,16.1796,16.1796,-0.737713,3.00317,15.4339,-0.0574498,-0.194649,0.0279904,0,0,1,7.105,-0.35,0.3675,-0.045384,-0.169458,-0.983442,-0.22652,0.08092,0.42084
0.90676,0,0,14.0932,14.0932,15.9068,15.9068,-0.54279,2.94888,15.4467,-0.0565035,-0.191252,0.0280776,0,0,1,5.985,0.77,-0.2625,-0.045384,-0.169458,-0.983442,-0.22652,0.08092,0.42084
0.903931,0,0,14.0961,14.0961,15.9039,15.9039,-0.540712,2.94909,15.4462,-0.166938,-0.0949804,-0.129542,1,0,1,4.7075,0.2975,-1.1375,-0.156282,-0.073322,-1.13985,-0.22652,0.08092,0.42084
0.908873,0,0,14.0911,14.0911,15.9089,15.9089,-0.544183,2.94871,15.4435,-0.166931,-0.0950409,-0.129542,1,0,1,1.6625,-0.035,-2.485,-0.156282,-0.073322,-1.13985,-0.22652,0.08092,0.42084
0.915392,0,0,14.0846,14.0846,15.9154,15.9154,-0.548781,2.94964,15.4406,-0.255389,-0.0284398,-0.192371,1,0,1,1.0325,0.735,-2.5025,-0.245098,-0.00671,-1.20219,-0.22652,0.08092,0.42084
0.914656,0,0,14.0853,14.0853,15.9147,15.9147,-0.548196,2.94944,15.4378,-0.255385,-0.0284296,-0.19237,1,0,1,3.9375,0.07,-2.5025,-0.245098,-0.00671,-1.20219,-0.22834,0.08554,0.4144
0.816014,0,0,14.184,14.184,15.816,15.816,-0.477687,3.17071,15.2678,0.159155,-0.0555323,0.0559133,0,0,1,3.1325,0.105,-2.2575,0.17507,-0.035014,-0.955626,-0.22834,0.08554,0.4144
0.718226,0,0,14.2818,14.2818,15.7182,15.7182,-0.407794,3.38884,15.0998,0.155354,-0.0543128,0.0557049,0,0,1,3.6925,1.1375,-1.7675,0.17507,-0.035014,-0.955626,-0.22834,0.08554,0.4144
0.41833,0,0,14.5817,14.5817,15.4183,15.4183,-0.193562,4.19727,14.5126,0.554205,-0.157682,0.318884,0,0,1,3.29,1.1025,-1.435,0.589748,-0.142008,-0.69357,-0.22834,0.08554,0.4144
0.123047,0,0,14.877,14.877,15.123,15.123,0.0173524,4.98684,13.932,0.540469,-0.154011,0.317787,0,0,1,4.34,-1.9775,-0.665,0.589748,-0.142008,-0.69357,-0.22834,0.08554,0.4144
0.351195,0,0,14.6488,14.6488,15.3512,15.3512,-0.145595,4.65245,14.1448,-0.265118,0.155066,-0.0581943,0,0,1,3.7275,-2.0475,-0.56,-0.22509,0.16958,-1.06713,-0.22834,0.08554,0.4144
0.578717,0,0,14.4213,14.4213,15.5787,15.5787,-0.308077,4.33264,14.3583,-0.259554,0.152237,-0.0577682,0,0,1,2.3275,2.2575,-0.315,-0.22509,0.16958,-1.06713,-0.22834,0.08554,0.4144
0.580827,0,0,14.4192,14.4192,15.5808,15.5808,-0.309551,4.33683,14.3602,-0.275906,-0.00569853,-0.117773,1,0,1,2.625,2.625,0.21,-0.241438,0.011834,-1.12667,-0.22834,0.08554,0.4144
0.579673,0,0,14.4203,14.4203,15.5797,15.5797,-0.308694,4.33323,14.361,-0.275843,-0.00568363,-0.117768,1,0,1,3.9725,-1.9425,-0.3675,-0.241438,0.011834,-1.12667,-0.22932,0.0805,0.4242
0.980303,0,0,14.0197,14.0197,15.9803,15.9803,-0.594795,4.19511,14.4702,-0.0946122,0.3054,-0.0461949,0,0,1,4.0075,-2.5375,-0.665,-0.061854,0.32757,-1.05579,-0.22932,0.0805,0.4242
1.37343,0,0,13.6266,13.6266,16.3734,16.3734,-0.875504,4.06367,14.5802,-0.092324,0.300511,-0.0460924,0,0,1,4.3225,-0.35,-0.77,-0.061854,0.32757,-1.05579,-0.22932,0.0805,0.4242
1.36643,0,0,13.6336,13.6336,16.3664,16.3664,-0.870413,4.06358,14.58,-0.0755574,-0.336657,-0.271701,1,0,1,6.3875,0.1225,-0.9275,-0.045018,-0.309026,-1.27966,-0.22932,0.0805,0.4242
1.36132,0,0,13.6387,13.6387,16.3613,16.3613,-0.866669,4.06517,14.5781,-0.0755851,-0.336592,-0.271702,1,0,1,5.705,1.12,-1.9775,-0.045018,-0.309026,-1.27966,-0.22932,0.0805,0.4242
1.36659,0,0,13.6334,13.6334,16.3666,16.3666,-0.870341,4.58488,14.2081,0.354176,0.0258264,0.197522,0,0,1,2.345,1.68,-1.5225,0.395646,0.05307,-0.813374,-0.22932,0.0805,0.4242
1.37361,0,0,13.6264,13.6264,16.3736,16.3736,-0.875258,5.09458,13.8388,0.345312,0.0257523,0.19677,0,0,1,2.345,1.68,-1.5225,0.395646,0.05307,-0.813374,-0.22932,0.0805,0.4242
1.38425,0,0,13.6158,13.6158,16.3842,16.3842,-0.882766,5.09446,13.8385,-0.22008,0.146772,0.201317,1,0,1,-0.665,0.105,-1.05,-0.172142,0.174094,-0.80886,-0.22932,0.0805,0.4242
1.3949,0,0,13.6051,13.6051,16.3949,16.3949,-0.890275,5.09434,13.8382,-0.220078,0.146641,0.201315,1,0,1,-0.665,0.105,-1.05,-0.172142,0.174094,-0.80886,-0.23184,0.08652,0.42014
1.39131,0,0,13.6087,13.6087,16.3913,16.3913,-0.88762,5.09412,13.8391,-0.746715,0.285057,-0.19716,1,0,1,4.97,0.035,-0.315,-0.701012,0.31232,-1.20426,-0.23184,0.08652,0.42014
1.38773,0,0,13.6123,13.6123,16.3877,16.3877,-0.884965,5.0939,13.8401,-0.746711,0.285103,-0.197158,1,0,1,4.97,0.035,-0.315,-0.701012,0.31232,-1.20426,-0.23184,0.08652,0.42014
1.37478,0,0,13.6252,13.6252,16.3748,16.3748,-0.875626,5.09029,13.8421,-0.563812,-0.10554,-0.387844,1,0,1,8.6625,-1.96,0.2975,-0.517402,-0.07808,-1.39348,-0.23184,0.08652,0.42014
1.68348,0,0,13.3165,13.3165,16.6835,16.6835,-1.09601,5.42491,13.6021,0.290855,0.263004,0.0321623,0,0,1,5.11,-2.3275,0,0.346724,0.293898,-0.976122,-0.23184,0.08652,0.42014
2.01154,0,0,12.9885,12.9885,17.0115,17.0115,-1.33019,5.7585,13.3583,0.285061,0.258949,0.031509,0,0,1,-4.0075,0.8575,-1.2775,0.346724,0.293898,-0.976122,-0.23184,0.08652,0.42014
2.08276,0,0,12.9172,12.9172,17.0828,17.0828,-1.38092,5.35363,13.6094,-0.307681,0.0201487,0.0764336,0,0,1,1.435,1.0325,-1.435,-0.25559,0.056242,-0.932202,-0.23184,0.08652,0.42014
2.14905,0,0,12.8509,12.8509,17.1491,17.1491,-1.42811,4.95667,13.8591,-0.300781,0.0193133,0.0770358,0,0,1,2.87,0.595,-1.5575,-0.25559,0.056242,-0.932202,-0.23184,0.08652,0.42014
2.14591,0,0,12.8541,12.8541,17.1459,17.1459,-1.42571,4.95698,13.8582,-0.172983,-0.218426,-0.102468,1,0,1,4.9175,0.3675,-1.3825,-0.127246,-0.181292,-1.11032,-0.2254,0.0791,0.4207
2.14138,0,0,12.8586,12.8586,17.1414,17.1414,-1.42233,4.95655,13.8561,0.333498,0.228739,-0.110581,1,0,1,5.53,-0.0525,-2.1,0.381372,0.26535,-1.11837,-0.2254,0.0791,0.4207
2.14072,0,0,12.8593,12.8593,17.1407,17.1407,-1.42171,4.9565,13.8566,0.333499,0.22875,-0.110581,1,0,1,3.85,0.14,-0.5425,0.381372,0.26535,-1.11837,-0.2254,0.0791,0.4207
2.14069,0,0,12.8593,12.8593,17.1407,17.1407,-1.42153,4.95682,13.8571,-0.498805,-0.233375,-0.143408,1,0,1,3.605,0.35,-0.6125,-0.45445,-0.196298,-1.15095,-0.2254,0.0791,0.4207
2.14986,0,0,12.8501,12.8501,17.1499,17.1499,-1.42793,4.95762,13.8566,-0.498819,-0.233486,-0.143412,1,0,1,-0.035,0.6475,-1.1025,-0.45445,-0.196298,-1.15095,-0.2254,0.0791,0.4207
2.16508,0,0,12.8349,12.8349,17.1651,17.1651,-1.43865,4.95762,13.8567,-0.0936642,-0.0830898,0.150307,1,0,1,-2.485,0.175,-0.805,-0.04758,-0.045872,-0.85949,-0.2254,0.0791,0.4207
2.17405,0,0,12.8259,12.8259,17.1741,17.1741,-1.4449,4.96051,13.8572,-0.0937143,-0.0831985,0.1503,1,0,1,0,1.855,-0.56,-0.04758,-0.045872,-0.85949,-0.2254,0.0791,0.4207
1.69097,0,0,13.309,13.309,16.691,16.691,-1.09973,4.72601,13.976,-0.20772,-0.357241,0.0792228,0,0,1,4.235,1.715,0.14,-0.166164,-0.325618,-0.930494,-0.2254,0.0791,0.4207
1.2075,0,0,13.7925,13.7925,16.2075,16.2075,-0.754309,4.4897,14.0825,-0.203609,-0.351238,0.0796513,0,0,1,7.91,0.28,0.105,-0.166164,-0.325618,-0.930494,-0.22708,0.08582,0.42364
1.20011,0,0,13.7999,13.7999,16.2001,16.2001,-0.74895,4.48887,14.0831,0.211886,0.221263,-0.208661,1,0,1,6.51,-0.315,-0.56,0.251076,0.246196,-1.21658,-0.22708,0.08582,0.42364
1.19602,0,0,13.804,13.804,16.196,16.196,-0.745945,4.48503,14.0834,0.211953,0.221315,-0.208655,1,0,1,5.1975,-2.0825,-0.6825,0.251076,0.246196,-1.21658,-0.22708,0.08582,0.42364
1.19071,0,0,13.8093,13.8093,16.1907,16.1907,-0.742074,4.48063,14.0829,0.397903,-0.0823468,-0.296556,1,0,1,5.7225,-2.3975,-1.2075,0.437736,-0.057218,-1.30381,-0.22708,0.08582,0.42364
1.18993,0,0,13.8101,13.8101,16.1899,16.1899,-0.741436,4.47979,14.0797,0.397917,-0.0823357,-0.296555,1,0,1,4.025,-0.2975,-2.7125,0.437736,-0.057218,-1.30381,-0.22708,0.08582,0.42364
1.19737,0,0,13.8026,13.8026,16.1974,16.1974,-0.746672,4.48214,14.0765,0.0093652,-0.154604,-0.096276,1,0,1,0.735,1.575,-2.73,0.04758,-0.12932,-1.10508,-0.22708,0.08582,0.42364
1.19863,0,0,13.8014,13.8014,16.1986,16.1986,-0.747493,4.48454,14.0746,0.00932345,-0.154618,-0.0962794,1,0,1,3.15,1.5925,-1.925,0.04758,-0.12932,-1.10508,-0.22708,0.08582,0.42364
1.20034,0,0,13.7997,13.7997,16.2003,16.2003,-0.748633,4.48525,14.0738,0.0866975,-0.02384,0.175681,1,0,1,2.9225,0.595,-1.295,0.125294,0.001342,-0.835212,-0.22708,0.08582,0.42364
1.20275,0,0,13.7973,13.7973,16.2027,16.2027,-0.750272,4.48409,14.0739,0.0867177,-0.0238685,0.175683,1,0,1,2.6075,-0.5075,-0.84,0.125294,0.001342,-0.835212,-0.22932,0.07994,0.41118
1.36879,0,0,13.6312,13.6312,16.3688,16.3688,-0.868784,4.27517,14.2158,-0.153954,0.0988789,0.046836,0,0,1,1.89,-0.7,-0.5425,-0.120048,0.126026,-0.963312,-0.22932,0.07994,0.41118
1.53256,0,0,13.4674,13.4674,16.5326,16.5326,-0.985652,4.07073,14.359,-0.150396,0.0968407,0.0470627,0,0,1,1.54,-0.7875,0.175,-0.120048,0.126026,-0.963312,-0.22932,0.07994,0.41118
1.78016,0,0,13.2198,13.2198,16.7802,16.7802,-1.16239,3.50892,14.7596,-0.473361,0.157501,-0.00570668,0,0,1,4.1475,-1.26,-0.1575,-0.454206,0.18971,-1.01626,-0.22932,0.07994,0.41118
2.02863,0,0,12.9714,12.9714,17.0286,17.0286,-1.33972,2.9639,15.1596,-0.463864,0.1544,-0.00523724,0,0,1,2.3625,1.9425,-0.49,-0.454206,0.18971,-1.01626,-0.22932,0.07994,0.41118
2.05544,0,0,12.9446,12.9446,17.0554,17.0554,-1.35873,2.40416,15.5568,-0.4439,-0.0242468,0.0923416,0,0,1,1.5925,1.2775,0.525,-0.443958,0.01159,-0.91988,-0.22932,0.07994,0.41118
2.076,0,0,12.924,12.924,17.076,17.076,-1.37326,1.85292,15.9495,-0.434286,-0.0245087,0.0926928,0,0,1,4.0075,-0.4725,-0.385,-0.443958,0.01159,-0.91988,-0.22932,0.07994,0.41118
1.98592,0,0,13.0141,13.0141,16.9859,16.9859,-1.30878,2.09732,15.7905,0.180785,-0.0479283,0.0505238,0,0,1,3.8675,0.63,-0.8225,0.177998,-0.012932,-0.961604,-0.22932,0.07994,0.41118
1.89715,0,0,13.1028,13.1028,16.8972,16.8972,-1.24524,2.33757,15.6321,0.176595,-0.0468169,0.0503863,0,0,1,4.235,1.3125,-1.12,0.177998,-0.012932,-0.961604,-0.22932,0.07994,0.41118
1.49908,0,0,13.5009,13.5009,16.4991,16.4991,-0.960801,2.66743,15.3673,0.218708,-0.243729,0.134819,0,0,1,6.965,-0.35,-1.295,0.226066,-0.214598,-0.877668,-0.23058,0.08554,0.41454
1.11764,0,0,13.8824,13.8824,16.1176,16.1176,-0.688268,2.98715,15.1059,0.213135,-0.238974,0.134612,0,0,1,3.3075,-1.9775,-1.61,0.226066,-0.214598,-0.877668,-0.23058,0.08554,0.41454
1.12287,0,0,13.8771,13.8771,16.1229,16.1229,-0.691933,2.98474,15.1042,0.455298,0.0464939,-0.214437,1,0,1,1.5225,-1.225,-1.855,0.469212,0.070638,-1.22403,-0.23058,0.08554,0.41454
1.13466,0,0,13.8653,13.8653,16.1347,16.1347,-0.700278,2.98568,15.1026,0.455282,0.0463485,-0.21444,1,0,1,-1.1025,0.735,-1.8025,0.469212,0.070638,-1.22403,-0.23058,0.08554,0.41454
1.14232,0,0,13.8577,13.8577,16.1423,16.1423,-0.705676,2.9866,15.1018,-0.422833,0.115256,0.274647,1,0,1,0.525,0.7175,-1.3125,-0.412604,0.139568,-0.73871,-0.23058,0.08554,0.41454
1.14601,0,0,13.854,13.854,16.146,16.146,-0.708233,2.9887,15.1016,-0.422869,0.115211,0.274645,1,0,1,2.1,1.4,-0.945,-0.412604,0.139568,-0.73871,-0.23058,0.08554,0.41454
1.30799,0,0,13.692,13.692,16.308,16.308,-0.823847,2.5407,15.4199,-0.342047,0.084125,0.0728676,0,0,1,4.1825,1.3125,-0.91,-0.339282,0.110532,-0.939278,-0.23058,0.08554,0.41454
1.46226,0,0,13.5377,13.5377,16.4623,16.4623,-0.93394,2.10035,15.7389,-0.334367,0.0822005,0.0731493,0,0,1,6.16,0.21,-0.0525,-0.339282,0.110532,-0.939278,-0.23058,0.08554,0.41454
1.45424,0,0,13.5458,13.5458,16.4542,16.4542,-0.928115,2.09782,15.7408,-0.277468,0.0387029,-0.171269,1,0,1,6.755,-1.33,0.245,-0.282186,0.066978,-1.18181,-0.23352,0.08232,0.41188
1.45893,0,0,13.5411,13.5411,16.4589,16.4589,-0.931361,2.09566,15.7422,0.250304,-0.395392,-0.0609837,1,0,1,1.68,-1.1025,-0.07,0.247782,-0.36661,-1.07238,-0.23352,0.08232,0.41188
1.46742,0,0,13.5326,13.5326,16.4674,16.4674,-0.937326,2.0944,15.7418,0.250325,-0.395496,-0.0609846,1,0,1,0.1925,-0.56,-1.1025,0.247782,-0.36661,-1.07238,-0.23352,0.08232,0.41188
1.4777,0,0,13.5223,13.5223,16.4777,16.4777,-0.944565,2.09511,15.7407,-0.100537,0.0290122,-0.269016,1,0,1,-0.5075,0.595,-1.505,-0.104554,0.057584,-1.2788,-0.23352,0.08232,0.41188
1.47089,0,0,13.5291,13.5291,16.4709,16.4709,-0.939605,2.09745,15.7395,-0.100578,0.0290987,-0.269016,1,0,1,6.335,1.5575,-1.5575,-0.104554,0.057584,-1.2788,-0.23352,0.08232,0.41188
1.3181,0,0,13.6819,13.6819,16.3181,16.3181,-0.83038,1.75572,15.9647,-0.282313,-0.130939,0.0296098,0,0,1,6.2475,1.785,-1.6975,-0.293044,-0.104188,-0.98271,-0.23352,0.08232,0.41188
1.16636,0,0,13.8336,13.8336,16.1664,16.1664,-0.721916,1.42101,16.1872,-0.276473,-0.129049,0.0297974,0,0,1,6.685,1.645,-1.68,-0.293044,-0.104188,-0.98271,-0.23352,0.08232,0.41188
1.15862,0,0,13.8414,13.8414,16.1586,16.1586,-0.716312,1.42274,16.1861,-0.0568572,-0.0537216,-0.311138,1,0,1,6.685,1.19,-1.4525,-0.072468,-0.029036,-1.32102,-0.23352,0.08232,0.41188
1.16686,0,0,13.8331,13.8331,16.1669,16.1669,-0.722114,1.42094,16.1858,-0.0568259,-0.0538229,-0.311139,1,0,1,0.28,-0.875,-1.0675,-0.072468,-0.029036,-1.32102,-0.23086,0.08484,0.4193
1.17607,0,0,13.8239,13.8239,16.1761,16.1761,-0.728618,1.41828,16.1849,0.0849944,0.170044,0.322537,1,0,1,-0.105,-1.3825,-1.4175,0.069906,0.194712,-0.692228,-0.23086,0.08484,0.4193
1.19151,0,0,13.8085,13.8085,16.1915,16.1915,-0.739567,1.41719,16.1835,0.0850134,0.169853,0.322535,1,0,1,-2.59,-0.455,-1.6975,0.069906,0.194712,-0.692228,-0.23086,0.08484,0.4193
1.20268,0,0,13.7973,13.7973,16.2027,16.2027,-0.747467,1.41996,16.1829,0.573702,-0.225731,-0.0168054,1,0,1,-0.8925,1.8025,-1.19,0.560712,-0.200324,-1.02895,-0.23086,0.08484,0.4193
1.199,0,0,13.801,13.801,16.199,16.199,-0.744758,1.4219,16.1846,0.573668,-0.225684,-0.0168056,1,0,1,5.0225,1.295,0.1925,0.560712,-0.200324,-1.02895,-0.23086,0.08484,0.4193
0.847715,0,0,14.1523,14.1523,15.8477,15.8477,-0.493786,1.01765,16.4316,-0.337224,-0.274309,0.104865,0,0,1,6.2475,0.385,0.035,-0.36112,-0.253272,-0.908412,-0.23086,0.08484,0.4193
0.503167,0,0,14.4968,14.4968,15.5032,15.5032,-0.247654,0.619411,16.6736,-0.330274,-0.270015,0.104992,0,0,1,5.5475,-0.805,-0.0525,-0.36112,-0.253272,-0.908412,-0.23086,0.08484,0.4193
0.427237,0,0,14.5728,14.5728,15.4272,15.4272,-0.193398,0.781459,16.576,0.136319,-0.040813,-0.0690109,0,0,1,6.02,-1.54,-0.035,0.110288,-0.025254,-1.08104,-0.23086,0.08484,0.4193
0.357043,0,0,14.643,14.643,15.357,15.357,-0.143244,0.939509,16.4736,0.13356,-0.0399376,-0.0690498,0,0,1,4.27,-2.3275,-0.8575,0.110288,-0.025254,-1.08104,-0.23198,0.08778,0.4053
0.674899,0,0,14.3251,14.3251,15.6749,15.6749,-0.370244,1.20173,16.3445,0.219006,0.237604,0.0893276,0,0,1,1.8025,-2.24,-1.47,0.20069,0.255956,-0.923784,-0.23198,0.08778,0.4053
0.990155,0,0,14.0098,14.0098,15.9902,15.9902,-0.595364,1.46508,16.2135,0.21441,0.233677,0.0891875,0,0,1,1.0675,1.295,-2.0125,0.20069,0.255956,-0.923784,-0.23198,0.08778,0.4053
0.900835,0,0,14.0992,14.0992,15.9008,15.9008,-0.531506,1.71652,16.0425,0.207473,-0.0524501,-0.0595681,0,0,1,2.5375,2.1175,-1.575,0.198128,-0.030988,-1.07128,-0.23198,0.08778,0.4053
0.808948,0,0,14.1911,14.1911,15.8089,15.8089,-0.465823,1.96098,15.8742,0.203208,-0.0513031,-0.059695,0,0,1,4.445,1.2425,-0.7175,0.198128,-0.030988,-1.07128,-0.23198,0.08778,0.4053
0.777668,0,0,14.2223,14.2223,15.7777,15.7777,-0.443432,1.94179,15.8873,-0.0175611,-0.0229456,-0.0341072,0,0,1,4.4275,1.33,-0.3675,-0.023912,-0.00305,-1.04591,-0.23198,0.08778,0.4053
0.748214,0,0,14.2518,14.2518,15.7482,15.7482,-0.422348,1.92361,15.9009,-0.0172441,-0.0225779,-0.0340937,0,0,1,3.885,1.6975,-0.0525,-0.023912,-0.00305,-1.04591,-0.23198,0.08778,0.4053
0.745327,0,0,14.2547,14.2547,15.7453,15.7453,-0.420242,1.92441,15.9029,0.0652308,-0.598002,-0.0762653,1,0,1,4.6725,0.63,0.2975,0.058926,-0.577914,-1.08775,-0.23198,0.08778,0.4053
0.746188,0,0,14.2538,14.2538,15.7462,15.7462,-0.420811,1.92131,15.9032,0.0652849,-0.598012,-0.0762635,1,0,1,3.2025,-1.645,-0.665,0.058926,-0.577914,-1.08775,-0.23408,0.08876,0.41006
0.753423,0,0,14.2466,14.2466,15.7534,15.7534,-0.425933,1.92044,15.9028,0.208896,0.137712,-0.0904028,1,0,1,0.665,-0.3325,-1.12,0.20313,0.157136,-1.10178,-0.23408,0.08876,0.41006
0.757961,0,0,14.242,14.242,15.758,15.758,-0.429129,1.92068,15.9031,0.208892,0.137656,-0.0904033,1,0,1,1.7325,0.315,-0.7175,0.20313,0.157136,-1.10178,-0.23408,0.08876,0.41006
0.759178,0,0,14.2408,14.2408,15.7592,15.7592,-0.429952,1.91878,15.9033,-0.577087,0.126162,-0.302611,1,0,1,3.0625,-0.945,-0.735,-0.58621,0.145668,-1.31235,-0.23408,0.08876,0.41006
0.757162,0,0,14.2428,14.2428,15.7572,15.7572,-0.428466,1.91863,15.9026,-0.577085,0.126188,-0.302611,1,0,1,4.375,0.0875,-1.2775,-0.58621,0.145668,-1.31235,-0.23408,0.08876,0.41006
1.16525,0,0,13.8347,13.8347,16.1653,16.1653,-0.719883,1.77356,16.0468,-0.0907981,0.26387,0.122452,0,0,1,5.46,1.2425,-1.33,-0.100406,0.288286,-0.8906,-0.23408,0.08876,0.41006
1.56447,0,0,13.4355,13.4355,16.5645,16.5645,-1.00493,1.63017,16.1916,-0.0882966,0.258897,0.122452,0,0,1,6.335,0.3325,-1.505,-0.100406,0.288286,-0.8906,-0.23408,0.08876,0.41006
1.55682,0,0,13.4432,13.4432,16.5568,16.5568,-0.99936,1.62854,16.1906,0.0119575,-0.39011,-0.199179,1,0,1,6.6675,-0.77,-1.4875,0.000244,-0.360144,-1.20975,-0.23408,0.08876,0.41006
1.56491,0,0,13.4351,13.4351,16.5649,16.5649,-1.00503,1.62727,16.1893,0.0119797,-0.390209,-0.19918,1,0,1,0.3675,-0.56,-1.5925,0.000244,-0.360144,-1.20975,-0.23408,0.08876,0.41006
1.40466,0,0,13.5953,13.5953,16.4047,16.4047,-0.890467,1.93581,15.9636,0.244466,-0.111591,-0.00579334,0,0,1,-2.8175,1.12,-1.54,0.23912,-0.083814,-1.01772,-0.23338,0.0896,0.4123
1.66891,0,0,13.3311,13.3311,16.6689,16.6689,-1.0791,1.39663,16.3584,-0.427055,0.150495,0.067701,0,0,1,1.19,-0.2975,-0.7875,-0.44469,0.181292,-0.945012,-0.23338,0.0896,0.4123
1.92649,0,0,13.0735,13.0735,16.9265,16.9265,-1.26295,0.871429,16.7542,-0.41789,0.147284,0.0678168,0,0,1,2.2925,1.4,-0.1575,-0.44469,0.181292,-0.945012,-0.23338,0.0896,0.4123
1.45187,0,0,13.5481,13.5481,16.4519,16.4519,-0.92384,0.466436,16.9813,-0.358826,-0.378906,0.118298,0,0,1,4.6725,1.5925,0.245,-0.392474,-0.350262,-0.895114,-0.23338,0.0896,0.4123
0.975277,0,0,14.0247,14.0247,15.9753,15.9753,-0.583355,0.0699709,17.2029,-0.351907,-0.372965,0.118409,0,0,1,8.0325,2.1525,0.4025,-0.392474,-0.350262,-0.895114,-0.23338,0.0896,0.4123
0.962188,0,0,14.0378,14.0378,15.9622,15.9622,-0.573945,0.0718871,17.2059,0.145422,-0.180695,-0.0951512,1,0,1,8.8025,1.2775,0.91,0.106994,-0.158356,-1.10703,-0.23338,0.0896,0.4123
0.960682,0,0,14.0393,14.0393,15.9607,15.9607,-0.572808,0.0715465,17.2073,0.145428,-0.180675,-0.095151,1,0,1,4.165,-0.035,-0.035,0.106994,-0.158356,-1.10703,-0.23338,0.0896,0.4123
1.00776,0,0,13.9922,13.9922,16.0078,16.0078,-0.606373,0.478009,16.9589,0.313031,0.0546881,0.0939037,0,0,1,0.42,-0.1925,-1.1025,0.28243,0.077348,-0.919392,-0.2317,0.0889,0.41776
1.01467,0,0,13.9853,13.9853,16.0147,16.0147,-0.611243,0.474502,16.9573,-0.339286,0.0607094,-0.0538807,1,0,1,0.805,-1.8725,-1.7675,-0.37271,0.083448,-1.06604,-0.2317,0.0889,0.41776
1.01304,0,0,13.987,13.987,16.013,16.013,-0.610007,0.47322,16.9545,-0.339264,0.060731,-0.0538803,1,0,1,4.235,-0.56,-2.5375,-0.37271,0.083448,-1.06604,-0.2317,0.0889,0.41776
0.733414,0,0,14.2666,14.2666,15.7334,15.7334,-0.410234,0.214845,17.1036,-0.224081,-0.220338,0.038881,0,0,1,5.18,0.0875,-2.6425,-0.261568,-0.200812,-0.974048,-0.2317,0.0889,0.41776
0.454884,0,0,14.5451,14.5451,15.4549,15.4549,-0.211261,-0.0366858,17.2507,-0.219691,-0.216865,0.0389066,0,0,1,6.37,1.0325,-2.3275,-0.261568,-0.200812,-0.974048,-0.2317,0.0889,0.41776
0.410719,0,0,14.5893,14.5893,15.4107,15.4107,-0.179695,0.152697,17.1393,0.144377,-0.0152939,0.0208317,0,0,1,4.76,0.9275,-1.4875,0.10736,0,-0.991982,-0.2317,0.0889,0.41776
0.375869,0,0,14.6241,14.6241,15.3759,15.3759,-0.154786,0.336412,17.0305,0.14117,-0.0148591,0.0208193,0,0,1,1.54,0.0175,-0.315,0.10736,0,-0.991982,-0.2317,0.0889,0.41776
0.898559,0,0,14.1014,14.1014,15.8986,15.8986,-0.528079,0.602343,16.9344,0.249025,0.398742,0.0970935,0,0,1,-0.4025,-0.525,-0.49,0.220332,0.41968,-0.91622,-0.2317,0.0889,0.41776
1.41981,0,0,13.5802,13.5802,16.4198,16.4198,-0.900308,0.864728,16.8358,0.244446,0.392247,0.0969539,0,0,1,-2.8525,-0.245,-0.4725,0.220332,0.41968,-0.91622,-0.23086,0.08946,0.41384
1.265,0,0,13.735,13.735,16.265,16.265,-0.789641,1.02137,16.7242,0.107106,-0.10019,0.0601758,0,0,1,1.5575,1.1375,0.07,0.085156,-0.074176,-0.952698,-0.23086,0.08946,0.41384
1.10423,0,0,13.8958,13.8958,16.1042,16.1042,-0.674731,1.17302,16.6159,0.10446,-0.0981842,0.0601507,0,0,1,5.145,0.2975,1.4,0.085156,-0.074176,-0.952698,-0.23086,0.08946,0.41384
1.09612,0,0,13.9039,13.9039,16.0961,16.0961,-0.668867,1.17316,16.6197,-0.307744,-0.0218748,-0.16386,1,0,1,6.7725,0.2275,1.3475,-0.32879,0.001952,-1.17498,-0.23086,0.08946,0.41384
1.08686,0,0,13.9131,13.9131,16.0869,16.0869,-0.662182,1.1729,16.6224,-0.307739,-0.0217582,-0.163859,1,0,1,7.245,0,0.7525,-0.32879,0.001952,-1.17498,-0.23086,0.08946,0.41384
1.07944,0,0,13.9206,13.9206,16.0794,16.0794,-0.656816,1.17257,16.6248,0.371736,0.283408,-0.0107868,1,0,1,6.51,-0.035,0.5075,0.353556,0.306708,-1.02309,-0.23086,0.08946,0.41384
1.07599,0,0,13.924,13.924,16.076,16.076,-0.654282,1.17096,16.6245,0.371764,0.283452,-0.0107857,1,0,1,4.9525,-0.77,-1.05,0.353556,0.306708,-1.02309,-0.23086,0.08946,0.41384
1.07619,0,0,13.9238,13.9238,16.0762,16.0762,-0.654351,1.16965,16.6221,-0.15048,0.0510439,0.153843,1,0,1,3.5175,-0.5775,-2.2575,-0.170922,0.074542,-0.859734,-0.23086,0.08946,0.41384
1.08238,0,0,13.9176,13.9176,16.0824,16.0824,-0.658701,1.17328,16.6179,-0.150543,0.050968,0.153841,1,0,1,1.1375,2.3275,-3.29,-0.170922,0.074542,-0.859734,-0.22512,0.07938,0.41902
1.08239,0,0,13.9176,13.9176,16.0824,16.0824,-0.658637,1.17527,16.6144,-0.216302,0.100064,-0.0819753,1,0,1,3.605,1.365,-2.905,-0.236924,0.123586,-1.09373,-0.22512,0.07938,0.41902
1.0824,0,0,13.9176,13.9176,16.0824,16.0824,-0.658573,1.17727,16.6109,-0.216337,0.100065,-0.081976,1,0,1,3.605,1.365,-2.905,-0.236924,0.123586,-1.09373,-0.22512,0.07938,0.41902
