pid_x,pid_y,pid_z,front_left_speed,front_right_speed,back_left_speed,back_right_speed,orientation_x,orientation_y,orientation_z,acceleration_x,acceleration_y,acceleration_z,accel_rejected,mag_rejected,gyro_x,gyro_y,gyro_z,accel_x,accel_y,accel_z,mag_x,mag_y,mag_z
0.269094,0,0,14.7309,14.7309,15.2691,15.2691,-0.448479,-0.0807128,0.306858,0.0676623,0.378759,0.0916269,0,0,3.3075,-0.245,-0.4025,0.02623,0.39833,-0.92171,-0.05096,-0.10948,0.497
0.531085,0,0,14.4689,14.4689,15.5311,15.5311,-0.885108,-0.159139,0.620959,0.0669658,0.370406,0.0834207,0,0,3.36,0,-0.2625,0.024156,0.397598,-0.929762,-0.05096,-0.10948,0.497
0.788313,0,0,14.2117,14.2117,15.7883,15.7883,-1.31379,-0.234166,0.938691,0.0682753,0.362926,0.0832727,0,0,3.675,0.035,-0.28,0.024156,0.397598,-0.929762,-0.05096,-0.10948,0.497
1.03949,0,0,13.9605,13.9605,16.0395,16.0395,-1.73237,-0.300771,1.25611,0.0730823,0.353669,0.0817207,0,0,3.745,0.0525,-0.385,0.027816,0.395646,-0.931104,-0.05096,-0.10948,0.497
1.28643,0,0,13.7136,13.7136,16.2864,16.2864,-2.14388,-0.364273,1.577,0.0741906,0.346491,0.0814713,0,0,3.745,0.0525,-0.385,0.027816,0.395646,-0.931104,-0.05096,-0.10948,0.497
1.53171,0,0,13.4683,13.4683,16.5317,16.5317,-2.55262,-0.431193,1.90914,0.0723214,0.342783,0.0828922,0,0,3.6575,0.0875,-0.385,0.024766,0.399062,-0.929396,-0.05334,-0.1099,0.48776
1.77361,0,0,13.2264,13.2264,16.7736,16.7736,-2.95571,-0.494543,2.24366,0.0743989,0.337345,0.0816846,0,0,3.57,0,-0.35,0.025742,0.400648,-0.93025,-0.05334,-0.1099,0.48776
2.01107,0,0,12.9889,12.9889,17.0111,17.0111,-3.35139,-0.55645,2.5836,0.0735356,0.329229,0.0825243,0,0,3.4825,0.105,-0.3325,0.02379,0.399428,-0.92903,-0.05334,-0.1099,0.48776
2.2445,0,0,12.7555,12.7555,17.2445,17.2445,-3.74035,-0.615389,2.92692,0.0745642,0.322454,0.082094,0,0,3.465,0.0525,-0.2975,0.02379,0.399428,-0.92903,-0.05334,-0.1099,0.48776
2.47118,0,0,12.5288,12.5288,17.4712,17.4712,-4.11806,-0.66556,3.26983,0.0793274,0.313924,0.0765916,0,0,3.6225,0.1575,-0.245,0.027694,0.397476,-0.934032,-0.05334,-0.1099,0.48776
2.69381,0,0,12.3062,12.3062,17.6938,17.6938,-4.48899,-0.713413,3.61568,0.0801625,0.30747,0.0760958,0,0,3.78,-0.1225,-0.3675,0.027694,0.397476,-0.934032,-0.05334,-0.1099,0.48776
2.91536,0,0,12.0846,12.0846,17.9154,17.9154,-4.85812,-0.759594,3.96361,0.0810899,0.301905,0.0830605,0,0,3.465,-0.245,-0.42,0.027816,0.39833,-0.92659,-0.05334,-0.1099,0.48776
3.13305,0,0,11.867,11.867,18.133,18.133,-5.2208,-0.802552,4.31484,0.0818396,0.295601,0.0824943,0,0,3.5175,0.035,-0.2625,0.027816,0.39833,-0.92659,-0.05334,-0.1099,0.48776
3.34769,0,0,11.6523,11.6523,18.3477,18.3477,-5.5784,-0.847731,4.67184,0.0784975,0.291465,0.0794368,0,0,3.43,0.035,-0.2975,0.023668,0.400404,-0.92903,-0.04956,-0.1078,0.48552
3.55598,0,0,11.444,11.444,18.556,18.556,-5.92539,-0.889621,5.03272,0.0788641,0.284464,0.0725485,0,0,3.7975,0.035,-0.28,0.023302,0.399428,-0.935252,-0.04956,-0.1078,0.48552
3.76062,0,0,11.2394,11.2394,18.7606,18.7606,-6.26631,-0.928475,5.39643,0.0795422,0.27855,0.071906,0,0,3.8325,0.2975,-0.315,0.023302,0.399428,-0.935252,-0.04956,-0.1078,0.48552
3.96281,0,0,11.0372,11.0372,18.9628,18.9628,-6.60312,-0.965747,5.76314,0.0794637,0.271245,0.0791053,0,0,3.85,0.2975,-0.35,0.02257,0.397964,-0.927444,-0.04956,-0.1078,0.48552
4.16188,0,0,10.8381,10.8381,19.1619,19.1619,-6.93474,-1.00053,6.1327,0.0800706,0.265499,0.0784129,0,0,3.4825,0.2975,-0.3675,0.02257,0.397964,-0.927444,-0.04956,-0.1078,0.48552
4.35645,0,0,10.6435,10.6435,19.3565,19.3565,-7.25884,-1.0357,6.50858,0.0776473,0.258789,0.0765968,0,0,3.5175,0.1575,-0.2275,0.01952,0.396866,-0.928542,-0.04956,-0.1078,0.48552
4.54759,0,0,10.4524,10.4524,19.5476,19.5476,-7.57722,-1.06851,6.88704,0.0782197,0.253281,0.0758691,0,0,3.5525,0.14,-0.3675,0.01952,0.396866,-0.928542,-0.04956,-0.1078,0.48552
4.73763,0,0,10.2624,10.2624,19.7376,19.7376,-7.89375,-1.09219,7.25983,0.0862866,0.250007,0.0785604,0,0,3.5525,0.1575,-0.385,0.027206,0.399062,-0.925126,-0.04956,-0.1078,0.48552
4.92422,0,0,10.0758,10.0758,19.9242,19.9242,-8.20454,-1.11238,7.63135,0.086639,0.244639,0.0777944,0,0,3.57,0.315,-0.2975,0.027206,0.399062,-0.925126,-0.04942,-0.10766,0.49364
5.1066,0,0,9.8934,9.8934,20.1066,20.1066,-8.50828,-1.13164,8.00724,0.0857602,0.240861,0.0698865,0,0,3.5,0.2975,-0.28,0.025986,0.400526,-0.932202,-0.04942,-0.10766,0.49364
5.28579,0,0,9.71421,9.71421,20.2858,20.2858,-8.80671,-1.14883,8.38576,0.0860601,0.235714,0.0690968,0,0,3.5,0.2975,-0.28,0.025986,0.400526,-0.932202,-0.04942,-0.10766,0.49364
5.45937,0,0,9.54063,9.54063,20.4594,20.4594,-9.0958,-1.16725,8.77101,0.0821296,0.227678,0.0675678,0,0,3.71,0.14,-0.2975,0.021716,0.397476,-0.932934,-0.04942,-0.10766,0.49364
5.62992,0,0,9.37008,9.37008,20.6299,20.6299,-9.3798,-1.18366,9.15883,0.0824159,0.222788,0.0667664,0,0,3.71,0.14,-0.2975,0.021716,0.397476,-0.932934,-0.04942,-0.10766,0.49364
5.80014,0,0,9.19986,9.19986,20.8001,20.8001,-9.66326,-1.19838,9.54799,0.0837662,0.220475,0.0691396,0,0,3.5,0.14,-0.315,0.022814,0.400038,-0.929762,-0.04942,-0.10766,0.49364
5.96736,0,0,9.03264,9.03264,20.9674,20.9674,-9.94172,-1.21117,9.9397,0.0839893,0.215688,0.0683077,0,0,3.5,0.14,-0.315,0.022814,0.400038,-0.929762,-0.04942,-0.10766,0.49364
6.12997,0,0,8.87003,8.87003,21.13,21.13,-10.2125,-1.22118,10.3335,0.0842854,0.21006,0.0648955,0,0,3.7275,0.21,-0.2975,0.022936,0.399062,-0.932324,-0.04942,-0.10766,0.49364
6.29066,0,0,8.70934,8.70934,21.2907,21.2907,-10.48,-1.2258,10.7264,0.0883751,0.202659,0.0733994,0,0,3.5175,0.0525,-0.4025,0.026962,0.396256,-0.923052,-0.0504,-0.10794,0.49042
6.44861,0,0,8.55139,8.55139,21.4486,21.4486,-10.743,-1.22869,11.1217,0.0884256,0.198149,0.0725533,0,0,3.395,0.07,-0.42,0.026962,0.396256,-0.923052,-0.0504,-0.10794,0.49042
6.60085,0,0,8.39915,8.39915,21.6009,21.6009,-10.9965,-1.23138,11.5217,0.0862857,0.193683,0.0621283,0,0,3.4825,-0.14,-0.3325,0.024766,0.396134,-0.932568,-0.0504,-0.10794,0.49042
6.75175,0,0,8.24825,8.24825,21.7518,21.7518,-11.2477,-1.236,11.9269,0.0836936,0.190359,0.0643547,0,0,3.5525,-0.28,-0.3675,0.022082,0.39711,-0.929518,-0.0504,-0.10794,0.49042
6.89991,0,0,8.10009,8.10009,21.8999,21.8999,-11.4943,-1.23852,12.3342,0.0837377,0.18614,0.0635053,0,0,3.5875,0,-0.42,0.022082,0.39711,-0.929518,-0.0504,-0.10794,0.49042
7.04479,0,0,7.95521,7.95521,22.0448,22.0448,-11.7355,-1.23175,12.7357,0.0907871,0.179453,0.0672096,0,0,3.7975,0.1225,-0.42,0.02928,0.394548,-0.925004,-0.0504,-0.10794,0.49042
7.18712,0,0,7.81288,7.81288,22.1871,22.1871,-11.9724,-1.22332,13.1393,0.0906401,0.175407,0.0663635,0,0,3.7275,0.2625,-0.385,0.02928,0.394548,-0.925004,-0.0504,-0.10794,0.49042
7.32566,0,0,7.67434,7.67434,22.3257,22.3257,-12.203,-1.21859,13.5507,0.0852122,0.172571,0.0585145,0,0,3.6225,0.14,-0.3675,0.023912,0.395646,-0.931958,-0.0504,-0.10794,0.49042
7.46188,0,0,7.53812,7.53812,22.4619,22.4619,-12.4297,-1.21408,13.9711,0.0851334,0.168705,0.0576723,0,0,3.6225,-0.0175,-0.35,0.023912,0.395646,-0.931958,-0.0483,-0.11438,0.49546
7.64889,0,0,7.35111,7.35111,22.6489,22.6489,-12.7411,-1.21688,14.3827,0.104134,0.210056,0.125585,0,0,3.4475,-0.07,-0.35,0.042944,0.44225,-0.863394,-0.0483,-0.11438,0.49546
7.83241,0,0,7.16759,7.16759,22.8324,22.8324,-13.0467,-1.21778,14.7974,0.10415,0.204858,0.124394,0,0,3.605,-0.105,-0.175,0.042944,0.44225,-0.863394,-0.0483,-0.11438,0.49546
7.97965,0,0,7.02035,7.02035,22.9797,22.9797,-13.2917,-1.50908,15.5248,-0.245749,0.234674,-0.0114491,0,0,3.1675,-0.035,-0.1575,-0.31354,0.476166,-0.997106,-0.0483,-0.11438,0.49546
7.97981,0,0,7.02019,7.02019,22.9798,22.9798,-13.2916,-1.50865,15.5246,-0.245756,0.234675,-0.0114486,1,0,3.64,0.2625,-0.42,-0.31354,0.476166,-0.997106,-0.0483,-0.11438,0.49546
7.97959,0,0,7.02041,7.02041,22.9796,22.9796,-13.2909,-1.50844,15.5243,0.102661,0.2171,-0.039478,1,0,3.99,0.1575,-0.5075,0.036356,0.458598,-1.02492,-0.0483,-0.11438,0.49546
7.98018,0,0,7.01982,7.01982,22.9802,22.9802,-13.2916,-1.50876,15.5242,0.102667,0.21709,-0.0394807,1,0,3.2375,-0.175,-0.4725,0.036356,0.458598,-1.02492,-0.0483,-0.11438,0.49546
7.98912,0,0,7.01088,7.01088,22.9891,22.9891,-13.3062,-1.33831,15.8109,0.176229,-0.0111855,0.064916,0,0,4.1475,-0.5775,-0.805,0.113216,0.230824,-0.921344,-0.0483,-0.11438,0.49546
7.99129,0,0,7.00871,7.00871,22.9913,22.9913,-13.3095,-1.13149,15.8101,0.17262,-0.0112593,0.0649785,0,1,4.445,-0.175,-0.9275,0.113216,0.230824,-0.921344,-0.05208,-0.10472,0.5089
7.96925,0,0,7.03075,7.03075,22.9693,22.9693,-13.2724,-0.779801,15.8084,0.285539,-0.0559623,0.109365,0,1,3.9375,-0.1925,-1.085,0.232776,0.185562,-0.877546,-0.05208,-0.10472,0.5089
7.94747,0,0,7.05253,7.05253,22.9475,22.9475,-13.2358,-0.434342,15.8067,0.279509,-0.0553546,0.109574,0,1,4.095,0.07,-1.1375,0.232776,0.185562,-0.877546,-0.05208,-0.10472,0.5089
8.12626,0,0,6.87374,6.87374,23.1263,23.1263,-13.5334,-0.516584,15.8078,-0.072943,0.253338,0.07959,0,1,3.22,0.0175,-1.19,-0.12261,0.49898,-0.906094,-0.05208,-0.10472,0.5089
8.30098,0,0,6.69902,6.69902,23.301,23.301,-13.8243,-0.59674,15.8094,-0.0715441,0.248409,0.0783765,0,1,3.85,0.28,-1.015,-0.12261,0.49898,-0.906094,-0.05208,-0.10472,0.5089
8.43296,0,0,6.56704,6.56704,23.433,23.433,-14.0439,-0.39406,15.8102,0.145658,0.100328,0.243095,0,1,3.255,0.525,-0.8925,0.099064,0.354776,-0.74176,-0.05208,-0.10472,0.5089
8.43446,0,0,6.56554,6.56554,23.4345,23.4345,-14.046,-0.393204,15.8091,0.145643,0.100292,0.243086,1,1,2.3975,0.63,-0.84,0.099064,0.354776,-0.74176,-0.05208,-0.10472,0.5089
8.55839,0,0,6.44161,6.44161,23.5584,23.5584,-14.2522,0.00880014,15.8098,0.349891,0.151387,0.12678,0,1,2.38,0.5075,-0.245,0.311222,0.40931,-0.856318,-0.05208,-0.10472,0.5089
8.68006,0,0,6.31994,6.31994,23.6801,23.6801,-14.4546,0.403475,15.8091,0.343002,0.14797,0.12588,0,1,2.38,0.5075,-0.245,0.311222,0.40931,-0.856318,-0.0469,-0.09506,0.51618
8.75738,0,0,6.24262,6.24262,23.7574,23.7574,-14.5831,0.823753,15.8088,0.303838,0.0295544,0.253232,0,1,2.59,-0.7525,0.1225,0.279258,0.293166,-0.729316,-0.0469,-0.09506,0.51618
8.75867,0,0,6.24133,6.24133,23.7587,23.7587,-14.5849,0.822731,15.81,0.303856,0.0295241,0.253224,1,1,2.59,-0.7525,0.1225,0.279258,0.293166,-0.729316,-0.0469,-0.09506,0.51618
8.75784,0,0,6.24216,6.24216,23.7578,23.7578,-14.5832,0.822816,15.8117,-0.0831989,0.241688,-0.0236484,1,1,4.5675,-0.21,0.6125,-0.109434,0.50508,-1.00406,-0.0469,-0.09506,0.51618
8.75701,0,0,6.24299,6.24299,23.757,23.757,-14.5814,0.822902,15.8134,-0.0832004,0.241717,-0.0236407,1,1,4.5675,-0.21,0.6125,-0.109434,0.50508,-1.00406,-0.0469,-0.09506,0.51618
8.93172,0,0,6.06828,6.06828,23.9317,23.9317,-14.8722,0.771864,15.8117,-0.0450136,0.220074,0.139955,0,1,6.8075,0.4025,1.2075,-0.07198,0.488366,-0.840458,-0.0469,-0.09506,0.51618
8.85191,0,0,6.14809,6.14809,23.8519,23.8519,-14.7389,0.901308,15.8169,0.136171,-0.0915325,-0.194886,0,1,3.7975,-0.0175,1.5925,0.11224,0.174826,-1.17327,-0.0469,-0.09506,0.51618
8.85302,0,0,6.14698,6.14698,23.853,23.853,-14.7403,0.904324,15.8201,0.136118,-0.0915572,-0.194893,1,1,2.7475,1.225,1.89,0.11224,0.174826,-1.17327,-0.0469,-0.09506,0.51618
9.05781,0,0,5.94219,5.94219,24.0578,24.0578,-15.0813,0.570604,15.8189,-0.300873,0.268566,0.157863,0,1,2.2575,1.9425,2.065,-0.33245,0.540338,-0.821792,-0.04718,-0.08778,0.5236
9.2616,0,0,5.7384,5.7384,24.2616,24.2616,-15.4205,0.239817,15.8196,-0.2951,0.262842,0.156345,0,1,-0.245,0.245,1.505,-0.33245,0.540338,-0.821792,-0.04718,-0.08778,0.5236
9.19734,0,0,5.80266,5.80266,24.1973,24.1973,-15.3131,0.174996,15.8223,-0.052455,-0.110523,0.0543071,0,1,0.2975,-0.7,0.8575,-0.089914,0.165554,-0.92354,-0.04718,-0.08778,0.5236
9.19898,0,0,5.80102,5.80102,24.199,24.199,-15.3154,0.172122,15.8249,0.296381,0.37025,-0.148815,1,1,2.275,-2.03,0.6475,0.260348,0.645868,-1.12508,-0.04718,-0.08778,0.5236
9.20061,0,0,5.79939,5.79939,24.2006,24.2006,-15.3177,0.16953,15.8261,0.296426,0.370211,-0.148825,1,1,2.2925,-1.6625,-0.07,0.260348,0.645868,-1.12508,-0.04718,-0.08778,0.5236
9.19771,0,0,5.80229,5.80229,24.1977,24.1977,-15.3125,0.167805,15.8263,-0.120362,0.272109,0.254962,1,1,6.5275,-1.015,-0.5075,-0.158234,0.54778,-0.724436,-0.04718,-0.08778,0.5236
9.1946,0,0,5.8054,5.8054,24.1946,24.1946,-15.307,0.169271,15.8263,-0.120387,0.272202,0.254987,1,1,6.72,0.8225,-0.14,-0.158234,0.54778,-0.724436,-0.04718,-0.08778,0.5236
9.15716,0,0,5.84284,5.84284,24.1572,24.1572,-15.2442,0.370437,15.8257,0.166696,-0.0620963,0.0488296,0,1,7.3325,1.435,-0.5425,0.13359,0.212768,-0.929274,-0.04718,-0.08778,0.5236
9.12696,0,0,5.87304,5.87304,24.127,24.127,-15.1935,0.539788,16.0287,0.16374,-0.061236,0.0490393,0,0,5.425,1.4,-1.575,0.13359,0.212768,-0.929274,-0.03766,-0.07994,0.51884
9.40428,0,0,5.59572,5.59572,24.4043,24.4043,-15.6553,0.503038,16.4,0.0899107,0.309952,0.207841,0,0,3.92,2.1175,-1.6975,0.058804,0.591334,-0.769576,-0.03766,-0.07994,0.51884
9.67891,0,0,5.32109,5.32109,24.6789,24.6789,-16.1126,0.466584,16.7753,0.0905469,0.302274,0.205662,0,0,2.065,1.225,-2.5725,0.058804,0.591334,-0.769576,-0.03766,-0.07994,0.51884
9.68183,0,0,5.31817,5.31817,24.6818,24.6818,-16.1171,0.466847,16.771,-0.142832,0.319541,-0.0701335,1,0,1.12,0.84,-2.73,-0.175558,0.608658,-1.04322,-0.03766,-0.07994,0.51884
9.68447,0,0,5.31553,5.31553,24.6845,24.6845,-16.121,0.465856,16.7671,-0.142814,0.319474,-0.0701527,1,0,1.3825,0.07,-2.7125,-0.175558,0.608658,-1.04322,-0.03766,-0.07994,0.51884
9.56563,0,0,5.43437,5.43437,24.5656,24.5656,-15.9226,0.561356,17.0632,0.0497745,-0.162036,-0.0339249,0,0,3.255,-0.6825,-2.45,0.01952,0.124318,-1.00821,-0.03766,-0.07994,0.51884
9.44753,0,0,5.55247,5.55247,24.4475,24.4475,-15.7254,0.653738,17.3597,0.0481622,-0.158719,-0.0330027,0,0,4.7425,-0.9275,-2.52,0.01952,0.124318,-1.00821,-0.03766,-0.07994,0.51884
8.94027,0,0,6.05973,6.05973,23.9403,23.9403,-14.8795,0.616314,17.7129,-0.283812,-0.710175,0.160241,0,0,4.41,-1.5575,-2.135,-0.314516,-0.440786,-0.820328,-0.03766,-0.07994,0.51884
8.43547,0,0,6.56453,6.56453,23.4355,23.4355,-14.0379,0.585234,18.0776,-0.28327,-0.695952,0.163914,0,0,6.8075,-0.315,-0.8575,-0.314516,-0.440786,-0.820328,-0.03374,-0.08932,0.51254
8.43318,0,0,6.56682,6.56682,23.4332,23.4332,-14.0337,0.585919,18.0784,-1.53094,0.923031,0.601382,1,0,5.9325,0.28,0.14,-1.56746,1.17645,-0.386252,-0.03374,-0.08932,0.51254
8.4334,0,0,6.5666,6.5666,23.4334,23.4334,-14.0337,0.588654,18.0793,-1.53099,0.92303,0.601381,1,0,3.5875,1.4175,0.5425,-1.56746,1.17645,-0.386252,-0.03374,-0.08932,0.51254
8.43346,0,0,6.56654,6.56654,23.4335,23.4335,-14.0335,0.591243,18.0795,-0.242313,0.61723,0.0771297,1,0,3.745,1.435,0.1225,-0.27328,0.870958,-0.90646,-0.03374,-0.08932,0.51254
8.43516,0,0,6.56484,6.56484,23.4352,23.4352,-14.036,0.594485,18.0799,-0.242369,0.617188,0.0771186,1,0,2.205,1.785,0.2975,-0.27328,0.870958,-0.90646,-0.03374,-0.08932,0.51254
8.69827,0,0,6.30173,6.30173,23.6983,23.6983,-14.4741,1.17007,17.6516,0.806334,0.212415,0.480201,0,0,2.59,2.065,0.7525,0.78995,0.47397,-0.50447,-0.03374,-0.08932,0.51254
8.95586,0,0,6.04414,6.04414,23.9559,23.9559,-14.9031,1.73459,17.2181,0.796484,0.205238,0.478062,0,0,3.92,-0.245,0.3675,0.78995,0.47397,-0.50447,-0.03374,-0.08932,0.51254
8.9551,0,0,6.0449,6.0449,23.9551,23.9551,-14.9014,1.73348,17.2207,-0.0664092,0.959765,0.176846,1,0,4.48,-1.015,0.8925,-0.076616,1.22769,-0.80337,-0.03374,-0.08932,0.51254
8.95105,0,0,6.04895,6.04895,23.9511,23.9511,-14.8943,1.73076,17.2227,-0.0663616,0.959885,0.176879,1,1,7.56,-1.855,0.3675,-0.076616,1.22769,-0.80337,-0.04578,-0.07994,0.52234
8.94908,0,0,6.05092,6.05092,23.9491,23.9491,-14.8906,1.72842,17.2258,0.760389,-0.14066,0.185995,1,1,5.6,-1.8025,1.05,0.753594,0.128222,-0.794342,-0.04578,-0.07994,0.52234
8.9456,0,0,6.0544,6.0544,23.9456,23.9456,-14.8845,1.7266,17.2274,0.760421,-0.140557,0.186024,1,1,7.035,-1.2775,0.28,0.753594,0.128222,-0.794342,-0.04578,-0.07994,0.52234
9.09507,0,0,5.90493,5.90493,24.0951,24.0951,-15.1332,2.44835,17.2199,0.603872,0.122463,0.371585,0,1,5.32,-0.49,0.455,0.609024,0.395036,-0.608658,-0.04578,-0.07994,0.52234
9.24612,0,0,5.75388,5.75388,24.2461,24.2461,-15.3846,3.15778,17.2081,0.591505,0.118395,0.369847,0,1,2.03,-1.435,-0.49,0.609024,0.395036,-0.608658,-0.04578,-0.07994,0.52234
9.64444,0,0,5.35556,5.35556,24.6444,24.6444,-16.048,2.83721,17.1736,-0.285744,0.462451,0.410889,0,1,0.945,0.0175,-0.42,-0.27755,0.749934,-0.565104,-0.04578,-0.07994,0.52234
10.0349,0,0,5,5,25.0349,25.0349,-16.6984,2.52315,17.1419,-0.280269,0.4515,0.407939,0,1,2.6075,1.435,-0.805,-0.27755,0.749934,-0.565104,-0.04578,-0.07994,0.52234
10.2111,0,0,5,5,25.2111,25.2111,-16.9916,2.62043,17.1279,0.0919681,0.273576,0.0557354,0,1,2.8,1.3475,-0.49,0.097966,0.57706,-0.913048,-0.04578,-0.07994,0.52234
10.382,0,0,5,5,25.382,25.382,-17.276,2.71247,17.1131,0.0903633,0.268859,0.0542032,0,1,4.6725,-0.42,-1.3825,0.097966,0.57706,-0.913048,-0.04578,-0.07994,0.52234
10.45,0,0,5,5,25.45,25.45,-17.3889,2.82931,17.1063,0.109222,0.107146,0.0172529,0,1,5.88,-0.35,-1.2075,0.11895,0.417362,-0.949038,-0.0469,-0.08022,0.52402
10.4451,0,0,5,5,25.4451,25.4451,-17.3802,2.83069,17.1042,-0.0306321,-0.027293,-0.413146,1,1,8.5225,1.12,-1.26,-0.021472,0.282918,-1.37616,-0.0469,-0.08022,0.52402
10.442,0,0,5,5,25.442,25.442,-17.3747,2.83001,17.1036,-0.0306202,-0.0272011,-0.413116,1,1,6.72,-0.28,-0.8225,-0.021472,0.282918,-1.37616,-0.0469,-0.08022,0.52402
10.3141,0,0,5,5,25.3141,25.3141,-17.1611,2.97569,17.1136,0.124772,-0.189821,-0.00910874,0,1,5.7225,0.6475,-0.5425,0.137128,0.116876,-0.976244,-0.0469,-0.08022,0.52402
10.1932,0,0,5,5,25.1932,25.1932,-16.9592,3.11659,17.1246,0.122316,-0.186419,-0.00820132,0,1,1.365,-0.5775,-0.5075,0.137128,0.116876,-0.976244,-0.0469,-0.08022,0.52402
10.1967,0,0,5,5,25.1967,25.1967,-16.9646,3.11587,17.1241,0.0987604,0.0163434,0.503115,1,1,0.595,-0.315,-0.7875,0.11346,0.319518,-0.468846,-0.0469,-0.08022,0.52402
10.199,0,0,5,5,25.199,25.199,-16.9681,3.11574,17.1224,0.0987628,0.0162852,0.503097,1,1,1.6975,0.21,-1.3475,0.11346,0.319518,-0.468846,-0.0469,-0.08022,0.52402
10.4444,0,0,5,5,25.4444,25.4444,-17.3766,3.28076,17.0985,0.157723,0.372614,0.126463,0,1,2.1525,1.4,-0.665,0.175558,0.682224,-0.840336,-0.0469,-0.08022,0.52402
10.6804,0,0,5,5,25.6804,25.6804,-17.7694,3.44174,17.0749,0.154918,0.366138,0.12424,0,1,6.8775,0.7175,-0.28,0.175558,0.682224,-0.840336,-0.05208,-0.07462,0.52584
10.6967,0,0,5,5,25.6967,25.6967,-17.7962,3.58542,17.0741,0.140145,0.0427154,-0.0399393,0,1,5.25,0.1225,0.28,0.163236,0.359534,-1.00296,-0.05208,-0.07462,0.52584
10.7127,0,0,5,5,25.7127,25.7127,-17.8224,3.7271,17.0732,0.137678,0.0423302,-0.0402287,0,1,5.3375,0.56,0.4025,0.163236,0.359534,-1.00296,-0.05208,-0.07462,0.52584
10.7088,0,0,5,5,25.7088,25.7088,-17.8155,3.72829,17.0743,0.257199,0.0818922,-0.0973642,1,1,7.4375,0.455,0.4725,0.283284,0.39894,-1.05969,-0.05208,-0.07462,0.52584
10.7049,0,0,5,5,25.7049,25.7049,-17.8086,3.72846,17.076,0.257196,0.0820064,-0.0973277,1,1,7.4025,-0.21,0.595,0.283284,0.39894,-1.05969,-0.05208,-0.07462,0.52584
10.7019,0,0,5,5,25.7019,25.7019,-17.8031,3.7272,17.0782,0.0673357,0.400847,0.0669619,1,1,6.58,-1.1025,0.63,0.092598,0.71736,-0.8967,-0.05208,-0.07462,0.52584
10.7049,0,0,5,5,25.7049,25.7049,-17.8076,3.72709,17.079,0.0673377,0.400774,0.0669384,1,1,1.085,-0.21,0.0525,0.092598,0.71736,-0.8967,-0.05208,-0.07462,0.52584
10.7844,0,0,5,5,25.7844,25.7844,-17.9397,3.88279,17.0711,0.152703,0.132892,-0.00106919,0,1,3.43,-0.315,0.0525,0.181048,0.451888,-0.963312,-0.05208,-0.07462,0.52584
10.8632,0,0,5,5,25.8632,25.8632,-18.0706,4.03485,17.0629,0.150056,0.130779,-0.00194843,0,1,2.66,-0.6475,-0.14,0.181048,0.451888,-0.963312,-0.05082,-0.07448,0.52668
10.8634,0,0,5,5,25.8634,25.8634,-18.0705,4.03412,17.0633,-0.0744372,-0.189557,0.108953,1,1,3.675,-0.49,-0.2625,-0.044408,0.131882,-0.853268,-0.05082,-0.07448,0.52668
10.862,0,0,5,5,25.862,25.862,-18.0677,4.03448,17.0626,-0.0744434,-0.18951,0.108968,1,1,5.1975,0.315,-0.6825,-0.044408,0.131882,-0.853268,-0.05082,-0.07448,0.52668
10.8594,0,0,5,5,25.8594,25.8594,-18.0628,4.03457,17.062,-0.412297,0.0584875,-0.122764,1,1,6.3525,0.14,-0.6475,-0.38369,0.379542,-1.08324,-0.05082,-0.07448,0.52668
10.8557,0,0,5,5,25.8557,25.8557,-18.0563,4.03467,17.0624,-0.412298,0.058596,-0.122729,1,1,7.2625,-0.0175,-0.14,-0.38369,0.379542,-1.08324,-0.05082,-0.07448,0.52668
10.8514,0,0,5,5,25.8514,25.8514,-18.0487,4.03365,17.0632,0.0547103,0.120761,-0.169162,1,1,7.805,-0.7175,-0.105,0.085278,0.441518,-1.12935,-0.05082,-0.07448,0.52668
10.8491,0,0,5,5,25.8491,25.8491,-18.0443,4.03216,17.0636,0.0547362,0.120833,-0.169136,1,1,6.0375,-0.91,-0.4025,0.085278,0.441518,-1.12935,-0.05082,-0.07448,0.52668
10.9964,0,0,5,5,25.9964,25.9964,-18.2894,4.14013,17.0461,0.104974,0.223683,0.0612871,0,1,4.1125,-1.12,-0.7525,0.137616,0.548268,-0.899262,-0.05082,-0.07448,0.52668
11.1421,0,0,5,5,26.1421,26.1421,-18.5318,4.24606,17.0281,0.10313,0.219721,0.0598258,0,1,2.9925,-1.0325,-0.8925,0.137616,0.548268,-0.899262,-0.04872,-0.08218,0.52892
11.328,0,0,5,5,26.328,26.328,-18.8412,4.26937,17.0048,0.0184133,0.240766,0.139218,0,1,3.115,-0.9975,-0.98,0.052948,0.574376,-0.818742,-0.04872,-0.08218,0.52892
11.5092,0,0,5,5,26.5092,26.5092,-19.1427,4.29424,16.9811,0.0179805,0.235814,0.13748,0,1,4.3225,0.28,-0.91,0.052948,0.574376,-0.818742,-0.04872,-0.08218,0.52892
11.4179,0,0,5,5,26.4179,26.4179,-18.9899,4.58467,16.9911,0.275093,-0.138063,-0.0337819,0,1,5.495,0.6825,-1.1025,0.316224,0.19825,-0.989176,-0.04872,-0.08218,0.52892
11.3272,0,0,5,5,26.3272,26.3272,-18.8383,4.87088,17.0015,0.270115,-0.135435,-0.0333165,0,1,6.405,1.3475,-0.9625,0.316224,0.19825,-0.989176,-0.04872,-0.08218,0.52892
11.3253,0,0,5,5,26.3253,26.3253,-18.8347,4.87269,16.9998,-0.0819825,0.00152978,-0.153419,1,1,5.705,1.3125,-0.945,-0.037332,0.335012,-1.10837,-0.04872,-0.08218,0.52892
11.3233,0,0,5,5,26.3233,26.3233,-18.8309,4.87497,16.9983,-0.0820222,0.00159359,-0.153401,1,1,5.81,1.54,-0.7525,-0.037332,0.335012,-1.10837,-0.04872,-0.08218,0.52892
11.4678,0,0,5,5,26.4678,26.4678,-19.0713,4.85307,16.9766,-0.0210199,0.220023,0.05994,0,1,5.6175,1.1725,-0.6125,0.023546,0.557174,-0.895358,-0.04872,-0.08218,0.52892
11.6112,0,0,5,5,26.6112,26.6112,-19.3097,4.83004,16.9568,-0.0206194,0.216095,0.0586087,0,1,4.0425,0.0875,-0.07,0.023546,0.557174,-0.895358,-0.05152,-0.0742,0.53466
11.6413,0,0,5,5,26.6413,26.6413,-19.3596,4.97531,16.9533,0.130655,0.0367996,0.0313147,0,1,3.675,-0.28,0.0175,0.177998,0.37881,-0.921954,-0.05152,-0.0742,0.53466
11.6716,0,0,5,5,26.6716,26.6716,-19.4094,5.1174,16.9495,0.128185,0.036054,0.0308211,0,1,3.1325,-0.455,-0.21,0.177998,0.37881,-0.921954,-0.05152,-0.0742,0.53466
11.7037,0,0,5,5,26.7037,26.7037,-19.4625,5.07075,16.9457,-0.0393832,0.0614169,-0.0360559,0,1,1.0675,-0.245,-0.1575,0.008906,0.40504,-0.988078,-0.05152,-0.0742,0.53466
11.734,0,0,5,5,26.734,26.734,-19.5125,5.02717,16.9417,-0.0386255,0.0605757,-0.0362826,0,1,2.2575,0.9975,0.14,0.008906,0.40504,-0.988078,-0.05152,-0.0742,0.53466
11.7203,0,0,5,5,26.7203,26.7203,-19.4891,4.81021,16.9443,-0.206269,-0.000823841,-0.06916,0,1,2.7825,0.805,0.1925,-0.163236,0.34343,-1.02114,-0.05152,-0.0742,0.53466
11.7043,0,0,5,5,26.7043,26.7043,-19.4621,4.59812,16.9468,-0.20258,-0.000481931,-0.0687171,0,1,5.0925,1.225,0.3675,-0.163236,0.34343,-1.02114,-0.05152,-0.0742,0.53466
11.6353,0,0,5,5,26.6353,26.6353,-19.3466,4.54241,16.9565,-0.0523047,-0.0935053,-0.0385918,0,1,5.8625,0.9275,0.4725,-0.013298,0.248636,-0.991982,-0.05152,-0.0742,0.53466
11.5671,0,0,5,5,26.5671,26.5671,-19.2325,4.48666,16.9662,-0.0513348,-0.0916559,-0.0378634,0,1,6.3525,0.2625,0.455,-0.013298,0.248636,-0.991982,-0.05152,-0.0742,0.53466
11.6647,0,0,5,5,26.6647,26.6647,-19.3947,4.38906,16.9549,-0.0889978,0.159539,0.0156709,0,1,5.0575,-0.7175,0.245,-0.052826,0.502274,-0.938058,-0.04662,-0.0637,0.54124
11.764,0,0,5,5,26.764,26.764,-19.5596,4.29209,16.9438,-0.0873102,0.15679,0.0148344,0,1,1.7675,-1.33,-0.105,-0.052826,0.502274,-0.938058,-0.04662,-0.0637,0.54124
11.7639,0,0,5,5,26.7639,26.7639,-19.559,4.24192,16.9453,-0.0406369,0.0241483,-0.0825988,0,1,1.1375,-1.505,-0.1925,-0.006832,0.369782,-1.0348,-0.04662,-0.0637,0.54124
11.7639,0,0,5,5,26.7639,26.7639,-19.5584,4.19271,16.9468,-0.0397804,0.024137,-0.0825358,0,1,1.1375,-1.505,-0.1925,-0.006832,0.369782,-1.0348,-0.04662,-0.0637,0.54124
11.8244,0,0,5,5,26.8244,26.8244,-19.6589,4.18166,16.9402,-0.00824466,0.0823271,0.0268066,0,1,0.7525,-1.0675,-0.525,0.024644,0.429562,-0.925736,-0.04662,-0.0637,0.54124
11.8838,0,0,5,5,26.8838,26.8838,-19.7574,4.1708,16.9338,-0.00805572,0.0807076,0.0262412,0,1,0.7525,-1.0675,-0.525,0.024644,0.429562,-0.925736,-0.04662,-0.0637,0.54124
11.9409,0,0,5,5,26.9409,26.9409,-19.852,3.9543,16.926,-0.192225,0.0545192,0.0877779,0,1,3.78,1.365,-0.525,-0.16409,0.40504,-0.86437,-0.04662,-0.0637,0.54124
11.9969,0,0,5,5,26.9969,26.9969,-19.9449,3.74184,16.9187,-0.188525,0.0529147,0.0874617,0,1,3.78,1.365,-0.525,-0.16409,0.40504,-0.86437,-0.04872,-0.05782,0.54698
11.9775,0,0,5,5,26.9775,26.9775,-19.912,3.86549,16.9208,0.121297,-0.014279,-0.0536227,0,1,3.5175,0.56,-0.1925,0.149206,0.33733,-1.00443,-0.04872,-0.05782,0.54698
12.1265,0,0,5,5,27.1265,27.1265,-20.1599,3.99575,16.9038,0.127411,0.229271,0.0622911,0,1,2.4325,0.07,-0.455,0.157624,0.584624,-0.887794,-0.04872,-0.05782,0.54698
12.274,0,0,5,5,27.274,27.274,-20.4051,4.12195,16.8865,0.125214,0.225321,0.060665,0,1,1.3825,-0.805,-0.77,0.157624,0.584624,-0.887794,-0.04872,-0.05782,0.54698
12.2765,0,0,5,5,27.2765,27.2765,-20.4088,4.12032,16.8864,0.143344,-0.0441524,0.191339,1,1,1.5225,-0.875,-0.77,0.175802,0.315492,-0.758108,-0.04872,-0.05782,0.54698
12.2791,0,0,5,5,27.2791,27.2791,-20.4125,4.11883,16.8862,0.14337,-0.0442143,0.191318,1,1,1.505,-0.7875,-0.77,0.175802,0.315492,-0.758108,-0.04872,-0.05782,0.54698
12.2671,0,0,5,5,27.2671,27.2671,-20.3921,4.26477,16.8873,0.142409,-0.0114525,-0.0326222,0,1,2.0475,-0.595,-0.9275,0.177388,0.347822,-0.98027,-0.04872,-0.05782,0.54698
12.2554,0,0,5,5,27.2554,27.2554,-20.3721,4.4098,16.8878,0.139885,-0.011059,-0.0326802,0,1,2.065,0.56,-0.91,0.177388,0.347822,-0.98027,-0.04872,-0.05782,0.54698
12.1859,0,0,5,5,27.1859,27.1859,-20.2558,4.27697,16.8953,-0.118633,-0.124388,0.0551114,0,1,2.45,1.26,-0.8575,-0.084546,0.232776,-0.894016,-0.04872,-0.05782,0.54698
12.1164,0,0,5,5,27.1164,27.1164,-20.1395,4.14635,16.902,-0.11636,-0.122545,0.0559677,0,1,3.7625,1.155,-1.0675,-0.084546,0.232776,-0.894016,-0.04928,-0.0434,0.56028
12.207,0,0,5,5,27.207,27.207,-20.29,4.24565,16.8894,0.102287,0.163992,-0.0141536,0,1,3.5175,1.33,-0.8925,0.136762,0.521428,-0.96258,-0.04928,-0.0434,0.56028
12.2954,0,0,5,5,27.2954,27.2954,-20.4367,4.34314,16.8772,0.10059,0.161643,-0.0151614,0,1,4.0775,1.2775,-0.595,0.136762,0.521428,-0.96258,-0.04928,-0.0434,0.56028
12.4381,0,0,5,5,27.4381,27.4381,-20.674,4.46775,16.8581,0.0974497,0.151118,0.168884,0,1,3.7975,0.4025,-0.7175,0.135786,0.514718,-0.77836,-0.04928,-0.0434,0.56028
12.5809,0,0,5,5,27.5809,27.5809,-20.9115,4.58823,16.8396,0.0953535,0.147313,0.167262,0,1,1.2425,-0.7175,-0.665,0.135786,0.514718,-0.77836,-0.04928,-0.0434,0.56028
12.4927,0,0,5,5,27.4927,27.4927,-20.764,4.81893,16.8523,0.183791,-0.164281,0.0768846,0,1,1.2075,-1.0325,-0.6475,0.228628,0.200934,-0.86864,-0.04928,-0.0434,0.56028
12.4065,0,0,5,5,27.4065,27.4065,-20.6199,5.04736,16.8651,0.179819,-0.161816,0.0774492,0,1,0.7525,0.105,-0.315,0.228628,0.200934,-0.86864,-0.04928,-0.0434,0.56028
12.5092,0,0,5,5,27.5092,27.5092,-20.7905,5.24471,16.8502,0.166791,0.107984,0.12234,0,1,0.21,0.5425,-0.21,0.21899,0.473116,-0.822768,-0.04928,-0.0434,0.56028
12.6071,0,0,5,5,27.6071,27.6071,-20.9532,5.43964,16.8347,0.163404,0.105455,0.121037,0,1,2.9575,1.33,-0.1575,0.21899,0.473116,-0.822768,-0.05236,-0.03542,0.56938
12.6071,0,0,5,5,27.6071,27.6071,-20.9525,5.44385,16.8418,-0.223966,0.136611,-0.239204,1,1,3.605,0.8225,4.3575,-0.169946,0.504226,-1.18023,-0.05236,-0.03542,0.56938
12.6079,0,0,5,5,27.6079,27.6079,-20.9534,5.44522,16.8423,-0.223989,0.136597,-0.239212,1,1,3.08,0.63,0.21,-0.169946,0.504226,-1.18023,-0.05236,-0.03542,0.56938
12.6082,0,0,5,5,27.6082,27.6082,-20.9534,5.44828,16.85,-0.292196,-0.281441,0.161472,1,1,3.2025,0.07,4.4275,-0.238388,0.08662,-0.78263,-0.05236,-0.03542,0.56938
12.611,0,0,5,5,27.611,27.611,-20.9575,5.44858,16.8509,-0.292201,-0.281507,0.161447,1,1,1.26,-0.035,0.21,-0.238388,0.08662,-0.78263,-0.05236,-0.03542,0.56938
12.543,0,0,5,5,27.543,27.543,-20.8437,5.10599,16.8633,-0.315768,-0.110954,-0.0109372,0,1,1.0675,-0.9625,0.21,-0.268034,0.255346,-0.954894,-0.05236,-0.03542,0.56938
12.4763,0,0,5,5,27.4763,27.4763,-20.732,4.76949,16.8748,-0.309917,-0.109318,-0.00977545,0,1,1.0675,-0.9625,0.21,-0.268034,0.255346,-0.954894,-0.05236,-0.03542,0.56938
12.4807,0,0,5,5,27.4807,27.4807,-20.7388,4.61894,16.8766,-0.13734,0.00895819,-0.0145343,0,1,1.68,-1.295,0.4025,-0.097356,0.373686,-0.959774,-0.05236,-0.03542,0.56938
12.485,0,0,5,5,27.485,27.485,-20.7455,4.47123,16.8783,-0.13477,0.0087769,-0.0143845,0,1,1.68,-1.295,0.4025,-0.097356,0.373686,-0.959774,-0.04508,-0.03654,0.57666
12.313,0,0,5,5,27.313,27.313,-20.4583,4.27068,16.8984,-0.184369,-0.268629,0.0246315,0,1,2.485,4.3225,0.035,-0.15067,0.091988,-0.923052,-0.04508,-0.03654,0.57666
12.4548,0,0,5,5,27.4548,27.4548,-20.6941,4.29805,16.8812,0.0266611,0.216415,0.0602861,0,1,2.66,0.56,0.035,0.061732,0.580354,-0.886208,-0.04508,-0.03654,0.57666
12.5943,0,0,5,5,27.5943,27.5943,-20.9261,4.32487,16.8639,0.0261944,0.212653,0.0588189,0,1,2.3975,0.63,-0.1225,0.061732,0.580354,-0.886208,-0.04508,-0.03654,0.57666
12.6098,0,0,5,5,27.6098,27.6098,-20.9513,4.43886,16.8619,0.0964946,0.00114034,0.0501595,0,1,1.575,0.7525,-0.2975,0.134322,0.369416,-0.894504,-0.04508,-0.03654,0.57666
12.6249,0,0,5,5,27.6249,27.6249,-20.976,4.5492,16.8596,0.0945748,0.000793477,0.049865,0,1,1.645,0,-0.805,0.134322,0.369416,-0.894504,-0.04508,-0.03654,0.57666
12.8034,0,0,5,5,27.8034,27.8034,-21.2731,4.38138,16.8358,-0.151794,0.19349,0.186901,0,1,0.6825,0.315,-0.875,-0.116022,0.566812,-0.756888,-0.04508,-0.03654,0.57666
12.9787,0,0,5,5,27.9787,27.9787,-21.5647,4.2146,16.8137,-0.148891,0.188686,0.18525,0,1,0.6825,-0.77,-1.1025,-0.116022,0.566812,-0.756888,-0.04508,-0.03654,0.57666
12.9827,0,0,5,5,27.9827,27.9827,-21.5708,4.2126,16.8129,-0.142174,0.130331,0.183861,1,1,0.1925,-0.9275,-1.225,-0.109312,0.508618,-0.75823,-0.0413,-0.02646,0.57806
12.9856,0,0,5,5,27.9856,27.9856,-21.5751,4.21204,16.811,0.129477,-0.0723467,0.131212,1,1,1.2775,0.0875,-1.4875,0.16348,0.30622,-0.810446,-0.0413,-0.02646,0.57806
12.9873,0,0,5,5,27.9873,27.9873,-21.5773,4.21205,16.809,0.129477,-0.0723829,0.131198,1,1,2.4325,0.4375,-1.47,0.16348,0.30622,-0.810446,-0.0413,-0.02646,0.57806
12.9885,0,0,5,5,27.9885,27.9885,-21.5788,4.21223,16.8065,-0.518166,-0.216394,-0.0906109,1,1,2.87,0.63,-1.68,-0.486902,0.162382,-1.03053,-0.0413,-0.02646,0.57806
12.9903,0,0,5,5,27.9903,27.9903,-21.5812,4.21396,16.8034,-0.518196,-0.216432,-0.0906284,1,1,2.38,1.5925,-1.645,-0.486902,0.162382,-1.03053,-0.0413,-0.02646,0.57806
12.9579,0,0,5,5,27.9579,27.9579,-21.5268,3.82061,16.8046,-0.393993,-0.0379111,-0.0594646,0,1,2.2925,1.12,-1.68,-0.36905,0.340014,-1.0004,-0.0413,-0.02646,0.57806
12.9274,0,0,5,5,27.9274,27.9274,-21.4754,3.43352,16.8066,-0.38725,-0.0372352,-0.0587389,0,1,1.085,0.5075,-1.155,-0.36905,0.340014,-1.0004,-0.0413,-0.02646,0.57806
12.7959,0,0,5,5,27.7959,27.7959,-21.2556,3.45436,16.819,0.0192421,-0.197311,-0.0719952,0,1,1.0675,0.245,-0.945,0.039528,0.176534,-1.01492,-0.0413,-0.02646,0.57806
12.6665,0,0,5,5,27.6665,27.6665,-21.0395,3.47434,16.8318,0.018894,-0.193791,-0.0706561,0,1,1.3125,-0.105,-0.735,0.039528,0.176534,-1.01492,-0.04704,-0.03822,0.56924
12.6701,0,0,5,5,27.6701,27.6701,-21.0449,3.47366,16.832,0.213769,0.186179,-0.299374,1,1,0.5425,-0.42,-0.4025,0.235216,0.556198,-1.24184,-0.04704,-0.03822,0.56924
12.6719,0,0,5,5,27.6719,27.6719,-21.0474,3.47392,16.8337,0.213764,0.186138,-0.29939,1,1,2.1525,-0.2275,0.63,0.235216,0.556198,-1.24184,-0.04704,-0.03822,0.56924
12.8362,0,0,5,5,27.8362,27.8362,-21.3207,3.30393,16.8197,-0.15259,0.177971,0.181503,0,1,2.485,0.0875,0.945,-0.135664,0.552538,-0.76311,-0.04704,-0.03822,0.56924
12.9982,0,0,5,5,27.9982,27.9982,-21.5902,3.138,16.807,-0.149699,0.173541,0.179937,0,1,1.785,0.6125,1.3125,-0.135664,0.552538,-0.76311,-0.04704,-0.03822,0.56924
13.0004,0,0,5,5,28.0004,28.0004,-21.5932,3.14048,16.809,-0.545907,-0.130603,-0.0785225,1,1,1.855,0.9275,1.225,-0.533506,0.248758,-1.01955,-0.04704,-0.03822,0.56924
13.0028,0,0,5,5,28.0028,28.0028,-21.5967,3.14379,16.8117,-0.545965,-0.130658,-0.0785476,1,1,1.575,1.2075,1.82,-0.533506,0.248758,-1.01955,-0.04704,-0.03822,0.56924
13.0056,0,0,5,5,28.0056,28.0056,-21.6008,3.14576,16.8148,0.367695,-0.186048,-0.202508,1,1,1.1725,0.4025,1.7325,0.384056,0.193492,-1.14253,-0.04704,-0.03822,0.56924
13.0084,0,0,5,5,28.0084,28.0084,-21.605,3.14773,16.8179,0.36766,-0.186115,-0.202537,1,1,1.1725,0.4025,1.7325,0.384056,0.193492,-1.14253,-0.0392,-0.04508,0.55748
13.0118,0,0,5,5,28.0118,28.0118,-21.6101,3.14747,16.8209,0.158467,-0.165681,0.226521,1,1,0.63,-0.805,1.225,0.173972,0.213988,-0.71675,-0.0392,-0.04508,0.55748
13.0152,0,0,5,5,28.0152,28.0152,-21.6153,3.14721,16.824,0.158471,-0.165764,0.226488,1,1,0.63,-0.805,1.225,0.173972,0.213988,-0.71675,-0.0392,-0.04508,0.55748
13.1194,0,0,5,5,28.1194,28.1194,-21.7883,2.74781,16.8168,-0.358656,0.099613,0.151937,0,1,0.8575,-0.8925,0.2275,-0.352336,0.482022,-0.78995,-0.0392,-0.04508,0.55748
13.1501,0,0,5,5,28.1501,28.1501,-21.8391,2.80572,16.8154,0.0498623,0.0221146,0.0599659,0,1,2.345,-0.7525,-0.0875,0.058926,0.405406,-0.88084,-0.0392,-0.04508,0.55748
13.1798,0,0,5,5,28.1798,28.1798,-21.888,2.86339,16.8125,0.048857,0.0213417,0.0596022,0,1,2.87,0.035,-0.7175,0.058926,0.405406,-0.88084,-0.0392,-0.04508,0.55748
13.1809,0,0,5,5,28.1809,28.1809,-21.8892,2.86358,16.8104,-0.214527,-0.176524,-0.152246,1,1,2.9575,0.5425,-1.435,-0.20557,0.207766,-1.09105,-0.0392,-0.04508,0.55748
13.1835,0,0,5,5,28.1835,28.1835,-21.893,2.86443,16.8064,-0.214542,-0.176584,-0.152271,1,1,1.61,1.33,-2.345,-0.20557,0.207766,-1.09105,-0.0392,-0.04508,0.55748
13.2527,0,0,5,5,28.2527,28.2527,-22.0078,3.30455,16.7964,0.386552,0.0373904,0.172042,0,1,1.5225,0.8575,-2.555,0.405772,0.423218,-0.768112,-0.04438,-0.0511,0.55286
13.41,0,0,5,5,28.41,28.41,-22.2694,3.55548,16.7772,0.230202,0.192032,0.155819,0,1,0.6125,-0.1575,-2.8525,0.25315,0.581818,-0.782264,-0.04438,-0.0511,0.55286
13.5647,0,0,5,5,28.5647,28.5647,-22.5267,3.8014,16.7573,0.225919,0.187994,0.153857,0,1,0.5425,-0.4375,-2.9225,0.25315,0.581818,-0.782264,-0.04438,-0.0511,0.55286
13.5679,0,0,5,5,28.5679,28.5679,-22.5315,3.79948,16.7537,-0.330331,-0.00138078,-0.124405,1,1,1.05,-0.245,-2.7125,-0.305488,0.392718,-1.05835,-0.04438,-0.0511,0.55286
13.5715,0,0,5,5,28.5715,28.5715,-22.5369,3.79841,16.7504,-0.330312,-0.00146799,-0.12444,1,1,0.7,0.14,-2.345,-0.305488,0.392718,-1.05835,-0.04438,-0.0511,0.55286
13.5511,0,0,5,5,28.5511,28.5511,-22.5024,3.7498,16.75,-0.0434883,-0.00472005,-0.093175,0,1,0.7175,0.735,-1.9775,-0.0183,0.388936,-1.02761,-0.04438,-0.0511,0.55286
13.5315,0,0,5,5,28.5315,28.5315,-22.4692,3.7037,16.7505,-0.0426854,-0.00420557,-0.0929054,0,1,0.315,1.3825,-1.085,-0.0183,0.388936,-1.02761,-0.04438,-0.0511,0.55286
13.5356,0,0,5,5,28.5356,28.5356,-22.4754,3.70589,16.7494,0.33206,0.0154788,-0.210242,1,1,0.1225,1.435,-0.49,0.35807,0.4087,-1.14399,-0.04438,-0.0511,0.55286
13.5398,0,0,5,5,28.5398,28.5398,-22.4817,3.70808,16.7483,0.332022,0.0153787,-0.210287,1,1,0.1225,1.435,-0.49,0.35807,0.4087,-1.14399,-0.03836,-0.0539,0.54124
13.5433,0,0,5,5,28.5433,28.5433,-22.487,3.7106,16.7491,-0.0697755,-0.0761786,-0.137539,1,1,0.595,1.1725,0.6475,-0.045384,0.317322,-1.07177,-0.03836,-0.0539,0.54124
13.5468,0,0,5,5,28.5468,28.5468,-22.4924,3.71313,16.7499,-0.0698195,-0.076263,-0.137577,1,1,0.595,1.1725,0.6475,-0.045384,0.317322,-1.07177,-0.03836,-0.0539,0.54124
13.5505,0,0,5,5,28.5505,28.5505,-22.4979,3.71319,16.7517,-0.0902301,0.18219,0.267624,1,1,0.42,-0.3675,0.595,-0.06588,0.575596,-0.669658,-0.03836,-0.0539,0.54124
13.5541,0,0,5,5,28.5541,28.5541,-22.5035,3.71325,16.7534,-0.0902312,0.1821,0.267587,1,1,0.42,-0.3675,0.595,-0.06588,0.575596,-0.669658,-0.03836,-0.0539,0.54124
13.5586,0,0,5,5,28.5586,28.5586,-22.5103,3.71206,16.7556,0.139154,0.155244,-0.20003,1,1,-0.2975,-1.12,0.5075,0.164456,0.548878,-1.13362,-0.03836,-0.0539,0.54124
13.563,0,0,5,5,28.563,28.563,-22.5171,3.71088,16.7577,0.139175,0.155134,-0.200075,1,1,-0.2975,-1.12,0.5075,0.164456,0.548878,-1.13362,-0.03836,-0.0539,0.54124
13.5659,0,0,5,5,28.5659,28.5659,-22.5214,3.71141,16.7579,0.106365,0.0171847,-0.130515,1,1,1.2075,0.2275,-0.1225,0.131516,0.41114,-1.06457,-0.03836,-0.0539,0.54124
13.5693,0,0,5,5,28.5693,28.5693,-22.5265,3.71217,16.7577,0.0471879,-0.167797,0.224894,1,1,0.735,0.455,-0.315,0.072102,0.226432,-0.71187,-0.04074,-0.05796,0.54306
13.5728,0,0,5,5,28.5728,28.5728,-22.5317,3.7127,16.7567,0.0471787,-0.167881,0.224859,1,1,0.7,0.49,-0.7525,0.072102,0.226432,-0.71187,-0.04074,-0.05796,0.54306
13.5774,0,0,5,5,28.5774,28.5774,-22.5388,3.71318,16.7556,0.321971,-0.075178,0.362022,1,1,-0.2975,0.5075,-0.8575,0.348066,0.319152,-0.575718,-0.04074,-0.05796,0.54306
13.5834,0,0,5,5,28.5834,28.5834,-22.5482,3.71151,16.7549,0.322,-0.0753305,0.361961,1,1,-1.6625,-0.7525,-1.12,0.348066,0.319152,-0.575718,-0.04074,-0.05796,0.54306
13.5896,0,0,5,5,28.5896,28.5896,-22.5581,3.71004,16.7546,0.0215915,0.370883,0.0723522,1,1,-1.9425,-0.735,-0.8575,0.04636,0.765062,-0.863028,-0.04074,-0.05796,0.54306
13.596,0,0,5,5,28.596,28.596,-22.5681,3.709,16.7544,0.0216096,0.370722,0.0722867,1,1,-1.9775,-0.525,-0.7,0.04636,0.765062,-0.863028,-0.04074,-0.05796,0.54306
13.6014,0,0,5,5,28.6014,28.6014,-22.5765,3.70862,16.7543,0.0801725,-0.0365849,-0.374564,1,1,-1.1375,-0.1925,-0.5075,0.105164,0.358314,-1.30638,-0.04074,-0.05796,0.54306
13.6068,0,0,5,5,28.6068,28.6068,-22.585,3.70823,16.7542,0.0801792,-0.0367211,-0.37462,1,1,-1.1375,-0.1925,-0.5075,0.105164,0.358314,-1.30638,-0.04074,-0.05796,0.54306
13.6122,0,0,5,5,28.6122,28.6122,-22.5935,3.70954,16.7542,-0.147386,-0.177913,-0.297836,1,1,-1.155,0.7175,-0.105,-0.123342,0.217404,-1.23013,-0.04242,-0.05698,0.54152
13.6171,0,0,5,5,28.6171,28.6171,-22.6011,3.71161,16.7542,0.256882,0.103711,0.320911,1,1,-0.6825,1.1025,0.1225,0.282674,0.498858,-0.6161,-0.04242,-0.05698,0.54152
13.6221,0,0,5,5,28.6221,28.6221,-22.6089,3.71427,16.754,0.256836,0.103588,0.320856,1,1,-0.7175,1.47,0.14,0.282674,0.498858,-0.6161,-0.04242,-0.05698,0.54152
13.6263,0,0,5,5,28.6263,28.6263,-22.6152,3.71664,16.7537,-0.164761,0.044744,-0.192253,1,1,0.0525,1.3475,0,-0.140666,0.440176,-1.12521,-0.04242,-0.05698,0.54152
13.6322,0,0,5,5,28.6322,28.6322,-22.6246,3.7167,16.7538,-0.164762,0.0445931,-0.192316,1,1,-1.6625,0,-0.2975,-0.140666,0.440176,-1.12521,-0.04242,-0.05698,0.54152
13.6381,0,0,5,5,28.6381,28.6381,-22.6338,3.71632,16.7537,0.127175,-0.153644,-0.222622,1,1,-1.54,-0.175,-0.5425,0.1525,0.242292,-1.15522,-0.04242,-0.05698,0.54152
13.6439,0,0,5,5,28.6439,28.6439,-22.6428,3.71553,16.7522,0.127188,-0.15379,-0.222682,1,1,-1.4175,-0.105,-1.3125,0.1525,0.242292,-1.15522,-0.04242,-0.05698,0.54152
13.6499,0,0,5,5,28.6499,28.6499,-22.6523,3.71526,16.7504,0.225961,0.441181,0.155321,1,1,-1.645,0.2625,-1.4175,0.251686,0.836798,-0.780068,-0.04242,-0.05698,0.54152
13.6562,0,0,5,5,28.6562,28.6562,-22.6622,3.71549,16.7479,0.225957,0.441022,0.155255,1,1,-1.855,0.665,-1.6275,0.251686,0.836798,-0.780068,-0.05068,-0.05782,0.53886
13.662,0,0,5,5,28.662,28.662,-22.6714,3.71633,16.7453,0.0298646,-0.231555,0.102939,1,1,-1.4525,1.0325,-1.575,0.054778,0.165066,-0.831918,-0.05068,-0.05782,0.53886
13.6677,0,0,5,5,28.6677,28.6677,-22.6803,3.71738,16.7429,0.0298462,-0.231698,0.102878,1,1,-1.33,1.12,-1.4525,0.054778,0.165066,-0.831918,-0.05068,-0.05782,0.53886
13.674,0,0,5,5,28.674,28.674,-22.6902,3.71782,16.7409,-0.207059,0.32614,0.0230173,1,1,-1.8725,0.665,-1.295,-0.183122,0.722484,-0.911096,-0.05068,-0.05782,0.53886
13.6801,0,0,5,5,28.6801,28.6801,-22.6999,3.71789,16.7403,-0.20706,0.325985,0.0229525,1,1,-1.7675,0.175,-0.7,-0.183122,0.722484,-0.911096,-0.05068,-0.05782,0.53886
13.6155,0,0,5,5,28.6155,28.6155,-22.5916,3.74033,16.7477,0.0134104,-0.128409,0.0428347,0,1,-2.31,0.14,-0.525,0.038674,0.266814,-0.892064,-0.05068,-0.05782,0.53886
13.5531,0,0,5,5,28.5531,28.5531,-22.487,3.76182,16.7555,0.0130361,-0.126716,0.0435107,0,1,-3.22,-0.2625,-0.35,0.038674,0.266814,-0.892064,-0.05068,-0.05782,0.53886
13.56,0,0,5,5,28.56,28.56,-22.4979,3.76403,16.7634,-0.103993,-0.00928287,-0.164102,1,1,-2.8175,-0.5775,4.375,-0.078812,0.3843,-1.098,-0.05068,-0.05782,0.53886
13.5666,0,0,5,5,28.5666,28.5666,-22.5085,3.76396,16.7648,-0.103992,-0.00945307,-0.164172,1,1,-2.38,-0.3675,0.4025,-0.078812,0.3843,-1.098,-0.04662,-0.05782,0.53438
13.5309,0,0,5,5,28.5309,28.5309,-22.4484,3.90835,16.7711,0.129783,-0.0770564,0.0177904,0,1,-2.2575,-0.7525,0.3325,0.158478,0.315736,-0.917684,-0.04662,-0.05782,0.53438
13.4947,0,0,5,5,28.4947,28.4947,-22.3875,4.05049,16.7769,0.127309,-0.0760105,0.0180356,0,1,-1.19,-0.4025,0.0875,0.158478,0.315736,-0.917684,-0.04662,-0.05782,0.53438
13.5777,0,0,5,5,28.5777,28.5777,-22.5253,3.99789,16.7689,-0.0502381,0.10396,0.061194,0,1,-1.225,-0.14,0.21,-0.02074,0.49776,-0.874008,-0.04662,-0.05782,0.53438
13.6593,0,0,5,5,28.6593,28.6593,-22.6606,3.94623,16.7611,-0.0493386,0.101761,0.0603466,0,1,-1.225,-0.14,0.21,-0.02074,0.49776,-0.874008,-0.04662,-0.05782,0.53438
13.7536,0,0,5,5,28.7536,28.7536,-22.8172,3.96481,16.7504,0.0139963,0.102063,0.0959105,0,1,-2.3625,-0.21,-0.8225,0.043188,0.500566,-0.837652,-0.04662,-0.05782,0.53438
13.8462,0,0,5,5,28.8462,28.8462,-22.971,3.98303,16.7399,0.0136791,0.0996054,0.0948486,0,1,-2.3625,-0.21,-0.8225,0.043188,0.500566,-0.837652,-0.04662,-0.05782,0.53438
13.8545,0,0,5,5,28.8545,28.8545,-22.9842,3.98317,16.7375,-0.157011,-0.0927116,0.110127,1,1,-3.71,0.6125,-1.61,-0.128222,0.30866,-0.822402,-0.04662,-0.05782,0.53438
13.8627,0,0,5,5,28.8627,28.8627,-22.9974,3.98331,16.7352,-0.157013,-0.0929233,0.110037,1,1,-3.71,0.6125,-1.61,-0.128222,0.30866,-0.822402,-0.04634,-0.06468,0.53298
13.9466,0,0,5,5,28.9466,28.9466,-23.1367,3.83806,16.7245,-0.136383,0.0961507,0.0684273,0,1,-4.06,0.63,-1.4175,-0.110044,0.499834,-0.862906,-0.04634,-0.06468,0.53298
14.029,0,0,5,5,29.029,29.029,-23.2734,3.69541,16.7144,-0.133898,0.0938984,0.0676397,0,1,-4.06,0.63,-1.4175,-0.110044,0.499834,-0.862906,-0.04634,-0.06468,0.53298
13.959,0,0,5,5,28.959,28.959,-23.1561,3.2359,16.721,-0.477351,-0.120458,-0.0606974,0,1,-3.4825,0.7175,-0.8575,-0.46299,0.284016,-0.991494,-0.04634,-0.06468,0.53298
13.8902,0,0,5,5,28.8902,28.8902,-23.0409,2.78391,16.7265,-0.469473,-0.118773,-0.0595285,0,1,-3.4825,0.7175,-0.8575,-0.46299,0.284016,-0.991494,-0.04634,-0.06468,0.53298
13.7294,0,0,5,5,28.7294,28.7294,-22.7724,2.50942,16.7389,-0.27274,-0.263175,-0.0863952,0,1,-3.71,1.365,-0.1925,-0.27023,0.135542,-1.02016,-0.04634,-0.06468,0.53298
13.5714,0,0,5,5,28.5714,28.5714,-22.5085,2.23954,16.7498,-0.268034,-0.259003,-0.0844438,0,1,-3.71,1.365,-0.1925,-0.27023,0.135542,-1.02016,-0.04634,-0.06468,0.53298
13.58,0,0,5,5,28.58,28.58,-22.5223,2.24205,16.7502,-0.422972,-0.443147,-0.150807,1,1,-4.13,1.26,0.42,-0.42578,-0.04819,-1.08592,-0.04634,-0.06468,0.53298
13.5887,0,0,5,5,28.5887,28.5887,-22.5361,2.24457,16.7506,-0.423016,-0.443368,-0.1509,1,1,-4.13,1.26,0.42,-0.42578,-0.04819,-1.08592,-0.04634,-0.06468,0.53298
13.5961,0,0,5,5,28.5961,28.5961,-22.5479,2.24414,16.752,-0.307962,-0.0925663,-0.119873,1,1,-3.045,-0.5425,0.28,-0.310246,0.302438,-1.05506,-0.0399,-0.0623,0.52794
13.6828,0,0,5,5,28.6828,28.6828,-22.6919,2.40812,16.7477,0.159814,0.118271,0.0515504,0,1,-2.24,-0.91,0,0.162382,0.515328,-0.88389,-0.0399,-0.0623,0.52794
13.7684,0,0,5,5,28.7684,28.7684,-22.8339,2.56978,16.7419,0.156996,0.116035,0.0504794,0,1,-2.5025,-0.2625,-0.56,0.162382,0.515328,-0.88389,-0.0399,-0.0623,0.52794
13.891,0,0,5,5,28.891,28.891,-23.0378,2.59986,16.7323,0.0207715,0.111183,0.161201,0,1,-2.66,0.42,-0.7525,0.026108,0.513742,-0.772626,-0.0399,-0.0623,0.52794
14.0121,0,0,5,5,29.0121,29.0121,-23.2389,2.62965,16.7218,0.0202521,0.107968,0.159802,0,1,-3.15,0.805,-1.225,0.026108,0.513742,-0.772626,-0.0399,-0.0623,0.52794
13.9456,0,0,5,5,28.9456,28.9456,-23.1275,2.658,16.7252,0.0234024,-0.119348,-0.0131811,0,1,-3.955,1.1375,-1.3475,0.029768,0.28487,-0.945012,-0.0399,-0.0623,0.52794
13.8798,0,0,5,5,28.8798,28.8798,-23.0173,2.68493,16.7293,0.0229329,-0.117571,-0.0124479,0,1,-3.4475,0.5075,-1.2075,0.029768,0.28487,-0.945012,-0.0399,-0.0623,0.52794
13.8712,0,0,5,5,28.8712,28.8712,-23.0023,2.4504,16.73,-0.220323,-0.0353338,0.0162237,0,1,-3.64,0.2275,-0.63,-0.218624,0.366854,-0.91683,-0.04354,-0.06566,0.52444
14.1174,0,0,5,5,29.1174,29.1174,-23.4122,2.58421,16.7128,0.106813,0.239763,0.29671,0,1,-3.7975,-0.42,-0.385,0.11224,0.648186,-0.63562,-0.04354,-0.06566,0.52444
14.3599,0,0,5,5,29.3599,29.3599,-23.8156,2.71612,16.6956,0.104513,0.23336,0.293794,0,1,-4.06,-0.2975,0.035,0.11224,0.648186,-0.63562,-0.04354,-0.06566,0.52444
14.3683,0,0,5,5,29.3683,29.3683,-23.8291,2.71648,16.6971,0.0387835,0.108821,0.295052,1,1,-3.955,-0.175,0.525,0.046238,0.52399,-0.634278,-0.04354,-0.06566,0.52444
14.3758,0,0,5,5,29.3758,29.3758,-23.8409,2.71845,16.6986,0.0387492,0.108633,0.294967,1,1,-3.0975,0.6825,0.9275,0.046238,0.52399,-0.634278,-0.04354,-0.06566,0.52444
14.375,0,0,5,5,29.375,29.375,-23.8391,2.64514,16.7007,-0.0695528,-0.0412121,0.0643831,0,1,-2.8,0.805,0.9275,-0.063806,0.374296,-0.86315,-0.04354,-0.06566,0.52444
14.3732,0,0,5,5,29.3732,29.3732,-23.8355,2.57176,16.703,-0.0682735,-0.0411773,0.0644622,0,1,-1.75,0,0.7175,-0.063806,0.374296,-0.86315,-0.04354,-0.06566,0.52444
14.4525,0,0,5,5,29.4525,29.4525,-23.9671,2.6213,16.6995,0.0468816,0.104636,0.0525544,0,1,-1.12,-0.49,0.7525,0.052704,0.522038,-0.874008,-0.04354,-0.06566,0.52444
14.5313,0,0,5,5,29.5313,29.5313,-24.0977,2.6683,16.6958,0.0460622,0.102571,0.0515922,0,1,-1.925,-1.3125,0.2625,0.052704,0.522038,-0.874008,-0.04298,-0.06286,0.52458
14.6755,0,0,5,5,29.6755,29.6755,-24.3375,2.94619,16.6858,0.286012,0.212679,0.0982256,0,1,-2.1525,-1.155,-0.105,0.298534,0.635742,-0.825818,-0.04298,-0.06286,0.52458
14.8169,0,0,5,5,29.8169,29.8169,-24.5726,3.22024,16.6733,0.281235,0.209056,0.0962954,0,1,-1.715,-0.2625,-0.6825,0.298534,0.635742,-0.825818,-0.04298,-0.06286,0.52458
14.8238,0,0,5,5,29.8238,29.8238,-24.5834,3.22029,16.6722,0.106174,0.160523,-0.17304,1,1,-2.4325,0.28,-0.91,0.122732,0.58743,-1.093,-0.04298,-0.06286,0.52458
14.8315,0,0,5,5,29.8315,29.8315,-24.5957,3.22034,16.6697,0.106173,0.160328,-0.173129,1,1,-3.2025,0.63,-1.68,0.122732,0.58743,-1.093,-0.04298,-0.06286,0.52458
14.8395,0,0,5,5,29.8395,29.8395,-24.6084,3.21977,16.6676,-0.129256,0.185529,-0.113468,1,1,-3.4475,0.21,-1.645,-0.113704,0.612806,-1.03371,-0.04298,-0.06286,0.52458
14.8483,0,0,5,5,29.8483,29.8483,-24.6224,3.22001,16.6658,-0.129261,0.185306,-0.11357,1,1,-4.235,0.56,-1.26,-0.113704,0.612806,-1.03371,-0.04298,-0.06286,0.52458
14.7791,0,0,5,5,29.7791,29.7791,-24.5065,3.03237,16.6712,-0.168632,-0.141696,0.0385357,0,1,-3.9025,0.2275,-1.3125,-0.156526,0.284382,-0.883768,-0.04298,-0.06286,0.52458
14.7105,0,0,5,5,29.7105,29.7105,-24.3916,2.84962,16.6766,-0.165447,-0.13994,0.0395138,0,1,-3.3075,0.9275,-0.665,-0.156526,0.284382,-0.883768,-0.04298,-0.06286,0.52458
14.4509,0,0,5,5,29.4509,29.4509,-23.9582,2.68058,16.6973,-0.156912,-0.425599,0.00339398,0,1,-2.8525,0.84,-0.5075,-0.150914,-0.007808,-0.922808,-0.05124,-0.06734,0.52472
14.5062,0,0,5,5,29.5062,29.5062,-24.0498,2.80651,16.6929,0.104396,0.0288843,0.111089,0,1,-1.8375,1.2775,-0.105,0.113704,0.447618,-0.815204,-0.05124,-0.06734,0.52472
14.5608,0,0,5,5,29.5608,29.5608,-24.1402,2.92984,16.6894,0.102246,0.0274892,0.110347,0,1,-2.1525,0.875,0.35,0.113704,0.447618,-0.815204,-0.05124,-0.06734,0.52472
14.5677,0,0,5,5,29.5677,29.5677,-24.1511,2.93117,16.6906,0.237315,-0.064157,0.230512,1,1,-2.555,0.4025,0.6125,0.249368,0.35624,-0.695888,-0.05124,-0.06734,0.52472
14.5741,0,0,5,5,29.5741,29.5741,-24.1612,2.93005,16.6917,0.237334,-0.0643173,0.230441,1,1,-2.065,-0.8575,-0.07,0.249368,0.35624,-0.695888,-0.05124,-0.06734,0.52472
14.6218,0,0,5,5,29.6218,29.6218,-24.24,3.11125,16.689,0.193964,0.0904534,-0.0282202,0,1,-2.2225,-1.2425,-0.315,0.208986,0.512034,-0.951844,-0.05124,-0.06734,0.52472
14.6683,0,0,5,5,29.6683,29.6683,-24.3169,3.28929,16.6848,0.190862,0.0893035,-0.0289292,0,1,-1.855,-0.875,-1.015,0.208986,0.512034,-0.951844,-0.05124,-0.06734,0.52472
14.672,0,0,5,5,29.672,29.672,-24.3226,3.28755,16.684,0.0883582,0.207065,-0.0319192,1,1,0.4375,-0.735,-1.225,0.106018,0.629764,-0.954772,-0.05124,-0.06734,0.52472
14.6811,0,0,5,5,29.6811,29.6811,-24.3371,3.28738,16.6813,0.0883612,0.206834,-0.0320232,1,1,-4.445,0.5425,-1.82,0.106018,0.629764,-0.954772,-0.04606,-0.0581,0.53116
14.5738,0,0,5,5,29.5738,29.5738,-24.1577,3.01542,16.6893,-0.260058,-0.180129,-0.0346816,0,1,-1.4175,0.3675,-1.715,-0.248636,0.240462,-0.95892,-0.04606,-0.0581,0.53116
14.4684,0,0,5,5,29.4684,29.4684,-23.9814,2.7486,16.6968,-0.255407,-0.177419,-0.0332147,0,1,-1.4,0.5075,-1.365,-0.248636,0.240462,-0.95892,-0.04606,-0.0581,0.53116
14.5496,0,0,5,5,29.5496,29.5496,-24.1162,2.5167,16.6901,-0.234113,0.13215,0.00743136,0,1,-3.7625,-0.0875,-1.1025,-0.231312,0.551928,-0.917806,-0.04606,-0.0581,0.53116
14.6293,0,0,5,5,29.6293,29.6293,-24.2484,2.28831,16.6856,-0.230131,0.129978,0.00663944,0,1,-3.7275,-0.7525,-0.42,-0.231312,0.551928,-0.917806,-0.04606,-0.0581,0.53116
14.636,0,0,5,5,29.636,29.636,-24.259,2.28772,16.6863,-0.093449,0.360262,0.122504,1,1,-2.3625,-0.5075,-0.0875,-0.094062,0.782142,-0.80276,-0.04606,-0.0581,0.53116
14.6421,0,0,5,5,29.6421,29.6421,-24.2686,2.2887,16.6875,-0.0934661,0.360111,0.122435,1,1,-1.785,0.2275,0.5075,-0.094062,0.782142,-0.80276,-0.04606,-0.0581,0.53116
14.7238,0,0,5,5,29.7238,29.7238,-24.4041,2.35256,16.6833,0.0495023,0.0558341,0.144288,0,1,-0.315,0.385,0.455,0.05063,0.480314,-0.780068,-0.04606,-0.0581,0.53116
14.8039,0,0,5,5,29.8039,29.8039,-24.537,2.41623,16.6795,0.048392,0.0537439,0.143286,0,1,-0.21,0.805,0.91,0.05063,0.480314,-0.780068,-0.03864,-0.05992,0.53228
14.9841,0,0,5,5,29.9841,29.9841,-24.8367,2.90845,16.6672,0.487607,0.208905,0.252747,0,1,0.035,0.98,0.9625,0.500322,0.63989,-0.668926,-0.03864,-0.05992,0.53228
15.1665,0,0,5,5,30.1665,30.1665,-25.1399,3.39113,16.6527,0.479195,0.204311,0.250096,0,1,-4.3575,-0.0875,0.5075,0.500322,0.63989,-0.668926,-0.03864,-0.05992,0.53228
15.1712,0,0,5,5,30.1712,30.1712,-25.1472,3.39086,16.6541,0.518075,0.490461,0.172953,1,1,-0.525,-0.49,0.28,0.539362,0.925858,-0.74542,-0.03864,-0.05992,0.53228
15.1759,0,0,5,5,30.1759,30.1759,-25.1544,3.38867,16.6551,0.518113,0.490346,0.172902,1,1,-0.4725,-1.435,-0.3325,0.539362,0.925858,-0.74542,-0.03864,-0.05992,0.53228
15.1796,0,0,5,5,30.1796,30.1796,-25.1599,3.38618,16.6565,0.293408,-0.0403823,0.234215,1,1,0.4725,-1.6625,-0.28,0.313662,0.395768,-0.684542,-0.03864,-0.05992,0.53228
15.183,0,0,5,5,30.183,30.183,-25.165,3.38513,16.6558,0.293427,-0.0404631,0.234178,1,1,0.77,-0.385,-0.9975,0.313662,0.395768,-0.684542,-0.03864,-0.05992,0.53228
15.1421,0,0,5,5,30.1421,30.1421,-25.0962,3.79524,16.6594,0.372902,-0.121135,0.0931365,0,1,-0.175,0.1225,-0.98,0.400648,0.313906,-0.824598,-0.03864,-0.05992,0.53228
15.1024,0,0,5,5,30.1024,30.1024,-25.0294,4.19908,16.6627,0.365871,-0.119873,0.093184,0,1,-0.665,0.63,-1.2775,0.400648,0.313906,-0.824598,-0.03962,-0.05544,0.53158
15.1012,0,0,5,5,30.1012,30.1012,-25.0267,4.49924,16.6625,0.265159,-0.057134,0.0932126,0,1,-2.345,0.7525,-0.805,0.304756,0.37637,-0.824232,-0.03962,-0.05544,0.53158
15.0995,0,0,5,5,30.0995,30.0995,-25.0233,4.7938,16.6635,0.260035,-0.056904,0.0928604,0,1,-1.96,0.245,-0.28,0.304756,0.37637,-0.824232,-0.03962,-0.05544,0.53158
14.9057,0,0,5,5,29.9057,29.9057,-24.6996,4.61327,16.6918,-0.179518,-0.308859,-0.0947394,0,1,-0.875,0.0175,0.35,-0.139812,0.119682,-1.01297,-0.03962,-0.05544,0.53158
14.7095,0,0,5,5,29.7095,29.7095,-24.3721,4.43558,16.7189,-0.176427,-0.303776,-0.0921503,0,1,4.4275,-0.0875,0.49,-0.139812,0.119682,-1.01297,-0.03962,-0.05544,0.53158
14.7118,0,0,5,5,29.7118,29.7118,-24.3754,4.43673,16.7202,-0.621813,-0.107082,-0.0145949,1,1,1.6975,0.2975,0.595,-0.587064,0.316224,-0.935984,-0.03962,-0.05544,0.53158
14.714,0,0,5,5,29.714,29.714,-24.3784,4.43773,16.7212,-0.621831,-0.107128,-0.0146175,1,1,1.89,0.28,0.42,-0.587064,0.316224,-0.935984,-0.03962,-0.05544,0.53158
14.7172,0,0,5,5,29.7172,29.7172,-24.3831,4.43809,16.7223,-0.314478,-0.191349,-0.247148,1,1,0.875,-0.0875,0.315,-0.278404,0.232166,-1.16669,-0.03962,-0.05544,0.53158
14.721,0,0,5,5,29.721,29.721,-24.3889,4.43759,16.7229,-0.314469,-0.19144,-0.247188,1,1,0.3675,-0.4025,-0.1925,-0.278404,0.232166,-1.16669,-0.04256,-0.05852,0.53228
14.7257,0,0,5,5,29.7257,29.7257,-24.3961,4.43689,16.7228,-0.0049117,-0.135132,-0.211215,1,1,-0.42,-0.35,-0.595,0.032452,0.28853,-1.13094,-0.04256,-0.05852,0.53228
14.7299,0,0,5,5,29.7299,29.7299,-24.4025,4.43592,16.7222,-0.00489474,-0.135234,-0.21126,1,1,0.0175,-0.385,-0.91,0.032452,0.28853,-1.13094,-0.04256,-0.05852,0.53228
14.7328,0,0,5,5,29.7328,29.7328,-24.4067,4.43472,16.7212,-0.143853,-0.250345,-0.215593,1,1,1.2775,-0.4025,-1.19,-0.107116,0.173606,-1.13521,-0.04256,-0.05852,0.53228
14.7352,0,0,5,5,29.7352,29.7352,-24.4101,4.43335,16.72,-0.14383,-0.2504,-0.215615,1,1,1.75,-0.455,-1.3125,-0.107116,0.173606,-1.13521,-0.04256,-0.05852,0.53228
14.7377,0,0,5,5,29.7377,29.7377,-24.4136,4.43238,16.7186,-0.157662,-0.20478,-0.236294,1,1,1.715,-0.175,-1.365,-0.121024,0.219234,-1.15571,-0.04256,-0.05852,0.53228
14.7411,0,0,5,5,29.7411,29.7411,-24.4186,4.43305,16.717,-0.157674,-0.20486,-0.236332,1,1,0.84,0.7175,-1.015,-0.121024,0.219234,-1.15571,-0.04256,-0.05852,0.53228
14.7465,0,0,5,5,29.7465,29.7465,-24.427,4.43294,16.716,-0.0788277,-0.0077574,-0.188564,1,1,-1.0325,0.175,-0.91,-0.041846,0.416264,-1.10825,-0.04256,-0.05852,0.53228
14.7524,0,0,5,5,29.7524,29.7524,-24.4363,4.43341,16.7163,-0.0788359,-0.00790517,-0.188632,1,1,-1.645,0.1925,-0.14,-0.041846,0.416264,-1.10825,-0.04256,-0.05852,0.53228
14.7806,0,0,5,5,29.7806,29.7806,-24.4826,4.1316,16.714,-0.313153,0.064597,-0.0437744,0,1,-0.525,-0.0175,0.0525,-0.28243,0.489586,-0.964532,-0.04312,-0.06062,0.5299
14.8067,0,0,5,5,29.8067,29.8067,-24.5255,3.83553,16.713,-0.307998,0.0637691,-0.0437573,0,1,0.8925,0.035,0.7,-0.28243,0.489586,-0.964532,-0.04312,-0.06062,0.5299
14.8741,0,0,5,5,29.8741,29.8741,-24.6372,3.54082,16.7077,-0.277353,0.0635711,0.104379,0,1,2.5375,-0.175,0.6825,-0.25681,0.491294,-0.817034,-0.04312,-0.06062,0.5299
14.9391,0,0,5,5,29.9391,29.9391,-24.7451,3.2526,16.7034,-0.272331,0.0617397,0.103865,0,1,3.6225,0.5075,1.2075,-0.25681,0.491294,-0.817034,-0.04312,-0.06062,0.5299
14.9395,0,0,5,5,29.9395,29.9395,-24.745,3.25407,16.7053,0.102305,0.189974,-0.0334698,1,1,3.57,0.2975,1.015,0.119438,0.619394,-0.953308,-0.04312,-0.06062,0.5299
14.9421,0,0,5,5,29.9421,29.9421,-24.7487,3.25391,16.7064,0.102308,0.189916,-0.0334962,1,1,1.5225,-0.35,0.1575,0.119438,0.619394,-0.953308,-0.04312,-0.06062,0.5299
14.9458,0,0,5,5,29.9458,29.9458,-24.7543,3.25362,16.7066,0.50844,0.202162,-0.00907011,1,1,0.455,-0.21,-0.3325,0.527284,0.631716,-0.92903,-0.04312,-0.06062,0.5299
14.9502,0,0,5,5,29.9502,29.9502,-24.761,3.25178,16.7062,0.508472,0.202054,-0.00911802,1,1,-0.1925,-0.8925,-1.015,0.527284,0.631716,-0.92903,-0.04312,-0.06062,0.5299
15.0959,0,0,5,5,30.0959,30.0959,-25.0033,3.51349,16.6905,0.267136,0.206766,0.124843,0,1,0.6125,-0.7525,-1.8375,0.289506,0.640134,-0.794098,-0.04592,-0.0546,0.53354
15.1825,0,0,5,5,30.1825,30.1825,-25.1468,3.51898,16.6803,-0.000470933,0.0661334,0.145662,0,1,1.68,-0.28,-1.5225,0.020862,0.501908,-0.772382,-0.04592,-0.0546,0.53354
15.2667,0,0,5,5,30.2667,30.2667,-25.2866,3.52571,16.6702,-0.000588241,0.0639344,0.144619,0,1,2.3975,0.455,-1.2075,0.020862,0.501908,-0.772382,-0.04592,-0.0546,0.53354
15.2694,0,0,5,5,30.2694,30.2694,-25.2906,3.52707,16.6701,0.274432,-0.0806038,-0.257946,1,1,1.365,0.735,-0.07,0.29707,0.357582,-1.17181,-0.04592,-0.0546,0.53354
15.2735,0,0,5,5,30.2735,30.2735,-25.2966,3.52915,16.6697,0.274395,-0.0806986,-0.257993,1,1,0.21,1.2075,-0.0875,0.29707,0.357582,-1.17181,-0.04592,-0.0546,0.53354
15.1692,0,0,5,5,30.1692,30.1692,-25.1222,3.66828,16.6818,0.122059,-0.183525,-0.00294812,0,1,-0.525,0.7525,0.5075,0.146522,0.252052,-0.91988,-0.04592,-0.0546,0.53354
15.0667,0,0,5,5,30.0667,30.0667,-24.9508,3.80496,16.6943,0.119678,-0.180754,-0.00182553,0,1,-0.525,0.7525,0.5075,0.146522,0.252052,-0.91988,-0.04592,-0.0546,0.53354
15.0696,0,0,5,5,30.0696,30.0696,-24.955,3.80621,16.6958,-0.43529,-0.353874,-0.336893,1,1,1.1725,0.2975,0.7175,-0.410774,0.079178,-1.25233,-0.04592,-0.0546,0.53354
15.0726,0,0,5,5,30.0726,30.0726,-24.9593,3.80746,16.6972,-0.435312,-0.35394,-0.336925,1,1,1.1725,0.2975,0.7175,-0.410774,0.079178,-1.25233,-0.03822,-0.05838,0.52836
15.0723,0,0,5,5,30.0723,30.0723,-24.9583,3.80652,16.6978,-0.498225,-0.29164,-0.259582,1,1,4.1475,-0.6475,-0.2975,-0.47397,0.141398,-1.17559,-0.03822,-0.05838,0.52836
15.0721,0,0,5,5,30.0721,30.0721,-24.9573,3.80558,16.6984,-0.498209,-0.291625,-0.259574,1,1,4.1475,-0.6475,-0.2975,-0.47397,0.141398,-1.17559,-0.03822,-0.05838,0.52836
15.0738,0,0,5,5,30.0738,30.0738,-24.9595,3.80355,16.6972,-0.156677,0.178527,-0.134427,1,1,2.38,-0.805,-1.4525,-0.131028,0.611098,-1.0514,-0.03822,-0.05838,0.52836
15.0756,0,0,5,5,30.0756,30.0756,-24.9618,3.80153,16.6961,-0.156642,0.17849,-0.134441,1,1,2.38,-0.805,-1.4525,-0.131028,0.611098,-1.0514,-0.03822,-0.05838,0.52836
15.0788,0,0,5,5,30.0788,30.0788,-24.9666,3.79924,16.6939,0.42009,-0.0211427,-0.0763196,1,1,0.9625,-0.6825,-2.0825,0.448106,0.41175,-0.99369,-0.03822,-0.05838,0.52836
15.0805,0,0,5,5,30.0805,30.0805,-24.9688,3.79731,16.6919,-0.569134,0.370117,-0.0137525,1,1,2.485,-0.525,-1.925,-0.54534,0.802638,-0.931592,-0.03822,-0.05838,0.52836
15.0827,0,0,5,5,30.0827,30.0827,-24.9718,3.79651,16.6906,-0.56912,0.370068,-0.0137743,1,1,1.925,-0.105,-1.26,-0.54534,0.802638,-0.931592,-0.03822,-0.05838,0.52836
14.8165,0,0,5,5,29.8165,29.8165,-24.5275,3.60868,16.7186,-0.185477,-0.436479,-0.0547264,0,1,2.1175,0.1925,-0.8225,-0.163358,-0.010004,-0.975634,-0.0483,-0.06174,0.53102
14.5564,0,0,5,5,29.5564,29.5564,-24.0935,3.42502,16.7451,-0.182277,-0.429669,-0.0514346,0,1,0.35,0.8575,-0.2975,-0.163358,-0.010004,-0.975634,-0.0483,-0.06174,0.53102
14.3468,0,0,5,5,29.3468,29.3468,-23.7435,3.59038,16.7682,0.174925,-0.346596,-0.155598,0,1,-0.91,0.3325,0.5775,0.19825,0.067344,-1.08129,-0.0483,-0.06174,0.53102
14.3502,0,0,5,5,29.3502,29.3502,-23.7486,3.59147,16.7701,-0.364126,0.0116426,-0.136332,1,1,0.665,0.1225,0.9275,-0.343064,0.425292,-1.06213,-0.0483,-0.06174,0.53102
14.3521,0,0,5,5,29.3521,29.3521,-23.7512,3.59267,16.7724,-0.364146,0.0116021,-0.136351,1,1,2.0825,0.105,1.12,-0.343064,0.425292,-1.06213,-0.0483,-0.06174,0.53102
14.3523,0,0,5,5,29.3523,29.3523,-23.7509,3.59344,16.7742,-0.0756313,0.0432376,0.191308,1,1,3.6925,-0.0175,0.77,-0.053314,0.45689,-0.737002,-0.0483,-0.06174,0.53102
14.3525,0,0,5,5,29.3525,29.3525,-23.7506,3.5939,16.7754,-0.0756393,0.043242,0.191309,1,1,3.71,-0.035,0.3675,-0.053314,0.45689,-0.737002,-0.0483,-0.06174,0.53102
14.3544,0,0,5,5,29.3544,29.3544,-23.7531,3.59485,16.7757,0.492411,0.180473,-0.0568191,1,1,2.1875,0.42,0.0525,0.517158,0.594018,-0.983198,-0.0483,-0.06174,0.53102
14.3569,0,0,5,5,29.3569,29.3569,-23.7568,3.59454,16.7752,0.492417,0.180415,-0.0568442,1,1,1.5925,-0.0525,-0.7175,0.517158,0.594018,-0.983198,-0.04662,-0.06062,0.53004
14.3596,0,0,5,5,29.3596,29.3596,-23.7607,3.59415,16.7748,0.464603,0.175346,-0.10101,1,1,1.435,-0.105,-0.7,0.48922,0.589016,-1.027,-0.04662,-0.06062,0.53004
14.3621,0,0,5,5,29.3621,29.3621,-23.7642,3.59333,16.7739,0.464617,0.175288,-0.101034,1,1,1.6275,-0.245,-1.015,0.48922,0.589016,-1.027,-0.04662,-0.06062,0.53004
14.3135,0,0,5,5,29.3135,29.3135,-23.6827,3.16512,16.7778,-0.441859,-0.0853052,-0.0186669,0,1,2.625,0.14,-0.9275,-0.428586,0.32757,-0.946232,-0.04662,-0.06062,0.53004
14.2651,0,0,5,5,29.2651,29.2651,-23.6015,2.74441,16.782,-0.434526,-0.0841608,-0.0177527,0,1,3.15,0.245,-0.315,-0.428586,0.32757,-0.946232,-0.04662,-0.06062,0.53004
14.266,0,0,5,5,29.266,29.266,-23.6024,2.74435,16.7826,-0.550301,-0.152933,-0.148084,1,1,3.08,-0.1925,-0.035,-0.544852,0.258884,-1.07555,-0.04662,-0.06062,0.53004
14.2691,0,0,5,5,29.2691,29.2691,-23.6069,2.74581,16.7836,-0.550326,-0.153004,-0.148117,1,1,1.0675,0.5425,0.5075,-0.544852,0.258884,-1.07555,-0.04662,-0.06062,0.53004
14.1232,0,0,5,5,29.1232,29.1232,-23.3631,2.9775,16.7976,0.216948,-0.251002,-0.0239062,0,1,0.2275,0.7875,0.945,0.229726,0.157014,-0.953796,-0.04662,-0.06062,0.53004
13.9795,0,0,5,5,28.9795,28.9795,-23.1231,3.20419,16.8127,0.212997,-0.247075,-0.0224515,0,1,0.385,0.14,0.91,0.229726,0.157014,-0.953796,-0.04424,-0.06524,0.52556
13.9868,0,0,5,5,28.9868,28.9868,-23.1346,3.60248,16.8139,0.359859,-0.0507173,0.135817,0,1,1.2075,0.105,0.6825,0.384178,0.35319,-0.796294,-0.04424,-0.06524,0.52556
13.9917,0,0,5,5,28.9917,28.9917,-23.1422,3.99363,16.8149,0.353047,-0.050661,0.135349,0,1,3.3075,-0.1925,0.49,0.384178,0.35319,-0.796294,-0.04424,-0.06524,0.52556
13.9896,0,0,5,5,28.9896,28.9896,-23.1381,3.77501,16.8158,-0.215101,-0.00294516,-0.00430056,0,1,3.3775,-0.3325,-0.0875,-0.190198,0.400892,-0.93513,-0.04424,-0.06524,0.52556
13.9882,0,0,5,5,28.9882,28.9882,-23.1353,3.55998,16.816,-0.211355,-0.00299505,-0.00406081,0,1,2.695,-0.28,-0.5425,-0.190198,0.400892,-0.93513,-0.04424,-0.06524,0.52556
14.0552,0,0,5,5,29.0552,29.0552,-23.2463,3.59743,16.8082,0.0386171,0.105769,0.0272299,0,1,2.205,0.1575,-0.9275,0.061488,0.511302,-0.903288,-0.04424,-0.06524,0.52556
14.121,0,0,5,5,29.121,29.121,-23.3553,3.63422,16.8005,0.0379764,0.10404,0.0264415,0,1,2.205,0.1575,-0.9275,0.061488,0.511302,-0.903288,-0.04424,-0.06524,0.52556
14.086,0,0,5,5,29.086,29.086,-23.2966,4.02679,16.8027,0.384299,-0.0939052,0.0612208,0,1,1.4,-0.5775,-1.89,0.416142,0.312442,-0.868762,-0.04424,-0.06524,0.52556
14.0517,0,0,5,5,29.0517,29.0517,-23.2387,4.41293,16.8052,0.377578,-0.0927843,0.061163,0,1,1.4,-0.5775,-1.89,0.416142,0.312442,-0.868762,-0.05236,-0.05936,0.52332
14.0157,0,0,5,5,29.0157,29.0157,-23.1782,4.68302,16.8083,0.26099,-0.0760371,0.021522,0,1,2.5025,1.155,-1.05,0.30378,0.328058,-0.908168,-0.05236,-0.05936,0.52332
13.9804,0,0,5,5,28.9804,28.9804,-23.1187,4.94849,16.8116,0.256373,-0.0749323,0.0215713,0,1,2.5025,1.155,-1.05,0.30378,0.328058,-0.908168,-0.05236,-0.05936,0.52332
13.9837,0,0,5,5,28.9837,28.9837,-23.1237,4.95021,16.8113,-0.510474,-0.239761,-0.133257,1,1,0.805,0.9975,-0.1575,-0.466284,0.16348,-1.06177,-0.05236,-0.05936,0.52332
13.9871,0,0,5,5,28.9871,28.9871,-23.1287,4.95192,16.8109,-0.510504,-0.23984,-0.133294,1,1,0.805,0.9975,-0.1575,-0.466284,0.16348,-1.06177,-0.05236,-0.05936,0.52332
13.991,0,0,5,5,28.991,28.991,-23.1347,4.95202,16.8131,-0.653373,-0.483823,-0.155958,1,1,0.14,-0.455,0.8225,-0.609756,-0.080154,-1.08421,-0.05236,-0.05936,0.52332
13.9949,0,0,5,5,28.9949,28.9949,-23.1407,4.95211,16.8153,-0.653374,-0.483918,-0.155999,1,1,0.14,-0.455,0.8225,-0.609756,-0.080154,-1.08421,-0.05236,-0.05936,0.52332
13.9963,0,0,5,5,28.9963,28.9963,-23.1424,4.95148,16.8155,-0.230715,0.0645254,-0.260516,1,1,2.6425,-0.4025,-0.385,-0.185318,0.467748,-1.18791,-0.05236,-0.05936,0.52332
13.9974,0,0,5,5,28.9974,28.9974,-23.1436,4.9511,16.8157,0.048709,-0.105738,0.229058,1,0,2.94,-0.2625,-0.3325,0.095282,0.29768,-0.70211,-0.0462,-0.06594,0.51842
14.0308,0,0,5,5,29.0308,29.0308,-23.1987,4.99873,17.057,0.0866348,0.0420367,0.0100117,0,0,3.2025,-0.14,-0.9275,0.1342,0.446154,-0.919026,-0.0462,-0.06594,0.51842
14.065,0,0,5,5,29.065,29.065,-23.2551,5.04467,17.2989,0.0858359,0.0411631,0.0095604,0,0,2.03,-0.6475,-1.715,0.1342,0.446154,-0.919026,-0.0462,-0.06594,0.51842
14.0114,0,0,5,5,29.0114,29.0114,-23.1653,5.3846,17.1325,0.502941,-0.167369,0.019762,0,0,0.84,-0.945,-1.82,0.559004,0.236192,-0.909022,-0.0462,-0.06594,0.51842
13.9575,0,0,5,5,28.9575,28.9575,-23.0747,5.72343,16.9653,0.497055,-0.165698,0.0198534,0,0,1.5575,0.77,-1.4875,0.559004,0.236192,-0.909022,-0.0462,-0.06594,0.51842
13.959,0,0,5,5,28.959,28.959,-23.0768,5.7253,16.9635,0.0435164,0.225076,-0.0654899,1,0,2.555,1.435,-0.945,0.103578,0.626592,-0.99369,-0.0462,-0.06594,0.51842
13.9607,0,0,5,5,28.9607,28.9607,-23.0789,5.7262,16.9626,0.0435008,0.225043,-0.0655059,1,0,2.45,0.665,-0.595,0.103578,0.626592,-0.99369,-0.0462,-0.06594,0.51842
14.1338,0,0,5,5,29.1338,29.1338,-23.3668,5.44603,17.5755,-0.348405,0.269476,0.146275,0,0,2.0125,0.7875,-0.21,-0.294874,0.675758,-0.78202,-0.0462,-0.06594,0.51842
14.315,0,0,5,5,29.315,29.315,-23.6683,5.11827,17.55,-0.342709,0.264463,0.144668,0,1,-0.3675,1.2075,1.1025,-0.294874,0.675758,-0.78202,-0.04172,-0.06636,0.52444
14.2453,0,0,5,5,29.2453,29.2453,-23.5516,5.4537,17.5637,0.292056,-0.163838,0.0976504,0,1,0.35,-0.245,1.1375,0.348432,0.24583,-0.82899,-0.04172,-0.06636,0.52444
14.1773,0,0,5,5,29.1773,29.1773,-23.4376,5.78229,17.5773,0.286349,-0.161799,0.0979248,0,1,-0.105,-0.735,0.4375,0.348432,0.24583,-0.82899,-0.04172,-0.06636,0.52444
13.9926,0,0,5,5,28.9926,28.9926,-23.1292,6.2146,17.611,0.363885,-0.360399,0.123783,0,1,0.175,0.525,0.4025,0.433832,0.042212,-0.804712,-0.04172,-0.06636,0.52444
13.8084,0,0,5,5,28.8084,28.8084,-22.8216,6.64001,17.6475,0.356506,-0.355164,0.1251,0,1,1.9775,0.1925,0.875,0.433832,0.042212,-0.804712,-0.04172,-0.06636,0.52444
13.8096,0,0,5,5,28.8096,28.8096,-22.8231,6.64017,17.65,-0.990651,-0.289482,-0.10593,1,1,2.6425,-0.4725,0.98,-0.919026,0.107848,-1.03395,-0.04172,-0.06636,0.52444
13.8086,0,0,5,5,28.8086,28.8086,-22.8208,6.63937,17.6507,-0.990637,-0.289447,-0.105913,1,1,4.8125,-0.595,-0.175,-0.919026,0.107848,-1.03395,-0.04172,-0.06636,0.52444
13.8101,0,0,5,5,28.8101,28.8101,-22.8227,6.63785,17.6514,-0.564439,0.0762913,-0.190143,1,1,2.5025,-0.9975,-0.315,-0.49105,0.473238,-1.11752,-0.04172,-0.06636,0.52444
13.8118,0,0,5,5,28.8118,28.8118,-22.8251,6.63775,17.6515,-0.564437,0.0762527,-0.190159,1,0,2.24,-0.0875,-0.315,-0.49105,0.473238,-1.11752,-0.05152,-0.06468,0.51982
13.8126,0,0,5,5,28.8126,28.8126,-22.8257,6.63855,17.6504,0.4259,0.256014,-0.192624,1,0,3.325,0.6825,-0.7875,0.503494,0.652822,-1.11996,-0.05152,-0.06468,0.51982
13.8153,0,0,5,5,28.8153,28.8153,-22.8297,6.63858,17.6506,0.4259,0.255951,-0.19265,1,0,1.3825,-0.035,-0.2625,0.503494,0.652822,-1.11996,-0.05152,-0.06468,0.51982
13.9551,0,0,5,5,28.9551,28.9551,-23.0621,6.73763,17.7761,0.185828,0.144603,0.144686,0,0,2.1875,-0.665,-0.2975,0.26413,0.545218,-0.783484,-0.05152,-0.06468,0.51982
14.0937,0,0,5,5,29.0937,29.0937,-23.2925,6.83814,17.9037,0.184086,0.141014,0.142923,0,0,1.155,0.5075,0.42,0.26413,0.545218,-0.783484,-0.05152,-0.06468,0.51982
14.0968,0,0,5,5,29.0968,29.0968,-23.2971,6.84059,17.9049,-0.675103,-0.14581,-0.056535,1,0,0.9625,1.0325,0.84,-0.598654,0.258762,-0.981368,-0.05152,-0.06468,0.51982
14.1006,0,0,5,5,29.1006,29.1006,-23.3029,6.83925,17.9069,-0.67508,-0.145904,-0.0565723,1,0,0.21,-1.19,0.4025,-0.598654,0.258762,-0.981368,-0.05152,-0.06468,0.51982
14.211,0,0,5,5,29.211,29.211,-23.4863,6.84658,18.1635,0.0428945,0.107163,0.12805,0,0,0.3325,-0.9625,-0.14,0.122488,0.514474,-0.796904,-0.05152,-0.06468,0.51982
14.3183,0,0,5,5,29.3183,29.3183,-23.6646,6.85531,18.4265,0.0427433,0.104339,0.126798,0,0,1.645,0.0875,0.0525,0.122488,0.514474,-0.796904,-0.04494,-0.0665,0.51996
14.2472,0,0,5,5,29.2472,29.2472,-23.5455,7.1901,18.2497,0.491665,-0.201366,0.020004,0,0,2.73,0.4025,0.0175,0.579134,0.206912,-0.903044,-0.04494,-0.0665,0.51996
14.1755,0,0,5,5,29.1755,29.1755,-23.4254,7.52059,18.0719,0.485944,-0.199166,0.0201547,0,0,3.745,0.4025,-0.5075,0.579134,0.206912,-0.903044,-0.04494,-0.0665,0.51996
13.9481,0,0,5,5,28.9481,28.9481,-23.0458,7.41058,18.4933,-0.251878,-0.322316,-0.0580473,0,0,3.57,0.14,-1.75,-0.163724,0.077958,-0.983442,-0.04494,-0.0665,0.51996
13.7244,0,0,5,5,28.7244,28.7244,-22.6724,7.2993,18.9134,-0.249952,-0.316456,-0.0553071,0,0,3.57,0.14,-1.75,-0.163724,0.077958,-0.983442,-0.04494,-0.0665,0.51996
13.8091,0,0,5,5,28.8091,28.8091,-22.813,7.00687,19.5387,-0.405371,0.1604,0.0674092,0,0,2.3275,-0.0525,-1.6975,-0.324886,0.556808,-0.86132,-0.04494,-0.0665,0.51996
13.8919,0,0,5,5,28.8919,28.8919,-22.9504,6.71763,20.1678,-0.400359,0.157971,0.0670388,0,0,2.3275,-0.0525,-1.6975,-0.324886,0.556808,-0.86132,-0.04494,-0.0665,0.51996
13.8939,0,0,5,5,28.8939,28.8939,-22.9532,6.71821,20.1657,0.1253,0.259659,-0.0262989,1,0,2.1875,0.7875,-1.365,0.203008,0.658434,-0.953918,-0.04494,-0.0665,0.51996
13.8959,0,0,5,5,28.8959,28.8959,-22.956,6.71879,20.1636,0.12529,0.259615,-0.0263187,1,1,2.1875,0.7875,-1.365,0.203008,0.658434,-0.953918,-0.04494,-0.06146,0.52584
13.8965,0,0,5,5,28.8965,28.8965,-22.9564,6.72042,20.1634,0.791854,-0.18823,0.145434,1,1,3.3425,0.91,-0.07,0.872422,0.21106,-0.783484,-0.04494,-0.06146,0.52584
13.8972,0,0,5,5,28.8972,28.8972,-22.9569,6.72206,20.1633,0.791825,-0.188236,0.145428,1,1,3.3425,0.91,-0.07,0.872422,0.21106,-0.783484,-0.04494,-0.06146,0.52584
14.0451,0,0,5,5,29.0451,29.0451,-23.2028,6.93219,20.1345,0.223154,0.226543,0.107947,0,1,-0.035,-0.4725,-0.77,0.305,0.629154,-0.81862,-0.04494,-0.06146,0.52584
14.1907,0,0,5,5,29.1907,29.1907,-23.4449,7.1387,20.1053,0.219577,0.222867,0.105881,0,1,-0.035,-0.4725,-0.77,0.305,0.629154,-0.81862,-0.04494,-0.06146,0.52584
14.2208,0,0,5,5,29.2208,29.2208,-23.4945,6.53756,20.0996,-0.618341,-0.00728435,0.129799,0,1,1.4,0.875,-0.1925,-0.546926,0.400526,-0.795684,-0.04494,-0.06146,0.52584
14.2504,0,0,5,5,29.2504,29.2504,-23.5433,5.94485,20.0944,-0.608057,-0.00850948,0.130492,0,1,1.4,0.875,-0.1925,-0.546926,0.400526,-0.795684,-0.04494,-0.06146,0.52584
14.2502,0,0,5,5,29.2502,29.2502,-23.5423,5.94352,20.0952,-0.574018,0.0747958,-0.180435,1,1,4.1125,-0.91,-0.245,-0.512766,0.48373,-1.10422,-0.04494,-0.06146,0.52584
14.2499,0,0,5,5,29.2499,29.2499,-23.5413,5.94218,20.096,-0.573995,0.0748106,-0.180426,1,1,4.1125,-0.91,-0.245,-0.512766,0.48373,-1.10422,-0.04494,-0.06146,0.52584
14.2499,0,0,5,5,29.2499,29.2499,-23.5408,5.94402,20.0947,0.488851,0.00875029,-0.240424,1,0,3.99,1.2775,-0.6125,0.554612,0.417728,-1.16376,-0.04802,-0.06118,0.52318
14.4378,0,0,5,5,29.4378,29.4378,-23.8532,5.74912,20.6208,-0.207522,0.229578,0.209057,0,0,3.675,1.0675,-0.6475,-0.148108,0.643428,-0.715896,-0.04802,-0.06118,0.52318
14.4401,0,0,5,5,29.4401,29.4401,-23.8566,5.74945,20.6198,-0.193071,-0.313939,-0.259032,1,0,1.75,0.4025,-0.805,-0.13359,0.100528,-1.18035,-0.04802,-0.06118,0.52318
14.4432,0,0,5,5,29.4432,29.4432,-23.8611,5.75115,20.6202,-0.193101,-0.31401,-0.259067,1,0,1.0325,0.8225,0.2275,-0.13359,0.100528,-1.18035,-0.04802,-0.06118,0.52318
14.4454,0,0,5,5,29.4454,29.4454,-23.8641,5.75438,20.621,0.0308629,-0.550737,-0.218274,1,0,1.8725,1.5225,0.84,0.091378,-0.135908,-1.13985,-0.04802,-0.06118,0.52318
14.4465,0,0,5,5,29.4465,29.4465,-23.8653,5.75508,20.6237,0.0308507,-0.550756,-0.218284,1,0,2.7825,-0.2625,1.225,0.091378,-0.135908,-1.13985,-0.04802,-0.06118,0.52318
14.3407,0,0,5,5,29.3407,29.3407,-23.6884,5.55854,21.1735,-0.323025,-0.141642,0.0169896,0,0,1.1375,-0.6825,1.085,-0.267424,0.270108,-0.907924,-0.04802,-0.06118,0.52318
14.2366,0,0,5,5,29.2366,29.2366,-23.5143,5.36247,21.7234,-0.319619,-0.139001,0.0184988,0,0,0.9625,-0.8225,1.1725,-0.267424,0.270108,-0.907924,-0.04802,-0.06118,0.52318
14.2387,0,0,5,5,29.2387,29.2387,-23.5172,5.36262,21.7266,0.187946,-0.0687026,0.205237,1,1,1.8025,-0.665,1.365,0.242292,0.34038,-0.722606,-0.0448,-0.07042,0.52234
14.2387,0,0,5,5,29.2387,29.2387,-23.5167,5.36353,21.7289,-0.112625,0.00177354,-0.17836,1,1,3.78,-0.0525,1.0675,-0.059536,0.410774,-1.10325,-0.0448,-0.07042,0.52234
14.2386,0,0,5,5,29.2386,29.2386,-23.516,5.36204,21.7305,-0.1126,0.00178392,-0.178353,1,1,3.92,-1.1725,0.1225,-0.059536,0.410774,-1.10325,-0.0448,-0.07042,0.52234
14.2377,0,0,5,5,29.2377,29.2377,-23.5138,5.36039,21.7317,-0.294678,-0.379217,-0.215711,1,1,4.7775,-1.1725,-0.105,-0.242414,0.030134,-1.14033,-0.0448,-0.07042,0.52234
14.2381,0,0,5,5,29.2381,29.2381,-23.5139,5.36116,21.7318,-0.294691,-0.379219,-0.215713,1,1,3.535,0.3675,-0.105,-0.242414,0.030134,-1.14033,-0.0448,-0.07042,0.52234
14.2386,0,0,5,5,29.2386,29.2386,-23.5142,5.36156,21.7319,0.0251735,-0.19127,-0.181413,1,1,3.43,0.1925,-0.2275,0.078812,0.217892,-1.1063,-0.0448,-0.07042,0.52234
14.2389,0,0,5,5,29.2389,29.2389,-23.514,5.36084,21.7313,0.0251861,-0.191268,-0.181411,1,1,3.7275,-0.2625,-0.84,0.078812,0.217892,-1.1063,-0.0448,-0.07042,0.52234
14.2404,0,0,5,5,29.2404,29.2404,-23.516,5.36056,21.7304,0.464848,0.433501,-0.0944994,1,1,2.555,0.0525,-0.91,0.52033,0.842044,-1.02004,-0.04648,-0.0672,0.52178
14.2401,0,0,5,5,29.2401,29.2401,-23.515,5.36201,21.7301,-0.437087,-0.103229,-0.202566,1,1,4.1825,0.84,-0.175,-0.385398,0.305854,-1.12728,-0.04648,-0.0672,0.52178
14.2405,0,0,5,5,29.2405,29.2405,-23.5151,5.36256,21.7295,-0.437097,-0.10323,-0.202568,1,1,3.5875,0.4375,-0.5775,-0.385398,0.305854,-1.12728,-0.04648,-0.0672,0.52178
14.2443,0,0,5,5,29.2443,29.2443,-23.5208,5.3631,21.7282,-0.399081,-0.165239,0.106361,1,1,0.455,0.5775,-0.91,-0.347212,0.244,-0.820694,-0.04648,-0.0672,0.52178
14.2481,0,0,5,5,29.2481,29.2481,-23.5264,5.3618,21.728,-0.399059,-0.16533,0.106324,1,1,0.455,-0.6475,-0.805,-0.347212,0.244,-0.820694,-0.04648,-0.0672,0.52178
14.2111,0,0,5,5,29.2111,29.2111,-23.4643,5.65708,21.7342,0.278561,-0.0963621,0.0653588,0,1,2.135,-0.805,-0.7,0.338428,0.31171,-0.86132,-0.04648,-0.0672,0.52178
14.1724,0,0,5,5,29.1724,29.1724,-23.3992,5.94864,21.7407,0.273499,-0.0951198,0.0653365,0,1,4.3575,-0.1575,-0.4375,0.338428,0.31171,-0.86132,-0.04648,-0.0672,0.52178
14.1769,0,0,5,5,29.1769,29.1769,-23.4061,6.20948,21.74,0.281849,0.0129209,-0.00326739,0,1,5.2325,-0.6125,-0.4025,0.35136,0.419558,-0.928908,-0.04648,-0.0672,0.52178
14.1808,0,0,5,5,29.1808,29.1808,-23.4119,6.46622,21.738,0.277396,0.0130256,-0.00376108,0,1,5.915,-0.1575,-0.9975,0.35136,0.419558,-0.928908,-0.04634,-0.06412,0.52472
14.2979,0,0,5,5,29.2979,29.2979,-23.6066,6.1986,21.7144,-0.280198,0.200118,0.0595431,0,1,6.16,0.91,-0.98,-0.213256,0.609756,-0.865224,-0.04634,-0.06412,0.52472
14.4149,0,0,5,5,29.4149,29.4149,-23.8009,5.93446,21.6919,-0.275614,0.196835,0.0586338,0,1,4.515,0.5075,-1.3125,-0.213256,0.609756,-0.865224,-0.04634,-0.06412,0.52472
14.5688,0,0,5,5,29.5688,29.5688,-24.0568,5.65357,21.6644,-0.29479,0.246919,0.102283,0,1,3.7975,0.0875,-1.4,-0.237412,0.664046,-0.820572,-0.04634,-0.06412,0.52472
14.7206,0,0,5,5,29.7206,29.7206,-24.3093,5.37761,21.6384,-0.289996,0.242728,0.100908,0,1,3.255,0.3675,-1.295,-0.237412,0.664046,-0.820572,-0.04634,-0.06412,0.52472
14.7208,0,0,5,5,29.7208,29.7208,-24.309,5.37772,21.6373,0.513265,-0.00420716,-0.0276937,1,1,3.8325,0.3325,-0.9625,0.569252,0.417362,-0.948184,-0.04634,-0.06412,0.52472
14.7217,0,0,5,5,29.7217,29.7217,-24.3098,5.37716,21.6376,0.513275,-0.00422129,-0.0276991,1,1,3.0975,-0.385,-0.315,0.569252,0.417362,-0.948184,-0.04634,-0.06412,0.52472
14.6822,0,0,5,5,29.6822,29.6822,-24.2435,5.4967,21.6442,0.128275,-0.0515734,-0.0574047,0,1,2.8,0.105,-0.175,0.184708,0.368928,-0.977952,-0.04634,-0.06412,0.52472
14.6522,0,0,5,5,29.6522,29.6522,-24.1928,5.58766,21.86,0.126695,-0.0507076,-0.0571834,0,0,0.455,0.0875,-0.0175,0.184708,0.368928,-0.977952,-0.04368,-0.07168,0.51926
14.3474,0,0,5,5,29.3474,29.3474,-23.6842,5.34896,22.4315,-0.544375,-0.454359,-0.0879066,0,0,0.6125,-0.5425,0.4025,-0.493368,-0.042212,-1.01236,-0.04368,-0.07168,0.51926
14.044,0,0,5,5,29.044,29.044,-23.178,5.10868,23.0004,-0.540199,-0.446438,-0.0840572,0,0,3.115,-0.07,0.91,-0.493368,-0.042212,-1.01236,-0.04368,-0.07168,0.51926
13.959,0,0,5,5,28.959,28.959,-23.0358,4.78666,23.6969,-0.470577,-0.124382,0.133379,0,0,3.535,0.3675,0.805,-0.429074,0.277428,-0.798002,-0.04368,-0.07168,0.51926
13.8737,0,0,5,5,28.8737,28.8737,-22.8929,4.46465,24.3928,-0.464975,-0.122271,0.134766,0,0,4.6725,-0.315,0.5425,-0.429074,0.277428,-0.798002,-0.04368,-0.07168,0.51926
13.9298,0,0,5,5,28.9298,28.9298,-22.986,4.63747,24.5217,0.295556,0.0622081,-0.00268085,0,0,5.04,-0.035,0.42,0.337696,0.463112,-0.933544,-0.04368,-0.07168,0.51926
13.9835,0,0,5,5,28.9835,28.9835,-23.0749,4.81025,24.6511,0.29255,0.0608817,-0.00351456,0,0,6.3875,1.05,0.5075,0.337696,0.463112,-0.933544,-0.04368,-0.07168,0.51926
13.982,0,0,5,5,28.982,28.982,-23.0718,4.81176,24.6512,0.464426,0.207485,0.0519546,1,0,5.355,0.77,0.07,0.510326,0.609512,-0.878522,-0.04368,-0.07168,0.51926
13.9829,0,0,5,5,28.9829,28.9829,-23.0727,4.81164,24.6521,0.464429,0.20747,0.0519483,1,0,3.0275,-0.28,0.0875,0.510326,0.609512,-0.878522,-0.04368,-0.07168,0.51926
13.9829,0,0,5,5,28.9829,28.9829,-23.0721,4.81244,24.6534,-0.00743582,-0.120675,0.135679,1,1,3.8675,0.14,0.49,0.036478,0.281698,-0.79544,-0.04816,-0.07028,0.52472
13.9824,0,0,5,5,28.9824,28.9824,-23.0707,4.81176,24.6547,-0.160496,-0.068383,-0.204017,1,1,4.3225,-0.6825,0.21,-0.117242,0.333914,-1.13253,-0.04816,-0.07028,0.52472
13.9842,0,0,5,5,28.9842,28.9842,-23.0731,4.81189,24.6565,-0.160498,-0.068421,-0.204034,1,1,2.1875,-0.3325,0.5775,-0.117242,0.333914,-1.13253,-0.04816,-0.07028,0.52472
13.9857,0,0,5,5,28.9857,28.9857,-23.075,4.81272,24.657,0.572046,-0.0486662,-0.076427,1,1,2.52,0.315,0.1225,0.618418,0.353678,-1.00589,-0.04816,-0.07028,0.52472
13.9872,0,0,5,5,28.9872,28.9872,-23.0769,4.81355,24.6576,0.572032,-0.0486959,-0.076441,1,1,2.52,0.315,0.1225,0.618418,0.353678,-1.00589,-0.04816,-0.07028,0.52472
13.9899,0,0,5,5,28.9899,28.9899,-23.0808,4.81278,24.6591,-0.182746,0.000457982,0.185291,1,1,1.33,-0.77,0.28,-0.139568,0.402844,-0.746152,-0.04816,-0.07028,0.52472
13.9926,0,0,5,5,28.9926,28.9926,-23.0847,4.81202,24.6606,-0.182732,0.000394739,0.185265,1,1,1.33,-0.77,0.28,-0.139568,0.402844,-0.746152,-0.04816,-0.07028,0.52472
13.9921,0,0,5,5,28.9921,28.9921,-23.0833,4.81114,24.6612,-0.729767,0.201559,0.125523,1,1,4.3575,-0.6125,-0.2625,-0.688934,0.603778,-0.805444,-0.04844,-0.06986,0.52262
13.9897,0,0,5,5,28.9897,28.9897,-23.0789,4.81033,24.6605,0.42424,0.0654585,-0.192514,1,1,6.125,-0.28,-0.9275,0.469944,0.467748,-1.12106,-0.04844,-0.06986,0.52262
13.9874,0,0,5,5,28.9874,28.9874,-23.0745,4.80952,24.6598,0.424254,0.0655291,-0.192482,1,1,6.125,-0.28,-0.9275,0.469944,0.467748,-1.12106,-0.04844,-0.06986,0.52262
13.986,0,0,5,5,28.986,28.986,-23.0714,4.81032,24.6564,0.039616,0.229961,0.00105803,1,1,5.46,1.2075,-2.0125,0.083692,0.63196,-0.92903,-0.04844,-0.06986,0.52262
13.9845,0,0,5,5,28.9845,28.9845,-23.0684,4.81112,24.653,0.0396021,0.230009,0.00107757,1,1,5.46,1.2075,-2.0125,0.083692,0.63196,-0.92903,-0.04844,-0.06986,0.52262
14.1631,0,0,5,5,29.1631,29.1631,-23.3655,4.62406,24.6259,-0.186266,0.225154,0.194038,0,1,4.0075,0.315,-1.8375,-0.1464,0.63196,-0.735782,-0.04844,-0.06986,0.52262
14.3387,0,0,5,5,29.3387,29.3387,-23.6576,4.43988,24.6003,-0.183062,0.220392,0.192243,0,1,4.0075,0.315,-1.8375,-0.1464,0.63196,-0.735782,-0.04844,-0.06986,0.52262
14.5736,0,0,5,5,29.5736,29.5736,-24.0485,4.5883,24.5676,0.150021,0.340046,0.227543,0,1,3.115,-0.14,-1.6975,0.190686,0.75762,-0.69784,-0.04844,-0.06986,0.52262
14.8049,0,0,5,5,29.8049,29.8049,-24.4334,4.73416,24.5344,0.147484,0.334026,0.224606,0,1,3.115,-0.14,-1.6975,0.190686,0.75762,-0.69784,-0.04242,-0.07518,0.52066
14.8069,0,0,5,5,29.8069,29.8069,-24.4361,4.73344,24.5343,0.0782492,-0.137183,0.153646,1,1,2.065,-0.3675,-0.5775,0.121146,0.286944,-0.768234,-0.04242,-0.07518,0.52066
14.8091,0,0,5,5,29.8091,29.8091,-24.4391,4.73162,24.535,-0.356395,-0.105112,-0.163335,1,1,1.89,-1.155,-0.42,-0.31537,0.31903,-1.08275,-0.04242,-0.07518,0.52066
14.811,0,0,5,5,29.811,29.811,-24.4418,4.73128,24.535,-0.356389,-0.105155,-0.163354,1,1,2.1,-0.175,-0.4725,-0.31537,0.31903,-1.08275,-0.04242,-0.07518,0.52066
14.8105,0,0,5,5,29.8105,29.8105,-24.4403,4.73084,24.5349,-0.209019,0.100774,0.236732,1,1,4.4275,-0.21,-0.5425,-0.167384,0.524722,-0.685762,-0.04242,-0.07518,0.52066
14.809,0,0,5,5,29.809,29.809,-24.4372,4.7312,24.5361,-0.209025,0.100824,0.236754,1,1,5.32,-0.1225,0.4025,-0.167384,0.524722,-0.685762,-0.04242,-0.07518,0.52066
14.9626,0,0,5,5,29.9626,29.9626,-24.6925,4.83305,24.5152,0.0804044,0.158276,0.220757,0,1,6.3175,0.4725,0.3325,0.12505,0.586088,-0.69967,-0.04242,-0.07518,0.52066
15.1127,0,0,5,5,30.1127,30.1127,-24.9421,4.93288,24.493,0.0786683,0.1544,0.218801,0,1,7.315,0.63,-0.315,0.12505,0.586088,-0.69967,-0.04242,-0.07518,0.52066
15.1126,0,0,5,5,30.1126,30.1126,-24.9413,4.93278,24.4933,0.408868,0.0125,-0.239177,1,1,4.0075,-0.1225,-0.2625,0.456646,0.444324,-1.15412,-0.04242,-0.07518,0.52066
15.1118,0,0,5,5,30.1118,30.1118,-24.9394,4.93247,24.4936,0.408874,0.0125299,-0.239162,1,0,4.655,-0.2625,-0.245,0.456646,0.444324,-1.15412,-0.05096,-0.0658,0.51562
15.1114,0,0,5,5,30.1114,30.1114,-24.938,4.93335,24.494,0.0555779,-0.296794,-0.429477,1,0,4.375,0.385,0.0175,0.10187,0.135298,-1.34298,-0.05096,-0.0658,0.51562
15.1128,0,0,5,5,30.1128,30.1128,-24.9398,4.93303,24.4953,0.0555835,-0.296823,-0.42949,1,0,2.52,-0.5075,0.2625,0.10187,0.135298,-1.34298,-0.05096,-0.0658,0.51562
15.115,0,0,5,5,30.115,30.115,-24.9429,4.93266,24.4965,-0.971693,-0.22555,-0.150911,1,0,1.8375,-0.49,0.1575,-0.929762,0.206546,-1.06652,-0.05096,-0.0658,0.51562
15.1173,0,0,5,5,30.1173,30.1173,-24.946,4.93542,24.4974,-0.971741,-0.225597,-0.150937,1,0,1.8025,1.2425,0.7875,-0.929762,0.206546,-1.06652,-0.05096,-0.0658,0.51562
15.1197,0,0,5,5,30.1197,30.1197,-24.9493,4.93614,24.4995,-0.36639,-0.379041,-0.253256,1,0,1.6275,-0.1575,0.945,-0.321836,0.053314,-1.16803,-0.05096,-0.0658,0.51562
15.1213,0,0,5,5,30.1213,30.1213,-24.9514,4.93631,24.503,-0.366393,-0.379074,-0.253272,1,0,2.2575,-0.77,1.505,-0.321836,0.053314,-1.16803,-0.05096,-0.0658,0.51562
14.9582,0,0,5,5,29.9582,29.9582,-24.6789,5.25439,24.4011,0.37242,-0.346355,0.0237966,0,0,3.08,0.0875,1.365,0.425658,0.081496,-0.894626,-0.05096,-0.0658,0.51562
14.7768,0,0,5,5,29.7768,29.7768,-24.376,5.63504,24.432,0.365806,-0.341305,0.0254082,0,1,4.7075,0.2625,1.26,0.425658,0.081496,-0.894626,-0.04788,-0.06916,0.52108
14.6481,0,0,5,5,29.6481,29.6481,-24.1609,5.54616,24.4554,-0.0924733,-0.219864,0.0209342,0,1,5.11,-0.3325,1.2775,-0.036112,0.19947,-0.900726,-0.04788,-0.06916,0.52108
14.5195,0,0,5,5,29.5195,29.5195,-23.9459,5.45863,24.4764,-0.0909526,-0.216514,0.0225901,0,1,7.1925,0.07,0.28,-0.036112,0.19947,-0.900726,-0.04788,-0.06916,0.52108
14.5165,0,0,5,5,29.5165,29.5165,-23.9405,5.45814,24.4767,-0.505939,0.0973159,-0.0799097,1,1,6.65,-0.3325,-0.3325,-0.452864,0.512888,-1.00247,-0.04788,-0.06916,0.52108
14.5162,0,0,5,5,29.5162,29.5162,-23.9392,5.4579,24.4765,-0.505935,0.0973355,-0.0799006,1,1,4.305,-0.105,-0.49,-0.452864,0.512888,-1.00247,-0.04788,-0.06916,0.52108
14.4583,0,0,5,5,29.4583,29.4583,-23.8423,5.30485,24.485,-0.158742,-0.0654858,-0.111693,0,1,3.3775,-0.1925,-0.8575,-0.106872,0.348798,-1.03493,-0.04788,-0.06916,0.52108
14.4012,0,0,5,5,29.4012,29.4012,-23.7464,5.15442,24.4915,-0.156128,-0.0640585,-0.110803,0,1,3.7625,0.1925,-1.68,-0.106872,0.348798,-1.03493,-0.04788,-0.06916,0.52108
14.4031,0,0,5,5,29.4031,29.4031,-23.749,5.15286,24.4908,-0.107385,0.102848,-0.402698,1,1,2.2225,-0.665,-1.1375,-0.05795,0.515572,-1.32455,-0.04788,-0.06916,0.52108
14.4049,0,0,5,5,29.4049,29.4049,-23.7515,5.1513,24.49,-0.107358,0.102806,-0.402713,1,1,2.2225,-0.665,-1.1375,-0.05795,0.515572,-1.32455,-0.04816,-0.06398,0.52864
14.4268,0,0,5,5,29.4268,29.4268,-23.7874,4.8728,24.4854,-0.286323,0.033917,0.00831762,0,1,2.3975,0.07,-1.435,-0.242536,0.447496,-0.91683,-0.04816,-0.06398,0.52864
14.335,0,0,5,5,29.335,29.335,-23.6338,5.26384,24.4986,0.398739,-0.192383,0.0298639,0,1,0.7175,-0.35,-1.015,0.452254,0.218746,-0.895968,-0.04816,-0.06398,0.52864
14.2428,0,0,5,5,29.2428,29.2428,-23.4794,5.64926,24.512,0.392043,-0.189669,0.0303492,0,1,2.38,0.0875,-1.2775,0.452254,0.218746,-0.895968,-0.04816,-0.06398,0.52864
14.366,0,0,5,5,29.366,29.366,-23.6843,5.86714,24.4898,0.237374,0.205234,0.0855015,0,1,4.27,0.6475,-1.05,0.30073,0.616344,-0.839482,-0.04816,-0.06398,0.52864
14.4866,0,0,5,5,29.4866,29.4866,-23.8847,6.07987,24.4682,0.233682,0.202207,0.083745,0,1,4.9175,-0.385,-0.875,0.30073,0.616344,-0.839482,-0.04816,-0.06398,0.52864
14.4843,0,0,5,5,29.4843,29.4843,-23.8801,6.07957,24.467,-0.436671,0.0422928,-0.094252,1,1,6.2125,0.105,-1.05,-0.372466,0.456524,-1.01614,-0.04816,-0.06398,0.52864
14.4823,0,0,5,5,29.4823,29.4823,-23.8763,6.07882,24.4654,-0.436658,0.0423535,-0.0942236,1,1,5.8625,-0.035,-1.3825,-0.372466,0.456524,-1.01614,-0.04816,-0.06398,0.52864
14.4805,0,0,5,5,29.4805,29.4805,-23.8727,6.07716,24.4641,-0.265335,-0.163008,-0.344273,1,0,5.705,-0.5775,-1.47,-0.200446,0.25132,-1.26429,-0.0469,-0.05754,0.51954
14.5643,0,0,5,5,29.5643,29.5643,-24.0117,6.23859,24.5638,0.240039,0.0297019,0.146143,0,0,3.465,0.0875,-1.1725,0.30988,0.44591,-0.776408,-0.0469,-0.05754,0.51954
14.6473,0,0,5,5,29.6473,29.6473,-24.1495,6.3977,24.6639,0.237279,0.0276439,0.144888,0,0,2.835,-0.105,-1.6625,0.30988,0.44591,-0.776408,-0.0469,-0.05754,0.51954
14.7584,0,0,5,5,29.7584,29.7584,-24.3341,6.43808,24.9254,0.0917675,0.112811,0.111536,0,0,1.1725,-0.1575,-0.84,0.164456,0.533872,-0.808128,-0.0469,-0.05754,0.51954
14.8672,0,0,5,5,29.8672,29.8672,-24.5147,6.4786,25.1901,0.0910648,0.109992,0.110168,0,0,1.575,-0.2625,-0.3325,0.164456,0.533872,-0.808128,-0.0469,-0.05754,0.51954
14.7887,0,0,5,5,29.7887,29.7887,-24.3833,6.0762,25.9406,-0.627224,-0.103805,0.141687,0,0,1.645,0.035,0.14,-0.563884,0.318542,-0.778482,-0.0469,-0.05754,0.51954
14.7115,0,0,5,5,29.7115,29.7115,-24.254,5.67453,26.6914,-0.62025,-0.102055,0.143265,0,0,0.7875,-0.4725,0.7,-0.563884,0.318542,-0.778482,-0.0469,-0.05754,0.51954
14.7148,0,0,5,5,29.7148,29.7148,-24.2589,5.67435,26.6936,0.0644464,-0.420516,0.168435,1,0,0.7525,-0.63,0.7525,0.123708,0.000488,-0.753472,-0.0469,-0.05754,0.51954
14.7159,0,0,5,5,29.7159,29.7159,-24.2602,5.67614,26.6953,0.0644153,-0.420535,0.168424,1,1,2.8,0.5425,0.9625,0.123708,0.000488,-0.753472,-0.04606,-0.06454,0.52416
14.717,0,0,5,5,29.717,29.717,-24.2614,5.67882,26.6978,0.441825,0.243451,0.121075,1,1,2.7825,0.8225,1.61,0.502762,0.663802,-0.800442,-0.04606,-0.06454,0.52416
14.7152,0,0,5,5,29.7152,29.7152,-24.2577,5.68044,26.7011,0.441797,0.24351,0.121099,1,1,5.4775,0.0525,1.8025,0.502762,0.663802,-0.800442,-0.04606,-0.06454,0.52416
14.7652,0,0,5,5,29.7652,29.7652,-24.3405,5.69808,26.6951,0.0223647,0.10714,-0.00984578,0,1,6.3175,0.2625,1.47,0.081862,0.52887,-0.929762,-0.04606,-0.06454,0.52416
14.8151,0,0,5,5,29.8151,29.8151,-24.4231,5.71385,26.6882,0.0220908,0.105845,-0.0104627,0,1,5.705,-0.3325,0.5775,0.081862,0.52887,-0.929762,-0.04606,-0.06454,0.52416
14.8138,0,0,5,5,29.8138,29.8138,-24.4203,5.71367,26.6898,-0.352932,-0.243395,-0.155522,1,1,5.04,-0.49,0.4375,-0.294752,0.17995,-1.07372,-0.04606,-0.06454,0.52416
14.8148,0,0,5,5,29.8148,29.8148,-24.4213,5.71372,26.6903,-0.352933,-0.243409,-0.155529,1,1,3.045,-0.0875,-0.105,-0.294752,0.17995,-1.07372,-0.04606,-0.06454,0.52416
14.8674,0,0,5,5,29.8674,29.8674,-24.5085,5.67699,26.6812,-0.0360681,0.092256,0.00828411,0,1,2.0825,0.5075,-0.595,0.022814,0.51667,-0.910608,-0.04606,-0.06454,0.52416
14.921,0,0,5,5,29.921,29.921,-24.5972,5.64046,26.6732,-0.0354338,0.0908285,0.0077011,0,1,0.3325,0.0875,-0.245,0.022814,0.51667,-0.910608,-0.0462,-0.06734,0.52612
14.8303,0,0,5,5,29.8303,29.8303,-24.4454,5.62781,26.6889,-0.0106738,-0.140288,-0.0830276,0,1,0.8925,-0.525,-0.35,0.047458,0.283406,-1.00174,-0.0462,-0.06734,0.52612
14.7408,0,0,5,5,29.7408,29.7408,-24.2955,5.61542,26.7045,-0.0104587,-0.137926,-0.0819343,0,1,1.26,-0.49,-0.28,0.047458,0.283406,-1.00174,-0.0462,-0.06734,0.52612
14.551,0,0,5,5,29.551,29.551,-23.9787,5.42518,26.736,-0.196307,-0.317933,-0.064515,0,1,1.855,-0.455,-0.0875,-0.142496,0.098698,-0.98698,-0.0462,-0.06734,0.52612
14.3644,0,0,5,5,29.3644,29.3644,-23.667,5.23784,26.7656,-0.193051,-0.313101,-0.0620492,0,1,1.9075,-0.3325,-0.2975,-0.142496,0.098698,-0.98698,-0.0462,-0.06734,0.52612
14.3105,0,0,5,5,29.3105,29.3105,-23.5766,5.14351,26.7734,-0.0961669,-0.105448,0.0279776,0,1,3.255,0.56,-0.42,-0.046848,0.304756,-0.898408,-0.0462,-0.06734,0.52612
14.2575,0,0,5,5,29.2575,29.2575,-23.4877,5.05151,26.7811,-0.0945677,-0.10409,0.0287248,0,1,3.22,0.91,-0.1225,-0.046848,0.304756,-0.898408,-0.0462,-0.06734,0.52612
14.171,0,0,5,5,29.171,29.171,-23.3429,4.87547,26.7932,-0.187723,-0.120448,-0.115724,0,1,3.5875,0.6825,-0.3325,-0.143472,0.286212,-1.04298,-0.0462,-0.06734,0.52612
14.084,0,0,5,5,29.084,29.084,-23.1973,4.70071,26.8036,-0.184684,-0.118223,-0.11449,0,1,5.425,0.0525,-1.2775,-0.143472,0.286212,-1.04298,-0.04354,-0.0546,0.52752
14.0827,0,0,5,5,29.0827,29.0827,-23.1946,4.70041,26.8014,0.283406,0.0651329,-0.0395957,1,1,5.2325,0.35,-1.6275,0.326594,0.469334,-0.96868,-0.04354,-0.0546,0.52752
14.0812,0,0,5,5,29.0812,29.0812,-23.1915,4.69808,26.7989,0.283446,0.0651808,-0.0395715,1,1,5.4425,-0.7,-2.205,0.326594,0.469334,-0.96868,-0.04354,-0.0546,0.52752
14.0804,0,0,5,5,29.0804,29.0804,-23.1896,4.69604,26.7959,0.126887,0.0973296,-0.211192,1,1,4.8125,-0.42,-2.4325,0.169336,0.50142,-1.13899,-0.04354,-0.0546,0.52752
14.0831,0,0,5,5,29.0831,29.0831,-23.1935,4.69427,26.7925,0.126917,0.0972663,-0.211216,1,1,1.575,-0.175,-2.59,0.169336,0.50142,-1.13899,-0.04354,-0.0546,0.52752
14.0866,0,0,5,5,29.0866,29.0866,-23.1989,4.69288,26.7896,-0.60829,-0.401952,-0.0560899,1,1,0.7525,-0.07,-2.275,-0.569008,0.002806,-0.985028,-0.04354,-0.0546,0.52752
14.0913,0,0,5,5,29.0913,29.0913,-23.2061,4.6923,26.7873,-0.60828,-0.402067,-0.0561385,1,1,-0.3325,0.1925,-1.6975,-0.569008,0.002806,-0.985028,-0.04354,-0.0546,0.52752
13.8571,0,0,5,5,28.8571,28.8571,-22.8151,4.93128,26.8192,0.251327,-0.425593,-0.0851544,0,1,0.3675,-0.1925,-1.3475,0.298412,-0.027084,-1.01614,-0.04354,-0.0546,0.52752
13.6239,0,0,5,5,28.6239,28.6239,-22.4259,5.16648,26.7962,0.247238,-0.419207,-0.0828852,0,0,2.1525,-1.4525,-0.4725,0.298412,-0.027084,-1.01614,-0.0441,-0.06062,0.51674
13.6256,0,0,5,5,28.6256,28.6256,-22.4281,5.16476,26.7972,0.304609,-0.268785,0.178122,1,0,2.275,-1.155,-0.2275,0.355996,0.12322,-0.757132,-0.0441,-0.06062,0.51674
13.6251,0,0,5,5,28.6251,28.6251,-22.4268,5.16768,26.797,0.304559,-0.268762,0.178126,1,0,4.34,1.6275,0.1575,0.355996,0.12322,-0.757132,-0.0441,-0.06062,0.51674
13.6246,0,0,5,5,28.6246,28.6246,-22.4254,5.17134,26.7979,-0.586238,-0.120964,-0.152847,1,0,4.34,1.7675,0.9625,-0.538508,0.27084,-1.08556,-0.0441,-0.06062,0.51674
13.6237,0,0,5,5,28.6237,28.6237,-22.4234,5.17196,26.7995,-0.586249,-0.120931,-0.152834,1,0,4.69,-0.035,0.6475,-0.538508,0.27084,-1.08556,-0.0441,-0.06062,0.51674
13.623,0,0,5,5,28.623,28.623,-22.4216,5.17256,26.8012,-0.122913,-0.192469,-0.2711,1,0,4.48,-0.0525,0.665,-0.0732,0.199348,-1.20292,-0.0441,-0.06062,0.51674
13.6228,0,0,5,5,28.6228,28.6228,-22.4207,5.17317,26.8029,-0.122924,-0.192453,-0.271095,1,0,4.0425,-0.0525,0.6825,-0.0732,0.199348,-1.20292,-0.0441,-0.06062,0.51674
13.6234,0,0,5,5,28.6234,28.6234,-22.4212,5.17268,26.8041,-0.021353,-0.306772,-0.257081,1,0,3.29,-0.525,0.14,0.028792,0.085156,-1.18901,-0.0441,-0.06062,0.51674
13.6248,0,0,5,5,28.6248,28.6248,-22.423,5.17374,26.8033,-0.0213713,-0.3068,-0.257095,1,0,2.625,0.735,-0.5425,0.028792,0.085156,-1.18901,-0.0441,-0.06062,0.51674
13.627,0,0,5,5,28.627,28.627,-22.426,5.17501,26.8035,-0.424726,-0.291094,-0.282567,1,1,1.89,0.63,0.0525,-0.376248,0.100894,-1.21427,-0.0483,-0.06216,0.52346
13.6298,0,0,5,5,28.6298,28.6298,-22.4301,5.17597,26.805,0.550666,0.698068,0.144651,1,1,1.26,0.1925,0.6125,0.60329,1.08909,-0.790316,-0.0483,-0.06216,0.52346
13.6337,0,0,5,5,28.6337,28.6337,-22.436,5.17643,26.8069,0.550658,0.697973,0.144611,1,1,0.1575,-0.175,0.7525,0.60329,1.08909,-0.790316,-0.0483,-0.06216,0.52346
13.5691,0,0,5,5,28.5691,28.5691,-22.3279,5.18306,26.8198,-0.00379637,-0.134655,0.058761,0,1,1.19,-0.455,1.2075,0.046604,0.25559,-0.876204,-0.0483,-0.06216,0.52346
13.5037,0,0,5,5,28.5037,28.5037,-22.2182,5.18981,26.8331,-0.00391383,-0.132887,0.0594734,0,1,3.0275,-0.42,1.54,0.046604,0.25559,-0.876204,-0.0483,-0.06216,0.52346
13.5913,0,0,5,5,28.5913,28.5913,-22.3638,4.93288,26.8218,-0.261856,0.110951,0.107568,0,1,4.2,1.575,1.3475,-0.216916,0.501664,-0.827892,-0.0483,-0.06216,0.52346
13.6772,0,0,5,5,28.6772,28.6772,-22.5064,4.67929,26.8118,-0.257446,0.108517,0.106964,0,1,4.41,1.05,1.4,-0.216916,0.501664,-0.827892,-0.0483,-0.06216,0.52346
13.6421,0,0,5,5,28.6421,28.6421,-22.4472,4.43889,26.8191,-0.243909,-0.0628579,0.00426568,0,1,4.9175,-0.4725,1.1725,-0.207522,0.329644,-0.930494,-0.0483,-0.06216,0.52346
13.5827,0,0,5,5,28.5827,28.5827,-22.3477,4.28276,27.3248,-0.241192,-0.0613356,0.00511714,0,0,5.5125,-0.385,0.6825,-0.207522,0.329644,-0.930494,-0.04984,-0.06244,0.51744
13.5804,0,0,5,5,28.5804,28.5804,-22.3434,4.28309,27.3255,0.323468,-0.056747,-0.173007,1,0,6.0025,0.0175,0.0875,0.359534,0.334158,-1.10727,-0.04984,-0.06244,0.51744
13.582,0,0,5,5,28.582,28.582,-22.3454,4.28086,27.3251,0.323507,-0.0567812,-0.173018,1,0,2.4675,-1.1375,-1.05,0.359534,0.334158,-1.10727,-0.04984,-0.06244,0.51744
13.6484,0,0,5,5,28.6484,28.6484,-22.4556,4.25817,27.6967,-0.00702517,0.0674698,0.0863149,0,0,2.975,0.0175,-1.785,0.027206,0.460062,-0.849242,-0.04984,-0.06244,0.51744
13.7144,0,0,5,5,28.7144,28.7144,-22.565,4.23634,28.0693,-0.00664534,0.0656992,0.0856116,0,0,2.3625,0.35,-2.2575,0.027206,0.460062,-0.849242,-0.04984,-0.06244,0.51744
13.8997,0,0,5,5,28.8997,28.8997,-22.8733,4.22367,28.4436,0.0477579,0.196792,0.189167,0,0,1.365,0.42,-1.8025,0.081618,0.59597,-0.744444,-0.04984,-0.06244,0.51744
14.081,0,0,5,5,29.081,29.081,-23.1748,4.21093,28.8214,0.0479796,0.191956,0.187129,0,0,2.4325,-0.105,-2.1,0.081618,0.59597,-0.744444,-0.04984,-0.06244,0.51744
14.0843,0,0,5,5,29.0843,29.0843,-23.1798,4.2108,28.819,0.409523,0.0702379,0.0335327,1,0,0.91,0.4725,-1.68,0.44469,0.474458,-0.896822,-0.04984,-0.06244,0.51744
14.0878,0,0,5,5,29.0878,29.0878,-23.185,4.20873,28.8178,0.409559,0.0701536,0.0334995,1,0,0.735,-0.84,-1.4875,0.44469,0.474458,-0.896822,-0.0476,-0.06342,0.51982
14.14,0,0,5,5,29.14,29.14,-23.2714,4.21191,29.1729,0.0264596,0.0651101,0.0346242,0,0,2.87,-0.1575,-1.225,0.060024,0.470798,-0.895114,-0.0476,-0.06342,0.51982
14.1897,0,0,5,5,29.1897,29.1897,-23.3537,4.21819,29.5299,0.0263503,0.0637973,0.0340497,0,0,4.2875,1.3125,-0.455,0.060024,0.470798,-0.895114,-0.0476,-0.06342,0.51982
13.9797,0,0,5,5,28.9797,28.9797,-23.0031,3.94476,30.1095,-0.496502,-0.268895,-0.0180709,0,0,5.25,0.455,-0.2975,-0.469822,0.13298,-0.949526,-0.0476,-0.06342,0.51982
13.7726,0,0,5,5,28.7726,28.7726,-22.6574,3.66936,30.6863,-0.491706,-0.263469,-0.0154406,0,0,5.6,-0.245,-0.595,-0.469822,0.13298,-0.949526,-0.0476,-0.06342,0.51982
13.7903,0,0,5,5,28.7903,28.7903,-22.6863,3.59046,31.1404,-0.0990262,0.0196111,0.0643625,0,0,5.8625,0.0875,-0.7,-0.07686,0.416264,-0.870226,-0.0476,-0.06342,0.51982
13.8092,0,0,5,5,28.8092,28.8092,-22.7172,3.51062,31.5961,-0.0976353,0.019081,0.0642342,0,0,4.445,-1.015,-0.945,-0.07686,0.416264,-0.870226,-0.0476,-0.06342,0.51982
13.8106,0,0,5,5,28.8106,28.8106,-22.719,3.50831,31.595,0.341819,0.324978,0.151518,1,0,2.6075,-0.9975,-1.4875,0.364414,0.721874,-0.783606,-0.0476,-0.06342,0.51982
13.8118,0,0,5,5,28.8118,28.8118,-22.7204,3.50922,31.5918,0.341803,0.324957,0.151508,1,0,2.9575,1.19,-1.8375,0.364414,0.721874,-0.783606,-0.05012,-0.06916,0.51912
13.8135,0,0,5,5,28.8135,28.8135,-22.7227,3.51014,31.5894,0.715355,0.24859,-0.000965124,1,0,2.38,1.0325,-1.4525,0.739564,0.645624,-0.934886,-0.05012,-0.06916,0.51912
13.8154,0,0,5,5,28.8154,28.8154,-22.7253,3.50956,31.5894,0.715365,0.248549,-0.000981969,1,0,2.1525,-0.315,-0.5075,0.739564,0.645624,-0.934886,-0.05012,-0.06916,0.51912
13.8166,0,0,5,5,28.8166,28.8166,-22.7267,3.51008,31.59,-0.390892,0.376515,0.121833,1,0,2.7825,0.14,0.07,-0.371368,0.77348,-0.813008,-0.05012,-0.06916,0.51912
13.8194,0,0,5,5,28.8194,28.8194,-22.7308,3.51011,31.5916,-0.390893,0.37645,0.121806,1,0,1.2775,-0.35,0.5075,-0.371368,0.77348,-0.813008,-0.05012,-0.06916,0.51912
13.822,0,0,5,5,28.822,28.822,-22.7345,3.51027,31.593,-0.199556,-0.295552,0.0852649,1,0,1.435,-0.245,0.4375,-0.179218,0.102236,-0.849242,-0.05012,-0.06916,0.51912
13.8243,0,0,5,5,28.8243,28.8243,-22.7379,3.51394,31.5952,-0.19962,-0.295605,0.0852384,1,0,1.6275,1.4875,1.6275,-0.179218,0.102236,-0.849242,-0.05012,-0.06916,0.51912
13.6291,0,0,5,5,28.6291,28.6291,-22.412,3.7199,31.662,0.167689,-0.338027,0.0326194,0,0,2.6775,1.68,2.17,0.193248,0.054534,-0.90341,-0.05012,-0.06916,0.51912
13.4391,0,0,5,5,28.4391,28.4391,-22.0947,3.9087,31.6872,0.164401,-0.33283,0.0345093,0,1,5.0225,0.7175,2.6075,0.193248,0.054534,-0.90341,-0.04886,-0.06608,0.52416
13.4016,0,0,5,5,28.4016,28.4016,-22.0317,3.89422,31.6953,-0.0192765,-0.0649728,0.00493782,0,1,5.67,0.6475,2.485,0.00854,0.321104,-0.933178,-0.04886,-0.06608,0.52416
13.364,0,0,5,5,28.364,28.364,-21.9685,3.87714,31.7018,-0.0189791,-0.0639611,0.00536835,0,1,6.405,-0.5425,0.9975,0.00854,0.321104,-0.933178,-0.04886,-0.06608,0.52416
13.3631,0,0,5,5,28.3631,28.3631,-21.9664,3.8765,31.7041,-0.181394,0.313201,0.0345219,1,1,4.725,-0.8575,0.735,-0.154574,0.69784,-0.904264,-0.04886,-0.06608,0.52416
13.3633,0,0,5,5,28.3633,28.3633,-21.9662,3.87725,31.7042,-0.181407,0.313203,0.034522,1,1,3.675,0.3675,-0.1225,-0.154574,0.69784,-0.904264,-0.04886,-0.06608,0.52416
13.364,0,0,5,5,28.364,28.364,-21.9668,3.87871,31.7033,0.506905,0.341895,0.14013,1,1,3.3425,0.9975,-0.56,0.536678,0.72651,-0.799466,-0.04886,-0.06608,0.52416
13.366,0,0,5,5,28.366,28.366,-21.9696,3.87792,31.7025,0.506919,0.34185,0.140112,1,1,2.065,-0.28,-0.9275,0.536678,0.72651,-0.799466,-0.04886,-0.06608,0.52416
13.2335,0,0,5,5,28.2335,28.2335,-21.7482,4.12001,31.7181,0.239566,-0.24226,0.000989413,0,1,2.45,-0.805,-0.7,0.272426,0.139324,-0.938668,-0.04886,-0.06608,0.52416
13.1022,0,0,5,5,28.1022,28.1022,-21.5289,4.35849,31.7345,0.235415,-0.238598,0.00211113,0,1,3.22,-0.6825,-0.525,0.272426,0.139324,-0.938668,-0.04886,-0.06608,0.52416
13.1033,0,0,5,5,28.1033,28.1033,-21.5302,4.35786,31.7349,-0.474658,-0.235199,-0.19277,1,0,2.87,-0.4375,-0.28,-0.440664,0.14274,-1.13204,-0.05264,-0.06496,0.51772
13.0253,0,0,5,5,28.0253,28.0253,-21.3997,4.3228,32.0922,-0.0784903,-0.0889936,-0.0872664,0,0,2.555,0.105,-0.5425,-0.043432,0.2867,-1.02822,-0.05264,-0.06496,0.51772
12.9475,0,0,5,5,27.9475,27.9475,-21.2693,4.28981,32.4488,-0.0779161,-0.0868961,-0.0864007,0,0,3.8325,1.4875,-0.3675,-0.043432,0.2867,-1.02822,-0.05264,-0.06496,0.51772
12.9475,0,0,5,5,27.9475,27.9475,-21.2689,4.29479,32.4557,0.44475,-0.0614838,-0.0950103,1,0,3.57,1.2425,4.4625,0.481534,0.312076,-1.03676,-0.05264,-0.06496,0.51772
12.9449,0,0,5,5,27.9449,27.9449,-21.2641,4.29432,32.4562,0.444758,-0.0614065,-0.0949795,1,0,6.265,-0.3675,-0.21,0.481534,0.312076,-1.03676,-0.05264,-0.06496,0.51772
12.9416,0,0,5,5,27.9416,27.9416,-21.258,4.2925,32.4555,-0.326887,0.353922,-0.377352,1,0,7.0175,-0.8575,-1.1025,-0.29341,0.726876,-1.31699,-0.05264,-0.06496,0.51772
12.9402,0,0,5,5,27.9402,27.9402,-21.2551,4.29165,32.4528,-0.326872,0.35397,-0.377332,1,0,5.39,0.105,-2.03,-0.29341,0.726876,-1.31699,-0.05264,-0.06496,0.51772
12.9381,0,0,5,5,27.9381,27.9381,-21.2511,4.28985,32.4495,-0.545151,-0.318152,-0.25202,1,1,5.985,-0.2975,-2.52,-0.512644,0.055388,-1.19267,-0.05068,-0.06846,0.5222
12.9382,0,0,5,5,27.9382,27.9382,-21.2507,4.28834,32.4463,0.695609,0.328148,0.157771,1,1,3.9375,-0.14,-2.45,0.733342,0.701012,-0.786046,-0.05068,-0.06846,0.5222
12.9392,0,0,5,5,27.9392,27.9392,-21.2519,4.28572,32.442,0.695654,0.328127,0.157767,1,1,3.0975,-0.525,-3.255,0.733342,0.701012,-0.786046,-0.05068,-0.06846,0.5222
12.9415,0,0,5,5,27.9415,27.9415,-21.2551,4.2853,32.4393,-0.0468588,-0.130878,0.198935,1,1,1.925,0.3325,-1.9075,-0.012322,0.242536,-0.745176,-0.05068,-0.06846,0.5222
12.9422,0,0,5,5,27.9422,27.9422,-21.2558,4.28428,32.4373,-0.046841,-0.13089,0.198932,1,1,3.29,-0.14,-1.6625,-0.012322,0.242536,-0.745176,-0.05068,-0.06846,0.5222
13.0873,0,0,5,5,28.0873,28.0873,-21.4971,3.82515,32.4201,-0.480205,0.183498,0.205551,0,1,3.2375,0.0525,-0.4375,-0.455548,0.560712,-0.737612,-0.05068,-0.06846,0.5222
13.2302,0,0,5,5,28.2302,28.2302,-21.7348,3.37247,32.4051,-0.47232,0.179467,0.204487,0,1,3.2375,0.0525,-0.4375,-0.455548,0.560712,-0.737612,-0.05068,-0.06846,0.5222
13.2308,0,0,5,5,28.2308,28.2308,-21.7352,3.37348,32.4068,0.102411,-0.0549003,0.242229,1,1,3.3075,0.175,0.77,0.121634,0.326594,-0.700158,-0.05068,-0.06846,0.5222
13.2314,0,0,5,5,28.2314,28.2314,-21.7356,3.37448,32.4085,0.102394,-0.0549068,0.242225,1,1,3.3075,0.175,0.77,0.121634,0.326594,-0.700158,-0.04676,-0.07196,0.52066
13.2298,0,0,5,5,28.2298,28.2298,-21.7324,3.37767,32.4111,0.488663,-0.0165058,-0.186479,1,1,5.32,1.1725,1.715,0.509594,0.364902,-1.12557,-0.04676,-0.07196,0.52066
13.2282,0,0,5,5,28.2282,28.2282,-21.7292,3.38086,32.4136,0.488607,-0.0164525,-0.186461,1,1,5.32,1.1725,1.715,0.509594,0.364902,-1.12557,-0.04676,-0.07196,0.52066
13.227,0,0,5,5,28.227,28.227,-21.7267,3.38073,32.4158,-0.053217,0.136491,-0.136528,1,1,4.9525,-0.5425,0.77,-0.034526,0.517646,-1.07604,-0.04676,-0.07196,0.52066
13.2258,0,0,5,5,28.2258,28.2258,-21.7241,3.3806,32.4179,-0.0532147,0.136532,-0.136511,1,1,4.9525,-0.5425,0.77,-0.034526,0.517646,-1.07604,-0.04676,-0.07196,0.52066
13.4114,0,0,5,5,28.4114,28.4114,-22.0329,3.43643,32.4034,0.0551497,0.244284,0.207899,0,1,4.655,-4.3575,0.3675,0.075274,0.630252,-0.732244,-0.04676,-0.07196,0.52066
13.5941,0,0,5,5,28.5941,28.5941,-22.3369,3.4913,32.3888,0.0541938,0.239403,0.205846,0,1,4.655,-4.3575,0.3675,0.075274,0.630252,-0.732244,-0.04676,-0.07196,0.52066
13.5943,0,0,5,5,28.5943,28.5943,-22.3366,3.48455,32.3921,0.248324,0.367393,0.0532754,1,1,3.64,-4.3925,-0.105,0.270108,0.758108,-0.883646,-0.04676,-0.07196,0.52066
13.5945,0,0,5,5,28.5945,28.5945,-22.3364,3.47779,32.3954,0.248442,0.367395,0.0532838,1,1,3.64,-4.3925,-0.105,0.270108,0.758108,-0.883646,-0.05432,-0.06748,0.52108
13.6318,0,0,5,5,28.6318,28.6318,-22.3979,3.91426,32.3935,0.463523,0.022925,0.115986,0,1,3.0975,0.0875,0.945,0.493734,0.4148,-0.820572,-0.05432,-0.06748,0.52108
13.6685,0,0,5,5,28.6685,28.6685,-22.4587,4.3442,32.3912,0.456039,0.0221542,0.115083,0,1,3.0975,0.0875,0.945,0.493734,0.4148,-0.820572,-0.05432,-0.06748,0.52108
13.6704,0,0,5,5,28.6704,28.6704,-22.4612,4.34559,32.3931,-0.415402,-0.146176,0.1549,1,1,2.1175,0.315,0.98,-0.381372,0.246684,-0.781044,-0.05432,-0.06748,0.52108
13.6722,0,0,5,5,28.6722,28.6722,-22.4637,4.34697,32.395,-0.415426,-0.146216,0.154882,1,1,2.1175,0.315,0.98,-0.381372,0.246684,-0.781044,-0.05432,-0.06748,0.52108
13.5794,0,0,5,5,28.5794,28.5794,-22.3084,4.0391,32.4091,-0.345315,-0.141913,-0.103762,0,1,4.865,0.455,1.68,-0.316346,0.248636,-1.03907,-0.05432,-0.06748,0.52108
13.4881,0,0,5,5,28.4881,28.4881,-22.1558,3.73601,32.4223,-0.340038,-0.139588,-0.102424,0,1,4.865,0.455,1.68,-0.316346,0.248636,-1.03907,-0.05432,-0.06748,0.52108
13.486,0,0,5,5,28.486,28.486,-22.1517,3.73369,32.4238,0.334856,-0.0685674,-0.176164,1,1,5.8275,-1.5925,-0.07,0.361364,0.319518,-1.11227,-0.05432,-0.06748,0.52108
13.3762,0,0,5,5,28.3762,28.3762,-21.968,3.41149,32.4353,-0.346169,-0.187739,-0.0605415,0,1,3.745,-0.8925,-0.63,-0.32818,0.19764,-0.999058,-0.05432,-0.06748,0.52108
13.2203,0,0,5,5,28.2203,28.2203,-21.7077,3.21612,32.933,-0.342765,-0.183602,-0.0586715,0,0,5.11,-0.1925,-2.1,-0.32818,0.19764,-0.999058,-0.04746,-0.06048,0.52192
13.2189,0,0,5,5,28.2189,28.2189,-21.7049,3.21443,32.9297,-0.307504,0.13898,-0.127134,1,0,5.285,-0.21,-2.52,-0.2928,0.519842,-1.06701,-0.04746,-0.06048,0.52192
13.2191,0,0,5,5,28.2191,28.2191,-21.7046,3.21161,32.9261,-0.307455,0.138983,-0.12713,1,0,3.8675,-0.77,-2.905,-0.2928,0.519842,-1.06701,-0.04746,-0.06048,0.52192
13.2188,0,0,5,5,28.2188,28.2188,-21.7036,3.20765,32.9222,0.213058,-0.0829054,-0.158102,1,0,4.3225,-1.3125,-3.3425,0.229848,0.298168,-1.09776,-0.04746,-0.06048,0.52192
13.2202,0,0,5,5,28.2202,28.2202,-21.7054,3.20794,32.9181,0.213053,-0.0829342,-0.158114,1,0,2.73,1.0325,-2.52,0.229848,0.298168,-1.09776,-0.04746,-0.06048,0.52192
13.091,0,0,5,5,28.091,28.091,-21.4896,3.44081,32.9499,0.28869,-0.241291,-0.10236,0,0,2.87,1.505,-2.135,0.30988,0.136396,-1.04359,-0.04746,-0.06048,0.52192
12.9646,0,0,5,5,27.9646,27.9646,-21.2784,3.66884,32.9845,0.284718,-0.237776,-0.101249,0,0,1.9425,0.245,-1.3125,0.30988,0.136396,-1.04359,-0.04746,-0.06048,0.52192
12.9668,0,0,5,5,27.9668,27.9668,-21.2815,3.66804,32.9835,-0.601384,-0.0943281,-0.0830711,1,0,1.89,-0.2275,-1.085,-0.579988,0.279746,-1.02553,-0.04746,-0.06048,0.52192
12.965,0,0,5,5,27.965,27.965,-21.278,3.67,32.9828,-0.601419,-0.0942697,-0.0830507,1,1,5.6175,1.2075,-0.315,-0.579988,0.279746,-1.02553,-0.04536,-0.07042,0.5285
13.2393,0,0,5,5,28.2393,28.2393,-21.7345,3.43075,32.9544,-0.269361,0.434129,0.269964,0,1,5.915,0.7,0,-0.25071,0.815082,-0.672586,-0.04536,-0.07042,0.5285
13.5105,0,0,5,5,28.5105,28.5105,-22.186,3.19288,32.929,-0.265216,0.426743,0.267245,0,1,4.97,-0.42,-0.035,-0.25071,0.815082,-0.672586,-0.04536,-0.07042,0.5285
13.459,0,0,5,5,28.459,28.459,-22.0995,3.5058,32.9345,0.334573,-0.100062,0.00563679,0,1,4.5325,-0.84,-0.315,0.357094,0.28731,-0.932446,-0.04536,-0.07042,0.5285
13.4094,0,0,5,5,28.4094,28.4094,-22.0164,3.81497,32.9395,0.329188,-0.0985902,0.00586145,0,1,3.465,0.0175,-0.56,0.357094,0.28731,-0.932446,-0.04536,-0.07042,0.5285
13.3135,0,0,5,5,28.3135,28.3135,-21.856,3.8663,32.9499,0.0539796,-0.15643,-0.0586826,0,1,3.885,-0.1225,-0.6125,0.081618,0.22692,-0.997472,-0.04536,-0.07042,0.5285
13.2182,0,0,5,5,28.2182,28.2182,-21.6966,3.91601,32.9601,0.0531141,-0.153831,-0.0577075,0,1,4.8475,-0.49,-0.8925,0.081618,0.22692,-0.997472,-0.04536,-0.07042,0.5285
13.2174,0,0,5,5,28.2174,28.2174,-21.6948,3.91451,32.9604,-0.666784,-0.160153,-0.176463,1,1,4.585,-0.8925,-0.5075,-0.641354,0.220576,-1.11532,-0.04536,-0.07042,0.5285
13.2167,0,0,5,5,28.2167,28.2167,-21.6931,3.91301,32.9607,-0.666758,-0.160125,-0.17645,1,0,4.585,-0.8925,-0.5075,-0.641354,0.220576,-1.11532,-0.05068,-0.06972,0.51842
13.2168,0,0,5,5,28.2168,28.2168,-21.6926,3.91429,32.9621,-0.251299,-0.338788,-0.29288,1,0,3.815,0.385,0.665,-0.224114,0.04209,-1.23086,-0.05068,-0.06972,0.51842
13.2168,0,0,5,5,28.2168,28.2168,-21.6921,3.91556,32.9635,-0.251321,-0.33878,-0.292879,1,0,3.815,0.385,0.665,-0.224114,0.04209,-1.23086,-0.05068,-0.06972,0.51842
13.22,0,0,5,5,28.22,28.22,-21.6969,3.91081,32.9697,0.174083,-0.29355,-0.24938,1,0,0.7,-3.9375,1.9775,0.203008,0.087352,-1.18767,-0.05068,-0.06972,0.51842
13.2231,0,0,5,5,28.2231,28.2231,-21.7016,3.90606,32.976,0.174166,-0.293629,-0.249405,1,0,0.7,-3.9375,1.9775,0.203008,0.087352,-1.18767,-0.05068,-0.06972,0.51842
13.0545,0,0,5,5,28.0545,28.0545,-21.4201,3.87674,33.3091,-0.116647,-0.219836,-0.148106,0,0,4.27,0.3325,2.765,-0.089548,0.156526,-1.08897,-0.05068,-0.06972,0.51842
13.2712,0,0,5,5,28.2712,28.2712,-21.7807,3.7965,33.8069,-0.0296019,0.301145,0.165278,0,0,5.74,0.5775,2.66,-0.003538,0.682834,-0.775798,-0.05068,-0.06972,0.51842
13.485,0,0,5,5,28.485,28.485,-22.1365,3.71637,34.3081,-0.0282063,0.295364,0.163046,0,0,5.39,-0.315,1.8025,-0.003538,0.682834,-0.775798,-0.05068,-0.06972,0.51842
13.4855,0,0,5,5,28.4855,28.4855,-22.1367,3.71716,34.3106,0.229208,0.169571,-0.242317,1,0,3.4125,-0.1225,1.155,0.25498,0.557174,-1.17803,-0.04634,-0.06412,0.51604
13.4857,0,0,5,5,28.4857,28.4857,-22.1365,3.71718,34.3112,0.229208,0.169573,-0.242316,1,0,3.6575,-0.14,-0.0175,0.25498,0.557174,-1.17803,-0.04634,-0.06412,0.51604
13.4866,0,0,5,5,28.4866,28.4866,-22.1374,3.71604,34.3107,0.375618,-0.0812891,-0.275394,1,0,3.15,-0.5075,-0.8925,0.40199,0.306586,-1.21085,-0.04634,-0.06412,0.51604
13.4874,0,0,5,5,28.4874,28.4874,-22.1382,3.71491,34.3102,0.375637,-0.0813031,-0.275398,1,0,3.15,-0.5075,-0.8925,0.40199,0.306586,-1.21085,-0.04634,-0.06412,0.51604
13.4857,0,0,5,5,28.4857,28.4857,-22.1348,3.7134,34.308,-0.497211,0.326409,0.0440457,1,0,5.565,-0.3325,-1.9075,-0.47458,0.713822,-0.893894,-0.04634,-0.06412,0.51604
13.4561,0,0,5,5,28.4561,28.4561,-22.085,4.0261,34.2766,0.39816,-0.157858,0.0956694,0,0,4.8125,0.175,-1.505,0.43005,0.229116,-0.842654,-0.04634,-0.06412,0.51604
13.4314,0,0,5,5,28.4314,28.4314,-22.0432,4.3364,34.245,0.392759,-0.157034,0.095577,0,0,0.3675,1.05,-1.4875,0.43005,0.229116,-0.842654,-0.04634,-0.06412,0.51604
13.4338,0,0,5,5,28.4338,28.4338,-22.0466,4.33815,34.2426,0.123395,0.298688,-0.0276421,1,0,1.7675,1.47,-1.2775,0.159576,0.68442,-0.964898,-0.04634,-0.06412,0.51604
13.4378,0,0,5,5,28.4378,28.4378,-22.0528,4.33795,34.241,0.123398,0.298588,-0.0276823,1,0,0.1925,0.2275,-1.26,0.159576,0.68442,-0.964898,-0.04984,-0.06146,0.51604
13.4403,0,0,5,5,28.4403,28.4403,-22.0564,4.33726,34.2403,-0.357673,-0.3314,-0.268684,1,0,1.6275,-0.21,-0.9275,-0.323544,0.055144,-1.20402,-0.04984,-0.06146,0.51604
13.4358,0,0,5,5,28.4358,28.4358,-22.0483,4.33715,34.24,-0.357671,-0.331269,-0.268631,1,0,8.1725,0,-0.56,-0.323544,0.055144,-1.20402,-0.04984,-0.06146,0.51604
13.4344,0,0,5,5,28.4344,28.4344,-22.0454,4.33694,34.2395,-0.555203,-0.224118,-0.122672,1,0,5.215,-0.0175,-0.665,-0.521916,0.162138,-1.0592,-0.04984,-0.06146,0.51604
13.4327,0,0,5,5,28.4327,28.4327,-22.0421,4.33566,34.2385,-0.555181,-0.224065,-0.122649,1,0,5.53,-0.49,-1.155,-0.521916,0.162138,-1.0592,-0.04984,-0.06146,0.51604
13.5812,0,0,5,5,28.5812,28.5812,-22.289,4.38922,34.565,0.14328,0.221775,0.050251,0,0,4.9875,0.0525,-1.61,0.180438,0.611464,-0.885964,-0.04984,-0.06146,0.51604
13.7287,0,0,5,5,28.7287,28.7287,-22.5343,4.44224,34.8931,0.142357,0.217857,0.0485582,0,0,3.745,-0.07,-2.1875,0.180438,0.611464,-0.885964,-0.04984,-0.06146,0.51604
13.7974,0,0,5,5,28.7974,28.7974,-22.6482,4.73646,34.9036,0.453466,-0.00095653,0.0845479,0,0,2.9925,0,-2.1525,0.498004,0.394548,-0.84912,-0.04984,-0.06146,0.51604
13.8644,0,0,5,5,28.8644,28.8644,-22.7592,5.02779,34.9159,0.4484,-0.00257086,0.0834034,0,0,2.94,-0.245,-2.2925,0.498004,0.394548,-0.84912,-0.05208,-0.06412,0.51394
13.8649,0,0,5,5,28.8649,28.8649,-22.7595,5.02692,34.9138,-0.155855,0.320205,-0.146019,1,0,3.535,0.0175,-1.7325,-0.108824,0.716994,-1.07677,-0.05208,-0.06412,0.51394
13.8645,0,0,5,5,28.8645,28.8645,-22.7583,5.02733,34.913,-0.155862,0.320225,-0.146011,1,0,4.3575,0.385,-0.665,-0.108824,0.716994,-1.07677,-0.05208,-0.06412,0.51394
13.8842,0,0,5,5,28.8842,28.8842,-22.7905,4.75023,35.5495,-0.364251,0.0429315,0.125376,0,0,4.095,0.42,-0.245,-0.322934,0.440664,-0.80764,-0.05208,-0.06412,0.51394
13.9047,0,0,5,5,28.9047,28.9047,-22.8242,4.47683,36.1875,-0.359494,0.0422425,0.125503,0,0,2.9225,0.8925,0.6125,-0.322934,0.440664,-0.80764,-0.05208,-0.06412,0.51394
13.9607,0,0,5,5,28.9607,28.9607,-22.9169,4.47465,36.5722,0.0166631,0.0848424,0.00746234,0,0,1.505,0.3675,1.155,0.054778,0.484706,-0.92415,-0.05208,-0.06412,0.51394
14.0157,0,0,5,5,29.0157,29.0157,-23.0081,4.47306,36.9596,0.0166909,0.0833812,0.00684561,0,0,1.435,0.1925,1.89,0.054778,0.484706,-0.92415,-0.05208,-0.06412,0.51394
14.0175,0,0,5,5,29.0175,29.0175,-23.0105,4.47576,36.9631,0.230337,0.207669,-0.046534,1,0,2.0825,0.6475,2.135,0.269376,0.608902,-0.977098,-0.05208,-0.06412,0.51394
14.0173,0,0,5,5,29.0173,29.0173,-23.0095,4.47856,36.967,0.230289,0.207687,-0.0465305,1,0,4.0075,0.6125,2.3625,0.269376,0.608902,-0.977098,-0.05082,-0.06468,0.51422
14.0138,0,0,5,5,29.0138,29.0138,-23.0032,4.56472,37.2376,0.121032,-0.0172456,-0.0232365,0,0,4.9,-0.1925,1.33,0.161162,0.384056,-0.953918,-0.05082,-0.06468,0.51422
14.01,0,0,5,5,29.01,29.01,-22.9962,4.64949,37.5087,0.119557,-0.0170874,-0.0232985,0,0,5.2675,-0.315,1.015,0.161162,0.384056,-0.953918,-0.05082,-0.06468,0.51422
14.0086,0,0,5,5,29.0086,29.0086,-22.9934,4.64946,37.51,-0.129974,0.22428,-0.217538,1,0,5.1275,-0.315,0.315,-0.089426,0.625128,-1.14668,-0.05082,-0.06468,0.51422
14.0099,0,0,5,5,29.0099,29.0099,-22.9949,4.64936,37.5109,-0.129972,0.224256,-0.217548,1,0,2.7125,-0.28,0.1225,-0.089426,0.625128,-1.14668,-0.05082,-0.06468,0.51422
14.0105,0,0,5,5,29.0105,29.0105,-22.9954,4.64941,37.51,0.17775,0.407805,0.198506,1,0,3.3775,0.2275,-0.84,0.2196,0.808494,-0.73383,-0.05082,-0.06468,0.51422
14.0111,0,0,5,5,29.0111,29.0111,-22.9959,4.64946,37.5091,0.177749,0.407797,0.198503,1,0,3.3775,0.2275,-0.84,0.2196,0.808494,-0.73383,-0.05082,-0.06468,0.51422
14.041,0,0,5,5,29.041,29.041,-23.045,4.85996,37.6342,0.319749,-0.0236117,0.0233015,0,0,2.94,-4.27,-0.0525,0.365878,0.3782,-0.90707,-0.05082,-0.06468,0.51422
13.9222,0,0,5,5,28.9222,28.9222,-22.8465,4.48351,38.2883,-0.601246,-0.106373,0.026862,0,0,3.675,-0.3325,0.07,-0.565592,0.292556,-0.905362,-0.05306,-0.06692,0.51492
13.8069,0,0,5,5,28.8069,28.8069,-22.6537,4.72093,38.3289,0.291553,-0.235781,-0.0579655,0,0,2.7475,0.7525,-0.14,0.335134,0.160064,-0.990518,-0.05306,-0.06692,0.51492
13.6933,0,0,5,5,28.6933,28.6933,-22.4638,4.95262,38.3711,0.287523,-0.2326,-0.0570136,0,0,2.485,-0.77,-0.1575,0.335134,0.160064,-0.990518,-0.05306,-0.06692,0.51492
13.6944,0,0,5,5,28.6944,28.6944,-22.4651,4.95204,38.3714,0.120855,0.207768,-0.223616,1,0,2.8875,-0.385,-0.35,0.16775,0.599996,-1.15583,-0.05306,-0.06692,0.51492
13.6956,0,0,5,5,28.6956,28.6956,-22.4665,4.9524,38.3712,0.120849,0.207744,-0.223627,1,0,2.7825,0.245,-0.42,0.16775,0.599996,-1.15583,-0.05306,-0.06692,0.51492
13.582,0,0,5,5,28.582,28.582,-22.2767,4.69854,38.9156,-0.397125,-0.105897,-0.0305949,0,0,3.64,-0.2275,-0.945,-0.35685,0.283772,-0.965874,-0.05306,-0.06692,0.51492
13.4696,0,0,5,5,28.4696,28.4696,-22.0888,4.44485,39.4568,-0.392711,-0.103003,-0.0290336,0,0,4.6725,-0.455,-1.6975,-0.35685,0.283772,-0.965874,-0.05306,-0.06692,0.51492
13.2915,0,0,5,5,28.2915,28.2915,-21.7914,4.61794,39.5299,0.190203,-0.298036,-0.133303,0,0,5.005,-0.42,-2.345,0.231556,0.084058,-1.07104,-0.05306,-0.06692,0.51492
13.1219,0,0,5,5,28.1219,28.1219,-21.5083,4.77769,39.55,0.187424,-0.293374,-0.131699,0,1,4.0425,-0.945,-2.6425,0.231556,0.084058,-1.07104,-0.05586,-0.063,0.52276
13.1227,0,0,5,5,28.1227,28.1227,-21.509,4.77487,39.5466,-0.253884,-0.0484006,-0.179157,1,1,3.3775,-0.805,-2.835,-0.21167,0.32879,-1.11813,-0.05586,-0.063,0.52276
13.123,0,0,5,5,28.123,28.123,-21.509,4.77444,39.5429,-0.253877,-0.0484006,-0.179157,1,1,3.78,0.5425,-2.4325,-0.21167,0.32879,-1.11813,-0.05586,-0.063,0.52276
13.0347,0,0,5,5,28.0347,28.0347,-21.3613,4.84156,39.5521,0.0741821,-0.142577,-0.0740492,0,1,3.3775,0.7,-2.1,0.11895,0.232288,-1.01467,-0.05586,-0.063,0.52276
12.9474,0,0,5,5,27.9474,27.9474,-21.2152,4.90694,39.5634,0.0730451,-0.140174,-0.0732172,0,1,3.745,-0.07,-1.12,0.11895,0.232288,-1.01467,-0.05586,-0.063,0.52276
12.948,0,0,5,5,27.948,27.948,-21.2158,4.90695,39.5632,-0.470118,0.0389768,-0.13322,1,1,3.3075,0.035,-0.455,-0.426512,0.411262,-1.07421,-0.05586,-0.063,0.52276
12.95,0,0,5,5,27.95,27.95,-21.2186,4.90703,39.5638,-0.470119,0.0389317,-0.133237,1,1,2.0125,-0.0875,-0.035,-0.426512,0.411262,-1.07421,-0.05586,-0.063,0.52276
13.0524,0,0,5,5,28.0524,28.0524,-21.3887,5.01653,39.5506,0.103212,0.125877,0.130734,0,1,1.5225,-0.595,0.175,0.151158,0.50081,-0.811056,-0.05586,-0.063,0.52276
13.1524,0,0,5,5,28.1524,28.1524,-21.5548,5.12568,39.5377,0.101314,0.123251,0.12952,0,1,2.2225,0.1225,0.7,0.151158,0.50081,-0.811056,-0.04606,-0.06118,0.52472
13.1535,0,0,5,5,28.1535,28.1535,-21.5561,5.12739,39.5397,0.195436,-0.0686308,0.306063,1,1,2.765,0.5075,1.05,0.245708,0.309148,-0.635864,-0.04606,-0.06118,0.52472
13.1528,0,0,5,5,28.1528,28.1528,-21.5544,5.12792,39.5424,0.195427,-0.0686018,0.306074,1,1,4.4625,-0.2975,1.225,0.245708,0.309148,-0.635864,-0.04606,-0.06118,0.52472
13.2067,0,0,5,5,28.2067,28.2067,-21.6436,5.54867,39.5364,0.435217,0.040854,0.160649,0,1,4.9525,-0.315,1.085,0.493856,0.41968,-0.77897,-0.04606,-0.06118,0.52472
13.2602,0,0,5,5,28.2602,28.2602,-21.7323,5.96188,39.5286,0.428041,0.0396901,0.159408,0,1,4.6725,-0.7525,0.1225,0.493856,0.41968,-0.77897,-0.04606,-0.06118,0.52472
13.2594,0,0,5,5,28.2594,28.2594,-21.7303,5.96064,39.53,-0.532646,-0.0399051,-0.118072,1,1,4.6375,-0.9975,0.1575,-0.47092,0.340136,-1.05432,-0.04606,-0.06118,0.52472
13.2599,0,0,5,5,28.2599,28.2599,-21.7306,5.96162,39.5304,-0.532663,-0.0399088,-0.118075,1,1,3.43,0.4375,0.07,-0.47092,0.340136,-1.05432,-0.04606,-0.06118,0.52472
13.2603,0,0,5,5,28.2603,28.2603,-21.7308,5.96334,39.5303,-0.548607,-0.286607,-0.220619,1,1,3.4825,0.9625,-0.0875,-0.486902,0.093696,-1.15607,-0.04606,-0.06118,0.52472
13.2608,0,0,5,5,28.2608,28.2608,-21.7311,5.96505,39.5301,-0.548637,-0.28661,-0.220623,1,1,3.4825,0.9625,-0.0875,-0.486902,0.093696,-1.15607,-0.0532,-0.06174,0.52346
13.2612,0,0,5,5,28.2612,28.2612,-21.7312,5.96594,39.5316,0.160702,-0.230433,-0.199355,1,1,3.465,0.1575,0.63,0.225456,0.149816,-1.13497,-0.0532,-0.06174,0.52346
13.2615,0,0,5,5,28.2615,28.2615,-21.7312,5.96683,39.5331,0.160687,-0.230433,-0.199357,1,1,3.465,0.1575,0.63,0.225456,0.149816,-1.13497,-0.0532,-0.06174,0.52346
13.4145,0,0,5,5,28.4145,28.4145,-21.9856,6.03915,39.5088,0.0773074,0.249872,0.108583,0,1,2.2225,-0.035,0.9275,0.142984,0.633668,-0.827648,-0.0532,-0.06174,0.52346
13.4177,0,0,5,5,28.4177,28.4177,-21.9905,6.03906,39.5109,0.0100059,-0.435336,0.208386,1,1,0.77,-0.525,0.77,0.075396,-0.050752,-0.728584,-0.0532,-0.06174,0.52346
13.4195,0,0,5,5,28.4195,28.4195,-21.9928,6.04055,39.5113,0.00998002,-0.435373,0.208369,1,1,2.275,0.7175,0.175,0.075396,-0.050752,-0.728584,-0.0532,-0.06174,0.52346
13.5245,0,0,5,5,28.5245,28.5245,-22.1673,5.71962,39.4944,-0.351942,0.171016,0.0747312,0,1,2.59,0.42,0.28,-0.293654,0.558028,-0.860588,-0.0532,-0.06174,0.52346
13.6252,0,0,5,5,28.6252,28.6252,-22.3346,5.40129,39.4784,-0.346413,0.168123,0.0741292,0,1,5.075,-0.7525,-0.35,-0.293654,0.558028,-0.860588,-0.0532,-0.06174,0.52346
13.6478,0,0,5,5,28.6478,28.6478,-22.3716,5.66361,39.4739,0.282214,0.0259067,0.0496243,0,1,5.215,-0.4725,-1.015,0.34221,0.416386,-0.884256,-0.0532,-0.06174,0.52346
13.7054,0,0,5,5,28.7054,28.7054,-22.4671,5.85077,39.6312,0.278964,0.0244986,0.0486889,0,0,5.1975,0.07,-1.925,0.34221,0.416386,-0.884256,-0.0532,-0.0658,0.5194
13.7047,0,0,5,5,28.7047,28.7047,-22.4654,5.84938,39.6288,0.480897,0.169123,0.0440306,1,0,4.7075,-0.2275,-1.9425,0.544974,0.560834,-0.888892,-0.0532,-0.0658,0.5194
13.7043,0,0,5,5,28.7043,28.7043,-22.4642,5.84852,39.6255,0.480912,0.169143,0.0440402,1,0,4.48,0.2625,-2.3275,0.544974,0.560834,-0.888892,-0.0532,-0.0658,0.5194
13.8944,0,0,5,5,28.8944,28.8944,-22.7804,5.63853,40.2454,-0.239982,0.310851,0.155379,0,0,4.235,0.98,-2.205,-0.182634,0.7076,-0.776652,-0.0532,-0.0658,0.5194
14.0823,0,0,5,5,29.0823,29.0823,-23.093,5.43058,40.8695,-0.236369,0.305714,0.153585,0,0,3.43,0.4375,-2.205,-0.182634,0.7076,-0.776652,-0.0532,-0.0658,0.5194
14.1177,0,0,5,5,29.1177,29.1177,-23.1514,5.49605,41.1706,0.105447,0.0404181,-0.00650082,0,0,3.3075,0.6825,-1.7675,0.161772,0.44347,-0.935008,-0.0532,-0.0658,0.5194
14.1529,0,0,5,5,29.1529,29.1529,-23.2096,5.56113,41.4741,0.104316,0.0395321,-0.00699922,0,0,2.765,0.4725,-1.015,0.161772,0.44347,-0.935008,-0.0532,-0.0658,0.5194
14.2185,0,0,5,5,29.2185,29.2185,-23.3183,5.67841,41.7335,0.181731,0.0494779,0.0402663,0,0,1.4525,-0.525,-0.6825,0.24156,0.45506,-0.887184,-0.0532,-0.0658,0.5194
14.2558,0,0,5,5,29.2558,29.2558,-23.3798,5.84593,41.728,0.178822,0.0486146,0.0395739,0,1,1.0675,-0.595,-0.4725,0.24156,0.45506,-0.887184,-0.049,-0.07434,0.52094
14.1529,0,0,5,5,29.1529,29.1529,-23.2077,6.42456,41.7459,0.625932,-0.275394,0.146851,0,1,2.205,0.5775,-0.595,0.700646,0.128222,-0.780922,-0.049,-0.07434,0.52094
14.0493,0,0,5,5,29.0493,29.0493,-23.0345,6.9956,41.7668,0.616033,-0.272175,0.146959,0,1,3.7625,0.1575,0.14,0.700646,0.128222,-0.780922,-0.049,-0.07434,0.52094
13.8881,0,0,5,5,28.8881,28.8881,-22.7652,6.42316,41.7998,-0.618544,-0.329515,0.0723934,0,1,4.0425,-0.42,0.5075,-0.549122,0.0671,-0.857782,-0.049,-0.07434,0.52094
13.727,0,0,5,5,28.727,28.727,-22.4962,5.85671,41.8284,-0.608714,-0.325613,0.0751657,0,1,6.1775,-0.6125,-0.42,-0.549122,0.0671,-0.857782,-0.049,-0.07434,0.52094
13.7259,0,0,5,5,28.7259,28.7259,-22.4938,5.85585,41.8281,-0.618661,-0.177069,-0.0644862,1,1,4.9875,-0.4025,-0.735,-0.559126,0.215452,-0.996374,-0.049,-0.07434,0.52094
13.724,0,0,5,5,28.724,28.724,-22.4901,5.85606,41.8282,-0.618664,-0.177009,-0.064462,1,1,5.67,0.0875,-0.2625,-0.559126,0.215452,-0.996374,-0.049,-0.07434,0.52094
13.7223,0,0,5,5,28.7223,28.7223,-22.4867,5.85706,41.8285,-0.439976,0.146315,-0.179398,1,1,5.4775,0.455,0.0525,-0.379664,0.538386,-1.11044,-0.049,-0.07434,0.52094
13.7206,0,0,5,5,28.7206,28.7206,-22.4833,5.85807,41.8289,-0.439994,0.14637,-0.179377,1,1,5.4775,0.455,0.0525,-0.379664,0.538386,-1.11044,-0.05054,-0.06972,0.52514
13.7204,0,0,5,5,28.7204,28.7204,-22.4824,5.85919,41.8296,0.377464,0.0320744,-0.0654,1,1,4.06,0.455,0.245,0.441274,0.424194,-0.99735,-0.05054,-0.06972,0.52514
13.7202,0,0,5,5,28.7202,28.7202,-22.4816,5.86032,41.8302,0.377444,0.0320894,-0.065396,1,1,4.06,0.455,0.245,0.441274,0.424194,-0.99735,-0.05054,-0.06972,0.52514
13.7207,0,0,5,5,28.7207,28.7207,-22.4819,5.85422,41.8354,0.0195318,-0.288991,0.215795,1,1,3.1325,-4.4625,1.05,0.08174,0.103456,-0.718336,-0.05054,-0.06972,0.52514
13.7213,0,0,5,5,28.7213,28.7213,-22.4822,5.84812,41.8406,0.0196378,-0.289,0.215803,1,1,3.1325,-4.4625,1.05,0.08174,0.103456,-0.718336,-0.05054,-0.06972,0.52514
