pid_x,pid_y,pid_z,front_left_speed,front_right_speed,back_left_speed,back_right_speed,orientation_x,orientation_y,orientation_z,acceleration_x,acceleration_y,acceleration_z,accel_rejected,mag_rejected,gyro_x,gyro_y,gyro_z,accel_x,accel_y,accel_z,mag_x,mag_y,mag_z
0.369499,0,0,9.6305,9.6305,10.3695,10.3695,-0.461874,-0.10224,0.325332,0.0584406,0.394524,0.0865835,0,0,3.465,-0.1225,-0.385,0.016592,0.414312,-0.926712,-0.04326,-0.11802,0.49896
0.732867,0,0,9.26713,9.26713,10.7329,10.7329,-0.916084,-0.20096,0.655169,0.0601636,0.386597,0.0864837,0,0,3.4475,-0.2975,-0.2625,0.016592,0.414312,-0.926712,-0.04326,-0.11802,0.49896
1.08832,0,0,8.91168,8.91168,11.0883,11.0883,-1.36041,-0.293181,0.98765,0.062988,0.375668,0.0890275,0,0,3.5875,-0.0875,-0.385,0.017812,0.41114,-0.924028,-0.04326,-0.11802,0.49896
1.43938,0,0,8.56062,8.56062,11.4394,11.4394,-1.79923,-0.382782,1.32444,0.0640659,0.368868,0.0911432,0,0,3.5175,-0.035,-0.3325,0.017324,0.411994,-0.92171,-0.04326,-0.11802,0.49896
1.78464,0,0,8.21536,8.21536,11.7846,11.7846,-2.2308,-0.469293,1.66526,0.0655757,0.361341,0.0908671,0,0,3.465,-0.3325,-0.35,0.017324,0.411994,-0.92171,-0.04326,-0.11802,0.49896
2.12273,0,0,7.87727,7.87727,12.1227,12.1227,-2.65341,-0.552036,2.01063,0.0670198,0.355071,0.0842696,0,0,3.465,-0.3325,-0.2975,0.017324,0.413092,-0.927932,-0.04326,-0.11802,0.49896
2.45514,0,0,7.54486,7.54486,12.4551,12.4551,-3.06893,-0.630278,2.3578,0.0683853,0.34783,0.0838936,0,0,3.4125,-0.2625,-0.35,0.017324,0.413092,-0.927932,-0.04508,-0.11508,0.49518
2.78135,0,0,7.21865,7.21865,12.7814,12.7814,-3.47669,-0.697334,2.70145,0.0757514,0.337917,0.0893753,0,0,3.5525,-0.07,-0.3675,0.023546,0.410286,-0.922076,-0.04508,-0.11508,0.49518
3.10347,0,0,6.89653,6.89653,13.1035,13.1035,-3.87934,-0.768221,3.05479,0.0710357,0.332371,0.0908759,0,0,3.9025,0.175,-0.4025,0.017568,0.41175,-0.920124,-0.04508,-0.11508,0.49518
3.41666,0,0,6.58334,6.58334,13.4167,13.4167,-4.27082,-0.832508,3.40987,0.0743443,0.324214,0.0829979,0,0,3.6575,-0.0525,-0.4725,0.019764,0.410408,-0.927444,-0.04508,-0.11508,0.49518
3.7247,0,0,6.2753,6.2753,13.7247,13.7247,-4.65587,-0.893774,3.76882,0.0754135,0.317516,0.0824589,0,0,3.535,-0.1225,-0.2625,0.019764,0.410408,-0.927444,-0.04508,-0.11508,0.49518
4.03005,0,0,5.96995,5.96995,14.0301,14.0301,-5.03757,-0.952134,4.13001,0.0766749,0.309659,0.0919615,0,0,3.5,-0.035,-0.28,0.020008,0.409188,-0.91744,-0.04508,-0.11508,0.49518
4.33107,0,0,5.66893,5.66893,14.3311,14.3311,-5.41384,-1.01212,4.49807,0.0746845,0.306297,0.0872883,0,0,3.6925,-0.315,-0.3325,0.016958,0.41236,-0.921466,-0.04508,-0.11508,0.49518
4.62709,0,0,5.37291,5.37291,14.6271,14.6271,-5.78387,-1.06938,4.8721,0.0756837,0.299872,0.0866403,0,0,3.5875,-0.07,-0.2975,0.016958,0.41236,-0.921466,-0.04648,-0.11676,0.49434
4.91618,0,0,5.08382,5.08382,14.9162,14.9162,-6.14523,-1.11888,5.24509,0.0805566,0.29348,0.0824031,0,0,3.85,-0.035,-0.4375,0.020984,0.412238,-0.925004,-0.04648,-0.11676,0.49434
5.20221,0,0,5,5,15.2022,15.2022,-6.50277,-1.16681,5.62153,0.08115,0.289479,0.082314,0,0,3.92,-0.0525,-0.42,0.02074,0.414434,-0.924394,-0.04648,-0.11676,0.49434
5.47942,0,0,5,5,15.4794,15.4794,-6.84928,-1.21332,6.00455,0.0789243,0.279446,0.0792583,0,0,3.7275,-0.1225,-0.3675,0.01769,0.410408,-0.926712,-0.04648,-0.11676,0.49434
5.75365,0,0,5,5,15.7537,15.7537,-7.19207,-1.25575,6.3883,0.0817301,0.273755,0.0830605,0,0,3.7275,-0.2625,-0.315,0.019764,0.410652,-0.922198,-0.04648,-0.11676,0.49434
6.0235,0,0,5,5,16.0235,16.0235,-7.52937,-1.29512,6.77498,0.082417,0.26792,0.0822913,0,0,3.4825,-0.0175,-0.3675,0.019764,0.410652,-0.922198,-0.04648,-0.11676,0.49434
6.29155,0,0,5,5,16.2916,16.2916,-7.86444,-1.33132,7.1628,0.0849924,0.265548,0.0822316,0,0,3.6225,0,-0.28,0.021716,0.414068,-0.921466,-0.04648,-0.11676,0.49434
6.55519,0,0,5,5,16.5552,16.5552,-8.19399,-1.36578,7.55243,0.0840144,0.257413,0.0874389,0,0,3.5175,0,-0.2625,0.02013,0.411628,-0.915488,-0.04396,-0.11508,0.49518
6.81236,0,0,5,5,16.8124,16.8124,-8.51545,-1.39887,7.94655,0.0833769,0.251744,0.082184,0,0,3.5875,-0.2625,-0.245,0.01891,0.411506,-0.91988,-0.04396,-0.11508,0.49518
7.06491,0,0,5,5,17.0649,17.0649,-8.83114,-1.42619,8.34021,0.0871338,0.247155,0.0787598,0,0,3.4825,-0.2275,-0.245,0.022204,0.41236,-0.922442,-0.04396,-0.11508,0.49518
7.31201,0,0,5,5,17.312,17.312,-9.14001,-1.45357,8.73908,0.0850602,0.240857,0.0779062,0,0,3.605,-0.3325,-0.385,0.019642,0.411384,-0.922442,-0.04396,-0.11508,0.49518
7.55489,0,0,5,5,17.5549,17.5549,-9.44362,-1.47874,9.14112,0.0854994,0.235631,0.0770399,0,0,3.535,-0.42,-0.21,0.019642,0.411384,-0.922442,-0.04396,-0.11508,0.49518
7.79194,0,0,5,5,17.7919,17.7919,-9.73992,-1.50396,9.54909,0.0827808,0.230658,0.0714951,0,0,3.4475,-0.21,-0.315,0.01647,0.411506,-0.927078,-0.04396,-0.11508,0.49518
8.02268,0,0,5,5,18.0227,18.0227,-10.0284,-1.52669,9.9602,0.082327,0.226557,0.0628752,0,0,3.36,-0.0525,-0.315,0.015616,0.41236,-0.934764,-0.04634,-0.11718,0.50162
8.2508,0,0,5,5,18.2508,18.2508,-10.3135,-1.54507,10.3712,0.0850774,0.220807,0.0675209,0,0,3.2725,0.0175,-0.3325,0.018056,0.411506,-0.929274,-0.04634,-0.11718,0.50162
8.47696,0,0,5,5,18.477,18.477,-10.5962,-1.56065,10.7831,0.086564,0.215347,0.0742415,0,0,3.465,0.14,-0.385,0.019276,0.410896,-0.92171,-0.04634,-0.11718,0.50162
8.69493,0,0,5,5,18.6949,18.6949,-10.8687,-1.57587,11.2004,0.0846428,0.212632,0.059087,0,0,3.7625,-0.1225,-0.35,0.01708,0.412848,-0.935862,-0.04634,-0.11718,0.50162
8.90925,0,0,5,5,18.9092,18.9092,-11.1366,-1.58925,11.6203,0.0848762,0.208045,0.0581887,0,0,3.6225,-0.21,-0.315,0.01708,0.412848,-0.935862,-0.04634,-0.11718,0.50162
9.1241,0,0,5,5,19.1241,19.1241,-11.4051,-1.59774,12.0383,0.0891548,0.202352,0.0707932,0,0,3.535,-0.14,-0.2275,0.021228,0.41175,-0.922442,-0.04634,-0.11718,0.50162
9.33449,0,0,5,5,19.3345,19.3345,-11.6681,-1.60606,12.4608,0.0874777,0.198346,0.066675,0,0,3.3775,-0.21,-0.2275,0.019398,0.412238,-0.925614,-0.04634,-0.11718,0.50162
9.54142,0,0,5,5,19.5414,19.5414,-11.9268,-1.61378,12.8926,0.0876125,0.193929,0.0657486,0,0,3.36,0.035,-0.2975,0.019398,0.412238,-0.925614,-0.04382,-0.12124,0.49868
9.74212,0,0,5,5,19.7421,19.7421,-12.1776,-1.61991,13.3275,0.0867475,0.18794,0.0633564,0,0,3.6575,-0.0875,-0.315,0.018422,0.41053,-0.927078,-0.04382,-0.12124,0.49868
9.94395,0,0,5,5,19.944,19.944,-12.4299,-1.62441,13.7636,0.0884052,0.184739,0.0720062,0,0,3.675,-0.0875,-0.2975,0.020008,0.411628,-0.917562,-0.04382,-0.12124,0.49868
10.1385,0,0,5,5,20.1385,20.1385,-12.6731,-1.62851,14.2045,0.08629,0.182552,0.0564515,0,0,3.4125,-0.2625,-0.2975,0.017812,0.41358,-0.93208,-0.04382,-0.12124,0.49868
10.3295,0,0,5,5,20.3295,20.3295,-12.9119,-1.63056,14.6475,0.0863259,0.17849,0.055528,0,0,3.4125,-0.035,-0.4025,0.017812,0.41358,-0.93208,-0.04382,-0.12124,0.49868
10.5309,0,0,5,5,20.5309,20.5309,-13.1636,-1.6852,15.1415,0.0447591,0.219649,-0.00647207,0,0,3.6925,-4.48,-0.3675,-0.024888,0.458964,-0.992592,-0.04382,-0.12124,0.49868
10.7054,0,0,5,5,20.7054,20.7054,-13.3817,-1.52696,15.4142,0.237104,0.130561,0.116416,0,0,3.78,-0.0525,-0.21,0.171044,0.373686,-0.86986,-0.04382,-0.12124,0.49868
10.8775,0,0,5,5,20.8775,20.8775,-13.5969,-1.37044,15.6877,0.234373,0.126895,0.115607,0,0,3.22,0.035,-0.1225,0.171044,0.373686,-0.86986,-0.0413,-0.12026,0.49896
11.14,0,0,5,5,21.14,21.14,-13.925,-1.47098,16.2255,0.0119866,0.259226,0.0633027,0,0,3.5175,0.2275,0.0175,-0.054046,0.511424,-0.920368,-0.0413,-0.12026,0.49896
11.3393,0,0,5,5,21.3393,21.3393,-14.1741,-1.27765,16.4503,0.30188,0.167302,0.0860551,0,0,3.5525,0.2275,-0.4025,0.240462,0.423828,-0.896822,-0.0413,-0.12026,0.49896
11.5117,0,0,5,5,21.5117,21.5117,-14.3896,-1.38089,17.0165,-0.0307689,0.150479,0.0805379,0,0,3.15,-0.245,-0.3675,-0.095404,0.410652,-0.901336,-0.0413,-0.12026,0.49896
11.71,0,0,5,5,21.71,21.71,-14.6375,-1.35493,17.4418,0.123187,0.19575,0.0297931,0,0,4.3225,-0.1575,-0.4725,0.059658,0.460062,-0.950624,-0.0413,-0.12026,0.49896
11.9043,0,0,5,5,21.9043,21.9043,-14.8804,-1.328,17.8693,0.122717,0.191649,0.0287242,0,0,4.62,-0.2625,-0.6125,0.059658,0.460062,-0.950624,-0.0413,-0.12026,0.49896
12.0395,0,0,5,5,22.0395,22.0395,-15.0494,-1.22537,18.2252,0.176809,0.121376,0.0323045,0,0,4.69,-0.3325,-0.735,0.115778,0.392718,-0.946354,-0.0413,-0.12026,0.49896
12.1737,0,0,5,5,22.1737,22.1737,-15.2171,-1.12262,18.5822,0.175016,0.118541,0.0315758,0,0,3.6225,0.07,-0.91,0.115778,0.392718,-0.946354,-0.0413,-0.12026,0.49896
12.2545,0,0,5,5,22.2545,22.2545,-15.3181,-1.39257,19.3282,-0.255678,0.0768105,0.0710931,0,0,3.22,0.49,-1.1375,-0.32147,0.352702,-0.906582,-0.0448,-0.11718,0.50372
12.5234,0,0,5,5,22.5234,22.5234,-15.6543,-1.3007,19.6747,0.244212,0.291343,-0.00445153,0,0,2.3275,0.735,-1.225,0.182146,0.572668,-0.980026,-0.0448,-0.11718,0.50372
12.5253,0,0,5,5,22.5253,22.5253,-15.6566,-1.30163,19.6739,0.244228,0.291304,-0.00446282,1,0,2.24,-0.4375,-0.875,0.182146,0.572668,-0.980026,-0.0448,-0.11718,0.50372
12.5259,0,0,5,5,22.5259,22.5259,-15.6573,-1.30281,19.6728,-0.20051,0.338554,-0.0606543,1,0,3.115,-0.525,-1.1025,-0.264496,0.619882,-1.03578,-0.0448,-0.11718,0.50372
12.5257,0,0,5,5,22.5257,22.5257,-15.6572,-1.30337,19.6728,-0.200501,0.338558,-0.0606536,1,0,3.6575,-0.35,-0.385,-0.264496,0.619882,-1.03578,-0.0448,-0.11718,0.50372
12.5243,0,0,5,5,22.5243,22.5243,-15.6553,-1.3054,19.6733,-0.0347588,-0.0303562,-0.332239,1,0,4.585,-1.2425,-0.385,-0.098088,0.25132,-1.30528,-0.0448,-0.11718,0.50372
12.522,0,0,5,5,22.522,22.522,-15.6525,-1.30525,19.6736,-0.0347614,-0.030308,-0.332225,1,0,5.1625,0,-0.0875,-0.098088,0.25132,-1.30528,-0.0448,-0.11718,0.50372
12.5201,0,0,5,5,22.5201,22.5201,-15.6502,-1.3062,19.6739,-0.771798,-0.233122,-0.00357377,1,0,4.83,-0.6125,-0.2975,-0.838262,0.048678,-0.979172,-0.0448,-0.11718,0.50372
12.5196,0,0,5,5,22.5196,22.5196,-15.6495,-1.30522,19.6749,-0.771816,-0.23311,-0.00356997,1,1,3.9725,0.3675,0.4025,-0.838262,0.048678,-0.979172,-0.0441,-0.10948,0.51072
12.5181,0,0,5,5,22.5181,22.5181,-15.6476,-1.30499,19.6765,0.365408,0.835285,-0.147165,1,1,4.6025,-0.1575,0.6475,0.30378,1.11593,-1.12167,-0.0441,-0.10948,0.51072
12.519,0,0,5,5,22.519,22.519,-15.6487,-1.30205,19.6793,0.365357,0.835266,-0.147169,1,1,2.9575,1.19,1.715,0.30378,1.11593,-1.12167,-0.0441,-0.10948,0.51072
12.5197,0,0,5,5,22.5197,22.5197,-15.6496,-1.30021,19.6821,0.780077,-0.0966973,-0.174959,1,1,3.115,0.56,1.5575,0.720288,0.184952,-1.14924,-0.0441,-0.10948,0.51072
12.5233,0,0,5,5,22.5233,22.5233,-15.6542,-1.29792,19.6846,0.780037,-0.0967745,-0.17498,1,1,1.015,0.8575,1.4875,0.720288,0.184952,-1.14924,-0.0441,-0.10948,0.51072
12.5255,0,0,5,5,22.5255,22.5255,-15.6568,-1.29594,19.6886,-0.265382,0.293619,-0.0636001,1,1,2.1,0.455,2.2575,-0.329522,0.574986,-1.03871,-0.0441,-0.10948,0.51072
12.5278,0,0,5,5,22.5278,22.5278,-15.6598,-1.29214,19.6912,-0.265449,0.293569,-0.0636126,1,1,1.925,1.6975,1.7675,-0.329522,0.574986,-1.03871,-0.0441,-0.10948,0.51072
12.6344,0,0,5,5,22.6344,22.6344,-15.7929,-1.57113,19.6975,-0.261067,0.119778,0.0283439,0,1,3.2375,0.5775,1.6625,-0.33001,0.403576,-0.94672,-0.0441,-0.10948,0.51072
12.7384,0,0,5,5,22.7384,22.7384,-15.923,-1.84811,19.705,-0.256235,0.117635,0.0275852,0,1,3.5875,-1.4,1.4875,-0.33001,0.403576,-0.94672,-0.04018,-0.10234,0.52472
13.0428,0,0,5,5,23.0428,23.0428,-16.3035,-1.84189,19.7207,0.00995348,0.312399,0.144268,0,1,4.69,-2.2925,1.1375,-0.062586,0.60451,-0.829112,-0.04018,-0.10234,0.52472
13.3411,0,0,5,5,23.3411,23.3411,-16.6763,-1.83443,19.7352,0.00982345,0.306162,0.142427,0,1,5.075,-1.4175,0.7525,-0.062586,0.60451,-0.829112,-0.04018,-0.10234,0.52472
13.3386,0,0,5,5,23.3386,23.3386,-16.6732,-1.83398,19.7362,0.577032,0.400252,0.250022,1,1,5.32,0.0525,0.3325,0.507032,0.69845,-0.722362,-0.04018,-0.10234,0.52472
13.3382,0,0,5,5,23.3382,23.3382,-16.6727,-1.83397,19.735,0.577032,0.40026,0.250025,1,1,3.7975,0.175,-0.9625,0.507032,0.69845,-0.722362,-0.04018,-0.10234,0.52472
13.5378,0,0,5,5,23.5378,23.5378,-16.9222,-1.38333,19.7396,0.385362,0.163134,0.190701,0,1,3.185,1.2075,-1.3475,0.322446,0.465796,-0.78019,-0.04018,-0.10234,0.52472
13.7341,0,0,5,5,23.7341,23.7341,-17.1676,-0.943235,19.7418,0.377683,0.158994,0.189595,0,1,2.9925,-0.21,-2.065,0.322446,0.465796,-0.78019,-0.04018,-0.10234,0.52472
13.7347,0,0,5,5,23.7347,23.7347,-17.1684,-0.944279,19.7387,0.171904,-0.106522,-0.165362,1,1,3.08,-0.0875,-2.1875,0.115778,0.200568,-1.1324,-0.04018,-0.10234,0.52472
13.7343,0,0,5,5,23.7343,23.7343,-17.1679,-0.945478,19.7345,0.171925,-0.106514,-0.16536,1,1,3.78,0.035,-2.8875,0.115778,0.200568,-1.1324,-0.04102,-0.10136,0.5243
13.7319,0,0,5,5,23.7319,23.7319,-17.1649,-0.946172,19.7296,-0.713694,-0.105975,-0.241204,1,1,5.215,0.42,-3.1325,-0.773602,0.201056,-1.20768,-0.04102,-0.10136,0.5243
13.733,0,0,5,5,23.733,23.733,-17.1662,-0.947877,19.7247,-0.713664,-0.105997,-0.241211,1,1,2.765,-0.14,-3.325,-0.773602,0.201056,-1.20768,-0.04102,-0.10136,0.5243
13.7342,0,0,5,5,23.7342,23.7342,-17.1677,-0.950806,19.72,0.156832,-0.0815964,-0.346217,1,1,2.66,-0.8575,-3.43,0.100528,0.225456,-1.31187,-0.04102,-0.10136,0.5243
13.733,0,0,5,5,23.733,23.733,-17.1663,-0.953182,19.7156,0.156874,-0.081572,-0.346211,1,1,4.3225,-0.595,-3.185,0.100528,0.225456,-1.31187,-0.04102,-0.10136,0.5243
13.7325,0,0,5,5,23.7325,23.7325,-17.1656,-0.953442,19.7116,1.05684,0.705423,0.0329657,1,1,3.8675,0.5075,-2.555,1.0043,1.01162,-0.935618,-0.04102,-0.10136,0.5243
13.7321,0,0,5,5,23.7321,23.7321,-17.1651,-0.955776,19.7083,1.05689,0.705432,0.0329676,1,1,3.7975,-0.77,-2.5375,1.0043,1.01162,-0.935618,-0.04102,-0.10136,0.5243
13.7329,0,0,5,5,23.7329,23.7329,-17.1661,-0.95327,19.7041,-0.241233,-0.242289,0.294106,1,1,2.9575,2.1,-2.2225,-0.299266,0.064904,-0.67649,-0.04102,-0.10136,0.5243
13.7338,0,0,5,5,23.7338,23.7338,-17.1672,-0.954878,19.7013,-0.241205,-0.242307,0.2941,1,1,2.905,-0.455,-2.1175,-0.299266,0.064904,-0.67649,-0.04046,-0.0966,0.53116
13.7365,0,0,5,5,23.7365,23.7365,-17.1707,-0.952933,19.7009,-0.0196493,-0.215252,0.69428,1,1,1.6275,1.1375,-0.2275,-0.076738,0.091988,-0.27938,-0.04046,-0.0966,0.53116
13.7326,0,0,5,5,23.7326,23.7326,-17.1658,-0.951997,19.7021,-0.0196656,-0.215171,0.694305,1,1,6.2825,0.28,0.5425,-0.076738,0.091988,-0.27938,-0.04046,-0.0966,0.53116
13.731,0,0,5,5,23.731,23.731,-17.1638,-0.952298,19.7042,-0.483128,0.398794,0.0436722,1,1,4.725,-0.56,0.805,-0.542168,0.705282,-0.925004,-0.04046,-0.0966,0.53116
13.7305,0,0,5,5,23.7305,23.7305,-17.1631,-0.953435,19.7069,-0.483108,0.398804,0.043675,1,1,3.92,-1.1375,1.015,-0.542168,0.705282,-0.925004,-0.04046,-0.0966,0.53116
13.5581,0,0,5,5,23.5581,23.5581,-16.9476,-1.4699,19.7063,-0.420521,-0.228939,0.147258,0,1,4.795,-1.0675,1.8025,-0.488366,0.074542,-0.823134,-0.04046,-0.0966,0.53116
13.3881,0,0,5,5,23.3881,23.3881,-16.7351,-1.97969,19.7053,-0.411628,-0.225314,0.148075,0,1,5.11,-2.45,2.1875,-0.488366,0.074542,-0.823134,-0.04046,-0.0966,0.53116
13.5275,0,0,5,5,23.5275,23.5275,-16.9094,-2.11697,19.7155,-0.13504,0.173476,0.00240329,0,1,3.6925,0.385,2.2575,-0.213012,0.4758,-0.966728,-0.04046,-0.0966,0.53116
13.6622,0,0,5,5,23.6622,23.6622,-17.0778,-2.25145,19.726,-0.132695,0.170694,0.00145967,0,1,5.18,0.4725,2.24,-0.213012,0.4758,-0.966728,-0.04046,-0.0966,0.53116
13.8613,0,0,5,5,23.8613,23.8613,-17.3266,-2.71744,19.7405,-0.394632,0.153707,0.22336,0,1,2.975,-0.2975,1.9425,-0.484218,0.462868,-0.744932,-0.03514,-0.09184,0.52542
13.757,0,0,5,5,23.757,23.757,-17.1962,-1.86436,19.7387,0.736708,-0.219226,0.3237,0,1,1.8025,0.63,2.065,0.666852,0.088328,-0.6466,-0.03514,-0.09184,0.52542
13.6505,0,0,5,5,23.6505,23.6505,-17.0631,-1.02031,19.7385,0.721982,-0.217116,0.324738,0,1,4.235,1.54,2.1175,0.666852,0.088328,-0.6466,-0.03514,-0.09184,0.52542
13.6501,0,0,5,5,23.6501,23.6501,-17.0626,-1.01823,19.7415,-0.172554,0.432241,-0.061071,1,1,3.8675,0.63,1.6975,-0.231434,0.737002,-1.02944,-0.03514,-0.09184,0.52542
13.6491,0,0,5,5,23.6491,23.6491,-17.0614,-1.0206,19.744,-0.172512,0.43226,-0.0610659,1,1,4.2175,-1.8025,0.7175,-0.231434,0.737002,-1.02944,-0.03514,-0.09184,0.52542
13.6446,0,0,5,5,23.6446,23.6446,-17.0558,-1.02464,19.7459,-0.383705,-0.0372234,-0.249272,1,1,6.72,-2.6075,0.035,-0.443592,0.267912,-1.21622,-0.03514,-0.09184,0.52542
13.6417,0,0,5,5,23.6417,23.6417,-17.0522,-1.02959,19.747,-0.383619,-0.0371624,-0.249255,1,1,5.6,-2.9925,-0.5425,-0.443592,0.267912,-1.21622,-0.03514,-0.09184,0.52542
13.639,0,0,5,5,23.639,23.639,-17.0488,-1.03344,19.7468,-0.143132,0.0128447,-0.135143,1,1,5.46,-2.1525,-1.085,-0.202154,0.31781,-1.103,-0.03514,-0.09184,0.52542
13.6372,0,0,5,5,23.6372,23.6372,-17.0465,-1.03258,19.7448,-0.143147,0.0128822,-0.135131,1,1,4.795,0.7875,-1.2425,-0.202154,0.31781,-1.103,-0.03654,-0.0917,0.53424
13.6387,0,0,5,5,23.6387,23.6387,-17.0483,-1.03118,19.7423,-0.171356,0.52957,-0.309235,1,1,2.5025,1.19,-1.4875,-0.230458,0.833992,-1.27575,-0.03654,-0.0917,0.53424
13.6399,0,0,5,5,23.6399,23.6399,-17.0498,-1.03128,19.7393,-0.171354,0.529545,-0.309243,1,1,2.695,0.42,-1.9775,-0.230458,0.833992,-1.27575,-0.03654,-0.0917,0.53424
13.639,0,0,5,5,23.639,23.639,-17.0488,-1.02986,19.7358,0.268885,-0.142867,0.360341,1,1,4.1125,1.365,-2.0125,0.21167,0.16226,-0.611342,-0.03654,-0.0917,0.53424
13.637,0,0,5,5,23.637,23.637,-17.0462,-1.02953,19.7329,0.268879,-0.142825,0.360354,1,1,4.935,0.6475,-1.8375,0.21167,0.16226,-0.611342,-0.03654,-0.0917,0.53424
13.6352,0,0,5,5,23.6352,23.6352,-17.044,-1.03054,19.7298,-0.214737,0.0755756,0.215163,1,1,4.795,-0.07,-2.205,-0.274012,0.380396,-0.755424,-0.03654,-0.0917,0.53424
13.6331,0,0,5,5,23.6331,23.6331,-17.0414,-1.03267,19.7269,-0.2147,0.0756189,0.215175,1,1,4.97,-0.7175,-2.31,-0.274012,0.380396,-0.755424,-0.03654,-0.0917,0.53424
13.6554,0,0,5,5,23.6554,23.6554,-17.0693,-1.14795,19.7258,-0.0983704,0.013857,0.0445894,0,1,4.8825,-0.3325,-1.3825,-0.15921,0.319152,-0.924516,-0.03654,-0.0917,0.53424
13.6789,0,0,5,5,23.6789,23.6789,-17.0986,-1.26332,19.7258,-0.0963573,0.013381,0.0443988,0,1,3.815,-1.8025,-1.225,-0.15921,0.319152,-0.924516,-0.0378,-0.09296,0.54012
13.6789,0,0,5,5,23.6789,23.6789,-17.0986,-1.26511,19.7254,0.446715,0.282303,-0.304899,1,1,3.5175,-0.9625,-0.84,0.38613,0.587796,-1.27112,-0.0378,-0.09296,0.54012
13.6761,0,0,5,5,23.6761,23.6761,-17.0951,-1.26371,19.7239,0.44669,0.282362,-0.30488,1,1,5.495,1.015,-0.91,0.38613,0.587796,-1.27112,-0.0378,-0.09296,0.54012
13.6737,0,0,5,5,23.6737,23.6737,-17.0921,-1.26275,19.7233,0.171752,0.197411,-0.0996637,1,1,5.215,0.6125,-0.49,0.110044,0.502884,-1.0675,-0.0378,-0.09296,0.54012
13.6713,0,0,5,5,23.6713,23.6713,-17.0892,-1.2618,19.7226,0.171735,0.197461,-0.0996481,1,1,5.215,0.6125,-0.49,0.110044,0.502884,-1.0675,-0.0378,-0.09296,0.54012
13.6674,0,0,5,5,23.6674,23.6674,-17.0842,-1.25768,19.7237,0.183933,0.237478,0.295781,1,1,6.335,2.0825,1.015,0.122366,0.542778,-0.675148,-0.0378,-0.09296,0.54012
13.6634,0,0,5,5,23.6634,23.6634,-17.0793,-1.25357,19.7248,0.183861,0.23756,0.295808,1,1,6.335,2.0825,1.015,0.122366,0.542778,-0.675148,-0.0378,-0.09296,0.54012
13.6623,0,0,5,5,23.6623,23.6623,-17.0778,-1.25649,19.7282,-0.00305401,0.155149,0.195488,1,1,4.41,-2.24,1.05,-0.065392,0.460428,-0.7747,-0.0378,-0.09296,0.54012
13.6611,0,0,5,5,23.6611,23.6611,-17.0764,-1.25941,19.7315,-0.00300302,0.155174,0.195495,1,1,4.41,-2.24,1.05,-0.065392,0.460428,-0.7747,-0.04228,-0.09338,0.53424
13.6576,0,0,5,5,23.6576,23.6576,-17.072,-1.26057,19.7341,-0.131029,0.26052,0.00605299,1,1,6.02,-1.1375,0.98,-0.19398,0.565592,-0.962702,-0.04228,-0.09338,0.53424
13.6541,0,0,5,5,23.6541,23.6541,-17.0677,-1.26173,19.7368,-0.131008,0.260592,0.00607482,1,1,6.02,-1.1375,0.98,-0.19398,0.565592,-0.962702,-0.04228,-0.09338,0.53424
13.652,0,0,5,5,23.652,23.652,-17.065,-1.26523,19.7403,0.29158,0.0894154,-0.0580919,1,1,5.0925,-2.59,1.0325,0.230336,0.394548,-1.02639,-0.04228,-0.09338,0.53424
13.6499,0,0,5,5,23.6499,23.6499,-17.0623,-1.26874,19.7437,0.291641,0.0894604,-0.0580795,1,1,5.0925,-2.59,1.0325,0.230336,0.394548,-1.02639,-0.04228,-0.09338,0.53424
13.6484,0,0,5,5,23.6484,23.6484,-17.0605,-1.2685,19.745,0.10625,0.482983,0.125492,1,1,4.6025,-0.1225,0.4725,0.044164,0.787632,-0.84424,-0.04228,-0.09338,0.53424
13.6469,0,0,5,5,23.6469,23.6469,-17.0586,-1.26825,19.7464,0.106245,0.483014,0.125502,1,1,4.6025,-0.1225,0.4725,0.044164,0.787632,-0.84424,-0.04228,-0.09338,0.53424
13.6877,0,0,5,5,23.6877,23.6877,-17.1096,-0.968319,19.7473,0.289436,0.0673915,-0.0314214,0,1,6.51,1.925,0.175,0.233386,0.37332,-0.99979,-0.04228,-0.09338,0.53424
13.7277,0,0,5,5,23.7277,23.7277,-17.1596,-0.673939,19.7479,0.284298,0.0665355,-0.0316082,0,1,6.51,1.925,0.175,0.233386,0.37332,-0.99979,-0.03668,-0.09394,0.53368
13.7253,0,0,5,5,23.7253,23.7253,-17.1566,-0.674862,19.748,0.344086,-0.212474,0.181231,1,1,5.2325,-0.5775,-0.3675,0.29341,0.09455,-0.788608,-0.03668,-0.09394,0.53368
13.7229,0,0,5,5,23.7229,23.7229,-17.1536,-0.675785,19.7482,0.344102,-0.212424,0.181246,1,1,5.2325,-0.5775,-0.3675,0.29341,0.09455,-0.788608,-0.03668,-0.09394,0.53368
13.7217,0,0,5,5,23.7217,23.7217,-17.1521,-0.676695,19.7482,0.327838,0.208573,-0.0318157,1,1,4.4275,-0.5425,-0.455,0.277062,0.515084,-1.00003,-0.03668,-0.09394,0.53368
13.7204,0,0,5,5,23.7204,23.7204,-17.1505,-0.677605,19.7482,0.327854,0.208599,-0.0318079,1,1,4.4275,-0.5425,-0.455,0.277062,0.515084,-1.00003,-0.03668,-0.09394,0.53368
13.7196,0,0,5,5,23.7196,23.7196,-17.1495,-0.679175,19.7477,0.353637,0.179306,-0.151186,1,1,4.13,-0.8225,-0.8575,0.302926,0.485804,-1.1185,-0.03668,-0.09394,0.53368
13.7188,0,0,5,5,23.7188,23.7188,-17.1484,-0.680745,19.7472,0.353664,0.179323,-0.151181,1,1,4.13,-0.8225,-0.8575,0.302926,0.485804,-1.1185,-0.03668,-0.09394,0.53368
13.7182,0,0,5,5,23.7182,23.7182,-17.1478,-0.679952,19.7458,0.0357222,0.184586,-0.0637608,1,1,3.92,0.6475,-0.9275,-0.016348,0.49105,-1.03175,-0.03668,-0.09394,0.53368
13.7177,0,0,5,5,23.7177,23.7177,-17.1471,-0.67916,19.7445,0.0357084,0.184597,-0.0637572,1,1,3.92,0.6475,-0.9275,-0.016348,0.49105,-1.03175,-0.03514,-0.0868,0.5348
13.7352,0,0,5,5,23.7352,23.7352,-17.169,-0.625629,19.7431,0.0449789,0.0152055,0.0229419,0,1,4.6725,1.995,-0.7,-0.0061,0.322202,-0.945622,-0.03514,-0.0868,0.5348
13.7524,0,0,5,5,23.7524,23.7524,-17.1905,-0.57312,19.7416,0.0440625,0.0148445,0.0228403,0,1,4.6725,1.995,-0.7,-0.0061,0.322202,-0.945622,-0.03514,-0.0868,0.5348
13.7513,0,0,5,5,23.7513,23.7513,-17.1891,-0.572721,19.7414,0.108443,-0.0366706,0.174689,1,1,4.305,0.2275,-0.35,0.05856,0.270718,-0.794952,-0.03514,-0.0868,0.5348
13.7502,0,0,5,5,23.7502,23.7502,-17.1878,-0.572322,19.7412,0.108436,-0.0366482,0.174696,1,1,4.305,0.2275,-0.35,0.05856,0.270718,-0.794952,-0.03514,-0.0868,0.5348
13.7489,0,0,5,5,23.7489,23.7489,-17.1861,-0.564866,19.7394,-0.0447661,0.244149,-0.0271759,1,1,4.48,4.4625,-0.0525,-0.09516,0.551196,-0.995276,-0.03514,-0.0868,0.5348
13.7476,0,0,5,5,23.7476,23.7476,-17.1844,-0.55741,19.7375,-0.0448962,0.244176,-0.027166,1,1,4.48,4.4625,-0.0525,-0.09516,0.551196,-0.995276,-0.03514,-0.0868,0.5348
13.7695,0,0,5,5,23.7695,23.7695,-17.2119,-0.380767,19.7381,0.163649,0.0266925,-0.0014642,0,1,3.36,-0.1575,-0.1225,0.117364,0.334402,-0.969656,-0.03514,-0.0868,0.5348
13.791,0,0,5,5,23.791,23.791,-17.2388,-0.207446,19.7386,0.160624,0.0262395,-0.00158838,0,1,3.36,-0.1575,-0.1225,0.117364,0.334402,-0.969656,-0.03514,-0.0868,0.5348
13.7926,0,0,5,5,23.7926,23.7926,-17.2407,-0.206445,19.739,0.0556429,-0.075647,0.168562,1,1,2.45,0.455,0.105,0.011956,0.232654,-0.800808,-0.04004,-0.0826,0.54292
13.7931,0,0,5,5,23.7931,23.7931,-17.2413,-0.205341,19.7395,-0.355605,0.20035,-0.0634446,1,1,3.22,0.5075,0.14,-0.401014,0.508374,-1.03102,-0.04004,-0.0826,0.54292
13.8822,0,0,5,5,23.8822,23.8822,-17.3527,0.0621122,19.7404,0.256145,0.109095,0.0124569,0,1,4.0075,0.3675,0.28,0.218014,0.41907,-0.955138,-0.04004,-0.0826,0.54292
13.9681,0,0,5,5,23.9681,23.9681,-17.4601,0.322339,19.7412,0.251603,0.107311,0.0118817,0,1,5.0925,-0.9975,0.14,0.218014,0.41907,-0.955138,-0.04004,-0.0826,0.54292
13.9663,0,0,5,5,23.9663,23.9663,-17.4579,0.320762,19.7428,0.215428,0.257441,-0.0841294,1,1,4.7775,-1.19,0.2975,0.181658,0.569008,-1.05042,-0.04004,-0.0826,0.54292
13.9659,0,0,5,5,23.9659,23.9659,-17.4574,0.319801,19.7436,0.215445,0.25745,-0.0841267,1,1,3.8325,-0.7175,0,0.181658,0.569008,-1.05042,-0.04004,-0.0826,0.54292
13.9792,0,0,5,5,23.9792,23.9792,-17.474,0.258603,19.744,-0.0570729,0.0265961,-0.0314637,0,1,3.675,-0.455,-0.14,-0.093086,0.338672,-0.998082,-0.04004,-0.0826,0.54292
13.9937,0,0,5,5,23.9937,23.9937,-17.4922,0.198747,19.7438,-0.0560282,0.0262927,-0.0315549,0,1,2.6425,-0.245,-0.4725,-0.093086,0.338672,-0.998082,-0.0399,-0.07616,0.54992
14.163,0,0,5,5,24.163,24.163,-17.7037,0.191052,19.7431,-0.00608476,0.144411,0.135154,0,1,2.9925,-0.5075,-0.4375,-0.043066,0.460184,-0.831552,-0.0399,-0.07616,0.54992
14.3287,0,0,5,5,24.3287,24.3287,-17.9108,0.184911,19.7419,-0.00597759,0.140969,0.134049,0,1,3.29,0.385,-0.5075,-0.043066,0.460184,-0.831552,-0.0399,-0.07616,0.54992
14.3955,0,0,5,5,24.3955,24.3955,-17.9944,0.189447,19.7406,0.00414803,0.100135,-0.0450452,0,1,3.22,0.455,-0.77,-0.032818,0.420778,-1.00882,-0.0399,-0.07616,0.54992
14.4631,0,0,5,5,24.4631,24.4631,-18.0788,0.194267,19.7389,0.00406392,0.098734,-0.0455017,0,1,1.8375,0.735,-0.9275,-0.032818,0.420778,-1.00882,-0.0399,-0.07616,0.54992
14.4281,0,0,5,5,24.4281,24.4281,-18.0351,0.37681,19.7378,0.156987,-0.0579566,0.0466853,0,1,1.855,0.875,-0.7875,0.123952,0.26352,-0.917562,-0.0399,-0.07616,0.54992
14.393,0,0,5,5,24.393,24.393,-17.9913,0.554726,19.7372,0.153882,-0.0572214,0.0468978,0,1,2.3625,0.1575,-0.8575,0.123952,0.26352,-0.917562,-0.0399,-0.07616,0.54992
14.3938,0,0,5,5,24.3938,24.3938,-17.9922,0.554831,19.7367,-0.353323,-0.0398955,-0.111219,1,1,3.01,0.1225,-0.5775,-0.385398,0.280844,-1.07445,-0.0399,-0.07616,0.54992
14.3938,0,0,5,5,24.3938,24.3938,-17.9923,0.55491,19.7359,-0.353324,-0.0398961,-0.111219,1,1,3.535,0.1575,-0.735,-0.385398,0.280844,-1.07445,-0.0399,-0.07616,0.54992
14.4907,0,0,5,5,24.4907,24.4907,-18.1134,0.388542,19.7338,-0.144745,0.0775266,0.100234,0,1,3.815,0.665,-0.735,-0.178852,0.40016,-0.864004,-0.04816,-0.0749,0.55342
14.7758,0,0,5,5,24.7758,24.7758,-18.4698,0.434974,19.7301,0.0394672,0.272644,0.17721,0,1,2.52,0.875,-0.7,0.006954,0.600972,-0.78568,-0.04816,-0.0749,0.55342
15.0566,0,0,5,5,25.0566,25.0566,-18.8208,0.480645,19.7262,0.0386701,0.266841,0.175245,0,1,1.925,0.9275,-0.6825,0.006954,0.600972,-0.78568,-0.04816,-0.0749,0.55342
15.3977,0,0,5,5,25.3977,25.3977,-19.2472,0.597139,19.7214,0.0955575,0.285215,0.264397,0,1,1.3125,0.8575,-0.5075,0.066124,0.626348,-0.69479,-0.04816,-0.0749,0.55342
15.7328,0,0,5,5,25.7328,25.7328,-19.666,0.711157,19.7165,0.0935677,0.278331,0.261941,0,1,1.4175,0.49,-0.1925,0.066124,0.626348,-0.69479,-0.04816,-0.0749,0.55342
15.668,0,0,5,5,25.668,25.668,-19.585,0.927904,19.7178,0.209691,-0.0660602,-0.0525065,0,1,2.5725,-0.1575,-0.28,0.186538,0.280966,-1.00723,-0.04816,-0.0749,0.55342
15.6046,0,0,5,5,25.6046,25.6046,-19.5057,1.13967,19.72,0.205996,-0.0647346,-0.0521067,0,1,2.415,-0.805,-0.14,0.186538,0.280966,-1.00723,-0.04816,-0.0749,0.55342
15.6287,0,0,5,5,25.6287,25.6287,-19.5358,0.777543,19.7204,-0.36219,0.0390313,-0.0255027,0,1,2.5025,-0.315,0.1575,-0.3904,0.385154,-0.980758,-0.04816,-0.0749,0.55342
15.6522,0,0,5,5,25.6522,25.6522,-19.5653,0.422812,19.721,-0.355999,0.0385251,-0.0256136,0,1,2.555,0.175,0.315,-0.3904,0.385154,-0.980758,-0.04088,-0.06118,0.57078
15.7627,0,0,5,5,25.7627,25.7627,-19.7034,0.514512,19.7205,0.0821783,0.105993,0.0658981,0,1,1.9425,0.035,0.105,0.05124,0.454816,-0.889136,-0.04088,-0.06118,0.57078
15.871,0,0,5,5,25.871,25.871,-19.8388,0.604274,19.7199,0.0806118,0.103775,0.0650847,0,1,2.065,-0.0875,0.07,0.05124,0.454816,-0.889136,-0.04088,-0.06118,0.57078
16.0951,0,0,5,5,26.0951,26.0951,-20.1189,0.382437,19.7183,-0.197971,0.204565,0.161682,0,1,2.6425,-0.1575,0.14,-0.23241,0.560102,-0.791658,-0.04088,-0.06118,0.57078
16.3159,0,0,5,5,26.3159,26.3159,-20.3948,0.165294,19.7175,-0.194181,0.20004,0.160031,0,1,2.1175,0.2975,0.14,-0.23241,0.560102,-0.791658,-0.04088,-0.06118,0.57078
16.3179,0,0,5,5,26.3179,26.3179,-20.3973,0.164907,19.7178,-0.0726886,0.0790938,-0.0820696,1,1,2.1525,-0.315,-0.1925,-0.11041,0.439322,-1.03188,-0.04088,-0.06118,0.57078
16.32,0,0,5,5,26.32,26.32,-20.4,0.164859,19.7181,-0.0726877,0.0790494,-0.0820862,1,1,2.03,-0.1225,-0.14,-0.11041,0.439322,-1.03188,-0.04088,-0.06118,0.57078
16.3232,0,0,5,5,26.3232,26.3232,-20.404,0.164345,19.7189,0.222774,-0.156231,-0.180715,1,1,1.3475,-0.4725,0.0175,0.186294,0.20435,-1.12972,-0.04088,-0.06118,0.57078
16.3262,0,0,5,5,26.3262,26.3262,-20.4078,0.163474,19.7203,0.22279,-0.156294,-0.180738,1,1,1.4,-0.7875,0.2625,0.186294,0.20435,-1.12972,-0.03528,-0.05656,0.56756
16.2951,0,0,5,5,26.2951,26.2951,-20.3689,-0.00251906,19.721,-0.157722,-0.0273039,-0.0395988,0,1,2.2575,-0.63,-0.105,-0.198738,0.332572,-0.989908,-0.03528,-0.05656,0.56756
16.2641,0,0,5,5,26.2641,26.2641,-20.3301,-0.164919,19.7213,-0.154888,-0.0266674,-0.0393672,0,1,2.625,-0.2975,-0.175,-0.198738,0.332572,-0.989908,-0.03528,-0.05656,0.56756
16.24,0,0,5,5,26.24,26.24,-20.3,-0.367073,19.7216,-0.198496,-0.0107814,-0.0577655,0,1,3.2375,-0.49,-0.21,-0.246074,0.347944,-1.00833,-0.03528,-0.05656,0.56756
16.2166,0,0,5,5,26.2166,26.2166,-20.2708,-0.564799,19.7208,-0.195045,-0.0102928,-0.0576148,0,1,3.08,0.07,-0.5775,-0.246074,0.347944,-1.00833,-0.03528,-0.05656,0.56756
16.2179,0,0,5,5,26.2179,26.2179,-20.2723,-0.56502,19.7197,0.092394,0.313562,-0.137049,1,1,2.6775,0.0875,-0.9975,0.042578,0.671488,-1.08714,-0.03528,-0.05656,0.56756
16.2197,0,0,5,5,26.2197,26.2197,-20.2746,-0.565175,19.7185,0.0923967,0.313524,-0.137063,1,1,2.2575,0.1225,-0.98,0.042578,0.671488,-1.08714,-0.03528,-0.05656,0.56756
16.461,0,0,5,5,26.461,26.461,-20.5762,-0.452756,19.7197,0.108293,0.266574,0.104677,0,1,2.0475,-0.0525,-1.1725,0.060512,0.62952,-0.84546,-0.03528,-0.05656,0.56756
16.6977,0,0,5,5,26.6977,26.6977,-20.8722,-0.342794,19.7205,0.106374,0.261739,0.102862,0,1,2.17,-0.2975,-1.225,0.060512,0.62952,-0.84546,-0.0364,-0.06888,0.5663
16.6989,0,0,5,5,26.6989,26.6989,-20.8737,-0.343731,19.7188,0.257033,0.172073,-0.238206,1,1,2.695,-0.1925,-1.4175,0.211792,0.539972,-1.18389,-0.0364,-0.06888,0.5663
16.6996,0,0,5,5,26.6996,26.6996,-20.8745,-0.344467,19.7174,0.257045,0.172059,-0.238212,1,1,3.0625,-0.14,-1.225,0.211792,0.539972,-1.18389,-0.0364,-0.06888,0.5663
16.7004,0,0,5,5,26.7004,26.7004,-20.8755,-0.344969,19.7159,0.188779,0.114155,-0.0505984,1,1,3.01,0,-1.2075,0.143228,0.482144,-0.997716,-0.0364,-0.06888,0.5663
16.7013,0,0,5,5,26.7013,26.7013,-20.8767,-0.344979,19.7142,0.188779,0.114136,-0.0506057,1,1,2.8875,0.315,-1.225,0.143228,0.482144,-0.997716,-0.0364,-0.06888,0.5663
16.7019,0,0,5,5,26.7019,26.7019,-20.8774,-0.344364,19.7123,-0.118833,0.18679,-0.415029,1,1,3.15,0.7,-1.2075,-0.165676,0.554734,-1.35932,-0.0364,-0.06888,0.5663
16.7034,0,0,5,5,26.7034,26.7034,-20.8792,-0.343744,19.7108,-0.118844,0.18676,-0.415041,1,1,2.52,0.63,-1.015,-0.165676,0.554734,-1.35932,-0.0364,-0.06888,0.5663
16.7044,0,0,5,5,26.7044,26.7044,-20.8806,-0.343476,19.7098,0.0450355,-0.0676518,0.371453,1,1,2.8,0.315,-0.77,-0.001098,0.300608,-0.57889,-0.0364,-0.06888,0.5663
16.7055,0,0,5,5,26.7055,26.7055,-20.8819,-0.343209,19.7088,0.0450309,-0.0676736,0.371444,1,1,2.8,0.315,-0.77,-0.001098,0.300608,-0.57889,-0.04732,-0.05278,0.57232
16.7074,0,0,5,5,26.7074,26.7074,-20.8843,-0.343664,19.7091,-0.0516638,0.0854341,0.364544,1,1,2.205,-0.3325,-0.2625,-0.09821,0.453596,-0.585722,-0.04732,-0.05278,0.57232
16.7094,0,0,5,5,26.7094,26.7094,-20.8867,-0.344119,19.7093,-0.0516559,0.085395,0.364529,1,1,2.205,-0.3325,-0.2625,-0.09821,0.453596,-0.585722,-0.04732,-0.05278,0.57232
16.9256,0,0,5,5,26.9256,26.9256,-21.1569,-0.15707,19.7121,0.183192,0.250255,0.0830197,0,1,2.4675,-0.1575,0.665,0.14091,0.622688,-0.863394,-0.04732,-0.05278,0.57232
17.1379,0,0,5,5,27.1379,27.1379,-21.4224,0.0266589,19.714,0.179985,0.245937,0.0813411,0,1,2.4675,-0.1575,0.665,0.14091,0.622688,-0.863394,-0.04732,-0.05278,0.57232
17.2835,0,0,5,5,27.2835,27.2835,-21.6044,-0.172227,19.7166,-0.192542,0.163722,0.0558279,0,1,2.0825,0,1.1725,-0.23668,0.54351,-0.88755,-0.04732,-0.05278,0.57232
17.3931,0,0,5,5,27.3931,27.3931,-21.7413,-0.139211,19.7193,0.0312657,0.145503,-0.00566658,0,1,2.38,0.105,1.225,-0.011346,0.527528,-0.947696,-0.04732,-0.05278,0.57232
17.5002,0,0,5,5,27.5002,27.5002,-21.8752,-0.1082,19.7225,0.0307244,0.143333,-0.00653352,0,1,2.6425,-0.77,1.2075,-0.011346,0.527528,-0.947696,-0.04732,-0.05278,0.57232
17.4118,0,0,5,5,27.4118,27.4118,-21.7648,-0.141812,19.725,-0.0299177,-0.103406,-0.0159003,0,1,2.59,-0.98,1.085,-0.072834,0.279258,-0.9577,-0.0434,-0.05782,0.56966
17.4138,0,0,5,5,27.4138,27.4138,-21.7673,-0.141402,19.7271,0.205028,0.105635,0.250513,1,1,2.1525,-0.245,0.875,0.163114,0.488122,-0.693326,-0.0434,-0.05782,0.56966
17.4173,0,0,5,5,27.4173,27.4173,-21.7716,-0.142024,19.7283,0.205039,0.105565,0.250485,1,1,1.1375,-0.63,0.21,0.163114,0.488122,-0.693326,-0.0434,-0.05782,0.56966
17.4504,0,0,5,5,27.4504,27.4504,-21.813,-0.662128,19.7296,-0.489043,-0.00939258,0.118111,0,1,1.2425,-1.19,-0.1225,-0.543022,0.37393,-0.824354,-0.0434,-0.05782,0.56966
17.483,0,0,5,5,27.483,27.483,-21.8538,-1.17288,19.73,-0.48013,-0.0100002,0.117714,0,1,1.19,-0.49,-0.5775,-0.543022,0.37393,-0.824354,-0.0434,-0.05782,0.56966
17.5276,0,0,5,5,27.5276,27.5276,-21.9095,-1.24721,19.7307,-0.0610431,0.0115783,0.0910148,0,1,1.575,-0.5075,-0.77,-0.123464,0.396378,-0.850462,-0.0434,-0.05782,0.56966
17.5714,0,0,5,5,27.5714,27.5714,-21.9642,-1.32108,19.7303,-0.0597542,0.0107041,0.0906316,0,1,1.5925,-0.77,-1.5575,-0.123464,0.396378,-0.850462,-0.0434,-0.05782,0.56966
17.5747,0,0,5,5,27.5747,27.5747,-21.9683,-1.32273,19.728,0.742445,0.0581449,0.0803993,1,1,1.2075,-0.42,-1.9075,0.682102,0.443836,-0.860588,-0.0434,-0.05782,0.56966
17.5777,0,0,5,5,27.5777,27.5777,-21.9721,-1.32422,19.7249,0.742471,0.0580847,0.0803744,1,1,1.4175,-0.1575,-2.3275,0.682102,0.443836,-0.860588,-0.04116,-0.07532,0.56434
17.5814,0,0,5,5,27.5814,27.5814,-21.9767,-1.32496,19.7214,0.0621637,0.104784,-0.0627682,1,1,0.91,0.315,-2.31,-0.001098,0.490562,-1.0026,-0.04116,-0.07532,0.56434
17.5855,0,0,5,5,27.5855,27.5855,-21.9819,-1.32491,19.7178,0.0621627,0.104701,-0.0628019,1,1,0.6125,0.7875,-2.24,-0.001098,0.490562,-1.0026,-0.04116,-0.07532,0.56434
17.5893,0,0,5,5,27.5893,27.5893,-21.9866,-1.32426,19.7146,0.273415,0.0482017,0.341791,1,1,0.8575,1.0325,-1.925,0.21106,0.434198,-0.601094,-0.04116,-0.07532,0.56434
17.5932,0,0,5,5,27.5932,27.5932,-21.9915,-1.32451,19.7124,0.273419,0.0481218,0.341759,1,1,0.7525,0.315,-1.54,0.21106,0.434198,-0.601094,-0.04116,-0.07532,0.56434
17.5972,0,0,5,5,27.5972,27.5972,-21.9964,-1.32402,19.7111,-0.0378355,-0.180457,-0.262319,1,1,0.7875,0.525,-0.91,-0.101504,0.205936,-1.20048,-0.04116,-0.07532,0.56434
17.6011,0,0,5,5,27.6011,27.6011,-22.0013,-1.32353,19.7097,-0.0378441,-0.180536,-0.262351,1,1,0.7875,0.525,-0.91,-0.101504,0.205936,-1.20048,-0.04116,-0.07532,0.56434
17.6053,0,0,5,5,27.6053,27.6053,-22.0066,-1.32106,19.7104,-0.0162627,-0.115772,-0.269146,1,1,0.63,1.155,0.6125,-0.079788,0.270718,-1.20719,-0.04116,-0.07532,0.56434
17.6094,0,0,5,5,27.6094,27.6094,-22.0118,-1.31859,19.7111,-0.0163057,-0.115857,-0.26918,1,1,0.63,1.155,0.6125,-0.079788,0.270718,-1.20719,-0.03976,-0.06916,0.5544
17.6552,0,0,5,5,27.6552,27.6552,-22.069,-1.09265,19.714,0.193931,0.00409313,0.107237,0,1,0.455,0.4725,0.9975,0.135298,0.391498,-0.833382,-0.03976,-0.06916,0.5544
17.7001,0,0,5,5,27.7001,27.7001,-22.1251,-0.870803,19.7165,0.19006,0.00316088,0.10693,0,1,0.455,0.4725,0.9975,0.135298,0.391498,-0.833382,-0.03976,-0.06916,0.5544
17.7044,0,0,5,5,27.7044,27.7044,-22.1305,-0.869493,19.7192,0.119575,-0.0290465,-0.155354,1,1,0.525,0.0875,1.435,0.064538,0.359412,-1.09361,-0.03976,-0.06916,0.5544
17.7088,0,0,5,5,27.7088,27.7088,-22.136,-0.868183,19.7219,0.119552,-0.0291346,-0.15539,1,1,0.525,0.0875,1.435,0.064538,0.359412,-1.09361,-0.03976,-0.06916,0.5544
17.6691,0,0,5,5,27.6691,27.6691,-22.0863,-1.12273,19.7262,-0.23779,-0.0524843,-0.0137446,0,1,-0.0175,-4.4275,1.225,-0.298778,0.335256,-0.953308,-0.03976,-0.06916,0.5544
17.6301,0,0,5,5,27.6301,27.6301,-22.0376,-1.3727,19.7303,-0.233428,-0.0516607,-0.0135134,0,1,-0.0175,-4.4275,1.225,-0.298778,0.335256,-0.953308,-0.03976,-0.06916,0.5544
17.6348,0,0,5,5,27.6348,27.6348,-22.0435,-1.37342,19.7324,-0.145946,0.0673183,-0.188139,1,1,0.2975,-0.8925,0.7,-0.210938,0.454206,-1.12655,-0.03976,-0.06916,0.5544
17.6395,0,0,5,5,27.6395,27.6395,-22.0493,-1.37414,19.7346,-0.145934,0.0672237,-0.188177,1,1,0.2975,-0.8925,0.7,-0.210938,0.454206,-1.12655,-0.04074,-0.06412,0.56252
17.6429,0,0,5,5,27.6429,27.6429,-22.0537,-1.37548,19.7343,0.297148,0.186105,-0.148248,1,1,1.1025,-0.7,-0.7525,0.233996,0.573034,-1.0869,-0.04074,-0.06412,0.56252
17.6464,0,0,5,5,27.6464,27.6464,-22.058,-1.37683,19.734,0.297172,0.186034,-0.148277,1,1,1.1025,-0.7,-0.7525,0.233996,0.573034,-1.0869,-0.04074,-0.06412,0.56252
17.6498,0,0,5,5,27.6498,27.6498,-22.0623,-1.37826,19.7317,-0.042113,0.210758,-0.0631025,1,1,1.1375,-0.315,-1.82,-0.10675,0.5978,-1.00235,-0.04074,-0.06412,0.56252
17.7079,0,0,5,5,27.7079,27.7079,-22.1349,-1.37403,19.7307,0.00628601,0.0278586,0.0877721,0,1,0.84,0,-1.9775,-0.058072,0.416264,-0.85217,-0.04074,-0.06412,0.56252
17.7658,0,0,5,5,27.7658,27.7658,-22.2072,-1.36895,19.7292,0.00619745,0.0266893,0.0872979,0,1,0.245,0.595,-1.995,-0.058072,0.416264,-0.85217,-0.04074,-0.06412,0.56252
17.7702,0,0,5,5,27.7702,27.7702,-22.2128,-1.36949,19.726,-0.0084929,0.351701,0.0117708,1,1,0.4025,0.385,-2.1525,-0.072834,0.741028,-0.927078,-0.04074,-0.06412,0.56252
17.776,0,0,5,5,27.776,27.776,-22.22,-1.36999,19.7229,-0.00848427,0.351585,0.0117229,1,1,-0.5425,0.385,-2.0825,-0.072834,0.741028,-0.927078,-0.04074,-0.06412,0.56252
17.782,0,0,5,5,27.782,27.782,-22.2275,-1.3703,19.7202,0.446728,-0.0658444,-0.0442686,1,1,-0.7175,0.385,-1.8025,0.3843,0.324154,-0.982588,-0.03724,-0.06958,0.5509
17.9382,0,0,5,5,27.9382,27.9382,-22.4228,-1.27493,19.7224,0.0844944,0.117233,0.145412,0,1,0.07,0.6125,-1.4525,0.022204,0.510204,-0.793122,-0.03724,-0.06958,0.5509
18.0914,0,0,5,5,28.0914,28.0914,-22.6142,-1.18102,19.7251,0.0828557,0.114133,0.144165,0,1,0.21,0.5425,-0.875,0.022204,0.510204,-0.793122,-0.03724,-0.06958,0.5509
17.9464,0,0,5,5,27.9464,27.9464,-22.433,-1.2581,19.7198,-0.06304,-0.190328,0.0468677,0,1,0.2275,0.56,-0.8575,-0.12566,0.20313,-0.890844,-0.03724,-0.06958,0.5509
17.8051,0,0,5,5,27.8051,27.8051,-22.2564,-1.33376,19.7151,-0.0617198,-0.187466,0.0480121,0,1,-0.455,0.4025,-0.4725,-0.12566,0.20313,-0.890844,-0.03724,-0.06958,0.5509
17.8111,0,0,5,5,27.8111,27.8111,-22.2638,-1.33248,19.7147,-0.139128,-0.0625283,-0.190188,1,1,-0.63,0.7525,-0.245,-0.203374,0.328058,-1.12716,-0.03724,-0.06958,0.5509
17.8171,0,0,5,5,27.8171,27.8171,-22.2714,-1.33052,19.7144,-0.139163,-0.062651,-0.190237,1,1,-0.7,1.085,0,-0.203374,0.328058,-1.12716,-0.03724,-0.06958,0.5509
18.1417,0,0,5,5,28.1417,28.1417,-22.6771,-0.946166,19.7219,0.329382,0.227768,0.33217,0,1,-1.295,1.225,-0.0175,0.27389,0.624762,-0.606218,-0.03724,-0.06958,0.5509
18.4598,0,0,5,5,28.4598,28.4598,-23.0748,-0.569222,19.727,0.322804,0.221341,0.329552,0,1,-0.4375,0.4375,-0.175,0.27389,0.624762,-0.606218,-0.03528,-0.07182,0.54964
18.6276,0,0,5,5,28.6276,28.6276,-23.2845,-0.460103,19.7286,0.103076,0.173393,0.0860417,0,1,0.1225,0.385,-0.2275,0.055144,0.580232,-0.846436,-0.03528,-0.07182,0.54964
18.7923,0,0,5,5,28.7923,28.7923,-23.4904,-0.352851,19.7291,0.101204,0.170089,0.0846271,0,1,0.0875,0.63,-0.6475,0.055144,0.580232,-0.846436,-0.03528,-0.07182,0.54964
18.7971,0,0,5,5,28.7971,28.7971,-23.4964,-0.352792,19.7282,0.0526088,0.212371,-0.247867,1,1,0.1925,0.21,-0.77,0.006344,0.622566,-1.17632,-0.03528,-0.07182,0.54964
18.8027,0,0,5,5,28.8027,28.8027,-23.5034,-0.352455,19.7271,0.0526029,0.21226,-0.247916,1,1,-0.35,0.4025,-0.805,0.006344,0.622566,-1.17632,-0.03528,-0.07182,0.54964
18.8086,0,0,5,5,28.8086,28.8086,-23.5108,-0.352208,19.7262,0.209194,0.169763,-0.0195292,1,1,-0.63,0.315,-0.735,0.163602,0.580232,-0.949648,-0.03528,-0.07182,0.54964
18.8146,0,0,5,5,28.8146,28.8146,-23.5183,-0.35175,19.7256,0.209186,0.169643,-0.0195813,1,1,-0.6475,0.35,-0.5075,0.163602,0.580232,-0.949648,-0.03528,-0.07182,0.54964
18.8209,0,0,5,5,28.8209,28.8209,-23.5261,-0.351545,19.7255,0.167512,-0.0764453,0.339497,1,1,-0.8225,0.105,-0.315,0.121756,0.334524,-0.593286,-0.03528,-0.07182,0.54964
18.8267,0,0,5,5,28.8267,28.8267,-23.5334,-0.350993,19.7259,0.167503,-0.0765622,0.339446,1,1,-0.5425,0.1575,0.07,0.121756,0.334524,-0.593286,-0.03528,-0.07182,0.54964
18.988,0,0,5,5,28.988,28.988,-23.7349,-0.340122,19.7281,0.00986764,0.128563,0.136033,0,1,-0.3675,-0.14,0.28,-0.036356,0.542656,-0.793732,-0.04116,-0.0749,0.55874
19.1475,0,0,5,5,29.1475,29.1475,-23.9344,-0.329499,19.7309,0.00968223,0.125378,0.134627,0,1,-1.2425,-0.3325,0.63,-0.036356,0.542656,-0.793732,-0.04116,-0.0749,0.55874
19.1537,0,0,5,5,29.1537,29.1537,-23.9421,-0.329929,19.733,-0.182987,-0.0148233,-0.325378,1,1,-0.735,-0.77,0.735,-0.229848,0.402722,-1.25013,-0.04116,-0.0749,0.55874
19.1598,0,0,5,5,29.1598,29.1598,-23.9497,-0.330359,19.7351,-0.182979,-0.0149454,-0.325432,1,1,-0.735,-0.77,0.735,-0.229848,0.402722,-1.25013,-0.04116,-0.0749,0.55874
19.278,0,0,5,5,29.278,29.278,-24.0975,-0.402552,19.7381,-0.0675225,0.11985,0.0555116,0,1,-1.3125,-1.12,0.5075,-0.115168,0.539728,-0.87108,-0.04116,-0.0749,0.55874
19.3941,0,0,5,5,29.3941,29.3941,-24.2426,-0.473428,19.7411,-0.0662855,0.117544,0.054466,0,1,-1.3125,-1.12,0.5075,-0.115168,0.539728,-0.87108,-0.04116,-0.0749,0.55874
19.3297,0,0,5,5,29.3297,29.3297,-24.1621,-0.411187,19.7413,0.0637112,-0.0545984,-0.0961771,0,1,-0.8225,-0.9625,-0.1925,0.01647,0.366488,-1.02114,-0.04116,-0.0749,0.55874
19.2665,0,0,5,5,29.2665,29.2665,-24.0831,-0.350082,19.7415,0.0626448,-0.0533427,-0.0956071,0,1,-0.8225,-0.9625,-0.1925,0.01647,0.366488,-1.02114,-0.04116,-0.0749,0.55874
19.1866,0,0,5,5,29.1866,29.1866,-23.9833,-0.350435,19.7402,0.000814715,-0.0776425,-0.0903485,0,1,-1.015,-0.6475,-1.015,-0.045628,0.340624,-1.01663,-0.04032,-0.07714,0.54726
19.2403,0,0,5,5,29.2403,29.2403,-24.0504,-0.197841,19.7387,0.15341,0.0740638,-0.0236833,0,1,-1.5575,0.1225,-1.3125,0.110288,0.493246,-0.950014,-0.04032,-0.07714,0.54726
19.2935,0,0,5,5,29.2935,29.2935,-24.1169,-0.0463716,19.7358,0.150767,0.073002,-0.0241518,0,1,-1.925,1.33,-1.645,0.110288,0.493246,-0.950014,-0.04032,-0.07714,0.54726
19.4913,0,0,5,5,29.4913,29.4913,-24.3642,-0.0566922,19.733,-0.0118441,0.230396,0.0677626,0,1,-1.785,1.47,-1.5575,-0.053192,0.654408,-0.85705,-0.04032,-0.07714,0.54726
19.6862,0,0,5,5,29.6862,29.6862,-24.6077,-0.0689134,19.731,-0.0116308,0.226527,0.0660005,0,1,-2.17,0.175,-1.645,-0.053192,0.654408,-0.85705,-0.04032,-0.07714,0.54726
19.6941,0,0,5,5,29.6941,29.6941,-24.6177,-0.0686087,19.7286,0.425226,0.0147239,0.323997,1,1,-2.0125,0.7175,-1.505,0.38552,0.442982,-0.600972,-0.04032,-0.07714,0.54726
19.7003,0,0,5,5,29.7003,29.7003,-24.6254,-0.0687041,19.727,0.425228,0.0146016,0.323941,1,1,-0.77,0.315,-1.19,0.38552,0.442982,-0.600972,-0.04032,-0.07714,0.54726
19.7068,0,0,5,5,29.7068,29.7068,-24.6334,-0.0684851,19.726,-0.114537,-0.166518,0.103805,1,1,-0.98,0.3325,-0.7875,-0.156526,0.262178,-0.819352,-0.04032,-0.07714,0.54726
19.7131,0,0,5,5,29.7131,29.7131,-24.6414,-0.0675921,19.7252,-0.114552,-0.166644,0.103747,1,1,-0.8925,0.63,-0.49,-0.156526,0.262178,-0.819352,-0.0385,-0.07476,0.55104
19.6426,0,0,5,5,29.6426,29.6426,-24.5532,-0.154238,19.7247,-0.0869206,-0.0726724,-0.0731531,0,1,-1.7325,0.7175,-0.175,-0.130296,0.354654,-0.99552,-0.0385,-0.07476,0.55104
19.5759,0,0,5,5,29.5759,29.5759,-24.4699,-0.238835,19.724,-0.0854441,-0.0713465,-0.0725541,0,1,-3.5,0.98,-0.0875,-0.130296,0.354654,-0.99552,-0.0385,-0.07476,0.55104
19.6976,0,0,5,5,29.6976,29.6976,-24.622,-0.00592864,19.7239,0.211411,0.0878081,0.114093,0,1,-3.43,0.7875,-0.175,0.171898,0.51606,-0.809226,-0.0385,-0.07476,0.55104
19.817,0,0,5,5,29.817,29.817,-24.7713,0.222325,19.7233,0.207427,0.0854442,0.112998,0,1,-3.325,0.49,-0.2625,0.171898,0.51606,-0.809226,-0.0385,-0.07476,0.55104
19.825,0,0,5,5,29.825,29.825,-24.7813,0.222251,19.7231,0.12166,-0.116101,0.197636,1,1,-2.03,-0.0175,-0.4375,0.085766,0.314882,-0.725168,-0.0385,-0.07476,0.55104
19.8313,0,0,5,5,29.8313,29.8313,-24.7891,0.220553,19.7225,0.121689,-0.116224,0.197579,1,1,-0.8225,-0.805,-0.9975,0.085766,0.314882,-0.725168,-0.0385,-0.07476,0.55104
19.8367,0,0,5,5,29.8367,29.8367,-24.7959,0.218613,19.7216,0.0484672,-0.123539,0.0676956,1,1,-0.2975,-0.84,-1.26,0.0122,0.307684,-0.854,-0.0385,-0.07476,0.55104
19.8437,0,0,5,5,29.8437,29.8437,-24.8047,0.217244,19.7195,0.0484911,-0.123677,0.0676318,1,1,-1.33,-0.2275,-1.785,0.0122,0.307684,-0.854,-0.0427,-0.07476,0.54404
19.7335,0,0,5,5,29.7335,29.7335,-24.6669,0.151101,19.7179,-0.0571404,-0.153125,0.0253634,0,1,-1.47,-0.1225,-1.645,-0.095038,0.276086,-0.896944,-0.0427,-0.07476,0.54404
19.6268,0,0,5,5,29.6268,29.6268,-24.5335,0.0875901,19.7162,-0.0560319,-0.15101,0.0263345,0,1,-2.5375,0.6475,-1.3125,-0.095038,0.276086,-0.896944,-0.0427,-0.07476,0.54404
19.6361,0,0,5,5,29.6361,29.6361,-24.5451,0.0878775,19.7144,0.0326476,0.0774269,-0.120304,1,1,-2.9575,0.56,-1.19,-0.005978,0.50447,-1.04237,-0.0427,-0.07476,0.54404
19.6452,0,0,5,5,29.6452,29.6452,-24.5565,0.0887931,19.7133,0.0326316,0.0772461,-0.120387,1,1,-2.835,0.7,-0.6125,-0.005978,0.50447,-1.04237,-0.0427,-0.07476,0.54404
19.6536,0,0,5,5,29.6536,29.6536,-24.567,0.0889535,19.7129,-0.155188,0.178078,-0.0157109,1,1,-2.3275,0.1575,-0.49,-0.19459,0.605364,-0.938424,-0.0427,-0.07476,0.54404
19.6614,0,0,5,5,29.6614,29.6614,-24.5767,0.0889629,19.7138,-0.155188,0.177924,-0.0157814,1,1,-1.89,-0.245,0.175,-0.19459,0.605364,-0.938424,-0.0427,-0.07476,0.54404
19.7573,0,0,5,5,29.7573,29.7573,-24.6966,-0.0203365,19.7148,-0.101163,0.080031,0.0707641,0,1,-1.89,-0.56,0.1225,-0.142252,0.509472,-0.851682,-0.0427,-0.07476,0.54404
19.8537,0,0,5,5,29.8537,29.8537,-24.8171,-0.126975,19.7167,-0.099302,0.0781215,0.0698809,0,1,-3.5,-0.3675,0.6475,-0.142252,0.509472,-0.851682,-0.035,-0.07826,0.5439
19.9241,0,0,5,5,29.9241,29.9241,-24.9051,-0.0742255,19.7184,0.0495692,0.0575536,0.0420651,0,1,-3.9375,-0.4025,0.5425,0.008174,0.490318,-0.878644,-0.035,-0.07826,0.5439
19.9936,0,0,5,5,29.9936,29.9936,-24.992,-0.0215499,19.7195,0.0486498,0.0561774,0.0414257,0,1,-4.2525,0.1925,0.49,0.008174,0.490318,-0.878644,-0.035,-0.07826,0.5439
20.0383,0,0,5,5,30.0383,30.0383,-25.0479,0.146098,19.7204,0.155668,0.0242757,0.0445763,0,1,-3.115,0.28,0.455,0.118584,0.45933,-0.875106,-0.035,-0.07826,0.5439
20.0794,0,0,5,5,30.0794,30.0794,-25.0992,0.309988,19.7214,0.152808,0.0234683,0.044186,0,1,-1.19,-0.175,0.4025,0.118584,0.45933,-0.875106,-0.035,-0.07826,0.5439
20.0859,0,0,5,5,30.0859,30.0859,-25.1073,0.309357,19.7226,-0.149802,-0.135791,-0.238778,1,1,-0.9975,-0.665,0.175,-0.185318,0.300364,-1.15583,-0.035,-0.07826,0.5439
20.0935,0,0,5,5,30.0935,30.0935,-25.1169,0.308608,19.7226,-0.149789,-0.135941,-0.238849,1,1,-1.785,-0.42,-0.5075,-0.185318,0.300364,-1.15583,-0.035,-0.07826,0.5439
19.9525,0,0,5,5,29.9525,29.9525,-24.9406,0.398987,19.7223,0.0776343,-0.191649,0.0275205,0,1,-2.205,0.4025,-1.015,0.044652,0.241926,-0.892796,-0.035,-0.07826,0.5439
19.8157,0,0,5,5,29.8157,29.8157,-24.7696,0.489784,19.7216,0.0760497,-0.188936,0.0287639,0,1,-3.36,1.645,-0.8575,0.044652,0.241926,-0.892796,-0.0392,-0.07252,0.54572
19.8125,0,0,5,5,29.8125,29.8125,-24.7656,0.404727,19.7192,-0.0835559,-0.0126484,-0.0136136,0,1,-4.0775,1.575,-1.19,-0.11712,0.417972,-0.934886,-0.0392,-0.07252,0.54572
19.8087,0,0,5,5,29.8087,29.8087,-24.7609,0.320654,19.7173,-0.0820885,-0.0125771,-0.0135705,0,1,-3.6225,1.1725,-1.1025,-0.11712,0.417972,-0.934886,-0.0392,-0.07252,0.54572
19.6139,0,0,5,5,29.6139,29.6139,-24.5173,0.179122,19.7169,-0.134044,-0.241125,-0.0481813,0,1,-3.0975,1.0675,-0.735,-0.171776,0.185806,-0.970998,-0.0392,-0.07252,0.54572
19.4209,0,0,5,5,29.4209,29.4209,-24.2762,0.038968,19.7171,-0.131598,-0.237294,-0.0464384,0,1,-2.0475,0.21,-0.4025,-0.171776,0.185806,-0.970998,-0.0392,-0.07252,0.54572
19.2122,0,0,5,5,29.2122,29.2122,-24.0152,-0.169063,19.7169,-0.196971,-0.259882,-0.0488826,0,1,-2.205,-0.105,-0.2625,-0.241072,0.159088,-0.975268,-0.0392,-0.07252,0.54572
19.0082,0,0,5,5,29.0082,29.0082,-23.7602,-0.3733,19.7158,-0.193406,-0.255806,-0.0470956,0,1,-2.9925,0,-0.1925,-0.241072,0.159088,-0.975268,-0.0392,-0.07252,0.54572
18.9186,0,0,5,5,28.9186,28.9186,-23.6483,-0.30805,19.7151,0.0617897,-0.11504,-0.0326568,0,1,-3.745,0,-0.28,0.016348,0.297924,-0.961726,-0.0392,-0.07252,0.54572
18.8316,0,0,5,5,28.8316,28.8316,-23.5395,-0.242759,19.7138,0.0606502,-0.113302,-0.0318919,0,1,-4.375,0.8225,-0.385,0.016348,0.297924,-0.961726,-0.0392,-0.07252,0.54572
18.8424,0,0,5,5,28.8424,28.8424,-23.553,-0.241693,19.7133,-0.184284,-0.12451,-0.151246,1,1,-4.025,0.6475,-0.2975,-0.229604,0.286944,-1.08007,-0.0364,-0.07462,0.55244
18.8501,0,0,5,5,28.8501,28.8501,-23.5626,-0.242661,19.7131,-0.184267,-0.124662,-0.151313,1,1,-1.8025,-0.5075,-0.63,-0.229604,0.286944,-1.08007,-0.0364,-0.07462,0.55244
18.8557,0,0,5,5,28.8557,28.8557,-23.5696,-0.245098,19.7129,-0.272301,-0.0540632,-0.153083,1,1,-0.385,-1.2775,-1.015,-0.318054,0.357582,-1.08177,-0.0364,-0.07462,0.55244
18.8613,0,0,5,5,28.8613,28.8613,-23.5766,-0.247536,19.7126,-0.272259,-0.0541754,-0.153132,1,1,-0.385,-1.2775,-1.015,-0.318054,0.357582,-1.08177,-0.0364,-0.07462,0.55244
18.8669,0,0,5,5,28.8669,28.8669,-23.5836,-0.250377,19.7118,-0.0334898,-0.129396,-0.16019,1,1,-0.385,-1.3825,-1.365,-0.078324,0.282552,-1.08873,-0.0364,-0.07462,0.55244
18.8725,0,0,5,5,28.8725,28.8725,-23.5907,-0.253218,19.7111,-0.0334402,-0.129508,-0.160239,1,1,-0.385,-1.3825,-1.365,-0.078324,0.282552,-1.08873,-0.0364,-0.07462,0.55244
18.762,0,0,5,5,28.762,28.762,-23.4525,-0.306291,19.7081,-0.0538954,-0.124486,-0.0878476,0,1,-2.7125,0.91,-1.33,-0.099796,0.285358,-1.01785,-0.0364,-0.07462,0.55244
18.7713,0,0,5,5,28.7713,28.7713,-23.4642,-0.305622,19.7061,0.0160687,-0.0148813,-0.182722,1,1,-3.01,0.805,-1.2425,-0.029524,0.395036,-1.11191,-0.0364,-0.07462,0.55244
18.7815,0,0,5,5,28.7815,28.7815,-23.4768,-0.305496,19.7052,0.0160665,-0.0150836,-0.18281,1,1,-3.535,0.245,-0.7525,-0.029524,0.395036,-1.11191,-0.03976,-0.0735,0.54348
18.7904,0,0,5,5,28.7904,28.7904,-23.488,-0.306174,19.7048,0.184943,-0.176103,-0.198994,1,1,-2.7125,-0.315,-0.6475,0.140056,0.234362,-1.12789,-0.03976,-0.0735,0.54348
18.7982,0,0,5,5,28.7982,28.7982,-23.4978,-0.306822,19.7051,0.184955,-0.17626,-0.199062,1,1,-1.925,-0.455,-0.28,0.140056,0.234362,-1.12789,-0.03976,-0.0735,0.54348
18.8062,0,0,5,5,28.8062,28.8062,-23.5078,-0.30752,19.7059,-0.134783,-0.178985,0.0767647,1,1,-2.065,-0.595,-0.035,-0.181048,0.2318,-0.854122,-0.03976,-0.0735,0.54348
18.814,0,0,5,5,28.814,28.814,-23.5176,-0.306928,19.7066,-0.134794,-0.179141,0.0766967,1,1,-1.925,0.1225,0.21,-0.181048,0.2318,-0.854122,-0.03976,-0.0735,0.54348
18.9419,0,0,5,5,28.9419,28.9419,-23.6774,-0.294772,19.7074,0.010048,0.107376,0.101769,0,1,-1.1025,0.77,0.035,-0.03538,0.520574,-0.828136,-0.03976,-0.0735,0.54348
19.0691,0,0,5,5,29.0691,29.0691,-23.8364,-0.282727,19.7079,0.00983781,0.104835,0.100652,0,1,-2.275,0.875,-0.0525,-0.03538,0.520574,-0.828136,-0.03976,-0.0735,0.54348
18.9255,0,0,5,5,28.9255,28.9255,-23.6568,-0.0699172,19.7071,0.1988,-0.185649,-0.0165978,0,1,-1.3825,0.4375,-0.245,0.158112,0.22753,-0.945744,-0.03976,-0.0735,0.54348
18.7835,0,0,5,5,28.7835,28.7835,-23.4794,0.138172,19.7075,0.195168,-0.18281,-0.0153618,0,1,-0.84,-0.2275,-0.1925,0.158112,0.22753,-0.945744,-0.04004,-0.08078,0.53732
18.79,0,0,5,5,28.79,28.79,-23.4875,0.137716,19.7078,0.0370016,0.123477,0.347526,1,1,-0.9625,-0.3325,-0.28,-0.000732,0.533628,-0.5856,-0.04004,-0.08078,0.53732
18.795,0,0,5,5,28.795,28.795,-23.4937,0.135651,19.7078,0.0370377,0.123377,0.347483,1,1,0.0525,-1.155,-0.7525,-0.000732,0.533628,-0.5856,-0.04004,-0.08078,0.53732
18.9404,0,0,5,5,28.9404,28.9404,-23.6755,0.390111,19.7066,0.242159,0.129882,0.119355,0,1,0.1925,-0.385,-0.7175,0.209718,0.543022,-0.81069,-0.04004,-0.08078,0.53732
19.0834,0,0,5,5,29.0834,29.0834,-23.8542,0.641689,19.7044,0.237769,0.127043,0.118062,0,1,0.14,0.4725,-0.4725,0.209718,0.543022,-0.81069,-0.04004,-0.08078,0.53732
19.1824,0,0,5,5,29.1824,29.1824,-23.978,0.984352,19.7021,0.349751,0.105929,0.0535443,0,1,-0.875,0.805,-0.3675,0.32818,0.523868,-0.873764,-0.04004,-0.08078,0.53732
19.2815,0,0,5,5,29.2815,29.2815,-24.1019,1.32105,19.6996,0.343876,0.104003,0.0525555,0,1,-2.135,0.595,-0.1225,0.32818,0.523868,-0.873764,-0.04004,-0.08078,0.53732
19.2899,0,0,5,5,29.2899,29.2899,-24.1124,1.32193,19.7004,0.403875,-0.0973079,0.227313,1,1,-2.38,0.245,0.3325,0.388448,0.322934,-0.70028,-0.04004,-0.08078,0.53732
19.2985,0,0,5,5,29.2985,29.2985,-24.1231,1.32112,19.7018,0.403889,-0.097478,0.227237,1,1,-2.45,-0.805,0.2625,0.388448,0.322934,-0.70028,-0.03766,-0.0861,0.53914
19.4154,0,0,5,5,29.4154,29.4154,-24.2693,1.24532,19.7002,-0.0683398,0.0747025,0.124048,0,1,-3.29,-0.945,0.21,-0.087108,0.497272,-0.801662,-0.03766,-0.0861,0.53914
19.5263,0,0,5,5,29.5263,29.5263,-24.4079,1.17346,19.6976,-0.0670859,0.0724871,0.123075,0,1,-0.525,0.7525,0.14,-0.087108,0.497272,-0.801662,-0.03766,-0.0861,0.53914
19.4319,0,0,5,5,29.4319,29.4319,-24.2898,1.00961,19.7005,-0.14793,-0.138891,0.0404927,0,1,0.2975,0.42,0.2275,-0.171166,0.28426,-0.8845,-0.03766,-0.0861,0.53914
19.339,0,0,5,5,29.339,29.339,-24.1738,0.848639,19.703,-0.145121,-0.137063,0.0413653,0,1,0.2975,0.42,0.2275,-0.171166,0.28426,-0.8845,-0.03766,-0.0861,0.53914
19.3428,0,0,5,5,29.3428,29.3428,-24.1786,0.848581,19.7031,0.200871,-0.0526274,0.276409,1,1,0.875,-0.0875,-0.2625,0.17629,0.368684,-0.651236,-0.03766,-0.0861,0.53914
19.3467,0,0,5,5,29.3467,29.3467,-24.1833,0.848522,19.7032,0.200872,-0.0527034,0.276375,1,1,0.875,-0.0875,-0.2625,0.17629,0.368684,-0.651236,-0.03766,-0.0861,0.53914
19.3519,0,0,5,5,29.3519,29.3519,-24.1899,0.848185,19.7029,-0.127619,0.30026,-0.244236,1,1,-0.14,-0.14,-0.5425,-0.153598,0.721386,-1.16778,-0.03766,-0.0861,0.53914
19.3572,0,0,5,5,29.3572,29.3572,-24.1965,0.847848,19.7026,-0.127614,0.300155,-0.244283,1,1,-0.14,-0.14,-0.5425,-0.153598,0.721386,-1.16778,-0.04522,-0.07966,0.54362
19.36,0,0,5,5,29.36,29.36,-24.2,0.847598,19.7021,0.334158,-0.0320853,-0.147302,1,1,1.5925,-0.0525,-0.6125,0.310124,0.389546,-1.07153,-0.04522,-0.07966,0.54362
19.3644,0,0,5,5,29.3644,29.3644,-24.2055,0.846903,19.7018,-0.68388,-0.246139,-0.123981,1,1,0.4725,-0.315,-0.665,-0.712236,0.175802,-1.04835,-0.04522,-0.07966,0.54362
19.3688,0,0,5,5,29.3688,29.3688,-24.211,0.847517,19.7011,-0.683891,-0.246226,-0.12402,1,1,0.4725,0.455,-0.5075,-0.712236,0.175802,-1.04835,-0.04522,-0.07966,0.54362
19.3743,0,0,5,5,29.3743,29.3743,-24.2179,0.847845,19.7009,0.0202346,0.0821852,-0.16329,1,1,-0.2975,0.1925,-0.3325,-0.005124,0.503982,-1.08726,-0.04522,-0.07966,0.54362
19.3814,0,0,5,5,29.3814,29.3814,-24.2267,0.848067,19.7017,0.0202307,0.0820448,-0.163353,1,1,-1.4,-0.105,0.175,-0.005124,0.503982,-1.08726,-0.04522,-0.07966,0.54362
19.4832,0,0,5,5,29.4832,29.4832,-24.354,0.954811,19.7003,0.0995204,0.0788103,0.092914,0,1,-1.1725,-0.9275,-0.42,0.076372,0.502762,-0.83204,-0.04522,-0.07966,0.54362
19.5833,0,0,5,5,29.5833,29.5833,-24.4791,1.06145,19.6987,0.0976595,0.0768359,0.0919817,0,1,-1.19,0.0175,0.035,0.076372,0.502762,-0.83204,-0.04522,-0.07966,0.54362
19.6636,0,0,5,5,29.6636,29.6636,-24.5795,1.37739,19.697,0.320175,0.0824976,0.0536489,0,1,1.2425,-0.3675,-0.245,0.305366,0.50996,-0.86925,-0.03794,-0.08386,0.53564
19.5252,0,0,5,5,29.5252,29.5252,-24.4066,1.01045,19.7007,-0.341107,-0.195704,0.0355953,0,1,1.505,-0.4725,-0.4725,-0.365146,0.22936,-0.888526,-0.03794,-0.08386,0.53564
19.389,0,0,5,5,29.389,29.389,-24.2362,0.649715,19.7034,-0.334812,-0.193033,0.0369026,0,1,1.68,-0.42,-0.3675,-0.365146,0.22936,-0.888526,-0.03794,-0.08386,0.53564
19.3908,0,0,5,5,29.3908,29.3908,-24.2385,0.64968,19.7032,-0.406245,-0.189406,-0.189216,1,1,2.2575,-0.0175,-0.385,-0.436882,0.23302,-1.11288,-0.03794,-0.08386,0.53564
19.3942,0,0,5,5,29.3942,29.3942,-24.2427,0.649057,19.7024,-0.406234,-0.189472,-0.189246,1,1,1.2075,-0.1575,-0.91,-0.436882,0.23302,-1.11288,-0.03794,-0.08386,0.53564
19.3975,0,0,5,5,29.3975,29.3975,-24.2469,0.648849,19.7015,-0.153297,-0.177448,-0.253947,1,1,1.2425,0.07,-0.8225,-0.182878,0.245098,-1.17706,-0.03794,-0.08386,0.53564
19.3992,0,0,5,5,29.3992,29.3992,-24.249,0.648835,19.7005,-0.153297,-0.177481,-0.253962,1,1,2.38,0.21,-0.8575,-0.182878,0.245098,-1.17706,-0.03794,-0.08386,0.53564
19.4008,0,0,5,5,29.4008,29.4008,-24.251,0.648059,19.6994,0.0451027,0.0951954,-0.327868,1,1,2.415,-0.1925,-1.05,0.016348,0.517524,-1.25038,-0.03794,-0.08386,0.53564
19.4023,0,0,5,5,29.4023,29.4023,-24.2529,0.648131,19.6986,0.0451015,0.0951654,-0.327882,1,1,2.5025,0.21,-0.735,0.016348,0.517524,-1.25038,-0.03892,-0.08582,0.53592
19.4043,0,0,5,5,29.4043,29.4043,-24.2554,0.64858,19.6983,0.444296,0.0880419,-0.10315,1,1,2.135,0.2625,-0.315,0.41724,0.510448,-1.02736,-0.03892,-0.08582,0.53592
19.411,0,0,5,5,29.411,29.411,-24.2637,0.649044,19.6981,0.444288,0.0879098,-0.10321,1,1,-1.1025,0.28,-0.3325,0.41724,0.510448,-1.02736,-0.03892,-0.08582,0.53592
19.4166,0,0,5,5,29.4166,29.4166,-24.2708,0.648846,19.6976,0.171191,-0.0084379,-0.14912,1,1,-0.385,-0.035,-0.5775,0.142984,0.414312,-1.07287,-0.03892,-0.08582,0.53592
19.4209,0,0,5,5,29.4209,29.4209,-24.2761,0.649828,19.6982,0.171174,-0.00852312,-0.149159,1,1,0.5425,0.3675,0.21,0.142984,0.414312,-1.07287,-0.03892,-0.08582,0.53592
19.4276,0,0,5,5,29.4276,29.4276,-24.2845,0.266446,19.6986,-0.366269,-0.0290737,0.082465,0,1,3.22,0.2625,0.14,-0.403454,0.393938,-0.84302,-0.03892,-0.08582,0.53592
19.4314,0,0,5,5,29.4314,29.4314,-24.2892,-0.110577,19.6994,-0.359689,-0.0291529,0.0824391,0,1,5.18,0.175,0.3325,-0.403454,0.393938,-0.84302,-0.03892,-0.08582,0.53592
19.4281,0,0,5,5,29.4281,29.4281,-24.2852,-0.110762,19.7004,-0.0186755,0.0451652,-0.100602,1,1,5.845,-0.3675,0.175,-0.061,0.468114,-1.02468,-0.03892,-0.08582,0.53592
19.4272,0,0,5,5,29.4272,29.4272,-24.284,-0.111955,19.7015,-0.0186547,0.0451836,-0.100594,1,1,4.2,-0.9275,-0.0175,-0.061,0.468114,-1.02468,-0.04382,-0.08596,0.5348
19.5637,0,0,5,5,29.5637,29.5637,-24.4546,0.281058,19.7012,0.407096,0.145428,0.10337,0,1,2.87,-0.4375,-0.49,0.373442,0.57096,-0.82106,-0.04382,-0.08596,0.5348
19.6999,0,0,5,5,29.6999,29.6999,-24.6249,0.669664,19.6992,0.400314,0.142749,0.102084,0,1,1.54,0.77,-0.35,0.373442,0.57096,-0.82106,-0.04382,-0.08596,0.5348
19.7017,0,0,5,5,29.7017,29.7017,-24.6272,0.670698,19.699,0.630755,-0.242231,-0.0932978,1,1,2.2575,0.56,-0.14,0.604876,0.186416,-1.01492,-0.04382,-0.08596,0.5348
19.7009,0,0,5,5,29.7009,29.7009,-24.6261,0.669259,19.6984,0.63078,-0.242215,-0.0932898,1,1,4.1475,-0.6475,-0.98,0.604876,0.186416,-1.01492,-0.04382,-0.08596,0.5348
19.7009,0,0,5,5,29.7009,29.7009,-24.6261,0.66926,19.6983,0.291106,-0.219865,0.237565,1,1,3.5525,-0.0175,-0.3325,0.263764,0.208742,-0.686616,-0.04382,-0.08596,0.5348
19.6989,0,0,5,5,29.6989,29.6989,-24.6236,0.669072,19.6991,0.291109,-0.219826,0.237583,1,1,4.935,-0.3325,0.0875,0.263764,0.208742,-0.686616,-0.04382,-0.08596,0.5348
19.7004,0,0,5,5,29.7004,29.7004,-24.6255,0.669644,19.7001,-0.174434,0.0330694,0.146956,1,1,2.52,0.0525,0.315,-0.20374,0.461404,-0.77653,-0.04382,-0.08596,0.5348
19.7052,0,0,5,5,29.7052,29.7052,-24.6315,0.671184,19.6996,-0.174461,0.0329744,0.146912,1,1,0.1925,0.91,-0.1925,-0.20374,0.461404,-0.77653,-0.04382,-0.08596,0.5348
19.7091,0,0,5,5,29.7091,29.7091,-24.6364,0.672525,19.6998,-0.0472889,-0.147363,0.102492,1,1,0.7875,0.6125,0.175,-0.076006,0.281332,-0.820572,-0.03864,-0.08288,0.53578
19.7101,0,0,5,5,29.7101,29.7101,-24.6376,0.673461,19.7002,0.0526775,-0.0364903,-0.172553,1,1,2.8875,0.3675,0.14,0.0244,0.392108,-1.09349,-0.03864,-0.08288,0.53578
19.7058,0,0,5,5,29.7058,29.7058,-24.6323,0.673537,19.7016,0.0526761,-0.0364069,-0.172515,1,1,6.4925,-0.315,0.42,0.0244,0.392108,-1.09349,-0.03864,-0.08288,0.53578
19.6987,0,0,5,5,29.6987,29.6987,-24.6234,0.672946,19.7029,-0.0250644,0.1065,-0.0647469,1,1,8.5225,-0.665,0.245,-0.05368,0.534726,-0.986614,-0.03864,-0.08288,0.53578
19.6968,0,0,5,5,29.6968,29.6968,-24.621,0.672259,19.7038,-0.0250524,0.106538,-0.0647292,1,1,4.9,-0.63,0.035,-0.05368,0.534726,-0.986614,-0.03864,-0.08288,0.53578
19.695,0,0,5,5,29.695,29.695,-24.6187,0.671471,19.7033,-0.0789783,0.166906,0.342493,1,1,4.8475,-0.3325,-0.7525,-0.107848,0.594994,-0.58255,-0.03864,-0.08288,0.53578
19.6931,0,0,5,5,29.6931,29.6931,-24.6164,0.670683,19.7028,-0.0789646,0.166942,0.34251,1,1,4.8475,-0.3325,-0.7525,-0.107848,0.594994,-0.58255,-0.03864,-0.08288,0.53578
19.6946,0,0,5,5,29.6946,29.6946,-24.6183,0.669873,19.7022,0.0712059,-0.0247047,0.121189,1,1,2.5025,-0.315,-0.8225,0.042944,0.403576,-0.80215,-0.03626,-0.0798,0.53746
19.3354,0,0,5,5,29.3354,29.3354,-24.1692,0.576712,19.7061,-0.0871649,-0.440744,-0.0416613,0,1,3.7975,-0.5425,-1.1725,-0.11773,-0.019154,-0.966972,-0.03626,-0.0798,0.53746
18.9809,0,0,5,5,28.9809,28.9809,-23.7261,0.485343,19.7097,-0.0855703,-0.433681,-0.0385086,0,1,4.48,-0.49,-0.805,-0.11773,-0.019154,-0.966972,-0.03626,-0.0798,0.53746
18.982,0,0,5,5,28.982,28.982,-23.7274,0.483729,19.7099,-0.378687,-0.424178,-0.293021,1,1,2.7825,-0.9275,-0.6125,-0.412116,-0.009638,-1.21951,-0.03626,-0.0798,0.53746
18.9844,0,0,5,5,28.9844,28.9844,-23.7305,0.484007,19.7088,-0.378692,-0.424226,-0.293043,1,1,1.855,0.3675,-0.805,-0.412116,-0.009638,-1.21951,-0.03626,-0.0798,0.53746
18.9856,0,0,5,5,28.9856,28.9856,-23.732,0.335822,19.7079,-0.141395,-0.019041,0.0347443,0,1,0.7175,0.7525,-0.5775,-0.176412,0.395158,-0.89426,-0.03626,-0.0798,0.53746
18.9834,0,0,5,5,28.9834,28.9834,-23.7293,0.19054,19.708,-0.13886,-0.0190029,0.0347738,0,1,3.045,0.665,0.0525,-0.176412,0.395158,-0.89426,-0.03626,-0.0798,0.53746
18.9819,0,0,5,5,28.9819,28.9819,-23.7274,0.192049,19.7075,0.311461,0.396258,-0.0147612,1,1,4.62,0.8925,-0.21,0.275842,0.809958,-0.943426,-0.03626,-0.0798,0.53746
18.9785,0,0,5,5,28.9785,28.9785,-23.7232,0.193412,19.7078,0.311438,0.396326,-0.0147316,1,1,5.915,0.63,0.175,0.275842,0.809958,-0.943426,-0.03892,-0.08036,0.54096
19.231,0,0,5,5,29.231,29.231,-24.0388,0.432615,19.7068,0.234736,0.259035,0.195719,0,1,6.44,0.07,0.245,0.203008,0.677832,-0.732366,-0.03892,-0.08036,0.54096
19.4819,0,0,5,5,29.4819,29.4819,-24.3524,0.667427,19.7037,0.230638,0.254059,0.19344,0,1,4.6725,0.0175,-0.315,0.203008,0.677832,-0.732366,-0.03892,-0.08036,0.54096
19.4992,0,0,5,5,29.4992,29.4992,-24.374,0.920558,19.7029,0.266675,0.0381874,-0.0293085,0,1,3.5,0.6825,-0.315,0.243634,0.462502,-0.953186,-0.03892,-0.08036,0.54096
19.5161,0,0,5,5,29.5161,29.5161,-24.3951,1.16775,19.7026,0.262361,0.0378835,-0.0295326,0,1,3.535,-0.2975,-0.4025,0.243634,0.462502,-0.953186,-0.03892,-0.08036,0.54096
19.5169,0,0,5,5,29.5169,29.5169,-24.3961,1.16711,19.7022,-0.402397,-0.00450955,-0.141299,1,1,3.0275,-0.2975,-0.63,-0.42395,0.420168,-1.06408,-0.03892,-0.08036,0.54096
19.5161,0,0,5,5,29.5161,29.5161,-24.3952,1.16598,19.7014,-0.402377,-0.0044951,-0.141292,1,1,4.0775,-0.42,-1.05,-0.42395,0.420168,-1.06408,-0.03892,-0.08036,0.54096
19.5144,0,0,5,5,29.5144,29.5144,-24.3931,1.16567,19.7004,-0.310164,0.135496,-0.150867,1,1,4.7425,0.035,-0.875,-0.331352,0.55998,-1.0736,-0.03892,-0.08036,0.54096
19.515,0,0,5,5,29.515,29.515,-24.3937,1.16604,19.701,-0.310171,0.135485,-0.150872,1,1,3.185,0.0175,0.105,-0.331352,0.55998,-1.0736,-0.03892,-0.08036,0.54096
19.292,0,0,5,5,29.292,29.292,-24.115,1.35825,19.7073,0.201453,-0.26539,-0.126688,0,1,2.835,0.2625,-0.105,0.185806,0.155062,-1.05152,-0.03962,-0.08848,0.53942
19.0755,0,0,5,5,29.0755,29.0755,-23.8444,1.54597,19.7158,0.198178,-0.261041,-0.124845,0,1,0.8925,-0.7525,0.3675,0.185806,0.155062,-1.05152,-0.03962,-0.08848,0.53942
19.1256,0,0,5,5,29.1256,29.1256,-23.907,1.64838,19.7156,0.108071,0.0732178,-0.0155395,0,1,1.435,-0.945,0.21,0.097112,0.489952,-0.942572,-0.03962,-0.08848,0.53942
19.1748,0,0,5,5,29.1748,29.1748,-23.9685,1.749,19.7153,0.106316,0.0722581,-0.0160225,0,1,1.435,-0.945,0.21,0.097112,0.489952,-0.942572,-0.03962,-0.08848,0.53942
19.3947,0,0,5,5,29.3947,29.3947,-24.2434,1.5727,19.708,-0.186912,0.272528,0.105417,0,1,5.6875,1.1375,0.6825,-0.200446,0.694424,-0.820206,-0.03962,-0.08848,0.53942
19.611,0,0,5,5,29.611,29.611,-24.5137,1.39931,19.7016,-0.183887,0.2682,0.103542,0,1,5.6875,1.1375,0.6825,-0.200446,0.694424,-0.820206,-0.03962,-0.08848,0.53942
19.6079,0,0,5,5,29.6079,29.6079,-24.5099,1.39901,19.7024,0.362682,0.00568804,-0.251382,1,1,5.67,-0.385,0.0525,0.348432,0.432124,-1.17242,-0.03962,-0.08848,0.53942
19.6049,0,0,5,5,29.6049,29.6049,-24.5061,1.39872,19.7032,0.362687,0.00574828,-0.251355,1,1,5.67,-0.385,0.0525,0.348432,0.432124,-1.17242,-0.03962,-0.08848,0.53942
19.6064,0,0,5,5,29.6064,29.6064,-24.508,1.39872,19.7032,0.631171,-0.0889292,-0.00571708,1,1,2.52,-0.035,-0.2975,0.618052,0.337574,-0.928664,-0.04158,-0.0812,0.53158
19.6077,0,0,5,5,29.6077,29.6077,-24.5096,1.39802,19.7021,-0.628016,-0.170902,-0.164332,1,1,2.66,-0.14,-1.05,-0.646478,0.255712,-1.08604,-0.04158,-0.0812,0.53158
19.6088,0,0,5,5,29.6088,29.6088,-24.511,1.39782,19.7,-0.628013,-0.170925,-0.164343,1,1,2.765,0.3675,-1.4525,-0.646478,0.255712,-1.08604,-0.04158,-0.0812,0.53158
19.61,0,0,5,5,29.61,29.61,-24.5125,1.39652,19.6988,-0.177035,-0.129791,-0.284965,1,1,2.765,-0.4375,-1.2425,-0.193614,0.296826,-1.20573,-0.04158,-0.0812,0.53158
19.6108,0,0,5,5,29.6108,29.6108,-24.5135,1.39763,19.6983,-0.177055,-0.129808,-0.284973,1,1,2.975,0.6825,-0.2975,-0.193614,0.296826,-1.20573,-0.04158,-0.0812,0.53158
19.6117,0,0,5,5,29.6117,29.6117,-24.5146,1.39857,19.6982,0.293929,-0.497426,0.112143,1,1,2.9575,0.49,-0.1225,0.27938,-0.070394,-0.811666,-0.04158,-0.0812,0.53158
19.6131,0,0,5,5,29.6131,29.6131,-24.5164,1.39761,19.6991,0.293946,-0.497455,0.11213,1,1,2.52,-0.7525,-0.0875,0.27938,-0.070394,-0.811666,-0.04158,-0.0812,0.53158
19.6189,0,0,5,5,29.6189,29.6189,-24.5236,1.52414,19.7001,0.130284,0.0125774,-0.0159628,0,1,2.1875,-1.12,-0.0875,0.117242,0.4392,-0.938668,-0.04158,-0.0812,0.53158
19.6202,0,0,5,5,29.6202,29.6202,-24.5253,1.65216,19.6999,0.12805,0.012576,-0.0160315,0,1,5.215,1.1375,0.21,0.117242,0.4392,-0.938668,-0.04088,-0.08106,0.53704
19.591,0,0,5,5,29.591,29.591,-24.4887,1.50122,19.7016,-0.150191,-0.0346248,-0.00156173,0,1,5.565,0.9975,0.6475,-0.164822,0.391498,-0.924638,-0.04088,-0.08106,0.53704
19.5633,0,0,5,5,29.5633,29.5633,-24.4541,1.35033,19.7029,-0.147559,-0.0341025,-0.00125204,0,1,4.8125,-0.3325,-0.07,-0.164822,0.391498,-0.924638,-0.04088,-0.08106,0.53704
19.572,0,0,5,5,29.572,29.572,-24.465,1.39447,19.7027,0.0396097,-0.0158269,0.0647987,0,1,4.9875,-0.385,-0.4025,0.023912,0.40992,-0.859002,-0.04088,-0.08106,0.53704
19.5824,0,0,5,5,29.5824,29.5824,-24.478,1.43699,19.7027,0.0388678,-0.016025,0.0646884,0,1,3.7275,-0.8925,-0.4725,0.023912,0.40992,-0.859002,-0.04088,-0.08106,0.53704
19.5846,0,0,5,5,29.5846,29.5846,-24.4807,1.43483,19.7027,0.324275,-0.0273042,-0.176309,1,1,2.03,-1.1725,-0.84,0.31049,0.398696,-1.09812,-0.04088,-0.08106,0.53704
19.5861,0,0,5,5,29.5861,29.5861,-24.4826,1.43342,19.6997,0.3243,-0.0273343,-0.176322,1,1,2.5375,-0.0525,-2.24,0.31049,0.398696,-1.09812,-0.04088,-0.08106,0.53704
19.5868,0,0,5,5,29.5868,29.5868,-24.4835,1.4334,19.696,-0.409716,0.3659,-0.304687,1,1,3.115,0.84,-2.24,-0.426634,0.791536,-1.22549,-0.04088,-0.08106,0.53704
19.5891,0,0,5,5,29.5891,29.5891,-24.4864,1.43379,19.6948,-0.409723,0.365854,-0.304708,1,1,1.9425,0.49,-0.8925,-0.426634,0.791536,-1.22549,-0.0413,-0.08484,0.53886
19.5891,0,0,5,5,29.5891,29.5891,-24.4864,1.43451,19.694,-0.379729,-0.266153,-0.152499,1,1,3.5175,0.525,-0.5075,-0.3965,0.160186,-1.07445,-0.0413,-0.08484,0.53886
19.593,0,0,5,5,29.593,29.593,-24.4912,1.43435,19.6944,-0.379726,-0.266229,-0.152533,1,1,0.8575,-0.21,-0.14,-0.3965,0.160186,-1.07445,-0.0413,-0.08484,0.53886
19.5966,0,0,5,5,29.5966,29.5966,-24.4958,1.43481,19.6944,-0.20528,-0.328464,-0.28781,1,1,0.9975,0.2275,-0.2275,-0.221308,0.098088,-1.20865,-0.0413,-0.08484,0.53886
19.5986,0,0,5,5,29.5986,29.5986,-24.4983,1.43523,19.6942,-0.205288,-0.328503,-0.287828,1,1,2.17,0.2275,-0.28,-0.221308,0.098088,-1.20865,-0.0413,-0.08484,0.53886
19.3315,0,0,5,5,29.3315,29.3315,-24.1644,1.57543,19.7021,0.132669,-0.330985,-0.0588923,0,1,2.9225,1.05,-0.385,0.120536,0.09028,-0.983808,-0.0413,-0.08484,0.53886
19.0679,0,0,5,5,29.0679,29.0679,-23.8349,1.71089,19.7134,0.130306,-0.325707,-0.0566166,0,1,3.43,-0.8925,0.5075,0.120536,0.09028,-0.983808,-0.0413,-0.08484,0.53886
19.2743,0,0,5,5,29.2743,29.2743,-24.0929,1.45729,19.7086,-0.258033,0.226663,0.13777,0,1,4.375,-0.7,0.8925,-0.27389,0.646234,-0.789218,-0.0413,-0.08484,0.53886
19.4745,0,0,5,5,29.4745,29.4745,-24.3431,1.20847,19.704,-0.253691,0.22264,0.136072,0,1,6.3,-0.1225,0.5075,-0.27389,0.646234,-0.789218,-0.0413,-0.07966,0.53886
19.4724,0,0,5,5,29.4724,29.4724,-24.3404,1.20878,19.7047,0.448247,0.369967,0.152688,1,1,5.0225,-0.035,0.14,0.431026,0.793366,-0.772748,-0.0413,-0.07966,0.53886
19.4754,0,0,5,5,29.4754,29.4754,-24.3443,1.20643,19.7049,0.448288,0.369905,0.152661,1,1,1.3825,-1.3475,-0.735,0.431026,0.793366,-0.772748,-0.0413,-0.07966,0.53886
19.2083,0,0,5,5,29.2083,29.2083,-24.0104,1.65414,19.7129,0.474736,-0.37639,-0.03693,0,1,1.7325,-0.665,-0.8575,0.46543,0.042456,-0.963068,-0.0413,-0.07966,0.53886
18.947,0,0,5,5,28.947,28.947,-23.6837,2.09541,19.7218,0.467038,-0.371077,-0.0348568,0,1,0.3325,-0.2275,-1.645,0.46543,0.042456,-0.963068,-0.0413,-0.07966,0.53886
18.9502,0,0,5,5,28.9502,28.9502,-23.6878,2.09574,19.7199,-0.736526,-0.495466,0.0329824,1,1,1.33,0.595,-1.2425,-0.743224,-0.08174,-0.895724,-0.0413,-0.07966,0.53886
18.9495,0,0,5,5,28.9495,28.9495,-23.6869,2.09572,19.7201,-0.736526,-0.495453,0.0329884,1,1,4.025,-0.105,-0.175,-0.743224,-0.08174,-0.895724,-0.0413,-0.07966,0.53886
18.9508,0,0,5,5,28.9508,28.9508,-23.6885,2.09451,19.7213,-0.538604,-0.158775,-0.225337,1,1,2.6425,-0.945,0.0175,-0.544486,0.254614,-1.15205,-0.0413,-0.07966,0.53886
18.9547,0,0,5,5,28.9547,28.9547,-23.6933,2.094,19.7223,-0.538596,-0.158852,-0.22537,1,1,0.8225,-0.56,0.1575,-0.544486,0.254614,-1.15205,-0.0413,-0.07966,0.53886
18.9572,0,0,5,5,28.9572,28.9572,-23.6965,2.09417,19.723,0.304269,-0.333665,-0.206581,1,1,1.785,-0.0875,0.07,0.30195,0.080032,-1.13338,-0.03836,-0.084,0.54544
19.2364,0,0,5,5,29.2364,29.2364,-24.0455,1.80834,19.7116,-0.291006,0.277073,0.224504,0,1,2.205,1.785,0.7525,-0.300852,0.695766,-0.70333,-0.03836,-0.084,0.54544
19.5097,0,0,5,5,29.5097,29.5097,-24.3871,1.52431,19.7036,-0.286051,0.271578,0.222191,0,1,3.1675,0.0175,0.945,-0.300852,0.695766,-0.70333,-0.03836,-0.084,0.54544
19.2564,0,0,5,5,29.2564,29.2564,-24.0705,1.71897,19.7147,0.196861,-0.315171,-0.0837389,0,1,3.3075,-0.875,0.6825,0.187514,0.104554,-1.00906,-0.03836,-0.084,0.54544
19.0055,0,0,5,5,29.0055,29.0055,-23.7568,1.91072,19.7245,0.193515,-0.310127,-0.081618,0,1,4.4975,-0.175,-0.42,0.187514,0.104554,-1.00906,-0.03836,-0.084,0.54544
19.0064,0,0,5,5,29.0064,29.0064,-23.758,1.91086,19.7238,0.155731,-0.188629,-0.197935,1,1,2.9225,0.1925,-0.6125,0.149572,0.225944,-1.12447,-0.03836,-0.084,0.54544
19.0076,0,0,5,5,29.0076,29.0076,-23.7595,1.9097,19.7228,0.155751,-0.188654,-0.197946,1,1,2.7125,-0.4025,-1.1375,0.149572,0.225944,-1.12447,-0.03836,-0.084,0.54544
19.0094,0,0,5,5,29.0094,29.0094,-23.7618,1.90817,19.7218,-0.650158,-0.224596,-0.482709,1,1,2.2925,-0.6125,-1.2075,-0.659776,0.190076,-1.40703,-0.03766,-0.08484,0.53886
19.012,0,0,5,5,29.012,29.012,-23.765,1.90846,19.7201,0.440414,0.0065396,0.283852,1,1,1.8025,0.525,-1.1375,0.435418,0.421022,-0.646356,-0.03766,-0.08484,0.53886
19.013,0,0,5,5,29.013,29.013,-23.7663,1.90823,19.7194,0.440418,0.00651828,0.283843,1,1,2.8175,0,-0.7175,0.435418,0.421022,-0.646356,-0.03766,-0.08484,0.53886
19.0334,0,0,5,5,29.0334,29.0334,-23.7917,2.28214,19.7187,0.355781,-0.0245673,0.113408,0,1,2.87,-0.245,-0.245,0.356972,0.390278,-0.815082,-0.03766,-0.08484,0.53886
19.0545,0,0,5,5,29.0545,29.0545,-23.8181,2.6502,19.7174,0.349363,-0.0248768,0.112969,0,1,2.1175,0,-0.49,0.356972,0.390278,-0.815082,-0.03766,-0.08484,0.53886
19.0581,0,0,5,5,29.0581,29.0581,-23.8226,2.65072,19.717,-0.0854433,0.144075,0.235517,1,1,1.0325,0.35,-0.4025,-0.079666,0.559126,-0.693448,-0.03766,-0.08484,0.53886
19.0598,0,0,5,5,29.0598,29.0598,-23.8247,2.65233,19.7178,-0.0854713,0.144042,0.235501,1,1,2.3625,0.63,0.525,-0.079666,0.559126,-0.693448,-0.03766,-0.08484,0.53886
19.018,0,0,5,5,29.018,29.018,-23.7725,2.7612,19.7215,0.100569,-0.0624603,0.0227161,0,1,4.62,0.525,0.7525,0.109068,0.35197,-0.904874,-0.03766,-0.08484,0.53886
18.9776,0,0,5,5,28.9776,28.9776,-23.722,2.86597,19.7253,0.0987425,-0.0616175,0.0229888,0,1,4.2,-0.6825,0.315,0.109068,0.35197,-0.904874,-0.03752,-0.0819,0.54082
18.9779,0,0,5,5,28.9779,28.9779,-23.7224,2.86133,19.7197,-0.141475,-0.242252,-0.284259,1,1,3.4475,-1.2075,-4.375,-0.132248,0.171532,-1.20975,-0.03752,-0.0819,0.54082
18.9769,0,0,5,5,28.9769,28.9769,-23.7212,2.86018,19.7194,-0.141455,-0.242232,-0.284249,1,1,4.27,-0.5775,-0.735,-0.132248,0.171532,-1.20975,-0.03752,-0.0819,0.54082
18.9793,0,0,5,5,28.9793,28.9793,-23.7242,2.85996,19.7181,-0.0362447,0.566199,-0.0250947,1,1,1.9075,0.1575,-1.05,-0.026596,0.979172,-0.952576,-0.03752,-0.0819,0.54082
18.9835,0,0,5,5,28.9835,28.9835,-23.7294,2.85964,19.7164,-0.0362391,0.566116,-0.0251309,1,1,0.6825,0.1925,-1.2775,-0.026596,0.979172,-0.952576,-0.03752,-0.0819,0.54082
18.986,0,0,5,5,28.986,28.986,-23.7325,3.03954,19.7141,0.172618,-0.0209324,0.0498207,0,1,2.3975,-0.455,-1.925,0.186294,0.392718,-0.878034,-0.03752,-0.0819,0.54082
18.9901,0,0,5,5,28.9901,28.9901,-23.7376,3.21827,19.7123,0.169503,-0.0209461,0.0496287,0,1,1.225,0.455,-1.2075,0.186294,0.392718,-0.878034,-0.03752,-0.0819,0.54082
18.9909,0,0,5,5,28.9909,28.9909,-23.7387,3.21953,19.712,0.189405,-0.346185,0.296747,1,1,2.9925,0.7,-0.14,0.206302,0.067832,-0.632814,-0.03752,-0.0819,0.54082
18.9917,0,0,5,5,28.9917,28.9917,-23.7397,3.22078,19.7118,0.189383,-0.346201,0.296739,1,1,2.9925,0.7,-0.14,0.206302,0.067832,-0.632814,-0.03752,-0.0819,0.54082
18.9936,0,0,5,5,28.9936,28.9936,-23.7419,3.22264,19.7125,-0.144614,0.617466,0.491472,1,1,2.2575,0.805,0.49,-0.129076,1.03053,-0.439566,-0.04018,-0.08708,0.54208
18.9946,0,0,5,5,28.9946,28.9946,-23.7432,3.22222,19.7145,0.17976,-0.559735,-0.245613,1,1,2.765,-0.735,0.6825,0.196664,-0.145424,-1.17096,-0.04018,-0.08708,0.54208
18.9961,0,0,5,5,28.9961,28.9961,-23.7452,3.2226,19.7169,0.179754,-0.559765,-0.245627,1,1,2.3975,-0.4025,1.085,0.196664,-0.145424,-1.17096,-0.04018,-0.08708,0.54208
18.9959,0,0,5,5,28.9959,28.9959,-23.7449,3.21644,19.7214,-0.389664,0.162739,-0.0163207,1,1,3.57,-4.375,0.6125,-0.375272,0.576328,-0.943426,-0.04018,-0.08708,0.54208
18.9957,0,0,5,5,28.9957,28.9957,-23.7446,3.21029,19.7258,-0.389557,0.162741,-0.0163132,1,1,3.57,-4.375,0.6125,-0.375272,0.576328,-0.943426,-0.04018,-0.08708,0.54208
18.9947,0,0,5,5,28.9947,28.9947,-23.7434,3.20966,19.7258,0.240722,0.11342,-0.0118782,1,1,4.2175,-0.3675,-0.455,0.257664,0.52704,-0.939034,-0.04018,-0.08708,0.54208
18.9938,0,0,5,5,28.9938,28.9938,-23.7422,3.20903,19.7258,0.240733,0.113439,-0.0118693,1,1,4.2175,-0.3675,-0.455,0.257664,0.52704,-0.939034,-0.04018,-0.08708,0.54208
19.0559,0,0,5,5,29.0559,29.0559,-23.8198,3.61462,19.7209,0.395486,0.0179674,0.143222,0,1,2.3275,-1.1025,-1.0325,0.420168,0.432734,-0.784216,-0.0434,-0.08904,0.54278
19.0593,0,0,5,5,29.0593,29.0593,-23.8241,3.61204,19.7198,-0.54975,-0.193503,-0.162948,1,1,1.2075,-1.155,-1.4875,-0.529114,0.221552,-1.088,-0.0434,-0.08904,0.54278
19.0627,0,0,5,5,29.0627,29.0627,-23.8283,3.60947,19.7187,-0.549705,-0.193572,-0.162975,1,1,1.2075,-1.155,-1.4875,-0.529114,0.221552,-1.088,-0.0434,-0.08904,0.54278
19.0638,0,0,5,5,29.0638,29.0638,-23.8298,3.61029,19.7182,0.0843147,0.0195164,-0.124134,1,1,2.7475,0.525,-0.3675,0.107604,0.434442,-1.04944,-0.0434,-0.08904,0.54278
19.065,0,0,5,5,29.065,29.065,-23.8313,3.61112,19.7177,0.0843004,0.0194935,-0.124145,1,1,2.7475,0.525,-0.3675,0.107604,0.434442,-1.04944,-0.0434,-0.08904,0.54278
19.0677,0,0,5,5,29.0677,29.0677,-23.8346,3.6122,19.7176,0.207954,-0.169001,0.153324,1,1,1.6625,0.5775,-0.105,0.2318,0.246196,-0.77409,-0.0434,-0.08904,0.54278
19.0704,0,0,5,5,29.0704,29.0704,-23.838,3.61329,19.7175,0.207935,-0.169055,0.1533,1,1,1.6625,0.5775,-0.105,0.2318,0.246196,-0.77409,-0.0434,-0.08904,0.54278
19.0716,0,0,5,5,29.0716,29.0716,-23.8395,3.62056,19.716,-0.00552057,-0.0581838,0.297746,1,1,2.7825,4.2175,0.6125,0.017568,0.356972,-0.63074,-0.0434,-0.08904,0.54278
19.0728,0,0,5,5,29.0728,29.0728,-23.8409,3.62783,19.7145,-0.00564718,-0.0582039,0.297729,1,1,2.7825,4.2175,0.6125,0.017568,0.356972,-0.63074,-0.0399,-0.0868,0.54334
19.073,0,0,5,5,29.073,29.073,-23.8413,3.62154,19.7183,-0.073934,-0.328845,0.20503,1,1,3.22,-4.305,0.245,-0.051118,0.08662,-0.722728,-0.0399,-0.0868,0.54334
19.0733,0,0,5,5,29.0733,29.0733,-23.8417,3.61525,19.7221,-0.0738244,-0.328854,0.205033,1,1,3.22,-4.305,0.245,-0.051118,0.08662,-0.722728,-0.0399,-0.0868,0.54334
18.9488,0,0,5,5,28.9488,28.9488,-23.686,3.81603,19.7318,0.210357,-0.152006,-0.0633394,0,1,2.2575,-0.14,-0.7175,0.237778,0.260714,-0.989908,-0.0399,-0.0868,0.54334
19.2076,0,0,5,5,29.2076,29.2076,-24.0094,3.68497,19.7101,-0.136997,0.302833,0.145008,0,1,2.59,-0.385,-0.875,-0.113338,0.720288,-0.781044,-0.0399,-0.0868,0.54334
19.4627,0,0,5,5,29.4627,29.4627,-24.3284,3.55505,19.6894,-0.134734,0.297705,0.142864,0,1,2.0825,-0.84,-1.12,-0.113338,0.720288,-0.781044,-0.0399,-0.0868,0.54334
19.5642,0,0,5,5,29.5642,29.5642,-24.4553,3.81114,19.6796,0.223441,0.0411766,0.179927,0,1,1.9775,-0.0875,-1.47,0.250832,0.465918,-0.743102,-0.0399,-0.0868,0.54334
19.6624,0,0,5,5,29.6624,29.6624,-24.578,4.06468,19.6696,0.219026,0.0393586,0.178763,0,1,3.1675,0.7875,-0.9625,0.250832,0.465918,-0.743102,-0.0399,-0.0868,0.54334
19.6612,0,0,5,5,29.6612,29.6612,-24.5764,4.06507,19.6693,0.246718,0.584191,0.282297,1,1,4.445,0.245,-0.3675,0.278648,1.01016,-0.640378,-0.0462,-0.08358,0.53578
19.663,0,0,5,5,29.663,29.663,-24.5788,4.06669,19.67,0.24669,0.584155,0.282278,1,1,2.205,0.6825,0.42,0.278648,1.01016,-0.640378,-0.0462,-0.08358,0.53578
20.0005,0,0,5,5,30.0005,30.0005,-25.0006,3.75386,19.6426,-0.337676,0.367395,0.258144,0,1,1.925,0.0525,0.4725,-0.313662,0.800442,-0.661606,-0.0462,-0.08358,0.53578
20.3327,0,0,5,5,30.3327,30.3327,-25.4159,3.44543,19.6178,-0.332303,0.360706,0.255368,0,1,1.925,0.0525,0.4725,-0.313662,0.800442,-0.661606,-0.0462,-0.08358,0.53578
20.1133,0,0,5,5,30.1133,30.1133,-25.1416,3.85116,19.6361,0.407159,-0.315028,0.00311237,0,1,1.8725,0.14,0.175,0.436028,0.120902,-0.913536,-0.0462,-0.08358,0.53578
20.1157,0,0,5,5,30.1157,30.1157,-25.1447,3.85182,19.6367,-0.66472,-0.0444425,-0.0712947,1,1,1.82,0.1575,0.1925,-0.640378,0.391254,-0.987346,-0.0462,-0.08358,0.53578
20.1107,0,0,5,5,30.1107,30.1107,-25.1383,3.84972,19.6378,-0.664684,-0.044344,-0.0712457,1,1,7.0525,-1.4175,-0.245,-0.640378,0.391254,-0.987346,-0.0462,-0.08358,0.53578
20.1093,0,0,5,5,30.1093,30.1093,-25.1366,3.84871,19.6379,0.0687427,0.325116,0.00352055,1,1,4.4975,-0.595,-0.49,0.096136,0.760304,-0.91317,-0.0462,-0.08358,0.53578
20.1097,0,0,5,5,30.1097,30.1097,-25.1372,3.85024,19.6371,0.0687161,0.325108,0.00351507,1,1,3.29,0.98,-0.35,0.096136,0.760304,-0.91317,-0.0413,-0.08946,0.53172
19.7539,0,0,5,5,29.7539,29.7539,-24.6924,4.13457,19.6677,0.308438,-0.481942,-0.123001,0,1,3.7625,-0.175,-0.6125,0.341844,-0.05307,-1.04164,-0.0413,-0.08946,0.53172
19.4057,0,0,5,5,29.4057,29.4057,-24.2572,4.41276,19.6989,0.303596,-0.474898,-0.120192,0,1,1.9425,-0.8575,-1.5575,0.341844,-0.05307,-1.04164,-0.0413,-0.08946,0.53172
19.4072,0,0,5,5,29.4072,29.4072,-24.2591,4.41296,19.697,-0.137643,-0.268778,0.132945,1,1,2.5725,0.525,-1.26,-0.10126,0.152866,-0.790438,-0.0413,-0.08946,0.53172
19.4065,0,0,5,5,29.4065,29.4065,-24.2582,4.41208,19.6964,-0.137628,-0.268764,0.132953,1,1,4.0775,-0.35,-0.84,-0.10126,0.152866,-0.790438,-0.0413,-0.08946,0.53172
19.317,0,0,5,5,29.317,29.317,-24.1462,4.19031,19.7052,-0.224397,-0.110662,-0.0350378,0,1,1.8025,-0.0875,-0.21,-0.192272,0.309148,-0.958188,-0.0413,-0.08946,0.53172
19.2257,0,0,5,5,29.2257,29.2257,-24.0321,3.97242,19.7136,-0.220603,-0.108959,-0.0339799,0,1,4.095,-0.0175,-0.0875,-0.192272,0.309148,-0.958188,-0.0413,-0.08946,0.53172
19.227,0,0,5,5,29.227,29.227,-24.0338,3.97182,19.7149,0.191729,-0.234043,-0.247553,1,1,2.5725,-0.665,0.2625,0.221796,0.18422,-1.1701,-0.0413,-0.08946,0.53172
19.2303,0,0,5,5,29.2303,29.2303,-24.0379,3.97141,19.7162,0.191737,-0.234109,-0.247581,1,1,1.19,-0.56,0.28,0.221796,0.18422,-1.1701,-0.03948,-0.08638,0.54138
19.0978,0,0,5,5,29.0978,29.0978,-23.8723,4.1232,19.7282,0.157386,-0.160198,-0.0683064,0,1,2.24,0.245,-0.1225,0.189954,0.255346,-0.993202,-0.03948,-0.08638,0.54138
18.967,0,0,5,5,28.967,28.967,-23.7087,4.2725,19.7402,0.154787,-0.157516,-0.0673322,0,1,2.66,0.3325,-0.1925,0.189954,0.255346,-0.993202,-0.03948,-0.08638,0.54138
18.9687,0,0,5,5,28.9687,28.9687,-23.7109,4.27144,19.741,-0.254237,0.190021,-0.0291095,1,1,2.275,-0.7875,-0.1225,-0.22082,0.602558,-0.95526,-0.03948,-0.08638,0.54138
18.9673,0,0,5,5,28.9673,28.9673,-23.7092,4.27142,19.7406,-0.254236,0.190049,-0.0290972,1,1,4.55,0.0525,-0.525,-0.22082,0.602558,-0.95526,-0.03948,-0.08638,0.54138
19.0415,0,0,5,5,29.0415,29.0415,-23.8019,4.42977,19.7324,0.15776,0.0750788,0.0622723,0,1,4.0075,0.2625,-0.8575,0.195688,0.489098,-0.86376,-0.03948,-0.08638,0.54138
19.1165,0,0,5,5,29.1165,29.1165,-23.8956,4.58413,19.724,0.155074,0.0736725,0.0614192,0,1,2.5725,-0.4025,-1.2425,0.195688,0.489098,-0.86376,-0.03948,-0.08638,0.54138
19.1168,0,0,5,5,29.1168,29.1168,-23.896,4.58148,19.7222,-0.0715718,0.0596203,-0.26464,1,1,3.4125,-1.0325,-1.8725,-0.031964,0.475068,-1.1873,-0.03948,-0.08638,0.54138
19.1183,0,0,5,5,29.1183,29.1183,-23.8978,4.58275,19.7203,-0.0715939,0.0595923,-0.264654,1,1,2.625,1.085,-0.98,-0.031964,0.475068,-1.1873,-0.03948,-0.08638,0.54138
19.1185,0,0,5,5,29.1185,29.1185,-23.8981,4.58391,19.7194,-0.67066,-0.07182,-0.166176,1,1,3.43,0.805,-0.5075,-0.633546,0.343796,-1.08958,-0.049,-0.08568,0.54768
19.1207,0,0,5,5,29.1207,29.1207,-23.9009,4.58585,19.7195,0.228908,-0.35361,0.176091,1,1,1.96,0.98,0.21,0.269864,0.062342,-0.749934,-0.049,-0.08568,0.54768
19.1211,0,0,5,5,29.1211,29.1211,-23.9014,4.58562,19.7213,0.228912,-0.353618,0.176087,1,1,3.2025,-0.56,0.56,0.269864,0.062342,-0.749934,-0.049,-0.08568,0.54768
19.2196,0,0,5,5,29.2196,29.2196,-24.0244,4.93722,19.714,0.339666,0.0605971,0.155942,0,1,1.995,-0.9625,1.05,0.387228,0.477874,-0.7686,-0.049,-0.08568,0.54768
19.3167,0,0,5,5,29.3167,29.3167,-24.1458,5.28431,19.7045,0.333632,0.0588909,0.154588,0,1,1.96,0.0525,0.385,0.387228,0.477874,-0.7686,-0.049,-0.08568,0.54768
19.3509,0,0,5,5,29.3509,29.3509,-24.1886,5.1118,19.7008,-0.179441,0.0486973,-0.0075136,0,1,2.1175,1.3825,0.3325,-0.131028,0.46848,-0.929396,-0.049,-0.08568,0.54768
19.3836,0,0,5,5,29.3836,29.3836,-24.2294,4.93878,19.6983,-0.176433,0.047941,-0.00756358,0,1,2.73,-0.665,-0.0175,-0.131028,0.46848,-0.929396,-0.049,-0.08568,0.54768
19.1475,0,0,5,5,29.1475,29.1475,-23.9344,4.65343,19.7243,-0.291619,-0.297315,-0.0572199,0,1,3.605,-1.155,0.0875,-0.251686,0.119072,-0.981124,-0.049,-0.08568,0.54768
18.9201,0,0,5,5,28.9201,28.9201,-23.6501,4.37195,19.7474,-0.286722,-0.292945,-0.0548706,0,1,0.385,-1.1375,-0.665,-0.251686,0.119072,-0.981124,-0.04438,-0.07826,0.54502
18.9205,0,0,5,5,28.9205,28.9205,-23.6507,4.37042,19.7471,0.154662,-0.00937617,-0.134666,1,1,3.255,-0.805,-0.77,0.19154,0.402356,-1.0603,-0.04438,-0.07826,0.54502
18.9209,0,0,5,5,28.9209,28.9209,-23.6511,4.36923,19.7458,0.154683,-0.00938343,-0.134668,1,1,3.3775,-0.35,-1.3125,0.19154,0.402356,-1.0603,-0.04438,-0.07826,0.54502
18.9224,0,0,5,5,28.9224,28.9224,-23.653,4.36944,19.7431,0.16695,0.275141,0.0191274,1,1,2.59,0.7175,-1.6975,0.203862,0.686616,-0.90768,-0.04438,-0.07826,0.54502
18.9242,0,0,5,5,28.9242,28.9242,-23.6552,4.37042,19.7425,0.166932,0.275107,0.0191108,1,1,2.345,0.63,-0.385,0.203862,0.686616,-0.90768,-0.04438,-0.07826,0.54502
18.9256,0,0,5,5,28.9256,28.9256,-23.657,4.37005,19.7429,-0.0122525,-0.0295062,0.162211,1,1,2.52,-0.3325,-0.1575,0.023912,0.382348,-0.765672,-0.04438,-0.07826,0.54502
18.9264,0,0,5,5,28.9264,28.9264,-23.658,4.37085,19.7431,-0.0122665,-0.029522,0.162203,1,1,2.975,0.35,0,0.023912,0.382348,-0.765672,-0.04438,-0.07826,0.54502
18.9289,0,0,5,5,28.9289,28.9289,-23.6611,4.37128,19.744,0.313429,-0.0588813,0.30603,1,1,1.785,-0.0175,0.28,0.350994,0.353068,-0.622932,-0.04438,-0.07826,0.54502
18.9293,0,0,5,5,28.9293,28.9293,-23.6616,4.36957,19.7455,0.313459,-0.0588898,0.306029,1,1,3.22,-1.295,0.0875,0.350994,0.353068,-0.622932,-0.0434,-0.08764,0.53606
18.9323,0,0,5,5,28.9323,28.9323,-23.6654,4.36848,19.747,0.541871,0.0258047,0.0784261,1,1,1.3475,-0.9625,0.2275,0.580354,0.437736,-0.848754,-0.0434,-0.08764,0.53606
18.9347,0,0,5,5,28.9347,28.9347,-23.6684,4.3706,19.7468,0.541834,0.0257578,0.0784025,1,1,1.8725,1.155,0.0875,0.580354,0.437736,-0.848754,-0.0434,-0.08764,0.53606
18.9368,0,0,5,5,28.9368,28.9368,-23.6711,4.37024,19.7475,-0.062065,0.00238908,-0.278658,1,1,2.03,-0.4025,0.0175,-0.026108,0.414434,-1.20304,-0.0434,-0.08764,0.53606
18.9385,0,0,5,5,28.9385,28.9385,-23.6731,4.36989,19.7467,-0.0620588,0.00235649,-0.278672,1,1,2.45,-0.0175,-0.8575,-0.026108,0.414434,-1.20304,-0.0434,-0.08764,0.53606
18.9615,0,0,5,5,28.9615,28.9615,-23.7018,4.59015,19.7439,0.219722,0.00995724,0.0545344,0,1,4.76,-0.42,-0.7,0.260714,0.422364,-0.871934,-0.0434,-0.08764,0.53606
18.9906,0,0,5,5,28.9906,28.9906,-23.7382,4.80634,19.7413,0.215961,0.00950266,0.0539971,0,1,0.2275,-0.7,-0.63,0.260714,0.422364,-0.871934,-0.0434,-0.08764,0.53606
19.1071,0,0,5,5,29.1071,29.1071,-23.8839,5.0093,19.7283,0.227131,0.155325,0.0389267,0,1,3.115,-0.8575,-1.085,0.275476,0.570228,-0.885598,-0.0434,-0.08764,0.53606
19.2216,0,0,5,5,29.2216,29.2216,-24.027,5.21307,19.7128,0.223589,0.153179,0.0376267,0,1,3.3425,1.9075,-1.225,0.275476,0.570228,-0.885598,-0.04522,-0.08764,0.53592
19.135,0,0,5,5,29.135,29.135,-23.9187,5.23287,19.7216,0.0276531,-0.0771281,-0.128232,0,1,2.0475,1.3125,-0.525,0.079056,0.338428,-1.05091,-0.04522,-0.08764,0.53592
19.0501,0,0,5,5,29.0501,29.0501,-23.8126,5.25068,19.7323,0.0273435,-0.0754311,-0.127512,0,1,1.68,-0.035,0.1575,0.079056,0.338428,-1.05091,-0.04522,-0.08764,0.53592
19.053,0,0,5,5,29.053,29.053,-23.8163,5.25144,19.7333,-0.112621,-0.0331107,0.331428,1,1,1.4525,0.14,0.42,-0.061488,0.380762,-0.595482,-0.04522,-0.08764,0.53592
19.0544,0,0,5,5,29.0544,29.0544,-23.818,5.25074,19.7346,-0.112609,-0.0331386,0.331417,1,1,2.52,-0.7,0.1925,-0.061488,0.380762,-0.595482,-0.04522,-0.08764,0.53592
18.8397,0,0,5,5,28.8397,28.8397,-23.5496,5.3994,19.7621,0.13276,-0.285359,0.00282999,0,1,0.4725,-1.1725,0.525,0.187514,0.12444,-0.923174,-0.04522,-0.08764,0.53592
18.6256,0,0,5,5,28.6256,28.6256,-23.282,5.54844,19.7879,0.13017,-0.280994,0.00444993,0,1,2.5025,0.8575,0.14,0.187514,0.12444,-0.923174,-0.04522,-0.08764,0.53592
18.3064,0,0,5,5,28.3064,28.3064,-22.883,5.5834,19.8277,0.0203474,-0.4093,-0.0455088,0,1,0.8575,1.19,0.6475,0.077836,-0.010126,-0.97539,-0.04522,-0.08764,0.53592
17.9898,0,0,5,5,27.9898,27.9898,-22.4872,5.61384,19.867,0.0198187,-0.402937,-0.0429055,0,1,2.5025,-0.77,-0.2975,0.077836,-0.010126,-0.97539,-0.04228,-0.08764,0.53732
17.9919,0,0,5,5,27.9919,27.9919,-22.4898,5.61321,19.8676,0.221982,-0.421054,0.0891247,1,1,2.0475,-0.5075,-0.1225,0.280844,-0.028182,-0.844362,-0.04228,-0.08764,0.53732
17.9849,0,0,5,5,27.9849,27.9849,-22.4811,5.6121,19.8681,0.222001,-0.420915,0.0891847,1,1,8.435,-0.735,-0.2975,0.280844,-0.028182,-0.844362,-0.04228,-0.08764,0.53732
17.984,0,0,5,5,27.984,27.984,-22.48,5.61035,19.8691,0.00663735,0.0743253,0.200094,1,1,4.095,-1.2075,-0.14,0.064538,0.466528,-0.734318,-0.04228,-0.08764,0.53732
17.9835,0,0,5,5,27.9835,27.9835,-22.4794,5.61026,19.8673,0.00663895,0.074335,0.200098,1,1,3.99,0.315,-1.2775,0.064538,0.466528,-0.734318,-0.04228,-0.08764,0.53732
18.0536,0,0,5,5,28.0536,28.0536,-22.5669,5.73579,19.8571,0.123758,0.0717925,0.0521465,0,1,2.45,1.5925,-0.7525,0.184342,0.465308,-0.880352,-0.04228,-0.08764,0.53732
18.1224,0,0,5,5,28.1224,28.1224,-22.653,5.85667,19.8488,0.121659,0.0704945,0.0513752,0,1,2.345,-0.21,-0.2625,0.184342,0.465308,-0.880352,-0.04228,-0.08764,0.53732
17.9646,0,0,5,5,27.9646,27.9646,-22.4557,5.78054,19.8699,-0.0774708,-0.178585,-0.14206,0,1,1.2775,-0.175,0.0875,-0.016958,0.213378,-1.07372,-0.04228,-0.08764,0.53732
17.8099,0,0,5,5,27.8099,27.8099,-22.2623,5.70465,19.8906,-0.0761529,-0.175529,-0.14066,0,1,0.98,-0.735,-0.035,-0.016958,0.213378,-1.07372,-0.04228,-0.08764,0.53732
17.8151,0,0,5,5,27.8151,27.8151,-22.2688,5.7021,19.8919,-0.213023,-0.396807,-0.210779,1,1,-0.175,-1.6975,-0.175,-0.154452,-0.007564,-1.14326,-0.04494,-0.0868,0.53956
17.8185,0,0,5,5,27.8185,27.8185,-22.2731,5.70164,19.8918,-0.213015,-0.396876,-0.210806,1,1,1.1725,-0.2625,-0.455,-0.154452,-0.007564,-1.14326,-0.04494,-0.0868,0.53956
17.9497,0,0,5,5,27.9497,27.9497,-22.4372,5.83113,19.8752,0.129513,0.141597,0.0851894,0,1,1.4525,0.7525,-0.2625,0.191784,0.532896,-0.848266,-0.04494,-0.0868,0.53956
18.0769,0,0,5,5,28.0769,28.0769,-22.5961,5.95744,19.8604,0.12732,0.139135,0.083924,0,1,2.7825,-0.175,0.4725,0.191784,0.532896,-0.848266,-0.04494,-0.0868,0.53956
18.0772,0,0,5,5,28.0772,28.0772,-22.5965,5.95527,19.8619,0.164532,-0.000830025,0.155604,1,1,3.2375,-1.54,0.0175,0.229116,0.393084,-0.77714,-0.04494,-0.0868,0.53956
18.0763,0,0,5,5,28.0763,28.0763,-22.5954,5.95504,19.8611,0.164536,-0.000812946,0.155611,1,1,4.2,0.0175,-0.77,0.229116,0.393084,-0.77714,-0.04494,-0.0868,0.53956
18.0127,0,0,5,5,28.0127,28.0127,-22.5159,6.18708,19.8692,0.220644,-0.102328,0.0507469,0,1,5.0225,-0.315,-0.42,0.289506,0.290238,-0.881328,-0.04494,-0.0868,0.53956
17.9522,0,0,5,5,27.9522,27.9522,-22.4402,6.41452,19.8768,0.216699,-0.100948,0.0508465,0,1,3.6575,-0.56,-0.9975,0.289506,0.290238,-0.881328,-0.04494,-0.0868,0.53956
17.7422,0,0,5,5,27.7422,27.7422,-22.1777,6.56923,19.9058,0.160319,-0.268209,-0.0728697,0,1,2.8175,-0.0875,-0.8225,0.235582,0.118828,-1.00552,-0.04662,-0.08358,0.53592
17.7428,0,0,5,5,27.7428,27.7428,-22.1785,6.57072,19.9036,-0.18424,0.606085,-0.200006,1,1,3.255,1.26,-1.155,-0.11041,0.992226,-1.13167,-0.04662,-0.08358,0.53592
17.7464,0,0,5,5,27.7464,27.7464,-22.1831,6.57076,19.9037,-0.184241,0.606012,-0.200036,1,1,0.9975,-0.035,-0.2275,-0.11041,0.992226,-1.13167,-0.04662,-0.08358,0.53592
17.7478,0,0,5,5,27.7478,27.7478,-22.1847,6.57119,19.9034,0.0442666,0.227881,0.470267,1,1,2.625,0.2625,-0.3675,0.119072,0.614514,-0.466528,-0.04662,-0.08358,0.53592
17.7566,0,0,5,5,27.7566,27.7566,-22.1958,6.57044,19.9038,0.0442795,0.227704,0.470197,1,1,-2.6425,-0.525,-0.245,0.119072,0.614514,-0.466528,-0.04662,-0.08358,0.53592
17.76,0,0,5,5,27.76,27.76,-22.2001,6.79704,19.9047,0.202535,-0.0488084,0.108642,0,1,-1.2775,-0.56,-0.28,0.281942,0.338184,-0.824842,-0.04662,-0.08358,0.53592
17.7586,0,0,5,5,27.7586,27.7586,-22.1983,7.02269,19.9045,0.198625,-0.0486007,0.108216,0,1,2.17,1.19,-0.2275,0.281942,0.338184,-0.824842,-0.04662,-0.08358,0.53592
18.0171,0,0,5,5,28.0171,28.0171,-22.5214,6.99187,19.8648,-0.038467,0.299021,0.149056,0,1,2.3975,1.6275,0.0175,0.04331,0.690642,-0.782264,-0.04662,-0.08358,0.53592
18.2701,0,0,5,5,28.2701,28.2701,-22.8377,6.95769,19.8279,-0.0378748,0.293938,0.14701,0,1,3.185,-0.805,0.2975,0.04331,0.690642,-0.782264,-0.0427,-0.08862,0.53956
18.2677,0,0,5,5,28.2677,28.2677,-22.8347,6.95709,19.8285,-0.61152,-0.173271,-0.106857,1,1,5.1975,-0.4725,-0.1575,-0.532774,0.22387,-1.03419,-0.0427,-0.08862,0.53956
18.2664,0,0,5,5,28.2664,28.2664,-22.833,6.95808,19.8281,-0.611537,-0.173243,-0.106848,1,1,4.5325,0.5775,-0.2625,-0.532774,0.22387,-1.03419,-0.0427,-0.08862,0.53956
18.2658,0,0,5,5,28.2658,28.2658,-22.8322,6.95763,19.8283,0.0452225,0.0324298,-0.089998,1,1,3.955,-0.315,-0.315,0.126758,0.429318,-1.01748,-0.0427,-0.08862,0.53956
18.2642,0,0,5,5,28.2642,28.2642,-22.8302,6.95744,19.8283,0.0452258,0.0324616,-0.0899842,1,1,4.6725,-0.14,-0.3325,0.126758,0.429318,-1.01748,-0.0427,-0.08862,0.53956
18.2641,0,0,5,5,28.2641,28.2641,-22.8301,6.95883,19.8271,0.333001,0.385656,0.0371429,1,1,3.7275,0.9975,-0.6475,0.415776,0.782142,-0.891332,-0.0427,-0.08862,0.53956
18.2663,0,0,5,5,28.2663,28.2663,-22.8329,6.95892,19.8268,0.333,0.385611,0.0371239,1,1,1.995,0.07,-0.4025,0.415776,0.782142,-0.891332,-0.0427,-0.08862,0.53956
18.4616,0,0,5,5,28.4616,28.4616,-23.077,7.03535,19.7983,0.0783781,0.222894,0.114873,0,1,1.9075,-0.35,0.07,0.161406,0.62342,-0.812398,-0.0427,-0.08862,0.53956
18.6534,0,0,5,5,28.6534,28.6534,-23.3168,7.1104,19.7698,0.0770781,0.21914,0.113089,0,1,2.1,-0.3325,0.035,0.161406,0.62342,-0.812398,-0.04228,-0.0882,0.5369
18.8003,0,0,5,5,28.8003,28.8003,-23.5004,6.97367,19.7491,-0.140321,0.179589,0.0524636,0,1,0.245,-1.19,-0.105,-0.059292,0.586942,-0.871568,-0.04228,-0.0882,0.5369
18.9439,0,0,5,5,28.9439,28.9439,-23.6799,6.84057,19.7289,-0.138015,0.176626,0.0514746,0,1,0.77,-0.35,0.07,-0.059292,0.586942,-0.871568,-0.04228,-0.0882,0.5369
18.9454,0,0,5,5,28.9454,28.9454,-23.6818,6.84269,19.7293,0.290671,-0.169753,0.274732,1,1,2.485,0.9975,0.4375,0.371246,0.24095,-0.650016,-0.04228,-0.0882,0.5369
18.9453,0,0,5,5,28.9453,28.9453,-23.6816,6.84343,19.7304,0.290659,-0.16975,0.274732,1,1,3.5525,0.1225,0.42,0.371246,0.24095,-0.650016,-0.04228,-0.0882,0.5369
18.9449,0,0,5,5,28.9449,28.9449,-23.6812,6.84255,19.732,-0.425241,0.0459326,-0.216811,1,1,3.71,-0.875,0.3325,-0.3477,0.456402,-1.13777,-0.04228,-0.0882,0.5369
18.9417,0,0,5,5,28.9417,28.9417,-23.6772,6.8423,19.7325,-0.425237,0.0459959,-0.216783,1,1,5.7575,-0.2975,-0.0525,-0.3477,0.456402,-1.13777,-0.04228,-0.0882,0.5369
18.9393,0,0,5,5,28.9393,28.9393,-23.6741,6.84212,19.7325,-0.582193,0.347209,-0.314997,1,1,5.2675,-0.1225,-0.3675,-0.505324,0.757254,-1.23525,-0.04228,-0.0882,0.5369
18.9396,0,0,5,5,28.9396,28.9396,-23.6745,6.84234,19.7326,-0.582197,0.347202,-0.315001,1,1,3.3075,0.07,-0.21,-0.505324,0.757254,-1.23525,-0.04158,-0.08316,0.53144
18.9517,0,0,5,5,28.9517,28.9517,-23.6896,7.09384,19.7291,0.25607,-0.00357145,0.0558339,0,1,5.6,0.035,-1.0675,0.340868,0.40687,-0.866688,-0.04158,-0.08316,0.53144
18.9665,0,0,5,5,28.9665,28.9665,-23.7082,7.34271,19.7247,0.251761,-0.00364595,0.0552051,0,1,3.605,1.015,-1.1375,0.340868,0.40687,-0.866688,-0.04158,-0.08316,0.53144
19.1543,0,0,5,5,29.1543,29.1543,-23.9429,7.42037,19.6932,0.0926071,0.253081,0.063732,0,1,2.6775,0.4725,-1.085,0.18239,0.666974,-0.85644,-0.04158,-0.08316,0.53144
19.3388,0,0,5,5,29.3388,29.3388,-24.1735,7.49598,19.663,0.0912986,0.249508,0.061949,0,1,2.835,-0.1575,-0.6125,0.18239,0.666974,-0.85644,-0.04158,-0.08316,0.53144
19.3412,0,0,5,5,29.3412,29.3412,-24.1764,7.4962,19.662,0.196623,0.589707,0.124386,1,1,1.9775,0.3325,-0.805,0.288164,1.00687,-0.794464,-0.04158,-0.08316,0.53144
19.3435,0,0,5,5,29.3435,29.3435,-24.1794,7.49641,19.6609,0.196619,0.58966,0.124364,1,1,1.9775,0.3325,-0.805,0.288164,1.00687,-0.794464,-0.04158,-0.08316,0.53144
19.3456,0,0,5,5,29.3456,29.3456,-24.182,7.49629,19.6617,-0.435955,0.0523838,0.280491,1,1,2.0475,-0.28,0.07,-0.34709,0.470188,-0.639524,-0.04158,-0.08316,0.53144
19.3476,0,0,5,5,29.3476,29.3476,-24.1846,7.49616,19.6625,-0.435952,0.0523429,0.280473,1,1,2.0475,-0.28,0.07,-0.34709,0.470188,-0.639524,-0.04438,-0.08946,0.53326
19.2077,0,0,5,5,29.2077,29.2077,-24.0096,7.14039,19.684,-0.392012,-0.15857,-0.106578,0,1,4.97,0.7525,-0.2275,-0.309148,0.257054,-1.02553,-0.04438,-0.08946,0.53326
19.07,0,0,5,5,29.07,29.07,-23.8375,6.79005,19.7041,-0.385942,-0.156147,-0.104691,0,1,4.97,0.7525,-0.2275,-0.309148,0.257054,-1.02553,-0.04438,-0.08946,0.53326
19.0659,0,0,5,5,29.0659,29.0659,-23.8324,6.79045,19.7041,0.277363,0.231443,-0.227973,1,1,6.44,0.1925,-0.2275,0.356972,0.64416,-1.1479,-0.04438,-0.08946,0.53326
19.0618,0,0,5,5,29.0618,29.0618,-23.8273,6.79085,19.704,0.277356,0.231525,-0.227938,1,1,6.44,0.1925,-0.2275,0.356972,0.64416,-1.1479,-0.04438,-0.08946,0.53326
19.0608,0,0,5,5,29.0608,29.0608,-23.826,6.79067,19.7035,0.429216,-0.138865,-0.0663744,1,1,4.305,0,-0.63,0.509472,0.274134,-0.98759,-0.04438,-0.08946,0.53326
19.0598,0,0,5,5,29.0598,29.0598,-23.8247,6.7905,19.703,0.429219,-0.138845,-0.0663651,1,1,4.305,0,-0.63,0.509472,0.274134,-0.98759,-0.04438,-0.08946,0.53326
19.058,0,0,5,5,29.058,29.058,-23.8225,6.79138,19.7018,-0.321335,0.373391,0.124588,1,1,4.8825,0.7175,-0.7175,-0.244244,0.785802,-0.798124,-0.04438,-0.08946,0.53326
19.0562,0,0,5,5,29.0562,29.0562,-23.8202,6.79226,19.7006,-0.32135,0.373427,0.124602,1,1,4.8825,0.7175,-0.7175,-0.244244,0.785802,-0.798124,-0.04438,-0.08946,0.53326
19.0556,0,0,5,5,29.0556,29.0556,-23.8195,6.79244,19.7003,-0.178243,-0.19152,0.344438,1,1,3.9725,0.14,-0.4375,-0.100528,0.22143,-0.579988,-0.04494,-0.08848,0.53466
19.0122,0,0,5,5,29.0122,29.0122,-23.7652,6.79833,19.7087,-4.14764e-06,-0.0719464,0.0165346,0,1,-0.105,-0.0175,0.4725,0.078568,0.340014,-0.905728,-0.04494,-0.08848,0.53466
18.9694,0,0,5,5,28.9694,28.9694,-23.7118,6.80412,19.717,-0.00010447,-0.0710944,0.0168962,0,1,-0.105,-0.0175,0.4725,0.078568,0.340014,-0.905728,-0.04494,-0.08848,0.53466
18.9687,0,0,5,5,28.9687,28.9687,-23.7108,6.8049,19.7185,-0.104353,0.0240583,0.122145,1,1,3.99,0.0175,0.7175,-0.026108,0.435052,-0.801296,-0.04494,-0.08848,0.53466
18.9679,0,0,5,5,28.9679,28.9679,-23.7099,6.80568,19.7201,-0.104366,0.0240744,0.122151,1,1,3.99,0.0175,0.7175,-0.026108,0.435052,-0.801296,-0.04494,-0.08848,0.53466
18.9643,0,0,5,5,28.9643,28.9643,-23.7054,6.80575,19.7215,0.0459105,-0.197515,0.154394,1,1,5.95,-0.3325,0.4725,0.124806,0.213622,-0.769332,-0.04494,-0.08848,0.53466
18.9608,0,0,5,5,28.9608,28.9608,-23.701,6.80581,19.723,0.0459093,-0.197444,0.154425,1,1,5.95,-0.3325,0.4725,0.124806,0.213622,-0.769332,-0.04494,-0.08848,0.53466
18.9584,0,0,5,5,28.9584,28.9584,-23.698,6.80551,19.7241,0.00558123,0.354004,-0.0798941,1,1,5.11,-0.455,0.2275,0.084302,0.764452,-1.00186,-0.04942,-0.08554,0.53298
18.9554,0,0,5,5,28.9554,28.9554,-23.6942,6.80446,19.7245,-0.496622,0.257218,-0.0722425,1,1,5.6875,-0.6825,-0.35,-0.420046,0.667706,-0.9943,-0.04942,-0.08554,0.53298
18.9523,0,0,5,5,28.9523,28.9523,-23.6903,6.80342,19.7249,-0.496604,0.257278,-0.0722137,1,1,5.6875,-0.6825,-0.35,-0.420046,0.667706,-0.9943,-0.04942,-0.08554,0.53298
18.95,0,0,5,5,28.95,28.95,-23.6875,6.7958,19.7259,-0.113914,0.298107,-0.166481,1,1,5.075,-4.3575,-1.54,-0.035868,0.708454,-1.08787,-0.04942,-0.08554,0.53298
18.9477,0,0,5,5,28.9477,28.9477,-23.6847,6.78819,19.7269,-0.113782,0.298146,-0.166447,1,1,5.075,-4.3575,-1.54,-0.035868,0.708454,-1.08787,-0.04942,-0.08554,0.53298
18.9997,0,0,5,5,28.9997,28.9997,-23.7497,7.11883,19.7202,0.30654,-0.00731045,0.175364,0,1,4.5675,-4.06,-1.1725,0.391986,0.404064,-0.747616,-0.04942,-0.08554,0.53298
19.051,0,0,5,5,29.051,29.051,-23.8137,7.44426,19.7133,0.300906,-0.00803495,0.174258,0,1,4.5675,-4.06,-1.1725,0.391986,0.404064,-0.747616,-0.04942,-0.08554,0.53298
19.0553,0,0,5,5,29.0553,29.0553,-23.8191,7.44319,19.7126,-0.098156,-0.0879921,0.2475,1,1,0.5775,-0.455,-0.8925,-0.008784,0.324276,-0.674904,-0.04942,-0.08554,0.53298
19.0596,0,0,5,5,29.0596,29.0596,-23.8245,7.44212,19.712,-0.0981375,-0.0880784,0.247464,1,1,0.5775,-0.455,-0.8925,-0.008784,0.324276,-0.674904,-0.04298,-0.08806,0.53564
19.1728,0,0,5,5,29.1728,29.1728,-23.9659,7.61788,19.6925,0.188686,0.137491,0.0651253,0,1,4.1125,1.05,-0.3325,0.282308,0.551684,-0.854488,-0.04298,-0.08806,0.53564
19.1698,0,0,5,5,29.1698,29.1698,-23.9622,7.61848,19.6929,0.147735,-0.562236,-0.231648,1,1,5.6,0.21,0.0175,0.241194,-0.147376,-1.149,-0.04298,-0.08806,0.53564
19.1639,0,0,5,5,29.1639,29.1639,-23.9549,7.61856,19.693,0.147734,-0.562121,-0.231596,1,1,7.6475,-0.0175,-0.2275,0.241194,-0.147376,-1.149,-0.04298,-0.08806,0.53564
18.9993,0,0,5,5,28.9993,28.9993,-23.7491,7.40672,19.7199,-0.228608,-0.181809,-0.136027,0,1,5.18,-0.035,-0.035,-0.140422,0.229482,-1.05603,-0.04298,-0.08806,0.53564
18.8374,0,0,5,5,28.8374,28.8374,-23.5467,7.1985,19.7454,-0.225003,-0.178785,-0.134199,0,1,5.215,0.1925,-0.105,-0.140422,0.229482,-1.05603,-0.04298,-0.08806,0.53564
18.8369,0,0,5,5,28.8369,28.8369,-23.5461,7.19862,19.7456,0.107987,-0.116979,0.255306,1,1,3.885,0,-0.1925,0.19398,0.291214,-0.669536,-0.04298,-0.08806,0.53564
18.8359,0,0,5,5,28.8359,28.8359,-23.5448,7.19877,19.7435,0.107985,-0.116959,0.255314,1,1,4.3925,0.525,-1.365,0.19398,0.291214,-0.669536,-0.04298,-0.08806,0.53564
18.95,0,0,5,5,28.95,28.95,-23.6875,7.30602,19.7243,0.0999318,0.103876,0.110873,0,1,2.8875,0.35,-1.015,0.187758,0.513986,-0.811666,-0.04298,-0.08806,0.53564
19.0605,0,0,5,5,29.0605,29.0605,-23.8256,7.41107,19.7064,0.0981134,0.101782,0.109695,0,1,4.0775,-0.1575,-0.42,0.187758,0.513986,-0.811666,-0.0427,-0.0882,0.53312
19.1891,0,0,5,5,29.1891,29.1891,-23.9864,7.54967,19.6866,0.143216,0.140157,0.0882394,0,1,1.8375,-0.14,0.105,0.23546,0.554734,-0.831552,-0.0427,-0.0882,0.53312
19.3164,0,0,5,5,29.3164,29.3164,-24.1455,7.6857,19.6661,0.140863,0.137772,0.0868294,0,1,1.365,-0.14,-0.245,0.23546,0.554734,-0.831552,-0.0427,-0.0882,0.53312
19.3195,0,0,5,5,29.3195,29.3195,-24.1494,7.68676,19.667,-0.338052,-0.0573246,0.248108,1,1,1.33,0.3325,0.4025,-0.245464,0.3599,-0.671488,-0.0427,-0.0882,0.53312
19.3187,0,0,5,5,29.3187,29.3187,-24.1484,7.68916,19.6679,-0.338094,-0.057307,0.24811,1,1,4.025,1.0325,0.7525,-0.245464,0.3599,-0.671488,-0.0427,-0.0882,0.53312
19.2083,0,0,5,5,29.2083,29.2083,-24.0103,7.18664,19.6871,-0.557426,-0.153168,-0.0203651,0,1,3.64,0.595,0.8575,-0.474458,0.262422,-0.939888,-0.0427,-0.0882,0.53312
19.0943,0,0,5,5,29.0943,29.0943,-23.8679,6.69145,19.7049,-0.548846,-0.151336,-0.0184092,0,1,7.3675,0.735,0.9275,-0.474458,0.262422,-0.939888,-0.0427,-0.0882,0.53312
19.0898,0,0,5,5,29.0898,29.0898,-23.8622,6.69233,19.7066,0.156606,0.275832,-0.259719,1,1,6.615,0.035,0.805,0.233996,0.689056,-1.17937,-0.0427,-0.0882,0.53312
19.0854,0,0,5,5,29.0854,29.0854,-23.8568,6.69267,19.7084,0.1566,0.275919,-0.259681,1,1,6.4925,-0.28,0.7525,0.233996,0.689056,-1.17937,-0.04214,-0.08596,0.53816
19.0818,0,0,5,5,29.0818,29.0818,-23.8522,6.6922,19.7099,0.244928,0.23923,0.0302637,1,1,5.985,-0.6475,0.4025,0.32269,0.652334,-0.891698,-0.04214,-0.08596,0.53816
19.0815,0,0,5,5,29.0815,29.0815,-23.8518,6.6907,19.71,0.244954,0.239235,0.0302694,1,1,3.78,-0.84,-0.6475,0.32269,0.652334,-0.891698,-0.04214,-0.08596,0.53816
19.2572,0,0,5,5,29.2572,29.2572,-24.0715,6.41865,19.6836,-0.292519,0.214773,0.0920447,0,1,3.5175,-0.0175,-1.155,-0.221796,0.631594,-0.829356,-0.04214,-0.08596,0.53816
19.4294,0,0,5,5,29.4294,29.4294,-24.2867,6.15093,19.6588,-0.287875,0.211157,0.0909816,0,1,3.885,0,-0.98,-0.221796,0.631594,-0.829356,-0.04214,-0.08596,0.53816
19.4307,0,0,5,5,29.4307,29.4307,-24.2884,6.15025,19.658,-0.420525,0.301992,-0.0681246,1,1,2.66,-0.1925,-0.91,-0.35502,0.722362,-0.987224,-0.04214,-0.08596,0.53816
19.4325,0,0,5,5,29.4325,29.4325,-24.2906,6.14875,19.6577,-0.420499,0.301957,-0.0681374,1,1,2.3625,-0.77,-0.805,-0.35502,0.722362,-0.987224,-0.04214,-0.08596,0.53816
19.4336,0,0,5,5,29.4336,29.4336,-24.2919,6.14752,19.6568,-0.32827,0.162588,-0.214454,1,1,2.835,-0.4725,-1.0675,-0.262422,0.58316,-1.1324,-0.04214,-0.08596,0.53816
19.4358,0,0,5,5,29.4358,29.4358,-24.2948,6.14764,19.6568,-0.328272,0.162543,-0.214474,1,1,1.9775,0.0525,-0.315,-0.262422,0.58316,-1.1324,-0.0448,-0.09268,0.53368
19.5074,0,0,5,5,29.5074,29.5074,-24.3842,6.10081,19.6453,-0.0510797,0.0765815,0.0544688,0,1,4.865,1.12,-0.84,0.015128,0.498736,-0.86498,-0.0448,-0.09268,0.53368
19.5777,0,0,5,5,29.5777,29.5777,-24.4722,6.05479,19.635,-0.050281,0.0751565,0.0539149,0,1,4.795,0.945,-0.385,0.015128,0.498736,-0.86498,-0.0448,-0.09268,0.53368
19.8374,0,0,5,5,29.8374,29.8374,-24.7968,6.07132,19.5999,0.0121186,0.298792,0.177315,0,1,5.5825,0.84,-0.14,0.07808,0.727242,-0.740174,-0.0448,-0.09268,0.53368
20.0926,0,0,5,5,30.0926,30.0926,-25.1158,6.08515,19.566,0.0118787,0.293783,0.174956,0,1,5.81,-0.525,-0.3325,0.07808,0.727242,-0.740174,-0.0448,-0.09268,0.53368
20.0894,0,0,5,5,30.0894,30.0894,-25.1118,6.08567,19.565,-0.0599284,0.551289,0.069126,1,1,5.8625,0.49,-0.7,0.005978,0.984418,-0.845216,-0.0448,-0.09268,0.53368
20.0862,0,0,5,5,30.0862,30.0862,-25.1078,6.08618,19.564,-0.0599373,0.551353,0.0691547,1,1,5.8625,0.49,-0.7,0.005978,0.984418,-0.845216,-0.0448,-0.09268,0.53368
20.2448,0,0,5,5,30.2448,30.2448,-25.306,6.296,19.5413,0.230782,0.190456,0.107414,0,1,4.97,-0.63,-1.295,0.301584,0.626836,-0.805444,-0.0448,-0.09268,0.53368
20.4009,0,0,5,5,30.4009,30.4009,-25.5012,6.50238,19.5182,0.227202,0.187569,0.105599,0,1,4.97,-0.63,-1.295,0.301584,0.626836,-0.805444,-0.04536,-0.08876,0.5243
20.5129,0,0,5,5,30.5129,30.5129,-25.6411,6.51228,19.5008,0.0126084,0.138126,0.0525264,0,1,3.7625,0.0175,-1.2425,0.086254,0.579622,-0.85705,-0.04536,-0.08876,0.5243
20.623,0,0,5,5,30.623,30.623,-25.7787,6.52198,19.4836,0.0124402,0.135984,0.0514738,0,1,3.7625,0.0175,-1.2425,0.086254,0.579622,-0.85705,-0.04536,-0.08876,0.5243
20.625,0,0,5,5,30.625,30.625,-25.7812,6.52181,19.4833,-0.917651,-0.176333,0.149937,1,1,2.1875,-0.035,-0.525,-0.847778,0.267668,-0.759328,-0.04536,-0.08876,0.5243
20.357,0,0,5,5,30.357,30.357,-25.4463,6.90901,19.5234,0.424979,-0.399011,-0.0483027,0,1,1.015,-0.1225,-0.0875,0.507276,0.03965,-0.957822,-0.04536,-0.08876,0.5243
20.0895,0,0,5,5,30.0895,30.0895,-25.1119,7.29169,19.5656,0.418351,-0.393421,-0.0465761,0,1,3.0275,0.42,0.42,0.507276,0.03965,-0.957822,-0.04536,-0.08876,0.5243
20.0889,0,0,5,5,30.0889,30.0889,-25.1111,7.29459,19.5664,0.00731469,-0.0899217,0.225263,1,1,3.92,1.295,0.8575,0.09455,0.34282,-0.68808,-0.04536,-0.08876,0.5243
20.0858,0,0,5,5,30.0858,30.0858,-25.1072,7.29654,19.5681,0.00728089,-0.0898593,0.225287,1,1,5.6,0.595,1.05,0.09455,0.34282,-0.68808,-0.04536,-0.08876,0.5243
20.0841,0,0,5,5,30.0841,30.0841,-25.1051,7.29824,19.5711,-0.369719,-0.364243,-0.185225,1,1,4.55,0.1225,1.715,-0.284016,0.068686,-1.09544,-0.04508,-0.08694,0.53312
20.0807,0,0,5,5,30.0807,30.0807,-25.1009,7.2989,19.5729,0.4079,0.28224,-0.0967958,1,1,5.775,-0.105,0.7525,0.496906,0.714432,-1.00772,-0.04508,-0.08694,0.53312
20.0808,0,0,5,5,30.0808,30.0808,-25.101,7.29836,19.5748,0.407909,0.282239,-0.0967953,1,1,3.3775,-0.7875,0.56,0.496906,0.714432,-1.00772,-0.04508,-0.08694,0.53312
20.0806,0,0,5,5,30.0806,30.0806,-25.1008,7.29719,19.576,0.140175,0.582795,0.204063,1,1,3.57,-0.9625,0.07,0.228018,1.01467,-0.709186,-0.04508,-0.08694,0.53312
20.0825,0,0,5,5,30.0825,30.0825,-25.1031,7.29741,19.5757,0.140171,0.582758,0.204046,1,1,2.24,0.1575,-0.4025,0.228018,1.01467,-0.709186,-0.04508,-0.08694,0.53312
20.0833,0,0,5,5,30.0833,30.0833,-25.1041,7.29775,19.5748,-0.439322,0.445717,0.118589,1,1,3.0975,0.385,-0.7175,-0.353922,0.87779,-0.793976,-0.04508,-0.08694,0.53312
20.0863,0,0,5,5,30.0863,30.0863,-25.1079,7.29724,19.5748,-0.439313,0.445657,0.118562,1,1,1.4,-0.315,-0.4025,-0.353922,0.87779,-0.793976,-0.04508,-0.08694,0.53312
20.087,0,0,5,5,30.087,30.087,-25.1088,7.29657,19.5749,0.0748264,0.188566,0.395683,1,1,3.0625,-0.42,-0.4025,0.162382,0.62098,-0.518988,-0.04508,-0.08694,0.53312
20.0888,0,0,5,5,30.0888,30.0888,-25.111,7.29577,19.5754,0.0748403,0.18853,0.395668,1,1,2.275,-0.5775,-0.245,0.162382,0.62098,-0.518988,-0.04466,-0.08568,0.54474
19.8839,0,0,5,5,29.8839,29.8839,-24.8548,7.33252,19.6092,0.0180777,-0.274428,0.0208756,0,1,1.8375,-0.665,-0.105,0.106018,0.154452,-0.892674,-0.04466,-0.08568,0.54474
19.6807,0,0,5,5,29.6807,29.6807,-24.6008,7.37039,19.6415,0.0174221,-0.2704,0.0226379,0,1,2.9925,0.595,-0.2275,0.106018,0.154452,-0.892674,-0.04466,-0.08568,0.54474
19.6802,0,0,5,5,29.6802,29.6802,-24.6002,7.37229,19.6404,-0.106283,-0.0362712,-0.237398,1,1,3.9725,1.2425,-0.42,-0.018178,0.388326,-1.1507,-0.04466,-0.08568,0.54474
19.6793,0,0,5,5,29.6793,29.6793,-24.5992,7.37293,19.6415,-0.106294,-0.0362542,-0.237391,1,1,4.06,0.0525,0.42,-0.018178,0.388326,-1.1507,-0.04466,-0.08568,0.54474
19.6915,0,0,5,5,29.6915,29.6915,-24.6143,6.98427,19.64,-0.43207,0.0354534,-0.0257503,0,1,5.845,-0.5075,0.07,-0.352092,0.46055,-0.941352,-0.04466,-0.08568,0.54474
19.7065,0,0,5,5,29.7065,29.7065,-24.6331,6.60115,19.6373,-0.425431,0.0348277,-0.0251671,0,1,3.745,-0.385,-0.735,-0.352092,0.46055,-0.941352,-0.04466,-0.08568,0.54474
19.7064,0,0,5,5,29.7064,29.7064,-24.633,6.59969,19.6362,-0.0664152,0.165992,-0.0421306,1,1,3.675,-0.5425,-1.225,0.008418,0.591578,-0.958188,-0.04466,-0.08568,0.54474
19.7074,0,0,5,5,29.7074,29.7074,-24.6343,6.59832,19.634,-0.0663913,0.165971,-0.0421371,1,1,2.9925,-0.245,-1.7675,0.008418,0.591578,-0.958188,-0.0469,-0.07882,0.54208
19.7093,0,0,5,5,29.7093,29.7093,-24.6367,6.59776,19.6307,0.375219,0.21515,0.0281732,1,1,2.4325,0.49,-2.2225,0.451888,0.640744,-0.888404,-0.0469,-0.07882,0.54208
19.7135,0,0,5,5,29.7135,29.7135,-24.6418,6.59608,19.6281,0.375248,0.215068,0.0281389,1,1,0.8225,-0.2975,-2.065,0.451888,0.640744,-0.888404,-0.0469,-0.07882,0.54208
19.7162,0,0,5,5,29.7162,29.7162,-24.6453,6.59511,19.6256,-0.126593,0.012526,0.276349,1,1,1.7675,0.0525,-1.855,-0.052094,0.438468,-0.642086,-0.0469,-0.07882,0.54208
19.7195,0,0,5,5,29.7195,29.7195,-24.6494,6.59491,19.6238,-0.126589,0.0124606,0.276319,1,1,1.3475,0.2975,-1.295,-0.052094,0.438468,-0.642086,-0.0469,-0.07882,0.54208
19.5138,0,0,5,5,29.5138,29.5138,-24.3922,6.17284,19.6518,-0.446551,-0.284008,-0.00964419,0,1,2.9225,0.3675,-0.56,-0.380762,0.138592,-0.92842,-0.0469,-0.07882,0.54208
19.3124,0,0,5,5,29.3124,29.3124,-24.1405,5.75486,19.6795,-0.439295,-0.280336,-0.00715754,0,1,1.995,-1.0675,0.0175,-0.380762,0.138592,-0.92842,-0.0469,-0.07882,0.54208
19.1871,0,0,5,5,29.1871,29.1871,-23.9839,5.80615,19.6964,0.0408976,-0.173153,0.0148932,0,1,2.8875,0.0175,0.35,0.102358,0.243146,-0.907558,-0.0469,-0.07882,0.54208
19.0627,0,0,5,5,29.0627,29.0627,-23.8284,5.85841,19.713,0.0399903,-0.170648,0.0159026,0,1,3.6925,1.0325,0.735,0.102358,0.243146,-0.907558,-0.04018,-0.07938,0.54124
19.0633,0,0,5,5,29.0633,29.0633,-23.8291,5.86131,19.7142,0.682842,-0.255412,0.0321222,1,1,3.0975,1.26,0.98,0.747982,0.158478,-0.891454,-0.04018,-0.07938,0.54124
19.0638,0,0,5,5,29.0638,29.0638,-23.8298,5.86422,19.7153,0.682792,-0.255421,0.0321125,1,1,3.0975,1.26,0.98,0.747982,0.158478,-0.891454,-0.04018,-0.07938,0.54124
19.0631,0,0,5,5,29.0631,29.0631,-23.8289,5.86404,19.7174,-0.40353,0.0500313,-0.0793954,1,1,3.92,-0.6125,0.7525,-0.342942,0.4636,-1.00211,-0.04018,-0.07938,0.54124
19.0624,0,0,5,5,29.0624,29.0624,-23.828,5.86386,19.7194,-0.403527,0.0500449,-0.079389,1,1,3.92,-0.6125,0.7525,-0.342942,0.4636,-1.00211,-0.04018,-0.07938,0.54124
18.9101,0,0,5,5,28.9101,28.9101,-23.6376,5.6276,19.7391,-0.24696,-0.193179,-0.0508772,0,1,2.8,-1.0325,-0.4375,-0.189832,0.21777,-0.975512,-0.04018,-0.07938,0.54124
18.7602,0,0,5,5,28.7602,28.7602,-23.4503,5.395,19.7577,-0.242919,-0.190352,-0.0492201,0,1,2.8,-1.0325,-0.4375,-0.189832,0.21777,-0.975512,-0.04018,-0.07938,0.54124
18.7625,0,0,5,5,28.7625,28.7625,-23.4532,5.39581,19.7576,0.0220273,-0.544199,-0.338293,1,1,1.9425,0.4375,-0.1925,0.07625,-0.135664,-1.26233,-0.04018,-0.07938,0.54124
19.2285,0,0,5,5,29.2285,29.2285,-24.0357,5.37288,19.7033,-0.0482791,0.386165,0.469987,0,1,1.225,0.35,-0.14,0.005246,0.803004,-0.45628,-0.05264,-0.08876,0.54306
18.8543,0,0,5,5,28.8543,28.8543,-23.5679,5.41834,19.7486,0.0410735,-0.507664,-0.130848,0,1,1.1725,0.28,0.4725,0.09577,-0.097356,-1.05567,-0.05264,-0.08876,0.54306
18.4846,0,0,5,5,28.4846,28.4846,-23.1058,5.46087,19.7952,0.0403345,-0.500263,-0.127731,0,1,1.7325,-1.0675,0.7875,0.09577,-0.097356,-1.05567,-0.05264,-0.08876,0.54306
18.2679,0,0,5,5,28.2679,28.2679,-22.8349,4.9771,19.8217,-0.525641,-0.313161,0.00464635,0,1,2.8525,-0.385,0.6475,-0.481046,0.085522,-0.926834,-0.05264,-0.08876,0.54306
18.0529,0,0,5,5,28.0529,28.0529,-22.5661,4.50258,19.845,-0.517388,-0.309111,0.00708232,0,1,4.06,1.26,1.015,-0.481046,0.085522,-0.926834,-0.05264,-0.08876,0.54306
18.0511,0,0,5,5,28.0511,28.0511,-22.5639,4.50357,19.8465,0.381467,0.247211,0.116274,1,1,4.69,0.175,0.7,0.421632,0.641232,-0.818498,-0.05264,-0.08876,0.54306
18.0499,0,0,5,5,28.0499,28.0499,-22.5624,4.50259,19.8473,0.381485,0.247235,0.116285,1,1,4.3575,-0.7525,-0.07,0.421632,0.641232,-0.818498,-0.05264,-0.08876,0.54306
18.0494,0,0,5,5,28.0494,28.0494,-22.5618,4.50136,19.8476,0.562155,0.144658,-0.153581,1,1,3.9025,-0.7525,-0.4375,0.603046,0.538752,-1.08629,-0.05264,-0.08876,0.54306
18.0501,0,0,5,5,28.0501,28.0501,-22.5626,4.499,19.847,0.562196,0.144644,-0.153584,1,1,3.115,-1.19,-1.12,0.603046,0.538752,-1.08629,-0.04774,-0.08428,0.5313
18.0529,0,0,5,5,28.0529,28.0529,-22.5661,4.49667,19.8453,-0.583495,0.22348,0.0168025,1,1,1.6625,-0.91,-1.7325,-0.547536,0.617564,-0.917196,-0.04774,-0.08428,0.5313
18.0567,0,0,5,5,28.0567,28.0567,-22.5709,4.49533,19.8419,-0.583471,0.223402,0.0167722,1,1,1.015,0.0175,-2.4675,-0.547536,0.617564,-0.917196,-0.04774,-0.08428,0.5313
18.075,0,0,5,5,28.075,28.075,-22.5938,4.11867,19.8366,-0.408415,0.0170615,0.0245751,0,1,3.9725,0.175,-2.415,-0.378322,0.411994,-0.909754,-0.04774,-0.08428,0.5313
18.0935,0,0,5,5,28.0935,28.0935,-22.6169,3.74735,19.8321,-0.40195,0.0165189,0.0248306,0,1,3.5875,-0.175,-2.205,-0.378322,0.411994,-0.909754,-0.04774,-0.08428,0.5313
18.0951,0,0,5,5,28.0951,28.0951,-22.6189,3.74715,19.8295,-0.517479,-0.731905,-0.0740328,1,1,2.555,0.455,-1.7675,-0.494344,-0.335622,-1.00784,-0.04774,-0.08428,0.5313
18.0965,0,0,5,5,28.0965,28.0965,-22.6206,3.7467,19.8283,-0.517471,-0.731934,-0.0740443,1,1,2.59,-0.0175,-1.0325,-0.494344,-0.335622,-1.00784,-0.04774,-0.08428,0.5313
18.0046,0,0,5,5,28.0046,28.0046,-22.5058,3.82778,19.8354,0.0782186,-0.131752,0.00286511,0,1,0.5075,0.035,-0.805,0.105286,0.262056,-0.932202,-0.04774,-0.08428,0.5313
17.9128,0,0,5,5,27.9128,27.9128,-22.391,3.91006,19.843,0.0767858,-0.129867,0.00353888,0,1,1.4875,1.3125,0,0.105286,0.262056,-0.932202,-0.04774,-0.08428,0.5313
17.9108,0,0,5,5,27.9108,27.9108,-22.3885,3.91255,19.8427,-0.296583,0.608185,0.0303549,1,1,4.9175,1.3825,0.0875,-0.26962,0.999302,-0.905606,-0.0441,-0.08666,0.53172
17.9096,0,0,5,5,27.9096,27.9096,-22.387,3.91246,19.8436,-0.296581,0.608209,0.0303652,1,1,4.375,-0.28,0.1575,-0.26962,0.999302,-0.905606,-0.0441,-0.08666,0.53172
17.9069,0,0,5,5,27.9069,27.9069,-22.3837,3.91217,19.8443,0.0526949,-0.0833406,0.0876818,1,1,5.4075,-0.35,0.035,0.08113,0.308416,-0.848754,-0.0441,-0.08666,0.53172
17.9063,0,0,5,5,27.9063,27.9063,-22.3828,3.91124,19.8448,0.0527111,-0.0833274,0.0876884,1,1,4.0075,-0.63,-0.28,0.08113,0.308416,-0.848754,-0.0441,-0.08666,0.53172
17.9082,0,0,5,5,27.9082,27.9082,-22.3852,3.91003,19.8448,0.0646377,0.415154,-0.0792905,1,1,2.1875,-0.7,-0.5425,0.093086,0.80642,-1.01443,-0.0441,-0.08666,0.53172
17.9098,0,0,5,5,27.9098,27.9098,-22.3872,3.90969,19.8444,0.0646438,0.415122,-0.0793033,1,1,2.45,-0.1225,-0.6125,0.093086,0.80642,-1.01443,-0.0441,-0.08666,0.53172
17.7402,0,0,5,5,27.7402,27.7402,-22.1753,3.85993,19.8572,-0.0537887,-0.215567,-0.0549808,0,1,2.835,0.3675,-1.155,-0.026718,0.172996,-0.991738,-0.0441,-0.08666,0.53172
17.5736,0,0,5,5,27.5736,27.5736,-21.967,3.81023,19.8712,-0.0529232,-0.212228,-0.0535645,0,1,2.6075,-0.35,-0.4725,-0.026718,0.172996,-0.991738,-0.0441,-0.08666,0.53172
17.3836,0,0,5,5,27.3836,27.3836,-21.7295,3.54139,19.8873,-0.288053,-0.247214,-0.0539586,0,1,4.2875,-0.175,0.21,-0.267546,0.134322,-0.993934,-0.05012,-0.0924,0.53312
17.503,0,0,5,5,27.503,27.503,-21.8787,3.91957,19.8792,0.40366,0.118867,0.141518,0,1,4.2,0.4725,0.9625,0.43371,0.502274,-0.798612,-0.05012,-0.0924,0.53312
17.6227,0,0,5,5,27.6227,27.6227,-22.0284,4.29099,19.8712,0.397194,0.116623,0.140113,0,1,2.695,-0.3325,1.2775,0.43371,0.502274,-0.798612,-0.05012,-0.0924,0.53312
17.624,0,0,5,5,27.624,27.624,-22.03,4.293,19.8742,-0.262265,-0.0886961,0.16678,1,1,2.555,0.4025,1.75,-0.228506,0.297192,-0.772138,-0.05012,-0.0924,0.53312
17.6229,0,0,5,5,27.6229,27.6229,-22.0286,4.29685,19.8772,-0.262332,-0.088672,0.166785,1,1,4.2,1.4175,2.1175,-0.228506,0.297192,-0.772138,-0.05012,-0.0924,0.53312
17.6858,0,0,5,5,27.6858,27.6858,-22.1073,4.05716,19.8746,-0.272253,0.112431,-0.035083,0,1,4.025,0.525,1.9775,-0.242658,0.499468,-0.972218,-0.05012,-0.0924,0.53312
17.746,0,0,5,5,27.746,27.746,-22.1825,3.81875,19.8725,-0.268101,0.11111,-0.0353122,0,1,5.215,-0.8575,1.4175,-0.242658,0.499468,-0.972218,-0.05012,-0.0924,0.53312
17.7427,0,0,5,5,27.7427,27.7427,-22.1784,3.8176,19.8752,0.635772,0.230249,-0.0631932,1,1,5.7575,-1.2425,0.875,0.665022,0.618418,-0.999912,-0.05012,-0.0924,0.53312
17.7414,0,0,5,5,27.7414,27.7414,-22.1768,3.81657,19.8761,0.63579,0.230275,-0.0631814,1,1,4.4275,-0.805,0,0.665022,0.618418,-0.999912,-0.0469,-0.08596,0.5348
17.8448,0,0,5,5,27.8448,27.8448,-22.306,4.22648,19.8671,0.40184,0.0525198,0.207588,0,1,2.31,-0.665,-0.6475,0.437248,0.442738,-0.729926,-0.0469,-0.08596,0.5348
17.9458,0,0,5,5,27.9458,27.9458,-22.4323,4.63136,19.8545,0.394794,0.0506949,0.206247,0,1,3.0625,0.5075,-1.9075,0.437248,0.442738,-0.729926,-0.0469,-0.08596,0.5348
17.9463,0,0,5,5,27.9463,27.9463,-22.4329,4.63117,19.8516,0.0375082,0.319487,0.0529263,1,1,3.36,0.5075,-1.89,0.078446,0.71126,-0.88206,-0.0469,-0.08596,0.5348
17.9461,0,0,5,5,27.9461,27.9461,-22.4326,4.62945,19.8507,0.0375381,0.31949,0.0529305,1,1,3.7625,-0.7525,-1.19,0.078446,0.71126,-0.88206,-0.0469,-0.08596,0.5348
17.9445,0,0,5,5,27.9445,27.9445,-22.4307,4.62822,19.8498,0.340666,-0.294289,0.182409,1,1,4.655,-0.5075,-1.05,0.382836,0.098088,-0.753594,-0.0469,-0.08596,0.5348
17.9493,0,0,5,5,27.9493,27.9493,-22.4366,4.62749,19.8481,0.340679,-0.294384,0.182371,1,1,0.315,-0.0525,-1.365,0.382836,0.098088,-0.753594,-0.0469,-0.08596,0.5348
17.9522,0,0,5,5,27.9522,27.9522,-22.4403,4.62703,19.847,-0.190205,-0.478611,0.132184,1,1,1.5225,-0.0175,-1.0325,-0.150304,-0.085888,-0.80337,-0.0469,-0.08596,0.5348
17.945,0,0,5,5,27.945,27.945,-22.4312,4.62871,19.8456,-0.190235,-0.478464,0.132242,1,1,8.715,1.19,-0.6825,-0.150304,-0.085888,-0.80337,-0.04578,-0.08694,0.53144
17.9431,0,0,5,5,27.9431,27.9431,-22.4289,4.62927,19.8448,-0.35996,0.192049,-0.289088,1,1,4.8825,0.4375,-0.5775,-0.320738,0.583892,-1.22146,-0.04578,-0.08694,0.53144
17.9411,0,0,5,5,27.9411,27.9411,-22.4263,4.62754,19.8445,-0.35993,0.19209,-0.289068,1,1,5.005,-0.8925,-0.875,-0.320738,0.583892,-1.22146,-0.04578,-0.08694,0.53144
17.6983,0,0,5,5,27.6983,27.6983,-22.1229,4.62339,19.8678,-0.00524083,-0.30558,-0.0814924,0,1,6.755,-1.1025,-1.1725,0.03538,0.081862,-1.01748,-0.04578,-0.08694,0.53144
17.4641,0,0,5,5,27.4641,27.4641,-21.8302,4.62081,19.8897,-0.0051959,-0.300858,-0.0795831,0,1,3.5175,0,-1.365,0.03538,0.081862,-1.01748,-0.04578,-0.08694,0.53144
17.0201,0,0,5,5,27.0201,27.0201,-21.2751,5.05929,19.9354,0.383465,-0.648742,0.207619,0,1,3.2725,-0.3675,-1.19,0.433344,-0.274866,-0.735416,-0.04578,-0.08694,0.53144
16.5787,0,0,5,5,26.5787,26.5787,-20.7234,5.49168,19.9837,0.37595,-0.639542,0.210407,0,1,4.445,-0.595,-1.925,0.433344,-0.274866,-0.735416,-0.04578,-0.08694,0.53144
16.5138,0,0,5,5,26.5138,26.5138,-20.6422,5.55403,19.9892,0.0763766,-0.0687087,-0.0846377,0,1,1.855,0.0525,-1.9075,0.13359,0.29402,-1.02858,-0.04578,-0.08694,0.53144
16.4449,0,0,5,5,26.4449,26.4449,-20.5561,5.6158,19.9938,0.0753037,-0.0672715,-0.0842096,0,1,5.4075,0.49,-2.31,0.13359,0.29402,-1.02858,-0.04858,-0.09198,0.532
16.5689,0,0,5,5,26.5689,26.5689,-20.7111,5.53397,19.9767,-0.0872807,0.18223,0.0112403,0,1,4.935,0.7525,-1.085,-0.03111,0.545828,-0.933056,-0.04858,-0.09198,0.532
16.6907,0,0,5,5,26.6907,26.6907,-20.8633,5.453,19.963,-0.0858739,0.179709,0.0104282,0,1,4.8825,-0.07,0.3675,-0.03111,0.545828,-0.933056,-0.04858,-0.09198,0.532
16.6903,0,0,5,5,26.6903,26.6903,-20.8628,5.45285,19.9655,-0.41449,0.00385458,-0.185548,1,1,3.6925,-0.63,1.015,-0.36112,0.370148,-1.12752,-0.04858,-0.09198,0.532
16.6891,0,0,5,5,26.6891,26.6891,-20.8614,5.45415,19.9681,-0.414513,0.00387865,-0.185542,1,1,4.2175,0.14,1.3825,-0.36112,0.370148,-1.12752,-0.04858,-0.09198,0.532
16.7216,0,0,5,5,26.7216,26.7216,-20.9019,5.89354,19.9663,0.424369,-0.027407,0.193779,0,1,4.935,0.595,1.4525,0.488976,0.339282,-0.750178,-0.04858,-0.09198,0.532
16.7525,0,0,5,5,26.7525,26.7525,-20.9406,6.32688,19.9654,0.416848,-0.0277466,0.192787,0,1,5.6,0.56,2.17,0.488976,0.339282,-0.750178,-0.04858,-0.09198,0.532
16.7495,0,0,5,5,26.7495,26.7495,-20.9369,6.32861,19.97,0.31064,-0.103892,0.451983,1,1,5.3725,-0.035,2.5375,0.382348,0.263154,-0.493002,-0.04858,-0.09198,0.532
16.7454,0,0,5,5,26.7454,26.7454,-20.9318,6.32874,19.9733,0.310637,-0.103809,0.452014,1,1,6.195,-0.665,1.5575,0.382348,0.263154,-0.493002,-0.04536,-0.08946,0.52878
16.9382,0,0,5,5,26.9382,26.9382,-21.1728,6.53845,19.9497,0.205681,0.19348,0.180996,0,1,2.8875,-0.5775,1.54,0.2806,0.563884,-0.76006,-0.04536,-0.08946,0.52878
17.1238,0,0,5,5,27.1238,27.1238,-21.4048,6.74354,19.9244,0.202126,0.189883,0.17915,0,1,6.02,-0.9975,0.5775,0.2806,0.563884,-0.76006,-0.04536,-0.08946,0.52878
17.1208,0,0,5,5,27.1208,27.1208,-21.401,6.74314,19.9263,0.080647,0.469002,0.104052,1,1,5.5125,-0.6475,0.63,0.1586,0.842654,-0.834602,-0.04536,-0.08946,0.52878
