pid_x,pid_y,pid_z,front_left_speed,front_right_speed,back_left_speed,back_right_speed,orientation_x,orientation_y,orientation_z,acceleration_x,acceleration_y,acceleration_z,accel_rejected,mag_rejected,gyro_x,gyro_y,gyro_z,accel_x,accel_y,accel_z,mag_x,mag_y,mag_z
0.33309,0,0,14.6669,14.6669,15.3331,15.3331,-0.444111,-0.0741413,0.295914,0.0680335,0.377247,0.0865868,0,0,3.6575,-0.1575,-0.4025,0.026718,0.396744,-0.926712,-0.05292,-0.10444,0.5075
0.660146,0,0,14.3399,14.3399,15.6601,15.6601,-0.880169,-0.145384,0.595068,0.0692769,0.369637,0.0864964,0,0,3.92,-0.3325,-0.5775,0.026718,0.396744,-0.926712,-0.05292,-0.10444,0.5075
0.980336,0,0,14.0197,14.0197,15.9803,15.9803,-1.30706,-0.21612,0.901834,0.0678388,0.36402,0.0777439,0,0,3.9025,-0.0175,-0.3325,0.024034,0.398574,-0.935252,-0.05292,-0.10444,0.5075
1.2954,0,0,13.7046,13.7046,16.2954,16.2954,-1.72712,-0.277609,1.20563,0.073407,0.351318,0.0919302,0,0,3.885,-0.0875,-0.455,0.028548,0.393206,-0.920978,-0.05292,-0.10444,0.5075
1.60552,0,0,13.3945,13.3945,16.6055,16.6055,-2.14056,-0.336104,1.51296,0.0744279,0.344106,0.0916812,0,0,3.5525,-0.07,-0.315,0.028548,0.393206,-0.920978,-0.05292,-0.10444,0.5075
1.91158,0,0,13.0884,13.0884,16.9116,16.9116,-2.5486,-0.390957,1.82109,0.077086,0.341266,0.0858511,0,0,3.5875,0,-0.3675,0.030256,0.397476,-0.926468,-0.04872,-0.10178,0.50064
2.21241,0,0,12.7876,12.7876,17.2124,17.2124,-2.94964,-0.450537,2.14042,0.0712012,0.335496,0.0819423,0,0,3.5,0.2975,-0.2975,0.023302,0.398696,-0.930006,-0.04872,-0.10178,0.50064
2.50433,0,0,12.4957,12.4957,17.5043,17.5043,-3.3388,-0.504667,2.46242,0.0733608,0.326272,0.0757833,0,0,3.5,0.1575,-0.245,0.024522,0.396256,-0.93574,-0.04872,-0.10178,0.50064
2.79262,0,0,12.2074,12.2074,17.7926,17.7926,-3.72311,-0.556318,2.78676,0.0746267,0.319823,0.0804028,0,0,3.7275,0.0175,-0.1575,0.024888,0.3965,-0.930738,-0.04872,-0.10178,0.50064
3.07609,0,0,11.9239,11.9239,18.0761,18.0761,-4.10099,-0.605148,3.11399,0.0754789,0.313244,0.0799443,0,0,3.5875,0.07,-0.2625,0.024888,0.3965,-0.930738,-0.04872,-0.10178,0.50064
3.35479,0,0,11.6452,11.6452,18.3548,18.3548,-4.4725,-0.650523,3.44339,0.0769997,0.307145,0.079328,0,0,3.605,0.1225,-0.2625,0.02562,0.396866,-0.93086,-0.04872,-0.10178,0.50064
3.62714,0,0,11.3729,11.3729,18.6271,18.6271,-4.83553,-0.692017,3.77492,0.0784528,0.299732,0.077453,0,0,3.745,0.0875,-0.35,0.026352,0.395768,-0.932202,-0.04872,-0.10178,0.50064
3.895,0,0,11.105,11.105,18.895,18.895,-5.19258,-0.734448,4.11995,0.0791933,0.293525,0.0768993,0,0,3.6575,0.0175,-0.4025,0.026352,0.395768,-0.932202,-0.04886,-0.10906,0.49868
4.16108,0,0,10.8389,10.8389,19.1611,19.1611,-5.54725,-0.773805,4.46613,0.0809735,0.28773,0.0839338,0,0,3.535,0.0875,-0.3675,0.02745,0.396134,-0.924638,-0.04886,-0.10906,0.49868
4.42074,0,0,10.5793,10.5793,19.4207,19.4207,-5.89334,-0.812854,4.81832,0.0793467,0.282698,0.074716,0,0,3.36,0.0175,-0.4025,0.025132,0.39711,-0.933178,-0.04886,-0.10906,0.49868
4.67614,0,0,10.3239,10.3239,19.6761,19.6761,-6.23375,-0.849858,5.1733,0.0799925,0.276792,0.0740792,0,0,3.1675,-0.245,-0.49,0.025132,0.39711,-0.933178,-0.04886,-0.10906,0.49868
4.92724,0,0,10.0728,10.0728,19.9272,19.9272,-6.56841,-0.883231,5.52997,0.0813038,0.269035,0.0790749,0,0,3.255,-0.175,-0.4025,0.025864,0.395158,-0.927566,-0.04886,-0.10906,0.49868
5.17255,0,0,9.82745,9.82745,20.1725,20.1725,-6.89536,-0.913828,5.88976,0.0819592,0.26398,0.0733569,0,0,3.395,-0.1575,-0.315,0.025986,0.395768,-0.932568,-0.04886,-0.10906,0.49868
5.4132,0,0,9.5868,9.5868,20.4132,20.4132,-7.21608,-0.942133,6.25241,0.0824532,0.258427,0.0726615,0,0,3.675,-0.175,-0.245,0.025986,0.395768,-0.932568,-0.04886,-0.10906,0.49868
5.65251,0,0,9.34749,9.34749,20.6525,20.6525,-7.53501,-0.971005,6.61626,0.0806488,0.256328,0.0726764,0,0,3.6225,-0.105,-0.1925,0.023668,0.399184,-0.931836,-0.04578,-0.10528,0.49686
5.88931,0,0,9.11069,9.11069,20.8893,20.8893,-7.85059,-0.995351,6.97927,0.0837463,0.250139,0.0783253,0,0,3.4825,-0.175,-0.35,0.026352,0.398452,-0.925492,-0.04578,-0.10528,0.49686
6.11891,0,0,8.88109,8.88109,21.1189,21.1189,-8.15655,-1.01554,7.34452,0.0845846,0.243387,0.0725348,0,0,3.5875,0.0875,-0.3325,0.02684,0.396988,-0.930494,-0.04578,-0.10528,0.49686
6.34452,0,0,8.65548,8.65548,21.3445,21.3445,-8.4572,-1.03397,7.71226,0.0849062,0.238196,0.0717712,0,0,3.535,-0.07,-0.42,0.02684,0.396988,-0.930494,-0.04578,-0.10528,0.49686
6.56591,0,0,8.43409,8.43409,21.5659,21.5659,-8.75221,-1.05141,8.08337,0.0838742,0.22981,0.0781265,0,0,3.5,-0.245,-0.4375,0.025498,0.393694,-0.923418,-0.04578,-0.10528,0.49686
6.78345,0,0,8.21655,8.21655,21.7834,21.7834,-9.04208,-1.06694,8.45671,0.0848741,0.227744,0.0704541,0,0,3.4475,-0.4025,-0.4725,0.02623,0.396622,-0.93025,-0.04578,-0.10528,0.49686
6.99716,0,0,8.00284,8.00284,21.9972,21.9972,-9.32684,-1.0805,8.83253,0.0851108,0.222839,0.0696566,0,0,3.43,-0.3675,-0.49,0.02623,0.396622,-0.93025,-0.04578,-0.10528,0.49686
7.20886,0,0,7.79114,7.79114,22.2089,22.2089,-9.60891,-1.09454,9.21434,0.0837765,0.217863,0.0740061,0,0,3.325,-0.2625,-0.4375,0.024644,0.3965,-0.925126,-0.04536,-0.10626,0.49532
7.41555,0,0,7.58445,7.58445,22.4155,22.4155,-9.8843,-1.10633,9.59889,0.0838607,0.213493,0.0695002,0,0,3.5175,-0.105,-0.4025,0.024522,0.396866,-0.928786,-0.04536,-0.10626,0.49532
7.61686,0,0,7.38314,7.38314,22.6169,22.6169,-10.1525,-1.11221,9.98179,0.087122,0.205832,0.0707742,0,0,3.4475,-0.105,-0.56,0.027694,0.393816,-0.926712,-0.04536,-0.10626,0.49532
7.8142,0,0,7.1858,7.1858,22.8142,22.8142,-10.4154,-1.11646,10.3671,0.087196,0.201318,0.0699537,0,0,3.7275,-0.14,-0.525,0.027694,0.393816,-0.926712,-0.04536,-0.10626,0.49532
8.00732,0,0,6.99268,6.99268,23.0073,23.0073,-10.6727,-1.11993,10.7563,0.0861632,0.197759,0.0658114,0,0,3.885,-0.035,-0.35,0.026596,0.39467,-0.930006,-0.04536,-0.10626,0.49532
8.19701,0,0,6.80299,6.80299,23.197,23.197,-10.9254,-1.12179,11.1479,0.0861957,0.193428,0.0649846,0,0,3.885,-0.035,-0.35,0.026596,0.39467,-0.930006,-0.04536,-0.10626,0.49532
8.38644,0,0,6.61356,6.61356,23.3864,23.3864,-11.1778,-1.12295,11.5416,0.0860945,0.189595,0.0704105,0,0,3.4125,0.0175,-0.42,0.026474,0.395158,-0.923784,-0.04536,-0.10626,0.49532
8.67011,0,0,6.32989,6.32989,23.6701,23.6701,-11.5558,-1.23595,12.0249,0.0169972,0.289753,0.106201,0,0,3.6225,0.1575,-0.3325,-0.044896,0.501664,-0.88694,-0.04536,-0.10626,0.49532
8.94844,0,0,6.05156,6.05156,23.9484,23.9484,-11.9266,-1.34393,12.5096,0.0188813,0.283425,0.104843,0,0,3.85,0.1575,-0.3675,-0.044896,0.501664,-0.88694,-0.04466,-0.10696,0.5047
9.08,0,0,5.92,5.92,24.08,24.08,-12.1018,-1.44262,13.036,-0.045728,0.165279,-0.0378399,0,0,3.5175,-0.21,-0.21,-0.111508,0.386618,-1.02785,-0.04466,-0.10696,0.5047
9.28594,0,0,5.71406,5.71406,24.2859,24.2859,-12.3761,-1.25708,13.2261,0.283784,0.183789,0.120684,0,0,3.4125,-0.07,-0.21,0.22265,0.409798,-0.869616,-0.04466,-0.10696,0.5047
9.48784,0,0,5.51216,5.51216,24.4878,24.4878,-12.6451,-1.07311,13.4171,0.280574,0.179194,0.119731,0,0,3.5875,-0.035,-0.245,0.22265,0.409798,-0.869616,-0.04466,-0.10696,0.5047
9.60295,0,0,5.39705,5.39705,24.603,24.603,-12.7983,-1.25323,14.0333,-0.135652,0.11981,0.0464176,0,0,3.325,0.2275,-0.14,-0.198494,0.353068,-0.941718,-0.04466,-0.10696,0.5047
9.71559,0,0,5.28441,5.28441,24.7156,24.7156,-12.9482,-1.42985,14.6516,-0.13257,0.117276,0.0457644,0,0,3.5875,-0.0525,-0.2625,-0.198494,0.353068,-0.941718,-0.04466,-0.10696,0.5047
9.94306,0,0,5.05694,5.05694,24.9431,24.9431,-13.2513,-1.59479,15.2382,-0.0625107,0.212899,0.121212,0,0,4.025,-0.385,-0.2275,-0.131028,0.453718,-0.86559,-0.04466,-0.10696,0.5047
10.1652,0,0,5,5,25.1652,25.1652,-13.5471,-1.75135,15.8081,-0.0597793,0.207896,0.119938,0,0,4.3225,-0.8925,-0.5425,-0.131028,0.453718,-0.86559,-0.04858,-0.09226,0.50946
10.2948,0,0,5,5,25.2948,25.2948,-13.7197,-1.55189,16.0075,0.255641,0.0917352,0.121662,0,0,4.445,-0.875,-0.4025,0.189222,0.340624,-0.863272,-0.04858,-0.09226,0.50946
10.4213,0,0,5,5,25.4213,25.4213,-13.8881,-1.35337,16.2076,0.252177,0.08886,0.121046,0,0,4.865,-0.14,-0.21,0.189222,0.340624,-0.863272,-0.04858,-0.09226,0.50946
10.658,0,0,5,5,25.658,25.658,-14.2034,-1.28333,16.5317,0.171625,0.202467,0.141254,0,0,4.1475,0.0175,-0.1225,0.109556,0.459452,-0.841922,-0.04858,-0.09226,0.50946
10.8917,0,0,5,5,25.8917,25.8917,-14.5147,-1.21253,16.8586,0.170389,0.197199,0.139933,0,0,3.2025,0.105,0.1575,0.109556,0.459452,-0.841922,-0.04858,-0.09226,0.50946
10.8248,0,0,5,5,25.8248,25.8248,-14.4252,-1.4838,17.577,-0.445426,-0.00203752,-0.298342,0,0,3.0975,-0.49,-0.28,-0.51362,0.258884,-1.2771,-0.04858,-0.09226,0.50946
10.8271,0,0,5,5,25.8271,25.8271,-14.428,-1.48394,17.5771,-0.445424,-0.0020844,-0.298354,1,0,2.0125,-0.1575,-0.35,-0.51362,0.258884,-1.2771,-0.04858,-0.09226,0.50946
10.8288,0,0,5,5,25.8288,25.8288,-14.43,-1.48503,17.5773,0.451281,-0.101774,-0.152177,1,0,2.4325,-0.7,-0.49,0.386862,0.159332,-1.13204,-0.04858,-0.09226,0.50946
10.8298,0,0,5,5,25.8298,25.8298,-14.431,-1.48663,17.5767,0.451309,-0.10179,-0.152182,1,0,3.0275,-0.8925,-0.9275,0.386862,0.159332,-1.13204,-0.04858,-0.09226,0.50946
10.8312,0,0,5,5,25.8312,25.8312,-14.4327,-1.48603,17.5754,-0.253926,-0.26559,-0.555091,1,1,2.6075,0.4725,-1.0675,-0.321348,-0.00427,-1.53183,-0.04522,-0.09114,0.5194
11.177,0,0,5,5,26.177,26.177,-14.8933,-0.669995,17.5822,0.669704,0.241696,0.555571,0,1,4.34,0.7525,-1.3125,0.620492,0.510326,-0.427976,-0.04522,-0.09114,0.5194
10.9015,0,0,5,5,25.9015,25.9015,-14.5257,-0.888809,17.5768,-0.202997,-0.333287,-0.0673057,0,1,5.1625,-0.28,-0.6825,-0.259738,-0.070272,-1.04761,-0.04522,-0.09114,0.5194
11.4816,0,0,5,5,26.4816,26.4816,-15.2989,-0.272702,17.5841,0.627418,0.640918,0.636158,0,1,4.2175,0.1575,-0.6825,0.58499,0.915976,-0.346236,-0.04522,-0.09114,0.5194
11.4785,0,0,5,5,26.4785,26.4785,-15.2944,-0.270659,17.5838,-1.24824,-0.225129,0.307046,1,1,6.0725,1.1375,-0.245,-1.29857,0.050752,-0.67283,-0.04522,-0.09114,0.5194
11.4768,0,0,5,5,26.4768,26.4768,-15.2919,-0.268201,17.5836,0.107623,0.286381,0.324516,1,1,5.005,1.365,-0.1575,0.063074,0.561688,-0.655506,-0.04522,-0.09114,0.5194
11.4767,0,0,5,5,26.4767,26.4767,-15.2915,-0.268705,17.5831,0.107632,0.286387,0.324518,1,1,3.7625,-0.28,-0.7175,0.063074,0.561688,-0.655506,-0.04522,-0.09114,0.5194
11.4757,0,0,5,5,26.4757,26.4757,-15.2899,-0.267437,17.5828,-0.965838,0.323785,0.201331,1,1,4.4975,0.7,-0.3675,-1.01492,0.59902,-0.77775,-0.04522,-0.09114,0.5194
11.4767,0,0,5,5,26.4767,26.4767,-15.2908,-0.267993,17.583,0.762549,0.0975898,-0.106413,1,1,3.01,-0.4025,-0.385,0.720776,0.373076,-1.08312,-0.05054,-0.08554,0.52486
11.4807,0,0,5,5,26.4807,26.4807,-15.2959,-0.270381,17.5826,-0.655512,0.305242,0.0145446,1,1,0.735,-1.3475,-0.9975,-0.70333,0.580598,-0.963068,-0.05054,-0.08554,0.52486
11.4847,0,0,5,5,26.4847,26.4847,-15.3009,-0.271233,17.5812,-0.655497,0.305159,0.0145215,1,1,0.77,-0.3325,-1.295,-0.70333,0.580598,-0.963068,-0.05054,-0.08554,0.52486
11.4888,0,0,5,5,26.4888,26.4888,-15.3061,-0.271197,17.5806,0.592039,-0.351239,0.303426,1,1,0.63,0.0525,-0.735,0.549488,-0.07503,-0.676368,-0.05054,-0.08554,0.52486
11.4884,0,0,5,5,26.4884,26.4884,-15.3052,-0.270755,17.5791,0.592031,-0.351223,0.303431,1,1,4.0775,0.42,-1.1725,0.549488,-0.07503,-0.676368,-0.05054,-0.08554,0.52486
11.4878,0,0,5,5,26.4878,26.4878,-15.3041,-0.269951,17.5772,0.462878,0.2245,0.396385,1,1,4.165,0.6825,-1.33,0.419802,0.500078,-0.584136,-0.05054,-0.08554,0.52486
11.4847,0,0,5,5,26.4847,26.4847,-15.2996,-0.268237,17.5761,0.462848,0.224576,0.396405,1,1,6.0725,1.0675,-0.7175,0.419802,0.500078,-0.584136,-0.05054,-0.08554,0.52486
11.6504,0,0,5,5,26.6504,26.6504,-15.5203,-0.629799,17.5771,-0.328881,0.18033,0.108987,0,1,5.8975,2.065,-0.2625,-0.381616,0.459574,-0.868274,-0.05054,-0.08554,0.52486
11.8166,0,0,5,5,26.8166,26.8166,-15.7416,-0.987871,17.5801,-0.322632,0.176634,0.107862,0,1,3.2725,0.1925,-0.42,-0.381616,0.459574,-0.868274,-0.04662,-0.07854,0.53228
11.8169,0,0,5,5,26.8169,26.8169,-15.7416,-0.987731,17.58,-0.24294,0.202769,-0.249795,1,1,3.57,0.035,-0.4375,-0.301584,0.485682,-1.22317,-0.04662,-0.07854,0.53228
11.8195,0,0,5,5,26.8195,26.8195,-15.7449,-0.988015,17.5804,-0.242935,0.202715,-0.249811,1,1,1.7675,-0.2975,-0.175,-0.301584,0.485682,-1.22317,-0.04662,-0.07854,0.53228
11.8226,0,0,5,5,26.8226,26.8226,-15.7486,-0.989421,17.5814,0.0923898,-0.0677358,-0.153191,1,1,1.4875,-1.015,-0.0525,0.035136,0.215574,-1.12728,-0.04662,-0.07854,0.53228
11.8238,0,0,5,5,26.8238,26.8238,-15.7499,-0.988647,17.5824,0.0923763,-0.0677575,-0.153197,1,1,2.8525,0.2275,0.245,0.035136,0.215574,-1.12728,-0.04662,-0.07854,0.53228
11.8252,0,0,5,5,26.8252,26.8252,-15.7515,-0.98806,17.5843,0.398996,0.00756691,0.201993,1,1,2.66,-0.035,0.77,0.343064,0.290848,-0.774822,-0.04662,-0.07854,0.53228
11.8245,0,0,5,5,26.8245,26.8245,-15.7502,-0.987351,17.5868,0.398984,0.00758927,0.202,1,1,4.34,-0.07,1.155,0.343064,0.290848,-0.774822,-0.04662,-0.07854,0.53228
11.8245,0,0,5,5,26.8245,26.8245,-15.7499,-0.987852,17.5906,-0.130078,0.0674357,0.183805,1,1,3.745,-0.945,1.645,-0.188246,0.350628,-0.792878,-0.04662,-0.07854,0.53228
11.8229,0,0,5,5,26.8229,26.8229,-15.7474,-0.985575,17.5963,-0.130118,0.0674774,0.183817,1,1,5.0225,0.315,3.1675,-0.188246,0.350628,-0.792878,-0.03878,-0.08232,0.53186
11.8215,0,0,5,5,26.8215,26.8215,-15.7453,-0.98334,17.6021,0.0176915,0.456976,0.74644,1,1,4.83,0.28,3.2025,-0.039772,0.739686,-0.234606,-0.03878,-0.08232,0.53186
11.8225,0,0,5,5,26.8225,26.8225,-15.7463,-0.982694,17.6068,0.0176802,0.456959,0.746436,1,1,3.0625,-0.455,2.38,-0.039772,0.739686,-0.234606,-0.03878,-0.08232,0.53186
11.8216,0,0,5,5,26.8216,26.8216,-15.7449,-0.982457,17.6108,0.170627,0.750575,0.50239,1,1,4.3925,-0.56,1.8725,0.113826,1.03297,-0.476776,-0.03878,-0.08232,0.53186
11.8214,0,0,5,5,26.8214,26.8214,-15.7442,-0.98456,17.6129,0.170663,0.750586,0.502392,1,1,3.9375,-1.5925,0.49,0.113826,1.03297,-0.476776,-0.03878,-0.08232,0.53186
11.8223,0,0,5,5,26.8223,26.8223,-15.7451,-0.984993,17.614,0.877232,0.759487,0.456405,1,1,3.115,-0.4725,0.1225,0.823378,1.04188,-0.522404,-0.03878,-0.08232,0.53186
11.8182,0,0,5,5,26.8182,26.8182,-15.7393,-0.984502,17.6114,0.877223,0.759585,0.456433,1,1,6.79,0.63,-1.785,0.823378,1.04188,-0.522404,-0.03878,-0.08232,0.53186
11.8145,0,0,5,5,26.8145,26.8145,-15.7341,-0.98398,17.6083,1.31165,0.209003,0.387975,1,1,6.4575,0.7175,-2.03,1.25965,0.491782,-0.590358,-0.03878,-0.08232,0.53186
11.812,0,0,5,5,26.812,26.812,-15.7305,-0.984322,17.6026,1.31165,0.209063,0.387992,1,1,5.53,0.6475,-3.64,1.25965,0.491782,-0.590358,-0.04844,-0.08022,0.53256
11.6726,0,0,5,5,26.6726,26.6726,-15.5442,-1.36251,17.5931,-0.332253,-0.178821,0.0423923,0,1,5.4075,1.645,-3.4125,-0.397842,0.101138,-0.934032,-0.04844,-0.08022,0.53256
11.5364,0,0,5,5,26.5364,26.5364,-15.3623,-1.73422,17.581,-0.325767,-0.175716,0.0430688,0,1,4.7775,1.645,-4.3225,-0.397842,0.101138,-0.934032,-0.04844,-0.08022,0.53256
11.5392,0,0,5,5,26.5392,26.5392,-15.3658,-1.73447,17.5742,-0.634823,0.106584,0.101084,1,1,1.5225,0.84,-4.2175,-0.70821,0.383202,-0.876448,-0.04844,-0.08022,0.53256
11.5453,0,0,5,5,26.5453,26.5453,-15.3735,-1.73957,17.5682,-0.634734,0.106454,0.101046,1,1,-0.875,-2.0125,-4.55,-0.70821,0.383202,-0.876448,-0.04844,-0.08022,0.53256
11.5521,0,0,5,5,26.5521,26.5521,-15.3823,-1.74495,17.5621,-0.569159,0.0658829,-0.430996,1,1,-1.47,-2.1525,-4.6725,-0.642452,0.34282,-1.40434,-0.04844,-0.08022,0.53256
11.556,0,0,5,5,26.556,26.556,-15.3872,-1.74684,17.5563,-0.569126,0.0658007,-0.431019,1,1,0.7175,-0.2275,-3.955,-0.642452,0.34282,-1.40434,-0.04844,-0.08022,0.53256
11.5578,0,0,5,5,26.5578,26.5578,-15.3893,-1.74887,17.5505,-0.0893437,0.163467,-0.189928,1,1,2.2925,-0.315,-3.9375,-0.160674,0.44042,-1.1651,-0.04844,-0.08022,0.53256
11.5562,0,0,5,5,26.5562,26.5562,-15.3869,-1.75092,17.5481,-0.089308,0.163508,-0.189918,1,1,4.865,-0.84,-2.0825,-0.160674,0.44042,-1.1651,-0.04844,-0.08022,0.53256
11.5516,0,0,5,5,26.5516,26.5516,-15.3805,-1.74788,17.5456,0.124211,-0.175774,0.388955,1,1,7.1575,2.0475,-1.3475,0.053802,0.101382,-0.590724,-0.04564,-0.08386,0.5383
11.5464,0,0,5,5,26.5464,26.5464,-15.3732,-1.74402,17.5459,0.0207592,-0.025926,-0.169933,1,1,7.6125,2.065,0.385,-0.05002,0.250954,-1.14534,-0.04564,-0.08386,0.5383
11.5511,0,0,5,5,26.5511,26.5511,-15.3792,-1.73832,17.5498,0.0206597,-0.0260264,-0.169958,1,1,0.315,2.555,2.6775,-0.05002,0.250954,-1.14534,-0.04564,-0.08386,0.5383
11.6381,0,0,5,5,26.6381,26.6381,-15.4948,-1.59593,17.558,0.122046,0.094503,0.0449806,0,1,4.2525,1.89,3.045,0.05429,0.37332,-0.931592,-0.04564,-0.08386,0.5383
11.729,0,0,5,5,26.729,26.729,-15.6158,-1.46022,17.5681,0.119678,0.092453,0.0444755,0,1,0.035,-0.7,3.71,0.05429,0.37332,-0.931592,-0.04564,-0.08386,0.5383
11.86,0,0,5,5,26.86,26.86,-15.7901,-1.76959,17.58,-0.272061,0.125593,0.102275,0,1,-0.0525,-1.5925,3.535,-0.344528,0.40931,-0.873276,-0.04564,-0.08386,0.5383
11.9882,0,0,5,5,26.9882,26.9882,-15.9608,-2.07357,17.5939,-0.266759,0.122779,0.10129,0,1,0.315,-1.9775,4.1125,-0.344528,0.40931,-0.873276,-0.04564,-0.08386,0.5383
11.9905,0,0,5,5,26.9905,26.9905,-15.9634,-2.07545,17.6024,-0.185331,-0.176476,-0.25134,1,1,2.2575,-2.5025,4.1125,-0.262788,0.11041,-1.22317,-0.04564,-0.08386,0.5383
11.9907,0,0,5,5,26.9907,26.9907,-15.9635,-2.07745,17.6117,-0.185296,-0.176476,-0.251342,1,1,3.7275,-2.6775,4.4625,-0.262788,0.11041,-1.22317,-0.03976,-0.07728,0.54502
11.6375,0,0,5,5,26.6375,26.6375,-15.4922,-1.82407,17.6038,0.24739,-0.449129,-0.0883978,0,1,5.215,-0.8575,4.305,0.176168,-0.169824,-1.06384,-0.03976,-0.07728,0.54502
11.2871,0,0,5,5,26.2871,26.2871,-15.0246,-1.57187,17.595,0.24299,-0.441294,-0.0861253,0,1,7.63,1.4,2.905,0.176168,-0.169824,-1.06384,-0.03976,-0.07728,0.54502
11.2678,0,0,5,5,26.2678,26.2678,-14.9987,-1.83441,17.5966,-0.263763,-0.00421928,-0.0610583,0,1,6.72,1.8375,1.47,-0.33733,0.266326,-1.03895,-0.03976,-0.07728,0.54502
11.2497,0,0,5,5,26.2497,26.2497,-14.9741,-2.09273,17.597,-0.259257,-0.00376557,-0.0610967,0,1,6.2125,1.5925,0.6825,-0.33733,0.266326,-1.03895,-0.03976,-0.07728,0.54502
11.2472,0,0,5,5,26.2472,26.2472,-14.9706,-2.09192,17.5961,-0.360955,0.34521,0.0249836,1,1,5.53,0.525,-0.735,-0.439444,0.61488,-0.953552,-0.03976,-0.07728,0.54502
11.2506,0,0,5,5,26.2506,26.2506,-14.9748,-2.09105,17.5944,0.52539,0.400341,0.225494,1,1,1.19,0.6825,-1.225,0.450668,0.670024,-0.75457,-0.03976,-0.07728,0.54502
11.2539,0,0,5,5,26.2539,26.2539,-14.979,-2.09346,17.591,0.525432,0.400271,0.225474,1,1,1.155,-0.91,-2.6775,0.450668,0.670024,-0.75457,-0.04396,-0.07294,0.5334
11.2354,0,0,5,5,26.2354,26.2354,-14.954,-1.79437,17.5863,0.261207,-0.0443836,0.0640804,0,1,0.2975,-1.4,-2.94,0.190564,0.225456,-0.915,-0.04396,-0.07294,0.5334
11.2141,0,0,5,5,26.2141,26.2141,-14.9253,-1.50151,17.5796,0.256098,-0.043938,0.0643515,0,1,2.6075,-1.435,-4.2875,0.190564,0.225456,-0.915,-0.04396,-0.07294,0.5334
11.2158,0,0,5,5,26.2158,26.2158,-14.9271,-1.50545,17.5739,0.042595,0.325709,-0.00254266,1,1,2.4325,-1.435,-4.2,-0.023912,0.59475,-0.981368,-0.04396,-0.07294,0.5334
11.212,0,0,5,5,26.212,26.212,-14.9218,-1.50596,17.568,0.0426038,0.325799,-0.00251874,1,1,6.4925,0.5425,-3.7975,-0.023912,0.59475,-0.981368,-0.04396,-0.07294,0.5334
11.2078,0,0,5,5,26.2078,26.2078,-14.9159,-1.50594,17.5629,0.313517,0.292435,0.333772,1,1,6.7725,0.7175,-3.2725,0.248148,0.561322,-0.647698,-0.04396,-0.07294,0.5334
11.2065,0,0,5,5,26.2065,26.2065,-14.9138,-1.50668,17.5589,0.31353,0.29247,0.333781,1,1,4.6725,0.1225,-2.765,0.248148,0.561322,-0.647698,-0.04396,-0.07294,0.5334
11.1984,0,0,5,5,26.1984,26.1984,-14.9028,-1.03285,17.555,0.405973,-0.0431168,0.130897,0,1,4.4275,0.14,-2.555,0.349286,0.225944,-0.849242,-0.04396,-0.07294,0.5334
11.1933,0,0,5,5,26.1933,26.1933,-14.8957,-0.566966,17.5515,0.397843,-0.0430265,0.131038,0,1,2.3275,0.28,-2.31,0.349286,0.225944,-0.849242,-0.04396,-0.07294,0.5334
11.56,0,0,5,5,26.56,26.56,-15.3844,-0.49597,17.5538,0.0692,0.433825,0.169641,0,1,1.8375,-0.315,-1.8025,0.020496,0.710528,-0.808738,-0.04746,-0.07784,0.53494
11.6593,0,0,5,5,26.6593,26.6593,-15.5165,-0.219644,17.5534,0.265922,0.127988,0.00504214,0,1,2.205,-0.0175,-1.1025,0.222894,0.407236,-0.971486,-0.04746,-0.07784,0.53494
11.7538,0,0,5,5,26.7538,26.7538,-15.6421,0.0517655,17.5536,0.261185,0.125874,0.00445974,0,1,4.4275,-0.0875,-0.385,0.222894,0.407236,-0.971486,-0.04746,-0.07784,0.53494
11.7528,0,0,5,5,26.7528,26.7528,-15.6405,0.0521359,17.5545,-0.354389,0.222625,-0.286429,1,1,4.4625,0.0175,0.1225,-0.39528,0.50386,-1.26014,-0.04746,-0.07784,0.53494
11.7521,0,0,5,5,26.7521,26.7521,-15.6392,0.0531245,17.5566,-0.354407,0.222647,-0.286423,1,1,4.2875,0.1575,0.9625,-0.39528,0.50386,-1.26014,-0.04746,-0.07784,0.53494
11.7502,0,0,5,5,26.7502,26.7502,-15.6364,0.0549748,17.5597,0.0424548,-0.236258,0.106165,1,1,5.1625,0.49,1.645,0.003294,0.045384,-0.870592,-0.04746,-0.07784,0.53494
11.7511,0,0,5,5,26.7511,26.7511,-15.6373,0.057223,17.5638,0.0424155,-0.236273,0.106161,1,1,3.0625,0.56,2.2575,0.003294,0.045384,-0.870592,-0.04746,-0.07784,0.53494
11.7528,0,0,5,5,26.7528,26.7528,-15.6392,0.0590516,17.5681,-0.0736352,-0.0600763,0.146479,1,1,2.485,0.28,2.345,-0.113216,0.22143,-0.830576,-0.0441,-0.07392,0.54278
12.092,0,0,5,5,27.092,27.092,-16.0912,0.314701,17.5712,0.220393,0.33316,0.255577,0,1,3.0625,-0.5775,2.24,0.186538,0.621834,-0.720166,-0.0441,-0.07392,0.54278
12.4262,0,0,5,5,27.4262,27.4262,-16.5364,0.565089,17.5722,0.216023,0.325712,0.253362,0,1,2.52,-1.0675,1.9775,0.186538,0.621834,-0.720166,-0.0441,-0.07392,0.54278
12.8544,0,0,5,5,27.8544,27.8544,-17.107,0.68358,17.5693,0.116767,0.516108,0.235336,0,1,3.0275,-0.98,1.3125,0.088938,0.821548,-0.735172,-0.0441,-0.07392,0.54278
13.2753,0,0,5,5,28.2753,28.2753,-17.6679,0.800931,17.5647,0.114719,0.506775,0.232386,0,1,3.2725,-0.42,1.155,0.088938,0.821548,-0.735172,-0.0441,-0.07392,0.54278
13.4201,0,0,5,5,28.4201,28.4201,-17.8606,0.871361,17.5643,0.0672037,0.192154,0.0133546,0,1,4.4275,0.2275,1.19,0.042456,0.510448,-0.951478,-0.0441,-0.07392,0.54278
13.5629,0,0,5,5,28.5629,28.5629,-18.0506,0.93986,17.5629,0.0660083,0.189005,0.0123143,0,1,3.92,0.035,0.6475,0.042456,0.510448,-0.951478,-0.0441,-0.07392,0.54278
13.5624,0,0,5,5,28.5624,28.5624,-18.0495,0.941283,17.5641,0.366418,0.160324,-0.035876,1,1,4.165,0.525,0.49,0.344162,0.481778,-0.999302,-0.0441,-0.07392,0.54278
13.5612,0,0,5,5,28.5612,28.5612,-18.0476,0.941616,17.5642,0.366412,0.160355,-0.0358658,1,1,4.6375,0.105,-0.28,0.344162,0.481778,-0.999302,-0.04326,-0.06888,0.55202
13.5606,0,0,5,5,28.5606,28.5606,-18.0464,0.942062,17.5641,0.0765391,0.0569343,0.227988,1,1,4.2525,0.1925,-0.3325,0.05307,0.378444,-0.73749,-0.04326,-0.06888,0.55202
13.5619,0,0,5,5,28.5619,28.5619,-18.0478,0.940579,17.5627,0.076565,0.056911,0.227981,1,1,2.8,-0.63,-1.4525,0.05307,0.378444,-0.73749,-0.04326,-0.06888,0.55202
13.7258,0,0,5,5,28.7258,28.7258,-18.266,0.969074,17.5565,0.0249222,0.152707,0.125477,0,1,1.855,-0.665,-2.205,0.001708,0.477752,-0.838018,-0.04326,-0.06888,0.55202
13.8876,0,0,5,5,28.8876,28.8876,-18.4813,0.996885,17.5499,0.0244369,0.149143,0.124285,0,1,1.155,-0.665,-2.4325,0.001708,0.477752,-0.838018,-0.04326,-0.06888,0.55202
13.8914,0,0,5,5,28.8914,28.8914,-18.4861,0.995179,17.5462,0.364262,0.241148,-0.0654507,1,1,0.9275,-0.3325,-2.73,0.342942,0.56974,-1.02626,-0.04326,-0.06888,0.55202
13.8925,0,0,5,5,28.8925,28.8925,-18.4872,0.994701,17.5424,0.145353,-0.0820176,0.157572,1,1,2.9925,0.385,-2.6075,0.123098,0.246928,-0.804956,-0.04326,-0.06888,0.55202
13.8908,0,0,5,5,28.8908,28.8908,-18.4846,0.995471,17.5387,0.14534,-0.0819746,0.157586,1,1,5.0575,1.05,-2.2925,0.123098,0.246928,-0.804956,-0.04326,-0.06888,0.55202
13.889,0,0,5,5,28.889,28.889,-18.4817,0.996374,17.5356,-0.208685,0.109934,-0.185547,1,1,5.215,1.015,-1.9425,-0.23241,0.43859,-1.14546,-0.04998,-0.06384,0.5614
13.8873,0,0,5,5,28.8873,28.8873,-18.4792,0.997005,17.5332,-0.208696,0.109976,-0.185534,1,1,5.005,0.7175,-1.5575,-0.23241,0.43859,-1.14546,-0.04998,-0.06384,0.5614
13.8758,0,0,5,5,28.8758,28.8758,-18.4634,1.51506,17.5319,0.49004,-0.0433349,0.0825164,0,1,3.605,-0.0175,-1.4,0.478362,0.285114,-0.879376,-0.04998,-0.06384,0.5614
14.0616,0,0,5,5,29.0616,29.0616,-18.7108,1.22628,17.5247,-0.283888,0.237457,0.0487963,0,1,1.2425,-0.5425,-1.4175,-0.303902,0.56974,-0.911584,-0.04998,-0.06384,0.5614
14.244,0,0,5,5,29.244,29.244,-18.9536,0.942785,17.52,-0.278941,0.233416,0.0475172,0,1,1.2775,-0.7,-0.735,-0.303902,0.56974,-0.911584,-0.04998,-0.06384,0.5614
14.1926,0,0,5,5,29.1926,29.1926,-18.8847,1.06078,17.5213,0.0963348,-0.0894378,0.0800852,0,1,2.1175,-0.98,-0.6475,0.07503,0.246074,-0.87962,-0.04998,-0.06384,0.5614
14.1399,0,0,5,5,29.1399,29.1399,-18.8141,1.17764,17.5229,0.0942956,-0.0882582,0.0804458,0,1,3.85,-0.385,-0.385,0.07503,0.246074,-0.87962,-0.04998,-0.06384,0.5614
14.1381,0,0,5,5,29.1381,29.1381,-18.8113,1.1803,17.5307,0.0533085,0.109022,-0.0776513,1,1,5.0225,-0.0525,4.3925,0.033916,0.443104,-1.03651,-0.04998,-0.06384,0.5614
14.1353,0,0,5,5,29.1353,29.1353,-18.8072,1.18177,17.5322,0.0532829,0.109091,-0.0776284,1,1,5.88,0.455,0.7525,0.033916,0.443104,-1.03651,-0.05124,-0.04298,0.5754
14.1332,0,0,5,5,29.1332,29.1332,-18.804,1.18395,17.5344,0.181898,-0.00687715,-0.136504,1,1,5.3025,0.735,1.225,0.163114,0.327204,-1.09495,-0.05124,-0.04298,0.5754
14.1338,0,0,5,5,29.1338,29.1338,-18.8044,1.18537,17.5364,0.181873,-0.0068824,-0.136506,1,1,3.36,0.35,0.9625,0.163114,0.327204,-1.09495,-0.05124,-0.04298,0.5754
14.1351,0,0,5,5,29.1351,29.1351,-18.8058,1.17936,17.541,-0.0228466,0.233928,-0.0391368,1,1,2.73,-4.27,1.0325,-0.042578,0.567788,-0.998326,-0.05124,-0.04298,0.5754
14.1364,0,0,5,5,29.1364,29.1364,-18.8072,1.17335,17.5456,-0.0227417,0.233904,-0.0391426,1,1,2.73,-4.27,1.0325,-0.042578,0.567788,-0.998326,-0.05124,-0.04298,0.5754
14.1613,0,0,5,5,29.1613,29.1613,-18.84,0.979251,17.5477,-0.185912,0.0416024,-0.0305378,0,1,2.3625,-0.63,1.0325,-0.20984,0.376248,-0.989664,-0.05124,-0.04298,0.5754
14.1858,0,0,5,5,29.1858,29.1858,-18.8722,0.788774,17.5498,-0.182587,0.0410538,-0.030671,0,1,2.3625,-0.63,1.0325,-0.20984,0.376248,-0.989664,-0.05124,-0.04298,0.5754
14.2484,0,0,5,5,29.2484,29.2484,-18.9553,0.837663,17.5504,0.0442235,0.0661873,0.0349938,0,1,2.8175,-0.49,0.5425,0.018788,0.402722,-0.924028,-0.05124,-0.04298,0.5754
14.3098,0,0,5,5,29.3098,29.3098,-19.0368,0.885625,17.551,0.0433865,0.0648463,0.0345188,0,1,2.8175,-0.49,0.5425,0.018788,0.402722,-0.924028,-0.0497,-0.03626,0.58156
14.3104,0,0,5,5,29.3104,29.3104,-19.0372,0.886198,17.5521,-0.131684,-0.12641,0.182178,1,1,3.3425,0.035,0.35,-0.157014,0.21167,-0.777506,-0.0497,-0.03626,0.58156
14.3109,0,0,5,5,29.3109,29.3109,-19.0376,0.886771,17.5533,-0.131694,-0.126417,0.182175,1,1,3.3425,0.035,0.35,-0.157014,0.21167,-0.777506,-0.0497,-0.03626,0.58156
14.3105,0,0,5,5,29.3105,29.3105,-19.0366,0.888003,17.5533,0.0716512,0.319728,0.0448471,1,1,4.1125,0.6125,-0.14,0.047214,0.657336,-0.91378,-0.0497,-0.03626,0.58156
14.5047,0,0,5,5,29.5047,29.5047,-19.2952,0.839012,17.5495,-0.0435127,0.162437,0.185506,0,1,4.2,0.735,-0.07,-0.069296,0.50447,-0.772748,-0.0497,-0.03626,0.58156
14.6966,0,0,5,5,29.6966,29.6966,-19.5506,0.789749,17.5456,-0.042653,0.158228,0.184035,0,1,3.255,0.1575,-0.4725,-0.069296,0.50447,-0.772748,-0.0497,-0.03626,0.58156
14.7004,0,0,5,5,29.7004,29.7004,-19.5553,0.788802,17.5449,0.0219939,0.217261,-0.0730773,1,1,0.945,-0.455,-0.945,-0.004392,0.563518,-1.02785,-0.0497,-0.03626,0.58156
14.7045,0,0,5,5,29.7045,29.7045,-19.5604,0.787905,17.5435,0.0220096,0.217177,-0.0731067,1,1,0.735,-0.28,-1.3475,-0.004392,0.563518,-1.02785,-0.0497,-0.03626,0.58156
14.5115,0,0,5,5,29.5115,29.5115,-19.3026,0.837477,17.5458,0.0434978,-0.239605,-0.0156801,0,1,1.26,-0.1925,-1.33,0.018056,0.102968,-0.97234,-0.0497,-0.03626,0.58156
14.3213,0,0,5,5,29.3213,29.3213,-19.0487,0.88657,17.5479,0.0426411,-0.235415,-0.0142367,0,1,1.785,0.1225,-1.435,0.018056,0.102968,-0.97234,-0.04746,-0.0357,0.58618
14.3634,0,0,5,5,29.3634,29.3634,-19.1044,0.767594,17.5447,-0.116373,0.0776447,-0.0538694,0,1,3.92,0.14,-1.785,-0.143716,0.41663,-1.01138,-0.04746,-0.0357,0.58618
14.4036,0,0,5,5,29.4036,29.4036,-19.1576,0.65189,17.5412,-0.114353,0.0767585,-0.0541504,0,1,4.69,0.7875,-1.8025,-0.143716,0.41663,-1.01138,-0.04746,-0.0357,0.58618
14.3569,0,0,5,5,29.3569,29.3569,-19.0951,0.901324,17.5391,0.244414,-0.0445616,-0.0566762,0,1,4.0425,1.225,-1.8025,0.220942,0.294386,-1.01419,-0.04746,-0.0357,0.58618
14.3117,0,0,5,5,29.3117,29.3117,-19.0343,1.14475,17.5374,0.240166,-0.0435353,-0.0564018,0,1,3.6575,0.385,-1.9075,0.220942,0.294386,-1.01419,-0.04746,-0.0357,0.58618
14.5506,0,0,5,5,29.5506,29.5506,-19.3525,1.18658,17.528,0.0412934,0.294524,0.0872068,0,1,1.8725,0.385,-2.1175,0.02196,0.637328,-0.86986,-0.04746,-0.0357,0.58618
14.7863,0,0,5,5,29.7863,29.7863,-19.6663,1.22577,17.5195,0.0406094,0.289368,0.0853648,0,1,1.12,-0.8225,-1.9075,0.02196,0.637328,-0.86986,-0.04746,-0.0357,0.58618
15.0001,0,0,5,5,30.0001,30.0001,-19.9511,1.65673,17.5106,0.357093,0.150174,0.274196,0,1,0.9275,-0.6825,-1.7325,0.347334,0.502884,-0.680638,-0.04746,-0.0357,0.58618
15.2094,0,0,5,5,30.2094,30.2094,-20.2297,2.08054,17.5005,0.3497,0.145692,0.2723,0,1,1.7675,-0.77,-1.295,0.347334,0.502884,-0.680638,-0.04284,-0.03682,0.58072
15.2111,0,0,5,5,30.2111,30.2111,-20.2316,2.07943,17.5,0.181218,0.168132,-0.0618846,1,1,2.52,-0.56,-0.9275,0.17812,0.525332,-1.01223,-0.04284,-0.03682,0.58072
15.2122,0,0,5,5,30.2122,30.2122,-20.2327,2.07915,17.5003,0.181223,0.168115,-0.0618909,1,1,2.9575,-0.28,-0.28,0.17812,0.525332,-1.01223,-0.04284,-0.03682,0.58072
15.2133,0,0,5,5,30.2133,30.2133,-20.2337,2.07997,17.5008,0.355541,0.140619,-0.134315,1,1,2.9575,0.28,0.07,0.35319,0.497882,-1.08409,-0.04284,-0.03682,0.58072
15.2152,0,0,5,5,30.2152,30.2152,-20.2358,2.0813,17.502,0.355518,0.140585,-0.134328,1,1,2.38,0.4375,0.5075,0.35319,0.497882,-1.08409,-0.04284,-0.03682,0.58072
15.3979,0,0,5,5,30.3979,30.3979,-20.4789,2.08991,17.4949,0.00913337,0.241396,0.033123,0,1,1.5925,0.3325,0.77,0.00549,0.602558,-0.916464,-0.04284,-0.03682,0.58072
15.5776,0,0,5,5,30.5776,30.5776,-20.7181,2.0983,17.4886,0.00898698,0.237493,0.0316504,0,1,1.295,0.175,1.155,0.00549,0.602558,-0.916464,-0.04284,-0.03682,0.58072
15.817,0,0,5,5,30.817,30.817,-21.0369,1.93132,17.4803,-0.145425,0.195989,0.221564,0,1,0.875,0.0525,1.3475,-0.1525,0.566324,-0.726144,-0.04284,-0.03682,0.58072
16.0525,0,0,5,5,31.0525,31.0525,-21.3505,1.76643,17.4735,-0.142548,0.190855,0.219673,0,1,0.5425,-0.5075,1.3825,-0.1525,0.566324,-0.726144,-0.042,-0.03122,0.57274
16.1283,0,0,5,5,31.1283,31.1283,-21.4511,2.27015,17.4738,0.413331,-0.00460321,0.231039,0,1,0.8925,-0.875,1.5925,0.414556,0.372588,-0.713944,-0.042,-0.03122,0.57274
16.2025,0,0,5,5,31.2025,31.2025,-21.5496,2.76523,17.473,0.404699,-0.00606175,0.230057,0,1,1.1725,-0.98,1.4,0.414556,0.372588,-0.713944,-0.042,-0.03122,0.57274
16.2052,0,0,5,5,31.2052,31.2052,-21.5528,2.76556,17.476,0.340184,0.115892,-0.00159886,1,1,1.715,-0.5075,1.26,0.349774,0.494466,-0.943792,-0.042,-0.03122,0.57274
16.2072,0,0,5,5,31.2072,31.2072,-21.555,2.76694,17.4775,0.34016,0.115856,-0.00161424,1,1,2.275,0.3675,0.7175,0.349774,0.494466,-0.943792,-0.042,-0.03122,0.57274
16.2089,0,0,5,5,31.2089,31.2089,-21.5569,2.76867,17.4782,-0.293175,0.0405957,-0.305433,1,1,2.485,0.7175,0.385,-0.286212,0.419314,-1.24525,-0.042,-0.03122,0.57274
16.2104,0,0,5,5,31.2104,31.2104,-21.5585,2.76993,17.4777,-0.293197,0.0405705,-0.305445,1,1,2.695,0.735,-0.4025,-0.286212,0.419314,-1.24525,-0.042,-0.03122,0.57274
16.1177,0,0,5,5,31.1177,31.1177,-21.4345,2.86877,17.4825,0.0996657,-0.0952687,-0.0989158,0,1,2.3625,0.8575,-0.875,0.110044,0.281576,-1.04103,-0.042,-0.03122,0.57274
16.0279,0,0,5,5,31.0279,31.0279,-21.3143,2.9643,17.4874,0.0980004,-0.0932861,-0.0982309,0,1,1.5575,0.0875,-1.225,0.110044,0.281576,-1.04103,-0.04592,-0.03164,0.57442
15.9973,0,0,5,5,30.9973,30.9973,-21.273,3.34121,17.4884,0.362224,-0.0571904,0.0255021,0,1,1.12,-0.3325,-1.435,0.381982,0.316834,-0.918172,-0.04592,-0.03164,0.57442
15.9665,0,0,5,5,30.9665,30.9665,-21.2316,3.71091,17.4896,0.355784,-0.0563742,0.0253938,0,1,1.61,-0.63,-1.5925,0.381982,0.316834,-0.918172,-0.04592,-0.03164,0.57442
15.9117,0,0,5,5,30.9117,30.9117,-21.1581,3.25188,17.4925,-0.451632,-0.0745293,-0.0158607,0,1,1.9775,-0.7175,-1.7325,-0.436882,0.29768,-0.960018,-0.04592,-0.03164,0.57442
15.8568,0,0,5,5,30.8568,30.8568,-21.0845,2.80099,17.4944,-0.443773,-0.0734823,-0.0150109,0,1,2.7475,-0.455,-1.8375,-0.436882,0.29768,-0.960018,-0.04592,-0.03164,0.57442
15.8582,0,0,5,5,30.8582,30.8582,-21.0859,2.8006,17.4919,-0.112353,0.0680397,-0.152968,1,1,2.8525,0.2625,-1.855,-0.104066,0.439078,-1.0969,-0.04592,-0.03164,0.57442
15.8608,0,0,5,5,30.8608,30.8608,-21.089,2.80278,17.4892,-0.112391,0.0679896,-0.152989,1,1,1.89,1.6975,-1.4175,-0.104066,0.439078,-1.0969,-0.04592,-0.03164,0.57442
15.8643,0,0,5,5,30.8643,30.8643,-21.0932,2.80536,17.4869,0.0147591,-0.166562,0.219762,1,1,1.2425,1.8375,-1.1025,0.023668,0.204838,-0.726998,-0.04592,-0.03164,0.57442
15.8699,0,0,5,5,30.8699,30.8699,-21.1002,2.80671,17.4852,0.0147356,-0.166675,0.219717,1,1,-0.2975,1.0325,-1.0325,0.023668,0.204838,-0.726998,-0.04774,-0.0434,0.5754
15.8896,0,0,5,5,30.8896,30.8896,-21.1262,2.40803,17.4831,-0.372656,-0.00368349,0.0578036,0,1,-0.3325,0.595,-0.9275,-0.372344,0.368196,-0.887794,-0.04774,-0.0434,0.5754
15.9088,0,0,5,5,30.9088,30.9088,-21.1513,2.01619,17.4829,-0.365822,-0.0041873,0.0578918,0,1,-0.175,0.175,0,-0.372344,0.368196,-0.887794,-0.04774,-0.0434,0.5754
15.9134,0,0,5,5,30.9134,30.9134,-21.157,2.01597,17.4838,0.152561,0.0821856,-0.058945,1,1,0.35,-0.385,0.0875,0.14823,0.454572,-1.00369,-0.04774,-0.0434,0.5754
15.9178,0,0,5,5,30.9178,30.9178,-21.1625,2.01447,17.485,0.152587,0.0820962,-0.0589786,1,1,0.4725,-1.1375,-0.0525,0.14823,0.454572,-1.00369,-0.04774,-0.0434,0.5754
16.0446,0,0,5,5,31.0446,31.0446,-21.3311,2.0596,17.4805,0.0388186,0.108431,0.115623,0,1,0.735,-1.4175,-0.0875,0.03477,0.483608,-0.829356,-0.04774,-0.0434,0.5754
16.1687,0,0,5,5,31.1687,31.1687,-21.496,2.10664,17.4751,0.0379981,0.105763,0.114545,0,1,1.0675,0.28,0.0175,0.03477,0.483608,-0.829356,-0.04774,-0.0434,0.5754
16.1725,0,0,5,5,31.1725,31.1725,-21.5008,2.10781,17.4752,-0.0606687,-0.0611378,0.280863,1,1,0.9275,0.56,-0.105,-0.064294,0.316956,-0.66429,-0.04774,-0.0434,0.5754
16.1774,0,0,5,5,31.1774,31.1774,-21.5069,2.10925,17.4743,-0.0606938,-0.0612367,0.280823,1,1,0.1575,0.91,-0.56,-0.064294,0.316956,-0.66429,-0.04774,-0.0434,0.5754
16.1822,0,0,5,5,31.1822,31.1822,-21.5127,2.10966,17.4738,-0.278282,-0.0973595,0.362054,1,1,0.28,0.28,-0.6125,-0.282796,0.280966,-0.583648,-0.04844,-0.04144,0.5782
16.1874,0,0,5,5,31.1874,31.1874,-21.5193,2.10942,17.4733,-0.278278,-0.0974661,0.362012,1,1,-0.105,-0.0875,-0.7,-0.282796,0.280966,-0.583648,-0.04844,-0.04144,0.5782
16.1928,0,0,5,5,31.1928,31.1928,-21.5261,2.10872,17.4731,0.153859,-0.0851187,0.487623,1,1,-0.21,-0.4025,-0.6475,0.151158,0.29341,-0.458964,-0.04844,-0.04144,0.5782
16.1982,0,0,5,5,31.1982,31.1982,-21.5328,2.10803,17.4729,0.153871,-0.0852283,0.48758,1,1,-0.21,-0.4025,-0.6475,0.151158,0.29341,-0.458964,-0.04844,-0.04144,0.5782
16.2428,0,0,5,5,31.2428,31.2428,-21.5919,2.08151,17.4705,-0.0229139,0.0753812,-0.0548625,0,1,-1.505,-0.385,-0.8575,-0.02684,0.454816,-0.996862,-0.04844,-0.04144,0.5782
16.2866,0,0,5,5,31.2866,31.2866,-21.6498,2.05548,17.4682,-0.0224599,0.0744353,-0.0552198,0,1,-1.505,-0.385,-0.8575,-0.02684,0.454816,-0.996862,-0.04844,-0.04144,0.5782
16.2948,0,0,5,5,31.2948,31.2948,-21.6603,2.05551,17.4677,0.0535897,0.0469087,-0.235284,1,1,-2.31,0.07,-0.6825,0.049532,0.427488,-1.17547,-0.04844,-0.04144,0.5782
16.303,0,0,5,5,31.303,31.303,-21.6708,2.05553,17.4671,0.0535892,0.0467385,-0.235352,1,1,-2.31,0.07,-0.6825,0.049532,0.427488,-1.17547,-0.04844,-0.04144,0.5782
16.3089,0,0,5,5,31.3089,31.3089,-21.6783,1.79166,17.4664,-0.25682,0.00235101,-0.0150551,0,1,-2.4325,1.2425,-0.42,-0.266814,0.383324,-0.956968,-0.04144,-0.05054,0.56476
16.3182,0,0,5,5,31.3182,31.3182,-21.6902,1.79313,17.4658,0.10506,-0.101894,-0.139188,1,1,-3.115,0.875,-0.42,0.096624,0.27938,-1.08007,-0.04144,-0.05054,0.56476
16.3274,0,0,5,5,31.3274,31.3274,-21.7021,1.79454,17.4657,0.105035,-0.102087,-0.139265,1,1,-3.0975,0.7175,-0.1225,0.096624,0.27938,-1.08007,-0.04144,-0.05054,0.56476
16.3369,0,0,5,5,31.3369,31.3369,-21.7143,1.79579,17.4657,0.394271,0.124871,0.412079,1,1,-3.29,0.6125,-0.105,0.387106,0.5063,-0.532896,-0.04144,-0.05054,0.56476
16.3471,0,0,5,5,31.3471,31.3471,-21.7275,1.79594,17.4653,0.394268,0.124658,0.411994,1,1,-3.815,0.105,-0.5775,0.387106,0.5063,-0.532896,-0.04144,-0.05054,0.56476
16.3573,0,0,5,5,31.3573,31.3573,-21.7407,1.79597,17.4648,-1.04947,-0.120665,0.0907672,1,1,-3.8325,0.07,-0.6825,-1.06274,0.261446,-0.85156,-0.04144,-0.05054,0.56476
16.3664,0,0,5,5,31.3664,31.3664,-21.7523,1.79627,17.4636,-1.04947,-0.120853,0.090692,1,1,-2.9225,0.35,-0.945,-1.06274,0.261446,-0.85156,-0.04144,-0.05054,0.56476
16.3746,0,0,5,5,31.3746,31.3746,-21.7628,1.79681,17.4617,0.246648,-0.463344,-0.178264,1,1,-2.275,0.6475,-1.3125,0.238876,-0.08052,-1.11837,-0.04144,-0.05054,0.56476
16.3822,0,0,5,5,31.3822,31.3822,-21.7726,1.7972,17.4594,0.246641,-0.463503,-0.178328,1,1,-1.89,0.6475,-1.5575,0.238876,-0.08052,-1.11837,-0.0483,-0.05194,0.56728
16.3905,0,0,5,5,31.3905,31.3905,-21.7832,1.79783,17.4573,0.322802,0.29058,0.0587707,1,1,-2.345,0.735,-1.3825,0.31537,0.672952,-0.883036,-0.0483,-0.05194,0.56728
16.3996,0,0,5,5,31.3996,31.3996,-21.7949,1.79803,17.4553,0.322798,0.290391,0.0586948,1,1,-2.9575,0.49,-1.47,0.31537,0.672952,-0.883036,-0.0483,-0.05194,0.56728
16.4098,0,0,5,5,31.4098,31.4098,-21.8081,1.79895,17.4531,0.435885,0.195163,0.100657,1,1,-3.78,0.91,-1.365,0.428952,0.578036,-0.841312,-0.0483,-0.05194,0.56728
16.4226,0,0,5,5,31.4226,31.4226,-21.8247,1.80038,17.4515,0.435861,0.194894,0.100549,1,1,-5.7225,1.0675,-0.9625,0.428952,0.578036,-0.841312,-0.0483,-0.05194,0.56728
16.4367,0,0,5,5,31.4367,31.4367,-21.843,1.80092,17.4508,-0.162102,0.150266,0.253378,1,1,-6.685,0.385,-0.6475,-0.171532,0.53375,-0.689544,-0.0483,-0.05194,0.56728
16.4505,0,0,5,5,31.4505,31.4505,-21.861,1.80093,17.4507,-0.162102,0.149974,0.253261,1,1,-6.5275,-0.035,-0.455,-0.171532,0.53375,-0.689544,-0.0483,-0.05194,0.56728
16.6884,0,0,5,5,31.6884,31.6884,-22.1777,1.80734,17.4416,0.00555817,0.262828,0.118525,0,1,-6.1425,0,-0.1225,-0.00305,0.651602,-0.821182,-0.0483,-0.05194,0.56728
16.9197,0,0,5,5,31.9197,31.9197,-22.4857,1.81428,17.4332,0.00543707,0.25786,0.11648,0,1,-4.4625,0.28,0.2625,-0.00305,0.651602,-0.821182,-0.04382,-0.04872,0.56266
16.9876,0,0,5,5,31.9876,31.9876,-22.5758,1.77443,17.4319,-0.0372381,0.0419451,0.0737263,0,1,-4.48,-0.175,0.2275,-0.046604,0.43737,-0.863028,-0.04382,-0.04872,0.56266
17.0548,0,0,5,5,32.0548,32.0548,-22.6649,1.73501,17.4304,-0.0365503,0.0405019,0.0731477,0,1,-4.865,-0.28,0.0175,-0.046604,0.43737,-0.863028,-0.04382,-0.04872,0.56266
17.2555,0,0,5,5,32.2555,32.2555,-22.9321,1.624,17.4232,-0.103253,0.189819,0.140614,0,1,-4.9,0.105,-0.2275,-0.115534,0.590846,-0.794342,-0.04382,-0.04872,0.56266
17.4547,0,0,5,5,32.4547,32.4547,-23.1972,1.51522,17.4164,-0.101355,0.185542,0.13885,0,1,-6.4575,0.2975,-0.2625,-0.115534,0.590846,-0.794342,-0.04382,-0.04872,0.56266
17.5167,0,0,5,5,32.5167,32.5167,-23.2794,1.6343,17.4143,0.121437,0.0832491,-0.0315601,0,1,-6.5975,0.07,-0.525,0.110288,0.489952,-0.962824,-0.04382,-0.04872,0.56266
17.576,0,0,5,5,32.576,32.576,-23.3581,1.75086,17.4112,0.119404,0.0820125,-0.0321586,0,1,-5.4775,0.105,-1.1025,0.110288,0.489952,-0.962824,-0.04382,-0.04872,0.56266
17.5886,0,0,5,5,32.5886,32.5886,-23.3744,1.75087,17.4094,-0.170704,0.0789424,-0.0813279,1,1,-5.5475,0.35,-1.33,-0.181048,0.487146,-1.0115,-0.04382,-0.04872,0.56266
17.6003,0,0,5,5,32.6003,32.6003,-23.3894,1.75101,17.4078,-0.170707,0.0787013,-0.0814323,1,1,-4.8475,0.4025,-1.26,-0.181048,0.487146,-1.0115,-0.05236,-0.049,0.55636
17.4991,0,0,5,5,32.4991,32.4991,-23.2541,1.6157,17.4103,-0.126191,-0.13972,-0.0274433,0,1,-4.97,0.595,-1.3125,-0.138714,0.266814,-0.95892,-0.05236,-0.049,0.55636
17.403,0,0,5,5,32.403,32.403,-23.1255,1.48253,17.4126,-0.123867,-0.137682,-0.0265019,0,1,-7.3325,0.385,-1.295,-0.138714,0.266814,-0.95892,-0.05236,-0.049,0.55636
17.4193,0,0,5,5,32.4193,32.4193,-23.1467,1.48252,17.4109,0.138178,-0.00978925,-0.170743,1,1,-8.3125,0.3325,-1.33,0.12444,0.394914,-1.1019,-0.05236,-0.049,0.55636
17.4361,0,0,5,5,32.4361,32.4361,-23.1686,1.48385,17.4093,0.138154,-0.0101401,-0.170894,1,1,-8.68,1.015,-0.9275,0.12444,0.394914,-1.1019,-0.05236,-0.049,0.55636
17.4532,0,0,5,5,32.4532,32.4532,-23.191,1.48603,17.4077,0.29702,0.0803641,-0.0985086,1,1,-8.9425,1.4875,-0.77,0.284016,0.485682,-1.02992,-0.05236,-0.049,0.55636
17.47,0,0,5,5,32.47,32.47,-23.213,1.48776,17.4066,0.296989,0.0800111,-0.0986608,1,1,-8.7675,1.12,-0.5775,0.284016,0.485682,-1.02992,-0.05236,-0.049,0.55636
17.4861,0,0,5,5,32.4861,32.4861,-23.2339,1.48961,17.4058,0.0443884,-0.0937441,0.0891827,1,1,-8.155,1.12,-0.4025,0.030378,0.312442,-0.843386,-0.05236,-0.049,0.55636
17.503,0,0,5,5,32.503,32.503,-23.2561,1.49101,17.4056,0.044364,-0.0940986,0.0890297,1,1,-8.8375,0.735,-0.175,0.030378,0.312442,-0.843386,-0.05012,-0.0518,0.55566
17.5205,0,0,5,5,32.5205,32.5205,-23.2789,1.49167,17.4055,-0.141521,-0.113394,0.137068,1,1,-9.2225,0.315,-0.2975,-0.156282,0.293532,-0.795562,-0.05012,-0.0518,0.55566
17.5378,0,0,5,5,32.5378,32.5378,-23.3015,1.49128,17.4054,-0.141514,-0.113757,0.136912,1,1,-9.135,-0.2625,-0.5075,-0.156282,0.293532,-0.795562,-0.05012,-0.0518,0.55566
17.5549,0,0,5,5,32.5549,32.5549,-23.3239,1.49068,17.4051,0.122971,0.00923328,-0.1759,1,1,-8.9425,-0.315,-0.6825,0.109312,0.416752,-1.10581,-0.05012,-0.0518,0.55566
17.5705,0,0,5,5,32.5705,32.5705,-23.3441,1.49031,17.4034,0.122978,0.00890854,-0.17604,1,1,-7.77,0.14,-1.4175,0.109312,0.416752,-1.10581,-0.05012,-0.0518,0.55566
17.3181,0,0,5,5,32.3181,32.3181,-23.0071,1.56556,17.4107,0.0697902,-0.332879,-0.0817927,0,1,-7.0875,0.5425,-1.5225,0.057218,0.069906,-1.01455,-0.05012,-0.0518,0.55566
17.0693,0,0,5,5,32.0693,32.0693,-22.6749,1.64064,17.4177,0.0684804,-0.327523,-0.0795766,0,1,-6.4925,1.295,-1.54,0.057218,0.069906,-1.01455,-0.05012,-0.0518,0.55566
17.084,0,0,5,5,32.084,32.084,-22.6941,1.64174,17.4153,-0.0487726,-0.0694122,-0.194417,1,1,-7.175,1.085,-1.4525,-0.060512,0.328058,-1.12838,-0.05012,-0.0518,0.55566
17.1019,0,0,5,5,32.1019,32.1019,-22.7175,1.64166,17.4133,-0.0487711,-0.0697888,-0.194575,1,1,-9.52,0.35,-1.505,-0.060512,0.328058,-1.12838,-0.05012,-0.0518,0.55566
17.0779,0,0,5,5,32.0779,32.0779,-22.6851,1.58657,17.4136,-0.0542488,-0.0227472,-0.0992925,0,1,-10.5175,0.35,-1.0325,-0.066978,0.37454,-1.03407,-0.04942,-0.04732,0.56252
17.0984,0,0,5,5,32.0984,32.0984,-22.712,1.58651,17.413,-0.246681,-0.269021,-0.367378,1,1,-11.48,0.035,-0.7175,-0.260226,0.128954,-1.29991,-0.04942,-0.04732,0.56252
17.1183,0,0,5,5,32.1183,32.1183,-22.7381,1.58647,17.4129,-0.24668,-0.26944,-0.367554,1,1,-11.06,-0.0525,-0.4725,-0.260226,0.128954,-1.29991,-0.04942,-0.04732,0.56252
17.2271,0,0,5,5,32.2271,32.2271,-22.8826,1.69296,17.409,0.108387,0.12932,0.00198625,0,1,-10.185,0,-0.63,0.09821,0.529602,-0.932202,-0.04942,-0.04732,0.56252
17.3333,0,0,5,5,32.3333,32.3333,-23.0238,1.7981,17.4057,0.106552,0.127074,0.000974396,0,1,-9.765,0.1575,-0.105,0.09821,0.529602,-0.932202,-0.04942,-0.04732,0.56252
17.3512,0,0,5,5,32.3512,32.3512,-23.0471,1.79839,17.4061,0.158786,-0.0729782,0.162615,1,1,-9.5375,0.0175,-0.1575,0.15067,0.330132,-0.77165,-0.04942,-0.04732,0.56252
17.3691,0,0,5,5,32.3691,32.3691,-23.0705,1.79898,17.406,0.158776,-0.0733538,0.162455,1,1,-9.555,0.28,-0.315,0.15067,0.330132,-0.77165,-0.04942,-0.04732,0.56252
17.388,0,0,5,5,32.388,32.388,-23.0954,1.79885,17.4058,0.067907,0.221672,0.496459,1,1,-10.36,-0.0875,-0.525,0.059414,0.62525,-0.440054,-0.04942,-0.04732,0.56252
17.4067,0,0,5,5,32.4067,32.4067,-23.1199,1.79698,17.4057,0.0679396,0.221279,0.496292,1,1,-10.15,-1.05,-0.875,0.059414,0.62525,-0.440054,-0.04578,-0.04788,0.56098
17.4256,0,0,5,5,32.4256,32.4256,-23.1445,1.79636,17.405,0.491936,0.311868,0.202769,1,1,-10.2375,-0.245,-0.8925,0.485194,0.71614,-0.731146,-0.04578,-0.04788,0.56098
17.4371,0,0,5,5,32.4371,32.4371,-23.1594,1.79733,17.4037,0.491918,0.311629,0.202666,1,1,-4.76,0.7525,-0.84,0.485194,0.71614,-0.731146,-0.04578,-0.04788,0.56098
17.4533,0,0,5,5,32.4533,32.4533,-23.1806,1.79902,17.4023,0.452771,0.194903,0.0302688,1,1,-8.295,1.1725,-0.77,0.44591,0.599874,-0.902068,-0.04578,-0.04788,0.56098
17.4708,0,0,5,5,32.4708,32.4708,-23.2034,1.80017,17.4001,0.452751,0.194537,0.0301114,1,1,-9.1875,1.0675,-1.3125,0.44591,0.599874,-0.902068,-0.04578,-0.04788,0.56098
17.6229,0,0,5,5,32.6229,32.6229,-23.4057,2.26597,17.3917,0.435393,0.101403,0.189267,0,1,-10.2025,1.5225,-1.015,0.436638,0.50996,-0.742492,-0.04578,-0.04788,0.56098
17.7732,0,0,5,5,32.7732,32.7732,-23.6057,2.7233,17.3838,0.427419,0.0983439,0.187558,0,1,-10.7275,0.595,-0.2275,0.436638,0.50996,-0.742492,-0.04578,-0.04788,0.56098
17.7597,0,0,5,5,32.7597,32.7597,-23.5872,2.72568,17.3869,0.00351377,-0.0278834,-0.0521876,0,1,-12.3375,0.035,0.21,0.01098,0.383568,-0.980514,-0.04578,-0.04788,0.56098
17.7463,0,0,5,5,32.7463,32.7463,-23.5689,2.72695,17.3902,0.00349152,-0.0275896,-0.0520605,0,1,-12.215,-0.5775,0.07,0.01098,0.383568,-0.980514,-0.0399,-0.05768,0.553
17.7187,0,0,5,5,32.7187,32.7187,-23.5315,2.47021,17.394,-0.227228,-0.0948544,0.0784653,0,1,-11.48,0.2975,0.35,-0.225212,0.315858,-0.851438,-0.0399,-0.05768,0.553
17.6911,0,0,5,5,32.6911,32.6911,-23.4943,2.21937,17.397,-0.222854,-0.0943308,0.0788884,0,1,-11.1475,1.155,0.35,-0.225212,0.315858,-0.851438,-0.0399,-0.05768,0.553
17.6796,0,0,5,5,32.6796,32.6796,-23.4786,2.03851,17.3989,-0.16661,-0.0573654,0.0377948,0,1,-10.71,0.63,0.1225,-0.171898,0.35258,-0.89243,-0.0399,-0.05768,0.553
17.669,0,0,5,5,32.669,32.669,-23.4639,1.8594,17.4007,-0.163486,-0.0571725,0.0379945,0,1,-11.13,-0.175,-0.245,-0.171898,0.35258,-0.89243,-0.0399,-0.05768,0.553
17.7741,0,0,5,5,32.7741,32.7741,-23.6036,2.02407,17.3973,0.146589,0.0643466,0.107259,0,1,-11.06,-0.5775,-0.2975,0.142374,0.476166,-0.822646,-0.0399,-0.05768,0.553
17.8764,0,0,5,5,32.8764,32.8764,-23.7396,2.18607,17.3931,0.143763,0.0622159,0.106211,0,1,-10.36,-0.28,-0.56,0.142374,0.476166,-0.822646,-0.0399,-0.05768,0.553
17.8927,0,0,5,5,32.8927,32.8927,-23.7608,2.18596,17.3925,0.452339,0.0761667,-0.0952041,1,1,-8.295,0,-0.7,0.452254,0.49044,-1.02236,-0.0399,-0.05768,0.553
17.9079,0,0,5,5,32.9079,32.9079,-23.7806,2.18621,17.3915,0.452334,0.0758503,-0.0953436,1,1,-7.525,0.315,-0.875,0.452254,0.49044,-1.02236,-0.05432,-0.04704,0.55258
18.0059,0,0,5,5,33.0059,33.0059,-23.9108,2.48428,17.3858,0.253002,0.0312372,0.164933,0,1,-7.665,0.525,-0.8925,0.257298,0.447862,-0.762988,-0.05432,-0.04704,0.55258
18.1099,0,0,5,5,33.1099,33.1099,-24.0489,2.77725,17.3794,0.247894,0.0291324,0.16374,0,1,-13.335,0.63,-0.9625,0.257298,0.447862,-0.762988,-0.05432,-0.04704,0.55258
18.1321,0,0,5,5,33.1321,33.1321,-24.0781,2.77873,17.3785,-0.171743,-0.085276,0.2373,1,1,-12.775,0.945,-0.525,-0.16409,0.334036,-0.689788,-0.05432,-0.04704,0.55258
18.1541,0,0,5,5,33.1541,33.1541,-24.1069,2.7774,17.379,-0.17172,-0.0857355,0.237096,1,1,-12.6175,-0.91,-0.4025,-0.16409,0.334036,-0.689788,-0.05432,-0.04704,0.55258
18.0381,0,0,5,5,33.0381,33.0381,-23.9517,2.76937,17.3889,-0.00830314,-0.17413,-0.0298237,0,1,-13.23,-0.98,-0.2275,-0.000122,0.243268,-0.955748,-0.05432,-0.04704,0.55258
17.9233,0,0,5,5,32.9233,32.9233,-23.7982,2.76218,17.3982,-0.00817784,-0.171684,-0.0287347,0,1,-12.565,-0.49,-0.28,-0.000122,0.243268,-0.955748,-0.05432,-0.04704,0.55258
17.9424,0,0,5,5,32.9424,32.9424,-23.8232,2.76274,17.3985,-0.18422,-0.252931,0.0974797,1,1,-10.4825,0.1575,-0.0875,-0.1769,0.162504,-0.830332,-0.05432,-0.04704,0.55258
17.9604,0,0,5,5,32.9604,32.9604,-23.8468,2.76417,17.3978,-0.184245,-0.253306,0.0973128,1,1,-9.6075,0.8575,-0.4025,-0.1769,0.162504,-0.830332,-0.04424,-0.05572,0.54558
17.9797,0,0,5,5,32.9797,32.9797,-23.872,2.76581,17.3966,-0.0531909,-0.555361,0.121354,1,1,-10.5525,1.12,-0.6825,-0.045262,-0.138836,-0.806298,-0.04424,-0.05572,0.54558
17.9984,0,0,5,5,32.9984,32.9984,-23.8964,2.76599,17.3944,-0.0531939,-0.55575,0.121182,1,1,-10.045,0.5425,-1.505,-0.045262,-0.138836,-0.806298,-0.04424,-0.05572,0.54558
17.9428,0,0,5,5,32.9428,32.9428,-23.8219,2.81541,17.3972,0.0392455,-0.114034,0.0373265,0,1,-11.0775,0.735,-1.4,0.048434,0.301218,-0.88999,-0.04424,-0.05572,0.54558
17.8852,0,0,5,5,32.8852,32.8852,-23.7446,2.86403,17.3995,0.0383981,-0.112784,0.0378313,0,1,-8.75,0.8925,-1.6275,0.048434,0.301218,-0.88999,-0.04424,-0.05572,0.54558
18.0619,0,0,5,5,33.0619,33.0619,-23.9796,2.76175,17.3861,-0.104387,0.224289,0.0335491,0,1,-9.0475,1.435,-1.61,-0.096746,0.64172,-0.892674,-0.04424,-0.05572,0.54558
18.2363,0,0,5,5,33.2363,33.2363,-24.2117,2.66114,17.3729,-0.102633,0.220562,0.0319731,0,1,-9.73,1.505,-1.89,-0.096746,0.64172,-0.892674,-0.04424,-0.05572,0.54558
18.2563,0,0,5,5,33.2563,33.2563,-24.2379,2.66221,17.37,0.0400941,0.246404,-0.010632,1,1,-11.025,1.19,-1.645,0.046604,0.66795,-0.934764,-0.04424,-0.05572,0.54558
18.2791,0,0,5,5,33.2791,33.2791,-24.2678,2.66456,17.3679,0.0400531,0.245929,-0.0108479,1,1,-13.1425,1.6975,-0.945,0.046604,0.66795,-0.934764,-0.04424,-0.05572,0.54558
18.3033,0,0,5,5,33.3033,33.3033,-24.2995,2.66711,17.3662,0.205108,-0.00762168,0.210107,1,1,-14.21,1.715,-0.7,0.212402,0.415166,-0.715286,-0.03906,-0.05152,0.5523
18.3274,0,0,5,5,33.3274,33.3274,-24.3313,2.66785,17.3651,-0.5124,-0.112422,-0.174828,1,1,-14.1925,0.595,-0.7875,-0.50813,0.310978,-1.09702,-0.03906,-0.05152,0.5523
18.3502,0,0,5,5,33.3502,33.3502,-24.3611,2.66924,17.365,-0.512424,-0.112896,-0.175043,1,1,-13.1775,0.7,-0.105,-0.50813,0.310978,-1.09702,-0.03906,-0.05152,0.5523
18.3702,0,0,5,5,33.3702,33.3702,-24.3873,2.67026,17.3648,-0.0928302,-0.314698,0.253489,1,1,-11.1125,0.5425,-0.28,-0.086742,0.1098,-0.67161,-0.03906,-0.05152,0.5523
18.3905,0,0,5,5,33.3905,33.3905,-24.414,2.67063,17.365,-0.0928365,-0.315121,0.253297,1,1,-11.375,0.0875,-0.21,-0.086742,0.1098,-0.67161,-0.03906,-0.05152,0.5523
18.4108,0,0,5,5,33.4108,33.4108,-24.4405,2.6707,17.3636,0.428336,-0.132963,-0.047012,1,1,-11.2875,0.2975,-1.085,0.436638,0.29219,-0.969412,-0.03906,-0.05152,0.5523
18.432,0,0,5,5,33.432,33.432,-24.4682,2.67203,17.362,0.428313,-0.133402,-0.0472129,1,1,-11.9175,1.0325,-0.91,0.436638,0.29219,-0.969412,-0.03906,-0.05152,0.5523
18.556,0,0,5,5,33.556,33.556,-24.6331,2.72962,17.3545,0.054226,0.113873,0.0668751,0,1,-11.4275,0.315,-0.8925,0.061976,0.541802,-0.854976,-0.04522,-0.04312,0.55286
18.7774,0,0,5,5,33.7774,33.7774,-24.9278,2.81053,17.34,0.0748044,0.211947,0.147896,0,1,-11.2875,0.35,-1.1375,0.084058,0.644404,-0.772382,-0.04522,-0.04312,0.55286
18.7969,0,0,5,5,33.7969,33.7969,-24.9533,2.81049,17.3383,-0.134272,-0.016467,-0.387363,1,1,-10.6925,0.35,-1.33,-0.125904,0.41663,-1.30333,-0.04522,-0.04312,0.55286
18.8176,0,0,5,5,33.8176,33.8176,-24.9805,2.81166,17.3364,-0.134292,-0.0168956,-0.387564,1,1,-11.6025,1.015,-1.085,-0.125904,0.41663,-1.30333,-0.04522,-0.04312,0.55286
18.8392,0,0,5,5,33.8392,33.8392,-25.0087,2.81331,17.3347,-0.288851,-0.0762067,-0.289046,1,1,-12.2325,1.2425,-0.91,-0.281088,0.357826,-1.20536,-0.04522,-0.04312,0.55286
18.8648,0,0,5,5,33.8648,33.8648,-25.0423,2.81387,17.3342,-0.288861,-0.0767372,-0.289294,1,1,-15.26,0.35,-0.49,-0.281088,0.357826,-1.20536,-0.04522,-0.04312,0.55286
18.8905,0,0,5,5,33.8905,33.8905,-25.0761,2.81296,17.3344,-0.328449,0.0142018,-0.11889,1,1,-15.3825,-0.595,-0.525,-0.32086,0.449204,-1.03602,-0.04522,-0.04312,0.55286
18.9162,0,0,5,5,33.9162,33.9162,-25.1099,2.81204,17.3346,-0.328433,0.013668,-0.119139,1,1,-15.3825,-0.595,-0.525,-0.32086,0.449204,-1.03602,-0.04522,-0.04312,0.55286
18.9412,0,0,5,5,33.9412,33.9412,-25.1427,2.81273,17.334,0.4962,-0.187748,0.247127,1,1,-14.805,0.455,-0.5425,0.507276,0.248514,-0.672342,-0.04746,-0.04634,0.54824
18.8579,0,0,5,5,33.8579,33.8579,-25.0312,2.33694,17.3402,-0.481118,-0.154636,-0.00523053,0,1,-13.1075,-0.035,-0.525,-0.48251,0.27999,-0.923906,-0.04746,-0.04634,0.54824
18.7761,0,0,5,5,33.7761,33.7761,-24.9215,1.86866,17.3452,-0.47295,-0.153029,-0.00415101,0,1,-13.1075,-0.035,-0.525,-0.48251,0.27999,-0.923906,-0.04746,-0.04634,0.54824
18.7942,0,0,5,5,33.7942,33.7942,-24.9453,1.86962,17.3431,0.334913,-0.0553369,-0.0702266,1,1,-9.7125,0.9625,-1.26,0.32879,0.377956,-0.989298,-0.04746,-0.04634,0.54824
18.8147,0,0,5,5,33.8147,33.8147,-24.9721,1.87102,17.3411,-0.485262,-0.0552715,-0.18784,1,1,-11.41,1.1725,-1.1025,-0.494832,0.378444,-1.10581,-0.04746,-0.04634,0.54824
18.8376,0,0,5,5,33.8376,33.8376,-25.002,1.87174,17.3382,-0.485274,-0.0557456,-0.188062,1,1,-13.195,1.05,-1.785,-0.494832,0.378444,-1.10581,-0.04746,-0.04634,0.54824
18.861,0,0,5,5,33.861,33.861,-25.0328,1.87194,17.3349,-0.59012,-0.0564764,-0.311483,1,1,-13.6325,0.8575,-2.0825,-0.600118,0.3782,-1.22805,-0.04746,-0.04634,0.54824
18.8861,0,0,5,5,33.8861,33.8861,-25.0658,1.87216,17.3326,-0.590124,-0.0569969,-0.311727,1,1,-14.8575,0.6125,-1.5225,-0.600118,0.3782,-1.22805,-0.04746,-0.04634,0.54824
18.9109,0,0,5,5,33.9109,33.9109,-25.0983,1.87184,17.3308,0.127377,-0.227633,-0.246189,1,1,-14.63,0.2275,-1.4525,0.120414,0.208254,-1.16278,-0.04578,-0.05138,0.54782
18.9373,0,0,5,5,33.9373,33.9373,-25.133,1.87212,17.329,-0.218012,-0.0879793,0.216455,1,1,-15.8375,0.525,-1.26,-0.226432,0.34831,-0.703452,-0.04578,-0.05138,0.54782
18.9659,0,0,5,5,33.9659,33.9659,-25.1706,1.87168,17.3279,-0.218005,-0.0885738,0.216176,1,1,-17.5175,-0.0175,-1.085,-0.226432,0.34831,-0.703452,-0.04578,-0.05138,0.54782
18.9939,0,0,5,5,33.9939,33.9939,-25.2075,1.87109,17.3268,0.0984761,-0.226182,0.108937,1,1,-17.0975,-0.105,-1.12,0.091378,0.211426,-0.809592,-0.04578,-0.05138,0.54782
19.0216,0,0,5,5,34.0216,34.0216,-25.2439,1.87266,17.3262,0.0984487,-0.226756,0.108666,1,1,-16.8175,0.9275,-0.3325,0.091378,0.211426,-0.809592,-0.04578,-0.05138,0.54782
19.048,0,0,5,5,34.048,34.048,-25.2787,1.87404,17.3257,-0.00751099,-0.202269,0.0930377,1,1,-15.925,0.7875,-0.2975,-0.015006,0.236436,-0.824842,-0.04578,-0.05138,0.54782
19.0714,0,0,5,5,34.0714,34.0714,-25.3093,1.87537,17.3239,-0.00753417,-0.202752,0.0928084,1,1,-13.5975,1.085,-0.9975,-0.015006,0.236436,-0.824842,-0.04578,-0.05138,0.54782
19.0504,0,0,5,5,34.0504,34.0504,-25.2808,1.25881,17.3235,-0.604327,-0.128785,0.141606,0,1,-12.5125,1.435,-1.085,-0.625128,0.310002,-0.776896,-0.04578,-0.05138,0.54782
19.0286,0,0,5,5,34.0286,34.0286,-25.2512,0.651239,17.3227,-0.593725,-0.128394,0.141986,0,1,-11.725,1.4,-0.91,-0.625128,0.310002,-0.776896,-0.04508,-0.0427,0.5467
19.0511,0,0,5,5,34.0511,34.0511,-25.2807,0.652992,17.3205,0.301959,-0.0099075,-0.366995,1,1,-12.9325,1.4175,-1.12,0.274378,0.42883,-1.28173,-0.04508,-0.0427,0.5467
19.0764,0,0,5,5,34.0764,34.0764,-25.3139,0.65448,17.3182,0.301933,-0.0104317,-0.367243,1,1,-15.05,1.3125,-1.26,0.274378,0.42883,-1.28173,-0.04508,-0.0427,0.5467
19.1036,0,0,5,5,34.1036,34.1036,-25.3497,0.655709,17.3166,0.0165416,-0.436119,-0.385215,1,1,-16.485,0.98,-0.91,-0.0122,0.004148,-1.2993,-0.04508,-0.0427,0.5467
19.1308,0,0,5,5,34.1308,34.1308,-25.3855,0.656938,17.315,0.0165201,-0.436683,-0.385483,1,1,-16.485,0.98,-0.91,-0.0122,0.004148,-1.2993,-0.04508,-0.0427,0.5467
18.9276,0,0,5,5,33.9276,33.9276,-25.1141,0.153867,17.3173,-0.483846,-0.348158,0.0405206,0,1,-17.9725,0.105,-0.3675,-0.523502,0.088328,-0.878644,-0.04508,-0.0427,0.5467
18.7275,0,0,5,5,33.7275,33.7275,-24.8467,-0.34184,17.3169,-0.475195,-0.343921,0.0424788,0,1,-17.9725,0.105,-0.3675,-0.523502,0.088328,-0.878644,-0.04508,-0.0427,0.5467
18.4975,0,0,5,5,33.4975,33.4975,-24.5396,0.0628255,17.3154,0.401794,-0.363362,-0.0372731,0,1,-18.585,0.77,-0.315,0.364292,0.06405,-0.960018,-0.04508,-0.0427,0.5467
18.2711,0,0,5,5,33.2711,33.2711,-24.2372,0.461264,17.3164,0.39484,-0.358543,-0.0351231,0,1,-18.585,0.77,-0.315,0.364292,0.06405,-0.960018,-0.04102,-0.03892,0.55104
18.3604,0,0,5,5,33.3604,33.3604,-24.3557,0.773965,17.3149,0.286363,0.0264934,0.123068,0,1,-16.8,-0.28,-0.8225,0.260836,0.450546,-0.80215,-0.04102,-0.03892,0.55104
18.3399,0,0,5,5,33.3399,33.3399,-24.3279,0.850723,17.3146,0.0737596,-0.0606211,-0.0111323,0,1,-15.54,-0.0875,-1.12,0.048678,0.363072,-0.935496,-0.04102,-0.03892,0.55104
18.3196,0,0,5,5,33.3196,33.3196,-24.3004,0.927476,17.3133,0.0724201,-0.0601748,-0.0109535,0,1,-15.4175,0.91,-1.3825,0.048678,0.363072,-0.935496,-0.04102,-0.03892,0.55104
18.3456,0,0,5,5,33.3456,33.3456,-24.3346,0.928254,17.311,-0.154772,-0.156467,-0.210868,1,1,-15.61,0.91,-1.435,-0.179462,0.267424,-1.13362,-0.04102,-0.03892,0.55104
18.3722,0,0,5,5,33.3722,33.3722,-24.3696,0.929261,17.3079,-0.154789,-0.157022,-0.21112,1,1,-15.995,1.225,-1.8025,-0.179462,0.267424,-1.13362,-0.04102,-0.03892,0.55104
18.3997,0,0,5,5,33.3997,33.3997,-24.4058,0.929837,17.3048,-0.651676,-0.0542785,-0.487154,1,1,-16.7125,0.9975,-1.9075,-0.678442,0.370636,-1.40727,-0.04102,-0.03892,0.55104
18.43,0,0,5,5,33.43,33.43,-24.4457,0.931294,17.3024,-0.651701,-0.0549126,-0.487443,1,1,-18.795,1.2775,-1.2775,-0.678442,0.370636,-1.40727,-0.04102,-0.03892,0.55104
18.4612,0,0,5,5,33.4612,33.4612,-24.4868,0.93257,17.2999,0.0734246,-0.212009,-0.227335,1,1,-19.4425,1.2425,-1.4525,0.049776,0.214354,-1.14887,-0.04746,-0.04004,0.55874
18.4973,0,0,5,5,33.4973,33.4973,-24.5344,0.9343,17.2976,-0.0472409,-0.16367,0.0940759,1,1,-23.1,1.4,-1.155,-0.07137,0.263398,-0.8296,-0.04746,-0.04004,0.55874
18.5349,0,0,5,5,33.5349,33.5349,-24.5841,0.934775,17.2957,-0.0472491,-0.164459,0.0937154,1,1,-24.2725,0.665,-1.3125,-0.07137,0.263398,-0.8296,-0.04746,-0.04004,0.55874
18.5716,0,0,5,5,33.5716,33.5716,-24.6325,0.93598,17.2943,0.137024,-0.343287,0.233033,1,1,-23.555,0.9275,-0.8575,0.113704,0.085522,-0.691008,-0.04746,-0.04004,0.55874
18.6041,0,0,5,5,33.6041,33.6041,-24.6754,0.937508,17.2936,0.136997,-0.343968,0.23272,1,1,-20.4925,0.91,-0.3675,0.113704,0.085522,-0.691008,-0.04746,-0.04004,0.55874
18.6519,0,0,5,5,33.6519,33.6519,-24.7386,0.815857,17.2923,-0.119888,0.0191984,0.0072927,0,1,-19.67,0.84,-0.6125,-0.1464,0.449326,-0.914268,-0.04746,-0.04004,0.55874
18.6958,0,0,5,5,33.6958,33.6958,-24.7967,0.696158,17.29,-0.117799,0.018267,0.00689332,0,1,-17.395,0.9975,-1.2425,-0.1464,0.449326,-0.914268,-0.04746,-0.04004,0.55874
18.7245,0,0,5,5,33.7245,33.7245,-24.8344,0.698689,17.2874,0.0482281,-0.131814,-0.358295,1,1,-17.57,1.925,-1.155,0.020374,0.299998,-1.27636,-0.04746,-0.04004,0.55874
18.7545,0,0,5,5,33.7545,33.7545,-24.8739,0.701062,17.2847,0.0481867,-0.132439,-0.358585,1,1,-18.55,1.8725,-1.26,0.020374,0.299998,-1.27636,-0.04844,-0.03696,0.54558
18.7868,0,0,5,5,33.7868,33.7868,-24.9164,0.702838,17.2812,0.141092,-0.0972063,-0.439921,1,1,-20.2475,1.7325,-1.785,0.113704,0.335866,-1.35676,-0.04844,-0.03696,0.54558
18.8234,0,0,5,5,33.8234,33.8234,-24.9648,0.703804,17.2774,0.141075,-0.097972,-0.440277,1,1,-23.5375,1.3825,-2.1525,0.113704,0.335866,-1.35676,-0.04844,-0.03696,0.54558
18.8607,0,0,5,5,33.8607,33.8607,-25.014,0.705432,17.2737,-0.205309,0.0752795,-0.235193,1,1,-24.0275,1.715,-1.9425,-0.234118,0.509716,-1.1529,-0.04844,-0.03696,0.54558
18.9,0,0,5,5,33.9,33.9,-25.0659,0.707384,17.2715,-0.205343,0.074459,-0.235577,1,1,-25.515,1.54,-1.12,-0.234118,0.509716,-1.1529,-0.04844,-0.03696,0.54558
18.9402,0,0,5,5,33.9402,33.9402,-25.119,0.707971,17.2691,0.0689617,-0.0819689,-0.163676,1,1,-26.1625,0.84,-1.505,0.041358,0.354288,-1.08116,-0.04844,-0.03696,0.54558
18.9831,0,0,5,5,33.9831,33.9831,-25.1757,0.70908,17.2672,0.0689423,-0.0828641,-0.164097,1,1,-28.1925,0.9975,-1.12,0.041358,0.354288,-1.08116,-0.04844,-0.03696,0.54558
19.0243,0,0,5,5,34.0243,34.0243,-25.2301,0.710401,17.2659,-0.15182,-0.300009,0.142747,1,1,-26.915,0.9625,-0.7525,-0.180316,0.138226,-0.776286,-0.04844,-0.03696,0.54558
19.0633,0,0,5,5,34.0633,34.0633,-25.2816,0.712402,17.2652,-0.151855,-0.300822,0.142363,1,1,-25.305,1.155,-0.2275,-0.180316,0.138226,-0.776286,-0.04536,-0.04004,0.53452
19.1022,0,0,5,5,34.1022,34.1022,-25.333,0.713936,17.2639,0.048448,-0.231288,0.0892344,1,1,-25.2525,1.085,-0.7175,0.020862,0.208498,-0.828624,-0.04536,-0.04004,0.53452
19.1383,0,0,5,5,34.1383,34.1383,-25.3806,0.714017,17.2622,0.0484466,-0.232039,0.0888785,1,1,-23.1175,0.4025,-1.26,0.020862,0.208498,-0.828624,-0.04536,-0.04004,0.53452
18.8651,0,0,5,5,33.8651,33.8651,-25.0159,0.602289,17.2652,-0.120048,-0.400808,-0.183058,0,1,-23.24,0.8225,-1.155,-0.150304,0.03416,-1.10117,-0.04536,-0.04004,0.53452
18.5951,0,0,5,5,33.5951,33.5951,-24.6554,0.493072,17.2665,-0.118142,-0.395106,-0.180399,0,1,-22.295,1.3825,-1.365,-0.150304,0.03416,-1.10117,-0.04536,-0.04004,0.53452
18.6319,0,0,5,5,33.6319,33.6319,-24.7039,0.4941,17.2634,-0.251065,0.28315,-0.491443,1,1,-23.59,1.2425,-1.785,-0.283772,0.71248,-1.40947,-0.04536,-0.04004,0.53452
18.6725,0,0,5,5,33.6725,33.6725,-24.7576,0.495286,17.2599,-0.251086,0.282298,-0.491836,1,1,-26.5475,1.435,-1.9775,-0.283772,0.71248,-1.40947,-0.04536,-0.04004,0.53452
18.7137,0,0,5,5,33.7137,33.7137,-24.812,0.497081,17.2561,0.546072,0.19668,-0.11343,1,1,-26.9325,1.8375,-1.995,0.516792,0.627812,-1.03358,-0.04536,-0.04004,0.53452
18.7598,0,0,5,5,33.7598,33.7598,-24.8729,0.499227,17.2528,0.546034,0.195716,-0.113877,1,1,-30.5375,1.8725,-1.575,0.516792,0.627812,-1.03358,-0.04774,-0.03486,0.54096
19.0021,0,0,5,5,34.0021,34.0021,-25.1955,0.59707,17.247,0.10054,0.254738,0.0902798,0,1,-31.6225,1.4875,-1.8025,0.071126,0.691862,-0.828624,-0.04774,-0.03486,0.54096
19.2403,0,0,5,5,34.2403,34.2403,-25.5126,0.693382,17.2418,0.0988588,0.249745,0.0878925,0,1,-31.675,1.3125,-1.19,0.071126,0.691862,-0.828624,-0.04774,-0.03486,0.54096
19.2867,0,0,5,5,34.2867,34.2867,-25.5739,0.695502,17.2403,0.320047,-0.181595,0.245174,1,1,-30.8,1.4525,-0.6825,0.293288,0.261934,-0.672098,-0.04774,-0.03486,0.54096
19.3295,0,0,5,5,34.3295,34.3295,-25.6305,0.695381,17.24,0.320049,-0.182485,0.244747,1,1,-28.1225,-0.0525,-0.5775,0.293288,0.261934,-0.672098,-0.04774,-0.03486,0.54096
19.3713,0,0,5,5,34.3713,34.3713,-25.6858,0.694631,17.2388,0.0135541,0.0368397,0.227117,1,1,-27.4225,-0.1575,-1.2075,-0.014518,0.4819,-0.689178,-0.04774,-0.03486,0.54096
19.4136,0,0,5,5,34.4136,34.4136,-25.7416,0.69577,17.2352,0.0135342,0.0359612,0.226694,1,1,-27.7375,1.435,-1.96,-0.014518,0.4819,-0.689178,-0.04774,-0.03486,0.54096
19.4561,0,0,5,5,34.4561,34.4561,-25.7978,0.698185,17.2309,0.41889,0.0542535,-0.117251,1,1,-27.86,2.3275,-2.0825,0.392596,0.501054,-1.03005,-0.04774,-0.03486,0.54096
19.4996,0,0,5,5,34.4996,34.4996,-25.8552,0.700292,17.2262,0.418853,0.0533511,-0.117688,1,1,-28.6125,2.24,-2.31,0.392596,0.501054,-1.03005,-0.04592,-0.02604,0.54488
19.5451,0,0,5,5,34.5451,34.5451,-25.9153,0.701966,17.2216,0.336214,0.0162575,-0.398469,1,1,-30.1175,1.995,-2.38,0.309636,0.464942,-1.30821,-0.04592,-0.02604,0.54488
19.5916,0,0,5,5,34.5916,34.5916,-25.9769,0.702108,17.2173,0.336211,0.0152913,-0.398939,1,1,-30.9225,1.12,-2.625,0.309636,0.464942,-1.30821,-0.04592,-0.02604,0.54488
19.6389,0,0,5,5,34.6389,34.6389,-26.0395,0.70242,17.2128,0.247643,-0.0341739,-0.313846,1,1,-31.465,1.26,-2.6775,0.220698,0.416508,-1.22329,-0.04592,-0.02604,0.54488
19.6901,0,0,5,5,34.6901,34.6901,-26.1071,0.704387,17.208,0.247608,-0.0352344,-0.314365,1,1,-34.335,2.205,-2.3975,0.220698,0.416508,-1.22329,-0.04592,-0.02604,0.54488
19.7421,0,0,5,5,34.7421,34.7421,-26.1759,0.70616,17.2035,-0.220143,-0.222311,0.192145,1,1,-34.9825,2.03,-2.2925,-0.249002,0.230702,-0.720166,-0.04592,-0.02604,0.54488
19.7962,0,0,5,5,34.7962,34.7962,-26.2476,0.707823,17.2013,-0.220172,-0.223434,0.191592,1,1,-36.61,1.365,-1.085,-0.249002,0.230702,-0.720166,-0.04592,-0.02604,0.54488
19.8489,0,0,5,5,34.8489,34.8489,-26.3173,0.708862,17.2009,-0.023383,-0.138669,0.339452,1,1,-35.5075,0.595,-0.35,-0.051362,0.316468,-0.572912,-0.04592,-0.02604,0.54488
19.8994,0,0,5,5,34.8994,34.8994,-26.3841,0.708858,17.2006,-0.0233829,-0.139713,0.338935,1,1,-33.8625,0,-0.525,-0.051362,0.316468,-0.572912,-0.04606,-0.02058,0.5418
19.9491,0,0,5,5,34.9491,34.9491,-26.4498,0.708947,17.1997,0.0665149,0.000804202,0.192362,1,1,-33.285,0.2275,-0.8575,0.038918,0.457866,-0.717848,-0.04606,-0.02058,0.5418
19.9957,0,0,5,5,34.9957,34.9957,-26.5115,0.711322,17.1967,0.0664735,-0.000158567,0.191882,1,1,-30.975,1.96,-1.33,0.038918,0.457866,-0.717848,-0.04606,-0.02058,0.5418
20.0432,0,0,5,5,35.0432,35.0432,-26.5742,0.715498,17.1936,-0.170496,0.327383,-0.258477,1,1,-31.5875,2.9575,-0.9625,-0.198982,0.786046,-1.16425,-0.04606,-0.02058,0.5418
20.0915,0,0,5,5,35.0915,35.0915,-26.6382,0.719469,17.1898,-0.170566,0.326385,-0.258978,1,1,-32.27,2.9925,-1.295,-0.198982,0.786046,-1.16425,-0.04606,-0.02058,0.5418
20.1427,0,0,5,5,35.1427,35.1427,-26.7058,0.722403,17.1853,0.253854,-0.161466,-0.375941,1,1,-34.3175,2.6775,-2.0125,0.227286,0.299754,-1.27978,-0.04606,-0.02058,0.5418
20.1977,0,0,5,5,35.1977,35.1977,-26.7786,0.724463,17.1809,0.253818,-0.162601,-0.376513,1,1,-37.2225,2.17,-2.135,0.227286,0.299754,-1.27978,-0.04606,-0.02058,0.5418
20.2531,0,0,5,5,35.2531,35.2531,-26.852,0.726574,17.177,0.347811,-0.0951074,-0.108325,1,1,-37.52,2.065,-1.855,0.321714,0.368318,-1.01309,-0.04606,-0.02058,0.5418
20.3105,0,0,5,5,35.3105,35.3105,-26.928,0.728438,17.173,0.347779,-0.0962905,-0.108925,1,1,-39.025,1.9775,-1.995,0.321714,0.368318,-1.01309,-0.04606,-0.02058,0.5418
20.3699,0,0,5,5,35.3699,35.3699,-27.0066,0.729633,17.1694,0.117542,-0.167859,0.0552027,1,1,-40.5125,1.505,-1.925,0.090524,0.298046,-0.849608,-0.04732,-0.02058,0.54698
20.4285,0,0,5,5,35.4285,35.4285,-27.0843,0.73042,17.1684,0.117529,-0.169066,0.0545865,1,1,-39.9525,0.63,-0.735,0.090524,0.298046,-0.849608,-0.04732,-0.02058,0.54698
20.4853,0,0,5,5,35.4853,35.4853,-27.1594,0.731189,17.1682,0.447713,-0.0472514,0.255501,1,1,-38.57,0.3675,-0.245,0.42212,0.4209,-0.64965,-0.04732,-0.02058,0.54698
20.5421,0,0,5,5,35.5421,35.5421,-27.2346,0.731958,17.1681,0.4477,-0.048418,0.254901,1,1,-38.57,0.3675,-0.245,0.42212,0.4209,-0.64965,-0.04732,-0.02058,0.54698
20.6003,0,0,5,5,35.6003,35.6003,-27.3117,0.730818,17.1663,-0.234908,-0.396454,0.0688785,1,1,-39.655,-0.1575,-1.6625,-0.263398,0.07442,-0.833626,-0.04732,-0.02058,0.54698
20.6555,0,0,5,5,35.6555,35.6555,-27.3848,0.733727,17.1628,-0.234959,-0.397586,0.0682923,1,1,-37.3625,2.3975,-1.435,-0.263398,0.07442,-0.833626,-0.04732,-0.02058,0.54698
20.7107,0,0,5,5,35.7107,35.7107,-27.4577,0.737225,17.1595,-0.452237,-0.417158,-0.323394,1,1,-37.3275,2.6425,-1.155,-0.481534,0.055998,-1.22171,-0.04732,-0.02058,0.54698
20.7657,0,0,5,5,35.7657,35.7657,-27.5306,0.740055,17.1557,-0.452286,-0.418284,-0.323981,1,1,-37.2225,2.415,-1.5575,-0.481534,0.055998,-1.22171,-0.04732,-0.02058,0.54698
20.8238,0,0,5,5,35.8238,35.8238,-27.6075,0.74056,17.1502,0.0504131,-0.328246,-0.404274,1,1,-39.5325,1.6975,-3.115,0.023302,0.147132,-1.30076,-0.05054,-0.01316,0.54376
20.8843,0,0,5,5,35.8843,35.8843,-27.6876,0.741145,17.1444,-0.048122,-0.477746,-0.471191,1,1,-41.2825,1.82,-3.2375,-0.07564,-0.000976,-1.36652,-0.05054,-0.01316,0.54376
20.9471,0,0,5,5,35.9471,35.9471,-27.7708,0.743724,17.1378,-0.00285288,-0.417723,-0.26347,1,1,-43.0325,3.0625,-3.08,-0.030134,0.060268,-1.15973,-0.05054,-0.01316,0.54376
21.0138,0,0,5,5,36.0138,36.0138,-27.8591,0.747365,17.1307,0.0264831,-0.388311,0.162564,1,1,-45.92,3.7625,-3.0625,-0.00061,0.091012,-0.73627,-0.05054,-0.01316,0.54376
21.0813,0,0,5,5,36.0813,36.0813,-27.9486,0.750932,17.1265,-0.197477,-0.370395,0.11585,1,1,-46.585,2.94,-1.5925,-0.225456,0.110288,-0.781898,-0.05054,-0.01316,0.54376
21.1534,0,0,5,5,36.1534,36.1534,-28.0442,0.513863,17.1241,-0.235981,-0.00697402,0.0260924,0,1,-45.6575,2.03,-0.98,-0.268278,0.474824,-0.870226,-0.05054,-0.01316,0.54376
21.3605,0,0,5,5,36.3605,36.3605,-28.3198,0.872711,17.1196,0.34356,0.105454,0.184325,0,1,-44.7475,-0.105,-1.645,0.320006,0.591334,-0.710894,-0.05054,-0.01316,0.54376
21.4259,0,0,5,5,36.4259,36.4259,-28.4063,0.870131,17.1174,-0.307315,-0.318923,0.209796,1,1,-44.9575,-0.77,-2.2575,-0.33367,0.168726,-0.684908,-0.05054,-0.01316,0.54376
21.492,0,0,5,5,36.492,36.492,-28.4939,0.872491,17.1111,0.656268,0.318701,-0.0475259,1,1,-45.465,2.905,-2.9575,0.634034,0.80703,-0.939522,-0.04522,-0.00644,0.54194
21.5569,0,0,5,5,36.5569,36.5569,-28.5798,0.876417,17.104,-0.508484,-0.239636,-0.109963,1,1,-44.555,3.955,-2.9575,-0.53558,0.250588,-1.00077,-0.04522,-0.00644,0.54194
21.6231,0,0,5,5,36.6231,36.6231,-28.6676,0.877945,17.0981,-0.50851,-0.24098,-0.110698,1,1,-45.5875,2.3625,-2.9575,-0.53558,0.250588,-1.00077,-0.04522,-0.00644,0.54194
21.6927,0,0,5,5,36.6927,36.6927,-28.7598,0.878172,17.0931,-0.491506,-0.554303,-0.529126,1,1,-48.0725,1.47,-2.905,-0.5185,-0.061,-1.4152,-0.04522,-0.00644,0.54194
21.7602,0,0,5,5,36.7602,36.7602,-28.8493,0.875952,17.0877,-0.491468,-0.555671,-0.529878,1,1,-46.55,0.3325,-3.7975,-0.5185,-0.061,-1.4152,-0.04522,-0.00644,0.54194
21.8312,0,0,5,5,36.8312,36.8312,-28.9433,0.874035,17.0814,-0.2057,-0.0484512,-0.45014,1,1,-49.1225,0.735,-4.1475,-0.231556,0.44713,-1.33529,-0.04522,-0.00644,0.54194
21.906,0,0,5,5,36.906,36.906,-29.0425,0.877546,17.0731,-0.205761,-0.0499648,-0.45098,1,1,-51.975,4.095,-3.64,-0.231556,0.44713,-1.33529,-0.04522,-0.00644,0.54194
21.98,0,0,5,5,36.98,36.98,-29.1406,0.883684,17.0681,0.233545,-0.349449,-0.202351,1,1,-51.3625,4.4975,-1.19,0.209718,0.14945,-1.08775,-0.04522,-0.00644,0.54194
22.054,0,0,5,5,37.054,37.054,-29.2386,0.889813,17.0631,0.233439,-0.350942,-0.203187,1,1,-51.3625,4.4975,-1.19,0.209718,0.14945,-1.08775,-0.04186,0.00098,0.55636
22.1227,0,0,5,5,37.1227,37.1227,-29.3296,1.52226,17.0601,0.559526,-0.156932,0.263038,0,1,-51.6425,1.155,-1.435,0.548268,0.344528,-0.624152,-0.04186,0.00098,0.55636
21.9715,0,0,5,5,36.9715,36.9715,-29.1274,0.999978,17.0653,-0.469335,-0.369872,0.103013,0,1,-53.9875,-0.0525,-1.715,-0.4941,0.128832,-0.784826,-0.04186,0.00098,0.55636
21.822,0,0,5,5,36.822,36.822,-28.9275,0.489912,17.0652,-0.460433,-0.366877,0.104807,0,1,-53.585,3.1675,-1.6275,-0.4941,0.128832,-0.784826,-0.04186,0.00098,0.55636
21.8967,0,0,5,5,36.8967,36.8967,-29.0265,0.495275,17.0585,0.225867,-0.0512248,0.197902,1,1,-51.905,4.585,-2.2925,0.1952,0.445666,-0.691618,-0.04186,0.00098,0.55636
21.9707,0,0,5,5,36.9707,36.9707,-29.1247,0.499025,17.0521,0.225802,-0.0527222,0.197069,1,1,-51.45,3.6575,-2.555,0.1952,0.445666,-0.691618,-0.04186,0.00098,0.55636
22.0503,0,0,5,5,37.0503,37.0503,-29.2302,0.499545,17.0465,0.761545,0.108831,-0.0794796,1,1,-55.5625,1.8025,-3.0975,0.73322,0.608658,-0.965142,-0.04186,0.00098,0.55636
22.1286,0,0,5,5,37.1286,37.1286,-29.334,0.499412,17.0401,-0.368756,-0.280013,-0.49544,1,1,-54.6175,1.715,-3.71,-0.401868,0.221796,-1.37701,-0.04186,0.00098,0.55636
22.2137,0,0,5,5,37.2137,37.2137,-29.4469,0.500555,17.0324,-0.368776,-0.281729,-0.496407,1,1,-59.675,2.73,-3.9725,-0.401868,0.221796,-1.37701,-0.05124,0.01512,0.55384
22.2996,0,0,5,5,37.2996,37.2996,-29.5608,0.504418,17.0238,0.245874,-0.106009,-0.192351,1,1,-60.235,4.3925,-3.6575,0.215452,0.399062,-1.07433,-0.05124,0.01512,0.55384
22.3823,0,0,5,5,37.3823,37.3823,-29.6705,0.510636,17.0193,0.245766,-0.107673,-0.193298,1,1,-57.9075,4.3925,-0.8575,0.215452,0.399062,-1.07433,-0.05124,0.01512,0.55384
22.4648,0,0,5,5,37.4648,37.4648,-29.7799,0.513719,17.0176,-0.405937,-0.0828286,-0.128099,1,1,-57.75,2.0125,-0.385,-0.438956,0.425536,-1.0087,-0.05124,0.01512,0.55384
22.5539,0,0,5,5,37.5539,37.5539,-29.8982,0.514296,17.0161,-0.405947,-0.0846196,-0.129126,1,1,-62.755,0.665,-0.98,-0.438956,0.425536,-1.0087,-0.05124,0.01512,0.55384
22.6421,0,0,5,5,37.6421,37.6421,-30.0152,0.513162,17.0149,-0.317,-0.580269,0.0598099,1,1,-62.02,-0.2975,-1.3125,-0.349652,-0.067832,-0.820206,-0.05124,0.01512,0.55384
22.7308,0,0,5,5,37.7308,37.7308,-30.1328,0.513998,17.0121,-0.317015,-0.582046,0.058781,1,1,-62.37,1.19,-1.575,-0.349652,-0.067832,-0.820206,-0.05124,0.01512,0.55384
22.8169,0,0,5,5,37.8169,37.8169,-30.247,0.518683,17.0064,0.836289,-0.678539,-0.0397203,1,1,-60.445,4.0075,-1.925,0.808616,-0.162504,-0.916952,-0.05124,0.01512,0.55384
22.9012,0,0,5,5,37.9012,37.9012,-30.3587,0.522611,17.0003,0.83622,-0.680222,-0.0407045,1,1,-59.0275,3.7275,-2.31,0.808616,-0.162504,-0.916952,-0.04746,0.03122,0.5572
22.9895,0,0,5,5,37.9895,37.9895,-30.4758,0.523252,16.9958,0.182616,-0.334289,-0.223457,1,1,-62.055,1.575,-2.4325,0.152256,0.18483,-1.09727,-0.04746,0.03122,0.5572
23.0797,0,0,5,5,38.0797,38.0797,-30.5955,0.520923,16.989,0.182657,-0.336089,-0.224518,1,1,-63.5075,0.805,-4.5325,0.152256,0.18483,-1.09727,-0.04746,0.03122,0.5572
23.1387,0,0,5,5,38.1387,38.1387,-30.6736,0.442335,16.9804,-0.0794743,-0.0263322,-0.0514763,0,1,-65.7125,2.2575,-5.1625,-0.112362,0.495442,-0.924882,-0.04746,0.03122,0.5572
23.1976,0,0,5,5,38.1976,38.1976,-30.7516,0.370475,16.9706,-0.0782201,-0.0275068,-0.0521636,0,1,-66.4125,5.3025,-4.13,-0.112362,0.495442,-0.924882,-0.04746,0.03122,0.5572
23.1162,0,0,5,5,38.1162,38.1162,-30.6424,-0.218334,16.9636,-0.639169,-0.307011,0.0212374,0,1,-66.92,6.685,-1.8025,-0.686006,0.214598,-0.853024,-0.04746,0.03122,0.5572
23.0357,0,0,5,5,38.0357,38.0357,-30.5345,-0.802727,16.9556,-0.62897,-0.305343,0.0221177,0,1,-66.8325,4.4975,-2.135,-0.686006,0.214598,-0.853024,-0.04746,0.03122,0.5572
23.1336,0,0,5,5,38.1336,38.1336,-30.6643,-0.801419,16.9504,0.327828,-0.233774,0.191002,1,1,-69.265,2.1525,-2.625,0.274866,0.288042,-0.684298,-0.04746,0.03122,0.5572
23.2314,0,0,5,5,38.2314,38.2314,-30.7941,-0.800123,16.9452,0.327806,-0.235721,0.189845,1,1,-69.265,2.1525,-2.625,0.274866,0.288042,-0.684298,-0.04816,0.0287,0.5586
23.332,0,0,5,5,38.332,38.332,-30.9276,-0.802316,16.9409,0.494401,0.159313,-0.0274942,1,1,-71.3125,0.105,-3.1675,0.442128,0.684664,-0.898774,-0.04816,0.0287,0.5586
23.4326,0,0,5,5,38.4326,38.4326,-31.0611,-0.804519,16.9367,0.494439,0.157316,-0.0286943,1,1,-71.3125,0.105,-3.1675,0.442128,0.684664,-0.898774,-0.04816,0.0287,0.5586
23.5268,0,0,5,5,38.5268,38.5268,-31.1862,-0.798332,16.9268,0.532964,0.336805,-0.0821972,1,1,-66.6225,6.055,-3.5,0.480924,0.865834,-0.950746,-0.04816,0.0287,0.5586
23.6211,0,0,5,5,38.6211,38.6211,-31.3112,-0.792167,16.9168,0.532856,0.334939,-0.083328,1,1,-66.6225,6.055,-3.5,0.480924,0.865834,-0.950746,-0.04816,0.0287,0.5586
23.7216,0,0,5,5,38.7216,38.7216,-31.4446,-0.796788,16.9102,0.105793,-0.516438,-0.433591,1,1,-71.225,-0.3675,-5.075,0.051972,0.017324,-1.2971,-0.04816,0.0287,0.5586
23.822,0,0,5,5,38.822,38.822,-31.5779,-0.801426,16.9036,0.105874,-0.518421,-0.434808,1,1,-71.225,-0.3675,-5.075,0.051972,0.017324,-1.2971,-0.04816,0.0287,0.5586
23.6464,0,0,5,5,38.6464,38.6464,-31.343,-0.697984,16.89,0.105891,-0.355074,-0.176547,0,1,-76.16,3.64,-3.9725,0.053802,0.177022,-1.04298,-0.04816,0.0287,0.5586
23.4736,0,0,5,5,38.4736,38.4736,-31.112,-0.596149,16.8772,0.104114,-0.351637,-0.17444,0,1,-76.16,3.64,-3.9725,0.053802,0.177022,-1.04298,-0.04746,0.03332,0.55216
23.5781,0,0,5,5,38.5781,38.5781,-31.2507,-0.591751,16.87,-0.27597,-0.526151,-0.456753,1,1,-74.2525,4.305,-2.625,-0.327814,0.004758,-1.32187,-0.04746,0.03332,0.55216
23.6826,0,0,5,5,38.6826,38.6826,-31.3895,-0.587371,16.8629,-0.276047,-0.52822,-0.458011,1,1,-74.2525,4.305,-2.625,-0.327814,0.004758,-1.32187,-0.04746,0.03332,0.55216
23.7963,0,0,5,5,38.7963,38.7963,-31.5405,-0.584596,16.8569,0.628366,-0.888544,-0.10345,1,1,-81.1475,3.15,-2.52,0.580476,-0.352946,-0.96868,-0.04746,0.03332,0.55216
23.9122,0,0,5,5,38.9122,38.9122,-31.6943,-0.582324,16.8521,-0.064628,0.60449,-0.0202687,1,1,-82.6875,2.555,-2.1,-0.115412,1.14082,-0.884744,-0.04746,0.03332,0.55216
24.0193,0,0,5,5,39.0193,39.0193,-31.8365,-0.576896,16.8433,-0.0647227,0.602379,-0.0215742,1,1,-76.195,5.3375,-3.0625,-0.115412,1.14082,-0.884744,-0.04746,0.03332,0.55216
24.1252,0,0,5,5,39.1252,39.1252,-31.9771,-0.302924,16.8337,0.282075,0.00942703,-0.0181684,0,1,-74.865,5.6525,-3.255,0.237656,0.550586,-0.880108,-0.04746,0.03332,0.55216
24.2386,0,0,5,5,39.2386,39.2386,-32.1277,-0.0373696,16.8246,0.277441,0.00719308,-0.0195509,0,1,-81.69,3.5875,-4.1475,0.237656,0.550586,-0.880108,-0.04746,0.03332,0.55216
24.2676,0,0,5,5,39.2676,39.2676,-32.1656,-0.3386,16.8161,-0.325945,-0.0939914,-0.0982364,0,1,-84.1925,1.61,-5.2325,-0.373564,0.450058,-0.957822,-0.05124,0.0546,0.55524
24.3901,0,0,5,5,39.3901,39.3901,-32.3283,-0.335309,16.8044,-0.330255,-0.347363,-0.485686,1,1,-87.6575,5.215,-5.1275,-0.377834,0.199348,-1.34078,-0.05124,0.0546,0.55524
24.5065,0,0,5,5,39.5065,39.5065,-32.4829,-0.330575,16.7988,-0.330337,-0.349642,-0.487132,1,1,-83.1425,4.0425,-1.68,-0.377834,0.199348,-1.34078,-0.05124,0.0546,0.55524
24.0192,0,0,5,5,39.0192,39.0192,-31.8325,-0.100482,16.788,0.23262,-0.938094,-0.0817401,0,1,-80.605,6.545,-1.3475,0.19154,-0.398086,-0.944524,-0.05124,0.0546,0.55524
23.549,0,0,5,5,38.549,38.549,-31.205,0.122828,16.7811,0.228723,-0.928757,-0.0760156,0,1,-89.9675,4.025,-2.485,0.19154,-0.398086,-0.944524,-0.05124,0.0546,0.55524
23.2864,0,0,5,5,38.2864,38.2864,-30.8542,0.936656,16.7801,0.792549,-0.858351,0.419805,0,1,-93.9575,2.52,-1.9775,0.772016,-0.33306,-0.455548,-0.05124,0.0546,0.55524
23.0236,0,0,5,5,38.0236,38.0236,-30.5031,1.74398,16.7892,0.778462,-0.852914,0.422647,0,1,-93.135,0.0175,-1.6975,0.772016,-0.33306,-0.455548,-0.05124,0.0546,0.55524
23.1521,0,0,5,5,38.1521,38.1521,-30.674,1.74218,16.7874,0.228406,-0.321175,0.278019,1,1,-92.1725,-0.4375,-1.82,0.2196,0.20069,-0.597556,-0.05124,0.0546,0.55524
23.2712,0,0,5,5,38.2712,38.2712,-30.8322,1.74909,16.7786,0.228286,-0.323545,0.276605,1,1,-84.98,6.055,-2.7475,0.2196,0.20069,-0.597556,-0.04858,0.06118,0.54908
23.3939,0,0,5,5,38.3939,38.3939,-30.995,1.75312,16.7708,-0.240233,-0.86224,-0.233126,1,1,-87.605,4.305,-3.08,-0.250832,-0.335012,-1.1019,-0.04858,0.06118,0.54908
23.5263,0,0,5,5,38.5263,38.5263,-31.171,1.75248,16.7612,-0.240222,-0.86487,-0.23471,1,1,-94.9375,2.5025,-5.355,-0.250832,-0.335012,-1.1019,-0.04858,0.06118,0.54908
23.665,0,0,5,5,38.665,38.665,-31.3553,1.75027,16.7512,-0.922204,-0.221323,0.15841,1,1,-99.5575,1.89,-6.09,-0.93574,0.310612,-0.710162,-0.04858,0.06118,0.54908
23.7971,0,0,5,5,38.7971,38.7971,-31.5308,1.75431,16.7404,-0.922275,-0.223934,0.156811,1,1,-94.6575,5.2325,-4.4975,-0.93574,0.310612,-0.710162,-0.04858,0.06118,0.54908
23.9246,0,0,5,5,38.9246,38.9246,-31.7002,1.7568,16.7336,0.296062,-0.46704,-0.594848,1,1,-91.2975,3.29,-3.045,0.287798,0.070272,-1.45448,-0.04858,0.06118,0.54908
24.0594,0,0,5,5,39.0594,39.0594,-31.8792,1.76706,16.7208,0.295883,-0.469692,-0.596498,1,1,-96.6,8.9775,-3.5525,0.287798,0.070272,-1.45448,-0.04858,0.06118,0.54908
24.1987,0,0,5,5,39.1987,39.1987,-32.0643,1.77396,16.7084,-0.312516,-2.00365,-0.349609,1,1,-99.96,7.2275,-4.4275,-0.323056,-1.45936,-1.2078,-0.04858,0.06118,0.54908
24.3485,0,0,5,5,39.3485,39.3485,-32.2634,1.77783,16.6976,-0.312584,-2.00659,-0.35146,1,0,-107.888,5.215,-4.515,-0.323056,-1.45936,-1.2078,-0.04928,0.077,0.5474
24.5034,0,0,5,5,39.5034,39.5034,-32.4694,1.78051,16.6889,0.598998,0.102432,-0.123717,1,0,-111.755,3.99,-3.8325,0.592432,0.650504,-0.979904,-0.04928,0.077,0.5474
24.6376,0,0,5,5,39.6376,39.6376,-32.6476,1.78071,16.6804,0.598994,0.0998118,-0.12539,1,0,-96.215,2.695,-4.48,0.592432,0.650504,-0.979904,-0.04928,0.077,0.5474
24.7743,0,0,5,5,39.7743,39.7743,-32.8292,1.77991,16.6636,-0.329142,0.518852,-0.199027,1,0,-97.9125,4.865,-8.89,-0.339648,1.07177,-1.05127,-0.04928,0.077,0.5474
24.9215,0,0,5,5,39.9215,39.9215,-33.0248,1.78075,16.6513,-0.329157,0.515987,-0.200883,1,0,-105.893,4.27,-6.16,-0.339648,1.07177,-1.05127,-0.04928,0.077,0.5474
25.0694,0,0,5,5,40.0694,40.0694,-33.2214,1.77815,16.6384,-0.270799,-0.424209,0.0501491,1,0,-106.453,2.7825,-7.5075,-0.281088,0.13542,-0.80032,-0.04928,0.077,0.5474
25.23,0,0,5,5,40.23,40.23,-33.4348,1.78034,16.6265,-0.270837,-0.427319,0.0481027,1,0,-115.868,4.8475,-5.5125,-0.281088,0.13542,-0.80032,-0.04928,0.077,0.5474
25.3859,0,0,5,5,40.3859,40.3859,-33.642,1.78171,16.6195,-0.802846,-0.418852,-0.44655,1,0,-112.49,2.8875,-3.3775,-0.815326,0.146888,-1.28917,-0.04928,0.077,0.5474
25.5275,0,0,5,5,40.5275,40.5275,-33.8301,1.78069,16.6132,-0.802829,-0.421581,-0.448372,1,0,-101.78,1.47,-3.745,-0.815326,0.146888,-1.28917,-0.04928,0.077,0.5474
25.8172,0,0,5,5,40.8172,40.8172,-34.2158,1.76038,16.8647,-0.0367501,0.181151,0.0807322,0,0,-107.748,8.1375,-4.7075,-0.04636,0.75457,-0.760426,-0.0497,0.0889,0.54208
25.9751,0,0,5,5,40.9751,40.9751,-34.4256,1.7659,16.852,-0.0636946,-2.1159,-0.450013,1,0,-113.855,6.8075,-4.7075,-0.073322,-1.53708,-1.28503,-0.0497,0.0889,0.54208
26.1401,0,0,5,5,41.1401,41.1401,-34.6449,1.77194,16.8432,0.0710491,1.28352,-0.113953,1,0,-119.245,5.775,-2.625,0.062098,1.86196,-0.949404,-0.0497,0.0889,0.54208
26.3059,0,0,5,5,41.3059,41.3059,-34.8652,1.77682,16.8346,-0.05283,-1.24338,0.42163,1,0,-119.805,5.145,-2.87,-0.06222,-0.659166,-0.415776,-0.0497,0.0889,0.54208
26.4592,0,0,5,5,41.4592,41.4592,-35.069,1.77896,16.8257,0.346335,-0.646285,0.417379,1,0,-110.513,3.955,-3.9375,0.338672,-0.05978,-0.417972,-0.0497,0.0889,0.54208
26.6195,0,0,5,5,41.6195,41.6195,-35.282,1.78207,16.8153,0.306433,-0.0363669,-0.448967,1,0,-115.658,4.935,-4.305,0.298656,0.552538,-1.27551,-0.0497,0.0889,0.54208
26.1076,0,0,5,5,41.1076,41.1076,-34.5987,1.94584,16.4795,0.18124,-1.14535,0.131214,0,0,-119.875,6.3875,-7.175,0.175802,-0.565104,-0.706502,-0.0497,0.0889,0.54208
26.2816,0,0,5,5,41.2816,41.2816,-34.83,1.9466,16.4638,-0.564452,0.0688185,-0.221979,1,0,-125.843,5.5125,-7.63,-0.573034,0.651114,-1.05469,-0.0497,0.0889,0.54208
26.461,0,0,5,5,41.461,41.461,-35.0686,1.95509,16.4528,0.347636,0.550742,0.24505,1,0,-129.973,7.7175,-2.835,0.343064,1.13594,-0.588894,-0.05488,0.10248,0.53522
26.6237,0,0,5,5,41.6237,41.6237,-35.2847,1.95516,16.448,0.254941,-0.736136,-0.621204,1,0,-117.513,1.575,-2.6425,0.249978,-0.146522,-1.44631,-0.05488,0.10248,0.53522
26.7935,0,0,5,5,41.7935,41.7935,-35.5105,1.95773,16.4356,0.254896,-0.739345,-0.623486,1,0,-122.763,5.39,-5.4425,0.249978,-0.146522,-1.44631,-0.05488,0.10248,0.53522
26.9731,0,0,5,5,41.9731,41.9731,-35.7492,1.96748,16.4187,0.00555901,-1.70509,-0.672514,1,0,-129.973,10.3425,-5.0925,-0.000244,-1.10788,-1.49255,-0.05488,0.10248,0.53522
27.1561,0,0,5,5,42.1561,42.1561,-35.9925,1.97309,16.4078,0.00546103,-1.70852,-0.675004,1,0,-132.633,6.3175,-3.5875,-0.000244,-1.10788,-1.49255,-0.05488,0.10248,0.53522
27.3468,0,0,5,5,42.3468,42.3468,-36.2461,1.9799,16.3999,0.0992507,-0.188805,-0.393726,1,0,-138.408,5.8975,-1.785,0.094062,0.413824,-1.21085,-0.05488,0.10248,0.53522
27.5198,0,0,5,5,42.5198,42.5198,-36.476,1.9821,16.3949,0.0992123,-0.192033,-0.396104,1,0,-125.23,2.695,-1.96,0.094062,0.413824,-1.21085,-0.05488,0.10248,0.53522
27.6933,0,0,5,5,42.6933,42.6933,-36.7065,1.98077,16.3894,0.156334,-0.17267,-0.555629,1,0,-125.598,1.2425,-3.4475,0.151402,0.436394,-1.36677,-0.05488,0.10248,0.53522
27.8793,0,0,5,5,42.8793,42.8793,-36.9539,1.98147,16.375,0.156322,-0.176123,-0.558216,1,0,-134.82,5.3375,-6.895,0.151402,0.436394,-1.36677,-0.05222,0.12488,0.54404
28.0703,0,0,5,5,43.0703,43.0703,-37.2078,1.98307,16.3583,-1.32292,-0.720677,-0.501011,1,0,-138.46,6.5625,-7.5775,-1.33407,-0.104066,-1.30735,-0.05222,0.12488,0.54404
28.2638,0,0,5,5,43.2638,43.2638,-37.465,1.99041,16.3437,-1.32304,-0.724241,-0.503735,1,0,-140.35,8.5575,-4.585,-1.33407,-0.104066,-1.30735,-0.05222,0.12488,0.54404
28.4486,0,0,5,5,43.4486,43.4486,-37.7106,1.99886,16.3315,0.761017,-1.32227,0.207609,1,0,-133.928,8.2075,-3.01,0.758962,-0.698084,-0.598898,-0.05222,0.12488,0.54404
28.6322,0,0,5,5,43.6322,43.6322,-37.9547,1.99047,16.3275,0.761163,-1.32563,0.205002,1,0,-133.175,-2.5025,-5.25,0.758962,-0.698084,-0.598898,-0.05222,0.12488,0.54404
28.8289,0,0,5,5,43.8289,43.8289,-38.2162,1.98634,16.3156,-0.391664,-0.737888,0.402596,1,0,-142.818,2.31,-7.315,-0.398818,-0.10736,-0.400038,-0.05222,0.12488,0.54404
29.031,0,0,5,5,44.031,44.031,-38.4848,1.99548,16.2925,-0.391823,-0.741559,0.399685,1,0,-146.598,12.53,-7.6475,-0.398818,-0.10736,-0.400038,-0.05222,0.12488,0.54404
29.2414,0,0,5,5,44.2414,44.2414,-38.7647,2.00424,16.2742,1.13862,0.193785,-0.467572,1,0,-152.985,10.64,-5.5475,1.13826,0.83082,-1.25758,-0.05222,0.12488,0.54404
29.439,0,0,5,5,44.439,44.439,-39.0274,2.01397,16.2628,1.13845,0.190223,-0.470453,1,0,-143.465,8.5575,-1.995,1.13826,0.83082,-1.25758,-0.05152,0.1421,0.54838
29.6303,0,0,5,5,44.6303,44.6303,-39.2817,2.01381,16.2544,0.255862,0.703257,-0.939106,1,0,-138.845,2.975,-4.2525,0.25193,1.34676,-1.71983,-0.05152,0.1421,0.54838
29.8357,0,0,5,5,44.8357,44.8357,-39.5548,2.00596,16.242,0.255999,0.699574,-0.942127,1,0,-149.293,0.9975,-8.89,0.25193,1.34676,-1.71983,-0.05152,0.1421,0.54838
30.0429,0,0,5,5,45.0429,45.0429,-39.8302,2.00167,16.224,-0.176901,-0.700643,0.186671,1,0,-150.5,4.725,-10.0625,-0.182878,-0.048312,-0.596702,-0.05152,0.1421,0.54838
30.2602,0,0,5,5,45.2602,45.2602,-40.1191,2.00631,16.2044,-0.176982,-0.704503,0.183431,1,0,-158.025,9.415,-7.4375,-0.182878,-0.048312,-0.596702,-0.05152,0.1421,0.54838
30.4754,0,0,5,5,45.4754,45.4754,-40.4052,2.01377,16.1893,0.909212,0.526271,0.850149,1,0,-156.52,8.9775,-4.2875,0.908046,1.18499,0.068076,-0.05152,0.1421,0.54838
30.6789,0,0,5,5,45.6789,45.6789,-40.6757,2.011,16.1844,0.909261,0.522684,0.847083,1,0,-148.015,0.5425,-3.5875,0.908046,1.18499,0.068076,-0.05152,0.1421,0.54838
30.8867,0,0,5,5,45.8867,45.8867,-40.952,1.99368,16.1843,-0.0110556,-1.51182,-0.665128,1,0,-151.323,-7.6825,-7.07,-0.01647,-0.843752,-1.42935,-0.05152,0.1421,0.54838
31.1105,0,0,5,5,46.1105,46.1105,-41.2496,1.99737,16.1602,-0.01112,-1.51573,-0.668542,1,0,-162.803,10.85,-9.5725,-0.01647,-0.843752,-1.42935,-0.05068,0.15526,0.53438
31.3393,0,0,5,5,46.3393,46.3393,-41.5538,2.00837,16.1348,-0.0721763,0.0051722,-0.912053,1,0,-166.53,14.6125,-7.2625,-0.077592,0.67954,-1.6675,-0.05068,0.15526,0.53438
31.5559,0,0,5,5,46.5559,46.5559,-41.8417,2.02368,16.1191,-0.0724433,0.00142892,-0.9154,1,0,-157.535,12.74,-1.2775,-0.077592,0.67954,-1.6675,-0.05068,0.15526,0.53438
31.7712,0,0,5,5,46.7712,46.7712,-42.128,2.03556,16.1038,0.434309,0.363737,-0.786576,1,0,-156.608,11.095,-2.38,0.431514,1.04517,-1.53635,-0.05068,0.15526,0.53438
31.9972,0,0,5,5,46.9972,46.9972,-42.4284,2.02391,16.0941,0.434513,0.359854,-0.790096,1,0,-164.693,-1.3125,-9.135,0.431514,1.04517,-1.53635,-0.05068,0.15526,0.53438
32.231,0,0,5,5,47.231,47.231,-42.7393,2.01235,16.0802,-0.799459,0.618551,-0.234467,1,0,-170.45,0.49,-10.955,-0.807884,1.3076,-0.981368,-0.05068,0.15526,0.53438
32.4737,0,0,5,5,47.4737,47.4737,-43.0621,2.02436,16.0515,-0.799668,0.614433,-0.238305,1,0,-176.82,16.52,-7.875,-0.807884,1.3076,-0.981368,-0.05068,0.15526,0.53438
32.7027,0,0,5,5,47.7027,47.7027,-43.3665,2.0409,16.0259,-0.060838,-2.08379,0.917087,1,0,-166.618,17.2375,-4.6375,-0.065636,-1.38397,0.168726,-0.05068,0.15526,0.53438
32.9391,0,0,5,5,47.9391,47.9391,-43.6809,2.05584,16.0059,-0.0610986,-2.08776,0.913304,1,0,-172.305,14.3675,-2.87,-0.065636,-1.38397,0.168726,-0.05068,0.15526,0.53438
33.179,0,0,5,5,48.179,48.179,-43.9998,2.04953,15.9999,-1.72255,-1.81137,-0.173846,1,0,-175.105,-0.315,-5.4425,-1.73423,-1.10386,-0.906216,-0.0595,0.18256,0.54096
33.4204,0,0,5,5,48.4204,48.4204,-44.3209,2.03564,15.992,-1.72231,-1.8154,-0.17774,1,0,-176.26,-2.6775,-9.345,-1.73423,-1.10386,-0.906216,-0.0595,0.18256,0.54096
33.6742,0,0,5,5,48.6742,48.6742,-44.6584,2.03852,15.9706,-0.415413,0.562244,-1.94015,1,0,-185.22,9.94,-8.1375,-0.421754,1.27551,-2.65094,-0.0595,0.18256,0.54096
33.9195,0,0,5,5,48.9195,48.9195,-44.9845,2.05753,15.9529,-0.415745,0.558218,-1.94417,1,0,-178.92,15.12,0.1225,-0.421754,1.27551,-2.65094,-0.0595,0.18256,0.54096
34.1598,0,0,5,5,49.1598,49.1598,-45.304,2.07534,15.9366,0.928184,1.30745,0.236543,1,0,-175.21,14.07,0.2625,0.928176,2.02788,-0.48312,-0.0595,0.18256,0.54096
34.4176,0,0,5,5,49.4176,49.4176,-45.6468,2.06071,15.9361,0.928439,1.30325,0.232285,1,0,-188.65,-5.845,-6.7025,0.928176,2.02788,-0.48312,-0.0595,0.18256,0.54096
34.6782,0,0,5,5,49.6782,49.6782,-45.9934,2.03309,15.9403,-3.01548,-2.85511,0.176324,1,0,-190.803,-13.1075,-10.2375,-3.03292,-2.12195,-0.53436,-0.0595,0.18256,0.54096
34.9526,0,0,5,5,49.9526,49.9526,-46.3583,2.04244,15.9116,-3.01564,-2.85952,0.171728,1,0,-200.463,15.8375,-8.0325,-3.03292,-2.12195,-0.53436,-0.0595,0.18256,0.54096
35.2125,0,0,5,5,50.2125,50.2125,-46.7039,2.06493,15.8822,-3.35947,-2.69365,0.123696,1,0,-189.63,21.5075,-2.6775,-3.37781,-1.95212,-0.57767,-0.06006,0.21686,0.53536
35.4636,0,0,5,5,50.4636,50.4636,-47.0378,2.08865,15.8499,-3.35989,-2.69763,0.119436,1,0,-182.963,23.24,-3.1675,-3.37781,-1.95212,-0.57767,-0.06006,0.21686,0.53536
35.7194,0,0,5,5,50.7194,50.7194,-47.3778,2.09058,15.8213,-1.37885,-3.63519,-3.26784,1,0,-186.48,12.985,-10.885,-1.38836,-2.88469,-3.9345,-0.06006,0.21686,0.53536
35.9885,0,0,5,5,50.9885,50.9885,-47.7358,2.0603,15.8275,-1.37832,-3.63942,-3.27244,1,0,-197.243,-14.735,-10.9725,-1.38836,-2.88469,-3.9345,-0.06006,0.21686,0.53536
36.278,0,0,5,5,51.278,51.278,-48.1208,2.05678,15.8183,0.946973,3.12508,-1.79565,1,0,-212.083,2.5725,-5.53,0.94672,3.87728,-2.46416,-0.06006,0.21686,0.53536
36.5508,0,0,5,5,51.5508,51.5508,-48.4835,2.07714,15.7918,0.946618,3.12088,-1.80038,1,0,-199.29,19.4775,-1.82,0.94672,3.87728,-2.46416,-0.06006,0.21686,0.53536
36.8136,0,0,5,5,51.8136,51.8136,-48.8329,2.09361,15.7561,3.59897,3.23691,-0.163108,1,0,-191.59,21.9625,-6.895,3.61059,3.99721,-0.834968,-0.06006,0.21686,0.53536
37.1049,0,0,5,5,52.1049,52.1049,-49.2204,2.08467,15.7495,3.59913,3.23248,-0.168207,1,0,-213.553,-0.5775,-6.86,3.61059,3.99721,-0.834968,-0.06006,0.21686,0.53536
37.3904,0,0,5,5,52.3904,52.3904,-49.6001,2.04171,15.761,1.00251,-1.06656,0.067147,1,0,-209.493,-21.5425,-15.0675,1.00223,-0.293044,-0.596458,-0.05278,0.22526,0.51716
37.6834,0,0,5,5,52.6834,52.6834,-49.9897,2.04019,15.7333,-1.82735,-0.724109,0.523383,1,0,-214.323,11.7425,-11.4975,-1.83964,0.053436,-0.138592,-0.05278,0.22526,0.51716
37.9719,0,0,5,5,52.9719,52.9719,-50.3734,2.05638,15.7044,-3.89459,-4.63449,-0.680759,1,0,-211.015,19.0225,-3.9375,-3.91535,-3.84861,-1.32834,-0.05278,0.22526,0.51716
38.2614,0,0,5,5,53.2614,53.2614,-50.7584,2.07464,15.666,3.21176,2.17861,1.25381,1,0,-211.488,24.0975,-6.3875,3.22141,2.96167,0.596458,-0.05278,0.22526,0.51716
38.5529,0,0,5,5,53.5529,53.5529,-51.146,2.04458,15.6779,3.21229,2.17434,1.24857,1,0,-213.99,-16.59,-9.625,3.22141,2.96167,0.596458,-0.05278,0.22526,0.51716
38.8524,0,0,5,5,53.8524,53.8524,-51.5443,2.00756,15.6897,-3.16482,-1.88279,0.127523,1,0,-219.94,-19.005,-12.9675,-3.18335,-1.0869,-0.51057,-0.05278,0.22526,0.51716
39.1859,0,0,5,5,54.1859,54.1859,-51.9879,2.0284,15.6483,-3.16519,-1.88757,0.121437,1,0,-244.335,26.565,-5.81,-3.18335,-1.0869,-0.51057,-0.05278,0.22526,0.51716
39.4946,0,0,5,5,54.4946,54.4946,-52.3985,2.04236,15.6258,-3.15073,-2.21742,-0.0258634,1,0,-226.188,15.33,-1.9775,-3.16858,-1.41203,-0.651114,-0.05278,0.22526,0.51716
39.793,0,0,5,5,54.793,54.793,-52.7953,2.0654,15.5836,-3.15113,-2.22162,-0.0313696,1,0,-218.033,27.755,-4.655,-3.16858,-1.41203,-0.651114,-0.05572,0.24122,0.50638
40.0927,0,0,5,5,55.0927,55.0927,-53.1938,2.05677,15.561,-0.660404,1.15992,0.183529,1,0,-219.433,7.4725,-12.355,-0.667462,1.97018,-0.432368,-0.05572,0.24122,0.50638
40.422,0,0,5,5,55.422,55.422,-53.6318,2.02934,15.5533,-0.659925,1.15535,0.177404,1,0,-241.85,-6.0375,-15.9075,-0.667462,1.97018,-0.432368,-0.05572,0.24122,0.50638
40.7607,0,0,5,5,55.7607,55.7607,-54.0823,2.03183,15.5202,1.0265,-0.889656,2.52368,1,0,-248.325,16.45,-10.605,1.02614,-0.068076,1.9021,-0.05572,0.24122,0.50638
41.0644,0,0,5,5,56.0644,56.0644,-54.4863,2.04272,15.4968,1.02631,-0.893763,2.51795,1,0,-222.443,14.7875,-3.2025,1.02614,-0.068076,1.9021,-0.05572,0.24122,0.50638
41.3794,0,0,5,5,56.3794,56.3794,-54.9051,2.05305,15.4532,3.9775,1.48129,1.39623,1,0,-230.405,24.29,-10.185,3.99001,2.30873,0.794952,-0.05572,0.24122,0.50638
41.7042,0,0,5,5,56.7042,56.7042,-55.3371,2.03157,15.4574,3.97787,1.47697,1.39006,1,0,-238.7,-9.275,-9.275,3.99001,2.30873,0.794952,-0.05572,0.24122,0.50638
42.0376,0,0,5,5,57.0376,57.0376,-55.7805,1.99242,15.4717,-3.86177,-0.283969,-2.29222,1,0,-245.28,-19.95,-14.5075,-3.8835,0.554002,-2.8526,-0.05572,0.24122,0.50638
42.3749,0,0,5,5,57.3749,57.3749,-56.2291,2.00526,15.4278,-3.86199,-0.288338,-2.29871,1,0,-247.083,25.4625,-8.505,-3.8835,0.554002,-2.8526,-0.05992,0.26866,0.49098
42.7035,0,0,5,5,57.7035,57.7035,-56.6661,2.02792,15.3921,-3.35117,-0.507726,0.335737,1,0,-240.73,24.6925,-0.875,-3.37013,0.339038,-0.232166,-0.05992,0.26866,0.49098
43.056,0,0,5,5,58.056,58.056,-57.135,2.04367,15.3515,-3.35145,-0.512185,0.32888,1,0,-258.528,24.9025,-5.635,-3.37013,0.339038,-0.232166,-0.05992,0.26866,0.49098
43.4159,0,0,5,5,58.4159,58.4159,-57.6136,2.03331,15.3386,-0.877575,0.342104,-2.3133,1,0,-264.513,3.0275,-9.5375,-0.885964,1.19694,-2.84699,-0.05992,0.26866,0.49098
43.7847,0,0,5,5,58.7847,58.7847,-58.1042,2.00448,15.3311,-0.877073,0.337537,-2.32054,1,0,-271.355,-5.3725,-16.94,-0.885964,1.19694,-2.84699,-0.05992,0.26866,0.49098
44.1407,0,0,5,5,59.1407,59.1407,-58.5777,1.99856,15.2982,1.6339,-4.86635,-0.0536342,1,0,-261.223,14.5425,-13.4225,1.63553,-3.99721,-0.590602,-0.05992,0.26866,0.49098
44.4906,0,0,5,5,59.4906,59.4906,-59.043,2.01066,15.2701,1.63369,-4.87054,-0.0605821,1,0,-256.795,17.675,-2.835,1.63553,-3.99721,-0.590602,-0.05992,0.26866,0.49098
44.8469,0,0,5,5,59.8469,59.8469,-59.5169,2.02099,15.2262,2.04862,-2.3747,1.30257,1,0,-261.24,25.1125,-8.2775,2.05241,-1.49975,0.769088,-0.05992,0.26866,0.49098
45.191,0,0,5,5,60.191,60.191,-59.9745,1.99466,15.2232,2.04908,-2.37874,1.29568,1,0,-252.928,-6.3,-14.56,2.05241,-1.49975,0.769088,-0.05992,0.26866,0.49098
45.5671,0,0,5,5,60.5671,60.5671,-60.4749,1.96072,15.2188,3.00795,0.209537,1.99495,1,0,-276.868,-7.7175,-18.8475,3.01474,1.09019,1.47047,-0.0567,0.2961,0.47278
45.9603,0,0,5,5,60.9603,60.9603,-60.9979,1.98375,15.1821,3.00755,0.205089,1.98698,1,0,-288.96,25.305,0.8575,3.01474,1.09019,1.47047,-0.0567,0.2961,0.47278
46.3213,0,0,5,5,61.3213,61.3213,-61.478,1.98165,15.1515,1.70004,-1.56538,-0.759649,1,0,-264.985,15.0325,-10.045,1.70166,-0.674416,-1.24769,-0.0567,0.2961,0.47278
46.6955,0,0,5,5,61.6955,61.6955,-61.9756,1.98383,15.0955,1.7,-1.56949,-0.767294,1,0,-274.348,29.435,-14.7525,1.70166,-0.674416,-1.24769,-0.0567,0.2961,0.47278
47.0961,0,0,5,5,62.0961,62.0961,-62.5085,1.97053,15.0716,-1.78945,1.22959,0.465526,1,0,-294.77,8.6625,-13.7375,-1.80279,2.12609,-0.016226,-0.0567,0.2961,0.47278
47.4979,0,0,5,5,62.4979,62.4979,-63.043,1.95046,15.0501,-1.7891,1.22531,0.457241,1,0,-295.663,5.74,-16.5375,-1.80279,2.12609,-0.016226,-0.0567,0.2961,0.47278
47.8836,0,0,5,5,62.8836,62.8836,-63.556,1.96332,15.0236,-0.668614,-1.05905,2.80604,1,0,-283.518,17.22,-0.6475,-0.677344,-0.15189,2.32239,-0.0567,0.2961,0.47278
48.2495,0,0,5,5,63.2495,63.2495,-64.0426,1.96248,15.0062,-0.668599,-1.0628,2.79843,1,0,-268.958,8.8375,-5.3025,-0.677344,-0.15189,2.32239,-0.0567,0.2961,0.47278
48.6409,0,0,5,5,63.6409,63.6409,-64.5631,1.95912,14.9639,0.686025,-1.07651,2.75914,1,0,-287.42,21.385,-12.845,0.682956,-0.16165,2.29153,-0.06566,0.31388,0.4487
49.0558,0,0,5,5,64.0558,64.0558,-65.1151,1.93048,14.964,-1.14038,0.137232,1.57283,1,0,-305.918,-7.2275,-15.505,-1.15168,1.05493,1.12301,-0.06566,0.31388,0.4487
49.4573,0,0,5,5,64.4573,64.4573,-65.6491,1.9139,14.9359,-1.14009,0.133343,1.56437,1,0,-295.278,10.8325,-16.0125,-1.15168,1.05493,1.12301,-0.06566,0.31388,0.4487
49.8629,0,0,5,5,64.8629,64.8629,-66.1886,1.9204,14.8907,-1.29983,-3.89823,-2.39542,1,0,-298.078,25.655,-7.6825,-1.31199,-2.96863,-2.7977,-0.06566,0.31388,0.4487
50.2746,0,0,5,5,65.2746,65.2746,-66.7361,1.91447,14.8636,-1.29973,-3.90205,-2.40417,1,0,-302.873,13.125,-9.8875,-1.31199,-2.96863,-2.7977,-0.06566,0.31388,0.4487
50.7005,0,0,5,5,65.7005,65.7005,-67.3027,1.91808,14.8128,-1.99943,-4.87657,-0.119302,1,0,-313.163,28.1225,-10.01,-2.01459,-3.93828,-0.521428,-0.06566,0.31388,0.4487
51.1137,0,0,5,5,66.1137,66.1137,-67.8523,1.88659,14.8029,-1.99888,-4.88024,-0.128156,1,0,-304.36,-1.75,-19.5825,-2.01459,-3.93828,-0.521428,-0.06566,0.31388,0.4487
51.4966,0,0,5,5,66.4966,66.4966,-68.3615,1.85196,14.7965,2.97292,1.24951,2.18279,1,0,-281.785,-4.1125,-20.545,2.97765,2.18844,1.77986,-0.06566,0.31388,0.4487
51.9051,0,0,5,5,66.9051,66.9051,-68.9047,1.86804,14.7719,2.97264,1.24606,2.17396,1,0,-300.528,16.7475,3.1325,2.97765,2.18844,1.77986,-0.06496,0.34356,0.43666
52.3094,0,0,5,5,67.3094,67.3094,-69.4425,1.85726,14.7314,2.97659,1.94422,1.50963,1,0,-297.203,19.88,-14.6825,2.98144,2.8892,1.12935,-0.06496,0.34356,0.43666
52.7351,0,0,5,5,67.7351,67.7351,-70.0086,1.84138,14.6936,2.97687,1.94079,1.50037,1,0,-313.18,17.4475,-16.7125,2.98144,2.8892,1.12935,-0.06496,0.34356,0.43666
53.1447,0,0,5,5,68.1447,68.1447,-70.5533,1.8165,14.6995,-0.801024,-4.10673,-3.31524,1,0,-301.91,-8.19,-12.915,-0.812886,-3.14882,-3.64024,-0.06496,0.34356,0.43666
53.4841,0,0,5,5,68.4841,68.4841,-71.0044,1.79701,14.682,-0.800684,-4.10933,-3.32267,1,0,-249.008,5.845,-14.49,-0.812886,-3.14882,-3.64024,-0.06496,0.34356,0.43666
53.8878,0,0,5,5,68.8878,68.8878,-71.5413,1.80024,14.6375,2.01481,-2.2742,-3.69129,1,0,-296.678,25.2,-6.93,2.01459,-1.3126,-3.99721,-0.06496,0.34356,0.43666
54.283,0,0,5,5,69.283,69.283,-72.0667,1.79071,14.595,2.01498,-2.27707,-3.69999,1,0,-290.273,21.8575,-13.4225,2.01459,-1.3126,-3.99721,-0.06496,0.34356,0.43666
54.6891,0,0,5,5,69.6891,69.6891,-72.6068,1.77177,14.5718,-3.97114,3.03538,-1.56106,1,0,-298.83,9.52,-15.0325,-3.99721,3.99721,-1.86587,-0.06496,0.34356,0.43666
55.0327,0,0,5,5,70.0327,70.0327,-73.0634,1.75946,14.5593,-3.97093,3.03303,-1.56866,1,0,-252.21,4.76,-9.3975,-3.99721,3.99721,-1.86587,-0.07112,0.3619,0.39802
55.3418,0,0,5,5,70.3418,70.3418,-73.4742,1.74747,14.5572,2.13625,2.66104,-0.404194,1,0,-226.678,-0.875,-7.455,2.13561,3.62767,-0.703574,-0.07112,0.3619,0.39802
55.7086,0,0,5,5,70.7086,70.7086,-73.9617,1.76151,14.5131,2.136,2.65866,-0.41236,1,0,-268.993,27.0375,0.2625,2.13561,3.62767,-0.703574,-0.07112,0.3619,0.39802
56.0577,0,0,5,5,71.0577,71.0577,-74.4257,1.7534,14.4739,-1.11615,1.23624,-3.06735,1,0,-255.92,20.7025,-11.165,-1.13045,2.20893,-3.33036,-0.07112,0.3619,0.39802
56.4267,0,0,5,5,71.4267,71.4267,-74.9162,1.75448,14.4325,-1.11617,1.23398,-3.0756,1,0,-270.708,23.52,-6.1775,-1.13045,2.20893,-3.33036,-0.07112,0.3619,0.39802
56.7479,0,0,5,5,71.7479,71.7479,-75.3429,1.75534,14.4061,-2.0385,-4.98052,0.442626,1,0,-235.253,14.9625,-3.85,-2.05668,-3.99721,0.167872,-0.07112,0.3619,0.39802
57.0565,0,0,5,5,72.0565,72.0565,-75.7528,1.74299,14.3764,-2.03829,-4.98231,0.435703,1,0,-225.733,14.9625,-11.69,-2.05668,-3.99721,0.167872,-0.07112,0.3619,0.39802
57.4151,0,0,5,5,72.4151,72.4151,-76.2295,1.76095,14.3299,-3.29926,-4.98432,-3.05501,1,0,-262.885,28.9275,3.2025,-3.32267,-3.99721,-3.2879,-0.07112,0.3619,0.39802
57.7322,0,0,5,5,72.7322,72.7322,-76.6508,1.74827,14.2865,-3.29904,-4.98605,-3.06215,1,0,-231.875,22.925,-13.5275,-3.32267,-3.99721,-3.2879,-0.07196,0.37618,0.36218
58.0645,0,0,5,5,73.0645,73.0645,-77.0922,1.75443,14.2364,1.63731,1.14908,1.23662,1,0,-243.058,29.295,-3.5175,1.63468,2.13329,0.98515,-0.07196,0.37618,0.36218
58.3498,0,0,5,5,73.3498,73.3498,-77.4712,1.75586,14.2282,1.63728,1.14762,1.23017,1,0,-208.758,4.795,-0.63,1.63468,2.13329,0.98515,-0.07196,0.37618,0.36218
58.6249,0,0,5,5,73.6249,73.6249,-77.8364,1.74963,14.2182,2.25223,2.95849,2.56372,1,0,-201.04,4.9175,-5.1975,2.25212,3.94365,2.31458,-0.07196,0.37618,0.36218
58.9045,0,0,5,5,73.9045,73.9045,-78.2076,1.75571,14.1971,2.25212,2.95715,2.55738,1,0,-204.173,12.74,0.525,2.25212,3.94365,2.31458,-0.07196,0.37618,0.36218
59.1618,0,0,5,5,74.1618,74.1618,-78.5491,1.75024,14.1582,2.73512,1.17547,0.371057,1,0,-187.215,21.5775,-8.085,2.73707,2.16501,0.150914,-0.07196,0.37618,0.36218
59.441,0,0,5,5,74.441,74.441,-78.9198,1.75326,14.1121,2.73507,1.1742,0.364715,1,0,-203.473,26.775,-3.92,2.73707,2.16501,0.150914,-0.07196,0.37618,0.36218
59.691,0,0,5,5,74.691,74.691,-79.2515,1.75265,14.0832,0.0965332,-4.63487,1.02886,1,0,-181.93,16.5025,-3.9375,0.087352,-3.63694,0.81557,-0.07196,0.37618,0.36218
59.9225,0,0,5,5,74.9225,74.9225,-79.5586,1.74748,14.0676,0.0966234,-4.63586,1.02359,1,0,-168.35,8.33,-5.0225,0.087352,-3.63694,0.81557,-0.07574,0.38178,0.33404
60.1616,0,0,5,5,75.1616,75.1616,-79.8758,1.74657,14.0418,-3.17813,-1.42614,-1.85282,1,0,-173.81,14.735,-3.605,-3.20128,-0.429562,-2.03325,-0.07574,0.38178,0.33404
60.4222,0,0,5,5,75.4222,75.4222,-80.2217,1.74752,13.9939,-3.17815,-1.42718,-1.85877,1,0,-189.508,27.65,-4.6725,-3.20128,-0.429562,-2.03325,-0.07574,0.38178,0.33404
60.6789,0,0,5,5,75.6789,75.6789,-80.5624,1.75582,13.9554,1.08088,-2.64553,0.334551,1,0,-186.813,22.995,0.63,1.07592,-1.64566,0.148962,-0.07574,0.38178,0.33404
60.9357,0,0,5,5,75.9357,75.9357,-80.9032,1.76389,13.9168,1.08074,-2.64648,0.328683,1,0,-186.813,22.995,0.63,1.07592,-1.64566,0.148962,-0.07574,0.38178,0.33404
61.1165,0,0,5,5,76.1165,76.1165,-81.1426,1.76287,13.8926,3.60085,-1.9885,-0.487763,1,0,-130.235,13.86,-3.185,3.60669,-0.987712,-0.657092,-0.07574,0.38178,0.33404
61.2973,0,0,5,5,76.2973,76.2973,-81.382,1.76175,13.8683,3.60087,-1.98914,-0.49189,1,0,-130.235,13.86,-3.185,3.60669,-0.987712,-0.657092,-0.07574,0.38178,0.33404
61.4904,0,0,5,5,76.4904,76.4904,-81.6378,1.76527,13.8436,2.46577,0.0241974,-0.939042,1,0,-139.44,14.5775,-0.49,2.46684,1.02419,-1.09641,-0.07574,0.38178,0.33404
61.6617,0,0,5,5,76.6617,76.6617,-81.8646,1.77328,13.8352,-1.21575,-2.94808,-1.58918,1,0,-123.428,5.46,3.535,-1.23013,-1.94444,-1.73765,-0.0728,0.39872,0.32466
61.8135,0,0,5,5,76.8135,76.8135,-82.0653,1.7698,13.83,2.10233,-2.74083,-0.570203,1,0,-108.903,2.695,-2.835,2.10194,-1.73691,-0.723094,-0.0728,0.39872,0.32466
61.9387,0,0,5,5,76.9387,76.9387,-82.2307,1.77387,13.8363,-1.94322,-1.39893,-0.110651,1,0,-89.2325,-3.4125,2.4675,-1.96066,-0.396012,-0.264252,-0.0728,0.39872,0.32466
62.081,0,0,5,5,77.081,77.081,-82.4188,1.78221,13.8212,-1.94336,-1.39936,-0.113904,1,0,-101.64,9.3625,3.255,-1.96066,-0.396012,-0.264252,-0.0728,0.39872,0.32466
62.2158,0,0,5,5,77.2158,77.2158,-82.5969,1.78906,13.8203,1.76244,-2.91352,-1.37549,1,0,-96.25,0.98,3.5,1.76095,-1.9082,-1.51304,-0.0728,0.39872,0.32466
62.3295,0,0,5,5,77.3295,77.3295,-82.7468,1.8013,13.8294,-0.470074,-1.40742,-0.207734,1,0,-80.6575,-4.4275,7.3675,-0.480802,-0.403332,-0.351726,-0.0728,0.39872,0.32466
62.4143,0,0,5,5,77.4143,77.4143,-82.8582,1.80877,13.8349,-1.54001,-2.53366,-0.818258,1,0,-58.9925,-2.7475,4.34,-1.55513,-1.52817,-0.955626,-0.0728,0.39872,0.32466
62.4892,0,0,5,5,77.4892,77.4892,-82.9563,1.81281,13.8258,-1.54008,-2.53387,-0.819957,1,0,-51.2925,5.5125,1.295,-1.55513,-1.52817,-0.955626,-0.07588,0.41314,0.30674
62.5568,0,0,5,5,77.5568,77.5568,-83.0449,1.82429,13.8265,0.321976,-2.02625,0.494058,1,0,-46.0775,0.4025,6.3,0.315004,-1.0209,0.349774,-0.07588,0.41314,0.30674
62.6139,0,0,5,5,77.6139,77.6139,-83.1193,1.83282,13.8329,0.452667,-1.67114,-1.33142,1,0,-38.29,-3.2375,5.005,0.446398,-0.665998,-1.46034,-0.07588,0.41314,0.30674
62.6696,0,0,5,5,77.6696,77.6696,-83.1919,1.83463,13.8419,0.452635,-1.67129,-1.33268,1,0,-37.2925,-5.145,1.2775,0.446398,-0.665998,-1.46034,-0.07588,0.41314,0.30674
62.7165,0,0,5,5,77.7165,77.7165,-83.2528,1.83903,13.8502,-0.432951,-1.3976,-0.140515,1,0,-30.695,-4.5675,2.73,-0.44286,-0.392474,-0.27633,-0.07588,0.41314,0.30674
62.7542,0,0,5,5,77.7542,77.7542,-83.3014,1.85014,13.8534,-0.433144,-1.3977,-0.141359,1,0,-23.7825,-1.19,6.265,-0.44286,-0.392474,-0.27633,-0.07588,0.41314,0.30674
62.7803,0,0,5,5,77.7803,77.7803,-83.3346,1.86389,13.8593,-0.668824,-2.46184,0.431375,1,0,-15.12,-2.555,7.98,-0.679296,-1.45546,0.292556,-0.07588,0.41314,0.30674
62.7986,0,0,5,5,77.7986,77.7986,-83.3572,1.87453,13.8614,-0.669009,-2.46188,0.430982,1,0,-9.1525,-0.5775,5.915,-0.679296,-1.45546,0.292556,-0.07588,0.41314,0.30674
62.8146,0,0,5,5,77.8146,77.8146,-83.377,1.88269,13.8659,-1.21292,-1.247,0.572767,1,0,-7.6125,-2.0825,4.6375,-1.22537,-0.241804,0.433588,-0.07378,0.40586,0.3129
62.8186,0,0,5,5,77.8186,77.8186,-83.3806,1.89265,13.8733,1.23569,-2.21559,-0.244289,1,0,1.4,-3.71,5.88,1.23379,-1.20939,-0.377102,-0.07378,0.40586,0.3129
62.8119,0,0,5,5,77.8119,77.8119,-83.37,1.9031,13.8845,1.23551,-2.21556,-0.244105,1,0,9.3275,-5.8975,6.4225,1.23379,-1.20939,-0.377102,-0.07378,0.40586,0.3129
62.8034,0,0,5,5,77.8034,77.8034,-83.3569,1.9051,13.8939,-0.159181,-2.21932,-0.523465,1,0,10.6925,-5.39,1.4,-0.166774,-1.21317,-0.65453,-0.07378,0.40586,0.3129
62.7902,0,0,5,5,77.7902,77.7902,-83.3377,1.91043,13.8966,-0.159274,-2.21928,-0.523132,1,0,14.28,-1.225,2.87,-0.166774,-1.21317,-0.65453,-0.07378,0.40586,0.3129
62.7737,0,0,5,5,77.7737,77.7737,-83.3141,1.91892,13.9072,-1.00338,-2.3278,-0.448954,1,0,16.625,-5.6525,5.25,-1.01431,-1.32163,-0.58133,-0.07378,0.40586,0.3129
62.7572,0,0,5,5,77.7572,77.7572,-83.2905,1.92741,13.9178,-1.00353,-2.32775,-0.448545,1,0,16.625,-5.6525,5.25,-1.01431,-1.32163,-0.58133,-0.07378,0.40586,0.3129
62.7401,0,0,5,5,77.7401,77.7401,-83.2659,1.93518,13.9312,-0.379716,-2.94871,-0.679879,1,0,17.0625,-7.315,5.0225,-0.387716,-1.942,-0.8113,-0.07378,0.40586,0.3129
62.723,0,0,5,5,77.723,77.723,-83.2414,1.94294,13.9445,-0.379852,-2.94865,-0.679454,1,0,17.0625,-7.315,5.0225,-0.387716,-1.942,-0.8113,-0.06566,0.40124,0.30646
62.7015,0,0,5,5,77.7015,77.7015,-83.2111,1.9524,13.9568,-0.0691346,-2.44982,-0.129843,1,0,20.3,-6.545,5.9325,-0.075518,-1.44375,-0.266448,-0.06566,0.40124,0.30646
62.6801,0,0,5,5,77.6801,77.6801,-83.1809,1.96185,13.9691,-0.0692995,-2.44975,-0.129319,1,0,20.3,-6.545,5.9325,-0.075518,-1.44375,-0.266448,-0.06566,0.40124,0.30646
62.6472,0,0,5,5,77.6472,77.6472,-83.1354,1.96717,13.98,0.25704,-1.4167,-0.265127,1,0,28.875,-6.02,3.4475,0.252296,-0.411872,-0.40199,-0.06566,0.40124,0.30646
62.6143,0,0,5,5,77.6143,77.6143,-83.0898,1.97248,13.9909,0.256947,-1.41661,-0.264339,1,0,28.875,-6.02,3.4475,0.252296,-0.411872,-0.40199,-0.06566,0.40124,0.30646
62.1897,0,0,5,5,77.1897,77.1897,-82.5221,1.71166,14.2018,-0.166619,-1.85529,-0.342649,0,0,36.3125,-8.085,3.4475,-0.177632,-0.851194,-0.489464,-0.06566,0.40124,0.30646
61.7675,0,0,5,5,76.7675,76.7675,-81.9575,1.45459,14.381,-0.0535254,-1.80035,-0.327094,0,0,31.7975,-8.925,3.4475,-0.068564,-0.797514,-0.48373,-0.06566,0.40124,0.30646
61.3423,0,0,5,5,76.3423,76.3423,-81.389,1.19917,14.5536,-0.0490688,-1.79901,-0.317264,0,0,30.38,-8.96,6.4225,-0.068564,-0.797514,-0.48373,-0.06566,0.40124,0.30646
61.3064,0,0,5,5,76.3064,76.3064,-81.3395,1.20965,14.5734,0.252397,-2.36628,-0.623536,1,0,31.08,-10.5875,7.385,0.234362,-1.36433,-0.788486,-0.06958,0.3983,0.29806
61.2704,0,0,5,5,76.2704,76.2704,-81.2898,1.22172,14.5962,0.252187,-2.36614,-0.622679,1,0,31.185,-12.18,8.575,0.234362,-1.36433,-0.788486,-0.06958,0.3983,0.29806
61.2316,0,0,5,5,76.2316,76.2316,-81.2365,1.23609,14.6133,-0.0568807,-2.53148,0.340065,1,0,33.215,-8.6975,9.415,-0.075762,-1.52964,0.16592,-0.06958,0.3983,0.29806
61.0713,0,0,5,5,76.0713,76.0713,-81.0212,1.15495,14.8873,-0.238544,-2.03375,0.160958,0,0,35.175,-9.7125,8.505,-0.259616,-1.03297,-0.015494,-0.06958,0.3983,0.29806
60.9019,0,0,5,5,75.9019,75.9019,-80.7936,1.07239,15.1572,-0.237103,-2.03315,0.164883,0,0,39.9525,-9.7125,8.9075,-0.259616,-1.03297,-0.015494,-0.06958,0.3983,0.29806
60.5391,0,0,5,5,75.5391,75.5391,-80.3084,0.882172,15.2739,0.139906,-1.81565,-0.217731,0,0,37.5375,-9.52,8.7325,0.115656,-0.817034,-0.403454,-0.06958,0.3983,0.29806
60.1735,0,0,5,5,75.1735,75.1735,-79.8192,0.685689,15.3858,0.143335,-1.81422,-0.209314,0,0,36.5225,-10.8675,6.7375,0.115656,-0.817034,-0.403454,-0.06958,0.3983,0.29806
60.1251,0,0,5,5,75.1251,75.1251,-79.7531,0.694457,15.4038,-0.174138,-2.05998,-0.388667,1,0,40.53,-9.555,6.51,-0.203008,-1.06274,-0.58255,-0.06958,0.3983,0.29806
60.0781,0,0,5,5,75.0781,75.0781,-79.6889,0.705527,15.4225,-0.174331,-2.05978,-0.387565,1,0,39.4275,-9.6775,7.91,-0.203008,-1.06274,-0.58255,-0.06258,0.40054,0.3038
60.0309,0,0,5,5,75.0309,75.0309,-79.6244,0.716649,15.4433,0.185194,-2.31164,-0.109701,1,0,39.585,-10.885,8.1725,0.158234,-1.31455,-0.307928,-0.06258,0.40054,0.3038
59.9852,0,0,5,5,74.9852,74.9852,-79.5618,0.727163,15.465,0.18501,-2.31144,-0.108627,1,0,38.5,-11.445,7.9275,0.158234,-1.31455,-0.307928,-0.06258,0.40054,0.3038
59.9369,0,0,5,5,74.9369,74.9369,-79.4958,0.737322,15.4864,-0.055223,-2.41284,-0.316385,1,0,40.39,-11.27,7.7,-0.082838,-1.41605,-0.515206,-0.06258,0.40054,0.3038
59.8801,0,0,5,5,74.8801,74.8801,-79.4185,0.745089,15.5017,-0.0553585,-2.41259,-0.315059,1,0,46.795,-8.085,5.705,-0.082838,-1.41605,-0.515206,-0.06258,0.40054,0.3038
59.8242,0,0,5,5,74.8242,74.8242,-79.3424,0.752052,15.5166,0.149831,-1.78791,0.088288,1,0,46.1475,-7.8575,5.1975,0.123342,-0.792268,-0.116266,-0.06258,0.40054,0.3038
59.7659,0,0,5,5,74.7659,74.7659,-79.2631,0.756042,15.5349,0.149761,-1.78766,0.0896479,1,0,47.8975,-10.2025,3.885,0.123342,-0.792268,-0.116266,-0.06258,0.40054,0.3038
59.7065,0,0,5,5,74.7065,74.7065,-79.1823,0.755883,15.5549,0.12656,-1.78287,-0.178101,1,0,48.72,-11.585,1.6975,0.10004,-0.787754,-0.383324,-0.06258,0.40054,0.3038
59.6478,0,0,5,5,74.6478,74.6478,-79.1024,0.7512,15.5707,0.126642,-1.78261,-0.176733,1,0,48.2125,-9.625,-1.3475,0.10004,-0.787754,-0.383324,-0.06286,0.39788,0.315
59.5885,0,0,5,5,74.5885,74.5885,-79.0218,0.755436,15.5866,-0.558125,-1.36272,-0.374773,1,0,48.6675,-8.75,3.7975,-0.587552,-0.368562,-0.581208,-0.06286,0.39788,0.315
59.5283,0,0,5,5,74.5283,74.5283,-78.9399,0.754175,15.6016,-0.558103,-1.36244,-0.37337,1,0,49.385,-8.8375,0.56,-0.587552,-0.368562,-0.581208,-0.06286,0.39788,0.315
59.0827,0,0,5,5,74.0827,74.0827,-78.3443,0.511262,15.6367,0.25596,-1.8095,-0.351736,0,0,51.24,-10.4825,-4.1825,0.2257,-0.817156,-0.569862,-0.06286,0.39788,0.315
58.6322,0,0,5,5,73.6322,73.6322,-77.742,0.273315,15.6659,0.260112,-1.80735,-0.341446,0,0,51.345,-10.9725,0.07,0.2257,-0.817156,-0.569862,-0.06286,0.39788,0.315
58.5648,0,0,5,5,73.5648,73.5648,-77.6505,0.271797,15.6797,0.431677,-2.46112,0.155965,1,0,54.7925,-8.1375,0.455,0.397964,-1.47059,-0.077836,-0.06286,0.39788,0.315
58.4905,0,0,5,5,73.4905,73.4905,-77.55,0.272178,15.6854,0.43167,-2.46075,0.157679,1,0,59.92,-3.29,0.5425,0.397964,-1.47059,-0.077836,-0.06286,0.39788,0.315
58.3407,0,0,5,5,73.3407,73.3407,-77.3487,0.276332,15.5943,0.670317,-1.66127,0.0691415,0,0,59.115,-2.8875,0.1575,0.637694,-0.672708,-0.169092,-0.06286,0.39788,0.315
58.1888,0,0,5,5,73.1888,73.1888,-77.1446,0.278943,15.4952,0.670271,-1.66049,0.0726156,0,0,59.115,-2.8875,0.1575,0.637694,-0.672708,-0.169092,-0.06118,0.38976,0.31542
58.1141,0,0,5,5,73.1141,73.1141,-77.0435,0.272548,15.5032,0.362781,-1.05239,-0.319345,1,0,60.2525,-5.4425,-2.9925,0.32879,-0.065636,-0.559736,-0.06118,0.38976,0.31542
58.0394,0,0,5,5,73.0394,73.0394,-76.9424,0.26614,15.5111,0.362893,-1.05199,-0.317625,1,0,60.2525,-5.4425,-2.9925,0.32879,-0.065636,-0.559736,-0.06118,0.38976,0.31542
57.9548,0,0,5,5,72.9548,72.9548,-76.828,0.263831,15.5138,0.799553,-1.89873,-0.381703,1,0,67.69,-1.9075,-1.3475,0.767258,-0.91195,-0.62525,-0.06118,0.38976,0.31542
57.8701,0,0,5,5,72.8701,72.8701,-76.7136,0.261517,15.5165,0.799593,-1.89828,-0.37976,1,0,67.69,-1.9075,-1.3475,0.767258,-0.91195,-0.62525,-0.06118,0.38976,0.31542
57.781,0,0,5,5,72.781,72.781,-76.5932,0.260188,15.5193,0.90215,-1.90585,-0.901231,1,0,71.0325,-1.8375,-0.77,0.870226,-0.920002,-1.14473,-0.06118,0.38976,0.31542
57.6919,0,0,5,5,72.6919,72.6919,-76.4729,0.258853,15.5221,0.902174,-1.90536,-0.899188,1,0,71.0325,-1.8375,-0.77,0.870226,-0.920002,-1.14473,-0.06118,0.38976,0.31542
57.6014,0,0,5,5,72.6014,72.6014,-76.3506,0.257566,15.5211,0.376163,-2.19785,-0.00487681,1,0,72.1175,0.3325,-1.26,0.341966,-1.21268,-0.259372,-0.06118,0.38976,0.31542
57.1065,0,0,5,5,72.1065,72.1065,-75.6893,0.0506926,15.3884,0.469309,-1.56514,-0.361289,0,0,78.8725,1.6975,-0.4725,0.43188,-0.583404,-0.624152,-0.06636,0.39116,0.31948
57.0064,0,0,5,5,72.0064,72.0064,-75.5544,0.0501802,15.3808,0.913348,-2.11302,-0.265199,1,0,79.1875,4.1825,-1.785,0.87779,-1.13131,-0.531066,-0.06636,0.39116,0.31948
56.9082,0,0,5,5,71.9082,71.9082,-75.4219,0.0448843,15.3734,0.725016,-0.855516,-0.840696,1,0,77.84,3.3425,-4.4625,0.688568,0.124318,-1.10434,-0.06636,0.39116,0.31948
56.8089,0,0,5,5,71.8089,71.8089,-75.2879,0.0337349,15.3654,0.725211,-0.854924,-0.838433,1,0,78.6975,2.7825,-7.8575,0.688568,0.124318,-1.10434,-0.06636,0.39116,0.31948
56.7027,0,0,5,5,71.7027,71.7027,-75.1449,0.023296,15.3574,0.938843,-1.79088,-0.628483,1,0,83.7375,2.905,-7.4725,0.902922,-0.8113,-0.898408,-0.06636,0.39116,0.31948
56.5924,0,0,5,5,71.5924,71.5924,-74.9963,0.0163097,15.346,0.938965,-1.79021,-0.625977,1,0,86.8875,5.3725,-6.055,0.902922,-0.8113,-0.898408,-0.06636,0.39116,0.31948
56.4819,0,0,5,5,71.4819,71.4819,-74.8475,0.00800858,15.3323,1.34925,-1.18501,-0.458227,1,0,86.975,6.3875,-7.14,1.31479,-0.2074,-0.73444,-0.06636,0.39116,0.31948
56.3821,0,0,5,5,71.3821,71.3821,-74.7129,-0.000822071,15.32,1.3494,-1.18439,-0.455959,1,0,79.065,5.5825,-7.2625,1.31479,-0.2074,-0.73444,-0.06636,0.39116,0.31948
56.2756,0,0,5,5,71.2756,71.2756,-74.5694,-0.00927726,15.3097,1.07487,-2.47253,-0.579444,1,0,83.9825,4.4275,-6.7375,1.03895,-1.49487,-0.859368,-0.0623,0.38192,0.3283
56.156,0,0,5,5,71.156,71.156,-74.4084,-0.0148886,15.2955,0.288832,-1.11031,-0.527188,1,0,93.8525,7.0525,-5.7575,0.24949,-0.13481,-0.810202,-0.0623,0.38192,0.3283
56.0277,0,0,5,5,71.0277,71.0277,-74.2359,-0.0208813,15.2787,0.288937,-1.1095,-0.524289,1,0,100.275,8.4525,-6.405,0.24949,-0.13481,-0.810202,-0.0623,0.38192,0.3283
55.9087,0,0,5,5,70.9087,70.9087,-74.0757,-0.0296676,15.2616,0.348497,0.679325,-1.29986,1,0,93.3625,8.1725,-8.05,0.309148,1.65139,-1.58246,-0.0623,0.38192,0.3283
55.8007,0,0,5,5,70.8007,70.8007,-73.9303,-0.0421808,15.2424,0.348715,0.680024,-1.29742,1,0,85.0675,8.7325,-10.5,0.309148,1.65139,-1.58246,-0.0623,0.38192,0.3283
55.6816,0,0,5,5,70.6816,70.6816,-73.77,-0.0578002,15.2276,0.891907,-1.23646,-0.318035,1,0,93.4325,5.7225,-11.55,0.854366,-0.263886,-0.613294,-0.0623,0.38192,0.3283
55.5574,0,0,5,5,70.5574,70.5574,-73.6029,-0.0692522,15.2115,0.892107,-1.23565,-0.315235,1,0,97.265,7.1225,-9.45,0.854366,-0.263886,-0.613294,-0.0623,0.38192,0.3283
55.4213,0,0,5,5,70.4213,70.4213,-73.42,-0.0773523,15.1929,0.15313,-2.93084,-0.289429,1,0,106.085,9.0125,-7.9975,0.112118,-1.95822,-0.590724,-0.0623,0.38192,0.3283
55.3099,0,0,5,5,70.3099,70.3099,-73.2701,-0.0848785,15.1699,0.153261,-2.93009,-0.286921,1,0,87.6225,11.6025,-8.4525,0.112118,-1.95822,-0.590724,-0.0742,0.385,0.33572
55.1991,0,0,5,5,70.1991,70.1991,-73.1207,-0.0942724,15.1484,1.26538,-3.4844,-0.0211942,1,0,87.255,10.43,-9.275,1.22878,-2.51271,-0.329522,-0.0742,0.385,0.33572
55.0703,0,0,5,5,70.0703,70.0703,-72.9477,-0.10242,15.1342,1.26553,-3.48352,-0.0183049,1,0,100.59,6.475,-7.35,1.22878,-2.51271,-0.329522,-0.0742,0.385,0.33572
54.9445,0,0,5,5,69.9445,69.9445,-72.7784,-0.104876,15.1168,1.47003,-1.62998,-0.25019,1,0,98.455,9.275,-4.76,1.43411,-0.661972,-0.56242,-0.0742,0.385,0.33572
54.7993,0,0,5,5,69.7993,69.7993,-72.5834,-0.10937,15.1008,1.47011,-1.62897,-0.246942,1,0,112.858,8.085,-5.67,1.43411,-0.661972,-0.56242,-0.0742,0.385,0.33572
54.677,0,0,5,5,69.677,69.677,-72.4188,-0.113678,15.0742,0.863483,0.443775,-0.151499,1,0,95.8125,14.035,-7.455,0.824842,1.40776,-0.470432,-0.0742,0.385,0.33572
54.5606,0,0,5,5,69.5606,69.5606,-72.2622,-0.120265,15.0435,0.863598,0.444604,-0.148895,1,0,91.3325,15.89,-9.485,0.824842,1.40776,-0.470432,-0.0742,0.385,0.33572
54.431,0,0,5,5,69.431,69.431,-72.088,-0.128638,15.0218,0.289603,-0.509007,-2.14121,1,0,101.238,10.5525,-8.925,0.24827,0.454206,-2.45025,-0.0742,0.385,0.33572
54.2883,0,0,5,5,69.2883,69.2883,-71.8963,-0.135821,15.0091,0.289728,-0.507973,-2.13803,1,0,111.038,5.705,-6.6675,0.24827,0.454206,-2.45025,-0.0742,0.385,0.33572
54.1406,0,0,5,5,69.1406,69.1406,-71.6979,-0.143863,14.9999,0.253301,-0.471962,-2.0065,1,0,114.783,3.5875,-6.5275,0.211548,0.489098,-2.323,-0.0728,0.3787,0.34902
54.0284,0,0,5,5,69.0284,69.0284,-71.5469,-0.148488,14.9923,0.253382,-0.471131,-2.004,1,0,88.2175,3.325,-4.3575,0.211548,0.489098,-2.323,-0.0728,0.3787,0.34902
53.904,0,0,5,5,68.904,68.904,-71.3796,-0.147892,14.9917,-1.20263,-4.15074,-1.06449,1,0,97.335,0.385,-0.175,-1.25062,-3.18762,-1.39348,-0.0728,0.3787,0.34902
53.7797,0,0,5,5,68.7797,68.7797,-71.2123,-0.147294,14.9911,-1.20264,-4.1498,-1.06172,1,0,97.335,0.385,-0.175,-1.25062,-3.18762,-1.39348,-0.0728,0.3787,0.34902
53.6378,0,0,5,5,68.6378,68.6378,-71.0217,-0.135917,14.9965,0.0615796,-1.88559,-1.13407,1,0,110.443,-0.91,6.9125,0.019154,-0.926834,-1.46839,-0.0728,0.3787,0.34902
53.4959,0,0,5,5,68.4959,68.4959,-70.8311,-0.124559,15.0019,0.0613814,-1.88451,-1.13092,1,0,110.443,-0.91,6.9125,0.019154,-0.926834,-1.46839,-0.0728,0.3787,0.34902
53.3566,0,0,5,5,68.3566,68.3566,-70.6441,-0.117099,15.0091,2.10002,-0.0156241,-0.494531,1,0,108.43,-2.5725,5.0925,2.06656,0.939034,-0.83997,-0.0728,0.3787,0.34902
53.2174,0,0,5,5,68.2174,68.2174,-70.4571,-0.109663,15.0163,2.09989,-0.0145375,-0.491453,1,0,108.43,-2.5725,5.0925,2.06656,0.939034,-0.83997,-0.0728,0.3787,0.34902
53.0684,0,0,5,5,68.0684,68.0684,-70.2569,-0.094469,15.025,0.0369235,0.0827502,-0.74033,1,0,115.798,-1.9075,9.6775,-0.00488,1.03505,-1.09019,-0.07252,0.37212,0.36498
52.8986,0,0,5,5,67.8986,67.8986,-70.0292,-0.0811777,15.0375,-0.538179,-1.99682,-1.12511,1,0,131.25,-4.305,9.38,-0.582184,-1.04371,-1.47571,-0.07252,0.37212,0.36498
52.7381,0,0,5,5,67.7381,67.7381,-69.8137,-0.0706319,15.0574,-0.538363,-1.99553,-1.12158,1,0,124.39,-8.9075,9.38,-0.582184,-1.04371,-1.47571,-0.07252,0.37212,0.36498
52.5923,0,0,5,5,67.5923,67.5923,-69.618,-0.0535847,15.0719,0.0733846,-2.80844,-1.72377,1,0,113.313,-4.55,11.865,0.032452,-1.85696,-2.07644,-0.07252,0.37212,0.36498
52.4188,0,0,5,5,67.4188,67.4188,-69.3852,-0.0327395,15.091,0.0730208,-2.80702,-1.71997,1,0,134.05,-6.2825,14.91,0.032452,-1.85696,-2.07644,-0.07252,0.37212,0.36498
52.2446,0,0,5,5,67.2446,67.2446,-69.1516,-0.0115855,15.1157,0.198268,0.170655,-0.313064,1,0,134.575,-9.17,16.24,0.1586,1.11618,-0.684176,-0.07252,0.37212,0.36498
52.0553,0,0,5,5,67.0553,67.0553,-68.8978,0.0074652,15.1524,0.197935,0.17224,-0.308928,1,0,145.863,-16.1525,17.6575,0.1586,1.11618,-0.684176,-0.07252,0.37212,0.36498
51.8595,0,0,5,5,66.8595,66.8595,-68.6353,0.0222307,15.1926,-1.55803,-0.964688,-1.08772,1,0,150.71,-18.8825,16.135,-1.60454,-0.021228,-1.46119,-0.07252,0.37212,0.36498
51.7015,0,0,5,5,66.7015,66.7015,-68.4233,0.0356804,15.2028,-1.55827,-0.963334,-1.08427,1,0,122.43,-2.765,9.1,-1.60454,-0.021228,-1.46119,-0.07028,0.36456,0.37324
51.5351,0,0,5,5,66.5351,66.5351,-68.2001,0.0539769,15.2111,-0.609542,-1.93598,0.248542,1,0,128.678,-0.63,11.3225,-0.65148,-0.9943,-0.142252,-0.07028,0.36456,0.37324
51.3417,0,0,5,5,66.3417,66.3417,-67.9409,0.0617709,15.2364,-0.609678,-1.93429,0.252738,1,0,148.873,-12.075,9.3275,-0.65148,-0.9943,-0.142252,-0.07028,0.36456,0.37324
51.1455,0,0,5,5,66.1455,66.1455,-67.6779,0.0669306,15.2612,-1.23335,-3.40992,0.616491,1,0,151.025,-12.4075,7.875,-1.27771,-2.47013,0.214476,-0.07028,0.36456,0.37324
50.9527,0,0,5,5,65.9527,65.9527,-67.4196,0.0644361,15.2905,-1.23331,-3.4082,0.620658,1,0,148.383,-16.45,4.7775,-1.27771,-2.47013,0.214476,-0.07028,0.36456,0.37324
50.7947,0,0,5,5,65.7947,65.7947,-67.2075,0.0641931,15.2964,4.01937,-1.52345,2.36256,1,0,122.43,-3.3075,0.805,3.99721,-0.588772,1.93956,-0.07028,0.36456,0.37324
50.6195,0,0,5,5,65.6195,65.6195,-66.9725,0.0667571,15.3127,4.01933,-1.52186,2.36634,1,0,135.31,-8.2775,4.69,3.99721,-0.588772,1.93956,-0.07028,0.36456,0.37324
50.4388,0,0,5,5,65.4388,65.4388,-66.7303,0.0723877,15.335,0.56381,-1.29194,1.30279,1,0,139.353,-10.7975,7.7525,0.527162,-0.360754,0.880352,-0.07028,0.36456,0.37324
50.2542,0,0,5,5,65.2542,65.2542,-66.4829,0.0718825,15.3692,0.563819,-1.29023,1.30675,1,0,142.275,-18.5325,7.245,0.527162,-0.360754,0.880352,-0.06188,0.35224,0.39214
50.067,0,0,5,5,65.067,65.067,-66.232,0.0503599,15.3982,0.0829901,0.24422,-2.82522,1,0,144.218,-20.685,-5.11,0.04392,1.17035,-3.22373,-0.06188,0.35224,0.39214
49.9269,0,0,5,5,64.9269,64.9269,-66.0438,0.0466221,15.3968,0.0830553,0.245549,-2.82222,1,0,109.078,-0.21,-2.7125,0.04392,1.17035,-3.22373,-0.06188,0.35224,0.39214
49.7926,0,0,5,5,64.7926,64.7926,-65.8635,0.0492487,15.4066,-3.68949,-1.4412,0.0920761,1,0,104.65,-4.69,3.3425,-3.74455,-0.515938,-0.334768,-0.06188,0.35224,0.39214
49.6282,0,0,5,5,64.6282,64.6282,-65.6429,0.0511822,15.4116,2.06003,-1.27207,0.736516,1,0,127.208,-2.275,1.8375,2.02935,-0.348554,0.301218,-0.06188,0.35224,0.39214
49.4691,0,0,5,5,64.4691,64.4691,-65.4294,0.0409854,15.4383,2.06021,-1.27052,0.739908,1,0,123.27,-16.7825,0.6475,2.02935,-0.348554,0.301218,-0.06188,0.35224,0.39214
49.3286,0,0,5,5,64.3286,64.3286,-65.2408,0.0304359,15.4529,-2.07546,-1.99812,-0.0958551,1,0,109.288,-10.4125,-2.4325,-2.12402,-1.07677,-0.531066,-0.06188,0.35224,0.39214
49.2034,0,0,5,5,64.2034,64.2034,-65.0726,0.0349377,15.4446,-2.07554,-1.99689,-0.093191,1,0,97.8775,5.4775,-0.0525,-2.12402,-1.07677,-0.531066,-0.06188,0.35224,0.39214
49.0824,0,0,5,5,64.0824,64.0824,-64.9099,0.0471612,15.4349,1.20351,-1.26794,-0.850932,1,0,94.7625,8.085,3.6925,1.16913,-0.349774,-1.28551,-0.06286,0.35826,0.4137
