pid_x,pid_y,pid_z,front_left_speed,front_right_speed,back_left_speed,back_right_speed,orientation_x,orientation_y,orientation_z,acceleration_x,acceleration_y,acceleration_z,accel_rejected,mag_rejected,gyro_x,gyro_y,gyro_z,accel_x,accel_y,accel_z,mag_x,mag_y,mag_z
3.21908,0,0,11.7809,11.7809,18.2191,18.2191,-0.442991,-0.0659193,0.279432,0.0666752,0.376168,0.0852346,0,0,3.3075,-0.0175,-0.945,0.025498,0.395646,-0.928054,-0.06734,-0.08274,0.48636
3.41189,0,0,11.5881,11.5881,18.4119,18.4119,-0.875937,-0.1305,0.564088,0.066223,0.368978,0.0801049,0,0,3.675,0.0175,-1.0675,0.023912,0.396012,-0.933056,-0.06734,-0.08274,0.48636
3.61858,0,0,11.3814,11.3814,18.6186,18.6186,-1.30158,-0.192077,0.852313,0.0672977,0.361551,0.0799607,0,0,3.57,0.035,-0.805,0.023912,0.396012,-0.933056,-0.06734,-0.08274,0.48636
3.83672,0,0,11.1633,11.1633,18.8367,18.8367,-1.72209,-0.238343,1.13093,0.0784315,0.352627,0.0899687,0,0,3.5525,0.0875,-0.8575,0.034282,0.394426,-0.92293,-0.06734,-0.08274,0.48636
4.01487,0,0,10.9851,10.9851,19.0149,19.0149,-2.13239,-0.285066,1.41653,0.0759669,0.343272,0.0876341,0,0,3.4825,0.035,-0.805,0.030988,0.39223,-0.925004,-0.06734,-0.08274,0.48636
4.20881,0,0,10.7912,10.7912,19.2088,19.2088,-2.5355,-0.33104,1.71008,0.0767692,0.336242,0.0873432,0,0,3.5,-0.105,-0.7875,0.030988,0.39223,-0.925004,-0.06944,-0.08582,0.48482
4.39567,0,0,10.6043,10.6043,19.3957,19.3957,-2.93103,-0.378319,2.01057,0.0740713,0.33008,0.0835664,0,0,3.4475,0.0525,-0.8225,0.02745,0.392962,-0.92842,-0.06944,-0.08582,0.48482
4.60834,0,0,10.3917,10.3917,19.6083,19.6083,-3.32316,-0.426789,2.31632,0.072366,0.325567,0.0851543,0,0,3.2725,0.14,-0.8225,0.024888,0.39528,-0.926468,-0.06944,-0.08582,0.48482
4.79116,0,0,10.2088,10.2088,19.7912,19.7912,-3.70807,-0.47293,2.62484,0.0731713,0.318862,0.0847361,0,0,3.4825,-0.0525,-0.8575,0.024888,0.39528,-0.926468,-0.06944,-0.08582,0.48482
4.96457,0,0,10.0354,10.0354,19.9646,19.9646,-4.08504,-0.518427,2.93835,0.0721431,0.313276,0.0801019,0,0,3.6925,0.0525,-0.8925,0.023058,0.396256,-0.930616,-0.06944,-0.08582,0.48482
5.12161,0,0,9.87839,9.87839,20.1216,20.1216,-4.4525,-0.557,3.25171,0.0758534,0.305538,0.0764215,0,0,3.7275,0.1225,-0.7875,0.026108,0.394914,-0.933788,-0.06944,-0.08582,0.48482
5.29566,0,0,9.70434,9.70434,20.2957,20.2957,-4.81356,-0.593339,3.5678,0.0764876,0.299258,0.0759062,0,0,3.6925,0,-0.735,0.026108,0.394914,-0.933788,-0.06944,-0.08582,0.48482
5.466,0,0,9.534,9.534,20.466,20.466,-5.16823,-0.621142,3.87619,0.0812249,0.29126,0.0801576,0,0,3.605,-0.2275,-0.805,0.030378,0.393084,-0.92903,-0.06832,-0.08372,0.48944
5.6595,0,0,9.3405,9.3405,20.6595,20.6595,-5.52024,-0.648736,4.18773,0.0804916,0.28551,0.0865882,0,0,3.465,-0.21,-0.805,0.029158,0.39345,-0.922076,-0.06832,-0.08372,0.48944
5.81159,0,0,9.18841,9.18841,20.8116,20.8116,-5.8641,-0.671252,4.49921,0.0828283,0.277463,0.0873409,0,0,3.5875,-0.175,-0.91,0.03111,0.391376,-0.920734,-0.06832,-0.08372,0.48944
5.97391,0,0,9.02609,9.02609,20.9739,20.9739,-6.20189,-0.691716,4.81313,0.0831854,0.271601,0.0867171,0,0,3.5875,-0.175,-0.91,0.03111,0.391376,-0.920734,-0.06832,-0.08372,0.48944
6.12911,0,0,8.87089,8.87089,21.1291,21.1291,-6.53314,-0.711279,5.13058,0.0829194,0.266955,0.083244,0,0,3.78,-0.3325,-0.7,0.0305,0.392474,-0.92354,-0.06832,-0.08372,0.48944
6.28157,0,0,8.71843,8.71843,21.2816,21.2816,-6.858,-0.729501,5.45105,0.082387,0.261325,0.0813495,0,0,3.7275,-0.1925,-0.8575,0.029646,0.392474,-0.92476,-0.06832,-0.08372,0.48944
6.43527,0,0,8.56473,8.56473,21.4353,21.4353,-7.17717,-0.745737,5.7735,0.0826704,0.255797,0.0806653,0,0,3.6575,-0.14,-1.0325,0.029646,0.392474,-0.92476,-0.06832,-0.08372,0.48944
6.59364,0,0,8.40636,8.40636,21.5936,21.5936,-7.49177,-0.762836,6.101,0.0811465,0.254138,0.0731984,0,0,3.57,-0.0875,-0.875,0.027816,0.396256,-0.93147,-0.06832,-0.08372,0.48944
6.74239,0,0,8.25761,8.25761,21.7424,21.7424,-7.80085,-0.779262,6.43538,0.0814332,0.248792,0.0724768,0,0,3.57,-0.0875,-0.875,0.027816,0.396256,-0.93147,-0.06874,-0.08764,0.49126
6.88732,0,0,8.11268,8.11268,21.8873,21.8873,-8.10433,-0.796698,6.77549,0.0783359,0.242326,0.0738301,0,0,3.395,0.1575,-0.84,0.0244,0.395036,-0.929396,-0.06874,-0.08764,0.49126
7.05075,0,0,7.94925,7.94925,22.0508,22.0508,-8.40523,-0.809217,7.11386,0.0825634,0.240549,0.0727042,0,0,3.675,0.175,-0.735,0.028426,0.398452,-0.929762,-0.06874,-0.08764,0.49126
7.19374,0,0,7.80626,7.80626,22.1937,22.1937,-8.70095,-0.82049,7.45442,0.0827601,0.235447,0.071934,0,0,3.5525,-0.14,-0.805,0.028426,0.398452,-0.929762,-0.06874,-0.08764,0.49126
7.30962,0,0,7.69038,7.69038,22.3096,22.3096,-8.98817,-0.827321,7.79522,0.0843371,0.227197,0.072391,0,0,3.6225,-0.14,-0.7875,0.02989,0.395158,-0.928542,-0.06874,-0.08764,0.49126
7.45318,0,0,7.54682,7.54682,22.4532,22.4532,-9.27142,-0.840396,8.14629,0.0772762,0.224271,0.0691445,0,0,3.5175,-0.0175,-0.7525,0.02257,0.39711,-0.930982,-0.06874,-0.08764,0.49126
7.58408,0,0,7.41592,7.41592,22.5841,22.5841,-9.54927,-0.851525,8.49941,0.0774704,0.219487,0.0683488,0,0,3.675,0.105,-0.805,0.02257,0.39711,-0.930982,-0.06874,-0.08764,0.49126
7.67869,0,0,7.32131,7.32131,22.6787,22.6787,-9.81719,-0.857836,8.8497,0.077945,0.21036,0.0675608,0,0,3.57,0.1225,-0.7875,0.022936,0.392596,-0.930982,-0.06986,-0.08442,0.48986
7.8304,0,0,7.1696,7.1696,22.8304,22.8304,-10.0838,-0.860385,9.19821,0.081634,0.208586,0.0683544,0,0,3.6225,-0.07,-0.875,0.026596,0.395402,-0.929396,-0.06986,-0.08442,0.48986
7.95169,0,0,7.04831,7.04831,22.9517,22.9517,-10.3451,-0.855979,9.54345,0.0860521,0.201656,0.0724648,0,0,3.64,0.1225,-0.805,0.03111,0.392962,-0.924516,-0.06986,-0.08442,0.48986
8.07399,0,0,6.92601,6.92601,23.074,23.074,-10.6017,-0.85033,9.89055,0.0859535,0.197253,0.0716525,0,0,3.64,0.07,-0.8575,0.03111,0.392962,-0.924516,-0.06986,-0.08442,0.48986
8.18367,0,0,6.81633,6.81633,23.1837,23.1837,-10.8521,-0.846182,10.2428,0.0829655,0.194302,0.0646927,0,0,3.6575,0.175,-0.9275,0.028182,0.394304,-0.930616,-0.06986,-0.08442,0.48986
8.31599,0,0,6.68401,6.68401,23.316,23.316,-11.1,-0.842241,10.5981,0.0820463,0.191276,0.0647305,0,0,3.43,0.0875,-0.91,0.027328,0.395524,-0.929762,-0.06986,-0.08442,0.48986
8.43075,0,0,6.56925,6.56925,23.4308,23.4308,-11.3432,-0.836756,10.9553,0.0819506,0.187112,0.0639058,0,0,3.5175,0.21,-0.8225,0.027328,0.395524,-0.929762,-0.06986,-0.08442,0.48986
8.56621,0,0,6.43379,6.43379,23.5662,23.5662,-11.585,-0.831006,11.3162,0.0817288,0.183221,0.0684784,0,0,3.3775,0.21,-0.7525,0.027206,0.395768,-0.924394,-0.06902,-0.0847,0.48734
8.6595,0,0,6.3405,6.3405,23.6595,23.6595,-11.8196,-0.825277,11.6799,0.0810213,0.181043,0.0589201,0,0,3.745,-0.21,-0.8575,0.026596,0.397598,-0.933056,-0.06902,-0.0847,0.48734
8.7905,0,0,6.2095,6.2095,23.7905,23.7905,-12.0529,-0.817562,12.044,0.0821016,0.176938,0.0641046,0,0,3.57,-0.1925,-0.875,0.027816,0.397476,-0.927078,-0.06902,-0.0847,0.48734
8.90078,0,0,6.09922,6.09922,23.9008,23.9008,-12.282,-0.808162,12.4099,0.0819375,0.173029,0.063264,0,0,3.465,0.105,-0.8925,0.027816,0.397476,-0.927078,-0.06902,-0.0847,0.48734
8.96773,0,0,6.03227,6.03227,23.9677,23.9677,-12.5014,-0.795976,12.7767,0.0814819,0.163793,0.0639206,0,0,3.5,0.0875,-0.9625,0.027572,0.391986,-0.925614,-0.06902,-0.0847,0.48734
9.05286,0,0,5.94714,5.94714,24.0529,24.0529,-12.7144,-0.787635,13.1511,0.0761124,0.161386,0.0557344,0,0,3.605,0.07,-0.875,0.022326,0.393206,-0.932934,-0.06902,-0.0847,0.48734
9.1556,0,0,5.8444,5.8444,24.1556,24.1556,-12.9239,-0.778401,13.5276,0.0759513,0.157821,0.0549253,0,0,3.3425,-0.105,-0.665,0.022326,0.393206,-0.932934,-0.06902,-0.0847,0.48734
9.54691,0,0,5.45309,5.45309,24.5469,24.5469,-13.1699,-0.736357,13.8632,0.118466,0.173665,0.0902353,0,0,3.395,-0.0525,-0.8575,0.065758,0.413214,-0.896944,-0.06902,-0.0847,0.48734
9.13064,0,0,5.86936,5.86936,24.1306,24.1306,-13.3383,-0.730507,14.2454,0.0590793,0.134898,0.0224328,0,0,3.4825,-0.0875,-0.7175,0.006222,0.377346,-0.963556,-0.07238,-0.07896,0.49
10.2052,0,0,5,5,25.2052,25.2052,-13.6407,-0.807689,14.6966,0.0151121,0.187049,0.165895,0,0,3.5,0.035,-0.8225,-0.039284,0.434564,-0.819962,-0.07238,-0.07896,0.49
9.66958,0,0,5.33042,5.33042,24.6696,24.6696,-13.8443,-0.82465,15.1041,0.050153,0.203749,-0.0644984,0,0,3.535,-0.07,-0.875,-0.004392,0.454694,-1.04774,-0.07238,-0.07896,0.49
8.30994,0,0,6.69006,6.69006,23.3099,23.3099,-13.844,-0.824328,15.1043,0.0501474,0.203754,-0.064497,1,0,3.675,0.21,-0.7,-0.004392,0.454694,-1.04774,-0.07238,-0.07896,0.49
7.37049,0,0,7.62951,7.62951,22.3705,22.3705,-13.7144,-0.815126,15.5159,-0.0343243,-0.0864214,-0.116947,0,0,4.3225,0,-1.1025,-0.08906,0.162626,-1.10032,-0.07238,-0.07896,0.49
11.4248,0,0,5,5,26.4248,26.4248,-14.1534,-0.602343,15.6176,0.330914,0.258834,0.258828,0,0,3.4125,-0.49,-1.4525,0.281454,0.514962,-0.725656,-0.07238,-0.07896,0.49
11.6287,0,0,5,5,26.6287,26.6287,-14.5842,-0.391191,15.72,0.327229,0.251542,0.256993,0,0,3.675,-0.2625,-1.3825,0.281454,0.514962,-0.725656,-0.07238,-0.07896,0.49
13.1707,0,0,5,5,28.1707,28.1707,-15.1916,-0.522639,16.1703,0.0408733,0.379061,0.309947,0,0,3.2725,0,-1.015,-0.008418,0.652578,-0.67039,-0.06832,-0.07518,0.50988
7.13582,0,0,7.86418,7.86418,22.1358,22.1358,-14.9183,-0.414662,16.4652,0.0307278,-0.219765,-0.0652674,0,0,2.6775,0.805,-0.735,-0.016714,0.049776,-1.04395,-0.06832,-0.07518,0.50988
10.7226,0,0,5,5,25.7226,25.7226,-15.1612,-0.478451,16.9176,0.00426382,0.0851245,0.263003,0,0,2.2575,0.7175,-0.665,-0.044408,0.358436,-0.717116,-0.06832,-0.07518,0.50988
9.11409,0,0,5.88591,5.88591,24.1141,24.1141,-15.1626,-0.478051,16.9182,0.00425683,0.0851007,0.262997,1,0,2.7125,0.1925,-0.4725,-0.044408,0.358436,-0.717116,-0.06832,-0.07518,0.50988
9.09845,0,0,5.90155,5.90155,24.0984,24.0984,-15.1617,-0.47865,16.9199,-0.108957,0.505842,0.118659,1,0,4.0075,-0.5425,0,-0.158112,0.778726,-0.860344,-0.06832,-0.07518,0.50988
13.7905,0,0,5,5,28.7905,28.7905,-15.8065,-0.825093,17.6047,-0.171308,0.446897,0.318331,0,0,3.2725,-0.1575,-0.035,-0.226798,0.730658,-0.659166,-0.06832,-0.07518,0.50988
14.0905,0,0,5,5,29.0905,29.0905,-16.4394,-1.16377,18.3006,-0.165398,0.436317,0.315165,0,0,4.8825,0.105,-0.0525,-0.226798,0.730658,-0.659166,-0.06832,-0.07518,0.50988
14.3894,0,0,5,5,29.3894,29.3894,-17.0611,-1.57208,19.0851,-0.235052,0.397401,0.359088,0,0,4.725,0.245,0.1925,-0.303902,0.70211,-0.612318,-0.06384,-0.07644,0.5138
10.2011,0,0,5,5,25.2011,25.2011,-17.0551,-1.57118,19.0868,0.244436,-0.0758619,0.209246,1,0,6.9125,0.2625,0.245,0.177632,0.229238,-0.761036,-0.06384,-0.07644,0.5138
15.2124,0,0,5,5,30.2124,30.2124,-17.7391,-1.66881,19.5524,0.107281,0.408843,0.36153,0,0,5.495,0.245,0.6475,0.038186,0.724802,-0.60634,-0.06384,-0.07644,0.5138
15.5671,0,0,5,5,30.5671,30.5671,-18.4155,-1.76302,20.0253,0.108925,0.397642,0.357822,0,0,4.2525,0.35,0.0175,0.038186,0.724802,-0.60634,-0.06384,-0.07644,0.5138
11.0615,0,0,5,5,26.0615,26.0615,-18.4159,-1.76193,20.0257,0.0694229,0.0191641,-0.50786,1,0,3.2725,0.595,-0.455,-0.001464,0.346724,-1.46534,-0.06384,-0.07644,0.5138
11.0781,0,0,5,5,26.0781,26.0781,-18.4185,-1.76065,20.0268,0.0694007,0.0191204,-0.507874,1,0,2.0475,0.56,-0.0175,-0.001464,0.346724,-1.46534,-0.06384,-0.07644,0.5138
11.0766,0,0,5,5,26.0766,26.0766,-18.4207,-1.75928,20.0272,0.770228,0.353712,-0.00318151,1,0,2.2925,0.7525,-0.42,0.702354,0.681004,-0.964532,-0.06384,-0.07644,0.5138
11.0654,0,0,5,5,26.0654,26.0654,-18.4211,-1.76385,20.0275,0.770307,0.353705,-0.00318614,1,0,3.2725,-2.5375,-1.54,0.702354,0.681004,-0.964532,-0.06272,-0.0707,0.51044
11.0634,0,0,5,5,26.0634,26.0634,-18.4212,-1.76698,20.0267,0.572705,0.358712,0.227463,1,0,3.4475,-1.54,-1.8725,0.50386,0.686006,-0.73566,-0.06272,-0.0707,0.51044
11.0656,0,0,5,5,26.0656,26.0656,-18.4215,-1.76791,20.0252,0.572721,0.358707,0.227461,1,0,3.29,-0.175,-1.89,0.50386,0.686006,-0.73566,-0.06272,-0.0707,0.51044
11.0695,0,0,5,5,26.0695,26.0695,-18.4223,-1.76676,20.0236,0.024193,0.0916021,0.361102,1,0,3.0275,0.9975,-1.5575,-0.04697,0.419192,-0.603046,-0.06272,-0.0707,0.51044
11.0546,0,0,5,5,26.0546,26.0546,-18.4209,-1.76337,20.0202,0.0241339,0.0916239,0.361111,1,0,4.2,2.5725,-2.135,-0.04697,0.419192,-0.603046,-0.06272,-0.0707,0.51044
14.0208,0,0,5,5,29.0208,29.0208,-18.8278,-1.59126,20.224,0.306987,0.217254,0.230446,0,0,3.99,1.4175,-2.3625,0.240096,0.55144,-0.730536,-0.06272,-0.0707,0.51044
14.2101,0,0,5,5,29.2101,29.2101,-19.2271,-1.41972,20.4303,0.303994,0.210642,0.228249,0,0,4.2175,1.6275,-1.925,0.240096,0.55144,-0.730536,-0.06272,-0.0707,0.51044
11.5355,0,0,5,5,26.5355,26.5355,-19.2254,-1.42013,20.4286,0.422207,0.333653,0.515221,1,0,4.4625,0.1575,-1.8725,0.358802,0.674294,-0.445788,-0.06272,-0.0707,0.51044
11.538,0,0,5,5,26.538,26.538,-19.2241,-1.42179,20.4277,0.422236,0.333675,0.515228,1,0,4.2175,-0.6825,-1.715,0.358802,0.674294,-0.445788,-0.06272,-0.0707,0.51044
11.5489,0,0,5,5,26.5489,26.5489,-19.2244,-1.42332,20.4271,0.525769,-0.10452,-0.808438,1,0,3.3425,-0.6825,-1.47,0.462746,0.236558,-1.75924,-0.06174,-0.06314,0.50736
11.5964,0,0,5,5,26.5964,26.5964,-19.2311,-1.42684,20.4266,0.52583,-0.104631,-0.808478,1,0,-0.28,-1.785,-1.8375,0.462746,0.236558,-1.75924,-0.06174,-0.06314,0.50736
11.5771,0,0,5,5,26.5771,26.5771,-19.2346,-1.42951,20.4252,0.279018,0.344983,-0.348057,1,0,1.5225,-1.1375,-2.1875,0.214842,0.685762,-1.30235,-0.06174,-0.06314,0.50736
11.5795,0,0,5,5,26.5795,26.5795,-19.2381,-1.43218,20.4237,0.279064,0.344926,-0.348078,1,0,1.5225,-1.1375,-2.1875,0.214842,0.685762,-1.30235,-0.06174,-0.06314,0.50736
11.5709,0,0,5,5,26.5709,26.5709,-19.2401,-1.43196,20.4217,0.146519,-0.253528,0.0878859,1,0,2.3625,0.5775,-1.96,0.08174,0.087962,-0.869738,-0.06174,-0.06314,0.50736
11.5724,0,0,5,5,26.5724,26.5724,-19.242,-1.43173,20.4196,0.146515,-0.253561,0.0878747,1,0,2.3625,0.5775,-1.96,0.08174,0.087962,-0.869738,-0.06174,-0.06314,0.50736
11.54,0,0,5,5,26.54,26.54,-19.2394,-1.42849,20.4197,-0.170497,0.170263,0.369689,1,0,5.005,1.8375,-0.21,-0.236558,0.511302,-0.590114,-0.06174,-0.06314,0.50736
11.5387,0,0,5,5,26.5387,26.5387,-19.2367,-1.42525,20.4198,-0.170554,0.170306,0.369706,1,0,5.005,1.8375,-0.21,-0.236558,0.511302,-0.590114,-0.06174,-0.06314,0.50736
11.5198,0,0,5,5,26.5198,26.5198,-19.2316,-1.42457,20.422,0.289622,0.496591,0.170682,1,1,6.3875,0,0.49,0.225578,0.837164,-0.787632,-0.06006,-0.0644,0.52052
13.4939,0,0,5,5,28.4939,28.4939,-19.4985,-1.85117,20.4326,-0.358837,0.161548,0.218854,0,1,1.9425,-0.91,0.6475,-0.4331,0.506788,-0.7381,-0.06006,-0.0644,0.52052
13.6163,0,0,5,5,28.6163,28.6163,-19.7602,-2.27195,20.4451,-0.351497,0.157338,0.217072,0,1,2.345,-1.8725,0.385,-0.4331,0.506788,-0.7381,-0.06006,-0.0644,0.52052
11.8809,0,0,5,5,26.8809,26.8809,-19.7615,-2.27733,20.4408,0.0768335,0.365301,-0.139244,1,1,2.7125,-2.065,-4.27,-0.00305,0.714554,-1.09166,-0.06006,-0.0644,0.52052
11.891,0,0,5,5,26.891,26.891,-19.764,-2.27824,20.4423,0.0768494,0.36526,-0.139259,1,1,2.135,-0.735,-0.245,-0.00305,0.714554,-1.09166,-0.06006,-0.0644,0.52052
13.0983,0,0,5,5,28.0983,28.0983,-19.9323,-2.11259,20.4496,0.151225,0.153623,0.0284105,0,1,2.38,0.7875,-0.0525,0.074542,0.505934,-0.924394,-0.06006,-0.0644,0.52052
13.1549,0,0,5,5,28.1549,28.1549,-20.0946,-1.94944,20.4562,0.148379,0.15093,0.0275369,0,1,4.0075,1.155,0.0525,0.074542,0.505934,-0.924394,-0.06006,-0.0644,0.52052
12.0547,0,0,5,5,27.0547,27.0547,-20.092,-1.9449,20.4566,1.64537,-1.07213,-0.969803,1,1,4.97,2.485,0.2275,1.57795,-0.715896,-1.91406,-0.06006,-0.0644,0.52052
12.0289,0,0,5,5,27.0289,27.0289,-20.086,-1.94384,20.456,1.64535,-1.07203,-0.969767,1,1,6.8425,0.77,-1.015,1.57795,-0.715896,-1.91406,-0.06818,-0.05404,0.5222
12.0156,0,0,5,5,27.0156,27.0156,-20.0786,-1.94284,20.4541,-0.376311,-0.439171,-0.220474,1,1,7.595,0.98,-1.68,-0.452254,-0.083814,-1.17059,-0.06818,-0.05404,0.5222
12.0115,0,0,5,5,27.0115,27.0115,-20.0713,-1.94183,20.4523,-0.376328,-0.43905,-0.220429,1,1,7.595,0.98,-1.68,-0.452254,-0.083814,-1.17059,-0.06818,-0.05404,0.5222
12.0332,0,0,5,5,27.0332,27.0332,-20.0674,-1.94647,20.4511,-0.603183,-0.475503,-0.0975834,1,1,5.6175,-2.2575,-2.45,-0.68015,-0.120292,-1.04871,-0.06818,-0.05404,0.5222
12.0312,0,0,5,5,27.0312,27.0312,-20.0636,-1.95111,20.4499,-0.603102,-0.475439,-0.0975632,1,1,5.6175,-2.2575,-2.45,-0.68015,-0.120292,-1.04871,-0.06818,-0.05404,0.5222
12.0878,0,0,5,5,27.0878,27.0878,-20.0679,-1.95786,20.4491,0.700314,-0.352648,-0.249434,1,1,1.1025,-3.4825,-2.695,0.628666,0.00244,-1.19938,-0.06818,-0.05404,0.5222
12.0906,0,0,5,5,27.0906,27.0906,-20.0721,-1.96461,20.4482,0.700432,-0.352716,-0.249463,1,1,1.1025,-3.4825,-2.695,0.628666,0.00244,-1.19938,-0.06818,-0.05404,0.5222
13.9062,0,0,5,5,28.9062,28.9062,-20.3258,-1.62797,20.4529,0.321963,0.222314,0.0820033,0,1,0.4375,0.525,-2.66,0.254492,0.581086,-0.869128,-0.06818,-0.05404,0.5222
10.8333,0,0,5,5,25.8333,25.8333,-20.1357,-1.13005,20.4427,0.404511,-0.212836,0.126994,0,1,2.2925,3.78,-2.94,0.346114,0.14335,-0.825818,-0.0644,-0.05992,0.5271
10.7061,0,0,5,5,25.7061,25.7061,-19.9437,-0.641623,20.4368,0.395987,-0.209733,0.128266,0,1,5.2325,2.7125,-1.75,0.346114,0.14335,-0.825818,-0.0644,-0.05992,0.5271
12.0732,0,0,5,5,27.0732,27.0732,-19.9556,-0.422143,20.4345,0.199359,0.0220994,-0.0182038,0,1,5.5125,3.4475,-1.19,0.1525,0.37515,-0.97112,-0.0644,-0.05992,0.5271
12.0629,0,0,5,5,27.0629,27.0629,-19.9651,-0.210323,20.4346,0.195662,0.0219367,-0.0182412,0,1,6.7725,1.0325,-0.5075,0.1525,0.37515,-0.97112,-0.0644,-0.05992,0.5271
12.833,0,0,5,5,27.833,27.833,-20.0797,-0.199138,20.4361,0.011659,0.138275,-0.0381056,0,1,6.37,-0.735,-0.5075,-0.032086,0.493246,-0.990152,-0.0644,-0.05992,0.5271
12.8962,0,0,5,5,27.8962,27.8962,-20.1936,-0.191573,20.439,0.011527,0.13641,-0.0387892,0,1,5.5825,-2.905,-0.385,-0.032086,0.493246,-0.990152,-0.0644,-0.05992,0.5271
12.5735,0,0,5,5,27.5735,27.5735,-20.2536,0.0497972,20.4415,0.226353,0.0514021,0.0183937,0,1,3.15,-2.9575,-0.49,0.18788,0.40931,-0.933056,-0.0644,-0.05992,0.5271
12.6133,0,0,5,5,27.6133,27.6133,-20.314,0.289189,20.4429,0.222175,0.0504165,0.0180162,0,1,2.24,-1.365,-0.4375,0.18788,0.40931,-0.933056,-0.0644,-0.05992,0.5271
16.8176,0,0,5,5,31.8176,31.8176,-20.9481,0.374237,20.6862,0.287386,0.421832,0.316071,0,0,0.805,0.28,4.1825,0.254858,0.790682,-0.633424,-0.0616,-0.05754,0.51814
12.6148,0,0,5,5,27.6148,27.6148,-20.9513,0.379383,20.6863,0.287539,-0.220119,0.109988,1,0,1.68,2.87,0.21,0.255102,0.14945,-0.837896,-0.0616,-0.05754,0.51814
12.5905,0,0,5,5,27.5905,27.5905,-20.9509,0.382565,20.6878,0.287484,-0.220112,0.109991,1,0,3.7275,1.47,0.6475,0.255102,0.14945,-0.837896,-0.0616,-0.05754,0.51814
11.7688,0,0,5,5,26.7688,26.7688,-20.8374,0.357054,21.1214,-0.0635291,-0.0962579,0.02648,0,0,4.1825,1.4,0.8925,-0.097844,0.271328,-0.921466,-0.0616,-0.05754,0.51814
11.6881,0,0,5,5,26.6881,26.6881,-20.7221,0.3312,21.5548,-0.0630779,-0.0943779,0.0271962,0,0,6.3875,1.5925,0.5425,-0.097844,0.271328,-0.921466,-0.0616,-0.05754,0.51814
12.4208,0,0,5,5,27.4208,27.4208,-20.7172,0.332756,21.5564,-0.550263,-0.022242,-0.358217,1,0,6.2825,0.595,0.28,-0.587064,0.343308,-1.30394,-0.0616,-0.05754,0.51814
12.4328,0,0,5,5,27.4328,27.4328,-20.7142,0.330621,21.5585,-0.550225,-0.022194,-0.358198,1,0,5.145,-1.5575,-0.14,-0.587064,0.343308,-1.30394,-0.0616,-0.05754,0.51814
13.3666,0,0,5,5,28.3666,28.3666,-20.84,0.572886,21.6546,0.349157,0.0687044,0.0340583,0,0,4.725,-2.1875,-0.595,0.320372,0.43615,-0.913902,-0.0616,-0.05754,0.51814
13.107,0,0,5,5,28.107,28.107,-20.9196,0.929043,21.6544,0.342941,0.0674355,0.0334871,0,1,3.0275,-2.3975,-1.295,0.320372,0.43615,-0.913902,-0.06412,-0.05082,0.5257
12.5828,0,0,5,5,27.5828,27.5828,-20.9204,0.926166,21.6542,0.233412,-0.0183116,0.266224,1,1,3.0275,-1.47,-1.5925,0.210328,0.350506,-0.682956,-0.06412,-0.05082,0.5257
12.5847,0,0,5,5,27.5847,27.5847,-20.9214,0.926966,21.6522,0.233398,-0.0183278,0.266218,1,1,2.9575,0.91,-1.785,0.210328,0.350506,-0.682956,-0.06412,-0.05082,0.5257
12.5895,0,0,5,5,27.5895,27.5895,-20.9229,0.928915,21.6499,-0.0363347,-0.184201,0.0744078,1,1,2.66,1.61,-1.7325,-0.060512,0.18483,-0.873276,-0.06412,-0.05082,0.5257
12.5763,0,0,5,5,27.5763,27.5763,-20.9225,0.931116,21.6473,-0.0363731,-0.184193,0.0744101,1,1,3.78,1.8025,-1.82,-0.060512,0.18483,-0.873276,-0.06412,-0.05082,0.5257
12.5819,0,0,5,5,27.5819,27.5819,-20.9228,0.933466,21.6453,-0.00239808,-0.0192049,-0.188088,1,1,3.3425,1.7675,-1.4875,-0.026352,0.349652,-1.13375,-0.06412,-0.05082,0.5257
12.5733,0,0,5,5,27.5733,27.5733,-20.9219,0.933146,21.6437,-0.00239249,-0.0191896,-0.188082,1,1,4.0425,0.2275,-1.8375,-0.026352,0.349652,-1.13375,-0.06412,-0.05082,0.5257
12.5689,0,0,5,5,27.5689,27.5689,-20.9204,0.931029,21.6427,0.228832,0.14021,-0.0230747,1,1,4.3575,-0.8925,-1.855,0.205814,0.508862,-0.970022,-0.06412,-0.05082,0.5257
12.5761,0,0,5,5,27.5761,27.5761,-20.9199,0.926592,21.6425,0.228909,0.140217,-0.0230709,1,1,3.745,-2.3275,-1.9075,0.205814,0.508862,-0.970022,-0.06356,-0.05348,0.52696
14.0058,0,0,5,5,29.0058,29.0058,-21.1162,1.05002,21.6393,0.109036,0.131659,0.130458,0,1,4.62,-2.94,-1.855,0.087596,0.503494,-0.816424,-0.06356,-0.05348,0.52696
14.1064,0,0,5,5,29.1064,29.1064,-21.3101,1.17429,21.6348,0.106867,0.12852,0.129194,0,1,3.92,-0.98,-1.75,0.087596,0.503494,-0.816424,-0.06356,-0.05348,0.52696
13.1195,0,0,5,5,28.1195,28.1195,-21.3521,1.34186,21.633,0.148528,0.022587,0.0453859,0,1,3.7275,-0.28,-1.575,0.13237,0.39833,-0.899262,-0.06356,-0.05348,0.52696
13.1583,0,0,5,5,28.1583,28.1583,-21.396,1.50942,21.63,0.145605,0.021901,0.0450392,0,1,2.275,1.68,-1.47,0.13237,0.39833,-0.899262,-0.06356,-0.05348,0.52696
11.9688,0,0,5,5,26.9688,26.9688,-21.2725,1.41737,21.6308,-0.0900506,-0.0922494,-0.091595,0,1,2.9575,2.345,-1.4875,-0.105896,0.282308,-1.03566,-0.06356,-0.05348,0.52696
11.9048,0,0,5,5,26.9048,26.9048,-21.1503,1.32843,21.6318,-0.0884988,-0.0902759,-0.0907892,0,1,3.5175,2.9925,-0.945,-0.105896,0.282308,-1.03566,-0.06356,-0.05348,0.52696
11.0991,0,0,5,5,26.0991,26.0991,-20.9274,1.36327,21.6363,0.0316501,-0.184218,-0.134282,0,1,2.52,2.345,-0.4725,0.015372,0.18483,-1.08019,-0.06356,-0.05348,0.52696
10.9825,0,0,5,5,25.9825,25.9825,-20.7067,1.39567,21.6424,0.0310847,-0.180615,-0.132926,0,1,3.5525,1.05,0.0175,0.015372,0.18483,-1.08019,-0.06356,-0.04522,0.52836
13.434,0,0,5,5,28.434,28.434,-20.8416,1.58467,21.6401,0.188999,0.14879,-0.017286,0,1,2.905,0.2275,-0.0875,0.177266,0.51606,-0.964532,-0.06356,-0.04522,0.52836
13.5067,0,0,5,5,28.5067,28.5067,-20.9753,1.76667,21.6383,0.185823,0.146644,-0.0182051,0,1,2.135,-1.855,-0.2975,0.177266,0.51606,-0.964532,-0.06356,-0.04522,0.52836
13.6334,0,0,5,5,28.6334,28.6334,-21.1153,1.99901,21.6358,0.215544,0.109117,0.0701768,0,1,2.695,-2.2925,-0.5075,0.211182,0.480802,-0.875838,-0.06356,-0.04522,0.52836
13.6958,0,0,5,5,28.6958,28.6958,-21.2523,2.22915,21.6321,0.21153,0.106942,0.069175,0,1,2.9575,-0.98,-0.455,0.211182,0.480802,-0.875838,-0.06356,-0.04522,0.52836
14.3054,0,0,5,5,29.3054,29.3054,-21.4619,2.35538,21.624,0.101692,0.128851,0.155301,0,1,3.7275,0.4375,-0.525,0.10309,0.506056,-0.788974,-0.06356,-0.04522,0.52836
14.3948,0,0,5,5,29.3948,29.3948,-21.6664,2.48096,21.6149,0.0995022,0.125568,0.153905,0,1,4.3925,1.54,-0.5425,0.10309,0.506056,-0.788974,-0.06356,-0.04522,0.52836
13.0189,0,0,5,5,28.0189,28.0189,-21.6646,2.48352,21.6152,0.170648,0.150511,-0.113499,1,1,4.48,1.4,-0.1925,0.174582,0.530944,-1.05432,-0.06356,-0.04522,0.52836
13.0277,0,0,5,5,28.0277,28.0277,-21.6642,2.48587,21.6154,0.170607,0.150519,-0.113498,1,1,3.745,1.295,-0.2625,0.174582,0.530944,-1.05432,-0.06356,-0.04522,0.52836
12.49,0,0,5,5,27.49,27.49,-21.5898,2.51648,21.6188,0.0219825,-0.0789629,0.0265056,0,1,3.745,1.295,-0.2975,0.025864,0.300486,-0.915854,-0.0651,-0.04396,0.53634
13.5447,0,0,5,5,28.5447,28.5447,-21.6666,2.51935,21.6162,0.00480281,0.0810004,-0.0134564,0,1,2.0825,-0.21,-0.5425,0.008662,0.461526,-0.955016,-0.0651,-0.04396,0.53634
13.5779,0,0,5,5,28.5779,28.5779,-21.7415,2.51999,21.6141,0.0047917,0.0797861,-0.0139403,0,1,2.275,-1.4875,-0.7875,0.008662,0.461526,-0.955016,-0.0651,-0.04396,0.53634
13.9313,0,0,5,5,28.9313,28.9313,-21.8589,2.47057,21.6106,-0.0418475,0.055889,0.11898,0,1,2.6775,-2.2575,-0.84,-0.03904,0.439566,-0.822402,-0.0651,-0.04396,0.53634
13.982,0,0,5,5,28.982,28.982,-21.9735,2.42187,21.6063,-0.0409984,0.0540212,0.118267,0,1,2.9925,-2.17,-1.3825,-0.03904,0.439566,-0.822402,-0.0651,-0.04396,0.53634
12.9658,0,0,5,5,27.9658,27.9658,-21.9388,2.0779,21.6077,-0.29012,-0.0694635,0.0941226,0,1,3.395,-1.5925,-1.54,-0.29524,0.315736,-0.846802,-0.0651,-0.04396,0.53634
12.9526,0,0,5,5,27.9526,27.9526,-21.905,1.74288,21.6072,-0.284276,-0.0689905,0.0945231,0,1,3.22,0.245,-1.855,-0.29524,0.315736,-0.846802,-0.0651,-0.04396,0.53634
13.3599,0,0,5,5,28.3599,28.3599,-21.9301,1.91454,21.6038,0.169759,0.0451945,-0.050808,0,1,2.59,1.4525,-1.995,0.163724,0.430172,-0.990762,-0.0651,-0.04396,0.53634
13.3722,0,0,5,5,28.3722,28.3722,-21.9547,2.08396,21.601,0.166804,0.0448344,-0.0510643,0,1,2.555,1.855,-1.4175,0.163724,0.430172,-0.990762,-0.06118,-0.03486,0.54096
13.2258,0,0,5,5,28.2258,28.2258,-21.9572,2.08692,21.5992,0.173191,-0.00478728,-0.340871,1,1,2.1875,2.065,-1.2075,0.17019,0.38064,-1.27832,-0.06118,-0.03486,0.54096
13.219,0,0,5,5,28.219,28.219,-21.9584,2.08814,21.5982,0.17317,-0.0048068,-0.34088,1,1,2.835,0.945,-1.155,0.17019,0.38064,-1.27832,-0.06118,-0.03486,0.54096
14.0552,0,0,5,5,29.0552,29.0552,-22.0745,2.15585,21.5934,0.0676326,0.121442,-0.00553889,0,1,2.555,0.035,-1.2425,0.065392,0.508618,-0.944768,-0.06118,-0.03486,0.54096
14.1151,0,0,5,5,29.1151,29.1151,-22.1893,2.22077,21.589,0.0665005,0.119605,-0.00633302,0,1,2.1,-0.8925,-1.295,0.065392,0.508618,-0.944768,-0.06118,-0.03486,0.54096
12.5699,0,0,5,5,27.5699,27.5699,-22.0819,2.51045,21.5933,0.269311,-0.106959,-0.00569763,0,1,2.5725,-0.77,-1.365,0.274134,0.280478,-0.944646,-0.06118,-0.03486,0.54096
12.5164,0,0,5,5,27.5164,27.5164,-21.9759,2.79505,21.5983,0.264349,-0.10516,-0.00521797,0,1,2.8175,-0.7175,-1.1725,0.274134,0.280478,-0.944646,-0.06118,-0.03486,0.54096
13.2325,0,0,5,5,28.2325,28.2325,-21.9773,2.79405,21.5983,-0.00764006,-0.0337378,0.164197,1,1,2.765,-0.49,-1.0675,0.000976,0.351848,-0.77653,-0.06118,-0.03486,0.54096
13.2256,0,0,5,5,28.2256,28.2256,-21.9775,2.79539,21.5972,-0.00766332,-0.0337407,0.164195,1,1,3.4125,1.015,-1.155,0.000976,0.351848,-0.77653,-0.06496,-0.03444,0.55188
13.2345,0,0,5,5,28.2345,28.2345,-21.9788,2.79745,21.5961,-0.336683,0.103386,-0.202202,1,1,2.765,1.435,-1.05,-0.3294,0.488854,-1.14009,-0.06496,-0.03444,0.55188
13.2429,0,0,5,5,28.2429,28.2429,-21.9812,2.8002,21.595,-0.33673,0.103349,-0.20222,1,1,2.205,1.785,-0.8575,-0.3294,0.488854,-1.14009,-0.06496,-0.03444,0.55188
13.0821,0,0,5,5,28.0821,28.0821,-21.9612,3.16293,21.5954,0.361321,-0.0166216,-0.0185867,0,1,2.1875,1.26,-0.875,0.377956,0.368562,-0.9577,-0.06496,-0.03444,0.55188
13.0765,0,0,5,5,28.0765,28.0765,-21.942,3.51735,21.5966,0.355146,-0.0161771,-0.0187961,0,1,1.89,0.1225,-0.875,0.377956,0.368562,-0.9577,-0.06496,-0.03444,0.55188
13.5221,0,0,5,5,28.5221,28.5221,-21.9857,3.57082,21.5945,0.057668,0.0638645,-0.0509779,0,1,1.9425,-0.315,-0.77,0.080154,0.449204,-0.989298,-0.06496,-0.03444,0.55188
13.5297,0,0,5,5,28.5297,28.5297,-22.0268,3.62187,21.5929,0.0567788,0.063222,-0.0512979,0,1,2.9225,-1.19,-0.805,0.080154,0.449204,-0.989298,-0.06496,-0.03444,0.55188
13.2634,0,0,5,5,28.2634,28.2634,-22.0278,3.62053,21.5934,0.237451,0.0345055,0.308567,1,1,2.9225,-0.77,-0.91,0.261568,0.420534,-0.632204,-0.06496,-0.03444,0.55188
13.2609,0,0,5,5,28.2609,28.2609,-22.0283,3.61985,21.5936,0.237463,0.0344968,0.308564,1,1,3.2025,-0.35,-0.9275,0.261568,0.420534,-0.632204,-0.06692,-0.01274,0.5663
13.6536,0,0,5,5,28.6536,28.6536,-22.0828,3.44503,21.5904,-0.16987,0.0842291,-0.063291,0,1,3.36,-0.105,-0.8575,-0.150548,0.471164,-1.00101,-0.06692,-0.01274,0.5663
13.6931,0,0,5,5,28.6931,28.6931,-22.1382,3.27409,21.5871,-0.166892,0.0832696,-0.0634921,0,1,2.2925,0.2975,-0.875,-0.150548,0.471164,-1.00101,-0.06692,-0.01274,0.5663
13.3377,0,0,5,5,28.3377,28.3377,-22.14,3.27503,21.5867,0.391926,-0.07699,-0.235633,1,1,2.485,0.665,-0.91,0.410652,0.3111,-1.17181,-0.06692,-0.01274,0.5663
13.3496,0,0,5,5,28.3496,28.3496,-22.1433,3.27653,21.586,0.3919,-0.0770425,-0.235656,1,1,1.68,1.0325,-0.9275,0.410652,0.3111,-1.17181,-0.06692,-0.01274,0.5663
12.6903,0,0,5,5,27.6903,27.6903,-22.0555,2.93637,21.5909,-0.302658,-0.10579,0.0471385,0,1,1.1025,0.5775,-0.7175,-0.2928,0.281088,-0.892064,-0.06692,-0.01274,0.5663
12.6377,0,0,5,5,27.6377,27.6377,-21.9677,2.60045,21.596,-0.296802,-0.104477,0.0479747,0,1,2.0125,-0.595,-0.7,-0.2928,0.281088,-0.892064,-0.06692,-0.01274,0.5663
12.7348,0,0,5,5,27.7348,27.7348,-21.9005,2.30824,21.6,-0.272877,-0.063169,-0.0185147,0,1,1.9775,-1.0325,-0.6825,-0.27389,0.321348,-0.958676,-0.06692,-0.01274,0.5663
12.7,0,0,5,5,27.7,27.7,-21.834,2.02144,21.6038,-0.267875,-0.0621628,-0.0179071,0,1,2.275,-1.05,-0.525,-0.27389,0.321348,-0.958676,-0.0658,0.00616,0.5789
13.1467,0,0,5,5,28.1467,28.1467,-21.8344,2.01983,21.6049,0.153466,-0.102227,0.131842,1,1,3.255,-1.05,-0.6475,0.149206,0.281332,-0.81008,-0.0658,0.00616,0.5789
13.1437,0,0,5,5,28.1437,28.1437,-21.8343,2.0197,21.6055,0.153468,-0.102226,0.131843,1,1,3.535,-0.14,-0.5775,0.149206,0.281332,-0.81008,-0.0658,0.00616,0.5789
13.1418,0,0,5,5,28.1418,28.1418,-21.8339,2.01983,21.606,0.22575,0.175985,-0.109502,1,1,3.71,0.0175,-0.5775,0.221796,0.559248,-1.04957,-0.0658,0.00616,0.5789
13.1578,0,0,5,5,28.1578,28.1578,-21.8357,2.02076,21.6061,0.225734,0.175956,-0.109515,1,1,2.485,0.5425,-0.6125,0.221796,0.559248,-1.04957,-0.0658,0.00616,0.5789
13.1702,0,0,5,5,28.1702,28.1702,-21.839,2.0224,21.6061,-0.207027,0.0330146,-0.42072,1,1,1.645,0.945,-0.5075,-0.212768,0.416508,-1.35835,-0.0658,0.00616,0.5789
13.1868,0,0,5,5,28.1868,28.1868,-21.8443,2.02346,21.6062,-0.207046,0.0329294,-0.420755,1,1,0.5425,0.63,-0.63,-0.212768,0.416508,-1.35835,-0.0658,0.00616,0.5789
15.1396,0,0,5,5,30.1396,30.1396,-22.1178,2.10369,21.5969,0.0721869,0.215867,0.126501,0,1,1.085,0.1925,-0.5775,0.069052,0.603656,-0.813496,-0.0658,0.00616,0.5789
15.2652,0,0,5,5,30.2652,30.2652,-22.386,2.18134,21.5879,0.0708327,0.211557,0.124683,0,1,1.2775,-0.5075,-0.525,0.069052,0.603656,-0.813496,-0.06216,-0.00574,0.56882
13.4938,0,0,5,5,28.4938,28.4938,-22.3883,2.18036,21.5885,0.00148141,-0.139228,0.208274,1,1,2.24,-0.6125,-0.7525,-0.00061,0.253272,-0.730536,-0.06216,-0.00574,0.56882
13.4881,0,0,5,5,28.4881,28.4881,-22.3895,2.1791,21.5888,0.00150341,-0.139247,0.208266,1,1,2.8175,-0.6825,-1.015,-0.00061,0.253272,-0.730536,-0.06216,-0.00574,0.56882
13.492,0,0,5,5,28.492,28.492,-22.3911,2.17772,21.5886,-0.0388058,0.235167,-0.171163,1,1,2.6075,-0.6475,-1.2775,-0.041114,0.627324,-1.10703,-0.06216,-0.00574,0.56882
13.4901,0,0,5,5,28.4901,28.4901,-22.3922,2.17694,21.5878,-0.0387922,0.235148,-0.17117,1,1,2.87,-0.175,-1.505,-0.041114,0.627324,-1.10703,-0.06216,-0.00574,0.56882
13.4954,0,0,5,5,28.4954,28.4954,-22.394,2.17687,21.586,0.451647,0.248676,0.000208802,1,1,2.555,0.42,-1.855,0.4514,0.640866,-0.93696,-0.06216,-0.00574,0.56882
13.4968,0,0,5,5,28.4968,28.4968,-22.3957,2.1768,21.5842,0.451648,0.248648,0.000197181,1,1,2.555,0.42,-1.855,0.4514,0.640866,-0.93696,-0.06216,-0.00574,0.56882
13.5056,0,0,5,5,28.5056,28.5056,-22.3985,2.17623,21.5812,-0.29803,-0.0669727,-0.150433,1,1,2.0125,0.42,-2.625,-0.301462,0.325618,-1.08641,-0.06216,-0.00574,0.56882
13.5076,0,0,5,5,28.5076,28.5076,-22.4013,2.17566,21.5782,-0.29802,-0.0670175,-0.150451,1,1,2.0125,0.42,-2.625,-0.301462,0.325618,-1.08641,-0.06216,-0.00574,0.56882
13.5137,0,0,5,5,28.5137,28.5137,-22.4046,2.17455,21.576,0.15016,-0.027991,0.119646,1,1,1.68,-0.0525,-2.31,0.148596,0.364658,-0.818376,-0.06132,-0.0154,0.55958
13.5069,0,0,5,5,28.5069,28.5069,-22.4067,2.17336,21.574,-0.0380008,0.0263217,0.222294,1,1,2.38,-0.14,-2.205,-0.040382,0.418948,-0.716506,-0.06132,-0.0154,0.55958
13.5085,0,0,5,5,28.5085,28.5085,-22.4088,2.17218,21.572,-0.0379802,0.0262879,0.222281,1,1,2.38,-0.14,-2.205,-0.040382,0.418948,-0.716506,-0.06132,-0.0154,0.55958
13.0649,0,0,5,5,28.0649,28.0649,-22.3496,2.26474,21.5735,0.0971984,-0.0274467,-0.0952053,0,1,2.31,-0.3325,-1.5925,0.09699,0.364292,-1.03188,-0.06132,-0.0154,0.55958
13.0377,0,0,5,5,28.0377,28.0377,-22.2915,2.35558,21.5751,0.0956142,-0.0264854,-0.0948798,0,1,2.31,-0.3325,-1.5925,0.09699,0.364292,-1.03188,-0.06132,-0.0154,0.55958
13.6356,0,0,5,5,28.6356,28.6356,-22.3204,2.47178,21.5735,0.113512,0.0391506,-0.0272828,0,1,2.24,0.8225,-0.84,0.116998,0.430294,-0.964532,-0.06132,-0.0154,0.55958
13.6494,0,0,5,5,28.6494,28.6494,-22.3488,2.58582,21.5719,0.111523,0.0387257,-0.0275523,0,1,2.24,0.8225,-0.84,0.116998,0.430294,-0.964532,-0.06132,-0.0154,0.55958
13.3078,0,0,5,5,28.3078,28.3078,-22.3278,2.58036,21.5741,-0.0063442,-0.022367,-0.00761444,0,1,0.9625,0.5425,-0.035,-0.001464,0.368928,-0.94489,-0.06132,-0.0154,0.55958
14.2462,0,0,5,5,29.2462,29.2462,-22.4377,2.62706,21.5708,0.0455663,0.107529,0.00268748,0,1,0.1575,0.5425,0.2275,0.051484,0.500444,-0.93391,-0.05698,-0.01778,0.56616
14.2898,0,0,5,5,29.2898,29.2898,-22.5444,2.67295,21.5685,0.0447663,0.105824,0.00194152,0,1,0.735,0.35,0.77,0.051484,0.500444,-0.93391,-0.05698,-0.01778,0.56616
13.8262,0,0,5,5,28.8262,28.8262,-22.5785,2.5215,21.5703,-0.137737,0.00533007,0.055061,0,1,0.91,0.2625,1.1725,-0.134444,0.400648,-0.881084,-0.05698,-0.01778,0.56616
13.2734,0,0,5,5,28.2734,28.2734,-22.5336,2.7491,21.5754,0.204043,-0.0599479,0.0286355,0,1,1.2775,0.105,0.945,0.212768,0.334646,-0.907436,-0.05698,-0.01778,0.56616
13.2488,0,0,5,5,28.2488,28.2488,-22.489,2.97177,21.5804,0.200161,-0.0591554,0.028754,0,1,1.575,-0.2625,0.6475,0.212768,0.334646,-0.907436,-0.05698,-0.01778,0.56616
13.5726,0,0,5,5,28.5726,28.5726,-22.4926,2.97214,21.5827,-0.282265,-0.223474,-0.147333,1,1,1.4175,-0.245,0.42,-0.271694,0.170556,-1.08214,-0.05698,-0.01778,0.56616
13.5798,0,0,5,5,28.5798,28.5798,-22.4968,2.97294,21.5839,-0.282279,-0.223542,-0.147361,1,1,1.085,0.21,-0.0175,-0.271694,0.170556,-1.08214,-0.05698,-0.01778,0.56616
13.5959,0,0,5,5,28.5959,28.5959,-22.5029,2.97322,21.5846,0.129067,-0.0127263,0.20546,1,1,0.0875,0.07,-0.4725,0.141398,0.38125,-0.732,-0.06062,-0.02226,0.55818
13.6114,0,0,5,5,28.6114,28.6114,-22.5105,2.97222,21.584,0.0504831,0.301382,0.453889,1,1,-0.77,-0.35,-1.4175,0.062464,0.695156,-0.485438,-0.06062,-0.02226,0.55818
13.5547,0,0,5,5,28.5547,28.5547,-22.5097,2.97043,21.582,0.0505143,0.301395,0.453896,1,1,4.025,-0.4725,-2.3275,0.062464,0.695156,-0.485438,-0.06062,-0.02226,0.55818
13.6031,0,0,5,5,28.6031,28.6031,-22.5155,2.96902,21.5794,-0.0368093,-0.137867,-0.43174,1,1,0.2975,-0.1225,-2.59,-0.025254,0.256444,-1.3642,-0.06062,-0.02226,0.55818
13.6085,0,0,5,5,28.6085,28.6085,-22.5216,2.96838,21.5757,-0.0367983,-0.137965,-0.43178,1,1,0.21,0.56,-3.045,-0.025254,0.256444,-1.3642,-0.06062,-0.02226,0.55818
13.604,0,0,5,5,28.604,28.604,-22.5265,2.96736,21.5716,-0.0741979,0.0489316,0.378911,1,1,0.875,0.42,-3.3075,-0.06283,0.443226,-0.559736,-0.06062,-0.02226,0.55818
13.6145,0,0,5,5,28.6145,28.6145,-22.5324,2.96581,21.5675,-0.0741709,0.0488362,0.378872,1,1,0.315,0.14,-3.43,-0.06283,0.443226,-0.559736,-0.06062,-0.02226,0.55818
13.6205,0,0,5,5,28.6205,28.6205,-22.5386,2.96452,21.5632,-0.0931004,0.0906256,-0.0777985,1,1,0.1575,0.3325,-3.4825,-0.081862,0.485072,-1.01284,-0.06062,-0.02226,0.55818
13.6386,0,0,5,5,28.6386,28.6386,-22.5467,2.96475,21.5596,-0.0931042,0.0904951,-0.0778529,1,1,-0.945,0.98,-2.7475,-0.081862,0.485072,-1.01284,-0.06328,-0.02268,0.55412
13.4176,0,0,5,5,28.4176,28.4176,-22.5237,2.81389,21.5581,-0.138826,-0.0377848,0.0143889,0,1,-1.5925,0.98,-2.485,-0.130418,0.356606,-0.921588,-0.06328,-0.02268,0.55412
13.4163,0,0,5,5,28.4163,28.4163,-22.5024,2.6661,21.5572,-0.136249,-0.0374884,0.0146452,0,1,-2.31,0.98,-2.0475,-0.130418,0.356606,-0.921588,-0.06328,-0.02268,0.55412
13.6366,0,0,5,5,28.6366,28.6366,-22.5131,2.66764,21.5553,-0.0727393,-0.00407542,-0.134564,1,1,-2.45,1.295,-1.505,-0.066612,0.390156,-1.06957,-0.06328,-0.02268,0.55412
13.6439,0,0,5,5,28.6439,28.6439,-22.5238,2.66937,21.5555,-0.0727695,-0.00424823,-0.134637,1,1,-2.5375,0.9625,-0.4025,-0.066612,0.390156,-1.06957,-0.06328,-0.02268,0.55412
13.6488,0,0,5,5,28.6488,28.6488,-22.5343,2.67137,21.5563,0.330528,-0.157686,-0.122045,1,1,-2.415,0.9625,0,0.338428,0.237046,-1.05701,-0.06328,-0.02268,0.55412
13.6556,0,0,5,5,28.6556,28.6556,-22.5449,2.67233,21.5582,0.330511,-0.157855,-0.122116,1,1,-2.45,0.1575,0.35,0.338428,0.237046,-1.05701,-0.06328,-0.02268,0.55412
14.3812,0,0,5,5,29.3812,29.3812,-22.6543,2.50141,21.5557,-0.172375,0.126474,-0.0408416,0,1,-2.4325,0.1575,0.42,-0.16958,0.522892,-0.975756,-0.06328,-0.02268,0.55412
14.4237,0,0,5,5,29.4237,29.4237,-22.7606,2.33321,21.5534,-0.169442,0.124717,-0.0414425,0,1,-1.75,-0.0175,0.21,-0.16958,0.522892,-0.975756,-0.06468,-0.02366,0.55286
13.784,0,0,5,5,28.784,28.784,-22.7699,2.33391,21.5546,0.235093,-0.135685,-0.207364,1,1,-1.785,0.175,-0.0875,0.23668,0.26291,-1.14033,-0.06468,-0.02366,0.55286
13.7914,0,0,5,5,28.7914,28.7914,-22.7795,2.33385,21.5554,0.235094,-0.13584,-0.207428,1,1,-1.89,-0.1575,-0.455,0.23668,0.26291,-1.14033,-0.06468,-0.02366,0.55286
13.8049,0,0,5,5,28.8049,28.8049,-22.7901,2.33289,21.5558,-0.112824,0.0536526,-0.209467,1,1,-2.45,-0.56,-0.8575,-0.112728,0.452376,-1.14229,-0.06468,-0.02366,0.55286
13.8235,0,0,5,5,28.8235,28.8235,-22.8024,2.33186,21.5553,-0.112806,0.0534557,-0.209549,1,1,-3.3425,-0.3675,-1.4175,-0.112728,0.452376,-1.14229,-0.06468,-0.02366,0.55286
13.832,0,0,5,5,28.832,28.832,-22.8147,2.3307,21.554,-0.136111,0.0431203,-0.135124,1,1,-3.395,-0.28,-1.82,-0.136152,0.44225,-1.06835,-0.06468,-0.02366,0.55286
13.8437,0,0,5,5,28.8437,28.8437,-22.8276,2.33006,21.5518,-0.1361,0.042913,-0.135211,1,1,-3.675,0.21,-2.1875,-0.136152,0.44225,-1.06835,-0.06468,-0.02366,0.55286
13.8489,0,0,5,5,28.8489,28.8489,-22.8401,2.32863,21.5495,0.142127,0.0634734,0.174658,1,1,-3.4475,-0.175,-2.4675,0.143228,0.46299,-0.760792,-0.06468,-0.02366,0.55286
13.8586,0,0,5,5,28.8586,28.8586,-22.8528,2.32741,21.5469,0.142149,0.0632682,0.174573,1,1,-3.5875,-0.0175,-2.5375,0.143228,0.46299,-0.760792,-0.06468,-0.02366,0.55286
12.7574,0,0,5,5,27.7574,27.7574,-22.713,2.28643,21.5508,-0.037786,-0.145407,-0.0107229,0,1,-4.025,-0.0175,-2.345,-0.038186,0.252296,-0.945622,-0.06986,-0.02422,0.54656
13.5023,0,0,5,5,28.5023,28.5023,-22.6871,2.50252,21.5502,0.220126,-0.019139,-0.0553245,0,1,-3.535,0.3675,-2.1525,0.224602,0.377956,-0.989908,-0.06986,-0.02422,0.54656
13.5063,0,0,5,5,28.5063,28.5063,-22.6638,2.71644,21.55,0.216396,-0.0186997,-0.0553251,0,1,-4.76,1.225,-1.5575,0.224602,0.377956,-0.989908,-0.06986,-0.02422,0.54656
13.7703,0,0,5,5,28.7703,28.7703,-22.6788,2.71773,21.5485,-0.255112,-0.27101,-0.252513,1,1,-4.8475,1.1025,-1.4,-0.24888,0.126148,-1.18547,-0.06986,-0.02422,0.54656
13.7854,0,0,5,5,28.7854,28.7854,-22.6946,2.71885,21.548,-0.255132,-0.271263,-0.25262,1,1,-5.32,0.7875,-0.9275,-0.24888,0.126148,-1.18547,-0.06986,-0.02422,0.54656
12.6968,0,0,5,5,27.6968,27.6968,-22.5592,2.54022,21.5547,-0.17949,-0.119533,-0.111295,0,1,-5.67,1.0675,-0.6125,-0.176046,0.275598,-1.04627,-0.06986,-0.02422,0.54656
12.6338,0,0,5,5,27.6338,27.6338,-22.4262,2.36479,21.5609,-0.176431,-0.117442,-0.110288,0,1,-5.67,1.0675,-0.6125,-0.176046,0.275598,-1.04627,-0.06986,-0.02422,0.54656
15.1048,0,0,5,5,30.1048,30.1048,-22.6443,2.36323,21.552,-0.00413736,0.15151,0.11485,0,1,-5.005,0.595,-0.9625,-0.00305,0.54778,-0.821426,-0.0623,-0.0252,0.55244
12.8146,0,0,5,5,27.8146,27.8146,-22.5291,2.41887,21.5567,0.0587939,-0.0960025,-0.114698,0,1,-5.145,0.5425,-1.1725,0.061122,0.298656,-1.04993,-0.0623,-0.0252,0.55244
12.7552,0,0,5,5,27.7552,27.7552,-22.4152,2.47217,21.5606,0.0578643,-0.0941523,-0.113976,0,1,-4.6725,0,-1.855,0.061122,0.298656,-1.04993,-0.0623,-0.0252,0.55244
16.6573,0,0,5,5,31.6573,31.6573,-22.8477,2.73878,21.5395,0.251359,0.324704,0.255953,0,1,-5.3375,0.0525,-2.2575,0.260104,0.723948,-0.679784,-0.0623,-0.0252,0.55244
16.8674,0,0,5,5,31.8674,31.8674,-23.2733,3.00088,21.5167,0.24679,0.317967,0.252836,0,1,-5.3375,0.0525,-2.2575,0.260104,0.723948,-0.679784,-0.0623,-0.0252,0.55244
14.1421,0,0,5,5,29.1421,29.1421,-23.2887,3.00052,21.5144,0.188848,0.0266924,-0.129147,1,1,-5.0575,0.42,-2.24,0.20191,0.433222,-1.05872,-0.0623,-0.0252,0.55244
14.1517,0,0,5,5,29.1517,29.1517,-23.3041,3.00016,21.512,0.188854,0.0264459,-0.129253,1,1,-5.0575,0.42,-2.24,0.20191,0.433222,-1.05872,-0.0623,-0.0252,0.55244
14.1696,0,0,5,5,29.1696,29.1696,-23.3206,3.00081,21.5099,0.610884,0.219752,0.222511,1,1,-5.705,0.8925,-1.855,0.625738,0.626592,-0.709552,-0.0623,-0.0252,0.55244
14.1799,0,0,5,5,29.1799,29.1799,-23.3371,3.00145,21.5078,0.610873,0.219488,0.222396,1,1,-5.705,0.8925,-1.855,0.625738,0.626592,-0.709552,-0.0609,-0.02926,0.54418
14.2041,0,0,5,5,29.2041,29.2041,-23.3556,3.00208,21.5071,-0.128621,-0.100413,0.255341,1,1,-6.825,0.56,-1.1025,-0.116876,0.307318,-0.676734,-0.0609,-0.02926,0.54418
14.2155,0,0,5,5,29.2155,29.2155,-23.374,3.00271,21.5064,-0.128632,-0.100708,0.255213,1,1,-6.825,0.56,-1.1025,-0.116876,0.307318,-0.676734,-0.0609,-0.02926,0.54418
13.6319,0,0,5,5,28.6319,28.6319,-23.3106,3.22182,21.5122,0.21597,-0.0703,-0.0407222,0,1,-6.755,0.175,0.07,0.23302,0.336598,-0.970632,-0.0609,-0.02926,0.54418
14.1847,0,0,5,5,29.1847,29.1847,-23.3284,3.22199,21.5143,-0.135127,-0.137511,-0.195023,1,1,-6.5625,-0.35,0.315,-0.11956,0.269742,-1.12362,-0.0609,-0.02926,0.54418
14.1981,0,0,5,5,29.1981,29.1981,-23.3466,3.22182,21.5168,-0.135124,-0.137801,-0.195148,1,1,-6.755,-0.595,0.385,-0.11956,0.269742,-1.12362,-0.0609,-0.02926,0.54418
14.2115,0,0,5,5,29.2115,29.2115,-23.365,3.22164,21.5191,0.00446659,-0.094375,0.251028,1,1,-6.9125,-0.5775,0.3325,0.020618,0.313418,-0.68076,-0.0609,-0.02926,0.54418
14.2268,0,0,5,5,29.2268,29.2268,-23.384,3.2229,21.5206,0.00444462,-0.0946782,0.250895,1,1,-7.1925,0.385,0.2275,0.020618,0.313418,-0.68076,-0.0609,-0.02926,0.54418
14.1956,0,0,5,5,29.1956,29.1956,-23.3971,3.13633,21.5219,-0.080909,-0.0292164,0.0541643,0,1,-7.035,0.42,-0.14,-0.066612,0.379054,-0.87596,-0.05908,-0.03612,0.5383
14.2491,0,0,5,5,29.2491,29.2491,-23.4164,3.13609,21.522,0.371629,0.0708628,-0.0461722,1,1,-7.3325,-0.105,-0.8575,0.387838,0.479338,-0.97539,-0.05908,-0.03612,0.5383
14.2577,0,0,5,5,29.2577,29.2577,-23.4353,3.13451,21.5204,0.371657,0.0705608,-0.0463014,1,1,-7.0175,-0.42,-2.0825,0.387838,0.479338,-0.97539,-0.05908,-0.03612,0.5383
14.3998,0,0,5,5,29.3998,29.3998,-23.4721,3.11467,21.5174,-0.0151723,0.0401659,-0.049982,0,1,-7.3675,-0.175,-2.275,-0.000976,0.44957,-0.978806,-0.05908,-0.03612,0.5383
14.4193,0,0,5,5,29.4193,29.4193,-23.5085,3.09653,21.5131,-0.014856,0.0395774,-0.050219,0,1,-7.4725,0.875,-2.73,-0.000976,0.44957,-0.978806,-0.05908,-0.03612,0.5383
15.3991,0,0,5,5,30.3991,30.3991,-23.6766,2.93433,21.5017,-0.158176,0.14296,0.0356688,0,1,-7.35,0.9625,-2.765,-0.147742,0.555588,-0.892552,-0.05908,-0.03612,0.5383
15.4756,0,0,5,5,30.4756,30.4756,-23.8414,2.77481,21.4914,-0.155396,0.140275,0.0346385,0,1,-7.175,0.735,-2.555,-0.147742,0.555588,-0.892552,-0.05908,-0.03612,0.5383
14.516,0,0,5,5,29.516,29.516,-23.8605,2.77512,21.4884,0.206869,-0.00706942,0.221386,1,1,-7.105,0.9275,-2.3975,0.216062,0.4087,-0.707112,-0.05908,-0.03612,0.5383
14.5307,0,0,5,5,29.5307,29.5307,-23.8799,2.77584,21.4857,0.206857,-0.00737929,0.221248,1,1,-7.3325,1.085,-2.135,0.216062,0.4087,-0.707112,-0.06146,-0.03332,0.54684
14.545,0,0,5,5,29.545,29.545,-23.8997,2.77634,21.4837,-0.106221,-0.0103809,0.109225,1,1,-7.525,0.805,-1.8375,-0.098332,0.406016,-0.818132,-0.06146,-0.03332,0.54684
14.5681,0,0,5,5,29.5681,29.5681,-23.921,2.77778,21.4821,-0.106246,-0.0107195,0.109073,1,1,-8.3825,1.2075,-1.3825,-0.098332,0.406016,-0.818132,-0.06146,-0.03332,0.54684
14.5882,0,0,5,5,29.5882,29.5882,-23.9432,2.77905,21.4808,0.301074,0.0867503,-0.0643192,1,1,-8.925,1.05,-1.2775,0.310734,0.503738,-0.99003,-0.06146,-0.03332,0.54684
14.6008,0,0,5,5,29.6008,29.6008,-23.9653,2.78005,21.4794,0.301056,0.086399,-0.0644762,1,1,-8.8375,0.91,-1.3475,0.310734,0.503738,-0.99003,-0.06146,-0.03332,0.54684
14.6028,0,0,5,5,29.6028,29.6028,-23.9857,2.78011,21.4781,-0.18343,0.266088,-0.17884,1,1,-7.945,0.4025,-1.5575,-0.175802,0.683566,-1.10337,-0.06146,-0.03332,0.54684
14.602,0,0,5,5,29.602,29.602,-24.0044,2.78058,21.4769,-0.183438,0.265791,-0.178973,1,1,-6.9125,0.6125,-1.435,-0.175802,0.683566,-1.10337,-0.06146,-0.03332,0.54684
13.478,0,0,5,5,28.478,28.478,-23.8667,2.93193,21.4829,0.152626,-0.130462,-0.0849249,0,1,-5.4775,0.455,-1.75,0.164334,0.28548,-1.01089,-0.06146,-0.03332,0.54684
13.431,0,0,5,5,28.431,28.431,-23.734,3.07936,21.4888,0.150056,-0.12829,-0.0841144,0,1,-6.825,-0.105,-2.205,0.164334,0.28548,-1.01089,-0.06146,-0.03332,0.54684
14.2364,0,0,5,5,29.2364,29.2364,-23.7229,2.81119,21.4877,-0.247873,-0.0478514,0.0387629,0,1,-7.35,0.455,-2.415,-0.239974,0.365756,-0.889258,-0.0623,-0.03178,0.5404
14.4618,0,0,5,5,29.4618,29.4618,-23.7437,2.81226,21.4842,0.185083,0.0125134,0.16095,1,1,-8.085,1.47,-2.52,0.194834,0.42639,-0.767868,-0.0623,-0.03178,0.5404
14.4849,0,0,5,5,29.4849,29.4849,-23.766,2.81421,21.481,0.185049,0.012159,0.160792,1,1,-8.89,1.855,-2.1175,0.194834,0.42639,-0.767868,-0.0623,-0.03178,0.5404
15.5416,0,0,5,5,30.5416,30.5416,-23.9318,2.53745,21.4716,-0.253791,0.0850208,0.12983,0,1,-7.77,1.2775,-2.0475,-0.25071,0.501908,-0.797636,-0.0623,-0.03178,0.5404
15.6163,0,0,5,5,30.6163,30.6163,-24.0941,2.26565,21.4644,-0.249052,0.0823544,0.12886,0,1,-7.525,1.015,-1.2425,-0.25071,0.501908,-0.797636,-0.0623,-0.03178,0.5404
13.9825,0,0,5,5,28.9825,28.9825,-24.0181,2.25711,21.4678,-0.00605277,-0.0552964,-0.114279,0,1,-6.5625,0.3675,-0.9275,-0.006832,0.363194,-1.03944,-0.0623,-0.03178,0.5404
13.9463,0,0,5,5,28.9463,28.9463,-23.9434,2.24873,21.4726,-0.00590668,-0.054108,-0.113744,0,1,-6.51,0.035,-0.1575,-0.006832,0.363194,-1.03944,-0.0623,-0.03178,0.5404
14.5746,0,0,5,5,29.5746,29.5746,-23.9613,2.2494,21.4742,0.234623,-0.0299671,-0.172763,1,1,-6.545,0.0525,0.105,0.234728,0.387594,-1.09788,-0.05684,-0.02954,0.53802
14.6061,0,0,5,5,29.6061,29.6061,-23.982,2.24998,21.4762,-0.22849,-0.133616,-0.183852,1,1,-8.1375,-0.1225,0.3675,-0.230336,0.284382,-1.10874,-0.05684,-0.02954,0.53802
14.6295,0,0,5,5,29.6295,29.6295,-24.0041,2.25095,21.4777,-0.228507,-0.133968,-0.18401,1,1,-8.9425,0.2275,0.14,-0.230336,0.284382,-1.10874,-0.05684,-0.02954,0.53802
12.6712,0,0,5,5,27.6712,27.6712,-23.7549,2.36333,21.4898,0.115767,-0.240975,-0.139905,0,1,-8.155,0.1575,-0.0175,0.117364,0.173484,-1.06665,-0.05684,-0.02954,0.53802
12.5216,0,0,5,5,27.5216,27.5216,-23.5056,2.47276,21.5026,0.113859,-0.23696,-0.138237,0,1,-5.705,-0.4025,-0.0875,0.117364,0.173484,-1.06665,-0.05684,-0.02954,0.53802
14.8614,0,0,5,5,29.8614,29.8614,-23.5988,2.54431,21.501,0.0670542,0.0568738,0.0523713,0,1,-4.7775,-1.0675,-0.21,0.071614,0.46848,-0.876814,-0.05684,-0.02954,0.53802
14.9122,0,0,5,5,29.9122,29.9122,-23.6913,2.61397,21.4988,0.0658398,0.0554186,0.0516745,0,1,-5.285,-1.2775,-0.6125,0.071614,0.46848,-0.876814,-0.05684,-0.02954,0.53802
14.4133,0,0,5,5,29.4133,29.4133,-23.7074,2.61185,21.4995,-0.108577,-0.180911,-0.21044,1,1,-5.565,-1.2425,-0.9975,-0.103578,0.232654,-1.1368,-0.05684,-0.02954,0.53802
14.4432,0,0,5,5,29.4432,29.4432,-23.7263,2.61254,21.4986,-0.108589,-0.181212,-0.210573,1,1,-7.0525,0.6475,-1.2075,-0.103578,0.232654,-1.1368,-0.06776,-0.02716,0.53312
14.4494,0,0,5,5,29.4494,29.4494,-23.7444,2.61377,21.497,-0.155747,-0.343074,-0.231357,1,1,-6.615,1.085,-1.4175,-0.150914,0.071248,-1.15729,-0.06776,-0.02716,0.53312
14.4606,0,0,5,5,29.4606,29.4606,-23.7625,2.6152,21.4955,-0.155772,-0.343363,-0.231485,1,1,-6.615,1.19,-1.365,-0.150914,0.071248,-1.15729,-0.06776,-0.02716,0.53312
14.471,0,0,5,5,29.471,29.471,-23.7805,2.61651,21.4951,-0.401681,-0.24033,-0.165466,1,1,-6.58,0.8575,-0.7875,-0.397842,0.17446,-1.09166,-0.06776,-0.02716,0.53312
14.4821,0,0,5,5,29.4821,29.4821,-23.7985,2.61781,21.4947,-0.401704,-0.240617,-0.165593,1,1,-6.58,0.8575,-0.7875,-0.397842,0.17446,-1.09166,-0.06776,-0.02716,0.53312
14.4814,0,0,5,5,29.4814,29.4814,-23.8149,2.61837,21.4954,-0.0463684,-0.0866316,0.0726881,1,1,-5.6875,0.1925,-0.3675,-0.040992,0.328546,-0.855098,-0.06776,-0.02716,0.53312
14.4915,0,0,5,5,29.4915,29.4915,-23.8312,2.61893,21.4961,-0.0463781,-0.0868923,0.0725725,1,1,-5.6875,0.1925,-0.3675,-0.040992,0.328546,-0.855098,-0.06776,-0.02716,0.53312
15.5634,0,0,5,5,30.5634,30.5634,-23.9937,2.75885,21.4904,0.134383,0.119524,0.0721804,0,1,-6.545,-0.525,-0.4025,0.142984,0.537288,-0.854244,-0.06776,-0.02716,0.53312
15.6404,0,0,5,5,30.6404,30.6404,-24.1533,2.89625,21.4846,0.131988,0.117032,0.0709376,0,1,-6.545,-0.525,-0.4025,0.142984,0.537288,-0.854244,-0.06048,-0.03556,0.52962
14.6953,0,0,5,5,29.6953,29.6953,-24.1696,2.89608,21.4843,0.0589779,0.139244,-0.0363898,1,1,-5.635,0.035,-1.0675,0.069662,0.559736,-0.960628,-0.06048,-0.03556,0.52962
14.7055,0,0,5,5,29.7055,29.7055,-24.1859,2.89591,21.484,0.0589809,0.138984,-0.0365061,1,1,-5.635,0.035,-1.0675,0.069662,0.559736,-0.960628,-0.06048,-0.03556,0.52962
16.5691,0,0,5,5,31.5691,31.5691,-24.4573,2.92845,21.4699,0.0354529,0.240814,0.0959022,0,1,-3.2025,-0.91,-1.8725,0.046604,0.665754,-0.827282,-0.06048,-0.03556,0.52962
13.6736,0,0,5,5,28.6736,28.6736,-24.3077,2.95969,21.4772,0.0264043,-0.16165,0.00129884,0,1,-3.7275,-0.6475,-1.8725,0.038064,0.261324,-0.922198,-0.06048,-0.03556,0.52962
13.6042,0,0,5,5,28.6042,28.6042,-24.1609,2.9914,21.4829,0.0258515,-0.159305,0.00232288,0,1,-3.7275,0.28,-2.4325,0.038064,0.261324,-0.922198,-0.06048,-0.03556,0.52962
14.6821,0,0,5,5,29.6821,29.6821,-24.1745,2.99172,21.4801,0.11283,0.000830777,0.136362,1,1,-4.0425,0.91,-2.31,0.125416,0.42151,-0.789096,-0.06048,-0.03556,0.52962
14.6856,0,0,5,5,29.6856,29.6856,-24.1874,2.99293,21.4774,0.112809,0.000625929,0.136269,1,1,-3.6575,1.365,-2.0475,0.125416,0.42151,-0.789096,-0.06048,-0.03556,0.52962
15.67,0,0,5,5,30.67,30.67,-24.3347,3.04622,21.4676,0.0481,0.106022,0.0741874,0,1,-3.29,1.2775,-2.0475,0.061366,0.529114,-0.849608,-0.06048,-0.03556,0.52962
15.7457,0,0,5,5,30.7457,30.7457,-24.4802,3.09858,21.4581,0.0471874,0.103733,0.0730951,0,1,-3.78,1.225,-1.8375,0.061366,0.529114,-0.849608,-0.06314,-0.028,0.5334
15.1231,0,0,5,5,30.1231,30.1231,-24.5279,2.96959,21.4551,-0.119916,0.00217219,0.0678176,0,1,-4.2875,0.665,-1.4175,-0.108702,0.428464,-0.85461,-0.06314,-0.028,0.5334
15.1447,0,0,5,5,30.1447,30.1447,-24.5746,2.84208,21.4534,-0.117693,0.00138467,0.0675819,0,1,-4.235,-0.0875,-0.9625,-0.108702,0.428464,-0.85461,-0.06314,-0.028,0.5334
14.9379,0,0,5,5,29.9379,29.9379,-24.589,2.84107,21.4542,0.028715,0.0834702,0.241574,1,1,-4.5675,-0.665,-0.7175,0.038308,0.510692,-0.681858,-0.06314,-0.028,0.5334
14.9274,0,0,5,5,29.9274,29.9274,-24.6007,2.84204,21.4543,0.028698,0.0832856,0.241488,1,1,-3.045,0.5425,-0.56,0.038308,0.510692,-0.681858,-0.06314,-0.028,0.5334
16.0813,0,0,5,5,31.0813,31.0813,-24.7701,2.87814,21.4463,0.0258821,0.0864771,0.144326,0,1,-2.625,0.735,-0.6125,0.036112,0.516548,-0.777018,-0.06314,-0.028,0.5334
16.1402,0,0,5,5,31.1402,31.1402,-24.9336,2.91313,21.4381,0.0252721,0.0839039,0.1431,0,1,-0.98,0.5775,-0.875,0.036112,0.516548,-0.777018,-0.06314,-0.028,0.5334
15.9287,0,0,5,5,30.9287,30.9287,-25.0545,3.07372,21.4317,0.155621,0.09488,0.0558909,0,1,-0.9625,0.4025,-1.0325,0.169824,0.529358,-0.86254,-0.06314,-0.028,0.5334
15.9795,0,0,5,5,30.9795,30.9795,-25.1723,3.22913,21.4258,0.152913,0.0930842,0.0548845,0,1,-0.4725,-0.9975,-1.225,0.169824,0.529358,-0.86254,-0.06496,-0.02562,0.53606
15.2496,0,0,5,5,30.2496,30.2496,-25.1799,3.22801,21.4259,-0.0853007,0.240493,0.0109367,1,1,-0.7525,-0.56,-1.1025,-0.069418,0.676734,-0.906094,-0.06496,-0.02562,0.53606
15.2498,0,0,5,5,30.2498,30.2498,-25.1868,3.22734,21.4259,-0.0852892,0.240384,0.0108859,1,1,-0.385,-0.28,-1.0675,-0.069418,0.676734,-0.906094,-0.06496,-0.02562,0.53606
17.1704,0,0,5,5,32.1704,32.1704,-25.4574,3.10669,21.4108,-0.122305,0.258787,0.0865545,0,1,0.105,0.2275,-1.1025,-0.108702,0.699426,-0.829112,-0.06496,-0.02562,0.53606
17.3035,0,0,5,5,32.3035,32.3035,-25.7239,2.98799,21.3969,-0.120236,0.25455,0.0846474,0,1,-0.28,0.0875,-0.91,-0.108702,0.699426,-0.829112,-0.06496,-0.02562,0.53606
17.2525,0,0,5,5,32.2525,32.2525,-25.9614,3.3122,21.3841,0.281212,0.117354,0.230348,0,1,-0.1575,0.3675,-0.8225,0.30012,0.565958,-0.682468,-0.06496,-0.02562,0.53606
17.3848,0,0,5,5,32.3848,32.3848,-26.1974,3.63247,21.3705,0.275633,0.11381,0.228236,0,1,-1.4875,1.085,-0.2625,0.30012,0.565958,-0.682468,-0.06496,-0.02562,0.53606
17.429,0,0,5,5,32.429,32.429,-26.4199,4.04944,21.3568,0.3884,0.120689,0.213541,0,1,-2.1175,1.1725,0.0525,0.420656,0.576084,-0.694912,-0.06496,-0.02562,0.53606
17.5376,0,0,5,5,32.5376,32.5376,-26.639,4.45781,21.3427,0.381292,0.117514,0.211365,0,1,-2.1,0,0.0525,0.420656,0.576084,-0.694912,-0.06258,-0.02632,0.53648
17.0677,0,0,5,5,32.0677,32.0677,-26.7752,4.53106,21.3345,0.0624536,0.0741621,0.108163,0,1,-2.17,-0.5425,-0.07,0.101748,0.534848,-0.796172,-0.06258,-0.02632,0.53648
17.1324,0,0,5,5,32.1324,32.1324,-26.9091,4.603,21.3264,0.0612021,0.0721294,0.107022,0,1,-2.17,-0.5425,-0.07,0.101748,0.534848,-0.796172,-0.06258,-0.02632,0.53648
14.5753,0,0,5,5,29.5753,29.5753,-26.6799,4.79179,21.3461,0.171993,-0.229996,-0.0320749,0,1,1.0325,0.245,-0.3675,0.216306,0.22936,-0.93574,-0.06258,-0.02632,0.53648
14.4658,0,0,5,5,29.4658,29.4658,-26.4546,4.97726,21.3663,0.168768,-0.226368,-0.0305687,0,1,1.0325,0.245,-0.3675,0.216306,0.22936,-0.93574,-0.06258,-0.02632,0.53648
15.9969,0,0,5,5,30.9969,30.9969,-26.4585,4.9778,21.3659,-0.513384,-0.410473,-0.199531,1,1,1.33,0.4375,-0.9275,-0.468724,0.045506,-1.10337,-0.06258,-0.02632,0.53648
15.9997,0,0,5,5,30.9997,30.9997,-26.4624,4.97834,21.3656,-0.513393,-0.410534,-0.199562,1,1,1.33,0.4375,-0.9275,-0.468724,0.045506,-1.10337,-0.06258,-0.02632,0.53648
16.0136,0,0,5,5,31.0136,31.0136,-26.4678,4.98445,21.3612,-0.332729,-0.354802,-0.197276,1,1,0.665,4.41,-1.575,-0.287188,0.10126,-1.10105,-0.06258,-0.02632,0.53648
15.993,0,0,5,5,30.993,30.993,-26.4699,4.98417,21.3596,0.29147,0.0082475,-0.153523,1,1,2.3975,0.3325,-1.785,0.339648,0.463966,-1.05762,-0.06552,-0.02184,0.53914
15.9924,0,0,5,5,30.9924,30.9924,-26.4717,4.98449,21.3576,0.291464,0.00821976,-0.153537,1,1,2.59,0.735,-1.82,0.339648,0.463966,-1.05762,-0.06552,-0.02184,0.53914
15.9965,0,0,5,5,30.9965,30.9965,-26.4739,4.9856,21.3562,0.412688,-0.100994,-0.0344181,1,1,2.3625,1.015,-1.33,0.461404,0.354898,-0.9394,-0.06552,-0.02184,0.53914
15.9982,0,0,5,5,30.9982,30.9982,-26.476,4.98671,21.3547,0.412668,-0.101027,-0.0344363,1,1,2.3625,1.015,-1.33,0.461404,0.354898,-0.9394,-0.06552,-0.02184,0.53914
16.0197,0,0,5,5,31.0197,31.0197,-26.4809,4.98668,21.3543,-0.153333,0.0293283,-0.107751,1,1,0.7875,0.1575,-1.12,-0.106994,0.485194,-1.01211,-0.06552,-0.02184,0.53914
16.023,0,0,5,5,31.023,31.023,-26.4858,4.98664,21.3538,-0.153332,0.0292523,-0.107789,1,1,0.7875,0.1575,-1.12,-0.106994,0.485194,-1.01211,-0.06552,-0.02184,0.53914
16.0498,0,0,5,5,31.0498,31.0498,-26.4939,4.98614,21.3536,-0.125017,-0.0964205,0.138906,1,1,-1.0325,-0.14,-1.1375,-0.078568,0.359778,-0.767258,-0.06552,-0.02184,0.53914
14.5706,0,0,5,5,29.5706,29.5706,-26.2977,5.2108,21.3714,0.205527,-0.207521,-0.00865744,0,1,0.2975,-0.105,-1.05,0.257298,0.245586,-0.914878,-0.06552,-0.02184,0.53914
14.4626,0,0,5,5,29.4626,29.4626,-26.1029,5.43186,21.3892,0.201686,-0.204325,-0.00748321,0,1,1.4175,0.175,-1.1725,0.257298,0.245586,-0.914878,-0.06272,-0.028,0.54376
13.2675,0,0,5,5,28.2675,28.2675,-25.7595,5.28739,21.4209,-0.150421,-0.31032,-0.191421,0,1,3.29,0.175,-1.085,-0.09882,0.134444,-1.1002,-0.06272,-0.028,0.54376
13.1049,0,0,5,5,28.1049,28.1049,-25.4221,5.14525,21.4512,-0.14795,-0.305128,-0.188685,0,1,3.29,0.245,-1.1025,-0.09882,0.134444,-1.1002,-0.06272,-0.028,0.54376
15.3588,0,0,5,5,30.3588,30.3588,-25.4227,5.14538,21.4503,-0.615672,-0.306236,-0.0716424,1,1,3.22,0.3325,-1.2775,-0.56852,0.133346,-0.984052,-0.06272,-0.028,0.54376
15.3625,0,0,5,5,30.3625,30.3625,-25.4237,5.14499,21.4495,-0.615665,-0.306252,-0.0716492,1,1,2.9925,0.07,-1.435,-0.56852,0.133346,-0.984052,-0.06272,-0.028,0.54376
14.8144,0,0,5,5,29.8144,29.8144,-25.3491,5.19516,21.4557,0.061231,-0.0379562,-0.106574,0,1,2.625,-0.2275,-1.4175,0.112118,0.40016,-1.01919,-0.06272,-0.028,0.54376
14.7783,0,0,5,5,29.7783,29.7783,-25.2757,5.24499,21.4612,0.060365,-0.0367685,-0.1061,0,1,2.765,0.2275,-1.6275,0.112118,0.40016,-1.01919,-0.06272,-0.028,0.54376
15.2871,0,0,5,5,30.2871,30.2871,-25.2783,5.24417,21.4603,0.153923,-0.220855,-0.23546,1,1,2.1,-0.14,-1.575,0.206058,0.216306,-1.14753,-0.06272,-0.028,0.54376
15.2903,0,0,5,5,30.2903,30.2903,-25.2811,5.2441,21.4604,0.153924,-0.220898,-0.23548,1,1,1.9425,0,-0.84,0.206058,0.216306,-1.14753,-0.05978,-0.01988,0.5474
15.3074,0,0,5,5,30.3074,30.3074,-25.2859,5.24421,21.4607,-0.00692447,-0.0405931,-0.242401,1,1,0.77,0.035,-0.6825,0.04453,0.3965,-1.15436,-0.05978,-0.01988,0.5474
15.3256,0,0,5,5,30.3256,30.3256,-25.2928,5.24471,21.4605,-0.00693323,-0.040701,-0.242453,1,1,-0.35,0.385,-0.875,0.04453,0.3965,-1.15436,-0.05978,-0.01988,0.5474
16.177,0,0,5,5,31.177,31.177,-25.4162,4.91091,21.4507,-0.338375,0.111873,0.0388918,0,1,-0.3325,-0.2975,-0.7,-0.294142,0.551074,-0.87474,-0.05978,-0.01988,0.5474
16.2099,0,0,5,5,31.2099,31.2099,-25.5339,4.58316,21.4427,-0.332674,0.109821,0.0384385,0,1,1.61,-0.28,-0.1225,-0.294142,0.551074,-0.87474,-0.05978,-0.01988,0.5474
15.4288,0,0,5,5,30.4288,30.4288,-25.5344,4.58337,21.444,0.1512,-0.111846,0.267365,1,1,3.185,-0.1575,-0.14,0.191784,0.329644,-0.647576,-0.05978,-0.01988,0.5474
15.4135,0,0,5,5,30.4135,30.4135,-25.5327,4.58399,21.4447,0.151189,-0.111818,0.267377,1,1,4.445,0.21,-0.35,0.191784,0.329644,-0.647576,-0.05978,-0.01988,0.5474
16.691,0,0,5,5,31.691,31.691,-25.7068,5.07596,21.4306,0.516445,0.124033,0.171975,0,1,4.2525,0.1225,-0.42,0.567178,0.567666,-0.740296,-0.05978,-0.01988,0.5474
16.7828,0,0,5,5,31.7828,31.7828,-25.8792,5.56051,21.4146,0.508024,0.121677,0.169966,0,1,3.92,0.385,-0.6475,0.567178,0.567666,-0.740296,-0.0595,-0.02576,0.54404
15.6385,0,0,5,5,30.6385,30.6385,-25.8798,5.56111,21.4143,-0.123833,-0.0289138,-0.189541,1,1,3.185,0.455,-0.8925,-0.067344,0.41724,-1.09702,-0.0595,-0.02576,0.54404
15.6483,0,0,5,5,30.6483,30.6483,-25.8816,5.56082,21.4137,-0.123828,-0.0289428,-0.189555,1,1,2.5025,0.07,-1.2775,-0.067344,0.41724,-1.09702,-0.0595,-0.02576,0.54404
15.6447,0,0,5,5,30.6447,30.6447,-25.8827,5.56152,21.4129,-0.70928,-0.54348,-0.368454,1,1,2.905,0.6125,-1.085,-0.655262,-0.096746,-1.27453,-0.0595,-0.02576,0.54404
15.6474,0,0,5,5,30.6474,30.6474,-25.8841,5.56258,21.4124,-0.709298,-0.543501,-0.368466,1,1,2.765,0.77,-0.91,-0.655262,-0.096746,-1.27453,-0.0595,-0.02576,0.54404
15.6526,0,0,5,5,30.6526,30.6526,-25.886,5.56304,21.4126,-0.111597,-0.35631,-0.301597,1,1,2.415,0.2275,-0.6125,-0.055022,0.09028,-1.20817,-0.0595,-0.02576,0.54404
15.6774,0,0,5,5,30.6774,30.6774,-25.8911,5.56399,21.4124,-0.111613,-0.356389,-0.301638,1,1,0.6475,0.6125,-0.735,-0.055022,0.09028,-1.20817,-0.0595,-0.02576,0.54404
13.1327,0,0,5,5,28.1327,28.1327,-25.5456,5.64635,21.4464,0.0708855,-0.339441,-0.0769916,0,1,-0.6475,0.91,-0.805,0.129686,0.101748,-0.987712,-0.0595,-0.02576,0.54404
12.967,0,0,5,5,27.967,27.967,-25.2057,5.72713,21.4803,0.0694825,-0.334048,-0.0745883,0,1,-0.6475,0.91,-0.805,0.129686,0.101748,-0.987712,-0.05936,-0.03458,0.5306
14.1968,0,0,5,5,29.1968,29.1968,-25.0631,5.57499,21.4962,-0.143755,-0.161671,0.0366165,0,1,-0.4725,-0.56,-0.4025,-0.087108,0.271816,-0.878644,-0.05936,-0.03458,0.5306
14.1302,0,0,5,5,29.1302,29.1302,-24.923,5.42545,21.5115,-0.141157,-0.159572,0.0378713,0,1,-0.4725,-0.56,-0.4025,-0.087108,0.271816,-0.878644,-0.05936,-0.03458,0.5306
15.4386,0,0,5,5,30.4386,30.4386,-24.9745,5.06914,21.5048,-0.352788,0.0232995,0.0673941,0,1,3.92,3.9375,-0.35,-0.305854,0.455548,-0.849486,-0.05936,-0.03458,0.5306
15.4632,0,0,5,5,30.4632,30.4632,-25.0251,4.71874,21.4984,-0.346695,0.0222818,0.0674951,0,1,3.92,3.9375,-0.35,-0.305854,0.455548,-0.849486,-0.05936,-0.03458,0.5306
15.0944,0,0,5,5,30.0944,30.0944,-25.0207,4.71965,21.4973,0.0913666,-0.100264,-0.168781,1,1,6.02,0.8225,-1.2425,0.134078,0.33306,-1.08397,-0.05936,-0.03458,0.5306
15.0921,0,0,5,5,30.0921,30.0921,-25.0163,4.72057,21.4962,0.0913507,-0.100194,-0.168749,1,1,6.02,0.8225,-1.2425,0.134078,0.33306,-1.08397,-0.05936,-0.03458,0.5306
15.1346,0,0,5,5,30.1346,30.1346,-25.0181,4.71984,21.4945,-0.196679,-0.176185,-0.294415,1,1,2.59,0.0875,-1.9425,-0.155184,0.257176,-1.20865,-0.05936,-0.03458,0.5306
16.6187,0,0,5,5,31.6187,31.6187,-25.2239,4.94324,21.4759,0.200338,0.125787,0.174661,0,1,1.9775,0.0525,-1.8375,0.247416,0.561932,-0.741394,-0.05936,-0.03458,0.5306
16.7188,0,0,5,5,31.7188,31.7188,-25.4264,5.16254,21.4568,0.196526,0.122748,0.17285,0,1,1.925,-0.0525,-1.925,0.247416,0.561932,-0.741394,-0.06258,-0.02842,0.53354
15.4039,0,0,5,5,30.4039,30.4039,-25.4312,5.16163,21.4551,0.280853,0.259943,0.123636,1,1,0.8925,0,-1.995,0.332084,0.69906,-0.790194,-0.06258,-0.02842,0.53354
15.4264,0,0,5,5,30.4264,30.4264,-25.4387,5.16148,21.4539,0.280855,0.259826,0.123581,1,1,-0.6125,0.28,-1.54,0.332084,0.69906,-0.790194,-0.06258,-0.02842,0.53354
15.4401,0,0,5,5,30.4401,30.4401,-25.4473,5.16245,21.4529,-0.172182,0.00664372,0.193472,1,1,-1.3125,0.8225,-1.155,-0.122854,0.446276,-0.720776,-0.06258,-0.02842,0.53354
15.4332,0,0,5,5,30.4332,30.4332,-25.4543,5.16159,21.4538,-0.172167,0.00653412,0.193422,1,1,-0.4375,-0.6125,-0.63,-0.122854,0.446276,-0.720776,-0.06258,-0.02842,0.53354
15.1744,0,0,5,5,30.1744,30.1744,-25.425,4.7004,21.4577,-0.439556,-0.0784255,0.0886526,0,1,0.1225,-0.5075,-0.595,-0.399428,0.361242,-0.825574,-0.06258,-0.02842,0.53354
15.124,0,0,5,5,30.124,30.124,-25.3911,4.24879,21.46,-0.431697,-0.0781572,0.0894609,0,1,3.0275,0.9975,-0.665,-0.399428,0.361242,-0.825574,-0.06258,-0.02842,0.53354
15.3408,0,0,5,5,30.3408,30.3408,-25.3898,4.25021,21.46,0.330601,-0.0830213,-0.0658152,1,1,4.2175,0.805,-0.5075,0.366122,0.356362,-0.97966,-0.06258,-0.02842,0.53354
15.342,0,0,5,5,30.342,30.342,-25.3888,4.25193,21.4604,0.330571,-0.0830038,-0.0658093,1,0,4.0775,0.875,-0.245,0.366122,0.356362,-0.97966,-0.06314,-0.03052,0.52122
15.3413,0,0,5,5,30.3413,30.3413,-25.3877,4.25286,21.46,0.574498,0.00592264,-0.0965392,1,0,4.1475,0.665,-0.875,0.611098,0.445178,-1.01016,-0.06314,-0.03052,0.52122
15.3784,0,0,5,5,30.3784,30.3784,-25.3917,4.25203,21.4597,0.574512,0.00585902,-0.0965682,1,0,1.26,-0.315,-1.225,0.611098,0.445178,-1.01016,-0.06314,-0.03052,0.52122
14.914,0,0,5,5,29.914,29.914,-25.3314,4.12747,21.9207,-0.189287,-0.0543244,0.0363173,0,0,0.84,0.4025,-0.7875,-0.158112,0.384178,-0.878888,-0.06314,-0.03052,0.52122
14.8466,0,0,5,5,29.8466,29.8466,-25.2668,4.00333,22.3826,-0.187126,-0.0533728,0.036937,0,0,3.7975,0.2275,-1.0675,-0.158112,0.384178,-0.878888,-0.06314,-0.03052,0.52122
16.9847,0,0,5,5,31.9847,31.9847,-25.5017,3.94702,22.7713,-0.0242049,0.233442,0.0485237,0,0,2.1175,-0.2975,-1.1725,0.004514,0.674416,-0.865712,-0.06314,-0.03052,0.52122
17.106,0,0,5,5,32.106,32.106,-25.7338,3.89072,23.1637,-0.0232246,0.229769,0.0468366,0,0,1.4175,-0.9625,-1.505,0.004514,0.674416,-0.865712,-0.06314,-0.03052,0.52122
17.5978,0,0,5,5,32.5978,32.5978,-26.0144,4.12075,23.1684,0.429192,0.169928,0.138631,0,0,0.0175,0.1575,-1.1725,0.462868,0.618906,-0.77226,-0.06314,-0.03052,0.52122
17.7689,0,0,5,5,32.7689,32.7689,-26.2953,4.34867,23.1853,0.425225,0.165668,0.136212,0,0,-2.8,0.3675,-0.6475,0.462868,0.618906,-0.77226,-0.06874,-0.04284,0.5215
14.6403,0,0,5,5,29.6403,29.6403,-26.1225,4.1356,23.7584,-0.372021,-0.105073,-0.0738068,0,0,-1.995,-0.6475,-0.5425,-0.341478,0.34587,-0.982222,-0.06874,-0.04284,0.5215
14.5182,0,0,5,5,29.5182,29.5182,-25.947,3.92346,24.3311,-0.368328,-0.102443,-0.0722323,0,0,0.875,-0.455,-0.56,-0.341478,0.34587,-0.982222,-0.06874,-0.04284,0.5215
15.6949,0,0,5,5,30.6949,30.6949,-25.9479,3.92446,24.3319,-0.108002,-0.213714,0.111691,1,0,2.9575,0.3675,-0.175,-0.080032,0.234728,-0.79971,-0.06874,-0.04284,0.5215
15.6611,0,0,5,5,30.6611,30.6611,-25.9441,3.92559,24.3329,-0.108021,-0.213653,0.111719,1,0,5.635,0.4025,-0.07,-0.080032,0.234728,-0.79971,-0.06874,-0.04284,0.5215
15.669,0,0,5,5,30.669,30.669,-25.9415,3.92619,24.3341,0.445214,-0.123239,-0.182601,1,0,4.865,0.07,-0.105,0.475556,0.325008,-1.09178,-0.06874,-0.04284,0.5215
15.6825,0,0,5,5,30.6825,30.6825,-25.941,3.9267,24.3341,0.445205,-0.123231,-0.182598,1,0,3.78,0.3325,-0.7525,0.475556,0.325008,-1.09178,-0.06874,-0.04284,0.5215
15.709,0,0,5,5,30.709,30.709,-25.9442,3.9271,24.3339,0.156913,0.270334,-0.113894,1,0,1.75,0.315,-0.8575,0.18605,0.718214,-1.02358,-0.06874,-0.04284,0.5215
15.7321,0,0,5,5,30.7321,30.7321,-25.9502,3.9268,24.3329,0.156918,0.27024,-0.11394,1,1,0.175,0.1575,-1.4875,0.18605,0.718214,-1.02358,-0.06538,-0.02898,0.53564
15.7333,0,0,5,5,30.7333,30.7333,-25.9558,3.92618,24.3302,0.0116317,0.383364,-0.0111967,1,1,0.455,0.42,-2.4325,0.040138,0.831308,-0.921588,-0.06538,-0.02898,0.53564
15.7371,0,0,5,5,30.7371,30.7371,-25.9614,3.92557,24.3276,0.0116424,0.383275,-0.0112389,1,1,0.455,0.42,-2.4325,0.040138,0.831308,-0.921588,-0.06538,-0.02898,0.53564
15.7389,0,0,5,5,30.7389,30.7389,-25.9668,3.9246,24.3269,0.137883,-0.0992096,0.212365,1,1,0.525,-0.28,-1.47,0.166896,0.349408,-0.69967,-0.06538,-0.02898,0.53564
15.7425,0,0,5,5,30.7425,30.7425,-25.9721,3.92364,24.3262,0.1379,-0.0992939,0.212325,1,1,0.525,-0.28,-1.47,0.166896,0.349408,-0.69967,-0.06538,-0.02898,0.53564
12.8402,0,0,5,5,27.8402,27.8402,-25.5776,3.90713,24.3545,-0.0239963,-0.393548,-0.0460586,0,1,-1.5225,-0.28,-0.5425,0.004026,0.049288,-0.959042,-0.06538,-0.02898,0.53564
12.6502,0,0,5,5,27.6502,27.6502,-25.1894,3.89071,24.3823,-0.0237103,-0.38745,-0.0431436,0,1,-1.5225,-0.28,-0.5425,0.004026,0.049288,-0.959042,-0.06538,-0.02898,0.53564
15.2835,0,0,5,5,30.2835,30.2835,-25.1956,3.89166,24.3824,-0.173276,-0.144759,0.158937,1,1,0.0175,0.5425,-0.595,-0.146156,0.291824,-0.758474,-0.06538,-0.02898,0.53564
15.2876,0,0,5,5,30.2876,30.2876,-25.2018,3.89261,24.3825,-0.173292,-0.144856,0.15889,1,1,0.0175,0.5425,-0.595,-0.146156,0.291824,-0.758474,-0.06706,-0.01932,0.5446
15.2383,0,0,5,5,30.2383,30.2383,-25.2007,3.89311,24.3827,-0.134668,0.0361535,0.207462,1,1,4.13,0.28,-0.665,-0.10736,0.472628,-0.710284,-0.06706,-0.01932,0.5446
15.238,0,0,5,5,30.238,30.238,-25.1996,3.8936,24.3828,-0.134677,0.0361716,0.20747,1,1,4.13,0.28,-0.665,-0.10736,0.472628,-0.710284,-0.06706,-0.01932,0.5446
15.2506,0,0,5,5,30.2506,30.2506,-25.2002,3.8946,24.3818,0.29743,0.0851349,-0.14675,1,1,3.185,0.8575,-1.19,0.326594,0.52155,-1.06177,-0.06706,-0.01932,0.5446
15.2737,0,0,5,5,30.2737,30.2737,-25.2039,3.89451,24.3809,-0.444603,-0.241124,-0.207514,1,1,1.4525,0.2275,-1.365,-0.418582,0.195688,-1.12203,-0.06706,-0.01932,0.5446
15.29,0,0,5,5,30.29,30.29,-25.2095,3.8945,24.3784,-0.444603,-0.241212,-0.207556,1,1,0.455,0.665,-2.17,-0.418582,0.195688,-1.12203,-0.06706,-0.01932,0.5446
15.3231,0,0,5,5,30.3231,30.3231,-25.2192,3.89452,24.3758,-0.21208,-0.379001,-0.272667,1,1,-1.8025,0.735,-2.275,-0.185074,0.058194,-1.18657,-0.06706,-0.01932,0.5446
15.3289,0,0,5,5,30.3289,30.3289,-25.2287,3.89385,24.3748,-0.212068,-0.379152,-0.272738,1,1,-1.8375,-0.07,-1.5225,-0.185074,0.058194,-1.18657,-0.06706,-0.01932,0.5446
15.3114,0,0,5,5,30.3114,30.3114,-25.2351,4.35035,24.3744,0.453138,-0.0553721,0.106239,0,1,-2.59,0.28,-1.2775,0.490928,0.381494,-0.809958,-0.06314,-0.02086,0.54446
15.3141,0,0,5,5,30.3141,30.3141,-25.2412,4.7996,24.3745,0.445322,-0.0552019,0.105628,0,1,-2.555,0.0875,-0.98,0.490928,0.381494,-0.809958,-0.06314,-0.02086,0.54446
15.379,0,0,5,5,30.379,30.379,-25.2557,4.3751,24.3751,-0.403038,-0.047134,0.106302,0,1,-2.905,-0.2275,-0.49,-0.36844,0.390034,-0.809714,-0.06314,-0.02086,0.54446
14.1038,0,0,5,5,29.1038,29.1038,-25.0935,4.72309,24.3892,0.358454,-0.182866,-0.0274385,0,1,-1.1725,0.35,-0.3325,0.402356,0.251686,-0.943182,-0.06314,-0.02086,0.54446
13.9876,0,0,5,5,28.9876,28.9876,-24.9286,5.06747,24.4042,0.352465,-0.180051,-0.0266911,0,1,1.6975,1.4525,0.1925,0.402356,0.251686,-0.943182,-0.06314,-0.02086,0.54446
14.6684,0,0,5,5,29.6684,29.6684,-24.871,5.28035,24.4112,0.193385,-0.0842312,0.0480564,0,1,2.3625,0.7175,0.4375,0.246318,0.346358,-0.869128,-0.06314,-0.02086,0.54446
14.6307,0,0,5,5,29.6307,29.6307,-24.8129,5.48772,24.4179,0.189781,-0.0831722,0.0481725,0,1,3.185,-0.175,-0.21,0.246318,0.346358,-0.869128,-0.06314,-0.02086,0.54446
15.0368,0,0,5,5,30.0368,30.0368,-24.8154,5.48812,24.4185,-0.564166,0.00850542,-0.120163,1,1,2.0475,0.105,-0.42,-0.510814,0.43798,-1.03615,-0.06314,-0.02086,0.54446
15.0719,0,0,5,5,30.0719,30.0719,-24.8225,5.48615,24.4181,-0.564132,0.00839211,-0.120212,1,0,-0.455,-0.875,-1.5925,-0.510814,0.43798,-1.03615,-0.06062,-0.03052,0.52668
15.0869,0,0,5,5,30.0869,30.0869,-24.831,5.48413,24.4162,0.247792,-0.070149,-0.250842,1,0,-1.1725,-0.5425,-2.3975,0.304512,0.359656,-1.16571,-0.06062,-0.03052,0.52668
15.1146,0,0,5,5,30.1146,30.1146,-24.8426,5.48214,24.4142,0.247827,-0.0703331,-0.250924,1,0,-2.8875,-0.5075,-2.415,0.304512,0.359656,-1.16571,-0.06062,-0.03052,0.52668
15.1226,0,0,5,5,30.1226,30.1226,-24.8543,5.47987,24.4119,-0.248889,-0.306712,-0.233055,1,0,-2.9225,-0.595,-2.625,-0.194346,0.123708,-1.1479,-0.06062,-0.03052,0.52668
15.1309,0,0,5,5,30.1309,30.1309,-24.8661,5.47962,24.41,-0.248884,-0.306898,-0.233141,1,0,-3.01,0.4025,-1.96,-0.194346,0.123708,-1.1479,-0.06062,-0.03052,0.52668
15.144,0,0,5,5,30.144,30.144,-24.8786,5.48003,24.4097,-0.411318,-0.280472,0.108686,1,0,-3.535,0.35,-0.9275,-0.35746,0.150304,-0.808616,-0.06062,-0.03052,0.52668
15.1519,0,0,5,5,30.1519,30.1519,-24.8912,5.48045,24.4094,-0.411325,-0.28067,0.108594,1,0,-3.535,0.35,-0.9275,-0.35746,0.150304,-0.808616,-0.06062,-0.03052,0.52668
13.8351,0,0,5,5,28.8351,28.8351,-24.7215,5.645,24.4672,0.2043,-0.193976,-0.0560336,0,0,-2.1175,-0.315,-0.6825,0.263642,0.234118,-0.97295,-0.06062,-0.03052,0.52668
13.6317,0,0,5,5,28.6317,28.6317,-24.5377,5.84366,24.4872,0.20085,-0.190931,-0.0550192,0,1,-2.1175,-0.315,-0.6825,0.263642,0.234118,-0.97295,-0.0602,-0.02884,0.5341
12.8258,0,0,5,5,27.8258,27.8258,-24.2582,5.75372,24.5156,-0.0952278,-0.27121,-0.0753693,0,1,0.42,1.33,-0.5775,-0.035258,0.149572,-0.995276,-0.0602,-0.02884,0.5341
15.0958,0,0,5,5,30.0958,30.0958,-24.3141,5.75149,24.5108,0.000420102,0.0621651,-0.0176102,0,1,-0.735,0.7875,-0.5075,0.060756,0.483486,-0.93757,-0.0602,-0.02884,0.5341
15.105,0,0,5,5,30.105,30.105,-24.3666,5.7483,24.505,0.000475534,0.0613325,-0.0179807,0,1,0.6825,0.525,-1.3475,0.060756,0.483486,-0.93757,-0.0602,-0.02884,0.5341
14.8087,0,0,5,5,29.8087,29.8087,-24.3739,5.74786,24.5039,0.379397,0.231827,-0.0345076,1,1,-0.5425,0.0875,-1.5575,0.441274,0.65392,-0.953918,-0.0602,-0.02884,0.5341
14.8408,0,0,5,5,29.8408,29.8408,-24.385,5.74766,24.502,0.3794,0.231652,-0.0345867,1,1,-2.6075,0.4025,-1.9075,0.441274,0.65392,-0.953918,-0.0602,-0.02884,0.5341
14.8485,0,0,5,5,29.8485,29.8485,-24.3961,5.74767,24.5002,-0.239812,-0.158964,0.134633,1,1,-2.66,0.5075,-1.855,-0.18056,0.263886,-0.785924,-0.0602,-0.02884,0.5341
14.8761,0,0,5,5,29.8761,29.8761,-24.4101,5.74592,24.4986,-0.239782,-0.159187,0.134535,1,1,-4.27,-0.5075,-2.1,-0.18056,0.263886,-0.785924,-0.0602,-0.02884,0.5341
12.5466,0,0,5,5,27.5466,27.5466,-24.1024,5.66353,24.5298,-0.0855221,-0.313992,-0.0494054,0,1,-5.11,-0.6475,-1.82,-0.027084,0.104432,-0.970754,-0.06286,-0.035,0.5299
14.7042,0,0,5,5,29.7042,29.7042,-24.1169,5.66404,24.5293,-0.443792,-0.142634,0.17106,1,1,-4.6025,0.455,-1.0325,-0.386862,0.275842,-0.751886,-0.06286,-0.035,0.5299
14.7097,0,0,5,5,29.7097,29.7097,-24.1309,5.66483,24.5296,-0.443806,-0.142855,0.17096,1,1,-4.375,0.4025,-0.5075,-0.386862,0.275842,-0.751886,-0.06286,-0.035,0.5299
14.7026,0,0,5,5,29.7026,29.7026,-24.1427,5.6653,24.5302,0.227759,-0.133394,0.267144,1,1,-3.1675,0.1575,-0.4375,0.287554,0.28548,-0.65636,-0.06286,-0.035,0.5299
14.681,0,0,5,5,29.681,29.681,-24.1506,5.6674,24.5307,0.227722,-0.133517,0.267085,1,1,-0.91,1.085,-0.1575,0.287554,0.28548,-0.65636,-0.06286,-0.035,0.5299
14.6753,0,0,5,5,29.6753,29.6753,-24.1569,5.67013,24.5315,0.300323,-0.128975,-0.190579,1,1,-0.105,1.3125,0.245,0.36051,0.290116,-1.11044,-0.06286,-0.035,0.5299
14.6875,0,0,5,5,29.6875,29.6875,-24.1644,5.67164,24.5328,0.300297,-0.129092,-0.190634,1,1,-0.7525,0.56,0.1575,0.36051,0.290116,-1.11044,-0.06286,-0.035,0.5299
14.6939,0,0,5,5,29.6939,29.6939,-24.172,5.67263,24.5332,-0.59507,-0.0863463,-0.260894,1,1,-0.8225,0.49,-0.42,-0.53863,0.332938,-1.18011,-0.06286,-0.035,0.5299
14.7404,0,0,5,5,29.7404,29.7404,-24.1854,5.67252,24.5313,-0.595068,-0.0865586,-0.260989,1,0,-3.9025,0.455,-1.9075,-0.53863,0.332938,-1.18011,-0.06496,-0.02702,0.52864
14.7077,0,0,5,5,29.7077,29.7077,-24.1932,5.63549,24.8549,-0.0507761,0.0214972,-0.0475475,0,0,-4.7775,0.3325,-1.9775,0.00732,0.44103,-0.968314,-0.06496,-0.02702,0.52864
14.7186,0,0,5,5,29.7186,29.7186,-24.2017,5.59917,25.1795,-0.0501452,0.0213365,-0.0475517,0,0,-5.3025,0.5425,-2.0475,0.00732,0.44103,-0.968314,-0.06496,-0.02702,0.52864
14.7804,0,0,5,5,29.7804,29.7804,-24.218,5.59886,25.177,0.748993,0.125863,0.133805,1,0,-5.495,0.49,-2.275,0.809836,0.545706,-0.788242,-0.06496,-0.02702,0.52864
14.792,0,0,5,5,29.792,29.792,-24.2345,5.59667,25.176,0.749031,0.1256,0.133691,1,0,-5.6875,-0.8575,-1.96,0.809836,0.545706,-0.788242,-0.06496,-0.02702,0.52864
14.8118,0,0,5,5,29.8118,29.8118,-24.2523,5.3166,25.7873,-0.393292,0.02193,0.0802589,0,0,-5.705,-0.3675,-1.225,-0.34221,0.442616,-0.841556,-0.06496,-0.02702,0.52864
14.8068,0,0,5,5,29.8068,29.8068,-24.2679,5.04125,26.4005,-0.388506,0.0215047,0.080543,0,0,-4.9525,0.7525,-0.455,-0.34221,0.442616,-0.841556,-0.06496,-0.02702,0.52864
12.3769,0,0,5,5,27.3769,27.3769,-23.9478,4.81357,26.905,-0.381267,-0.271299,0.0045642,0,0,-5.32,0.6125,-0.0525,-0.338916,0.14518,-0.919514,-0.06496,-0.02702,0.52864
12.2001,0,0,5,5,27.2001,27.2001,-23.6297,4.58715,27.4078,-0.377328,-0.266367,0.00709225,0,0,-3.955,0.42,0.0175,-0.338916,0.14518,-0.919514,-0.06006,-0.02478,0.52542
14.4033,0,0,5,5,29.4033,29.4033,-23.641,4.58921,27.4086,0.681991,-0.150526,0.00664173,1,0,-2.8875,0.98,0.035,0.724924,0.26108,-0.91988,-0.06006,-0.02478,0.52542
14.4003,0,0,5,5,29.4003,29.4003,-23.6509,4.58947,27.4098,0.681986,-0.150684,0.00657211,1,0,-2.1175,-0.07,-0.21,0.724924,0.26108,-0.91988,-0.06006,-0.02478,0.52542
14.3816,0,0,5,5,29.3816,29.3816,-23.6574,4.53588,27.7772,-0.0736941,0.00330686,0.0132341,0,0,-1.4175,-0.525,-0.77,-0.034892,0.415044,-0.913292,-0.06006,-0.02478,0.52542
14.4096,0,0,5,5,29.4096,29.4096,-23.6672,4.48348,28.1422,-0.0727825,0.00312237,0.0132318,0,0,-3.15,0.6475,-2.59,-0.034892,0.415044,-0.913292,-0.06006,-0.02478,0.52542
14.4506,0,0,5,5,29.4506,29.4506,-23.6818,4.48383,28.1385,-0.717999,-0.13499,-0.360388,1,0,-4.4975,1.1025,-2.7475,-0.682834,0.277306,-1.28393,-0.06006,-0.02478,0.52542
14.4681,0,0,5,5,29.4681,29.4681,-23.6975,4.48292,28.1353,-0.717983,-0.135241,-0.360497,1,0,-5.1625,0.3325,-2.8175,-0.682834,0.277306,-1.28393,-0.06006,-0.02478,0.52542
14.4904,0,0,5,5,29.4904,29.4904,-23.7149,4.48215,28.1319,0.0931902,-0.178386,-0.308364,1,0,-6.125,0.4375,-2.8525,0.13176,0.234484,-1.23208,-0.06006,-0.02478,0.52542
14.5096,0,0,5,5,29.5096,29.5096,-23.7335,4.4801,28.1294,0.0932258,-0.178683,-0.308492,1,0,-6.8075,-0.4375,-2.7125,0.13176,0.234484,-1.23208,-0.06006,-0.02478,0.52542
14.5267,0,0,5,5,29.5267,29.5267,-23.7528,4.47845,28.1275,-0.363167,-0.247261,-0.391616,1,0,-7.2625,-0.385,-2.275,-0.326594,0.166286,-1.31443,-0.06356,-0.03066,0.52066
14.5364,0,0,5,5,29.5364,29.5364,-23.7719,4.48014,28.1259,0.10914,-0.0194304,0.173074,1,0,-7.105,1.33,-1.295,0.147742,0.394182,-0.75396,-0.06356,-0.03066,0.52066
14.5459,0,0,5,5,29.5459,29.5459,-23.7906,4.48063,28.1257,-0.00652305,-0.226855,0.209335,1,0,-6.9825,0.385,-0.91,0.031598,0.18727,-0.717848,-0.06356,-0.03066,0.52066
13.8662,0,0,5,5,28.8662,28.8662,-23.7142,4.14244,28.794,-0.512578,-0.0377417,0.0398701,0,0,-7.2625,0.0875,-0.4375,-0.48251,0.37515,-0.88694,-0.06356,-0.03066,0.52066
13.8081,0,0,5,5,28.8081,28.8081,-23.636,3.80791,29.4616,-0.506753,-0.0366581,0.0407871,0,0,-5.8975,0.9625,-0.1225,-0.48251,0.37515,-0.88694,-0.06356,-0.03066,0.52066
14.4277,0,0,5,5,29.4277,29.4277,-23.6496,3.8101,29.4623,0.29878,0.0475166,-0.0239807,1,0,-4.1125,1.0675,0.0175,0.326472,0.459452,-0.951112,-0.06356,-0.03066,0.52066
14.4353,0,0,5,5,29.4353,29.4353,-23.663,3.80958,29.463,0.298789,0.0473024,-0.0240738,1,0,-4.0425,-0.3675,-0.665,0.326472,0.459452,-0.951112,-0.06356,-0.03066,0.52066
17.2515,0,0,5,5,32.2515,32.2515,-24.0628,3.82895,29.8093,0.097393,0.259063,0.218371,0,0,-4.55,0.14,-1.5225,0.124562,0.677344,-0.707722,-0.06356,-0.03066,0.52066
17.4489,0,0,5,5,32.4489,32.4489,-24.4567,3.85026,30.1557,0.0970219,0.252819,0.21553,0,0,-5.04,0.7175,-2.0125,0.124562,0.677344,-0.707722,-0.06566,-0.02982,0.52612
15.7666,0,0,5,5,30.7666,30.7666,-24.5865,3.56949,30.8124,-0.395207,0.163188,0.055416,0,0,-6.51,0.63,-2.135,-0.374662,0.589992,-0.865956,-0.06566,-0.02982,0.52612
15.8308,0,0,5,5,30.8308,30.8308,-24.7144,3.29062,31.4709,-0.390349,0.161041,0.0547513,0,0,-6.8425,0.175,-2.59,-0.374662,0.589992,-0.865956,-0.06566,-0.02982,0.52612
14.8394,0,0,5,5,29.8394,29.8394,-24.6952,3.13637,31.9782,-0.219403,-0.0089633,0.0176516,0,0,-8.3825,0.3325,-2.345,-0.205692,0.419924,-0.903044,-0.06566,-0.02982,0.52612
14.8491,0,0,5,5,29.8491,29.8491,-24.679,2.98443,32.4881,-0.216755,-0.00876455,0.0178988,0,0,-9.8875,0.35,-1.1025,-0.205692,0.419924,-0.903044,-0.06566,-0.02982,0.52612
15.1138,0,0,5,5,30.1138,30.1138,-24.7004,2.98579,32.4878,0.141482,-0.421281,-0.20209,1,0,-8.505,0.8575,-0.7,0.154086,0.008174,-1.12118,-0.06566,-0.02982,0.52612
15.1282,0,0,5,5,30.1282,30.1282,-24.722,2.98826,32.4881,0.141439,-0.421622,-0.20225,1,0,-8.61,1.295,-0.105,0.154086,0.008174,-1.12118,-0.06566,-0.02982,0.52612
15.1481,0,0,5,5,30.1481,30.1481,-24.7445,2.98961,32.4889,-0.164242,-0.263091,0.111473,1,0,-9.135,0.5775,-0.1225,-0.152866,0.166896,-0.809714,-0.06566,-0.02982,0.52612
15.1455,0,0,5,5,30.1455,30.1455,-24.7647,2.99201,32.4902,-0.164284,-0.26341,0.111323,1,0,-7.875,1.0325,0.3675,-0.152866,0.166896,-0.809714,-0.06538,-0.02716,0.52136
15.1639,0,0,5,5,30.1639,30.1639,-24.7857,2.99532,32.4913,0.248588,-0.176299,0.145223,1,0,-8.33,1.5575,0.5075,0.261812,0.254248,-0.77592,-0.06538,-0.02716,0.52136
15.1579,0,0,5,5,30.1579,30.1579,-24.8042,2.9958,32.4918,0.24858,-0.17659,0.145088,1,0,-6.8425,0.175,-0.455,0.261812,0.254248,-0.77592,-0.06538,-0.02716,0.52136
15.1719,0,0,5,5,30.1719,30.1719,-24.8229,2.99594,32.4915,0.1147,0.253854,-0.177912,1,0,-7.0175,0.21,-1.015,0.127368,0.684542,-1.09629,-0.06538,-0.02716,0.52136
15.1947,0,0,5,5,30.1947,30.1947,-24.8433,2.99563,32.4898,0.114705,0.253532,-0.17806,1,0,-7.84,0.315,-1.855,0.127368,0.684542,-1.09629,-0.06538,-0.02716,0.52136
15.188,0,0,5,5,30.188,30.188,-24.8609,2.99468,32.4881,-0.179881,0.128683,-0.339989,1,0,-6.3525,-0.035,-1.995,-0.168482,0.560102,-1.25684,-0.06538,-0.02716,0.52136
15.2249,0,0,5,5,30.2249,30.2249,-24.8822,2.99363,32.4861,-0.179862,0.128347,-0.340144,1,0,-8.3475,0,-2.205,-0.168482,0.560102,-1.25684,-0.06538,-0.02716,0.52136
13.3161,0,0,5,5,28.3161,28.3161,-24.6389,2.95131,32.8143,-0.11413,-0.204278,-0.0925594,0,0,-7.875,0.105,-2.87,-0.103212,0.223992,-1.01297,-0.06538,-0.02716,0.52136
13.2126,0,0,5,5,28.2126,28.2126,-24.4015,2.90897,33.1394,-0.113392,-0.200528,-0.0908073,0,0,-8.3475,0.665,-1.995,-0.103212,0.223992,-1.01297,-0.06496,-0.0238,0.52374
16.4154,0,0,5,5,31.4154,31.4154,-24.6243,3.16435,33.2059,0.349512,0.0238021,0.199861,0,0,-9.5375,1.1025,-1.6275,0.366122,0.451522,-0.722728,-0.06496,-0.0238,0.52374
16.5124,0,0,5,5,31.5124,31.5124,-24.8421,3.41743,33.2734,0.345103,0.0204621,0.198043,0,0,-8.855,1.435,-1.3825,0.366122,0.451522,-0.722728,-0.06496,-0.0238,0.52374
15.2443,0,0,5,5,30.2443,30.2443,-24.8673,3.41869,33.2721,-0.0854645,0.110927,0.267692,1,0,-10.5875,1.0325,-1.225,-0.066246,0.54229,-0.653432,-0.06496,-0.0238,0.52374
15.2619,0,0,5,5,30.2619,30.2619,-24.8928,3.41921,33.2717,-0.0854737,0.110524,0.267505,1,0,-10.78,0.4375,-0.9625,-0.066246,0.54229,-0.653432,-0.06496,-0.0238,0.52374
15.2571,0,0,5,5,30.2571,30.2571,-24.9154,3.42056,33.2715,-0.251325,-0.127981,0.299058,1,0,-9.205,0.84,-0.6825,-0.232776,0.30439,-0.621956,-0.06496,-0.0238,0.52374
15.2569,0,0,5,5,30.2569,30.2569,-24.9362,3.42142,33.2704,-0.25134,-0.128308,0.298905,1,0,-8.085,0.77,-1.2075,-0.232776,0.30439,-0.621956,-0.06496,-0.0238,0.52374
15.6542,0,0,5,5,30.6542,30.6542,-25.0098,3.38994,33.6602,-0.0290802,0.089366,-0.0563137,0,0,-8.4,-0.21,-2.1,-0.010126,0.523014,-0.973926,-0.06496,-0.0238,0.52374
15.6852,0,0,5,5,30.6852,30.6852,-25.0816,3.35948,34.0503,-0.0285496,0.0882198,-0.0568148,0,0,-8.05,0.3325,-2.625,-0.010126,0.523014,-0.973926,-0.06496,-0.0238,0.52374
15.3553,0,0,5,5,30.3553,30.3553,-25.102,3.35894,34.047,0.393866,0.426433,0.0943846,1,0,-7.8225,0.595,-2.765,0.414068,0.861198,-0.823744,-0.06132,-0.0196,0.53018
15.379,0,0,5,5,30.379,30.379,-25.1239,3.35762,34.0436,0.393889,0.426087,0.0942237,1,0,-8.68,0.1925,-2.975,0.414068,0.861198,-0.823744,-0.06132,-0.0196,0.53018
15.3985,0,0,5,5,30.3985,30.3985,-25.1466,3.35699,34.0402,0.381265,0.295541,0.109056,1,0,-9.135,0.5775,-2.835,0.40138,0.731146,-0.80886,-0.06132,-0.0196,0.53018
15.444,0,0,5,5,30.444,30.444,-25.1737,3.35705,34.0378,0.381264,0.295114,0.108855,1,0,-11.6025,0.6825,-2.1175,0.40138,0.731146,-0.80886,-0.06132,-0.0196,0.53018
16.02,0,0,5,5,31.02,31.02,-25.2778,3.38112,34.3735,0.0531978,0.08135,-0.0202981,0,0,-11.2875,0.6825,-1.5575,0.072346,0.519232,-0.936228,-0.06132,-0.0196,0.53018
16.0743,0,0,5,5,31.0743,31.0743,-25.3807,3.40754,34.7114,0.0527375,0.0797415,-0.0210896,0,0,-11.7075,1.7675,-0.6475,0.072346,0.519232,-0.936228,-0.06132,-0.0196,0.53018
12.9256,0,0,5,5,27.9256,27.9256,-25.0417,2.98114,35.3643,-0.701426,-0.288432,0.107701,0,0,-10.7275,1.68,-0.3325,-0.692472,0.146278,-0.8113,-0.06132,-0.0196,0.53018
12.7567,0,0,5,5,27.7567,27.7567,-24.7074,2.55425,36.0127,-0.693984,-0.283297,0.110479,0,0,-10.7275,1.68,-0.3325,-0.692472,0.146278,-0.8113,-0.06132,-0.0196,0.53018
15.1725,0,0,5,5,30.1725,30.1725,-24.7331,2.5547,36.0142,0.0826662,-0.342203,0.0635703,1,1,-10.955,-0.07,0.035,0.087474,0.08784,-0.85766,-0.05992,-0.02184,0.53424
15.3533,0,0,5,5,30.3533,30.3533,-24.7815,2.58584,36.014,0.0313423,0.0308708,-0.00614836,0,1,-9.52,0.56,-0.0175,0.036478,0.461282,-0.926468,-0.05992,-0.02184,0.53424
15.3942,0,0,5,5,30.3942,30.3942,-24.8315,2.61641,36.013,0.0308093,0.0300895,-0.00653615,0,1,-10.85,0.7525,-0.4725,0.036478,0.461282,-0.926468,-0.05992,-0.02184,0.53424
12.7743,0,0,5,5,27.7743,27.7743,-24.5168,2.37755,36.0273,-0.243471,-0.344692,-0.0614972,0,1,-10.0625,0.525,-1.015,-0.243146,0.081984,-0.983442,-0.05992,-0.02184,0.53424
12.6196,0,0,5,5,27.6196,27.6196,-24.2068,2.14191,36.0387,-0.239362,-0.339833,-0.059119,0,1,-9.8175,0.595,-1.8025,-0.243146,0.081984,-0.983442,-0.05992,-0.02184,0.53424
13.7883,0,0,5,5,28.7883,28.7883,-24.0831,2.17546,36.0427,0.0349754,-0.136957,-0.0648959,0,1,-10.0275,0.175,-1.855,0.03294,0.282674,-0.99003,-0.05992,-0.02184,0.53424
13.7326,0,0,5,5,28.7326,28.7326,-23.9619,2.20929,36.0462,0.0343854,-0.135017,-0.0640562,0,1,-10.2375,0.735,-1.8725,0.03294,0.282674,-0.99003,-0.05992,-0.02184,0.53424
14.7379,0,0,5,5,29.7379,29.7379,-23.989,2.2104,36.0442,-0.169365,0.361118,-0.04261,1,1,-11.655,1.1375,-1.6975,-0.171654,0.778726,-0.968558,-0.05992,-0.02184,0.53424
14.7734,0,0,5,5,29.7734,29.7734,-24.0187,2.21218,36.0427,-0.169396,0.360646,-0.0428219,1,0,-13.125,1.3475,-1.2075,-0.171654,0.778726,-0.968558,-0.06048,-0.01806,0.53144
15.4555,0,0,5,5,30.4555,30.4555,-24.1398,2.51829,36.0463,0.429292,-0.0398138,0.095293,0,0,-13.3525,1.6975,-0.9975,0.43493,0.380518,-0.830454,-0.06048,-0.01806,0.53144
15.5121,0,0,5,5,30.5121,30.5121,-24.2586,2.81936,36.0516,0.424043,-0.0416029,0.0942207,0,0,-13.5275,0.7,-0.5775,0.43493,0.380518,-0.830454,-0.06048,-0.01806,0.53144
15.7044,0,0,5,5,30.7044,30.7044,-24.394,2.91884,36.3149,0.142649,0.0282146,0.0898496,0,0,-13.44,0.07,-0.1575,0.154086,0.452376,-0.833748,-0.06048,-0.01806,0.53144
15.7322,0,0,5,5,30.7322,30.7322,-24.522,3.01697,36.5795,0.140939,0.0262203,0.088845,0,0,-10.675,-0.105,-0.42,0.154086,0.452376,-0.833748,-0.06048,-0.01806,0.53144
16.2793,0,0,5,5,31.2793,31.2793,-24.7147,3.01808,36.9755,0.0208916,0.0740946,0.154206,0,0,-10.2725,0.805,-0.5075,0.03355,0.50325,-0.767502,-0.06048,-0.01806,0.53144
16.3748,0,0,5,5,31.3748,31.3748,-24.9046,3.01815,37.3733,0.0208904,0.0710907,0.152818,0,0,-10.57,0.0875,-1.1375,0.03355,0.50325,-0.767502,-0.06048,-0.01806,0.53144
15.2457,0,0,5,5,30.2457,30.2457,-24.9234,3.11148,37.615,0.114387,-0.0644855,0.0682582,0,0,-10.8325,-0.4375,-2.5375,0.129076,0.368074,-0.851194,-0.06048,-0.01806,0.53144
15.2483,0,0,5,5,30.2483,30.2483,-24.9409,3.20634,37.8541,0.112734,-0.0647238,0.0680468,0,0,-10.885,0.6475,-2.905,0.129076,0.368074,-0.851194,-0.06818,-0.021,0.52766
15.3235,0,0,5,5,30.3235,30.3235,-24.9672,3.20514,37.8499,0.219055,0.232604,-0.118413,1,0,-11.1475,0.4725,-3.4125,0.235826,0.66551,-1.03602,-0.06818,-0.021,0.52766
15.3397,0,0,5,5,30.3397,30.3397,-24.9936,3.20395,37.8457,0.219076,0.232187,-0.118606,1,0,-11.1475,0.4725,-3.4125,0.235826,0.66551,-1.03602,-0.06818,-0.021,0.52766
15.362,0,0,5,5,30.362,30.362,-25.0208,2.9476,38.4568,-0.351084,0.0411383,0.0693994,0,0,-11.445,1.8375,-3.115,-0.341234,0.47519,-0.849486,-0.06818,-0.021,0.52766
15.3753,0,0,5,5,30.3753,30.3753,-25.0475,2.69348,39.0682,-0.346654,0.0406236,0.0694,0,0,-11.445,1.8375,-3.115,-0.341234,0.47519,-0.849486,-0.06818,-0.021,0.52766
11.4841,0,0,5,5,26.4841,26.4841,-24.5365,2.55287,39.3555,-0.301683,-0.445216,-0.0911443,0,0,-12.8975,1.19,-1.96,-0.298534,-0.018178,-1.0126,-0.06818,-0.021,0.52766
11.2444,0,0,5,5,26.2444,26.2444,-24.0347,2.4109,39.6411,-0.299207,-0.437284,-0.0874475,0,0,-12.8975,1.19,-1.96,-0.298534,-0.018178,-1.0126,-0.06818,-0.021,0.52766
14.8339,0,0,5,5,29.8339,29.8339,-24.0682,2.41233,39.6401,0.326298,-0.0929308,-0.202643,1,0,-15.26,1.05,-1.05,0.329644,0.32635,-1.12667,-0.06818,-0.021,0.52766
14.8544,0,0,5,5,29.8544,29.8544,-24.1017,2.41375,39.6392,0.326273,-0.0934638,-0.202883,1,0,-15.26,1.05,-1.05,0.329644,0.32635,-1.12667,-0.05782,-0.02632,0.52346
14.8386,0,0,5,5,29.8386,29.8386,-24.1302,2.41498,39.6387,0.112072,0.15571,0.273707,1,0,-12.4775,0.8225,-0.8225,0.114558,0.575718,-0.653554,-0.05782,-0.02632,0.52346
14.8582,0,0,5,5,29.8582,29.8582,-24.159,2.41529,39.6386,-0.0526677,-0.183528,-0.322676,1,0,-12.6525,0.2625,-0.875,-0.050874,0.23729,-1.24513,-0.05782,-0.02632,0.52346
14.87,0,0,5,5,29.87,29.87,-24.187,2.41451,39.6385,-0.0526541,-0.183974,-0.322875,1,0,-12.1975,-0.3325,-1.12,-0.050874,0.23729,-1.24513,-0.05782,-0.02632,0.52346
14.8917,0,0,5,5,29.8917,29.8917,-24.2157,2.41452,39.6375,0.274264,-0.0419076,-0.1346,1,0,-12.53,0.2975,-1.4,0.277428,0.379664,-1.05811,-0.05782,-0.02632,0.52346
14.9041,0,0,5,5,29.9041,29.9041,-24.2436,2.41454,39.6357,0.274263,-0.0423516,-0.134799,1,0,-12.11,0.5075,-1.8375,0.277428,0.379664,-1.05811,-0.05782,-0.02632,0.52346
17.5995,0,0,5,5,32.5995,32.5995,-24.6401,2.53964,39.9643,0.248392,0.259519,0.149462,0,0,-11.6725,0.5425,-2.03,0.253638,0.68747,-0.773114,-0.05782,-0.02632,0.52346
17.789,0,0,5,5,32.789,32.789,-25.0299,2.66504,40.2959,0.246206,0.253393,0.146517,0,0,-11.4275,1.12,-1.82,0.253638,0.68747,-0.773114,-0.05782,-0.02632,0.52346
15.3969,0,0,5,5,30.3969,30.3969,-25.0582,2.66669,40.2937,0.568236,0.177106,-0.00873136,1,0,-12.3375,1.47,-1.61,0.57706,0.611708,-0.926956,-0.06566,-0.0182,0.5229
15.4456,0,0,5,5,30.4456,30.4456,-25.0909,2.66929,40.2927,-0.517284,-0.332556,-0.22893,1,0,-14.7875,1.6975,-0.7875,-0.51301,0.10309,-1.14521,-0.06566,-0.0182,0.5229
15.4867,0,0,5,5,30.4867,30.4867,-25.1265,2.67171,40.2929,-0.517326,-0.333117,-0.229194,1,0,-16.45,1.295,-0.175,-0.51301,0.10309,-1.14521,-0.06566,-0.0182,0.5229
12.8533,0,0,5,5,27.8533,27.8533,-24.7967,2.77914,40.3982,0.0704923,-0.344353,-0.0500489,0,0,-16.5725,0.49,-0.1575,0.079178,0.08662,-0.969778,-0.06566,-0.0182,0.5229
12.6837,0,0,5,5,27.6837,27.6837,-24.4707,2.88521,40.5036,0.0686432,-0.33915,-0.0477636,0,0,-15.61,1.05,-0.0525,0.079178,0.08662,-0.969778,-0.06566,-0.0182,0.5229
12.2263,0,0,5,5,27.2263,27.2263,-24.1086,2.9424,40.6429,0.00107218,-0.353894,-0.0721397,0,0,-15.1725,1.1725,-0.0875,0.012322,0.066124,-0.996496,-0.06566,-0.0182,0.5229
12.0386,0,0,5,5,27.0386,27.0386,-23.7506,2.99602,40.7826,0.000137702,-0.348171,-0.0696527,0,0,-13.8775,0.2275,-0.3325,0.012322,0.066124,-0.996496,-0.06566,-0.0182,0.5229
12.4163,0,0,5,5,27.4163,27.4163,-23.4741,2.90254,41.1054,-0.17378,-0.240102,-0.0476045,0,0,-13.6325,0.175,-0.9275,-0.163968,0.169702,-0.97661,-0.06566,-0.0182,0.5229
12.2889,0,0,5,5,27.2889,27.2889,-23.2028,2.80778,41.421,-0.172128,-0.235793,-0.0456554,0,0,-13.09,0.595,-2.135,-0.163968,0.169702,-0.97661,-0.06594,-0.01414,0.52122
13.9221,0,0,5,5,28.9221,28.9221,-23.1786,2.73552,41.8143,-0.106481,0.00369512,-0.0921537,0,0,-13.5275,0.1225,-2.2225,-0.099308,0.408578,-1.02297,-0.06594,-0.01414,0.52122
13.9049,0,0,5,5,28.9049,28.9049,-23.154,2.66492,42.2073,-0.10525,0.00406668,-0.0919316,0,0,-12.985,0.7175,-2.1875,-0.099308,0.408578,-1.02297,-0.06594,-0.01414,0.52122
14.2798,0,0,5,5,29.2798,29.2798,-23.183,2.66511,42.2044,0.338169,0.0156928,-0.463189,1,0,-12.67,0.84,-2.415,0.345992,0.420656,-1.39117,-0.06594,-0.01414,0.52122
14.3115,0,0,5,5,29.3115,29.3115,-23.2138,2.66556,42.2012,0.338161,0.0151978,-0.463402,1,0,-13.7375,1.0325,-2.4675,0.345992,0.420656,-1.39117,-0.06594,-0.01414,0.52122
15.5558,0,0,5,5,30.5558,30.5558,-23.4134,2.39653,42.8589,-0.314142,0.145405,0.176957,0,0,-13.895,0.735,-2.1,-0.313784,0.554002,-0.75457,-0.06594,-0.01414,0.52122
15.6518,0,0,5,5,30.6518,30.6518,-23.6096,2.13067,43.518,-0.309506,0.142194,0.17576,0,0,-13.895,0.735,-2.1,-0.313784,0.554002,-0.75457,-0.06594,-0.01414,0.52122
15.5016,0,0,5,5,30.5016,30.5016,-23.7689,2.28727,43.756,0.206021,0.0201304,0.102008,0,0,-17.8325,1.0675,-1.89,0.206668,0.434564,-0.82655,-0.06594,-0.01414,0.52122
15.5809,0,0,5,5,30.5809,30.5809,-23.9259,2.44143,43.9964,0.203333,0.0176709,0.100799,0,0,-17.8325,1.0675,-1.89,0.206668,0.434564,-0.82655,-0.0623,-0.01344,0.53214
15.6933,0,0,5,5,30.6933,30.6933,-24.0854,2.59666,44.2374,0.203663,0.0176219,0.103371,0,0,-17.9025,1.435,-1.8725,0.209718,0.437004,-0.822768,-0.0623,-0.01344,0.53214
15.7675,0,0,5,5,30.7675,30.7675,-24.2418,2.75025,44.4798,0.200986,0.0151844,0.10214,0,0,-17.9025,1.435,-1.8725,0.209718,0.437004,-0.822768,-0.0623,-0.01344,0.53214
14.9613,0,0,5,5,29.9613,29.9613,-24.2744,2.74981,44.4768,-0.206348,0.030055,0.178873,1,0,-14.665,0.5425,-2.5725,-0.199348,0.452376,-0.746396,-0.0623,-0.01344,0.53214
14.9812,0,0,5,5,29.9812,29.9812,-24.3069,2.74937,44.4738,-0.206341,0.0295377,0.17864,1,0,-14.665,0.5425,-2.5725,-0.199348,0.452376,-0.746396,-0.0623,-0.01344,0.53214
14.9791,0,0,5,5,29.9791,29.9791,-24.3364,3.02881,44.519,0.392694,-0.0911247,-0.0131037,0,0,-13.9825,0.5425,-2.9225,0.407114,0.332206,-0.936228,-0.0623,-0.01344,0.53214
12.6562,0,0,5,5,27.6562,27.6562,-24.0438,2.81184,44.9334,-0.360016,-0.212952,-0.109811,0,0,-14.0175,0.9975,-2.7825,-0.35258,0.205936,-1.03444,-0.0623,-0.01344,0.53214
12.5221,0,0,5,5,27.5221,27.5221,-23.7568,2.59588,45.3453,-0.356251,-0.20845,-0.107622,0,0,-13.9125,1.2075,-2.765,-0.35258,0.205936,-1.03444,-0.0623,-0.01344,0.53214
14.6783,0,0,5,5,29.6783,29.6783,-23.7902,2.59655,45.3419,-0.526221,-0.20825,-0.376376,1,0,-15.1375,1.225,-2.5375,-0.523258,0.206668,-1.30089,-0.06482,-0.01512,0.52864
16.2467,0,0,5,5,31.2467,31.2467,-24.0367,2.75264,45.62,0.235081,0.117372,0.0830686,0,0,-16.8875,0.9275,-1.435,0.244,0.535824,-0.843142,-0.06482,-0.01512,0.52864
16.3774,0,0,5,5,31.3774,31.3774,-24.2807,2.90781,45.901,0.232376,0.113546,0.0812058,0,0,-18.0075,0.9625,-0.6825,0.244,0.535824,-0.843142,-0.06482,-0.01512,0.52864
15.0341,0,0,5,5,30.0341,30.0341,-24.3196,2.90901,45.901,-0.102823,-0.090658,0.0811713,1,0,-18.34,0.7,-0.595,-0.092598,0.33245,-0.842898,-0.06482,-0.01512,0.52864
15.0426,0,0,5,5,30.0426,30.0426,-24.3565,2.90989,45.901,-0.102839,-0.0912432,0.0809058,1,0,-17.1675,0.525,-0.6475,-0.092598,0.33245,-0.842898,-0.06482,-0.01512,0.52864
12.906,0,0,5,5,27.906,27.906,-24.0962,3.12635,45.8954,0.255537,-0.323218,-0.127656,0,0,-16.94,0.5775,-0.3325,0.271084,0.096502,-1.05152,-0.06482,-0.01512,0.52864
12.7798,0,0,5,5,27.7798,27.7798,-23.84,3.33985,45.8905,0.251817,-0.319053,-0.126035,0,0,-17.1325,0.7525,-0.2975,0.271084,0.096502,-1.05152,-0.06482,-0.01512,0.52864
15.6612,0,0,5,5,30.6612,30.6612,-24.0015,3.25246,46.3799,-0.0953242,0.0769613,0.128884,0,0,-16.7125,0.945,-0.56,-0.079056,0.49471,-0.797514,-0.06482,-0.01512,0.52864
15.7254,0,0,5,5,30.7254,30.7254,-24.1584,3.16535,46.8596,-0.0938063,0.0744305,0.127846,0,0,-16.17,0.0175,-1.1025,-0.079056,0.49471,-0.797514,-0.06958,-0.00644,0.53242
14.9262,0,0,5,5,29.9262,29.9262,-24.1923,3.16555,46.8589,0.271619,-0.0954983,0.174324,1,0,-15.4875,0.3325,-1.2075,0.28792,0.325496,-0.751154,-0.06958,-0.00644,0.53242
14.9128,0,0,5,5,29.9128,29.9128,-24.2215,3.16695,46.8573,0.271595,-0.095962,0.174114,1,0,-12.8275,1.1725,-1.3475,0.28792,0.325496,-0.751154,-0.06958,-0.00644,0.53242
14.9465,0,0,5,5,29.9465,29.9465,-24.2529,3.16913,46.8554,0.397416,0.083555,-0.113935,1,0,-14.035,1.6975,-1.4,0.414312,0.505324,-1.03676,-0.06958,-0.00644,0.53242
14.9875,0,0,5,5,29.9875,29.9875,-24.2873,3.16991,46.8532,0.397402,0.0830089,-0.114182,1,0,-15.715,0.9975,-1.8375,0.414312,0.505324,-1.03676,-0.06958,-0.00644,0.53242
15.0266,0,0,5,5,30.0266,30.0266,-24.3242,3.17184,46.8512,-0.177501,0.0744856,-0.251413,1,0,-17.115,1.575,-1.4875,-0.162992,0.497394,-1.17266,-0.06958,-0.00644,0.53242
15.0911,0,0,5,5,30.0911,30.0911,-24.3668,3.17444,46.8492,-0.177547,0.0738094,-0.251721,1,0,-20.3525,1.925,-1.295,-0.162992,0.497394,-1.17266,-0.06958,-0.00644,0.53242
11.9992,0,0,5,5,26.9992,26.9992,-23.9804,2.90937,47.2185,-0.411403,-0.320112,-0.0346864,0,0,-20.3175,0.525,-1.3125,-0.402478,0.097844,-0.960262,-0.06958,-0.00644,0.53242
11.8198,0,0,5,5,26.8198,26.8198,-23.6012,2.64346,47.5842,-0.406768,-0.314154,-0.0318137,0,0,-20.055,-0.3675,-1.4525,-0.402478,0.097844,-0.960262,-0.06524,-0.00098,0.53186
14.6453,0,0,5,5,29.6453,29.6453,-23.642,2.6432,47.5835,0.192283,-0.23689,0.0693335,1,0,-19.39,0.0875,-1.33,0.199104,0.17568,-0.859612,-0.06524,-0.00098,0.53186
14.6269,0,0,5,5,29.6269,29.6269,-23.6769,2.64361,47.5827,0.192275,-0.237447,0.069089,1,0,-16.0475,0.455,-1.1725,0.199104,0.17568,-0.859612,-0.06524,-0.00098,0.53186
14.6503,0,0,5,5,29.6503,29.6503,-23.7121,2.64352,47.5816,0.0237764,-0.214316,0.257445,1,0,-16.205,0.28,-1.505,0.02989,0.199348,-0.672464,-0.06524,-0.00098,0.53186
14.6689,0,0,5,5,29.6689,29.6689,-23.7469,2.64185,47.5789,0.0238056,-0.214872,0.257202,1,0,-15.9425,-0.21,-2.695,0.02989,0.199348,-0.672464,-0.06524,-0.00098,0.53186
14.6928,0,0,5,5,29.6928,29.6928,-23.7821,2.64087,47.576,-0.28876,0.0765714,0.261136,1,0,-16.135,0.2275,-2.6775,-0.284016,0.49105,-0.668316,-0.06524,-0.00098,0.53186
14.7047,0,0,5,5,29.7047,29.7047,-23.8159,2.64219,47.5723,-0.288783,0.0760319,0.260897,1,0,-15.3825,1.645,-2.5375,-0.284016,0.49105,-0.668316,-0.06524,-0.00098,0.53186
14.7232,0,0,5,5,29.7232,29.7232,-23.8495,2.64325,47.5684,0.263351,-0.303706,-0.412852,1,0,-15.2075,1.54,-2.695,0.270474,0.11224,-1.33663,-0.06524,-0.00098,0.53186
14.7532,0,0,5,5,29.7532,29.7532,-23.8844,2.64354,47.5638,0.263346,-0.304262,-0.413098,1,0,-15.925,1.295,-3.2375,0.270474,0.11224,-1.33663,-0.06832,-0.00798,0.52486
14.7763,0,0,5,5,29.7763,29.7763,-23.9195,2.64407,47.5592,-0.347493,-0.179397,-0.323963,1,0,-16.065,1.435,-3.2025,-0.342942,0.237534,-1.24794,-0.06832,-0.00798,0.52486
14.8378,0,0,5,5,29.8378,29.8378,-23.9601,2.64624,47.5556,-0.347531,-0.180044,-0.324252,1,0,-19.18,2.0825,-2.2925,-0.342942,0.237534,-1.24794,-0.06832,-0.00798,0.52486
14.8755,0,0,5,5,29.8755,29.8755,-24.0025,2.64826,47.5524,-0.423617,-0.404699,-0.231605,1,0,-20.195,1.9075,-2.1175,-0.419314,0.013786,-1.15571,-0.06832,-0.00798,0.52486
14.9235,0,0,5,5,29.9235,29.9235,-24.048,2.64831,47.5501,-0.423617,-0.405423,-0.231927,1,0,-21.9275,0.63,-2.0825,-0.419314,0.013786,-1.15571,-0.06832,-0.00798,0.52486
14.2415,0,0,5,5,29.2415,29.2415,-23.9958,2.94664,47.539,0.384529,-0.188935,-0.014785,0,0,-21.84,0.35,-1.9425,0.397476,0.229116,-0.940376,-0.06832,-0.00798,0.52486
14.1762,0,0,5,5,29.1762,29.1762,-23.9389,3.24233,47.5295,0.379375,-0.187916,-0.0146367,0,0,-19.1625,0.91,-1.225,0.397476,0.229116,-0.940376,-0.06832,-0.00798,0.52486
15.782,0,0,5,5,30.782,30.782,-24.1076,3.40975,47.7625,0.216097,0.0225795,0.103395,0,0,-18.4625,0.4725,-1.085,0.236436,0.442006,-0.821914,-0.06832,-0.00798,0.52486
15.8679,0,0,5,5,30.8679,30.8679,-24.2741,3.57453,47.9974,0.213227,0.0200045,0.102046,0,0,-19.04,-0.0525,-1.015,0.236436,0.442006,-0.821914,-0.06832,-0.00798,0.52486
11.1007,0,0,5,5,26.1007,26.1007,-23.7708,3.23448,48.3414,-0.56188,-0.43035,-0.0593054,0,0,-17.5875,0.245,-1.19,-0.547902,-0.015738,-0.985882,-0.06706,-0.00336,0.52598
15.3077,0,0,5,5,30.3077,30.3077,-23.888,3.39791,48.5596,0.224443,0.0257028,0.00943072,0,0,-15.8725,2.065,-1.155,0.24461,0.44164,-0.916708,-0.06706,-0.00336,0.52598
15.3394,0,0,5,5,30.3394,30.3394,-23.9998,3.55733,48.7795,0.221666,0.0239911,0.00848596,0,0,-14.21,0.7875,-1.295,0.24461,0.44164,-0.916708,-0.06706,-0.00336,0.52598
14.8352,0,0,5,5,29.8352,29.8352,-24.033,3.55781,48.7788,-0.858229,0.176611,-0.0352732,1,0,-15.05,0.49,-1.155,-0.839848,0.594628,-0.959896,-0.06706,-0.00336,0.52598
14.8733,0,0,5,5,29.8733,29.8733,-24.0686,3.55926,48.7765,-0.858254,0.176045,-0.0355274,1,0,-16.38,1.365,-1.715,-0.839848,0.594628,-0.959896,-0.06706,-0.00336,0.52598
14.956,0,0,5,5,29.956,29.956,-24.1125,3.56298,48.7739,0.27089,0.0936447,-0.0455568,1,0,-21.07,2.6775,-1.3825,0.294142,0.51301,-0.969534,-0.06706,-0.00336,0.52598
14.986,0,0,5,5,29.986,29.986,-24.157,3.56493,48.7726,0.270857,0.0929392,-0.0458752,1,0,-21.3675,1.4175,-1.12,0.294142,0.51301,-0.969534,-0.06706,-0.00336,0.52598
15.025,0,0,5,5,30.025,30.025,-24.2031,3.56508,48.7719,0.404853,-0.281989,-0.0859166,1,0,-22.3125,0.315,-1.225,0.428708,0.139202,-1.00894,-0.06706,-0.00336,0.52598
15.0489,0,0,5,5,30.0489,30.0489,-24.2486,3.56514,48.7713,0.404852,-0.282712,-0.086242,1,0,-21.9975,0.2275,-1.155,0.428708,0.139202,-1.00894,-0.06328,0.00056,0.52486
15.0765,0,0,5,5,30.0765,30.0765,-24.2941,3.56605,48.7709,-0.394054,0.0205387,0.202606,1,0,-21.9975,0.6475,-0.8925,-0.373564,0.44286,-0.721996,-0.06328,0.00056,0.52486
15.1045,0,0,5,5,30.1045,30.1045,-24.3396,3.56693,48.7702,-0.39407,0.019816,0.202279,1,0,-22.015,0.6825,-0.9975,-0.373564,0.44286,-0.721996,-0.06328,0.00056,0.52486
15.114,0,0,5,5,30.114,30.114,-24.3827,3.56751,48.7692,0.300697,-0.082232,0.282992,1,0,-20.5975,0.6125,-1.2775,0.324154,0.3416,-0.641598,-0.06328,0.00056,0.52486
15.1335,0,0,5,5,30.1335,30.1335,-24.4248,3.56775,48.7675,0.300693,-0.0829001,0.282688,1,0,-20.055,0.595,-1.715,0.324154,0.3416,-0.641598,-0.06328,0.00056,0.52486
11.6439,0,0,5,5,26.6439,26.6439,-23.9832,3.51732,48.9014,-0.129217,-0.412975,-0.102625,0,0,-17.92,0.595,-1.47,-0.108458,0.00488,-1.02712,-0.06328,0.00056,0.52486
11.4166,0,0,5,5,26.4166,26.4166,-23.5467,3.46665,49.0338,-0.128334,-0.406038,-0.0995117,0,0,-16.2925,1.05,-1.75,-0.108458,0.00488,-1.02712,-0.06328,0.00056,0.52486
14.5918,0,0,5,5,29.5918,29.5918,-23.5832,3.46762,49.0312,-0.560111,-0.215369,-0.318,1,0,-16.8525,1.19,-2.0475,-0.542046,0.195932,-1.24367,-0.06328,0.00056,0.52486
14.6164,0,0,5,5,29.6164,29.6164,-23.6199,3.46853,49.0269,-0.560127,-0.215956,-0.318258,1,0,-16.975,1.5575,-2.9575,-0.542046,0.195932,-1.24367,-0.06524,0.01022,0.51996
14.6558,0,0,5,5,29.6558,29.6558,-23.6591,3.46884,49.0227,0.477234,-0.320388,-0.40521,1,0,-18.2875,1.2075,-3.045,0.499712,0.092232,-1.32968,-0.06524,0.01022,0.51996
14.7079,0,0,5,5,29.7079,29.7079,-23.7021,3.46989,49.0191,0.477216,-0.321074,-0.405512,1,0,-20.4925,1.47,-2.555,0.499712,0.092232,-1.32968,-0.06524,0.01022,0.51996
14.7781,0,0,5,5,29.7781,29.7781,-23.7512,3.46995,49.0154,0.562497,-0.439465,-0.418397,1,0,-23.8875,0.9625,-2.835,0.585356,-0.025254,-1.34212,-0.06524,0.01022,0.51996
14.8133,0,0,5,5,29.8133,29.8133,-23.801,3.46998,49.0119,0.562497,-0.440259,-0.418747,1,0,-24.3075,0.91,-2.7475,0.585356,-0.025254,-1.34212,-0.06524,0.01022,0.51996
14.8417,0,0,5,5,29.8417,29.8417,-23.8505,3.47048,49.0088,-0.231785,-0.132923,0.100116,1,0,-24.185,1.05,-2.3975,-0.21228,0.282552,-0.826916,-0.06524,0.01022,0.51996
14.859,0,0,5,5,29.859,29.859,-23.8983,3.4702,49.0071,-0.23178,-0.133684,0.0997788,1,0,-23.24,0.315,-1.855,-0.21228,0.282552,-0.826916,-0.06524,0.01022,0.51996
14.8498,0,0,5,5,29.8498,29.8498,-23.9409,3.46971,49.0051,0.381366,-0.0417899,0.441399,1,0,-20.2825,0.2625,-2.03,0.403454,0.375028,-0.487634,-0.06524,0.01022,0.51996
14.8877,0,0,5,5,29.8877,29.8877,-23.9851,3.47022,49.0028,0.381358,-0.0424931,0.441085,1,0,-21.1925,0.8925,-2.0125,0.403454,0.375028,-0.487634,-0.0651,0.0098,0.52836
11.9974,0,0,5,5,26.9974,26.9974,-23.6278,3.68762,48.8854,0.198865,-0.444119,0.0504373,0,0,-20.6325,1.1725,-1.9425,0.223992,-0.031964,-0.877546,-0.0651,0.0098,0.52836
11.7923,0,0,5,5,26.7923,26.7923,-23.2718,3.90316,48.768,0.195111,-0.438332,0.0526761,0,0,-18.5325,2.1875,-2.2575,0.223992,-0.031964,-0.877546,-0.0651,0.0098,0.52836
14.4508,0,0,5,5,29.4508,29.4508,-23.311,3.90547,48.7644,-0.0997744,0.0578545,-0.25632,1,0,-18.3225,2.135,-2.275,-0.072102,0.464332,-1.18389,-0.0651,0.0098,0.52836
14.4775,0,0,5,5,29.4775,29.4775,-23.3505,3.90611,48.7619,-0.0997855,0.0572222,-0.256593,1,0,-18.585,0.98,-2.065,-0.072102,0.464332,-1.18389,-0.0651,0.0098,0.52836
14.5076,0,0,5,5,29.5076,29.5076,-23.3909,3.90708,48.7597,-0.0248457,-0.0835023,-0.368265,1,0,-19.0575,1.1025,-1.855,0.003172,0.324398,-1.29442,-0.0651,0.0098,0.52836
14.5529,0,0,5,5,29.5529,29.5529,-23.4342,3.90862,48.7563,-0.0248727,-0.0841925,-0.368566,1,0,-20.615,1.6625,-2.2925,0.003172,0.324398,-1.29442,-0.0651,0.0098,0.52836
14.6145,0,0,5,5,29.6145,29.6145,-23.4823,3.91028,48.7527,0.751028,-0.175212,-0.116733,1,0,-23.3275,1.8025,-2.45,0.782386,0.23424,-1.0442,-0.0651,0.0098,0.52836
14.6447,0,0,5,5,29.6447,29.6447,-23.5305,3.90999,48.7508,0.751033,-0.175982,-0.117068,1,0,-23.4675,0.3325,-1.925,0.782386,0.23424,-1.0442,-0.06594,0.01638,0.52724
13.1438,0,0,5,5,28.1438,28.1438,-23.3681,3.55208,49.2636,-0.510073,-0.111265,0.015616,0,0,-25.3925,0.5775,-1.33,-0.490318,0.29646,-0.914024,-0.06594,0.01638,0.52724
13.0788,0,0,5,5,28.0788,28.0788,-23.2102,3.1987,49.7734,-0.503916,-0.108881,0.0170375,0,0,-25.8475,1.7325,-0.77,-0.490318,0.29646,-0.914024,-0.06594,0.01638,0.52724
14.4957,0,0,5,5,29.4957,29.4957,-23.2603,3.20158,49.7727,-0.234146,-0.193827,0.459797,1,0,-24.535,1.7675,-0.5775,-0.219356,0.212402,-0.474336,-0.06594,0.01638,0.52724
14.5133,0,0,5,5,29.5133,29.5133,-23.3085,3.20244,49.7733,-0.234161,-0.1946,0.459464,1,0,-23.59,0.385,-0.3675,-0.219356,0.212402,-0.474336,-0.06594,0.01638,0.52724
12.8374,0,0,5,5,27.8374,27.8374,-23.1222,3.45436,49.7122,0.284324,-0.304482,0.00842775,0,0,-20.895,-0.2275,-0.2975,0.305732,0.099552,-0.92293,-0.06594,0.01638,0.52724
12.7273,0,0,5,5,27.7273,27.7273,-22.936,3.70495,49.6498,0.279959,-0.30139,0.00944514,0,0,-19.6875,1.4525,-0.91,0.305732,0.099552,-0.92293,-0.06594,0.01638,0.52724
14.2749,0,0,5,5,29.2749,29.2749,-22.9781,3.70755,49.6473,-0.0117737,-0.0147002,-0.324526,1,0,-20.02,2.03,-1.61,0.01281,0.386618,-1.25404,-0.06594,0.01638,0.52724
14.3185,0,0,5,5,29.3185,29.3185,-23.0227,3.70971,49.6438,-0.0118114,-0.015414,-0.324832,1,0,-21.3675,2.03,-2.275,0.01281,0.386618,-1.25404,-0.06594,0.01638,0.52724
14.3498,0,0,5,5,29.3498,29.3498,-23.0678,3.71102,49.6404,-0.123722,-0.0103974,-0.16039,1,0,-21.7,1.5225,-2.3625,-0.099552,0.392352,-1.09056,-0.06482,0.01862,0.52192
14.3975,0,0,5,5,29.3975,29.3975,-23.1158,3.7118,49.6375,-0.123736,-0.0111652,-0.160718,1,0,-23.275,1.155,-2.275,-0.099552,0.392352,-1.09056,-0.06482,0.01862,0.52192
13.7447,0,0,5,5,28.7447,28.7447,-23.0699,3.71478,49.8959,-0.00716167,-0.0913988,-0.00991887,0,0,-24.7975,0.7175,-2.2225,0.017568,0.311466,-0.94123,-0.06482,0.01862,0.52192
13.7233,0,0,5,5,28.7233,28.7233,-23.0248,3.71762,50.1545,-0.00721105,-0.0906749,-0.00961439,0,0,-24.7975,0.7175,-2.2225,0.017568,0.311466,-0.94123,-0.06482,0.01862,0.52192
10.108,0,0,5,5,25.108,25.108,-22.4859,3.7264,50.0927,-0.0572946,-0.560142,-0.00537826,0,0,-28.245,0.9625,-3.0625,-0.032574,-0.166164,-0.94062,-0.06482,0.01862,0.52192
9.84768,0,0,5.15232,5.15232,24.8477,24.8477,-21.9556,3.73396,50.0315,-0.0574263,-0.551588,-0.00189341,0,0,-28.245,0.9625,-3.0625,-0.032574,-0.166164,-0.94062,-0.06482,0.01862,0.52192
10.7469,0,0,5,5,25.7469,25.7469,-21.5928,3.32902,50.4201,-0.571424,-0.32019,0.0528626,0,0,-26.25,1.365,-1.7325,-0.555832,0.059292,-0.889014,-0.06482,0.01862,0.52192
10.5807,0,0,5,5,25.5807,25.5807,-21.237,2.92602,50.8043,-0.564401,-0.314558,0.0554836,0,0,-26.25,1.365,-1.7325,-0.555832,0.059292,-0.889014,-0.06482,0.01862,0.52192
12.6264,0,0,5,5,27.6264,27.6264,-21.1921,3.08843,50.8971,0.168972,-0.154399,0.0711198,0,0,-24.605,0.8225,-1.89,0.183488,0.218502,-0.873642,-0.06398,0.021,0.51604
11.7288,0,0,5,5,26.7288,26.7288,-21.0273,2.83357,51.285,-0.3412,-0.140689,0.00646817,0,0,-23.765,1.785,-2.3975,-0.333304,0.229604,-0.939034,-0.06398,0.021,0.51604
11.6565,0,0,5,5,26.6565,26.6565,-20.8661,2.58092,51.6707,-0.336795,-0.138139,0.00766721,0,0,-23.765,1.785,-2.3975,-0.333304,0.229604,-0.939034,-0.06398,0.021,0.51604
13.059,0,0,5,5,28.059,28.059,-20.9112,2.58228,51.6668,-0.324792,0.0373553,-0.308715,1,0,-21.6825,1.6275,-2.7475,-0.321226,0.40565,-1.2527,-0.06398,0.021,0.51604
13.1105,0,0,5,5,28.1105,28.1105,-20.9596,2.5839,51.6618,0.507478,0.126453,-0.231437,1,0,-23.52,1.9775,-3.22,0.514596,0.495442,-1.17571,-0.06398,0.021,0.51604
13.2279,0,0,5,5,28.2279,28.2279,-21.0202,2.5851,51.6567,0.507458,0.125467,-0.231816,1,0,-30.31,1.785,-3.4125,0.514596,0.495442,-1.17571,-0.06398,0.021,0.51604
13.7492,0,0,5,5,28.7492,28.7492,-21.1474,2.58947,51.9895,0.00989742,0.0575725,0.0206566,0,0,-29.0325,1.8725,-2.94,0.015006,0.429684,-0.924394,-0.06398,0.021,0.51604
13.8113,0,0,5,5,28.8113,28.8113,-21.2726,2.59367,52.321,0.0098243,0.0555381,0.0198636,0,0,-29.2075,1.61,-2.765,0.015006,0.429684,-0.924394,-0.06706,0.02058,0.51492
10.6394,0,0,5,5,25.6394,25.6394,-20.951,2.35078,52.5854,-0.372022,-0.293463,-0.112943,0,0,-31.08,1.3825,-2.6775,-0.37271,0.075884,-1.05835,-0.06706,0.02058,0.51492
10.4891,0,0,5,5,25.4891,25.4891,-20.6352,2.10985,52.8485,-0.36782,-0.288372,-0.110835,0,0,-30.765,1.295,-2.0125,-0.37271,0.075884,-1.05835,-0.06706,0.02058,0.51492
13.0158,0,0,5,5,28.0158,28.0158,-20.6931,2.11243,52.8462,0.0501671,-0.498153,0.151548,1,0,-28.9275,1.9425,-1.575,0.047092,-0.132736,-0.797636,-0.06706,0.02058,0.51492
13.0128,0,0,5,5,28.0128,28.0128,-20.7458,2.1155,52.8456,0.0501136,-0.499012,0.151221,1,0,-26.0225,1.8725,-0.595,0.047092,-0.132736,-0.797636,-0.06706,0.02058,0.51492
12.2006,0,0,5,5,27.2006,27.2006,-20.6823,1.92365,53.2361,-0.229116,-0.0871837,0.0847163,0,0,-25.165,0.315,-0.455,-0.23668,0.277672,-0.864126,-0.06706,0.02058,0.51492
12.1583,0,0,5,5,27.1583,27.1583,-20.6182,1.73393,53.6241,-0.225806,-0.0861746,0.0852095,0,0,-23.8875,0.63,-1.12,-0.23668,0.277672,-0.864126,-0.06706,0.02058,0.51492
12.9532,0,0,5,5,27.9532,27.9532,-20.6687,1.73881,53.6219,0.246445,0.0825131,-0.124854,1,0,-24.7975,3.185,-1.0675,0.237656,0.447008,-1.07226,-0.06706,0.02058,0.51492
13.0079,0,0,5,5,28.0079,28.0079,-20.7226,1.74299,53.6205,0.246372,0.0816349,-0.125188,1,0,-26.67,2.6425,-0.7875,0.237656,0.447008,-1.07226,-0.06706,0.02058,0.51492
13.0344,0,0,5,5,28.0344,28.0344,-20.7756,1.74533,53.6192,0.393936,0.0449874,-0.282891,1,0,-26.1975,1.61,-1.1025,0.385886,0.411262,-1.22842,-0.06622,0.0224,0.51758
13.0862,0,0,5,5,28.0862,28.0862,-20.8313,1.74374,53.6174,-0.147862,-0.128364,-0.319382,1,0,-27.7025,-0.4375,-2.1875,-0.158234,0.238998,-1.26429,-0.06622,0.0224,0.51758
13.1494,0,0,5,5,28.1494,28.1494,-20.8911,1.74503,53.6144,-0.147885,-0.129339,-0.319754,1,0,-29.96,1.4,-2.2575,-0.158234,0.238998,-1.26429,-0.06622,0.0224,0.51758
13.2165,0,0,5,5,28.2165,28.2165,-20.9551,1.74807,53.611,0.310185,-0.187537,-0.128601,1,0,-32.34,2.4325,-2.1,0.301828,0.181902,-1.07421,-0.06622,0.0224,0.51758
13.2947,0,0,5,5,28.2947,28.2947,-21.0246,1.74932,53.6067,0.310163,-0.188668,-0.129035,1,0,-35.3675,1.645,-2.9575,0.301828,0.181902,-1.07421,-0.06622,0.0224,0.51758
15.142,0,0,5,5,30.142,30.142,-21.3425,2.03082,53.7891,0.398675,0.142557,0.0820023,0,0,-35.315,0.7875,-2.835,0.395646,0.51789,-0.862662,-0.06622,0.0224,0.51758
15.2467,0,0,5,5,30.2467,30.2467,-21.6485,2.30969,53.9749,0.393811,0.137659,0.0798752,0,0,-31.57,0.8575,-1.505,0.395646,0.51789,-0.862662,-0.06622,0.0224,0.51758
13.6333,0,0,5,5,28.6333,28.6333,-21.7071,2.31289,53.9738,0.0933215,-0.0913016,0.531823,1,0,-29.365,2.0475,-0.805,0.09394,0.290116,-0.413824,-0.06846,0.02576,0.51576
12.4745,0,0,5,5,27.4745,27.4745,-21.6015,2.56219,53.9506,0.317732,-0.220318,-0.0886821,0,0,-29.68,0.595,-0.91,0.323666,0.159454,-1.03005,-0.06846,0.02576,0.51576
12.3886,0,0,5,5,27.3886,27.3886,-21.4926,2.80735,53.9257,0.313458,-0.21848,-0.0881717,0,0,-27.2125,0.84,-2.415,0.323666,0.159454,-1.03005,-0.06846,0.02576,0.51576
13.8969,0,0,5,5,28.8969,28.8969,-21.6003,2.62146,54.4049,-0.243593,0.117642,-0.00695749,0,0,-25.8475,2.7475,-2.3625,-0.238998,0.497028,-0.948916,-0.06846,0.02576,0.51576
13.9503,0,0,5,5,28.9503,28.9503,-21.7064,2.43786,54.884,-0.240392,0.115871,-0.00750864,0,0,-25.8475,2.7475,-2.3625,-0.238998,0.497028,-0.948916,-0.06846,0.02576,0.51576
12.3024,0,0,5,5,27.3024,27.3024,-21.5769,2.578,54.9459,0.157095,-0.206726,-0.0557089,0,0,-28.56,1.4175,-3.85,0.162626,0.17263,-0.997472,-0.06846,0.02576,0.51576
12.2387,0,0,5,5,27.2387,27.2387,-21.4493,2.71602,55.0082,0.154689,-0.204615,-0.0549966,0,0,-28.56,1.4175,-3.85,0.162626,0.17263,-0.997472,-0.06846,0.02576,0.51576
13.5723,0,0,5,5,28.5723,28.5723,-21.5157,2.71603,55.0032,0.272408,-0.153178,-0.17714,1,0,-33.6,1.1375,-3.5875,0.280844,0.22509,-1.11825,-0.06846,0.02576,0.51576
13.6125,0,0,5,5,28.6125,28.6125,-21.5821,2.71604,54.9982,0.272408,-0.154255,-0.177565,1,0,-33.6,1.1375,-3.5875,0.280844,0.22509,-1.11825,-0.06664,0.02674,0.52234
13.6735,0,0,5,5,28.6735,28.6735,-21.6514,2.71667,54.9926,-0.568527,-0.0251908,-0.00686602,1,0,-35.1925,1.61,-3.78,-0.56364,0.355142,-0.948428,-0.06664,0.02674,0.52234
12.9599,0,0,5,5,27.9599,27.9599,-21.6167,3.02133,54.9438,0.395254,-0.196363,-0.0424226,0,0,-36.575,1.4,-3.605,0.409554,0.183488,-0.983686,-0.06664,0.02674,0.52234
12.9227,0,0,5,5,27.9227,27.9227,-21.5797,3.32491,54.8981,0.389964,-0.195656,-0.042458,0,0,-35.385,2.66,-1.6275,0.409554,0.183488,-0.983686,-0.06664,0.02674,0.52234
13.6379,0,0,5,5,28.6379,28.6379,-21.6442,3.33037,54.8958,0.337751,-0.186805,0.444122,1,0,-32.55,3.535,-0.9625,0.357216,0.19337,-0.500444,-0.06664,0.02674,0.52234
13.6799,0,0,5,5,28.6799,28.6799,-21.709,3.33185,54.8958,0.337725,-0.187855,0.443703,1,0,-32.865,0.8575,-0.5425,0.357216,0.19337,-0.500444,-0.06664,0.02674,0.52234
13.7323,0,0,5,5,28.7323,28.7323,-21.7757,3.33189,54.896,-0.768889,-0.238273,-0.120446,1,0,-33.88,0.035,-0.7525,-0.754082,0.144082,-1.05981,-0.06664,0.02674,0.52234
13.7404,0,0,5,5,28.7404,28.7404,-21.8379,3.33761,54.8919,-0.768988,-0.239277,-0.120854,1,0,-31.255,4.06,-1.855,-0.754082,0.144082,-1.05981,-0.06664,0.02674,0.52234
13.7577,0,0,5,5,28.7577,28.7577,-21.8974,3.34362,54.8877,0.107062,-0.0326207,-0.408576,1,0,-29.68,4.2525,-1.855,0.125782,0.351482,-1.34493,-0.06972,0.03402,0.51828
11.7874,0,0,5,5,26.7874,26.7874,-21.6807,3.15972,55.1531,-0.240341,-0.216647,0.0208554,0,0,-29.4175,1.785,-1.9425,-0.22631,0.164212,-0.920368,-0.06972,0.03402,0.51828
11.7479,0,0,5,5,26.7479,26.7479,-21.4764,2.97352,55.4169,-0.237096,-0.213401,0.0223262,0,0,-33.8625,-0.3675,-2.835,-0.22631,0.164212,-0.920368,-0.06972,0.03402,0.51828
14.0129,0,0,5,5,29.0129,29.0129,-21.6007,3.06477,55.6586,0.116781,0.0215412,0.00915819,0,0,-36.5575,0.9975,-2.6075,0.130662,0.400892,-0.932568,-0.06972,0.03402,0.51828
14.0901,0,0,5,5,29.0901,29.0901,-21.7253,3.15756,55.9006,0.115163,0.019556,0.00827506,0,0,-38.0275,2.555,-2.31,0.130662,0.400892,-0.932568,-0.06972,0.03402,0.51828
14.2825,0,0,5,5,29.2825,29.2825,-21.866,3.26083,56.1399,0.139119,0.0424745,-0.031458,0,0,-41.895,1.855,-2.17,0.156526,0.426024,-0.970998,-0.06972,0.03402,0.51828
14.3121,0,0,5,5,29.3121,29.3121,-21.9992,3.35987,56.3817,0.137393,0.04036,-0.032417,0,0,-39.1475,-0.0525,-2.03,0.156526,0.426024,-0.970998,-0.06972,0.03402,0.51828
11.6645,0,0,5,5,26.6645,26.6645,-21.7569,3.15012,56.6361,-0.290712,-0.231074,-0.0719619,0,0,-35.42,0.105,-1.5925,-0.277062,0.151036,-1.01199,-0.06972,0.03402,0.51828
11.5606,0,0,5,5,26.5606,26.5606,-21.5203,2.94749,56.8884,-0.287181,-0.227311,-0.0702665,0,0,-35.5075,3.0275,-0.1575,-0.277062,0.151036,-1.01199,-0.06524,0.04088,0.511
13.6526,0,0,5,5,28.6526,28.6526,-21.5911,2.95204,56.8879,-0.249599,-0.248974,0.282016,1,0,-36.1725,2.66,-0.21,-0.239242,0.13054,-0.661972,-0.06524,0.04088,0.511
13.6945,0,0,5,5,28.6945,28.6945,-21.6618,2.9508,56.8866,-0.249578,-0.250119,0.281563,1,0,-36.085,-0.35,-1.82,-0.239242,0.13054,-0.661972,-0.06524,0.04088,0.511
13.7296,0,0,5,5,28.7296,28.7296,-21.7314,2.95129,56.8834,0.488318,0.215277,-0.00560231,1,0,-35.4375,1.0325,-2.5375,0.501786,0.59658,-0.946476,-0.06524,0.04088,0.511
13.7749,0,0,5,5,28.7749,28.7749,-21.8015,2.9572,56.8789,0.488215,0.214145,-0.00606005,1,0,-35.6475,4.235,-1.995,0.501786,0.59658,-0.946476,-0.06524,0.04088,0.511
13.8218,0,0,5,5,28.8218,28.8218,-21.8721,2.96181,56.875,0.378797,0.370669,-0.0464805,1,0,-36.015,3.43,-2.0125,0.391986,0.754082,-0.986126,-0.06524,0.04088,0.511
13.8656,0,0,5,5,28.8656,28.8656,-21.943,2.96224,56.8689,0.37879,0.369523,-0.0469414,1,0,-36.0325,1.6275,-4.095,0.391986,0.754082,-0.986126,-0.06524,0.04088,0.511
13.8984,0,0,5,5,28.8984,28.8984,-22.0124,2.95937,56.8624,-0.206843,0.218306,-0.224561,1,0,-35.245,-0.0875,-4.9875,-0.196176,0.604144,-1.16193,-0.06524,0.04088,0.511
13.9736,0,0,5,5,28.9736,28.9736,-22.0864,2.95876,56.855,-0.206832,0.21711,-0.225045,1,0,-37.7825,1.3475,-4.9875,-0.196176,0.604144,-1.16193,-0.06916,0.04536,0.51954
14.0591,0,0,5,5,29.0591,29.0591,-22.1661,2.96003,56.8478,0.162341,-0.231647,0.304708,1,0,-40.9325,2.345,-4.515,0.174582,0.157136,-0.635742,-0.06916,0.04536,0.51954
14.1688,0,0,5,5,29.1688,29.1688,-22.2542,2.962,56.8415,0.162307,-0.233068,0.304126,1,0,-45.71,2.52,-3.8325,0.174582,0.157136,-0.635742,-0.06916,0.04536,0.51954
12.0726,0,0,5,5,27.0726,27.0726,-22.0465,2.78889,57.0704,-0.220271,-0.24113,0.0405547,0,0,-45.2725,2.275,-3.7975,-0.212646,0.14579,-0.898774,-0.06916,0.04536,0.51954
11.9008,0,0,5,5,26.9008,26.9008,-21.8322,2.6189,57.2999,-0.217308,-0.237718,0.04208,0,0,-39.305,2.6075,-2.3625,-0.212646,0.14579,-0.898774,-0.06916,0.04536,0.51954
13.8582,0,0,5,5,28.8582,28.8582,-21.905,2.62358,57.2972,-0.103922,-0.163664,0.378974,1,0,-37.24,3.185,-1.295,-0.098698,0.220942,-0.564006,-0.06916,0.04536,0.51954
13.9183,0,0,5,5,28.9183,28.9183,-21.98,2.62595,57.2961,-0.103963,-0.164877,0.378484,1,0,-38.5175,1.5925,-0.9625,-0.098698,0.220942,-0.564006,-0.06916,0.04536,0.51954
13.9721,0,0,5,5,28.9721,28.9721,-22.0562,2.62547,57.2935,0.0301655,-0.222652,0.232784,1,0,-39.13,0.3675,-2.3975,0.03599,0.164456,-0.708088,-0.06916,0.04536,0.51954
14.0181,0,0,5,5,29.0181,29.0181,-22.1324,2.62497,57.2909,0.0301741,-0.223883,0.232285,1,0,-39.13,0.3675,-2.3975,0.03599,0.164456,-0.708088,-0.06916,0.04536,0.51954
14.08,0,0,5,5,29.08,29.08,-22.2107,2.63004,57.2868,-0.125173,-0.268868,-0.242323,1,0,-40.32,3.71,-1.96,-0.119926,0.12078,-1.17852,-0.06412,0.05124,0.5131
14.1314,0,0,5,5,29.1314,29.1314,-22.2896,2.63235,57.2835,-0.411312,0.0768218,-0.188872,1,0,-40.6525,2.0475,-2.1525,-0.407236,0.467382,-1.12496,-0.06412,0.05124,0.5131
14.184,0,0,5,5,29.184,29.184,-22.3692,2.63258,57.279,-0.411316,0.0755383,-0.189399,1,0,-41.0025,1.19,-3.2725,-0.407236,0.467382,-1.12496,-0.06412,0.05124,0.5131
14.2322,0,0,5,5,29.2322,29.2322,-22.4488,2.63187,57.2737,0.0439031,-0.354043,-0.336359,1,0,-40.985,0.8575,-3.885,0.049898,0.039528,-1.27026,-0.06412,0.05124,0.5131
14.2803,0,0,5,5,29.2803,29.2803,-22.5284,2.63116,57.2684,0.0439155,-0.355326,-0.336889,1,0,-40.985,0.8575,-3.885,0.049898,0.039528,-1.27026,-0.06412,0.05124,0.5131
14.3773,0,0,5,5,29.3773,29.3773,-22.6147,2.63426,57.264,0.539402,0.00136125,0.0601462,1,0,-44.7825,2.7125,-2.52,0.547536,0.397232,-0.875716,-0.06412,0.05124,0.5131
14.4294,0,0,5,5,29.4294,29.4294,-22.701,2.63736,57.2597,0.539348,-2.66317e-05,0.0595642,1,0,-44.7825,2.7125,-2.52,0.547536,0.397232,-0.875716,-0.06412,0.05124,0.5131
15.3733,0,0,5,5,30.3733,30.3733,-22.9101,2.39901,57.8171,-0.298028,0.153109,0.120901,0,0,-45.29,2.87,-0.9275,-0.297558,0.553636,-0.813618,-0.06874,0.05516,0.5166
14.6075,0,0,5,5,29.6075,29.6075,-22.9964,2.40423,57.816,0.259379,-0.413112,0.239201,1,0,-44.8875,3.115,-0.2625,0.2623,-0.010614,-0.695644,-0.06874,0.05516,0.5166
14.6222,0,0,5,5,29.6222,29.6222,-23.0776,2.40493,57.8172,0.259367,-0.414415,0.238647,1,0,-42.0525,0.1575,-0.0525,0.2623,-0.010614,-0.695644,-0.06874,0.05516,0.5166
14.6625,0,0,5,5,29.6625,29.6625,-23.1576,2.4033,57.8175,0.587164,-0.111847,0.0352349,1,0,-41.3525,-0.875,-1.12,0.591456,0.292922,-0.896944,-0.06874,0.05516,0.5166
14.7109,0,0,5,5,29.7109,29.7109,-23.2376,2.40167,57.8177,0.587192,-0.11313,0.0346866,1,0,-41.3525,-0.875,-1.12,0.591456,0.292922,-0.896944,-0.06874,0.05516,0.5166
13.4004,0,0,5,5,28.4004,28.4004,-23.1306,2.43143,57.9646,0.0250448,-0.172347,-0.11435,0,0,-44.17,2.5725,-2.835,0.02745,0.232044,-1.04554,-0.06874,0.05516,0.5166
13.3494,0,0,5,5,28.3494,28.3494,-23.0254,2.46063,58.1114,0.0245355,-0.17065,-0.113651,0,0,-44.17,2.5725,-2.835,0.02745,0.232044,-1.04554,-0.06874,0.05516,0.5166
14.6813,0,0,5,5,29.6813,29.6813,-23.1121,2.45794,58.1061,-0.027292,-0.102308,-0.35854,1,0,-44.975,-0.1575,-4.375,-0.024644,0.301706,-1.28795,-0.06874,0.05516,0.5166
14.7336,0,0,5,5,29.7336,29.7336,-23.1988,2.45525,58.1007,-0.027245,-0.103698,-0.359133,1,0,-44.975,-0.1575,-4.375,-0.024644,0.301706,-1.28795,-0.07574,0.06328,0.50834
11.3235,0,0,5,5,26.3235,26.3235,-22.809,2.56171,57.9355,0.0911696,-0.506657,-0.0201644,0,0,-47.565,2.6425,-5.075,0.096136,-0.107116,-0.954162,-0.07574,0.06328,0.50834
11.7391,0,0,5,5,26.7391,26.7391,-22.5085,2.52325,57.9592,-0.0733805,-0.368594,-0.067544,0,0,-49.6825,2.6775,-4.935,-0.069784,0.025986,-1.00321,-0.07574,0.06328,0.50834
11.5699,0,0,5,5,26.5699,26.5699,-22.2095,2.48647,57.9825,-0.0727391,-0.363783,-0.0655349,0,0,-47.6,3.5,-4.6375,-0.069784,0.025986,-1.00321,-0.07574,0.06328,0.50834
12.9294,0,0,5,5,27.9294,27.9294,-22.1222,2.26732,58.2988,-0.303871,-0.0894806,-0.0959198,0,0,-46.8475,2.1875,-4.3575,-0.305732,0.298656,-1.03407,-0.07574,0.06328,0.50834
12.9043,0,0,5,5,27.9043,27.9043,-22.0387,2.05199,58.6149,-0.300115,-0.0881834,-0.0952408,0,0,-47.775,2.625,-3.3425,-0.305732,0.298656,-1.03407,-0.07574,0.06328,0.50834
14.1395,0,0,5,5,29.1395,29.1395,-22.132,2.0568,58.6093,0.146261,-0.379985,0.0679121,1,0,-48.685,3.9025,-2.835,0.142618,0.008662,-0.871568,-0.07574,0.06328,0.50834
14.1977,0,0,5,5,29.1977,29.1977,-22.2255,2.06029,58.6043,0.1462,-0.381495,0.0672942,1,0,-48.8425,3.045,-2.7825,0.142618,0.008662,-0.871568,-0.07574,0.06328,0.50834
13.1282,0,0,5,5,28.1282,28.1282,-22.1641,2.0742,58.7731,0.00637019,-0.138079,-0.0744378,0,0,-48.0375,2.3275,-2.66,0.00244,0.250832,-1.0126,-0.06734,0.06454,0.50022
14.1809,0,0,5,5,29.1809,29.1809,-22.2526,2.07345,58.769,0.175248,-0.280442,-0.160224,1,0,-46.025,0.5775,-3.29,0.17202,0.110044,-1.09715,-0.06734,0.06454,0.50022
14.2466,0,0,5,5,29.2466,29.2466,-22.3428,2.07691,58.7623,0.175188,-0.281896,-0.160823,1,0,-46.9175,3.4125,-3.71,0.17202,0.110044,-1.09715,-0.06734,0.06454,0.50022
14.3183,0,0,5,5,29.3183,29.3183,-22.4353,2.07982,58.7555,0.101274,-0.219149,-0.275658,1,0,-48.2475,3.15,-3.885,0.097844,0.174216,-1.21048,-0.06734,0.06454,0.50022
14.433,0,0,5,5,29.433,29.433,-22.536,2.08016,58.7492,0.101268,-0.220771,-0.27633,1,0,-52.7975,1.6625,-4.2175,0.097844,0.174216,-1.21048,-0.06734,0.06454,0.50022
14.5082,0,0,5,5,29.5082,29.5082,-22.6386,2.08179,58.7439,-0.136872,-0.208746,-0.250216,1,0,-53.935,2.1175,-3.325,-0.141276,0.18788,-1.18389,-0.06734,0.06454,0.50022
14.5701,0,0,5,5,29.5701,29.5701,-22.7412,2.08341,58.7387,-0.136901,-0.210397,-0.250907,1,0,-53.935,2.1175,-3.325,-0.141276,0.18788,-1.18389,-0.06734,0.06454,0.50022
14.6093,0,0,5,5,29.6093,29.6093,-22.8407,2.09597,58.7312,0.422686,-0.218955,0.296886,1,0,-52.1325,8.54,-2.065,0.4209,0.180926,-0.639646,-0.06734,0.06454,0.50022
14.6693,0,0,5,5,29.6693,29.6693,-22.9402,2.10851,58.7237,0.422468,-0.220551,0.296204,1,0,-52.1325,8.54,-2.065,0.4209,0.180926,-0.639646,-0.06944,0.07378,0.50694
14.2923,0,0,5,5,29.2923,29.2923,-22.9796,2.20248,58.8961,0.112134,-0.0776598,-0.0362047,0,0,-49.735,2.1525,-1.2775,0.110898,0.324276,-0.969168,-0.06944,0.07378,0.50694
