pid_x,pid_y,pid_z,front_left_speed,front_right_speed,back_left_speed,back_right_speed,orientation_x,orientation_y,orientation_z,acceleration_x,acceleration_y,acceleration_z,accel_rejected,mag_rejected,gyro_x,gyro_y,gyro_z,accel_x,accel_y,accel_z,mag_x,mag_y,mag_z
-0.0385459,0,0,15.0385,15.0385,14.9615,14.9615,0.0154184,0.0641011,0.0186936,0.0494632,-0.0137204,-0.00522556,0,0,3.1675,-0.105,-0.7,0.010492,-0.00183,-1.01785,-0.07462,0.10948,0.45374
-0.0641217,0,0,15.0641,15.0641,14.9359,14.9359,0.0256487,0.124344,0.0391541,0.0467109,-0.00938957,-0.00473555,0,0,3.08,-0.105,-0.7525,0.008784,0.002318,-1.01736,-0.07462,0.10948,0.45374
-0.0983433,0,0,15.0983,15.0983,14.9017,14.9017,0.0393373,0.178577,0.0641382,0.0417553,-0.0120817,-0.00584473,0,0,3.2725,0.0175,-0.77,0.004758,-0.00061,-1.01846,-0.07462,0.10948,0.45374
-0.132734,0,0,15.1327,15.1327,14.8673,14.8673,0.0530935,0.231763,0.0890724,0.0408271,-0.0118416,-0.00584825,0,0,3.465,0.1225,-0.77,0.004758,-0.00061,-1.01846,-0.07462,0.10948,0.45374
-0.163581,0,0,15.1636,15.1636,14.8364,14.8364,0.0654324,0.290224,0.107994,0.0447877,-0.0106493,0.00164674,0,0,3.395,0.0525,-0.7175,0.00976,0.000366,-1.01101,-0.07462,0.10948,0.45374
-0.193811,0,0,15.1938,15.1938,14.8062,14.8062,0.0775243,0.347375,0.126882,0.0437902,-0.0104382,0.00164093,0,0,3.395,0.0525,-0.7175,0.00976,0.000366,-1.01101,-0.07462,0.10948,0.45374
-0.225448,0,0,15.2254,15.2254,14.7746,14.7746,0.0901794,0.400698,0.151109,0.0412803,-0.0109501,-0.00242277,0,0,3.4125,-0.035,-0.77,0.008174,-0.000366,-1.01504,-0.07112,0.10738,0.4487
-0.259762,0,0,15.2598,15.2598,14.7402,14.7402,0.103905,0.456828,0.171949,0.0429733,-0.0114433,0.00150384,0,0,3.6575,0.1925,-0.8225,0.010858,-0.001098,-1.01114,-0.07112,0.10738,0.4487
-0.296226,0,0,15.2962,15.2962,14.7038,14.7038,0.11849,0.512836,0.191734,0.0430892,-0.0121658,-0.00280812,0,0,3.71,0.1925,-0.84,0.011956,-0.002074,-1.01541,-0.07112,0.10738,0.4487
-0.329014,0,0,15.329,15.329,14.671,14.671,0.131606,0.566934,0.211695,0.0419021,-0.0109599,-0.00294046,0,0,3.675,0.035,-0.875,0.011712,-0.001098,-1.01553,-0.07112,0.10738,0.4487
-0.35702,0,0,15.357,15.357,14.643,14.643,0.142808,0.61626,0.234902,0.0382471,-0.00954318,-0.00393341,0,0,3.535,0.07,-0.8225,0.008906,0.000122,-1.0165,-0.07112,0.10738,0.4487
-0.383992,0,0,15.384,15.384,14.616,14.616,0.153597,0.664422,0.25797,0.0374065,-0.00935491,-0.00394329,0,0,3.43,0.035,-0.875,0.008906,0.000122,-1.0165,-0.07112,0.10738,0.4487
-0.414389,0,0,15.4144,15.4144,14.5856,14.5856,0.165756,0.71218,0.280033,0.036816,-0.0104861,0.0046525,0,0,3.395,-0.105,-0.9975,0.00915,-0.00122,-1.00796,-0.07112,0.10738,0.4487
-0.440385,0,0,15.4404,15.4404,14.5596,14.5596,0.176154,0.762941,0.293713,0.0400607,-0.00896131,-0.00458058,0,0,3.4825,-0.14,-1.12,0.013298,0.000122,-1.01711,-0.06748,0.10906,0.45164
-0.472813,0,0,15.4728,15.4728,14.5272,14.5272,0.189125,0.811989,0.308616,0.0381113,-0.0110554,0.00462807,0,0,3.4825,-0.1225,-0.805,0.0122,-0.002196,-1.00796,-0.06748,0.10906,0.45164
-0.505675,0,0,15.5057,15.5057,14.4943,14.4943,0.20227,0.860005,0.323372,0.0372734,-0.010826,0.00461506,0,0,3.7275,-0.0875,-0.875,0.0122,-0.002196,-1.00796,-0.06748,0.10906,0.45164
-0.532447,0,0,15.5324,15.5324,14.4676,14.4676,0.212979,0.905924,0.339294,0.0357431,-0.0088073,-0.0010536,0,0,3.7275,0.1225,-0.84,0.011468,-0.000366,-1.01358,-0.06748,0.10906,0.45164
-0.555866,0,0,15.5559,15.5559,14.4441,14.4441,0.222346,0.947708,0.358226,0.0327057,-0.00778898,-0.00598396,0,0,3.675,0.175,-0.735,0.00915,0.000488,-1.01846,-0.06748,0.10906,0.45164
-0.578347,0,0,15.5783,15.5783,14.4217,14.4217,0.231339,0.988564,0.377119,0.0319927,-0.00763211,-0.00599663,0,0,3.57,0.175,-0.735,0.00915,0.000488,-1.01846,-0.06748,0.10906,0.45164
-0.604279,0,0,15.6043,15.6043,14.3957,14.3957,0.241712,1.02533,0.398572,0.0292858,-0.00891666,-0.010066,0,0,3.5525,-0.105,-0.7,0.007076,-0.000976,-1.02248,-0.06748,0.10906,0.45164
-0.629805,0,0,15.6298,15.6298,14.3702,14.3702,0.251922,1.06951,0.414505,0.0345892,-0.00886068,0.00282878,0,0,3.395,-0.14,-0.77,0.013176,-0.001098,-1.00967,-0.0679,0.10766,0.45654
-0.657863,0,0,15.6579,15.6579,14.3421,14.3421,0.263145,1.10846,0.4345,0.030751,-0.00988616,-0.00738975,0,0,3.395,0,-0.805,0.010004,-0.002318,-1.0198,-0.0679,0.10766,0.45654
-0.680094,0,0,15.6801,15.6801,14.3199,14.3199,0.272038,1.14085,0.459539,0.0254478,-0.00777701,-0.00506554,0,0,3.43,0.0525,-0.84,0.005246,-0.000366,-1.01748,-0.0679,0.10766,0.45654
-0.702278,0,0,15.7023,15.7023,14.2977,14.2977,0.280911,1.17234,0.484672,0.0248983,-0.00762223,-0.00507739,0,0,3.5175,-0.0525,-0.7525,0.005246,-0.000366,-1.01748,-0.0679,0.10766,0.45654
-0.724436,0,0,15.7244,15.7244,14.2756,14.2756,0.289774,1.21153,0.502069,0.0306532,-0.00758977,-0.000543291,0,0,3.5,0.07,-0.875,0.011712,-0.000488,-1.01297,-0.0679,0.10766,0.45654
-0.748243,0,0,15.7482,15.7482,14.2518,14.2518,0.299297,1.24554,0.52347,0.0265366,-0.00827856,-0.000802769,0,0,3.43,0.07,-0.84,0.008174,-0.001342,-1.01321,-0.0679,0.10766,0.45654
-0.771411,0,0,15.7714,15.7714,14.2286,14.2286,0.308564,1.27856,0.544703,0.0259605,-0.00811692,-0.000816319,0,0,3.395,-0.07,-0.91,0.008174,-0.001342,-1.01321,-0.0679,0.10766,0.45654
-0.790974,0,0,15.791,15.791,14.209,14.209,0.31639,1.31527,0.555902,0.028843,-0.00675919,-0.000831567,0,0,3.465,0,-0.875,0.011712,-0.000122,-1.01321,-0.06916,0.1113,0.45486
-0.815551,0,0,15.8156,15.8156,14.1844,14.1844,0.32622,1.35086,0.567339,0.0278575,-0.00829752,0.00210378,0,0,3.57,-0.07,-0.875,0.011346,-0.00183,-1.01028,-0.06916,0.1113,0.45486
-0.8365,0,0,15.8365,15.8365,14.1635,14.1635,0.3346,1.38135,0.582893,0.0236811,-0.0072965,-0.000122815,0,0,3.43,0.14,-0.91,0.007686,-0.000976,-1.01248,-0.06916,0.1113,0.45486
-0.855816,0,0,15.8558,15.8558,14.1442,14.1442,0.342327,1.41167,0.597918,0.0238809,-0.00679538,-0.0051774,0,0,3.43,0.105,-0.875,0.008418,-0.00061,-1.01748,-0.06916,0.1113,0.45486
-0.874048,0,0,15.874,15.874,14.126,14.126,0.349619,1.44102,0.612967,0.0233688,-0.00666822,-0.00519092,0,0,3.2725,-0.07,-0.84,0.008418,-0.00061,-1.01748,-0.06916,0.1113,0.45486
-0.83133,0,0,15.8313,15.8313,14.1687,14.1687,0.332532,1.50213,0.597388,0.0496369,0.0147721,-0.00693781,0,0,3.325,-0.07,-0.805,0.035868,0.021106,-1.01919,-0.06916,0.1113,0.45486
-0.789453,0,0,15.7895,15.7895,14.2105,14.2105,0.315781,1.56192,0.581826,0.0485937,0.0144796,-0.00696406,0,0,3.325,-0.07,-0.805,0.035868,0.021106,-1.01919,-0.06916,0.1113,0.45486
-0.761871,0,0,15.7619,15.7619,14.2381,14.2381,0.304748,1.5625,0.623414,0.00156855,0.0098906,-0.0415118,0,0,3.535,0.28,-0.945,-0.011346,0.016714,-1.05347,-0.06832,0.10878,0.4592
-0.825276,0,0,15.8253,15.8253,14.1747,14.1747,0.330111,1.67926,0.560911,0.0871228,-0.0210538,0.0447379,0,0,3.3775,0.1225,-0.77,0.076616,-0.01464,-0.967826,-0.06832,0.10878,0.4592
-0.886736,0,0,15.8867,15.8867,14.1133,14.1133,0.354695,1.79292,0.498127,0.0851399,-0.0206253,0.0446753,0,0,3.2375,-0.1925,-1.05,0.076616,-0.01464,-0.967826,-0.06832,0.10878,0.4592
-0.943345,0,0,15.9433,15.9433,14.0567,14.0567,0.377338,1.71441,0.607776,-0.0634037,-0.0204743,-0.0151612,0,0,3.325,-0.1575,-1.2425,-0.073932,-0.014884,-1.02724,-0.06832,0.10878,0.4592
-0.998906,0,0,15.9989,15.9989,14.0011,14.0011,0.399562,1.63821,0.7174,-0.0620745,-0.0200863,-0.015125,0,0,3.3425,0.21,-1.0675,-0.073932,-0.014884,-1.02724,-0.06832,0.10878,0.4592
-1.05454,0,0,16.0545,16.0545,13.9455,13.9455,0.421815,1.59831,0.795329,-0.0330722,-0.0211635,-0.0594925,0,0,3.395,0.2625,-1.085,-0.045506,-0.016348,-1.07128,-0.06832,0.10878,0.4592
-1.18774,0,0,16.1877,16.1877,13.8123,13.8123,0.475096,1.8216,0.635392,0.190697,-0.0510108,-0.0496572,0,0,3.08,-0.0175,-1.015,0.183122,-0.047092,-1.0614,-0.06832,0.10878,0.4592
-1.1507,0,0,16.1507,16.1507,13.8493,13.8493,0.460278,1.70971,0.762957,-0.0908991,0.0123592,-0.0250052,0,0,3.15,0.0525,-0.77,-0.101626,0.01647,-1.037,-0.0651,0.11466,0.46606
-0.919449,0,0,15.9194,15.9194,14.0806,14.0806,0.367779,1.89785,0.616269,0.145753,0.0779146,0.0487951,0,0,2.9925,0.5075,-0.2975,0.139324,0.08357,-0.963678,-0.0651,0.11466,0.46606
-0.697192,0,0,15.6972,15.6972,14.3028,14.3028,0.278877,2.08118,0.469923,0.142555,0.0763633,0.0486928,0,0,4.0075,0,0.0175,0.139324,0.08357,-0.963678,-0.0651,0.11466,0.46606
-0.909267,0,0,15.9093,15.9093,14.0907,14.0907,0.363707,2.10232,0.476359,0.0185141,-0.0766476,-0.0484583,0,0,4.41,-0.1575,-0.14,0.015128,-0.07076,-1.06006,-0.0651,0.11466,0.46606
-0.995771,0,0,15.9958,15.9958,14.0042,14.0042,0.398308,2.02423,0.570727,-0.0633415,-0.0307347,-0.0121434,0,0,3.4825,-0.1575,-0.245,-0.068442,-0.025498,-1.02407,-0.0651,0.11466,0.46606
-1.08004,0,0,16.08,16.08,13.92,13.92,0.432018,1.94892,0.664568,-0.0620278,-0.0301464,-0.0121021,0,0,3.3775,0.49,-0.3675,-0.068442,-0.025498,-1.02407,-0.0651,0.11466,0.46606
-0.575989,0,0,15.576,15.576,14.424,14.424,0.230396,2.16683,0.479601,0.176657,0.175661,0.0388053,0,0,3.045,0.3675,-0.665,0.17507,0.18361,-0.973438,-0.0651,0.11466,0.46606
-0.739273,0,0,15.7393,15.7393,14.2607,14.2607,0.295709,2.00431,0.637485,-0.128475,-0.0574381,0.0258707,0,0,2.66,-0.175,-0.91,-0.1342,-0.050386,-0.98637,-0.07,0.12166,0.46998
-0.778821,0,0,15.7788,15.7788,14.2212,14.2212,0.311528,2.0792,0.579237,0.0626523,-0.013441,-0.0207748,0,0,3.99,-0.455,-1.3475,0.059048,-0.00671,-1.03261,-0.07,0.12166,0.46998
-0.814787,0,0,15.8148,15.8148,14.1852,14.1852,0.325915,2.15331,0.520603,0.0613597,-0.0131904,-0.020824,0,0,3.3775,0.035,-1.6625,0.059048,-0.00671,-1.03261,-0.07,0.12166,0.46998
-0.829937,0,0,15.8299,15.8299,14.1701,14.1701,0.331975,2.19947,0.485151,0.0385658,-0.00587937,-0.0191339,0,0,3.2725,-0.1225,-1.89,0.036966,0.000488,-1.0309,-0.07,0.12166,0.46998
-0.669882,0,0,15.6699,15.6699,14.3301,14.3301,0.267953,2.22236,0.467441,0.0178784,0.0554108,0.0233967,0,0,3.71,-0.35,-1.645,0.016592,0.06283,-0.988688,-0.07,0.12166,0.46998
-0.715386,0,0,15.7154,15.7154,14.2846,14.2846,0.286154,2.30224,0.401516,0.0650797,-0.0168154,-0.00555273,0,0,3.0625,-0.1925,-1.225,0.065392,-0.009638,-1.01736,-0.07,0.12166,0.46998
-0.75998,0,0,15.76,15.76,14.24,14.24,0.303992,2.38039,0.335758,0.0637167,-0.0165046,-0.00561006,0,0,3.0625,-0.1925,-1.225,0.065392,-0.009638,-1.01736,-0.07,0.12166,0.46998
-0.901704,0,0,15.9017,15.9017,14.0983,14.0983,0.360681,2.33786,0.381892,-0.0335805,-0.0536194,-0.0578383,0,0,3.15,-0.1225,-0.8925,-0.033062,-0.047702,-1.06921,-0.0742,0.12138,0.46368
-0.801656,0,0,15.8017,15.8017,14.1983,14.1983,0.320662,2.03161,0.662946,-0.235737,0.0331266,0.0632279,0,0,3.395,0.0175,-0.84,-0.241438,0.03965,-0.949282,-0.0742,0.12138,0.46368
-0.704416,0,0,15.7044,15.7044,14.2956,14.2956,0.281766,1.7312,0.943614,-0.230497,0.032449,0.0634036,0,0,3.6575,-0.3325,-0.945,-0.241438,0.03965,-0.949282,-0.0742,0.12138,0.46368
-0.913115,0,0,15.9131,15.9131,14.0869,14.0869,0.365246,1.95686,0.759063,0.167077,-0.0684377,0.0778995,0,0,3.815,-0.4375,-0.595,0.161772,-0.062586,-0.934764,-0.0742,0.12138,0.46368
-1.11372,0,0,16.1137,16.1137,13.8863,13.8863,0.445489,2.17876,0.576026,0.163207,-0.0670391,0.0777499,0,0,2.9225,0.21,-0.28,0.161772,-0.062586,-0.934764,-0.0742,0.12138,0.46368
-1.19701,0,0,16.197,16.197,13.803,13.803,0.478805,2.33318,0.448123,0.128077,-0.0314086,-0.0241622,0,0,2.9925,0.175,-0.5425,0.129198,-0.027572,-1.03578,-0.0742,0.12138,0.46368
-1.28097,0,0,16.281,16.281,13.719,13.719,0.512389,2.48428,0.320844,0.125442,-0.0308239,-0.0242781,0,0,3.5175,0.1925,-0.4375,0.129198,-0.027572,-1.03578,-0.0742,0.12138,0.46368
-1.37796,0,0,16.378,16.378,13.622,13.622,0.551186,2.61728,0.207241,0.104657,-0.0341786,0.0152017,0,0,3.29,0,-0.4725,0.110654,-0.031598,-0.996496,-0.0742,0.12138,0.46368
-1.47525,0,0,16.4752,16.4752,13.5248,13.5248,0.590099,2.7459,0.099029,0.102415,-0.0335013,0.0150899,0,0,3.7975,-0.4375,-0.6475,0.110654,-0.031598,-0.996496,-0.06958,0.1176,0.46704
-1.32031,0,0,16.3203,16.3203,13.6797,13.6797,0.528124,2.85417,0.0025464,0.0769594,0.0512726,0.0823839,0,0,3.4475,-0.35,-0.3675,0.086986,0.054168,-0.92964,-0.06958,0.1176,0.46704
-1.16878,0,0,16.1688,16.1688,13.8312,13.8312,0.467513,2.96033,-0.0941341,0.0751089,0.0502153,0.0822992,0,0,3.5525,-0.2275,-0.5075,0.086986,0.054168,-0.92964,-0.06958,0.1176,0.46704
-0.918854,0,0,15.9189,15.9189,14.0811,14.0811,0.367541,2.81905,0.0295992,-0.116441,0.0914623,-0.0359632,0,0,3.535,-0.0525,-0.805,-0.107848,0.097112,-1.04713,-0.06958,0.1176,0.46704
-0.672247,0,0,15.6722,15.6722,14.3278,14.3278,0.268899,2.6808,0.153693,-0.114031,0.0897433,-0.0358379,0,0,3.185,-0.035,-0.77,-0.107848,0.097112,-1.04713,-0.06958,0.1176,0.46704
-0.531158,0,0,15.5312,15.5312,14.4688,14.4688,0.212463,2.5552,0.270916,-0.101758,0.0494349,-0.00573423,0,0,3.115,0.0525,-0.9625,-0.097722,0.057828,-1.01736,-0.06958,0.1176,0.46704
-0.393142,0,0,15.3931,15.3931,14.6069,14.6069,0.157257,2.43174,0.387701,-0.099605,0.0484726,-0.00563738,0,0,3.2025,-0.2625,-1.2425,-0.097722,0.057828,-1.01736,-0.06958,0.1176,0.46704
-0.0390815,0,0,15.0391,15.0391,14.9609,14.9609,0.0156326,2.4389,0.38342,0.0107007,0.133568,-0.0631789,0,0,3.185,-0.4025,-1.295,0.013176,0.145302,-1.07445,-0.06958,0.1176,0.46704
0.304091,0,0,14.6959,14.6959,15.3041,15.3041,-0.121636,2.44605,0.382963,0.010576,0.131174,-0.0631864,0,0,4.06,-0.105,-0.9625,0.013176,0.145302,-1.07445,-0.07336,0.11592,0.47474
0.370713,0,0,14.6293,14.6293,15.3707,15.3707,-0.148285,2.38243,0.451741,-0.0514872,0.0247035,-0.0260103,0,0,3.815,-0.0175,-1.3825,-0.050264,0.039406,-1.03761,-0.07336,0.11592,0.47474
0.437882,0,0,14.5621,14.5621,15.4379,15.4379,-0.175153,2.32068,0.520702,-0.0504103,0.0242348,-0.0259674,0,0,3.395,0.28,-1.2425,-0.050264,0.039406,-1.03761,-0.07336,0.11592,0.47474
0.525802,0,0,14.4742,14.4742,15.5258,15.5258,-0.210321,2.36457,0.494402,0.0347146,0.030705,0.00768714,0,0,3.325,0.595,-1.2075,0.03599,0.046482,-1.00418,-0.07336,0.11592,0.47474
0.612861,0,0,14.3871,14.3871,15.6129,15.6129,-0.245145,2.40682,0.468199,0.0339779,0.0300979,0.00765403,0,0,3.1325,0.175,-1.1725,0.03599,0.046482,-1.00418,-0.07336,0.11592,0.47474
0.61231,0,0,14.3877,14.3877,15.6123,15.6123,-0.244924,2.40691,0.467945,-0.142421,0.0381621,0.116832,1,0,3.5875,0.0525,-0.9625,-0.141154,0.054534,-0.895846,-0.07336,0.11592,0.47474
0.612236,0,0,14.3878,14.3878,15.6122,15.6122,-0.244894,2.40667,0.467603,-0.142417,0.0381626,0.116832,1,0,3.4825,-0.14,-1.015,-0.141154,0.054534,-0.895846,-0.07336,0.11592,0.47474
0.610598,0,0,14.3894,14.3894,15.6106,15.6106,-0.244239,2.40703,0.467289,-0.0428048,-0.150145,-0.0985736,1,0,3.8325,0.21,-0.9975,-0.041114,-0.13359,-1.10959,-0.07336,0.11592,0.47474
0.610615,0,0,14.3894,14.3894,15.6106,15.6106,-0.244246,2.40733,0.466824,-0.04281,-0.150146,-0.0985738,1,0,3.465,0.175,-1.085,-0.041114,-0.13359,-1.10959,-0.06972,0.12894,0.4697
1.24331,0,0,13.7567,13.7567,16.2433,16.2433,-0.497323,2.56489,0.306339,0.112981,0.20706,0.114717,0,0,3.885,-0.1575,-0.5075,0.118096,0.227652,-0.897798,-0.06972,0.12894,0.4697
1.24513,0,0,13.7549,13.7549,16.2451,16.2451,-0.498052,2.56466,0.306509,-0.153676,-0.138205,0.314385,1,0,3.045,-0.14,-0.7175,-0.149694,-0.117242,-0.69967,-0.06972,0.12894,0.4697
1.24524,0,0,13.7548,13.7548,16.2452,16.2452,-0.498096,2.56439,0.306618,0.0945243,-0.191209,-0.185892,1,0,3.43,-0.1575,-0.7525,0.099552,-0.17019,-1.19609,-0.06972,0.12894,0.4697
1.24656,0,0,13.7534,13.7534,16.2466,16.2466,-0.498624,2.56448,0.306395,0.0945228,-0.191218,-0.185892,1,0,3.1675,0.0525,-0.945,0.099552,-0.17019,-1.19609,-0.06972,0.12894,0.4697
1.24866,0,0,13.7513,13.7513,16.2487,16.2487,-0.499464,2.5646,0.306171,0.200092,-0.19392,-0.083722,1,0,2.9925,0.07,-0.945,0.20557,-0.172874,-1.09471,-0.06972,0.12894,0.4697
1.24678,0,0,13.7532,13.7532,16.2468,16.2468,-0.498712,2.56463,0.305947,0.200091,-0.193907,-0.0837219,1,0,3.885,0.0175,-0.945,0.20557,-0.172874,-1.09471,-0.06972,0.12894,0.4697
1.24659,0,0,13.7534,13.7534,16.2466,16.2466,-0.498636,2.56464,0.305965,0.152955,-0.280982,0.27996,1,0,3.5,0,-0.805,0.158234,-0.25986,-0.73383,-0.06972,0.12894,0.4697
1.24675,0,0,13.7532,13.7532,16.2468,16.2468,-0.4987,2.56461,0.305652,0.152955,-0.280983,0.27996,1,0,3.43,-0.0175,-0.9975,0.158234,-0.25986,-0.73383,-0.0742,0.12446,0.4704
1.24722,0,0,13.7528,13.7528,16.2472,16.2472,-0.498889,2.56401,0.305344,0.039741,-0.278177,-0.084705,1,0,3.36,-0.35,-0.9975,0.04453,-0.257054,-1.09568,-0.0742,0.12446,0.4704
1.24643,0,0,13.7536,13.7536,16.2464,16.2464,-0.498572,2.56329,0.305158,-0.192527,-0.131986,-0.149375,1,0,3.64,-0.42,-0.9275,-0.188734,-0.11102,-1.15985,-0.0742,0.12446,0.4704
1.24772,0,0,13.7523,13.7523,16.2477,16.2477,-0.499089,2.56344,0.304483,-0.19253,-0.131995,-0.149376,1,0,3.185,0.0875,-1.2075,-0.188734,-0.11102,-1.15985,-0.0742,0.12446,0.4704
0.682838,0,0,14.3172,14.3172,15.6828,15.6828,-0.273135,2.31159,0.539194,-0.221547,-0.219163,-0.0506803,0,0,3.5175,-0.0175,-1.1025,-0.222284,-0.202032,-1.06213,-0.0742,0.12446,0.4704
0.127841,0,0,14.8722,14.8722,15.1278,15.1278,-0.0511363,2.06549,0.771928,-0.217255,-0.215291,-0.0505053,0,0,3.7275,0.315,-0.77,-0.222284,-0.202032,-1.06213,-0.0742,0.12446,0.4704
-0.277676,0,0,15.2777,15.2777,14.7223,14.7223,0.11107,1.76264,1.05628,-0.231653,-0.134301,0.108396,0,0,3.5175,0,-0.8225,-0.242048,-0.123952,-0.90463,-0.0742,0.12446,0.4704
-0.67607,0,0,15.6761,15.6761,14.3239,14.3239,0.270428,1.4659,1.33848,-0.226475,-0.13152,0.108533,0,0,3.6925,-0.07,-0.6825,-0.242048,-0.123952,-0.90463,-0.0742,0.12446,0.4704
-0.674953,0,0,15.675,15.675,14.325,14.325,0.269981,1.46599,1.33883,-0.0913849,0.0561809,0.126975,1,0,3.2025,0.0525,-0.6125,-0.106384,0.063562,-0.88633,-0.07266,0.1232,0.46788
-0.674937,0,0,15.6749,15.6749,14.3251,14.3251,0.269975,1.46587,1.33929,-0.0913829,0.0561808,0.126975,1,0,3.4475,-0.07,-0.5425,-0.106384,0.063562,-0.88633,-0.07266,0.1232,0.46788
-0.674394,0,0,15.6744,15.6744,14.3256,14.3256,0.269757,1.46581,1.34006,0.203707,-0.000489805,-0.208428,1,0,3.325,-0.035,-0.3675,0.189954,0.006954,-1.21915,-0.07266,0.1232,0.46788
-0.67385,0,0,15.6739,15.6739,14.3261,14.3261,0.26954,1.46575,1.34083,0.203708,-0.000493597,-0.208428,1,0,3.325,-0.035,-0.3675,0.189954,0.006954,-1.21915,-0.07266,0.1232,0.46788
-0.676171,0,0,15.6762,15.6762,14.3238,14.3238,0.270468,1.45831,1.34123,0.0621855,0.0135672,-0.199204,1,0,3.9725,-4.3575,-0.56,0.047702,0.020984,-1.21,-0.07266,0.1232,0.46788
-0.677532,0,0,15.6775,15.6775,14.3225,14.3225,0.271013,1.45817,1.34128,0.210279,0.10163,0.150462,1,0,3.7625,-0.0875,-0.7875,0.19642,0.108946,-0.863028,-0.07266,0.1232,0.46788
-1.18846,0,0,16.1885,16.1885,13.8115,13.8115,0.475382,1.49777,1.32658,0.0340413,-0.200854,-0.0774029,0,0,3.815,-0.035,-0.945,0.02013,-0.196786,-1.08909,-0.07266,0.1232,0.46788
-1.31199,0,0,16.312,16.312,13.688,13.688,0.524796,1.42945,1.40573,-0.0590396,-0.0498979,-0.0874617,0,0,3.045,0.0525,-1.0675,-0.074542,-0.046848,-1.0991,-0.07266,0.1232,0.46788
-1.51617,0,0,16.5162,16.5162,13.4838,13.4838,0.606468,1.79645,1.09418,0.319546,-0.0798614,-0.0154853,0,0,3.08,-0.1225,-1.2425,0.312076,-0.078202,-1.02748,-0.07518,0.12306,0.4767
-1.51785,0,0,16.5178,16.5178,13.4822,13.4822,0.60714,1.79652,1.0933,-0.0585189,-0.251438,-0.189212,1,0,3.85,0.035,-1.33,-0.067588,-0.249612,-1.19987,-0.07518,0.12306,0.4767
-1.51953,0,0,16.5195,16.5195,13.4805,13.4805,0.607811,1.79659,1.09242,-0.0585202,-0.251426,-0.189212,1,0,3.85,0.035,-1.33,-0.067588,-0.249612,-1.19987,-0.07518,0.12306,0.4767
-1.51849,0,0,16.5185,16.5185,13.4815,13.4815,0.607397,1.79693,1.09175,0.335695,0.131556,-0.461789,1,0,3.2375,0.1925,-1.2075,0.328302,0.13298,-1.47034,-0.07518,0.12306,0.4767
-1.51879,0,0,16.5188,16.5188,13.4812,13.4812,0.607517,1.7967,1.09116,0.266574,-0.198672,-0.102164,1,0,3.535,-0.14,-1.155,0.258884,-0.196908,-1.11349,-0.07518,0.12306,0.4767
-1.51718,0,0,16.5172,16.5172,13.4828,13.4828,0.606873,1.79703,1.09113,0.266568,-0.198684,-0.102164,1,0,3.0975,0.1925,-0.84,0.258884,-0.196908,-1.11349,-0.07518,0.12306,0.4767
-1.51697,0,0,16.517,16.517,13.483,13.483,0.606788,1.79754,1.091,0.0459409,0.35516,-0.104624,1,0,3.4125,0.2975,-0.8925,0.037332,0.356362,-1.11593,-0.07518,0.12306,0.4767
-1.51549,0,0,16.5155,16.5155,13.4845,13.4845,0.606196,1.79802,1.09162,0.0459326,0.355149,-0.104624,1,0,3.115,0.28,-0.455,0.037332,0.356362,-1.11593,-0.07518,0.12306,0.4767
-1.51569,0,0,16.5157,16.5157,13.4843,13.4843,0.606274,1.79851,1.09272,-0.373202,-0.12725,0.204837,1,0,3.4825,0.2975,-0.175,-0.383568,-0.125538,-0.80886,-0.0672,0.12488,0.47418
-1.51565,0,0,16.5157,16.5157,13.4843,13.4843,0.606261,1.79836,1.09388,-0.373199,-0.12725,0.204837,1,0,3.43,-0.0875,-0.14,-0.383568,-0.125538,-0.80886,-0.0672,0.12488,0.47418
-1.5155,0,0,16.5155,16.5155,13.4845,13.4845,0.6062,1.79823,1.09453,0.103878,0.00171458,0.137708,1,0,3.4125,-0.07,-0.4375,0.095526,0.003294,-0.875472,-0.0672,0.12488,0.47418
-1.51543,0,0,16.5154,16.5154,13.4846,13.4846,0.606171,1.79874,1.09518,0.103869,0.00171407,0.137707,1,0,3.43,0.2975,-0.4375,0.095526,0.003294,-0.875472,-0.0672,0.12488,0.47418
-1.51503,0,0,16.515,16.515,13.485,13.485,0.606013,1.79912,1.09571,0.377934,-0.0696107,0.343769,1,0,3.36,0.2275,-0.5075,0.370758,-0.067954,-0.671,-0.0672,0.12488,0.47418
-1.51164,0,0,16.5116,16.5116,13.4884,13.4884,0.604658,1.79957,1.09588,0.377926,-0.0696343,0.343769,1,0,2.695,0.2625,-0.7175,0.370758,-0.067954,-0.671,-0.0672,0.12488,0.47418
-1.51134,0,0,16.5113,16.5113,13.4887,13.4887,0.604534,1.80014,1.09551,0.0285231,-0.245133,-0.194992,1,0,3.395,0.3325,-1.0325,0.019886,-0.243268,-1.2056,-0.0672,0.12488,0.47418
-1.50995,0,0,16.5099,16.5099,13.4901,13.4901,0.603979,1.79962,1.09433,0.194603,0.169966,-0.103518,1,0,3.1675,-0.315,-1.505,0.18666,0.17141,-1.11484,-0.0672,0.12488,0.47418
-1.50764,0,0,16.5076,16.5076,13.4924,13.4924,0.603056,1.7995,1.09434,0.194605,0.16995,-0.103517,1,0,2.94,-0.07,-0.805,0.18666,0.17141,-1.11484,-0.06972,0.12068,0.47432
-1.50952,0,0,16.5095,16.5095,13.4905,13.4905,0.603808,1.79936,1.09403,-0.616431,-0.078198,0.0180785,1,0,3.885,-0.0875,-0.9975,-0.627812,-0.076494,-0.994178,-0.06972,0.12068,0.47432
-1.51205,0,0,16.5121,16.5121,13.4879,13.4879,0.60482,1.79904,1.09305,-0.616425,-0.0781804,0.0180785,1,0,4.0425,-0.1925,-1.3825,-0.627812,-0.076494,-0.994178,-0.06972,0.12068,0.47432
-1.51185,0,0,16.5118,16.5118,13.4882,13.4882,0.604738,1.79948,1.09202,0.0254976,-0.0154087,0.109675,1,0,3.43,0.245,-1.4175,0.016836,-0.013786,-0.903288,-0.06972,0.12068,0.47432
-1.51315,0,0,16.5132,16.5132,13.4868,13.4868,0.605261,1.79983,1.09237,0.0254913,-0.0153996,0.109675,1,0,3.745,0.21,-0.6125,0.016836,-0.013786,-0.903288,-0.06972,0.12068,0.47432
-1.66742,0,0,16.6674,16.6674,13.3326,13.3326,0.666967,1.77595,1.13123,-0.0204996,-0.0587772,-0.0324528,0,0,3.01,0.28,-0.735,-0.029768,-0.058194,-1.04432,-0.06972,0.12068,0.47432
-1.81853,0,0,16.8185,16.8185,13.1815,13.1815,0.727411,1.75238,1.16942,-0.0200884,-0.0577227,-0.0324529,0,0,2.975,0.175,-1.015,-0.029768,-0.058194,-1.04432,-0.06972,0.12068,0.47432
-1.81849,0,0,16.8185,16.8185,13.1815,13.1815,0.727397,1.7529,1.16854,0.309858,-0.219663,-0.0372482,1,0,3.465,0.2975,-1.33,0.301584,-0.219966,-1.04908,-0.06972,0.12068,0.47432
-1.81839,0,0,16.8184,16.8184,13.1816,13.1816,0.727358,1.7531,1.16787,0.309854,-0.219664,-0.0372483,1,0,3.4475,0.105,-1.2075,0.301584,-0.219966,-1.04908,-0.0721,0.12768,0.47614
-1.81956,0,0,16.8196,16.8196,13.1804,13.1804,0.727825,1.75289,1.16743,0.384329,-0.0690732,-0.20495,1,0,3.7275,-0.1225,-1.0675,0.37637,-0.06954,-1.21549,-0.0721,0.12768,0.47614
-1.82102,0,0,16.821,16.821,13.179,13.179,0.728406,1.7535,1.16662,0.384318,-0.0690631,-0.204951,1,0,3.7975,0.35,-1.295,0.37637,-0.06954,-1.21549,-0.0721,0.12768,0.47614
-2.38954,0,0,17.3895,17.3895,12.6105,12.6105,0.955814,1.75926,1.1696,0.00518202,-0.224838,-0.059195,0,0,3.3075,0.35,-1.085,-0.00427,-0.229116,-1.07079,-0.0721,0.12768,0.47614
-2.94867,0,0,17.9487,17.9487,12.0513,12.0513,1.17947,1.76442,1.17286,0.00509209,-0.220937,-0.0592704,0,0,3.5875,0.105,-0.875,-0.00427,-0.229116,-1.07079,-0.0721,0.12768,0.47614
-2.95022,0,0,17.9502,17.9502,12.0498,12.0498,1.18009,1.76471,1.1733,0.205417,0.299944,-0.0494349,1,0,3.7975,0.175,-0.56,0.196908,0.291214,-1.06103,-0.0721,0.12768,0.47614
-2.95197,0,0,17.952,17.952,12.048,12.048,1.18079,1.76452,1.17424,0.20542,0.299956,-0.0494351,1,0,3.8325,-0.105,-0.2625,0.196908,0.291214,-1.06103,-0.0721,0.12768,0.47614
-2.95353,0,0,17.9535,17.9535,12.0465,12.0465,1.18141,1.76453,1.17495,-0.782502,-0.362815,-0.16931,1,0,3.7975,0.0175,-0.4025,-0.795196,-0.37088,-1.17998,-0.0721,0.12768,0.47614
-2.9555,0,0,17.9555,17.9555,12.0445,12.0445,1.1822,1.76475,1.17473,-0.782505,-0.362801,-0.169311,1,0,3.9025,0.1225,-0.945,-0.795196,-0.37088,-1.17998,-0.06958,0.1218,0.47166
-2.38806,0,0,17.3881,17.3881,12.6119,12.6119,0.955224,1.57416,1.35299,-0.165678,0.223236,-0.068322,0,0,3.115,-0.385,-1.015,-0.179096,0.218502,-1.07994,-0.06958,0.1218,0.47166
-1.83201,0,0,16.832,16.832,13.168,13.168,0.732804,1.38837,1.53327,-0.162436,0.219357,-0.068181,0,0,3.3075,0.175,-0.56,-0.179096,0.218502,-1.07994,-0.06958,0.1218,0.47166
-1.82957,0,0,16.8296,16.8296,13.1704,13.1704,0.731829,1.38858,1.53374,0.217446,-0.179892,-0.108139,1,0,2.905,0.1225,-0.5425,0.202398,-0.180316,-1.11959,-0.06958,0.1218,0.47166
-1.82772,0,0,16.8277,16.8277,13.1723,13.1723,0.731087,1.38897,1.53349,0.217439,-0.179905,-0.108139,1,0,3.045,0.2275,-0.9625,0.202398,-0.180316,-1.11959,-0.06958,0.1218,0.47166
-2.15028,0,0,17.1503,17.1503,12.8497,12.8497,0.86011,1.98103,1.01962,0.512161,-0.125511,0.101153,0,0,2.73,0.1925,-0.875,0.50874,-0.128222,-0.911584,-0.06958,0.1218,0.47166
-2.47119,0,0,17.4712,17.4712,12.5288,12.5288,0.988478,2.56132,0.509578,0.502041,-0.123279,0.100716,0,0,3.7625,-0.28,-0.63,0.50874,-0.128222,-0.911584,-0.06958,0.1218,0.47166
-2.09828,0,0,17.0983,17.0983,12.9017,12.9017,0.839313,1.89824,1.10252,-0.595073,0.144882,0.0822732,0,0,3.6925,-0.175,-0.3325,-0.604632,0.142252,-0.930372,-0.06958,0.1218,0.47166
-1.7318,0,0,16.7318,16.7318,13.2682,13.2682,0.692721,1.24715,1.69711,-0.583714,0.142329,0.0826192,0,0,4.095,0.1575,-0.665,-0.604632,0.142252,-0.930372,-0.06958,0.1218,0.47166
-1.73503,0,0,16.735,16.735,13.265,13.265,0.694012,1.24751,1.69704,-0.303574,-0.258835,-0.132664,1,0,4.1825,0.21,-0.8575,-0.3233,-0.258518,-1.14399,-0.07518,0.11928,0.47208
-1.73858,0,0,16.7386,16.7386,13.2614,13.2614,0.695431,1.24793,1.6971,0.703413,-0.0275018,0.109544,1,0,4.2525,0.245,-0.7875,0.687958,-0.02745,-0.903654,-0.07518,0.11928,0.47208
-1.73882,0,0,16.7388,16.7388,13.2612,13.2612,0.695529,1.24824,1.69673,0.703408,-0.0275,0.109544,1,0,3.5175,0.175,-1.0325,0.687958,-0.02745,-0.903654,-0.07518,0.11928,0.47208
-1.80254,0,0,16.8025,16.8025,13.1975,13.1975,0.721016,0.819961,2.10576,-0.321261,-0.0219243,0.149509,0,0,3.15,0.3325,-1.365,-0.348554,-0.022326,-0.864126,-0.07518,0.11928,0.47208
-1.86401,0,0,16.864,16.864,13.136,13.136,0.745604,0.400296,2.51344,-0.313937,-0.0214943,0.149581,0,0,3.0275,0.4025,-1.33,-0.348554,-0.022326,-0.864126,-0.07518,0.11928,0.47208
-2.14276,0,0,17.1428,17.1428,12.8572,12.8572,0.857105,0.739946,2.24988,0.299105,-0.113098,-0.036895,0,0,2.0475,0.3675,-1.155,0.273036,-0.115778,-1.04908,-0.07518,0.11928,0.47208
-2.41602,0,0,17.416,17.416,12.584,12.584,0.966409,1.07179,1.98847,0.293314,-0.111193,-0.0370169,0,0,2.0475,-0.0875,-0.91,0.273036,-0.115778,-1.04908,-0.07518,0.11928,0.47208
-2.41353,0,0,17.4135,17.4135,12.5865,12.5865,0.965414,1.07186,1.98798,0.288818,-0.19963,-0.0403362,1,0,2.905,0.035,-1.1025,0.268522,-0.204106,-1.05237,-0.07546,0.11928,0.47222
-2.41338,0,0,17.4134,17.4134,12.5866,12.5866,0.965354,1.07158,1.98742,0.140003,0.296448,-0.206071,1,0,3.43,-0.175,-1.1375,0.119072,0.291458,-1.21683,-0.07546,0.11928,0.47222
-2.41897,0,0,17.419,17.419,12.581,12.581,0.967586,1.07179,1.98762,0.139999,0.296487,-0.206071,1,0,4.7075,0.1225,-0.7,0.119072,0.291458,-1.21683,-0.07546,0.11928,0.47222
-2.4247,0,0,17.4247,17.4247,12.5753,12.5753,0.96988,1.07205,1.98777,0.422084,0.382626,-0.0139037,1,0,4.7425,0.1575,-0.735,0.402356,0.377468,-1.02614,-0.07546,0.11928,0.47222
-2.43044,0,0,17.4304,17.4304,12.5696,12.5696,0.972174,1.07232,1.98791,0.422079,0.382666,-0.0139044,1,0,4.7425,0.1575,-0.735,0.402356,0.377468,-1.02614,-0.07546,0.11928,0.47222
-2.43389,0,0,17.4339,17.4339,12.5661,12.5661,0.973555,1.07242,1.9876,0.280668,-0.372175,0.289778,1,0,4.235,0.0525,-0.9975,0.260348,-0.376614,-0.724802,-0.07546,0.11928,0.47222
-2.43734,0,0,17.4373,17.4373,12.5627,12.5627,0.974935,1.07252,1.98729,0.280667,-0.372151,0.289777,1,0,4.235,0.0525,-0.9975,0.260348,-0.376614,-0.724802,-0.07546,0.11928,0.47222
-2.4317,0,0,17.4317,17.4317,12.5683,12.5683,0.972681,1.07299,1.98626,0.0305195,-0.20451,-0.167222,1,0,2.205,0.2625,-1.4175,0.00915,-0.209108,-1.17828,-0.07546,0.11928,0.47222
-2.4242,0,0,17.4242,17.4242,12.5758,12.5758,0.969681,1.07238,1.9854,0.12213,0.220927,-0.368856,1,0,1.785,-0.3675,-1.3125,0.101138,0.21594,-1.37836,-0.07,0.12404,0.46886
-2.41821,0,0,17.4182,17.4182,12.5818,12.5818,0.967283,1.07203,1.98502,0.122136,0.220885,-0.368855,1,0,2.1175,-0.21,-1.0325,0.101138,0.21594,-1.37836,-0.07,0.12404,0.46886
-2.41597,0,0,17.416,17.416,12.584,12.584,0.966386,1.07188,1.98476,-0.159222,0.260927,-0.242218,1,0,2.9575,-0.0875,-0.9625,-0.181414,0.255956,-1.2527,-0.07,0.12404,0.46886
-2.41911,0,0,17.4191,17.4191,12.5809,12.5809,0.967645,1.07177,1.98466,-0.15922,0.260949,-0.242218,1,0,4.165,-0.07,-0.875,-0.181414,0.255956,-1.2527,-0.07,0.12404,0.46886
-2.42564,0,0,17.4256,17.4256,12.5744,12.5744,0.970255,1.07174,1.98498,0.845346,-0.335839,0.340434,1,0,4.9175,-0.0175,-0.63,0.827404,-0.340258,-0.674538,-0.07,0.12404,0.46886
-2.43418,0,0,17.4342,17.4342,12.5658,12.5658,0.973672,1.07132,1.98508,0.845353,-0.335779,0.340433,1,0,5.3725,-0.245,-0.7525,0.827404,-0.340258,-0.674538,-0.07,0.12404,0.46886
-2.43821,0,0,17.4382,17.4382,12.5618,12.5618,0.975284,1.07116,1.98551,0.596553,-0.750738,-0.225131,1,0,4.3575,-0.0875,-0.56,0.577548,-0.754814,-1.23574,-0.07,0.12404,0.46886
-2.4363,0,0,17.4363,17.4363,12.5637,12.5637,0.97452,1.07122,1.98568,0.596552,-0.750751,-0.22513,1,0,3.0275,0.035,-0.7175,0.577548,-0.754814,-1.23574,-0.07,0.12404,0.46886
-2.43102,0,0,17.431,17.431,12.569,12.569,0.972408,1.07156,1.98555,-0.742105,-0.351189,-0.109804,1,0,2.275,0.1925,-0.8925,-0.76677,-0.35563,-1.1213,-0.07798,0.12222,0.47684
-2.4219,0,0,17.4219,17.4219,12.5781,12.5781,0.968761,1.07184,1.98512,0.285295,-0.0147936,0.192404,1,0,1.4175,0.1575,-1.0675,0.264984,-0.01952,-0.821426,-0.07798,0.12222,0.47684
-2.41512,0,0,17.4151,17.4151,12.5849,12.5849,0.966049,1.0711,1.98465,0.285308,-0.0148409,0.192405,1,0,1.9425,-0.4375,-1.085,0.264984,-0.01952,-0.821426,-0.07798,0.12222,0.47684
-2.41363,0,0,17.4136,17.4136,12.5864,12.5864,0.965454,1.07127,1.98386,-0.207076,0.535696,-0.244185,1,0,3.1325,0.0875,-1.2775,-0.229482,0.530456,-1.25465,-0.07798,0.12222,0.47684
-2.43472,0,0,17.4347,17.4347,12.5653,12.5653,0.97389,1.07115,1.98363,-0.207074,0.535843,-0.244187,1,0,8.19,-0.07,-0.945,-0.229482,0.530456,-1.25465,-0.07798,0.12222,0.47684
-2.4435,0,0,17.4435,17.4435,12.5565,12.5565,0.977399,1.07115,1.98365,-0.0130619,0.381536,0.218467,1,0,5.425,0,-0.805,-0.034648,0.376248,-0.795562,-0.07798,0.12222,0.47684
-2.44915,0,0,17.4492,17.4492,12.5508,12.5508,0.979661,1.07136,1.98376,-0.0130655,0.381576,0.218466,1,0,4.725,0.1225,-0.7525,-0.034648,0.376248,-0.795562,-0.07798,0.12222,0.47684
-2.12666,0,0,17.1267,17.1267,12.8733,12.8733,0.850665,0.69783,2.33944,-0.325447,0.125914,-0.0147534,0,0,4.5675,0.2275,-0.595,-0.354898,0.123098,-1.02712,-0.07798,0.12222,0.47684
-1.80194,0,0,16.8019,16.8019,13.1981,13.1981,0.720777,0.33494,2.69345,-0.319113,0.123648,-0.0146652,0,0,2.8,0.35,-0.385,-0.354898,0.123098,-1.02712,-0.0721,0.1239,0.47348
-2.53983,0,0,17.5398,17.5398,12.4602,12.4602,1.01593,1.05237,2.07543,0.563351,-0.260789,0.281288,0,0,2.17,0.2275,-0.735,0.543876,-0.266082,-0.73322,-0.0721,0.1239,0.47348
-3.2659,0,0,18.2659,18.2659,11.7341,11.7341,1.30636,1.75713,1.46455,0.551054,-0.255728,0.280884,0,0,2.275,-0.21,-1.19,0.543876,-0.266082,-0.73322,-0.0721,0.1239,0.47348
-3.26195,0,0,18.262,18.262,11.738,11.738,1.30478,1.75716,1.46358,0.442203,-0.445052,-0.385005,1,0,2.59,0,-1.3825,0.434564,-0.455182,-1.39397,-0.0721,0.1239,0.47348
-3.2623,0,0,18.2623,18.2623,11.7377,11.7377,1.30492,1.757,1.4626,0.442205,-0.44505,-0.385004,1,0,3.5525,-0.105,-1.3825,0.434564,-0.455182,-1.39397,-0.0721,0.1239,0.47348
-3.26638,0,0,18.2664,18.2664,11.7336,11.7336,1.30655,1.75676,1.46153,-0.238475,-0.512069,-0.329555,1,0,4.3925,-0.1575,-1.435,-0.249002,-0.52216,-1.33895,-0.0721,0.1239,0.47348
-3.27172,0,0,18.2717,18.2717,11.7283,11.7283,1.30869,1.75692,1.46146,-0.238477,-0.512032,-0.329556,1,0,4.655,0.0875,-0.8575,-0.249002,-0.52216,-1.33895,-0.0721,0.1239,0.47348
-4.29831,0,0,19.2983,19.2983,10.7017,10.7017,1.71932,1.73876,1.49344,-0.0213086,-0.378958,0.0761172,0,0,4.34,0,-0.5775,-0.031232,-0.396378,-0.936228,-0.0721,0.1239,0.47348
-5.30443,0,0,20.3044,20.3044,9.69557,9.69557,2.12177,1.72285,1.53058,-0.0210311,-0.371941,0.0758903,0,0,3.745,0,-0.3325,-0.031232,-0.396378,-0.936228,-0.07378,0.12054,0.47446
-5.30366,0,0,20.3037,20.3037,9.69634,9.69634,2.12146,1.72265,1.53131,0.319375,0.122179,-0.321602,1,0,3.2725,-0.105,-0.385,0.310612,0.097234,-1.33065,-0.07378,0.12054,0.47446
-5.30135,0,0,20.3014,20.3014,9.69865,9.69865,2.12054,1.72229,1.53134,0.319382,0.122163,-0.321601,1,0,2.94,-0.21,-0.7875,0.310612,0.097234,-1.33065,-0.07378,0.12054,0.47446
-4.48273,0,0,19.4827,19.4827,10.5173,10.5173,1.79309,1.2374,1.96576,-0.404838,0.309787,0.0893374,0,0,3.115,0.0875,-0.91,-0.42517,0.29036,-0.923296,-0.07378,0.12054,0.47446
-3.67491,0,0,18.6749,18.6749,11.3251,11.3251,1.46996,0.760856,2.40415,-0.396523,0.304155,0.089643,0,0,2.7125,-0.1225,-1.2075,-0.42517,0.29036,-0.923296,-0.07378,0.12054,0.47446
-3.67344,0,0,18.6734,18.6734,11.3266,11.3266,1.46938,0.760905,2.40351,-0.552147,0.443491,0.0855859,1,0,3.1325,0.0175,-1.19,-0.581452,0.429562,-0.927322,-0.07378,0.12054,0.47446
-3.67277,0,0,18.6728,18.6728,11.3272,11.3272,1.46911,0.760813,2.4037,-0.552145,0.443486,0.0855861,1,0,3.3075,-0.0525,-0.7,-0.581452,0.429562,-0.927322,-0.07378,0.12054,0.47446
-3.67227,0,0,18.6723,18.6723,11.3277,11.3277,1.46891,0.760748,2.40402,0.474046,0.319158,0.0471033,1,0,3.3425,-0.035,-0.63,0.449082,0.305366,-0.965508,-0.07378,0.12054,0.47446
-3.6737,0,0,18.6737,18.6737,11.3263,11.3263,1.46948,0.761055,2.4038,0.47404,0.319168,0.047103,1,0,3.78,0.175,-0.945,0.449082,0.305366,-0.965508,-0.07378,0.12054,0.47446
-3.67709,0,0,18.6771,18.6771,11.3229,11.3229,1.47084,0.761054,2.40394,-0.216727,0.426785,0.460701,1,0,4.2175,0,-0.735,-0.24461,0.412848,-0.5551,-0.0735,0.11704,0.46774
-3.68041,0,0,18.6804,18.6804,11.3196,11.3196,1.47216,0.760988,2.40425,-0.216726,0.426808,0.460701,1,0,4.2,-0.035,-0.63,-0.24461,0.412848,-0.5551,-0.0735,0.11704,0.46774
-3.68384,0,0,18.6838,18.6838,11.3162,11.3162,1.47354,0.75343,2.40312,-0.0421407,0.809455,-0.0274039,1,0,4.235,-4.445,-1.365,-0.069418,0.795074,-1.03944,-0.0735,0.11704,0.46774
-3.68314,0,0,18.6831,18.6831,11.3169,11.3169,1.47326,0.752947,2.40225,0.598826,0.477388,-0.160557,1,0,3.3075,-0.2975,-1.3125,0.574254,0.463356,-1.17157,-0.0735,0.11704,0.46774
-3.67919,0,0,18.6792,18.6792,11.3208,11.3208,1.47167,0.752835,2.40206,0.598828,0.47736,-0.160556,1,0,2.5725,-0.07,-0.9275,0.574254,0.463356,-1.17157,-0.0735,0.11704,0.46774
-3.66993,0,0,18.6699,18.6699,11.3301,11.3301,1.46797,0.752571,2.40198,-0.110279,-0.203195,0.479147,1,0,1.3825,-0.1575,-0.8575,-0.13786,-0.216428,-0.5368,-0.0735,0.11704,0.46774
-3.66091,0,0,18.6609,18.6609,11.3391,11.3391,1.46436,0.752008,2.40186,-0.110269,-0.203258,0.479148,1,0,1.435,-0.3325,-0.875,-0.13786,-0.216428,-0.5368,-0.0735,0.11704,0.46774
-3.65531,0,0,18.6553,18.6553,11.3447,11.3447,1.46212,0.751599,2.4016,0.419172,0.269212,-0.291738,1,0,2.205,-0.245,-0.9625,0.393816,0.25559,-1.30174,-0.0735,0.11704,0.46774
-3.67627,0,0,18.6763,18.6763,11.3237,11.3237,1.47051,0.751199,2.40217,0.419179,0.269358,-0.291741,1,0,8.155,-0.2275,-0.4725,0.393816,0.25559,-1.30174,-0.07462,0.12082,0.47614
-3.68772,0,0,18.6877,18.6877,11.3123,11.3123,1.47509,0.751364,2.40279,0.170617,-0.408732,0.39394,1,0,6.02,0.105,-0.455,0.144204,-0.421876,-0.621346,-0.07462,0.12082,0.47614
-3.70171,0,0,18.7017,18.7017,11.2983,11.2983,1.48069,0.751641,2.40261,0.170612,-0.408634,0.393938,1,0,6.5975,0.1575,-0.9275,0.144204,-0.421876,-0.621346,-0.07462,0.12082,0.47614
-5.08648,0,0,20.0865,20.0865,9.91352,9.91352,2.03459,1.06989,2.15053,0.250949,-0.520003,0.175074,0,0,5.88,0.4025,-1.05,0.230458,-0.542778,-0.83814,-0.07462,0.12082,0.47614
-6.43674,0,0,21.4367,21.4367,8.56326,8.56326,2.5747,1.3817,1.90511,0.245508,-0.510591,0.174578,0,0,2.9925,0.3675,-0.8225,0.230458,-0.542778,-0.83814,-0.07462,0.12082,0.47614
-6.42789,0,0,21.4279,21.4279,8.57211,8.57211,2.57115,1.38199,1.90523,0.141632,-0.733534,0.0829843,1,0,1.47,0.175,-0.7525,0.126148,-0.765428,-0.92903,-0.07462,0.12082,0.47614
-6.41157,0,0,21.4116,21.4116,8.58843,8.58843,2.56463,1.38224,1.90454,0.141628,-0.733648,0.0829893,1,0,-0.1925,0.1225,-1.225,0.126148,-0.765428,-0.92903,-0.07462,0.12082,0.47614
-6.3954,0,0,21.3954,21.3954,8.6046,8.6046,2.55816,1.38212,1.90383,0.720145,-0.557898,0.0339379,1,0,-0.1575,-0.0875,-1.225,0.707112,-0.589748,-0.977708,-0.07462,0.12082,0.47614
-6.39145,0,0,21.3914,21.3914,8.60855,8.60855,2.55658,1.38207,1.9037,0.720146,-0.557925,0.0339392,1,0,2.5725,-0.035,-0.8925,0.707112,-0.589748,-0.977708,-0.07126,0.12376,0.47306
-6.39469,0,0,21.3947,21.3947,8.60531,8.60531,2.55788,1.38236,1.90394,0.443882,-0.180043,-0.313146,1,0,4.1825,0.175,-0.6825,0.429684,-0.21228,-1.32211,-0.07126,0.12376,0.47306
-6.41009,0,0,21.4101,21.4101,8.58991,8.58991,2.56404,1.38237,1.90389,0.443882,-0.179935,-0.31315,1,0,6.9125,0,-0.84,0.429684,-0.21228,-1.32211,-0.07126,0.12376,0.47306
-6.42675,0,0,21.4268,21.4268,8.57325,8.57325,2.5707,1.38221,1.90399,-0.267049,-0.276543,-0.149265,1,0,7.1925,-0.0875,-0.7525,-0.28426,-0.308904,-1.15949,-0.07126,0.12376,0.47306
-6.43533,0,0,21.4353,21.4353,8.56467,8.56467,2.57413,1.38204,1.9046,-0.267046,-0.276484,-0.149268,1,0,5.3725,-0.0875,-0.455,-0.28426,-0.308904,-1.15949,-0.07126,0.12376,0.47306
-6.43797,0,0,21.438,21.438,8.56203,8.56203,2.57519,1.38178,1.90512,0.417409,-0.393341,-0.144719,1,0,4.0425,-0.14,-0.5075,0.403088,-0.425658,-1.15497,-0.07126,0.12376,0.47306
-6.42836,0,0,21.4284,21.4284,8.57164,8.57164,2.57135,1.38205,1.90452,0.417404,-0.393407,-0.144716,1,0,1.3125,0.14,-1.1725,0.403088,-0.425658,-1.15497,-0.07126,0.12376,0.47306
-6.41554,0,0,21.4155,21.4155,8.58446,8.58446,2.56622,1.38266,1.90357,-0.0123017,-0.670602,0.0872911,1,0,0.595,0.3325,-1.3825,-0.028426,-0.702476,-0.92476,-0.07126,0.12376,0.47306
-6.40741,0,0,21.4074,21.4074,8.59259,8.59259,2.56297,1.38293,1.90288,-0.0123064,-0.670659,0.0872935,1,0,1.645,0.14,-1.225,-0.028426,-0.702476,-0.92476,-0.07658,0.12418,0.47026
-6.40194,0,0,21.4019,21.4019,8.59806,8.59806,2.56077,1.38321,1.9021,-0.362312,-0.415452,0.546631,1,0,2.24,0.14,-1.2775,-0.379908,-0.447496,-0.468968,-0.07658,0.12418,0.47026
-6.40545,0,0,21.4055,21.4055,8.59455,8.59455,2.56218,1.38383,1.90164,-0.362322,-0.415428,0.546629,1,0,4.2525,0.35,-1.1025,-0.379908,-0.447496,-0.468968,-0.07658,0.12418,0.47026
-6.78788,0,0,21.7879,21.7879,8.21212,8.21212,2.71515,1.14031,2.12759,-0.209253,-0.14933,-0.00961904,0,0,4.5325,0.0175,-0.7,-0.230458,-0.184342,-1.0209,-0.07658,0.12418,0.47026
-7.16498,0,0,22.165,22.165,7.83502,7.83502,2.86599,0.900961,2.35201,-0.205076,-0.146697,-0.00967287,0,0,4.935,-0.4725,-0.4025,-0.230458,-0.184342,-1.0209,-0.07658,0.12418,0.47026
-8.22536,0,0,23.2254,23.2254,6.77464,6.77464,3.29014,1.23892,2.08229,0.280071,-0.414342,0.0956784,0,0,4.095,-0.5425,-0.525,0.262666,-0.459086,-0.915854,-0.07658,0.12418,0.47026
-9.26585,0,0,24.2658,24.2658,5.73415,5.73415,3.70634,1.57031,1.81745,0.274289,-0.407102,0.0950938,0,0,3.6225,-0.315,-0.8225,0.262666,-0.459086,-0.915854,-0.07658,0.12418,0.47026
-9.26479,0,0,24.2648,24.2648,5.73521,5.73521,3.70592,1.57034,1.8175,0.578367,-0.160047,-0.168999,1,0,3.22,0.0175,-0.7875,0.568032,-0.21228,-1.17791,-0.07658,0.12418,0.47026
-9.26665,0,0,24.2667,24.2667,5.73335,5.73335,3.70666,1.57017,1.8169,0.57837,-0.160034,-0.169,1,0,3.885,-0.1225,-1.155,0.568032,-0.21228,-1.17791,-0.07056,0.126,0.4711
-11.0422,0,0,26.0422,26.0422,5,5,4.41686,2.07122,1.40234,0.389831,-0.644385,0.428236,0,0,4.0425,0.1925,-1.295,0.387472,-0.708454,-0.584136,-0.07056,0.126,0.4711
-12.794,0,0,27.794,27.794,5,5,5.1176,2.56329,1.00103,0.38125,-0.632237,0.426874,0,0,3.43,-0.2975,-0.9975,0.387472,-0.708454,-0.584136,-0.07056,0.126,0.4711
-12.7926,0,0,27.7926,27.7926,5,5,5.11703,2.56278,1.00136,-0.614195,-0.728727,0.0663904,1,0,3.1325,-0.28,-0.595,-0.612196,-0.804834,-0.94184,-0.07056,0.126,0.4711
-12.7868,0,0,27.7868,27.7868,5,5,5.11472,2.56323,1.00242,-0.614203,-0.728767,0.0663937,1,0,2.135,0.315,-0.2275,-0.612196,-0.804834,-0.94184,-0.07056,0.126,0.4711
-12.7836,0,0,27.7836,27.7836,5,5,5.11346,2.56276,1.00327,-0.189602,0.220136,-0.110773,1,0,2.73,-0.2275,-0.2975,-0.185806,0.143106,-1.11764,-0.07056,0.126,0.4711
-12.7864,0,0,27.7864,27.7864,5,5,5.11458,2.56304,1.00358,-0.189607,0.220156,-0.110775,1,0,4.0775,0.175,-0.6475,-0.185806,0.143106,-1.11764,-0.07056,0.126,0.4711
-12.7919,0,0,27.7919,27.7919,5,5,5.11676,2.56274,1.0039,0.0198394,-0.16304,0.590029,1,0,4.6725,-0.1575,-0.6125,0.024522,-0.23973,-0.422242,-0.07056,0.126,0.4711
-12.8002,0,0,27.8002,27.8002,5,5,5.12008,2.56307,1.00398,0.0198337,-0.162983,0.590023,1,0,5.32,0.1925,-0.7875,0.024522,-0.23973,-0.422242,-0.07504,0.1211,0.46928
-12.8059,0,0,27.8059,27.8059,5,5,5.12235,2.5635,1.00349,0.806446,-0.319632,-0.180253,1,0,4.7425,0.2275,-1.12,0.814472,-0.396256,-1.18657,-0.07504,0.1211,0.46928
-12.7998,0,0,27.7998,27.7998,5,5,5.11993,2.56273,1.00208,0.806459,-0.319674,-0.180249,1,0,2.135,-0.525,-1.5925,0.814472,-0.396256,-1.18657,-0.07504,0.1211,0.46928
-12.7891,0,0,27.7891,27.7891,5,5,5.11563,2.56222,1.00118,-0.0887596,-0.827063,0.0552047,1,0,1.0675,-0.35,-1.3125,-0.084546,-0.903044,-0.952942,-0.07504,0.1211,0.46928
-12.7777,0,0,27.7777,27.7777,5,5,5.11108,2.5616,0.999725,-0.0887489,-0.827142,0.0552123,1,0,0.945,-0.4375,-1.6275,-0.084546,-0.903044,-0.952942,-0.07504,0.1211,0.46928
-12.769,0,0,27.769,27.769,5,5,5.1076,2.56142,0.998371,-0.997094,-0.0780769,-0.265432,1,0,1.54,-0.175,-1.5925,-0.99674,-0.154696,-1.27112,-0.07504,0.1211,0.46928
-12.7752,0,0,27.7752,27.7752,5,5,5.11009,2.56232,0.998047,-0.99711,-0.0780336,-0.265436,1,0,4.865,0.5075,-1.05,-0.99674,-0.154696,-1.27112,-0.07504,0.1211,0.46928
-12.7864,0,0,27.7864,27.7864,5,5,5.11455,2.56204,0.998279,-0.728743,-0.435421,0.037379,1,0,5.95,-0.1575,-0.665,-0.727242,-0.51179,-0.970632,-0.07504,0.1211,0.46928
-12.7968,0,0,27.7968,27.7968,5,5,5.1187,2.56232,0.998804,-0.728748,-0.435349,0.0373723,1,0,5.775,0.1925,-0.525,-0.727242,-0.51179,-0.970632,-0.07504,0.1211,0.46928
-13.7241,0,0,28.7241,28.7241,5,5,5.48963,3.12748,0.537172,0.451231,-0.337972,0.215546,0,0,4.55,-0.455,-0.9275,0.467626,-0.4209,-0.792756,-0.07322,0.12362,0.47572
-13.716,0,0,28.716,28.716,5,5,5.48641,3.12638,0.536752,-0.0394305,-0.489953,0.00555644,1,0,1.6625,-0.665,-0.9975,-0.025132,-0.572668,-1.00113,-0.07322,0.12362,0.47572
-13.7033,0,0,28.7033,28.7033,5,5,5.48132,3.12605,0.535892,-0.0394246,-0.490042,0.00556524,1,0,0.63,-0.245,-1.295,-0.025132,-0.572668,-1.00113,-0.07322,0.12362,0.47572
-13.694,0,0,28.694,28.694,5,5,5.47759,3.1257,0.534821,-0.727757,-0.0340849,-0.0145918,1,0,1.4,-0.2625,-1.4175,-0.716384,-0.11712,-1.02114,-0.07322,0.12362,0.47572
-13.6897,0,0,28.6897,28.6897,5,5,5.47587,3.12697,0.534507,-0.727779,-0.0341149,-0.0145901,1,0,2.5025,0.7175,-1.0675,-0.716384,-0.11712,-1.02114,-0.07322,0.12362,0.47572
-13.6963,0,0,28.6963,28.6963,5,5,5.47854,3.12783,0.534637,-0.0523331,-0.361613,-0.0471767,1,0,4.9525,0.5075,-0.7875,-0.038064,-0.444324,-1.05347,-0.07322,0.12362,0.47572
-13.7067,0,0,28.7067,28.7067,5,5,5.4827,3.12713,0.535673,-0.052321,-0.36154,-0.047183,1,0,5.7575,-0.35,-0.175,-0.038064,-0.444324,-1.05347,-0.07322,0.12362,0.47572
-13.7148,0,0,28.7148,28.7148,5,5,5.48592,3.12616,0.536744,0.605176,-0.462972,0.0504337,1,0,5.2325,-0.5075,-0.14,0.6222,-0.545706,-0.956602,-0.07322,0.12362,0.47572
-13.719,0,0,28.719,28.719,5,5,5.48759,3.12509,0.536688,0.605195,-0.462943,0.0504319,1,0,4.3925,-0.63,-0.7875,0.6222,-0.545706,-0.956602,-0.07126,0.12684,0.48342
-13.7157,0,0,28.7157,28.7157,5,5,5.48627,3.12444,0.536885,-0.595194,-0.245458,-0.213413,1,0,2.7125,-0.3675,-0.665,-0.583282,-0.328424,-1.21841,-0.07126,0.12684,0.48342
-13.7093,0,0,28.7093,28.7093,5,5,5.48372,3.12502,0.537381,-0.595204,-0.245502,-0.213409,1,0,2.0125,0.3675,-0.56,-0.583282,-0.328424,-1.21841,-0.07126,0.12684,0.48342
-13.7031,0,0,28.7031,28.7031,5,5,5.48124,3.12577,0.537499,0.197599,-0.282305,-0.165456,1,0,2.065,0.4375,-0.7875,0.21289,-0.365146,-1.17083,-0.07126,0.12684,0.48342
-13.7004,0,0,28.7004,28.7004,5,5,5.48016,3.12617,0.537043,0.197592,-0.282324,-0.165454,1,0,2.87,0.21,-1.1025,0.21289,-0.365146,-1.17083,-0.07126,0.12684,0.48342
-13.6964,0,0,28.6964,28.6964,5,5,5.47855,3.12558,0.537607,0.598019,0.0946534,0.0547497,1,0,2.5375,-0.315,-0.455,0.615002,0.011468,-0.952332,-0.07126,0.12684,0.48342
-13.696,0,0,28.696,28.696,5,5,5.47842,3.12389,0.537763,0.598048,0.0946512,0.0547515,1,0,3.3775,-0.98,-0.63,0.615002,0.011468,-0.952332,-0.07126,0.12684,0.48342
-13.6969,0,0,28.6969,28.6969,5,5,5.47874,3.12329,0.53718,-0.393507,0.157186,-0.284463,1,0,3.6575,-0.385,-1.12,-0.380762,0.073932,-1.28893,-0.07126,0.12684,0.48342
-13.7008,0,0,28.7008,28.7008,5,5,5.48031,3.12438,0.536487,-0.393526,0.157213,-0.284467,1,0,4.3575,0.595,-1.2775,-0.380762,0.073932,-1.28893,-0.07,0.12152,0.4676
-13.7064,0,0,28.7064,28.7064,5,5,5.48256,3.12605,0.536213,-0.814625,0.0956998,-0.0930415,1,0,4.725,0.9625,-1.0675,-0.803614,0.012444,-1.09898,-0.07,0.12152,0.4676
-13.7141,0,0,28.7141,28.7141,5,5,5.48563,3.12763,0.535778,-0.814652,0.0957531,-0.0930481,1,0,5.1975,0.8925,-1.155,-0.803614,0.012444,-1.09898,-0.07,0.12152,0.4676
-13.7172,0,0,28.7172,28.7172,5,5,5.48689,3.12803,0.53508,-0.0774842,0.62837,-0.0264125,1,0,4.1825,0.1925,-1.2425,-0.063318,0.544486,-1.03285,-0.07,0.12152,0.4676
-13.7123,0,0,28.7123,28.7123,5,5,5.48493,3.12618,0.534376,-0.077452,0.628336,-0.0264075,1,0,2.38,-1.12,-1.12,-0.063318,0.544486,-1.03285,-0.07,0.12152,0.4676
-11.5661,0,0,26.5661,26.5661,5,5,4.62645,3.33799,0.314563,0.138017,0.837885,0.395187,0,0,1.6975,-1.0325,-1.33,0.15677,0.768722,-0.615612,-0.07,0.12152,0.4676
-9.44136,0,0,24.4414,24.4414,5.55864,5.55864,3.77655,3.5483,0.0887884,0.134353,0.823102,0.396052,0,0,1.9075,-0.28,-1.7325,0.15677,0.768722,-0.615612,-0.07,0.12152,0.4676
-9.43599,0,0,24.436,24.436,5.56401,5.56401,3.7744,3.54948,0.0876794,-0.262804,-0.197671,-0.168895,1,0,2.2925,0.6475,-1.505,-0.242048,-0.250954,-1.1762,-0.07,0.12152,0.4676
-9.43704,0,0,24.437,24.437,5.56296,5.56296,3.77482,3.5514,0.0871913,-0.262837,-0.197663,-0.168898,1,0,3.71,1.1025,-1.1725,-0.242048,-0.250954,-1.1762,-0.06832,0.11928,0.4669
-9.43962,0,0,24.4396,24.4396,5.56038,5.56038,3.77585,3.55168,0.0874983,-0.370357,0.307959,0.472646,1,0,4.025,0.175,-0.6475,-0.350018,0.254126,-0.539606,-0.06832,0.11928,0.4669
-9.44133,0,0,24.4413,24.4413,5.55867,5.55867,3.77653,3.54939,0.0882373,-0.370317,0.307971,0.472648,1,0,3.815,-1.3125,-0.2975,-0.350018,0.254126,-0.539606,-0.06832,0.11928,0.4669
-9.19496,0,0,24.195,24.195,5.80504,5.80504,3.67798,3.90386,-0.235255,0.291073,0.0978842,0.0555626,0,0,4.0425,-1.5925,-0.4375,0.320372,0.045994,-0.953186,-0.06832,0.11928,0.4669
-8.95575,0,0,23.9558,23.9558,6.04425,6.04425,3.5823,4.2539,-0.559675,0.284979,0.0961942,0.0552344,0,0,4.9,-0.0875,-0.945,0.320372,0.045994,-0.953186,-0.06832,0.11928,0.4669
-8.96153,0,0,23.9615,23.9615,6.03847,6.03847,3.58461,4.25511,-0.559822,-0.138784,-0.689896,-0.415908,1,0,4.76,0.7,-0.945,-0.105164,-0.73932,-1.42069,-0.06832,0.11928,0.4669
-8.96151,0,0,23.9615,23.9615,6.03849,6.03849,3.58461,4.25768,-0.559674,-0.138829,-0.689896,-0.415912,1,0,3.4475,1.505,-0.8225,-0.105164,-0.73932,-1.42069,-0.06832,0.11928,0.4669
-9.50648,0,0,24.5065,24.5065,5.49352,5.49352,3.80259,3.64925,-0.0435903,-0.528773,-0.213797,0.0993598,0,0,2.8175,0.56,-0.945,-0.507398,-0.267546,-0.909876,-0.06832,0.11928,0.4669
-10.0352,0,0,25.0352,25.0352,5,5,4.01407,3.04906,0.465851,-0.518316,-0.210079,0.0997192,0,0,1.575,-1.295,-0.56,-0.507398,-0.267546,-0.909876,-0.06818,0.11998,0.47264
-10.0275,0,0,25.0275,25.0275,5,5,4.01098,3.04624,0.466303,0.0828444,0.626069,0.635658,1,0,1.715,-1.6275,-0.4375,0.096258,0.567788,-0.378078,-0.06818,0.11998,0.47264
-10.0278,0,0,25.0278,25.0278,5,5,4.01112,3.04478,0.466368,0.08287,0.626072,0.635659,1,0,3.535,-0.8575,-0.7175,0.096258,0.567788,-0.378078,-0.06818,0.11998,0.47264
-10.0326,0,0,25.0326,25.0326,5,5,4.01305,3.04545,0.466613,0.0771484,0.375135,-0.310555,1,0,4.5325,0.4025,-0.7,0.090524,0.317078,-1.31699,-0.06818,0.11998,0.47264
-10.0365,0,0,25.0365,25.0365,5,5,4.01461,3.04839,0.467469,0.0770973,0.375162,-0.31056,1,0,4.305,1.75,-0.4375,0.090524,0.317078,-1.31699,-0.06818,0.11998,0.47264
-10.0393,0,0,25.0393,25.0393,5,5,4.0157,3.05031,0.467862,0.0445056,-0.539182,0.0375042,1,0,4.06,1.1375,-0.665,0.057828,-0.596336,-0.971608,-0.06818,0.11998,0.47264
-10.0356,0,0,25.0356,25.0356,5,5,4.01424,3.04863,0.468304,0.0445348,-0.539208,0.0375075,1,0,2.625,-0.9625,-0.49,0.057828,-0.596336,-0.971608,-0.06818,0.11998,0.47264
-10.0302,0,0,25.0302,25.0302,5,5,4.01209,3.04626,0.469238,0.397371,-0.347018,-0.016585,1,0,2.2225,-1.3475,-0.175,0.412116,-0.404308,-1.02529,-0.06818,0.11998,0.47264
-10.0286,0,0,25.0286,25.0286,5,5,4.01142,3.04516,0.468847,0.39739,-0.347029,-0.0165832,1,0,3.0975,-0.665,-0.9975,0.412116,-0.404308,-1.02529,-0.06818,0.11998,0.47264
-8.18516,0,0,23.1852,23.1852,6.81484,6.81484,3.27406,3.59173,-0.0405569,0.438769,0.756841,0.418059,0,0,3.64,0.6475,-1.47,0.463234,0.71126,-0.594262,-0.06356,0.12376,0.46802
-6.35618,0,0,21.3562,21.3562,8.64382,8.64382,2.54247,4.13427,-0.561963,0.429321,0.744086,0.418068,0,0,3.605,1.785,-1.0675,0.463234,0.71126,-0.594262,-0.06356,0.12376,0.46802
-6.19538,0,0,21.1954,21.1954,8.80462,8.80462,2.47815,3.90648,-0.391639,-0.207428,0.0632218,-0.0660213,0,0,3.815,1.785,-1.33,-0.180194,0.032208,-1.07494,-0.06356,0.12376,0.46802
-6.03736,0,0,21.0374,21.0374,8.96264,8.96264,2.41494,3.68317,-0.221169,-0.203539,0.062133,-0.0657166,0,0,3.815,1.785,-1.33,-0.180194,0.032208,-1.07494,-0.06356,0.12376,0.46802
-6.03365,0,0,21.0337,21.0337,8.96635,8.96635,2.41346,3.68056,-0.221593,-0.473557,-0.141112,-0.277184,1,0,2.6425,-1.54,-0.9975,-0.4514,-0.1708,-1.28478,-0.06356,0.12376,0.46802
-6.02995,0,0,21.0299,21.0299,8.97005,8.97005,2.41198,3.67795,-0.222017,-0.473511,-0.141137,-0.27718,1,0,2.6425,-1.54,-0.9975,-0.4514,-0.1708,-1.28478,-0.06356,0.12376,0.46802
-6.03758,0,0,21.0376,21.0376,8.96242,8.96242,2.41503,3.67826,-0.222829,0.260014,-0.0377649,-0.0819403,1,0,5.1975,0.1575,-1.295,0.285236,-0.067588,-1.09105,-0.06356,0.12376,0.46802
-6.0452,0,0,21.0452,21.0452,8.9548,8.9548,2.41808,3.67856,-0.223641,0.260009,-0.0377118,-0.0819429,1,0,5.1975,0.1575,-1.295,0.285236,-0.067588,-1.09105,-0.06356,0.12376,0.46802
-6.0446,0,0,21.0446,21.0446,8.9554,8.9554,2.41784,3.68077,-0.224222,-0.671946,-0.121861,0.0187496,1,0,3.3425,1.2775,-1.2075,-0.650626,-0.151646,-0.991128,-0.07364,0.12096,0.4662
-6.03699,0,0,21.037,21.037,8.96301,8.96301,2.4148,3.67849,-0.224662,0.564453,0.39517,0.0111316,1,0,1.7675,-1.3475,-1.015,0.590968,0.364902,-0.998692,-0.07364,0.12096,0.4662
-6.03333,0,0,21.0333,21.0333,8.96667,8.96667,2.41333,3.67605,-0.224778,0.564496,0.395145,0.0111354,1,0,2.6425,-1.435,-0.8225,0.590968,0.364902,-0.998692,-0.07364,0.12096,0.4662
-6.03469,0,0,21.0347,21.0347,8.96531,8.96531,2.41388,3.67512,-0.22477,-0.155534,-0.392074,0.220763,1,0,3.7625,-0.5425,-0.7875,-0.132126,-0.42151,-0.790682,-0.07364,0.12096,0.4662
-6.03808,0,0,21.0381,21.0381,8.96192,8.96192,2.41523,3.67704,-0.224792,-0.155567,-0.392051,0.22076,1,0,4.2175,1.12,-0.875,-0.132126,-0.42151,-0.790682,-0.07364,0.12096,0.4662
-6.04165,0,0,21.0417,21.0417,8.95835,8.95835,2.41666,3.67926,-0.225071,0.00354026,0.215432,-0.286529,1,0,4.27,1.295,-1.0325,0.027694,0.185318,-1.29405,-0.07364,0.12096,0.4662
-6.04206,0,0,21.0421,21.0421,8.95794,8.95794,2.41682,3.67857,-0.224211,0.0035523,0.215435,-0.286528,1,0,3.5175,-0.385,-0.2975,0.027694,0.185318,-1.29405,-0.07364,0.12096,0.4662
-6.04046,0,0,21.0405,21.0405,8.95954,8.95954,2.41618,3.67683,-0.223185,0.030674,0.112838,0.133589,1,0,3.0625,-0.9975,-0.175,0.0549,0.082838,-0.87718,-0.07364,0.12096,0.4662
-6.04399,0,0,21.044,21.044,8.95601,8.95601,2.41759,3.675,-0.222312,0.0307058,0.112862,0.13359,1,0,4.2175,-1.05,-0.2625,0.0549,0.082838,-0.87718,-0.07224,0.12264,0.47446
-6.52801,0,0,21.528,21.528,8.47199,8.47199,2.61121,4.37884,-0.840173,0.643374,-0.196697,0.203153,0,0,4.7425,-0.245,-0.5425,0.682468,-0.229726,-0.807152,-0.07224,0.12264,0.47446
-6.99914,0,0,21.9991,21.9991,8.00086,8.00086,2.79966,5.07368,-1.45191,0.631288,-0.19347,0.202,0,0,3.605,1.26,-0.4375,0.682468,-0.229726,-0.807152,-0.07224,0.12264,0.47446
-6.99995,0,0,22,22,8.00005,8.00005,2.79998,5.07567,-1.45155,-0.466734,-0.473135,-0.311436,1,0,3.6225,1.1725,-0.665,-0.420168,-0.509106,-1.31662,-0.07224,0.12264,0.47446
-6.99224,0,0,21.9922,21.9922,8.00776,8.00776,2.79689,5.07516,-1.45271,-0.466725,-0.473188,-0.311433,1,0,1.785,-0.3325,-1.47,-0.420168,-0.509106,-1.31662,-0.07224,0.12264,0.47446
-6.98416,0,0,21.9842,21.9842,8.01584,8.01584,2.79366,5.07337,-1.45338,-0.0283735,0.762678,-0.137947,1,0,1.68,-1.0675,-1.155,0.020008,0.725534,-1.14448,-0.07224,0.12264,0.47446
-6.98433,0,0,21.9843,21.9843,8.01567,8.01567,2.79373,5.07279,-1.45309,-0.0283634,0.76268,-0.137946,1,0,3.4825,-0.3325,-0.63,0.020008,0.725534,-1.14448,-0.07224,0.12264,0.47446
-6.98576,0,0,21.9858,21.9858,8.01424,8.01424,2.7943,5.07297,-1.45243,0.104903,-0.181228,0.492902,1,0,3.745,0.1225,-0.4375,0.153842,-0.217404,-0.5185,-0.07224,0.12264,0.47446
-6.98813,0,0,21.9881,21.9881,8.01187,8.01187,2.79525,5.0741,-1.4535,0.104884,-0.181212,0.492899,1,0,4.0425,0.63,-1.47,0.153842,-0.217404,-0.5185,-0.06818,0.1239,0.46284
-6.99012,0,0,21.9901,21.9901,8.00988,8.00988,2.79605,5.07457,-1.45455,-0.359686,0.0652539,0.18233,1,0,3.955,0.245,-1.435,-0.312686,0.028792,-0.826672,-0.06818,0.1239,0.46284
-6.98794,0,0,21.9879,21.9879,8.01206,8.01206,2.79517,5.0744,-1.45397,-0.359683,0.0652388,0.182331,1,0,2.94,-0.0875,-0.4725,-0.312686,0.028792,-0.826672,-0.06818,0.1239,0.46284
-5.83923,0,0,20.8392,20.8392,9.16077,9.16077,2.33569,5.12595,-1.57255,0.0100737,0.414965,0.148921,0,0,3.2725,-0.6475,-0.5425,0.059536,0.38613,-0.8601,-0.06818,0.1239,0.46284
-4.71184,0,0,19.7118,19.7118,10.2882,10.2882,1.88474,5.17805,-1.69256,0.0091681,0.407128,0.149128,0,0,3.99,0.4725,-1.2075,0.059536,0.38613,-0.8601,-0.06818,0.1239,0.46284
-4.83118,0,0,19.8312,19.8312,10.1688,10.1688,1.93247,5.95564,-2.40867,0.686671,-0.0477418,0.284257,0,0,3.0625,1.12,-1.68,0.753472,-0.069052,-0.72468,-0.06818,0.1239,0.46284
-4.94649,0,0,19.9465,19.9465,10.0535,10.0535,1.9786,6.72065,-3.12149,0.673401,-0.0469924,0.282757,0,0,2.9225,0.6825,-1.4525,0.753472,-0.069052,-0.72468,-0.06818,0.1239,0.46284
-4.94307,0,0,19.9431,19.9431,10.0569,10.0569,1.97723,6.7209,-3.12265,0.371019,0.0743778,-0.201168,1,0,2.765,0.1225,-1.4875,0.449814,0.052216,-1.20487,-0.06818,0.1239,0.46284
-4.93996,0,0,19.94,19.94,10.06,10.06,1.97598,6.71889,-3.12403,0.371054,0.0743564,-0.201163,1,0,2.8525,-1.2075,-1.575,0.449814,0.052216,-1.20487,-0.06944,0.12012,0.46718
-4.94168,0,0,19.9417,19.9417,10.0583,10.0583,1.97667,6.71728,-3.12494,-0.906462,-0.12995,-0.0317375,1,0,3.9025,-0.9625,-1.3125,-0.833138,-0.15189,-1.03676,-0.06944,0.12012,0.46718
-4.94793,0,0,19.9479,19.9479,10.0521,10.0521,1.97917,6.71812,-3.12502,-0.906477,-0.129906,-0.0317407,1,0,4.865,0.49,-0.875,-0.833138,-0.15189,-1.03676,-0.06944,0.12012,0.46718
-4.95144,0,0,19.9514,19.9514,10.0486,10.0486,1.98058,6.71909,-3.12512,-0.31911,-0.23369,0.259153,1,0,4.2525,0.56,-0.8925,-0.243268,-0.25559,-0.748104,-0.06944,0.12012,0.46718
-4.95085,0,0,19.9509,19.9509,10.0491,10.0491,1.98034,6.71958,-3.12566,-0.319119,-0.233694,0.259152,1,0,3.36,0.28,-1.1375,-0.243268,-0.25559,-0.748104,-0.06944,0.12012,0.46718
-4.94772,0,0,19.9477,19.9477,10.0523,10.0523,1.97909,6.71909,-3.12605,0.341286,0.0440006,-0.244075,1,0,2.7825,-0.2975,-1.0325,0.419924,0.021838,-1.24745,-0.06944,0.12012,0.46718
-4.94632,0,0,19.9463,19.9463,10.0537,10.0537,1.97853,6.71736,-3.1251,0.341316,0.043991,-0.244071,1,0,3.08,-0.9975,-0.2275,0.419924,0.021838,-1.24745,-0.06944,0.12012,0.46718
-4.94839,0,0,19.9484,19.9484,10.0516,10.0516,1.97936,6.71738,-3.12399,-0.164915,-0.158725,-0.16772,1,0,3.85,0.035,-0.175,-0.08845,-0.180682,-1.17169,-0.06944,0.12012,0.46718
-4.947,0,0,19.947,19.947,10.053,10.053,1.9788,6.71999,-3.12325,-0.16496,-0.158735,-0.167725,1,0,3.0975,1.54,-0.4375,-0.08845,-0.180682,-1.17169,-0.06832,0.12516,0.4683
-4.94352,0,0,19.9435,19.9435,10.0565,10.0565,1.97741,6.72188,-3.12244,-0.627489,-0.0180691,-0.111172,1,0,2.625,1.12,-0.385,-0.552904,-0.040138,-1.11557,-0.06832,0.12516,0.4683
-4.93903,0,0,19.939,19.939,10.061,10.061,1.97561,6.72123,-3.1219,-0.627478,-0.0181001,-0.11117,1,0,2.415,-0.3675,-0.49,-0.552904,-0.040138,-1.11557,-0.06832,0.12516,0.4683
-4.04849,0,0,19.0485,19.0485,10.9515,10.9515,1.61939,6.8424,-3.33462,0.0716377,0.333308,0.0792216,0,0,2.2925,-1.435,-0.595,0.15128,0.317078,-0.92659,-0.06832,0.12516,0.4683
-3.18112,0,0,18.1811,18.1811,11.8189,11.8189,1.27245,6.96205,-3.54773,0.0695645,0.327293,0.0791225,0,0,4.235,-0.6825,-0.3325,0.15128,0.317078,-0.92659,-0.06832,0.12516,0.4683
-3.19132,0,0,18.1913,18.1913,11.8087,11.8087,1.27653,6.96215,-3.54662,0.982042,-0.189355,-0.0824337,1,0,5.67,0.07,-0.175,1.06762,-0.199104,-1.0869,-0.06832,0.12516,0.4683
-3.19527,0,0,18.1953,18.1953,11.8047,11.8047,1.27811,6.96399,-3.54605,0.98201,-0.189328,-0.0824382,1,0,4.305,1.085,-0.5075,1.06762,-0.199104,-1.0869,-0.06832,0.12516,0.4683
-2.84163,0,0,17.8416,17.8416,12.1584,12.1584,1.13665,7.22625,-3.8666,0.184895,0.125252,0.128766,0,0,3.535,1.155,-0.6475,0.271694,0.117608,-0.876814,-0.06832,0.12516,0.4683
-2.4883,0,0,17.4883,17.4883,12.5117,12.5117,0.99532,7.4793,-4.18821,0.180515,0.122796,0.128246,0,0,2.4325,-1.19,-0.9625,0.271694,0.117608,-0.876814,-0.06832,0.12516,0.4683
-1.98452,0,0,16.9845,16.9845,13.0155,13.0155,0.793807,6.88559,-3.74788,-0.538119,0.188695,0.13353,0,0,2.45,-1.47,-0.8925,-0.460306,0.186904,-0.87291,-0.06874,0.12264,0.46662
-1.98853,0,0,16.9885,16.9885,13.0115,13.0115,0.795412,6.88554,-3.74814,0.45685,-0.124166,0.496843,1,0,4.375,-0.035,-0.9625,0.538874,-0.12566,-0.5124,-0.06874,0.12264,0.46662
-1.98662,0,0,16.9866,16.9866,13.0134,13.0134,0.794647,6.88822,-3.74968,0.456804,-0.12418,0.496837,1,0,3.1325,1.5575,-1.7325,0.538874,-0.12566,-0.5124,-0.06874,0.12264,0.46662
-1.95166,0,0,16.9517,16.9517,13.0483,13.0483,0.780663,6.80973,-3.74965,-0.0706633,0.011996,-0.0236829,0,0,2.5725,1.3825,-1.785,0.007808,0.010614,-1.02907,-0.06874,0.12264,0.46662
-1.9167,0,0,16.9167,16.9167,13.0833,13.0833,0.766678,6.72869,-3.7493,-0.0692589,0.0117559,-0.023513,0,0,2.415,-0.9975,-1.5925,0.007808,0.010614,-1.02907,-0.06874,0.12264,0.46662
-0.430751,0,0,15.4308,15.4308,14.5692,14.5692,0.1723,6.25286,-3.43556,-0.511476,0.604641,0.222055,0,0,2.3975,-1.61,-1.5575,-0.444568,0.613172,-0.786412,-0.06874,0.12264,0.46662
1.0216,0,0,13.9784,13.9784,16.0216,16.0216,-0.408638,5.78454,-3.11173,-0.503348,0.594556,0.222891,0,0,5.2325,-0.2275,-1.085,-0.444568,0.613172,-0.786412,-0.06874,0.12264,0.46662
1.009,0,0,13.991,13.991,16.009,16.009,-0.403598,5.78487,-3.11171,-1.05891,-0.166695,0.247481,1,0,6.2825,0.1925,-0.805,-1.00247,-0.147376,-0.762012,-0.06874,0.12264,0.46662
1.00583,0,0,13.9942,13.9942,16.0058,16.0058,-0.402334,5.78768,-3.11198,-1.05896,-0.166673,0.247476,1,0,4.1825,1.645,-0.9625,-1.00247,-0.147376,-0.762012,-0.07308,0.12068,0.45892
1.90866,0,0,13.0913,13.0913,16.9087,16.9087,-0.763463,5.84047,-3.24436,0.0249944,0.351348,0.0546586,0,0,3.2375,0.42,-1.155,0.086986,0.37637,-0.953186,-0.07308,0.12068,0.45892
2.80012,0,0,12.1999,12.1999,17.8001,17.8001,-1.12005,5.88892,-3.37637,0.0241533,0.345159,0.0544704,0,0,2.3975,-1.33,-0.805,0.086986,0.37637,-0.953186,-0.07308,0.12068,0.45892
2.68923,0,0,12.3108,12.3108,17.6892,17.6892,-1.07569,5.8464,-3.38435,-0.0290481,-0.0460991,-0.0734283,0,0,2.3625,-1.3125,-0.8225,0.032818,-0.01525,-1.08019,-0.07308,0.12068,0.45892
2.56836,0,0,12.4316,12.4316,17.5684,17.5684,-1.02734,5.80747,-3.39221,-0.0283721,-0.045261,-0.073344,0,0,5.04,0.28,-0.665,0.032818,-0.01525,-1.08019,-0.07308,0.12068,0.45892
2.5634,0,0,12.4366,12.4366,17.5634,17.5634,-1.02536,5.80971,-3.39218,0.0995134,-0.0316705,-0.0915437,1,0,4.5675,1.3125,-0.77,0.161284,-0.001708,-1.09824,-0.07308,0.12068,0.45892
2.56562,0,0,12.4344,12.4344,17.5656,17.5656,-1.02625,5.81102,-3.39242,0.0994906,-0.0316858,-0.0915463,1,0,2.975,0.77,-0.945,0.161284,-0.001708,-1.09824,-0.07308,0.12068,0.45892
3.15048,0,0,11.8495,11.8495,18.1505,18.1505,-1.26019,5.45013,-3.12975,-0.331104,0.212157,0.0993148,0,0,2.5025,-0.56,-0.8225,-0.277428,0.245952,-0.909388,-0.07308,0.12068,0.45892
3.72615,0,0,11.2739,11.2739,18.7261,18.7261,-1.49046,5.09799,-2.86448,-0.324984,0.208142,0.0997835,0,0,2.4325,-1.4525,-0.9275,-0.277428,0.245952,-0.909388,-0.06524,0.11928,0.46382
3.66876,0,0,11.3312,11.3312,18.6688,18.6688,-1.4675,5.07654,-2.88111,-0.0108132,-0.0213022,-0.0916038,0,0,3.675,-0.98,-0.7875,0.037698,0.016348,-1.09934,-0.06524,0.11928,0.46382
3.60223,0,0,11.3978,11.3978,18.6022,18.6022,-1.44089,5.05804,-2.89726,-0.0104915,-0.0208404,-0.0915636,0,0,5.9325,0.49,-0.455,0.037698,0.016348,-1.09934,-0.06524,0.11928,0.46382
3.59593,0,0,11.4041,11.4041,18.5959,18.5959,-1.43837,5.06029,-2.89679,0.137074,0.0676233,-0.184023,1,0,4.8475,1.3125,-0.5075,0.185928,0.104676,-1.19109,-0.06524,0.11928,0.46382
3.60188,0,0,11.3981,11.3981,18.6019,18.6019,-1.44075,5.05994,-2.89667,0.137081,0.0675819,-0.184024,1,0,2.1175,-0.21,-0.7525,0.185928,0.104676,-1.19109,-0.06524,0.11928,0.46382
4.65754,0,0,10.3425,10.3425,19.6575,19.6575,-1.86302,5.29491,-3.19625,0.202365,0.415645,0.10752,0,0,1.61,-0.8225,-0.735,0.25559,0.459696,-0.901214,-0.06524,0.11928,0.46382
5.69374,0,0,9.30626,9.30626,20.6937,20.6937,-2.2775,5.52578,-3.49876,0.198353,0.408461,0.106881,0,0,2.45,-0.7,-0.7875,0.25559,0.459696,-0.901214,-0.06524,0.11928,0.46382
5.69144,0,0,9.30856,9.30856,20.6914,20.6914,-2.27657,5.52606,-3.4984,0.0995802,-0.537761,-0.242662,1,0,3.955,0.1575,-0.595,0.156404,-0.48556,-1.24806,-0.06524,0.11928,0.46382
5.68928,0,0,9.31072,9.31072,20.6893,20.6893,-2.27571,5.52766,-3.49899,0.0995526,-0.537746,-0.242664,1,0,3.9725,0.945,-1.12,0.156404,-0.48556,-1.24806,-0.06804,0.1225,0.46676
5.69189,0,0,9.30811,9.30811,20.6919,20.6919,-2.27676,5.52909,-3.4999,0.129049,-0.170895,-0.245003,1,0,2.9225,0.8575,-1.3125,0.18605,-0.119072,-1.25038,-0.06804,0.1225,0.46676
5.69712,0,0,9.30288,9.30288,20.6971,20.6971,-2.27885,5.52806,-3.50099,0.129067,-0.170931,-0.245003,1,0,2.345,-0.5775,-1.47,0.18605,-0.119072,-1.25038,-0.06804,0.1225,0.46676
7.03939,0,0,7.96061,7.96061,22.0394,22.0394,-2.81576,5.57998,-3.65362,0.00923024,0.506962,0.17584,0,0,2.625,-0.98,-1.3475,0.066612,0.567422,-0.832284,-0.06804,0.1225,0.46676
8.35046,0,0,6.64954,6.64954,23.3505,23.3505,-3.34018,5.6319,-3.80662,0.00832834,0.497871,0.175262,0,0,5.0925,-0.1225,-1.0675,0.066612,0.567422,-0.832284,-0.06804,0.1225,0.46676
8.33903,0,0,6.66097,6.66097,23.339,23.339,-3.33561,5.63317,-3.80692,0.209001,-0.0392852,-0.276571,1,0,6.0375,0.7525,-0.945,0.268156,0.030744,-1.28063,-0.06804,0.1225,0.46676
8.33527,0,0,6.66473,6.66473,23.3353,23.3353,-3.33411,5.63501,-3.80731,0.208969,-0.039259,-0.276573,1,0,4.3225,1.085,-0.98,0.268156,0.030744,-1.28063,-0.06804,0.1225,0.46676
8.33705,0,0,6.66295,6.66295,23.3371,23.3371,-3.33482,5.63602,-3.80802,0.177,-0.687764,-0.0753086,1,0,3.0975,0.6125,-1.19,0.23607,-0.617076,-1.08092,-0.06804,0.1225,0.46676
8.34619,0,0,6.65381,6.65381,23.3462,23.3462,-3.33848,5.6346,-3.80882,0.177025,-0.687828,-0.0753098,1,0,1.4525,-0.805,-1.33,0.23607,-0.617076,-1.08092,-0.07042,0.12334,0.46788
8.3528,0,0,6.6472,6.6472,23.3528,23.3528,-3.34112,5.63284,-3.80982,-0.0784287,-0.281192,0.170587,1,0,2.03,-0.9975,-1.4525,-0.020496,-0.210816,-0.83692,-0.07042,0.12334,0.46788
8.35001,0,0,6.64999,6.64999,23.35,23.35,-3.34,5.63323,-3.81031,-0.0784355,-0.281172,0.170588,1,0,4.1125,0.245,-1.085,-0.020496,-0.210816,-0.83692,-0.07042,0.12334,0.46788
8.34711,0,0,6.65289,6.65289,23.3471,23.3471,-3.33884,5.63461,-3.81071,-0.449477,0.329604,-0.34801,1,0,4.13,0.8225,-0.9975,-0.393084,0.399306,-1.35152,-0.07042,0.12334,0.46788
8.34699,0,0,6.65301,6.65301,23.347,23.347,-3.3388,5.63528,-3.8107,-0.449488,0.329605,-0.348011,1,0,3.4825,0.385,-0.7875,-0.393084,0.399306,-1.35152,-0.07042,0.12334,0.46788
8.34911,0,0,6.65089,6.65089,23.3491,23.3491,-3.33964,5.63376,-3.81053,-0.577022,0.231888,0.0232951,1,0,2.975,-0.8925,-0.77,-0.521184,0.301706,-0.983076,-0.07042,0.12334,0.46788
8.35091,0,0,6.64909,6.64909,23.3509,23.3509,-3.34037,5.6314,-3.80944,-0.576981,0.231876,0.0232984,1,0,2.9925,-1.4175,-0.2625,-0.521184,0.301706,-0.983076,-0.07042,0.12334,0.46788
8.85073,0,0,6.14927,6.14927,23.8507,23.8507,-3.54029,5.76715,-4.0154,0.127951,0.205342,-0.000505024,0,0,4.2525,-0.9625,-0.21,0.1891,0.278648,-1.00626,-0.07042,0.12334,0.46788
9.33377,0,0,5.66623,5.66623,24.3338,24.3338,-3.73351,5.90297,-4.22165,0.125593,0.202009,-0.000958334,0,0,6.125,0.595,0.0875,0.1891,0.278648,-1.00626,-0.07042,0.12334,0.46788
9.32776,0,0,5.67224,5.67224,24.3278,24.3278,-3.7311,5.90557,-4.22084,0.123726,0.335536,-0.135466,1,0,4.76,1.4875,-0.245,0.18727,0.411994,-1.13972,-0.07364,0.1239,0.47292
9.33315,0,0,5.66685,5.66685,24.3331,24.3331,-3.73326,5.90575,-4.22038,-0.679663,0.390089,-0.0760846,1,0,2.2225,0.0875,-0.5425,-0.619516,0.466528,-1.0808,-0.07364,0.1239,0.47292
9.3426,0,0,5.6574,5.6574,24.3426,24.3426,-3.73704,5.9039,-4.22024,-0.67963,0.390023,-0.0760855,1,0,1.33,-1.085,-0.805,-0.619516,0.466528,-1.0808,-0.07364,0.1239,0.47292
9.35163,0,0,5.64837,5.64837,24.3516,24.3516,-3.74065,5.90136,-4.22027,-0.354248,0.16024,0.167107,1,0,1.435,-1.4875,-0.9275,-0.2928,0.237046,-0.839482,-0.07364,0.1239,0.47292
9.36066,0,0,5.63934,5.63934,24.3607,24.3607,-3.74426,5.89882,-4.2203,-0.354203,0.160177,0.167108,1,0,1.435,-1.4875,-0.9275,-0.2928,0.237046,-0.839482,-0.07364,0.1239,0.47292
9.35554,0,0,5.64446,5.64446,24.3555,24.3555,-3.74221,5.90002,-4.22024,-0.102871,-0.0189471,-0.121207,1,0,4.6025,0.7,-0.735,-0.040382,0.058072,-1.12557,-0.07364,0.1239,0.47292
9.35042,0,0,5.64958,5.64958,24.3504,24.3504,-3.74017,5.90122,-4.22018,-0.102891,-0.0189115,-0.121206,1,0,4.6025,0.7,-0.735,-0.040382,0.058072,-1.12557,-0.07364,0.1239,0.47292
9.50588,0,0,5.49412,5.49412,24.5059,24.5059,-3.80235,6.43419,-4.80118,0.427986,0.0327142,0.271775,0,0,3.1675,-0.455,-0.77,0.50203,0.110654,-0.734562,-0.07616,0.13188,0.48272
9.50507,0,0,5.49493,5.49493,24.5051,24.5051,-3.80203,6.43306,-4.80117,-0.271631,0.154969,-0.210795,1,0,3.64,-0.665,-0.8575,-0.200568,0.232776,-1.21341,-0.07616,0.13188,0.48272
8.62627,0,0,6.37373,6.37373,23.6263,23.6263,-3.45051,6.19735,-4.60601,-0.204369,-0.338839,0.0407344,0,0,5.005,0.3675,-0.805,-0.137128,-0.26657,-0.964654,-0.07616,0.13188,0.48272
7.78148,0,0,7.21852,7.21852,22.7815,22.7815,-3.11259,5.96799,-4.4153,-0.200389,-0.333008,0.0414935,0,0,0.91,1.5575,-1.435,-0.137128,-0.26657,-0.964654,-0.07616,0.13188,0.48272
7.78545,0,0,7.21455,7.21455,22.7855,22.7855,-3.11418,5.97033,-4.41692,0.0964818,0.106498,-0.13691,1,0,2.66,1.4175,-1.68,0.16104,0.172508,-1.14168,-0.07616,0.13188,0.48272
7.79474,0,0,7.20526,7.20526,22.7947,22.7947,-3.1179,5.96959,-4.41795,0.0964946,0.106434,-0.136913,1,0,1.435,-0.4025,-1.435,0.16104,0.172508,-1.14168,-0.07616,0.13188,0.48272
7.80334,0,0,7.19666,7.19666,22.8033,22.8033,-3.12134,5.96834,-4.41844,-0.164799,-0.24816,0.121647,1,0,1.5575,-0.7175,-1.1375,-0.101382,-0.181658,-0.88511,-0.07616,0.13188,0.48272
7.79902,0,0,7.20098,7.20098,22.799,22.799,-3.11961,5.96734,-4.41876,-0.164782,-0.24813,0.121651,1,0,4.445,-0.5775,-1.0325,-0.101382,-0.181658,-0.88511,-0.07616,0.13188,0.48272
7.78894,0,0,7.21106,7.21106,22.7889,22.7889,-3.11558,5.96743,-4.41881,-0.0966301,0.241668,-0.306944,1,0,5.7225,0.0525,-0.84,-0.03294,0.307562,-1.3104,-0.07392,0.13034,0.47614
7.78132,0,0,7.21868,7.21868,22.7813,22.7813,-3.11253,5.96954,-4.41903,-0.319107,0.211067,-0.40223,1,0,5.18,1.2425,-0.875,-0.256322,0.27694,-1.40495,-0.07392,0.13034,0.47614
7.78449,0,0,7.21551,7.21551,22.7845,22.7845,-3.1138,5.96926,-4.41875,-0.319102,0.211045,-0.402231,1,0,2.73,-0.175,-0.665,-0.256322,0.27694,-1.40495,-0.07392,0.13034,0.47614
8.68126,0,0,6.31874,6.31874,23.6813,23.6813,-3.47251,5.79503,-4.35563,-0.195199,0.344523,0.0778362,0,0,2.31,-0.7525,-1.0325,-0.134932,0.416508,-0.928542,-0.07392,0.13034,0.47614
9.56508,0,0,5.43492,5.43492,24.5651,24.5651,-3.82603,5.6225,-4.29091,-0.192203,0.338377,0.0777444,0,0,1.8375,-1.155,-1.365,-0.134932,0.416508,-0.928542,-0.07392,0.13034,0.47614
8.21678,0,0,6.78322,6.78322,23.2168,23.2168,-3.28671,5.55944,-4.22522,-0.0404652,-0.536355,0.112489,0,0,2.835,-0.28,-1.12,0.016348,-0.46665,-0.894748,-0.07392,0.13034,0.47614
6.88621,0,0,8.11379,8.11379,21.8862,21.8862,-2.75448,5.50055,-4.16082,-0.039442,-0.527127,0.113075,0,0,3.465,1.3475,-0.7175,0.016348,-0.46665,-0.894748,-0.07392,0.13034,0.47614
6.88554,0,0,8.11446,8.11446,21.8855,21.8855,-2.75422,5.503,-4.16077,0.123063,-0.538969,0.27315,1,0,3.605,1.435,-0.7175,0.179584,-0.478484,-0.735904,-0.07392,0.13034,0.47614
6.88209,0,0,8.11791,8.11791,21.8821,21.8821,-2.75284,5.50326,-4.16053,0.123059,-0.538945,0.273151,1,0,4.2175,0.14,-0.665,0.179584,-0.478484,-0.735904,-0.06972,0.12544,0.48524
6.8792,0,0,8.1208,8.1208,21.8792,21.8792,-2.75168,5.50231,-4.15968,0.297407,0.0166296,-0.140937,1,0,4.06,-0.5775,-0.35,0.354654,0.076494,-1.1468,-0.06972,0.12544,0.48524
6.87453,0,0,8.12547,8.12547,21.8745,21.8745,-2.74981,5.50064,-4.15855,0.297436,0.0166619,-0.140932,1,0,4.445,-1.015,-0.21,0.354654,0.076494,-1.1468,-0.06972,0.12544,0.48524
6.86689,0,0,8.13311,8.13311,21.8669,21.8669,-2.74675,5.50021,-4.15803,0.0638266,-0.619199,-0.339122,1,0,5.145,-0.2625,-0.525,0.120048,-0.55876,-1.34346,-0.06972,0.12544,0.48524
6.87427,0,0,8.12573,8.12573,21.8743,21.8743,-2.74971,5.50181,-4.15903,0.0637988,-0.61925,-0.339127,1,0,1.855,0.9625,-1.3475,0.120048,-0.55876,-1.34346,-0.06972,0.12544,0.48524
6.88643,0,0,8.11357,8.11357,21.8864,21.8864,-2.75457,5.50343,-4.15975,0.0977868,-1.14533,0.296264,1,0,0.77,0.9625,-1.19,0.154208,-1.08421,-0.712968,-0.06972,0.12544,0.48524
6.89786,0,0,8.10214,8.10214,21.8979,21.8979,-2.75915,5.50279,-4.1594,0.0977979,-1.14541,0.296261,1,0,0.875,-0.385,-0.63,0.154208,-1.08421,-0.712968,-0.06972,0.12544,0.48524
6.90489,0,0,8.09511,8.09511,21.9049,21.9049,-2.76196,5.50151,-4.15923,0.363752,-0.16625,-0.00287292,1,0,1.8725,-0.7525,-0.7525,0.421266,-0.106018,-1.00979,-0.06972,0.12544,0.48524
6.89499,0,0,8.10501,8.10501,21.895,21.895,-2.758,5.50102,-4.15907,0.363761,-0.166182,-0.00286878,1,0,5.67,-0.2975,-0.735,0.421266,-0.106018,-1.00979,-0.06972,0.12866,0.48006
6.87773,0,0,8.12227,8.12227,21.8777,21.8777,-2.75109,5.50166,-4.15881,0.0953878,-0.512047,-0.28208,1,0,7.315,0.3675,-0.6475,0.151768,-0.451644,-1.28686,-0.06972,0.12866,0.48006
6.86047,0,0,8.13953,8.13953,21.8605,21.8605,-2.74419,5.5023,-4.15856,0.0953766,-0.511927,-0.282075,1,0,7.315,0.3675,-0.6475,0.151768,-0.451644,-1.28686,-0.06972,0.12866,0.48006
7.11332,0,0,7.88668,7.88668,22.1133,22.1133,-2.84533,5.62855,-4.34755,0.13048,0.113205,-0.0670917,0,0,4.55,1.1375,-1.4525,0.189222,0.174582,-1.07323,-0.06972,0.12866,0.48006
7.36194,0,0,7.63806,7.63806,22.3619,22.3619,-2.94478,5.75243,-4.53676,0.128328,0.111491,-0.0673931,0,0,4.55,1.1375,-1.4525,0.189222,0.174582,-1.07323,-0.06972,0.12866,0.48006
7.37746,0,0,7.62254,7.62254,22.3775,22.3775,-2.95098,5.75023,-4.53714,-0.480277,0.95589,-0.344644,1,0,0,-1.2775,-1.1025,-0.421998,1.01821,-1.34834,-0.06972,0.12866,0.48006
8.60452,0,0,6.39548,6.39548,23.6045,23.6045,-3.44181,5.18185,-4.08663,-0.589701,0.445626,0.326877,0,0,1.0675,-0.77,-1.0325,-0.541802,0.517036,-0.682468,-0.06972,0.12866,0.48006
9.8019,0,0,5.1981,5.1981,24.8019,24.8019,-3.92076,4.62184,-3.62674,-0.579963,0.437261,0.327176,0,0,3.9725,0.455,-0.9975,-0.541802,0.517036,-0.682468,-0.06972,0.12866,0.48006
11.2726,0,0,5,5,26.2726,26.2726,-4.50905,4.19529,-3.29266,-0.489687,0.600918,0.282487,0,0,4.8125,1.2425,-0.9625,-0.458598,0.690764,-0.726632,-0.07098,0.12488,0.47726
10.3543,0,0,5,5,25.3543,25.3543,-4.14171,3.90847,-3.00285,-0.267234,-0.34935,0.100498,0,0,6.5275,1.0325,-1.0325,-0.240218,-0.264862,-0.908046,-0.07098,0.12488,0.47726
9.46131,0,0,5.53869,5.53869,24.4613,24.4613,-3.78452,3.62299,-2.71661,-0.262262,-0.343167,0.101254,0,0,4.235,-0.9275,-0.945,-0.240218,-0.264862,-0.908046,-0.07098,0.12488,0.47726
9.37437,0,0,5.62563,5.62563,24.3744,24.3744,-3.74975,3.45893,-2.57644,-0.156749,-0.0343265,-0.00819989,0,0,3.325,-1.12,-0.8925,-0.137128,0.043066,-1.01687,-0.07098,0.12488,0.47726
9.29372,0,0,5.70628,5.70628,24.2937,24.2937,-3.71749,3.2987,-2.43682,-0.153957,-0.0337763,-0.00799882,0,0,2.275,-0.5775,-1.015,-0.137128,0.043066,-1.01687,-0.07098,0.12488,0.47726
10.294,0,0,5,5,25.294,25.294,-4.11762,3.16116,-2.34921,-0.140141,0.362643,0.152599,0,0,1.5575,0.0175,-0.7175,-0.12566,0.446032,-0.857172,-0.07098,0.12488,0.47726
11.2754,0,0,5,5,26.2754,26.2754,-4.51015,3.02756,-2.25946,-0.137812,0.355812,0.15221,0,0,2.17,1.1375,-0.5425,-0.12566,0.446032,-0.857172,-0.07098,0.12488,0.47726
11.275,0,0,5,5,26.275,26.275,-4.50998,3.02853,-2.2594,-0.0235113,0.545111,-0.0447539,1,0,3.5525,0.56,-0.735,-0.010858,0.635132,-1.05262,-0.07098,0.12488,0.47726
11.2684,0,0,5,5,26.2684,26.2684,-4.50736,3.0268,-2.259,-0.023481,0.545157,-0.0447487,1,0,4.9175,-1.0325,-0.665,-0.010858,0.635132,-1.05262,-0.0686,0.12614,0.47376
11.2422,0,0,5,5,26.2422,26.2422,-4.49688,3.06317,-2.31037,0.0422162,-0.00520593,-0.0397271,0,0,4.7775,-1.61,-0.595,0.055754,0.085156,-1.04761,-0.0686,0.12614,0.47376
11.2157,0,0,5,5,26.2157,26.2157,-4.48627,3.10008,-2.36278,0.041573,-0.00501882,-0.0397471,0,0,4.9875,-0.875,-1.155,0.055754,0.085156,-1.04761,-0.0686,0.12614,0.47376
11.288,0,0,5,5,26.288,26.288,-4.51519,3.08791,-2.36894,-0.0140985,0.0229333,0.0504689,0,0,3.29,-0.1575,-1.12,-0.000366,0.113582,-0.958066,-0.0686,0.12614,0.47376
11.3684,0,0,5,5,26.3684,26.3684,-4.54737,3.07869,-2.37421,-0.0139378,0.0223735,0.0504333,0,0,1.155,1.4,-0.49,-0.000366,0.113582,-0.958066,-0.0686,0.12614,0.47376
11.3768,0,0,5,5,26.3768,26.3768,-4.55072,3.07941,-2.37349,0.129403,-0.466802,0.453822,1,0,1.5575,0.385,-0.3675,0.143594,-0.375028,-0.557784,-0.0686,0.12614,0.47376
11.3852,0,0,5,5,26.3852,26.3852,-4.55407,3.08013,-2.37278,0.12939,-0.46686,0.453817,1,0,1.5575,0.385,-0.3675,0.143594,-0.375028,-0.557784,-0.0686,0.12614,0.47376
11.3827,0,0,5,5,26.3827,26.3827,-4.55307,3.07785,-2.3724,0.671256,-0.470507,-0.0964973,1,0,4.0075,-1.3475,-0.7,0.687714,-0.378688,-1.10386,-0.0686,0.12614,0.47376
11.3802,0,0,5,5,26.3802,26.3802,-4.55207,3.07558,-2.37202,0.671296,-0.47049,-0.0964938,1,0,4.0075,-1.3475,-0.7,0.687714,-0.378688,-1.10386,-0.06622,0.1281,0.4718
11.3898,0,0,5,5,26.3898,26.3898,-4.55594,3.07614,-2.37331,0.117797,-0.512446,0.234355,1,0,1.33,0.385,-1.54,0.131882,-0.420534,-0.775554,-0.06622,0.1281,0.4718
11.3902,0,0,5,5,26.3902,26.3902,-4.55607,3.07765,-2.37429,0.165879,-0.333655,0.184559,1,0,3.4125,0.9275,-1.3125,0.180194,-0.241926,-0.824964,-0.06622,0.1281,0.4718
11.3932,0,0,5,5,26.3932,26.3932,-4.5573,3.07811,-2.37416,0.165871,-0.333676,0.184557,1,0,2.765,0.2625,-0.7175,0.180194,-0.241926,-0.824964,-0.06622,0.1281,0.4718
11.3653,0,0,5,5,26.3653,26.3653,-4.54612,2.81075,-2.12471,-0.259649,-0.019269,0.0412074,0,0,0.8225,-0.49,-0.42,-0.251808,0.07198,-0.96746,-0.06622,0.1281,0.4718
11.3363,0,0,5,5,26.3363,26.3363,-4.5345,2.54661,-1.87581,-0.255044,-0.0190842,0.0414382,0,0,1.19,-1.2425,-0.7,-0.251808,0.07198,-0.96746,-0.06622,0.1281,0.4718
12.2521,0,0,5,5,27.2521,27.2521,-4.90084,2.77352,-2.13793,0.203253,0.328733,0.184334,0,0,3.8675,-0.8225,-1.12,0.212402,0.42578,-0.824964,-0.06622,0.1281,0.4718
13.1463,0,0,5,5,28.1463,28.1463,-5.25851,2.99951,-2.40364,0.199313,0.322541,0.183584,0,0,5.6,0.875,-1.5225,0.212402,0.42578,-0.824964,-0.06622,0.1281,0.4718
13.1359,0,0,5,5,28.1359,28.1359,-5.25435,3.00101,-2.40497,0.360013,-0.339925,0.32375,1,0,5.8275,0.945,-1.505,0.373808,-0.23607,-0.685884,-0.06916,0.1288,0.47866
13.1338,0,0,5,5,28.1338,28.1338,-5.25352,3.00111,-2.4061,0.360011,-0.33991,0.323752,1,0,3.955,0.1225,-1.47,0.373808,-0.23607,-0.685884,-0.06916,0.1288,0.47866
13.14,0,0,5,5,28.14,28.14,-5.256,3.00009,-2.40654,0.0192615,-0.174594,-0.245872,1,0,2.0825,-0.5775,-1.12,0.031598,-0.070882,-1.25111,-0.06916,0.1288,0.47866
13.1519,0,0,5,5,28.1519,28.1519,-5.26076,2.99778,-2.40591,0.0193017,-0.174676,-0.245877,1,0,0.77,-1.3825,-0.5775,0.031598,-0.070882,-1.25111,-0.06916,0.1288,0.47866
13.1598,0,0,5,5,28.1598,28.1598,-5.26393,2.99617,-2.40584,-0.202382,0.120082,0.443122,1,0,1.68,-0.945,-0.8575,-0.191052,0.223626,-0.567422,-0.06916,0.1288,0.47866
13.1545,0,0,5,5,28.1545,28.1545,-5.26182,2.99724,-2.40692,-0.2024,0.120119,0.443125,1,0,4.6725,0.6825,-1.3825,-0.191052,0.223626,-0.567422,-0.06916,0.1288,0.47866
12.2238,0,0,5,5,27.2238,27.2238,-4.88952,3.01941,-2.41669,0.0260924,-0.382196,8.04897e-05,0,0,5.53,1.19,-1.4,0.038796,-0.284626,-1.0076,-0.06916,0.1288,0.47866
11.3106,0,0,5,5,26.3106,26.3106,-4.52424,3.04002,-2.42606,0.0257331,-0.375849,0.000583945,0,0,4.9525,0.455,-1.2075,0.038796,-0.284626,-1.0076,-0.06916,0.1288,0.47866
10.7058,0,0,5,5,25.7058,25.7058,-4.28233,2.9978,-2.37478,-0.0398622,-0.237553,0.0335277,0,0,3.395,-0.4025,-0.805,-0.027816,-0.15067,-0.975268,-0.0721,0.12418,0.47544
10.7174,0,0,5,5,25.7174,25.7174,-4.28694,2.99518,-2.37372,0.821517,0.0547379,-0.518023,1,0,0.84,-1.575,-0.315,0.837164,0.141398,-1.52256,-0.0721,0.12418,0.47544
10.7281,0,0,5,5,25.7281,25.7281,-4.29122,2.99454,-2.3735,0.821528,0.0546635,-0.518028,1,0,1.05,-0.385,-0.7175,0.837164,0.141398,-1.52256,-0.0721,0.12418,0.47544
10.727,0,0,5,5,25.727,25.727,-4.29081,2.99571,-2.3736,0.488516,-0.099209,-0.223198,1,0,3.6925,0.6825,-0.8225,0.502762,-0.012322,-1.23,-0.0721,0.12418,0.47544
10.7189,0,0,5,5,25.7189,25.7189,-4.28755,2.99851,-2.37425,0.488467,-0.0991522,-0.223196,1,0,5.3025,1.6625,-1.0675,0.502762,-0.012322,-1.23,-0.0721,0.12418,0.47544
10.7082,0,0,5,5,25.7082,25.7082,-4.28327,3.00053,-2.37489,0.0886221,-0.320493,-0.095449,1,0,5.88,1.2075,-1.1025,0.10126,-0.233508,-1.10325,-0.0721,0.12418,0.47544
10.7033,0,0,5,5,25.7033,25.7033,-4.2813,2.99901,-2.37395,0.0886485,-0.320459,-0.095445,1,0,4.5325,-0.9275,-0.3325,0.10126,-0.233508,-1.10325,-0.0721,0.12418,0.47544
10.7108,0,0,5,5,25.7108,25.7108,-4.28432,2.99608,-2.37278,0.586791,0.253728,-0.122618,1,0,1.7325,-1.7675,-0.2625,0.60146,0.340136,-1.13021,-0.0721,0.12418,0.47544
10.7195,0,0,5,5,25.7195,25.7195,-4.28782,2.99331,-2.37253,0.586839,0.253667,-0.12262,1,0,1.4875,-1.6275,-0.7875,0.60146,0.340136,-1.13021,-0.06972,0.12796,0.47922
10.724,0,0,5,5,25.724,25.724,-4.28958,2.99272,-2.37246,-0.112058,0.277573,-0.309503,1,0,2.4675,-0.35,-0.805,-0.100406,0.364048,-1.31565,-0.06972,0.12796,0.47922
10.722,0,0,5,5,25.722,25.722,-4.2888,2.99638,-2.3732,-0.112122,0.277587,-0.309506,1,0,3.92,2.17,-1.085,-0.100406,0.364048,-1.31565,-0.06972,0.12796,0.47922
10.7147,0,0,5,5,25.7147,25.7147,-4.28589,2.99959,-2.37403,0.106375,-0.685209,-0.0376657,1,0,5.11,1.9075,-1.155,0.119072,-0.5978,-1.04591,-0.06972,0.12796,0.47922
10.7101,0,0,5,5,25.7101,25.7101,-4.28406,3.00023,-2.37436,0.106364,-0.685177,-0.0376639,1,0,4.4975,0.385,-0.98,0.119072,-0.5978,-1.04591,-0.06972,0.12796,0.47922
10.7143,0,0,5,5,25.7143,25.7143,-4.28571,2.99822,-2.37395,-0.662362,-0.0234015,0.474662,1,0,2.52,-1.19,-0.665,-0.652944,0.063318,-0.537532,-0.06972,0.12796,0.47922
10.722,0,0,5,5,25.722,25.722,-4.2888,2.99503,-2.37297,-0.662307,-0.0234554,0.474661,1,0,1.6975,-1.9075,-0.385,-0.652944,0.063318,-0.537532,-0.06972,0.12796,0.47922
10.7263,0,0,5,5,25.7263,25.7263,-4.29051,2.99249,-2.37252,-0.668094,0.0662778,-0.0492225,1,0,2.485,-1.505,-0.665,-0.6588,0.152988,-1.05737,-0.06972,0.12796,0.47922
10.7058,0,0,5,5,25.7058,25.7058,-4.28231,2.99483,-2.37413,-0.668134,0.0664205,-0.0492139,1,0,8.1025,1.435,-1.645,-0.6588,0.152988,-1.05737,-0.06972,0.12796,0.47922
10.6976,0,0,5,5,25.6976,25.6976,-4.27902,2.99835,-2.37606,0.226182,0.0630582,-0.121998,1,0,5.355,2.135,-1.785,0.239364,0.149572,-1.1296,-0.0693,0.13258,0.47628
10.6964,0,0,5,5,25.6964,25.6964,-4.27856,2.99992,-2.37706,0.226155,0.0630663,-0.121999,1,0,3.745,0.9625,-1.33,0.239364,0.149572,-1.1296,-0.0693,0.13258,0.47628
10.7011,0,0,5,5,25.7011,25.7011,-4.28043,2.99919,-2.37723,0.345345,-0.106234,-0.144623,1,0,2.415,-0.42,-0.945,0.359046,-0.01952,-1.15205,-0.0693,0.13258,0.47628
10.7119,0,0,5,5,25.7119,25.7119,-4.28476,2.99451,-2.37656,0.345426,-0.106309,-0.144625,1,0,1.015,-2.765,-0.63,0.359046,-0.01952,-1.15205,-0.0693,0.13258,0.47628
10.7211,0,0,5,5,25.7211,25.7211,-4.28844,2.99039,-2.37566,0.780174,0.299454,-0.287861,1,0,1.365,-2.45,-0.4725,0.795562,0.385886,-1.29418,-0.0693,0.13258,0.47628
10.7181,0,0,5,5,25.7181,25.7181,-4.28722,2.9912,-2.37649,0.78016,0.299475,-0.28786,1,0,4.165,0.5075,-1.26,0.795562,0.385886,-1.29418,-0.0693,0.13258,0.47628
10.3124,0,0,5,5,25.3124,25.3124,-4.12497,2.84801,-2.2451,-0.142215,-0.159964,-0.00585065,0,0,5.4075,1.8725,-1.645,-0.133224,-0.075884,-1.01467,-0.0693,0.13258,0.47628
9.9154,0,0,5.0846,5.0846,24.9154,24.9154,-3.96616,2.70729,-2.11432,-0.139762,-0.157211,-0.00553661,0,0,5.04,1.8375,-1.47,-0.133224,-0.075884,-1.01467,-0.0693,0.13258,0.47628
9.91199,0,0,5.08801,5.08801,24.912,24.912,-3.9648,2.70849,-2.11481,-0.804795,-0.268444,-0.1575,1,0,4.235,0.7175,-1.05,-0.801052,-0.187026,-1.16547,-0.0686,0.13356,0.47362
10.5599,0,0,5,5,25.5599,25.5599,-4.22398,2.69907,-2.14345,-0.0138807,0.234363,0.105541,0,0,1.995,-2.415,-0.3675,-0.006954,0.319762,-0.904142,-0.0686,0.13356,0.47362
11.1959,0,0,5,5,26.1959,26.1959,-4.47836,2.69073,-2.1714,-0.0137354,0.22994,0.105211,0,0,2.24,-1.82,-0.0175,-0.006954,0.319762,-0.904142,-0.0686,0.13356,0.47362
11.6285,0,0,5,5,26.6285,26.6285,-4.65138,3.09671,-2.60325,0.427835,0.1786,0.0712952,0,0,3.36,-0.4375,-0.7525,0.443592,0.27145,-0.937204,-0.0686,0.13356,0.47362
12.0489,0,0,5,5,27.0489,27.0489,-4.81956,3.501,-3.03946,0.42079,0.175713,0.0706486,0,0,4.7425,2.45,-1.855,0.443592,0.27145,-0.937204,-0.0686,0.13356,0.47362
12.0463,0,0,5,5,27.0463,27.0463,-4.8185,3.50541,-3.04127,-0.219395,-0.149614,-0.347625,1,0,4.1125,2.66,-1.645,-0.199226,-0.053558,-1.35225,-0.0686,0.13356,0.47362
12.0471,0,0,5,5,27.0471,27.0471,-4.81885,3.50528,-3.04109,-0.219392,-0.14962,-0.347626,1,0,3.255,-0.0875,-0.7175,-0.199226,-0.053558,-1.35225,-0.0686,0.13356,0.47362
12.0526,0,0,5,5,27.0526,27.0526,-4.82104,3.50293,-3.03979,-0.168935,-0.383409,0.405187,1,0,2.1875,-1.435,-0.175,-0.148596,-0.287066,-0.605242,-0.0686,0.13356,0.47362
12.0568,0,0,5,5,27.0568,27.0568,-4.82274,3.49942,-3.03766,-0.168874,-0.383438,0.405189,1,0,2.4325,-2.1525,0.245,-0.148596,-0.287066,-0.605242,-0.06832,0.13062,0.4788
12.0566,0,0,5,5,27.0566,27.0566,-4.82262,3.49778,-3.03651,0.988063,0.401472,-0.319222,1,0,3.4825,-1.015,-0.2275,1.01321,0.497028,-1.32407,-0.06832,0.13062,0.4788
12.0507,0,0,5,5,27.0507,27.0507,-4.82028,3.50106,-3.03822,0.988006,0.401513,-0.319222,1,0,4.83,1.995,-1.645,1.01321,0.497028,-1.32407,-0.06832,0.13062,0.4788
12.0466,0,0,5,5,27.0466,27.0466,-4.81863,3.50536,-3.04062,0.276875,0.0467638,-0.427788,1,0,4.4625,2.625,-1.995,0.299144,0.142618,-1.43179,-0.06832,0.13062,0.4788
12.0486,0,0,5,5,27.0486,27.0486,-4.81944,3.50637,-3.04177,0.276858,0.0467498,-0.42779,1,0,3.045,0.6475,-1.435,0.299144,0.142618,-1.43179,-0.06832,0.13062,0.4788
12.0535,0,0,5,5,27.0535,27.0535,-4.8214,3.50463,-3.04182,0.0237117,-0.0960504,0.344202,1,0,2.3625,-1.015,-0.9275,0.044896,0,-0.665754,-0.06832,0.13062,0.4788
12.0542,0,0,5,5,27.0542,27.0542,-4.82169,3.50065,-3.03962,0.023781,-0.0960558,0.344206,1,0,3.22,-2.4325,0.2625,0.044896,0,-0.665754,-0.06832,0.13062,0.4788
12.0529,0,0,5,5,27.0529,27.0529,-4.82117,3.49763,-3.03742,0.190269,0.138803,-0.305695,1,0,3.675,-1.8725,0.315,0.212036,0.234606,-1.31065,-0.06832,0.13062,0.4788
12.0504,0,0,5,5,27.0504,27.0504,-4.82016,3.49999,-3.03905,0.190228,0.13882,-0.305697,1,0,4.0775,1.4525,-1.645,0.212036,0.234606,-1.31065,-0.07574,0.13118,0.47306
12.0504,0,0,5,5,27.0504,27.0504,-4.82014,3.50406,-3.042,0.180074,0.245804,0.201093,1,0,3.57,2.52,-2.3275,0.20191,0.341478,-0.807762,-0.07574,0.13118,0.47306
12.0556,0,0,5,5,27.0556,27.0556,-4.82225,3.50643,-3.04306,0.180032,0.245768,0.201087,1,0,2.31,1.435,-1.3125,0.20191,0.341478,-0.807762,-0.07574,0.13118,0.47306
12.0616,0,0,5,5,27.0616,27.0616,-4.82464,3.50589,-3.04305,-0.0526033,0.15352,-0.427551,1,0,2.1175,-0.315,-0.84,-0.03172,0.249368,-1.43155,-0.07574,0.13118,0.47306
12.0606,0,0,5,5,27.0606,27.0606,-4.82423,3.50156,-3.04113,-0.0525278,0.153527,-0.427546,1,0,3.6225,-2.625,0.0875,-0.03172,0.249368,-1.43155,-0.07574,0.13118,0.47306
11.7444,0,0,5,5,26.7444,26.7444,-4.69777,3.35987,-2.9201,-0.127081,-0.119807,0.0927334,0,0,5.1275,-1.855,-0.1225,-0.109068,-0.025864,-0.91561,-0.07574,0.13118,0.47306
11.4339,0,0,5,5,26.4339,26.4339,-4.57357,3.22567,-2.80164,-0.124743,-0.117661,0.0930424,0,0,5.145,1.155,-0.9625,-0.109068,-0.025864,-0.91561,-0.07574,0.13118,0.47306
10.7606,0,0,5,5,25.7606,25.7606,-4.30425,2.72235,-2.30524,-0.525984,-0.292787,0.0831636,0,0,4.0775,2.3975,-1.645,-0.520818,-0.205448,-0.926224,-0.07574,0.13118,0.47306
10.1089,0,0,5,5,25.1089,25.1089,-4.04355,2.23191,-1.80695,-0.517433,-0.28828,0.0838634,0,0,1.7325,1.155,-1.4875,-0.520818,-0.205448,-0.926224,-0.0686,0.12502,0.47278
10.119,0,0,5,5,25.119,25.119,-4.04761,2.23138,-1.80723,-0.427038,0.0663052,0.268036,1,0,1.19,-0.2975,-0.9975,-0.43005,0.14884,-0.743468,-0.0686,0.12502,0.47278
10.1219,0,0,5,5,25.1219,25.1219,-4.04876,2.22693,-1.80578,-0.42696,0.066285,0.268037,1,0,2.7825,-2.66,-0.1575,-0.43005,0.14884,-0.743468,-0.0686,0.12502,0.47278
10.117,0,0,5,5,25.117,25.117,-4.04679,2.22313,-1.80459,0.141052,0.0851265,-0.164491,1,0,4.5325,-2.275,-0.28,0.1403,0.167628,-1.17266,-0.0686,0.12502,0.47278
10.1121,0,0,5,5,25.1121,25.1121,-4.04483,2.21932,-1.8034,0.141118,0.0851605,-0.164486,1,0,4.5325,-2.275,-0.28,0.1403,0.167628,-1.17266,-0.0686,0.12502,0.47278
10.1023,0,0,5,5,25.1023,25.1023,-4.04094,2.22375,-1.80472,-0.172635,-0.614436,0.297065,1,0,5.67,2.6425,-1.4,-0.174704,-0.53131,-0.714676,-0.0686,0.12502,0.47278
10.0926,0,0,5,5,25.0926,25.0926,-4.03704,2.22818,-1.80604,-0.172713,-0.614368,0.297067,1,0,5.67,2.6425,-1.4,-0.174704,-0.53131,-0.714676,-0.0686,0.12502,0.47278
10.105,0,0,5,5,25.105,25.105,-4.04202,2.22777,-1.80518,-0.327357,-0.0730665,-0.212807,1,0,0.6475,-0.28,-0.3325,-0.33001,0.009516,-1.22061,-0.0686,0.12502,0.47278
10.1175,0,0,5,5,25.1175,25.1175,-4.047,2.22735,-1.80432,-0.327349,-0.0731532,-0.212812,1,0,0.6475,-0.28,-0.3325,-0.33001,0.009516,-1.22061,-0.0756,0.12642,0.47012
10.1151,0,0,5,5,25.1151,25.1151,-4.04606,2.22366,-1.80368,0.243333,0.108954,0.292755,1,0,3.9725,-2.1875,-0.595,0.243024,0.191418,-0.718946,-0.0756,0.12642,0.47012
10.1128,0,0,5,5,25.1128,25.1128,-4.04511,2.21996,-1.80304,0.243398,0.10897,0.292759,1,0,3.9725,-2.1875,-0.595,0.243024,0.191418,-0.718946,-0.0756,0.12642,0.47012
10.0956,0,0,5,5,25.0956,25.0956,-4.03823,2.22428,-1.80465,0.302486,-0.197448,-0.261364,1,0,7.35,2.59,-1.575,0.302438,-0.114802,-1.2688,-0.0756,0.12642,0.47012
10.0784,0,0,5,5,25.0784,25.0784,-4.03135,2.2286,-1.80627,0.302411,-0.197328,-0.261359,1,0,7.35,2.59,-1.575,0.302438,-0.114802,-1.2688,-0.0756,0.12642,0.47012
10.0908,0,0,5,5,25.0908,25.0908,-4.03633,2.22559,-1.80534,0.478131,-0.140015,0.508541,1,0,0.6475,-1.8025,-0.4025,0.47885,-0.057462,-0.504836,-0.0756,0.12642,0.47012
10.1033,0,0,5,5,25.1033,25.1033,-4.04131,2.22257,-1.80442,0.478184,-0.140102,0.508537,1,0,0.6475,-1.8025,-0.4025,0.47885,-0.057462,-0.504836,-0.0756,0.12642,0.47012
10.1055,0,0,5,5,25.1055,25.1055,-4.04221,2.22121,-1.80461,0.659829,0.123554,-0.0747312,1,0,2.9575,-0.7875,-0.98,0.66124,0.205936,-1.0836,-0.0756,0.12642,0.47012
10.0906,0,0,5,5,25.0906,25.0906,-4.03625,2.22262,-1.80586,-0.0767635,-0.5699,-0.0596022,1,0,6.825,0.875,-1.4875,-0.078446,-0.486902,-1.0686,-0.0756,0.12642,0.47012
10.0764,0,0,5,5,25.0764,25.0764,-4.03055,2.22686,-1.80738,-0.0768374,-0.569801,-0.0595981,1,0,6.685,2.5375,-1.5225,-0.078446,-0.486902,-1.0686,-0.07084,0.12712,0.47432
9.42603,0,0,5.57397,5.57397,24.426,24.426,-3.77041,2.181,-1.74374,-0.04761,-0.247014,0.0998366,0,0,3.57,1.3475,-0.9625,-0.049898,-0.16897,-0.91073,-0.07084,0.12712,0.47432
8.80041,0,0,6.19959,6.19959,23.8004,23.8004,-3.52016,2.13105,-1.67954,-0.0467388,-0.242661,0.100147,0,0,0.42,-1.5225,-0.455,-0.049898,-0.16897,-0.91073,-0.07084,0.12712,0.47432
8.81026,0,0,6.18974,6.18974,23.8103,23.8103,-3.5241,2.12747,-1.6784,-0.268631,0.116323,0.659438,1,0,1.225,-2.135,-0.28,-0.272792,0.18971,-0.355752,-0.07084,0.12712,0.47432
8.80251,0,0,6.19749,6.19749,23.8025,23.8025,-3.521,2.12697,-1.67844,-0.268622,0.116377,0.659441,1,0,5.1975,-0.2975,-0.8575,-0.272792,0.18971,-0.355752,-0.07084,0.12712,0.47432
8.7918,0,0,6.2082,6.2082,23.7918,23.7918,-3.51672,2.12915,-1.67943,0.144756,0.0156974,-0.272505,1,0,5.88,1.3125,-1.3125,0.142374,0.08906,-1.28051,-0.07084,0.12712,0.47432
8.78885,0,0,6.21115,6.21115,23.7889,23.7889,-3.51554,2.13254,-1.68083,0.144697,0.0157181,-0.272506,1,0,4.1475,2.03,-1.505,0.142374,0.08906,-1.28051,-0.07084,0.12712,0.47432
8.79134,0,0,6.20866,6.20866,23.7913,23.7913,-3.51654,2.1345,-1.68108,0.783434,0.0608877,-0.588978,1,0,2.905,1.155,-0.8925,0.78385,0.1342,-1.59454,-0.07084,0.12712,0.47432
8.80354,0,0,6.19646,6.19646,23.8035,23.8035,-3.52141,2.1317,-1.67996,0.783483,0.0608027,-0.588981,1,0,0.7,-1.68,-0.2625,0.78385,0.1342,-1.59454,-0.07336,0.12138,0.47236
8.81115,0,0,6.18885,6.18885,23.8112,23.8112,-3.52446,2.12909,-1.67915,0.362702,-0.424704,-0.117475,1,0,1.7325,-1.5575,-0.4375,0.361242,-0.35075,-1.12667,-0.07336,0.12138,0.47236
8.81877,0,0,6.18123,6.18123,23.8188,23.8188,-3.52751,2.12648,-1.67834,0.362748,-0.424757,-0.117477,1,0,1.7325,-1.5575,-0.4375,0.361242,-0.35075,-1.12667,-0.07336,0.12138,0.47236
8.81004,0,0,6.18996,6.18996,23.81,23.81,-3.52402,2.12945,-1.67965,0.212904,-0.140019,-0.459641,1,0,5.4425,1.785,-1.47,0.210816,-0.066368,-1.4662,-0.07336,0.12138,0.47236
8.80132,0,0,6.19868,6.19868,23.8013,23.8013,-3.52053,2.13243,-1.68096,0.212852,-0.139958,-0.459639,1,0,5.4425,1.785,-1.47,0.210816,-0.066368,-1.4662,-0.07336,0.12138,0.47236
8.80742,0,0,6.19258,6.19258,23.8074,23.8074,-3.52297,2.132,-1.68061,-0.124142,-0.0508482,-0.191859,1,0,2.0825,-0.2625,-0.63,-0.127612,0.022692,-1.20048,-0.07336,0.12138,0.47236
8.81352,0,0,6.18648,6.18648,23.8135,23.8135,-3.52541,2.13158,-1.68027,-0.124134,-0.0508907,-0.191862,1,0,2.0825,-0.2625,-0.63,-0.127612,0.022692,-1.20048,-0.07336,0.12138,0.47236
8.37304,0,0,6.62696,6.62696,23.373,23.373,-3.34921,2.23399,-1.7563,0.0984635,-0.180571,0.0103818,0,0,3.15,-0.175,-0.9275,0.097722,-0.109922,-0.999912,-0.07336,0.12138,0.47236
7.93979,0,0,7.06021,7.06021,22.9398,22.9398,-3.17592,2.33329,-1.84035,0.0967318,-0.17755,0.0104849,0,0,3.15,-0.175,-0.9275,0.097722,-0.109922,-0.999912,-0.07462,0.12754,0.46928
7.92493,0,0,7.07507,7.07507,22.9249,22.9249,-3.16997,2.33686,-1.84186,-0.437746,-0.741916,0.0540118,1,0,6.825,2.135,-1.575,-0.438956,-0.673806,-0.956724,-0.07462,0.12754,0.46928
7.91007,0,0,7.08993,7.08993,22.9101,22.9101,-3.16403,2.34043,-1.84336,-0.437808,-0.741812,0.054015,1,0,6.825,2.135,-1.575,-0.438956,-0.673806,-0.956724,-0.07462,0.12754,0.46928
7.91916,0,0,7.08084,7.08084,22.9192,22.9192,-3.16766,2.33647,-1.84252,0.250599,0.0738088,0.541751,1,0,1.4,-2.345,-0.455,0.252296,0.141032,-0.47275,-0.07462,0.12754,0.46928
7.92825,0,0,7.07175,7.07175,22.9283,22.9283,-3.1713,2.33251,-1.84168,0.250668,0.0737453,0.54175,1,0,1.4,-2.345,-0.455,0.252296,0.141032,-0.47275,-0.07462,0.12754,0.46928
8.25109,0,0,6.74891,6.74891,23.2511,23.2511,-3.30044,1.81926,-1.35939,-0.523113,0.12668,0.102529,0,0,2.4675,0.105,-1.19,-0.53375,0.196176,-0.908778,-0.07462,0.12754,0.46928
8.17561,0,0,6.82439,6.82439,23.1756,23.1756,-3.27024,1.71622,-1.25035,-0.10875,-0.0225252,-0.0586936,0,0,6.86,2.24,-1.575,-0.119438,0.046604,-1.06884,-0.07462,0.12754,0.46928
8.10214,0,0,6.89786,6.89786,23.1021,23.1021,-3.24085,1.61504,-1.14169,-0.106984,-0.0220162,-0.0586133,0,0,6.7025,2.275,-1.68,-0.119438,0.046604,-1.06884,-0.07462,0.12754,0.46928
8.10167,0,0,6.89833,6.89833,23.1017,23.1017,-3.24067,1.61597,-1.14221,0.205825,-0.156474,-0.126973,1,0,3.57,0.56,-1.085,0.194712,-0.087718,-1.13667,-0.07098,0.12236,0.4704
8.11566,0,0,6.88434,6.88434,23.1157,23.1157,-3.24626,1.61017,-1.14066,0.205926,-0.156572,-0.126976,1,0,0.2975,-3.4475,-0.105,0.194712,-0.087718,-1.13667,-0.07098,0.12236,0.4704
8.12721,0,0,6.87279,6.87279,23.1272,23.1272,-3.25088,1.6076,-1.14007,0.143527,0.26041,-0.141979,1,0,0.8575,-1.5225,-0.56,0.132004,0.328912,-1.15156,-0.07098,0.12236,0.4704
8.11605,0,0,6.88395,6.88395,23.116,23.116,-3.24642,1.60836,-1.14049,-0.511537,-0.0636364,-0.0973443,1,0,5.9675,0.455,-1.0325,-0.52582,0.005124,-1.10727,-0.07098,0.12236,0.4704
8.10271,0,0,6.89729,6.89729,23.1027,23.1027,-3.24109,1.6147,-1.14215,-0.511647,-0.0635433,-0.0973421,1,0,6.475,3.7625,-1.575,-0.52582,0.005124,-1.10727,-0.07098,0.12236,0.4704
8.10068,0,0,6.89932,6.89932,23.1007,23.1007,-3.24027,1.61896,-1.14361,0.0418888,-0.349061,-0.143203,1,0,3.9375,2.5375,-1.5225,0.030134,-0.280112,-1.15278,-0.07098,0.12236,0.4704
8.10901,0,0,6.89099,6.89099,23.109,23.109,-3.2436,1.61536,-1.14267,0.0419515,-0.349119,-0.143205,1,0,1.575,-2.135,-0.385,0.030134,-0.280112,-1.15278,-0.07098,0.12236,0.4704
8.64757,0,0,6.35243,6.35243,23.6476,23.6476,-3.45903,1.6167,-1.14522,0.012893,0.233581,-0.0384271,0,0,0.9975,-3.4475,-0.105,0.000976,0.305732,-1.04859,-0.07098,0.12236,0.4704
9.16092,0,0,5.83908,5.83908,24.1609,24.1609,-3.66437,1.62109,-1.14551,0.0128165,0.230006,-0.0386518,0,0,4.6375,-1.3475,-0.1575,0.000976,0.305732,-1.04859,-0.0721,0.12082,0.47068
9.14588,0,0,5.85412,5.85412,24.1459,24.1459,-3.65835,1.62207,-1.14525,-0.544212,0.12154,-0.304337,1,0,6.825,0.56,-0.63,-0.558394,0.197274,-1.31223,-0.0721,0.12082,0.47068
9.13993,0,0,5.86007,5.86007,24.1399,24.1399,-3.65597,1.62747,-1.14651,-0.544307,0.121582,-0.304337,1,0,4.8125,3.2025,-1.3475,-0.558394,0.197274,-1.31223,-0.0721,0.12082,0.47068
9.1426,0,0,5.8574,5.8574,24.1426,24.1426,-3.65704,1.63071,-1.1482,-0.503666,-0.383675,0.516587,1,0,2.8875,1.96,-1.68,-0.517524,-0.30744,-0.497638,-0.0721,0.12082,0.47068
9.15474,0,0,5.84526,5.84526,24.1547,24.1547,-3.6619,1.62668,-1.14718,-0.503595,-0.38376,0.516584,1,0,0.7175,-2.3975,-0.3675,-0.517524,-0.30744,-0.497638,-0.0721,0.12082,0.47068
9.16571,0,0,5.83429,5.83429,24.1657,24.1657,-3.66629,1.62131,-1.14609,0.284698,0.242796,-0.154717,1,0,0.98,-3.185,-0.385,0.274012,0.318542,-1.16376,-0.0721,0.12082,0.47068
9.15499,0,0,5.84501,5.84501,24.155,24.155,-3.662,1.61981,-1.14613,0.284724,0.24287,-0.154712,1,0,5.8625,-0.875,-0.8925,0.274012,0.318542,-1.16376,-0.0721,0.12082,0.47068
9.1361,0,0,5.8639,5.8639,24.1361,24.1361,-3.65444,1.62198,-1.14646,-0.158129,-0.054743,-0.131959,1,0,7.7,1.2775,-0.9275,-0.170678,0.021106,-1.14119,-0.0721,0.12082,0.47068
9.1293,0,0,5.8707,5.8707,24.1293,24.1293,-3.65172,1.6266,-1.14671,-0.15821,-0.0546954,-0.131958,1,0,4.9875,2.7125,-0.7875,-0.170678,0.021106,-1.14119,-0.0735,0.12684,0.46284
9.13274,0,0,5.86726,5.86726,24.1327,24.1327,-3.65309,1.62891,-1.14723,-0.921788,-0.464699,0.402127,1,0,2.695,1.365,-1.0325,-0.937448,-0.388448,-0.61122,-0.0735,0.12684,0.46284
9.14962,0,0,5.85038,5.85038,24.1496,24.1496,-3.65985,1.62494,-1.14696,-0.921719,-0.464816,0.402122,1,0,-0.3325,-2.3275,-0.805,-0.937448,-0.388448,-0.61122,-0.0735,0.12684,0.46284
9.16297,0,0,5.83703,5.83703,24.163,24.163,-3.66519,1.62007,-1.14639,0.0383462,0.058892,0.255687,1,0,0.455,-2.87,-0.665,0.026596,0.13481,-0.756522,-0.0735,0.12684,0.46284
9.15081,0,0,5.84919,5.84919,24.1508,24.1508,-3.66032,1.62001,-1.14703,0.0383474,0.0589767,0.255692,1,0,6.195,-0.0175,-1.19,0.026596,0.13481,-0.756522,-0.0735,0.12684,0.46284
9.13432,0,0,5.86568,5.86568,24.1343,24.1343,-3.65373,1.62245,-1.14822,0.367531,-0.228883,-0.231055,1,0,7.175,1.47,-1.4175,0.357216,-0.152866,-1.23952,-0.0735,0.12684,0.46284
9.12305,0,0,5.87695,5.87695,24.123,24.123,-3.64922,1.62582,-1.14929,0.367472,-0.228805,-0.231052,1,0,6.0025,2.0125,-1.3125,0.357216,-0.152866,-1.23952,-0.0735,0.12684,0.46284
8.84365,0,0,6.15635,6.15635,23.8437,23.8437,-3.53746,1.91894,-1.41453,0.305989,-0.121942,-0.0116243,0,0,3.4125,0.5075,-0.525,0.300608,-0.048068,-1.02175,-0.0735,0.12684,0.46284
8.56876,0,0,6.43124,6.43124,23.5688,23.5688,-3.4275,2.2079,-1.67194,0.300949,-0.120017,-0.0116891,0,0,3.4125,0.5075,-0.525,0.300608,-0.048068,-1.02175,-0.07448,0.12222,0.4683
8.43874,0,0,6.56126,6.56126,23.4387,23.4387,-3.3755,1.9404,-1.40548,-0.249332,-0.0595234,0.0741056,0,0,0.8925,-1.785,-0.9275,-0.256688,0.011468,-0.936838,-0.07448,0.12222,0.4683
8.31098,0,0,6.68902,6.68902,23.311,23.311,-3.32439,1.67744,-1.13974,-0.244744,-0.0586419,0.0743023,0,0,0.8925,-1.785,-0.9275,-0.256688,0.011468,-0.936838,-0.07448,0.12222,0.4683
7.04504,0,0,7.95496,7.95496,22.045,22.045,-2.81802,1.54103,-0.961532,-0.137279,-0.475191,0.206889,0,0,5.8625,1.82,-1.3825,-0.151158,-0.413458,-0.80581,-0.07448,0.12222,0.4683
5.79732,0,0,9.20268,9.20268,20.7973,20.7973,-2.31893,1.40639,-0.786179,-0.13493,-0.466495,0.20734,0,0,5.8625,1.82,-1.3825,-0.151158,-0.413458,-0.80581,-0.07448,0.12222,0.4683
6.13441,0,0,8.86559,8.86559,21.1344,21.1344,-2.45377,1.81473,-1.16396,0.432816,0.145705,0.0384792,0,0,3.4475,-1.6975,-0.6125,0.426146,0.200446,-0.973072,-0.07448,0.12222,0.4683
6.46674,0,0,8.53326,8.53326,21.4667,21.4667,-2.5867,2.21654,-1.54314,0.425807,0.143399,0.0381308,0,0,3.4475,-1.6975,-0.6125,0.426146,0.200446,-0.973072,-0.07448,0.12222,0.4683
6.46951,0,0,8.53049,8.53049,21.4695,21.4695,-2.58781,2.21668,-1.54394,0.363847,0.14106,-0.0492865,1,0,2.8525,0.105,-1.2775,0.363926,0.198128,-1.05981,-0.07448,0.12222,0.4683
6.47229,0,0,8.52771,8.52771,21.4723,21.4723,-2.58892,2.21683,-1.54474,0.363845,0.14104,-0.0492875,1,0,2.8525,0.105,-1.2775,0.363926,0.198128,-1.05981,-0.07308,0.12278,0.47502
6.46598,0,0,8.53402,8.53402,21.466,21.466,-2.58639,2.21921,-1.54432,-0.273389,0.194209,-0.500754,1,0,4.865,1.3825,-0.5075,-0.275964,0.251198,-1.5078,-0.07308,0.12278,0.47502
6.46475,0,0,8.53525,8.53525,21.4647,21.4647,-2.5859,2.21872,-1.54323,-0.388914,-0.0350139,-0.0721548,1,0,3.71,-0.315,-0.1925,-0.391986,0.022204,-1.08251,-0.07308,0.12278,0.47502
6.4713,0,0,8.5287,8.5287,21.4713,21.4713,-2.58852,2.21471,-1.5427,-0.388844,-0.0350596,-0.0721542,1,0,1.9775,-2.3625,-0.6125,-0.391986,0.022204,-1.08251,-0.07308,0.12278,0.47502
6.48074,0,0,8.51926,8.51926,21.4807,21.4807,-2.5923,2.21139,-1.54226,-0.0600455,-0.220758,0.147923,1,0,1.33,-1.96,-0.6475,-0.061854,-0.163236,-0.864126,-0.07308,0.12278,0.47502
6.4666,0,0,8.5334,8.5334,21.4666,21.4666,-2.58664,2.21284,-1.54324,-0.0600708,-0.22066,0.147926,1,0,6.65,0.875,-1.3475,-0.061854,-0.163236,-0.864126,-0.07308,0.12278,0.47502
6.43123,0,0,8.56877,8.56877,21.4312,21.4312,-2.57249,2.37018,-1.68297,0.153308,-0.0091289,-0.00868564,0,0,6.4925,2.4675,-1.4175,0.155184,0.047824,-1.01943,-0.07308,0.12278,0.47502
6.4055,0,0,8.5945,8.5945,21.4055,21.4055,-2.5622,2.52206,-1.82093,0.15066,-0.00894457,-0.00879062,0,0,4.4275,0.84,-0.56,0.155184,0.047824,-1.01943,-0.07308,0.12278,0.47502
6.40586,0,0,8.59414,8.59414,21.4059,21.4059,-2.56234,2.51988,-1.81952,-0.188004,-0.0680565,0.30891,1,0,3.3425,-1.3125,-0.0525,-0.184952,-0.011224,-0.704184,-0.06958,0.12376,0.46816
6.00693,0,0,8.99307,8.99307,21.0069,21.0069,-2.40277,3.00582,-2.27343,0.449585,-0.173097,0.193542,0,0,0.035,-2.6775,-0.175,0.463844,-0.11895,-0.818376,-0.06958,0.12376,0.46816
5.59556,0,0,9.40444,9.40444,20.5956,20.5956,-2.23822,3.48863,-2.72582,0.441172,-0.170213,0.193181,0,0,4.165,-0.07,-1.05,0.463844,-0.11895,-0.818376,-0.06958,0.12376,0.46816
5.58518,0,0,9.41482,9.41482,20.5852,20.5852,-2.23407,3.49176,-2.72758,0.389851,0.43402,-0.25595,1,0,5.845,1.8725,-1.7675,0.41236,0.484584,-1.26404,-0.06958,0.12376,0.46816
5.5797,0,0,9.4203,9.4203,20.5797,20.5797,-2.23188,3.49626,-2.72867,0.389772,0.434058,-0.255953,1,0,4.725,2.66,-1.3475,0.41236,0.484584,-1.26404,-0.06958,0.12376,0.46816
5.22568,0,0,9.77432,9.77432,20.2257,20.2257,-2.09027,3.57155,-2.80155,0.0710188,-0.140766,0.0326188,0,0,4.655,0.525,-0.7175,0.093574,-0.09211,-0.977708,-0.06958,0.12376,0.46816
4.88827,0,0,10.1117,10.1117,19.8883,19.8883,-1.95531,3.63913,-2.87313,0.0698415,-0.138414,0.0326277,0,0,2.205,-3.2375,-0.28,0.093574,-0.09211,-0.977708,-0.06958,0.12376,0.46816
4.89806,0,0,10.1019,10.1019,19.8981,19.8981,-1.95923,3.63404,-2.87258,0.515297,0.0807347,0.0519339,1,0,1.2425,-2.9925,-0.595,0.540826,0.12688,-0.958554,-0.06958,0.12376,0.46816
4.89146,0,0,10.1085,10.1085,19.8915,19.8915,-1.95658,3.6346,-2.87294,0.515287,0.0807807,0.0519349,1,0,4.9525,0.3325,-1.015,0.540826,0.12688,-0.958554,-0.07112,0.12334,0.46872
4.88493,0,0,10.1151,10.1151,19.8849,19.8849,-1.95397,3.63918,-2.87383,-0.0380385,-0.275417,0.143282,1,0,4.9525,2.695,-1.2425,-0.014762,-0.228994,-0.867908,-0.07112,0.12334,0.46872
4.8877,0,0,10.1123,10.1123,19.8877,19.8877,-1.95508,3.64299,-2.87524,-0.0381049,-0.275437,0.143277,1,0,2.8875,2.2575,-1.5575,-0.014762,-0.228994,-0.867908,-0.07112,0.12334,0.46872
4.89334,0,0,10.1067,10.1067,19.8933,19.8933,-1.95734,3.64271,-2.87557,0.148988,0.216329,0.46036,1,0,2.205,-0.1575,-1.015,0.173118,0.2623,-0.55327,-0.07112,0.12334,0.46872
4.90005,0,0,10.1,10.1,19.9,19.9,-1.96002,3.6367,-2.87478,0.149093,0.216282,0.460365,1,0,1.925,-3.535,-0.4725,0.173118,0.2623,-0.55327,-0.07112,0.12334,0.46872
4.90195,0,0,10.0981,10.0981,19.9019,19.9019,-1.96078,3.63197,-2.87418,-0.389614,0.155205,-0.37445,1,0,3.01,-2.7825,-0.56,-0.367952,0.2013,-1.38165,-0.07112,0.12334,0.46872
4.88938,0,0,10.1106,10.1106,19.8894,19.8894,-1.95575,3.63394,-2.87531,-0.389648,0.155292,-0.374449,1,0,6.3175,1.1725,-1.435,-0.367952,0.2013,-1.38165,-0.07112,0.12334,0.46872
3.99392,0,0,11.0061,11.0061,18.9939,18.9939,-1.59757,3.54345,-2.76873,-0.0895818,-0.363131,0.0566545,0,0,5.845,2.8525,-1.3125,-0.068198,-0.322812,-0.954162,-0.07112,0.12334,0.46872
3.12925,0,0,11.8707,11.8707,18.1293,18.1293,-1.2517,3.45329,-2.6618,-0.0880111,-0.35711,0.0569003,0,0,2.135,1.7675,-0.7875,-0.068198,-0.322812,-0.954162,-0.06958,0.12236,0.47012
3.13989,0,0,11.8601,11.8601,18.1399,18.1399,-1.25596,3.45244,-2.66116,0.495742,0.145123,-0.149777,1,0,1.05,-0.5075,-0.455,0.518012,0.178974,-1.15924,-0.06958,0.12236,0.47012
3.15053,0,0,11.8495,11.8495,18.1505,18.1505,-1.26021,3.45159,-2.66052,0.495757,0.145049,-0.149778,1,0,1.05,-0.5075,-0.455,0.518012,0.178974,-1.15924,-0.06958,0.12236,0.47012
3.15358,0,0,11.8464,11.8464,18.1536,18.1536,-1.26143,3.45142,-2.66128,-0.0356183,0.222945,-0.437846,1,0,2.8,-0.0875,-1.26,-0.015616,0.25681,-1.44509,-0.06958,0.12236,0.47012
3.15663,0,0,11.8434,11.8434,18.1566,18.1566,-1.26265,3.45126,-2.66204,-0.0356155,0.222923,-0.437847,1,0,2.8,-0.0875,-1.26,-0.015616,0.25681,-1.44509,-0.06958,0.12236,0.47012
3.14248,0,0,11.8575,11.8575,18.1425,18.1425,-1.25699,3.4549,-2.66262,-0.575561,0.103704,-0.466741,1,0,6.65,2.135,-1.1025,-0.557784,0.137616,-1.47376,-0.06958,0.12236,0.47012
3.1427,0,0,11.8573,11.8573,18.1427,18.1427,-1.25708,3.45624,-2.66269,-0.175168,-0.195874,0.179598,1,0,3.4125,0.7875,-0.84,-0.155672,-0.16165,-0.832406,-0.06958,0.12236,0.47012
3.15073,0,0,11.8493,11.8493,18.1507,18.1507,-1.26029,3.45249,-2.66238,-0.175102,-0.19593,0.1796,1,0,1.645,-2.205,-0.6825,-0.155672,-0.16165,-0.832406,-0.06958,0.12236,0.47012
3.80503,0,0,11.195,11.195,18.805,18.805,-1.52201,3.34126,-2.59865,-0.114851,0.289725,-0.0484647,0,0,0.84,-2.205,-0.63,-0.097112,0.328058,-1.05872,-0.07238,0.12474,0.4711
3.79963,0,0,11.2004,11.2004,18.7996,18.7996,-1.51985,3.34194,-2.59872,-0.0388133,0.479426,-0.610462,1,0,4.6725,0.4025,-0.84,-0.02074,0.517524,-1.61638,-0.07238,0.12474,0.4711
3.7911,0,0,11.2089,11.2089,18.7911,18.7911,-1.51644,3.34519,-2.59933,-0.0388698,0.479485,-0.610464,1,0,5.39,1.9075,-1.12,-0.02074,0.517524,-1.61638,-0.07238,0.12474,0.4711
3.78674,0,0,11.2133,11.2133,18.7867,18.7867,-1.5147,3.34718,-2.59963,-0.422556,-0.325177,-0.0419511,1,0,4.445,1.1725,-0.9625,-0.406016,-0.286334,-1.05225,-0.07238,0.12474,0.4711
3.78937,0,0,11.2106,11.2106,18.7894,18.7894,-1.51575,3.34509,-2.59968,-0.42252,-0.325196,-0.0419495,1,0,2.87,-1.225,-0.875,-0.406016,-0.286334,-1.05225,-0.07238,0.12474,0.4711
3.79515,0,0,11.2048,11.2048,18.7952,18.7952,-1.51806,3.3427,-2.59993,0.233666,-0.277851,0.262104,1,0,2.17,-1.4,-0.9975,0.252906,-0.238998,-0.750544,-0.07238,0.12474,0.4711
3.78942,0,0,11.2106,11.2106,18.7894,18.7894,-1.51577,3.34336,-2.60098,0.233654,-0.277811,0.262104,1,0,4.7775,0.4025,-1.4175,0.252906,-0.238998,-0.750544,-0.07238,0.12474,0.4711
3.78292,0,0,11.2171,11.2171,18.7829,18.7829,-1.51317,3.34588,-2.60208,0.260337,-0.249554,-0.15998,1,0,4.9525,1.4875,-1.4175,0.279746,-0.210816,-1.16937,-0.07238,0.12474,0.4711
3.78181,0,0,11.2182,11.2182,18.7818,18.7818,-1.51272,3.34722,-2.60219,0.260314,-0.249547,-0.159981,1,0,3.71,0.7875,-0.8575,0.279746,-0.210816,-1.16937,-0.06818,0.1225,0.47376
3.78567,0,0,11.2143,11.2143,18.7857,18.7857,-1.51427,3.34664,-2.60159,-0.0492214,-0.280105,0.366362,1,0,2.5725,-0.35,-0.4725,-0.03111,-0.241316,-0.647088,-0.06818,0.1225,0.47376
3.79776,0,0,11.2022,11.2022,18.7978,18.7978,-1.5191,3.34426,-2.60127,-0.0491799,-0.280189,0.366362,1,0,0.735,-1.4,-0.665,-0.03111,-0.241316,-0.647088,-0.06818,0.1225,0.47376
4.03593,0,0,10.9641,10.9641,19.0359,19.0359,-1.61437,3.22725,-2.5123,-0.108005,0.0826963,0.101356,0,0,1.6275,-1.0675,-1.05,-0.092232,0.122854,-0.91012,-0.06818,0.1225,0.47376
4.25264,0,0,10.7474,10.7474,19.2526,19.2526,-1.70106,3.1157,-2.42368,-0.106061,0.0811832,0.10142,0,0,5.565,0.9625,-1.3825,-0.092232,0.122854,-0.91012,-0.06818,0.1225,0.47376
4.24422,0,0,10.7558,10.7558,19.2442,19.2442,-1.69769,3.11874,-2.42507,-0.445545,0.168929,-0.104274,1,0,5.39,1.8025,-1.575,-0.4331,0.21045,-1.11423,-0.06818,0.1225,0.47376
4.24038,0,0,10.7596,10.7596,19.2404,19.2404,-1.69615,3.11915,-2.42522,-0.445553,0.168956,-0.104273,1,0,4.3225,0.245,-0.8925,-0.4331,0.21045,-1.11423,-0.06818,0.1225,0.47376
4.24232,0,0,10.7577,10.7577,19.2423,19.2423,-1.69693,3.11694,-2.42424,0.0690992,0.00614721,-0.176196,1,0,2.9925,-1.3125,-0.28,0.083692,0.047824,-1.1856,-0.06818,0.1225,0.47376
4.25538,0,0,10.7446,10.7446,19.2554,19.2554,-1.70215,3.11346,-2.42297,0.06916,0.00605609,-0.176196,1,0,0.49,-2.065,-0.14,0.083692,0.047824,-1.1856,-0.06958,0.12166,0.47474
4.26328,0,0,10.7367,10.7367,19.2633,19.2633,-1.70531,3.1115,-2.42272,0.587574,-0.0560393,-0.332217,1,0,1.68,-1.155,-0.7,0.604266,-0.014152,-1.34041,-0.06958,0.12166,0.47474
4.25856,0,0,10.7414,10.7414,19.2586,19.2586,-1.70343,3.11466,-2.42388,0.587518,-0.0560064,-0.332219,1,0,4.55,1.8725,-1.435,0.604266,-0.014152,-1.34041,-0.06958,0.12166,0.47474
4.25554,0,0,10.7445,10.7445,19.2555,19.2555,-1.70222,3.11891,-2.42483,-0.327343,-0.278134,-0.45222,1,0,4.165,2.5025,-1.295,-0.314394,-0.23607,-1.45949,-0.06958,0.12166,0.47474
4.25437,0,0,10.7456,10.7456,19.2544,19.2544,-1.70175,3.11835,-2.42452,-0.327333,-0.278126,-0.45222,1,0,3.71,-0.3325,-0.6475,-0.314394,-0.23607,-1.45949,-0.06958,0.12166,0.47474
4.2554,0,0,10.7446,10.7446,19.2554,19.2554,-1.70216,3.11429,-2.42366,0.135963,-0.0701511,0.736573,1,0,3.2025,-2.3975,-0.385,0.150792,-0.028304,-0.279868,-0.06958,0.12166,0.47474
4.25885,0,0,10.7411,10.7411,19.2589,19.2589,-1.70354,3.1101,-2.42292,0.136036,-0.0701753,0.736576,1,0,2.66,-2.4675,-0.455,0.150792,-0.028304,-0.279868,-0.06958,0.12166,0.47474
4.25457,0,0,10.7454,10.7454,19.2546,19.2546,-1.70183,3.10845,-2.42324,-0.182471,-0.113623,0.258924,1,0,4.4275,-0.9625,-1.0325,-0.169092,-0.071736,-0.753838,-0.06958,0.12166,0.47474
4.25029,0,0,10.7497,10.7497,19.2503,19.2503,-1.70012,3.1068,-2.42357,-0.182442,-0.113593,0.258926,1,0,4.4275,-0.9625,-1.0325,-0.169092,-0.071736,-0.753838,-0.06958,0.12166,0.47474
4.17566,0,0,10.8243,10.8243,19.1757,19.1757,-1.67026,2.98488,-2.3141,-0.12407,-0.0303963,-0.0208991,0,0,3.5525,3.01,-1.085,-0.112606,0.010858,-1.03163,-0.07448,0.12614,0.47222
4.18485,0,0,10.8151,10.8151,19.1849,19.1849,-1.67394,2.98367,-2.31363,0.17675,-0.306223,-0.158971,1,0,1.3825,-0.7175,-0.56,0.189466,-0.264618,-1.16864,-0.07448,0.12614,0.47222
4.19613,0,0,10.8039,10.8039,19.1961,19.1961,-1.67845,2.97822,-2.31303,0.176845,-0.306301,-0.158968,1,0,0.91,-3.2025,-0.56,0.189466,-0.264618,-1.16864,-0.07448,0.12614,0.47222
4.19857,0,0,10.8014,10.8014,19.1986,19.1986,-1.67943,2.97393,-2.3128,-0.187294,0.16961,-0.353838,1,0,2.905,-2.52,-0.7525,-0.17629,0.210816,-1.36201,-0.07448,0.12614,0.47222
4.18347,0,0,10.8165,10.8165,19.1835,19.1835,-1.67339,2.97682,-2.31395,-0.187345,0.169715,-0.353838,1,0,6.8775,1.715,-1.435,-0.17629,0.210816,-1.36201,-0.07448,0.12614,0.47222
4.36871,0,0,10.6313,10.6313,19.3687,19.3687,-1.74749,2.75822,-2.12068,-0.214149,0.0781664,0.0477412,0,0,6.405,3.43,-1.5575,-0.207034,0.120658,-0.963678,-0.07448,0.12614,0.47222
4.55098,0,0,10.449,10.449,19.551,19.551,-1.82039,2.54336,-1.92698,-0.210402,0.0768905,0.047875,0,0,6.405,3.43,-1.5575,-0.207034,0.120658,-0.963678,-0.07448,0.12614,0.47222
4.56048,0,0,10.4395,10.4395,19.5605,19.5605,-1.82419,2.542,-1.92641,0.717286,0.27125,0.064349,1,0,1.3125,-0.805,-0.5075,0.724558,0.314882,-0.94733,-0.07448,0.12614,0.47222
4.56998,0,0,10.43,10.43,19.57,19.57,-1.82799,2.54065,-1.92584,0.717309,0.271184,0.064348,1,0,1.3125,-0.805,-0.5075,0.724558,0.314882,-0.94733,-0.07616,0.11508,0.47124
4.57704,0,0,10.423,10.423,19.577,19.577,-1.83082,2.53704,-1.92571,-0.189154,-0.317394,0.163937,1,0,1.8725,-2.1175,-0.805,-0.185806,-0.273036,-0.84851,-0.07616,0.11508,0.47124
4.58409,0,0,10.4159,10.4159,19.5841,19.5841,-1.83364,2.53343,-1.92557,-0.189091,-0.317444,0.163939,1,0,1.8725,-2.1175,-0.805,-0.185806,-0.273036,-0.84851,-0.07616,0.11508,0.47124
3.51784,0,0,11.4822,11.4822,18.5178,18.5178,-1.40713,2.31029,-1.66593,-0.228084,-0.434217,0.116364,0,0,6.65,2.3625,-1.3825,-0.228872,-0.39711,-0.89609,-0.07616,0.11508,0.47124
2.46746,0,0,12.5325,12.5325,17.4675,17.4675,-0.986984,2.09045,-1.41017,-0.22425,-0.426894,0.116664,0,0,6.65,2.3625,-1.3825,-0.228872,-0.39711,-0.89609,-0.07616,0.11508,0.47124
2.47111,0,0,12.5289,12.5289,17.4711,17.4711,-0.988445,2.08682,-1.40949,0.446171,0.484512,-0.12751,1,0,2.625,-2.135,-0.455,0.444324,0.513376,-1.13838,-0.07616,0.11508,0.47124
2.48171,0,0,12.5183,12.5183,17.4817,17.4817,-0.992683,2.08226,-1.40879,-0.325912,-0.0568273,-0.147426,1,0,1.0675,-2.6775,-0.455,-0.331108,-0.027328,-1.15815,-0.07616,0.11508,0.47124
2.486,0,0,12.514,12.514,17.486,17.486,-0.994398,2.0816,-1.4091,-0.325901,-0.0568572,-0.147426,1,0,2.5025,-0.385,-0.9975,-0.331108,-0.027328,-1.15815,-0.07616,0.11508,0.47124
2.47797,0,0,12.522,12.522,17.478,17.478,-0.991189,2.08369,-1.40959,0.357541,0.0504261,-0.177549,1,0,5.2675,1.225,-1.085,0.355264,0.079788,-1.18804,-0.07518,0.12236,0.47586
2.47317,0,0,12.5268,12.5268,17.4732,17.4732,-0.98927,2.08662,-1.40954,0.199559,0.0459409,-0.147182,1,0,4.5325,1.715,-0.7525,0.196664,0.075274,-1.1579,-0.07518,0.12236,0.47586
2.48165,0,0,12.5184,12.5184,17.4816,17.4816,-0.992659,2.08468,-1.40952,0.199593,0.0458817,-0.147182,1,0,1.5575,-1.1375,-0.8225,0.196664,0.075274,-1.1579,-0.07518,0.12236,0.47586
2.49557,0,0,12.5044,12.5044,17.4956,17.4956,-0.998229,2.08173,-1.40939,-0.693519,-0.27663,1.02403,1,0,0.3325,-1.7325,-0.77,-0.70028,-0.246806,0.00427,-0.07518,0.12236,0.47586
2.49054,0,0,12.5095,12.5095,17.4905,17.4905,-0.996215,2.07979,-1.40931,-0.693485,-0.276595,1.02403,1,0,4.585,-1.1375,-0.7875,-0.70028,-0.246806,0.00427,-0.07518,0.12236,0.47586
2.66553,0,0,12.3345,12.3345,17.6655,17.6655,-1.06621,1.75477,-1.10424,-0.303313,0.0719518,0.0777381,0,0,5.5475,0.3325,-1.365,-0.31415,0.102602,-0.934886,-0.07518,0.12236,0.47586
2.83667,0,0,12.1633,12.1633,17.8367,17.8367,-1.13467,1.43873,-0.799136,-0.297799,0.0707548,0.0778688,0,0,5.845,2.38,-1.5925,-0.31415,0.102602,-0.934886,-0.07518,0.12236,0.47586
2.88344,0,0,12.1166,12.1166,17.8834,17.8834,-1.15338,1.12357,-0.48572,-0.285011,0.016446,0.118435,0,0,4.3575,1.505,-1.1025,-0.30683,0.048678,-0.894748,-0.07112,0.12208,0.47782
2.89408,0,0,12.1059,12.1059,17.8941,17.8941,-1.15763,1.12179,-0.485307,0.331074,0.00867774,0.364454,1,0,1.0675,-1.05,-0.595,0.311832,0.040992,-0.650626,-0.07112,0.12208,0.47782
2.90328,0,0,12.0967,12.0967,17.9033,17.9033,-1.16131,1.11873,-0.484327,0.331127,0.00861347,0.364454,1,0,1.3825,-1.8025,-0.28,0.311832,0.040992,-0.650626,-0.07112,0.12208,0.47782
2.90137,0,0,12.0986,12.0986,17.9014,17.9014,-1.16055,1.11797,-0.484085,0.189731,0.492981,-0.702615,1,0,3.885,-0.455,-0.6825,0.169824,0.524844,-1.70946,-0.07112,0.12208,0.47782
2.89135,0,0,12.1087,12.1087,17.8913,17.8913,-1.15654,1.1214,-0.485667,0.189671,0.493051,-0.702615,1,0,5.7225,2.03,-1.6975,0.169824,0.524844,-1.70946,-0.07112,0.12208,0.47782
2.88161,0,0,12.1184,12.1184,17.8816,17.8816,-1.15265,1.12509,-0.486774,0.0887739,-0.321466,-0.170002,1,0,5.6525,2.17,-1.4175,0.068564,-0.288896,-1.18096,-0.07112,0.12208,0.47782
2.88188,0,0,12.1181,12.1181,17.8819,17.8819,-1.15275,1.1242,-0.486559,0.0887894,-0.321468,-0.170002,1,0,3.395,-0.525,-0.7,0.068564,-0.288896,-1.18096,-0.07112,0.12208,0.47782
3.03846,0,0,11.9615,11.9615,18.0385,18.0385,-1.21538,1.43255,-0.755873,0.299289,0.0585996,0.0643183,0,0,1.5225,-1.6275,-0.4725,0.285358,0.091866,-0.948306,-0.07112,0.12208,0.47782
3.18886,0,0,11.8111,11.8111,18.1889,18.1889,-1.27555,1.73616,-1.02755,0.293992,0.0575534,0.064149,0,0,2.3975,-1.6975,-0.2625,0.285358,0.091866,-0.948306,-0.07196,0.12404,0.47754
2.90967,0,0,12.0903,12.0903,17.9097,17.9097,-1.16387,2.01136,-1.26617,0.244242,-0.109519,0.114073,0,0,4.41,-0.595,-0.77,0.240218,-0.076982,-0.898652,-0.07196,0.12404,0.47754
2.63306,0,0,12.3669,12.3669,17.6331,17.6331,-1.05322,2.28721,-1.50432,0.239431,-0.107586,0.11393,0,0,4.865,2.5725,-1.1725,0.240218,-0.076982,-0.898652,-0.07196,0.12404,0.47754
2.62938,0,0,12.3706,12.3706,17.6294,17.6294,-1.05175,2.29149,-1.50528,0.50383,0.0275117,-0.33631,1,0,4.305,2.52,-1.33,0.505812,0.05795,-1.34542,-0.07196,0.12404,0.47754
2.63413,0,0,12.3659,12.3659,17.6341,17.6341,-1.05365,2.29015,-1.50545,0.503854,0.0274786,-0.336309,1,0,2.3975,-0.7875,-0.9275,0.505812,0.05795,-1.34542,-0.07196,0.12404,0.47754
2.64359,0,0,12.3564,12.3564,17.6436,17.6436,-1.05744,2.28639,-1.50521,-0.0516347,-0.0165531,-0.207827,1,0,1.33,-2.205,-0.7175,-0.052094,0.01403,-1.21793,-0.07196,0.12404,0.47754
2.64045,0,0,12.3596,12.3596,17.6404,17.6404,-1.05618,2.28395,-1.50452,-0.0515922,-0.0165312,-0.207825,1,0,4.1475,-1.435,-0.4375,-0.052094,0.01403,-1.21793,-0.07196,0.12404,0.47754
2.62918,0,0,12.3708,12.3708,17.6292,17.6292,-1.05167,2.28405,-1.50456,0.362429,0.155258,-0.429376,1,0,5.985,0.0525,-0.84,0.363682,0.185562,-1.43777,-0.07196,0.12404,0.47754
2.62195,0,0,12.378,12.378,17.622,17.622,-1.04878,2.28903,-1.50515,0.362343,0.155308,-0.429379,1,0,5.0925,2.9225,-1.1025,0.363682,0.185562,-1.43777,-0.06916,0.1246,0.47754
2.62161,0,0,12.3784,12.3784,17.6216,17.6216,-1.04864,2.29342,-1.50518,0.278319,-0.22145,-0.362744,1,0,3.535,2.5725,-0.7875,0.27938,-0.190808,-1.37165,-0.06916,0.1246,0.47754
2.62127,0,0,12.3787,12.3787,17.6213,17.6213,-1.04851,2.29782,-1.50521,0.278243,-0.221448,-0.362747,1,0,3.535,2.5725,-0.7875,0.27938,-0.190808,-1.37165,-0.06916,0.1246,0.47754
2.97029,0,0,12.0297,12.0297,17.9703,17.9703,-1.18812,1.92259,-1.16453,-0.332967,0.121365,0.151986,0,0,-0.6125,-2.7125,-0.525,-0.34099,0.154086,-0.861076,-0.06916,0.1246,0.47754
3.31418,0,0,11.6858,11.6858,18.3142,18.3142,-1.32567,1.55346,-0.822402,-0.326528,0.118962,0.152129,0,0,-0.6125,-2.7125,-0.525,-0.34099,0.154086,-0.861076,-0.06916,0.1246,0.47754
3.30127,0,0,11.6987,11.6987,18.3013,18.3013,-1.32051,1.56025,-0.823472,-0.156931,-0.257587,-0.117621,1,0,6.37,3.99,-1.3475,-0.170556,-0.222162,-1.12874,-0.06916,0.1246,0.47754
3.28836,0,0,11.7116,11.7116,18.2884,18.2884,-1.31534,1.56704,-0.824541,-0.157049,-0.257497,-0.117622,1,0,6.37,3.99,-1.3475,-0.170556,-0.222162,-1.12874,-0.06916,0.1246,0.47754
3.27845,0,0,11.7215,11.7215,18.2785,18.2785,-1.31138,1.56885,-0.825106,0.00522388,-0.316781,-0.104712,1,0,5.6875,1.0675,-1.12,-0.007564,-0.281454,-1.11593,-0.06916,0.1246,0.47754
3.29236,0,0,11.7076,11.7076,18.2924,18.2924,-1.31694,1.5668,-0.824651,0.00647448,0.263956,-0.130287,1,0,0.3325,-1.2075,-0.5775,-0.006344,0.298778,-1.14131,-0.06916,0.1246,0.47754
3.31598,0,0,11.684,11.684,18.316,18.316,-1.32639,1.5619,-0.823681,0.00656006,0.263791,-0.130288,1,0,-1.855,-2.8875,-0.315,-0.006344,0.298778,-1.14131,-0.07266,0.12432,0.47138
3.32239,0,0,11.6776,11.6776,18.3224,18.3224,-1.32895,1.55886,-0.823053,0.0691781,0.553065,0.0498318,1,0,2.0125,-1.785,-0.49,0.056486,0.587796,-0.96258,-0.07266,0.12432,0.47138
3.29829,0,0,11.7017,11.7017,18.2983,18.2983,-1.31931,1.56169,-0.823701,0.0691288,0.553233,0.0498343,1,0,8.8725,1.6625,-1.155,0.056486,0.587796,-0.96258,-0.07266,0.12432,0.47138
2.32642,0,0,12.6736,12.6736,17.3264,17.3264,-0.930567,1.60575,-0.825869,0.0276623,-0.386345,0.110314,0,0,6.72,3.01,-1.33,0.015616,-0.357582,-0.902678,-0.07266,0.12432,0.47138
1.37716,0,0,13.6228,13.6228,16.3772,16.3772,-0.550863,1.64525,-0.827319,0.0269733,-0.379721,0.11038,0,0,4.9525,0.8925,-1.12,0.015616,-0.357582,-0.902678,-0.07266,0.12432,0.47138
1.38109,0,0,13.6189,13.6189,16.3811,16.3811,-0.552435,1.64373,-0.827077,0.443088,0.194369,-0.408831,1,0,2.5725,-0.8925,-0.6825,0.433466,0.21594,-1.41788,-0.07266,0.12432,0.47138
1.39347,0,0,13.6065,13.6065,16.3935,16.3935,-0.557387,1.63971,-0.82603,0.443158,0.194283,-0.40883,1,0,0.665,-2.3625,-0.2275,0.433466,0.21594,-1.41788,-0.07266,0.12432,0.47138
1.39603,0,0,13.604,13.604,16.396,16.396,-0.558413,1.63691,-0.825266,-0.285342,0.078,-0.653496,1,0,2.87,-1.645,-0.385,-0.298168,0.099796,-1.66066,-0.07266,0.12432,0.47138
1.39181,0,0,13.6082,13.6082,16.3918,16.3918,-0.556722,1.63996,-0.825518,-0.285396,0.0780295,-0.653497,1,0,4.41,1.785,-0.945,-0.298168,0.099796,-1.66066,-0.0749,0.1218,0.4648
1.389,0,0,13.611,13.611,16.389,16.389,-0.555599,1.64438,-0.825994,-0.411939,-0.23484,0.318777,1,0,4.095,2.59,-1.0675,-0.42517,-0.212768,-0.695888,-0.0749,0.1218,0.4648
1.39191,0,0,13.6081,13.6081,16.3919,16.3919,-0.556765,1.64584,-0.826801,-0.411965,-0.23486,0.318776,1,0,2.8175,0.8575,-1.2775,-0.42517,-0.212768,-0.695888,-0.0749,0.1218,0.4648
1.18244,0,0,13.8176,13.8176,16.1824,16.1824,-0.472976,1.84633,-0.988834,0.175201,-0.0855018,0.0972527,0,0,1.6625,-1.155,-0.735,0.167994,-0.065026,-0.91561,-0.0749,0.1218,0.4648
0.97234,0,0,14.0277,14.0277,15.9723,15.9723,-0.388936,2.04188,-1.14901,0.17179,-0.084035,0.097148,0,0,2.555,-1.9425,-0.1225,0.167994,-0.065026,-0.91561,-0.0749,0.1218,0.4648
0.964839,0,0,14.0352,14.0352,15.9648,15.9648,-0.385936,2.04045,-1.14839,-0.224229,0.088216,0.515666,1,0,5.1275,-0.84,-0.455,-0.229726,0.106994,-0.500322,-0.0749,0.1218,0.4648
0.951418,0,0,14.0486,14.0486,15.9514,15.9514,-0.380567,2.04362,-1.14875,-0.224284,0.0883096,0.515665,1,0,6.475,1.855,-1.015,-0.229726,0.106994,-0.500322,-0.0749,0.1218,0.4648
0.945115,0,0,14.0549,14.0549,15.9451,15.9451,-0.378046,2.04861,-1.14931,0.11664,0.228799,-0.405223,1,0,4.8825,2.9225,-1.12,0.112728,0.247294,-1.4141,-0.0749,0.1218,0.4648
0.954037,0,0,14.046,14.046,15.954,15.954,-0.381615,2.0492,-1.14995,0.116629,0.228737,-0.405223,1,0,1.47,0.35,-1.19,0.112728,0.247294,-1.4141,-0.07028,0.1204,0.4676
0.968018,0,0,14.032,14.032,15.968,15.968,-0.387207,2.04637,-1.14959,-0.0118532,0.339531,0.488982,1,0,0.315,-1.6625,-0.6125,-0.016348,0.35807,-0.526796,-0.07028,0.1204,0.4676
0.97657,0,0,14.0234,14.0234,15.9766,15.9766,-0.390628,2.04223,-1.14783,-0.0117811,0.339471,0.488984,1,0,1.505,-2.4325,0.1925,-0.016348,0.35807,-0.526796,-0.07028,0.1204,0.4676
0.970532,0,0,14.0295,14.0295,15.9705,15.9705,-0.388213,2.03982,-1.14699,0.492184,-0.0124562,-0.423906,1,0,4.795,-1.4175,-0.3325,0.489708,0.006466,-1.43265,-0.07028,0.1204,0.4676
0.953602,0,0,14.0464,14.0464,15.9536,15.9536,-0.381441,2.04376,-1.14739,0.492115,-0.012338,-0.423908,1,0,7.2625,2.31,-1.0325,0.489708,0.006466,-1.43265,-0.07028,0.1204,0.4676
-0.61151,0,0,15.6115,15.6115,14.3885,14.3885,0.244604,1.69204,-0.77342,-0.366485,-0.661757,0.306742,0,0,6.405,3.115,-1.2425,-0.378688,-0.653188,-0.707844,-0.07028,0.1204,0.4676
-2.13967,0,0,17.1397,17.1397,12.8603,12.8603,0.855867,1.34061,-0.407632,-0.360353,-0.651091,0.306802,0,0,2.205,0.84,-1.1725,-0.378688,-0.653188,-0.707844,-0.07028,0.1204,0.4676
