pid_x,pid_y,pid_z,front_left_speed,front_right_speed,back_left_speed,back_right_speed,orientation_x,orientation_y,orientation_z,acceleration_x,acceleration_y,acceleration_z,accel_rejected,mag_rejected,gyro_x,gyro_y,gyro_z,accel_x,accel_y,accel_z,mag_x,mag_y,mag_z
-0.010038,0,0,15.01,15.01,14.99,14.99,0.00716999,0.000740973,0.22015,-0.00130539,-0.00726954,-0.00288888,0,0,3.5175,0.1925,-0.8225,-0.041602,0.004758,-1.01553,-0.22428,0.05278,0.3738
-0.0253991,0,0,15.0254,15.0254,14.9746,14.9746,0.0181422,0.00421003,0.437367,-2.95984e-05,-0.0106197,-0.00165944,0,0,3.4475,0.175,-0.7525,-0.04026,0.00122,-1.01431,-0.22428,0.05278,0.3738
-0.0356056,0,0,15.0356,15.0356,14.9644,14.9644,0.0254325,0.00442299,0.652527,-0.00161263,-0.00743931,-0.0006759,0,0,3.465,0.1575,-0.805,-0.041846,0.00427,-1.01333,-0.224,0.05418,0.37184
-0.0451036,0,0,15.0451,15.0451,14.9549,14.9549,0.0322169,0.00501576,0.865768,-0.00138,-0.00695452,0.00596326,0,0,3.465,0.2275,-0.8575,-0.041602,0.004636,-1.00674,-0.224,0.05418,0.37184
-0.0570827,0,0,15.0571,15.0571,14.9429,14.9429,0.0407734,0.00576651,1.07749,-0.00139311,-0.00802645,0.0027665,0,0,3.7625,0.1925,-0.805,-0.041602,0.003416,-1.00992,-0.224,0.05418,0.37184
-0.0693716,0,0,15.0694,15.0694,14.9306,14.9306,0.0495511,0.0038664,1.28947,-0.00306074,-0.0081175,0.00313523,0,0,3.8325,0.175,-0.77,-0.04331,0.003172,-1.00955,-0.224,0.05418,0.37184
-0.0817839,0,0,15.0818,15.0818,14.9182,14.9182,0.0584171,0.00471977,1.49809,-0.00149632,-0.00881765,0.0014138,0,0,3.43,0.245,-0.8225,-0.041724,0.002318,-1.01126,-0.224,0.05418,0.37184
-0.0908452,0,0,15.0908,15.0908,14.9092,14.9092,0.0648894,0.00470105,1.70541,-0.00173897,-0.00687278,-0.00338131,0,0,3.395,0.21,-0.84,-0.041968,0.004148,-1.01602,-0.224,0.05418,0.37184
-0.103289,0,0,15.1033,15.1033,14.8967,14.8967,0.0737782,0.00506598,1.91153,-0.00210979,-0.00903805,-0.00166022,0,0,3.325,0.49,-0.805,-0.042334,0.00183,-1.01431,-0.224,0.05418,0.37184
-0.111764,0,0,15.1118,15.1118,14.8882,14.8882,0.0798316,0.0121285,2.11103,0.00262637,-0.00624561,0.00596243,0,0,3.4825,0.385,-0.84,-0.037454,0.004514,-1.00674,-0.224,0.05418,0.37184
-0.124069,0,0,15.1241,15.1241,14.8759,14.8759,0.0886206,0.0134331,2.30904,-0.00116246,-0.00890113,-0.000431126,0,0,3.3425,0.21,-0.8575,-0.041236,0.001708,-1.01309,-0.22092,0.0553,0.3787
-0.136638,0,0,15.1366,15.1366,14.8634,14.8634,0.0975989,0.0159325,2.50471,-0.00035568,-0.00898868,0.00264232,0,0,3.36,0.1575,-0.84,-0.040382,0.001464,-1.01004,-0.22092,0.0553,0.3787
-0.144638,0,0,15.1446,15.1446,14.8554,14.8554,0.103313,0.0136009,2.70204,-0.00323064,-0.00620216,-0.000185659,0,0,3.4125,0.315,-0.8925,-0.04331,0.004148,-1.01284,-0.22092,0.0553,0.3787
-0.154834,0,0,15.1548,15.1548,14.8452,14.8452,0.110595,0.0151704,2.89527,-0.000949807,-0.00729633,0.00411729,0,0,3.5175,0.3675,-0.98,-0.040992,0.002928,-1.00857,-0.22092,0.0553,0.3787
-0.163175,0,0,15.1632,15.1632,14.8368,14.8368,0.116554,0.0148788,3.08823,-0.00203809,-0.00658171,-0.000186108,0,0,3.29,0.3675,-0.9975,-0.04209,0.003538,-1.01284,-0.22092,0.0553,0.3787
-0.174009,0,0,15.174,15.174,14.826,14.826,0.124292,0.0123574,3.2814,-0.0035734,-0.00827855,0.00399387,0,0,3.1675,0.2625,-0.945,-0.043676,0.001708,-1.0087,-0.22092,0.0553,0.3787
-0.182847,0,0,15.1828,15.1828,14.8172,14.8172,0.130605,0.0137171,3.47041,-0.000802957,-0.00658072,-0.0023997,0,0,3.4825,0.21,-0.875,-0.04087,0.003294,-1.01504,-0.22092,0.0553,0.3787
-0.187971,0,0,15.188,15.188,14.812,14.812,0.134265,0.0117928,3.66012,-0.00271314,-0.00419643,0.00165746,0,0,3.57,0.3325,-0.9275,-0.042822,0.005612,-1.01101,-0.22092,0.0553,0.3787
-0.198117,0,0,15.1981,15.1981,14.8019,14.8019,0.141512,0.0161767,3.84461,0.000854915,-0.00712312,0.00288662,0,0,3.5875,0.385,-0.805,-0.039162,0.002562,-1.00979,-0.22092,0.0553,0.3787
-0.207469,0,0,15.2075,15.2075,14.7925,14.7925,0.148192,0.0128262,4.03715,-0.00394603,-0.00676227,-0.000187375,0,0,3.605,0.2975,-0.8575,-0.044042,0.002806,-1.01284,-0.22498,0.05334,0.37436
-0.216399,0,0,15.2164,15.2164,14.7836,14.7836,0.154571,0.0130003,4.22594,-0.00176233,-0.00665094,-0.00141715,0,0,3.4825,0.3675,-0.875,-0.041846,0.002806,-1.01406,-0.22498,0.05334,0.37436
-0.224208,0,0,15.2242,15.2242,14.7758,14.7758,0.160149,0.0113376,4.41454,-0.0027052,-0.00618721,0.00448411,0,0,3.325,0.2275,-0.7525,-0.042822,0.003172,-1.00821,-0.22498,0.05334,0.37436
-0.233063,0,0,15.2331,15.2331,14.7669,14.7669,0.166473,0.00916993,4.60164,-0.00303182,-0.00656533,-0.00166362,0,0,3.535,0.175,-0.98,-0.043188,0.002684,-1.01431,-0.22498,0.05334,0.37436
-0.240754,0,0,15.2408,15.2408,14.7592,14.7592,0.171967,0.00544012,4.78833,-0.00393861,-0.00573669,-0.00313928,0,0,3.64,0.1925,-1.015,-0.044164,0.003416,-1.01577,-0.22498,0.05334,0.37436
-0.249106,0,0,15.2491,15.2491,14.7509,14.7509,0.177933,0.00378945,4.97246,-0.00269494,-0.0062432,-0.000557675,0,0,3.535,0.21,-0.91,-0.042944,0.002806,-1.01321,-0.22498,0.05334,0.37436
-0.26,0,0,15.26,15.26,14.74,14.74,0.185714,0.00564063,5.15299,-0.000783481,-0.00769504,0.00485163,0,0,3.5175,0.315,-0.9275,-0.040992,0.00122,-1.00784,-0.22498,0.05334,0.37436
-0.265156,0,0,15.2652,15.2652,14.7348,14.7348,0.189397,0.00419333,5.33415,-0.00221605,-0.00445546,-0.000927162,0,0,3.43,0.1225,-0.805,-0.042456,0.004392,-1.01358,-0.22498,0.05334,0.37436
-0.271113,0,0,15.2711,15.2711,14.7289,14.7289,0.193652,0.00409822,5.51033,-0.00136399,-0.00474758,-0.00363228,0,0,3.5525,0.105,-0.77,-0.041602,0.004026,-1.01626,-0.22232,0.05586,0.36666
-0.278169,0,0,15.2782,15.2782,14.7218,14.7218,0.198692,0.00805999,5.68221,0.00111806,-0.00514813,-0.00154246,0,0,3.6575,0.1575,-0.9275,-0.03904,0.003538,-1.01419,-0.22232,0.05586,0.36666
-0.285706,0,0,15.2857,15.2857,14.7143,14.7143,0.204076,0.0045978,5.85777,-0.00380242,-0.0056648,-0.000559197,0,0,3.6225,0.245,-0.98,-0.044042,0.002928,-1.01321,-0.22232,0.05586,0.36666
-0.294703,0,0,15.2947,15.2947,14.7053,14.7053,0.210502,0.00342205,6.03072,-0.00244556,-0.00628539,-0.000436653,0,0,3.7625,0.2625,-0.8575,-0.0427,0.002196,-1.01309,-0.22232,0.05586,0.36666
-0.30574,0,0,15.3057,15.3057,14.6943,14.6943,0.218386,0.00799537,6.19867,0.00087622,-0.0074912,0.00546435,0,0,3.6575,0.42,-0.8575,-0.039284,0.000854,-1.00723,-0.22232,0.05586,0.36666
-0.316596,0,0,15.3166,15.3166,14.6834,14.6834,0.22614,0.0123268,6.36533,0.000800623,-0.00735586,0.00546381,0,0,3.675,0.3675,-0.8575,-0.039284,0.000854,-1.00723,-0.22232,0.05586,0.36666
-0.322928,0,0,15.3229,15.3229,14.6771,14.6771,0.230663,0.0112721,6.53436,-0.0023396,-0.00495652,0.000545563,0,0,3.57,0.4025,-0.7875,-0.042456,0.003172,-1.01211,-0.22232,0.05586,0.36666
-0.328693,0,0,15.3287,15.3287,14.6713,14.6713,0.234781,0.00969187,6.70225,-0.00231202,-0.00488465,0.000545276,0,0,3.395,0.0875,-0.7,-0.042456,0.003172,-1.01211,-0.22232,0.05586,0.36666
-0.334171,0,0,15.3342,15.3342,14.6658,14.6658,0.238693,0.012403,6.86815,0.000556322,-0.00469423,-0.00215988,0,0,3.3425,0,-0.665,-0.039528,0.003294,-1.0148,-0.22834,0.05362,0.37254
-0.33967,0,0,15.3397,15.3397,14.6603,14.6603,0.242621,0.0155645,7.03267,0.000501143,-0.00462567,-0.00216018,0,0,3.395,0.315,-0.735,-0.039528,0.003294,-1.0148,-0.22834,0.05362,0.37254
-0.346151,0,0,15.3462,15.3462,14.6538,14.6538,0.247251,0.0148093,7.19841,-0.00203688,-0.00527764,0.0039869,0,0,3.395,0.2625,-0.735,-0.04209,0.002562,-1.0087,-0.22834,0.05362,0.37254
-0.351976,0,0,15.352,15.352,14.648,14.648,0.251411,0.0136407,7.36272,-0.00201648,-0.00520503,0.00398659,0,0,3.185,0.0175,-0.8225,-0.04209,0.002562,-1.0087,-0.22834,0.05362,0.37254
-0.357181,0,0,15.3572,15.3572,14.6428,14.6428,0.255129,0.0152331,7.52407,-0.000343474,-0.00477376,-0.00412831,0,0,3.22,0.1575,-0.805,-0.040382,0.002928,-1.01675,-0.22834,0.05362,0.37254
-0.362846,0,0,15.3628,15.3628,14.6372,14.6372,0.259176,0.0137428,7.68625,-0.0025042,-0.00506951,-0.00339093,0,0,3.2725,0.28,-0.8575,-0.042578,0.002562,-1.01602,-0.22834,0.05362,0.37254
-0.369322,0,0,15.3693,15.3693,14.6307,14.6307,0.263801,0.0178951,7.84353,0.00106789,-0.00511091,5.12439e-05,0,0,3.43,0.315,-0.7875,-0.038918,0.00244,-1.0126,-0.22834,0.05362,0.37254
-0.377908,0,0,15.3779,15.3779,14.6221,14.6221,0.269935,0.0193883,8.00096,-0.000658967,-0.00671364,-0.00191644,0,0,3.29,0.14,-0.8575,-0.040626,0.000732,-1.01455,-0.22834,0.05362,0.37254
-0.384768,0,0,15.3848,15.3848,14.6152,14.6152,0.274834,0.0199656,8.15756,-0.000912013,-0.00540686,0.00349288,0,0,3.43,0,-0.8575,-0.04087,0.001952,-1.00918,-0.22834,0.05362,0.37254
-0.389809,0,0,15.3898,15.3898,14.6102,14.6102,0.278435,0.0183595,8.31181,-0.00222032,-0.00436699,0.00177131,0,0,3.4475,0.0525,-0.8575,-0.042212,0.002928,-1.01089,-0.22498,0.0553,0.3731
-0.396247,0,0,15.3962,15.3962,14.6038,14.6038,0.283034,0.0175657,8.46422,-0.00184201,-0.00526375,0.000172592,0,0,3.4125,0.07,-0.9275,-0.041846,0.001952,-1.01248,-0.22498,0.0553,0.3731
-0.403124,0,0,15.4031,15.4031,14.5969,14.5969,0.287946,0.0170445,8.61558,-0.00183292,-0.00517802,0.000172168,0,0,3.64,0.2275,-0.8575,-0.041846,0.001952,-1.01248,-0.22498,0.0553,0.3731
-0.40662,0,0,15.4066,15.4066,14.5934,14.5934,0.290443,0.0146776,8.7673,-0.00288498,-0.00318041,0.0010326,0,0,3.64,0.35,-0.7875,-0.042944,0.003904,-1.01162,-0.22498,0.0553,0.3731
-0.413229,0,0,15.4132,15.4132,14.5868,14.5868,0.295164,0.0149909,8.91572,-0.00143262,-0.00517417,-0.00400871,0,0,3.5525,0.35,-0.9625,-0.04148,0.00183,-1.01663,-0.22498,0.0553,0.3731
-0.420402,0,0,15.4204,15.4204,14.5796,14.5796,0.300287,0.00971245,9.0669,-0.00510655,-0.00569539,-0.00400916,0,0,3.57,0.3325,-0.8575,-0.045262,0.00122,-1.01663,-0.22498,0.0553,0.3731
-0.424825,0,0,15.4248,15.4248,14.5752,14.5752,0.303446,0.00873187,9.21388,-0.00205229,-0.00417472,-0.000443938,0,0,3.3425,0.28,-0.9625,-0.042212,0.002684,-1.01309,-0.22498,0.0553,0.3731
-0.4327,0,0,15.4327,15.4327,14.5673,14.5673,0.309072,0.00744713,9.36002,-0.00251581,-0.00627483,0.00127682,0,0,3.3425,0.2625,-0.8575,-0.0427,0.000488,-1.01138,-0.22498,0.0553,0.3731
-0.434045,0,0,15.434,15.434,14.566,14.566,0.310032,0.00498278,9.5062,-0.00271577,-0.00198363,-0.00204288,0,0,3.5875,0.28,-0.805,-0.042944,0.004758,-1.01467,-0.22428,0.0553,0.37296
-0.439677,0,0,15.4397,15.4397,14.5603,14.5603,0.314055,0.00339345,9.65065,-0.00256655,-0.00447808,0.00275173,0,0,3.6225,0.35,-0.84,-0.042822,0.002196,-1.00992,-0.22428,0.0553,0.37296
-0.443555,0,0,15.4436,15.4436,14.5564,14.5564,0.316825,0.0061121,9.7908,0.000666118,-0.00369697,-0.00130584,0,0,3.3425,0.0525,-0.8225,-0.039528,0.002928,-1.01394,-0.22428,0.0553,0.37296
-0.4512,0,0,15.4512,15.4512,14.5488,14.5488,0.322286,0.00671838,9.93116,-0.00104526,-0.0060442,-0.000199832,0,0,3.36,0.07,-0.8225,-0.041236,0.000488,-1.01284,-0.22428,0.0553,0.37296
-0.458119,0,0,15.4581,15.4581,14.5419,14.5419,0.327228,0.00798374,10.07,-0.000581405,-0.00546944,0.0021357,0,0,3.4125,0.105,-0.8225,-0.040748,0.000976,-1.01053,-0.22428,0.0553,0.37296
-0.46418,0,0,15.4642,15.4642,14.5358,14.5358,0.331557,0.0122679,10.2057,0.00153057,-0.00466112,-0.000692565,0,0,3.535,0.07,-0.805,-0.038552,0.001708,-1.01333,-0.22428,0.0553,0.37296
-0.467685,0,0,15.4677,15.4677,14.5323,14.5323,0.33406,0.0140772,10.3421,-8.03272e-05,-0.00339616,-0.000201032,0,0,3.4125,0.2275,-0.8925,-0.040138,0.002928,-1.01284,-0.22428,0.0553,0.37296
-0.47032,0,0,15.4703,15.4703,14.5297,14.5297,0.335943,0.0148226,10.478,-0.00057928,-0.0028748,-0.000201228,0,0,3.43,0.1225,-0.875,-0.040626,0.003416,-1.01284,-0.22428,0.0553,0.37296
-0.473681,0,0,15.4737,15.4737,14.5263,14.5263,0.338344,0.0122147,10.6162,-0.00296348,-0.00319928,-0.00339812,0,0,3.6225,0.2625,-0.7875,-0.043066,0.00305,-1.01602,-0.22624,0.05446,0.37436
-0.480682,0,0,15.4807,15.4807,14.5193,14.5193,0.343344,0.0129352,10.7508,-0.000910796,-0.00543242,0.00213404,0,0,3.4825,0.0875,-0.8225,-0.040992,0.000732,-1.01053,-0.22624,0.05446,0.37436
-0.483642,0,0,15.4836,15.4836,14.5164,14.5164,0.345459,0.0123331,10.8852,-0.00138623,-0.00295298,0.00102728,0,0,3.535,0.0525,-0.84,-0.04148,0.003172,-1.01162,-0.22624,0.05446,0.37436
-0.488018,0,0,15.488,15.488,14.512,14.512,0.348584,0.0149053,11.0167,0.000391162,-0.00387544,-0.00130908,0,0,3.43,0.1925,-0.805,-0.03965,0.002196,-1.01394,-0.22624,0.05446,0.37436
-0.491747,0,0,15.4917,15.4917,14.5083,14.5083,0.351248,0.0136307,11.1496,-0.0020163,-0.00334045,-0.000448721,0,0,3.6225,0.175,-0.805,-0.04209,0.002684,-1.01309,-0.22624,0.05446,0.37436
-0.491778,0,0,15.4918,15.4918,14.5082,14.5082,0.35127,0.0104372,11.2831,-0.00305394,-0.00126391,0.00201026,0,0,3.5525,0.245,-0.805,-0.043188,0.004758,-1.01065,-0.22624,0.05446,0.37436
-0.494804,0,0,15.4948,15.4948,14.5052,14.5052,0.353431,0.00922125,11.4135,-0.00157489,-0.00330234,-0.00130958,0,0,3.36,-0.175,-0.84,-0.041724,0.002684,-1.01394,-0.22624,0.05446,0.37436
-0.501633,0,0,15.5016,15.5016,14.4984,14.4984,0.35831,0.00953055,11.542,-0.000972859,-0.00541548,4.2324e-05,0,0,3.4475,-0.0875,-0.7875,-0.041114,0.000488,-1.0126,-0.22624,0.05446,0.37436
-0.501963,0,0,15.502,15.502,14.498,14.498,0.358545,0.008665,11.6707,-0.00144369,-0.00125906,0.00176358,0,0,3.605,0.1575,-0.735,-0.041602,0.004636,-1.01089,-0.22554,0.05502,0.36918
-0.505606,0,0,15.5056,15.5056,14.4944,14.4944,0.361147,0.0133887,11.7947,0.00187546,-0.00316768,0.00348456,0,0,3.5,0.1925,-0.7175,-0.038186,0.002684,-1.00918,-0.22554,0.05502,0.36918
-0.508097,0,0,15.5081,15.5081,14.4919,14.4919,0.362926,0.0140723,11.9201,-0.000687671,-0.00264811,-0.00143358,0,0,3.535,0.21,-0.8925,-0.040748,0.003172,-1.01406,-0.22554,0.05502,0.36918
-0.509827,0,0,15.5098,15.5098,14.4902,14.4902,0.364162,0.0156001,12.0439,-0.000106906,-0.00226017,0.000779348,0,0,3.4475,0.2275,-0.875,-0.040138,0.003538,-1.01187,-0.22554,0.05502,0.36918
-0.515948,0,0,15.5159,15.5159,14.4841,14.4841,0.368534,0.0134261,12.1692,-0.00298462,-0.00523703,-0.00155715,0,0,3.395,0.28,-0.805,-0.043066,0.000488,-1.01419,-0.22554,0.05502,0.36918
-0.518585,0,0,15.5186,15.5186,14.4814,14.4814,0.370418,0.0105816,12.2941,-0.00317795,-0.00300588,-0.00155735,0,0,3.4825,0.3325,-0.875,-0.04331,0.002684,-1.01419,-0.22554,0.05502,0.36918
-0.522396,0,0,15.5224,15.5224,14.4776,14.4776,0.37314,0.00908886,12.4168,-0.00205852,-0.00332474,0.00274554,0,0,3.6575,0.0875,-0.875,-0.042212,0.002318,-1.00992,-0.22554,0.05502,0.36918
-0.522972,0,0,15.523,15.523,14.477,14.477,0.373551,0.00786751,12.5385,-0.00155126,-0.00148566,0.000655372,0,0,3.57,0.0175,-0.875,-0.041724,0.004148,-1.01199,-0.22554,0.05502,0.36918
-0.523013,0,0,15.523,15.523,14.477,14.477,0.373581,0.00528401,12.6604,-0.00259954,-0.00136302,0.00262255,0,0,3.4825,0.175,-0.8225,-0.042822,0.00427,-1.01004,-0.22554,0.05502,0.36918
-0.523107,0,0,15.5231,15.5231,14.4769,14.4769,0.373648,0.00657245,12.7781,-0.000192316,-0.000873348,0.000778312,0,0,3.71,0.3325,-0.945,-0.040382,0.004758,-1.01187,-0.2254,0.05516,0.37352
-0.524158,0,0,15.5242,15.5242,14.4758,14.4758,0.374398,0.00357877,12.8977,-0.00305572,-0.00159301,-0.00254138,0,0,3.78,0.2975,-0.8925,-0.04331,0.004026,-1.01516,-0.2254,0.05516,0.37352
-0.526341,0,0,15.5263,15.5263,14.4737,14.4737,0.375958,0.00112041,13.016,-0.00276985,-0.00266492,-0.00229566,0,0,3.5175,0.2275,-0.84,-0.043066,0.002928,-1.01492,-0.2254,0.05516,0.37352
-0.525917,0,0,15.5259,15.5259,14.4741,14.4741,0.375655,-0.000694234,13.1329,-0.00200926,-0.00108256,0.00077809,0,0,3.465,0.1225,-0.875,-0.042334,0.004514,-1.01187,-0.2254,0.05516,0.37352
-0.528331,0,0,15.5283,15.5283,14.4717,14.4717,0.377379,-0.00396659,13.25,-0.00340997,-0.0030065,-0.000697492,0,0,3.4125,0.28,-0.8225,-0.043798,0.002562,-1.01333,-0.2254,0.05516,0.37352
-0.529376,0,0,15.5294,15.5294,14.4706,14.4706,0.378126,-0.00368849,13.3635,-0.000863629,-0.00213858,-0.00389424,0,0,3.325,0.1925,-1.015,-0.041236,0.003416,-1.0165,-0.2254,0.05516,0.37352
-0.533447,0,0,15.5334,15.5334,14.4666,14.4666,0.381034,-0.00174943,13.4749,-4.70719e-05,-0.00416399,-0.00205035,0,0,3.15,0.1925,-0.945,-0.040382,0.001342,-1.01467,-0.2254,0.05516,0.37352
-0.535792,0,0,15.5358,15.5358,14.4642,14.4642,0.382709,0.000992248,13.585,0.000633991,-0.00291348,-0.00352592,0,0,3.255,0.21,-0.945,-0.03965,0.002562,-1.01614,-0.2254,0.05516,0.37352
-0.536363,0,0,15.5364,15.5364,14.4636,14.4636,0.383117,0.00155111,13.6947,-0.000712106,-0.00180723,3.95361e-05,0,0,3.325,0.2625,-0.8575,-0.040992,0.00366,-1.0126,-0.2254,0.05656,0.36302
-0.54015,0,0,15.5402,15.5402,14.4598,14.4598,0.385822,0.00430308,13.8019,0.000576206,-0.00371405,0.00397357,0,0,3.255,0.1575,-0.805,-0.03965,0.001708,-1.0087,-0.2254,0.05656,0.36302
-0.542508,0,0,15.5425,15.5425,14.4575,14.4575,0.387506,0.00429654,13.91,-0.00100299,-0.00270764,-0.000821621,0,0,3.465,0.0875,-0.7875,-0.041236,0.002684,-1.01345,-0.2254,0.05656,0.36302
-0.544489,0,0,15.5445,15.5445,14.4555,14.4555,0.38892,-0.00134145,14.0212,-0.00491362,-0.00280507,-0.00291191,0,0,3.4825,0.2625,-0.7175,-0.045262,0.002562,-1.01553,-0.2254,0.05656,0.36302
-0.546581,0,0,15.5466,15.5466,14.4534,14.4534,0.390415,-0.00281479,14.1288,-0.00221522,-0.00277899,3.86754e-05,0,0,3.3775,0.2975,-0.8575,-0.042578,0.002562,-1.0126,-0.2254,0.05656,0.36302
-0.550078,0,0,15.5501,15.5501,14.4499,14.4499,0.392913,-0.00719365,14.2373,-0.00432554,-0.00395666,0.00446452,0,0,3.255,0.35,-0.8225,-0.044774,0.001342,-1.00821,-0.2254,0.05656,0.36302
-0.551434,0,0,15.5514,15.5514,14.4486,14.4486,0.393882,-0.00854089,14.3435,-0.00223677,-0.00222998,0.00298902,0,0,3.43,0.455,-0.77,-0.0427,0.00305,-1.00967,-0.2254,0.05656,0.36302
-0.553653,0,0,15.5537,15.5537,14.4463,14.4463,0.395467,-0.0123099,14.4504,-0.00387178,-0.00293508,0.00458714,0,0,3.395,0.42,-0.7525,-0.044408,0.002318,-1.00809,-0.2254,0.05656,0.36302
-0.556977,0,0,15.557,15.557,14.443,14.443,0.39784,-0.0131438,14.5541,-0.00191346,-0.00350428,0.000160707,0,0,3.3775,0.315,-0.77,-0.042456,0.001708,-1.01248,-0.22736,0.05642,0.36218
-0.555848,0,0,15.5558,15.5558,14.4442,14.4442,0.397034,-0.0162817,14.6585,-0.00295206,-0.000831568,-0.0048801,0,0,3.4475,0.21,-0.8575,-0.043554,0.004392,-1.01748,-0.22736,0.05642,0.36218
-0.5581,0,0,15.5581,15.5581,14.4419,14.4419,0.398643,-0.0201483,14.7625,-0.00373498,-0.00300177,-0.000454168,0,0,3.395,0.2275,-0.77,-0.044408,0.002196,-1.01309,-0.22736,0.05642,0.36218
-0.554852,0,0,15.5549,15.5549,14.4451,14.4451,0.396323,-0.0195673,14.8635,-0.000465005,0.000499418,0.00495585,0,0,3.29,0.3325,-0.7,-0.041114,0.005734,-1.00772,-0.22736,0.05642,0.36218
-0.554533,0,0,15.5545,15.5545,14.4455,14.4455,0.396095,-0.0186287,14.9629,-0.000238416,-0.00133646,0.000529737,0,0,3.255,0.1225,-0.77,-0.04087,0.003904,-1.01211,-0.22736,0.05642,0.36218
-0.557024,0,0,15.557,15.557,14.443,14.443,0.397874,-0.0191739,15.0621,-0.00132227,-0.00289306,0.000775416,0,0,3.4125,0.035,-0.77,-0.041968,0.002318,-1.01187,-0.22736,0.05642,0.36218
-0.560032,0,0,15.56,15.56,14.44,14.44,0.400023,-0.0196498,15.1603,-0.00131397,-0.00285556,0.000775152,0,0,3.64,0.07,-0.91,-0.041968,0.002318,-1.01187,-0.22736,0.05642,0.36218
-0.562934,0,0,15.5629,15.5629,14.4371,14.4371,0.402096,-0.0224173,15.259,-0.00272349,-0.00294151,0.00446334,0,0,3.605,-0.0175,-0.98,-0.043432,0.002196,-1.00821,-0.22736,0.05642,0.36218
-0.565957,0,0,15.566,15.566,14.434,14.434,0.404255,-0.0244028,15.357,-0.00268884,-0.00290382,0.00446306,0,0,3.675,0.4025,-0.9275,-0.043432,0.002196,-1.00821,-0.22736,0.05642,0.36218
-0.57033,0,0,15.5703,15.5703,14.4297,14.4297,0.407379,-0.0302321,15.4539,-0.00550275,-0.00443695,-0.00291429,0,0,3.43,0.4375,-0.84,-0.04636,0.00061,-1.01553,-0.22176,0.05894,0.364
-0.574013,0,0,15.574,15.574,14.426,14.426,0.41001,-0.0362183,15.5502,-0.00539828,-0.00439104,-0.00291468,0,0,3.185,0.2625,-0.805,-0.04636,0.00061,-1.01553,-0.22176,0.05894,0.364
-0.572772,0,0,15.5728,15.5728,14.4272,14.4272,0.409123,-0.0402822,15.6449,-0.00350506,-0.00110909,-0.00254577,0,0,3.255,0.105,-0.805,-0.04453,0.003904,-1.01516,-0.22176,0.05894,0.364
-0.572,0,0,15.572,15.572,14.428,14.428,0.408572,-0.0442057,15.7386,-0.00343658,-0.00111871,-0.00254575,0,0,3.43,0.1225,-0.91,-0.04453,0.003904,-1.01516,-0.22176,0.05894,0.364
-0.573549,0,0,15.5735,15.5735,14.4265,14.4265,0.409678,-0.0447975,15.8293,-0.001361,-0.00232068,-0.000701667,0,0,3.43,0.105,-0.875,-0.042456,0.002684,-1.01333,-0.22176,0.05894,0.364
-0.572717,0,0,15.5727,15.5727,14.4273,14.4273,0.409084,-0.0438902,15.9186,-0.000161976,-0.000621273,-8.68385e-05,0,0,3.5175,0.1225,-0.875,-0.041236,0.004392,-1.01272,-0.22176,0.05894,0.364
-0.575158,0,0,15.5752,15.5752,14.4248,14.4248,0.410827,-0.0394201,16.0047,0.00194675,-0.00230061,-0.00291481,0,0,3.605,0.1575,-0.8225,-0.03904,0.002684,-1.01553,-0.22176,0.05894,0.364
-0.576322,0,0,15.5763,15.5763,14.4237,14.4237,0.411659,-0.0361089,16.0906,0.00164599,-0.0017976,-8.70656e-05,0,0,3.43,-0.1925,-0.7875,-0.039284,0.003172,-1.01272,-0.22176,0.05894,0.364
-0.576349,0,0,15.5763,15.5763,14.4237,14.4237,0.411678,-0.0367331,16.1793,-0.00101581,-0.001553,0.00286369,0,0,3.29,-0.1225,-0.875,-0.041968,0.003416,-1.00979,-0.2247,0.05754,0.36904
-0.581045,0,0,15.581,15.581,14.419,14.419,0.415032,-0.0393793,16.2684,-0.00303488,-0.00442551,-0.00303829,0,0,3.43,0.1225,-0.91,-0.044042,0.000488,-1.01565,-0.2247,0.05754,0.36904
-0.584717,0,0,15.5847,15.5847,14.4153,14.4153,0.417655,-0.0396227,16.3554,-0.00132983,-0.00364697,-0.00131735,0,0,3.4125,0.1225,-0.8925,-0.042334,0.00122,-1.01394,-0.2247,0.05754,0.36904
-0.586947,0,0,15.5869,15.5869,14.4131,14.4131,0.419248,-0.0415625,16.4431,-0.00238934,-0.00264215,-0.00254706,0,0,3.57,0.175,-0.8925,-0.043432,0.002196,-1.01516,-0.2247,0.05754,0.36904
-0.588974,0,0,15.589,15.589,14.411,14.411,0.420695,-0.0418643,16.5291,-0.00116922,-0.00261689,0.000280566,0,0,3.4125,0.07,-0.805,-0.042212,0.002196,-1.01236,-0.2247,0.05754,0.36904
-0.585409,0,0,15.5854,15.5854,14.4146,14.4146,0.418149,-0.0400821,16.6134,0.000621959,0.000880341,-0.0030387,0,0,3.3775,0.1225,-0.945,-0.040382,0.005734,-1.01565,-0.2247,0.05754,0.36904
-0.591216,0,0,15.5912,15.5912,14.4088,14.4088,0.422297,-0.0410002,16.6978,-0.00179173,-0.00466509,0.00150986,0,0,3.605,0.0175,-0.945,-0.042822,0.000122,-1.01114,-0.2247,0.05754,0.36904
-0.592702,0,0,15.5927,15.5927,14.4073,14.4073,0.423358,-0.0422948,16.7825,-0.00189062,-0.00244829,-0.000211576,0,0,3.36,0.14,-0.805,-0.042944,0.002318,-1.01284,-0.2247,0.05754,0.36904
-0.593489,0,0,15.5935,15.5935,14.4065,14.4065,0.42392,-0.0429476,16.8626,-0.00151477,-0.00194997,-0.00180999,0,0,3.395,0.245,-0.8575,-0.042578,0.002806,-1.01443,-0.22638,0.05936,0.36666
-0.596494,0,0,15.5965,15.5965,14.4035,14.4035,0.426067,-0.0474889,16.9444,-0.0041082,-0.0032559,-0.000580843,0,0,3.5875,0.105,-0.84,-0.045262,0.001464,-1.01321,-0.22638,0.05936,0.36666
-0.601645,0,0,15.6016,15.6016,14.3984,14.3984,0.429747,-0.0479943,17.0225,-0.00154818,-0.00453508,0.00273828,0,0,3.4125,0.07,-0.875,-0.0427,0.000122,-1.00992,-0.22638,0.05936,0.36666
-0.6015,0,0,15.6015,15.6015,14.3985,14.3985,0.429643,-0.0474325,17.0999,-0.000343123,-0.0013616,0.0027383,0,0,3.3075,0,-0.8225,-0.04148,0.003294,-1.00992,-0.22638,0.05936,0.36666
-0.605003,0,0,15.605,15.605,14.395,14.395,0.432145,-0.0465317,17.1763,-0.000480331,-0.00351621,-0.00291765,0,0,3.395,0.07,-0.7875,-0.041602,0.001098,-1.01553,-0.22638,0.05936,0.36666
-0.609767,0,0,15.6098,15.6098,14.3902,14.3902,0.435548,-0.042872,17.2501,0.00115659,-0.00394533,0.000155667,0,0,3.4825,0.1925,-0.84,-0.039894,0.00061,-1.01248,-0.22638,0.05936,0.36666
-0.610932,0,0,15.6109,15.6109,14.3891,14.3891,0.43638,-0.0456741,17.3278,-0.00292501,-0.00222103,-0.00144281,0,0,3.465,0.1925,-0.8575,-0.044042,0.002318,-1.01406,-0.22638,0.05936,0.36666
-0.611355,0,0,15.6114,15.6114,14.3886,14.3886,0.436682,-0.0452079,17.403,-0.000867892,-0.00172725,-0.00845091,0,0,3.395,0.35,-0.9275,-0.041968,0.002806,-1.02102,-0.22638,0.05936,0.36666
-0.613574,0,0,15.6136,15.6136,14.3864,14.3864,0.438267,-0.0435451,17.4727,-0.000289485,-0.00255447,-0.000336497,0,0,3.4825,0.455,-0.9275,-0.041358,0.001952,-1.01297,-0.22708,0.06132,0.37282
-0.613098,0,0,15.6131,15.6131,14.3869,14.3869,0.437927,-0.0428449,17.5426,-0.000423193,-0.000972763,-0.00267246,0,0,3.465,0.1925,-0.8575,-0.04148,0.003538,-1.01528,-0.22708,0.06132,0.37282
-0.612938,0,0,15.6129,15.6129,14.3871,14.3871,0.437813,-0.0431373,17.6124,-0.00102552,-0.000974747,0.00175369,0,0,3.605,0.14,-0.945,-0.04209,0.003538,-1.01089,-0.22708,0.06132,0.37282
-0.614881,0,0,15.6149,15.6149,14.3851,14.3851,0.439201,-0.0435124,17.6812,-0.00101897,-0.00241604,0.0019994,0,0,3.5,-0.07,-0.98,-0.04209,0.002074,-1.01065,-0.22708,0.06132,0.37282
-0.61833,0,0,15.6183,15.6183,14.3817,14.3817,0.441664,-0.0430311,17.749,-0.000662913,-0.00298369,0.000646642,0,0,3.71,0.0525,-0.8925,-0.041724,0.001464,-1.01199,-0.22708,0.06132,0.37282
-0.620514,0,0,15.6205,15.6205,14.3795,14.3795,0.443224,-0.0459374,17.8185,-0.00292042,-0.00259008,0.000523444,0,0,3.6225,0.0875,-0.9625,-0.044042,0.00183,-1.01211,-0.22708,0.06132,0.37282
-0.621658,0,0,15.6217,15.6217,14.3783,14.3783,0.444041,-0.0465753,17.8863,-0.00145145,-0.00233157,-0.000952057,0,0,3.29,0.1575,-0.8225,-0.042578,0.002074,-1.01358,-0.22708,0.06132,0.37282
-0.624107,0,0,15.6241,15.6241,14.3759,14.3759,0.44579,-0.0450622,17.9519,0.000101451,-0.00291168,-0.00107522,0,0,3.325,0,-0.8575,-0.040992,0.001464,-1.0137,-0.22708,0.06132,0.37282
-0.622459,0,0,15.6225,15.6225,14.3775,14.3775,0.444613,-0.0515239,18.0225,-0.00513114,-0.000856065,-0.000706312,0,0,3.395,0.1225,-0.9625,-0.04636,0.003538,-1.01333,-0.22708,0.06132,0.37282
-0.620164,0,0,15.6202,15.6202,14.3798,14.3798,0.442974,-0.0493686,18.0804,0.000541069,9.23381e-05,0.0027365,0,0,3.3425,0.315,-0.9275,-0.040626,0.004514,-1.00992,-0.22792,0.06524,0.37464
-0.62033,0,0,15.6203,15.6203,14.3797,14.3797,0.443093,-0.0458275,18.1367,0.00132966,-0.00124898,-0.000951919,0,0,3.4125,0.2975,-0.945,-0.039772,0.003172,-1.01358,-0.22792,0.06524,0.37464
-0.617455,0,0,15.6175,15.6175,14.3825,14.3825,0.441039,-0.0462963,18.1955,-0.00109187,0.000424953,0.00163027,0,0,3.4475,0.245,-0.8225,-0.042212,0.00488,-1.01101,-0.22792,0.06524,0.37464
-0.617105,0,0,15.6171,15.6171,14.3829,14.3829,0.44079,-0.0477033,18.2543,-0.0020392,-0.00116705,0.00163028,0,0,3.4825,0.35,-0.8225,-0.043188,0.003294,-1.01101,-0.22792,0.06524,0.37464
-0.616862,0,0,15.6169,15.6169,14.3831,14.3831,0.440616,-0.0490322,18.3127,-0.00213749,-0.00104796,0.00212208,0,0,3.605,0.49,-0.8925,-0.04331,0.003416,-1.01053,-0.22792,0.06524,0.37464
-0.616654,0,0,15.6167,15.6167,14.3833,14.3833,0.440467,-0.0509748,18.3708,-0.00234656,-0.00141694,0.00261387,0,0,3.395,0.28,-0.8925,-0.043554,0.00305,-1.01004,-0.22792,0.06524,0.37464
-0.618141,0,0,15.6181,15.6181,14.3819,14.3819,0.441529,-0.0483005,18.4252,0.000643912,-0.00225329,0.0034744,0,0,3.3075,0.28,-0.91,-0.040504,0.002196,-1.00918,-0.22792,0.06524,0.37464
-0.617872,0,0,15.6179,15.6179,14.3821,14.3821,0.441337,-0.0461962,18.4799,0.000607184,-0.00079112,0.00187613,0,0,3.57,0.14,-0.7875,-0.040504,0.00366,-1.01077,-0.22792,0.06524,0.37464
-0.621331,0,0,15.6213,15.6213,14.3787,14.3787,0.443808,-0.045308,18.5472,-0.000501688,-0.00343478,0.00113812,0,0,3.4125,0.0875,-0.9625,-0.041602,0.000976,-1.0115,-0.22554,0.0581,0.37128
-0.624643,0,0,15.6246,15.6246,14.3754,14.3754,0.446174,-0.0516542,18.6186,-0.00537184,-0.00351562,-0.000460628,0,0,3.6575,0.07,-0.945,-0.046604,0.000854,-1.01309,-0.22554,0.0581,0.37128
-0.625672,0,0,15.6257,15.6257,14.3743,14.3743,0.446909,-0.0512098,18.6859,-0.000763141,-0.00154876,-0.00513276,0,0,3.7275,0.2625,-0.9275,-0.041968,0.002806,-1.01772,-0.22554,0.0581,0.37128
-0.626641,0,0,15.6266,15.6266,14.3734,14.3734,0.447601,-0.0494402,18.7518,0.000177861,-0.00153669,-0.00119848,0,0,3.6225,0.2275,-0.84,-0.040992,0.002806,-1.01382,-0.22554,0.0581,0.37128
-0.625774,0,0,15.6258,15.6258,14.3742,14.3742,0.446982,-0.0488346,18.8181,-0.000440137,-0.000570477,0.00138353,0,0,3.5525,0.1925,-0.8575,-0.041602,0.003782,-1.01126,-0.22554,0.0581,0.37128
-0.622472,0,0,15.6225,15.6225,14.3775,14.3775,0.444623,-0.0489875,18.8844,-0.000923413,0.000609616,0.000154365,0,0,3.395,0.2975,-1.015,-0.04209,0.005002,-1.01248,-0.22554,0.0581,0.37128
-0.622003,0,0,15.622,15.622,14.378,14.378,0.444288,-0.0497869,18.9505,-0.00163837,-0.00135026,-0.00119803,0,0,3.3075,0.315,-0.8925,-0.042822,0.00305,-1.01382,-0.22554,0.0581,0.37128
-0.624181,0,0,15.6242,15.6242,14.3758,14.3758,0.445844,-0.0470762,19.0135,0.000501058,-0.00266649,-9.16693e-05,0,0,3.3425,0.3675,-0.945,-0.040626,0.001708,-1.01272,-0.22554,0.0581,0.37128
-0.622531,0,0,15.6225,15.6225,14.3775,14.3775,0.444665,-0.0446118,19.0726,0.000701018,-0.000366651,-0.00107506,0,0,3.3075,0.315,-0.91,-0.040382,0.004026,-1.0137,-0.22386,0.0609,0.3703
-0.62101,0,0,15.621,15.621,14.379,14.379,0.443579,-0.0436932,19.1323,7.75564e-05,-0.000141358,0.00150701,0,0,3.535,-0.0175,-0.6475,-0.040992,0.00427,-1.01114,-0.22386,0.0609,0.3703
-0.621496,0,0,15.6215,15.6215,14.3785,14.3785,0.443926,-0.0437449,19.192,-0.000771941,-0.0014787,-0.00316508,0,0,3.5525,0,-0.63,-0.041846,0.002928,-1.01577,-0.22386,0.0609,0.3703
-0.621189,0,0,15.6212,15.6212,14.3788,14.3788,0.443706,-0.0432132,19.2504,-0.000295278,-0.000994019,-9.13266e-05,0,0,3.5,-0.0175,-0.91,-0.041358,0.003416,-1.01272,-0.22386,0.0609,0.3703
-0.622651,0,0,15.6227,15.6227,14.3773,14.3773,0.444751,-0.0400581,19.3064,0.00135045,-0.00207493,-0.00193566,0,0,3.395,-0.0175,-0.8925,-0.03965,0.002318,-1.01455,-0.22386,0.0609,0.3703
-0.622432,0,0,15.6224,15.6224,14.3776,14.3776,0.444594,-0.0402231,19.3644,-0.000833407,-0.00134491,-0.00205858,0,0,3.36,0,-0.8575,-0.041846,0.00305,-1.01467,-0.22386,0.0609,0.3703
-0.622567,0,0,15.6226,15.6226,14.3774,14.3774,0.444691,-0.037607,19.4203,0.000943217,-0.00134321,0.00593309,0,0,3.325,0.0875,-0.8225,-0.040016,0.00305,-1.00674,-0.22386,0.0609,0.3703
-0.622489,0,0,15.6225,15.6225,14.3775,14.3775,0.444635,-0.0370789,19.4768,-0.000280855,-0.000855685,0.000400417,0,0,3.675,-0.0175,-0.91,-0.041236,0.003538,-1.01223,-0.22386,0.0609,0.3703
-0.624965,0,0,15.625,15.625,14.375,14.375,0.446404,-0.0361491,19.5325,-0.000297084,-0.00265672,-0.00365711,0,0,3.5525,0.035,-0.84,-0.041236,0.001708,-1.01626,-0.22386,0.0609,0.3703
-0.62561,0,0,15.6256,15.6256,14.3744,14.3744,0.446864,-0.0358286,19.5877,-0.00054565,-0.00167167,-0.00107525,0,0,3.465,0,-0.9275,-0.04148,0.002684,-1.0137,-0.22526,0.0609,0.36498
-0.626592,0,0,15.6266,15.6266,14.3734,14.3734,0.447566,-0.0375829,19.644,-0.00221583,-0.00214793,0.00249014,0,0,3.395,0.175,-0.91,-0.043188,0.002196,-1.01016,-0.22526,0.0609,0.36498
-0.627864,0,0,15.6279,15.6279,14.3721,14.3721,0.448474,-0.0394151,19.6999,-0.00218385,-0.00213207,0.00248999,0,0,3.5175,0.105,-0.8225,-0.043188,0.002196,-1.01016,-0.22526,0.0609,0.36498
-0.631309,0,0,15.6313,15.6313,14.3687,14.3687,0.450935,-0.041896,19.7557,-0.00286947,-0.00355465,0.00138309,0,0,3.5175,0.1575,-0.7875,-0.04392,0.000732,-1.01126,-0.22526,0.0609,0.36498
-0.635128,0,0,15.6351,15.6351,14.3649,14.3649,0.453663,-0.0440217,19.8108,-0.00283237,-0.00350704,0.00138268,0,0,3.6925,0.3325,-0.875,-0.04392,0.000732,-1.01126,-0.22526,0.0609,0.36498
-0.639266,0,0,15.6393,15.6393,14.3607,14.3607,0.456619,-0.0409719,19.8623,0.000758974,-0.00333332,0.00175116,0,0,3.6575,0.28,-0.8575,-0.04026,0.000854,-1.01089,-0.22526,0.0609,0.36498
-0.642744,0,0,15.6427,15.6427,14.3573,14.3573,0.459103,-0.0381891,19.9134,0.000710406,-0.00328997,0.00175085,0,0,3.43,0.175,-0.77,-0.04026,0.000854,-1.01089,-0.22526,0.0609,0.36498
-0.646824,0,0,15.6468,15.6468,14.3532,14.3532,0.462017,-0.035493,19.9643,0.000420378,-0.00348336,0.00101278,0,0,3.57,0.35,-0.77,-0.040504,0.00061,-1.01162,-0.22526,0.0609,0.36498
-0.648116,0,0,15.6481,15.6481,14.3519,14.3519,0.46294,-0.0352334,20.0265,-0.000920495,-0.00187961,2.90614e-05,0,0,3.605,0.245,-0.8575,-0.041846,0.002196,-1.0126,-0.21714,0.05698,0.36932
-0.65112,0,0,15.6511,15.6511,14.3489,14.3489,0.465086,-0.0327431,20.0864,0.000615356,-0.00281917,-0.000708907,0,0,3.57,0.14,-0.84,-0.04026,0.00122,-1.01333,-0.21714,0.05698,0.36932
-0.647867,0,0,15.6479,15.6479,14.3521,14.3521,0.462762,-0.0320957,20.1478,-0.000246344,0.000559821,-0.00181511,0,0,3.3425,0.175,-0.84,-0.041114,0.004636,-1.01443,-0.21714,0.05698,0.36932
-0.64677,0,0,15.6468,15.6468,14.3532,14.3532,0.461979,-0.0290021,20.207,0.00115749,-0.000430861,-0.000708433,0,0,3.4475,0.2975,-0.875,-0.03965,0.00366,-1.01333,-0.21714,0.05698,0.36932
-0.646565,0,0,15.6466,15.6466,14.3534,14.3534,0.461832,-0.0296651,20.2681,-0.00162511,-0.00128831,0.000152221,0,0,3.4475,0.3675,-0.8925,-0.042456,0.002806,-1.01248,-0.21714,0.05698,0.36932
-0.643545,0,0,15.6435,15.6435,14.3565,14.3565,0.459675,-0.0293512,20.3284,-0.000658702,0.000628073,-0.000216319,0,0,3.5,0.3325,-0.8925,-0.04148,0.004758,-1.01284,-0.21714,0.05698,0.36932
-0.644592,0,0,15.6446,15.6446,14.3554,14.3554,0.460423,-0.029308,20.3877,-0.00102391,-0.00216779,-0.00120001,0,0,3.3425,0.175,-0.875,-0.041846,0.001952,-1.01382,-0.21714,0.05698,0.36932
-0.64377,0,0,15.6438,15.6438,14.3562,14.3562,0.459835,-0.0343389,20.4502,-0.00433771,-0.00144528,0.000152456,0,0,3.3075,0.105,-0.7175,-0.045262,0.002684,-1.01248,-0.21714,0.05698,0.36932
-0.645334,0,0,15.6453,15.6453,14.3547,14.3547,0.460953,-0.0341424,20.4993,-0.000939536,-0.00228067,-0.00267551,0,0,3.4825,0.1925,-0.8225,-0.041846,0.00183,-1.01528,-0.2254,0.06034,0.37282
-0.646095,0,0,15.6461,15.6461,14.3539,14.3539,0.461496,-0.0280293,20.5442,0.00332726,-0.00117205,-0.00341322,0,0,3.5525,0.14,-0.875,-0.037454,0.002928,-1.01602,-0.2254,0.06034,0.37282
-0.64719,0,0,15.6472,15.6472,14.3528,14.3528,0.462279,-0.0282163,20.5927,-0.00128594,-0.00176902,-0.000954366,0,0,3.64,0.315,-0.9625,-0.04209,0.002318,-1.01358,-0.2254,0.06034,0.37282
-0.649755,0,0,15.6498,15.6498,14.3502,14.3502,0.464111,-0.0332552,20.6437,-0.00484256,-0.00332469,0.00138135,0,0,3.4825,0.35,-0.9275,-0.04575,0.000732,-1.01126,-0.2254,0.06034,0.37282
-0.64702,0,0,15.647,15.647,14.353,14.353,0.462157,-0.035961,20.6933,-0.00248711,6.07591e-05,-0.000831476,0,0,3.395,0.07,-0.945,-0.043432,0.004148,-1.01345,-0.2254,0.06034,0.37282
-0.645023,0,0,15.645,15.645,14.355,14.355,0.460731,-0.0340207,20.7396,0.000637654,-8.62582e-05,0.000890024,0,0,3.3425,0.105,-0.9275,-0.04026,0.004026,-1.01175,-0.2254,0.06034,0.37282
-0.643897,0,0,15.6439,15.6439,14.3561,14.3561,0.459926,-0.031768,20.7855,0.000598337,-0.000466686,-0.00304419,0,0,3.465,0.28,-0.875,-0.04026,0.00366,-1.01565,-0.2254,0.06034,0.37282
-0.638979,0,0,15.639,15.639,14.361,14.361,0.456413,-0.0341036,20.8345,-0.00239804,0.00154816,0.00261191,0,0,3.465,0.3675,-0.945,-0.04331,0.005734,-1.01004,-0.2254,0.06034,0.37282
-0.637056,0,0,15.6371,15.6371,14.3629,14.3629,0.45504,-0.0350456,20.8868,-0.0015312,-0.000429836,-0.000215729,0,0,3.325,0.2275,-0.8575,-0.042456,0.003782,-1.01284,-0.2247,0.05754,0.37002
-0.633123,0,0,15.6331,15.6331,14.3669,14.3669,0.452231,-0.0329971,20.9372,0.000741274,0.00123091,-0.00267429,0,0,3.43,0.2275,-0.84,-0.040138,0.00549,-1.01528,-0.2247,0.05754,0.37002
-0.635521,0,0,15.6355,15.6355,14.3645,14.3645,0.453944,-0.0324885,20.9869,-0.00072543,-0.00301363,0.000399191,0,0,3.3075,0.105,-0.91,-0.041602,0.00122,-1.01223,-0.2247,0.05754,0.37002
-0.637345,0,0,15.6373,15.6373,14.3627,14.3627,0.455247,-0.0308853,21.0356,0.000218473,-0.00250238,0.00199736,0,0,3.325,0,-0.8575,-0.040626,0.001708,-1.01065,-0.2247,0.05754,0.37002
-0.63736,0,0,15.6374,15.6374,14.3626,14.3626,0.455257,-0.0288944,21.0842,0.000548182,-0.00140306,-0.000707493,0,0,3.3075,0.07,-0.77,-0.04026,0.002806,-1.01333,-0.2247,0.05754,0.37002
-0.638977,0,0,15.639,15.639,14.361,14.361,0.456412,-0.0271532,21.1322,0.000274822,-0.00235991,-0.00242892,0,0,3.36,0.0525,-0.7875,-0.040504,0.00183,-1.01504,-0.2247,0.05754,0.37002
-0.640487,0,0,15.6405,15.6405,14.3595,14.3595,0.45749,-0.0252928,21.1797,0.000242352,-0.00221897,0.00248889,0,0,3.3775,0.1575,-0.91,-0.040504,0.001952,-1.01016,-0.2247,0.05754,0.37002
-0.641478,0,0,15.6415,15.6415,14.3585,14.3585,0.458198,-0.0258176,21.2285,-0.00169226,-0.00220662,-0.00169146,0,0,3.36,0.4025,-0.9625,-0.042456,0.001952,-1.01431,-0.2247,0.05754,0.37002
-0.641837,0,0,15.6418,15.6418,14.3582,14.3582,0.458455,-0.0221836,21.2745,0.00128146,-0.00122513,-0.00107673,0,0,3.5,0.42,-0.98,-0.039406,0.002928,-1.0137,-0.2247,0.05754,0.37002
-0.640313,0,0,15.6403,15.6403,14.3597,14.3597,0.457367,-0.0225704,21.3201,-0.00114151,-2.28509e-05,0.0003988,0,0,3.71,0.2625,-0.8575,-0.041846,0.004148,-1.01223,-0.2275,0.05852,0.37156
-0.637427,0,0,15.6374,15.6374,14.3626,14.3626,0.455305,-0.0245746,21.3663,-0.00195693,0.000673934,-0.00144516,0,0,3.6925,0.0875,-0.8925,-0.0427,0.00488,-1.01406,-0.2275,0.05852,0.37156
-0.635012,0,0,15.635,15.635,14.365,14.365,0.45358,-0.0248177,21.4112,-0.000859311,0.00076595,-0.00181376,0,0,3.85,0.1925,-0.84,-0.041602,0.005002,-1.01443,-0.2275,0.05852,0.37156
-0.634605,0,0,15.6346,15.6346,14.3654,14.3654,0.453289,-0.0237203,21.4548,-0.000271036,-0.00070464,-0.00181372,0,0,3.6575,0.315,-0.8225,-0.040992,0.003538,-1.01443,-0.2275,0.05852,0.37156
-0.634642,0,0,15.6346,15.6346,14.3654,14.3654,0.453316,-0.0244888,21.4991,-0.00171545,-0.00143694,-0.00193667,0,0,3.4825,0.3675,-0.8225,-0.042456,0.002806,-1.01455,-0.2275,0.05852,0.37156
-0.633543,0,0,15.6335,15.6335,14.3665,14.3665,0.45253,-0.0242881,21.5427,-0.000868554,-0.000717889,0.000522406,0,0,3.4125,0.2975,-0.735,-0.041602,0.003538,-1.01211,-0.2275,0.05852,0.37156
-0.634371,0,0,15.6344,15.6344,14.3656,14.3656,0.453122,-0.0238414,21.5855,-0.000997837,-0.00205095,-0.00119895,0,0,3.3425,0.4025,-0.8225,-0.041724,0.002196,-1.01382,-0.2275,0.05852,0.37156
-0.63124,0,0,15.6312,15.6312,14.3688,14.3688,0.450886,-0.0263161,21.6301,-0.00265545,0.000230422,0.000891462,0,0,3.36,0.35,-0.91,-0.043432,0.004514,-1.01175,-0.2275,0.05852,0.37156
-0.631312,0,0,15.6313,15.6313,14.3687,14.3687,0.450937,-0.0291131,21.6734,-0.00309257,-0.00172271,-0.00230523,0,0,3.43,0.315,-0.945,-0.04392,0.002562,-1.01492,-0.22862,0.05866,0.37226
-0.632879,0,0,15.6329,15.6329,14.3671,14.3671,0.452057,-0.0299186,21.7149,-0.00186366,-0.00255806,-0.000461163,0,0,3.3775,0.35,-0.8925,-0.0427,0.001708,-1.01309,-0.22862,0.05866,0.37226
-0.630632,0,0,15.6306,15.6306,14.3694,14.3694,0.450452,-0.0342895,21.7588,-0.00385262,-0.00038779,0.0010144,0,0,3.4125,0.1925,-0.9275,-0.044774,0.003904,-1.01162,-0.22862,0.05866,0.37226
-0.627363,0,0,15.6274,15.6274,14.3726,14.3726,0.448116,-0.0345369,21.8,-0.000811166,0.00067059,0.00285894,0,0,3.43,0.14,-0.8925,-0.041724,0.005002,-1.00979,-0.22862,0.05866,0.37226
-0.628947,0,0,15.6289,15.6289,14.3711,14.3711,0.449248,-0.0336428,21.8398,-0.000705285,-0.00199645,0.00089162,0,0,3.64,0.42,-0.8925,-0.041602,0.002318,-1.01175,-0.22862,0.05866,0.37226
-0.628609,0,0,15.6286,15.6286,14.3714,14.3714,0.449006,-0.0312907,21.8785,0.000590007,-0.000779392,-0.00525575,0,0,3.5875,0.315,-0.945,-0.04026,0.003538,-1.01785,-0.22862,0.05866,0.37226
-0.629333,0,0,15.6293,15.6293,14.3707,14.3707,0.449524,-0.0318551,21.9184,-0.0014654,-0.00186951,-0.00230506,0,0,3.465,0.2275,-0.8925,-0.042334,0.00244,-1.01492,-0.22862,0.05866,0.37226
-0.63283,0,0,15.6328,15.6328,14.3672,14.3672,0.452021,-0.0325552,21.958,-0.00193912,-0.00353569,0.000522405,0,0,3.5175,0.3675,-0.805,-0.042822,0.000732,-1.01211,-0.22862,0.05866,0.37226
-0.630423,0,0,15.6304,15.6304,14.3696,14.3696,0.450302,-0.0371105,21.9996,-0.00404636,-2.40186e-05,-0.00107574,0,0,3.605,0.2625,-0.7,-0.045018,0.00427,-1.0137,-0.22526,0.06034,0.37254
-0.630455,0,0,15.6305,15.6305,14.3695,14.3695,0.450325,-0.0350328,22.036,0.000655317,-0.00124489,0.00494876,0,0,3.3775,0.0525,-0.735,-0.04026,0.00305,-1.00772,-0.22526,0.06034,0.37254
-0.629821,0,0,15.6298,15.6298,14.3702,14.3702,0.449872,-0.0364158,22.0742,-0.00150729,-0.000886407,-0.00107567,0,0,3.5525,-0.105,-0.8225,-0.042456,0.003416,-1.0137,-0.22526,0.06034,0.37254
-0.629587,0,0,15.6296,15.6296,14.3704,14.3704,0.449705,-0.0356883,22.1107,-0.00018364,-0.00101145,-0.00316576,0,0,3.535,0,-0.875,-0.041114,0.003294,-1.01577,-0.22526,0.06034,0.37254
-0.630277,0,0,15.6303,15.6303,14.3697,14.3697,0.450198,-0.0330802,22.146,0.000621238,-0.00161349,0.00052265,0,0,3.43,0.35,-0.805,-0.04026,0.002684,-1.01211,-0.22526,0.06034,0.37254
-0.631656,0,0,15.6317,15.6317,14.3683,14.3683,0.451183,-0.0326281,22.1822,-0.000965966,-0.00232905,0.00310444,0,0,3.36,0.35,-0.84,-0.041846,0.001952,-1.00955,-0.22526,0.06034,0.37254
-0.63349,0,0,15.6335,15.6335,14.3665,14.3665,0.452493,-0.0374743,22.2212,-0.00452595,-0.00303895,0.000522287,0,0,3.395,0.175,-0.8225,-0.045506,0.00122,-1.01211,-0.22526,0.06034,0.37254
-0.635713,0,0,15.6357,15.6357,14.3643,14.3643,0.454081,-0.0400889,22.2585,-0.00290101,-0.00288911,-0.00304347,0,0,3.535,0.1225,-0.77,-0.04392,0.001342,-1.01565,-0.22526,0.06034,0.37254
-0.636929,0,0,15.6369,15.6369,14.3631,14.3631,0.454949,-0.0396892,22.2941,-0.00072124,-0.00177481,-0.0015682,0,0,3.6575,0.175,-0.735,-0.041724,0.00244,-1.01419,-0.22526,0.06034,0.37254
-0.636626,0,0,15.6366,15.6366,14.3634,14.3634,0.454733,-0.0370192,22.3306,0.00105445,-0.000435194,-0.0011993,0,0,3.7625,0.1575,-0.735,-0.039894,0.003782,-1.01382,-0.22316,0.0595,0.37534
-0.637254,0,0,15.6373,15.6373,14.3627,14.3627,0.455182,-0.0370618,22.3681,-0.00113155,-0.0015265,0.000276023,0,0,3.605,0.28,-0.9275,-0.04209,0.002684,-1.01236,-0.22316,0.0595,0.37534
-0.633409,0,0,15.6334,15.6334,14.3666,14.3666,0.452435,-0.0380877,22.4065,-0.00147811,0.000990217,0.00113703,0,0,3.465,0.2625,-1.015,-0.042456,0.005246,-1.0115,-0.22316,0.0595,0.37534
-0.63381,0,0,15.6338,15.6338,14.3662,14.3662,0.452722,-0.037202,22.4428,-0.000400193,-0.00120306,0.001137,0,0,3.6575,0.245,-0.9625,-0.041358,0.00305,-1.0115,-0.22316,0.0595,0.37534
-0.630878,0,0,15.6309,15.6309,14.3691,14.3691,0.450627,-0.0364201,22.4798,-0.000292355,0.00071441,-0.00267411,0,0,3.57,0.2975,-0.805,-0.041236,0.005002,-1.01528,-0.22316,0.0595,0.37534
-0.63147,0,0,15.6315,15.6315,14.3685,14.3685,0.45105,-0.0352602,22.5155,-0.000191113,-0.00159862,-0.00169056,0,0,3.4825,0.1925,-0.7875,-0.041114,0.002684,-1.01431,-0.22316,0.0595,0.37534
-0.632102,0,0,15.6321,15.6321,14.3679,14.3679,0.451502,-0.0401536,22.5547,-0.00460068,-0.00232349,0.00162893,0,0,3.3775,0.2625,-0.7875,-0.045628,0.001952,-1.01101,-0.22316,0.0595,0.37534
-0.63265,0,0,15.6326,15.6326,14.3674,14.3674,0.451893,-0.0453143,22.5935,-0.00451061,-0.00231667,0.00162881,0,0,3.3425,0.035,-0.875,-0.045628,0.001952,-1.01101,-0.22316,0.0595,0.37534
-0.631299,0,0,15.6313,15.6313,14.3687,14.3687,0.450928,-0.0480917,22.6312,-0.00251836,-0.00135649,-0.000707121,0,0,3.0625,-0.1225,-0.875,-0.043676,0.002928,-1.01333,-0.22862,0.05754,0.36638
-0.630858,0,0,15.6309,15.6309,14.3691,14.3691,0.450613,-0.05035,22.6687,-0.00247895,-0.00136199,-0.000707111,0,0,3.4125,0.14,-0.805,-0.043676,0.002928,-1.01333,-0.22862,0.05754,0.36638
-0.633181,0,0,15.6332,15.6332,14.3668,14.3668,0.452272,-0.0484794,22.7028,0.000282578,-0.0025543,-0.00414987,0,0,3.535,0.105,-0.8575,-0.04087,0.001708,-1.01675,-0.22862,0.05754,0.36638
-0.633211,0,0,15.6332,15.6332,14.3668,14.3668,0.452294,-0.0521301,22.7402,-0.00341976,-0.00182117,0.00101391,0,0,3.3775,0.07,-0.9275,-0.044652,0.00244,-1.01162,-0.22862,0.05754,0.36638
-0.63346,0,0,15.6335,15.6335,14.3665,14.3665,0.452471,-0.0490604,22.7734,0.0012646,-0.0010853,-0.00218273,0,0,3.5525,0.14,-0.9275,-0.039894,0.003172,-1.0148,-0.22862,0.05754,0.36638
-0.635699,0,0,15.6357,15.6357,14.3643,14.3643,0.454071,-0.0490536,22.8078,-0.00104374,-0.00240078,-0.00402718,0,0,3.71,0.14,-0.98,-0.042212,0.00183,-1.01663,-0.22862,0.05754,0.36638
-0.636825,0,0,15.6368,15.6368,14.3632,14.3632,0.454875,-0.0462398,22.8402,0.00109389,-0.00165398,0.000767743,0,0,3.535,0.07,-1.015,-0.040016,0.002562,-1.01187,-0.22862,0.05754,0.36638
-0.638467,0,0,15.6385,15.6385,14.3615,14.3615,0.456048,-0.045254,22.8735,-0.000381145,-0.00224415,0.00175118,0,0,3.4825,0.175,-0.9275,-0.04148,0.001952,-1.01089,-0.22862,0.05754,0.36638
-0.638398,0,0,15.6384,15.6384,14.3616,14.3616,0.455999,-0.0465751,22.9047,-0.0019374,-0.00187863,-0.0270188,0,0,3.3425,0.14,-0.91,-0.043066,0.002318,-1.03944,-0.22666,0.06034,0.3731
-0.614001,0,0,15.614,15.614,14.386,14.386,0.438572,-0.0365526,22.9333,0.00821396,0.0154035,-0.0479175,0,0,3.4825,0.385,-0.8225,-0.032696,0.019886,-1.06018,-0.22666,0.06034,0.3731
-0.608463,0,0,15.6085,15.6085,14.3915,14.3915,0.434616,-0.0990282,23.0028,-0.0447568,-0.00359521,0.006302,0,0,3.5175,0.175,-0.77,-0.086986,0.000976,-1.00638,-0.22666,0.06034,0.3731
-0.665896,0,0,15.6659,15.6659,14.3341,14.3341,0.47564,-0.187361,23.0774,-0.0628958,-0.0415934,0.0800616,0,0,3.6925,0.1225,-0.805,-0.10675,-0.037698,-0.933178,-0.22666,0.06034,0.3731
-0.664483,0,0,15.6645,15.6645,14.3355,14.3355,0.474631,-0.186212,23.0804,-0.000593658,-0.0093696,0.117192,1,0,3.675,0.21,-0.805,-0.044164,-0.00549,-0.896334,-0.22666,0.06034,0.3731
-0.637051,0,0,15.6371,15.6371,14.3629,14.3629,0.455037,-0.16881,23.1057,0.0141669,0.0183776,-0.0508747,0,0,3.5875,0.2275,-0.805,-0.029036,0.02257,-1.06311,-0.22666,0.06034,0.3731
-0.634809,0,0,15.6348,15.6348,14.3652,14.3652,0.453435,-0.16772,23.1088,-0.081097,0.0459503,-0.10239,1,0,3.3425,0.175,-0.7525,-0.124684,0.050142,-1.11423,-0.22666,0.06034,0.3731
-0.659534,0,0,15.6595,15.6595,14.3405,14.3405,0.471095,-0.158397,23.1298,0.00378031,-0.0157819,0.00580285,0,0,3.605,0.14,-0.665,-0.039284,-0.011834,-1.00687,-0.22666,0.06034,0.3731
-0.657554,0,0,15.6576,15.6576,14.3424,14.3424,0.469682,-0.157517,23.1329,0.0834596,0.00825241,0.122358,1,0,3.4475,0.0525,-0.735,0.040748,0.0122,-0.89121,-0.22666,0.06034,0.3731
-0.646555,0,0,15.6466,15.6466,14.3534,14.3534,0.461825,-0.122776,23.1467,0.0235682,0.00872594,0.0540015,0,0,3.3775,0.175,-0.7,-0.018788,0.01281,-0.959042,-0.2261,0.0588,0.37716
-0.644184,0,0,15.6442,15.6442,14.3558,14.3558,0.460132,-0.121538,23.1499,-0.0480085,0.00625385,-0.141732,1,0,3.29,0.2625,-0.7,-0.090646,0.01037,-1.15327,-0.2261,0.0588,0.37716
-0.642077,0,0,15.6421,15.6421,14.3579,14.3579,0.458626,-0.120537,23.1529,-0.106096,-0.0211288,-0.0979623,1,0,3.395,0.1225,-0.7875,-0.148962,-0.016958,-1.10983,-0.2261,0.0588,0.37716
-0.660998,0,0,15.661,15.661,14.339,14.339,0.472141,-0.0804001,23.1571,0.0256228,-0.00916876,0.0299034,0,0,3.3775,0.0875,-0.84,-0.015982,-0.005246,-0.982954,-0.2261,0.0588,0.37716
-0.659243,0,0,15.6592,15.6592,14.3408,14.3408,0.470888,-0.0793097,23.1601,0.141015,0.0134028,0.124451,1,0,3.535,0.175,-0.84,0.099918,0.017324,-0.889136,-0.2261,0.0588,0.37716
-0.632058,0,0,15.6321,15.6321,14.3679,14.3679,0.45147,-0.0711166,23.1913,0.00687344,0.0164835,0.0394965,0,0,3.5525,0.1925,-0.91,-0.034648,0.02074,-0.973438,-0.2261,0.0588,0.37716
-0.630348,0,0,15.6303,15.6303,14.3697,14.3697,0.450248,-0.0699939,23.194,-0.151685,-0.028969,-0.102878,1,0,3.5525,0.1925,-0.945,-0.193858,-0.024644,-1.11471,-0.2261,0.0588,0.37716
-0.649678,0,0,15.6497,15.6497,14.3503,14.3503,0.464055,-0.0918831,23.2353,-0.0188835,-0.0163932,-0.0312011,0,0,3.5175,0.21,-0.8925,-0.060878,-0.012322,-1.04359,-0.2261,0.0588,0.37716
-0.648054,0,0,15.6481,15.6481,14.3519,14.3519,0.462896,-0.0910296,23.238,0.112792,0.0242547,0.112772,1,0,3.5875,0.035,-0.9625,0.07137,0.028304,-0.900726,-0.2296,0.0602,0.37702
-0.619265,0,0,15.6193,15.6193,14.3807,14.3807,0.442332,0.0109717,23.2077,0.0700711,0.0257278,0.0637194,0,0,3.5175,-0.07,-0.875,0.030256,0.030134,-0.949404,-0.2296,0.0602,0.37702
-0.617561,0,0,15.6176,15.6176,14.3824,14.3824,0.441115,0.0120356,23.2104,-0.113026,-0.0112979,-0.0978348,1,0,3.5525,0.1575,-0.98,-0.153598,-0.006832,-1.10971,-0.2296,0.0602,0.37702
-0.61605,0,0,15.6161,15.6161,14.3839,14.3839,0.440036,-0.102393,23.3061,-0.0898907,-0.0129044,-0.0806234,0,0,3.5525,0.175,-1.015,-0.13237,-0.008418,-1.09263,-0.2296,0.0602,0.37702
-0.560854,0,0,15.5609,15.5609,14.4391,14.4391,0.40061,-0.0761914,23.3271,0.0203254,0.034037,0.0814285,0,0,3.535,0.3675,-0.91,-0.021228,0.039162,-0.931836,-0.2296,0.0602,0.37702
-0.558969,0,0,15.559,15.559,14.441,14.441,0.399264,-0.0751848,23.3297,0.165362,0.0492793,0.116346,1,0,3.4825,0.1225,-1.015,0.12444,0.054412,-0.897188,-0.2296,0.0602,0.37702
-0.557084,0,0,15.5571,15.5571,14.4429,14.4429,0.397917,-0.074478,23.3325,-0.103134,-0.0168148,-0.111723,1,0,3.4825,-0.0525,-0.9275,-0.14518,-0.01159,-1.1235,-0.2296,0.0602,0.37702
-0.555592,0,0,15.5556,15.5556,14.4444,14.4444,0.396852,-0.0736213,23.3352,-0.0104553,-0.0277026,-0.179591,1,0,3.64,0.035,-0.9625,-0.052094,-0.022448,-1.19084,-0.2296,0.0602,0.37702
-0.553664,0,0,15.5537,15.5537,14.4463,14.4463,0.395474,-0.0726439,23.3377,0.0677644,0.0357792,0.180157,1,0,3.465,0.105,-1.0675,0.026474,0.040992,-0.83387,-0.22372,0.0595,0.37786
-0.551255,0,0,15.5513,15.5513,14.4487,14.4487,0.393754,-0.0712774,23.3402,0.0746653,0.0911947,0.114011,1,0,3.2725,0.3325,-1.12,0.033428,0.09638,-0.899506,-0.22372,0.0595,0.37786
-0.686844,0,0,15.6868,15.6868,14.3132,14.3132,0.490603,-0.111113,23.3705,-0.0432095,-0.0976327,-0.0524757,0,0,3.3775,0.21,-1.19,-0.085644,-0.09394,-1.06469,-0.22372,0.0595,0.37786
-0.685001,0,0,15.685,15.685,14.315,14.315,0.489287,-0.109959,23.3729,-0.0887868,-0.0389127,-0.181571,1,0,3.5,0.21,-1.155,-0.131394,-0.035258,-1.19279,-0.22372,0.0595,0.37786
-0.673639,0,0,15.6736,15.6736,14.3264,14.3264,0.481171,0.127795,23.2582,0.161333,0.0272605,0.0740391,0,0,3.465,0.1225,-1.015,0.123952,0.030988,-0.939156,-0.22372,0.0595,0.37786
-0.671986,0,0,15.672,15.672,14.328,14.328,0.47999,0.128768,23.2608,-0.0204264,0.0738923,0.13662,1,0,3.57,0.105,-1.015,-0.05856,0.077592,-0.877058,-0.22372,0.0595,0.37786
-0.732979,0,0,15.733,15.733,14.267,14.267,0.523557,-0.0280281,23.3736,-0.122046,-0.0567557,-0.0164551,0,0,3.5875,0.14,-0.9975,-0.163358,-0.05368,-1.02895,-0.22372,0.0595,0.37786
-0.731272,0,0,15.7313,15.7313,14.2687,14.2687,0.522337,-0.0271478,23.3763,-0.126556,-0.0841334,-0.146411,1,0,3.5525,0.0525,-0.945,-0.167872,-0.081008,-1.1579,-0.22372,0.0595,0.37786
-0.727338,0,0,15.7273,15.7273,14.2727,14.2727,0.519527,0.107724,23.3177,0.0971746,0.0140074,0.00395337,0,0,3.5175,0.1575,-0.8225,0.05917,0.01708,-1.0087,-0.2233,0.06258,0.3864
-0.725466,0,0,15.7255,15.7255,14.2745,14.2745,0.51819,0.108303,23.3207,0.13689,0.0498894,0.150631,1,0,3.4825,-0.1225,-0.805,0.099064,0.052948,-0.86315,-0.2233,0.06258,0.3864
-0.723724,0,0,15.7237,15.7237,14.2763,14.2763,0.516946,0.108944,23.3236,-0.145697,0.0154279,0.112763,1,0,3.535,-0.0875,-0.8575,-0.184708,0.018544,-0.900726,-0.2233,0.06258,0.3864
-0.818239,0,0,15.8182,15.8182,14.1818,14.1818,0.584456,-0.0321459,23.4162,-0.11918,-0.0817059,-0.0689644,0,0,3.71,0.1225,-0.805,-0.160552,-0.079666,-1.08104,-0.2233,0.06258,0.3864
-0.850777,0,0,15.8508,15.8508,14.1492,14.1492,0.607698,0.180425,23.3024,0.163573,-0.00301707,-0.0708176,0,0,3.5175,0.0875,-0.8225,0.127124,-0.001464,-1.08287,-0.2233,0.06258,0.3864
-0.84221,0,0,15.8422,15.8422,14.1578,14.1578,0.601579,0.444317,23.1614,0.18776,0.0283846,0.0342793,0,0,3.185,0.245,-0.7525,0.156038,0.030012,-0.978562,-0.2233,0.06258,0.3864
-0.840231,0,0,15.8402,15.8402,14.1598,14.1598,0.600165,0.44549,23.1643,-0.0469712,0.0581588,0.129933,1,0,3.43,0.2275,-0.84,-0.079666,0.05978,-0.883646,-0.2233,0.06258,0.3864
-0.860773,0,0,15.8608,15.8608,14.1392,14.1392,0.614838,0.166643,23.3506,-0.213035,-0.0433164,-0.0196717,0,0,3.4475,0,-0.8225,-0.25132,-0.041846,-1.03212,-0.2233,0.06258,0.3864
-0.859079,0,0,15.8591,15.8591,14.1409,14.1409,0.613628,0.167757,23.3534,0.0745024,-0.0454137,-0.175201,1,0,3.5525,0.1925,-0.8925,0.037454,-0.04392,-1.18645,-0.2233,0.06258,0.3864
-0.864069,0,0,15.8641,15.8641,14.1359,14.1359,0.617192,0.36894,23.2497,0.149714,0.0151011,-0.0237459,0,0,3.57,0,-0.7,0.11651,0.01647,-1.03615,-0.2268,0.06146,0.38598
-0.86283,0,0,15.8628,15.8628,14.1372,14.1372,0.616307,0.369692,23.2529,-0.0203793,0.0862855,0.126374,1,0,3.7275,-0.0175,-0.6825,-0.05429,0.087596,-0.887184,-0.2268,0.06146,0.38598
-0.780149,0,0,15.7801,15.7801,14.2199,14.2199,0.557249,0.0738154,23.4671,-0.196836,0.0228483,0.0775943,0,0,3.7275,-0.0175,-0.945,-0.23668,0.025254,-0.935618,-0.2268,0.06146,0.38598
-0.778405,0,0,15.7784,15.7784,14.2216,14.2216,0.556003,0.074873,23.4699,-0.0985729,-0.0857441,-0.139901,1,0,3.535,0.1575,-0.9275,-0.137982,-0.083204,-1.15144,-0.2268,0.06146,0.38598
-0.821873,0,0,15.8219,15.8219,14.1781,14.1781,0.587052,0.301646,23.344,0.172999,-0.00887318,-0.063077,0,0,3.465,0.07,-0.9975,0.138714,-0.006954,-1.07519,-0.2268,0.06146,0.38598
-0.819882,0,0,15.8199,15.8199,14.1801,14.1801,0.58563,0.302673,23.3468,0.0761567,0.0942991,0.137452,1,0,3.43,0.14,-0.9625,0.04148,0.096136,-0.876204,-0.2268,0.06146,0.38598
-0.6857,0,0,15.6857,15.6857,14.3143,14.3143,0.489786,0.153386,23.481,-0.0909533,0.0652701,0.0898971,0,0,3.395,0.175,-0.9975,-0.128954,0.068808,-0.923418,-0.2268,0.06146,0.38598
-0.683611,0,0,15.6836,15.6836,14.3164,14.3164,0.488293,0.154778,23.4834,-0.188409,-0.109886,-0.102025,1,0,3.395,0.35,-1.12,-0.226798,-0.10614,-1.11386,-0.2268,0.06146,0.38598
-0.681784,0,0,15.6818,15.6818,14.3182,14.3182,0.486988,0.15614,23.486,-0.188433,-0.109908,-0.102025,1,0,3.5,0.3325,-1.0675,-0.226798,-0.10614,-1.11386,-0.2212,0.06006,0.38346
-0.635081,0,0,15.6351,15.6351,14.3649,14.3649,0.453629,0.482721,23.3167,0.222442,0.0558457,0.103887,0,0,3.5175,0.3325,-0.9625,0.19154,0.060024,-0.90951,-0.2212,0.06006,0.38346
-0.587724,0,0,15.5877,15.5877,14.4123,14.4123,0.419803,0.801543,23.1477,0.216878,0.0552549,0.103829,0,0,3.395,0.0175,-1.0675,0.19154,0.060024,-0.90951,-0.2212,0.06006,0.38346
-0.585853,0,0,15.5859,15.5859,14.4141,14.4141,0.418467,0.802608,23.1504,-0.236647,-0.0762989,-0.0824384,1,0,3.465,0.1575,-0.9625,-0.263886,-0.07137,-1.09434,-0.2212,0.06006,0.38346
-0.584375,0,0,15.5844,15.5844,14.4156,14.4156,0.417411,0.803494,23.1531,-0.236663,-0.0763174,-0.0824385,1,0,3.6225,0.0525,-0.9975,-0.263886,-0.07137,-1.09434,-0.2212,0.06006,0.38346
-0.615469,0,0,15.6155,15.6155,14.3845,14.3845,0.43962,1.12938,22.9624,0.217717,0.0090697,0.0946315,0,0,3.6225,0.2625,-1.085,0.198128,0.013542,-0.918538,-0.2212,0.06006,0.38346
-0.64485,0,0,15.6449,15.6449,14.3551,14.3551,0.460607,1.44792,22.7727,0.212159,0.0094349,0.0945036,0,0,3.6925,0.2975,-1.1375,0.198128,0.013542,-0.918538,-0.2212,0.06006,0.38346
-0.643489,0,0,15.6435,15.6435,14.3565,14.3565,0.459635,1.44908,22.775,-0.266272,0.0384841,-0.102091,1,0,3.6575,0.21,-1.2075,-0.282308,0.042578,-1.11362,-0.2212,0.06006,0.38346
-0.64166,0,0,15.6417,15.6417,14.3583,14.3583,0.458328,1.4505,22.7776,-0.236169,-0.0107558,-0.238442,1,0,3.465,0.3675,-0.9975,-0.252052,-0.006588,-1.24891,-0.22512,0.05992,0.3843
-0.701964,0,0,15.702,15.702,14.298,14.298,0.501403,1.65536,22.6496,0.133461,-0.0196531,0.0705476,0,0,3.4475,0.2975,-0.8925,0.122732,-0.016226,-0.942206,-0.22512,0.05992,0.3843
-0.700382,0,0,15.7004,15.7004,14.2996,14.2996,0.500273,1.65642,22.6526,0.197952,-0.00269722,0.272306,1,0,3.5525,0.1575,-0.77,0.187514,0.000732,-0.742004,-0.22512,0.05992,0.3843
-0.680925,0,0,15.6809,15.6809,14.3191,14.3191,0.486375,1.7892,22.5798,0.0979608,0.0241719,-0.00144525,0,0,3.5875,0.1225,-0.84,0.089426,0.027816,-1.01358,-0.22512,0.05992,0.3843
-0.678736,0,0,15.6787,15.6787,14.3213,14.3213,0.484812,1.79038,22.5828,-0.277086,-0.0115164,-0.260375,1,0,3.3075,0.2275,-0.84,-0.287188,-0.007808,-1.27051,-0.22512,0.05992,0.3843
-0.676889,0,0,15.6769,15.6769,14.3231,14.3231,0.483492,1.79141,22.5855,-0.287187,-0.0353541,-0.108534,1,0,3.4475,0.14,-0.945,-0.297314,-0.031598,-1.11984,-0.22512,0.05992,0.3843
-0.675275,0,0,15.6753,15.6753,14.3247,14.3247,0.482339,1.79232,22.5886,0.145893,0.00749223,0.191829,1,0,3.535,0.07,-0.7525,0.137616,0.011224,-0.821792,-0.22512,0.05992,0.3843
-0.673962,0,0,15.674,15.674,14.326,14.326,0.481401,1.79326,22.5916,0.174061,0.00381206,0.368751,1,0,3.6575,0.0875,-0.8225,0.16592,0.007564,-0.646234,-0.22512,0.05992,0.3843
-0.672037,0,0,15.672,15.672,14.328,14.328,0.480026,1.79465,22.5945,-0.152759,-0.0148973,-0.11038,1,0,3.4125,0.35,-0.8225,-0.16226,-0.011102,-1.12167,-0.22512,0.05992,0.3843
-0.670772,0,0,15.6708,15.6708,14.3292,14.3292,0.479123,1.79631,22.5976,-0.232969,-0.0294462,-0.320376,1,0,3.675,0.5075,-0.77,-0.24278,-0.02562,-1.33004,-0.22246,0.06062,0.38122
-0.632112,0,0,15.6321,15.6321,14.3679,14.3679,0.451508,1.87253,22.5616,0.0558094,0.0304024,0.0143736,0,0,3.2375,0.4375,-0.7875,0.048556,0.034648,-0.997838,-0.22246,0.06062,0.38122
-0.630194,0,0,15.6302,15.6302,14.3698,14.3698,0.450138,1.8738,22.5646,0.130501,0.0247607,0.312523,1,0,3.4125,0.28,-0.805,0.123586,0.029036,-0.701988,-0.22246,0.06062,0.38122
-0.673181,0,0,15.6732,15.6732,14.3268,14.3268,0.480844,1.80026,22.6079,-0.0561546,-0.0339349,0.0579336,0,0,3.325,0.28,-0.8925,-0.065148,-0.030134,-0.95465,-0.22246,0.06062,0.38122
-0.671114,0,0,15.6711,15.6711,14.3289,14.3289,0.479367,1.80186,22.6106,-0.171837,-0.042998,-0.261241,1,0,3.36,0.4725,-0.98,-0.181292,-0.039162,-1.27136,-0.22246,0.06062,0.38122
-0.669403,0,0,15.6694,15.6694,14.3306,14.3306,0.478145,1.80334,22.6134,0.0127956,0.0380728,-0.154891,1,0,3.5,0.4025,-0.8925,0.004148,0.041846,-1.16583,-0.22246,0.06062,0.38122
-0.668269,0,0,15.6683,15.6683,14.3317,14.3317,0.477335,1.80464,22.6165,0.102308,0.056622,0.150266,1,0,3.7275,0.2975,-0.77,0.094062,0.06039,-0.863028,-0.22246,0.06062,0.38122
-0.666412,0,0,15.6664,15.6664,14.3336,14.3336,0.476009,1.80561,22.619,-0.0415481,-0.0143568,0.270386,1,0,3.4475,0.105,-1.085,-0.050386,-0.010492,-0.743834,-0.22246,0.06062,0.38122
-0.72135,0,0,15.7213,15.7213,14.2787,14.2787,0.51525,1.61908,22.7336,-0.147024,-0.0577592,-0.0411967,0,0,3.5175,0.1225,-1.085,-0.159576,-0.054534,-1.0531,-0.22246,0.05894,0.385
-0.719319,0,0,15.7193,15.7193,14.2807,14.2807,0.513799,1.62038,22.7365,-0.0277473,0.0104843,-0.279963,1,0,3.3775,0.2975,-0.91,-0.039772,0.013664,-1.29003,-0.22246,0.05894,0.385
-0.636563,0,0,15.6366,15.6366,14.3634,14.3634,0.454688,1.75457,22.6756,0.111442,0.0691725,-0.0549046,0,0,3.5,0.2975,-0.77,0.102358,0.073322,-1.06665,-0.22246,0.05894,0.385
-0.635031,0,0,15.635,15.635,14.365,14.365,0.453593,1.7553,22.6786,-0.0347176,0.020547,0.325867,1,0,3.57,-0.035,-0.7875,-0.044408,0.024766,-0.688812,-0.22246,0.05894,0.385
-0.633224,0,0,15.6332,15.6332,14.3668,14.3668,0.452303,1.75612,22.6813,-0.129855,-0.0455461,0.149312,1,0,3.465,0.0175,-0.9625,-0.139934,-0.041236,-0.864004,-0.22246,0.05894,0.385
-0.631676,0,0,15.6317,15.6317,14.3683,14.3683,0.451197,1.7571,22.684,-0.093791,-0.062541,-0.260967,1,0,3.57,0.105,-0.9975,-0.1037,-0.058194,-1.27112,-0.22246,0.05894,0.385
-0.630298,0,0,15.6303,15.6303,14.3697,14.3697,0.450213,1.75813,22.6865,0.0737197,0.0405168,-0.157076,1,0,3.64,0.14,-1.085,0.064538,0.044774,-1.16803,-0.22246,0.05894,0.385
-0.628965,0,0,15.629,15.629,14.371,14.371,0.449261,1.75917,22.6891,0.0724868,0.0882517,0.311726,1,0,3.6575,0.14,-1.05,0.063318,0.092476,-0.702842,-0.22246,0.05894,0.385
-0.627239,0,0,15.6272,15.6272,14.3728,14.3728,0.448028,1.75969,22.6917,-0.126516,-0.0557572,0.139475,1,0,3.5,-0.1575,-1.05,-0.136518,-0.051362,-0.873764,-0.22736,0.0588,0.38192
-0.626115,0,0,15.6261,15.6261,14.3739,14.3739,0.447225,1.76037,22.694,-0.0734385,-0.0999811,-0.192855,1,0,3.745,-0.07,-1.19,-0.083204,-0.095526,-1.20353,-0.22736,0.0588,0.38192
-0.549486,0,0,15.5495,15.5495,14.4505,14.4505,0.39249,1.84872,22.6568,0.0789426,0.0622251,-0.0909722,0,0,3.43,-0.105,-1.0325,0.07137,0.067466,-1.10239,-0.22736,0.0588,0.38192
-0.54812,0,0,15.5481,15.5481,14.4519,14.4519,0.391514,1.84958,22.6595,-0.108525,0.111059,0.27025,1,0,3.64,0.035,-0.9975,-0.116876,0.116266,-0.743956,-0.22736,0.0588,0.38192
-0.546397,0,0,15.5464,15.5464,14.4536,14.4536,0.390283,1.85083,22.662,-0.250806,-0.0676341,0.218488,1,0,3.5,0.2625,-1.085,-0.259738,-0.06222,-0.795318,-0.22736,0.0588,0.38192
-0.544856,0,0,15.5449,15.5449,14.4551,14.4551,0.389183,1.8521,22.6646,0.0680714,-0.127373,-0.264331,1,0,3.57,0.28,-0.9975,0.060512,-0.121878,-1.27441,-0.22736,0.0588,0.38192
-0.542756,0,0,15.5428,15.5428,14.4572,14.4572,0.387683,1.85338,22.6675,0.213103,0.0184198,-0.27429,1,0,3.3425,0.28,-0.875,0.20618,0.02379,-1.28429,-0.22736,0.0588,0.38192
-0.540311,0,0,15.5403,15.5403,14.4597,14.4597,0.385936,1.85459,22.6705,-0.0456826,0.155538,0.237913,1,0,3.2025,0.245,-0.8225,-0.05368,0.160796,-0.776042,-0.22736,0.0588,0.38192
-0.53769,0,0,15.5377,15.5377,14.4623,14.4623,0.384064,1.85583,22.6734,-0.346503,0.0190895,0.348812,1,0,3.1325,0.2625,-0.84,-0.355752,0.024522,-0.665998,-0.22386,0.05852,0.38808
-0.535113,0,0,15.5351,15.5351,14.4649,14.4649,0.382223,1.85717,22.6763,-0.156765,-0.164866,-0.213309,1,0,3.15,0.315,-0.84,-0.165188,-0.15921,-1.22378,-0.22386,0.05852,0.38808
-0.533353,0,0,15.5334,15.5334,14.4666,14.4666,0.380967,1.85844,22.679,0.216173,-0.117624,-0.36466,1,0,3.4825,0.28,-0.9975,0.209352,-0.111996,-1.37396,-0.22386,0.05852,0.38808
-0.274529,0,0,15.2745,15.2745,14.7255,14.7255,0.196092,2.17529,22.5282,0.232393,0.187642,0.113555,0,0,3.5175,0.1575,-0.91,0.23119,0.196176,-0.899262,-0.22386,0.05852,0.38808
-0.272709,0,0,15.2727,15.2727,14.7273,14.7273,0.194792,2.17636,22.531,-0.15796,0.151348,0.366336,1,0,3.4475,0.1575,-0.9275,-0.160796,0.159942,-0.64843,-0.22386,0.05852,0.38808
-0.394103,0,0,15.3941,15.3941,14.6059,14.6059,0.281502,1.65723,22.842,-0.405603,-0.134136,0.0536059,0,0,3.4475,0.385,-0.77,-0.418582,-0.126758,-0.959042,-0.22386,0.05852,0.38808
-0.392602,0,0,15.3926,15.3926,14.6074,14.6074,0.28043,1.65845,22.8449,-0.0966865,-0.239062,-0.282413,1,0,3.5875,0.245,-0.875,-0.108336,-0.231556,-1.29247,-0.22386,0.05852,0.38808
-0.390878,0,0,15.3909,15.3909,14.6091,14.6091,0.279199,1.65985,22.8477,0.494317,0.133037,-0.244422,1,0,3.5,0.35,-0.9275,0.485194,0.140178,-1.25477,-0.22386,0.05852,0.38808
-0.388988,0,0,15.389,15.389,14.611,14.611,0.277849,1.66083,22.8507,0.16556,0.219479,0.169914,1,0,3.43,0.105,-0.805,0.155062,0.226554,-0.84363,-0.22386,0.05852,0.38808
-0.387003,0,0,15.387,15.387,14.613,14.613,0.276431,1.66187,22.8535,-0.604556,-0.0062359,0.359377,1,0,3.395,0.14,-0.91,-0.618296,0.001098,-0.655628,-0.22722,0.06076,0.38262
-0.569367,0,0,15.5694,15.5694,14.4306,14.4306,0.406691,1.101,23.1735,-0.451903,-0.18703,0.0551789,0,0,3.0975,-0.0875,-1.0325,-0.474824,-0.18178,-0.9577,-0.22722,0.06076,0.38262
-0.56668,0,0,15.5667,15.5667,14.4333,14.4333,0.404772,1.1015,23.176,0.441251,-0.0698216,-0.405386,1,0,3.1325,-0.175,-1.085,0.42212,-0.06466,-1.41471,-0.22722,0.06076,0.38262
-0.564791,0,0,15.5648,15.5648,14.4352,14.4352,0.403422,1.10239,23.1789,0.582645,0.166226,-0.21789,1,0,3.4475,0.0525,-0.8575,0.564128,0.171166,-1.22866,-0.22722,0.06076,0.38262
-0.563026,0,0,15.563,15.563,14.437,14.437,0.402162,1.10351,23.1815,-0.44733,0.13384,0.427344,1,0,3.5,0.1925,-0.9975,-0.470188,0.138836,-0.588406,-0.22722,0.06076,0.38262
-0.56073,0,0,15.5607,15.5607,14.4393,14.4393,0.400521,1.10467,23.1839,-0.654848,-0.0365551,0.368451,1,0,3.29,0.21,-1.155,-0.678564,-0.031354,-0.646844,-0.22722,0.06076,0.38262
-0.558568,0,0,15.5586,15.5586,14.4414,14.4414,0.398977,1.10624,23.1864,0.177909,-0.247495,-0.247644,1,0,3.3425,0.455,-1.085,0.157746,-0.242048,-1.25819,-0.22722,0.06076,0.38262
-0.556498,0,0,15.5565,15.5565,14.4435,14.4435,0.397499,1.1077,23.1891,0.6077,-0.0368521,-0.444977,1,0,3.3775,0.385,-0.9975,0.589382,-0.031598,-1.454,-0.22722,0.06076,0.38262
-0.554519,0,0,15.5545,15.5545,14.4455,14.4455,0.396085,1.10897,23.1919,0.0635431,0.214826,0.136078,1,0,3.4125,0.28,-0.91,0.042944,0.219844,-0.877424,-0.2282,0.0581,0.378
-0.552532,0,0,15.5525,15.5525,14.4475,14.4475,0.394666,1.11004,23.1944,-0.657493,0.107574,0.406195,1,0,3.4125,0.1575,-1.085,-0.681126,0.112728,-0.60939,-0.2282,0.0581,0.378
-0.822588,0,0,15.8226,15.8226,14.1774,14.1774,0.587563,0.728515,23.394,-0.296461,-0.211107,0.0911563,0,0,3.4825,0.1225,-1.0675,-0.325252,-0.208986,-0.922076,-0.2282,0.0581,0.378
-0.820406,0,0,15.8204,15.8204,14.1796,14.1796,0.586004,0.729034,23.3967,0.287997,-0.216508,-0.238468,1,0,3.3425,-0.1575,-0.9625,0.26169,-0.214354,-1.24916,-0.2282,0.0581,0.378
-0.81774,0,0,15.8177,15.8177,14.1823,14.1823,0.5841,0.729974,23.3992,0.498759,0.185012,-0.26355,1,0,3.15,0.0875,-1.1025,0.47336,0.186782,-1.27405,-0.2282,0.0581,0.378
-0.815512,0,0,15.8155,15.8155,14.1845,14.1845,0.582508,0.731033,23.4017,0.49874,0.184984,-0.26355,1,0,3.325,0.1575,-1.085,0.47336,0.186782,-1.27405,-0.2282,0.0581,0.378
-0.749819,0,0,15.7498,15.7498,14.2502,14.2502,0.535585,-0.237184,24.0146,-0.658035,-0.0515387,0.359265,0,0,3.3425,0.1925,-0.945,-0.705282,-0.048678,-0.656116,-0.2282,0.0581,0.378
-0.685871,0,0,15.6859,15.6859,14.3141,14.3141,0.489908,-1.18678,24.6201,-0.641463,-0.0523376,0.359066,0,0,3.71,0.28,-0.9975,-0.705282,-0.048678,-0.656116,-0.2282,0.0581,0.378
-0.684304,0,0,15.6843,15.6843,14.3157,14.3157,0.488788,-1.1853,24.6229,0.72316,0.0251933,-0.414771,1,0,3.64,0.4025,-0.9275,0.665144,0.028792,-1.42398,-0.22078,0.05712,0.37744
-0.682645,0,0,15.6826,15.6826,14.3174,14.3174,0.487603,-1.18412,24.6258,0.723139,0.0251726,-0.41477,1,0,3.605,0.2275,-0.84,0.665144,0.028792,-1.42398,-0.22078,0.05712,0.37744
-0.355635,0,0,15.3556,15.3556,14.6444,14.6444,0.254025,-2.16977,25.32,-0.641808,0.100233,0.388959,0,0,3.7275,0.245,-0.91,-0.72285,0.107848,-0.625982,-0.22078,0.05712,0.37744
-0.0312373,0,0,15.0312,15.0312,14.9688,14.9688,0.0223124,-3.13671,26.0113,-0.62495,0.0961913,0.388187,0,0,3.57,0.2275,-0.9975,-0.72285,0.107848,-0.625982,-0.22078,0.05712,0.37744
-0.0291951,0,0,15.0292,15.0292,14.9708,14.9708,0.0208536,-3.13551,26.0139,0.623659,-0.153339,-0.277086,1,0,3.5,0.2275,-0.98,0.531066,-0.141398,-1.28612,-0.22078,0.05712,0.37744
-0.0268839,0,0,15.0269,15.0269,14.9731,14.9731,0.0192028,-3.13442,26.0167,0.661422,0.0358065,-0.428434,1,0,3.395,0.1575,-0.9275,0.569008,0.04758,-1.43631,-0.22078,0.05712,0.37744
0.332231,0,0,14.6678,14.6678,15.3322,15.3322,-0.237308,-3.65196,26.4662,-0.351013,0.172761,0.104496,0,0,3.43,0.0525,-0.9625,-0.456768,0.188856,-0.906948,-0.22078,0.05712,0.37744
0.610881,0,0,14.3891,14.3891,15.6109,15.6109,-0.436344,-4.6525,27.1783,-0.672177,0.0608556,0.41796,0,0,3.29,0.14,-0.91,-0.796782,0.08052,-0.594628,-0.22078,0.05712,0.37744
0.330218,0,0,14.6698,14.6698,15.3302,15.3302,-0.23587,-4.9385,27.358,-0.259132,-0.218135,0.0375289,0,0,3.465,0,-0.98,-0.386984,-0.201666,-0.97173,-0.22078,0.05712,0.37744
0.333023,0,0,14.667,14.667,15.333,15.333,-0.237873,-4.93743,27.361,0.697549,-0.123521,-0.350618,1,0,3.255,0.14,-0.8225,0.573766,-0.107116,-1.35688,-0.22274,0.05782,0.37534
0.334862,0,0,14.6651,14.6651,15.3349,15.3349,-0.239187,-4.93646,27.3639,0.684776,0.0515857,-0.217341,1,0,3.64,0.0875,-0.84,0.560956,0.067832,-1.22464,-0.22274,0.05782,0.37534
0.336892,0,0,14.6631,14.6631,15.3369,15.3369,-0.240637,-4.93596,27.3666,-0.432172,0.175031,0.292282,1,0,3.5525,-0.1925,-0.98,-0.560712,0.191174,-0.718946,-0.22274,0.05782,0.37534
0.338604,0,0,14.6614,14.6614,15.3386,15.3386,-0.24186,-4.93489,27.3692,-0.578945,-0.00109738,0.570639,1,0,3.675,0.14,-1.0325,-0.708088,0.01525,-0.442738,-0.22274,0.05782,0.37534
0.340516,0,0,14.6595,14.6595,15.3405,15.3405,-0.243226,-4.93356,27.372,0.481359,-0.231452,-0.118732,1,0,3.605,0.2975,-0.91,0.356728,-0.214842,-1.12679,-0.22274,0.05782,0.37534
0.342651,0,0,14.6573,14.6573,15.3427,15.3427,-0.24475,-4.93234,27.3748,0.68349,-0.0884683,-0.583967,1,0,3.5175,0.2275,-0.8925,0.559736,-0.07198,-1.58844,-0.22274,0.05782,0.37534
0.345153,0,0,14.6548,14.6548,15.3452,15.3452,-0.246538,-4.93169,27.3775,-0.0958522,0.23074,-0.148237,1,0,3.36,-0.105,-1.015,-0.222894,0.246928,-1.15607,-0.22274,0.05782,0.37534
0.347958,0,0,14.652,14.652,15.348,15.348,-0.248541,-4.93087,27.3801,-0.595294,0.151078,0.519498,1,0,3.2375,0,-1.0325,-0.724436,0.167384,-0.49349,-0.22274,0.05782,0.37534
0.350478,0,0,14.6495,14.6495,15.3505,15.3505,-0.250341,-4.92986,27.3828,0.0308255,-0.195793,0.35942,1,0,3.36,0.105,-0.9275,-0.095648,-0.179096,-0.652334,-0.22092,0.06342,0.37926
0.352834,0,0,14.6472,14.6472,15.3528,15.3528,-0.252024,-4.9287,27.3857,0.553558,-0.21121,-0.226305,1,0,3.43,0.1925,-0.875,0.429318,-0.194468,-1.23354,-0.22092,0.06342,0.37926
0.354881,0,0,14.6451,14.6451,15.3549,15.3549,-0.253486,-4.9274,27.3886,0.230748,0.116064,-0.567239,1,0,3.5525,0.28,-0.8925,0.105164,0.132492,-1.57185,-0.22092,0.06342,0.37926
0.678662,0,0,14.3213,14.3213,15.6787,15.6787,-0.484758,-5.25663,27.7336,-0.224567,0.173233,0.0268036,0,0,3.395,0.3325,-0.9625,-0.357826,0.193614,-0.981856,-0.22092,0.06342,0.37926
0.68019,0,0,14.3198,14.3198,15.6802,15.6802,-0.48585,-5.25498,27.7363,-0.21925,-0.0419737,0.636999,1,0,3.7625,0.4725,-0.9625,-0.352458,-0.02135,-0.37637,-0.22092,0.06342,0.37926
0.68241,0,0,14.3176,14.3176,15.6824,15.6824,-0.487436,-5.25349,27.7389,0.295216,-0.159121,0.230657,1,0,3.4825,0.385,-0.9975,0.164212,-0.138348,-0.77958,-0.22092,0.06342,0.37926
0.685463,0,0,14.3145,14.3145,15.6855,15.6855,-0.489616,-5.25214,27.742,0.49528,-0.0544962,-0.608711,1,0,3.1675,0.2975,-0.7875,0.365146,-0.033794,-1.61247,-0.22092,0.06342,0.37926
0.688182,0,0,14.3118,14.3118,15.6882,15.6882,-0.491559,-5.25094,27.7451,0.060097,0.100449,-0.454286,1,0,3.3075,0.21,-0.7175,-0.071858,0.121024,-1.45924,-0.22092,0.06342,0.37926
0.691025,0,0,14.309,14.309,15.691,15.691,-0.49359,-5.24974,27.7478,-0.241208,0.0648747,0.582663,1,0,3.2375,0.21,-0.945,-0.374418,0.085522,-0.430294,-0.21882,0.0644,0.38038
0.694369,0,0,14.3056,14.3056,15.6944,15.6944,-0.495978,-5.2486,27.7507,-0.0656813,-0.0527749,0.558567,1,0,3.045,0.175,-0.8575,-0.198128,-0.031964,-0.454206,-0.21882,0.0644,0.38038
0.6978,0,0,14.3022,14.3022,15.6978,15.6978,-0.498428,-5.24791,27.7536,0.476011,-0.132078,-0.414815,1,0,3.01,-0.0875,-0.8575,0.34587,-0.111142,-1.42008,-0.21882,0.0644,0.38038
0.700039,0,0,14.3,14.3,15.7,15.7,-0.500028,-5.24686,27.7564,0.236423,-0.0126656,-0.64067,1,0,3.4825,0.1225,-0.91,0.105286,0.008174,-1.64419,-0.21882,0.0644,0.38038
0.701849,0,0,14.2982,14.2982,15.7018,15.7018,-0.501321,-5.24593,27.7593,-0.271403,0.130933,0.339845,1,0,3.6575,0.0525,-0.875,-0.404674,0.151646,-0.671244,-0.21882,0.0644,0.38038
0.70393,0,0,14.2961,14.2961,15.7039,15.7039,-0.502807,-5.24506,27.7619,-0.170099,0.00462807,0.695782,1,0,3.535,0.0175,-1.0325,-0.302926,0.025498,-0.318054,-0.21882,0.0644,0.38038
0.329074,0,0,14.6709,14.6709,15.3291,15.3291,-0.235053,-4.82868,27.4921,0.294998,-0.208351,-0.0277165,0,0,3.675,0.14,-0.8925,0.17141,-0.191906,-1.03663,-0.21882,0.0644,0.38038
0.330903,0,0,14.6691,14.6691,15.3309,15.3309,-0.236359,-4.82773,27.495,0.377956,-0.103955,-0.650572,1,0,3.64,0.07,-0.8575,0.254736,-0.087596,-1.65469,-0.21882,0.0644,0.38038
0.332673,0,0,14.6673,14.6673,15.3327,15.3327,-0.237624,-4.8267,27.4977,-0.0202916,0.14394,-0.136154,1,0,3.6575,0.1225,-0.9275,-0.14518,0.160064,-1.14424,-0.22162,0.06538,0.38192
0.334717,0,0,14.6653,14.6653,15.3347,15.3347,-0.239083,-4.82587,27.5006,-0.236794,0.125351,0.483507,1,0,3.5525,0,-0.875,-0.362584,0.14152,-0.529358,-0.22162,0.06538,0.38192
0.336426,0,0,14.6636,14.6636,15.3364,15.3364,-0.240304,-4.82513,27.5032,0.120848,-0.160691,0.421296,1,0,3.675,-0.0525,-1.015,-0.003416,-0.144204,-0.59109,-0.22162,0.06538,0.38192
0.338662,0,0,14.6613,14.6613,15.3387,15.3387,-0.241902,-4.82425,27.5059,0.280707,-0.188075,-0.253936,1,0,3.465,0.035,-0.9975,0.157136,-0.171532,-1.26111,-0.22162,0.06538,0.38192
0.341358,0,0,14.6586,14.6586,15.3414,15.3414,-0.243827,-4.82369,27.5087,0.297827,0.100721,-0.55061,1,0,3.29,-0.1575,-0.8925,0.174338,0.116998,-1.5555,-0.22162,0.06538,0.38192
0.546979,0,0,14.453,14.453,15.547,15.547,-0.390699,-4.92515,27.6858,-0.0519881,0.114655,0.0424521,0,0,3.3775,0.2275,-0.9275,-0.17873,0.133468,-0.96685,-0.22162,0.06538,0.38192
0.5494,0,0,14.4506,14.4506,15.5494,15.5494,-0.392428,-4.92395,27.6889,-0.216258,-0.0779687,0.62732,1,0,3.4125,0.21,-0.77,-0.343674,-0.058926,-0.386496,-0.22162,0.06538,0.38192
0.551795,0,0,14.4482,14.4482,15.5518,15.5518,-0.39414,-4.92327,27.6917,0.0450462,-0.169349,0.244582,1,0,3.4125,-0.0875,-0.8925,-0.081252,-0.150182,-0.766282,-0.22162,0.06538,0.38192
0.554213,0,0,14.4458,14.4458,15.5542,15.5542,-0.395866,-4.92228,27.6944,0.411308,0.00672748,-0.702489,1,0,3.395,0.0875,-0.9975,0.286578,0.025742,-1.70605,-0.22162,0.06538,0.38192
0.556455,0,0,14.4435,14.4435,15.5565,15.5565,-0.397468,-4.92112,27.6974,0.211566,0.0853492,-0.375568,1,0,3.4825,0.1925,-0.7875,0.08601,0.10431,-1.38165,-0.22274,0.05768,0.385
0.558697,0,0,14.4413,14.4413,15.5587,15.5587,-0.39907,-4.91981,27.7004,-0.299669,0.0350052,0.641956,1,0,3.4825,0.28,-0.7875,-0.427366,0.054046,-0.371978,-0.22274,0.05768,0.385
0.561005,0,0,14.439,14.439,15.561,15.561,-0.400718,-4.91825,27.7032,-0.117103,-0.06761,0.582328,1,0,3.4475,0.42,-0.8925,-0.244,-0.048434,-0.431148,-0.22274,0.05768,0.385
0.56337,0,0,14.4366,14.4366,15.5634,15.5634,-0.402407,-4.91667,27.7062,0.364317,-0.0907213,-0.521993,1,0,3.43,0.4375,-0.8225,0.239486,-0.071492,-1.52695,-0.22274,0.05768,0.385
0.566297,0,0,14.4337,14.4337,15.5663,15.5663,-0.404498,-4.91556,27.7091,0.367578,0.0377196,-0.701497,1,0,3.2025,0.1575,-0.8575,0.24278,0.056852,-1.70507,-0.22274,0.05768,0.385
0.569267,0,0,14.4307,14.4307,15.5693,15.5693,-0.406619,-4.91428,27.712,-0.119237,0.0497733,0.324879,1,0,3.185,0.2625,-0.8575,-0.246074,0.06893,-0.686616,-0.22274,0.05768,0.385
0.571706,0,0,14.4283,14.4283,15.5717,15.5717,-0.408361,-4.91315,27.7148,-0.195793,0.00748713,0.636801,1,0,3.395,0.175,-0.8925,-0.322934,0.026718,-0.377102,-0.22274,0.05768,0.385
0.30279,0,0,14.6972,14.6972,15.3028,15.3028,-0.216278,-4.63895,27.5629,0.183211,-0.145863,-0.00420466,0,0,3.5175,0.2975,-0.9975,0.062464,-0.129808,-1.01358,-0.22274,0.05768,0.385
0.304137,0,0,14.6959,14.6959,15.3041,15.3041,-0.217241,-4.63758,27.5655,0.310626,-0.0355992,-0.569028,1,0,3.815,0.315,-1.015,0.190442,-0.019642,-1.57404,-0.22274,0.05796,0.37758
0.305954,0,0,14.694,14.694,15.306,15.306,-0.218539,-4.63649,27.5681,0.104932,0.0308152,-0.162559,1,0,3.6225,0.1575,-1.0675,-0.016104,0.046726,-1.17071,-0.22274,0.05796,0.37758
0.308216,0,0,14.6918,14.6918,15.3082,15.3082,-0.220155,-4.63551,27.571,-0.088126,0.0285888,0.46116,1,0,3.465,0.0875,-0.805,-0.209962,0.04453,-0.551806,-0.22274,0.05796,0.37758
0.310129,0,0,14.6899,14.6899,15.3101,15.3101,-0.22152,-4.63444,27.574,-0.0627541,-0.0444668,0.401654,1,0,3.605,0.14,-0.805,-0.184464,-0.028426,-0.610854,-0.22274,0.05796,0.37758
0.312346,0,0,14.6877,14.6877,15.3123,15.3123,-0.223104,-4.63323,27.5766,0.0517858,-0.0945663,-0.195505,1,0,3.465,0.2275,-1.0325,-0.069418,-0.078446,-1.20341,-0.22274,0.05796,0.37758
0.31454,0,0,14.6855,14.6855,15.3145,15.3145,-0.224672,-4.63202,27.5794,0.305913,0.00652738,-0.574554,1,0,3.4825,0.2275,-0.9275,0.185806,0.02257,-1.57953,-0.22274,0.05796,0.37758
0.369772,0,0,14.6302,14.6302,15.3698,15.3698,-0.264123,-4.36518,27.5064,0.224977,0.0689789,-0.0842414,0,0,3.4475,0.175,-0.7525,0.10919,0.085644,-1.09336,-0.22274,0.05796,0.37758
0.372006,0,0,14.628,14.628,15.372,15.372,-0.265718,-4.36405,27.5097,-0.11253,0.0315804,0.632181,1,0,3.4825,0.175,-0.6125,-0.229726,0.048312,-0.38247,-0.22274,0.05796,0.37758
0.374398,0,0,14.6256,14.6256,15.3744,15.3744,-0.267427,-4.36289,27.5128,-0.11255,0.0315506,0.632182,1,0,3.4125,0.1925,-0.7,-0.229726,0.048312,-0.38247,-0.224,0.05684,0.37324
0.376867,0,0,14.6231,14.6231,15.3769,15.3769,-0.269191,-4.3617,27.5159,0.239373,-0.105628,-0.612301,1,0,3.3775,0.21,-0.7525,0.123708,-0.088694,-1.61735,-0.224,0.05684,0.37324
0.379515,0,0,14.6205,14.6205,15.3795,15.3795,-0.271082,-4.3606,27.519,0.239354,-0.105661,-0.6123,1,0,3.3075,0.1575,-0.735,0.123708,-0.088694,-1.61735,-0.224,0.05684,0.37324
0.382025,0,0,14.618,14.618,15.382,15.382,-0.272875,-4.35942,27.5221,0.0682816,0.107296,0.407928,1,0,3.36,0.21,-0.77,-0.048068,0.124074,-0.604998,-0.224,0.05684,0.37324
0.384389,0,0,14.6156,14.6156,15.3844,15.3844,-0.274563,-4.35859,27.525,0.0682671,0.107267,0.407929,1,0,3.4125,0,-0.8575,-0.048068,0.124074,-0.604998,-0.224,0.05684,0.37324
0.386752,0,0,14.6132,14.6132,15.3868,15.3868,-0.276251,-4.35758,27.5279,0.0084786,-0.112224,-0.211607,1,0,3.4125,0.105,-0.8575,-0.108092,-0.09516,-1.21976,-0.224,0.05684,0.37324
0.389255,0,0,14.6107,14.6107,15.3893,15.3893,-0.278039,-4.35627,27.5308,0.25325,-0.128498,-0.519345,1,0,3.36,0.28,-0.805,0.137738,-0.111386,-1.52512,-0.224,0.05684,0.37324
0.446959,0,0,14.553,14.553,15.447,15.447,-0.319256,-3.96494,27.3807,0.313741,0.0788859,0.0159723,0,0,3.2725,0.2275,-0.7875,0.205326,0.096502,-0.994422,-0.224,0.05684,0.37324
0.448985,0,0,14.551,14.551,15.449,15.449,-0.320703,-3.96378,27.3836,0.0409851,0.108538,0.390843,1,0,3.535,0.1925,-0.875,-0.068564,0.126148,-0.622444,-0.224,0.05684,0.37324
0.451084,0,0,14.5489,14.5489,15.4511,15.4511,-0.322203,-3.96283,27.3863,-0.270399,-0.0485436,0.179988,1,0,3.5,0.07,-0.9625,-0.38125,-0.030744,-0.831674,-0.22204,0.0658,0.3871
0.453349,0,0,14.5467,14.5467,15.4533,15.4533,-0.323821,-3.96197,27.3889,-0.0676546,-0.124779,-0.202504,1,0,3.43,0.0175,-1.015,-0.177632,-0.106872,-1.21122,-0.22204,0.0658,0.3871
0.455719,0,0,14.5443,14.5443,15.4557,15.4557,-0.325513,-3.96099,27.3918,0.268115,-0.0411515,-0.281313,1,0,3.395,0.0875,-0.91,0.159576,-0.023302,-1.28942,-0.22204,0.0658,0.3871
0.496507,0,0,14.5035,14.5035,15.4965,15.4965,-0.354648,-3.57823,27.2242,0.290241,0.0617799,0.0789934,0,0,3.3425,0.14,-1.05,0.18849,0.080032,-0.932324,-0.22204,0.0658,0.3871
0.499242,0,0,14.5008,14.5008,15.4992,15.4992,-0.356602,-3.57707,27.2265,-0.048117,0.0847056,0.36276,1,0,3.22,0.1925,-1.2075,-0.15128,0.102968,-0.650748,-0.22204,0.0658,0.3871
0.521736,0,0,14.4783,14.4783,15.5217,15.5217,-0.372668,-3.93222,27.4933,-0.275063,-0.0273176,0.0466202,0,0,3.0275,0.1925,-0.9975,-0.385398,-0.008662,-0.964044,-0.22204,0.0658,0.3871
0.524796,0,0,14.4752,14.4752,15.5248,15.5248,-0.374854,-3.9307,27.4961,-0.00684892,-0.100876,-0.435705,1,0,3.115,0.4025,-0.945,-0.116022,-0.082106,-1.44265,-0.22204,0.0658,0.3871
0.527108,0,0,14.4729,14.4729,15.5271,15.5271,-0.376506,-3.92924,27.4987,0.402897,0.00326941,-0.191528,1,0,3.4125,0.3675,-0.98,0.295484,0.02196,-1.20036,-0.22204,0.0658,0.3871
0.529458,0,0,14.4705,14.4705,15.5295,15.5295,-0.378184,-3.92805,27.5014,0.26256,0.0656469,0.193179,1,0,3.395,0.21,-1.015,0.154574,0.084302,-0.81862,-0.22442,0.05866,0.37954
0.532035,0,0,14.468,14.468,15.532,15.532,-0.380025,-3.92685,27.5041,-0.25171,0.0270228,0.306662,1,0,3.3075,0.21,-0.9625,-0.361852,0.04575,-0.706014,-0.22442,0.05866,0.37954
0.517572,0,0,14.4824,14.4824,15.5176,15.5176,-0.369694,-4.16566,27.7031,-0.202116,-0.0397208,-0.0279281,0,0,3.43,0.2625,-0.98,-0.316224,-0.021106,-1.03773,-0.22442,0.05866,0.37954
0.519818,0,0,14.4802,14.4802,15.5198,15.5198,-0.371298,-4.16399,27.7058,0.331663,-0.0812719,-0.410665,1,0,3.4475,0.49,-0.945,0.219844,-0.062586,-1.41752,-0.22442,0.05866,0.37954
0.522466,0,0,14.4775,14.4775,15.5225,15.5225,-0.37319,-4.1625,27.7086,0.371849,-0.00387646,-0.145217,1,0,3.29,0.385,-0.8925,0.260226,0.014762,-1.15412,-0.22442,0.05866,0.37954
0.52478,0,0,14.4752,14.4752,15.5248,15.5248,-0.374843,-4.16133,27.7116,-0.109012,0.0660734,0.412232,1,0,3.43,0.1925,-0.805,-0.22265,0.084668,-0.600972,-0.22442,0.05866,0.37954
0.52716,0,0,14.4728,14.4728,15.5272,15.5272,-0.376543,-4.15996,27.7144,-0.233559,0.0532205,0.350637,1,0,3.395,0.315,-0.9275,-0.3477,0.071858,-0.662094,-0.22442,0.05866,0.37954
0.529537,0,0,14.4705,14.4705,15.5295,15.5295,-0.378241,-4.1585,27.7171,0.112771,-0.15931,-0.305046,1,0,3.395,0.3675,-0.945,0.000122,-0.140422,-1.31272,-0.22442,0.05866,0.37954
0.532101,0,0,14.4679,14.4679,15.5321,15.5321,-0.380072,-4.15713,27.72,0.226337,-0.117818,-0.461066,1,0,3.325,0.315,-0.875,0.114192,-0.098942,-1.46754,-0.22624,0.05992,0.38486
0.534026,0,0,14.466,14.466,15.534,15.534,-0.381447,-4.15606,27.7226,0.171771,0.0740187,0.161055,1,0,3.57,0.14,-1.0325,0.059414,0.09272,-0.850218,-0.22624,0.05992,0.38486
0.536338,0,0,14.4637,14.4637,15.5363,15.5363,-0.383098,-4.15525,27.7251,-0.032096,0.116856,0.445066,1,0,3.4125,-0.0175,-1.0675,-0.145302,0.135542,-0.568398,-0.22624,0.05992,0.38486
0.420296,0,0,14.5797,14.5797,15.4203,15.4203,-0.300212,-4.43498,27.9207,-0.223063,-0.1069,0.0645527,0,0,3.3425,-0.035,-0.9975,-0.341966,-0.089426,-0.945622,-0.22624,0.05992,0.38486
0.42272,0,0,14.5773,14.5773,15.4227,15.4227,-0.301943,-4.4343,27.9233,0.0231771,-0.230279,-0.200646,1,0,3.3775,-0.0875,-1.0325,-0.094672,-0.212646,-1.20878,-0.22624,0.05992,0.38486
0.42485,0,0,14.5752,14.5752,15.4248,15.4248,-0.303464,-4.43302,27.926,0.345578,0.00136931,-0.197571,1,0,3.5,0.2625,-0.9625,0.229116,0.018788,-1.20573,-0.22624,0.05992,0.38486
0.540513,0,0,14.4595,14.4595,15.5405,15.5405,-0.386081,-4.16571,27.8581,0.207899,0.0927457,0.100059,0,0,3.2025,0.4025,-1.015,0.095526,0.111508,-0.91073,-0.22624,0.05992,0.38486
0.543159,0,0,14.4568,14.4568,15.5432,15.5432,-0.387971,-4.16434,27.8609,-0.242959,0.0616926,0.398826,1,0,3.29,0.315,-0.91,-0.357216,0.08052,-0.61427,-0.22624,0.05992,0.38486
0.54528,0,0,14.4547,14.4547,15.5453,15.5453,-0.389486,-4.16287,27.8637,-0.0541952,-0.145583,0.140267,1,0,3.5,0.3675,-0.91,-0.167628,-0.126514,-0.870836,-0.224,0.05628,0.37898
0.547716,0,0,14.4523,14.4523,15.5477,15.5477,-0.391226,-4.16156,27.8666,0.449462,-0.0932208,-0.453573,1,0,3.3775,0.28,-0.8575,0.338184,-0.074176,-1.4601,-0.224,0.05628,0.37898
0.550083,0,0,14.4499,14.4499,15.5501,15.5501,-0.392916,-4.16004,27.8696,0.253479,0.0259455,-0.296197,1,0,3.4125,0.4025,-0.7525,0.141398,0.044896,-1.30394,-0.224,0.05628,0.37898
0.552372,0,0,14.4476,14.4476,15.5524,15.5524,-0.394552,-4.15869,27.8724,-0.126916,0.167706,0.380267,1,0,3.43,0.2975,-0.945,-0.240584,0.186538,-0.632692,-0.224,0.05628,0.37898
0.554059,0,0,14.4459,14.4459,15.5541,15.5541,-0.395757,-4.15768,27.8752,-0.291426,0.00659997,0.455144,1,0,3.675,0.105,-0.8925,-0.405772,0.02562,-0.558394,-0.224,0.05628,0.37898
0.555861,0,0,14.4441,14.4441,15.5559,15.5559,-0.397043,-4.1644,27.8783,0.188317,-0.174781,-0.365792,1,0,3.64,-4.4275,-0.77,0.075884,-0.15555,-1.37299,-0.224,0.05628,0.37898
0.558487,0,0,14.4415,14.4415,15.5585,15.5585,-0.398919,-4.16327,27.8813,0.338453,-0.070517,-0.51087,1,0,3.3075,0.175,-0.77,0.226676,-0.051362,-1.51695,-0.224,0.05628,0.37898
0.560845,0,0,14.4392,14.4392,15.5608,15.5608,-0.400603,-4.16192,27.8843,0.0352016,0.173219,0.144201,1,0,3.4125,0.2975,-0.805,-0.077836,0.19215,-0.866932,-0.224,0.05628,0.37898
0.562946,0,0,14.4371,14.4371,15.5629,15.5629,-0.402105,-4.16046,27.8874,-0.134904,0.162812,0.51686,1,0,3.5175,0.3675,-0.77,-0.248636,0.18178,-0.49715,-0.224,0.05628,0.37898
0.307062,0,0,14.6929,14.6929,15.3071,15.3071,-0.21933,-4.32977,27.9798,-0.15346,-0.183655,0.0596585,0,0,3.4825,0.21,-0.805,-0.27023,-0.167506,-0.950624,-0.22834,0.06062,0.38094
0.309748,0,0,14.6903,14.6903,15.3097,15.3097,-0.221248,-4.32819,27.9829,0.217773,-0.195534,-0.455248,1,0,3.29,0.4375,-0.7525,0.102602,-0.17934,-1.46156,-0.22834,0.06062,0.38094
0.312683,0,0,14.6873,14.6873,15.3127,15.3127,-0.223345,-4.32665,27.9859,0.370089,0.0761611,-0.236275,1,0,3.185,0.42,-0.8225,0.25559,0.09211,-1.24428,-0.22834,0.06062,0.38094
0.315,0,0,14.685,14.685,15.315,15.315,-0.225,-4.32582,27.9888,0.128075,0.237095,0.210275,1,0,3.43,0,-0.8575,0.012566,0.252906,-0.801174,-0.22834,0.06062,0.38094
0.316968,0,0,14.683,14.683,15.317,15.317,-0.226405,-4.32479,27.9917,-0.279892,-0.066292,0.460108,1,0,3.57,0.1225,-0.8575,-0.39711,-0.050142,-0.55327,-0.22834,0.06062,0.38094
0.0648285,0,0,14.9352,14.9352,15.0648,15.0648,-0.0463061,-4.45175,28.0598,-0.140403,-0.193345,-0.0378728,0,0,3.3775,0.28,-0.84,-0.25925,-0.180194,-1.04725,-0.22834,0.06062,0.38094
0.067027,0,0,14.933,14.933,15.067,15.067,-0.0478764,-4.45027,28.0628,0.503081,-0.0893199,-0.542697,1,0,3.4825,0.385,-0.84,0.386984,-0.07625,-1.54818,-0.22834,0.06062,0.38094
0.0687948,0,0,14.9312,14.9312,15.0688,15.0688,-0.0491392,-4.4488,28.0658,0.325929,0.145386,-0.200038,1,0,3.6575,0.385,-0.805,0.209108,0.158234,-1.20817,-0.22834,0.06062,0.38094
0.0712925,0,0,14.9287,14.9287,15.0713,15.0713,-0.0509232,-4.44744,28.0686,-0.231471,0.114212,0.585236,1,0,3.36,0.315,-0.875,-0.350628,0.127124,-0.428952,-0.2275,0.056,0.378
0.0736184,0,0,14.9264,14.9264,15.0736,15.0736,-0.0525846,-4.44615,28.0715,-0.391855,-0.1054,0.434626,1,0,3.43,0.28,-0.8575,-0.511668,-0.092232,-0.578402,-0.2275,0.056,0.378
0.0756789,0,0,14.9243,14.9243,15.0757,15.0757,-0.0540563,-4.44494,28.0744,0.254914,-0.197998,-0.478265,1,0,3.535,0.2275,-0.875,0.13786,-0.184708,-1.48425,-0.2275,0.056,0.378
0.0780614,0,0,14.9219,14.9219,15.0781,15.0781,-0.0557581,-4.44346,28.0774,0.48073,-0.00128157,-0.401789,1,0,3.4125,0.385,-0.7875,0.364658,0.011834,-1.40837,-0.2275,0.056,0.378
0.0803303,0,0,14.9197,14.9197,15.0803,15.0803,-0.0573788,-4.44223,28.0802,0.0216143,0.143288,0.371313,1,0,3.4475,0.245,-0.9275,-0.09638,0.156282,-0.641232,-0.2275,0.056,0.378
0.0825425,0,0,14.9175,14.9175,15.0825,15.0825,-0.0589589,-4.44129,28.0829,-0.249315,-0.0615458,0.392092,1,0,3.465,0.07,-0.9975,-0.36844,-0.048312,-0.620614,-0.2275,0.056,0.378
0.0849327,0,0,14.9151,14.9151,15.0849,15.0849,-0.0606662,-4.44059,28.0855,0.0892533,-0.140714,-0.268632,1,0,3.395,-0.07,-0.98,-0.028426,-0.127368,-1.27624,-0.2275,0.056,0.378
0.0874167,0,0,14.9126,14.9126,15.0874,15.0874,-0.0624405,-4.43956,28.0883,0.352616,-0.0540345,-0.367727,1,0,3.36,0.1225,-0.945,0.23607,-0.040748,-1.37457,-0.2275,0.056,0.378
0.0900721,0,0,14.9099,14.9099,15.0901,15.0901,-0.0643372,-4.43839,28.091,0.0575072,0.0907748,0.241607,1,0,3.29,0.21,-0.9625,-0.060268,0.103944,-0.769942,-0.22414,0.05404,0.3794
0.0925657,0,0,14.9074,14.9074,15.0926,15.0926,-0.0661183,-4.43688,28.0939,-0.0887878,-0.002561,0.375377,1,0,3.36,0.4025,-0.8925,-0.207156,0.010736,-0.637206,-0.22414,0.05404,0.3794
0.0948844,0,0,14.9051,14.9051,15.0949,15.0949,-0.0677745,-4.43552,28.0967,0.0479815,-0.104566,-0.216249,1,0,3.43,0.315,-0.8925,-0.069784,-0.091134,-1.22427,-0.22414,0.05404,0.3794
0.0969779,0,0,14.903,14.903,15.097,15.097,-0.0692699,-4.43378,28.0995,0.0479511,-0.104592,-0.216247,1,0,3.5175,0.5425,-0.9275,-0.069784,-0.091134,-1.22427,-0.22414,0.05404,0.3794
0.0987184,0,0,14.9013,14.9013,15.0987,15.0987,-0.0705131,-4.43218,28.1022,0.18994,0.103613,0.191698,1,0,3.6575,0.455,-0.945,0.072834,0.116876,-0.819474,-0.22414,0.05404,0.3794
0.100439,0,0,14.8996,14.8996,15.1004,15.1004,-0.0717424,-4.43085,28.1048,0.189917,0.103591,0.1917,1,0,3.6575,0.2975,-1.05,0.072834,0.116876,-0.819474,-0.22414,0.05404,0.3794
0.102557,0,0,14.8974,14.8974,15.1026,15.1026,-0.0732549,-4.42989,28.1074,-0.063033,-0.070954,-0.106695,1,0,3.5,0.0875,-1.0325,-0.18117,-0.057462,-1.11557,-0.22414,0.05404,0.3794
0.104529,0,0,14.8955,14.8955,15.1045,15.1045,-0.0746634,-4.4288,28.1103,-0.0630519,-0.0709786,-0.106693,1,0,3.57,0.1575,-0.875,-0.18117,-0.057462,-1.11557,-0.22414,0.05404,0.3794
0.188988,0,0,14.811,14.811,15.189,15.189,-0.134991,-4.17933,28.0523,0.201454,0.0790417,0.0388336,0,0,3.57,0.21,-0.77,0.088816,0.093452,-0.971486,-0.22414,0.05404,0.3794
0.191232,0,0,14.8088,14.8088,15.1912,15.1912,-0.136594,-4.17827,28.0555,0.137656,0.0754721,0.369075,1,0,3.465,0.14,-0.7175,0.024766,0.089914,-0.643794,-0.22624,0.05768,0.37464
0.0205181,0,0,14.9795,14.9795,15.0205,15.0205,-0.0146558,-4.17502,28.0711,-0.0131646,-0.107794,0.0496613,0,0,3.3425,0.105,-0.7,-0.126636,-0.095282,-0.96075,-0.22624,0.05768,0.37464
0.0224376,0,0,14.9776,14.9776,15.0224,15.0224,-0.0160269,-4.17417,28.0741,0.0320133,-0.113924,-0.274922,1,0,3.5875,0.0175,-0.8225,-0.081252,-0.101382,-1.28283,-0.22624,0.05768,0.37464
0.104571,0,0,14.8954,14.8954,15.1046,15.1046,-0.0746938,-4.08883,28.1027,0.0752343,0.0678784,-0.093835,0,0,3.57,0.0525,-0.7175,-0.036356,0.081252,-1.10325,-0.22624,0.05768,0.37464
0.106248,0,0,14.8938,14.8938,15.1062,15.1062,-0.0758914,-4.08777,28.1055,0.0891868,0.0635832,0.240217,1,0,3.675,0.14,-0.9275,-0.022326,0.076982,-0.771772,-0.22624,0.05768,0.37464
0.108146,0,0,14.8919,14.8919,15.1081,15.1081,-0.0772472,-4.08641,28.1083,0.0437275,-0.100701,0.243416,1,0,3.5875,0.315,-0.91,-0.067954,-0.087108,-0.7686,-0.22624,0.05768,0.37464
0.110686,0,0,14.8893,14.8893,15.1107,15.1107,-0.0790613,-4.08502,28.1114,0.0937555,-0.123448,-0.167108,1,0,3.3425,0.3325,-0.735,-0.01769,-0.1098,-1.17596,-0.22624,0.05768,0.37464
0.113619,0,0,14.8864,14.8864,15.1136,15.1136,-0.0811562,-4.08361,28.1145,0.103814,-0.0350648,-0.338619,1,0,3.185,0.35,-0.735,-0.007564,-0.021472,-1.34615,-0.22624,0.05768,0.37464
0.281197,0,0,14.7188,14.7188,15.2812,15.2812,-0.200855,-4.07125,28.2098,0.0309505,0.0998775,0.0828586,0,0,3.325,0.2275,-0.735,-0.08052,0.115412,-0.927932,-0.22246,0.05586,0.37492
0.283849,0,0,14.7162,14.7162,15.2838,15.2838,-0.202749,-4.07013,28.2127,0.00201736,0.0558789,0.406091,1,0,3.29,0.175,-0.84,-0.109556,0.071492,-0.607194,-0.22246,0.05586,0.37492
0.0519612,0,0,14.948,14.948,15.052,15.052,-0.0371151,-3.91965,28.1298,0.0907548,-0.129069,0.0544018,0,0,3.535,0.1225,-0.875,-0.017812,-0.116144,-0.956358,-0.22246,0.05586,0.37492
0.0538357,0,0,14.9462,14.9462,15.0538,15.0538,-0.0384541,-3.91857,28.1329,0.162169,-0.0843935,-0.352925,1,0,3.605,0.1575,-0.7175,0.053924,-0.071492,-1.36054,-0.22246,0.05586,0.37492
0.0561064,0,0,14.9439,14.9439,15.0561,15.0561,-0.040076,-3.91751,28.1361,0.0548792,0.104875,-0.159895,1,0,3.4475,0.14,-0.7,-0.053802,0.117608,-1.169,-0.22246,0.05586,0.37492
0.0587645,0,0,14.9412,14.9412,15.0588,15.0588,-0.0419746,-3.9163,28.1392,-0.04148,0.0901865,0.29809,1,0,3.29,0.2275,-0.735,-0.150548,0.102968,-0.714554,-0.22246,0.05586,0.37492
0.0611896,0,0,14.9388,14.9388,15.0612,15.0612,-0.0437069,-3.91507,28.1422,0.0217925,-0.128817,0.284444,1,0,3.3775,0.245,-0.8225,-0.086986,-0.115778,-0.728096,-0.22246,0.05586,0.37492
0.0636468,0,0,14.9364,14.9364,15.0636,15.0636,-0.045462,-3.91362,28.145,0.143132,-0.136297,-0.180177,1,0,3.36,0.3675,-0.8925,0.034892,-0.12322,-1.18913,-0.22246,0.05586,0.37492
0.0656261,0,0,14.9344,14.9344,15.0656,15.0656,-0.0468758,-3.91188,28.1479,0.161081,0.073614,-0.397302,1,0,3.5525,0.5425,-0.875,0.052948,0.086498,-1.40459,-0.22344,0.05712,0.37716
0.236506,0,0,14.7635,14.7635,15.2365,15.2365,-0.168933,-3.8315,28.199,0.0805943,0.117408,0.0215515,0,0,3.5,0.525,-0.84,-0.026474,0.13237,-0.989054,-0.22344,0.05712,0.37716
0.239313,0,0,14.7607,14.7607,15.2393,15.2393,-0.170938,-3.83035,28.2019,-0.0824596,-0.08609,0.414496,1,0,3.22,0.1925,-0.8575,-0.190198,-0.070882,-0.599142,-0.22344,0.05712,0.37716
-0.0275825,0,0,15.0276,15.0276,14.9724,14.9724,0.0197018,-3.77857,28.1623,0.0121265,-0.16777,0.0303464,0,0,3.325,0.175,-0.8575,-0.094306,-0.155794,-0.980392,-0.22344,0.05712,0.37716
-0.0252657,0,0,15.0253,15.0253,14.9747,14.9747,0.0180469,-3.77761,28.1651,0.257268,0.053006,-0.39739,1,0,3.4125,0.0875,-0.8925,0.15189,0.064782,-1.40483,-0.22344,0.05712,0.37716
-0.0230392,0,0,15.023,15.023,14.977,14.977,0.0164565,-3.77653,28.1679,0.0605636,0.209911,-0.168336,1,0,3.4475,0.1575,-0.91,-0.045628,0.221552,-1.17754,-0.22344,0.05712,0.37716
-0.0207607,0,0,15.0208,15.0208,14.9792,14.9792,0.0148291,-3.7752,28.1708,-0.1619,-0.0681998,0.407556,1,0,3.43,0.2975,-0.8575,-0.26901,-0.056242,-0.606096,-0.22344,0.05712,0.37716
-0.0181792,0,0,15.0182,15.0182,14.9818,14.9818,0.0129851,-3.77406,28.1737,0.106442,-0.228218,0.219938,1,0,3.3075,0.1925,-0.875,0.000488,-0.216062,-0.792268,-0.22344,0.05712,0.37716
-0.0159745,0,0,15.016,15.016,14.984,14.984,0.0114103,-3.77274,28.1767,0.304684,-0.0184316,-0.361607,1,0,3.465,0.2975,-0.77,0.199592,-0.006466,-1.36933,-0.22344,0.05712,0.37716
-0.0139966,0,0,15.014,15.014,14.986,14.986,0.00999759,-3.77141,28.1797,0.0986211,0.197586,-0.305295,1,0,3.5525,0.2975,-0.8225,-0.00732,0.209352,-1.31345,-0.22204,0.05796,0.38458
-0.0122678,0,0,15.0123,15.0123,14.9877,14.9877,0.00876273,-3.77039,28.1823,-0.300234,0.0427078,0.421209,1,0,3.64,0.1225,-1.015,-0.407846,0.054656,-0.592554,-0.22204,0.05796,0.38458
-0.0102028,0,0,15.0102,15.0102,14.9898,14.9898,0.00728769,-3.76922,28.1853,-0.094458,-0.175558,0.38076,1,0,3.5175,0.21,-0.8225,-0.201178,-0.163358,-0.632692,-0.22204,0.05796,0.38458
-0.00743031,0,0,15.0074,15.0074,14.9926,14.9926,0.00530736,-3.76813,28.1883,0.44905,-0.134436,-0.286357,1,0,3.2375,0.1575,-0.77,0.34465,-0.122244,-1.29466,-0.22204,0.05796,0.38458
-0.00451576,0,0,15.0045,15.0045,14.9955,14.9955,0.00322554,-3.76732,28.1915,0.384284,0.126879,-0.379551,1,0,3.185,0,-0.7,0.279624,0.138836,-1.38714,-0.22204,0.05796,0.38458
-0.0018198,0,0,15.0018,15.0018,14.9982,14.9982,0.00129986,-3.76602,28.1947,-0.296423,0.142477,0.280069,1,0,3.2725,0.28,-0.7,-0.403942,0.154452,-0.73261,-0.22204,0.05796,0.38458
0.000600031,0,0,14.9994,14.9994,15.0006,15.0006,-0.000428594,-3.76431,28.1977,-0.339094,-0.0495359,0.505682,1,0,3.3775,0.525,-0.7875,-0.446764,-0.037332,-0.50874,-0.22204,0.05796,0.38458
0.00299212,0,0,14.997,14.997,15.003,15.003,-0.00213723,-3.76269,28.2004,0.330993,-0.227382,-0.181476,1,0,3.3775,0.4725,-0.9625,0.226188,-0.214964,-1.1906,-0.22204,0.05796,0.38458
0.00529394,0,0,14.9947,14.9947,15.0053,15.0053,-0.00378139,-3.76148,28.2031,0.462176,-0.0234591,-0.434748,1,0,3.4125,0.2275,-0.98,0.357948,-0.011224,-1.44192,-0.22666,0.05768,0.3836
0.430849,0,0,14.5692,14.5692,15.4308,15.4308,-0.307749,-3.8976,28.4366,-0.0511601,0.242736,0.110724,0,0,3.3775,0.3675,-0.8225,-0.159942,0.259982,-0.900482,-0.22666,0.05768,0.3836
0.432619,0,0,14.5674,14.5674,15.4326,15.4326,-0.309014,-3.89647,28.4396,-0.380892,0.080163,0.496169,1,0,3.64,0.175,-0.805,-0.49105,0.0976,-0.518012,-0.22666,0.05768,0.3836
0.033384,0,0,14.9666,14.9666,15.0334,15.0334,-0.0238457,-3.89045,28.39,-0.039622,-0.268062,0.0205029,0,0,3.535,0.245,-0.8575,-0.14823,-0.255224,-0.99003,-0.22666,0.05768,0.3836
0.0358509,0,0,14.9641,14.9641,15.0359,15.0359,-0.0256078,-3.88921,28.3929,0.425768,-0.191519,-0.393586,1,0,3.36,0.245,-0.8225,0.319152,-0.17873,-1.40093,-0.22666,0.05768,0.3836
0.0377383,0,0,14.9623,14.9623,15.0377,15.0377,-0.0269559,-3.88792,28.3958,0.308755,0.231016,-0.14277,1,0,3.5875,0.28,-0.8925,0.201666,0.24339,-1.15205,-0.22666,0.05768,0.3836
0.0401881,0,0,14.9598,14.9598,15.0402,15.0402,-0.0287058,-3.88737,28.3985,-0.120099,0.20656,0.336115,1,0,3.36,-0.1575,-0.9275,-0.228994,0.21899,-0.676856,-0.22666,0.05768,0.3836
0.0430396,0,0,14.957,14.957,15.043,15.043,-0.0307426,-3.88664,28.4014,-0.372681,-0.16584,0.307592,1,0,3.2025,-0.0525,-0.875,-0.482632,-0.152988,-0.70516,-0.22666,0.05768,0.3836
0.0453667,0,0,14.9546,14.9546,15.0454,15.0454,-0.0324048,-3.88561,28.4043,0.0617344,-0.258075,-0.204364,1,0,3.4125,0.1225,-0.875,-0.04636,-0.245098,-1.21317,-0.22414,0.0553,0.38262
0.0477345,0,0,14.9523,14.9523,15.0477,15.0477,-0.0340961,-3.88456,28.4071,0.664406,0.107666,-0.429359,1,0,3.395,0.14,-0.8925,0.558882,0.120292,-1.43643,-0.22414,0.0553,0.38262
0.353675,0,0,14.6463,14.6463,15.3537,15.3537,-0.252625,-3.61082,28.3748,0.25327,0.231359,0.0450334,0,0,3.6575,0.105,-1.0675,0.150792,0.24766,-0.965996,-0.22414,0.0553,0.38262
0.355169,0,0,14.6448,14.6448,15.3552,15.3552,-0.253692,-3.6094,28.3774,-0.561317,-0.000333733,0.475478,1,0,3.7275,0.35,-1.05,-0.667218,0.016226,-0.538874,-0.22414,0.0553,0.38262
0.137372,0,0,14.8626,14.8626,15.1374,15.1374,-0.0981232,-4.07289,28.6446,-0.377456,-0.196201,0.14495,0,0,3.5875,0.42,-1.0325,-0.490684,-0.182146,-0.866322,-0.22414,0.0553,0.38262
0.13889,0,0,14.8611,14.8611,15.1389,15.1389,-0.0992071,-4.07168,28.6471,0.637779,-0.10206,-0.489586,1,0,3.7275,0.2275,-1.085,0.52887,-0.088084,-1.49596,-0.22414,0.0553,0.38262
0.140953,0,0,14.859,14.859,15.141,15.141,-0.100681,-4.07086,28.6498,0.674696,0.133252,-0.316104,1,0,3.5175,0,-0.9625,0.565958,0.14701,-1.32382,-0.22414,0.0553,0.38262
0.142922,0,0,14.8571,14.8571,15.1429,15.1429,-0.102087,-4.06992,28.6525,-0.382488,0.159974,0.443719,1,0,3.5525,0.07,-0.9975,-0.495686,0.173728,-0.569862,-0.22414,0.0553,0.38262
0.145209,0,0,14.8548,14.8548,15.1452,15.1452,-0.103721,-4.06919,28.6552,-0.607857,-0.0265424,0.436097,1,0,3.43,-0.0525,-0.9275,-0.721996,-0.012566,-0.577426,-0.22778,0.05698,0.3822
0.147537,0,0,14.8525,14.8525,15.1475,15.1475,-0.105384,-4.06831,28.658,0.307644,-0.262642,-0.333806,1,0,3.4125,0.035,-0.945,0.197396,-0.248392,-1.34139,-0.22778,0.05698,0.3822
0.149673,0,0,14.8503,14.8503,15.1497,15.1497,-0.10691,-4.06725,28.661,0.757973,-0.0576181,-0.496834,1,0,3.5,0.14,-0.7875,0.64965,-0.043554,-1.50316,-0.22778,0.05698,0.3822
0.152048,0,0,14.848,14.848,15.152,15.152,-0.108606,-4.06631,28.6638,0.0584418,0.255241,0.159097,1,0,3.395,0.07,-0.9275,-0.052826,0.26901,-0.852292,-0.22778,0.05698,0.3822
0.154253,0,0,14.8457,14.8457,15.1543,15.1543,-0.110181,-4.06519,28.6666,-0.542567,0.133331,0.488354,1,0,3.465,0.175,-0.8925,-0.65636,0.147254,-0.525576,-0.22778,0.05698,0.3822
-0.224709,0,0,15.2247,15.2247,14.7753,14.7753,0.160506,-4.30878,28.7617,-0.226474,-0.276577,0.099033,0,0,3.4125,0.1925,-0.9625,-0.343186,-0.266936,-0.911584,-0.22778,0.05698,0.3822
-0.221952,0,0,15.222,15.222,14.778,14.778,0.158537,-4.30713,28.7647,0.496581,-0.243515,-0.373333,1,0,3.255,0.49,-0.84,0.382958,-0.233874,-1.38031,-0.22778,0.05698,0.3822
-0.219329,0,0,15.2193,15.2193,14.7807,14.7807,0.156664,-4.30573,28.7676,0.595931,0.236044,-0.312103,1,0,3.3075,0.35,-0.8575,0.482754,0.24522,-1.31955,-0.22778,0.05698,0.3822
-0.216973,0,0,15.217,15.217,14.783,14.783,0.15498,-4.30471,28.7705,-0.112712,0.257997,0.200348,1,0,3.4125,0.1225,-0.875,-0.228872,0.26718,-0.811056,-0.22778,0.05698,0.3822
-0.214488,0,0,15.2145,15.2145,14.7855,14.7855,0.153206,-4.30381,28.7733,-0.621631,-0.146273,0.482393,1,0,3.36,0.0525,-0.8925,-0.73993,-0.13664,-0.531188,-0.22484,0.05866,0.38248
-0.21175,0,0,15.2118,15.2118,14.7882,14.7882,0.15125,-4.30277,28.7761,-0.62165,-0.146307,0.482395,1,0,3.255,0.14,-0.945,-0.73993,-0.13664,-0.531188,-0.22484,0.05866,0.38248
-0.209494,0,0,15.2095,15.2095,14.7905,14.7905,0.149638,-4.30139,28.7788,0.884506,0.0584713,-0.596231,1,0,3.4475,0.3325,-0.945,0.772626,0.067954,-1.60149,-0.22484,0.05866,0.38248
-0.207237,0,0,15.2072,15.2072,14.7928,14.7928,0.148027,-4.30016,28.7816,0.884485,0.0584432,-0.596229,1,0,3.4475,0.245,-0.945,0.772626,0.067954,-1.60149,-0.22484,0.05866,0.38248
0.0385796,0,0,14.9614,14.9614,15.0386,15.0386,-0.0275568,-5.39642,29.5045,-0.721686,0.0221697,0.600659,0,0,3.535,0.28,-0.98,-0.85949,0.03477,-0.412238,-0.22484,0.05866,0.38248
0.283616,0,0,14.7164,14.7164,15.2836,15.2836,-0.202583,-6.47635,30.2218,-0.702939,0.0191353,0.598704,0,0,3.5175,0.315,-0.91,-0.85949,0.03477,-0.412238,-0.22484,0.05866,0.38248
0.286047,0,0,14.714,14.714,15.286,15.286,-0.204319,-6.47514,30.2248,0.767502,-0.166039,-0.48238,1,0,3.4475,0.2275,-0.84,0.617198,-0.150182,-1.48498,-0.22484,0.05866,0.38248
0.288362,0,0,14.7116,14.7116,15.2884,15.2884,-0.205973,-6.47407,30.2275,0.777567,0.105664,-0.541025,1,0,3.4825,0.14,-0.945,0.627324,0.121268,-1.54318,-0.22484,0.05866,0.38248
0.290741,0,0,14.7093,14.7093,15.2907,15.2907,-0.207672,-6.47313,30.2301,-0.418233,0.162668,0.338674,1,0,3.4475,0.07,-1.0325,-0.573522,0.178242,-0.670268,-0.22148,0.05628,0.37884
0.293469,0,0,14.7065,14.7065,15.2935,15.2935,-0.20962,-6.47236,30.233,-0.62295,-0.0325242,0.54695,1,0,3.325,-0.035,-0.875,-0.779092,-0.016714,-0.4636,-0.22148,0.05628,0.37884
0.296347,0,0,14.7037,14.7037,15.2963,15.2963,-0.211677,-6.47163,30.2357,0.377351,-0.240908,-0.0623816,1,0,3.255,-0.0525,-0.9625,0.225456,-0.224846,-1.06823,-0.22148,0.05628,0.37884
0.299172,0,0,14.7008,14.7008,15.2992,15.2992,-0.213694,-6.47074,30.2387,0.795368,-0.0964672,-0.475487,1,0,3.29,0.035,-0.84,0.645258,-0.08052,-1.47815,-0.22148,0.05628,0.37884
0.301821,0,0,14.6982,14.6982,15.3018,15.3018,-0.215586,-6.46944,30.2416,0.586633,0.206741,-0.0572137,1,0,3.36,0.28,-0.84,0.435662,0.222406,-1.06311,-0.22148,0.05628,0.37884
0.304848,0,0,14.6952,14.6952,15.3048,15.3048,-0.217749,-6.4684,30.2447,-0.450387,0.099598,0.380731,1,0,3.22,0.1225,-0.735,-0.60573,0.115412,-0.628544,-0.22148,0.05628,0.37884
0.331378,0,0,14.6686,14.6686,15.3314,15.3314,-0.236698,-7.20137,30.7313,-0.535117,-0.0741443,0.297938,0,0,3.3075,0.1925,-0.84,-0.703574,-0.057828,-0.709186,-0.22148,0.05628,0.37884
0.333741,0,0,14.6663,14.6663,15.3337,15.3337,-0.238386,-7.2,30.7343,0.50915,-0.194713,-0.194222,1,0,3.5,0.315,-0.805,0.345138,-0.178242,-1.19755,-0.22148,0.05628,0.37884
0.335936,0,0,14.6641,14.6641,15.3359,15.3359,-0.239954,-7.19891,30.7371,0.756112,-0.00788584,-0.537615,1,0,3.5525,0.1575,-0.9275,0.593164,0.008418,-1.5383,-0.23002,0.05264,0.378
0.633231,0,0,14.3668,14.3668,15.6332,15.6332,-0.452308,-7.40474,31.0181,-0.121461,0.160273,0.0511986,0,0,3.6925,0.4375,-0.7525,-0.291702,0.180072,-0.953552,-0.23002,0.05264,0.378
0.635608,0,0,14.3644,14.3644,15.6356,15.6356,-0.454006,-7.40327,31.0209,-0.429817,0.0465437,0.473407,1,0,3.4825,0.3675,-0.945,-0.601338,0.06649,-0.534604,-0.23002,0.05264,0.378
0.638149,0,0,14.3619,14.3619,15.6381,15.6381,-0.455821,-7.40196,31.0236,0.16459,-0.206779,0.242881,1,0,3.4125,0.28,-0.98,-0.004392,-0.186538,-0.763354,-0.23002,0.05264,0.378
0.641012,0,0,14.359,14.359,15.641,15.641,-0.457866,-7.40061,31.0263,0.637754,-0.1543,-0.357474,1,0,3.29,0.2975,-0.9275,0.470798,-0.134078,-1.35908,-0.23002,0.05264,0.378
0.643859,0,0,14.3561,14.3561,15.6439,15.6439,-0.459899,-7.39935,31.029,0.287367,0.147685,-0.369766,1,0,3.29,0.245,-0.98,0.11895,0.167628,-1.37128,-0.23002,0.05264,0.378
0.915589,0,0,14.0844,14.0844,15.9156,15.9156,-0.653992,-7.78955,31.4055,-0.2454,0.112216,0.147283,0,0,3.4125,0.5075,-0.9275,-0.422852,0.135542,-0.857294,-0.23002,0.05264,0.378
0.918266,0,0,14.0817,14.0817,15.9183,15.9183,-0.655904,-7.78835,31.4083,-0.190631,-0.113995,0.531623,1,0,3.3775,0.21,-0.91,-0.36783,-0.090402,-0.475922,-0.23002,0.05264,0.378
0.496605,0,0,14.5034,14.5034,15.4966,15.4966,-0.354718,-7.39714,31.1562,0.251248,-0.201609,0.11762,0,0,3.4475,0.28,-0.8925,0.082716,-0.183122,-0.887672,-0.23002,0.05264,0.378
0.499037,0,0,14.501,14.501,15.499,15.499,-0.356455,-7.39595,31.159,0.582276,0.0477434,-0.672937,1,0,3.465,0.21,-0.91,0.415166,0.066002,-1.67213,-0.22722,0.05642,0.3808
0.501261,0,0,14.4987,14.4987,15.5013,15.5013,-0.358044,-7.39494,31.1619,0.144545,0.142975,-0.30704,1,0,3.5525,0.105,-0.875,-0.0244,0.161162,-1.30906,-0.22722,0.05642,0.3808
0.503486,0,0,14.4965,14.4965,15.5035,15.5035,-0.359633,-7.39405,31.1648,-0.275932,0.0546496,0.595035,1,0,3.5525,0.035,-0.875,-0.446642,0.072956,-0.413946,-0.22722,0.05642,0.3808
0.505732,0,0,14.4943,14.4943,15.5057,15.5057,-0.361237,-7.39306,31.1678,-0.0790211,-0.135652,0.524588,1,0,3.5525,0.0875,-0.805,-0.24888,-0.11712,-0.483852,-0.22722,0.05642,0.3808
0.507944,0,0,14.4921,14.4921,15.5079,15.5079,-0.362817,-7.39175,31.1708,0.394872,-0.102583,-0.586372,1,0,3.57,0.28,-0.77,0.227042,-0.084058,-1.58624,-0.22722,0.05642,0.3808
0.51025,0,0,14.4898,14.4898,15.5102,15.5102,-0.364464,-7.39035,31.1739,0.467739,0.0500473,-0.627926,1,0,3.535,0.3325,-0.7525,0.300242,0.068442,-1.62748,-0.22722,0.05642,0.3808
0.512501,0,0,14.4875,14.4875,15.5125,15.5125,-0.366072,-7.38907,31.1767,-0.173242,0.0941072,0.443081,1,0,3.535,0.2625,-0.9275,-0.34343,0.112484,-0.564738,-0.22722,0.05642,0.3808
0.515063,0,0,14.4849,14.4849,15.5151,15.5151,-0.367902,-7.38769,31.1795,-0.175574,0.0255624,0.658613,1,0,3.4125,0.315,-0.91,-0.345748,0.044042,-0.350872,-0.22722,0.05642,0.3808
0.517718,0,0,14.4823,14.4823,15.5177,15.5177,-0.369798,-7.38662,31.1826,0.336105,-0.18807,-0.142394,1,0,3.395,0.14,-0.7525,0.168116,-0.169336,-1.1457,-0.22456,0.05978,0.38486
0.520378,0,0,14.4796,14.4796,15.5204,15.5204,-0.371699,-7.38534,31.1855,0.407152,-0.0297047,-0.706971,1,0,3.3775,0.2625,-0.875,0.239486,-0.011102,-1.70593,-0.22456,0.05978,0.38486
0.523147,0,0,14.4769,14.4769,15.5231,15.5231,-0.373677,-7.38391,31.1883,0.146055,0.0866479,-0.105504,1,0,3.325,0.35,-0.945,-0.022692,0.105164,-1.1091,-0.22456,0.05978,0.38486
0.525638,0,0,14.4744,14.4744,15.5256,15.5256,-0.375456,-7.38245,31.1909,-0.192794,0.103226,0.5117,1,0,3.43,0.3675,-0.9975,-0.36295,0.121756,-0.496662,-0.22456,0.05978,0.38486
0.52814,0,0,14.4719,14.4719,15.5281,15.5281,-0.377243,-7.38095,31.1937,0.0644869,-0.153393,0.375231,1,0,3.43,0.385,-0.9625,-0.104554,-0.134566,-0.632082,-0.22456,0.05978,0.38486
0.53081,0,0,14.4692,14.4692,15.5308,15.5308,-0.37915,-7.37952,31.1966,0.183518,-0.123261,-0.237665,1,0,3.3775,0.35,-0.84,0.015006,-0.104432,-1.24025,-0.22456,0.05978,0.38486
0.533672,0,0,14.4663,14.4663,15.5337,15.5337,-0.381194,-7.3783,31.1994,0.232942,0.0387661,-0.530894,1,0,3.29,0.2275,-0.9275,0.06466,0.057462,-1.53122,-0.22456,0.05978,0.38486
0.624628,0,0,14.3754,14.3754,15.6246,15.6246,-0.446163,-7.28739,31.2533,0.086314,0.0637752,0.047404,0,0,3.255,0.2975,-0.875,-0.081008,0.08357,-0.957578,-0.22456,0.05978,0.38486
0.627134,0,0,14.3729,14.3729,15.6271,15.6271,-0.447953,-7.28599,31.2561,-0.0336167,-0.0309041,0.660428,1,0,3.43,0.3325,-0.9275,-0.201422,-0.01098,-0.349286,-0.2289,0.05474,0.37702
0.629732,0,0,14.3703,14.3703,15.6297,15.6297,-0.449809,-7.28452,31.2589,0.134251,-0.105067,0.304864,1,0,3.395,0.3675,-0.91,-0.032818,-0.085034,-0.70211,-0.2289,0.05474,0.37702
0.632133,0,0,14.3679,14.3679,15.6321,15.6321,-0.451524,-7.28302,31.2618,0.264093,-0.080183,-0.663598,1,0,3.4825,0.385,-0.84,0.0976,-0.060146,-1.6631,-0.2289,0.05474,0.37702
0.634463,0,0,14.3655,14.3655,15.6345,15.6345,-0.453188,-7.28183,31.2648,0.249859,-0.000340968,-0.430608,1,0,3.5175,0.21,-0.7875,0.083326,0.019642,-1.43191,-0.2289,0.05474,0.37702
0.636843,0,0,14.3632,14.3632,15.6368,15.6368,-0.454888,-7.2809,31.2677,0.0118523,0.0658223,0.584579,1,0,3.4825,0.0525,-0.91,-0.155672,0.085766,-0.42456,-0.2289,0.05474,0.37702
0.63984,0,0,14.3602,14.3602,15.6398,15.6398,-0.457028,-7.27988,31.2708,-0.0395538,8.1021e-05,0.564663,1,0,3.255,0.105,-0.7525,-0.207278,0.02013,-0.444324,-0.2289,0.05474,0.37702
0.642824,0,0,14.3572,14.3572,15.6428,15.6428,-0.45916,-7.27871,31.274,0.168652,-0.136982,-0.441053,1,0,3.2725,0.1925,-0.6475,0.00183,-0.116754,-1.44228,-0.2289,0.05474,0.37702
0.645579,0,0,14.3544,14.3544,15.6456,15.6456,-0.461128,-7.27763,31.2772,0.312351,-0.051039,-0.657071,1,0,3.36,0.14,-0.6825,0.146156,-0.030866,-1.65664,-0.2289,0.05474,0.37702
0.647738,0,0,14.3523,14.3523,15.6477,15.6477,-0.46267,-7.2761,31.2805,0.190718,0.109287,0.200498,1,0,3.605,0.4025,-0.63,0.024034,0.12932,-0.805688,-0.22736,0.06062,0.37548
0.64957,0,0,14.3504,14.3504,15.6496,15.6496,-0.463979,-7.27508,31.2837,-0.0711017,0.0953416,0.583607,1,0,3.7275,0.105,-0.7,-0.238876,0.115412,-0.425536,-0.22736,0.06062,0.37548
0.470464,0,0,14.5295,14.5295,15.4705,15.4705,-0.336046,-7.30709,31.3222,-0.0387183,-0.114822,0.0667992,0,0,3.71,0.07,-0.7875,-0.206912,-0.096746,-0.938302,-0.22736,0.06062,0.37548
0.472676,0,0,14.5273,14.5273,15.4727,15.4727,-0.337626,-7.30599,31.3252,0.168153,-0.124375,-0.475156,1,0,3.57,0.1575,-0.7525,0.000854,-0.106262,-1.47608,-0.22736,0.06062,0.37548
0.475029,0,0,14.525,14.525,15.475,15.475,-0.339307,-7.30464,31.3284,0.347078,0.0217818,-0.282738,1,0,3.5175,0.2975,-0.7175,0.18056,0.039772,-1.28515,-0.22736,0.06062,0.37548
0.477602,0,0,14.5224,14.5224,15.4776,15.4776,-0.341144,-7.30315,31.3313,0.147694,0.128244,0.341105,1,0,3.4125,0.385,-0.8575,-0.019642,0.146156,-0.66612,-0.22736,0.06062,0.37548
0.480305,0,0,14.5197,14.5197,15.4803,15.4803,-0.343075,-7.30157,31.3342,-0.136124,-0.0234704,0.518032,1,0,3.36,0.4375,-0.8575,-0.304634,-0.005368,-0.490562,-0.22736,0.06062,0.37548
0.483237,0,0,14.5168,14.5168,15.4832,15.4832,-0.345169,-7.29963,31.3372,0.0103544,-0.133299,-0.0975674,1,0,3.2725,0.6475,-0.8225,-0.157502,-0.115046,-1.10142,-0.22736,0.06062,0.37548
0.486175,0,0,14.5138,14.5138,15.4862,15.4862,-0.347268,-7.29776,31.3399,0.373078,-0.0232988,-0.68538,1,0,3.255,0.6125,-0.945,0.20679,-0.005124,-1.6847,-0.22736,0.06062,0.37548
0.489026,0,0,14.511,14.511,15.489,15.489,-0.349304,-7.29648,31.3427,0.370748,0.0311345,-0.14465,1,0,3.29,0.2625,-0.945,0.204472,0.049288,-1.14814,-0.22512,0.06118,0.37114
0.491724,0,0,14.5083,14.5083,15.4917,15.4917,-0.351231,-7.29555,31.3456,-0.0338155,0.00948466,0.694844,1,0,3.36,0.0525,-0.875,-0.201788,0.027694,-0.315126,-0.22512,0.06118,0.37114
0.49416,0,0,14.5058,14.5058,15.4942,15.4942,-0.352971,-7.29451,31.3484,-0.166496,-0.0318243,0.417351,1,0,3.465,0.1225,-0.875,-0.335012,-0.013542,-0.59048,-0.22512,0.06118,0.37114
0.49677,0,0,14.5032,14.5032,15.4968,15.4968,-0.354836,-7.29356,31.3513,0.0921306,-0.085226,-0.636192,1,0,3.395,0.07,-0.875,-0.075274,-0.066856,-1.6359,-0.22512,0.06118,0.37114
0.49914,0,0,14.5009,14.5009,15.4991,15.4991,-0.356529,-7.29204,31.3541,0.0921043,-0.0852553,-0.636189,1,0,3.4825,0.4025,-0.945,-0.075274,-0.066856,-1.6359,-0.22512,0.06118,0.37114
0.501712,0,0,14.4983,14.4983,15.5017,15.5017,-0.358366,-7.29076,31.357,0.302009,0.0964375,0.492235,1,0,3.4125,0.2625,-0.8575,0.135542,0.11468,-0.516182,-0.22512,0.06118,0.37114
0.504868,0,0,14.4951,14.4951,15.5049,15.5049,-0.36062,-7.28951,31.3598,0.301988,0.0963984,0.492237,1,0,3.1675,0.245,-0.945,0.135542,0.11468,-0.516182,-0.22512,0.06118,0.37114
0.508123,0,0,14.4919,14.4919,15.5081,15.5081,-0.362945,-7.28787,31.3623,-0.214355,-0.0845116,-0.239057,1,0,3.115,0.4725,-1.05,-0.382958,-0.066002,-1.24184,-0.22512,0.06118,0.37114
0.510673,0,0,14.4893,14.4893,15.5107,15.5107,-0.364767,-7.28641,31.3649,-0.21438,-0.0845431,-0.239054,1,0,3.395,0.3675,-1.0675,-0.382958,-0.066002,-1.24184,-0.22358,0.0588,0.36848
0.48181,0,0,14.5182,14.5182,15.4818,15.4818,-0.34415,-6.74332,31.1241,0.462242,0.0497799,0.00591277,0,0,3.5,0.21,-0.9975,0.305976,0.067832,-0.999912,-0.22358,0.0588,0.36848
0.455322,0,0,14.5447,14.5447,15.4553,15.4553,-0.32523,-6.2105,30.8838,0.453002,0.0501019,0.00696367,0,0,3.675,0.035,-0.945,0.305976,0.067832,-0.999912,-0.22358,0.0588,0.36848
0.45755,0,0,14.5424,14.5424,15.4576,15.4576,-0.326821,-6.20973,30.8867,-0.279692,-0.00598194,0.236141,1,0,3.5175,-0.035,-0.875,-0.429806,0.011834,-0.772504,-0.22358,0.0588,0.36848
0.460114,0,0,14.5399,14.5399,15.4601,15.4601,-0.328653,-6.20887,30.8895,-0.178752,-0.107257,-0.227988,1,0,3.3775,0.0175,-0.9275,-0.328424,-0.089304,-1.23305,-0.22358,0.0588,0.36848
0.462512,0,0,14.5375,14.5375,15.4625,15.4625,-0.330366,-6.20774,30.8923,0.444328,-0.0886011,-0.384623,1,0,3.4475,0.175,-0.8925,0.297314,-0.070638,-1.38848,-0.22358,0.0588,0.36848
0.458984,0,0,14.541,14.541,15.459,15.459,-0.327846,-5.6612,30.6443,0.456222,0.064706,0.0482819,0,0,3.535,0.2625,-0.9275,0.318786,0.082472,-0.959896,-0.22358,0.0588,0.36848
0.461157,0,0,14.5388,14.5388,15.4612,15.4612,-0.329398,-5.66025,30.6471,0.214935,0.0860512,0.437047,1,0,3.5175,0.07,-0.945,0.076494,0.103822,-0.574132,-0.22358,0.0588,0.36848
0.500875,0,0,14.4991,14.4991,15.5009,15.5009,-0.357768,-6.17219,31.0008,-0.36101,-0.0391272,0.203012,0,0,3.36,0.21,-0.9975,-0.510814,-0.02074,-0.805444,-0.22316,0.05978,0.37492
0.503243,0,0,14.4968,14.4968,15.5032,15.5032,-0.359459,-6.17067,31.0035,-0.106159,-0.120249,-0.443079,1,0,3.4475,0.4025,-0.9975,-0.254858,-0.101748,-1.44655,-0.22316,0.05978,0.37492
0.505,0,0,14.495,14.495,15.505,15.505,-0.360715,-6.1693,31.0065,0.545224,-0.0501697,-0.331686,1,0,3.71,0.315,-0.8225,0.399306,-0.03172,-1.33602,-0.22316,0.05978,0.37492
0.483835,0,0,14.5162,14.5162,15.4838,15.4838,-0.345596,-5.60708,30.7419,0.474234,0.0553598,0.0393976,0,0,3.5875,0.4375,-0.8225,0.337818,0.073444,-0.968802,-0.22316,0.05978,0.37492
0.486034,0,0,14.514,14.514,15.486,15.486,-0.347167,-5.60577,30.7445,-0.132853,0.136425,0.364353,1,0,3.5,0.28,-0.9975,-0.271816,0.154452,-0.646356,-0.22316,0.05978,0.37492
0.488505,0,0,14.5115,14.5115,15.4885,15.4885,-0.348932,-6.11728,31.0859,-0.426836,-0.0690177,0.10279,0,0,3.3775,0.1575,-1.0325,-0.575962,-0.050752,-0.904996,-0.22316,0.05978,0.37492
0.491053,0,0,14.5089,14.5089,15.4911,15.4911,-0.350752,-6.11594,31.0886,0.359153,-0.124495,-0.374863,1,0,3.3775,0.2975,-0.9625,0.213378,-0.10614,-1.37897,-0.22316,0.05978,0.37492
0.493584,0,0,14.5064,14.5064,15.4936,15.4936,-0.35256,-6.1145,31.0915,0.525442,-0.00704026,-0.171749,1,0,3.395,0.35,-0.8575,0.380396,0.011224,-1.17742,-0.22316,0.05978,0.37492
0.496946,0,0,14.5031,14.5031,15.4969,15.4969,-0.354961,-6.11328,31.0944,-0.0443468,0.144233,0.174476,1,0,3.0625,0.2275,-0.8575,-0.191784,0.162382,-0.83387,-0.22316,0.05978,0.37492
0.499839,0,0,14.5002,14.5002,15.4998,15.4998,-0.357028,-6.11218,31.0971,-0.409187,0.0640821,0.29718,1,0,3.2375,0.1575,-0.98,-0.55815,0.08235,-0.712114,-0.22498,0.06104,0.38122
0.243062,0,0,14.7569,14.7569,15.2431,15.2431,-0.173616,-6.1023,31.0779,-0.0338466,-0.183217,-0.0696652,0,0,3.6575,0.2625,-0.84,-0.181048,-0.167872,-1.07616,-0.22498,0.06104,0.38122
0.245098,0,0,14.7549,14.7549,15.2451,15.2451,-0.17507,-6.10109,31.0807,0.553151,-0.133903,-0.292323,1,0,3.5875,0.2275,-0.91,0.408456,-0.118584,-1.2971,-0.22498,0.06104,0.38122
0.246986,0,0,14.753,14.753,15.247,15.247,-0.176419,-6.09994,31.0834,0.246866,0.125104,-0.0973243,1,0,3.64,0.1925,-0.98,0.100894,0.140178,-1.10361,-0.22498,0.06104,0.38122
0.248677,0,0,14.7513,14.7513,15.2487,15.2487,-0.177626,-6.09884,31.0859,-0.165962,0.188223,0.179558,1,0,3.71,0.1575,-1.0675,-0.313662,0.203252,-0.828868,-0.22498,0.06104,0.38122
0.251337,0,0,14.7487,14.7487,15.2513,15.2513,-0.179527,-6.09751,31.0885,-0.232194,-0.115906,0.284927,1,0,3.325,0.2975,-1.0325,-0.380152,-0.100528,-0.724314,-0.22498,0.06104,0.38122
-0.0392975,0,0,15.0393,15.0393,14.9607,14.9607,0.0280697,-5.79715,30.8946,0.221321,-0.170313,-0.0815265,0,0,3.255,0.315,-0.91,0.08052,-0.158478,-1.08848,-0.22498,0.06104,0.38122
-0.0367835,0,0,15.0368,15.0368,14.9632,14.9632,0.0262739,-5.79627,30.8975,0.584063,-0.010358,-0.382011,1,0,3.395,0.035,-0.84,0.444812,0.001342,-1.38665,-0.22498,0.06104,0.38122
-0.0344049,0,0,15.0344,15.0344,14.9656,14.9656,0.024575,-5.79549,30.9004,0.129814,0.202357,-0.155293,1,0,3.4475,-0.0175,-0.8575,-0.011346,0.213866,-1.16168,-0.22456,0.05796,0.37954
-0.0320957,0,0,15.0321,15.0321,14.9679,14.9679,0.0229255,-5.79464,30.9031,-0.355172,0.0370911,0.470763,1,0,3.465,0.0175,-0.9625,-0.49837,0.0488,-0.54046,-0.22456,0.05796,0.37954
-0.0302416,0,0,15.0302,15.0302,14.9698,14.9698,0.0216011,-5.79377,30.906,-0.224954,-0.130123,0.322488,1,0,3.6575,0.035,-0.8575,-0.367586,-0.118218,-0.687592,-0.22456,0.05796,0.37954
-0.027698,0,0,15.0277,15.0277,14.9723,14.9723,0.0197843,-5.79257,30.9092,0.547188,-0.153847,-0.454175,1,0,3.395,0.2275,-0.7175,0.407846,-0.141886,-1.45827,-0.22456,0.05796,0.37954
-0.0246429,0,0,15.0246,15.0246,14.9754,14.9754,0.0176021,-5.79127,30.9122,0.395551,0.0252745,-0.418395,1,0,3.185,0.28,-0.77,0.25559,0.037088,-1.42276,-0.22456,0.05796,0.37954
-0.0219364,0,0,15.0219,15.0219,14.9781,14.9781,0.0156689,-5.79025,30.915,-0.284422,0.15152,0.368723,1,0,3.3075,0.1225,-0.945,-0.427244,0.163236,-0.64172,-0.22456,0.05796,0.37954
-0.0186715,0,0,15.0187,15.0187,14.9813,14.9813,0.0133368,-5.78931,30.918,-0.289419,-0.00838437,0.564213,1,0,3.0975,0.07,-0.805,-0.432246,0.003538,-0.44774,-0.22456,0.05796,0.37954
-0.0156306,0,0,15.0156,15.0156,14.9844,14.9844,0.0111647,-5.78823,30.9213,0.30074,-0.161813,-0.155157,1,0,3.2025,0.1575,-0.6475,0.16043,-0.149694,-1.16156,-0.22456,0.05796,0.37954
-0.0125855,0,0,15.0126,15.0126,14.9874,14.9874,0.00898962,-5.78715,30.9246,0.559,-0.0928494,-0.5465,1,0,3.2025,0.1575,-0.63,0.419802,-0.080764,-1.54989,-0.22078,0.06034,0.37646
0.242631,0,0,14.7574,14.7574,15.2426,15.2426,-0.173308,-5.81157,31.0668,0.0122521,0.160451,0.0303268,0,0,3.5,0.1225,-0.7175,-0.129686,0.175436,-0.977464,-0.22078,0.06034,0.37646
0.245264,0,0,14.7547,14.7547,15.2453,15.2453,-0.175188,-5.81069,31.0696,-0.231221,0.109858,0.495688,1,0,3.3425,0.035,-0.8925,-0.374174,0.124928,-0.515694,-0.22078,0.06034,0.37646
0.248032,0,0,14.752,14.752,15.248,15.248,-0.177166,-5.80963,31.0725,0.0666439,-0.157023,0.203319,1,0,3.29,0.14,-0.875,-0.07503,-0.141642,-0.80581,-0.22078,0.06034,0.37646
0.250288,0,0,14.7497,14.7497,15.2503,15.2503,-0.178777,-5.80832,31.0755,0.346767,-0.164745,-0.364332,1,0,3.5,0.28,-0.8225,0.206302,-0.149328,-1.36908,-0.22078,0.06034,0.37646
0.25261,0,0,14.7474,14.7474,15.2526,15.2526,-0.180436,-5.80675,31.0783,0.297417,0.0589624,-0.325847,1,0,3.465,0.4375,-0.91,0.15677,0.074176,-1.3309,-0.22078,0.06034,0.37646
0.255212,0,0,14.7448,14.7448,15.2552,15.2552,-0.182294,-5.80536,31.0812,0.0290308,0.118528,0.164597,1,0,3.36,0.3325,-0.84,-0.112728,0.133712,-0.84424,-0.22078,0.06034,0.37646
0.258176,0,0,14.7418,14.7418,15.2582,15.2582,-0.184411,-5.80409,31.0842,-0.21372,-0.053219,0.404963,1,0,3.22,0.2625,-0.7875,-0.356484,-0.03782,-0.60573,-0.22078,0.06034,0.37646
0.0162424,0,0,14.9838,14.9838,15.0162,15.0162,-0.0116017,-5.63626,30.9775,0.10749,-0.134974,0.0409641,0,0,3.255,-0.0875,-0.8925,-0.030988,-0.122488,-0.967216,-0.22526,0.05936,0.37324
0.0190589,0,0,14.9809,14.9809,15.0191,15.0191,-0.0136135,-5.6353,30.9805,0.25362,0.0259537,-0.362797,1,0,3.2725,0.0875,-0.805,0.115778,0.038308,-1.36786,-0.22526,0.05936,0.37324
0.0215115,0,0,14.9785,14.9785,15.0215,15.0215,-0.0153653,-5.63442,30.9831,0.0752639,0.100909,-0.106694,1,0,3.395,0.035,-1.05,-0.063318,0.113216,-1.11374,-0.22526,0.05936,0.37324
0.0238558,0,0,14.9761,14.9761,15.0239,15.0239,-0.0170399,-5.63367,30.9855,-0.0838955,-0.0715629,0.37797,1,0,3.43,-0.035,-1.1375,-0.223138,-0.059048,-0.632814,-0.22526,0.05936,0.37324
0.0257567,0,0,14.9742,14.9742,15.0258,15.0258,-0.0183977,-5.63255,30.9882,0.221257,-0.106026,0.130354,1,0,3.6225,0.175,-0.98,0.083326,-0.093452,-0.878522,-0.22526,0.05936,0.37324
0.0280987,0,0,14.9719,14.9719,15.0281,15.0281,-0.0200705,-5.63146,30.991,0.178961,0.0179033,-0.316931,1,0,3.4475,0.1575,-0.9625,0.04087,0.030378,-1.32236,-0.22526,0.05936,0.37324
0.188311,0,0,14.8117,14.8117,15.1883,15.1883,-0.134508,-5.774,31.1675,-0.110858,0.0915127,-0.0492758,0,0,3.43,0.1925,-0.8925,-0.252662,0.105896,-1.05652,-0.22526,0.05936,0.37324
0.190517,0,0,14.8095,14.8095,15.1905,15.1905,-0.136083,-5.77288,31.1704,0.0511845,-0.106116,0.312932,1,0,3.5175,0.175,-0.84,-0.089914,-0.0915,-0.697108,-0.22526,0.05936,0.37324
0.00579725,0,0,14.9942,14.9942,15.0058,15.0058,-0.00414089,-5.41887,30.9745,0.257514,-0.0740257,0.0720668,0,0,3.3425,0.4375,-0.84,0.123464,-0.061732,-0.936716,-0.22526,0.05936,0.37324
0.00822038,0,0,14.9918,14.9918,15.0082,15.0082,-0.0058717,-5.41734,30.9776,0.146571,0.0662678,-0.36784,1,0,3.43,0.42,-0.735,0.012078,0.078446,-1.37323,-0.22834,0.06118,0.36988
0.0105361,0,0,14.9895,14.9895,15.0105,15.0105,-0.0075258,-5.41625,30.9806,-0.12096,0.114357,-0.137556,1,0,3.465,0.1575,-0.8225,-0.256566,0.126514,-1.14473,-0.22834,0.06118,0.36988
0.0130703,0,0,14.9869,14.9869,15.0131,15.0131,-0.0093359,-5.41514,30.9835,0.0402326,-0.0886491,0.37428,1,0,3.3775,0.175,-0.8225,-0.094672,-0.07625,-0.63684,-0.22834,0.06118,0.36988
0.0154295,0,0,14.9846,14.9846,15.0154,15.0154,-0.0110211,-5.41375,30.9865,0.231913,-0.128614,0.275801,1,0,3.4475,0.3325,-0.8225,0.097844,-0.116144,-0.734562,-0.22834,0.06118,0.36988
0.0179476,0,0,14.9821,14.9821,15.0179,15.0179,-0.0128197,-5.41252,30.9897,0.234443,0.0279214,-0.445905,1,0,3.395,0.245,-0.7,0.100406,0.04026,-1.4507,-0.22834,0.06118,0.36988
0.0202829,0,0,14.9797,14.9797,15.0203,15.0203,-0.0144878,-5.41173,30.9928,-0.0308957,0.0872461,-0.3457,1,0,3.465,-0.0175,-0.735,-0.166042,0.099552,-1.35127,-0.22834,0.06118,0.36988
0.0224909,0,0,14.9775,14.9775,15.0225,15.0225,-0.016065,-5.41088,30.9959,-0.116801,0.00270695,0.355722,1,0,3.5175,0.0175,-0.7175,-0.252296,0.015128,-0.655262,-0.22834,0.06118,0.36988
0.0249572,0,0,14.975,14.975,15.025,15.025,-0.0178265,-5.40965,30.9991,0.175837,-0.099788,0.414862,1,0,3.4125,0.245,-0.735,0.041602,-0.08723,-0.59658,-0.22834,0.06118,0.36988
0.0273319,0,0,14.9727,14.9727,15.0273,15.0273,-0.0195228,-5.40838,31.0021,0.387686,-0.040586,-0.263934,1,0,3.4475,0.2625,-0.7525,0.25437,-0.02806,-1.27014,-0.23338,0.05894,0.37142
0.0291344,0,0,14.9709,14.9709,15.0291,15.0291,-0.0208103,-5.40709,31.0049,0.147,0.0299809,-0.497288,1,0,3.6575,0.28,-0.9625,0.012688,0.042456,-1.5017,-0.23338,0.05894,0.37142
0.185266,0,0,14.8147,14.8147,15.1853,15.1853,-0.132333,-5.66787,31.2349,-0.171743,0.0621175,0.105947,0,0,3.6575,0.28,-1.0325,-0.311954,0.076494,-0.902678,-0.23338,0.05894,0.37142
0.338068,0,0,14.6619,14.6619,15.3381,15.3381,-0.241477,-5.92271,31.4633,-0.167318,0.0602238,0.105492,0,0,3.57,0.1225,-1.1025,-0.311954,0.076494,-0.902678,-0.23338,0.05894,0.37142
0.121018,0,0,14.879,14.879,15.121,15.121,-0.0864415,-5.46032,31.1964,0.332583,-0.0772875,0.113554,0,0,3.5525,0.07,-0.9625,0.198128,-0.063562,-0.89548,-0.23338,0.05894,0.37142
-0.0891372,0,0,15.0891,15.0891,14.9109,14.9109,0.0636694,-5.00716,30.9325,0.324707,-0.0746787,0.114276,0,0,3.43,0.175,-0.7875,0.198128,-0.063562,-0.89548,-0.23338,0.05894,0.37142
-0.0865305,0,0,15.0865,15.0865,14.9135,14.9135,0.0618075,-5.00587,30.9356,-0.211918,0.0588956,-0.201208,1,0,3.3425,0.28,-0.7525,-0.340746,0.069906,-1.20853,-0.23338,0.05894,0.37142
-0.0839386,0,0,15.0839,15.0839,14.9161,14.9161,0.0599561,-5.00431,30.9385,-0.211945,0.0588634,-0.201206,1,0,3.3425,0.4375,-0.8225,-0.340746,0.069906,-1.20853,-0.23338,0.05894,0.37142
-0.0810809,0,0,15.0811,15.0811,14.9189,14.9189,0.057915,-5.00278,30.9415,0.288428,-0.102013,0.391285,1,0,3.2375,0.42,-0.805,0.161772,-0.090768,-0.620614,-0.22974,0.05922,0.37282
-0.237617,0,0,15.2376,15.2376,14.7624,14.7624,0.169727,-4.58143,30.7059,0.343665,-0.0547581,-0.0379321,0,0,3.5175,0.35,-0.84,0.224602,-0.045506,-1.04713,-0.22974,0.05922,0.37282
