pid_x,pid_y,pid_z,front_left_speed,front_right_speed,back_left_speed,back_right_speed,orientation_x,orientation_y,orientation_z,acceleration_x,acceleration_y,acceleration_z,accel_rejected,mag_rejected,gyro_x,gyro_y,gyro_z,accel_x,accel_y,accel_z,mag_x,mag_y,mag_z
-0.0113648,0,0,15.0114,15.0114,14.9886,14.9886,0.0189414,0.0625527,0.0631518,0.0490042,-0.0159793,0.000553035,0,0,3.675,0.315,-0.63,0.010004,-0.004148,-1.01211,-0.04508,0.08162,0.44758
-0.0212314,0,0,15.0212,15.0212,14.9788,14.9788,0.0353856,0.126094,0.124004,0.050082,-0.0138604,-0.00227674,0,0,3.6925,0.4025,-0.56,0.0122,-0.002318,-1.01492,-0.04508,0.08162,0.44758
-0.0307691,0,0,15.0308,15.0308,14.9692,14.9692,0.0512819,0.187709,0.185014,0.0490066,-0.013583,-0.0022799,0,0,3.57,0.0875,-0.42,0.0122,-0.002318,-1.01492,-0.04508,0.08162,0.44758
-0.0396044,0,0,15.0396,15.0396,14.9604,14.9604,0.0660074,0.243811,0.249928,0.0445044,-0.012349,-0.00339038,0,0,3.7275,0.2275,-0.455,0.008662,-0.001342,-1.01602,-0.04508,0.08162,0.44758
-0.0485211,0,0,15.0485,15.0485,14.9515,14.9515,0.0808686,0.302906,0.310732,0.047239,-0.0125781,-0.00523986,0,0,3.675,0.105,-0.3675,0.012444,-0.00183,-1.01785,-0.04508,0.08162,0.44758
-0.0570154,0,0,15.057,15.057,14.943,14.943,0.0950257,0.360801,0.371331,0.0462286,-0.0123311,-0.0052461,0,0,3.4475,0.1575,-0.4375,0.012444,-0.00183,-1.01785,-0.04508,0.08162,0.44758
-0.0658123,0,0,15.0658,15.0658,14.9342,14.9342,0.109687,0.414623,0.434044,0.042981,-0.0126858,0.000648618,0,0,3.4475,-0.1225,-0.4725,0.010126,-0.00244,-1.01199,-0.04508,0.08162,0.44758
-0.0743555,0,0,15.0744,15.0744,14.9256,14.9256,0.123926,0.467272,0.493981,0.0420621,-0.0124373,0.00064104,0,0,3.3775,-0.0875,-0.525,0.010126,-0.00244,-1.01199,-0.04508,0.08274,0.4515
-0.0813508,0,0,15.0814,15.0814,14.9186,14.9186,0.135585,0.517659,0.555286,0.0403323,-0.0100356,-0.00182595,0,0,3.5175,0.0875,-0.315,0.009272,-0.000244,-1.01443,-0.04508,0.08274,0.4515
-0.0901193,0,0,15.0901,15.0901,14.9099,14.9099,0.150199,0.568836,0.61509,0.0402896,-0.0125895,0.00320583,0,0,3.465,0.245,-0.4025,0.010126,-0.00305,-1.00943,-0.04508,0.08274,0.4515
-0.0966254,0,0,15.0966,15.0966,14.9034,14.9034,0.161042,0.616996,0.675801,0.0388416,-0.0094692,-0.00528682,0,0,3.465,0.0525,-0.49,0.009516,-0.000122,-1.01785,-0.04508,0.08274,0.4515
-0.103095,0,0,15.1031,15.1031,14.8969,14.8969,0.171825,0.664261,0.736453,0.0380168,-0.00928104,-0.00529659,0,0,3.5525,0.14,-0.4725,0.009516,-0.000122,-1.01785,-0.04508,0.08274,0.4515
-0.113063,0,0,15.1131,15.1131,14.8869,14.8869,0.188439,0.709901,0.79853,0.0358839,-0.0142426,-0.00198745,0,0,3.57,0.2975,-0.35,0.008174,-0.005368,-1.01455,-0.04508,0.08274,0.4515
-0.121334,0,0,15.1213,15.1213,14.8787,14.8787,0.202223,0.758754,0.861251,0.0390404,-0.0121702,-0.00593355,0,0,3.3775,0.1925,-0.4375,0.0122,-0.003538,-1.01846,-0.04536,0.07966,0.45388
-0.12801,0,0,15.128,15.128,14.872,14.872,0.21335,0.802997,0.92667,0.0353526,-0.00953347,0.00106329,0,0,3.535,0.0525,-0.49,0.009272,-0.001098,-1.0115,-0.04536,0.07966,0.45388
-0.136123,0,0,15.1361,15.1361,14.8639,14.8639,0.226872,0.849377,0.989314,0.0368514,-0.0118622,0.00326378,0,0,3.3425,0.0175,-0.4375,0.01159,-0.00366,-1.00931,-0.04536,0.07966,0.45388
-0.143164,0,0,15.1432,15.1432,14.8568,14.8568,0.238607,0.891431,1.05484,0.0339308,-0.0103141,-0.00682998,0,0,3.4475,0.0525,-0.4725,0.009394,-0.002318,-1.01931,-0.04536,0.07966,0.45388
-0.150045,0,0,15.15,15.15,14.85,14.85,0.250074,0.93257,1.12011,0.0332129,-0.010114,-0.00684226,0,0,3.43,0.0525,-0.56,0.009394,-0.002318,-1.01931,-0.04536,0.07966,0.45388
-0.156166,0,0,15.1562,15.1562,14.8438,14.8438,0.260277,0.973873,1.18428,0.0330995,-0.00871474,0.00138251,0,0,3.5525,0.035,-0.4725,0.010004,-0.001098,-1.01114,-0.04536,0.07966,0.45388
-0.162734,0,0,15.1627,15.1627,14.8373,14.8373,0.271224,1.01142,1.25068,0.0302576,-0.00937866,0.000263733,0,0,3.5525,-0.1225,-0.5775,0.007808,-0.001952,-1.01223,-0.04536,0.07966,0.45388
-0.168939,0,0,15.1689,15.1689,14.8311,14.8311,0.281565,1.04793,1.30524,0.0296204,-0.00919827,0.000251411,0,0,3.3425,-0.035,-0.56,0.007808,-0.001952,-1.01223,-0.04018,0.08596,0.45178
-0.17594,0,0,15.1759,15.1759,14.8241,14.8241,0.293233,1.09095,1.35302,0.0348225,-0.010216,-0.000378368,0,0,3.43,0.07,-0.56,0.013786,-0.003172,-1.01284,-0.04018,0.08596,0.45178
-0.180514,0,0,15.1805,15.1805,14.8195,14.8195,0.300857,1.12806,1.40521,0.0304089,-0.00702984,-0.00272762,0,0,3.255,0,-0.5075,0.010004,-0.000122,-1.01516,-0.04018,0.08596,0.45178
-0.185281,0,0,15.1853,15.1853,14.8147,14.8147,0.308802,1.16126,1.46023,0.0270355,-0.0070134,-0.000649806,0,0,3.43,0.035,-0.5775,0.007198,-0.000244,-1.01309,-0.04018,0.08596,0.45178
-0.188894,0,0,15.1889,15.1889,14.8111,14.8111,0.314823,1.19155,1.51721,0.025049,-0.00519862,-0.00680866,0,0,3.57,0.0525,-0.525,0.005734,0.001464,-1.01919,-0.04018,0.08596,0.45178
-0.192229,0,0,15.1922,15.1922,14.8078,14.8078,0.320381,1.22114,1.57411,0.0245326,-0.0051017,-0.00682007,0,0,3.3775,0.0175,-0.525,0.005734,0.001464,-1.01919,-0.04018,0.08596,0.45178
-0.197123,0,0,15.1971,15.1971,14.8029,14.8029,0.328538,1.25299,1.62807,0.0265282,-0.00715773,-0.00781646,0,0,3.5175,-0.1225,-0.5425,0.008296,-0.000732,-1.02016,-0.04018,0.08596,0.45178
-0.204291,0,0,15.2043,15.2043,14.7957,14.7957,0.340485,1.28946,1.68187,0.0297792,-0.010491,-0.00131553,0,0,3.43,-0.2275,-0.5075,0.0122,-0.00427,-1.0137,-0.04438,0.0833,0.45738
-0.208679,0,0,15.2087,15.2087,14.7913,14.7913,0.347799,1.32298,1.73793,0.0273722,-0.00645542,-0.00415745,0,0,3.465,0.07,-0.4375,0.01037,-0.000366,-1.0165,-0.04438,0.0833,0.45738
-0.212845,0,0,15.2128,15.2128,14.7872,14.7872,0.354742,1.35126,1.79814,0.0231127,-0.00584585,-0.0049074,0,0,3.6575,0.0875,-0.4375,0.006588,0.000122,-1.01724,-0.04438,0.0833,0.45738
-0.217344,0,0,15.2173,15.2173,14.7827,14.7827,0.36224,1.3818,1.85545,0.0252524,-0.00693636,-0.00885528,0,0,3.3075,0,-0.455,0.009272,-0.001098,-1.02114,-0.04438,0.0833,0.45738
-0.222015,0,0,15.222,15.222,14.778,14.778,0.370026,1.41203,1.91263,0.0247251,-0.00680061,-0.00886901,0,0,3.5525,0.1925,-0.4725,0.009272,-0.001098,-1.02114,-0.04438,0.0833,0.45738
-0.192452,0,0,15.1925,15.1925,14.8075,14.8075,0.320753,1.42701,1.97989,0.0163241,0.0436329,-0.0205504,0,0,3.5875,0.1225,-0.35,0.001098,0.050142,-1.03273,-0.04438,0.0833,0.45738
-0.233268,0,0,15.2333,15.2333,14.7667,14.7667,0.38878,1.47709,2.02105,0.035374,-0.0576447,0.0251569,0,0,3.43,0.21,-0.35,0.021106,-0.052216,-0.987346,-0.04438,0.0833,0.45738
-0.273295,0,0,15.2733,15.2733,14.7267,14.7267,0.455492,1.5256,2.05833,0.0345276,-0.0564809,0.0251262,0,0,3.465,0.1575,-0.4025,0.021106,-0.052216,-0.987346,-0.04284,0.08526,0.4578
-0.190123,0,0,15.1901,15.1901,14.8099,14.8099,0.316871,1.64926,2.01007,0.11328,0.123435,-0.00712982,0,0,3.6225,0.0875,-0.595,0.102358,0.12993,-1.01931,-0.04284,0.08526,0.4578
-0.239997,0,0,15.24,15.24,14.76,14.76,0.399996,1.5383,2.19428,-0.100665,-0.076501,-0.0574939,0,0,4.1475,-0.14,-0.665,-0.114436,-0.071248,-1.06933,-0.04284,0.08526,0.4578
-0.288138,0,0,15.2881,15.2881,14.7119,14.7119,0.48023,1.42922,2.37704,-0.0987614,-0.0751008,-0.0574554,0,0,3.465,-0.3325,-1.085,-0.114436,-0.071248,-1.06933,-0.04284,0.08526,0.4578
-0.298986,0,0,15.299,15.299,14.701,14.701,0.498311,1.22865,2.64387,-0.169003,-0.0165301,-0.00659915,0,0,3.7625,-0.28,-1.0675,-0.18849,-0.013054,-1.01894,-0.04284,0.08526,0.4578
-0.29116,0,0,15.2912,15.2912,14.7088,14.7088,0.485266,1.18192,2.76949,-0.0350398,0.010843,0.137516,0,0,3.57,-0.1925,-0.6825,-0.054778,0.014518,-0.87596,-0.04284,0.08526,0.4578
-0.291181,0,0,15.2912,15.2912,14.7088,14.7088,0.485301,1.18139,2.769,-0.0350306,0.0108437,0.137516,1,0,3.57,-0.1925,-0.6825,-0.054778,0.014518,-0.87596,-0.04284,0.08526,0.4578
-0.231233,0,0,15.2312,15.2312,14.7688,14.7688,0.385389,1.05952,2.95865,-0.0944973,0.0838421,0.0248268,0,0,2.8,0.7175,-0.455,-0.116632,0.089182,-0.987834,-0.04298,0.0882,0.46256
-0.120995,0,0,15.121,15.121,14.879,14.879,0.201659,1.25873,2.84165,0.219347,0.191038,-0.174772,0,0,2.065,-0.455,0.35,0.202032,0.19947,-1.18584,-0.04298,0.0882,0.46256
-0.119505,0,0,15.1195,15.1195,14.8805,14.8805,0.199175,1.25847,2.84303,-0.206941,-0.163417,-0.434194,1,0,2.135,-0.035,0.4025,-0.226066,-0.154574,-1.44326,-0.04298,0.0882,0.46256
-0.118771,0,0,15.1188,15.1188,14.8812,14.8812,0.197951,1.25937,2.84492,0.11826,-0.111779,-0.33854,1,0,2.835,0.6475,0.7,0.100528,-0.102968,-1.34834,-0.04298,0.0882,0.46256
-0.118036,0,0,15.118,15.118,14.882,14.882,0.196727,1.26027,2.84681,0.118244,-0.1118,-0.33854,1,0,2.835,0.6475,0.7,0.100528,-0.102968,-1.34834,-0.04298,0.0882,0.46256
-0.120142,0,0,15.1201,15.1201,14.8799,14.8799,0.200236,1.2588,2.84959,0.0119699,0.1374,0.273375,1,0,5.4775,-0.735,1.225,-0.006222,0.145912,-0.74115,-0.04298,0.0882,0.46256
-0.122359,0,0,15.1224,15.1224,14.8776,14.8776,0.203932,1.25695,2.85237,0.185484,0.0729815,0.39743,1,0,5.5825,-0.9625,1.225,0.167994,0.081496,-0.618052,-0.04298,0.0882,0.46256
-0.122243,0,0,15.1222,15.1222,14.8778,14.8778,0.203739,1.25689,2.85573,0.185485,0.0729781,0.39743,1,0,3.395,0.0875,1.5575,0.167994,0.081496,-0.618052,-0.04172,0.09268,0.4739
-0.12317,0,0,15.1232,15.1232,14.8768,14.8768,0.205284,1.25898,2.85865,0.507264,-0.466795,0.909018,1,0,4.375,1.3475,1.295,0.491172,-0.457744,-0.11041,-0.04172,0.09268,0.4739
0.142244,0,0,14.8578,14.8578,15.1422,15.1422,-0.237074,0.526044,3.59621,-0.589474,0.374633,0.302833,0,0,3.045,0.595,0.4375,-0.623054,0.390522,-0.712114,-0.04172,0.09268,0.4739
-0.135414,0,0,15.1354,15.1354,14.8646,14.8646,0.22569,1.11737,3.11094,0.760724,-0.661109,-0.253902,0,0,3.045,1.8725,0.35,0.743224,-0.652212,-1.26441,-0.04172,0.09268,0.4739
-0.133776,0,0,15.1338,15.1338,14.8662,14.8662,0.22296,1.11807,3.11109,0.760712,-0.661157,-0.253902,1,0,2.0125,0.525,-0.315,0.743224,-0.652212,-1.26441,-0.04172,0.09268,0.4739
-0.132512,0,0,15.1325,15.1325,14.8675,14.8675,0.220853,1.11776,3.10953,0.207472,-0.556775,-0.501889,1,0,2.38,-0.07,-1.3125,0.187636,-0.547902,-1.51048,-0.04172,0.09268,0.4739
-0.131247,0,0,15.1312,15.1312,14.8688,14.8688,0.218745,1.11744,3.10797,0.207477,-0.556812,-0.501888,1,0,2.38,-0.07,-1.3125,0.187636,-0.547902,-1.51048,-0.04172,0.09268,0.4739
-0.127748,0,0,15.1277,15.1277,14.8723,14.8723,0.212913,1.11504,3.10592,0.357676,0.0178149,-0.0472236,1,0,0.2975,-1.295,-1.5925,0.338428,0.02623,-1.05933,-0.04172,0.09268,0.4739
-0.128783,0,0,15.1288,15.1288,14.8712,14.8712,0.214639,1.11294,3.10402,-0.271827,0.19615,-0.438691,1,0,4.5325,-1.12,-1.505,-0.293776,0.20435,-1.44777,-0.03892,0.098,0.46746
-0.129681,0,0,15.1297,15.1297,14.8703,14.8703,0.216134,1.1132,3.10156,0.646601,-0.273523,0.549815,1,0,4.41,0.2625,-1.8375,0.628544,-0.264862,-0.466894,-0.03892,0.098,0.46746
-0.131823,0,0,15.1318,15.1318,14.8682,14.8682,0.219705,1.11355,3.09823,0.646595,-0.273461,0.549814,1,0,5.5825,0.315,-2.345,0.628544,-0.264862,-0.466894,-0.03892,0.098,0.46746
-0.133552,0,0,15.1336,15.1336,14.8664,14.8664,0.222586,1.11483,3.09478,-1.24593,0.790435,1.12681,1,0,5.1975,0.8575,-2.415,-1.27197,0.79788,0.105652,-0.03892,0.098,0.46746
-0.135756,0,0,15.1358,15.1358,14.8642,14.8642,0.22626,1.11822,3.092,-1.24599,0.790499,1.12681,1,0,5.635,2.1,-2.03,-1.27197,0.79788,0.105652,-0.03892,0.098,0.46746
-0.137516,0,0,15.1375,15.1375,14.8625,14.8625,0.229193,1.12045,3.08961,-0.442159,1.27454,0.100803,1,0,5.215,1.4175,-1.8025,-0.464698,1.28137,-0.912438,-0.03892,0.098,0.46746
-0.136517,0,0,15.1365,15.1365,14.8635,14.8635,0.227528,1.12116,3.08673,-0.442172,1.27451,0.100803,1,0,2.6425,0.525,-2.0825,-0.464698,1.28137,-0.912438,-0.03892,0.098,0.46746
-0.190687,0,0,15.1907,15.1907,14.8093,14.8093,0.317811,1.35973,2.9201,0.177616,-0.0736599,0.102058,0,0,2.835,1.33,-1.96,0.161894,-0.066978,-0.911096,-0.03892,0.098,0.46746
-0.241587,0,0,15.2416,15.2416,14.7584,14.7584,0.402646,1.58764,2.75227,0.17364,-0.0721805,0.101946,0,0,0.77,-2.1,-1.5225,0.161894,-0.066978,-0.911096,-0.04032,0.0994,0.47376
-0.282436,0,0,15.2824,15.2824,14.7176,14.7176,0.470726,1.60151,2.78433,0.0109713,-0.0609784,0.0209076,0,0,2.0825,-1.8725,-1.715,-0.00122,-0.056974,-0.991494,-0.04032,0.0994,0.47376
-0.323899,0,0,15.3239,15.3239,14.6761,14.6761,0.539832,1.61501,2.81833,0.0107358,-0.0597729,0.0208904,0,0,3.3775,-1.8725,-0.525,-0.00122,-0.056974,-0.991494,-0.04032,0.0994,0.47376
-0.336426,0,0,15.3364,15.3364,14.6636,14.6636,0.560711,1.35318,3.11346,-0.213211,-0.0183729,0.0577668,0,0,3.465,-0.07,-0.5075,-0.230702,-0.015982,-0.955016,-0.04032,0.0994,0.47376
-0.34929,0,0,15.3493,15.3493,14.6507,14.6507,0.582151,1.09663,3.40929,-0.208734,-0.0179978,0.0578588,0,0,4.0075,-0.0525,0.2975,-0.230702,-0.015982,-0.955016,-0.04032,0.0994,0.47376
-0.348411,0,0,15.3484,15.3484,14.6516,14.6516,0.580684,0.982179,3.57626,-0.0918112,0.00334914,0.0639198,0,0,4.8125,0.6125,-0.07,-0.11529,0.005368,-0.949038,-0.04032,0.0994,0.47376
-0.347855,0,0,15.3479,15.3479,14.6521,14.6521,0.579758,0.870547,3.74415,-0.0898631,0.0033333,0.0639514,0,0,5.0925,0.8925,0.595,-0.11529,0.005368,-0.949038,-0.04032,0.0994,0.47376
-0.29061,0,0,15.2906,15.2906,14.7094,14.7094,0.48435,1.04984,3.63852,0.155082,0.0872788,0.00711226,0,0,4.6725,1.54,0.63,0.133834,0.09089,-1.0054,-0.04032,0.0994,0.47376
-0.233714,0,0,15.2337,15.2337,14.7663,14.7663,0.389523,1.22409,3.52124,0.152041,0.0856237,0.00706454,0,0,3.9725,0.7175,0.91,0.133834,0.09089,-1.0054,-0.03542,0.10612,0.47376
-0.0116374,0,0,15.0116,15.0116,14.9884,14.9884,0.0193957,0.912097,3.86291,-0.254472,0.327327,0.0847696,0,0,4.3575,0.1225,0.77,-0.279868,0.338794,-0.92842,-0.03542,0.10612,0.47376
0.20805,0,0,14.7919,14.7919,15.2081,15.2081,-0.34675,0.603348,4.2091,-0.249084,0.320937,0.0848226,0,0,2.9225,-1.435,1.0675,-0.279868,0.338794,-0.92842,-0.03542,0.10612,0.47376
0.207653,0,0,14.7923,14.7923,15.2077,15.2077,-0.346089,0.600742,4.21127,-0.0977891,0.119561,0.139904,1,0,3.9025,-1.4175,0.8575,-0.127978,0.137616,-0.873764,-0.03542,0.10612,0.47376
0.208716,0,0,14.7913,14.7913,15.2087,15.2087,-0.34786,0.599691,4.2137,-0.0977707,0.11953,0.139904,1,0,2.5375,-0.5075,1.015,-0.127978,0.137616,-0.873764,-0.03542,0.10612,0.47376
0.377138,0,0,14.6229,14.6229,15.3771,15.3771,-0.628563,0.517298,4.35293,-0.0575788,0.239323,0.0599598,0,0,2.66,0.1925,0.5775,-0.08906,0.262178,-0.953064,-0.03542,0.10612,0.47376
0.542027,0,0,14.458,14.458,15.542,15.542,-0.903379,0.435979,4.49257,-0.0561596,0.234527,0.0599075,0,0,2.9925,-0.2275,0.1925,-0.08906,0.262178,-0.953064,-0.03542,0.10612,0.47376
0.669296,0,0,14.3307,14.3307,15.6693,15.6693,-1.11549,0.387111,4.60395,-0.0341682,0.194187,-0.010847,0,0,3.7625,0.665,-0.035,-0.067832,0.225578,-1.02321,-0.03542,0.10612,0.47376
0.794581,0,0,14.2054,14.2054,15.7946,15.7946,-1.3243,0.340364,4.71624,-0.0333523,0.190544,-0.0109194,0,0,3.3425,1.47,-0.49,-0.067832,0.225578,-1.02321,-0.0378,0.10528,0.48006
0.779397,0,0,14.2206,14.2206,15.7794,15.7794,-1.29899,0.352894,4.7685,0.00809858,-0.019439,-0.0562786,0,0,5.25,1.75,-0.805,-0.025986,0.015372,-1.06823,-0.0378,0.10528,0.48006
0.765279,0,0,14.2347,14.2347,15.7653,15.7653,-1.27547,0.364932,4.82042,0.00788849,-0.0190284,-0.0562707,0,0,4.5325,1.6275,-0.98,-0.025986,0.015372,-1.06823,-0.0378,0.10528,0.48006
0.677384,0,0,14.3226,14.3226,15.6774,15.6774,-1.12897,0.115321,5.12135,-0.217849,-0.124555,0.07093,0,0,4.9,1.0675,-1.2075,-0.257054,-0.092598,-0.942084,-0.0378,0.10528,0.48006
0.591676,0,0,14.4083,14.4083,15.5917,15.5917,-0.986126,-0.132431,5.42027,-0.213525,-0.122062,0.0709753,0,0,4.3925,-0.5425,-1.435,-0.257054,-0.092598,-0.942084,-0.0378,0.10528,0.48006
0.642485,0,0,14.3575,14.3575,15.6425,15.6425,-1.07081,0.0745935,5.28838,0.181092,0.0721072,0.0467298,0,0,3.4475,-0.1925,-1.575,0.142862,0.102846,-0.966118,-0.0378,0.10528,0.48006
0.692902,0,0,14.3071,14.3071,15.6929,15.6929,-1.15484,0.277743,5.15652,0.177546,0.0706411,0.0466904,0,0,2.905,-0.1575,-1.3125,0.142862,0.102846,-0.966118,-0.0378,0.10528,0.48006
0.778573,0,0,14.2214,14.2214,15.7786,15.7786,-1.29762,0.133079,5.36261,-0.128988,0.137029,-0.0664665,0,0,2.8175,-0.0525,-1.365,-0.167506,0.171654,-1.07836,-0.0378,0.10528,0.48006
0.862203,0,0,14.1378,14.1378,15.8622,15.8622,-1.43701,-0.00919678,5.57432,-0.126505,0.134597,-0.0665219,0,0,3.22,-0.0525,-1.3125,-0.167506,0.171654,-1.07836,-0.0378,0.10234,0.47908
0.861914,0,0,14.1381,14.1381,15.8619,15.8619,-1.43652,-0.00821206,5.57267,-0.00345736,-0.052615,-0.241846,1,0,3.815,0.7175,-1.3475,-0.04392,-0.015372,-1.25233,-0.0378,0.10234,0.47908
0.737347,0,0,14.2627,14.2627,15.7373,15.7373,-1.22891,-0.161766,5.78734,-0.144859,-0.180889,0.0438435,0,0,4.025,0.4375,-1.365,-0.188612,-0.147132,-0.968924,-0.0378,0.10234,0.47908
0.61456,0,0,14.3854,14.3854,15.6146,15.6146,-1.02427,-0.312608,6.00116,-0.142227,-0.177318,0.0439028,0,0,4.55,0.4725,-1.015,-0.188612,-0.147132,-0.968924,-0.0378,0.10234,0.47908
0.45571,0,0,14.5443,14.5443,15.4557,15.4557,-0.759517,0.0438892,5.71817,0.269584,-0.216908,0.146897,0,0,3.8675,0.2625,-1.1375,0.23119,-0.191296,-0.86681,-0.0378,0.10234,0.47908
0.298813,0,0,14.7012,14.7012,15.2988,15.2988,-0.498021,0.391502,5.43861,0.263517,-0.212344,0.146924,0,0,4.8125,-0.84,-0.9275,0.23119,-0.191296,-0.86681,-0.0378,0.10234,0.47908
0.298225,0,0,14.7018,14.7018,15.2982,15.2982,-0.497042,0.390105,5.4382,0.0799761,0.01031,0.11631,1,0,4.095,-0.7,-0.6475,0.046848,0.03111,-0.897188,-0.0378,0.10234,0.47908
0.296978,0,0,14.703,14.703,15.297,15.297,-0.494964,0.388925,5.43875,0.0799967,0.0103462,0.116311,1,0,4.7075,-0.5775,-0.0875,0.046848,0.03111,-0.897188,-0.0378,0.10234,0.47908
0.332351,0,0,14.6676,14.6676,15.3324,15.3324,-0.553919,0.635973,5.27842,0.235803,0.0596339,-0.0414801,0,0,5.1275,-0.8225,0.1575,0.207644,0.081374,-1.05371,-0.03906,0.0945,0.4655
0.33213,0,0,14.6679,14.6679,15.3321,15.3321,-0.55355,0.634649,5.27945,0.00694728,-0.14309,-0.21705,1,0,3.745,-0.665,0.1925,-0.022204,-0.121146,-1.22793,-0.03906,0.0945,0.4655
0.331908,0,0,14.6681,14.6681,15.3319,15.3319,-0.553179,0.635208,5.28065,0.00693752,-0.143084,-0.21705,1,0,3.745,0.4375,0.2975,-0.022204,-0.121146,-1.22793,-0.03906,0.0945,0.4655
0.332621,0,0,14.6674,14.6674,15.3326,15.3326,-0.554368,0.635291,5.28199,0.0658566,-0.0711716,-0.103446,1,0,2.87,0.1575,0.385,0.036966,-0.049288,-1.1152,-0.03906,0.0945,0.4655
0.33311,0,0,14.6669,14.6669,15.3331,15.3331,-0.555184,0.636178,5.28312,0.0658411,-0.0711859,-0.103446,1,0,3.08,0.63,0.2625,0.036966,-0.049288,-1.1152,-0.03906,0.0945,0.4655
0.333561,0,0,14.6664,14.6664,15.3336,15.3336,-0.555936,0.636978,5.2844,0.191079,0.108327,0.19999,1,0,3.115,0.5775,0.35,0.162748,0.130052,-0.814106,-0.03906,0.0945,0.4655
0.333997,0,0,14.666,14.666,15.334,15.334,-0.556662,0.636786,5.28521,0.191082,0.108315,0.19999,1,0,3.1325,0,0.07,0.162748,0.130052,-0.814106,-0.03906,0.0945,0.4655
0.333573,0,0,14.6664,14.6664,15.3336,15.3336,-0.555954,0.636055,5.28579,0.00425005,0.00439714,0.178966,1,0,3.9375,-0.315,-0.07,-0.024888,0.02623,-0.834968,-0.03906,0.0945,0.4655
0.332905,0,0,14.6671,14.6671,15.3329,15.3329,-0.554842,0.635861,5.28627,0.00425344,0.00441654,0.178966,1,0,4.165,0,-0.1225,-0.024888,0.02623,-0.834968,-0.03892,0.09926,0.46648
0.359145,0,0,14.6409,14.6409,15.3591,15.3591,-0.598576,0.602329,5.38545,-0.0260187,0.0404134,0.00708308,0,0,4.69,-0.2275,-0.245,-0.055876,0.062952,-1.00552,-0.03892,0.09926,0.46648
0.385422,0,0,14.6146,14.6146,15.3854,15.3854,-0.64237,0.57005,5.4843,-0.0254554,0.0396491,0.00708057,0,0,4.1825,0.0875,-0.4375,-0.055876,0.062952,-1.00552,-0.03892,0.09926,0.46648
0.385471,0,0,14.6145,14.6145,15.3855,15.3855,-0.642451,0.569848,5.48409,0.0612889,-0.0239804,-0.106524,1,0,3.5,0,-0.525,0.031232,-0.00061,-1.11825,-0.03892,0.09926,0.46648
0.386027,0,0,14.614,14.614,15.386,15.386,-0.643378,0.570481,5.48366,0.0612779,-0.0239965,-0.106524,1,0,3.0275,0.49,-0.6475,0.031232,-0.00061,-1.11825,-0.03892,0.09926,0.46648
0.387033,0,0,14.613,14.613,15.387,15.387,-0.645054,0.571531,5.48314,-0.0477131,-0.0237815,-0.140458,1,0,2.6075,0.735,-0.7,-0.078202,-0.000366,-1.15192,-0.03892,0.09926,0.46648
0.387927,0,0,14.6121,14.6121,15.3879,15.3879,-0.646545,0.573146,5.48246,-0.0477413,-0.0238075,-0.140459,1,0,2.7125,1.0675,-0.7875,-0.078202,-0.000366,-1.15192,-0.03892,0.09926,0.46648
0.314582,0,0,14.6854,14.6854,15.3146,15.3146,-0.524303,0.679892,5.44387,0.0780772,-0.103133,0.0775301,0,0,2.9225,0.945,-0.98,0.05002,-0.08174,-0.935618,-0.03892,0.09926,0.46648
0.242262,0,0,14.7577,14.7577,15.2423,15.2423,-0.40377,0.783848,5.40745,0.076263,-0.101029,0.077524,0,0,3.29,0.5775,-0.8575,0.05002,-0.08174,-0.935618,-0.0385,0.09842,0.46382
0.153631,0,0,14.8464,14.8464,15.1536,15.1536,-0.256052,0.803279,5.44915,0.00740596,-0.12593,0.0584771,0,0,3.325,0.21,-0.8225,-0.018788,-0.10919,-0.954528,-0.0385,0.09842,0.46382
0.0662526,0,0,14.9337,14.9337,15.0663,15.0663,-0.110421,0.822185,5.49089,0.00707603,-0.123388,0.0584806,0,0,3.745,0.245,-0.735,-0.018788,-0.10919,-0.954528,-0.0385,0.09842,0.46382
0.018129,0,0,14.9819,14.9819,15.0181,15.0181,-0.030215,0.858665,5.51665,0.0309795,-0.0776563,-0.0857456,0,0,3.7275,0.14,-0.7875,0.005856,-0.064904,-1.09763,-0.0385,0.09842,0.46382
-0.0298172,0,0,15.0298,15.0298,14.9702,14.9702,0.0496953,0.893299,5.54289,0.0303751,-0.0762618,-0.0857551,0,0,4.4275,-0.455,-0.49,0.005856,-0.064904,-1.09763,-0.0385,0.09842,0.46382
-0.0304977,0,0,15.0305,15.0305,14.9695,14.9695,0.0508294,0.892234,5.54265,-0.0302277,0.0599293,-0.183007,1,0,4.1825,-0.5075,-0.5425,-0.055022,0.071126,-1.19414,-0.0385,0.09842,0.46382
-0.030242,0,0,15.0302,15.0302,14.9698,14.9698,0.0504033,0.891139,5.54243,-0.0302086,0.0599219,-0.183007,1,0,3.3075,-0.525,-0.525,-0.055022,0.071126,-1.19414,-0.0385,0.09842,0.46382
-0.000700813,0,0,15.0007,15.0007,14.9993,14.9993,0.00116802,0.892667,5.6032,0.00475264,0.0441632,-0.0167805,0,0,3.0975,-0.245,-0.245,-0.019886,0.056242,-1.02919,-0.0385,0.09842,0.46382
0.031851,0,0,14.9681,14.9681,15.0319,15.0319,-0.0530851,0.932179,5.63165,0.0391725,0.0487121,-0.0311769,0,0,2.5375,0.0875,-0.42,0.015372,0.061732,-1.04347,-0.035,0.0959,0.46508
0.0634425,0,0,14.9366,14.9366,15.0634,15.0634,-0.105737,0.971027,5.65987,0.0384945,0.0477933,-0.0311894,0,0,2.8525,0.1225,-0.5425,0.015372,0.061732,-1.04347,-0.035,0.0959,0.46508
0.068376,0,0,14.9316,14.9316,15.0684,15.0684,-0.11396,0.990519,5.70564,0.0145862,0.00637099,0.0875728,0,0,3.3775,0,-0.1575,-0.008296,0.020496,-0.925614,-0.035,0.0959,0.46508
0.0732152,0,0,14.9268,14.9268,15.0732,15.0732,-0.122025,1.00963,5.75137,0.0142526,0.00623025,0.0875666,0,0,3.3775,0,-0.1575,-0.008296,0.020496,-0.925614,-0.035,0.0959,0.46508
0.0549232,0,0,14.9451,14.9451,15.0549,15.0549,-0.0915387,1.06138,5.76367,0.0403195,-0.0246243,0.0675107,0,0,4.13,-0.4375,-0.175,0.018788,-0.010858,-0.9455,-0.035,0.0959,0.46508
0.0369836,0,0,14.963,14.963,15.037,15.037,-0.0616393,1.11206,5.77596,0.039435,-0.0241025,0.0674946,0,0,4.13,-0.4375,-0.175,0.018788,-0.010858,-0.9455,-0.035,0.0959,0.46508
0.0348024,0,0,14.9652,14.9652,15.0348,15.0348,-0.058004,1.07505,5.87299,-0.0332965,-0.00364392,-0.0594988,0,0,3.4825,0.07,-0.1225,-0.0549,0.009516,-1.07153,-0.035,0.0959,0.46508
0.0326625,0,0,14.9673,14.9673,15.0327,15.0327,-0.0544375,1.03876,5.96991,-0.0326632,-0.0035817,-0.059487,0,0,3.4825,0.07,-0.1225,-0.0549,0.009516,-1.07153,-0.035,0.0959,0.46508
0.0488193,0,0,14.9512,14.9512,15.0488,15.0488,-0.0813654,1.07177,6.00365,0.0307836,0.0233048,-0.0141302,0,0,2.7125,0.35,-0.3325,0.009394,0.036844,-1.02651,-0.03234,0.0945,0.46732
0.104234,0,0,14.8958,14.8958,15.1042,15.1042,-0.173724,1.15837,5.98658,0.0785957,0.0810468,0.026041,0,0,3.15,0.56,-0.385,0.058926,0.096136,-0.986614,-0.03234,0.0945,0.46732
0.158089,0,0,14.8419,14.8419,15.1581,15.1581,-0.263481,1.24272,5.96928,0.077124,0.0794807,0.0260041,0,0,3.6225,0.175,-0.455,0.058926,0.096136,-0.986614,-0.03234,0.0945,0.46732
0.112861,0,0,14.8871,14.8871,15.1129,15.1129,-0.188102,1.16743,6.10108,-0.0712328,-0.0678323,-0.00334773,0,0,3.955,0.455,-0.5775,-0.091378,-0.052338,-1.01577,-0.03234,0.0945,0.46732
0.0679894,0,0,14.932,14.932,15.068,15.068,-0.113316,1.09342,6.23268,-0.0699412,-0.0665274,-0.00331881,0,0,4.4275,0.385,-0.455,-0.091378,-0.052338,-1.01577,-0.03234,0.0945,0.46732
-0.00469206,0,0,15.0047,15.0047,14.9953,14.9953,0.00782009,1.13263,6.25454,0.0308152,-0.114974,-0.0652962,0,0,4.585,0.4375,-0.525,0.010492,-0.102846,-1.07726,-0.03234,0.0945,0.46732
-0.0750807,0,0,15.0751,15.0751,14.9249,14.9249,0.125134,1.1707,6.27624,0.0301508,-0.112927,-0.0653119,0,0,3.745,0.315,-0.6125,0.010492,-0.102846,-1.07726,-0.03234,0.0945,0.46732
-0.193098,0,0,15.1931,15.1931,14.8069,14.8069,0.321831,1.29821,6.20799,0.108349,-0.188511,-0.0377099,0,0,3.4475,0.3325,-0.6125,0.091256,-0.18178,-1.04981,-0.03234,0.0945,0.46732
-0.308965,0,0,15.309,15.309,14.691,14.691,0.514942,1.42415,6.14601,0.106152,-0.185142,-0.0377867,0,0,3.4475,0.3325,-0.6125,0.091256,-0.18178,-1.04981,-0.03332,0.09128,0.46466
-0.28994,0,0,15.2899,15.2899,14.7101,14.7101,0.483234,1.39293,6.23677,-0.0256012,0.0274161,-0.00321993,0,0,2.905,0.105,-1.05,-0.041602,0.03111,-1.01553,-0.03332,0.09128,0.46466
-0.27128,0,0,15.2713,15.2713,14.7287,14.7287,0.452133,1.36235,6.32751,-0.0250677,0.0268736,-0.00320267,0,0,2.905,0.105,-1.05,-0.041602,0.03111,-1.01553,-0.03332,0.09128,0.46466
-0.231959,0,0,15.232,15.232,14.768,14.768,0.386598,1.35486,6.3982,-0.00221927,0.060292,-0.0452396,0,0,2.8525,0.175,-0.805,-0.018788,0.065636,-1.05725,-0.03332,0.09128,0.46466
-0.193388,0,0,15.1934,15.1934,14.8066,14.8066,0.322313,1.3476,6.46894,-0.00209245,0.0591704,-0.0452297,0,0,2.8525,0.175,-0.805,-0.018788,0.065636,-1.05725,-0.03332,0.09128,0.46466
-0.202971,0,0,15.203,15.203,14.797,14.797,0.338285,1.38578,6.4948,0.0289491,-0.0134607,0.0591361,0,0,3.3075,0.315,-0.6125,0.013054,-0.007198,-0.953674,-0.03332,0.09128,0.46466
-0.21237,0,0,15.2124,15.2124,14.7876,14.7876,0.35395,1.42319,6.52064,0.0282964,-0.0131875,0.0591185,0,0,3.3075,0.315,-0.6125,0.013054,-0.007198,-0.953674,-0.03332,0.09128,0.46466
-0.14953,0,0,15.1495,15.1495,14.8505,14.8505,0.249217,1.3859,6.61938,-0.0259646,0.0879381,0.0778322,0,0,3.6925,-0.5775,-0.385,-0.04209,0.095648,-0.93513,-0.03332,0.09128,0.46466
-0.225109,0,0,15.2251,15.2251,14.7749,14.7749,0.375182,1.49526,6.57179,0.0848661,-0.107954,0.0534284,0,0,3.8675,-0.385,-0.3325,0.071126,-0.102236,-0.959286,-0.03332,0.09128,0.46466
-0.299115,0,0,15.2991,15.2991,14.7009,14.7009,0.498525,1.6035,6.5248,0.0829776,-0.105802,0.053361,0,0,3.71,-0.035,-0.315,0.071126,-0.102236,-0.959286,-0.0364,0.09156,0.4578
-0.331179,0,0,15.3312,15.3312,14.6688,14.6688,0.551964,1.65817,6.52924,0.0421766,-0.0460053,0.0402927,0,0,3.4825,0.0175,-0.2275,0.03111,-0.043432,-0.972218,-0.0364,0.09156,0.4578
-0.362308,0,0,15.3623,15.3623,14.6377,14.6377,0.603847,1.71153,6.5337,0.0412456,-0.0451005,0.0402562,0,0,3.185,-0.07,-0.2275,0.03111,-0.043432,-0.972218,-0.0364,0.09156,0.4578
-0.358845,0,0,15.3588,15.3588,14.6412,14.6412,0.598074,1.79771,6.50719,0.0731507,0.00413749,0.0276705,0,0,2.52,-0.2625,-0.2975,0.06466,0.005856,-0.984662,-0.0364,0.09156,0.4578
-0.355632,0,0,15.3556,15.3556,14.6444,14.6444,0.592721,1.88149,6.48094,0.0716893,0.00404362,0.0276245,0,0,2.695,-0.665,-0.1575,0.06466,0.005856,-0.984662,-0.0364,0.09156,0.4578
-0.27447,0,0,15.2745,15.2745,14.7255,14.7255,0.457449,2.0028,6.4212,0.112458,0.122589,0.0146648,0,0,3.01,-0.315,-0.07,0.107726,0.126636,-0.997472,-0.0364,0.09156,0.4578
-0.195461,0,0,15.1955,15.1955,14.8045,14.8045,0.325769,2.122,6.36129,0.110379,0.120292,0.0146056,0,0,3.605,-0.2275,-0.0175,0.107726,0.126636,-0.997472,-0.0364,0.09156,0.4578
-0.218945,0,0,15.2189,15.2189,14.7811,14.7811,0.364908,2.20219,6.33265,0.0756929,-0.0369358,-0.0595893,0,0,4.06,-0.1225,-0.0525,0.074298,-0.03111,-1.07104,-0.0364,0.09156,0.4578
-0.241311,0,0,15.2413,15.2413,14.7587,14.7587,0.402185,2.28152,6.30475,0.0743094,-0.0362861,-0.0596478,0,0,3.43,0.2275,-0.105,0.074298,-0.03111,-1.07104,-0.0378,0.091,0.4599
-0.236577,0,0,15.2366,15.2366,14.7634,14.7634,0.394294,2.19056,6.43793,-0.0789986,0.00619894,0.01234,0,0,3.255,0.3675,-0.21,-0.081252,0.011468,-0.999668,-0.0378,0.091,0.4599
-0.231481,0,0,15.2315,15.2315,14.7685,14.7685,0.385802,2.10198,6.57085,-0.0774536,0.00605122,0.0123989,0,0,2.835,0.7,-0.28,-0.081252,0.011468,-0.999668,-0.0378,0.091,0.4599
-0.322763,0,0,15.3228,15.3228,14.6772,14.6772,0.537938,2.19085,6.53228,0.0701809,-0.140291,0.00690969,0,0,2.7475,0.735,-0.245,0.068564,-0.137372,-1.00504,-0.0378,0.091,0.4599
-0.412547,0,0,15.4125,15.4125,14.5875,14.5875,0.687578,2.27659,6.49333,0.0686856,-0.137682,0.00682346,0,0,2.975,0.035,-0.6475,0.068564,-0.137372,-1.00504,-0.0378,0.091,0.4599
-0.465804,0,0,15.4658,15.4658,14.5342,14.5342,0.77634,2.3856,6.4327,0.0937544,-0.0834982,-0.0104865,0,0,2.765,0.0175,-0.63,0.095648,-0.08479,-1.02212,-0.0378,0.091,0.4599
-0.518383,0,0,15.5184,15.5184,14.4816,14.4816,0.863971,2.49277,6.37233,0.0918856,-0.0819714,-0.010588,0,0,3.08,0.2625,-0.6475,0.095648,-0.08479,-1.02212,-0.0378,0.091,0.4599
-0.539486,0,0,15.5395,15.5395,14.4605,14.4605,0.899144,2.38599,6.51264,-0.0935834,-0.0325062,0.0194814,0,0,3.115,0.3675,-0.6825,-0.092476,-0.03599,-0.992348,-0.0378,0.091,0.4599
-0.560253,0,0,15.5603,15.5603,14.4397,14.4397,0.933755,2.28107,6.65566,-0.0917537,-0.0319016,0.0195463,0,0,3.2025,0.5075,-0.5425,-0.092476,-0.03599,-0.992348,-0.04158,0.08946,0.4564
-0.572014,0,0,15.572,15.572,14.428,14.428,0.953356,2.38518,6.60586,0.086351,-0.0176385,0.0197126,0,0,2.975,0.595,-0.525,0.088206,-0.022082,-0.992104,-0.04158,0.08946,0.4564
-0.583374,0,0,15.5834,15.5834,14.4166,14.4166,0.97229,2.48576,6.55619,0.0845973,-0.0173097,0.0196324,0,0,2.8175,-0.245,-0.49,0.088206,-0.022082,-0.992104,-0.04158,0.08946,0.4564
-0.523869,0,0,15.5239,15.5239,14.4761,14.4761,0.873114,2.53222,6.55818,0.042725,0.089165,0.0250345,0,0,3.5175,-0.2275,-0.455,0.04697,0.08601,-0.986736,-0.04158,0.08946,0.4564
-0.465688,0,0,15.4657,15.4657,14.5343,14.5343,0.776147,2.57875,6.56016,0.0419137,0.0874739,0.0250226,0,0,3.71,0.315,-0.4725,0.04697,0.08601,-0.986736,-0.04158,0.08946,0.4564
-0.471226,0,0,15.4712,15.4712,14.5288,14.5288,0.785376,2.54134,6.63741,-0.0326338,-0.0083564,-0.0354411,0,0,4.1825,0.3325,-0.5425,-0.028548,-0.009882,-1.04676,-0.04158,0.08946,0.4564
-0.47632,0,0,15.4763,15.4763,14.5237,14.5237,0.793866,2.50418,6.71442,-0.0319857,-0.00820799,-0.0354145,0,0,3.8675,0.035,-0.595,-0.028548,-0.009882,-1.04676,-0.04158,0.08946,0.4564
-0.479698,0,0,15.4797,15.4797,14.5203,14.5203,0.799497,2.48109,6.77841,-0.0177339,-0.00749894,-0.0813811,0,0,3.185,-0.28,-0.56,-0.01464,-0.009272,-1.09239,-0.04158,0.08946,0.4564
-0.483188,0,0,15.4832,15.4832,14.5168,14.5168,0.805313,2.45845,6.83926,-0.017339,-0.00739729,-0.0813655,0,0,3.3425,-0.315,-0.49,-0.01464,-0.009272,-1.09239,-0.0399,0.09114,0.46004
-0.526499,0,0,15.5265,15.5265,14.4735,14.4735,0.877499,2.33489,6.99276,-0.107513,-0.0640254,0.0433759,0,0,3.22,-0.035,-0.49,-0.10736,-0.0671,-0.96868,-0.0399,0.09114,0.46004
-0.56946,0,0,15.5695,15.5695,14.4305,14.4305,0.949099,2.21346,7.14629,-0.105396,-0.0627755,0.0434401,0,0,3.64,-0.175,-0.0875,-0.10736,-0.0671,-0.96868,-0.0399,0.09114,0.46004
-0.539766,0,0,15.5398,15.5398,14.4602,14.4602,0.89961,2.28989,7.12116,0.0714907,0.0470075,-0.0193021,0,0,3.85,-0.21,-0.245,0.071614,0.043432,-1.0309,-0.0399,0.09114,0.46004
-0.510563,0,0,15.5106,15.5106,14.4894,14.4894,0.850939,2.36509,7.09578,0.0701793,0.046158,-0.0193424,0,0,3.7975,-0.07,-0.385,0.071614,0.043432,-1.0309,-0.0399,0.09114,0.46004
-0.511335,0,0,15.5113,15.5113,14.4887,14.4887,0.852224,2.36513,7.09557,-0.0627268,0.047768,-0.105038,1,0,4.27,0.14,-0.525,-0.061854,0.045018,-1.11593,-0.0399,0.09114,0.46004
-0.511652,0,0,15.5117,15.5117,14.4883,14.4883,0.852754,2.36509,7.0952,-0.062726,0.0477773,-0.105038,1,0,3.85,0.0875,-0.6125,-0.061854,0.045018,-1.11593,-0.0399,0.09114,0.46004
-0.584383,0,0,15.5844,15.5844,14.4156,14.4156,0.973971,2.35858,7.13831,-0.00915872,-0.115347,-0.0407649,0,0,4.4625,0.0175,-0.5425,-0.008174,-0.120048,-1.05213,-0.0399,0.09114,0.46004
-0.655801,0,0,15.6558,15.6558,14.3442,14.3442,1.093,2.35267,7.18126,-0.00905564,-0.113271,-0.0407981,0,0,4.515,0.3675,-0.5075,-0.008174,-0.120048,-1.05213,-0.0399,0.09114,0.46004
-0.69488,0,0,15.6949,15.6949,14.3051,14.3051,1.15813,2.36764,7.21841,0.0126722,-0.0618195,-0.05079,0,0,4.6025,0.035,-0.6125,0.013908,-0.069784,-1.06201,-0.03738,0.08428,0.4564
-0.732683,0,0,15.7327,15.7327,14.2673,14.2673,1.22114,2.38193,7.25565,0.0124229,-0.0607213,-0.0508232,0,0,4.095,-0.14,-0.49,0.013908,-0.069784,-1.06201,-0.03738,0.08428,0.4564
-0.761287,0,0,15.7613,15.7613,14.2387,14.2387,1.26881,2.27789,7.40311,-0.0885397,-0.0386384,0.0806645,0,0,3.8675,-0.035,-0.525,-0.089304,-0.048556,-0.931592,-0.03738,0.08428,0.4564
-0.789238,0,0,15.7892,15.7892,14.2108,14.2108,1.3154,2.17648,7.54989,-0.0867709,-0.0378246,0.080715,0,0,3.7625,0.315,-0.6475,-0.089304,-0.048556,-0.931592,-0.03738,0.08428,0.4564
-0.81538,0,0,15.8154,15.8154,14.1846,14.1846,1.35897,2.05552,7.716,-0.10422,-0.0375516,0.0516364,0,0,3.6225,0.21,-0.63,-0.108946,-0.049044,-0.960506,-0.03738,0.08428,0.4564
-0.841942,0,0,15.8419,15.8419,14.1581,14.1581,1.40324,1.93733,7.88209,-0.102159,-0.0367779,0.0516896,0,0,4.4625,0.455,-0.3325,-0.108946,-0.049044,-0.960506,-0.03738,0.08428,0.4564
-0.801079,0,0,15.8011,15.8011,14.1989,14.1989,1.33513,1.97334,7.91166,0.0340058,0.0638876,0.0111235,0,0,4.5325,0.4375,-0.28,0.028426,0.052704,-1.00077,-0.03738,0.08428,0.4564
-0.761965,0,0,15.762,15.762,14.238,14.238,1.26994,2.00786,7.94069,0.0334037,0.0627504,0.0111284,0,0,5.46,-0.07,-0.5775,0.028426,0.052704,-1.00077,-0.03738,0.08428,0.4564
-0.703742,0,0,15.7037,15.7037,14.2963,14.2963,1.1729,2.03106,7.97824,0.0265603,0.0932993,-0.0204475,0,0,5.0575,0.2275,-0.525,0.02196,0.084912,-1.03212,-0.03584,0.08638,0.45794
-0.768748,0,0,15.7687,15.7687,14.2313,14.2313,1.28125,1.9519,8.10167,-0.0758077,-0.0999688,-0.0017518,0,0,4.0425,0.42,-0.385,-0.082228,-0.110044,-1.01358,-0.03584,0.08638,0.45794
-0.831905,0,0,15.8319,15.8319,14.1681,14.1681,1.38651,1.87351,8.2248,-0.0744403,-0.0981321,-0.00174889,0,0,3.4475,0.035,-0.1925,-0.082228,-0.110044,-1.01358,-0.03584,0.08638,0.45794
-0.86004,0,0,15.86,15.86,14.14,14.14,1.4334,1.98637,8.17377,0.0912412,-0.0399165,0.045131,0,0,3.29,-0.0875,-0.1575,0.086132,-0.052704,-0.966972,-0.03584,0.08638,0.45794
-0.888043,0,0,15.888,15.888,14.112,14.112,1.48007,2.09698,8.12276,0.089312,-0.0391044,0.0450415,0,0,3.675,-0.07,-0.245,0.086132,-0.052704,-0.966972,-0.03584,0.08638,0.45794
-0.923368,0,0,15.9234,15.9234,14.0766,14.0766,1.53895,1.92019,8.33552,-0.158715,-0.056394,-0.000737186,0,0,3.4825,0.105,-0.385,-0.166042,-0.071004,-1.01248,-0.03584,0.08638,0.45794
-0.958824,0,0,15.9588,15.9588,14.0412,14.0412,1.59804,1.74705,8.54765,-0.155695,-0.0553609,-0.000668748,0,0,4.2175,0.245,-0.2625,-0.166042,-0.071004,-1.01248,-0.03584,0.08638,0.45794
-0.981814,0,0,15.9818,15.9818,14.0182,14.0182,1.63636,1.70171,8.64581,-0.0421653,-0.0367394,-0.0387778,0,0,4.305,0.2275,-0.1575,-0.052826,-0.05307,-1.0503,-0.03584,0.08638,0.45794
-1.00391,0,0,16.0039,16.0039,13.9961,13.9961,1.67319,1.65684,8.74348,-0.0413824,-0.0360965,-0.0387735,0,0,3.8675,-0.035,-0.0525,-0.052826,-0.05307,-1.0503,-0.0343,0.08694,0.4536
-1.02457,0,0,16.0246,16.0246,13.9754,13.9754,1.70761,1.75863,8.70564,0.0965503,-0.0341543,-0.0721631,0,0,4.2175,-0.1575,-0.0875,0.087474,-0.051728,-1.08336,-0.0343,0.08694,0.4536
-1.04389,0,0,16.0439,16.0439,13.9561,13.9561,1.73982,1.85825,8.66799,0.0948126,-0.0335944,-0.0722349,0,0,3.3425,-0.2275,-0.035,0.087474,-0.051728,-1.08336,-0.0343,0.08694,0.4536
-1.09502,0,0,16.095,16.095,13.905,13.905,1.82504,1.89326,8.68461,0.029207,-0.0823033,-0.0373837,0,0,3.71,-0.385,-0.2275,0.022204,-0.10187,-1.04871,-0.0343,0.08694,0.4536
-1.14448,0,0,16.1445,16.1445,13.8555,13.8555,1.90747,1.92766,8.70154,0.0286069,-0.0808668,-0.0374506,0,0,3.045,-0.2625,-0.035,0.022204,-0.10187,-1.04871,-0.0343,0.08694,0.4536
-1.19073,0,0,16.1907,16.1907,13.8093,13.8093,1.98455,1.95047,8.729,0.0167893,-0.0719517,-0.00800205,0,0,3.4825,-0.1575,0.0525,0.010736,-0.094306,-1.01943,-0.0343,0.08694,0.4536
-1.23607,0,0,16.2361,16.2361,13.7639,13.7639,2.06011,1.97276,8.75634,0.0164005,-0.0706349,-0.00806187,0,0,3.4475,-0.14,0.035,0.010736,-0.094306,-1.01943,-0.0343,0.08694,0.4536
-1.24038,0,0,16.2404,16.2404,13.7596,13.7596,2.06729,1.97196,8.80816,0.000378334,-0.00798083,-0.0284754,0,0,3.4475,-0.1925,-0.175,-0.005368,-0.031842,-1.03968,-0.0343,0.08694,0.4536
-1.24511,0,0,16.2451,16.2451,13.7549,13.7549,2.07518,1.97153,8.86614,0.000385898,-0.00784342,-0.0284801,0,0,3.92,-0.0175,-0.42,-0.005368,-0.031842,-1.03968,-0.03472,0.0826,0.45794
-1.26176,0,0,16.2618,16.2618,13.7382,13.7382,2.10293,2.03278,8.86561,0.0545935,-0.0261685,-0.0269367,0,0,3.8675,-0.105,-0.595,0.050142,-0.05063,-1.0381,-0.03472,0.0826,0.45794
-1.27826,0,0,16.2783,16.2783,13.7217,13.7217,2.13043,2.09293,8.86495,0.0535443,-0.0256907,-0.0269922,0,0,4.025,-0.0175,-0.6825,0.050142,-0.05063,-1.0381,-0.03472,0.0826,0.45794
-1.26838,0,0,16.2684,16.2684,13.7316,13.7316,2.11397,2.18545,8.83561,0.0835169,0.0161541,-0.0116732,0,0,3.7275,-0.1225,-0.665,0.081862,-0.00854,-1.02285,-0.03472,0.0826,0.45794
-1.25841,0,0,16.2584,16.2584,13.7416,13.7416,2.09735,2.27644,8.80585,0.0819301,0.0158621,-0.0117244,0,0,3.4825,0.035,-0.9275,0.081862,-0.00854,-1.02285,-0.03472,0.0826,0.45794
-1.22874,0,0,16.2287,16.2287,13.7713,13.7713,2.0479,2.3185,8.82118,0.0462088,0.0457751,-0.089426,0,0,2.9225,0.1225,-1.1025,0.046726,0.022204,-1.09995,-0.03472,0.0826,0.45794
-1.19921,0,0,16.1992,16.1992,13.8008,13.8008,1.99869,2.35976,8.83679,0.0454893,0.0449164,-0.0894251,0,0,2.5375,0.1225,-0.9275,0.046726,0.022204,-1.09995,-0.03472,0.0826,0.45794
-1.20558,0,0,16.2056,16.2056,13.7944,13.7944,2.0093,2.35853,8.88743,-0.00284065,-0.00973351,0.0304441,0,0,2.765,0.07,-0.98,-0.00183,-0.032574,-0.981002,-0.03472,0.0826,0.45794
-1.21192,0,0,16.2119,16.2119,13.7881,13.7881,2.01987,2.35733,8.9249,-0.00281963,-0.00954924,0.0304385,0,0,2.87,0.1575,-1.0325,-0.00183,-0.032574,-0.981002,-0.0357,0.0903,0.46088
-1.20112,0,0,16.2011,16.2011,13.7989,13.7989,2.00187,2.40564,8.91865,0.0437174,0.0168817,-0.0078225,0,0,3.5,-0.035,-0.9275,0.04575,-0.005856,-1.01894,-0.0357,0.0903,0.46088
-1.19088,0,0,16.1909,16.1909,13.8091,13.8091,1.9848,2.45321,8.91236,0.0428878,0.0165828,-0.00784732,0,0,3.8325,0.0875,-0.9625,0.04575,-0.005856,-1.01894,-0.0357,0.0903,0.46088
-1.21965,0,0,16.2196,16.2196,13.7804,13.7804,2.03275,2.53572,8.86816,0.0803244,-0.0501198,-0.0813395,0,0,3.7275,-0.1225,-0.9975,0.08479,-0.073322,-1.09178,-0.0357,0.0903,0.46088
-1.24737,0,0,16.2474,16.2474,13.7526,13.7526,2.07895,2.61686,8.82417,0.0789098,-0.0493171,-0.081432,0,0,3.255,0.0525,-0.9625,0.08479,-0.073322,-1.09178,-0.0357,0.0903,0.46088
-1.29678,0,0,16.2968,16.2968,13.7032,13.7032,2.1613,2.65905,8.81234,0.0374764,-0.0825675,-0.043282,0,0,2.905,0.105,-0.805,0.04392,-0.10797,-1.05384,-0.0357,0.0903,0.46088
-1.34532,0,0,16.3453,16.3453,13.6547,13.6547,2.24219,2.70095,8.80091,0.0367459,-0.0811596,-0.0433704,0,0,2.94,0.4725,-0.6125,0.04392,-0.10797,-1.05384,-0.0357,0.0903,0.46088
-1.31275,0,0,16.3127,16.3127,13.6873,13.6873,2.18791,2.69197,8.84386,-0.00622489,0.0485706,-0.000909203,0,0,2.6075,0.28,-0.6475,0.00061,0.02257,-1.01175,-0.0357,0.0903,0.46088
-1.28164,0,0,16.2816,16.2816,13.7184,13.7184,2.13607,2.6827,8.88365,-0.00606334,0.0476677,-0.000867529,0,0,3.3775,-0.105,-0.35,0.00061,0.02257,-1.01175,-0.03542,0.09268,0.4585
-1.30783,0,0,16.3078,16.3078,13.6922,13.6922,2.17971,2.74586,8.85092,0.0632974,-0.0481761,-0.0922991,0,0,3.0975,0.14,-0.28,0.07137,-0.073932,-1.10239,-0.03542,0.09268,0.4585
-1.33369,0,0,16.3337,16.3337,13.6663,13.6663,2.22282,2.80732,8.81838,0.0622259,-0.0474272,-0.0923799,0,0,3.255,-0.0875,-0.21,0.07137,-0.073932,-1.10239,-0.03542,0.09268,0.4585
-1.36479,0,0,16.3648,16.3648,13.6352,13.6352,2.27465,2.9268,8.73069,0.106429,-0.0483604,-0.0116194,0,0,3.71,-0.385,-0.07,0.117852,-0.075762,-1.02212,-0.03542,0.09268,0.4585
-1.39476,0,0,16.3948,16.3948,13.6052,13.6052,2.32461,3.04422,8.64367,0.104383,-0.0474947,-0.011761,0,0,3.2025,-0.175,0.1575,0.117852,-0.075762,-1.02212,-0.03542,0.09268,0.4585
-1.37089,0,0,16.3709,16.3709,13.6291,13.6291,2.28481,3.00319,8.70518,-0.0342463,0.0365698,0.0324431,0,0,3.5,-0.49,0.105,-0.022082,0.008906,-0.978318,-0.03542,0.09268,0.4585
-1.3471,0,0,16.3471,16.3471,13.6529,13.6529,2.24517,2.96372,8.76668,-0.0335583,0.0358808,0.0325063,0,0,3.1675,-0.07,0.0875,-0.022082,0.008906,-0.978318,-0.03542,0.09268,0.4585
-1.29605,0,0,16.296,16.296,13.704,13.704,2.16008,2.94617,8.81301,-0.0141792,0.0776323,0.0157351,0,0,3.15,0.525,0.1225,-0.002928,0.052094,-0.995032,-0.03542,0.09268,0.4585
-1.24638,0,0,16.2464,16.2464,13.7536,13.7536,2.0773,2.92901,8.8595,-0.0138801,0.0761909,0.0158038,0,0,3.5525,0.525,0.1575,-0.002928,0.052094,-0.995032,-0.03542,0.09268,0.4585
-1.24225,0,0,16.2422,16.2422,13.7578,13.7578,2.07041,2.90254,8.90466,-0.0238664,0.00560468,0.0187824,0,0,2.87,0.42,0.0875,-0.01342,-0.0183,-0.992104,-0.0371,0.09534,0.46158
-1.2424,0,0,16.2424,16.2424,13.7576,13.7576,2.07066,2.90308,8.90564,-0.0793948,-0.0797576,-0.101954,1,0,3.6575,0.455,0.1575,-0.069174,-0.103578,-1.11191,-0.0371,0.09534,0.46158
-1.24206,0,0,16.2421,16.2421,13.7579,13.7579,2.0701,2.90288,8.90647,-0.0793914,-0.0797674,-0.101953,1,0,3.2025,0.0175,0.0875,-0.069174,-0.103578,-1.11191,-0.0371,0.09534,0.46158
-1.29391,0,0,16.2939,16.2939,13.7061,13.7061,2.15651,2.8721,8.94829,-0.0302606,-0.0748416,0.0557613,0,0,3.395,0.0875,0.0525,-0.020374,-0.100162,-0.955382,-0.0371,0.09534,0.46158
-1.34531,0,0,16.3453,16.3453,13.6547,13.6547,2.24218,2.8416,8.98947,-0.0297289,-0.0733483,0.0557305,0,0,3.885,-0.0875,-0.175,-0.020374,-0.100162,-0.955382,-0.0371,0.09534,0.46158
-1.30962,0,0,16.3096,16.3096,13.6904,13.6904,2.1827,2.85337,9.00278,0.00869831,0.0543368,0.0578504,0,0,3.395,-0.2275,-0.385,0.018422,0.028426,-0.953308,-0.0371,0.09534,0.46158
-1.27492,0,0,16.2749,16.2749,13.7251,13.7251,2.12487,2.86519,9.01597,0.00849238,0.0533291,0.057878,0,0,3.71,-0.0875,-0.4725,0.018422,0.028426,-0.953308,-0.0371,0.09534,0.46158
-1.14161,0,0,16.1416,16.1416,13.8584,13.8584,1.90268,2.87301,9.04589,0.0130939,0.212864,-0.012934,0,0,3.4825,0.35,-0.385,0.02318,0.191662,-1.0237,-0.0371,0.09534,0.46158
-1.01002,0,0,16.01,16.01,13.99,13.99,1.68337,2.87812,9.08661,0.0130049,0.209042,-0.0128188,0,0,3.0625,0.245,-0.7,0.02318,0.191662,-1.0237,-0.04088,0.08876,0.45178
-0.925182,0,0,15.9252,15.9252,14.0748,14.0748,1.54197,2.84463,9.15899,-0.0266231,0.124999,0.0660897,0,0,3.5875,0.5075,-0.665,-0.017202,0.110166,-0.9455,-0.04088,0.08876,0.45178
-0.841587,0,0,15.8416,15.8416,14.1584,14.1584,1.40264,2.812,9.23145,-0.0260543,0.122572,0.0661802,0,0,3.29,0.5775,-0.7875,-0.017202,0.110166,-0.9455,-0.04088,0.08876,0.45178
-0.784841,0,0,15.7848,15.7848,14.2152,14.2152,1.30807,2.76934,9.31138,-0.0344221,0.0892935,-0.0124316,0,0,3.99,0.4725,-0.6475,-0.026352,0.078568,-1.02358,-0.04088,0.08876,0.45178
-0.729018,0,0,15.729,15.729,14.271,14.271,1.21503,2.72733,9.39146,-0.0336898,0.0876727,-0.0123608,0,0,3.8675,0.3325,-0.6475,-0.026352,0.078568,-1.02358,-0.04088,0.08876,0.45178
-0.707421,0,0,15.7074,15.7074,14.2926,14.2926,1.17903,2.60797,9.53939,-0.103042,0.0329451,0.0155356,0,0,4.06,0.0525,-0.6125,-0.098088,0.024522,-0.996008,-0.04088,0.08876,0.45178
-0.686236,0,0,15.6862,15.6862,14.3138,14.3138,1.14373,2.49071,9.6868,-0.100998,0.0323314,0.0156391,0,0,4.0775,-0.105,-0.875,-0.098088,0.024522,-0.996008,-0.04088,0.08876,0.45178
-0.670082,0,0,15.6701,15.6701,14.3299,14.3299,1.1168,2.55257,9.67058,0.0528179,0.0256327,0.0353956,0,0,3.605,-0.0875,-0.7525,0.057462,0.0183,-0.976366,-0.04088,0.08876,0.45178
-0.654256,0,0,15.6543,15.6543,14.3457,14.3457,1.09043,2.61321,9.65253,0.0517606,0.025172,0.0353568,0,0,3.6225,-0.1575,-0.595,0.057462,0.0183,-0.976366,-0.04186,0.0896,0.45878
-0.619696,0,0,15.6197,15.6197,14.3803,14.3803,1.03283,2.61522,9.69025,0.0041032,0.0536004,-0.00151077,0,0,3.4125,0.105,-0.735,0.009638,0.047702,-1.01297,-0.04186,0.0896,0.45878
-0.585277,0,0,15.5853,15.5853,14.4147,14.4147,0.975461,2.61773,9.72828,0.00405937,0.0526004,-0.00149524,0,0,2.94,0.4025,-0.5775,0.009638,0.047702,-1.01297,-0.04186,0.0896,0.45878
-0.591528,0,0,15.5915,15.5915,14.4085,14.4085,0.985881,2.59785,9.7814,-0.017097,-0.0112122,-0.0354164,0,0,3.36,0.1225,-0.525,-0.011956,-0.016226,-1.04664,-0.04186,0.0896,0.45878
-0.597742,0,0,15.5977,15.5977,14.4023,14.4023,0.996237,2.5782,9.83447,-0.0167544,-0.0110313,-0.035404,0,0,3.43,0.035,-0.49,-0.011956,-0.016226,-1.04664,-0.04186,0.0896,0.45878
-0.687364,0,0,15.6874,15.6874,14.3126,14.3126,1.14561,2.57747,9.85878,-0.00507903,-0.148018,-0.0420913,0,0,3.57,0.1225,-0.4025,-0.000244,-0.155672,-1.05323,-0.04186,0.0896,0.45878
-0.775425,0,0,15.7754,15.7754,14.2246,14.2246,1.29237,2.57571,9.88269,-0.00504831,-0.14546,-0.0421444,0,0,3.6575,-0.4025,-0.525,-0.000244,-0.155672,-1.05323,-0.04186,0.0896,0.45878
-0.801119,0,0,15.8011,15.8011,14.1989,14.1989,1.3352,2.69963,9.79942,0.103951,-0.036145,0.039008,0,0,3.99,-0.4375,-0.49,0.111386,-0.047214,-0.972584,-0.04186,0.0896,0.45878
-0.826125,0,0,15.8261,15.8261,14.1739,14.1739,1.37688,2.82051,9.71375,0.101843,-0.0354211,0.0388892,0,0,3.885,-0.245,-0.2275,0.111386,-0.047214,-0.972584,-0.03738,0.0917,0.45892
-0.802544,0,0,15.8025,15.8025,14.1975,14.1975,1.33757,2.86505,9.70323,0.0412958,0.0372913,0.00456425,0,0,3.5525,-0.35,-0.2275,0.051362,0.026108,-1.00662,-0.03738,0.0917,0.45892
-0.779205,0,0,15.7792,15.7792,14.2208,14.2208,1.29867,2.90915,9.69272,0.0405273,0.0366125,0.0045411,0,0,3.3775,-0.1225,-0.2275,0.051362,0.026108,-1.00662,-0.03738,0.0917,0.45892
-0.737418,0,0,15.7374,15.7374,14.2626,14.2626,1.22903,2.93838,9.69819,0.0254395,0.0639759,0.0334348,0,0,3.395,0.2275,-0.3325,0.036722,0.054656,-0.977952,-0.03738,0.0917,0.45892
-0.696736,0,0,15.6967,15.6967,14.3033,14.3033,1.16123,2.96741,9.70379,0.0249334,0.0627938,0.0334333,0,0,3.71,0.42,-0.28,0.036722,0.054656,-0.977952,-0.03738,0.0917,0.45892
-0.668187,0,0,15.6682,15.6682,14.3318,14.3318,1.11364,2.88431,9.81168,-0.0725074,0.0431585,0.0349992,0,0,3.6925,0.49,-0.245,-0.062586,0.035868,-0.976488,-0.03738,0.0917,0.45892
-0.640202,0,0,15.6402,15.6402,14.3598,14.3598,1.067,2.80272,9.91947,-0.0710852,0.042347,0.0350853,0,0,3.7275,0.42,-0.315,-0.062586,0.035868,-0.976488,-0.03738,0.0917,0.45892
-0.600844,0,0,15.6008,15.6008,14.3992,14.3992,1.00141,2.8652,9.89608,0.0523485,0.0606209,0.0557074,0,0,3.99,0.1575,-0.3325,0.062464,0.055266,-0.955992,-0.03738,0.0917,0.45892
-0.562153,0,0,15.5622,15.5622,14.4378,14.4378,0.936922,2.92603,9.87841,0.0512883,0.0594961,0.0556727,0,0,4.0075,0.315,-0.1575,0.062464,0.055266,-0.955992,-0.03206,0.08862,0.45878
-0.604849,0,0,15.6048,15.6048,14.3952,14.3952,1.00808,2.81201,10.012,-0.110244,-0.0738456,-0.0745741,0,0,3.815,0.1225,-0.315,-0.101748,-0.079178,-1.08531,-0.03206,0.08862,0.45878
-0.64632,0,0,15.6463,15.6463,14.3537,14.3537,1.0772,2.69962,10.1446,-0.108285,-0.0726392,-0.0745018,0,0,3.4125,-0.175,-0.5775,-0.101748,-0.079178,-1.08531,-0.03206,0.08862,0.45878
-0.669469,0,0,15.6695,15.6695,14.3305,14.3305,1.11578,2.76644,10.1138,0.0524908,-0.0326429,0.0662058,0,0,3.29,-0.175,-0.525,0.060878,-0.039894,-0.945622,-0.03206,0.08862,0.45878
-0.692276,0,0,15.6923,15.6923,14.3077,14.3077,1.15379,2.83272,10.0829,0.0513354,-0.0319816,0.0661362,0,0,3.3775,0.28,-0.63,0.060878,-0.039894,-0.945622,-0.03206,0.08862,0.45878
-0.734626,0,0,15.7346,15.7346,14.2654,14.2654,1.22438,2.87764,10.068,0.0394972,-0.0680009,-0.0163039,0,0,3.4125,0.21,-0.5075,0.049776,-0.077104,-1.02736,-0.03206,0.08862,0.45878
-0.776221,0,0,15.7762,15.7762,14.2238,14.2238,1.2937,2.92202,10.0534,0.0387236,-0.0667936,-0.0163696,0,0,3.43,0.4375,-0.35,0.049776,-0.077104,-1.02736,-0.03206,0.08862,0.45878
-0.784468,0,0,15.7845,15.7845,14.2155,14.2155,1.30745,2.9287,10.0778,0.00920764,-0.0161159,-0.0718308,0,0,3.1675,0.35,-0.2975,0.020252,-0.026718,-1.08238,-0.03206,0.08862,0.45878
-0.79268,0,0,15.7927,15.7927,14.2073,14.2073,1.32113,2.93433,10.1024,0.00910937,-0.0158775,-0.0718413,0,0,3.2725,-0.175,-0.175,0.020252,-0.026718,-1.08238,-0.03206,0.08862,0.45878
-0.772602,0,0,15.7726,15.7726,14.2274,14.2274,1.28767,2.97109,10.0973,0.0333732,0.0320229,0.0132193,0,0,3.6925,-0.07,-0.1225,0.045262,0.021716,-0.99796,-0.0322,0.0917,0.45836
-0.752733,0,0,15.7527,15.7527,14.2473,14.2473,1.25455,3.00726,10.092,0.0327429,0.0314451,0.0131992,0,0,3.5525,-0.0175,-0.2275,0.045262,0.021716,-0.99796,-0.0322,0.0917,0.45836
-0.72654,0,0,15.7265,15.7265,14.2735,14.2735,1.2109,3.00387,10.1244,-0.00255033,0.0415538,0.0191202,0,0,4.0425,0,-0.105,0.00976,0.032574,-0.992104,-0.0322,0.0917,0.45836
-0.700369,0,0,15.7004,15.7004,14.2996,14.2996,1.16728,3.00054,10.1565,-0.00249235,0.0407938,0.019139,0,0,3.6225,-0.0175,-0.315,0.00976,0.032574,-0.992104,-0.0322,0.0917,0.45836
-0.669792,0,0,15.6698,15.6698,14.3302,14.3302,1.11632,3.00665,10.1802,0.00760589,0.0483324,-2.88107e-05,0,0,3.675,-0.245,-0.315,0.020008,0.040992,-1.01114,-0.0322,0.0917,0.45836
-0.639661,0,0,15.6397,15.6397,14.3603,14.3603,1.0661,3.01298,10.2039,0.00749568,0.0474571,-1.79357e-05,0,0,3.57,-0.07,-0.35,0.020008,0.040992,-1.01114,-0.0322,0.0917,0.45836
-0.560146,0,0,15.5601,15.5601,14.4399,14.4399,0.933576,3.04559,10.2107,0.0374202,0.13088,-0.0400889,0,0,3.6575,0,-0.21,0.05063,0.126636,-1.05091,-0.0322,0.0917,0.45836
-0.482046,0,0,15.482,15.482,14.518,14.518,0.803409,3.07823,10.2175,0.0368512,0.128611,-0.040085,0,0,3.64,0.35,-0.315,0.05063,0.126636,-1.05091,-0.0322,0.0917,0.45836
-0.414646,0,0,15.4146,15.4146,14.5854,14.5854,0.691077,3.13277,10.1993,0.0447693,0.100152,0.0743541,0,0,3.4475,0.07,-0.49,0.059536,0.100162,-0.937326,-0.04158,0.09226,0.46592
-0.400249,0,0,15.4002,15.4002,14.5998,14.5998,0.667082,3.02262,10.325,-0.0964211,0.0214515,0.0372088,0,0,3.7275,-0.175,-0.49,-0.08418,0.02196,-0.974292,-0.04158,0.09226,0.46592
-0.385865,0,0,15.3859,15.3859,14.6141,14.6141,0.643108,2.91465,10.4508,-0.0945392,0.0210348,0.0373112,0,0,3.4825,-0.14,-0.4025,-0.08418,0.02196,-0.974292,-0.04158,0.09226,0.46592
-0.336264,0,0,15.3363,15.3363,14.6637,14.6637,0.560439,2.88492,10.5115,-0.0235593,0.0787035,-0.00887605,0,0,3.6925,-0.21,-0.4025,-0.01342,0.081008,-1.02016,-0.04158,0.09226,0.46592
-0.287321,0,0,15.2873,15.2873,14.7127,14.7127,0.478868,2.8564,10.572,-0.0230622,0.0772819,-0.00883823,0,0,3.465,0.14,-0.56,-0.01342,0.081008,-1.02016,-0.04158,0.09226,0.46592
-0.306471,0,0,15.3065,15.3065,14.6935,14.6935,0.510785,2.87103,10.5811,0.0143434,-0.0313432,-0.027421,0,0,3.43,-0.14,-0.77,0.0244,-0.02806,-1.03859,-0.04158,0.09226,0.46592
-0.325582,0,0,15.3256,15.3256,14.6744,14.6744,0.542637,2.88595,10.5906,0.0140833,-0.0307881,-0.0274392,0,0,3.71,0.21,-0.5075,0.0244,-0.02806,-1.03859,-0.04158,0.09226,0.46592
-0.323866,0,0,15.3239,15.3239,14.6761,14.6761,0.539777,2.9192,10.5864,0.028568,0.00360149,0.0178999,0,0,3.8325,0.2625,-0.4375,0.039528,0.006344,-0.993568,-0.04158,0.09226,0.46592
-0.322013,0,0,15.322,15.322,14.678,14.678,0.536688,2.95218,10.5692,0.027993,0.00354737,0.0178709,0,0,3.675,0.4375,-0.5075,0.039528,0.006344,-0.993568,-0.0413,0.10066,0.46018
-0.255352,0,0,15.2554,15.2554,14.7446,14.7446,0.425587,3.06285,10.4905,0.0909376,0.0998001,0.0812273,0,0,3.5875,0.28,-0.455,0.104676,0.104432,-0.930616,-0.0413,0.10066,0.46018
-0.18959,0,0,15.1896,15.1896,14.8104,14.8104,0.315984,3.1708,10.4117,0.0890563,0.0978893,0.0811372,0,0,3.325,-0.105,-0.4375,0.104676,0.104432,-0.930616,-0.0413,0.10066,0.46018
-0.102906,0,0,15.1029,15.1029,14.8971,14.8971,0.17151,3.01979,10.5771,-0.134761,0.134086,0.0193242,0,0,3.325,0.0175,-0.5775,-0.122732,0.143106,-0.992104,-0.0413,0.10066,0.46018
-0.0185256,0,0,15.0185,15.0185,14.9815,14.9815,0.0308761,2.87169,10.7432,-0.13218,0.131635,0.0194613,0,0,4.0075,0.0525,-0.6125,-0.122732,0.143106,-0.992104,-0.0413,0.10066,0.46018
0.0619851,0,0,14.938,14.938,15.062,15.062,-0.103308,2.88041,10.7647,0.0107783,0.128197,0.00482134,0,0,3.745,0.0175,-0.595,0.020984,0.142008,-1.00662,-0.0413,0.10066,0.46018
0.140773,0,0,14.8592,14.8592,15.1408,15.1408,-0.234622,2.88929,10.7859,0.0106234,0.125908,0.00480679,0,0,4.0075,0.1925,-0.84,0.020984,0.142008,-1.00662,-0.0413,0.10066,0.46018
0.121619,0,0,14.8784,14.8784,15.1216,15.1216,-0.202698,2.99005,10.703,0.0924493,-0.0293687,-0.000813957,0,0,3.885,0.315,-0.5775,0.10492,-0.013664,-1.01211,-0.0413,0.10066,0.46018
0.103424,0,0,14.8966,14.8966,15.1034,15.1034,-0.172374,3.08836,10.6356,0.090736,-0.0288399,-0.000903193,0,0,3.3075,0.035,-0.315,0.10492,-0.013664,-1.01211,-0.03906,0.091,0.46732
0.076378,0,0,14.9236,14.9236,15.0764,15.0764,-0.127297,3.03511,10.7083,-0.0502314,-0.0438088,-0.0232281,0,0,3.6575,0.035,-0.42,-0.037576,-0.029402,-1.03432,-0.03906,0.091,0.46732
0.0503609,0,0,14.9496,14.9496,15.0504,15.0504,-0.0839348,2.9832,10.781,-0.0493266,-0.0430531,-0.0231792,0,0,3.15,0.245,-0.315,-0.037576,-0.029402,-1.03432,-0.03906,0.091,0.46732
0.00493414,0,0,14.9951,14.9951,15.0049,15.0049,-0.00822357,2.9398,10.8426,-0.0424958,-0.0716546,0.0130079,0,0,3.29,0.0525,-0.315,-0.031476,-0.059292,-0.998448,-0.03906,0.091,0.46732
-0.0393444,0,0,15.0393,15.0393,14.9607,14.9607,0.0655739,2.89739,10.9038,-0.0417566,-0.0703682,0.0130449,0,0,2.9925,0.1925,-0.385,-0.031476,-0.059292,-0.998448,-0.03906,0.091,0.46732
-0.0711965,0,0,15.0712,15.0712,14.9288,14.9288,0.118661,2.92778,10.8992,0.0259887,-0.0511239,0.00109048,0,0,3.01,0.1925,-0.315,0.037088,-0.040992,-1.01028,-0.03906,0.091,0.46732
-0.102745,0,0,15.1027,15.1027,14.8973,14.8973,0.171242,2.95723,10.8946,0.0254754,-0.0502075,0.00106178,0,0,3.2725,0,-0.35,0.037088,-0.040992,-1.01028,-0.03906,0.091,0.46732
-0.0963694,0,0,15.0964,15.0964,14.9036,14.9036,0.160616,3.02228,10.8618,0.0692913,0.0104263,-0.0730119,0,0,3.1325,-0.2625,-0.3325,0.082228,0.019764,-1.08373,-0.03906,0.091,0.46732
-0.0907087,0,0,15.0907,15.0907,14.9093,14.9093,0.151181,3.08642,10.8338,0.0681734,0.0102617,-0.0730711,0,0,3.7275,0.14,-0.14,0.082228,0.019764,-1.08373,-0.035,0.08904,0.45836
-0.0889667,0,0,15.089,15.089,14.911,14.911,0.148278,3.04643,10.9022,-0.0375512,0.00215082,0.0409396,0,0,3.3425,0.1575,-0.2625,-0.024644,0.011712,-0.970632,-0.035,0.08904,0.45836
-0.0873691,0,0,15.0874,15.0874,14.9126,14.9126,0.145615,3.00699,10.9705,-0.0368637,0.0021045,0.0409761,0,0,3.4475,0.035,-0.2975,-0.024644,0.011712,-0.970632,-0.035,0.08904,0.45836
0.017069,0,0,14.9829,14.9829,15.0171,15.0171,-0.0284483,3.00137,11.0244,-0.00177794,0.159423,0.048976,0,0,3.605,0.1225,-0.3675,0.010492,0.171898,-0.962702,-0.035,0.08904,0.45836
0.120417,0,0,14.8796,14.8796,15.1204,15.1204,-0.200695,2.99587,11.0788,-0.00168204,0.156421,0.048975,0,0,2.87,0.0875,-0.2975,0.010492,0.171898,-0.962702,-0.035,0.08904,0.45836
0.158289,0,0,14.8417,14.8417,15.1583,15.1583,-0.263815,3.10636,11.0124,0.108888,0.0618943,-0.0139588,0,0,3.3425,0.0525,-0.4025,0.123464,0.078568,-1.02504,-0.035,0.08904,0.45836
0.195793,0,0,14.8042,14.8042,15.1958,15.1958,-0.326322,3.21525,10.9458,0.10699,0.0608056,-0.0140692,0,0,3.0625,0.2975,-0.455,0.123464,0.078568,-1.02504,-0.035,0.08904,0.45836
0.162635,0,0,14.8374,14.8374,15.1626,15.1626,-0.271059,3.22535,10.9601,0.00549538,-0.0513207,0.0308021,0,0,3.4125,0.2275,-0.4025,0.021716,-0.034404,-0.980514,-0.035,0.08904,0.45836
0.130143,0,0,14.8699,14.8699,15.1301,15.1301,-0.216905,3.23529,10.9724,0.00532222,-0.050377,0.0307964,0,0,3.36,0.28,-0.4375,0.021716,-0.034404,-0.980514,-0.03766,0.08988,0.4599
0.0708839,0,0,14.9291,14.9291,15.0709,15.0709,-0.11814,3.097,11.1197,-0.135014,-0.0988504,-0.0285724,0,0,3.2375,0.49,-0.595,-0.121634,-0.084546,-1.03956,-0.03766,0.08988,0.4599
0.0123991,0,0,14.9876,14.9876,15.0124,15.0124,-0.0206651,2.9607,11.2661,-0.132638,-0.0971517,-0.0284446,0,0,3.5175,0.1925,-0.7,-0.121634,-0.084546,-1.03956,-0.03766,0.08988,0.4599
0.0161166,0,0,14.9839,14.9839,15.0161,15.0161,-0.0268611,3.01849,11.2424,0.0533212,0.00569322,0.00322347,0,0,3.22,0.28,-0.805,0.066124,0.0183,-1.00809,-0.03766,0.08988,0.4599
0.0195194,0,0,14.9805,14.9805,15.0195,15.0195,-0.0325324,3.07523,11.219,0.0523323,0.0055944,0.00317078,0,0,3.4475,0.2975,-0.63,0.066124,0.0183,-1.00809,-0.03766,0.08988,0.4599
0.0963278,0,0,14.9037,14.9037,15.0963,15.0963,-0.160546,2.95643,11.3729,-0.111182,0.130985,-0.0757798,0,0,3.36,0.1925,-0.5775,-0.100162,0.14579,-1.08653,-0.03766,0.08988,0.4599
0.172296,0,0,14.8277,14.8277,15.1723,15.1723,-0.287159,2.84015,11.5272,-0.109155,0.128778,-0.0756858,0,0,2.8525,0.35,-0.7,-0.100162,0.14579,-1.08653,-0.03766,0.08988,0.4599
0.193547,0,0,14.8065,14.8065,15.1935,15.1935,-0.322579,2.8146,11.5883,-0.022455,0.0329017,-0.00337335,0,0,3.115,0.14,-0.6825,-0.013542,0.05063,-1.0148,-0.03766,0.08988,0.4599
0.214611,0,0,14.7854,14.7854,15.2146,15.2146,-0.357684,2.78931,11.6495,-0.0220141,0.0322896,-0.00335541,0,0,2.9225,0,-0.5425,-0.013542,0.05063,-1.0148,-0.03766,0.08988,0.4599
0.14946,0,0,14.8505,14.8505,15.1495,15.1495,-0.2491,2.86931,11.6022,0.0753592,-0.108705,-0.0425119,0,0,3.255,0.21,-0.525,0.085644,-0.09211,-1.05359,-0.0392,0.08638,0.4557
0.160398,0,0,14.8396,14.8396,15.1604,15.1604,-0.26733,2.86331,11.6483,-0.00289458,0.0175,-0.0438606,0,0,3.115,0.14,-0.3325,0.006954,0.034282,-1.05493,-0.0392,0.08638,0.4557
0.171039,0,0,14.829,14.829,15.171,15.171,-0.285065,2.85801,11.6945,-0.00280219,0.0171909,-0.0438574,0,0,3.2025,0.4725,-0.245,0.006954,0.034282,-1.05493,-0.0392,0.08638,0.4557
0.203206,0,0,14.7968,14.7968,15.2032,15.2032,-0.338676,2.88091,11.7178,0.0219462,0.0509405,0.0163622,0,0,3.85,0.4375,-0.4375,0.032208,0.06893,-0.995154,-0.0392,0.08638,0.4557
0.234987,0,0,14.765,14.765,15.235,15.235,-0.391645,2.90313,11.7415,0.0215589,0.0500173,0.0163368,0,0,3.6575,0.2625,-0.2275,0.032208,0.06893,-0.995154,-0.0392,0.08638,0.4557
0.256822,0,0,14.7432,14.7432,15.2568,15.2568,-0.428036,2.83107,11.8525,-0.0655052,0.0330175,0.0261081,0,0,3.5175,0.28,-0.035,-0.056486,0.052582,-0.985516,-0.0392,0.08638,0.4557
0.278253,0,0,14.7217,14.7217,15.2783,15.2783,-0.463755,2.7599,11.9637,-0.0642645,0.0323944,0.0261638,0,0,3.5175,0,0.035,-0.056486,0.052582,-0.985516,-0.0392,0.08638,0.4557
0.252545,0,0,14.7475,14.7475,15.2525,15.2525,-0.420909,2.7631,11.9972,0.00140348,-0.0407453,-0.00284895,0,0,3.6225,0.0175,0.0525,0.009516,-0.021228,-1.01431,-0.0392,0.08638,0.4557
0.227432,0,0,14.7726,14.7726,15.2274,15.2274,-0.379054,2.76626,12.0223,0.0013484,-0.0400157,-0.00284652,0,0,3.5525,0.28,0.0175,0.009516,-0.021228,-1.01431,-0.03514,0.09184,0.45808
0.262776,0,0,14.7372,14.7372,15.2628,15.2628,-0.437961,2.79822,12.0321,0.0312842,0.0562927,0.00793856,0,0,3.605,0.2975,-0.0525,0.040138,0.076006,-1.00357,-0.03514,0.09184,0.45808
0.297544,0,0,14.7025,14.7025,15.2975,15.2975,-0.495907,2.82939,12.0418,0.0307409,0.0552828,0.00790362,0,0,3.5525,0.1575,-0.105,0.040138,0.076006,-1.00357,-0.03514,0.09184,0.45808
0.331731,0,0,14.6683,14.6683,15.3317,15.3317,-0.552885,2.73396,12.1714,-0.0877449,0.052579,0.0147375,0,0,3.29,0.315,-0.21,-0.08052,0.074298,-0.996862,-0.03514,0.09184,0.45808
0.365489,0,0,14.6345,14.6345,15.3655,15.3655,-0.609149,2.63996,12.301,-0.086106,0.0515974,0.0148045,0,0,3.115,0.105,-0.3325,-0.08052,0.074298,-0.996862,-0.03514,0.09184,0.45808
0.376262,0,0,14.6237,14.6237,15.3763,15.3763,-0.627103,2.66341,12.3159,0.024766,0.0185546,-0.0307088,0,0,3.7625,0.245,-0.49,0.031232,0.041602,-1.042,-0.03514,0.09184,0.45808
0.386761,0,0,14.6132,14.6132,15.3868,15.3868,-0.644602,2.68606,12.331,0.0243711,0.0182498,-0.0307306,0,0,3.8325,0.0175,-0.385,0.031232,0.041602,-1.042,-0.03514,0.09184,0.45808
0.368555,0,0,14.6314,14.6314,15.3686,15.3686,-0.614259,2.85495,12.2002,0.161014,-0.0283607,0.00294358,0,0,3.8675,0.14,-0.3675,0.17141,-0.00549,-1.00845,-0.03514,0.09184,0.45808
0.350798,0,0,14.6492,14.6492,15.3508,15.3508,-0.584663,3.02059,12.0642,0.158127,-0.0278433,0.00280081,0,0,3.745,-0.1225,-0.7175,0.17141,-0.00549,-1.00845,-0.0364,0.09492,0.45346
0.353365,0,0,14.6466,14.6466,15.3534,15.3534,-0.588942,2.84837,12.2505,-0.152669,0.00200163,0.0844688,0,0,3.6925,-0.2975,-0.7175,-0.143716,0.0244,-0.927566,-0.0364,0.09492,0.45346
0.356064,0,0,14.6439,14.6439,15.3561,15.3561,-0.59344,2.67991,12.4367,-0.149732,0.00192176,0.0846097,0,0,3.5175,0.07,-0.665,-0.143716,0.0244,-0.927566,-0.0364,0.09492,0.45346
0.413101,0,0,14.5869,14.5869,15.4131,15.4131,-0.688502,2.80686,12.3571,0.135976,0.100165,-0.060717,0,0,3.6925,0.035,-0.665,0.145424,0.124196,-1.07165,-0.0364,0.09492,0.45346
0.469456,0,0,14.5305,14.5305,15.4695,15.4695,-0.782426,2.93151,12.2768,0.133803,0.0985298,-0.0608469,0,0,3.4125,0.0175,-0.98,0.145424,0.124196,-1.07165,-0.0364,0.09492,0.45346
0.51121,0,0,14.4888,14.4888,15.5112,15.5112,-0.852016,2.85963,12.3788,-0.064545,0.0599452,0.0823112,0,0,3.675,-0.0175,-0.9975,-0.055022,0.086864,-0.92964,-0.0364,0.09492,0.45346
0.552265,0,0,14.4477,14.4477,15.5523,15.5523,-0.920441,2.78944,12.4811,-0.0633216,0.0587516,0.0823531,0,0,3.6225,0.1925,-1.015,-0.055022,0.086864,-0.92964,-0.0364,0.09492,0.45346
0.522327,0,0,14.4777,14.4777,15.5223,15.5223,-0.870545,2.62378,12.6596,-0.15094,-0.0461425,0.078323,0,0,3.7975,0.3325,-1.12,-0.145912,-0.018788,-0.933788,-0.0364,0.09492,0.45346
0.492665,0,0,14.5073,14.5073,15.4927,15.4927,-0.821108,2.46093,12.8465,-0.148101,-0.0452825,0.0784618,0,0,3.955,-0.1225,-0.8225,-0.145912,-0.018788,-0.933788,-0.03612,0.08932,0.45696
0.554119,0,0,14.4459,14.4459,15.5541,15.5541,-0.923531,2.53714,12.8284,0.0685156,0.0908138,0.0781307,0,0,3.6925,0.0175,-0.8575,0.072956,0.11895,-0.934032,-0.03612,0.08932,0.45696
0.614421,0,0,14.3856,14.3856,15.6144,15.6144,-1.02404,2.6118,12.8105,0.0672139,0.0890627,0.0780424,0,0,3.745,-0.1225,-0.77,0.072956,0.11895,-0.934032,-0.03612,0.08932,0.45696
0.614483,0,0,14.3855,14.3855,15.6145,15.6145,-1.02414,2.61123,12.8099,0.0764567,0.139255,-0.116585,1,0,3.5,-0.21,-0.7175,0.082228,0.169092,-1.12716,-0.03612,0.08932,0.45696
0.614746,0,0,14.3853,14.3853,15.6147,15.6147,-1.02458,2.61156,12.8096,0.0764509,0.139247,-0.116585,1,0,3.3075,0.315,-0.595,0.082228,0.169092,-1.12716,-0.03612,0.08932,0.45696
0.575245,0,0,14.4248,14.4248,15.5752,15.5752,-0.958742,2.52025,12.9282,-0.0910651,-0.0645349,-0.0242825,0,0,3.675,0.1925,-0.4725,-0.087596,-0.035624,-1.03566,-0.03612,0.08932,0.45696
0.536563,0,0,14.4634,14.4634,15.5366,15.5366,-0.894271,2.43072,13.0466,-0.0895039,-0.0634119,-0.0241968,0,0,3.57,0.2975,-0.42,-0.087596,-0.035624,-1.03566,-0.03612,0.08932,0.45696
0.50851,0,0,14.4915,14.4915,15.5085,15.5085,-0.847517,2.45251,13.0628,0.0239482,-0.04672,-0.0904699,0,0,3.9375,0.2625,-0.315,0.026718,-0.019764,-1.10142,-0.03612,0.08932,0.45696
0.481187,0,0,14.5188,14.5188,15.4812,15.4812,-0.801978,2.47452,13.0881,0.0235645,-0.0459258,-0.090475,0,0,3.6575,0.35,-0.14,0.026718,-0.019764,-1.10142,-0.03878,0.08358,0.45262
0.415216,0,0,14.5848,14.5848,15.4152,15.4152,-0.692027,2.45291,13.1464,-0.0265968,-0.108492,-0.0322791,0,0,3.6575,0.5425,0.1225,-0.024034,-0.08418,-1.04371,-0.03878,0.08358,0.45262
0.350163,0,0,14.6498,14.6498,15.3502,15.3502,-0.583605,2.43055,13.2047,-0.0262069,-0.106602,-0.0322414,0,0,3.9025,-0.0525,0.2625,-0.024034,-0.08418,-1.04371,-0.03878,0.08358,0.45262
0.303672,0,0,14.6963,14.6963,15.3037,15.3037,-0.50612,2.35622,13.3157,-0.0745983,-0.0755742,-0.0128715,0,0,3.5875,-0.0175,0.315,-0.073932,-0.054534,-1.02456,-0.03878,0.08358,0.45262
0.258052,0,0,14.7419,14.7419,15.2581,15.2581,-0.430087,2.28346,13.4263,-0.0733294,-0.0742487,-0.0128093,0,0,3.5525,0.1575,0.315,-0.073932,-0.054534,-1.02456,-0.03878,0.08358,0.45262
0.212303,0,0,14.7877,14.7877,15.2123,15.2123,-0.353838,2.4015,13.3585,0.112915,-0.0754831,-0.0324332,0,0,3.395,0.175,0.385,0.115168,-0.057096,-1.04395,-0.03878,0.08358,0.45262
0.167458,0,0,14.8325,14.8325,15.1675,15.1675,-0.279097,2.51751,13.2908,0.110892,-0.0741794,-0.0325129,0,0,3.325,0.2975,0.3325,0.115168,-0.057096,-1.04395,-0.03878,0.08358,0.45262
0.187751,0,0,14.8122,14.8122,15.1878,15.1878,-0.312918,2.37283,13.4792,-0.127491,0.0281832,0.0783684,0,0,3.43,0.105,0.3325,-0.126758,0.04575,-0.934032,-0.03878,0.08358,0.45262
0.207289,0,0,14.7927,14.7927,15.2073,15.2073,-0.345482,2.23121,13.6672,-0.125022,0.0276147,0.0784644,0,0,3.7975,0.3325,0.14,-0.126758,0.04575,-0.934032,-0.03878,0.08358,0.45262
0.255346,0,0,14.7447,14.7447,15.2553,15.2553,-0.425577,2.12776,13.8193,-0.0927244,0.0749459,0.0192625,0,0,3.6925,0.0175,0.175,-0.096136,0.094428,-0.992836,-0.03906,0.08946,0.4571
0.302261,0,0,14.6977,14.6977,15.3023,15.3023,-0.503768,2.02617,13.9716,-0.0909526,0.0735817,0.0193157,0,0,3.955,-0.035,0.14,-0.096136,0.094428,-0.992836,-0.03906,0.08946,0.4571
0.238345,0,0,14.7617,14.7617,15.2383,15.2383,-0.397242,2.07857,13.9528,0.0451694,-0.102865,-0.00725931,0,0,3.745,-0.07,-0.175,0.04148,-0.083692,-1.01919,-0.03906,0.08946,0.4571
0.175575,0,0,14.8244,14.8244,15.1756,15.1756,-0.292625,2.12989,13.9341,0.0442742,-0.10104,-0.00728122,0,0,3.745,-0.07,-0.175,0.04148,-0.083692,-1.01919,-0.03906,0.08946,0.4571
0.168115,0,0,14.8319,14.8319,15.1681,15.1681,-0.280192,2.14313,13.9566,0.021447,-0.0116709,-0.037657,0,0,3.745,-4.4275,-0.42,0.018788,0.005368,-1.04932,-0.03906,0.08946,0.4571
0.16079,0,0,14.8392,14.8392,15.1608,15.1608,-0.267983,2.15612,13.9792,0.0212205,-0.0114579,-0.0376645,0,0,3.745,-4.4275,-0.42,0.018788,0.005368,-1.04932,-0.03906,0.08946,0.4571
0.192137,0,0,14.8079,14.8079,15.1921,15.1921,-0.320228,2.11443,14.0755,-0.0435333,0.0488162,0.0196519,0,0,3.6225,4.3575,-0.77,-0.04697,0.06649,-0.99247,-0.03906,0.08946,0.4571
0.22292,0,0,14.7771,14.7771,15.2229,15.2229,-0.371533,2.07356,14.1719,-0.0428204,0.0479213,0.0196726,0,0,3.6225,4.3575,-0.77,-0.04697,0.06649,-0.99247,-0.03906,0.08946,0.4571
0.257257,0,0,14.7427,14.7427,15.2573,15.2573,-0.428761,2.25336,14.0528,0.180615,0.0591367,-0.0170915,0,0,3.71,-0.21,-0.91,0.18056,0.07869,-1.02883,-0.04018,0.09128,0.45864
0.19863,0,0,14.8014,14.8014,15.1986,15.1986,-0.331051,2.17111,14.1518,-0.0802386,-0.0914517,0.0396545,0,0,3.675,-0.0175,-1.05,-0.082838,-0.073444,-0.972584,-0.04018,0.09128,0.45864
0.140793,0,0,14.8592,14.8592,15.1408,15.1408,-0.234655,2.09015,14.2499,-0.0788266,-0.0897707,0.0397153,0,0,3.92,-0.0875,-1.2775,-0.082838,-0.073444,-0.972584,-0.04018,0.09128,0.45864
0.122843,0,0,14.8772,14.8772,15.1228,15.1228,-0.204739,2.17785,14.2026,0.0899668,-0.0296509,-0.0680426,0,0,3.71,-0.0175,-1.33,0.088206,-0.013908,-1.07946,-0.04018,0.09128,0.45864
0.105056,0,0,14.8949,14.8949,15.1051,15.1051,-0.175093,2.26383,14.1553,0.0884673,-0.0291336,-0.068099,0,0,3.8675,-0.07,-1.295,0.088206,-0.013908,-1.07946,-0.04018,0.09128,0.45864
0.121351,0,0,14.8786,14.8786,15.1214,15.1214,-0.202252,2.28277,14.1788,0.024357,0.02938,-0.096146,0,0,3.64,0.315,-1.155,0.024156,0.045018,-1.10727,-0.04018,0.09128,0.45864
0.137243,0,0,14.8628,14.8628,15.1372,15.1372,-0.228739,2.30058,14.2023,0.0240464,0.0289181,-0.0961601,0,0,3.745,-0.1575,-1.1375,0.024156,0.045018,-1.10727,-0.04018,0.09128,0.45864
0.156024,0,0,14.844,14.844,15.156,15.156,-0.26004,2.28525,14.2573,-0.0137112,0.0284943,0.0421653,0,0,3.5175,-0.1925,-0.9975,-0.01403,0.04514,-0.970022,-0.04018,0.09128,0.45864
0.174565,0,0,14.8254,14.8254,15.1746,15.1746,-0.290942,2.27046,14.3146,-0.0134533,0.0279554,0.042173,0,0,3.4125,-0.105,-1.015,-0.01403,0.04514,-0.970022,-0.03514,0.09044,0.46004
0.203073,0,0,14.7969,14.7969,15.2031,15.2031,-0.338456,2.20793,14.4202,-0.0570696,0.0452013,-0.000329105,0,0,3.465,-0.035,-0.77,-0.058926,0.063196,-1.01223,-0.03514,0.09044,0.46004
0.231395,0,0,14.7686,14.7686,15.2314,15.2314,-0.385658,2.14721,14.5262,-0.0560106,0.0443778,-0.00029404,0,0,3.15,0.3325,-0.525,-0.058926,0.063196,-1.01223,-0.03514,0.09044,0.46004
0.281932,0,0,14.7181,14.7181,15.2819,15.2819,-0.469887,2.31151,14.4273,0.151173,0.0779601,0.0641314,0,0,3.3775,0.1225,-0.3675,0.152012,0.09821,-0.948184,-0.03514,0.09044,0.46004
0.332325,0,0,14.6677,14.6677,15.3323,15.3323,-0.553874,2.47264,14.3283,0.148363,0.0764966,0.064001,0,0,2.695,-0.0525,-0.245,0.152012,0.09821,-0.948184,-0.03514,0.09044,0.46004
0.275708,0,0,14.7243,14.7243,15.2757,15.2757,-0.459513,2.54191,14.2859,0.058835,-0.089904,0.034455,0,0,2.7825,0.14,-0.1225,0.063318,-0.069662,-0.977464,-0.03514,0.09044,0.46004
0.21938,0,0,14.7806,14.7806,15.2194,15.2194,-0.365634,2.60982,14.2439,0.057651,-0.0882668,0.0344135,0,0,3.4475,0.1225,0.07,0.063318,-0.069662,-0.977464,-0.03514,0.09044,0.46004
0.290486,0,0,14.7095,14.7095,15.2905,15.2905,-0.484143,2.62412,14.2853,0.0174329,0.114351,0.0109036,0,0,3.535,0.3325,0.245,0.02318,0.13481,-1.00077,-0.03514,0.09044,0.46004
0.360269,0,0,14.6397,14.6397,15.3603,15.3603,-0.600449,2.63849,14.3224,0.0171824,0.112324,0.0108729,0,0,3.535,0.245,0.1575,0.02318,0.13481,-1.00077,-0.0392,0.09268,0.45962
0.363767,0,0,14.6362,14.6362,15.3638,15.3638,-0.606278,2.54271,14.4452,-0.0923071,0.00474996,-0.0267978,0,0,3.2375,0.21,0.21,-0.08845,0.02745,-1.03822,-0.0392,0.09268,0.45962
0.367478,0,0,14.6325,14.6325,15.3675,15.3675,-0.612464,2.44916,14.5678,-0.0906759,0.00464134,-0.0267278,0,0,2.975,0.49,0.1925,-0.08845,0.02745,-1.03822,-0.0392,0.09268,0.45962
0.354991,0,0,14.645,14.645,15.355,15.355,-0.591652,2.50045,14.5515,0.0480168,-0.0211305,-0.00291067,0,0,2.8,0.2975,0.28,0.051728,0.001342,-1.01455,-0.0392,0.09268,0.45962
0.342538,0,0,14.6575,14.6575,15.3425,15.3425,-0.570896,2.55041,14.5354,0.0471457,-0.0207682,-0.00294542,0,0,2.975,0.07,0.385,0.051728,0.001342,-1.01455,-0.0392,0.09268,0.45962
0.32689,0,0,14.6731,14.6731,15.3269,15.3269,-0.544817,2.6247,14.4947,0.0643163,-0.0243431,0.0520814,0,0,3.3425,-0.0875,0.455,0.070272,-0.002684,-0.959896,-0.0392,0.09268,0.45962
0.31177,0,0,14.6882,14.6882,15.3118,15.3118,-0.519616,2.69842,14.454,0.0630309,-0.0239032,0.0520257,0,0,3.115,0.385,0.455,0.070272,-0.002684,-0.959896,-0.0392,0.09268,0.45962
0.38636,0,0,14.6136,14.6136,15.3864,15.3864,-0.643934,2.58858,14.6081,-0.0982093,0.113519,0.0536905,0,0,3.4825,0.21,0.3325,-0.093574,0.136762,-0.95831,-0.0392,0.09268,0.45962
0.459836,0,0,14.5402,14.5402,15.4598,15.4598,-0.766393,2.48063,14.7596,-0.0963269,0.111383,0.0537475,0,0,3.36,0.4025,0.1925,-0.093574,0.136762,-0.95831,-0.04326,0.09394,0.45934
0.46999,0,0,14.53,14.53,15.47,15.47,-0.783316,2.5129,14.7646,0.0326141,0.0168067,-0.0222632,0,0,3.2025,0.35,0.07,0.036478,0.042578,-1.03371,-0.04326,0.09394,0.45934
0.479639,0,0,14.5204,14.5204,15.4796,15.4796,-0.799399,2.54387,14.7693,0.032074,0.0165267,-0.0222909,0,0,3.5175,-0.07,-0.1575,0.036478,0.042578,-1.03371,-0.04326,0.09394,0.45934
0.493914,0,0,14.5061,14.5061,15.4939,15.4939,-0.82319,2.58384,14.7661,0.0464413,0.0262488,-0.0897038,0,0,3.22,0.175,-0.4725,0.051606,0.052704,-1.10056,-0.04326,0.09394,0.45934
0.507698,0,0,14.4923,14.4923,15.5077,15.5077,-0.846164,2.62361,14.7629,0.0457479,0.0258488,-0.0897411,0,0,3.4475,0.4725,-0.525,0.051606,0.052704,-1.10056,-0.04326,0.09394,0.45934
0.523938,0,0,14.4761,14.4761,15.5239,15.5239,-0.87323,2.50791,14.9045,-0.109802,0.0259862,-0.00138079,0,0,3.9375,0.3325,-0.665,-0.106628,0.053314,-1.01297,-0.04326,0.09394,0.45934
0.540313,0,0,14.4597,14.4597,15.5403,15.5403,-0.900521,2.39387,15.0454,-0.107813,0.0255091,-0.00130305,0,0,3.5525,0.07,-1.085,-0.106628,0.053314,-1.01297,-0.04326,0.09394,0.45934
0.508813,0,0,14.4912,14.4912,15.5088,15.5088,-0.848022,2.49901,14.9699,0.0989445,-0.0497815,0.000599775,0,0,4.06,0.14,-1.0675,0.102846,-0.022814,-1.01101,-0.04326,0.09394,0.45934
0.478523,0,0,14.5215,14.5215,15.4785,15.4785,-0.797539,2.60114,14.8931,0.0971637,-0.0489002,0.000533109,0,0,3.535,-0.175,-0.9625,0.102846,-0.022814,-1.01101,-0.04018,0.09562,0.45472
0.440672,0,0,14.5593,14.5593,15.4407,15.4407,-0.734453,2.69927,14.8159,0.0937521,-0.0613554,-0.0046952,0,0,3.6575,-0.245,-0.9975,0.101138,-0.036356,-1.01614,-0.04018,0.09562,0.45472
0.403531,0,0,14.5965,14.5965,15.4035,15.4035,-0.672551,2.796,14.739,0.0920657,-0.0602754,-0.00476288,0,0,3.6225,0,-0.9275,0.101138,-0.036356,-1.01614,-0.04018,0.09562,0.45472
0.348048,0,0,14.652,14.652,15.348,15.348,-0.58008,2.61964,14.9094,-0.170427,-0.0913949,0.0161784,0,0,3.5175,-0.105,-1.085,-0.165554,-0.069052,-0.99552,-0.04018,0.09562,0.45472
0.293102,0,0,14.7069,14.7069,15.2931,15.2931,-0.488504,2.44634,15.0788,-0.167406,-0.0897995,0.016327,0,0,3.92,-0.1225,-1.1375,-0.165554,-0.069052,-0.99552,-0.04018,0.09562,0.45472
0.288652,0,0,14.7113,14.7113,15.2887,15.2887,-0.481087,2.48106,15.0724,0.0317115,-0.00662375,0.0182692,0,0,3.7625,-0.035,-1.12,0.035014,0.013908,-0.993568,-0.04018,0.09562,0.45472
0.284187,0,0,14.7158,14.7158,15.2842,15.2842,-0.473644,2.51514,15.066,0.0311172,-0.00649378,0.0182444,0,0,3.85,-0.035,-1.0325,0.035014,0.013908,-0.993568,-0.04018,0.09562,0.45472
0.234621,0,0,14.7654,14.7654,15.2346,15.2346,-0.391034,2.54178,15.0527,0.0271296,-0.0851684,-0.0661079,0,0,3.675,0.0175,-0.91,0.031476,-0.066124,-1.07726,-0.04018,0.09562,0.45472
0.185532,0,0,14.8145,14.8145,15.1855,15.1855,-0.309219,2.56749,15.0398,0.0266813,-0.0837418,-0.0661192,0,0,4.0425,-0.21,-0.7,0.031476,-0.066124,-1.07726,-0.04018,0.09562,0.45472
0.162578,0,0,14.8374,14.8374,15.1626,15.1626,-0.270964,2.55609,15.0761,-0.010902,-0.0373994,-0.0404107,0,0,4.2175,0.035,-0.5425,-0.006466,-0.020496,-1.05176,-0.03556,0.09184,0.45752
0.123304,0,0,14.8767,14.8767,15.1233,15.1233,-0.205506,2.49665,15.1523,-0.0587028,-0.0611721,0.0492692,0,0,3.605,0.14,-0.49,-0.05551,-0.045384,-0.962824,-0.03556,0.09184,0.45752
0.0843884,0,0,14.9156,14.9156,15.0844,15.0844,-0.140647,2.43877,15.2289,-0.0576935,-0.0600413,0.0493161,0,0,3.9025,0.455,-0.14,-0.05551,-0.045384,-0.962824,-0.03556,0.09184,0.45752
0.0466752,0,0,14.9533,14.9533,15.0467,15.0467,-0.077792,2.50582,15.1898,0.0646882,-0.062609,-0.0306488,0,0,3.6575,0.35,-0.0875,0.068564,-0.049044,-1.04212,-0.03556,0.09184,0.45752
0.00963172,0,0,14.9904,14.9904,15.0096,15.0096,-0.0160529,2.57084,15.1509,0.0635545,-0.0615325,-0.0306982,0,0,3.6575,-0.105,-0.035,0.068564,-0.049044,-1.04212,-0.03556,0.09184,0.45752
0.102557,0,0,14.8974,14.8974,15.1026,15.1026,-0.170929,2.57734,15.2035,0.0101091,0.146436,0.0365452,0,0,3.115,0.14,0.105,0.015006,0.161406,-0.97539,-0.03556,0.09184,0.45752
0.193724,0,0,14.8063,14.8063,15.1937,15.1937,-0.322873,2.584,15.2565,0.00999288,0.143787,0.0365285,0,0,3.2375,0.2625,0.1925,0.015006,0.161406,-0.97539,-0.03556,0.09184,0.45752
0.234929,0,0,14.7651,14.7651,15.2349,15.2349,-0.391548,2.44684,15.4304,-0.125137,0.0618628,0.058388,0,0,3.57,0.455,0.2275,-0.123098,0.080764,-0.953796,-0.03556,0.09184,0.45752
0.275737,0,0,14.7243,14.7243,15.2757,15.2757,-0.459561,2.31126,15.5987,-0.122773,0.060676,0.0584774,0,0,3.36,0.3325,0.3325,-0.123098,0.080764,-0.953796,-0.04074,0.09464,0.46228
0.313213,0,0,14.6868,14.6868,15.3132,15.3132,-0.522021,2.42011,15.5416,0.116235,0.0660603,-0.0580426,0,0,3.1325,0.2275,0.3325,0.118828,0.08723,-1.06933,-0.04074,0.09464,0.46228
0.350276,0,0,14.6497,14.6497,15.3503,15.3503,-0.583793,2.52681,15.484,0.114374,0.064984,-0.0581333,0,0,2.9225,0.0875,0.1575,0.118828,0.08723,-1.06933,-0.04074,0.09464,0.46228
0.393071,0,0,14.6069,14.6069,15.3931,15.3931,-0.655119,2.41459,15.6303,-0.103072,0.0658156,0.0326737,0,0,3.3075,-0.0175,0.105,-0.101504,0.089304,-0.979294,-0.04074,0.09464,0.46228
0.434673,0,0,14.5653,14.5653,15.4347,15.4347,-0.724455,2.30526,15.7768,-0.101166,0.0646056,0.0327377,0,0,3.71,0.4725,0.1575,-0.101504,0.089304,-0.979294,-0.04074,0.09464,0.46228
0.37944,0,0,14.6206,14.6206,15.3794,15.3794,-0.632401,2.25768,15.837,-0.0493117,-0.0871807,0.0421338,0,0,3.465,0.315,0.175,-0.050264,-0.063928,-0.970022,-0.04074,0.09464,0.46228
0.325301,0,0,14.6747,14.6747,15.3253,15.3253,-0.542169,2.2107,15.8965,-0.0484923,-0.0856075,0.0421819,0,0,3.36,0.21,0,-0.050264,-0.063928,-0.970022,-0.04074,0.09464,0.46228
0.319601,0,0,14.6804,14.6804,15.3196,15.3196,-0.532668,2.23252,15.9081,0.0207384,-0.0104558,-0.0124204,0,0,2.765,0.385,-0.0525,0.019642,0.01098,-1.02419,-0.04074,0.09464,0.46228
0.313761,0,0,14.6862,14.6862,15.3138,15.3138,-0.522936,2.25359,15.9167,0.0203709,-0.010286,-0.0124333,0,0,3.01,0.1925,-0.4725,0.019642,0.01098,-1.02419,-0.0406,0.09632,0.45738
0.345384,0,0,14.6546,14.6546,15.3454,15.3454,-0.575639,2.30305,15.9106,0.057169,0.0563314,-0.0877209,0,0,2.87,0.2625,-0.595,0.057462,0.078446,-1.09885,-0.0406,0.09632,0.45738
0.376685,0,0,14.6233,14.6233,15.3767,15.3767,-0.627809,2.35119,15.9042,0.0563294,0.055422,-0.0877645,0,0,2.66,0,-0.7525,0.057462,0.078446,-1.09885,-0.0406,0.09632,0.45738
0.334122,0,0,14.6659,14.6659,15.3341,15.3341,-0.55687,2.48912,15.7896,0.13204,-0.0699855,-0.00154355,0,0,3.29,0.0525,-0.9975,0.135908,-0.048068,-1.01321,-0.0406,0.09632,0.45738
0.292401,0,0,14.7076,14.7076,15.2924,15.2924,-0.487335,2.62395,15.6749,0.129689,-0.0687721,-0.00163747,0,0,3.22,-0.28,-1.2075,0.135908,-0.048068,-1.01321,-0.0406,0.09632,0.45738
0.32966,0,0,14.6703,14.6703,15.3297,15.3297,-0.549433,2.61034,15.7214,-0.0109974,0.0608207,0.0109043,0,0,4.025,-0.1225,-1.225,-0.005612,0.082472,-1.00077,-0.0406,0.09632,0.45738
0.366299,0,0,14.6337,14.6337,15.3663,15.3663,-0.610499,2.59772,15.7679,-0.0107774,0.059756,0.0109036,0,0,3.99,0.2975,-1.2425,-0.005612,0.082472,-1.00077,-0.0406,0.09632,0.45738
0.350319,0,0,14.6497,14.6497,15.3503,15.3503,-0.583865,2.53968,15.8398,-0.0554441,-0.0249025,0.0751329,0,0,3.8675,0.035,-1.225,-0.051484,-0.002562,-0.937082,-0.0406,0.09632,0.45738
0.335123,0,0,14.6649,14.6649,15.3351,15.3351,-0.558539,2.48217,15.9096,-0.0544412,-0.0244613,0.0751813,0,0,3.465,-0.035,-1.4525,-0.051484,-0.002562,-0.937082,-0.04508,0.09674,0.45262
0.367455,0,0,14.6325,14.6325,15.3675,15.3675,-0.612424,2.6183,15.8173,0.133432,0.054349,0.00400174,0,0,3.3075,-0.035,-1.2075,0.139568,0.077104,-1.0076,-0.04508,0.09674,0.45262
0.398883,0,0,14.6011,14.6011,15.3989,15.3989,-0.664806,2.75191,15.7252,0.131102,0.0534371,0.00388233,0,0,3.64,-0.105,-1.05,0.139568,0.077104,-1.0076,-0.04508,0.09674,0.45262
0.361952,0,0,14.638,14.638,15.362,15.362,-0.603253,2.60709,15.8664,-0.147248,-0.0650533,-0.0733222,0,0,4.1475,-0.1575,-0.9275,-0.142496,-0.042334,-1.08434,-0.04508,0.09674,0.45262
0.325565,0,0,14.6744,14.6744,15.3256,15.3256,-0.542608,2.46475,16.007,-0.144766,-0.063997,-0.0732018,0,0,4.235,-0.21,-0.9625,-0.142496,-0.042334,-1.08434,-0.04508,0.09674,0.45262
0.282616,0,0,14.7174,14.7174,15.2826,15.2826,-0.471026,2.43107,16.0477,-0.0350844,-0.0648252,0.0816265,0,0,3.99,0,-0.91,-0.03294,-0.044408,-0.930738,-0.04508,0.09674,0.45262
0.240496,0,0,14.7595,14.7595,15.2405,15.2405,-0.400827,2.39709,16.0889,-0.0344918,-0.0636013,0.0816608,0,0,3.9025,-0.5075,-0.5075,-0.03294,-0.044408,-0.930738,-0.04508,0.09674,0.45262
0.238985,0,0,14.761,14.761,15.239,15.239,-0.398309,2.41948,16.0923,0.0157773,-0.00237181,0.0999641,0,0,3.7275,-0.4725,-0.3325,0.017934,0.016714,-0.91256,-0.04508,0.09674,0.45262
0.237095,0,0,14.7629,14.7629,15.2371,15.2371,-0.395158,2.44213,16.1045,0.0153823,-0.00231675,0.0999477,0,0,4.1125,-0.0525,-0.2275,0.017934,0.016714,-0.91256,-0.04382,0.09114,0.45696
0.257552,0,0,14.7424,14.7424,15.2576,15.2576,-0.429253,2.38171,16.1998,-0.0554838,0.0315281,0.042202,0,0,3.8675,0.0525,-0.14,-0.05429,0.051118,-0.9699,-0.04382,0.09114,0.45696
0.277713,0,0,14.7223,14.7223,15.2777,15.2777,-0.462854,2.32254,16.2954,-0.0544519,0.0309419,0.0422398,0,0,3.7975,0.1225,-0.0175,-0.05429,0.051118,-0.9699,-0.04382,0.09114,0.45696
0.279043,0,0,14.721,14.721,15.279,15.279,-0.465072,2.41637,16.2459,0.0892089,0.00476862,0.00946748,0,0,4.48,0.1925,0.1925,0.091622,0.02501,-1.00235,-0.04382,0.09114,0.45696
0.280744,0,0,14.7193,14.7193,15.2807,15.2807,-0.467906,2.5086,16.1968,0.0876006,0.00471977,0.00939792,0,0,4.1125,0.245,0.4375,0.091622,0.02501,-1.00235,-0.04382,0.09114,0.45696
0.333632,0,0,14.6664,14.6664,15.3336,15.3336,-0.556054,2.33516,16.4066,-0.163766,0.0848844,0.00705313,0,0,3.745,0.3675,0.28,-0.163846,0.106628,-1.00479,-0.04382,0.09114,0.45696
0.385584,0,0,14.6144,14.6144,15.3856,15.3856,-0.64264,2.16481,16.6171,-0.160795,0.0833732,0.00715405,0,0,3.745,0.3325,0.49,-0.163846,0.106628,-1.00479,-0.04382,0.09114,0.45696
0.385744,0,0,14.6143,14.6143,15.3857,15.3857,-0.642907,2.16555,16.6187,0.03284,-0.103852,-0.17813,1,0,3.36,0.5425,0.56,0.030622,-0.080398,-1.18865,-0.04382,0.09114,0.45696
0.38588,0,0,14.6141,14.6141,15.3859,15.3859,-0.643133,2.16621,16.6206,0.0328285,-0.103856,-0.17813,1,0,3.3775,0.49,0.7175,0.030622,-0.080398,-1.18865,-0.04382,0.09114,0.45696
0.419954,0,0,14.58,14.58,15.42,15.42,-0.699923,2.38122,16.471,0.213616,0.0588056,0.00957447,0,0,3.5525,0.595,0.735,0.21594,0.083082,-1.00223,-0.04214,0.09268,0.46144
0.453591,0,0,14.5464,14.5464,15.4536,15.4536,-0.755984,2.59178,16.3208,0.209944,0.0578301,0.00940262,0,0,3.4475,0.175,0.5425,0.21594,0.083082,-1.00223,-0.04214,0.09268,0.46144
0.509943,0,0,14.4901,14.4901,15.5099,15.5099,-0.849904,2.48955,16.4649,-0.0936883,0.0879445,0.0385976,0,0,3.675,0.0875,0.28,-0.090768,0.114802,-0.973316,-0.04214,0.09268,0.46144
0.565307,0,0,14.4347,14.4347,15.5653,15.5653,-0.942179,2.38918,16.6092,-0.0919381,0.0863345,0.0386469,0,0,3.675,0.0875,0.28,-0.090768,0.114802,-0.973316,-0.04214,0.09268,0.46144
0.541748,0,0,14.4583,14.4583,15.5417,15.5417,-0.902913,2.48483,16.547,0.0916596,-0.0386481,-0.000879477,0,0,3.255,0.21,0.105,0.095282,-0.010736,-1.01248,-0.04214,0.09268,0.46144
0.518607,0,0,14.4814,14.4814,15.5186,15.5186,-0.864345,2.57876,16.4849,0.0900218,-0.0379746,-0.000941515,0,0,3.255,0.21,0.105,0.095282,-0.010736,-1.01248,-0.04214,0.09268,0.46144
0.46101,0,0,14.539,14.539,15.461,15.461,-0.76835,2.5904,16.4848,0.00720852,-0.0950439,0.00731072,0,0,2.975,0.07,-0.4725,0.012322,-0.069418,-1.0043,-0.04214,0.09268,0.46144
0.40442,0,0,14.5956,14.5956,15.4044,15.4044,-0.674034,2.60176,16.4847,0.00701048,-0.0933995,0.00732244,0,0,2.975,0.07,-0.4725,0.012322,-0.069418,-1.0043,-0.04214,0.09268,0.46144
0.297507,0,0,14.7025,14.7025,15.2975,15.2975,-0.495845,2.54126,16.5397,-0.0671343,-0.18201,-0.0158357,0,0,2.835,-0.1225,-0.6475,-0.063196,-0.16104,-1.02736,-0.04396,0.08834,0.45766
0.326716,0,0,14.6733,14.6733,15.3267,15.3267,-0.544527,2.54072,16.5837,0.00309384,0.0488152,-0.027769,0,0,3.22,0.035,-0.98,0.00732,0.070394,-1.0392,-0.04396,0.08834,0.45766
0.355653,0,0,14.6443,14.6443,15.3557,15.3557,-0.592755,2.54022,16.6271,0.00310258,0.0479743,-0.027777,0,0,3.01,0.035,-1.3125,0.00732,0.070394,-1.0392,-0.04396,0.08834,0.45766
0.448447,0,0,14.5516,14.5516,15.4484,15.4484,-0.747412,2.51299,16.7152,-0.0190189,0.153726,-0.00430441,0,0,3.29,-0.0875,-1.6275,-0.015372,0.17873,-1.01589,-0.04396,0.08834,0.45766
0.540094,0,0,14.4599,14.4599,15.5401,15.5401,-0.900157,2.48675,16.8037,-0.0185614,0.151063,-0.00432273,0,0,2.8525,0.1575,-1.54,-0.015372,0.17873,-1.01589,-0.04396,0.08834,0.45766
0.44097,0,0,14.559,14.559,15.441,15.441,-0.734951,2.61164,16.6912,0.126866,-0.176164,-0.0710167,0,0,3.43,0.1925,-1.61,0.132858,-0.151036,-1.08202,-0.04396,0.08834,0.45766
0.344166,0,0,14.6558,14.6558,15.3442,15.3442,-0.573611,2.73333,16.5787,0.124745,-0.17335,-0.0710836,0,0,2.8875,-0.2975,-1.9425,0.132858,-0.151036,-1.08202,-0.04396,0.08834,0.45766
0.371172,0,0,14.6288,14.6288,15.3712,15.3712,-0.618621,2.67319,16.6724,-0.0560711,0.0442271,-0.0273955,0,0,3.1325,-0.0175,-1.7675,-0.049776,0.0671,-1.03871,-0.04396,0.08834,0.45766
0.396968,0,0,14.603,14.603,15.397,15.397,-0.661614,2.61465,16.7658,-0.0550503,0.043477,-0.0273567,0,0,3.78,0.175,-1.5925,-0.049776,0.0671,-1.03871,-0.04242,0.08932,0.45304
0.37759,0,0,14.6224,14.6224,15.3776,15.3776,-0.629317,2.40584,16.9832,-0.20679,-0.0348556,-0.0064125,0,0,3.57,0.1225,-1.505,-0.205814,-0.011712,-1.01809,-0.04242,0.08932,0.45304
0.358374,0,0,14.6416,14.6416,15.3584,15.3584,-0.59729,2.20049,17.2001,-0.203209,-0.0342986,-0.0062625,0,0,3.71,0,-1.3125,-0.205814,-0.011712,-1.01809,-0.04242,0.08932,0.45304
0.288314,0,0,14.7117,14.7117,15.2883,15.2883,-0.480523,2.43769,16.996,0.222957,-0.113719,0.0351457,0,0,3.5175,0.035,-1.0675,0.22631,-0.093086,-0.976854,-0.04242,0.08932,0.45304
0.219682,0,0,14.7803,14.7803,15.2197,15.2197,-0.366137,2.67015,16.7927,0.218904,-0.111724,0.0349797,0,0,3.325,-0.2625,-1.0325,0.22631,-0.093086,-0.976854,-0.04242,0.08932,0.45304
0.140036,0,0,14.86,14.86,15.14,15.14,-0.233394,2.63514,16.8277,-0.0385211,-0.140796,-0.0568225,0,0,2.835,-0.315,-0.9975,-0.032818,-0.12444,-1.06799,-0.04242,0.08932,0.45304
0.0611953,0,0,14.9388,14.9388,15.0612,15.0612,-0.101992,2.60075,16.8631,-0.0379216,-0.138505,-0.0567883,0,0,3.36,-0.245,-0.6125,-0.032818,-0.12444,-1.06799,-0.04242,0.08932,0.45304
0.0480708,0,0,14.9519,14.9519,15.0481,15.0481,-0.0801181,2.53478,16.9499,-0.0655634,-0.0250345,-0.0906699,0,0,3.1675,-0.1225,-0.2625,-0.061732,-0.011468,-1.10166,-0.04242,0.08932,0.45304
0.0349289,0,0,14.9651,14.9651,15.0349,15.0349,-0.0582149,2.46991,17.028,-0.0644323,-0.0246526,-0.09062,0,0,3.4475,0.0525,-0.105,-0.061732,-0.011468,-1.10166,-0.04466,0.0945,0.46018
0.066972,0,0,14.933,14.933,15.067,15.067,-0.11162,2.41886,17.1111,-0.0466556,0.0491576,0.0562171,0,0,3.6225,0.1575,0.2625,-0.044774,0.063196,-0.955992,-0.04466,0.0945,0.46018
0.0984292,0,0,14.9016,14.9016,15.0984,15.0984,-0.164049,2.36876,17.1951,-0.045782,0.0482433,0.0562514,0,0,3.6225,0.1575,0.735,-0.044774,0.063196,-0.955992,-0.04466,0.0945,0.46018
0.111442,0,0,14.8886,14.8886,15.1114,15.1114,-0.185736,2.23982,17.3455,-0.117883,0.0184323,0.0645783,0,0,3.6925,0.28,0.84,-0.119438,0.033794,-0.947818,-0.04466,0.0945,0.46018
0.124378,0,0,14.8756,14.8756,15.1244,15.1244,-0.207297,2.1133,17.496,-0.115676,0.0180559,0.0646609,0,0,3.535,0.3325,1.05,-0.119438,0.033794,-0.947818,-0.04466,0.0945,0.46018
0.163265,0,0,14.8367,14.8367,15.1633,15.1633,-0.272108,2.1695,17.4927,0.0497791,0.0604028,0.0716275,0,0,3.6925,0.42,1.19,0.047702,0.077226,-0.940864,-0.04466,0.0945,0.46018
0.201439,0,0,14.7986,14.7986,15.2014,15.2014,-0.335732,2.22499,17.4894,0.0488114,0.0592934,0.0715845,0,0,3.7275,0.56,1.295,0.047702,0.077226,-0.940864,-0.04466,0.0945,0.46018
0.205244,0,0,14.7948,14.7948,15.2052,15.2052,-0.342074,2.1398,17.6008,-0.0864957,0.0063016,-0.087086,0,0,3.6225,0.6475,1.0325,-0.08967,0.0244,-1.09837,-0.04466,0.0945,0.46018
0.208612,0,0,14.7914,14.7914,15.2086,15.2086,-0.347687,2.05562,17.7238,-0.0850275,0.00620338,-0.0870328,0,0,3.92,0.1575,0.8225,-0.08967,0.0244,-1.09837,-0.04116,0.0875,0.448
0.198012,0,0,14.802,14.802,15.198,15.198,-0.33002,2.20456,17.6299,0.145263,-0.0154707,-0.00143251,0,0,3.8325,0.2625,0.7175,0.144204,0.00244,-1.01333,-0.04116,0.0875,0.448
0.187148,0,0,14.8129,14.8129,15.1871,15.1871,-0.311913,2.35069,17.536,0.142715,-0.0151544,-0.0015321,0,0,4.27,0.175,0.63,0.144204,0.00244,-1.01333,-0.04116,0.0875,0.448
0.218502,0,0,14.7815,14.7815,15.2185,15.2185,-0.364169,2.27787,17.6543,-0.0688585,0.0541569,-0.0371412,0,0,4.27,0.1225,0.4375,-0.06954,0.07259,-1.04871,-0.04116,0.0875,0.448
0.25003,0,0,14.75,14.75,15.25,15.25,-0.416717,2.20657,17.7719,-0.067615,0.0532401,-0.0370988,0,0,3.605,0.2275,0.0175,-0.06954,0.07259,-1.04871,-0.04116,0.0875,0.448
0.237605,0,0,14.7624,14.7624,15.2376,15.2376,-0.396008,2.28134,17.7414,0.0699391,-0.0194301,0.0153517,0,0,3.57,0.14,-0.1575,0.069906,-0.000366,-0.996618,-0.04116,0.0875,0.448
0.22565,0,0,14.7743,14.7743,15.2257,15.2257,-0.376084,2.35496,17.7101,0.0686551,-0.0190823,0.0153021,0,0,3.36,0.2625,-0.6475,0.069906,-0.000366,-0.996618,-0.04116,0.0875,0.448
0.261133,0,0,14.7389,14.7389,15.2611,15.2611,-0.435221,2.3566,17.7595,0.00411773,0.0576812,0.0139411,0,0,3.64,0,-0.7875,0.005124,0.077348,-0.99796,-0.04116,0.0875,0.448
0.29627,0,0,14.7037,14.7037,15.2963,15.2963,-0.493783,2.35769,17.8109,0.00409876,0.05666,0.0139321,0,0,3.43,-0.245,-1.3475,0.005124,0.077348,-0.99796,-0.04004,0.08554,0.45248
0.220658,0,0,14.7793,14.7793,15.2207,15.2207,-0.367763,2.35258,17.8294,-0.00881108,-0.135202,-0.0853901,0,0,3.5875,-0.07,-1.4,-0.00793,-0.11651,-1.09654,-0.04004,0.08554,0.45248
0.146677,0,0,14.8533,14.8533,15.1467,15.1467,-0.244461,2.34739,17.8472,-0.0087206,-0.133052,-0.0853749,0,0,3.3075,-0.0875,-1.715,-0.00793,-0.11651,-1.09654,-0.04004,0.08554,0.45248
0.147145,0,0,14.8529,14.8529,15.1471,15.1471,-0.245242,2.34727,17.8446,0.123336,-0.294395,-0.102096,1,0,3.1675,0.0525,-1.9425,0.124684,-0.277672,-1.11313,-0.04004,0.08554,0.45248
0.14699,0,0,14.853,14.853,15.147,15.147,-0.244984,2.34691,17.8422,0.123343,-0.29439,-0.102096,1,0,3.745,-0.0875,-1.82,0.124684,-0.277672,-1.11313,-0.04004,0.08554,0.45248
0.162176,0,0,14.8378,14.8378,15.1622,15.1622,-0.270293,2.17542,18.0421,-0.158915,0.0206212,0.0563782,0,0,3.185,0.0175,-1.9425,-0.161772,0.037454,-0.955992,-0.04004,0.08554,0.45248
0.176336,0,0,14.8237,14.8237,15.1763,15.1763,-0.293893,2.00666,18.2424,-0.155971,0.020209,0.0564836,0,0,3.8675,-0.175,-1.5575,-0.161772,0.037454,-0.955992,-0.04004,0.08554,0.45248
0.176128,0,0,14.8239,14.8239,15.1761,15.1761,-0.293546,2.00588,18.2404,0.078145,0.00470501,0.125827,1,0,3.78,-0.3325,-1.61,0.073322,0.02196,-0.887184,-0.04004,0.08554,0.45248
0.176215,0,0,14.8238,14.8238,15.1762,15.1762,-0.293692,2.00552,18.2385,0.0781512,0.00470246,0.125827,1,0,3.5,-0.0875,-1.505,0.073322,0.02196,-0.887184,-0.04004,0.08554,0.45248
0.214443,0,0,14.7856,14.7856,15.2144,15.2144,-0.357404,2.10226,18.2078,0.0931075,0.0607469,0.0453521,0,0,3.29,-0.0175,-1.2425,0.090036,0.079056,-0.966972,-0.03668,0.08652,0.45556
0.214626,0,0,14.7854,14.7854,15.2146,15.2146,-0.35771,2.10175,18.2068,0.0317661,-0.166536,-0.0924728,1,0,3.395,-0.175,-1.015,0.028426,-0.147986,-1.10373,-0.03668,0.08652,0.45556
0.214852,0,0,14.7851,14.7851,15.2149,15.2149,-0.358086,2.10137,18.2063,0.0317727,-0.166543,-0.0924726,1,0,3.3425,-0.105,-0.665,0.028426,-0.147986,-1.10373,-0.03668,0.08652,0.45556
0.149815,0,0,14.8502,14.8502,15.1498,15.1498,-0.249692,2.02105,18.2999,-0.0847889,-0.10994,-0.00782362,0,0,3.185,-0.175,-0.525,-0.090036,-0.09333,-1.0198,-0.03668,0.08652,0.45556
0.0856461,0,0,14.9144,14.9144,15.0856,15.0856,-0.142743,1.94226,18.3937,-0.0834146,-0.108074,-0.00776968,0,0,3.4125,-0.035,-0.1575,-0.090036,-0.09333,-1.0198,-0.03668,0.08652,0.45556
0.0860857,0,0,14.9139,14.9139,15.0861,15.0861,-0.143476,1.94233,18.3947,-0.0111319,-0.0405512,0.138539,1,0,3.115,0.1575,0.175,-0.017446,-0.025864,-0.874618,-0.03668,0.08652,0.45556
0.0856964,0,0,14.9143,14.9143,15.0857,15.0857,-0.142827,1.94253,18.3959,-0.0111353,-0.0405399,0.138539,1,0,3.885,0.2275,0.315,-0.017446,-0.025864,-0.874618,-0.03668,0.08652,0.45556
0.226078,0,0,14.7739,14.7739,15.2261,15.2261,-0.376796,1.84902,18.5804,-0.0821527,0.242376,-0.0233488,0,0,3.5,0.3325,0.42,-0.090402,0.260836,-1.03529,-0.03668,0.08652,0.45556
0.364863,0,0,14.6351,14.6351,15.3649,15.3649,-0.608106,1.75557,18.7631,-0.0805225,0.238341,-0.0233322,0,0,3.08,0.2975,0.56,-0.090402,0.260836,-1.03529,-0.04732,0.08638,0.45486
0.354905,0,0,14.6451,14.6451,15.3549,15.3549,-0.591509,1.92868,18.6528,0.169148,-0.0151478,0.00153225,0,0,3.15,0.315,0.8575,0.163358,0.00732,-1.01053,-0.04732,0.08638,0.45486
0.345476,0,0,14.6545,14.6545,15.3455,15.3455,-0.575794,2.0993,18.5429,0.166172,-0.0148726,0.0014304,0,0,2.835,0.6475,1.015,0.163358,0.00732,-1.01053,-0.04732,0.08638,0.45486
0.32252,0,0,14.6775,14.6775,15.3225,15.3225,-0.537533,2.06347,18.6122,-0.037542,-0.0385087,0.0160905,0,0,3.115,0.5425,0.945,-0.041846,-0.016958,-0.996008,-0.04732,0.08638,0.45486
0.299906,0,0,14.7001,14.7001,15.2999,15.2999,-0.499843,2.02785,18.6813,-0.0369208,-0.0378516,0.0161186,0,0,3.1675,0.315,0.91,-0.041846,-0.016958,-0.996008,-0.04732,0.08638,0.45486
0.242266,0,0,14.7577,14.7577,15.2423,15.2423,-0.403776,2.10446,18.6363,0.0719306,-0.0978497,-0.0300221,0,0,3.22,0.3325,0.9975,0.068808,-0.078568,-1.04176,-0.04732,0.08638,0.45486
0.185232,0,0,14.8148,14.8148,15.1852,15.1852,-0.308719,2.17959,18.5911,0.0706202,-0.0961915,-0.0300608,0,0,3.605,0.3325,0.84,0.068808,-0.078568,-1.04176,-0.04732,0.08638,0.45486
0.139254,0,0,14.8607,14.8607,15.1393,15.1393,-0.232091,2.04922,18.7323,-0.130108,-0.078124,0.00654519,0,0,3.395,0.105,0.665,-0.135054,-0.061854,-1.00552,-0.04732,0.08638,0.45486
0.0935053,0,0,14.9065,14.9065,15.0935,15.0935,-0.155842,1.92157,18.8703,-0.127882,-0.0767943,0.00662687,0,0,3.8675,0.1925,0.1925,-0.135054,-0.061854,-1.00552,-0.04396,0.08834,0.45416
0.0769408,0,0,14.9231,14.9231,15.0769,15.0769,-0.128235,1.92281,18.9052,0.000263867,-0.0283169,-0.028413,0,0,3.36,0.315,0.21,-0.006344,-0.013908,-1.04029,-0.04396,0.08834,0.45416
0.0603263,0,0,14.9397,14.9397,15.0603,15.0603,-0.100544,1.92361,18.9393,0.000249947,-0.0278339,-0.0284125,0,0,3.6925,0.0875,-0.2625,-0.006344,-0.013908,-1.04029,-0.04396,0.08834,0.45416
0.151005,0,0,14.849,14.849,15.151,15.151,-0.251675,1.9747,18.9689,0.0545132,0.146492,0.0402773,0,0,3.605,0.3325,-0.5075,0.049044,0.16287,-0.972096,-0.04396,0.08834,0.45416
0.2397,0,0,14.7603,14.7603,15.2397,15.2397,-0.3995,2.02483,18.998,0.0536388,0.143913,0.0402321,0,0,4.025,0.2275,-0.8575,0.049044,0.16287,-0.972096,-0.04396,0.08834,0.45416
0.30134,0,0,14.6987,14.6987,15.3013,15.3013,-0.502233,2.02479,19.062,0.00285854,0.0969346,0.0611193,0,0,4.3575,0.245,-1.085,-0.001952,0.11773,-0.951356,-0.04396,0.08834,0.45416
0.362273,0,0,14.6377,14.6377,15.3623,15.3623,-0.603789,2.02449,19.125,0.0028638,0.0951633,0.0611024,0,0,4.0425,0.0525,-1.715,-0.001952,0.11773,-0.951356,-0.04396,0.08834,0.45416
0.324294,0,0,14.6757,14.6757,15.3243,15.3243,-0.54049,2.02989,19.144,0.003377,-0.0634744,-0.0250768,0,0,3.9025,-0.1925,-1.7675,-0.001342,-0.041846,-1.03688,-0.04396,0.08834,0.45416
0.287379,0,0,14.7126,14.7126,15.2874,15.2874,-0.478965,2.03517,19.1609,0.00328493,-0.0624013,-0.0250706,0,0,3.5525,-0.1225,-1.995,-0.001342,-0.041846,-1.03688,-0.04452,0.08946,0.45262
0.28755,0,0,14.7125,14.7125,15.2875,15.2875,-0.479249,2.03467,19.1578,0.176897,-0.0229593,-0.0983476,1,0,3.4475,-0.1575,-2.2225,0.172996,-0.00244,-1.10959,-0.04452,0.08946,0.45262
0.287531,0,0,14.7125,14.7125,15.2875,15.2875,-0.479219,2.03403,19.1547,0.176908,-0.0229587,-0.0983472,1,0,3.6225,-0.245,-2.1875,0.172996,-0.00244,-1.10959,-0.04452,0.08946,0.45262
0.255638,0,0,14.7444,14.7444,15.2556,15.2556,-0.426064,2.14055,19.0813,0.114064,-0.0554938,-0.0841456,0,0,3.675,-0.14,-2.1525,0.111752,-0.035868,-1.09544,-0.04452,0.08946,0.45262
0.223627,0,0,14.7764,14.7764,15.2236,15.2236,-0.372712,2.24511,19.0087,0.11224,-0.0545629,-0.0842089,0,0,4.305,-0.1575,-1.785,0.111752,-0.035868,-1.09544,-0.04452,0.08946,0.45262
0.220197,0,0,14.7798,14.7798,15.2202,15.2202,-0.366994,2.07755,19.1906,-0.156479,-0.00659021,0.0550797,0,0,4.5325,-0.3325,-1.7675,-0.16104,0.011956,-0.957334,-0.04452,0.08946,0.45262
0.217256,0,0,14.7827,14.7827,15.2173,15.2173,-0.362094,1.91312,19.3728,-0.153611,-0.00650537,0.0551802,0,0,4.095,-0.2275,-1.295,-0.16104,0.011956,-0.957334,-0.04452,0.08946,0.45262
0.148998,0,0,14.851,14.851,15.149,15.149,-0.24833,1.87102,19.421,-0.047913,-0.122373,-0.0770776,0,0,3.6575,-0.1575,-1.26,-0.055632,-0.105774,-1.08861,-0.04452,0.08946,0.45262
0.0819276,0,0,14.9181,14.9181,15.0819,15.0819,-0.136546,1.83121,19.4792,-0.0472186,-0.120423,-0.0770486,0,0,3.4125,0.1575,-0.6825,-0.055632,-0.105774,-1.08861,-0.0385,0.08442,0.45332
0.0672194,0,0,14.9328,14.9328,15.0672,15.0672,-0.112032,1.87572,19.4818,0.0478573,-0.0260803,-0.0736302,0,0,3.185,-0.035,-0.56,0.040626,-0.011956,-1.08519,-0.0385,0.08442,0.45332
0.0525845,0,0,14.9474,14.9474,15.0526,15.0526,-0.0876408,1.92009,19.4855,0.0470832,-0.0256548,-0.0736551,0,0,3.3425,0.3675,0.035,0.040626,-0.011956,-1.08519,-0.0385,0.08442,0.45332
0.0748122,0,0,14.9252,14.9252,15.0748,15.0748,-0.124687,2.02484,19.448,0.109887,0.0392812,-0.0316708,0,0,3.3425,0.2625,0.14,0.10553,0.053558,-1.04347,-0.0385,0.08442,0.45332
0.0965067,0,0,14.9035,14.9035,15.0965,15.0965,-0.160845,2.12808,19.4111,0.108086,0.0386507,-0.0317377,0,0,3.4825,0.4375,0.49,0.10553,0.053558,-1.04347,-0.0385,0.08442,0.45332
0.0715565,0,0,14.9284,14.9284,15.0716,15.0716,-0.119261,2.1452,19.4327,0.00950527,-0.0373196,0.0888654,0,0,3.6925,0.315,0.6475,0.006832,-0.023058,-0.923784,-0.0385,0.08442,0.45332
0.0475466,0,0,14.9525,14.9525,15.0475,15.0475,-0.0792444,2.16266,19.4552,0.00920073,-0.0366217,0.0888552,0,0,3.2025,0.7175,1.155,0.006832,-0.023058,-0.923784,-0.0385,0.08442,0.45332
-0.0340038,0,0,15.034,15.034,14.966,14.966,0.0566731,2.32363,19.3244,0.152905,-0.136593,9.97985e-05,0,0,3.535,0.5775,1.295,0.153964,-0.125294,-1.01175,-0.0385,0.08442,0.45332
-0.113647,0,0,15.1136,15.1136,14.8864,14.8864,0.189412,2.48153,19.1945,0.150152,-0.134279,-2.06985e-05,0,0,3.0625,0.5075,1.4875,0.153964,-0.125294,-1.01175,-0.0385,0.08442,0.45332
-0.0972283,0,0,15.0972,15.0972,14.9028,14.9028,0.162047,2.35137,19.3561,-0.120435,0.0233982,0.0688048,0,0,3.2375,0.315,1.5225,-0.120048,0.032696,-0.943548,-0.03892,0.08582,0.46172
-0.081186,0,0,15.0812,15.0812,14.9188,14.9188,0.13531,2.22399,19.5171,-0.118214,0.0229322,0.0688947,0,0,3.325,0.5775,1.295,-0.120048,0.032696,-0.943548,-0.03892,0.08582,0.46172
-0.0843876,0,0,15.0844,15.0844,14.9156,14.9156,0.140646,2.22485,19.5565,-0.000144901,-0.00579669,0.0127064,0,0,3.15,0.2275,1.1725,-0.001464,0.003904,-0.999302,-0.03892,0.08582,0.46172
-0.0483438,0,0,15.0483,15.0483,14.9517,14.9517,0.080573,2.1957,19.6386,-0.0249056,0.0631343,-0.0648524,0,0,3.4825,0.3325,1.1025,-0.02684,0.07381,-1.07628,-0.03892,0.08582,0.46172
-0.0480337,0,0,15.048,15.048,14.952,14.952,0.0800561,2.19607,19.6403,-0.0357242,0.0131754,-0.107024,1,0,3.22,0.3325,0.5425,-0.037698,0.023912,-1.11813,-0.03892,0.08582,0.46172
-0.0477235,0,0,15.0477,15.0477,14.9523,14.9523,0.0795392,2.19644,19.6419,-0.0357306,0.0131664,-0.107024,1,0,3.22,0.3325,0.5425,-0.037698,0.023912,-1.11813,-0.03892,0.08582,0.46172
-0.0842852,0,0,15.0843,15.0843,14.9157,14.9157,0.140475,2.23173,19.6351,0.0343585,-0.0636877,-0.0437316,0,0,3.2375,0.1575,-0.0525,0.033306,-0.053924,-1.0553,-0.03892,0.08582,0.46172
-0.120211,0,0,15.1202,15.1202,14.8798,14.8798,0.200351,2.26634,19.6283,0.0337549,-0.0626436,-0.0437584,0,0,3.2375,0.1575,-0.0525,0.033306,-0.053924,-1.0553,-0.03892,0.08582,0.46172
-0.0910763,0,0,15.0911,15.0911,14.9089,14.9089,0.151794,2.32441,19.6217,0.0621418,0.0504537,-0.0343293,0,0,3.1675,0.2975,-0.84,0.06283,0.059902,-1.04591,-0.04298,0.0875,0.45444
-0.0502847,0,0,15.0503,15.0503,14.9497,14.9497,0.0838079,2.20817,19.7743,-0.111256,0.0659996,-0.0137143,0,0,3.0975,0.2625,-0.9975,-0.113338,0.076616,-1.02553,-0.04298,0.0875,0.45444
-0.0108858,0,0,15.0109,15.0109,14.9891,14.9891,0.018143,2.0939,19.9263,-0.109263,0.0648544,-0.0136384,0,0,3.745,0.175,-1.435,-0.113338,0.076616,-1.02553,-0.04298,0.0875,0.45444
-0.00759117,0,0,15.0076,15.0076,14.9924,14.9924,0.0126519,2.16349,19.9007,0.0682283,0.00674843,0.0022998,0,0,3.6925,0.0525,-1.6975,0.066124,0.018666,-1.00967,-0.04298,0.0875,0.45444
-0.00427426,0,0,15.0043,15.0043,14.9957,14.9957,0.00712377,2.23207,19.8747,0.0670323,0.006652,0.00225392,0,0,3.64,0.175,-1.9425,0.066124,0.018666,-1.00967,-0.04298,0.0875,0.45444
0.0198989,0,0,14.9801,14.9801,15.0199,15.0199,-0.0331649,2.42838,19.7407,0.188618,0.0423432,0.0428104,0,0,3.6225,0.0875,-2.24,0.191662,0.055022,-0.96929,-0.04298,0.0875,0.45444
0.0439665,0,0,14.956,14.956,15.044,15.044,-0.0732776,2.62098,19.6059,0.185259,0.0416439,0.0426617,0,0,3.395,-0.105,-2.5375,0.191662,0.055022,-0.96929,-0.04298,0.0875,0.45444
0.044153,0,0,14.9558,14.9558,15.0442,15.0442,-0.0735884,2.62051,19.6022,-0.0630492,-0.0180815,-0.122827,1,0,3.465,-0.1575,-2.555,-0.057706,-0.004636,-1.1335,-0.04298,0.0875,0.45444
0.0443345,0,0,14.9557,14.9557,15.0443,15.0443,-0.0738909,2.61962,19.5987,-0.0630336,-0.0180867,-0.122826,1,0,3.465,-0.4025,-2.45,-0.057706,-0.004636,-1.1335,-0.0378,0.09352,0.45878
0.065622,0,0,14.9344,14.9344,15.0656,15.0656,-0.10937,2.54828,19.691,-0.0672567,0.0341755,0.0269805,0,0,3.92,-0.4375,-2.31,-0.063196,0.04819,-0.984906,-0.0378,0.09352,0.45878
0.0866864,0,0,14.9133,14.9133,15.0867,15.0867,-0.144477,2.47887,19.7838,-0.0660464,0.0335632,0.0270323,0,0,3.7625,-0.0525,-1.9775,-0.063196,0.04819,-0.984906,-0.0378,0.09352,0.45878
0.118545,0,0,14.8815,14.8815,15.1185,15.1185,-0.197575,2.56691,19.74,0.0856119,0.053277,0.0329863,0,0,3.815,-0.1575,-1.8375,0.090646,0.068808,-0.978928,-0.0378,0.09352,0.45878
0.15051,0,0,14.8495,14.8495,15.1505,15.1505,-0.25085,2.65342,19.6968,0.0841037,0.0523484,0.0329139,0,0,3.2025,-0.175,-1.4175,0.090646,0.068808,-0.978928,-0.0378,0.09352,0.45878
0.179538,0,0,14.8205,14.8205,15.1795,15.1795,-0.299231,2.57645,19.8001,-0.0726073,0.0447876,0.0472332,0,0,3.3775,-0.07,-1.3125,-0.068076,0.062098,-0.964776,-0.0378,0.09352,0.45878
0.208328,0,0,14.7917,14.7917,15.2083,15.2083,-0.347214,2.50101,19.9045,-0.0712919,0.0439507,0.0472868,0,0,3.0975,0.0175,-0.6475,-0.068076,0.062098,-0.964776,-0.0378,0.09352,0.45878
0.200807,0,0,14.7992,14.7992,15.2008,15.2008,-0.334679,2.70004,19.7539,0.173919,-0.0102984,0.114137,0,0,3.3775,-0.1225,4.3225,0.181658,0.007686,-0.898286,-0.0378,0.09352,0.45878
0.192653,0,0,14.8073,14.8073,15.1927,15.1927,-0.321088,2.89792,19.6008,0.17047,-0.0100605,0.11397,0,0,3.9025,0.14,0.3675,0.181658,0.007686,-0.898286,-0.04424,0.08932,0.45402
0.265356,0,0,14.7346,14.7346,15.2654,15.2654,-0.442261,2.91795,19.6378,0.0245807,0.123022,0.00389944,0,0,3.71,-0.07,0.6475,0.035502,0.14274,-1.00748,-0.04424,0.08932,0.45402
0.33687,0,0,14.6631,14.6631,15.3369,15.3369,-0.561449,2.93787,19.6753,0.0242335,0.120945,0.00386348,0,0,3.6575,0.035,0.8925,0.035502,0.14274,-1.00748,-0.04424,0.08932,0.45402
0.363459,0,0,14.6365,14.6365,15.3635,15.3635,-0.605765,2.96176,19.6922,0.0303773,0.0487282,-0.0699349,0,0,3.4125,0.2625,1.225,0.04209,0.07137,-1.08068,-0.04424,0.08932,0.45402
0.389461,0,0,14.6105,14.6105,15.3895,15.3895,-0.649102,2.98559,19.7092,0.0299619,0.0479732,-0.0699648,0,0,3.535,0.455,1.295,0.04209,0.07137,-1.08068,-0.04424,0.08932,0.45402
0.441133,0,0,14.5589,14.5589,15.4411,15.4411,-0.735222,2.95147,19.7894,-0.031158,0.0867737,-0.00478938,0,0,3.4125,0.525,1.4875,-0.019886,0.11163,-1.01602,-0.04424,0.08932,0.45402
0.492188,0,0,14.5078,14.5078,15.4922,15.4922,-0.820313,2.91853,19.8701,-0.030584,0.0852902,-0.00478008,0,0,3.15,0.84,1.715,-0.019886,0.11163,-1.01602,-0.04424,0.08932,0.45402
0.404884,0,0,14.5951,14.5951,15.4049,15.4049,-0.674806,2.99389,19.7957,0.0723372,-0.152274,-0.0302652,0,0,3.1325,0.665,1.5225,0.08479,-0.128222,-1.04127,-0.04424,0.08932,0.45402
0.31833,0,0,14.6817,14.6817,15.3183,15.3183,-0.530551,3.06853,19.7282,0.0710363,-0.149759,-0.0303076,0,0,3.64,0.56,1.47,0.08479,-0.128222,-1.04127,-0.04452,0.08442,0.45864
0.318063,0,0,14.6819,14.6819,15.3181,15.3181,-0.530105,3.06929,19.731,0.0363998,-0.134486,-0.0998971,1,0,3.71,0.5425,1.2425,0.05002,-0.112972,-1.11032,-0.04452,0.08442,0.45864
0.317577,0,0,14.6824,14.6824,15.3176,15.3176,-0.529294,3.06992,19.7336,0.0363887,-0.134472,-0.0998975,1,0,3.92,0.4725,1.1375,0.05002,-0.112972,-1.11032,-0.04452,0.08442,0.45864
0.22835,0,0,14.7717,14.7717,15.2283,15.2283,-0.380583,2.95527,19.8319,-0.119787,-0.1502,0.0175211,0,0,3.43,0.2975,0.84,-0.108824,-0.131272,-0.993934,-0.04452,0.08442,0.45864
0.140593,0,0,14.8594,14.8594,15.1406,15.1406,-0.234322,2.84213,19.9289,-0.117815,-0.147651,0.0176346,0,0,3.4825,0.105,0.5425,-0.108824,-0.131272,-0.993934,-0.04452,0.08442,0.45864
0.138642,0,0,14.8614,14.8614,15.1386,15.1386,-0.231069,2.7914,20.0046,-0.0501139,-0.00495009,-0.0993686,0,0,3.08,0.175,-0.0875,-0.041724,0.011224,-1.11008,-0.04452,0.08442,0.45864
0.136426,0,0,14.8636,14.8636,15.1364,15.1364,-0.227377,2.74157,20.0799,-0.0492451,-0.0048859,-0.0993264,0,0,3.36,0.175,-0.2625,-0.041724,0.011224,-1.11008,-0.04452,0.08442,0.45864
0.202191,0,0,14.7978,14.7978,15.2022,15.2022,-0.336985,2.77588,20.107,0.0428503,0.115819,-0.043546,0,0,3.1675,0.2275,-0.91,0.051362,0.133712,-1.05469,-0.04452,0.08442,0.45864
0.266553,0,0,14.7334,14.7334,15.2666,15.2666,-0.444254,2.81098,20.1223,0.0422384,0.113949,-0.0435886,0,0,3.1675,0.2275,-0.91,0.051362,0.133712,-1.05469,-0.04382,0.0931,0.45542
0.266229,0,0,14.7338,14.7338,15.2662,15.2662,-0.443715,2.81139,20.1202,0.102974,-0.0248997,-0.139612,1,0,3.9025,0.3675,-1.575,0.112362,-0.005002,-1.14997,-0.04382,0.0931,0.45542
0.266106,0,0,14.7339,14.7339,15.2661,15.2661,-0.443511,2.81117,20.1178,0.102978,-0.0248962,-0.139611,1,0,3.7275,0,-1.855,0.112362,-0.005002,-1.14997,-0.04382,0.0931,0.45542
0.236243,0,0,14.7638,14.7638,15.2362,15.2362,-0.393738,2.56726,20.3403,-0.250423,-0.0556607,-0.0179323,0,0,3.8325,0.07,-2.0475,-0.246806,-0.0366,-1.02944,-0.04382,0.0931,0.45542
0.207141,0,0,14.7929,14.7929,15.2071,15.2071,-0.345235,2.32743,20.5615,-0.246242,-0.0548161,-0.0177481,0,0,3.57,0.035,-2.2225,-0.246806,-0.0366,-1.02944,-0.04382,0.0931,0.45542
0.161876,0,0,14.8381,14.8381,15.1619,15.1619,-0.269794,2.21299,20.666,-0.113649,-0.0763386,0.0263537,0,0,3.5,-0.2275,-2.38,-0.115656,-0.059414,-0.98576,-0.04382,0.0931,0.45542
0.116847,0,0,14.8832,14.8832,15.1168,15.1168,-0.194745,2.10001,20.7698,-0.111678,-0.07503,0.0264332,0,0,3.99,-0.5075,-2.485,-0.115656,-0.059414,-0.98576,-0.04382,0.0931,0.45542
0.0711345,0,0,14.9289,14.9289,15.0711,15.0711,-0.118557,2.41373,20.4937,0.29165,-0.0699148,0.093474,0,0,3.815,-0.385,-2.3275,0.294874,-0.055632,-0.919026,-0.04382,0.0931,0.45542
0.0262409,0,0,14.9738,14.9738,15.0262,15.0262,-0.0437348,2.72219,20.2181,0.286272,-0.0686099,0.0932347,0,0,3.815,-0.385,-2.3275,0.294874,-0.055632,-0.919026,-0.04382,0.0931,0.45542
0.0572211,0,0,14.9428,14.9428,15.0572,15.0572,-0.0953684,2.84477,20.1388,0.130091,0.0567692,-0.0266222,0,0,3.9025,-0.4725,-1.855,0.140178,0.070516,-1.03785,-0.04102,0.09296,0.45108
0.00967761,0,0,14.9903,14.9903,15.0097,15.0097,-0.0161294,2.86299,20.1183,0.0135116,-0.0765553,0.0352064,0,0,3.99,-0.1925,-1.68,0.023424,-0.06405,-0.976488,-0.04102,0.09296,0.45108
-0.0363252,0,0,15.0363,15.0363,14.9637,14.9637,0.060542,2.88105,20.0986,0.0131967,-0.0752188,0.0351901,0,0,3.29,-0.07,-1.2425,0.023424,-0.06405,-0.976488,-0.04102,0.09296,0.45108
-0.0129926,0,0,15.013,15.013,14.987,14.987,0.0216543,3.00412,20.014,0.118445,0.0397573,0.0345885,0,0,3.2725,-0.175,-1.12,0.131272,0.051484,-0.976976,-0.04102,0.09296,0.45108
0.0099683,0,0,14.99,14.99,15.01,15.01,-0.0166138,3.12546,19.9307,0.11633,0.0390903,0.0344754,0,0,3.2375,0.0525,-0.3675,0.131272,0.051484,-0.976976,-0.04102,0.09296,0.45108
-0.0168024,0,0,15.0168,15.0168,14.9832,14.9832,0.0280041,3.19516,19.8712,0.0728386,-0.0468421,-0.0405904,0,0,3.2375,0.0525,-0.175,0.088816,-0.035136,-1.0514,-0.04102,0.09296,0.45108
-0.0432085,0,0,15.0432,15.0432,14.9568,14.9568,0.0720141,3.26391,19.8126,0.0716406,-0.0460753,-0.0406586,0,0,3.3075,0.2275,0.2625,0.088816,-0.035136,-1.0514,-0.04102,0.09296,0.45108
-0.146617,0,0,15.1466,15.1466,14.8534,14.8534,0.244362,3.18869,19.849,-0.0790273,-0.172038,0.0383399,0,0,3.2025,0.175,0.455,-0.063806,-0.163968,-0.973072,-0.04102,0.09296,0.45108
-0.24888,0,0,15.2489,15.2489,14.7511,14.7511,0.414799,3.11634,19.8926,-0.0777665,-0.169067,0.0383922,0,0,3.4825,0.455,1.015,-0.063806,-0.163968,-0.973072,-0.04018,0.08848,0.45192
-0.244673,0,0,15.2447,15.2447,14.7553,14.7553,0.407788,3.00538,20.0147,-0.111792,0.00508629,-0.0521165,0,0,3.5175,0.3325,1.12,-0.099918,0.010126,-1.06299,-0.04018,0.08848,0.45192
-0.240413,0,0,15.2404,15.2404,14.7596,14.7596,0.400688,2.89709,20.1371,-0.109905,0.00496323,-0.0520183,0,0,3.3775,0.7525,1.3475,-0.099918,0.010126,-1.06299,-0.04018,0.08848,0.45192
-0.174843,0,0,15.1748,15.1748,14.8252,14.8252,0.291405,3.01262,20.0872,0.122913,0.116025,-0.0227261,0,0,3.01,0.595,1.5575,0.135908,0.122976,-1.03383,-0.04018,0.08848,0.45192
-0.110346,0,0,15.1103,15.1103,14.8897,14.8897,0.18391,3.12642,20.037,0.12093,0.114151,-0.0228247,0,0,3.01,0.7175,1.4525,0.135908,0.122976,-1.03383,-0.04018,0.08848,0.45192
-0.135706,0,0,15.1357,15.1357,14.8643,14.8643,0.226177,3.1949,19.9887,0.0630028,-0.0418011,0.0194011,0,0,3.0625,0.665,1.4,0.078934,-0.03355,-0.99186,-0.04018,0.08848,0.45192
-0.160502,0,0,15.1605,15.1605,14.8395,14.8395,0.267503,3.2617,19.94,0.0618388,-0.0410813,0.0193323,0,0,2.9575,0.4025,1.1725,0.078934,-0.03355,-0.99186,-0.04018,0.08848,0.45192
-0.149242,0,0,15.1492,15.1492,14.8508,14.8508,0.248737,3.252,19.9735,-0.00821105,0.0190445,-0.0240574,0,0,3.395,0.385,1.1375,0.008418,0.02684,-1.03493,-0.04018,0.08848,0.45192
-0.138263,0,0,15.1383,15.1383,14.8617,14.8617,0.230439,3.2428,20.0034,-0.00805063,0.0187257,-0.024047,0,0,3.5,0.595,0.8925,0.008418,0.02684,-1.03493,-0.04578,0.08904,0.45892
-0.167207,0,0,15.1672,15.1672,14.8328,14.8328,0.278678,3.297,19.9595,0.0491966,-0.0463824,0.0238453,0,0,3.7625,0.035,0.595,0.066856,-0.03904,-0.987346,-0.04578,0.08904,0.45892
-0.19534,0,0,15.1953,15.1953,14.8047,14.8047,0.325567,3.3504,19.9148,0.0482662,-0.0455657,0.0237869,0,0,3.5,0.14,0.1225,0.066856,-0.03904,-0.987346,-0.04578,0.08904,0.45892
-0.195248,0,0,15.1952,15.1952,14.8048,14.8048,0.325413,3.35037,19.9151,-0.0132052,-0.082817,-0.103711,1,0,3.4475,0.105,-0.21,0.005124,-0.07625,-1.11386,-0.04578,0.08904,0.45892
-0.195501,0,0,15.1955,15.1955,14.8045,14.8045,0.325835,3.35063,19.9146,-0.0132096,-0.0828097,-0.103711,1,0,3.7975,0.2625,-0.7,0.005124,-0.07625,-1.11386,-0.04578,0.08904,0.45892
-0.249691,0,0,15.2497,15.2497,14.7503,14.7503,0.416151,3.31404,19.9359,-0.0391774,-0.0892962,0.0320511,0,0,3.6225,0.0525,-0.84,-0.021594,-0.084302,-0.979172,-0.04578,0.08904,0.45892
-0.303364,0,0,15.3034,15.3034,14.6966,14.6966,0.505607,3.27792,19.9561,-0.0385481,-0.0877373,0.0320748,0,0,4.025,-0.0175,-1.3825,-0.021594,-0.084302,-0.979172,-0.04578,0.08904,0.45892
-0.288676,0,0,15.2887,15.2887,14.7113,14.7113,0.481127,3.16543,20.0713,-0.107657,0.0227282,0.00895157,0,0,3.815,-0.28,-1.4875,-0.092964,0.026474,-1.00223,-0.04578,0.08904,0.45892
-0.274884,0,0,15.2749,15.2749,14.7251,14.7251,0.45814,3.05534,20.1879,-0.105738,0.0223285,0.00905911,0,0,4.305,-0.3675,-1.7675,-0.092964,0.026474,-1.00223,-0.04172,0.08904,0.45192
-0.237498,0,0,15.2375,15.2375,14.7625,14.7625,0.39583,3.22333,20.0691,0.183993,0.071924,-0.0534282,0,0,4.095,-0.1575,-1.9775,0.200934,0.077104,-1.06408,-0.04172,0.08904,0.45192
-0.200549,0,0,15.2005,15.2005,14.7995,14.7995,0.334249,3.38824,19.9498,0.18112,0.07085,-0.0535874,0,0,3.9725,-0.28,-2.135,0.200934,0.077104,-1.06408,-0.04172,0.08904,0.45192
-0.165882,0,0,15.1659,15.1659,14.8341,14.8341,0.276469,3.46702,19.9038,0.0862031,0.0630038,-0.0364514,0,0,3.8325,-0.5075,-2.0125,0.106994,0.070272,-1.047,-0.04172,0.08904,0.45192
-0.131809,0,0,15.1318,15.1318,14.8682,14.8682,0.219681,3.54409,19.8576,0.0848605,0.0620142,-0.0365294,0,0,3.8675,-0.7175,-2.135,0.106994,0.070272,-1.047,-0.04172,0.08904,0.45192
-0.118593,0,0,15.1186,15.1186,14.8814,14.8814,0.197656,3.46525,19.9418,-0.0766783,0.0224281,-0.0499682,0,0,3.92,-0.455,-1.9075,-0.056608,0.03111,-1.06042,-0.04172,0.08904,0.45192
-0.105766,0,0,15.1058,15.1058,14.8942,14.8942,0.176277,3.38848,20.0264,-0.0753409,0.0220559,-0.0498869,0,0,4.0425,-0.0525,-1.61,-0.056608,0.03111,-1.06042,-0.04172,0.08904,0.45192
-0.10658,0,0,15.1066,15.1066,14.8934,14.8934,0.177633,3.29614,20.1208,-0.0901326,-0.00197914,0.00750097,0,0,4.1125,-0.1925,-1.33,-0.073078,0.007076,-1.00357,-0.04172,0.08904,0.45192
-0.106951,0,0,15.107,15.107,14.893,14.893,0.178252,3.20513,20.2178,-0.0885467,-0.00196806,0.00759101,0,0,3.7275,-0.21,-0.84,-0.073078,0.007076,-1.00357,-0.04382,0.08722,0.4501
-0.0842199,0,0,15.0842,15.0842,14.9158,14.9158,0.140367,3.2457,20.209,0.045717,0.0407266,-0.037692,0,0,3.5875,-0.21,-0.805,0.062464,0.050386,-1.04847,-0.04382,0.08722,0.4501
-0.061468,0,0,15.0615,15.0615,14.9385,14.9385,0.102447,3.28554,20.2006,0.0450228,0.0400658,-0.0377302,0,0,3.2025,-0.2275,-0.56,0.062464,0.050386,-1.04847,-0.04382,0.08722,0.4501
-0.0680113,0,0,15.068,15.068,14.932,14.932,0.113352,3.23171,20.264,-0.0536574,-0.0128692,-0.0111203,0,0,3.1675,0.3325,-0.385,-0.037576,-0.002684,-1.02212,-0.04382,0.08722,0.4501
-0.07483,0,0,15.0748,15.0748,14.9252,14.9252,0.124717,3.1778,20.3279,-0.052718,-0.012671,-0.0110681,0,0,3.5,-0.2625,0.0175,-0.037576,-0.002684,-1.02212,-0.04382,0.08722,0.4501
-0.141044,0,0,15.141,15.141,14.859,14.859,0.235073,3.17376,20.3237,-0.00866993,-0.111136,0.0164702,0,0,3.3425,-0.0525,0.175,0.006588,-0.102968,-0.994788,-0.04382,0.08722,0.4501
-0.206467,0,0,15.2065,15.2065,14.7935,14.7935,0.344112,3.17004,20.3204,-0.00860497,-0.109236,0.0164642,0,0,3.6225,0.14,0.735,0.006588,-0.102968,-0.994788,-0.04382,0.08722,0.4501
-0.155424,0,0,15.1554,15.1554,14.8446,14.8446,0.25904,3.13337,20.3953,-0.0329921,0.0876156,-0.0251724,0,0,3.36,0.4725,0.8575,-0.018544,0.09516,-1.03615,-0.04382,0.08722,0.4501
-0.104324,0,0,15.1043,15.1043,14.8957,14.8957,0.173874,3.09761,20.4706,-0.0323689,0.0861315,-0.0251328,0,0,2.485,0.595,1.05,-0.018544,0.09516,-1.03615,-0.04382,0.08722,0.4501
-0.0934731,0,0,15.0935,15.0935,14.9065,14.9065,0.155789,3.12164,20.4721,0.026619,0.0180359,-0.0397856,0,0,2.73,0.5775,1.015,0.041114,0.02745,-1.05066,-0.04172,0.09114,0.45206
-0.0827259,0,0,15.0827,15.0827,14.9173,14.9173,0.137876,3.14549,20.4735,0.0262033,0.0177237,-0.0398075,0,0,2.66,0.7175,0.9975,0.041114,0.02745,-1.05066,-0.04172,0.09114,0.45206
-0.172945,0,0,15.1729,15.1729,14.8271,14.8271,0.288241,3.21538,20.3896,0.06216,-0.153443,0.0172861,0,0,2.695,0.7175,0.8925,0.078446,-0.146156,-0.993934,-0.04172,0.09114,0.45206
-0.261649,0,0,15.2616,15.2616,14.7384,14.7384,0.436082,3.28394,20.3059,0.0609653,-0.150867,0.017202,0,0,2.695,0.7175,0.8925,0.078446,-0.146156,-0.993934,-0.04172,0.09114,0.45206
-0.261026,0,0,15.261,15.261,14.739,14.739,0.435044,3.28513,20.3072,-0.155664,0.0566083,0.105724,1,0,2.9225,0.8225,0.315,-0.13908,0.061122,-0.906094,-0.04172,0.09114,0.45206
-0.260403,0,0,15.2604,15.2604,14.7396,14.7396,0.434005,3.28633,20.3084,-0.155685,0.0565902,0.105723,1,0,2.9225,0.8225,0.315,-0.13908,0.061122,-0.906094,-0.04172,0.09114,0.45206
-0.263424,0,0,15.2634,15.2634,14.7366,14.7366,0.43904,3.24394,20.357,-0.0429369,-0.0059728,0.0147824,0,0,3.395,0.665,-0.0875,-0.026596,-0.001464,-0.996374,-0.04172,0.09114,0.45206
-0.266401,0,0,15.2664,15.2664,14.7336,14.7336,0.444001,3.2023,20.4055,-0.0422112,-0.00588604,0.0148226,0,0,3.395,0.665,-0.0875,-0.026596,-0.001464,-0.996374,-0.04172,0.09114,0.45206
-0.240364,0,0,15.2404,15.2404,14.7596,14.7596,0.400606,3.29183,20.3466,0.0993387,0.0492912,-0.0677588,0,0,3.64,0.42,-0.6475,0.11712,0.054412,-1.07824,-0.04452,0.09296,0.45038
-0.235455,0,0,15.2355,15.2355,14.7645,14.7645,0.392426,3.24215,20.3994,-0.048737,0.00762591,0.0359372,0,0,3.745,0.1225,-0.875,-0.032452,0.012932,-0.97539,-0.04452,0.09296,0.45038
-0.230525,0,0,15.2305,15.2305,14.7695,14.7695,0.384208,3.19305,20.4515,-0.0478814,0.00748304,0.0359863,0,0,3.6575,-0.0525,-1.2425,-0.032452,0.012932,-0.97539,-0.04452,0.09296,0.45038
-0.230945,0,0,15.2309,15.2309,14.7691,14.7691,0.384908,3.19247,20.4498,0.100706,-0.0748182,-0.109953,1,0,3.99,-0.2275,-1.3825,0.116754,-0.069296,-1.1202,-0.04452,0.09296,0.45038
-0.231,0,0,15.231,15.231,14.769,14.769,0.385001,3.19145,20.4479,0.100723,-0.0748166,-0.109952,1,0,3.6575,-0.49,-1.54,0.116754,-0.069296,-1.1202,-0.04452,0.09296,0.45038
-0.271243,0,0,15.2712,15.2712,14.7288,14.7288,0.452071,3.18243,20.4442,-0.00979276,-0.0686405,0.00316069,0,0,3.5525,-0.5775,-1.5925,0.005612,-0.064294,-1.00796,-0.04452,0.09296,0.45038
-0.311062,0,0,15.3111,15.3111,14.6889,14.6889,0.518436,3.17439,20.4402,-0.00965278,-0.067484,0.00315867,0,0,3.7975,-0.07,-1.7325,0.005612,-0.064294,-1.00796,-0.04452,0.09296,0.45038
-0.327084,0,0,15.3271,15.3271,14.6729,14.6729,0.54514,2.98758,20.6028,-0.188868,-0.0326994,-0.0314648,0,0,3.7275,-0.28,-1.82,-0.177632,-0.030012,-1.04249,-0.04452,0.09296,0.45038
-0.343119,0,0,15.3431,15.3431,14.6569,14.6569,0.571865,2.80376,20.7667,-0.185664,-0.032232,-0.0313073,0,0,4.0075,-0.28,-1.61,-0.177632,-0.030012,-1.04249,-0.0462,0.09128,0.45402
-0.403645,0,0,15.4036,15.4036,14.5964,14.5964,0.672742,3.01091,20.571,0.209805,-0.102897,-0.0097479,0,0,3.92,-0.42,-1.6275,0.223138,-0.102358,-1.0209,-0.0462,0.09128,0.45402
-0.463285,0,0,15.4633,15.4633,14.5367,14.5367,0.772142,3.21417,20.3766,0.206263,-0.101167,-0.00996234,0,0,4.06,-0.5775,-1.2775,0.223138,-0.102358,-1.0209,-0.0462,0.09128,0.45402
-0.481076,0,0,15.4811,15.4811,14.5189,14.5189,0.801793,3.29345,20.306,0.08619,-0.0304287,-0.0587356,0,0,4.0075,-0.56,-1.05,0.103944,-0.032208,-1.06921,-0.0462,0.09128,0.45402
-0.498913,0,0,15.4989,15.4989,14.5011,14.5011,0.831521,3.3717,20.2363,0.0848267,-0.0299119,-0.0588223,0,0,4.3225,-0.3325,-0.5775,0.103944,-0.032208,-1.06921,-0.0462,0.09128,0.45402
-0.458156,0,0,15.4582,15.4582,14.5418,14.5418,0.763593,3.17523,20.4305,-0.186793,0.0645325,0.0291752,0,0,3.99,-0.28,-0.42,-0.172264,0.063318,-0.9821,-0.0462,0.09128,0.45402
-0.417904,0,0,15.4179,15.4179,14.5821,14.5821,0.696507,2.98319,20.6254,-0.183447,0.0633657,0.0293701,0,0,3.78,0.2975,-0.105,-0.172264,0.063318,-0.9821,-0.0462,0.09128,0.45402
-0.403625,0,0,15.4036,15.4036,14.5964,14.5964,0.672709,3.16302,20.4866,0.158196,0.0276544,0.0986727,0,0,3.8325,-0.0875,-0.07,0.173972,0.02806,-0.91317,-0.0462,0.09128,0.45402
-0.388639,0,0,15.3886,15.3886,14.6114,14.6114,0.647732,3.33909,20.356,0.155128,0.0272171,0.0985034,0,0,3.3075,0.49,0.35,0.173972,0.02806,-0.91317,-0.04046,0.08722,0.45612
-0.388685,0,0,15.3887,15.3887,14.6113,14.6113,0.647808,3.42909,20.2929,0.0869854,0.00169293,0.0138221,0,0,3.5,0.455,0.42,0.107116,0.002562,-0.997106,-0.04046,0.08722,0.45612
-0.388573,0,0,15.3886,15.3886,14.6114,14.6114,0.647622,3.51761,20.2302,0.0854433,0.00168864,0.0137286,0,0,3.36,0.5075,0.595,0.107116,0.002562,-0.997106,-0.04046,0.08722,0.45612
-0.455106,0,0,15.4551,15.4551,14.5449,14.5449,0.75851,3.46346,20.2645,-0.0578168,-0.110568,0.0401963,0,0,3.1325,0.4375,0.7875,-0.037698,-0.111508,-0.970876,-0.04046,0.08722,0.45612
-0.520887,0,0,15.5209,15.5209,14.4791,14.4791,0.868145,3.40992,20.2991,-0.0568842,-0.108657,0.0402252,0,0,3.4475,0.2975,1.1725,-0.037698,-0.111508,-0.970876,-0.04046,0.08722,0.45612
-0.532731,0,0,15.5327,15.5327,14.4673,14.4673,0.887886,3.26987,20.4324,-0.13997,-0.0241655,-0.00881704,0,0,3.1325,0.42,0.9625,-0.123586,-0.02745,-1.01968,-0.04046,0.08722,0.45612
-0.544278,0,0,15.5443,15.5443,14.4557,14.4557,0.90713,3.13264,20.5651,-0.137579,-0.0238281,-0.00868856,0,0,3.0275,0.6475,0.8925,-0.123586,-0.02745,-1.01968,-0.04046,0.08722,0.45612
-0.563099,0,0,15.5631,15.5631,14.4369,14.4369,0.938498,3.25592,20.4671,0.127177,-0.0325651,-0.0321775,0,0,2.975,0.4025,0.84,0.144448,-0.036722,-1.04286,-0.04046,0.08722,0.45612
-0.581828,0,0,15.5818,15.5818,14.4182,14.4182,0.969713,3.37779,20.3671,0.125054,-0.0320233,-0.0323096,0,0,3.0625,0.3675,0.455,0.144448,-0.036722,-1.04286,-0.04452,0.08764,0.4473
-0.581609,0,0,15.5816,15.5816,14.4184,14.4184,0.969348,3.37826,20.3681,0.0635739,-0.0825901,-0.106325,1,0,3.3075,0.4025,0.1575,0.082716,-0.08723,-1.1163,-0.04452,0.08764,0.4473
-0.581276,0,0,15.5813,15.5813,14.4187,14.4187,0.968793,3.37835,20.3685,0.0635722,-0.0825998,-0.106325,1,0,3.22,0.175,-0.1575,0.082716,-0.08723,-1.1163,-0.04452,0.08764,0.4473
-0.604932,0,0,15.6049,15.6049,14.3951,14.3951,1.00822,3.22472,20.5029,-0.151818,-0.0444173,0.000414033,0,0,3.43,-0.0175,-0.3675,-0.136274,-0.049776,-1.01053,-0.04452,0.08764,0.4473
-0.628337,0,0,15.6283,15.6283,14.3717,14.3717,1.04723,3.07413,20.6364,-0.149193,-0.0437351,0.000546213,0,0,3.5525,0.1925,-0.56,-0.136274,-0.049776,-1.01053,-0.04452,0.08764,0.4473
-0.649116,0,0,15.6491,15.6491,14.3509,14.3509,1.08186,3.1819,20.5477,0.117169,-0.0372715,-0.0743203,0,0,3.535,0.0875,-0.7525,0.133102,-0.04392,-1.0847,-0.04452,0.08764,0.4473
-0.669704,0,0,15.6697,15.6697,14.3303,14.3303,1.11617,3.28777,20.4586,0.115324,-0.0366756,-0.074436,0,0,3.7275,0.0875,-1.085,0.133102,-0.04392,-1.0847,-0.04452,0.08764,0.4473
-0.66984,0,0,15.6698,15.6698,14.3302,14.3302,1.1164,3.28744,20.4574,0.0769403,0.0397797,-0.220253,1,0,3.71,-0.0875,-1.085,0.09455,0.032452,-1.22939,-0.04452,0.08764,0.4473
-0.670216,0,0,15.6702,15.6702,14.3298,14.3298,1.11703,3.28746,20.4556,0.07694,0.0397906,-0.220253,1,0,3.955,0.105,-1.4875,0.09455,0.032452,-1.22939,-0.04466,0.0896,0.4571
-0.746003,0,0,15.746,15.746,14.254,14.254,1.24334,3.1183,20.5754,-0.171223,-0.134967,0.00314113,0,0,3.8675,-0.035,-1.47,-0.157624,-0.144326,-1.00784,-0.04466,0.0896,0.4571
-0.820492,0,0,15.8205,15.8205,14.1795,14.1795,1.36749,2.95195,20.6939,-0.168324,-0.1328,0.00324553,0,0,3.815,-0.0875,-1.6975,-0.157624,-0.144326,-1.00784,-0.04466,0.0896,0.4571
-0.783567,0,0,15.7836,15.7836,14.2164,14.2164,1.30595,2.77369,20.8725,-0.17943,0.0611672,-0.0628433,0,0,3.7625,-0.385,-1.68,-0.171898,0.050508,-1.0736,-0.04466,0.0896,0.4571
-0.747546,0,0,15.7475,15.7475,14.2525,14.2525,1.24591,2.59877,21.0514,-0.176381,0.060124,-0.062677,0,0,3.99,-0.28,-1.5225,-0.171898,0.050508,-1.0736,-0.04466,0.0896,0.4571
-0.704909,0,0,15.7049,15.7049,14.2951,14.2951,1.17485,2.73603,20.9661,0.129314,0.0746374,0.0562519,0,0,3.9025,-0.2625,-1.5225,0.137494,0.066246,-0.955504,-0.04466,0.0896,0.4571
-0.662465,0,0,15.6625,15.6625,14.3375,14.3375,1.10411,2.87093,20.8811,0.126962,0.0734021,0.0561613,0,0,3.4475,-0.2625,-1.225,0.137494,0.066246,-0.955504,-0.04466,0.0896,0.4571
-0.662344,0,0,15.6623,15.6623,14.3377,14.3377,1.10391,2.87007,20.8799,-0.12547,-0.0686347,0.111735,1,0,3.465,-0.4025,-1.085,-0.116022,-0.07564,-0.90036,-0.04466,0.0896,0.4571
