pid_x,pid_y,pid_z,front_left_speed,front_right_speed,back_left_speed,back_right_speed,orientation_x,orientation_y,orientation_z,acceleration_x,acceleration_y,acceleration_z,accel_rejected,mag_rejected,gyro_x,gyro_y,gyro_z,accel_x,accel_y,accel_z,mag_x,mag_y,mag_z
-0.0247601,0,0,15.0248,15.0248,14.9752,14.9752,0.0165067,0.0581931,0.0144458,0.0445854,-0.0141899,-0.00276648,0,0,3.43,0.245,-0.91,0.00549,-0.002318,-1.01541,-0.07126,0.11494,0.44324
-0.0462848,0,0,15.0463,15.0463,14.9537,14.9537,0.0308565,0.123453,0.020861,0.0501281,-0.0125961,-0.000555317,0,0,3.255,0.245,-1.085,0.0122,-0.000976,-1.01321,-0.07126,0.11494,0.44324
-0.0698443,0,0,15.0698,15.0698,14.9302,14.9302,0.0465628,0.183153,0.0310792,0.0461705,-0.0139096,-0.00879584,0,0,3.2375,0.2275,-1.0675,0.009272,-0.002562,-1.02138,-0.07126,0.11494,0.44324
-0.0934418,0,0,15.0934,15.0934,14.9066,14.9066,0.0622945,0.241269,0.0412587,0.0451561,-0.0136351,-0.00879986,0,0,3.43,0.0875,-1.085,0.009272,-0.002562,-1.02138,-0.07126,0.11494,0.44324
-0.113623,0,0,15.1136,15.1136,14.8864,14.8864,0.0757485,0.299808,0.0497438,0.0452278,-0.0118126,-0.00253459,0,0,3.29,0.14,-1.1375,0.01037,-0.000976,-1.01516,-0.07126,0.11494,0.44324
-0.13363,0,0,15.1336,15.1336,14.8664,14.8664,0.0890868,0.35751,0.0582822,0.0442207,-0.0115798,-0.0025407,0,0,3.3775,0.42,-1.1025,0.01037,-0.000976,-1.01516,-0.07126,0.11494,0.44324
-0.15617,0,0,15.1562,15.1562,14.8438,14.8438,0.104113,0.413967,0.0722839,0.0432354,-0.0132716,-0.00156419,0,0,3.22,0.175,-1.085,0.01037,-0.002928,-1.01419,-0.07462,0.11228,0.44408
-0.179304,0,0,15.1793,15.1793,14.8207,14.8207,0.119536,0.466804,0.0877955,0.0407339,-0.0131246,0.000272424,0,0,3.5175,-0.105,-1.1725,0.008784,-0.00305,-1.01236,-0.07462,0.11228,0.44408
-0.199566,0,0,15.1996,15.1996,14.8004,14.8004,0.133044,0.520157,0.102134,0.0411392,-0.0114233,-0.00330162,0,0,3.5875,0.105,-1.0675,0.010126,-0.001586,-1.01589,-0.07462,0.11228,0.44408
-0.222092,0,0,15.2221,15.2221,14.7779,14.7779,0.148061,0.569193,0.119187,0.0376107,-0.0129931,-0.000728482,0,0,3.395,0.0875,-1.155,0.007442,-0.003416,-1.01333,-0.07462,0.11228,0.44408
-0.244727,0,0,15.2447,15.2447,14.7553,14.7553,0.163151,0.617031,0.136266,0.0367758,-0.0127298,-0.00073784,0,0,3.605,0.035,-1.12,0.007442,-0.003416,-1.01333,-0.07462,0.11228,0.44408
-0.264867,0,0,15.2649,15.2649,14.7351,14.7351,0.176578,0.667141,0.150473,0.0385739,-0.0115185,-0.000502439,0,0,3.465,0.07,-0.9975,0.010126,-0.00244,-1.01309,-0.07462,0.11228,0.44408
-0.287614,0,0,15.2876,15.2876,14.7124,14.7124,0.191743,0.716198,0.164605,0.0375963,-0.0129637,0.00305188,0,0,3.465,0.0175,-0.9975,0.010004,-0.004148,-1.00955,-0.07462,0.11228,0.44408
-0.31032,0,0,15.3103,15.3103,14.6897,14.6897,0.20688,0.763943,0.184505,0.0367631,-0.0126995,0.0030402,0,0,3.6225,0.1225,-1.1375,0.010004,-0.004148,-1.00955,-0.06846,0.10808,0.44772
-0.325797,0,0,15.3258,15.3258,14.6742,14.6742,0.217198,0.809275,0.205422,0.0356075,-0.00861144,-0.0077908,0,0,3.675,0.14,-1.085,0.009638,-0.000244,-1.02029,-0.06846,0.10808,0.44772
-0.34465,0,0,15.3447,15.3447,14.6553,14.6553,0.229767,0.854814,0.225287,0.0352987,-0.0103462,0.000311407,0,0,3.745,0.14,-1.1025,0.010126,-0.002196,-1.01223,-0.06846,0.10808,0.44772
-0.362888,0,0,15.3629,15.3629,14.6371,14.6371,0.241925,0.899367,0.244962,0.0345212,-0.010134,0.00029863,0,0,3.6575,0.1575,-1.19,0.010126,-0.002196,-1.01223,-0.06846,0.10808,0.44772
-0.379242,0,0,15.3792,15.3792,14.6208,14.6208,0.252828,0.945325,0.262304,0.0357844,-0.00921109,0.00089964,0,0,3.5525,0.07,-1.1375,0.0122,-0.001464,-1.01162,-0.06846,0.10808,0.44772
-0.395269,0,0,15.3953,15.3953,14.6047,14.6047,0.263513,0.990265,0.279613,0.0350002,-0.00902468,0.000885552,0,0,3.5525,0.07,-1.1375,0.0122,-0.001464,-1.01162,-0.06846,0.10808,0.44772
-0.412167,0,0,15.4122,15.4122,14.5878,14.5878,0.274778,1.02642,0.304194,0.0280521,-0.00956091,-0.00133955,0,0,3.5525,0.1575,-1.1025,0.005856,-0.002196,-1.01382,-0.06846,0.10808,0.44772
-0.428216,0,0,15.4282,15.4282,14.5718,14.5718,0.285477,1.06419,0.326583,0.0294582,-0.00937427,-0.00491799,0,0,3.395,0.21,-1.1025,0.00793,-0.002196,-1.01736,-0.06846,0.10808,0.44772
-0.445623,0,0,15.4456,15.4456,14.5544,14.5544,0.297082,1.11052,0.335785,0.035453,-0.0101489,0.00367203,0,0,3.325,0.21,-1.155,0.014762,-0.003172,-1.00882,-0.07574,0.11144,0.45248
-0.460639,0,0,15.4606,15.4606,14.5394,14.5394,0.307093,1.14974,0.35061,0.0300306,-0.00899723,-0.000276748,0,0,3.22,0.315,-1.1025,0.010004,-0.002196,-1.01272,-0.07574,0.11144,0.45248
-0.475818,0,0,15.4758,15.4758,14.5242,14.5242,0.317212,1.18865,0.364661,0.0300805,-0.00882073,-0.00225874,0,0,3.4125,0.1925,-1.12,0.010736,-0.002196,-1.01467,-0.07574,0.11144,0.45248
-0.490269,0,0,15.4903,15.4903,14.5097,14.5097,0.326846,1.22676,0.378619,0.0294156,-0.0086527,-0.0022737,0,0,3.255,0.2275,-1.155,0.010736,-0.002196,-1.01467,-0.07574,0.11144,0.45248
-0.502524,0,0,15.5025,15.5025,14.4975,14.4975,0.335016,1.26283,0.393559,0.0276927,-0.00753322,0.00115435,0,0,3.1325,0.245,-1.155,0.009638,-0.00122,-1.01126,-0.07574,0.11144,0.45248
-0.514627,0,0,15.5146,15.5146,14.4854,14.4854,0.343085,1.29816,0.408493,0.0270762,-0.00739251,0.00113974,0,0,3.1675,0.28,-1.1375,0.009638,-0.00122,-1.01126,-0.07574,0.11144,0.45248
-0.5284,0,0,15.5284,15.5284,14.4716,14.4716,0.352267,1.33533,0.420573,0.0293433,-0.00845366,-0.00539241,0,0,3.1675,-0.0875,-1.1025,0.012566,-0.00244,-1.01772,-0.07574,0.11144,0.45248
-0.541173,0,0,15.5412,15.5412,14.4588,14.4588,0.360782,1.36853,0.441662,0.0262128,-0.00769453,-0.00221035,0,0,3.255,-0.1575,-1.1375,0.010004,-0.00183,-1.01455,-0.07392,0.1078,0.44814
-0.557731,0,0,15.5577,15.5577,14.4423,14.4423,0.371821,1.40138,0.462596,0.0257612,-0.00957818,-1.23601e-05,0,0,3.43,-0.1575,-1.0675,0.010126,-0.003904,-1.01236,-0.07392,0.1078,0.44814
-0.573961,0,0,15.574,15.574,14.426,14.426,0.38264,1.43349,0.48348,0.0252009,-0.00938949,-2.74676e-05,0,0,3.43,-0.1575,-1.0675,0.010126,-0.003904,-1.01236,-0.07392,0.1078,0.44814
-0.584398,0,0,15.5844,15.5844,14.4156,14.4156,0.389599,1.4641,0.505138,0.0244239,-0.0057265,-0.00434499,0,0,3.6575,-0.175,-0.84,0.009882,-0.000366,-1.01663,-0.07392,0.1078,0.44814
-0.63761,0,0,15.6376,15.6376,14.3624,14.3624,0.425074,1.51581,0.508733,0.0395578,-0.0305101,0.00251226,0,0,3.5875,-0.07,-0.9275,0.025986,-0.025742,-1.00979,-0.07392,0.1078,0.44814
-0.68928,0,0,15.6893,15.6893,14.3107,14.3107,0.45952,1.56677,0.512068,0.0386688,-0.0299093,0.0024837,0,0,3.4125,0.175,-1.085,0.025986,-0.025742,-1.00979,-0.07392,0.1078,0.44814
-0.954848,0,0,15.9548,15.9548,14.0452,14.0452,0.636565,1.43846,0.682334,-0.110221,-0.160671,-0.0208473,0,0,3.22,0.245,-1.085,-0.125782,-0.159454,-1.03297,-0.07392,0.1078,0.44814
-0.732439,0,0,15.7324,15.7324,14.2676,14.2676,0.488293,1.73099,0.447602,0.285943,0.154271,-0.160756,0,0,3.2375,0.2625,-0.8575,0.277184,0.157746,-1.17169,-0.07686,0.1162,0.45304
-0.244679,0,0,15.2447,15.2447,14.7553,14.7553,0.163119,1.69756,0.490574,-0.0211972,0.276709,0.0610932,0,0,3.325,0.2975,-0.91,-0.031842,0.285724,-0.9516,-0.07686,0.1162,0.45304
0.235379,0,0,14.7646,14.7646,15.2354,15.2354,-0.156919,1.66584,0.534387,-0.0206439,0.271126,0.0611098,0,0,2.7125,0.8575,-0.77,-0.031842,0.285724,-0.9516,-0.07686,0.1162,0.45304
0.473311,0,0,14.5267,14.5267,15.4733,15.4733,-0.315541,1.73242,0.497728,0.0600759,0.145988,-0.048975,0,0,2.7475,0.8925,-0.8925,0.050386,0.16348,-1.06079,-0.07686,0.1162,0.45304
0.70625,0,0,14.2937,14.2937,15.7063,15.7063,-0.470833,1.79609,0.46076,0.0589652,0.143279,-0.0490278,0,0,2.87,-0.0175,-1.015,0.050386,0.16348,-1.06079,-0.07686,0.1162,0.45304
0.467551,0,0,14.5324,14.5324,15.4676,15.4676,-0.311701,2.06396,0.250658,0.267136,-0.170741,-0.187606,0,0,3.4825,-0.455,-0.91,0.26413,-0.152988,-1.19816,-0.07686,0.1162,0.45304
0.464922,0,0,14.5351,14.5351,15.4649,15.4649,-0.309948,2.06406,0.249798,0.267134,-0.170711,-0.187606,1,0,4.445,0.175,-1.575,0.26413,-0.152988,-1.19816,-0.07686,0.1162,0.45304
0.461526,0,0,14.5385,14.5385,15.4615,15.4615,-0.307684,2.06414,0.249268,0.339781,-0.220621,-0.178508,1,0,4.725,0.1575,-1.3825,0.337086,-0.202886,-1.18913,-0.07686,0.1162,0.45304
0.460387,0,0,14.5396,14.5396,15.4604,15.4604,-0.306924,2.06463,0.248556,0.339772,-0.220608,-0.178508,1,0,3.885,0.4025,-1.4875,0.337086,-0.202886,-1.18913,-0.07462,0.1197,0.46158
0.463056,0,0,14.5369,14.5369,15.4631,15.4631,-0.308704,2.06555,0.248412,0.396733,-0.508858,-0.0410524,1,0,2.45,0.6475,-1.155,0.394304,-0.490806,-1.05274,-0.07462,0.1197,0.46158
0.46843,0,0,14.5316,14.5316,15.4684,15.4684,-0.312287,2.06503,0.248485,0.396742,-0.50892,-0.0410524,1,0,1.435,-0.1925,-1.0325,0.394304,-0.490806,-1.05274,-0.07462,0.1197,0.46158
0.476419,0,0,14.5236,14.5236,15.4764,15.4764,-0.317613,2.06505,0.247806,0.126679,0.221793,-0.198181,1,0,0.4725,0.1225,-1.47,0.123098,0.239242,-1.20865,-0.07462,0.1197,0.46158
0.476034,0,0,14.524,14.524,15.476,15.476,-0.317356,2.06587,0.247872,0.126665,0.221798,-0.198182,1,0,3.5875,0.595,-1.0325,0.123098,0.239242,-1.20865,-0.07462,0.1197,0.46158
-0.71777,0,0,15.7178,15.7178,14.2822,14.2822,0.478514,2.09252,0.26906,0.00556472,-0.762341,0.224356,0,0,4.095,-0.035,-1.295,0.001952,-0.757742,-0.78934,-0.07462,0.1197,0.46158
-1.89699,0,0,16.897,16.897,13.103,13.103,1.26466,2.1164,0.290095,0.00514822,-0.748631,0.224132,0,0,4.97,-0.9975,-1.505,0.001952,-0.757742,-0.78934,-0.07462,0.1197,0.46158
-2.81038,0,0,17.8104,17.8104,12.1896,12.1896,1.87358,1.56913,0.804834,-0.347454,-0.396905,0.439677,0,0,8.0675,-0.35,-1.575,-0.36173,-0.416996,-0.575474,-0.07462,0.1197,0.46158
-2.81813,0,0,17.8181,17.8181,12.1819,12.1819,1.87875,1.56952,0.805398,-0.347461,-0.396815,0.439674,1,0,6.335,0.35,-0.7525,-0.36173,-0.416996,-0.575474,-0.06804,0.12544,0.462
-2.81706,0,0,17.8171,17.8171,12.1829,12.1829,1.87804,1.57193,0.805428,-1.21187,0.0047257,-0.307977,1,0,3.045,1.5225,-1.1025,-1.22976,-0.01586,-1.31736,-0.06804,0.12544,0.462
-2.81599,0,0,17.816,17.816,12.184,12.184,1.87733,1.57434,0.805458,-1.21192,0.00471324,-0.307977,1,0,3.045,1.5225,-1.1025,-1.22976,-0.01586,-1.31736,-0.06804,0.12544,0.462
-2.79663,0,0,17.7966,17.7966,12.2034,12.2034,1.86442,1.56793,0.804599,1.05949,0.368914,0.0839928,1,0,-3.78,-3.6575,-1.4525,1.05115,0.348188,-0.92842,-0.06804,0.12544,0.462
-2.77774,0,0,17.7777,17.7777,12.2223,12.2223,1.85183,1.56561,0.803994,0.0205875,0.244858,-0.214518,1,0,-3.605,-1.26,-1.3825,0.007808,0.22448,-1.22464,-0.06804,0.12544,0.462
-2.77814,0,0,17.7781,17.7781,12.2219,12.2219,1.85209,1.56714,0.805495,0.0205609,0.244863,-0.214519,1,0,3.57,1.0325,-0.2275,0.007808,0.22448,-1.22464,-0.06804,0.12544,0.462
-2.78757,0,0,17.7876,17.7876,12.2124,12.2124,1.85838,1.57118,0.805757,-0.368385,0.202106,-0.757219,1,0,6.965,2.485,-0.9975,-0.382714,0.181658,-1.76314,-0.06804,0.12544,0.462
-2.80349,0,0,17.8035,17.8035,12.1965,12.1965,1.869,1.57071,0.803531,-0.368377,0.202291,-0.757225,1,0,9.4325,-0.21,-2.3625,-0.382714,0.181658,-1.76314,-0.06804,0.12544,0.462
-2.82668,0,0,17.8267,17.8267,12.1733,12.1733,1.88445,1.5694,0.801218,-0.180416,0.121713,0.172626,1,0,12.145,-0.7,-2.3975,-0.19398,0.100894,-0.840458,-0.06762,0.13468,0.47068
-2.83404,0,0,17.834,17.834,12.166,12.166,1.88936,1.56733,0.80035,-0.261411,0.139018,0.31586,1,0,6.2125,-1.12,-1.54,-0.275354,0.118096,-0.698328,-0.06762,0.13468,0.47068
-2.82406,0,0,17.8241,17.8241,12.1759,12.1759,1.88271,1.56806,0.797623,-0.261423,0.138902,0.315863,1,0,-0.245,0.49,-2.6775,-0.275354,0.118096,-0.698328,-0.06762,0.13468,0.47068
-2.80613,0,0,17.8061,17.8061,12.1939,12.1939,1.87075,1.57011,0.794009,0.288871,-0.101652,-0.0743696,1,0,-3.2025,1.2425,-3.22,0.277306,-0.122,-1.08556,-0.06762,0.13468,0.47068
-2.781,0,0,17.781,17.781,12.219,12.219,1.854,1.57014,0.79093,0.28887,-0.101944,-0.0743601,1,0,-5.8975,0.07,-2.87,0.277306,-0.122,-1.08556,-0.06762,0.13468,0.47068
-2.75925,0,0,17.7592,17.7592,12.2408,12.2408,1.8395,1.56925,0.78767,0.587862,0.384234,-0.179472,1,0,-4.6375,-0.4725,-2.9575,0.577548,0.363926,-1.18987,-0.06762,0.13468,0.47068
-2.75598,0,0,17.756,17.756,12.244,12.244,1.83732,1.56863,0.784449,0.587873,0.384196,-0.179471,1,0,2.275,-0.315,-2.94,0.577548,0.363926,-1.18987,-0.06762,0.13468,0.47068
-2.76474,0,0,17.7647,17.7647,12.2353,12.2353,1.84316,1.56953,0.782057,0.278312,0.269377,-0.302915,1,0,6.755,0.595,-2.485,0.266692,0.249124,-1.31235,-0.06762,0.13468,0.47068
-2.79003,0,0,17.79,17.79,12.21,12.21,1.86002,1.5704,0.780836,0.278297,0.269671,-0.302925,1,0,12.915,0.595,-1.8025,0.266692,0.249124,-1.31235,-0.07686,0.14266,0.4886
-2.81351,0,0,17.8135,17.8135,12.1865,12.1865,1.87568,1.57086,0.780231,-0.0729264,-0.135883,-0.432768,1,0,12.2325,0.3675,-1.435,-0.08601,-0.156282,-1.44119,-0.07686,0.14266,0.4886
-2.837,0,0,17.837,17.837,12.163,12.163,1.89133,1.57131,0.779627,-0.0729344,-0.13561,-0.432777,1,0,12.2325,0.3675,-1.435,-0.08601,-0.156282,-1.44119,-0.07686,0.14266,0.4886
-2.77818,0,0,17.7782,17.7782,12.2218,12.2218,1.85212,1.55398,0.778101,-0.0127396,0.0330959,0.0717115,0,0,2.5375,-1.5225,-0.245,-0.025864,0.012932,-0.94062,-0.07686,0.14266,0.4886
-2.72052,0,0,17.7205,17.7205,12.2795,12.2795,1.81368,1.53702,0.776611,-0.0124437,0.0324258,0.0717409,0,0,2.5375,-1.5225,-0.245,-0.025864,0.012932,-0.94062,-0.07686,0.14266,0.4886
-2.09782,0,0,17.0978,17.0978,12.9022,12.9022,1.39855,1.80556,0.528107,0.187089,0.332698,0.151478,0,0,-4.62,0.1925,1.0675,0.179218,0.320128,-0.861564,-0.07686,0.14266,0.4886
-1.48584,0,0,16.4858,16.4858,13.5142,13.5142,0.990559,2.06874,0.276661,0.182498,0.325579,0.151471,0,0,-4.62,0.1925,1.0675,0.179218,0.320128,-0.861564,-0.07686,0.14266,0.4886
-1.4782,0,0,16.4782,16.4782,13.5218,13.5218,0.985466,2.06872,0.280723,-0.304659,0.198723,-0.107703,1,0,0.5075,0.14,1.295,-0.310002,0.193492,-1.11874,-0.07686,0.14266,0.4886
-1.48726,0,0,16.4873,16.4873,13.5127,13.5127,0.991509,2.06856,0.284573,0.274345,-0.0639884,-0.479624,1,0,6.755,0.0525,1.1725,0.27145,-0.069052,-1.48779,-0.0728,0.1491,0.48832
-1.50757,0,0,16.5076,16.5076,13.4924,13.4924,1.00504,2.06881,0.28843,0.27434,-0.0637524,-0.479628,1,0,10.955,0.2975,1.1725,0.27145,-0.069052,-1.48779,-0.0728,0.1491,0.48832
-1.52577,0,0,16.5258,16.5258,13.4742,13.4742,1.01718,2.06117,0.290767,-0.000813153,-0.025315,-0.365039,1,0,10.2025,-4.34,0.3675,-0.005002,-0.030866,-1.37409,-0.0728,0.1491,0.48832
-1.54398,0,0,16.544,16.544,13.456,13.456,1.02932,2.05353,0.293102,-0.000679888,-0.0251032,-0.365038,1,0,10.2025,-4.34,0.3675,-0.005002,-0.030866,-1.37409,-0.0728,0.1491,0.48832
-1.47478,0,0,16.4748,16.4748,13.5252,13.5252,0.983189,1.91073,0.386288,-0.107283,0.0393095,0.0991929,0,0,4.025,0.175,-1.1025,-0.114558,0.034282,-0.913536,-0.0728,0.1491,0.48832
-1.40691,0,0,16.4069,16.4069,13.5931,13.5931,0.937942,1.77096,0.479488,-0.104845,0.0385216,0.0992845,0,0,4.025,0.175,-1.1025,-0.114558,0.034282,-0.913536,-0.0728,0.1491,0.48832
-1.39554,0,0,16.3955,16.3955,13.6045,13.6045,0.930358,1.7723,0.477361,0.587722,0.0449842,-0.04899,1,0,-0.77,0.875,-2.3275,0.580964,0.04087,-1.06067,-0.0728,0.1491,0.48832
-1.39003,0,0,16.39,16.39,13.61,13.61,0.92669,1.77351,0.475681,-0.448208,0.56921,0.56354,1,0,1.4175,0.805,-2.065,-0.45933,0.564616,-0.452864,-0.0728,0.1491,0.48832
-1.38583,0,0,16.3858,16.3858,13.6142,13.6142,0.923887,1.77704,0.472718,-0.44827,0.569161,0.563539,1,0,1.925,2.1525,-2.835,-0.45933,0.564616,-0.452864,-0.07266,0.15372,0.50414
-1.38826,0,0,16.3883,16.3883,13.6117,13.6117,0.925509,1.78031,0.469511,-0.415283,0.0935059,-0.109238,1,0,4.41,1.995,-2.975,-0.426146,0.089426,-1.12045,-0.07266,0.15372,0.50414
-1.3937,0,0,16.3937,16.3937,13.6063,13.6063,0.929133,1.78215,0.467481,-0.415315,0.0935692,-0.10924,1,0,5.5125,1.1725,-2.275,-0.426146,0.089426,-1.12045,-0.07266,0.15372,0.50414
-1.40071,0,0,16.4007,16.4007,13.5993,13.5993,0.933804,1.78254,0.464947,0.294398,-0.388506,-0.290959,1,0,6.1075,0.315,-2.555,0.286578,-0.39223,-1.30076,-0.07266,0.15372,0.50414
-1.40903,0,0,16.409,16.409,13.591,13.591,0.939355,1.77932,0.462625,0.294454,-0.388409,-0.290959,1,0,6.5975,-1.8025,-2.3975,0.286578,-0.39223,-1.30076,-0.07266,0.15372,0.50414
-1.5372,0,0,16.5372,16.5372,13.4628,13.4628,1.0248,2.16859,0.0737996,0.294103,-0.0703702,0.122503,0,0,3.43,-1.6275,-2.1875,0.293044,-0.076006,-0.890234,-0.07266,0.15372,0.50414
-1.6664,0,0,16.6664,16.6664,13.3336,13.3336,1.11094,2.54965,-0.312673,0.287458,-0.0688735,0.122201,0,0,4.795,-1.785,-1.9775,0.293044,-0.076006,-0.890234,-0.07266,0.15372,0.50414
-1.66356,0,0,16.6636,16.6636,13.3364,13.3364,1.10904,2.54708,-0.313342,-0.479558,0.553573,0.627891,1,0,2.3975,-1.4,-1.435,-0.477264,0.545828,-0.388448,-0.07266,0.15372,0.50414
-1.65603,0,0,16.656,16.656,13.344,13.344,1.10402,2.54897,-0.312545,-0.479591,0.553486,0.627892,1,0,0.6125,1.225,-0.63,-0.477264,0.545828,-0.388448,-0.06902,0.15736,0.50806
-0.574693,0,0,15.5747,15.5747,14.4253,14.4253,0.383129,2.20548,-0.0386579,-0.307409,0.609188,0.323268,0,0,2.275,1.0325,-0.4725,-0.310368,0.614026,-0.69113,-0.06902,0.15736,0.50806
0.493268,0,0,14.5067,14.5067,15.4933,15.4933,-0.328846,1.86603,0.244652,-0.301488,0.59677,0.323484,0,0,1.5575,0.8225,0.42,-0.310368,0.614026,-0.69113,-0.06902,0.15736,0.50806
0.491789,0,0,14.5082,14.5082,15.4918,15.4918,-0.32786,1.86813,0.246992,0.165466,-0.230377,-0.165114,1,0,3.955,1.33,0.2975,0.1586,-0.21228,-1.17596,-0.06902,0.15736,0.50806
0.476042,0,0,14.524,14.524,15.476,15.476,-0.317361,1.86692,0.251,0.165487,-0.230194,-0.165112,1,0,9.2575,-0.6125,1.26,0.1586,-0.21228,-1.17596,-0.06902,0.15736,0.50806
0.461509,0,0,14.5385,14.5385,15.4615,15.4615,-0.307673,1.86486,0.254113,-0.122762,-0.530701,-0.311296,1,0,8.82,-1.1025,0.735,-0.130906,-0.512644,-1.32102,-0.06902,0.15736,0.50806
0.446976,0,0,14.553,14.553,15.447,15.447,-0.297984,1.86281,0.257225,-0.122726,-0.530532,-0.311294,1,0,8.82,-1.1025,0.735,-0.130906,-0.512644,-1.32102,-0.06902,0.15736,0.50806
0.437351,0,0,14.5626,14.5626,15.4374,15.4374,-0.291567,1.86066,0.259557,0.123806,0.262427,-0.0567887,1,0,7,-1.155,0.28,0.116632,0.27938,-1.06848,-0.06902,0.15736,0.50806
0.447413,0,0,14.5526,14.5526,15.4474,15.4474,-0.298275,1.85847,0.26048,0.123844,0.262309,-0.0567881,1,0,-0.3325,-1.1725,-0.5425,0.116632,0.27938,-1.06848,-0.06832,0.15372,0.4991
0.464613,0,0,14.5354,14.5354,15.4646,15.4646,-0.309742,1.85682,0.260949,-0.348342,0.366039,0.502873,1,0,-2.9925,-0.8575,-0.805,-0.357582,0.383202,-0.513132,-0.06832,0.15372,0.4991
0.489048,0,0,14.511,14.511,15.489,15.489,-0.326032,1.86082,0.261898,-0.348412,0.365755,0.50287,1,0,-5.705,2.45,-0.5075,-0.357582,0.383202,-0.513132,-0.06832,0.15372,0.4991
0.508004,0,0,14.492,14.492,15.508,15.508,-0.338669,1.86625,0.261877,-0.425164,0.317417,0.3075,1,0,-3.64,3.29,-1.0675,-0.434564,0.335134,-0.70699,-0.06832,0.15372,0.4991
0.501809,0,0,14.4982,14.4982,15.5018,15.5018,-0.334539,1.86985,0.262047,-0.425227,0.317489,0.307498,1,0,5.7575,2.2225,-0.9625,-0.434564,0.335134,-0.70699,-0.06832,0.15372,0.4991
0.48853,0,0,14.5115,14.5115,15.4885,15.4885,-0.325687,1.87232,0.261534,0.21581,0.0991586,-0.515028,1,0,8.4175,1.5575,-1.365,0.20923,0.116876,-1.52317,-0.06832,0.15372,0.4991
0.457251,0,0,14.5427,14.5427,15.4573,15.4573,-0.304834,1.87263,0.261453,0.215804,0.0995223,-0.515026,1,0,15.1375,0.2975,-1.12,0.20923,0.116876,-1.52317,-0.06832,0.15372,0.4991
0.423362,0,0,14.5766,14.5766,15.4234,15.4234,-0.282241,1.87017,0.261116,0.869562,-0.372592,-0.35605,1,0,16.1175,-1.33,-1.2775,0.865712,-0.355142,-1.36542,-0.06832,0.15372,0.4991
0.414157,0,0,14.5858,14.5858,15.4142,15.4142,-0.276104,1.86806,0.259637,0.869599,-0.372485,-0.356048,1,0,6.9125,-1.12,-1.9425,0.865712,-0.355142,-1.36542,-0.06832,0.15372,0.4991
-0.172267,0,0,15.1723,15.1723,14.8277,14.8277,0.114845,1.78754,0.280946,-0.0545962,-0.374336,0.00264697,0,0,3.185,-0.735,-2.3275,-0.063806,-0.363804,-1.00955,-0.07252,0.1603,0.51576
-0.144083,0,0,15.1441,15.1441,14.8559,14.8559,0.0960553,1.78583,0.277833,0.0666763,-0.0229389,0.544237,1,0,-7.035,-0.8925,-2.8875,0.05795,-0.012444,-0.47214,-0.07252,0.1603,0.51576
-0.108307,0,0,15.1083,15.1083,14.8917,14.8917,0.0722044,1.78639,0.274575,0.0666665,-0.023355,0.544237,1,0,-9.87,0.4375,-2.975,0.05795,-0.012444,-0.47214,-0.07252,0.1603,0.51576
-0.0779929,0,0,15.078,15.078,14.922,14.922,0.0519953,1.78764,0.270986,-0.14632,0.00975522,0.597227,1,0,-7.8225,0.84,-3.1675,-0.155916,0.020984,-0.419558,-0.07252,0.1603,0.51576
-0.0808728,0,0,15.0809,15.0809,14.9191,14.9191,0.0539152,1.79032,0.269349,-0.146366,0.00978871,0.597226,1,0,4.55,1.68,-2.03,-0.155916,0.020984,-0.419558,-0.07252,0.1603,0.51576
-0.0949274,0,0,15.0949,15.0949,14.9051,14.9051,0.0632849,1.79366,0.267383,-0.666626,-0.82686,0.253706,1,0,8.7325,2.065,-2.2225,-0.67832,-0.81496,-0.760426,-0.07252,0.1603,0.51576
-0.134149,0,0,15.1341,15.1341,14.8659,14.8659,0.0894325,1.79726,0.265929,-0.666689,-0.826404,0.253703,1,0,18.13,2.2225,-1.925,-0.67832,-0.81496,-0.760426,-0.07252,0.1603,0.51576
-0.168532,0,0,15.1685,15.1685,14.8315,14.8315,0.112355,1.79956,0.264143,-0.411245,-0.814891,-0.234158,1,0,16.3275,1.4525,-2.1175,-0.421754,-0.803858,-1.24452,-0.07252,0.1603,0.51576
-0.186462,0,0,15.1865,15.1865,14.8135,14.8135,0.124308,1.79812,0.262951,-0.41122,-0.814682,-0.234158,1,0,10.1675,-0.735,-1.7675,-0.421754,-0.803858,-1.24452,-0.07714,0.16982,0.5271
-0.468093,0,0,15.4681,15.4681,14.5319,14.5319,0.312062,1.99497,0.0195443,0.173823,-0.172807,0.0237848,0,0,2.59,-1.8025,-1.715,0.169214,-0.16592,-0.988444,-0.07714,0.16982,0.5271
-0.724849,0,0,15.7248,15.7248,14.2752,14.2752,0.483233,2.1872,-0.221279,0.17047,-0.169822,0.0236416,0,0,-4.76,-2.205,-1.2775,0.169214,-0.16592,-0.988444,-0.07714,0.16982,0.5271
-0.697414,0,0,15.6974,15.6974,14.3026,14.3026,0.464943,2.18367,-0.221358,0.0852489,0.198437,0.256019,1,0,-6.8075,-1.96,-1.1025,0.08357,0.202276,-0.757864,-0.07714,0.16982,0.5271
-0.673537,0,0,15.6735,15.6735,14.3265,14.3265,0.449025,2.18276,-0.220634,0.0852648,0.19816,0.256022,1,0,-5.495,-0.42,-0.6475,0.08357,0.202276,-0.757864,-0.07714,0.16982,0.5271
-0.659946,0,0,15.6599,15.6599,14.3401,14.3401,0.439964,2.18271,-0.219333,-0.0976918,-0.0920493,0.189139,1,0,-1.6625,0.0875,-0.315,-0.100162,-0.087474,-0.824232,-0.07714,0.16982,0.5271
-0.671083,0,0,15.6711,15.6711,14.3289,14.3289,0.447388,2.18426,-0.217119,-0.0977189,-0.0919199,0.189137,1,0,7.56,1.0325,0.21,-0.100162,-0.087474,-0.824232,-0.07714,0.16982,0.5271
-0.689165,0,0,15.6892,15.6892,14.3108,14.3108,0.459443,2.18675,-0.215438,-0.175027,-0.428169,-0.320242,1,0,10.1675,1.575,-0.105,-0.177754,-0.423584,-1.32968,-0.07714,0.16982,0.5271
-0.713066,0,0,15.7131,15.7131,14.2869,14.2869,0.475377,2.18756,-0.21353,-0.175041,-0.427891,-0.320244,1,0,12.3375,0.595,0.035,-0.177754,-0.423584,-1.32968,-0.07406,0.17332,0.52878
-0.729198,0,0,15.7292,15.7292,14.2708,14.2708,0.486132,2.18762,-0.211568,-0.220843,-0.497316,-0.407294,1,0,9.4325,0.1575,0.07,-0.223748,-0.493124,-1.41605,-0.07406,0.17332,0.52878
-0.732204,0,0,15.7322,15.7322,14.2678,14.2678,0.488136,2.18652,-0.209886,-0.220823,-0.497281,-0.407293,1,0,4.5325,-0.525,-0.0875,-0.223748,-0.493124,-1.41605,-0.07406,0.17332,0.52878
-0.724549,0,0,15.7245,15.7245,14.2755,14.2755,0.483033,2.18525,-0.208775,0.0956691,-0.169704,-0.225328,1,0,0.56,-0.63,-0.42,0.094062,-0.165798,-1.23549,-0.07406,0.17332,0.52878
-0.713449,0,0,15.7134,15.7134,14.2866,14.2866,0.475632,2.18407,-0.208144,0.0956897,-0.169833,-0.225326,1,0,-0.7175,-0.5775,-0.7,0.094062,-0.165798,-1.23549,-0.07406,0.17332,0.52878
-0.698402,0,0,15.6984,15.6984,14.3016,14.3016,0.465601,2.18396,-0.207744,0.54859,0.254139,-0.41405,1,0,-2.1875,0.0525,-0.84,0.548878,0.257908,-1.42276,-0.07406,0.17332,0.52878
-0.694618,0,0,15.6946,15.6946,14.3054,14.3054,0.463078,2.18557,-0.20772,0.548562,0.254095,-0.414051,1,0,2.03,1.05,-1.0675,0.548878,0.257908,-1.42276,-0.07406,0.17332,0.52878
-0.696477,0,0,15.6965,15.6965,14.3035,14.3035,0.464318,2.18834,-0.208077,-0.0241697,-0.106402,-0.298113,1,0,4.1475,1.7325,-1.295,-0.02623,-0.102236,-1.30772,-0.07406,0.17332,0.52878
-0.711416,0,0,15.7114,15.7114,14.2886,14.2886,0.474278,2.19193,-0.207316,-0.0242324,-0.106228,-0.298116,1,0,9.0125,2.2225,-0.6475,-0.02623,-0.102236,-1.30772,-0.07056,0.1617,0.52052
-0.727033,0,0,15.727,15.727,14.273,14.273,0.484689,2.19433,-0.206175,-0.202251,-0.152577,-0.416396,1,0,9.2575,1.5225,-0.42,-0.20496,-0.148718,-1.42508,-0.07056,0.1617,0.52052
-0.739268,0,0,15.7393,15.7393,14.2607,14.2607,0.492846,2.1946,-0.206852,-0.202255,-0.152435,-0.416397,1,0,8.0325,0.2625,-1.47,-0.20496,-0.148718,-1.42508,-0.07056,0.1617,0.52052
-1.2707,0,0,16.2707,16.2707,13.7293,13.7293,0.847135,2.31523,-0.370924,0.124381,-0.340317,-0.00110952,0,0,6.02,-0.7525,-1.68,0.125172,-0.342576,-1.01284,-0.07056,0.1617,0.52052
-1.77703,0,0,16.777,16.777,13.223,13.223,1.18469,2.4334,-0.533794,0.12232,-0.334433,-0.00129932,0,0,0.1925,-0.9625,-2.0475,0.125172,-0.342576,-1.01284,-0.07056,0.1617,0.52052
-1.76051,0,0,16.7605,16.7605,13.2395,13.2395,1.17367,2.43119,-0.53599,-0.568044,-0.418648,0.438124,1,0,-2.6775,-1.2075,-2.3275,-0.568154,-0.426512,-0.576816,-0.07056,0.1617,0.52052
-1.7442,0,0,16.7442,16.7442,13.2558,13.2558,1.1628,2.42954,-0.537844,-0.568016,-0.418838,0.438129,1,0,-2.6075,-0.875,-2.135,-0.568154,-0.426512,-0.576816,-0.07056,0.1617,0.52052
-1.78226,0,0,16.7823,16.7823,13.2177,13.2177,1.18817,2.22359,-0.41171,-0.170324,-0.0335709,-0.0136926,0,0,-2.31,0.1225,-1.9425,-0.172386,-0.04209,-1.02529,-0.07056,0.1617,0.52052
-1.83843,0,0,16.8384,16.8384,13.1616,13.1616,1.22562,2.02222,-0.275435,-0.166812,-0.0329151,-0.0135762,0,0,4.76,0.7525,-1.715,-0.172386,-0.04209,-1.02529,-0.07322,0.1547,0.49924
-1.84758,0,0,16.8476,16.8476,13.1524,13.1524,1.23172,2.02554,-0.276163,0.240593,-0.420439,0.0265007,1,0,6.8775,2.0475,-1.54,0.236802,-0.429318,-0.985516,-0.07322,0.1547,0.49924
-1.86928,0,0,16.8693,16.8693,13.1307,13.1307,1.24619,2.02669,-0.275917,0.240573,-0.420187,0.0264945,1,0,11.55,0.7875,-0.945,0.236802,-0.429318,-0.985516,-0.07322,0.1547,0.49924
-2.34603,0,0,17.346,17.346,12.654,12.654,1.56402,1.78704,-0.0984452,-0.20195,-0.302651,-0.0261242,0,0,10.7625,0.77,-0.875,-0.211792,-0.317444,-1.03773,-0.07322,0.1547,0.49924
-2.80223,0,0,17.8022,17.8022,12.1978,12.1978,1.86815,1.55071,0.0763228,-0.197827,-0.297344,-0.026163,0,0,6.3875,-0.28,-0.7525,-0.211792,-0.317444,-1.03773,-0.07322,0.1547,0.49924
-2.80215,0,0,17.8022,17.8022,12.1978,12.1978,1.8681,1.55024,0.0766485,-0.253095,-0.250692,0.238299,1,0,3.4125,-0.1575,-0.875,-0.267302,-0.27084,-0.77531,-0.07322,0.1547,0.49924
-2.78205,0,0,17.782,17.782,12.218,12.218,1.8547,1.54924,0.0760563,-0.253077,-0.250926,0.238307,1,0,-4.06,-0.49,-1.4,-0.267302,-0.27084,-0.77531,-0.07322,0.1547,0.49924
-2.26824,0,0,17.2682,17.2682,12.7318,12.7318,1.51216,1.90036,-0.268169,0.270354,0.294132,0.103916,0,0,-5.285,-1.47,-1.47,0.264496,0.279624,-0.908656,-0.07322,0.1547,0.49924
-1.76546,0,0,16.7655,16.7655,13.2345,13.2345,1.17698,2.24573,-0.614502,0.26433,0.288282,0.103835,0,0,-4.305,-0.77,-0.8925,0.264496,0.279624,-0.908656,-0.07322,0.1547,0.49924
-1.61431,0,0,16.6143,16.6143,13.3857,13.3857,1.0762,2.5918,-0.971661,0.295105,0.0873311,0.0174279,0,0,-0.6825,-0.1925,-0.77,0.301462,0.080642,-0.994178,-0.063,0.1533,0.4984
-1.49267,0,0,16.4927,16.4927,13.5073,13.5073,0.995116,2.93166,-1.32834,0.289181,0.0859126,0.0171677,0,0,9.4325,0.2275,-0.315,0.301462,0.080642,-0.994178,-0.063,0.1533,0.4984
-1.51618,0,0,16.5162,16.5162,13.4838,13.4838,1.01079,2.93381,-1.32718,0.0834678,-0.0231178,-0.3073,1,0,12.1975,1.3825,-0.42,0.094916,-0.028548,-1.31614,-0.063,0.1533,0.4984
-1.53969,0,0,16.5397,16.5397,13.4603,13.4603,1.02646,2.93596,-1.32602,0.0834304,-0.0228447,-0.307307,1,0,12.1975,1.3825,-0.42,0.094916,-0.028548,-1.31614,-0.063,0.1533,0.4984
-1.55848,0,0,16.5585,16.5585,13.4415,13.4415,1.03899,2.93711,-1.3259,0.247294,0.0980348,-0.109979,1,0,10.465,0.7875,-1.015,0.259494,0.091988,-1.12033,-0.063,0.1533,0.4984
-1.57727,0,0,16.5773,16.5773,13.4227,13.4227,1.05151,2.93826,-1.32578,0.247274,0.0982531,-0.109984,1,0,10.465,0.7875,-1.015,0.259494,0.091988,-1.12033,-0.063,0.1533,0.4984
-1.56404,0,0,16.564,16.564,13.436,13.436,1.04269,2.93776,-1.32683,-0.116081,-0.0689699,0.297593,1,0,-1.47,-0.1925,-1.68,-0.105408,-0.074908,-0.715896,-0.063,0.1533,0.4984
-1.55081,0,0,16.5508,16.5508,13.4492,13.4492,1.03387,2.93726,-1.32788,-0.116072,-0.0691236,0.297596,1,0,-1.47,-0.1925,-1.68,-0.105408,-0.074908,-0.715896,-0.063,0.1533,0.4984
-0.805741,0,0,15.8057,15.8057,14.1943,14.1943,0.537161,3.0034,-1.44979,0.0292871,0.423549,0.132289,0,0,-5.425,-1.225,-1.3825,0.041724,0.425902,-0.879986,-0.06398,0.14896,0.48566
-0.513188,0,0,15.5132,15.5132,14.4868,14.4868,0.342125,2.96951,-1.47473,-0.0379113,0.163317,0.073577,0,0,0.945,0.07,-1.2075,-0.026352,0.169336,-0.938302,-0.06398,0.14896,0.48566
-0.253487,0,0,15.2535,15.2535,14.7465,14.7465,0.168991,2.93792,-1.49977,-0.0373607,0.1603,0.0736188,0,0,11.1825,1.12,-1.4175,-0.026352,0.169336,-0.938302,-0.06398,0.14896,0.48566
-0.482759,0,0,15.4828,15.4828,14.5172,14.5172,0.32184,2.83208,-1.44421,-0.0867827,-0.124522,-0.00572433,0,0,13.3,1.6625,-1.0675,-0.077836,-0.117852,-1.01711,-0.06398,0.14896,0.48566
-0.704663,0,0,15.7047,15.7047,14.2953,14.2953,0.469775,2.72797,-1.38935,-0.0849678,-0.121942,-0.00565402,0,0,12.18,1.3475,-1.12,-0.077836,-0.117852,-1.01711,-0.06398,0.14896,0.48566
-0.718929,0,0,15.7189,15.7189,14.2811,14.2811,0.479286,2.73023,-1.38965,-0.21852,0.00816632,-0.137089,1,0,8.785,1.435,-1.26,-0.211914,0.011956,-1.14753,-0.06398,0.14896,0.48566
-0.711252,0,0,15.7113,15.7113,14.2887,14.2887,0.474168,2.73104,-1.39038,-0.218534,0.00807709,-0.137089,1,0,0.595,0.5775,-1.505,-0.211914,0.011956,-1.14753,-0.06398,0.14896,0.48566
-0.653634,0,0,15.6536,15.6536,14.3464,14.3464,0.435756,3.06794,-1.74312,0.257406,0.0230374,0.115647,0,0,-2.45,0.665,-1.89,0.271938,0.027572,-0.896456,-0.06398,0.14896,0.48566
-0.591265,0,0,15.5913,15.5913,14.4087,14.4087,0.394177,3.39825,-2.07833,0.25165,0.0223106,0.115327,0,0,-4.515,-0.6125,-1.855,0.271938,0.027572,-0.896456,-0.07042,0.13888,0.48146
-0.574271,0,0,15.5743,15.5743,14.4257,14.4257,0.382848,3.39735,-2.07944,-0.412618,0.407057,0.2909,1,0,-2.87,-0.42,-1.715,-0.395158,0.412116,-0.72224,-0.07042,0.13888,0.48146
-0.575388,0,0,15.5754,15.5754,14.4246,14.4246,0.383592,3.3965,-2.07907,-0.412603,0.40707,0.2909,1,0,3.85,-0.385,-0.8575,-0.395158,0.412116,-0.72224,-0.07042,0.13888,0.48146
-1.08583,0,0,16.0858,16.0858,13.9142,13.9142,0.723888,3.0744,-1.80368,-0.256834,-0.295699,0.0928444,0,0,7.9275,0.0525,-0.735,-0.244366,-0.29585,-0.919026,-0.07042,0.13888,0.48146
-1.59614,0,0,16.5961,16.5961,13.4039,13.4039,1.0641,2.75952,-1.53271,-0.251346,-0.289766,0.0930315,0,0,11.41,0.5075,-0.7875,-0.244366,-0.29585,-0.919026,-0.07042,0.13888,0.48146
-1.61674,0,0,16.6167,16.6167,13.3833,13.3833,1.07783,2.76034,-1.53223,0.041299,-0.0657901,-0.11697,1,0,11.13,0.595,-0.805,0.049532,-0.072346,-1.1274,-0.07042,0.13888,0.48146
-1.62331,0,0,16.6233,16.6233,13.3767,13.3767,1.08221,2.76064,-1.53143,0.0412937,-0.0657137,-0.116971,1,0,5.88,0.2975,-0.6125,0.049532,-0.072346,-1.1274,-0.07042,0.13888,0.48146
-1.41776,0,0,16.4178,16.4178,13.5822,13.5822,0.945172,2.8771,-1.66886,0.0975767,0.129497,-0.0226046,0,0,3.43,0.245,-0.6475,0.108092,0.12505,-1.03371,-0.07042,0.13888,0.48146
-1.20122,0,0,16.2012,16.2012,13.7988,13.7988,0.800812,2.99066,-1.81972,0.0955973,0.12698,-0.0226677,0,0,-2.065,-0.5775,-0.6825,0.108092,0.12505,-1.03371,-0.06566,0.14644,0.4823
-0.934535,0,0,15.9345,15.9345,14.0655,14.0655,0.623023,2.94435,-1.82886,-0.0456123,0.144032,0.0728207,0,0,-2.45,-0.1925,-0.8225,-0.034526,0.14518,-0.939034,-0.06566,0.14644,0.4823
-0.681229,0,0,15.6812,15.6812,14.3188,14.3188,0.454153,2.89746,-1.83709,-0.0447949,0.141089,0.0728901,0,0,0.665,-0.9975,-0.455,-0.034526,0.14518,-0.939034,-0.06566,0.14644,0.4823
-0.654466,0,0,15.6545,15.6545,14.3455,14.3455,0.43631,3.31758,-2.26166,0.388633,0.0162061,-0.000290516,0,0,3.99,-0.9625,-0.4725,0.40809,0.02074,-1.01126,-0.06566,0.14644,0.4823
-0.641917,0,0,15.6419,15.6419,14.3581,14.3581,0.427944,3.73093,-2.68636,0.381433,0.0160571,-0.000732874,0,0,9.275,-0.21,-0.945,0.40809,0.02074,-1.01126,-0.06566,0.14644,0.4823
-0.662836,0,0,15.6628,15.6628,14.3372,14.3372,0.441891,3.73121,-2.68557,0.363326,-0.0961788,-0.175322,1,0,11.235,0.28,-0.6125,0.389912,-0.091622,-1.1845,-0.06566,0.14644,0.4823
-0.679263,0,0,15.6793,15.6793,14.3207,14.3207,0.452842,3.73329,-2.68476,0.36329,-0.0959881,-0.175326,1,0,9.555,1.33,-0.6125,0.389912,-0.091622,-1.1845,-0.06566,0.14644,0.4823
-0.847298,0,0,15.8473,15.8473,14.1527,14.1527,0.564865,3.74854,-2.74763,0.0122956,-0.0901292,0.0573811,0,0,7.6825,0.8575,-0.9975,0.037698,-0.087718,-0.953552,-0.06566,0.14644,0.4823
-0.994201,0,0,15.9942,15.9942,14.0058,14.0058,0.662801,3.76365,-2.80228,0.0120324,-0.0884239,0.0573455,0,0,1.015,0.4025,-1.435,0.037698,-0.087718,-0.953552,-0.06552,0.14084,0.4802
-0.574987,0,0,15.575,15.575,14.425,14.425,0.383325,3.26999,-2.41261,-0.413679,0.236455,0.158244,0,0,-0.7,0.77,-1.8025,-0.398452,0.241682,-0.854,-0.06552,0.14084,0.4802
-0.162255,0,0,15.1623,15.1623,14.8377,14.8377,0.10817,2.78276,-2.01875,-0.405187,0.231661,0.158714,0,0,-0.875,-0.4025,-1.715,-0.398452,0.241682,-0.854,-0.06552,0.14084,0.4802
-0.152198,0,0,15.1522,15.1522,14.8478,14.8478,0.101465,2.78242,-2.02,0.0268217,0.162421,0.14937,1,0,-0.28,-0.0875,-1.8025,0.03538,0.17263,-0.863272,-0.06552,0.14084,0.4802
-0.155495,0,0,15.1555,15.1555,14.8445,14.8445,0.103663,2.78235,-2.02176,0.0268229,0.162459,0.14937,1,0,4.725,0.07,-2.1,0.03538,0.17263,-0.863272,-0.06552,0.14084,0.4802
-0.207821,0,0,15.2078,15.2078,14.7922,14.7922,0.138548,2.81757,-2.08682,0.0309469,-0.0263517,0.0095466,0,0,6.86,-0.5075,-2.065,0.040138,-0.016592,-1.00199,-0.06552,0.14084,0.4802
-0.264943,0,0,15.2649,15.2649,14.7351,14.7351,0.176629,2.85566,-2.15209,0.030283,-0.0256879,0.00951188,0,0,9.03,1.575,-2.275,0.040138,-0.016592,-1.00199,-0.06552,0.14084,0.4802
-0.279648,0,0,15.2796,15.2796,14.7204,14.7204,0.186432,2.85646,-2.15402,0.135962,-0.191854,-0.13311,1,0,8.995,0.5775,-2.205,0.146278,-0.182756,-1.14351,-0.06552,0.14084,0.4802
-0.283153,0,0,15.2832,15.2832,14.7168,14.7168,0.188769,2.85863,-2.15545,0.135924,-0.191813,-0.133112,1,0,4.795,1.3825,-1.9075,0.146278,-0.182756,-1.14351,-0.07168,0.13272,0.47852
-0.279825,0,0,15.2798,15.2798,14.7202,14.7202,0.18655,2.85899,-2.15685,0.0546436,0.284687,-0.120325,1,0,2.24,0.315,-1.89,0.06466,0.293288,-1.13082,-0.07168,0.13272,0.47852
-0.270173,0,0,15.2702,15.2702,14.7298,14.7298,0.180115,2.8594,-2.15828,0.0546364,0.284575,-0.120325,1,0,-0.1225,0.35,-1.9075,0.06466,0.293288,-1.13082,-0.07168,0.13272,0.47852
-0.0622989,0,0,15.0623,15.0623,14.9377,14.9377,0.0415326,2.8651,-2.19126,0.00484925,0.127058,-0.0531956,0,0,-1.26,0.42,-1.82,0.014762,0.138348,-1.06421,-0.07168,0.13272,0.47852
0.134884,0,0,14.8651,14.8651,15.1349,15.1349,-0.0899224,2.86947,-2.22376,0.00477319,0.124767,-0.0532004,0,0,1.2775,-0.2625,-1.5925,0.014762,0.138348,-1.06421,-0.07168,0.13272,0.47852
0.131839,0,0,14.8682,14.8682,15.1318,15.1318,-0.0878929,2.87366,-2.24658,0.00627941,-0.00379745,-0.0450894,0,0,2.38,-0.035,-1.4175,0.016348,0.009882,-1.05615,-0.07168,0.13272,0.47852
0.12013,0,0,14.8799,14.8799,15.1201,15.1201,-0.0800864,2.87723,-2.26855,0.00621714,-0.00366137,-0.0450923,0,0,5.6175,-0.35,-0.945,0.016348,0.009882,-1.05615,-0.07168,0.13272,0.47852
-0.165247,0,0,15.1652,15.1652,14.8348,14.8348,0.110165,2.66253,-2.07763,-0.191585,-0.185855,-0.0656904,0,0,6.4575,0.0175,-0.7175,-0.18605,-0.175436,-1.07677,-0.07168,0.13272,0.47852
-0.447208,0,0,15.4472,15.4472,14.5528,14.5528,0.298139,2.45288,-1.88692,-0.187929,-0.182577,-0.0655388,0,0,7.1575,0.4375,0.21,-0.18605,-0.175436,-1.07677,-0.07168,0.13272,0.47852
-0.454208,0,0,15.4542,15.4542,14.5458,14.5458,0.302805,2.45399,-1.88447,-0.0455674,-0.194831,-0.324838,1,0,6.0025,0.77,0.35,-0.043066,-0.187758,-1.33407,-0.07602,0.13384,0.47544
-0.597419,0,0,15.5974,15.5974,14.4026,14.4026,0.398279,2.69758,-2.10501,0.20652,-0.091802,0.0206915,0,0,2.73,0.805,0.56,0.214354,-0.086498,-0.991006,-0.07602,0.13384,0.47544
-0.733778,0,0,15.7338,15.7338,14.2662,14.2662,0.489185,2.93527,-2.32453,0.202377,-0.0902189,0.0204754,0,0,1.155,0.245,0.4375,0.214354,-0.086498,-0.991006,-0.07602,0.13384,0.47544
-0.396057,0,0,15.3961,15.3961,14.6039,14.6039,0.264038,2.68284,-2.12989,-0.230207,0.218991,-0.0401424,0,0,0.2625,-0.175,0.0875,-0.22448,0.22631,-1.0514,-0.07602,0.13384,0.47544
-0.0686175,0,0,15.0686,15.0686,14.9314,14.9314,0.045745,2.43415,-1.93396,-0.225871,0.215185,-0.0399384,0,0,1.855,-0.7875,-0.0875,-0.22448,0.22631,-1.0514,-0.07602,0.13384,0.47544
-0.0685668,0,0,15.0686,15.0686,14.9314,14.9314,0.0457112,2.43333,-1.93266,-0.101698,0.00268404,0.113871,1,0,3.395,-0.3675,-0.315,-0.099796,0.01403,-0.898774,-0.07602,0.13384,0.47544
-0.0777225,0,0,15.0777,15.0777,14.9223,14.9223,0.051815,2.43201,-1.93163,-0.101675,0.00279048,0.113872,1,0,6.8425,-0.665,-0.4725,-0.099796,0.01403,-0.898774,-0.07602,0.13384,0.47544
-0.086284,0,0,15.0863,15.0863,14.9137,14.9137,0.0575226,2.43242,-1.93111,-0.394341,-0.276292,0.368252,1,0,6.6325,0.35,-0.77,-0.393694,-0.264862,-0.646356,-0.07602,0.13384,0.47544
-0.092836,0,0,15.0928,15.0928,14.9072,14.9072,0.0618907,2.43348,-1.932,-0.39436,-0.276216,0.368251,1,0,5.915,0.735,-1.5925,-0.393694,-0.264862,-0.646356,-0.07098,0.1414,0.47586
-0.0954722,0,0,15.0955,15.0955,14.9045,14.9045,0.0636481,2.43317,-1.93262,0.132894,-0.0697907,-0.0962483,1,0,4.445,-0.07,-1.435,0.135786,-0.058682,-1.10727,-0.07098,0.1414,0.47586
-0.0898717,0,0,15.0899,15.0899,14.9101,14.9101,0.0599145,2.43463,-1.93465,0.132868,-0.0698558,-0.0962493,1,0,1.4,0.9625,-2.2575,0.135786,-0.058682,-1.10727,-0.07098,0.1414,0.47586
-0.0818756,0,0,15.0819,15.0819,14.9181,14.9181,0.0545837,2.43444,-1.9368,0.134086,0.0829539,-0.226697,1,0,0.5075,0,-2.3275,0.137006,0.094062,-1.23671,-0.07098,0.1414,0.47586
-0.0766056,0,0,15.0766,15.0766,14.9234,14.9234,0.0510704,2.43423,-1.93952,0.13409,0.0828926,-0.226697,1,0,1.54,-0.0175,-2.66,0.137006,0.094062,-1.23671,-0.07098,0.1414,0.47586
-0.0737311,0,0,15.0737,15.0737,14.9263,14.9263,0.0491541,2.43338,-1.94212,0.208697,0.0609985,-0.105223,1,0,2.4325,-0.385,-2.59,0.211914,0.072224,-1.11618,-0.07098,0.1414,0.47586
-0.077964,0,0,15.078,15.078,14.922,14.922,0.051976,2.43269,-1.94487,0.208709,0.0610477,-0.105223,1,0,5.0925,-0.2975,-2.6775,0.211914,0.072224,-1.11618,-0.07098,0.1414,0.47586
0.025393,0,0,14.9746,14.9746,15.0254,15.0254,-0.0169286,2.23311,-1.79454,-0.170004,0.0675402,0.0189742,0,0,5.7925,-0.455,-2.6425,-0.171898,0.07991,-0.99308,-0.07098,0.1414,0.47586
0.128474,0,0,14.8715,14.8715,15.1285,15.1285,-0.0856495,2.03606,-1.63174,-0.166568,0.0663415,0.0191012,0,0,5.145,0.1575,-2.205,-0.171898,0.07991,-0.99308,-0.077,0.13496,0.4704
-0.265531,0,0,15.2655,15.2655,14.7345,14.7345,0.17702,1.68731,-1.30906,-0.309547,-0.257109,0.0192953,0,0,3.6225,0.77,-1.8375,-0.321592,-0.247782,-0.99308,-0.077,0.13496,0.4704
-0.649816,0,0,15.6498,15.6498,14.3502,14.3502,0.433211,1.34477,-0.989368,-0.303571,-0.252638,0.0194297,0,0,2.66,0.4375,-1.3475,-0.321592,-0.247782,-0.99308,-0.077,0.13496,0.4704
-0.603411,0,0,15.6034,15.6034,14.3966,14.3966,0.402274,1.45373,-1.08256,0.102234,0.0278353,-0.0916353,0,0,1.89,0.5075,-1.2075,0.08784,0.03294,-1.10325,-0.077,0.13496,0.4704
-0.558835,0,0,15.5588,15.5588,14.4412,14.4412,0.372556,1.55987,-1.17429,0.100382,0.0273165,-0.0916805,0,0,2.24,0.175,-0.42,0.08784,0.03294,-1.10325,-0.077,0.13496,0.4704
-0.246964,0,0,15.247,15.247,14.753,14.753,0.164643,1.31565,-0.961252,-0.216443,0.202605,-0.0153285,0,0,2.66,0.245,-0.6125,-0.234606,0.21167,-1.02761,-0.077,0.13496,0.4704
0.0570743,0,0,14.9429,14.9429,15.0571,15.0571,-0.0380495,1.07587,-0.745263,-0.212259,0.199068,-0.0152373,0,0,3.5175,0.0875,0.315,-0.234606,0.21167,-1.02761,-0.077,0.13496,0.4704
0.248047,0,0,14.752,14.752,15.248,15.248,-0.165365,1.20438,-0.854033,0.112173,0.122349,-0.010122,0,0,3.8325,0.56,0.315,0.093452,0.13725,-1.02248,-0.077,0.13496,0.4704
0.437025,0,0,14.563,14.563,15.437,15.437,-0.29135,1.32832,-0.958185,0.110011,0.120151,-0.0101786,0,0,3.255,-0.1925,0.735,0.093452,0.13725,-1.02248,-0.07574,0.13216,0.46984
0.436859,0,0,14.5631,14.5631,15.4369,15.4369,-0.291239,1.32776,-0.954962,0.581385,-0.00881258,-0.354065,1,0,3.465,-0.2275,0.805,0.566812,0.008418,-1.36372,-0.07574,0.13216,0.46984
0.435562,0,0,14.5644,14.5644,15.4356,15.4356,-0.290375,1.32642,-0.951525,0.581408,-0.0087975,-0.354065,1,0,3.885,-0.6825,0.9275,0.566812,0.008418,-1.36372,-0.07574,0.13216,0.46984
0.432895,0,0,14.5671,14.5671,15.4329,15.4329,-0.288596,1.32681,-0.949056,-0.0600429,-0.0235438,-0.187224,1,0,4.41,0.3325,0.3675,-0.077348,-0.006344,-1.19816,-0.07574,0.13216,0.46984
0.428828,0,0,14.5712,14.5712,15.4288,15.4288,-0.285886,1.32594,-0.946761,-0.0600278,-0.0234965,-0.187223,1,0,4.935,-0.4025,0.2625,-0.077348,-0.006344,-1.19816,-0.07574,0.13216,0.46984
0.0999863,0,0,14.9,14.9,15.1,15.1,-0.0666576,0.832709,-0.478203,-0.394375,-0.189916,0.178354,0,0,4.2,1.0675,-0.28,-0.421754,-0.176412,-0.835578,-0.07574,0.13216,0.46984
-0.219728,0,0,15.2197,15.2197,14.7803,14.7803,0.146485,0.346426,-0.0152909,-0.385888,-0.186196,0.178439,0,0,3.01,-0.105,-0.91,-0.421754,-0.176412,-0.835578,-0.07574,0.13216,0.46984
-0.216406,0,0,15.2164,15.2164,14.7836,14.7836,0.144271,0.346059,-0.0157609,0.272692,0.0610717,0.272494,1,0,2.205,-0.105,-1.3475,0.239608,0.070638,-0.742248,-0.07574,0.13216,0.46984
-0.208536,0,0,15.2085,15.2085,14.7915,14.7915,0.139024,0.346111,-0.0169795,0.272691,0.0609801,0.272495,1,0,0.5075,0.14,-1.785,0.239608,0.070638,-0.742248,-0.0756,0.13342,0.469
-0.20263,0,0,15.2026,15.2026,14.7974,14.7974,0.135087,0.345119,-0.0183806,0.586749,0.0820393,0.00827852,1,0,1.2425,-0.4725,-1.89,0.554978,0.091744,-1.00443,-0.0756,0.13342,0.469
-0.200556,0,0,15.2006,15.2006,14.7994,14.7994,0.133704,0.345054,-0.0207391,0.58675,0.0820152,0.00827858,1,0,2.6775,0.07,-2.45,0.554978,0.091744,-1.00443,-0.0756,0.13342,0.469
-0.365975,0,0,15.366,15.366,14.634,14.634,0.243983,0.308873,0.0357658,-0.0340176,-0.108654,-0.0560262,0,0,4.165,-0.2275,-2.38,-0.069052,-0.10065,-1.06823,-0.0756,0.13342,0.469
-0.53078,0,0,15.5308,15.5308,14.4692,14.4692,0.353853,0.274701,0.0915238,-0.0334212,-0.106736,-0.0560332,0,0,5.075,0.5425,-2.6425,-0.069052,-0.10065,-1.06823,-0.0756,0.13342,0.469
-0.866901,0,0,15.8669,15.8669,14.1331,14.1331,0.577934,-0.196621,0.539108,-0.380055,-0.195642,0.164387,0,0,5.0575,0.4375,-2.7475,-0.425414,-0.19337,-0.849486,-0.0756,0.13342,0.469
-1.19326,0,0,16.1933,16.1933,13.8067,13.8067,0.795505,-0.660193,0.982325,-0.371964,-0.191846,0.164281,0,0,3.605,-0.105,-2.6425,-0.425414,-0.19337,-0.849486,-0.0756,0.13342,0.469
-1.21819,0,0,16.2182,16.2182,13.7818,13.7818,0.812125,-0.490122,0.868306,0.135186,-0.0161813,0.0600467,0,0,1.96,0.35,-2.52,0.086864,-0.018178,-0.952942,-0.0756,0.13342,0.469
-1.23968,0,0,16.2397,16.2397,13.7603,13.7603,0.82645,-0.323166,0.755784,0.132272,-0.015931,0.0600638,0,0,0.875,0.5775,-1.855,0.086864,-0.018178,-0.952942,-0.0756,0.13342,0.469
-0.787791,0,0,15.7878,15.7878,14.2122,14.2122,0.525194,0.0493792,0.441438,0.300831,0.262024,0.149648,0,0,0.91,0.28,-1.61,0.262666,0.26474,-0.864126,-0.07504,0.13958,0.47824
-0.345875,0,0,15.3459,15.3459,14.6541,14.6541,0.230584,0.414529,0.124252,0.294458,0.256882,0.149656,0,0,1.9075,-0.1575,-1.4875,0.262666,0.26474,-0.864126,-0.07504,0.13958,0.47824
-0.344895,0,0,15.3449,15.3449,14.6551,14.6551,0.22993,0.413923,0.123901,0.575708,-0.111952,0.00728171,1,0,3.08,-0.245,-1.2775,0.545096,-0.1037,-1.0054,-0.07504,0.13958,0.47824
-0.343915,0,0,15.3439,15.3439,14.6561,14.6561,0.229277,0.413317,0.123549,0.575719,-0.111964,0.00728183,1,0,3.08,-0.245,-1.2775,0.545096,-0.1037,-1.0054,-0.07504,0.13958,0.47824
-0.347669,0,0,15.3477,15.3477,14.6523,14.6523,0.231779,0.413814,0.123652,0.0511347,0.588721,-0.0399306,1,0,4.8475,0.4025,-1.015,0.0183,0.596214,-1.05225,-0.07504,0.13958,0.47824
-0.351422,0,0,15.3514,15.3514,14.6486,14.6486,0.234282,0.414311,0.123755,0.051126,0.588765,-0.0399309,1,0,4.8475,0.4025,-1.015,0.0183,0.596214,-1.05225,-0.07504,0.13958,0.47824
-0.427405,0,0,15.4274,15.4274,14.5726,14.5726,0.284936,0.000756864,0.511406,-0.389817,-0.0549361,-0.0263844,0,0,2.9925,1.015,-0.735,-0.431758,-0.047702,-1.03883,-0.07504,0.13958,0.47824
-0.501752,0,0,15.5018,15.5018,14.4982,14.4982,0.334502,-0.404952,0.897566,-0.382736,-0.0540712,-0.0264141,0,0,2.9925,1.015,-0.735,-0.431758,-0.047702,-1.03883,-0.07504,0.13958,0.47824
-0.497118,0,0,15.4971,15.4971,14.5029,14.5029,0.331412,-0.403442,0.898156,-0.334047,-0.206295,-0.0494049,1,0,1.715,0.9975,-0.735,-0.382836,-0.199714,-1.06164,-0.07742,0.13636,0.47614
-0.495764,0,0,15.4958,15.4958,14.5042,14.5042,0.330509,-0.403126,0.898468,0.0336851,-0.350176,-0.0540768,1,0,2.94,0.2975,-0.8925,-0.013542,-0.34343,-1.06628,-0.07742,0.13636,0.47614
-0.4975,0,0,15.4975,15.4975,14.5025,14.5025,0.331666,-0.404572,0.89877,0.0337103,-0.350156,-0.0540771,1,0,4.095,-0.735,-0.8925,-0.013542,-0.34343,-1.06628,-0.07742,0.13636,0.47614
-0.435596,0,0,15.4356,15.4356,14.5644,14.5644,0.290397,-0.276213,0.813507,0.1108,0.0405401,0.00888972,0,0,4.4275,-0.455,-0.91,0.066124,0.04758,-1.00382,-0.07742,0.13636,0.47614
-0.373584,0,0,15.3736,15.3736,14.6264,14.6264,0.249056,-0.149996,0.728137,0.108597,0.0398186,0.00890131,0,0,3.9725,-0.21,-0.98,0.066124,0.04758,-1.00382,-0.07742,0.13636,0.47614
-0.37415,0,0,15.3742,15.3742,14.6258,14.6258,0.249433,-0.150039,0.728717,-0.354019,0.0891644,-0.113801,1,0,3.6575,0.0875,-0.735,-0.398452,0.096868,-1.12557,-0.07742,0.13636,0.47614
-0.373169,0,0,15.3732,15.3732,14.6268,14.6268,0.24878,-0.150412,0.729866,-0.354013,0.089153,-0.113801,1,0,3.08,-0.105,-0.4025,-0.398452,0.096868,-1.12557,-0.07742,0.13636,0.47614
-0.370364,0,0,15.3704,15.3704,14.6296,14.6296,0.246909,-0.150635,0.730715,-0.118448,-0.165758,-0.309289,1,0,2.3975,-0.0175,-0.5775,-0.161894,-0.157746,-1.31955,-0.07742,0.13636,0.47614
-0.369758,0,0,15.3698,15.3698,14.6302,14.6302,0.246505,-0.151367,0.731773,-0.118436,-0.165765,-0.309289,1,0,3.22,-0.315,-0.455,-0.161894,-0.157746,-1.31955,-0.07686,0.13202,0.47222
-0.369571,0,0,15.3696,15.3696,14.6304,14.6304,0.246381,-0.15201,0.73319,0.514273,-0.27849,0.021811,1,0,3.3775,-0.2625,-0.245,0.473482,-0.270352,-0.991006,-0.07686,0.13202,0.47222
-0.372334,0,0,15.3723,15.3723,14.6277,14.6277,0.248223,-0.152027,0.734761,0.514273,-0.278458,0.0218109,1,0,4.48,0.105,-0.1575,0.473482,-0.270352,-0.991006,-0.07686,0.13202,0.47222
-0.373835,0,0,15.3738,15.3738,14.6262,14.6262,0.249223,-0.151804,0.735972,0.16512,-0.176831,-0.0949903,1,0,4.0075,0.245,-0.3675,0.122854,-0.168848,-1.10691,-0.07686,0.13202,0.47222
-0.376457,0,0,15.3765,15.3765,14.6235,14.6235,0.250972,-0.151911,0.737572,0.165122,-0.176801,-0.0949904,1,0,4.4275,0.0525,-0.14,0.122854,-0.168848,-1.10691,-0.07686,0.13202,0.47222
-0.648114,0,0,15.6481,15.6481,14.3519,14.3519,0.432076,0.24699,0.414477,0.331398,-0.168144,0.086334,0,0,4.095,-0.0875,-0.28,0.296826,-0.163358,-0.926956,-0.07686,0.13202,0.47222
-0.914,0,0,15.914,15.914,14.086,14.086,0.609334,0.63804,0.094027,0.324573,-0.165051,0.0862532,0,0,3.78,-0.1575,-0.4725,0.296826,-0.163358,-0.926956,-0.07686,0.13202,0.47222
-0.948432,0,0,15.9484,15.9484,14.0516,14.0516,0.632288,0.837336,-0.0632102,0.18491,-0.0238391,-0.068711,0,0,3.85,-0.07,-0.84,0.160064,-0.022692,-1.08068,-0.07686,0.13202,0.47222
-0.981387,0,0,15.9814,15.9814,14.0186,14.0186,0.654258,1.03353,-0.223929,0.181486,-0.0234564,-0.0687712,0,0,3.57,0.14,-1.4,0.160064,-0.022692,-1.08068,-0.07896,0.13426,0.47082
-0.871858,0,0,15.8719,15.8719,14.1281,14.1281,0.581238,1.01376,-0.197819,-0.0172842,0.0663761,0.0394433,0,0,3.2025,0.8575,-1.89,-0.039894,0.06832,-0.973316,-0.07896,0.13426,0.47082
-0.764375,0,0,15.7644,15.7644,14.2356,14.2356,0.509584,0.992872,-0.171823,-0.0169197,0.0651258,0.0394616,0,0,3.22,-0.035,-1.96,-0.039894,0.06832,-0.973316,-0.07896,0.13426,0.47082
-1.03964,0,0,16.0396,16.0396,13.9604,13.9604,0.693091,0.817554,0.000410507,-0.149074,-0.169696,0.0531236,0,0,2.8,1.4875,-2.6775,-0.17568,-0.169458,-0.959774,-0.07896,0.13426,0.47082
-1.31107,0,0,16.3111,16.3111,13.6889,13.6889,0.874046,0.643497,0.170422,-0.146036,-0.166538,0.0531192,0,0,3.2375,0.175,-3.045,-0.17568,-0.169458,-0.959774,-0.07896,0.13426,0.47082
-1.44977,0,0,16.4498,16.4498,13.5502,13.5502,0.966516,0.799763,0.0475892,0.12458,-0.0821233,0.0544113,0,0,4.165,0.1225,-3.115,0.09882,-0.086742,-0.958432,-0.07896,0.13426,0.47082
-1.58792,0,0,16.5879,16.5879,13.4121,13.4121,1.05861,0.953601,-0.0747936,0.121895,-0.0805171,0.0543419,0,0,4.9175,0.5775,-3.29,0.09882,-0.086742,-0.958432,-0.07896,0.13426,0.47082
-1.69878,0,0,16.6988,16.6988,13.3012,13.3012,1.13252,0.860039,0.0182822,-0.0810543,-0.0670143,-0.00860659,0,0,5.8975,0.49,-3.535,-0.106628,-0.074542,-1.0209,-0.07896,0.13426,0.47082
-1.80691,0,0,16.8069,16.8069,13.1931,13.1931,1.2046,0.769021,0.11915,-0.0794659,-0.0657562,-0.00860966,0,0,5.635,0.8575,-3.2375,-0.106628,-0.074542,-1.0209,-0.08274,0.12978,0.46662
-1.81032,0,0,16.8103,16.8103,13.1897,13.1897,1.20688,0.768926,0.116069,0.230689,-0.260264,-0.0373804,1,0,4.7425,0.0175,-2.87,0.204838,-0.268888,-1.04944,-0.08274,0.12978,0.46662
-1.80852,0,0,16.8085,16.8085,13.1915,13.1915,1.20568,0.768885,0.114729,0.230689,-0.260285,-0.03738,1,0,2.7825,0.07,-1.855,0.204838,-0.268888,-1.04944,-0.08274,0.12978,0.46662
-1.55459,0,0,16.5546,16.5546,13.4454,13.4454,1.03639,0.644836,0.239652,-0.108034,0.170433,-0.0696309,0,0,2.24,-0.245,-1.5925,-0.137494,0.164334,-1.08153,-0.08274,0.12978,0.46662
-1.30521,0,0,16.3052,16.3052,13.6948,13.6948,0.870139,0.522925,0.366704,-0.105907,0.167533,-0.069561,0,0,2.24,-0.455,-0.63,-0.137494,0.164334,-1.08153,-0.08274,0.12978,0.46662
-1.30266,0,0,16.3027,16.3027,13.6973,13.6973,0.868439,0.523014,0.368006,-0.14041,-0.147095,-0.116527,1,0,2.485,0.175,-0.315,-0.172142,-0.149938,-1.12813,-0.08274,0.12978,0.46662
-1.30323,0,0,16.3032,16.3032,13.6968,13.6968,0.868818,0.521876,0.371449,-0.14039,-0.147089,-0.116527,1,0,3.64,-0.525,0.945,-0.172142,-0.149938,-1.12813,-0.08274,0.12978,0.46662
-1.25933,0,0,16.2593,16.2593,13.7407,13.7407,0.839551,0.679382,0.261876,0.134334,0.028751,0.00455629,0,0,3.8675,0,1.26,0.106506,0.02623,-1.00796,-0.08274,0.12978,0.46662
-1.21863,0,0,16.2186,16.2186,13.7814,13.7814,0.812423,0.832404,0.149863,0.131663,0.0282771,0.00452789,0,0,4.7775,-0.07,1.89,0.106506,0.02623,-1.00796,-0.07714,0.13132,0.4718
-1.31406,0,0,16.3141,16.3141,13.6859,13.6859,0.876043,0.54977,0.426833,-0.264671,-0.0663592,-0.0625589,0,0,4.27,0.6825,2.0825,-0.29646,-0.069418,-1.07458,-0.07714,0.13132,0.4718
-1.40824,0,0,16.4082,16.4082,13.5918,13.5918,0.938829,0.272247,0.702895,-0.259828,-0.065263,-0.0625415,0,0,4.515,0.42,2.2925,-0.29646,-0.069418,-1.07458,-0.07714,0.13132,0.4718
-1.22452,0,0,16.2245,16.2245,13.7755,13.7755,0.816343,-0.0300865,1.00232,-0.241552,0.111515,0.0895897,0,0,4.06,0.7175,2.1525,-0.283406,0.109312,-0.923662,-0.07714,0.13132,0.4718
-1.04134,0,0,16.0413,16.0413,13.9587,13.9587,0.694229,-0.326407,1.30093,-0.23638,0.109384,0.0896017,0,0,3.1675,0.77,1.295,-0.283406,0.109312,-0.923662,-0.07714,0.13132,0.4718
-0.533523,0,0,15.5335,15.5335,14.4665,14.4665,0.355682,-0.36378,1.37076,-0.0213057,0.333807,0.0160058,0,0,3.325,-0.07,1.2425,-0.068076,0.339404,-0.99674,-0.07714,0.13132,0.4718
-0.0323093,0,0,15.0323,15.0323,14.9677,14.9677,0.0215396,-0.398593,1.43866,-0.0206982,0.327975,0.0160209,0,0,2.52,0.91,-0.1925,-0.068076,0.339404,-0.99674,-0.07714,0.13132,0.4718
-0.0312813,0,0,15.0313,15.0313,14.9687,14.9687,0.0208542,-0.399231,1.43912,0.273551,0.132927,0.185936,1,0,3.0625,-0.2625,-0.805,0.227408,0.14457,-0.828136,-0.07714,0.13132,0.4718
-0.0306133,0,0,15.0306,15.0306,14.9694,14.9694,0.0204089,-0.398792,1.43649,0.273544,0.132919,0.185936,1,0,3.185,0.3675,-2.6075,0.227408,0.14457,-0.828136,-0.07714,0.13132,0.4718
-0.0456731,0,0,15.0457,15.0457,14.9543,14.9543,0.0304487,-0.449543,1.51244,-0.0388822,-0.00942793,0.0992504,0,0,2.9575,-0.1225,-3.0625,-0.08723,0.002196,-0.914146,-0.0742,0.13356,0.47166
-0.0458824,0,0,15.0459,15.0459,14.9541,14.9541,0.0305883,-0.44964,1.50718,0.0990058,0.0943822,0.20683,1,0,3.5,0.0525,-4.1475,0.05124,0.105896,-0.807396,-0.0742,0.13356,0.47166
-0.0467686,0,0,15.0468,15.0468,14.9532,14.9532,0.031179,-0.448004,1.50008,0.0989772,0.0943925,0.206831,1,0,3.745,1.0675,-5.215,0.05124,0.105896,-0.807396,-0.0742,0.13356,0.47166
-0.048874,0,0,15.0489,15.0489,14.9511,14.9511,0.0325827,-0.447293,1.4928,-0.202684,0.166838,-0.136319,1,0,4.2,0.525,-5.32,-0.251686,0.178242,-1.1479,-0.0742,0.13356,0.47166
-0.0514444,0,0,15.0514,15.0514,14.9486,14.9486,0.0342963,-0.447419,1.4858,-0.202682,0.166868,-0.136319,1,0,4.375,0.035,-5.1625,-0.251686,0.178242,-1.1479,-0.0742,0.13356,0.47166
-0.0542933,0,0,15.0543,15.0543,14.9457,14.9457,0.0361955,-0.446887,1.479,0.471068,0.245307,0.310353,1,0,4.48,0.42,-5.04,0.424926,0.256566,-0.704672,-0.0742,0.13356,0.47166
-0.0562367,0,0,15.0562,15.0562,14.9438,14.9438,0.0374911,-0.447133,1.47355,0.471073,0.245329,0.310353,1,0,4.1475,-0.035,-4.2525,0.424926,0.256566,-0.704672,-0.0742,0.13356,0.47166
-0.241951,0,0,15.242,15.242,14.758,14.758,0.161301,-0.445433,1.50225,-0.00190078,-0.104479,0.104288,0,0,4.515,0.525,-3.71,-0.05002,-0.095038,-0.909144,-0.0742,0.13356,0.47166
-0.424296,0,0,15.4243,15.4243,14.5757,14.5757,0.282864,-0.44353,1.5394,-0.00193399,-0.102358,0.10428,0,0,4.515,0.315,-2.1525,-0.05002,-0.095038,-0.909144,-0.07896,0.1302,0.47404
-0.423699,0,0,15.4237,15.4237,14.5763,14.5763,0.282466,-0.443688,1.53899,0.00414305,-0.116653,0.12469,1,0,3.22,0.0175,-1.3125,-0.04392,-0.109312,-0.888892,-0.07896,0.1302,0.47404
-0.421206,0,0,15.4212,15.4212,14.5788,14.5788,0.280804,-0.443168,1.54062,0.00413398,-0.116682,0.12469,1,0,2.52,0.42,-0.1225,-0.04392,-0.109312,-0.888892,-0.07896,0.1302,0.47404
-0.345709,0,0,15.3457,15.3457,14.6543,14.6543,0.230472,-0.583026,1.70832,-0.130097,0.0486536,-0.0822505,0,0,1.9425,-0.14,0.6825,-0.18117,0.05673,-1.09422,-0.07896,0.1302,0.47404
-0.270069,0,0,15.2701,15.2701,14.7299,14.7299,0.180046,-0.719472,1.87804,-0.127715,0.0477734,-0.0822744,0,0,1.4175,0.21,1.925,-0.18117,0.05673,-1.09422,-0.07896,0.1302,0.47404
0.263806,0,0,14.7362,14.7362,15.2638,15.2638,-0.175871,-0.663803,1.87449,0.0689704,0.363244,-0.00996876,0,0,1.995,-0.9625,2.1875,0.017324,0.378078,-1.02248,-0.07896,0.1302,0.47404
0.788208,0,0,14.2118,14.2118,15.7882,15.7882,-0.525472,-0.60846,1.87159,0.0680046,0.357143,-0.00999538,0,0,2.135,-0.7,2.7825,0.017324,0.378078,-1.02248,-0.07896,0.1302,0.47404
0.787366,0,0,14.2126,14.2126,15.7874,15.7874,-0.52491,-0.609666,1.87794,0.105929,0.0713758,0.119715,1,0,3.7975,-0.63,2.625,0.055388,0.092598,-0.893772,-0.07896,0.1302,0.47404
0.784133,0,0,14.2159,14.2159,15.7841,15.7841,-0.522756,-0.610486,1.88414,0.105943,0.0714134,0.119715,1,0,4.69,-0.4025,2.5375,0.055388,0.092598,-0.893772,-0.07448,0.12628,0.4683
0.508151,0,0,14.4918,14.4918,15.5082,15.5082,-0.338767,-0.409339,1.75428,0.173138,-0.177568,-0.00342367,0,0,5.425,0.5075,2.1525,0.126392,-0.159332,-1.01602,-0.07448,0.12628,0.4683
0.234321,0,0,14.7657,14.7657,15.2343,15.2343,-0.156214,-0.213569,1.6238,0.169721,-0.174382,-0.00339133,0,0,6.4575,-0.245,0.9975,0.126392,-0.159332,-1.01602,-0.07448,0.12628,0.4683
0.149935,0,0,14.8501,14.8501,15.1499,15.1499,-0.0999567,0.192425,1.2967,0.372076,-0.0557917,0.0153003,0,0,4.13,0.2625,0.21,0.33672,-0.041846,-0.997472,-0.07448,0.12628,0.4683
0.0688655,0,0,14.9311,14.9311,15.0689,15.0689,-0.0459103,0.590902,0.968811,0.365122,-0.0548483,0.015254,0,0,3.535,0.2975,-0.98,0.33672,-0.041846,-0.997472,-0.07448,0.12628,0.4683
0.0721536,0,0,14.9278,14.9278,15.0722,15.0722,-0.0481024,0.591488,0.967682,0.106711,-0.032171,0.128981,1,0,2.2225,0.455,-1.7325,0.077226,-0.019154,-0.884622,-0.07448,0.12628,0.4683
0.0767407,0,0,14.9233,14.9233,15.0767,15.0767,-0.0511605,0.592342,0.964303,0.106696,-0.0322244,0.128981,1,0,1.75,0.6125,-3.045,0.077226,-0.019154,-0.884622,-0.07448,0.12628,0.4683
-0.00986767,0,0,15.0099,15.0099,14.9901,14.9901,0.00657845,0.386678,1.1749,-0.197437,-0.0646794,-0.078402,0,0,1.7675,-0.3325,-3.5,-0.2318,-0.052582,-1.09044,-0.07448,0.12628,0.4683
-0.0948743,0,0,15.0949,15.0949,14.9051,14.9051,0.0632495,0.185266,1.37822,-0.193922,-0.0636903,-0.0783851,0,0,1.7675,0.1225,-4.025,-0.2318,-0.052582,-1.09044,-0.07574,0.12992,0.4739
-0.0965416,0,0,15.0965,15.0965,14.9035,14.9035,0.0643611,0.184873,1.37304,-0.212989,0.258377,-0.0555167,1,0,4.0775,-0.1225,-4.095,-0.250954,0.269132,-1.06774,-0.07574,0.12992,0.4739
-0.0968027,0,0,15.0968,15.0968,14.9032,14.9032,0.0645352,0.185228,1.36753,-0.212995,0.25838,-0.0555167,1,0,3.5525,0.315,-4.2875,-0.250954,0.269132,-1.06774,-0.07574,0.12992,0.4739
0.0878691,0,0,14.9121,14.9121,15.0879,15.0879,-0.0585794,0.132301,1.4394,-0.041991,0.117251,0.0525577,0,0,6.23,0.84,-4.095,-0.080154,0.130296,-0.960506,-0.07574,0.12992,0.4739
0.270122,0,0,14.7299,14.7299,15.2701,15.2701,-0.180081,0.0797361,1.51218,-0.0410736,0.115131,0.052555,0,0,5.8975,0.42,-3.6575,-0.080154,0.130296,-0.960506,-0.07574,0.12992,0.4739
0.342845,0,0,14.6572,14.6572,15.3428,15.3428,-0.228564,0.125152,1.49869,0.0398936,0.0494353,0.0101333,0,0,5.32,0.805,-3.2725,0.001952,0.065514,-1.0026,-0.07574,0.12992,0.4739
0.416131,0,0,14.5839,14.5839,15.4161,15.4161,-0.27742,0.17001,1.48702,0.0391107,0.0485826,0.0101275,0,0,4.62,0.98,-2.1875,0.001952,0.065514,-1.0026,-0.07574,0.12992,0.4739
0.420294,0,0,14.5797,14.5797,15.4203,15.4203,-0.280196,0.17149,1.48631,0.105416,-0.197185,-0.373964,1,0,1.89,0.98,-1.4875,0.068564,-0.17995,-1.38372,-0.07574,0.12992,0.4739
0.424543,0,0,14.5755,14.5755,15.4245,15.4245,-0.283029,0.171993,1.48737,0.105407,-0.197234,-0.373964,1,0,1.855,0.4025,-0.455,0.068564,-0.17995,-1.38372,-0.07798,0.13062,0.47278
0.74898,0,0,14.251,14.251,15.749,15.749,-0.49932,0.532464,1.18645,0.332247,0.209703,0.0500208,0,0,0.8925,0.105,0.07,0.302682,0.230336,-0.962946,-0.07798,0.13062,0.47278
1.06894,0,0,13.9311,13.9311,16.0689,16.0689,-0.712628,0.886136,0.88517,0.326075,0.205982,0.049905,0,0,0.6125,-0.14,1.015,0.302682,0.230336,-0.962946,-0.07798,0.13062,0.47278
1.07564,0,0,13.9244,13.9244,16.0756,16.0756,-0.71709,0.885277,0.888971,-0.165563,0.10979,0.171623,1,0,0.91,-0.42,1.1375,-0.191052,0.134322,-0.842166,-0.07798,0.13062,0.47278
1.08185,0,0,13.9181,13.9181,16.0819,16.0819,-0.721236,0.883736,0.89308,-0.165536,0.109718,0.171623,1,0,1.085,-0.8225,1.3125,-0.191052,0.134322,-0.842166,-0.07798,0.13062,0.47278
0.626801,0,0,14.3732,14.3732,15.6268,15.6268,-0.417868,0.92419,0.880567,0.0294715,-0.284831,0.0731825,0,0,2.5025,-0.5425,1.33,0.00549,-0.265106,-0.939888,-0.07798,0.13062,0.47278
0.17748,0,0,14.8225,14.8225,15.1775,15.1775,-0.11832,0.963345,0.867714,0.0287883,-0.279604,0.0731957,0,0,3.29,-0.7525,0.9625,0.00549,-0.265106,-0.939888,-0.07798,0.13062,0.47278
0.330441,0,0,14.6696,14.6696,15.3304,15.3304,-0.220294,1.05097,0.8046,0.0832641,0.104537,-0.0476948,0,0,3.6575,0.315,0.315,0.061732,0.120414,-1.05981,-0.07798,0.13062,0.47278
0.477445,0,0,14.5226,14.5226,15.4774,15.4774,-0.318297,1.13667,0.740047,0.0817686,0.102827,-0.0477314,0,0,4.8825,0.175,-0.455,0.061732,0.120414,-1.05981,-0.07798,0.13062,0.47278
0.527993,0,0,14.472,14.472,15.528,15.528,-0.351995,1.1736,0.717767,0.0367819,0.0392219,-0.0654524,0,0,5.6525,0.0525,-0.6825,0.017202,0.057462,-1.07738,-0.07224,0.13062,0.4725
0.582534,0,0,14.4175,14.4175,15.5825,15.5825,-0.388356,1.21047,0.694591,0.0361385,0.0385875,-0.0654699,0,0,3.8325,0.4375,-1.2075,0.017202,0.057462,-1.07738,-0.07224,0.13062,0.4725
0.676427,0,0,14.3236,14.3236,15.6764,15.6764,-0.450952,1.27158,0.646187,0.0514727,0.0571579,0.0581852,0,0,3.745,-0.4725,-1.4175,0.033672,0.077104,-0.95465,-0.07224,0.13062,0.4725
0.774822,0,0,14.2252,14.2252,15.7748,15.7748,-0.516548,1.33079,0.596601,0.0504396,0.0560136,0.0581521,0,0,1.4525,-0.8925,-2.1,0.033672,0.077104,-0.95465,-0.07224,0.13062,0.4725
0.824576,0,0,14.1754,14.1754,15.8246,15.8246,-0.549717,1.49994,0.445315,0.155246,0.0288119,-0.00622829,0,0,1.3125,-0.525,-2.52,0.141886,0.050508,-1.01846,-0.07224,0.13062,0.4725
0.874339,0,0,14.1257,14.1257,15.8743,15.8743,-0.582893,1.66595,0.293401,0.15235,0.0282339,-0.00631405,0,0,1.015,-0.455,-2.94,0.141886,0.050508,-1.01846,-0.07224,0.13062,0.4725
0.881722,0,0,14.1183,14.1183,15.8817,15.8817,-0.587815,1.66621,0.290349,-0.397499,-0.127319,0.26995,1,0,0.735,0.28,-2.8525,-0.410286,-0.104798,-0.744322,-0.07224,0.13062,0.4725
0.881342,0,0,14.1187,14.1187,15.8813,15.8813,-0.587561,1.667,0.287111,-0.397513,-0.127315,0.26995,1,0,3.64,0.595,-2.9575,-0.410286,-0.104798,-0.744322,-0.07224,0.13062,0.4725
0.98153,0,0,14.0185,14.0185,15.9815,15.9815,-0.654353,1.90148,0.0736383,0.19149,0.0600851,0.0840346,0,0,3.7275,0.84,-2.6775,0.185318,0.08357,-0.928664,-0.08176,0.1316,0.47418
1.07378,0,0,13.9262,13.9262,16.0738,16.0738,-0.715855,1.73696,0.219599,-0.145921,0.0631635,0.0163683,0,0,6.16,1.12,-2.5375,-0.156404,0.087718,-0.995886,-0.08176,0.1316,0.47418
1.16362,0,0,13.8364,13.8364,16.1636,16.1636,-0.775749,1.57554,0.366794,-0.143105,0.0621176,0.0164362,0,0,6.44,1.085,-1.89,-0.156404,0.087718,-0.995886,-0.08176,0.1316,0.47418
1.1563,0,0,13.8437,13.8437,16.1563,16.1563,-0.770864,1.57728,0.366062,0.0230566,-0.0549167,-0.0997499,1,0,6.195,1.1375,-1.4875,0.010492,-0.02928,-1.11118,-0.08176,0.1316,0.47418
1.15671,0,0,13.8433,13.8433,16.1567,16.1567,-0.771137,1.57856,0.366205,0.0230344,-0.0549214,-0.0997505,1,0,3.29,0.8575,-0.98,0.010492,-0.02928,-1.11118,-0.08176,0.1316,0.47418
1.08454,0,0,13.9155,13.9155,16.0845,16.0845,-0.723024,1.83213,0.14215,0.247733,-0.0510272,-0.0633556,0,0,3.29,0.28,-0.7,0.240584,-0.02623,-1.07494,-0.08176,0.1316,0.47418
1.01874,0,0,13.9813,13.9813,16.0187,16.0187,-0.67916,2.08072,-0.0804871,0.243397,-0.0502604,-0.0634943,0,0,1.4,0.21,-0.3325,0.240584,-0.02623,-1.07494,-0.08176,0.1316,0.47418
1.02416,0,0,13.9758,13.9758,16.0242,16.0242,-0.682774,2.08126,-0.0795523,0.206212,-0.187105,0.229737,1,0,1.4,0.42,-0.525,0.203252,-0.16287,-0.783972,-0.08176,0.1316,0.47418
1.03072,0,0,13.9693,13.9693,16.0307,16.0307,-0.687144,2.0816,-0.0779549,0.206207,-0.187182,0.229736,1,0,0.9625,0.2975,-0.14,0.203252,-0.16287,-0.783972,-0.07392,0.13524,0.47432
1.03708,0,0,13.9629,13.9629,16.0371,16.0371,-0.691387,2.08161,-0.0763236,0.0809547,-0.19153,0.182031,1,0,1.0325,0.105,-0.1225,0.07747,-0.16714,-0.831308,-0.07392,0.13524,0.47432
1.03654,0,0,13.9635,13.9635,16.0365,16.0365,-0.691025,2.07986,-0.0742209,0.0809852,-0.191524,0.182032,1,0,3.605,-0.9275,0.14,0.07747,-0.16714,-0.831308,-0.07392,0.13524,0.47432
0.786656,0,0,14.2133,14.2133,15.7867,15.7867,-0.524438,1.63754,0.328432,-0.415586,-0.170057,0.0361273,0,0,4.235,0.7875,-0.49,-0.428952,-0.148596,-0.976366,-0.07392,0.13524,0.47432
0.535149,0,0,14.4649,14.4649,15.5351,15.5351,-0.356766,1.20232,0.728354,-0.407992,-0.167133,0.036338,0,0,6.51,0.3325,-0.21,-0.428952,-0.148596,-0.976366,-0.07392,0.13524,0.47432
0.64527,0,0,14.3547,14.3547,15.6453,15.6453,-0.43018,1.3373,0.60869,0.131964,0.0851212,-0.0669997,0,0,7.455,-0.0175,-0.1925,0.115656,0.104676,-1.07885,-0.07392,0.13524,0.47432
0.759834,0,0,14.2402,14.2402,15.7598,15.7598,-0.506556,1.46991,0.487957,0.129651,0.0837891,-0.0670673,0,0,5.0925,0.105,-0.735,0.115656,0.104676,-1.07885,-0.07392,0.13524,0.47432
0.754416,0,0,14.2456,14.2456,15.7544,15.7544,-0.502944,1.46827,0.488673,0.363418,0.0508779,-0.26612,1,0,5.46,-0.8575,-0.665,0.350384,0.071736,-1.27636,-0.07392,0.13524,0.47432
0.756357,0,0,14.2436,14.2436,15.7564,15.7564,-0.504238,1.46727,0.489142,0.363435,0.0508553,-0.266119,1,0,2.7125,-0.4725,-0.805,0.350384,0.071736,-1.27636,-0.0728,0.13104,0.47684
0.597509,0,0,14.4025,14.4025,15.5975,15.5975,-0.398339,1.52587,0.442269,0.0569978,-0.109359,-0.0464225,0,0,2.6775,-0.665,-1.0325,0.043676,-0.090158,-1.05835,-0.0728,0.13104,0.47684
0.445712,0,0,14.5543,14.5543,15.4457,15.4457,-0.297142,1.58422,0.395118,0.0559796,-0.107593,-0.0464395,0,0,1.1025,-0.1225,-1.33,0.043676,-0.090158,-1.05835,-0.0728,0.13104,0.47684
0.634585,0,0,14.3654,14.3654,15.6346,15.6346,-0.423056,1.48664,0.48495,-0.0843346,0.111992,0.0505987,0,0,0.735,0.1575,-1.3125,-0.098942,0.131394,-0.962092,-0.0728,0.13104,0.47684
0.814845,0,0,14.1852,14.1852,15.8148,15.8148,-0.54323,1.38933,0.574805,-0.0826368,0.109895,0.0506237,0,0,2.7125,-0.77,-1.4875,-0.098942,0.131394,-0.962092,-0.0728,0.13104,0.47684
0.816838,0,0,14.1832,14.1832,15.8168,15.8168,-0.544558,1.38901,0.573889,0.0881776,0.00581949,0.121934,1,0,2.7125,-0.07,-1.61,0.07259,0.02745,-0.891332,-0.0728,0.13104,0.47684
0.812055,0,0,14.1879,14.1879,15.8121,15.8121,-0.54137,1.38926,0.572607,0.0881733,0.00587512,0.121934,1,0,5.25,0.2625,-1.82,0.07259,0.02745,-0.891332,-0.0728,0.13104,0.47684
0.805788,0,0,14.1942,14.1942,15.8058,15.8058,-0.537192,1.39052,0.570926,0.0815912,-0.0216526,0.116402,1,0,5.81,0.8575,-2.0475,0.066002,-0.000122,-0.896822,-0.0728,0.13104,0.47684
0.802418,0,0,14.1976,14.1976,15.8024,15.8024,-0.534945,1.39038,0.569438,0.0815937,-0.0216134,0.116402,1,0,4.725,0.035,-1.9425,0.066002,-0.000122,-0.896822,-0.08176,0.1323,0.47474
0.800367,0,0,14.1996,14.1996,15.8004,15.8004,-0.533578,1.39057,0.568997,-0.103068,-0.356583,-0.0446604,1,0,4.2175,0.2275,-1.33,-0.119438,-0.334768,-1.05664,-0.08176,0.1323,0.47474
0.798316,0,0,14.2017,14.2017,15.7983,15.7983,-0.532211,1.39077,0.568556,-0.103071,-0.356559,-0.0446602,1,0,4.2175,0.2275,-1.33,-0.119438,-0.334768,-1.05664,-0.08176,0.1323,0.47474
0.800133,0,0,14.1999,14.1999,15.8001,15.8001,-0.533422,1.39104,0.567335,0.098347,-0.059324,-0.144618,1,0,2.7825,0.28,-1.785,0.082838,-0.03782,-1.15583,-0.08176,0.1323,0.47474
0.80195,0,0,14.1981,14.1981,15.8019,15.8019,-0.534633,1.39132,0.566113,0.0983422,-0.0593451,-0.144618,1,0,2.7825,0.28,-1.785,0.082838,-0.03782,-1.15583,-0.08176,0.1323,0.47474
0.805312,0,0,14.1947,14.1947,15.8053,15.8053,-0.536875,1.39143,0.566153,-0.526947,0.181083,-0.0694969,1,0,2.1875,0.175,-1.05,-0.545096,0.202398,-1.08129,-0.08176,0.1323,0.47474
1.10101,0,0,13.899,13.899,16.101,16.101,-0.734007,1.70568,0.28258,0.280189,0.191324,0.063593,0,0,3.045,0.28,-0.945,0.270962,0.216062,-0.949038,-0.08176,0.1323,0.47474
1.38987,0,0,13.6101,13.6101,16.3899,16.3899,-0.926582,2.01371,-0.00260959,0.274815,0.187968,0.0633698,0,0,3.85,-0.035,-1.015,0.270962,0.216062,-0.949038,-0.08176,0.1323,0.47474
1.47092,0,0,13.5291,13.5291,16.4709,16.4709,-0.980612,1.97213,0.0247506,-0.0375281,0.0469455,0.0969443,0,0,4.0775,0,-0.665,-0.043432,0.076128,-0.915732,-0.07364,0.13566,0.46914
1.82201,0,0,13.178,13.178,16.822,16.822,-1.21467,1.9927,-0.00203061,0.00937097,0.226665,0.0309533,0,0,2.9575,4.1125,-0.35,0.004026,0.259738,-0.981124,-0.07364,0.13566,0.46914
1.82453,0,0,13.1755,13.1755,16.8245,16.8245,-1.21635,1.99185,-0.00107116,0.199754,0.236161,-0.25441,1,0,2.485,-0.4025,-0.525,0.1952,0.269254,-1.26429,-0.07364,0.13566,0.46914
1.82354,0,0,13.1765,13.1765,16.8235,16.8235,-1.21569,1.992,-0.000163267,0.199751,0.236173,-0.25441,1,0,3.7975,0.1925,-0.5425,0.1952,0.269254,-1.26429,-0.07364,0.13566,0.46914
1.81945,0,0,13.1806,13.1806,16.8194,16.8194,-1.21297,1.99154,0.000907938,0.141203,0.161234,-0.0779777,1,0,4.9525,-0.175,-0.455,0.136396,0.194346,-1.08922,-0.07364,0.13566,0.46914
1.81868,0,0,13.1813,13.1813,16.8187,16.8187,-1.21245,1.99131,0.00203407,0.141207,0.161243,-0.0779774,1,0,3.71,-0.035,-0.42,0.136396,0.194346,-1.08922,-0.07364,0.13566,0.46914
1.81733,0,0,13.1827,13.1827,16.8173,16.8173,-1.21155,1.99111,0.00264955,-0.0067588,-0.279619,-0.150517,1,0,3.9375,-0.0175,-0.7175,-0.0122,-0.246074,-1.1612,-0.07364,0.13566,0.46914
1.81778,0,0,13.1822,13.1822,16.8178,16.8178,-1.21185,1.99065,0.00288008,-0.00675089,-0.279624,-0.150516,1,0,3.2725,-0.1575,-0.945,-0.0122,-0.246074,-1.1612,-0.07364,0.13566,0.46914
1.55391,0,0,13.4461,13.4461,16.5539,16.5539,-1.03594,1.87308,0.117295,-0.105655,-0.172505,0.0196507,0,0,2.7125,-0.0525,-1.085,-0.113582,-0.14213,-0.99247,-0.08078,0.12964,0.47334
1.21335,0,0,13.7866,13.7866,16.2134,16.2134,-0.808901,1.79994,0.200117,-0.0754651,-0.23767,-0.0328666,0,0,1.47,4.06,-1.155,-0.084546,-0.211182,-1.04469,-0.08078,0.12964,0.47334
0.878673,0,0,14.1213,14.1213,15.8787,15.8787,-0.585782,1.72813,0.282105,-0.0742125,-0.233778,-0.0327806,0,0,1.47,4.06,-1.155,-0.084546,-0.211182,-1.04469,-0.08078,0.12964,0.47334
0.883292,0,0,14.1167,14.1167,15.8833,15.8833,-0.588862,1.72814,0.281276,-0.00229312,0.0449836,0.224058,1,0,1.7325,0.1225,-1.5575,-0.012322,0.067344,-0.789828,-0.08078,0.12964,0.47334
0.842422,0,0,14.1576,14.1576,15.8424,15.8424,-0.561615,1.50809,0.485935,-0.206437,-0.0281846,-0.0402908,0,0,3.4825,0.3325,-1.7675,-0.221186,-0.006222,-1.05225,-0.08078,0.12964,0.47334
0.795287,0,0,14.2047,14.2047,15.7953,15.7953,-0.530191,1.29249,0.689711,-0.202676,-0.0276372,-0.0401936,0,0,6.125,0.49,-1.925,-0.221186,-0.006222,-1.05225,-0.08078,0.12964,0.47334
0.538855,0,0,14.4611,14.4611,15.5389,15.5389,-0.359237,1.05521,0.918367,-0.219066,-0.167177,0.00614303,0,0,6.3175,0.245,-1.855,-0.241804,-0.148596,-1.00638,-0.08078,0.12964,0.47334
0.29036,0,0,14.7096,14.7096,15.2904,15.2904,-0.193573,0.823579,1.13964,-0.215024,-0.164286,0.00622325,0,0,5.0225,0.6825,-1.715,-0.241804,-0.148596,-1.00638,-0.07574,0.13314,0.47138
0.28761,0,0,14.7124,14.7124,15.2876,15.2876,-0.19174,0.823835,1.13875,0.0422781,-0.0227092,0.102369,1,0,4.48,0.2625,-1.5925,0.016592,-0.007198,-0.910974,-0.07574,0.13314,0.47138
0.28486,0,0,14.7151,14.7151,15.2849,15.2849,-0.189907,0.824091,1.13786,0.0422736,-0.0226773,0.102369,1,0,4.48,0.2625,-1.5925,0.016592,-0.007198,-0.910974,-0.07574,0.13314,0.47138
0.117919,0,0,14.8821,14.8821,15.1179,15.1179,-0.0786129,0.869733,1.11021,0.0407482,-0.116727,-0.041242,0,0,2.0475,0.7,-1.645,0.01586,-0.10309,-1.05347,-0.07574,0.13314,0.47138
0.12402,0,0,14.876,14.876,15.124,15.124,-0.0826801,0.870259,1.10929,0.285533,0.0577215,0.276948,1,0,1.1725,0.42,-1.61,0.26169,0.071248,-0.737734,-0.07574,0.13314,0.47138
0.128461,0,0,14.8715,14.8715,15.1285,15.1285,-0.0856407,0.870369,1.1093,0.285531,0.0576698,0.276948,1,0,1.785,0.175,-1.0675,0.26169,0.071248,-0.737734,-0.07574,0.13314,0.47138
-0.0192262,0,0,15.0192,15.0192,14.9808,14.9808,0.0128175,0.929142,1.06842,0.0530748,-0.0983997,-0.00793832,0,0,3.0975,-0.5775,-0.8225,0.02928,-0.086376,-1.02041,-0.07574,0.13314,0.47138
-0.169003,0,0,15.169,15.169,14.831,14.831,0.112669,0.987283,1.02817,0.0520602,-0.0966572,-0.0079572,0,0,4.8475,-0.2625,-0.595,0.02928,-0.086376,-1.02041,-0.07574,0.13314,0.47138
-0.420967,0,0,15.421,15.421,14.579,14.579,0.280645,1.00733,1.03339,0.0116201,-0.148439,0.0981312,0,0,4.4625,0.105,-0.7175,-0.01098,-0.141032,-0.915122,-0.07588,0.12698,0.46354
0.153626,0,0,14.8464,14.8464,15.1536,15.1536,-0.102418,1.22416,0.847939,0.202092,0.384555,0.0886009,0,0,5.1975,-0.28,-0.28,0.184098,0.398086,-0.924516,-0.07588,0.12698,0.46354
0.724072,0,0,14.2759,14.2759,15.7241,15.7241,-0.482715,1.43783,0.659733,0.198364,0.37792,0.0884804,0,0,3.3775,0,-0.56,0.184098,0.398086,-0.924516,-0.07588,0.12698,0.46354
0.724983,0,0,14.275,14.275,15.725,15.725,-0.483322,1.43758,0.660225,0.299809,-0.265577,-0.134548,1,0,3.0975,-0.035,-0.7875,0.285968,-0.244732,-1.14582,-0.07588,0.12698,0.46354
0.729683,0,0,14.2703,14.2703,15.7297,15.7297,-0.486455,1.43779,0.660835,-0.130983,-0.0317586,-0.0997543,1,0,1.68,0.2275,-0.7175,-0.146644,-0.011102,-1.1113,-0.07588,0.12698,0.46354
0.733451,0,0,14.2665,14.2665,15.7335,15.7335,-0.488967,1.43802,0.661293,-0.130987,-0.0318025,-0.0997548,1,0,2.03,0.245,-0.805,-0.146644,-0.011102,-1.1113,-0.07588,0.12698,0.46354
0.736573,0,0,14.2634,14.2634,15.7366,15.7366,-0.491048,1.43768,0.661517,-0.0222516,0.181517,-0.0953288,1,0,2.275,-0.0875,-0.945,-0.037454,0.202032,-1.10691,-0.07588,0.12698,0.46354
0.73703,0,0,14.263,14.263,15.737,15.737,-0.491353,1.43654,0.661628,-0.0222317,0.181511,-0.0953284,1,0,3.2725,-0.56,-1.015,-0.037454,0.202032,-1.10691,-0.07588,0.12698,0.46354
0.735213,0,0,14.2648,14.2648,15.7352,15.7352,-0.490142,1.4359,0.661194,0.367992,-0.359367,-0.101352,1,0,4.13,-0.2625,-1.33,0.35441,-0.338306,-1.11288,-0.07854,0.13104,0.4697
0.733125,0,0,14.2669,14.2669,15.7331,15.7331,-0.48875,1.43606,0.660513,0.0228479,-0.144522,-0.175244,1,0,4.235,0.21,-1.47,0.007808,-0.123708,-1.18621,-0.07854,0.13104,0.4697
0.731653,0,0,14.2683,14.2683,15.7317,15.7317,-0.487769,1.4353,0.659631,0.0228612,-0.144505,-0.175244,1,0,4.0075,-0.3325,-1.5925,0.007808,-0.123708,-1.18621,-0.07854,0.13104,0.4697
0.731907,0,0,14.2681,14.2681,15.7319,15.7319,-0.487938,1.4351,0.658923,-0.301867,0.119408,-0.153605,1,0,3.36,0,-1.4875,-0.318298,0.139934,-1.16473,-0.07854,0.13104,0.4697
0.732161,0,0,14.2678,14.2678,15.7322,15.7322,-0.488107,1.43491,0.658216,-0.301863,0.119405,-0.153605,1,0,3.36,0,-1.4875,-0.318298,0.139934,-1.16473,-0.07854,0.13104,0.4697
0.61808,0,0,14.3819,14.3819,15.6181,15.6181,-0.412053,1.15226,0.923704,-0.247973,-0.0728393,0.061554,0,0,3.9725,0.6125,-1.1725,-0.269132,-0.053436,-0.951356,-0.07854,0.13104,0.4697
0.506081,0,0,14.4939,14.4939,15.5061,15.5061,-0.337387,0.874873,1.18795,-0.243132,-0.0715369,0.0616481,0,0,3.9725,0.6125,-1.1725,-0.269132,-0.053436,-0.951356,-0.07854,0.13104,0.4697
0.6701,0,0,14.3299,14.3299,15.6701,15.6701,-0.446733,0.443877,1.59783,-0.385402,0.103272,0.0934423,0,0,3.325,0.245,-1.4175,-0.419558,0.123098,-0.91988,-0.07112,0.12936,0.46816
0.506453,0,0,14.4935,14.4935,15.5065,15.5065,-0.337635,0.464812,1.60184,0.0152567,-0.0990203,0.0972639,0,0,2.7825,-0.77,-0.9275,-0.016836,-0.080886,-0.916098,-0.07112,0.12936,0.46816
0.615753,0,0,14.3842,14.3842,15.6158,15.6158,-0.410502,0.0530844,2.00164,-0.388543,0.0695861,0.0334778,0,0,2.0125,0.2975,-0.9975,-0.429562,0.088816,-0.979416,-0.07112,0.12936,0.46816
0.722303,0,0,14.2777,14.2777,15.7223,15.7223,-0.481535,-0.351707,2.40182,-0.381479,0.0683465,0.0334497,0,0,2.485,0.0875,-0.945,-0.429562,0.088816,-0.979416,-0.07112,0.12936,0.46816
0.723985,0,0,14.276,14.276,15.724,15.724,-0.482656,-0.352462,2.40214,-0.0354741,-0.0585627,-0.141752,1,0,2.8175,-0.3325,-0.8925,-0.082106,-0.037942,-1.15327,-0.07112,0.12936,0.46816
0.723561,0,0,14.2764,14.2764,15.7236,15.7236,-0.482374,-0.352557,2.40263,-0.0354725,-0.0585578,-0.141752,1,0,3.605,0.0525,-0.7875,-0.082106,-0.037942,-1.15327,-0.07112,0.12936,0.46816
0.582034,0,0,14.418,14.418,15.582,15.582,-0.388023,-0.0211558,2.13311,0.286269,-0.0870766,0.0847504,0,0,4.97,0.21,-0.8575,0.246806,-0.068076,-0.928542,-0.07112,0.12936,0.46816
0.443873,0,0,14.5561,14.5561,15.4439,15.4439,-0.295916,0.30461,1.86503,0.280583,-0.085469,0.0847459,0,0,4.6725,0.4725,-0.805,0.246806,-0.068076,-0.928542,-0.07112,0.12936,0.46816
0.145286,0,0,14.8547,14.8547,15.1453,15.1453,-0.0968573,0.213213,1.96809,-0.0860447,-0.192275,0.0384135,0,0,4.0775,0.1925,-1.015,-0.122976,-0.178242,-0.974536,-0.06986,0.13258,0.47362
-0.143919,0,0,15.1439,15.1439,14.8561,14.8561,0.0959457,0.123656,2.07053,-0.0844816,-0.18891,0.0384181,0,0,2.485,0.315,-0.875,-0.122976,-0.178242,-0.974536,-0.06986,0.13258,0.47362
-0.140556,0,0,15.1406,15.1406,14.8594,14.8594,0.0937041,0.123436,2.07111,0.39782,0.0776533,0.235136,1,0,2.1875,-0.0175,-0.735,0.361364,0.088084,-0.779336,-0.06986,0.13258,0.47362
-0.139066,0,0,15.1391,15.1391,14.8609,14.8609,0.0927107,0.123336,2.07149,0.397822,0.077636,0.235136,1,0,2.8875,0.0525,-0.8575,0.361364,0.088084,-0.779336,-0.06986,0.13258,0.47362
0.0222902,0,0,14.9777,14.9777,15.0223,15.0223,-0.0148601,0.157983,2.0638,0.0353116,0.110076,-0.0358429,0,0,3.115,0.21,-1.33,-0.002074,0.122366,-1.04822,-0.06986,0.13258,0.47362
0.178118,0,0,14.8219,14.8219,15.1781,15.1781,-0.118745,0.191184,2.05612,0.0347321,0.108263,-0.0358468,0,0,4.13,-0.28,-1.295,-0.002074,0.122366,-1.04822,-0.06986,0.13258,0.47362
0.175631,0,0,14.8244,14.8244,15.1756,15.1756,-0.117087,0.190993,2.05577,-0.145306,-0.0941942,0.165051,1,0,4.375,0,-1.2775,-0.182878,-0.07991,-0.848876,-0.06986,0.13258,0.47362
0.170475,0,0,14.8295,14.8295,15.1705,15.1705,-0.11365,0.191281,2.05545,-0.145311,-0.0941342,0.165051,1,0,5.3725,0.28,-1.26,-0.182878,-0.07991,-0.848876,-0.06986,0.13258,0.47362
0.0583956,0,0,14.9416,14.9416,15.0584,15.0584,-0.0389304,0.092617,2.16959,-0.0877059,-0.0679162,0.0519446,0,0,5.1275,0.42,-1.365,-0.126758,-0.055022,-0.961116,-0.06972,0.13104,0.47362
0.0558615,0,0,14.9441,14.9441,15.0559,15.0559,-0.037241,0.0937416,2.16915,0.0615803,-0.0770463,0.20981,1,0,4.3925,0.77,-1.33,0.02318,-0.064172,-0.804468,-0.06972,0.13104,0.47362
0.0556233,0,0,14.9444,14.9444,15.0556,15.0556,-0.0370822,0.0944177,2.16806,0.0615685,-0.0770435,0.20981,1,0,3.535,0.5075,-1.715,0.02318,-0.064172,-0.804468,-0.06972,0.13104,0.47362
0.152235,0,0,14.8478,14.8478,15.1522,15.1522,-0.10149,0.00120813,2.27987,-0.0875684,0.0656977,-0.0402668,0,0,3.1675,0.6475,-1.5575,-0.128222,0.079544,-1.05262,-0.06972,0.13104,0.47362
0.247973,0,0,14.752,14.752,15.248,15.248,-0.165315,-0.0901209,2.39206,-0.0859744,0.0645837,-0.0402706,0,0,2.87,0.7,-1.365,-0.128222,0.079544,-1.05262,-0.06972,0.13104,0.47362
0.342812,0,0,14.6572,14.6572,15.3428,15.3428,-0.228542,0.110083,2.23745,0.17294,0.0572518,0.0776326,0,0,2.5025,0.1575,-1.2775,0.135298,0.073322,-0.935618,-0.06972,0.13104,0.47362
0.436086,0,0,14.5639,14.5639,15.4361,15.4361,-0.290724,0.30535,2.08308,0.169532,0.0561665,0.0776153,0,0,2.5025,-0.5775,-1.05,0.135298,0.073322,-0.935618,-0.06972,0.13104,0.47362
0.375047,0,0,14.625,14.625,15.375,15.375,-0.250031,0.147047,2.25019,-0.135792,-0.0400919,0.0733264,0,0,2.59,-0.245,-0.91,-0.174094,-0.023546,-0.939888,-0.06972,0.13104,0.47362
0.310585,0,0,14.6894,14.6894,15.3106,15.3106,-0.207056,-0.00804235,2.42095,-0.133086,-0.0393419,0.0733327,0,0,4.2875,0.105,-0.6825,-0.174094,-0.023546,-0.939888,-0.07224,0.12866,0.47292
0.457194,0,0,14.5428,14.5428,15.4572,15.4572,-0.304796,0.13407,2.32385,0.13559,0.101352,-0.0113892,0,0,4.375,0.28,-0.7,0.09821,0.118706,-1.02395,-0.07224,0.12866,0.47292
0.601814,0,0,14.3982,14.3982,15.6018,15.6018,-0.401209,0.272939,2.22665,0.133166,0.0996694,-0.0114082,0,0,4.1825,-0.105,-0.6125,0.09821,0.118706,-1.02395,-0.07224,0.12866,0.47292
0.392452,0,0,14.6075,14.6075,15.3925,15.3925,-0.261635,0.401451,2.13616,0.102982,-0.126638,0.0946973,0,0,3.815,0.3675,-0.56,0.07015,-0.1098,-0.91866,-0.07224,0.12866,0.47292
0.188408,0,0,14.8116,14.8116,15.1884,15.1884,-0.125605,0.527096,2.04687,0.100789,-0.124264,0.0946875,0,0,3.185,0.1575,-0.2625,0.07015,-0.1098,-0.91866,-0.07224,0.12866,0.47292
0.189226,0,0,14.8108,14.8108,15.1892,15.1892,-0.12615,0.527,2.04817,0.155338,-0.0900779,-0.253871,1,0,3.1325,0.0525,-0.315,0.124928,-0.07564,-1.26453,-0.07224,0.12866,0.47292
0.188511,0,0,14.8115,14.8115,15.1885,15.1885,-0.125674,0.527856,2.04856,0.155323,-0.0900695,-0.253872,1,0,3.71,0.6125,-0.84,0.124928,-0.07564,-1.26453,-0.07224,0.12866,0.47292
0.187621,0,0,14.8124,14.8124,15.1876,15.1876,-0.125081,0.528413,2.04806,0.134418,0.29061,-0.20752,1,0,3.78,0.4375,-1.365,0.103944,0.304634,-1.21854,-0.07224,0.12866,0.47292
0.187717,0,0,14.8123,14.8123,15.1877,15.1877,-0.125144,0.527744,2.04745,0.134429,0.290609,-0.20752,1,0,3.4125,-0.28,-1.435,0.103944,0.304634,-1.21854,-0.07224,0.12866,0.47292
0.186777,0,0,14.8132,14.8132,15.1868,15.1868,-0.124518,0.527016,2.04719,0.158375,0.270347,-0.0850631,1,0,3.7975,-0.315,-1.225,0.127978,0.284382,-1.09702,-0.0721,0.13314,0.47124
0.185802,0,0,14.8142,14.8142,15.1858,15.1858,-0.123868,0.526884,2.04612,0.158377,0.270358,-0.0850631,1,0,3.815,0.035,-1.6975,0.127978,0.284382,-1.09702,-0.0721,0.13314,0.47124
0.379087,0,0,14.6209,14.6209,15.3791,15.3791,-0.252725,0.500984,2.085,-0.0204839,0.119725,0.0828812,0,0,4.585,0.1925,-2.1525,-0.052094,0.136152,-0.930372,-0.0721,0.13314,0.47124
0.569039,0,0,14.431,14.431,15.569,15.569,-0.379359,0.475596,2.12399,-0.0200409,0.117515,0.0828728,0,0,4.585,0.1925,-2.1525,-0.052094,0.136152,-0.930372,-0.0721,0.13314,0.47124
0.567267,0,0,14.4327,14.4327,15.5673,15.5673,-0.378178,0.467991,2.12285,-0.322407,0.0167811,0.258936,1,0,4.1125,-4.34,-1.7675,-0.355874,0.035502,-0.755668,-0.0721,0.13314,0.47124
0.565495,0,0,14.4345,14.4345,15.5655,15.5655,-0.376996,0.460386,2.12171,-0.322275,0.0168017,0.258937,1,0,4.1125,-4.34,-1.7675,-0.355874,0.035502,-0.755668,-0.0721,0.13314,0.47124
0.347059,0,0,14.6529,14.6529,15.3471,15.3471,-0.231373,0.62246,1.98844,0.138243,-0.139055,0.0575346,0,0,3.5875,0.7175,-1.8725,0.109434,-0.122732,-0.955504,-0.0721,0.13314,0.47124
0.132396,0,0,14.8676,14.8676,15.1324,15.1324,-0.0882639,0.781448,1.85612,0.135468,-0.136557,0.0575076,0,0,3.5875,0.7175,-1.8725,0.109434,-0.122732,-0.955504,-0.0721,0.13314,0.47124
-0.17592,0,0,15.1759,15.1759,14.8241,14.8241,0.11728,0.981965,1.68924,0.190039,-0.212353,0.00999471,0,0,2.625,-4.4275,-1.155,0.16775,-0.202032,-1.0026,-0.07364,0.1267,0.46466
-0.143082,0,0,15.1431,15.1431,14.8569,14.8569,0.0953879,0.919247,1.76426,-0.0548747,0.018451,0.023292,0,0,1.9425,-0.245,-0.875,-0.0793,0.028914,-0.98942,-0.07364,0.1267,0.46466
-0.112511,0,0,15.1125,15.1125,14.8875,14.8875,0.0750072,0.859853,1.83979,-0.0538382,0.0180954,0.0233086,0,0,2.5725,0.9975,-0.525,-0.0793,0.028914,-0.98942,-0.07364,0.1267,0.46466
-0.110958,0,0,15.111,15.111,14.889,14.889,0.0739723,0.860947,1.84124,0.13153,-0.123834,0.18351,1,0,2.8525,0.7525,-0.2275,0.106872,-0.11285,-0.830454,-0.07364,0.1267,0.46466
-0.111187,0,0,15.1112,15.1112,14.8888,14.8888,0.0741248,0.860725,1.84278,0.131534,-0.123831,0.18351,1,0,3.5175,-0.0175,-0.175,0.106872,-0.11285,-0.830454,-0.07364,0.1267,0.46466
-0.110619,0,0,15.1106,15.1106,14.8894,14.8894,0.0737458,0.85922,1.84426,-0.0414356,-0.290541,-0.152753,1,0,3.22,-0.77,-0.21,-0.066856,-0.27938,-1.16412,-0.07364,0.1267,0.46466
-0.113964,0,0,15.114,15.114,14.886,14.886,0.075976,0.858369,1.84697,-0.0414208,-0.290502,-0.152753,1,0,4.6725,-0.385,0.5075,-0.066856,-0.27938,-1.16412,-0.07364,0.1267,0.46466
-0.269266,0,0,15.2693,15.2693,14.7307,14.7307,0.179511,1.15624,1.60067,0.274103,-0.104284,0.0206317,0,0,4.165,0.4375,0.455,0.255224,-0.09516,-0.991982,-0.07364,0.1267,0.46466
-0.423254,0,0,15.4233,15.4233,14.5767,14.5767,0.282169,1.4482,1.34484,0.269009,-0.102493,0.0205086,0,0,4.725,0.2975,-0.1925,0.255224,-0.09516,-0.991982,-0.07644,0.1337,0.47208
-0.423535,0,0,15.4235,15.4235,14.5765,14.5765,0.282357,1.44869,1.34591,0.0899305,0.13871,0.169153,1,0,3.535,0.4025,-0.455,0.075396,0.14579,-0.844484,-0.07644,0.1337,0.47208
-0.421972,0,0,15.422,15.422,14.578,14.578,0.281315,1.44877,1.34649,0.0899292,0.138692,0.169153,1,0,2.8525,0.1575,-0.735,0.075396,0.14579,-0.844484,-0.07644,0.1337,0.47208
-0.420345,0,0,15.4203,15.4203,14.5797,14.5797,0.28023,1.44957,1.34662,-0.148318,-0.0198473,0.162145,1,0,2.835,0.5775,-0.9975,-0.163846,-0.012566,-0.851438,-0.07644,0.1337,0.47208
-0.418757,0,0,15.4188,15.4188,14.5812,14.5812,0.279172,1.44992,1.34532,-0.148324,-0.0198658,0.162145,1,0,2.87,0.315,-1.8375,-0.163846,-0.012566,-0.851438,-0.07644,0.1337,0.47208
0.0360319,0,0,14.964,14.964,15.036,15.036,-0.0240213,1.32867,1.45206,-0.111464,0.310937,0.0242597,0,0,3.78,-0.4375,-1.89,-0.128954,0.323178,-0.988322,-0.07644,0.1337,0.47208
0.483294,0,0,14.5167,14.5167,15.4833,15.4833,-0.322196,1.21003,1.55946,-0.109394,0.305734,0.0242898,0,0,3.7975,-0.14,-2.205,-0.128954,0.323178,-0.988322,-0.07644,0.1337,0.47208
0.479979,0,0,14.52,14.52,15.48,15.48,-0.319986,1.20842,1.5575,0.23286,0.220406,-0.186689,1,0,4.7075,-0.8225,-2.2225,0.21472,0.2379,-1.19767,-0.07644,0.1337,0.47208
0.476731,0,0,14.5233,14.5233,15.4767,15.4767,-0.317821,1.20801,1.55484,0.232867,0.220444,-0.186689,1,0,4.69,-0.1225,-2.625,0.21472,0.2379,-1.19767,-0.07322,0.12992,0.47054
0.4762,0,0,14.5238,14.5238,15.4762,15.4762,-0.317467,1.20885,1.55218,-0.191011,-0.0615407,-0.0920185,1,0,3.675,0.6125,-2.625,-0.210938,-0.043798,-1.10373,-0.07322,0.12992,0.47054
0.478885,0,0,14.5211,14.5211,15.4789,15.4789,-0.319257,1.20865,1.54997,-0.191008,-0.0615719,-0.0920186,1,0,2.4675,0,-2.3625,-0.210938,-0.043798,-1.10373,-0.07322,0.12992,0.47054
0.484652,0,0,14.5153,14.5153,15.4847,15.4847,-0.323101,1.20845,1.54803,-0.0225038,0.115567,-0.183739,1,0,1.3125,0,-2.205,-0.041724,0.133224,-1.19475,-0.07322,0.12992,0.47054
0.488513,0,0,14.5115,14.5115,15.4885,15.4885,-0.325676,1.20879,1.54711,-0.0225098,0.115522,-0.183739,1,0,2.0125,0.315,-1.61,-0.041724,0.133224,-1.19475,-0.07322,0.12992,0.47054
0.260074,0,0,14.7399,14.7399,15.2601,15.2601,-0.173383,0.940995,1.80281,-0.227399,-0.140119,0.129387,0,0,2.9575,1.19,-1.4,-0.252174,-0.124806,-0.884134,-0.07322,0.12992,0.47054
0.0343542,0,0,14.9656,14.9656,15.0344,15.0344,-0.0229028,0.677405,2.0577,-0.222799,-0.137493,0.129457,0,0,3.395,0.805,-0.7525,-0.252174,-0.124806,-0.884134,-0.07322,0.12992,0.47054
0.0343221,0,0,14.9657,14.9657,15.0343,15.0343,-0.0228814,0.677843,2.05912,0.201542,0.179426,-0.103531,1,0,3.4475,0.3675,-0.245,0.173972,0.191784,-1.11532,-0.07322,0.12992,0.47054
0.0357314,0,0,14.9643,14.9643,15.0357,15.0357,-0.0238209,0.677177,2.06111,0.201554,0.17941,-0.103531,1,0,2.905,-0.28,0.0875,0.173972,0.191784,-1.11532,-0.07294,0.13202,0.47292
0.392107,0,0,14.6079,14.6079,15.3921,15.3921,-0.261405,0.71479,2.04438,0.0407795,0.246219,-0.000764023,0,0,3.885,-0.5075,0.315,0.013176,0.262666,-1.01333,-0.07294,0.13202,0.47292
0.742207,0,0,14.2578,14.2578,15.7422,15.7422,-0.494805,0.752854,2.02773,0.0401152,0.242146,-0.000799411,0,0,3.99,0.1225,0.4375,0.013176,0.262666,-1.01333,-0.07294,0.13202,0.47292
0.739156,0,0,14.2608,14.2608,15.7392,15.7392,-0.492771,0.752685,2.03017,-0.192162,-0.333157,-0.072478,1,0,4.5675,0,0.35,-0.220088,-0.312076,-1.08446,-0.07294,0.13202,0.47292
0.741408,0,0,14.2586,14.2586,15.7414,15.7414,-0.494272,0.752302,2.03196,-0.192156,-0.333184,-0.0724782,1,0,2.59,-0.1225,-0.035,-0.220088,-0.312076,-1.08446,-0.07294,0.13202,0.47292
0.342537,0,0,14.6575,14.6575,15.3425,15.3425,-0.228358,0.524274,2.25328,-0.225108,-0.282257,0.0102168,0,0,2.6425,0.245,-0.14,-0.257176,-0.265838,-1.00247,-0.07294,0.13202,0.47292
-0.0516861,0,0,15.0517,15.0517,14.9483,14.9483,0.0344574,0.301031,2.47123,-0.221212,-0.27767,0.0102526,0,0,3.36,0.7,-0.63,-0.257176,-0.265838,-1.00247,-0.07294,0.13202,0.47292
-0.399272,0,0,15.3993,15.3993,14.6007,14.6007,0.266181,0.567626,2.24753,0.237118,-0.234301,0.05496,0,0,2.4325,0.9975,-0.98,0.207766,-0.226554,-0.958066,-0.07294,0.13202,0.47292
-0.743816,0,0,15.7438,15.7438,14.2562,14.2562,0.495878,0.828718,2.02661,0.232561,-0.230293,0.0548778,0,0,3.4475,-0.2275,-1.4525,0.207766,-0.226554,-0.958066,-0.07714,0.1316,0.47656
-0.345756,0,0,15.3458,15.3458,14.6542,14.6542,0.230504,0.937725,1.94042,0.0948376,0.247232,0.107377,0,0,2.835,-0.49,-1.75,0.07137,0.255102,-0.905972,-0.07714,0.1316,0.47656
0.042683,0,0,14.9573,14.9573,15.0427,15.0427,-0.0284553,1.04457,1.85286,0.0929731,0.242713,0.107353,0,0,3.99,-0.63,-2.1525,0.07137,0.255102,-0.905972,-0.07714,0.1316,0.47656
0.257158,0,0,14.7428,14.7428,15.2572,15.2572,-0.171439,0.755796,2.12102,-0.261342,0.14447,0.0410352,0,0,4.9525,-0.5425,-2.625,-0.289506,0.159454,-0.971852,-0.07714,0.1316,0.47656
0.469136,0,0,14.5309,14.5309,15.4691,15.4691,-0.312758,0.473297,2.39012,-0.256412,0.142004,0.0410777,0,0,4.6025,0.105,-2.6425,-0.289506,0.159454,-0.971852,-0.07714,0.1316,0.47656
0.332517,0,0,14.6675,14.6675,15.3325,15.3325,-0.221678,0.725715,2.17606,0.250395,-0.09663,-0.0538772,0,0,4.5325,-0.0175,-2.3975,0.22387,-0.08052,-1.06604,-0.07714,0.1316,0.47656
0.19832,0,0,14.8017,14.8017,15.1983,15.1983,-0.132213,0.973468,1.96306,0.246071,-0.0950685,-0.0539365,0,0,4.5325,-0.0175,-2.3975,0.22387,-0.08052,-1.06604,-0.07714,0.1316,0.47656
0.201906,0,0,14.7981,14.7981,15.2019,15.2019,-0.134604,0.974918,1.96172,-0.242448,0.0157809,-0.0795104,1,0,2.1175,0.9625,-1.855,-0.266692,0.030256,-1.09141,-0.07714,0.1316,0.47656
0.205492,0,0,14.7945,14.7945,15.2055,15.2055,-0.136994,0.976368,1.96037,-0.242474,0.0157392,-0.0795109,1,0,2.1175,0.9625,-1.855,-0.266692,0.030256,-1.09141,-0.07714,0.1316,0.47656
0.209454,0,0,14.7905,14.7905,15.2095,15.2095,-0.139636,0.976867,1.96077,0.246376,-0.31637,0.202164,1,0,1.96,0.4025,-0.84,0.224236,-0.301462,-0.81191,-0.07294,0.12796,0.46998
0.211851,0,0,14.7881,14.7881,15.2119,15.2119,-0.141234,0.976979,1.96198,-0.456664,0.175407,-0.0852898,1,0,2.5375,0.175,-0.3675,-0.481778,0.189832,-1.09715,-0.07294,0.12796,0.46998
0.214248,0,0,14.7858,14.7858,15.2142,15.2142,-0.142832,0.977091,1.96319,-0.456665,0.175379,-0.0852899,1,0,2.5375,0.175,-0.3675,-0.481778,0.189832,-1.09715,-0.07294,0.12796,0.46998
0.0140625,0,0,14.9859,14.9859,15.0141,15.0141,-0.00937498,0.9305,2.02396,-0.0465671,-0.137745,-0.0353562,0,0,4.62,0.105,0.315,-0.07076,-0.125294,-1.04761,-0.07294,0.12796,0.46998
0.00983931,0,0,14.9902,14.9902,15.0098,15.0098,-0.00655954,0.931357,2.02598,-0.0434234,-0.502855,-0.00486522,1,0,5.005,0.6125,0.105,-0.067588,-0.490074,-1.01736,-0.07294,0.12796,0.46998
0.00441123,0,0,14.9956,14.9956,15.0044,15.0044,-0.00294082,0.930869,2.02749,-0.0434149,-0.502792,-0.00486508,1,0,5.46,-0.175,-0.1925,-0.067588,-0.490074,-1.01736,-0.07294,0.12796,0.46998
0.00464923,0,0,14.9954,14.9954,15.0046,15.0046,-0.00309948,0.931008,2.02897,-0.0700227,-0.00671601,0.174886,1,0,3.3425,0.1925,-0.21,-0.094306,0.00549,-0.838994,-0.07294,0.12796,0.46998
0.00438606,0,0,14.9956,14.9956,15.0044,15.0044,-0.00292404,0.932581,2.02988,-0.0700502,-0.00671295,0.174885,1,0,3.535,1.0325,-0.5425,-0.094306,0.00549,-0.838994,-0.06496,0.13314,0.47208
0.417717,0,0,14.5823,14.5823,15.4177,15.4177,-0.278478,1.07524,1.90893,0.126089,0.262042,0.100077,0,0,3.0275,0.5775,-0.9275,0.105164,0.27877,-0.91317,-0.06496,0.13314,0.47208
0.826802,0,0,14.1732,14.1732,15.8268,15.8268,-0.551201,1.21456,1.78613,0.123658,0.257284,0.099994,0,0,2.1175,0.07,-1.4175,0.105164,0.27877,-0.91317,-0.06496,0.13314,0.47208
0.829601,0,0,14.1704,14.1704,15.8296,15.8296,-0.553068,1.2137,1.78474,-0.28051,0.0285081,-0.120944,1,0,2.415,-0.385,-1.89,-0.30073,0.050264,-1.1324,-0.06496,0.13314,0.47208
0.829842,0,0,14.1702,14.1702,15.8298,15.8298,-0.553228,1.21227,1.78284,-0.280485,0.0285053,-0.120944,1,0,3.3775,-0.7175,-2.1875,-0.30073,0.050264,-1.1324,-0.06496,0.13314,0.47208
0.930952,0,0,14.069,14.069,15.931,15.931,-0.620634,1.03794,1.94551,-0.151705,0.0626231,0.0827064,0,0,4.1125,-0.735,-2.31,-0.17446,0.085522,-0.930372,-0.06496,0.13314,0.47208
1.02758,0,0,13.9724,13.9724,16.0276,16.0276,-0.685053,0.867814,2.10721,-0.148736,0.0614984,0.082743,0,0,5.1625,-0.105,-2.975,-0.17446,0.085522,-0.930372,-0.06496,0.13314,0.47208
1.03795,0,0,13.9621,13.9621,16.0379,16.0379,-0.691964,1.03913,1.95398,0.157455,0.00923033,0.0337583,0,0,4.935,0.1575,-2.8175,0.13603,0.033428,-0.978928,-0.06496,0.13314,0.47208
1.05004,0,0,13.95,13.95,16.05,16.05,-0.700026,1.20697,1.80193,0.154527,0.00909035,0.0336992,0,0,4.235,-0.07,-2.205,0.13603,0.033428,-0.978928,-0.06496,0.13314,0.47208
0.618947,0,0,14.3811,14.3811,15.6189,15.6189,-0.412631,1.54529,1.49439,0.317003,-0.295485,0.0856133,0,0,3.5875,0.07,-1.925,0.305122,-0.275842,-0.927322,-0.06888,0.13132,0.47614
0.768814,0,0,14.2312,14.2312,15.7688,15.7688,-0.512542,1.04643,1.95677,-0.489097,0.099926,0.0719029,0,0,2.59,0.6125,-1.225,-0.513132,0.120902,-0.941108,-0.06888,0.13132,0.47614
0.917977,0,0,14.082,14.082,15.918,15.918,-0.611984,0.556991,2.42128,-0.480556,0.0981895,0.0720054,0,0,2.1175,1.365,-0.525,-0.513132,0.120902,-0.941108,-0.06888,0.13132,0.47614
0.922862,0,0,14.0771,14.0771,15.9229,15.9229,-0.615242,0.557506,2.42291,-0.111005,0.178736,0.209461,1,0,1.61,0.4025,-0.1225,-0.142008,0.201422,-0.804712,-0.06888,0.13132,0.47614
0.926666,0,0,14.0733,14.0733,15.9267,15.9267,-0.617777,0.557548,2.4249,-0.111006,0.178692,0.209461,1,0,2.0125,0.1225,0.0875,-0.142008,0.201422,-0.804712,-0.06888,0.13132,0.47614
0.92794,0,0,14.0721,14.0721,15.9279,15.9279,-0.618627,0.557022,2.42692,0.196969,-0.30983,-0.152131,1,0,2.9575,-0.21,0.105,0.167262,-0.286578,-1.16351,-0.06888,0.13132,0.47614
0.925595,0,0,14.0744,14.0744,15.9256,15.9256,-0.617064,0.557253,2.42993,0.196965,-0.309802,-0.152131,1,0,4.305,0.2275,0.6825,0.167262,-0.286578,-1.16351,-0.06888,0.13132,0.47614
0.920671,0,0,14.0793,14.0793,15.9207,15.9207,-0.61378,0.556322,2.43325,0.113399,0.118798,-0.25553,1,0,5.2675,-0.455,0.8575,0.083326,0.14152,-1.26612,-0.06888,0.13132,0.47614
0.917071,0,0,14.0829,14.0829,15.9171,15.9171,-0.611381,0.55571,2.43564,0.11341,0.118839,-0.255529,1,0,4.7775,-0.2625,0.315,0.083326,0.14152,-1.26612,-0.06818,0.13062,0.47362
0.855712,0,0,14.1443,14.1443,15.8557,15.8557,-0.570474,0.315758,2.67698,-0.222319,-0.0386011,0.0406931,0,0,5.4425,0.2975,0.035,-0.25803,-0.01647,-0.972218,-0.06818,0.13062,0.47362
0.797054,0,0,14.2029,14.2029,15.7971,15.7971,-0.531369,0.0803965,2.91668,-0.218211,-0.0379187,0.0407139,0,0,4.8475,0.4725,-0.5075,-0.25803,-0.01647,-0.972218,-0.06818,0.13062,0.47362
0.842386,0,0,14.1576,14.1576,15.8424,15.8424,-0.561591,-0.113634,3.12279,-0.16781,0.0281129,0.0898872,0,0,4.4975,0.5075,-0.84,-0.210816,0.05002,-0.923418,-0.06818,0.13062,0.47362
0.894254,0,0,14.1057,14.1057,15.8943,15.8943,-0.596169,-0.304026,3.32696,-0.164487,0.0275096,0.089869,0,0,1.785,0.5775,-1.9075,-0.210816,0.05002,-0.923418,-0.06818,0.13062,0.47362
0.772784,0,0,14.2272,14.2272,15.7728,15.7728,-0.515189,-0.114325,3.1781,0.162522,-0.0783045,0.0914932,0,0,1.96,-0.35,-1.9775,0.120902,-0.057096,-0.921832,-0.06818,0.13062,0.47362
0.652372,0,0,14.3476,14.3476,15.6524,15.6524,-0.434915,0.0724607,3.02891,0.159262,-0.0769036,0.091506,0,0,2.3625,0,-2.5725,0.120902,-0.057096,-0.921832,-0.06818,0.13062,0.47362
0.389586,0,0,14.6104,14.6104,15.3896,15.3896,-0.259724,0.416036,2.72882,0.328326,-0.184493,0.0322378,0,0,2.975,0.14,-3.29,0.296704,-0.167628,-0.980636,-0.06818,0.13062,0.47362
0.12998,0,0,14.87,14.87,15.13,15.13,-0.0866536,0.754736,2.42964,0.322415,-0.181472,0.0321865,0,0,3.43,0.1225,-3.4825,0.296704,-0.167628,-0.980636,-0.07112,0.13174,0.47208
0.129431,0,0,14.8706,14.8706,15.1294,15.1294,-0.0862874,0.754482,2.42629,-0.0274592,0.0438582,-0.101704,1,0,3.675,-0.035,-3.0275,-0.054656,0.057462,-1.11349,-0.07112,0.13174,0.47208
0.124135,0,0,14.8759,14.8759,15.1241,15.1241,-0.0827566,0.753811,2.42385,-0.0274475,0.0439198,-0.101704,1,0,5.4425,-0.28,-2.5025,-0.054656,0.057462,-1.11349,-0.07112,0.13174,0.47208
0.683444,0,0,14.3166,14.3166,15.6834,15.6834,-0.455629,0.446229,2.72115,-0.253996,0.339432,0.205201,0,0,5.04,-0.035,-1.96,-0.287554,0.359168,-0.808982,-0.07112,0.13174,0.47208
1.2345,0,0,13.7655,13.7655,16.2345,16.2345,-0.823,0.143549,3.02214,-0.248713,0.33302,0.205157,0,0,5.04,-0.035,-1.96,-0.287554,0.359168,-0.808982,-0.07112,0.13174,0.47208
1.23557,0,0,13.7644,13.7644,16.2356,16.2356,-0.823712,0.145188,3.02258,-0.0473183,0.122217,-0.226147,1,0,3.045,1.0675,-0.805,-0.085278,0.148596,-1.23696,-0.07112,0.13174,0.47208
1.23664,0,0,13.7634,13.7634,16.2366,16.2366,-0.824425,0.146827,3.02301,-0.047347,0.122204,-0.226147,1,0,3.045,1.0675,-0.805,-0.085278,0.148596,-1.23696,-0.07112,0.13174,0.47208
0.994361,0,0,14.0056,14.0056,15.9944,15.9944,-0.662907,-0.0134849,3.18419,-0.147204,-0.166249,0.0258141,0,0,2.1525,-4.165,-0.1575,-0.188368,-0.142374,-0.98698,-0.07112,0.13174,0.47208
0.756154,0,0,14.2438,14.2438,15.7562,15.7562,-0.504103,-0.171126,3.34425,-0.144453,-0.163478,0.0258379,0,0,2.1525,-4.165,-0.1575,-0.188368,-0.142374,-0.98698,-0.07238,0.13174,0.47432
0.756019,0,0,14.244,14.244,15.756,15.756,-0.504013,-0.170992,3.34705,0.603896,0.0966539,-0.13252,1,0,3.5,0.175,0.56,0.563152,0.117486,-1.14412,-0.07238,0.13174,0.47432
0.755885,0,0,14.2441,14.2441,15.7559,15.7559,-0.503923,-0.170858,3.34985,0.603894,0.0966555,-0.13252,1,0,3.5,0.175,0.56,0.563152,0.117486,-1.14412,-0.07238,0.13174,0.47432
0.998531,0,0,14.0015,14.0015,15.9985,15.9985,-0.665687,-0.133866,3.35082,0.0404053,0.169673,-0.00640165,0,0,4.585,0.2275,0.315,-0.002074,0.193248,-1.01894,-0.07238,0.13174,0.47432
1.2371,0,0,13.7629,13.7629,16.2371,16.2371,-0.824733,-0.0974518,3.35169,0.0397698,0.166897,-0.00643647,0,0,4.585,0.2275,0.315,-0.002074,0.193248,-1.01894,-0.07238,0.13174,0.47432
1.23101,0,0,13.769,13.769,16.231,16.231,-0.820673,-0.0980087,3.35315,-0.222265,-0.280382,-0.0625,1,0,5.7225,-0.2275,-0.2275,-0.265228,-0.253638,-1.07458,-0.07238,0.13174,0.47432
1.22492,0,0,13.7751,13.7751,16.2249,16.2249,-0.816613,-0.0985657,3.35461,-0.222255,-0.280311,-0.062499,1,0,5.7225,-0.2275,-0.2275,-0.265228,-0.253638,-1.07458,-0.07238,0.13174,0.47432
1.28956,0,0,13.7104,13.7104,16.2896,16.2896,-0.859706,-0.0232745,3.31164,0.077472,0.0444045,-0.0630004,0,0,1.715,-0.3325,-1.54,0.037088,0.071492,-1.07506,-0.07238,0.13174,0.47432
1.3608,0,0,13.6392,13.6392,16.3608,16.3608,-0.907199,0.156188,3.16444,0.172257,0.0463847,-0.00117371,0,0,1.7325,-0.2975,-1.8025,0.13542,0.074298,-1.0137,-0.07644,0.1372,0.4725
1.36473,0,0,13.6353,13.6353,16.3647,16.3647,-0.909823,0.155664,3.16215,0.0608641,-0.171902,-0.287276,1,0,1.9775,-0.175,-2.415,0.023546,-0.143716,-1.29759,-0.07644,0.1372,0.4725
1.36521,0,0,13.6348,13.6348,16.3652,16.3652,-0.910138,0.154921,3.15929,0.060877,-0.171907,-0.287276,1,0,3.2725,-0.2975,-2.7475,0.023546,-0.143716,-1.29759,-0.07644,0.1372,0.4725
1.36605,0,0,13.6339,13.6339,16.3661,16.3661,-0.910703,0.154805,3.15642,0.138873,0.178953,-0.185229,1,0,3.1325,0.07,-2.7475,0.10187,0.20679,-1.19633,-0.07644,0.1372,0.4725
1.35248,0,0,13.6475,13.6475,16.3525,16.3525,-0.901653,0.15425,3.15407,0.138883,0.179111,-0.185226,1,0,8.5225,-0.1925,-2.45,0.10187,0.20679,-1.19633,-0.07644,0.1372,0.4725
1.0445,0,0,13.9555,13.9555,16.0445,16.0445,-0.696331,0.537729,2.80871,0.353415,-0.205424,0.0877292,0,0,5.425,0.3325,-2.3625,0.324032,-0.180926,-0.925492,-0.07644,0.1372,0.4725
0.745905,0,0,14.2541,14.2541,15.7459,15.7459,-0.49727,0.915479,2.46687,0.346823,-0.201949,0.0876818,0,0,3.815,0.8575,-2.0475,0.324032,-0.180926,-0.925492,-0.07644,0.1372,0.4725
0.604973,0,0,14.395,14.395,15.605,15.605,-0.403315,0.966889,2.42097,0.0409965,-0.0877088,0.092475,0,0,3.325,0.385,-1.505,0.017812,-0.068442,-0.920734,-0.07644,0.1372,0.4725
0.47336,0,0,14.5266,14.5266,15.4734,15.4734,-0.315573,1.01927,2.38747,0.0400824,-0.0861776,0.0924687,0,0,0.7,0.8225,-0.91,0.017812,-0.068442,-0.920734,-0.07868,0.12978,0.47236
0.478999,0,0,14.521,14.521,15.479,15.479,-0.319333,1.01929,2.3882,-0.07047,-0.0809918,0.114722,1,0,1.33,0.1225,-0.6475,-0.093208,-0.063196,-0.898652,-0.07868,0.12978,0.47236
0.481351,0,0,14.5186,14.5186,15.4814,15.4814,-0.3209,1.01941,2.38929,-0.070472,-0.0810191,0.114722,1,0,2.555,0.175,-0.4375,-0.093208,-0.063196,-0.898652,-0.07868,0.12978,0.47236
0.482615,0,0,14.5174,14.5174,15.4826,15.4826,-0.321744,1.01949,2.39077,0.114671,-0.107169,0.141647,1,0,2.9575,0.1575,-0.21,0.09272,-0.089304,-0.871934,-0.07868,0.12978,0.47236
0.482164,0,0,14.5178,14.5178,15.4822,15.4822,-0.321443,1.01881,2.3934,0.114683,-0.107164,0.141648,1,0,3.5875,-0.2975,0.455,0.09272,-0.089304,-0.871934,-0.07868,0.12978,0.47236
0.482008,0,0,14.518,14.518,15.482,15.482,-0.321339,1.01947,2.39547,0.013352,-0.131709,0.116443,1,0,3.4825,0.49,0.14,-0.009028,-0.113826,-0.896944,-0.07868,0.12978,0.47236
0.475296,0,0,14.5247,14.5247,15.4753,15.4753,-0.316864,1.01911,2.39759,0.0133583,-0.131631,0.116444,1,0,5.9325,-0.105,0.1575,-0.009028,-0.113826,-0.896944,-0.07868,0.12978,0.47236
0.0658149,0,0,14.9342,14.9342,15.0658,15.0658,-0.0438766,0.943605,2.47706,-0.0771672,-0.286121,-0.00376247,0,0,5.6,-0.0175,-0.035,-0.10126,-0.272914,-1.01626,-0.07868,0.12978,0.47236
-0.333251,0,0,15.3333,15.3333,14.6667,14.6667,0.222167,0.869214,2.55254,-0.075869,-0.281478,-0.00374915,0,0,4.235,0.1575,-0.35,-0.10126,-0.272914,-1.01626,-0.0749,0.13132,0.46816
-0.333372,0,0,15.3334,15.3334,14.6666,14.6666,0.222248,0.868275,2.55345,0.189958,0.326959,-0.0953455,1,0,3.4825,-0.4375,-0.5425,0.165676,0.33489,-1.10715,-0.0749,0.13132,0.46816
-0.331731,0,0,15.3317,15.3317,14.6683,14.6683,0.221154,0.867101,2.55304,0.189979,0.32694,-0.0953452,1,0,2.835,-0.5775,-1.3125,0.165676,0.33489,-1.10715,-0.0749,0.13132,0.46816
-0.329688,0,0,15.3297,15.3297,14.6703,14.6703,0.219792,0.866649,2.55146,-0.0303886,0.0135387,0.148216,1,0,2.695,-0.1575,-1.995,-0.055632,0.021838,-0.865468,-0.0749,0.13132,0.46816
-0.32562,0,0,15.3256,15.3256,14.6744,14.6744,0.21708,0.866169,2.54934,-0.0303802,0.0134914,0.148216,1,0,1.9425,-0.175,-2.31,-0.055632,0.021838,-0.865468,-0.0749,0.13132,0.46816
-0.320468,0,0,15.3205,15.3205,14.6795,14.6795,0.213645,0.865421,2.54686,0.404187,0.187462,-0.107639,1,0,1.54,-0.3325,-2.52,0.380762,0.195688,-1.11935,-0.0749,0.13132,0.46816
-0.318093,0,0,15.3181,15.3181,14.6819,14.6819,0.212062,0.864043,2.54506,0.404211,0.187434,-0.107639,1,0,2.5725,-0.7,-2.1175,0.380762,0.195688,-1.11935,-0.0749,0.13132,0.46816
-0.344516,0,0,15.3445,15.3445,14.6555,14.6555,0.229678,0.661149,2.73766,-0.178295,-0.0184079,0.0669942,0,0,3.15,-0.07,-1.9425,-0.207766,-0.010248,-0.94611,-0.0749,0.13132,0.46816
-0.370475,0,0,15.3705,15.3705,14.6295,14.6295,0.246984,0.462272,2.92722,-0.174824,-0.0181058,0.067027,0,0,3.15,-0.07,-1.9425,-0.207766,-0.010248,-0.94611,-0.07378,0.133,0.46998
-0.374128,0,0,15.3741,15.3741,14.6259,14.6259,0.249419,0.462502,2.92675,-0.0115513,0.00220979,-0.264688,1,0,4.8125,0.245,-1.3475,-0.043798,0.010004,-1.27527,-0.07378,0.133,0.46998
-0.377782,0,0,15.3778,15.3778,14.6222,14.6222,0.251854,0.462733,2.92629,-0.0115553,0.0022523,-0.264688,1,0,4.8125,0.245,-1.3475,-0.043798,0.010004,-1.27527,-0.07378,0.133,0.46998
-0.378355,0,0,15.3784,15.3784,14.6216,14.6216,0.252236,0.463797,2.92663,-0.368742,-0.100205,-0.127847,1,0,3.6575,0.735,-0.875,-0.402478,-0.092354,-1.13948,-0.07378,0.133,0.46998
-0.378928,0,0,15.3789,15.3789,14.6211,14.6211,0.252618,0.464861,2.92698,-0.36876,-0.100199,-0.127847,1,0,3.6575,0.735,-0.875,-0.402478,-0.092354,-1.13948,-0.07378,0.133,0.46998
-0.377499,0,0,15.3775,15.3775,14.6225,14.6225,0.251666,0.465591,2.92828,0.315434,-0.0761564,-0.0660041,1,0,2.905,0.5425,-0.315,0.284626,-0.06832,-1.07811,-0.07378,0.133,0.46998
-0.673964,0,0,15.674,15.674,14.326,14.326,0.44931,0.465306,2.94029,-0.00418961,-0.213153,-0.0193047,0,0,1.8725,0.105,-0.105,-0.036356,-0.20862,-1.03175,-0.07378,0.133,0.46998
-0.966345,0,0,15.9663,15.9663,14.0337,14.0337,0.64423,0.46571,2.9523,-0.00419666,-0.209751,-0.0193373,0,0,2.1875,0.56,-0.07,-0.036356,-0.20862,-1.03175,-0.07378,0.133,0.46998
-0.885708,0,0,15.8857,15.8857,14.1143,14.1143,0.590472,0.381327,3.04398,-0.074279,0.0513949,0.0487972,0,0,2.905,0.1575,-0.21,-0.108214,0.053192,-0.964166,-0.06734,0.13426,0.46844
-0.812418,0,0,15.8124,15.8124,14.1876,14.1876,0.541612,0.297645,3.13603,-0.0728185,0.0505423,0.0488143,0,0,5.145,-0.35,0.0175,-0.108214,0.053192,-0.964166,-0.06734,0.13426,0.46844
-0.87166,0,0,15.8717,15.8717,14.1283,14.1283,0.581107,0.562048,2.9109,0.246326,-0.0365779,0.0273799,0,0,5.005,0.21,-0.525,0.216916,-0.034526,-0.985394,-0.06734,0.13426,0.46844
-0.929786,0,0,15.9298,15.9298,14.0702,14.0702,0.619858,0.821699,2.68642,0.241795,-0.0359023,0.0273181,0,0,5.005,0.21,-0.525,0.216916,-0.034526,-0.985394,-0.06734,0.13426,0.46844
-0.931753,0,0,15.9318,15.9318,14.0682,14.0682,0.621169,0.821095,2.68609,0.12117,-0.129062,-0.188825,1,0,4.1825,-0.245,-1.26,0.09577,-0.127612,-1.19987,-0.06734,0.13426,0.46844
-0.930987,0,0,15.931,15.931,14.069,14.069,0.620658,0.820528,2.68502,-0.0819441,-0.285271,-0.131039,1,0,3.1675,-0.2275,-1.6975,-0.108214,-0.28365,-1.14253,-0.06734,0.13426,0.46844
-0.928891,0,0,15.9289,15.9289,14.0711,14.0711,0.61926,0.820241,2.68298,-0.0819391,-0.285295,-0.131039,1,0,2.6775,-0.07,-2.2575,-0.108214,-0.28365,-1.14253,-0.06734,0.13426,0.46844
-0.950703,0,0,15.9507,15.9507,14.0493,14.0493,0.633802,0.97066,2.55152,0.140427,-0.0186838,0.00329978,0,0,1.2075,0.3325,-2.24,0.11773,-0.017568,-1.00918,-0.06734,0.13426,0.46844
-0.973959,0,0,15.974,15.974,14.026,14.026,0.649306,1.11827,2.42535,0.137852,-0.0184138,0.00324979,0,0,1.8725,-0.42,-2.205,0.11773,-0.017568,-1.00918,-0.07378,0.13146,0.47208
-0.972413,0,0,15.9724,15.9724,14.0276,14.0276,0.648275,1.11768,2.4235,0.0969212,0.0809794,0.145625,1,0,2.8875,-0.245,-2.1525,0.076616,0.08174,-0.867908,-0.07378,0.13146,0.47208
-0.97166,0,0,15.9717,15.9717,14.0283,14.0283,0.647773,1.11832,2.42153,0.09691,0.0809707,0.145624,1,0,3.185,0.4725,-2.2225,0.076616,0.08174,-0.867908,-0.07378,0.13146,0.47208
-1.16242,0,0,16.1624,16.1624,13.8376,13.8376,0.77495,1.18027,2.37042,0.049543,-0.115877,0.088773,0,0,4.97,0.1225,-1.82,0.030134,-0.11712,-0.924272,-0.07378,0.13146,0.47208
-1.34967,0,0,16.3497,16.3497,13.6503,13.6503,0.899783,1.24181,2.32046,0.0484691,-0.113699,0.0887185,0,0,4.8475,0.595,-1.3475,0.030134,-0.11712,-0.924272,-0.07378,0.13146,0.47208
-1.35375,0,0,16.3537,16.3537,13.6463,13.6463,0.902497,1.24202,2.32017,-0.154173,0.0166571,-0.208695,1,0,4.97,0.2275,-1.2425,-0.173362,0.013054,-1.21939,-0.07378,0.13146,0.47208
-1.3546,0,0,16.3546,16.3546,13.6454,13.6454,0.903068,1.24332,2.32038,-0.154195,0.0166671,-0.208695,1,0,3.7625,0.875,-0.9625,-0.173362,0.013054,-1.21939,-0.07378,0.13146,0.47208
-1.35455,0,0,16.3545,16.3545,13.6455,13.6455,0.903033,1.24404,2.32145,0.00627472,-0.0547777,-0.206729,1,0,3.4125,0.5425,-0.455,-0.0122,-0.058316,-1.21744,-0.07378,0.13146,0.47208
-1.3545,0,0,16.3545,16.3545,13.6455,13.6455,0.902999,1.24476,2.32253,0.00626216,-0.0547783,-0.206729,1,0,3.4125,0.5425,-0.455,-0.0122,-0.058316,-1.21744,-0.0735,0.133,0.46718
-1.65427,0,0,16.6543,16.6543,13.3457,13.3457,1.10285,1.51502,2.08438,0.255087,-0.213478,0.0276823,0,0,2.2925,0.4375,-0.0875,0.242414,-0.220332,-0.984662,-0.0735,0.133,0.46718
-1.97464,0,0,16.9746,16.9746,13.0254,13.0254,1.31642,1.42897,2.1595,-0.0778615,-0.209141,0.0698136,0,0,3.0975,0.21,-0.14,-0.093452,-0.219722,-0.942816,-0.0735,0.133,0.46718
-2.29176,0,0,17.2918,17.2918,12.7082,12.7082,1.52784,1.34297,2.23369,-0.076361,-0.205453,0.0697583,0,0,3.8675,-0.6825,-0.175,-0.093452,-0.219722,-0.942816,-0.0735,0.133,0.46718
-2.29414,0,0,17.2941,17.2941,12.7059,12.7059,1.52943,1.34224,2.23473,-0.114616,-0.199685,0.151887,1,0,4.3225,-0.2975,-0.455,-0.131882,-0.213988,-0.86132,-0.0735,0.133,0.46718
-2.29878,0,0,17.2988,17.2988,12.7012,12.7012,1.53252,1.34188,2.23584,-0.11461,-0.199631,0.151886,1,0,5.1625,-0.0875,-0.42,-0.131882,-0.213988,-0.86132,-0.0735,0.133,0.46718
-2.32003,0,0,17.32,17.32,12.68,12.68,1.54669,1.5724,2.03965,0.217883,-0.0120442,-0.0383011,0,0,5.39,4.3575,-1.085,0.206058,-0.02684,-1.04993,-0.0735,0.133,0.46718
-2.18642,0,0,17.1864,17.1864,12.8136,12.8136,1.45761,1.43481,2.15915,-0.132632,0.0970507,-0.0593445,0,0,4.4625,0.3675,-1.4875,-0.148352,0.083692,-1.07092,-0.0735,0.133,0.46718
-2.04753,0,0,17.0475,17.0475,12.9525,12.9525,1.36502,1.29911,2.28379,-0.130264,0.095437,-0.0592482,0,0,1.68,0.3675,-1.645,-0.148352,0.083692,-1.07092,-0.07448,0.1295,0.4648
-2.04202,0,0,17.042,17.042,12.958,12.958,1.36134,1.29949,2.28252,0.0802638,0.178663,0.130832,1,0,1.4,0.315,-1.82,0.063074,0.166896,-0.882304,-0.07448,0.1295,0.4648
-2.03757,0,0,17.0376,17.0376,12.9624,12.9624,1.35838,1.29889,2.28092,0.0156439,0.271306,0.247019,1,0,1.8025,-0.2625,-1.995,-0.00183,0.259494,-0.767014,-0.07448,0.1295,0.4648
-2.0348,0,0,17.0348,17.0348,12.9652,12.9652,1.35653,1.29818,2.27909,0.0156563,0.271274,0.24702,1,0,2.4325,-0.3325,-2.135,-0.00183,0.259494,-0.767014,-0.07448,0.1295,0.4648
-1.94701,0,0,16.947,16.947,13.053,13.053,1.29801,1.24214,2.33481,-0.050183,0.0584854,0.0149389,0,0,3.08,0.105,-1.785,-0.06893,0.047946,-0.99735,-0.07448,0.1295,0.4648
-1.86697,0,0,16.867,16.867,13.133,13.133,1.24465,1.18729,2.3916,-0.0492259,0.057555,0.0149799,0,0,5.4075,0.1925,-1.1725,-0.06893,0.047946,-0.99735,-0.07448,0.1295,0.4648
-1.87301,0,0,16.873,16.873,13.127,13.127,1.24867,1.18779,2.39138,0.235892,-0.147914,-0.187149,1,0,5.705,0.4025,-1.2075,0.217404,-0.15738,-1.19792,-0.07448,0.1295,0.4648
-1.87979,0,0,16.8798,16.8798,13.1202,13.1202,1.25319,1.18875,2.39079,0.235876,-0.147835,-0.187151,1,0,5.985,0.665,-1.435,0.217404,-0.15738,-1.19792,-0.07448,0.1295,0.4648
-1.88395,0,0,16.884,16.884,13.116,13.116,1.25597,1.18943,2.39057,0.444819,0.0892612,-0.0398602,1,0,5.005,0.5075,-1.2075,0.427244,0.079422,-1.05176,-0.07784,0.12852,0.4662
-2.07314,0,0,17.0731,17.0731,12.9269,12.9269,1.3821,0.94659,2.61438,-0.229319,-0.136303,0.0100852,0,0,2.2925,0.4375,-0.8225,-0.254004,-0.148108,-1.00223,-0.07784,0.12852,0.4662
-2.25614,0,0,17.2561,17.2561,12.7439,12.7439,1.50409,0.708583,2.83656,-0.225166,-0.134173,0.0100915,0,0,1.1725,0.6475,-0.8225,-0.254004,-0.148108,-1.00223,-0.07784,0.12852,0.4662
-2.24988,0,0,17.2499,17.2499,12.7501,12.7501,1.49992,0.708891,2.83697,0.0895982,-0.0199353,0.203737,1,0,1.1025,0.2975,-0.84,0.062098,-0.033916,-0.81008,-0.07784,0.12852,0.4662
-2.24752,0,0,17.2475,17.2475,12.7525,12.7525,1.49835,0.708494,2.83805,0.0896051,-0.0199628,0.203738,1,0,2.555,-0.105,-0.4375,0.062098,-0.033916,-0.81008,-0.07784,0.12852,0.4662
-2.24666,0,0,17.2467,17.2467,12.7533,12.7533,1.49777,0.70726,2.83914,-0.238628,0.098368,0.300991,1,0,3.115,-0.595,-0.42,-0.267546,0.084302,-0.713578,-0.07784,0.12852,0.4662
-2.25079,0,0,17.2508,17.2508,12.7492,12.7492,1.50053,0.706645,2.8394,-0.238617,0.0984161,0.30099,1,0,4.9875,-0.245,-0.91,-0.267546,0.084302,-0.713578,-0.07784,0.12852,0.4662
-2.25582,0,0,17.2558,17.2558,12.7442,12.7442,1.50388,0.705154,2.84007,0.173124,-0.134421,0.184187,1,0,5.32,-0.7525,-0.665,0.145912,-0.148352,-0.829478,-0.07784,0.12852,0.4662
-2.26173,0,0,17.2617,17.2617,12.7383,12.7383,1.50782,0.704566,2.84042,0.173134,-0.134352,0.184186,1,0,5.6525,-0.2275,-0.8575,0.145912,-0.148352,-0.829478,-0.07728,0.1309,0.46984
-2.26529,0,0,17.2653,17.2653,12.7347,12.7347,1.51019,0.703995,2.84018,0.103412,-0.075568,-0.104006,1,0,4.7775,-0.2275,-1.2075,0.075884,-0.08967,-1.11545,-0.07728,0.1309,0.46984
-2.2608,0,0,17.2608,17.2608,12.7392,12.7392,1.5072,0.704175,2.83977,0.103408,-0.0756202,-0.104005,1,0,1.7675,0.21,-1.3125,0.075884,-0.08967,-1.11545,-0.07728,0.1309,0.46984
-2.25509,0,0,17.2551,17.2551,12.7449,12.7449,1.50339,0.704199,2.8396,0.221735,-0.307727,-0.0671189,1,0,1.3125,0.1225,-1.1725,0.194712,-0.32147,-1.07885,-0.07728,0.1309,0.46984
-2.25053,0,0,17.2505,17.2505,12.7495,12.7495,1.50036,0.704275,2.8386,0.221734,-0.30778,-0.0671175,1,0,1.75,0.14,-1.6625,0.194712,-0.32147,-1.07885,-0.07728,0.1309,0.46984
-1.98681,0,0,16.9868,16.9868,13.0132,13.0132,1.32454,0.94457,2.64124,0.217176,0.175582,0.0634691,0,0,1.54,-0.42,-1.715,0.194346,0.164456,-0.949282,-0.07728,0.1309,0.46984
-1.73059,0,0,16.7306,16.7306,13.2694,13.2694,1.15373,1.17993,2.44353,0.213069,0.1726,0.0634574,0,0,2.8175,-0.8225,-1.365,0.194346,0.164456,-0.949282,-0.07728,0.1309,0.46984
-1.73204,0,0,16.732,16.732,13.268,13.268,1.15469,1.1793,2.44311,-0.0753273,0.244794,0.197594,1,0,3.99,-0.2625,-1.3125,-0.095282,0.236558,-0.81618,-0.07728,0.1309,0.46984
-1.73792,0,0,16.7379,16.7379,13.2621,13.2621,1.15861,1.17972,2.44232,0.21939,0.280645,-0.148139,1,0,5.6525,0.35,-1.54,0.20069,0.272304,-1.15924,-0.07826,0.13272,0.46914
-1.74344,0,0,16.7434,16.7434,13.2566,13.2566,1.16229,1.18046,2.44193,0.219377,0.280709,-0.14814,1,0,5.5125,0.5425,-1.3125,0.20069,0.272304,-1.15924,-0.07826,0.13272,0.46914
-1.9257,0,0,16.9257,16.9257,13.0743,13.0743,1.2838,1.17203,2.45303,-0.00947675,-0.129959,-0.0479794,0,0,5.25,0.8225,-1.2075,-0.02928,-0.140056,-1.05981,-0.07826,0.13272,0.46914
-2.10165,0,0,17.1016,17.1016,12.8984,12.8984,1.4011,1.1636,2.46413,-0.00932971,-0.127913,-0.0480243,0,0,4.025,0.7525,-1.155,-0.02928,-0.140056,-1.05981,-0.07826,0.13272,0.46914
-2.0994,0,0,17.0994,17.0994,12.9006,12.9006,1.3996,1.16581,2.46392,-0.122593,0.26824,-0.27634,1,0,2.6075,1.4,-1.225,-0.142984,0.255712,-1.28637,-0.07826,0.13272,0.46914
-2.09507,0,0,17.0951,17.0951,12.9049,12.9049,1.39671,1.1674,2.4643,-0.122621,0.26819,-0.276339,1,0,1.82,1.05,-0.875,-0.142984,0.255712,-1.28637,-0.07826,0.13272,0.46914
-2.23453,0,0,17.2345,17.2345,12.7655,12.7655,1.48969,1.06339,2.55995,-0.103919,-0.108902,-0.0799959,0,0,2.6425,0.6825,-0.84,-0.126026,-0.12261,-1.09153,-0.07826,0.13272,0.46914
-2.37124,0,0,17.3712,17.3712,12.6288,12.6288,1.58082,0.959501,2.65514,-0.102106,-0.107312,-0.0800065,0,0,2.485,-0.385,-0.735,-0.126026,-0.12261,-1.09153,-0.07826,0.13272,0.46914
-2.42895,0,0,17.429,17.429,12.571,12.571,1.6193,0.869506,2.74425,-0.0844996,-0.0419127,-0.0288537,0,0,3.6575,-0.4375,-0.875,-0.109922,-0.05795,-1.04078,-0.07252,0.12992,0.46676
-2.43252,0,0,17.4325,17.4325,12.5675,12.5675,1.62168,0.869101,2.74446,-0.00613427,-0.0942635,-0.20295,1,0,4.7775,-0.1225,-0.945,-0.031232,-0.110288,-1.21353,-0.07252,0.12992,0.46676
-2.43699,0,0,17.437,17.437,12.563,12.563,1.62466,0.868811,2.74485,-0.0061292,-0.0942116,-0.202951,1,0,5.11,-0.0525,-0.84,-0.031232,-0.110288,-1.21353,-0.07252,0.12992,0.46676
-2.52774,0,0,17.5277,17.5277,12.4723,12.4723,1.68516,0.830665,2.78992,-0.0374142,-0.065311,-0.0486715,0,0,4.4625,0.28,-1.015,-0.063318,-0.082472,-1.06042,-0.07252,0.12992,0.46676
-2.61276,0,0,17.6128,17.6128,12.3872,12.3872,1.74184,0.793402,2.83467,-0.0367639,-0.064322,-0.0486918,0,0,2.8875,0.385,-1.085,-0.063318,-0.082472,-1.06042,-0.07252,0.12992,0.46676
-2.44617,0,0,17.4462,17.4462,12.5538,12.5538,1.63078,0.810251,2.83535,0.0138445,0.106183,0.0934896,0,0,3.01,0.5775,-1.1025,-0.0122,0.089792,-0.919392,-0.07252,0.12992,0.46676
-2.2796,0,0,17.2796,17.2796,12.7204,12.7204,1.51973,0.825381,2.8362,0.0135805,0.104246,0.0935391,0,0,1.9775,-0.2625,-0.98,-0.0122,0.089792,-0.919392,-0.07252,0.12992,0.46676
-2.27608,0,0,17.2761,17.2761,12.7239,12.7239,1.51738,0.825835,2.83559,0.111976,-0.0075408,0.314233,1,0,2.135,0.3675,-1.435,0.08662,-0.021838,-0.700402,-0.07252,0.12992,0.46676
-2.2743,0,0,17.2743,17.2743,12.7257,12.7257,1.5162,0.825474,2.83529,0.111982,-0.00756148,0.314233,1,0,2.7825,-0.105,-1.2425,0.08662,-0.021838,-0.700402,-0.07868,0.13146,0.46634
-2.58982,0,0,17.5898,17.5898,12.4102,12.4102,1.72655,0.594642,3.04251,-0.223542,-0.228359,0.00791456,0,0,3.78,-0.0525,-1.3825,-0.25437,-0.246074,-1.0043,-0.07868,0.13146,0.46634
-2.90024,0,0,17.9002,17.9002,12.0998,12.0998,1.9335,0.36799,3.24755,-0.219586,-0.224748,0.00783244,0,0,3.78,-0.0525,-1.3825,-0.25437,-0.246074,-1.0043,-0.07868,0.13146,0.46634
-2.90614,0,0,17.9061,17.9061,12.0939,12.0939,1.93743,0.367923,3.2466,0.4464,0.0966355,-0.0479885,1,0,5.6525,0.0525,-1.6275,0.414434,0.074908,-1.05969,-0.07868,0.13146,0.46634
-2.9105,0,0,17.9105,17.9105,12.0895,12.0895,1.94033,0.368164,3.24623,0.446395,0.0966862,-0.0479902,1,0,5.075,0.245,-1.295,0.414434,0.074908,-1.05969,-0.07868,0.13146,0.46634
-2.91439,0,0,17.9144,17.9144,12.0856,12.0856,1.94293,0.368932,3.2462,-0.0620356,-0.0693609,0.229503,1,0,4.9,0.56,-1.1025,-0.096136,-0.091012,-0.784338,-0.07868,0.13146,0.46634
-2.91828,0,0,17.9183,17.9183,12.0817,12.0817,1.94552,0.369699,3.24618,-0.062049,-0.0693156,0.229501,1,0,4.9,0.56,-1.1025,-0.096136,-0.091012,-0.784338,-0.07868,0.13146,0.46634
-2.79947,0,0,17.7995,17.7995,12.2005,12.2005,1.86631,0.429702,3.21393,0.0603332,0.08306,-0.0863147,0,0,1.6625,0.9975,-1.435,0.027816,0.062586,-1.09776,-0.07868,0.13146,0.46634
-2.68255,0,0,17.6825,17.6825,12.3175,12.3175,1.78836,0.487686,3.18868,0.0593213,0.0817,-0.0862794,0,0,1.6625,0.9975,-1.435,0.027816,0.062586,-1.09776,-0.0749,0.12628,0.47502
-2.6782,0,0,17.6782,17.6782,12.3218,12.3218,1.78546,0.487349,3.18859,0.446988,0.299524,-0.151932,1,0,1.82,-0.0875,-1.12,0.417118,0.280234,-1.1629,-0.0749,0.12628,0.47502
-2.67385,0,0,17.6738,17.6738,12.3262,12.3262,1.78257,0.487013,3.1885,0.446994,0.299473,-0.151931,1,0,1.82,-0.0875,-1.12,0.417118,0.280234,-1.1629,-0.0749,0.12628,0.47502
-2.67709,0,0,17.6771,17.6771,12.3229,12.3229,1.78472,0.485774,3.18863,-0.17329,-0.0402459,-0.0860313,1,0,4.655,-0.6125,-0.98,-0.205814,-0.05917,-1.09751,-0.0749,0.12628,0.47502
-3.04702,0,0,18.047,18.047,11.953,11.953,2.03135,0.660035,3.05284,0.151194,-0.247102,0.0609644,0,0,5.1275,-0.105,-1.0325,0.123098,-0.270108,-0.951478,-0.0749,0.12628,0.47502
-2.93345,0,0,17.9335,17.9335,12.0665,12.0665,1.95564,0.70628,3.03431,0.0482172,0.0840058,-0.0663739,0,0,4.6025,0.035,-0.49,0.020496,0.061976,-1.07787,-0.0749,0.12628,0.47502
-2.93428,0,0,17.9343,17.9343,12.0657,12.0657,1.95619,0.705717,3.03562,-0.16085,-0.0734059,-0.202601,1,0,3.745,-0.1925,-0.2975,-0.189466,-0.095282,-1.21305,-0.0749,0.12628,0.47502
-2.93329,0,0,17.9333,17.9333,12.0667,12.0667,1.95552,0.704549,3.03715,-0.119646,0.0338098,0.121738,1,0,3.0625,-0.5425,-0.1575,-0.148108,0.011834,-0.89121,-0.0749,0.12628,0.47502
-2.95985,0,0,17.9599,17.9599,12.0401,12.0401,1.97324,0.948601,2.83694,0.202284,-0.0130243,0.110846,0,0,2.8,-0.07,-0.315,0.179462,-0.035258,-0.901946,-0.0756,0.13076,0.47222
-2.98315,0,0,17.9831,17.9831,12.0169,12.0169,1.98876,1.18771,2.63705,0.198112,-0.0127562,0.110759,0,0,1.8025,-0.3325,-0.4375,0.179462,-0.035258,-0.901946,-0.0756,0.13076,0.47222
-2.53286,0,0,17.5329,17.5329,12.4671,12.4671,1.68857,0.991676,2.8194,-0.175559,0.307478,0.0592309,0,0,2.5025,-0.245,-0.4725,-0.199226,0.289872,-0.953308,-0.0756,0.13076,0.47222
-2.09159,0,0,17.0916,17.0916,12.9084,12.9084,1.39439,0.799958,3.00275,-0.172213,0.302348,0.0594213,0,0,3.2725,0.2975,-0.9275,-0.199226,0.289872,-0.953308,-0.0756,0.13076,0.47222
-2.17009,0,0,17.1701,17.1701,12.8299,12.8299,1.44672,0.83826,2.97908,0.0354661,-0.0529835,-0.0101997,0,0,4.48,-0.1575,-1.19,0.010004,-0.066002,-1.02236,-0.0756,0.13076,0.47222
-2.24795,0,0,17.248,17.248,12.752,12.752,1.49863,0.876564,2.95474,0.0347977,-0.0520781,-0.010233,0,0,4.7425,0.2625,-1.645,0.010004,-0.066002,-1.02236,-0.0756,0.13076,0.47222
-2.25345,0,0,17.2534,17.2534,12.7466,12.7466,1.5023,1.05683,2.80513,0.16808,-0.000233886,0.00323657,0,0,4.865,0.1225,-1.7675,0.14701,-0.014274,-1.00894,-0.0756,0.13076,0.47222
-2.2616,0,0,17.2616,17.2616,12.7384,12.7384,1.50773,1.23361,2.65569,0.164996,-0.000140663,0.00317244,0,0,5.9325,0.0175,-1.8375,0.14701,-0.014274,-1.00894,-0.0756,0.13076,0.47222
-2.26389,0,0,17.2639,17.2639,12.7361,12.7361,1.50926,1.23436,2.65398,0.0631775,-0.0737564,-0.136744,1,0,4.3225,0.525,-2.0825,0.044774,-0.08784,-1.14778,-0.07658,0.12964,0.4739
-2.26445,0,0,17.2645,17.2645,12.7355,12.7355,1.50964,1.23538,2.65225,-0.0989023,0.090022,-0.127523,1,0,3.675,0.6825,-2.1,-0.117974,0.075762,-1.13863,-0.07658,0.12964,0.4739
-2.2622,0,0,17.2622,17.2622,12.7378,12.7378,1.50814,1.23625,2.65048,-0.0989175,0.0899958,-0.127523,1,0,2.625,0.595,-2.1175,-0.117974,0.075762,-1.13863,-0.07658,0.12964,0.4739
-2.25806,0,0,17.2581,17.2581,12.7419,12.7419,1.50537,1.23594,2.64943,0.347669,-0.22917,-0.0110894,1,0,1.9075,-0.0875,-1.68,0.330498,-0.243024,-1.02309,-0.07658,0.12964,0.4739
-2.25523,0,0,17.2552,17.2552,12.7448,12.7448,1.50349,1.23565,2.64868,0.347674,-0.229202,-0.0110884,1,0,2.3975,-0.07,-1.505,0.330498,-0.243024,-1.02309,-0.07658,0.12964,0.4739
-2.07329,0,0,17.0733,17.0733,12.9267,12.9267,1.38219,1.35268,2.55233,0.103511,0.121383,0.0618272,0,0,3.3075,-0.595,-1.33,0.087352,0.109312,-0.950746,-0.07658,0.12964,0.4739
-1.89651,0,0,16.8965,16.8965,13.1035,13.1035,1.26434,1.46838,2.45641,0.101493,0.119326,0.061825,0,0,4.13,-0.1225,-0.9625,0.087352,0.109312,-0.950746,-0.07658,0.12964,0.4739
-1.89762,0,0,16.8976,16.8976,13.1024,13.1024,1.26508,1.46778,2.45725,0.140257,0.345273,-0.143622,1,0,3.85,-0.2275,-0.5775,0.12627,0.335012,-1.15461,-0.07658,0.12964,0.4739
-1.90001,0,0,16.9,16.9,13.1,13.1,1.26667,1.46805,2.45825,0.140252,0.345301,-0.143623,1,0,4.3225,0.28,-0.49,0.12627,0.335012,-1.15461,-0.06846,0.12824,0.47264
-1.90261,0,0,16.9026,16.9026,13.0974,13.0974,1.26841,1.46746,2.46002,0.214247,-0.0635491,-0.150016,1,0,4.3925,-0.21,-0.035,0.200568,-0.073444,-1.16095,-0.06846,0.12824,0.47264
-1.90279,0,0,16.9028,16.9028,13.0972,13.0972,1.26853,1.46675,2.46203,0.21426,-0.063547,-0.150016,1,0,3.4825,-0.28,0.105,0.200568,-0.073444,-1.16095,-0.06846,0.12824,0.47264
-1.90007,0,0,16.9001,16.9001,13.0999,13.0999,1.26671,1.46634,2.4641,-0.090905,-0.0721276,-0.10809,1,0,2.3975,-0.105,0.14,-0.105896,-0.081984,-1.11935,-0.06846,0.12824,0.47264
-1.8985,0,0,16.8985,16.8985,13.1015,13.1015,1.26566,1.46692,2.46571,-0.0909152,-0.0721458,-0.10809,1,0,2.835,0.4725,-0.14,-0.105896,-0.081984,-1.11935,-0.06846,0.12824,0.47264
-1.89636,0,0,16.8964,16.8964,13.1036,13.1036,1.26424,1.46807,2.46716,-0.0269123,0.0775567,-0.24739,1,0,2.625,0.805,-0.245,-0.041602,0.067588,-1.25758,-0.06846,0.12824,0.47264
-1.8975,0,0,16.8975,16.8975,13.1025,13.1025,1.265,1.46794,2.46738,-0.02691,0.0775699,-0.247391,1,0,3.8675,0.035,-0.945,-0.041602,0.067588,-1.25758,-0.06846,0.12824,0.47264
-1.89834,0,0,16.8983,16.8983,13.1017,13.1017,1.26556,1.4671,2.4671,0.327235,0.292523,-0.24862,1,0,3.7625,-0.385,-1.225,0.314028,0.282308,-1.2588,-0.06846,0.12824,0.47264
-1.90257,0,0,16.9026,16.9026,13.0974,13.0974,1.26838,1.4663,2.46616,0.327249,0.292572,-0.248621,1,0,5.04,-0.3675,-1.61,0.314028,0.282308,-1.2588,-0.07448,0.13384,0.47656
-1.8371,0,0,16.8371,16.8371,13.1629,13.1629,1.22473,1.52707,2.40901,0.0536966,0.0489,0.0398055,0,0,5.7225,-0.105,-1.6975,0.040382,0.03965,-0.972584,-0.07448,0.13384,0.47656
-1.77044,0,0,16.7704,16.7704,13.2296,13.2296,1.18029,1.58816,2.35054,0.0526308,0.0481242,0.0397928,0,0,4.9,0.7175,-2.5025,0.040382,0.03965,-0.972584,-0.07448,0.13384,0.47656
