pid_x,pid_y,pid_z,front_left_speed,front_right_speed,back_left_speed,back_right_speed,orientation_x,orientation_y,orientation_z,acceleration_x,acceleration_y,acceleration_z,accel_rejected,mag_rejected,gyro_x,gyro_y,gyro_z,accel_x,accel_y,accel_z,mag_x,mag_y,mag_z
0.310793,0,0,5,5,5.31079,5.31079,-0.46387,-0.108156,0.337565,0.0583009,0.394733,0.0902715,0,0,3.3775,-0.2275,-0.315,0.016348,0.414556,-0.923052,-0.04508,-0.12614,0.49518
0.615517,0,0,5,5,5.61552,5.61552,-0.918682,-0.211226,0.679105,0.0605858,0.38533,0.0909084,0,0,3.5,-0.2275,-0.315,0.016836,0.413092,-0.92232,-0.04508,-0.12614,0.49518
0.914978,0,0,5,5,5.91498,5.91498,-1.36564,-0.31,1.02502,0.0623097,0.377531,0.0907451,0,0,3.6925,0,-0.2975,0.016836,0.413092,-0.92232,-0.04508,-0.12614,0.49518
1.20781,0,0,5,5,6.20781,6.20781,-1.8027,-0.403866,1.37497,0.0645553,0.368319,0.0884339,0,0,3.6575,-0.2975,-0.245,0.017446,0.411506,-0.924394,-0.04508,-0.12614,0.49518
1.49606,0,0,5,5,6.49606,6.49606,-2.23293,-0.49417,1.72715,0.0658884,0.363136,0.0831163,0,0,3.4125,-0.1575,-0.1925,0.017202,0.413824,-0.929396,-0.03626,-0.12432,0.4942
1.78051,0,0,5,5,6.78051,6.78051,-2.65748,-0.582624,2.08448,0.0663388,0.356466,0.084507,0,0,3.395,-0.2275,-0.1225,0.016104,0.414556,-0.927688,-0.03626,-0.12432,0.4942
2.05999,0,0,5,5,7.05999,7.05999,-3.07461,-0.667429,2.44584,0.0678188,0.349196,0.0841268,0,0,3.5875,-0.21,-0.1575,0.016104,0.414556,-0.927688,-0.03626,-0.12432,0.4942
2.3357,0,0,5,5,7.3357,7.3357,-3.48611,-0.746952,2.80898,0.0711504,0.343249,0.0845594,0,0,3.64,-0.1225,-0.0875,0.018056,0.415776,-0.926834,-0.03626,-0.12432,0.4942
2.60485,0,0,5,5,7.60485,7.60485,-3.88784,-0.823164,3.17801,0.0709012,0.333689,0.0832298,0,0,3.605,0.1225,-0.0175,0.01647,0.413214,-0.927688,-0.03626,-0.12432,0.4942
2.87067,0,0,5,5,7.87067,7.87067,-4.28459,-0.895317,3.54852,0.0737396,0.327151,0.0855454,0,0,3.4125,-0.2275,-0.1925,0.018056,0.41358,-0.924882,-0.03626,-0.12432,0.4942
3.13156,0,0,5,5,8.13156,8.13156,-4.67397,-0.965052,3.92387,0.0743491,0.323919,0.0758968,0,0,3.5175,-0.1225,-0.28,0.017446,0.417118,-0.93391,-0.03626,-0.12432,0.4942
3.38804,0,0,5,5,8.38804,8.38804,-5.05678,-1.02812,4.30247,0.0780009,0.311403,0.0894502,0,0,3.6575,0.0175,-0.2625,0.020008,0.411262,-0.91988,-0.04522,-0.1281,0.49742
3.63887,0,0,5,5,8.63887,8.63887,-5.43115,-1.08882,4.68679,0.0776023,0.305998,0.0812108,0,0,3.465,0.21,-0.1925,0.018544,0.41236,-0.927444,-0.04522,-0.1281,0.49742
3.88902,0,0,5,5,8.88902,8.88902,-5.8045,-1.1508,5.07628,0.0767401,0.30318,0.0846093,0,0,3.605,0.0175,-0.2275,0.016592,0.41602,-0.923418,-0.04522,-0.1281,0.49742
4.13481,0,0,5,5,9.13481,9.13481,-6.17136,-1.20964,5.46914,0.0777669,0.296816,0.0839205,0,0,3.71,0.0175,-0.315,0.016592,0.41602,-0.923418,-0.04522,-0.1281,0.49742
4.37388,0,0,5,5,9.37388,9.37388,-6.52818,-1.26022,5.86151,0.0824154,0.289043,0.0779262,0,0,3.5,-0.035,-0.4025,0.020374,0.414434,-0.928664,-0.04522,-0.1281,0.49742
4.60892,0,0,5,5,9.60892,9.60892,-6.87898,-1.30787,6.25724,0.083247,0.282965,0.0771932,0,0,3.5,-0.035,-0.4025,0.020374,0.414434,-0.928664,-0.04522,-0.1281,0.49742
4.84049,0,0,5,5,9.84049,9.84049,-7.22461,-1.35079,6.65395,0.0856965,0.274784,0.0845501,0,0,3.7625,0.0175,-0.2625,0.022082,0.412238,-0.920612,-0.04522,-0.1281,0.49742
5.06679,0,0,5,5,10.0668,10.0668,-7.56238,-1.39485,7.05748,0.0818489,0.267355,0.0830358,0,0,3.71,0,-0.28,0.017446,0.410652,-0.921344,-0.04256,-0.12754,0.49868
5.2884,0,0,5,5,10.2884,10.2884,-7.89314,-1.43265,7.46103,0.0859101,0.262615,0.0759733,0,0,3.29,-0.21,-0.1925,0.020862,0.411628,-0.927566,-0.04256,-0.12754,0.49868
5.50955,0,0,5,5,10.5096,10.5096,-8.22322,-1.46957,7.86763,0.0863112,0.259358,0.0808055,0,0,3.3775,-0.07,-0.245,0.020618,0.414068,-0.921954,-0.04256,-0.12754,0.49868
5.72546,0,0,5,5,10.7255,10.7255,-8.54547,-1.49733,8.27132,0.092141,0.251232,0.0821863,0,0,3.5875,0.0875,-0.21,0.025986,0.411506,-0.919758,-0.04256,-0.12754,0.49868
5.93777,0,0,5,5,10.9378,10.9378,-8.86235,-1.52299,8.67799,0.0925887,0.245769,0.081338,0,0,3.4825,-0.105,-0.2275,0.025986,0.411506,-0.919758,-0.04256,-0.12754,0.49868
6.14574,0,0,5,5,11.1457,11.1457,-9.17275,-1.56168,9.10395,0.0779566,0.2414,0.0760451,0,0,3.43,-0.2275,-0.245,0.010614,0.412482,-0.92415,-0.04256,-0.12754,0.49868
6.34869,0,0,5,5,11.3487,11.3487,-9.47565,-1.59114,9.52623,0.0847877,0.235944,0.0714864,0,0,3.4825,-0.35,-0.28,0.016958,0.412238,-0.92781,-0.04256,-0.12754,0.49868
6.54788,0,0,5,5,11.5479,11.5479,-9.77296,-1.61571,9.9429,0.0852164,0.230832,0.0706074,0,0,3.4475,-0.1225,-0.2275,0.016958,0.412238,-0.92781,-0.04256,-0.12152,0.50008
6.74588,0,0,5,5,11.7459,11.7459,-10.0685,-1.63627,10.3592,0.0884907,0.225877,0.0762254,0,0,3.325,-0.28,-0.245,0.019886,0.41236,-0.921344,-0.04256,-0.12152,0.50008
6.94155,0,0,5,5,11.9416,11.9416,-10.3605,-1.65908,10.7825,0.0848797,0.223307,0.0740811,0,0,3.4825,-0.07,-0.2975,0.01586,0.4148,-0.922564,-0.04256,-0.12152,0.50008
7.13331,0,0,5,5,12.1333,12.1333,-10.6467,-1.67331,11.2018,0.0912022,0.215468,0.0789424,0,0,3.675,-0.1225,-0.2625,0.02196,0.411872,-0.91683,-0.04256,-0.12152,0.50008
7.32182,0,0,5,5,12.3218,12.3218,-10.9281,-1.68565,11.6239,0.0914175,0.210647,0.0780174,0,0,3.57,-0.2275,-0.2275,0.02196,0.411872,-0.91683,-0.04256,-0.12152,0.50008
7.50579,0,0,5,5,12.5058,12.5058,-11.2027,-1.70116,12.0551,0.0858568,0.207291,0.0702051,0,0,3.465,-0.1575,-0.105,0.016104,0.413214,-0.923662,-0.04256,-0.12152,0.50008
7.68596,0,0,5,5,12.686,12.686,-11.4716,-1.71098,12.4849,0.0890653,0.198418,0.0770236,0,0,3.395,-0.21,-0.1575,0.019154,0.408944,-0.915976,-0.04256,-0.12152,0.50008
7.86295,0,0,5,5,12.863,12.863,-11.7358,-1.7195,12.9214,0.0892139,0.193905,0.0760923,0,0,3.465,-0.07,-0.2625,0.019154,0.408944,-0.915976,-0.04424,-0.12572,0.50162
8.03598,0,0,5,5,13.036,13.036,-11.994,-1.72324,13.3572,0.0926806,0.192427,0.0654512,0,0,3.3425,-0.245,-0.28,0.02257,0.411872,-0.925614,-0.04424,-0.12572,0.50162
8.22288,0,0,5,5,13.2229,13.2229,-12.273,-1.76589,13.8331,0.0598946,0.20355,0.0818648,0,0,3.36,-0.1925,-0.2975,-0.011102,0.427732,-0.90829,-0.04424,-0.12572,0.50162
8.45037,0,0,5,5,13.4504,13.4504,-12.6125,-1.76098,14.2456,0.127355,0.224634,0.142926,0,0,3.57,-0.1925,-0.385,0.05673,0.454572,-0.846436,-0.04424,-0.12572,0.50162
8.67388,0,0,5,5,13.6739,13.6739,-12.9461,-1.75427,14.6614,0.127238,0.218958,0.141642,0,0,3.5875,-0.3325,-0.245,0.05673,0.454572,-0.846436,-0.04424,-0.12572,0.50162
8.81346,0,0,5,5,13.8135,13.8135,-13.1544,-1.46381,14.7765,0.404625,0.147604,0.0598142,0,0,3.7275,-0.2625,-0.4375,0.34038,0.386862,-0.926956,-0.04424,-0.12572,0.50162
8.91538,0,0,5,5,13.9154,13.9154,-13.3065,-1.8399,15.6058,-0.393292,0.163505,-0.0243365,0,0,3.6225,-0.28,-0.35,-0.467504,0.405284,-1.00967,-0.04424,-0.12572,0.50162
8.91569,0,0,5,5,13.9157,13.9157,-13.307,-1.83948,15.6053,-0.3933,0.163497,-0.0243381,1,1,3.29,0.175,-0.4725,-0.467504,0.405284,-1.00967,-0.0434,-0.11242,0.5089
8.95632,0,0,5,5,13.9563,13.9563,-13.3676,-1.51964,15.6069,0.273665,0.0382273,0.0632393,0,1,3.5175,0.8925,-0.07,0.207888,0.28121,-0.922686,-0.0434,-0.11242,0.5089
9.14454,0,0,5,5,14.1445,14.1445,-13.6486,-1.62229,15.6148,-0.101028,0.274674,0.00708879,0,1,3.0275,0.3325,-0.0175,-0.17019,0.52216,-0.97722,-0.0434,-0.11242,0.5089
9.32813,0,0,5,5,14.3281,14.3281,-13.9226,-1.7248,15.623,-0.0992394,0.270043,0.00589892,0,1,3.885,-0.735,-0.28,-0.17019,0.52216,-0.97722,-0.0434,-0.11242,0.5089
9.28329,0,0,5,5,14.2833,14.2833,-13.8557,-1.48506,15.6214,0.226898,-0.0436941,-0.079648,0,1,4.76,-0.595,-0.2625,0.161528,0.207644,-1.0625,-0.0434,-0.11242,0.5089
9.55534,0,0,5,5,14.5553,14.5553,-14.2617,-1.59803,15.6323,-0.100601,0.348068,0.130912,0,1,4.6025,-0.525,-0.3325,-0.169336,0.605852,-0.851804,-0.0434,-0.11242,0.5089
9.66104,0,0,5,5,14.661,14.661,-14.4195,-1.40282,15.6366,0.141637,0.053008,0.241216,0,1,4.8125,-0.35,-0.2625,0.077348,0.313784,-0.74176,-0.0434,-0.11242,0.5089
9.66149,0,0,5,5,14.6615,14.6615,-14.4201,-1.40339,15.6357,0.141647,0.0529967,0.241213,1,1,3.1675,-0.3325,-0.8225,0.077348,0.313784,-0.74176,-0.0434,-0.11242,0.5089
9.66257,0,0,5,5,14.6626,14.6626,-14.4218,-1.40336,15.6348,0.0247776,0.136016,0.160183,1,1,2.6425,0.0175,-0.7525,-0.040016,0.396744,-0.822158,-0.0392,-0.1141,0.51548
9.66425,0,0,5,5,14.6642,14.6642,-14.4242,-1.4017,15.6333,-0.164648,0.25639,-0.108962,1,1,2.135,1.0325,-0.875,-0.230214,0.517036,-1.08922,-0.0392,-0.1141,0.51548
9.75379,0,0,5,5,14.7538,14.7538,-14.5579,-1.17377,15.6348,0.18502,0.0773926,0.124143,0,1,2.3975,0.735,-0.875,0.124928,0.340502,-0.857416,-0.0392,-0.1141,0.51548
9.8405,0,0,5,5,14.8405,14.8405,-14.6873,-0.95236,15.6365,0.181157,0.0751893,0.123643,0,1,3.325,-0.5775,-0.77,0.124928,0.340502,-0.857416,-0.0392,-0.1141,0.51548
9.92479,0,0,5,5,14.9248,14.9248,-14.8131,-0.690534,15.6384,0.218257,0.0780568,0.11159,0,1,3.6575,-0.84,-0.35,0.166774,0.345504,-0.868884,-0.0392,-0.1141,0.51548
10.0075,0,0,5,5,15.0075,15.0075,-14.9365,-0.433689,15.6398,0.213774,0.0759642,0.11108,0,1,3.6575,-0.84,-0.35,0.166774,0.345504,-0.868884,-0.0392,-0.1141,0.51548
10.0742,0,0,5,5,15.0742,15.0742,-15.0361,-0.0941405,15.6411,0.26932,0.0421595,0.156639,0,1,5.145,0.1575,0.3325,0.228506,0.313418,-0.823256,-0.0392,-0.1141,0.51548
10.1396,0,0,5,5,15.1396,15.1396,-15.1337,0.239024,15.6418,0.263505,0.0405155,0.156189,0,1,5.145,0.1575,0.3325,0.228506,0.313418,-0.823256,-0.03808,-0.11102,0.51968
10.3051,0,0,5,5,15.3051,15.3051,-15.3808,0.410784,15.6418,0.139386,0.168623,0.153316,0,1,4.2175,-0.035,0.6475,0.106872,0.445544,-0.824964,-0.03808,-0.11102,0.51968
10.4676,0,0,5,5,15.4676,15.4676,-15.6232,0.579283,15.6411,0.136445,0.164553,0.152161,0,1,4.2175,-0.035,0.6475,0.106872,0.445544,-0.824964,-0.03808,-0.11102,0.51968
10.5576,0,0,5,5,15.5576,15.5576,-15.7577,0.816444,15.6408,0.205927,0.101733,0.0657828,0,1,2.31,0.49,0.7175,0.180804,0.385032,-0.909998,-0.03808,-0.11102,0.51968
10.646,0,0,5,5,15.646,15.646,-15.8895,1.04908,15.64,0.201867,0.0995366,0.0650917,0,1,2.31,0.49,0.7175,0.180804,0.385032,-0.909998,-0.03808,-0.11102,0.51968
10.6471,0,0,5,5,15.6471,15.6471,-15.8912,1.05105,15.6421,0.10756,0.221392,-0.204543,1,1,2.625,0.63,1.2775,0.086132,0.506788,-1.17754,-0.03808,-0.11102,0.51968
10.6482,0,0,5,5,15.6482,15.6482,-15.8928,1.05302,15.6443,0.107525,0.221365,-0.204551,1,1,2.625,0.63,1.2775,0.086132,0.506788,-1.17754,-0.03808,-0.11102,0.51968
10.6378,0,0,5,5,15.6378,15.6378,-15.8773,1.05451,15.6475,0.000956413,-0.00553112,-0.0316121,0,1,3.5525,-0.035,1.5575,-0.020862,0.279868,-1.00601,-0.03808,-0.11102,0.51968
10.6276,0,0,5,5,15.6276,15.6276,-15.8622,1.05598,15.6507,0.000930823,-0.00527652,-0.0315402,0,1,3.5525,-0.035,1.5575,-0.020862,0.279868,-1.00601,-0.03892,-0.105,0.52962
10.6283,0,0,5,5,15.6283,15.6283,-15.8631,1.05568,15.654,-0.138044,-0.286306,0.0751746,1,1,2.9925,-0.84,1.5925,-0.16043,-0.000854,-0.900116,-0.03892,-0.105,0.52962
10.6289,0,0,5,5,15.6289,15.6289,-15.8641,1.05538,15.6574,-0.138038,-0.286322,0.0751702,1,1,2.9925,-0.84,1.5925,-0.16043,-0.000854,-0.900116,-0.03892,-0.105,0.52962
10.7936,0,0,5,5,15.7936,15.7936,-16.1099,0.798561,15.6544,-0.24338,0.218192,0.0707389,0,1,5.1625,3.605,1.4175,-0.270718,0.507276,-0.90341,-0.03892,-0.105,0.52962
10.9552,0,0,5,5,15.9552,15.9552,-16.3511,0.546493,15.6524,-0.238981,0.214136,0.0696119,0,1,5.1625,3.605,1.4175,-0.270718,0.507276,-0.90341,-0.03892,-0.105,0.52962
10.9541,0,0,5,5,15.9541,15.9541,-16.3494,0.553295,15.6497,-0.280647,-0.2581,-0.127713,1,1,4.4975,4.1475,-0.6825,-0.312442,0.035502,-1.09922,-0.03892,-0.105,0.52962
10.953,0,0,5,5,15.953,15.953,-16.3478,0.560096,15.6469,-0.280766,-0.258072,-0.127706,1,1,4.4975,4.1475,-0.6825,-0.312442,0.035502,-1.09922,-0.03892,-0.105,0.52962
10.9539,0,0,5,5,15.9539,15.9539,-16.3491,0.560766,15.6451,-0.552663,0.170815,-0.31816,1,1,2.835,0.5425,-1.155,-0.585478,0.463966,-1.2882,-0.03892,-0.105,0.52962
10.9548,0,0,5,5,15.9548,15.9548,-16.3504,0.561435,15.6432,-0.552674,0.170793,-0.318167,1,1,2.835,0.5425,-1.155,-0.585478,0.463966,-1.2882,-0.03892,-0.105,0.52962
10.7437,0,0,5,5,15.7437,15.7437,-16.0354,0.752968,15.6421,0.167066,-0.28458,-0.0156928,0,1,2.975,0.945,-2.8175,0.140666,0.003782,-0.989542,-0.03864,-0.10542,0.53732
10.7463,0,0,5,5,15.7463,15.7463,-16.0392,0.750008,15.6379,-0.555844,0.706293,0.0702305,1,1,1.4525,-1.12,-3.08,-0.585356,0.99369,-0.904264,-0.03864,-0.10542,0.53732
10.7461,0,0,5,5,15.7461,15.7461,-16.039,0.749115,15.6345,-0.555828,0.706296,0.0702318,1,1,3.71,-0.0875,-2.2925,-0.585356,0.99369,-0.904264,-0.03864,-0.10542,0.53732
10.9423,0,0,5,5,15.9423,15.9423,-16.3318,1.15869,15.6256,0.342943,0.194353,0.220412,0,1,4.62,0.1225,-2.5725,0.324398,0.487146,-0.753716,-0.03864,-0.10542,0.53732
11.137,0,0,5,5,16.137,16.137,-16.6224,1.56026,15.6142,0.335936,0.189538,0.218814,0,1,3.0275,-0.21,-3.0625,0.324398,0.487146,-0.753716,-0.03864,-0.10542,0.53732
11.178,0,0,5,5,16.178,16.178,-16.6836,1.57475,15.6079,0.0159332,0.068221,-0.0283792,0,1,3.815,-0.07,-2.9925,0.003294,0.366976,-0.998692,-0.03864,-0.10542,0.53732
11.2157,0,0,5,5,16.2157,16.2157,-16.7398,1.59127,15.6031,0.0156449,0.0672848,-0.0286687,0,1,5.9675,0.9975,-1.82,0.003294,0.366976,-0.998692,-0.03864,-0.10542,0.53732
11.2138,0,0,5,5,16.2138,16.2138,-16.7371,1.59227,15.6005,0.0852387,0.133035,-0.0649251,1,1,5.145,0.875,-1.5575,0.0732,0.432612,-1.03468,-0.03864,-0.10542,0.53732
11.2142,0,0,5,5,16.2142,16.2142,-16.7376,1.59306,15.5986,0.0852249,0.133025,-0.0649284,1,1,3.255,0.63,-1.1725,0.0732,0.432612,-1.03468,-0.04158,-0.09772,0.5327
11.1904,0,0,5,5,16.1904,16.1904,-16.7021,1.50698,15.5982,-0.0766715,-0.0376135,0.0172957,0,1,3.3775,1.0675,-0.7175,-0.09089,0.261568,-0.953308,-0.04158,-0.09772,0.5327
11.1693,0,0,5,5,16.1693,16.1693,-16.6706,1.42123,15.6,-0.0751752,-0.0370983,0.0174901,0,1,1.435,-0.0875,0.3675,-0.09089,0.261568,-0.953308,-0.04158,-0.09772,0.5327
11.1718,0,0,5,5,16.1718,16.1718,-16.6743,1.42076,15.6022,0.30642,-0.103475,0.172141,1,1,1.4525,-0.77,0.91,0.292312,0.195322,-0.799832,-0.04158,-0.09772,0.5327
11.1698,0,0,5,5,16.1698,16.1698,-16.6714,1.41907,15.6053,0.306449,-0.103427,0.172156,1,1,5.1275,-1.5925,1.1725,0.292312,0.195322,-0.799832,-0.04158,-0.09772,0.5327
11.2953,0,0,5,5,16.2953,16.2953,-16.8586,1.38707,15.6044,-0.0263494,0.198391,-0.0238924,0,1,3.885,-2.3975,1.365,-0.042456,0.499956,-0.993446,-0.04158,-0.09772,0.5327
11.4167,0,0,5,5,16.4167,16.4167,-17.0399,1.35697,15.6038,-0.0258242,0.195362,-0.0248025,0,1,5.1975,-1.68,1.61,-0.042456,0.499956,-0.993446,-0.04158,-0.09772,0.5327
11.4365,0,0,5,5,16.4365,16.4365,-17.0694,1.15172,15.6057,-0.180296,0.0197171,0.0384399,0,1,6.265,-0.4375,1.295,-0.201178,0.325008,-0.930616,-0.04158,-0.09772,0.5327
11.458,0,0,5,5,16.458,16.458,-17.1015,0.952725,15.6077,-0.176823,0.0191641,0.0383367,0,1,4.5325,0.8575,1.645,-0.201178,0.325008,-0.930616,-0.03696,-0.09758,0.53718
11.4592,0,0,5,5,16.4592,16.4592,-17.1032,0.841442,15.61,-0.0979807,-0.00798634,0.0386026,0,1,4.9525,0.665,1.435,-0.123952,0.297924,-0.930372,-0.03696,-0.09758,0.53718
11.4618,0,0,5,5,16.4618,16.4618,-17.1072,0.733221,15.6116,-0.0960921,-0.00806045,0.038607,0,1,3.6925,1.2775,1.2425,-0.123952,0.297924,-0.930372,-0.03696,-0.09758,0.53718
11.4634,0,0,5,5,16.4634,16.4634,-17.1096,0.697788,15.6135,-0.0321797,-0.00517189,0.02434,0,1,3.6225,0.2275,1.0325,-0.06039,0.300852,-0.944524,-0.03696,-0.09758,0.53718
11.4645,0,0,5,5,16.4645,16.4645,-17.1111,0.661112,15.6152,-0.0315396,-0.00519955,0.0243394,0,1,4.095,-0.8225,0.595,-0.06039,0.300852,-0.944524,-0.03696,-0.09758,0.53718
11.4641,0,0,5,5,16.4641,16.4641,-17.1106,0.660961,15.6165,0.194912,-0.117302,0.12098,1,1,3.8675,-0.4375,0.4375,0.167018,0.188856,-0.848632,-0.03696,-0.09758,0.53718
11.4632,0,0,5,5,16.4632,16.4632,-17.1093,0.659189,15.617,0.194943,-0.117282,0.120987,1,1,4.2525,-1.225,-0.2275,0.167018,0.188856,-0.848632,-0.03696,-0.09758,0.53718
11.4639,0,0,5,5,16.4639,16.4639,-17.1103,0.657227,15.6173,-0.224513,0.186186,-0.0676212,1,1,2.9925,-1.2775,-0.4375,-0.254248,0.492026,-1.03578,-0.03696,-0.09758,0.53718
11.4635,0,0,5,5,16.4635,16.4635,-17.1097,0.656036,15.6168,-0.224492,0.186196,-0.067618,1,1,3.885,-0.7175,-0.7175,-0.254248,0.492026,-1.03578,-0.04452,-0.09016,0.5383
11.4625,0,0,5,5,16.4625,16.4625,-17.1082,0.655437,15.6161,-0.176373,0.130898,-0.057897,1,1,4.4275,-0.35,-0.735,-0.205936,0.43676,-1.02614,-0.04452,-0.09016,0.5383
11.4619,0,0,5,5,16.4619,16.4619,-17.1074,0.656952,15.6147,-0.176399,0.130912,-0.057893,1,1,4.0425,0.9625,-0.7875,-0.205936,0.43676,-1.02614,-0.04452,-0.09016,0.5383
11.4114,0,0,5,5,16.4114,16.4114,-17.032,0.931016,15.6138,0.267829,-0.0534434,-0.0741683,0,1,4.1125,0.9975,-1.0675,0.244976,0.25132,-1.04261,-0.04452,-0.09016,0.5383
11.3627,0,0,5,5,16.3627,16.3627,-16.9592,1.20042,15.6133,0.263128,-0.052204,-0.0738809,0,1,3.43,1.26,-0.945,0.244976,0.25132,-1.04261,-0.04452,-0.09016,0.5383
11.606,0,0,5,5,16.606,16.606,-17.3224,1.04506,15.6044,-0.135064,0.261208,0.195895,0,1,2.9575,0.805,-1.0675,-0.157624,0.570472,-0.773114,-0.04452,-0.09016,0.5383
11.8445,0,0,5,5,16.8445,16.8445,-17.6784,0.891531,15.5974,-0.132385,0.25527,0.19407,0,1,3.2725,0.14,-0.77,-0.157624,0.570472,-0.773114,-0.04452,-0.09016,0.5383
11.8726,0,0,5,5,16.8726,16.8726,-17.7203,1.31355,15.5953,0.373042,0.00706531,0.0995346,0,1,3.465,-0.21,-1.0675,0.357338,0.323178,-0.866566,-0.04452,-0.09016,0.5383
11.901,0,0,5,5,16.901,16.901,-17.7626,1.72698,15.5928,0.365829,0.00642063,0.0991273,0,1,2.835,-0.7525,-1.26,0.357338,0.323178,-0.866566,-0.04172,-0.09352,0.53956
11.862,0,0,5,5,16.862,16.862,-17.7044,1.60569,15.5933,-0.106821,-0.0549158,0.00384123,0,1,3.64,-0.315,-1.0675,-0.119438,0.260958,-0.961482,-0.04172,-0.09352,0.53956
11.8231,0,0,5,5,16.8231,16.8231,-17.6464,1.48747,15.5941,-0.104759,-0.0539677,0.00420179,0,1,4.1825,0,-0.6475,-0.119438,0.260958,-0.961482,-0.04172,-0.09352,0.53956
11.7408,0,0,5,5,16.7408,16.7408,-17.5235,1.45081,15.5962,-0.0349937,-0.0943073,-0.088084,0,1,3.815,0.91,-0.5425,-0.05002,0.218624,-1.05371,-0.04172,-0.09352,0.53956
11.6605,0,0,5,5,16.6605,16.6605,-17.4037,1.41386,15.5994,-0.0343489,-0.0923176,-0.0874412,0,1,3.43,0.14,-0.035,-0.05002,0.218624,-1.05371,-0.04172,-0.09352,0.53956
11.8013,0,0,5,5,16.8013,16.8013,-17.6139,1.51184,15.5943,0.0898006,0.182402,0.0575995,0,1,2.3975,0.0175,-0.07,0.076372,0.49654,-0.908656,-0.04172,-0.09352,0.53956
11.9389,0,0,5,5,16.9389,16.9389,-17.8192,1.60894,15.5895,0.0881066,0.179005,0.0564656,0,1,2.94,0.455,0.455,0.076372,0.49654,-0.908656,-0.04172,-0.09352,0.53956
12.16,0,0,5,5,17.16,17.16,-18.1492,1.64857,15.5818,0.0311674,0.235208,0.179831,0,1,2.9575,-0.63,0.6125,0.019886,0.55815,-0.78446,-0.04172,-0.09352,0.53956
12.3775,0,0,5,5,17.3775,17.3775,-18.474,1.687,15.5739,0.0304968,0.229836,0.178032,0,1,2.52,-0.8225,0.42,0.019886,0.55815,-0.78446,-0.04172,-0.09352,0.53956
12.4973,0,0,5,5,17.4973,17.4973,-18.6526,1.43201,15.5698,-0.22965,0.142453,0.0812549,0,1,3.535,-0.9275,0,-0.24583,0.473848,-0.87962,-0.04158,-0.09506,0.54222
12.679,0,0,5,5,17.679,17.679,-18.9238,1.75453,15.5635,0.298288,0.219482,0.136139,0,1,3.955,-1.1025,0.1575,0.289994,0.555222,-0.8235,-0.04158,-0.09506,0.54222
12.8569,0,0,5,5,17.8569,17.8569,-19.1894,2.07231,15.5553,0.292745,0.215165,0.134452,0,1,4.48,-0.4375,0.1225,0.289994,0.555222,-0.8235,-0.04158,-0.09506,0.54222
12.855,0,0,5,5,17.855,17.855,-19.1866,2.07268,15.5557,0.0246195,0.169535,-0.0767581,1,1,5.0925,0,0.035,0.02074,0.509594,-1.0331,-0.04158,-0.09506,0.54222
12.8552,0,0,5,5,17.8552,17.8552,-19.1868,2.07421,15.5559,0.0245929,0.169532,-0.0767603,1,1,3.43,0.665,0.175,0.02074,0.509594,-1.0331,-0.04158,-0.09506,0.54222
12.9084,0,0,5,5,17.9084,17.9084,-19.2663,2.20009,15.5531,0.104036,0.0447803,0.0793425,0,1,3.815,0.875,0.1925,0.102724,0.386252,-0.877668,-0.04158,-0.09506,0.54222
12.9612,0,0,5,5,17.9612,17.9612,-19.3451,2.32252,15.5504,0.101901,0.0435109,0.0788085,0,1,3.3075,0.245,0.1575,0.102724,0.386252,-0.877668,-0.04158,-0.09506,0.54222
12.9618,0,0,5,5,17.9618,17.9618,-19.346,2.32296,15.5509,0.0344683,0.143151,0.20421,1,1,3.01,0.0175,0.105,0.035014,0.485804,-0.753228,-0.04158,-0.09506,0.54222
12.9622,0,0,5,5,17.9622,17.9622,-19.3466,2.32268,15.5511,0.0344732,0.143142,0.204207,1,1,3.255,-0.3325,-0.175,0.035014,0.485804,-0.753228,-0.04158,-0.08946,0.546
12.9629,0,0,5,5,17.9629,17.9629,-19.3477,2.32268,15.5512,0.301863,0.0628866,0.210717,1,1,2.94,-0.1575,-0.175,0.303536,0.40565,-0.746762,-0.04158,-0.08946,0.546
12.9636,0,0,5,5,17.9636,17.9636,-19.3487,2.32237,15.5508,0.301869,0.0628691,0.210711,1,1,2.975,-0.2275,-0.525,0.303536,0.40565,-0.746762,-0.04158,-0.08946,0.546
13.1075,0,0,5,5,18.1075,18.1075,-19.5634,2.28879,15.5419,-0.0309025,0.179748,0.0751038,0,1,3.255,-0.1225,-0.455,-0.031232,0.525942,-0.880108,-0.04158,-0.08946,0.546
13.2482,0,0,5,5,18.2482,18.2482,-19.7735,2.25546,15.5331,-0.0303213,0.176291,0.0738925,0,1,3.57,-0.2975,-0.56,-0.031232,0.525942,-0.880108,-0.04158,-0.08946,0.546
13.3258,0,0,5,5,18.3258,18.3258,-19.8893,2.08892,15.528,-0.150968,0.0958253,0.0444178,0,1,3.85,-0.1225,-0.665,-0.155306,0.447496,-0.908778,-0.04158,-0.08946,0.546
13.2458,0,0,5,5,18.2458,18.2458,-19.7699,2.18384,15.5314,0.0846384,-0.103092,-0.032637,0,1,3.99,1.085,-0.42,0.08296,0.246806,-0.985882,-0.04158,-0.08946,0.546
13.168,0,0,5,5,18.168,18.168,-19.6537,2.27667,15.5349,0.0830196,-0.101163,-0.0320129,0,1,3.43,0.945,-0.525,0.08296,0.246806,-0.985882,-0.04158,-0.08946,0.546
13.1779,0,0,5,5,18.1779,18.1779,-19.6685,2.22472,15.5336,-0.0471576,-0.00481684,0.0496943,0,1,3.22,0.385,-0.5075,-0.048678,0.343308,-0.904752,-0.04578,-0.07896,0.55286
13.3171,0,0,5,5,18.3171,18.3171,-19.8763,2.55898,15.5244,0.301752,0.151842,0.132459,0,1,2.7475,-0.1225,-0.595,0.307562,0.503128,-0.821182,-0.04578,-0.07896,0.55286
13.4539,0,0,5,5,18.4539,18.4539,-20.0805,2.88685,15.5147,0.296036,0.148589,0.130988,0,1,2.7475,-0.42,-0.4025,0.307562,0.503128,-0.821182,-0.04578,-0.07896,0.55286
13.4548,0,0,5,5,18.4548,18.4548,-20.0817,2.88588,15.5149,0.237983,0.125853,-0.082089,1,1,2.835,-0.7175,-0.2975,0.249246,0.480436,-1.03261,-0.04578,-0.07896,0.55286
13.4548,0,0,5,5,18.4548,18.4548,-20.0819,2.88514,15.5153,0.237995,0.12585,-0.0820891,1,1,3.4825,-0.6125,-0.1925,0.249246,0.480436,-1.03261,-0.04578,-0.07896,0.55286
13.529,0,0,5,5,18.529,18.529,-20.1925,2.91797,15.5098,0.0290753,0.0885107,0.047668,0,1,3.6575,-0.2975,-0.2625,0.040016,0.444934,-0.903166,-0.04578,-0.07896,0.55286
13.6027,0,0,5,5,18.6027,18.6027,-20.3026,2.95083,15.5039,0.0285025,0.0867209,0.0469765,0,1,2.8175,0.14,-0.315,0.040016,0.444934,-0.903166,-0.04578,-0.07896,0.55286
13.4965,0,0,5,5,18.4965,18.4965,-20.1441,2.92858,15.5119,-0.0217692,-0.139071,-0.0438925,0,1,2.485,0.595,-0.105,-0.010858,0.216794,-0.9943,-0.0441,-0.08162,0.55804
13.4975,0,0,5,5,18.4975,18.4975,-20.1455,2.9294,15.5118,-0.163679,0.34233,-0.142014,1,1,2.7825,0.3325,-0.1225,-0.153354,0.697718,-1.09166,-0.0441,-0.08162,0.55804
13.499,0,0,5,5,18.499,18.499,-20.1478,2.92896,15.5126,-0.163671,0.342293,-0.142028,1,1,2.2575,-0.525,0.07,-0.153354,0.697718,-1.09166,-0.0441,-0.08162,0.55804
13.4997,0,0,5,5,18.4997,18.4997,-20.1488,2.9283,15.5134,0.294463,-0.0644065,0.234066,1,1,2.9575,-0.665,0.07,0.306708,0.291458,-0.718458,-0.0441,-0.08162,0.55804
13.5004,0,0,5,5,18.5004,18.5004,-20.1498,2.92732,15.5137,0.29448,-0.0644235,0.234061,1,1,2.975,-0.735,-0.2625,0.306708,0.291458,-0.718458,-0.0441,-0.08162,0.55804
13.5008,0,0,5,5,18.5008,18.5008,-20.1504,2.92664,15.5141,-0.271024,0.0569602,-0.0757726,1,1,3.2025,-0.5775,-0.1925,-0.261202,0.412726,-1.0259,-0.0441,-0.08162,0.55804
13.5008,0,0,5,5,18.5008,18.5008,-20.1505,2.92672,15.514,-0.271025,0.0569595,-0.0757729,1,1,3.535,-0.07,-0.28,-0.261202,0.412726,-1.0259,-0.0441,-0.08162,0.55804
13.4916,0,0,5,5,18.4916,18.4916,-20.1367,2.9947,15.5146,0.0626042,-0.0104521,-0.00960144,0,1,3.2725,0,-0.2625,0.07503,0.345138,-0.960262,-0.0441,-0.08162,0.55804
13.4834,0,0,5,5,18.4834,18.4834,-20.1244,3.06107,15.5151,0.0614475,-0.0102299,-0.00958515,0,1,2.59,-0.14,-0.4025,0.07503,0.345138,-0.960262,-0.03822,-0.0763,0.55174
13.5429,0,0,5,5,18.5429,18.5429,-20.2133,3.17898,15.5102,0.115762,0.0936272,-0.0125607,0,1,2.38,0.175,-0.21,0.131638,0.450302,-0.96258,-0.03822,-0.0763,0.55174
13.6014,0,0,5,5,18.6014,18.6014,-20.3006,3.29518,15.5049,0.113737,0.0922405,-0.0131945,0,1,2.3975,0.525,-0.28,0.131638,0.450302,-0.96258,-0.03822,-0.0763,0.55174
13.6034,0,0,5,5,18.6034,18.6034,-20.3035,3.29605,15.5041,-0.0229493,0.0548222,0.169734,1,1,1.9425,0.5075,-0.5075,-0.005612,0.41297,-0.781044,-0.03822,-0.0763,0.55174
13.7061,0,0,5,5,18.7061,18.7061,-20.4569,3.82601,15.4943,0.450968,0.0526395,0.23601,0,1,2.2575,-0.175,-0.5075,0.479582,0.413092,-0.713822,-0.03822,-0.0763,0.55174
13.8059,0,0,5,5,18.8059,18.8059,-20.6059,4.34634,15.4839,0.441909,0.050438,0.234494,0,1,3.4125,-0.77,-0.385,0.479582,0.413092,-0.713822,-0.03822,-0.0763,0.55174
13.8058,0,0,5,5,18.8058,18.8058,-20.6057,4.34571,15.4841,-0.261482,0.154492,-0.166316,1,1,3.64,-0.525,-0.2625,-0.226798,0.517036,-1.11154,-0.03822,-0.0763,0.55174
13.8058,0,0,5,5,18.8058,18.8058,-20.6056,4.34555,15.4835,-0.261479,0.154493,-0.166315,1,1,3.6225,-0.0875,-0.63,-0.226798,0.517036,-1.11154,-0.03822,-0.0763,0.55174
13.8232,0,0,5,5,18.8232,18.8232,-20.6316,4.27601,15.4805,-0.0628547,0.0535285,-0.0701202,0,1,3.535,0.28,-0.7175,-0.028548,0.41663,-1.01602,-0.03906,-0.08022,0.54166
13.7627,0,0,5,5,18.7627,18.7627,-20.5414,4.01241,15.4865,-0.247541,-0.0760383,-0.0424541,0,1,2.66,0.07,-0.56,-0.218624,0.285846,-0.98942,-0.03906,-0.08022,0.54166
13.7035,0,0,5,5,18.7035,18.7035,-20.4529,3.75368,15.4918,-0.243035,-0.0747028,-0.0416284,0,1,2.6425,0.1225,-0.6475,-0.218624,0.285846,-0.98942,-0.03906,-0.08022,0.54166
13.7046,0,0,5,5,18.7046,18.7046,-20.4546,3.75401,15.4908,-0.13334,-0.216518,0.122866,1,1,2.6775,0.245,-0.7,-0.108458,0.144204,-0.826184,-0.03906,-0.08022,0.54166
13.7057,0,0,5,5,18.7057,18.7057,-20.4563,3.75478,15.4898,-0.133353,-0.216546,0.122855,1,1,2.6425,0.49,-0.63,-0.108458,0.144204,-0.826184,-0.03906,-0.08022,0.54166
13.8061,0,0,5,5,18.8061,18.8061,-20.6061,3.38628,15.4798,-0.358486,0.140655,0.0382183,0,1,3.2725,-0.175,-0.7175,-0.34099,0.503616,-0.909632,-0.03906,-0.08022,0.54166
13.9049,0,0,5,5,18.9049,18.9049,-20.7536,3.02392,15.472,-0.352171,0.138126,0.0376416,0,1,3.01,-0.595,-0.21,-0.34099,0.503616,-0.909632,-0.03906,-0.08022,0.54166
13.8304,0,0,5,5,18.8304,18.8304,-20.6424,2.81096,15.4779,-0.192472,-0.105726,-0.00538952,0,1,2.835,-0.56,-0.2625,-0.184342,0.258274,-0.953186,-0.03906,-0.08022,0.54166
13.7565,0,0,5,5,18.7565,18.7565,-20.5321,2.60277,15.483,-0.188842,-0.103986,-0.00455269,0,1,3.57,-0.0525,-0.2625,-0.184342,0.258274,-0.953186,-0.0476,-0.08064,0.53606
13.9884,0,0,5,5,18.9884,18.9884,-20.8782,2.43123,15.4675,-0.161311,0.282106,0.158311,0,1,3.5175,0.0875,-0.35,-0.159698,0.64965,-0.789584,-0.0476,-0.08064,0.53606
14.2158,0,0,5,5,19.2158,19.2158,-21.2177,2.26297,15.4544,-0.158377,0.276537,0.156297,0,1,3.675,0.035,0.3325,-0.159698,0.64965,-0.789584,-0.0476,-0.08064,0.53606
14.1766,0,0,5,5,19.1766,19.1766,-21.1591,2.19738,15.4575,-0.0581004,-0.0793812,0.0737172,0,1,4.165,-0.245,0.21,-0.060146,0.293166,-0.871934,-0.0476,-0.08064,0.53606
14.1381,0,0,5,5,19.1381,19.1381,-21.1017,2.13302,15.4604,-0.0569779,-0.0784623,0.0741179,0,1,4.165,-0.245,0.21,-0.060146,0.293166,-0.871934,-0.0476,-0.08064,0.53606
14.236,0,0,5,5,19.236,19.236,-21.2477,2.08846,15.4559,-0.041501,0.142034,0.0164225,0,1,2.7825,-0.2275,0.2275,-0.045384,0.515816,-0.928298,-0.0476,-0.08064,0.53606
14.332,0,0,5,5,19.332,19.332,-21.391,2.04472,15.4515,-0.0407381,0.139696,0.0155395,0,1,2.7825,-0.2275,0.2275,-0.045384,0.515816,-0.928298,-0.0476,-0.08064,0.53606
14.3329,0,0,5,5,19.3329,19.3329,-21.3925,2.0441,15.4532,-0.359141,0.155304,-0.0105344,1,1,2.7125,-0.8225,0.5075,-0.365146,0.531432,-0.954162,-0.0476,-0.08064,0.53606
14.3339,0,0,5,5,19.3339,19.3339,-21.3939,2.04347,15.4548,-0.35913,0.155281,-0.0105433,1,1,2.7125,-0.8225,0.5075,-0.365146,0.531432,-0.954162,-0.04214,-0.08708,0.53662
14.245,0,0,5,5,19.245,19.245,-21.2612,2.21172,15.4607,0.171986,-0.100211,-0.111605,0,1,3.2375,-0.385,0.2275,0.171166,0.274012,-1.05518,-0.04214,-0.08708,0.53662
14.3378,0,0,5,5,19.3378,19.3378,-21.3997,2.54398,15.4559,0.315498,0.111349,0.0787241,0,1,3.71,0.0175,0.4375,0.321104,0.487512,-0.865224,-0.04214,-0.08708,0.53662
14.4292,0,0,5,5,19.4292,19.4292,-21.5361,2.86937,15.4504,0.309825,0.109234,0.0776042,0,1,3.5,-0.4725,0.1925,0.321104,0.487512,-0.865224,-0.04214,-0.08708,0.53662
14.4089,0,0,5,5,19.4089,19.4089,-21.5059,3.06233,15.4524,0.15995,-0.0580145,0.0734548,0,1,2.7825,0.42,0.2275,0.173972,0.319884,-0.869372,-0.04214,-0.08708,0.53662
14.3887,0,0,5,5,19.3887,19.3887,-21.4757,3.25103,15.454,0.156662,-0.0574594,0.0734785,0,1,3.08,0.1575,-0.175,0.173972,0.319884,-0.869372,-0.04214,-0.08708,0.53662
14.5288,0,0,5,5,19.5288,19.5288,-21.6848,3.01828,15.4428,-0.214916,0.16244,0.10468,0,1,2.9225,-0.14,-0.1225,-0.203252,0.543022,-0.837286,-0.04214,-0.08708,0.53662
14.6658,0,0,5,5,19.6658,19.6658,-21.8892,2.79028,15.4321,-0.210941,0.159057,0.103545,0,1,3.4125,0.2975,-0.315,-0.203252,0.543022,-0.837286,-0.04214,-0.08708,0.53662
14.5289,0,0,5,5,19.5289,19.5289,-21.6849,2.8342,15.4418,0.039647,-0.18153,-0.0561071,0,1,3.2375,0.105,-0.3675,0.049166,0.19947,-0.996984,-0.04088,-0.09296,0.53396
14.525,0,0,5,5,19.525,19.525,-21.6791,2.69811,15.441,-0.1198,-0.0329718,0.0642805,0,1,2.345,0.035,-0.91,-0.113338,0.347822,-0.877668,-0.04088,-0.09296,0.53396
14.5214,0,0,5,5,19.5214,19.5214,-21.6737,2.5637,15.4406,-0.117456,-0.032925,0.064415,0,1,2.135,-0.525,-0.875,-0.113338,0.347822,-0.877668,-0.04088,-0.09296,0.53396
14.5227,0,0,5,5,19.5227,19.5227,-21.6756,2.56292,15.4396,0.0583473,0.000139893,0.253744,1,1,2.5025,-0.3325,-0.98,0.063196,0.380884,-0.689788,-0.04088,-0.09296,0.53396
14.524,0,0,5,5,19.524,19.524,-21.6776,2.56238,15.4378,0.0583567,0.000107418,0.253731,1,1,2.485,-0.035,-1.3475,0.063196,0.380884,-0.689788,-0.04088,-0.09296,0.53396
14.7252,0,0,5,5,19.7252,19.7252,-21.978,2.74598,15.4219,0.16668,0.230884,0.161771,0,1,2.73,-0.035,-1.505,0.175192,0.616222,-0.77897,-0.04088,-0.09296,0.53396
14.9234,0,0,5,5,19.9234,19.9234,-22.2737,2.92618,15.4058,0.163538,0.226167,0.159685,0,1,2.345,-0.175,-1.225,0.175192,0.616222,-0.77897,-0.04088,-0.09296,0.53396
15.0109,0,0,5,5,20.0109,20.0109,-22.4043,3.31691,15.3975,0.376618,0.0952377,0.0936832,0,1,2.0825,0.07,-0.98,0.396012,0.48739,-0.843264,-0.04088,-0.09296,0.53396
15.097,0,0,5,5,20.097,20.097,-22.5329,3.70045,15.388,0.369937,0.0933236,0.0924483,0,1,1.9775,0,-1.3125,0.396012,0.48739,-0.843264,-0.04746,-0.09576,0.5313
15.2335,0,0,5,5,20.2335,20.2335,-22.7366,3.33589,15.3744,-0.319826,0.109561,0.182302,0,1,1.995,0.0525,-1.015,-0.303048,0.507032,-0.753106,-0.04746,-0.09576,0.5313
15.3658,0,0,5,5,20.3658,20.3658,-22.9341,2.97781,15.3629,-0.313586,0.106256,0.181284,0,1,3.3425,-0.0175,-0.56,-0.303048,0.507032,-0.753106,-0.04746,-0.09576,0.5313
15.3659,0,0,5,5,20.3659,20.3659,-22.9341,2.97819,15.3624,-0.0220265,0.126406,-0.120064,1,1,3.535,0.1925,-0.4375,-0.010248,0.527162,-1.05213,-0.04746,-0.09576,0.5313
15.3654,0,0,5,5,20.3654,20.3654,-22.9334,2.97803,15.3627,-0.0220237,0.126417,-0.120059,1,1,3.955,-0.2975,-0.105,-0.010248,0.527162,-1.05213,-0.04746,-0.09576,0.5313
15.3655,0,0,5,5,20.3655,20.3655,-22.9336,2.97856,15.3629,0.126666,0.192118,-0.0419885,1,1,3.43,0.105,-0.0175,0.13908,0.592798,-0.974658,-0.04746,-0.09576,0.5313
15.3673,0,0,5,5,20.3673,20.3673,-22.9363,2.97939,15.3637,0.126651,0.192076,-0.0420072,1,1,2.0475,0.14,0.35,0.13908,0.592798,-0.974658,-0.04746,-0.09576,0.5313
15.3694,0,0,5,5,20.3694,20.3694,-22.9395,2.98041,15.3647,-0.0439325,0.0628151,-0.170757,1,1,1.75,0.175,0.56,-0.032208,0.463722,-1.10239,-0.04746,-0.09576,0.5313
15.3706,0,0,5,5,20.3706,20.3706,-22.9412,2.98172,15.366,-0.0439555,0.0627874,-0.17077,1,1,2.5375,0.28,0.7525,-0.032208,0.463722,-1.10239,-0.04452,-0.08764,0.53452
15.4127,0,0,5,5,20.4127,20.4127,-23.004,3.14506,15.3646,0.152434,0.0507264,0.0264873,0,1,2.38,0.1225,1.0325,0.167872,0.45262,-0.906094,-0.04452,-0.08764,0.53452
15.4527,0,0,5,5,20.4527,20.4527,-23.0638,3.30478,15.3632,0.149651,0.0498289,0.0259354,0,1,3.395,-0.2275,0.9625,0.167872,0.45262,-0.906094,-0.04452,-0.08764,0.53452
15.4529,0,0,5,5,20.4529,20.4529,-23.064,3.30564,15.365,0.053055,-0.0929415,0.104743,1,1,3.3425,-0.07,0.8925,0.070882,0.310002,-0.827892,-0.04452,-0.08764,0.53452
15.4536,0,0,5,5,20.4536,20.4536,-23.0651,3.307,15.3666,0.0530314,-0.0929576,0.104734,1,1,2.9225,0.2275,0.9275,0.070882,0.310002,-0.827892,-0.04452,-0.08764,0.53452
15.4539,0,0,5,5,20.4539,20.4539,-23.0655,3.30803,15.3679,-0.0848729,-0.181261,0.154279,1,1,3.29,0.1225,0.7,-0.067588,0.221796,-0.778726,-0.04452,-0.08764,0.53452
15.4547,0,0,5,5,20.4547,20.4547,-23.0667,3.30879,15.3686,-0.084886,-0.18128,0.15427,1,1,2.8525,0.105,0.315,-0.067588,0.221796,-0.778726,-0.04452,-0.08764,0.53452
15.4815,0,0,5,5,20.4815,20.4815,-23.1067,3.00803,15.3598,-0.275723,0.017154,0.0481581,0,1,2.6425,0.245,-4.34,-0.264496,0.420778,-0.884012,-0.04452,-0.08764,0.53452
15.507,0,0,5,5,20.507,20.507,-23.1447,2.71474,15.3576,-0.27061,0.0164438,0.0481327,0,1,3.115,-0.105,-0.4375,-0.264496,0.420778,-0.884012,-0.04452,-0.08764,0.53452
15.582,0,0,5,5,20.582,20.582,-23.2567,2.76546,15.3511,0.047041,0.0906285,0.0469557,0,1,2.345,0.035,-1.015,0.055388,0.496662,-0.884378,-0.04242,-0.09296,0.53158
15.571,0,0,5,5,20.571,20.571,-23.2403,2.80194,15.3503,0.0302474,-0.0343981,0.0392946,0,1,2.6075,0,-1.2075,0.039162,0.37149,-0.892064,-0.04242,-0.09296,0.53158
15.5722,0,0,5,5,20.5722,20.5722,-23.242,2.8014,15.3485,0.251968,0.123972,-0.0191176,1,1,2.625,0,-1.365,0.261812,0.529724,-0.950014,-0.04242,-0.09296,0.53158
15.573,0,0,5,5,20.573,20.573,-23.2433,2.8003,15.3462,0.251987,0.123951,-0.0191255,1,1,2.905,-0.1925,-1.7325,0.261812,0.529724,-0.950014,-0.04242,-0.09296,0.53158
15.4655,0,0,5,5,20.4655,20.4655,-23.0829,2.92555,15.3517,0.130991,-0.124405,-0.122386,0,1,3.57,0.0525,-1.715,0.142496,0.279014,-1.05347,-0.04242,-0.09296,0.53158
15.3601,0,0,5,5,20.3601,20.3601,-22.9255,3.04868,15.3578,0.128845,-0.121836,-0.121417,0,1,3.4475,0.0875,-1.505,0.142496,0.279014,-1.05347,-0.04242,-0.09296,0.53158
15.3602,0,0,5,5,20.3602,20.3602,-22.9257,3.04797,15.3555,-0.137075,0.0250786,0.223944,1,1,3.5175,0.0175,-1.6625,-0.124562,0.42578,-0.710772,-0.04242,-0.09296,0.53158
15.3607,0,0,5,5,20.3607,20.3607,-22.9264,3.0473,15.3537,-0.137063,0.0250666,0.22394,1,1,3.2025,-0.0875,-1.365,-0.124562,0.42578,-0.710772,-0.0441,-0.09786,0.53606
15.3506,0,0,5,5,20.3506,20.3506,-22.9113,2.97113,15.3528,-0.0701332,-0.0279655,0.0270202,0,1,2.5375,0.2275,-1.1725,-0.058682,0.372588,-0.906338,-0.0441,-0.09786,0.53606
15.3398,0,0,5,5,20.3398,20.3398,-22.8953,2.89651,15.3529,-0.0688325,-0.0277338,0.0271905,0,1,3.2025,0.0875,-0.6475,-0.058682,0.372588,-0.906338,-0.0441,-0.09786,0.53606
15.341,0,0,5,5,20.341,20.341,-22.897,2.89779,15.353,0.0265114,-0.00626676,0.139799,1,1,2.59,0.5425,0.0875,0.037088,0.39406,-0.794586,-0.0441,-0.09786,0.53606
15.3418,0,0,5,5,20.3418,20.3418,-22.8982,2.89855,15.3538,0.0264982,-0.00628553,0.13979,1,1,2.87,0.0875,0.3675,0.037088,0.39406,-0.794586,-0.0441,-0.09786,0.53606
15.3186,0,0,5,5,20.3186,20.3186,-22.8636,2.84047,15.3573,-0.0543708,-0.0646148,0.0774904,0,1,3.255,-0.105,0.91,-0.04514,0.335256,-0.856684,-0.0441,-0.09786,0.53606
15.2959,0,0,5,5,20.2959,20.2959,-22.8297,2.78347,15.3608,-0.0533771,-0.0640883,0.0777651,0,1,3.255,-0.105,0.91,-0.04514,0.335256,-0.856684,-0.0441,-0.09786,0.53606
15.0518,0,0,5,5,20.0518,20.0518,-22.4654,2.67507,15.3815,-0.105791,-0.336467,-0.0883916,0,1,3.2375,-0.385,1.715,-0.099674,0.05734,-1.02407,-0.0441,-0.09786,0.53606
14.812,0,0,5,5,19.812,19.812,-22.1075,2.56843,15.4011,-0.103932,-0.330725,-0.0859464,0,1,3.2375,-0.385,1.715,-0.099674,0.05734,-1.02407,-0.0413,-0.08904,0.53592
14.8123,0,0,5,5,19.8123,19.8123,-22.1078,2.56985,15.4042,-0.219125,-0.0586323,-0.159965,1,1,3.2725,-0.035,1.715,-0.21533,0.329156,-1.09751,-0.0413,-0.08904,0.53592
14.8572,0,0,5,5,19.8572,19.8572,-22.175,3.06269,15.4041,0.460135,0.0116426,0.140918,0,1,3.675,-0.21,1.75,0.475434,0.400282,-0.798124,-0.0413,-0.08904,0.53592
14.9019,0,0,5,5,19.9019,19.9019,-22.2417,3.54692,15.4028,0.451698,0.0107511,0.140028,0,1,3.36,-0.3325,1.295,0.475434,0.400282,-0.798124,-0.0413,-0.08904,0.53592
14.8827,0,0,5,5,19.8827,19.8827,-22.213,3.74753,15.4069,0.192962,-0.0261951,-0.0117078,0,1,2.8525,-0.175,1.1375,0.219112,0.362828,-0.948672,-0.0413,-0.08904,0.53592
14.8631,0,0,5,5,19.8631,19.8631,-22.1838,3.94354,15.4098,0.189549,-0.0256369,-0.0117278,0,1,3.5,-0.385,0.21,0.219112,0.362828,-0.948672,-0.0413,-0.08904,0.53592
14.8635,0,0,5,5,19.8635,19.8635,-22.1844,3.94358,15.4102,-0.125829,0.0813364,0.183019,1,1,3.2025,-0.21,0.0175,-0.0976,0.4697,-0.755424,-0.0413,-0.08904,0.53592
14.8628,0,0,5,5,19.8628,19.8628,-22.1833,3.94309,15.4096,-0.12582,0.0813524,0.183026,1,1,4.1475,-0.2625,-0.7,-0.0976,0.4697,-0.755424,-0.0413,-0.08904,0.53592
14.7836,0,0,5,5,19.7836,19.7836,-22.0651,4.0716,15.4167,0.125848,-0.100848,-0.0528969,0,1,4.0075,-0.1925,-0.9275,0.15738,0.285724,-0.990152,-0.04018,-0.09562,0.53662
14.8882,0,0,5,5,19.8882,19.8882,-22.2212,3.9542,15.4032,-0.110099,0.137414,0.0537912,0,1,3.78,-0.175,-1.89,-0.081618,0.526308,-0.883402,-0.04018,-0.09562,0.53662
14.9915,0,0,5,5,19.9915,19.9915,-22.3754,3.8388,15.3899,-0.108089,0.134878,0.0528992,0,1,3.2725,-0.175,-2.065,-0.081618,0.526308,-0.883402,-0.04018,-0.09562,0.53662
15.0198,0,0,5,5,20.0198,20.0198,-22.4176,3.39264,15.3838,-0.449832,0.0391185,0.0137296,0,1,3.115,0.49,-2.17,-0.432612,0.431514,-0.922442,-0.04018,-0.09562,0.53662
15.0476,0,0,5,5,20.0476,20.0476,-22.459,2.95395,15.3781,-0.442187,0.0382892,0.0138457,0,1,3.115,0.49,-2.17,-0.432612,0.431514,-0.922442,-0.04018,-0.09562,0.53662
15.1474,0,0,5,5,20.1474,20.1474,-22.6081,2.94771,15.3677,-0.00266498,0.146901,0.0235518,0,1,3.115,-0.4025,-2.135,0.008662,0.542412,-0.911828,-0.04018,-0.09562,0.53662
15.2455,0,0,5,5,20.2455,20.2455,-22.7544,2.94157,15.3574,-0.00255786,0.144545,0.0225734,0,1,3.115,-0.4025,-2.135,0.008662,0.542412,-0.911828,-0.04018,-0.09562,0.53662
15.3153,0,0,5,5,20.3153,20.3153,-22.8586,3.31534,15.3502,0.381019,0.0935482,0.0521556,0,1,3.9025,-0.1225,-1.2075,0.400404,0.493002,-0.88145,-0.04018,-0.09562,0.53662
15.2684,0,0,5,5,20.2684,20.2684,-22.7887,3.5485,15.3533,0.226072,-0.0659533,-0.0206278,0,1,2.9925,0.2275,-0.7875,0.24888,0.33245,-0.953918,-0.04116,-0.09674,0.53746
15.2679,0,0,5,5,20.2679,20.2679,-22.788,3.54869,15.3533,-0.19245,-0.0735136,-0.131769,1,1,3.955,-0.035,-0.1925,-0.17141,0.324886,-1.06421,-0.04116,-0.09674,0.53746
15.2688,0,0,5,5,20.2688,20.2688,-22.7893,3.55,15.3545,-0.192473,-0.0735341,-0.131779,1,1,2.7825,0.2975,0.7175,-0.17141,0.324886,-1.06421,-0.04116,-0.09674,0.53746
15.2432,0,0,5,5,20.2432,20.2432,-22.751,3.72194,15.3586,0.137646,-0.0752876,0.0940374,0,1,3.1325,0.28,0.9275,0.163114,0.322446,-0.840214,-0.04116,-0.09674,0.53746
15.2177,0,0,5,5,20.2177,20.2177,-22.713,3.88985,15.3639,0.134722,-0.0746027,0.0941135,0,1,3.2725,-0.4725,1.3825,0.163114,0.322446,-0.840214,-0.04116,-0.09674,0.53746
15.2669,0,0,5,5,20.2669,20.2669,-22.7864,3.73975,15.3618,-0.150464,0.104288,-0.0586762,0,1,2.345,0.0525,1.505,-0.125904,0.502396,-0.991494,-0.04116,-0.09674,0.53746
15.3139,0,0,5,5,20.3139,20.3139,-22.8566,3.59138,15.3602,-0.147879,0.103097,-0.0589977,0,1,3.3775,-0.5425,1.4175,-0.125904,0.502396,-0.991494,-0.04116,-0.09674,0.53746
15.3145,0,0,5,5,20.3145,20.3145,-22.8574,3.59223,15.363,0.345459,0.240721,0.0682475,1,1,2.9925,-0.315,1.4525,0.369538,0.63989,-0.865224,-0.04116,-0.09674,0.53746
15.3153,0,0,5,5,20.3153,20.3153,-22.8586,3.5928,15.3656,0.345449,0.240703,0.0682391,1,1,2.8175,-0.4025,1.2425,0.369538,0.63989,-0.865224,-0.04102,-0.10122,0.53606
15.3868,0,0,5,5,20.3868,20.3868,-22.9654,3.54452,15.3609,-0.0445293,0.1271,-0.0239108,0,1,3.4475,-0.5425,0.8225,-0.022936,0.528138,-0.955992,-0.04102,-0.10122,0.53606
15.4578,0,0,5,5,20.4578,20.4578,-23.0713,3.49802,15.3551,-0.0437192,0.125382,-0.0245864,0,1,2.905,0.245,0.315,-0.022936,0.528138,-0.955992,-0.04102,-0.10122,0.53606
15.248,0,0,5,5,20.248,20.248,-22.7582,3.33665,15.3739,-0.153161,-0.292217,-0.0464057,0,1,3.4475,0.0875,-0.035,-0.135664,0.106018,-0.979904,-0.04102,-0.10122,0.53606
15.0425,0,0,5,5,20.0425,20.0425,-22.4516,3.17743,15.391,-0.150386,-0.287344,-0.0442059,0,1,2.9575,-0.0875,-0.4725,-0.135664,0.106018,-0.979904,-0.04102,-0.10122,0.53606
15.0435,0,0,5,5,20.0435,20.0435,-22.4529,3.17689,15.3897,0.247124,-0.23644,0.198117,1,1,2.8175,-0.14,-1.05,0.26352,0.156892,-0.739442,-0.04102,-0.10122,0.53606
15.1521,0,0,5,5,20.1521,20.1521,-22.615,3.42064,15.3791,0.203273,0.0771088,0.175169,0,1,2.905,-0.14,-1.12,0.223748,0.472628,-0.760914,-0.04102,-0.10122,0.53606
15.2594,0,0,5,5,20.2594,20.2594,-22.7752,3.65994,15.3676,0.199104,0.0746351,0.173855,0,1,2.4675,-0.1225,-1.3125,0.223748,0.472628,-0.760914,-0.04102,-0.10122,0.53606
15.2609,0,0,5,5,20.2609,20.2609,-22.7775,3.65984,15.3654,-0.256708,0.28148,-0.0586562,1,1,2.31,0.315,-1.47,-0.233996,0.679296,-0.991616,-0.04802,-0.09884,0.52654
15.1295,0,0,5,5,20.1295,20.1295,-22.5814,3.48957,15.3753,-0.156554,-0.189657,-0.00356218,0,1,2.9575,0.105,-1.68,-0.136396,0.20557,-0.938424,-0.04802,-0.09884,0.52654
15.0004,0,0,5,5,20.0004,20.0004,-22.3886,3.32147,15.3852,-0.153625,-0.186621,-0.00211707,0,1,2.9925,-0.5425,-1.4,-0.136396,0.20557,-0.938424,-0.04802,-0.09884,0.52654
14.9503,0,0,5,5,19.9503,19.9503,-22.3139,3.10893,15.3878,-0.206777,-0.0573851,-0.0541743,0,1,3.3775,-0.14,-1.2425,-0.193492,0.333548,-0.990762,-0.04802,-0.09884,0.52654
14.9008,0,0,5,5,19.9008,19.9008,-22.24,2.90054,15.3907,-0.203144,-0.0562646,-0.0535093,0,1,3.6925,-0.0875,-0.875,-0.193492,0.333548,-0.990762,-0.04802,-0.09884,0.52654
14.808,0,0,5,5,19.808,19.808,-22.1015,2.69979,15.3969,-0.190655,-0.128714,-0.0323996,0,1,2.9925,0.07,-0.5425,-0.184464,0.259006,-0.970876,-0.04802,-0.09884,0.52654
14.7165,0,0,5,5,19.7165,19.7165,-21.9649,2.50294,15.4033,-0.187223,-0.126564,-0.0313611,0,1,3.4125,0.07,-0.035,-0.184464,0.259006,-0.970876,-0.04802,-0.09884,0.52654
14.6463,0,0,5,5,19.6463,19.6463,-21.8601,2.36628,15.4084,-0.125312,-0.111107,0.0226513,0,1,2.765,0.105,0.245,-0.124684,0.272792,-0.91805,-0.04802,-0.09884,0.52654
14.5778,0,0,5,5,19.5778,19.5778,-21.7578,2.23135,15.4136,-0.122959,-0.109486,0.0234016,0,1,2.45,-0.385,0.28,-0.124684,0.272792,-0.91805,-0.03794,-0.09954,0.53074
14.4953,0,0,5,5,19.4953,19.4953,-21.6347,2.23521,15.4194,0.00465528,-0.104192,-0.0675265,0,1,2.52,-0.2975,0.2625,0.003538,0.276086,-1.00906,-0.03794,-0.09954,0.53074
14.4134,0,0,5,5,19.4134,19.4134,-21.5125,2.23998,15.4249,0.00457216,-0.102208,-0.0667457,0,1,3.2725,0.28,0.3675,0.003538,0.276086,-1.00906,-0.03794,-0.09954,0.53074
14.4142,0,0,5,5,19.4142,19.4142,-21.5138,2.23982,15.4258,0.280469,-0.0835439,-0.101917,1,1,2.8175,-0.42,0.2275,0.2806,0.294752,-1.04395,-0.03794,-0.09954,0.53074
14.4152,0,0,5,5,19.4152,19.4152,-21.5152,2.23954,15.4265,0.280474,-0.083568,-0.101926,1,1,2.7125,-0.4375,0.07,0.2806,0.294752,-1.04395,-0.03794,-0.09954,0.53074
14.5176,0,0,5,5,19.5176,19.5176,-21.6681,2.25893,15.4207,0.0125027,0.0849352,0.140887,0,1,3.1325,0,-0.07,0.011834,0.465552,-0.802028,-0.03794,-0.09954,0.53074
14.6188,0,0,5,5,19.6188,19.6188,-21.8191,2.27813,15.4149,0.0121679,0.0824942,0.139899,0,1,2.6425,0.1225,-0.105,0.011834,0.465552,-0.802028,-0.03794,-0.09954,0.53074
14.5945,0,0,5,5,19.5945,19.5945,-21.7828,2.31328,15.4159,0.0369454,-0.0132672,-0.0653356,0,1,3.43,0.245,-0.35,0.037332,0.369294,-1.00589,-0.03794,-0.09954,0.53074
14.5706,0,0,5,5,19.5706,19.5706,-21.7472,2.34778,15.417,0.0363437,-0.0126813,-0.0651281,0,1,3.43,0.245,-0.35,0.037332,0.369294,-1.00589,-0.04592,-0.0987,0.5201
14.5711,0,0,5,5,19.5711,19.5711,-21.7479,2.34764,15.4164,-0.0929146,-0.0915858,0.203879,1,1,3.2025,-0.0875,-0.5775,-0.092476,0.290482,-0.738954,-0.04592,-0.0987,0.5201
14.5715,0,0,5,5,19.5715,19.5715,-21.7485,2.34751,15.4158,-0.0929122,-0.0915965,0.203875,1,1,3.2025,-0.0875,-0.5775,-0.092476,0.290482,-0.738954,-0.04592,-0.0987,0.5201
14.7601,0,0,5,5,19.7601,19.7601,-22.03,2.00519,15.4043,-0.348379,0.258909,0.121601,0,1,3.3775,-0.2275,-0.805,-0.35502,0.645258,-0.818986,-0.04592,-0.0987,0.5201
14.7598,0,0,5,5,19.7598,19.7598,-22.0295,2.00471,15.404,0.248245,-0.138729,-0.150358,1,1,3.815,-0.315,-0.5425,0.244122,0.248026,-1.08885,-0.04592,-0.0987,0.5201
14.7593,0,0,5,5,19.7593,19.7593,-22.0287,2.00496,15.4045,0.248241,-0.138716,-0.150353,1,1,3.99,-0.1225,0.1225,0.244122,0.248026,-1.08885,-0.04592,-0.0987,0.5201
14.7582,0,0,5,5,19.7582,19.7582,-22.0272,2.00467,15.4051,0.0170589,-0.118785,-0.22989,1,1,4.3925,-0.42,0,0.011956,0.267912,-1.16778,-0.04592,-0.0987,0.5201
14.7583,0,0,5,5,19.7583,19.7583,-22.0274,2.00442,15.4057,0.0170631,-0.118787,-0.229891,1,1,3.465,-0.4025,0.035,0.011956,0.267912,-1.16778,-0.04592,-0.0987,0.5201
14.7579,0,0,5,5,19.7579,19.7579,-22.0268,2.00465,15.4062,-0.054253,0.0480475,0.146704,1,1,3.885,-0.1225,0.0875,-0.059658,0.434564,-0.794098,-0.04032,-0.10374,0.52136
14.7718,0,0,5,5,19.7718,19.7718,-22.0474,2.00171,15.4064,-0.00269181,0.0312258,-0.0244509,0,1,3.255,0.21,0.4725,-0.00793,0.418094,-0.9638,-0.04032,-0.10374,0.52136
14.7852,0,0,5,5,19.7852,19.7852,-22.0675,1.99786,15.4063,-0.00262462,0.030901,-0.0245799,0,1,3.395,-0.245,0.0875,-0.00793,0.418094,-0.9638,-0.04032,-0.10374,0.52136
14.821,0,0,5,5,19.821,19.821,-22.1209,1.97307,15.4048,-0.0235736,0.0664261,-0.0240558,0,1,3.185,0.07,0.0175,-0.029402,0.45445,-0.962946,-0.04032,-0.10374,0.52136
14.8554,0,0,5,5,19.8554,19.8554,-22.1722,1.94889,15.4034,-0.0231519,0.0655918,-0.0243797,0,1,3.815,0.14,0.105,-0.029402,0.45445,-0.962946,-0.04032,-0.10374,0.52136
14.875,0,0,5,5,19.875,19.875,-22.2015,1.92521,15.3958,-0.0204306,0.00368257,0.0616267,0,1,3.9025,-0.28,-4.4625,-0.027084,0.393084,-0.877424,-0.04032,-0.10374,0.52136
14.8946,0,0,5,5,19.8946,19.8946,-22.2307,1.9046,15.3948,-0.020071,0.00320707,0.0614455,0,1,3.5875,-0.2975,-0.35,-0.027084,0.393084,-0.877424,-0.04032,-0.10374,0.52136
14.9048,0,0,5,5,19.9048,19.9048,-22.2459,1.81491,15.3942,-0.0873889,0.0332294,-0.0404093,0,1,3.6925,-0.525,-0.42,-0.096258,0.42334,-0.97844,-0.04032,-0.10374,0.52136
14.9155,0,0,5,5,19.9155,19.9155,-22.2619,1.72778,15.3934,-0.0858689,0.0329535,-0.0404714,0,1,3.115,0.0525,-0.4025,-0.096258,0.42334,-0.97844,-0.04368,-0.1008,0.52444
15.084,0,0,5,5,20.084,20.084,-22.5134,1.79037,15.3847,0.0498321,0.153601,0.195978,0,1,3.4125,0.35,-0.6475,0.041114,0.547902,-0.742126,-0.04368,-0.1008,0.52444
15.2501,0,0,5,5,20.2501,20.2501,-22.7614,1.8519,15.3758,0.0487587,0.149621,0.194281,0,1,2.87,0.42,-0.6825,0.041114,0.547902,-0.742126,-0.04368,-0.1008,0.52444
15.3543,0,0,5,5,20.3543,20.3543,-22.9169,1.87914,15.3693,0.0213137,0.0941246,0.128789,0,1,3.15,0.2625,-0.9975,0.01403,0.494954,-0.806054,-0.04368,-0.1008,0.52444
15.4566,0,0,5,5,20.4566,20.4566,-23.0696,1.90587,15.3628,0.0208474,0.0916786,0.127734,0,1,3.15,0.2625,-0.9975,0.01403,0.494954,-0.806054,-0.04368,-0.1008,0.52444
15.4411,0,0,5,5,20.4411,20.4411,-23.0463,2.03507,15.3629,0.124651,-0.022473,-0.00570028,0,1,3.2375,-0.21,-0.7875,0.120536,0.380518,-0.938546,-0.04368,-0.1008,0.52444
15.4258,0,0,5,5,20.4258,20.4258,-23.0235,2.16195,15.3629,0.122438,-0.0220751,-0.00561918,0,1,3.2375,-0.21,-0.7875,0.120536,0.380518,-0.938546,-0.04368,-0.1008,0.52444
15.4196,0,0,5,5,20.4196,20.4196,-23.0144,2.10168,15.363,-0.0575246,-0.00802138,0.000626523,0,1,4.445,-0.035,-0.2975,-0.061244,0.394426,-0.932446,-0.04368,-0.1008,0.52444
15.4136,0,0,5,5,20.4136,20.4136,-23.0054,2.0425,15.3631,-0.0564924,-0.00789209,0.000722006,0,1,4.445,-0.035,-0.2975,-0.061244,0.394426,-0.932446,-0.04438,-0.1064,0.518
15.5458,0,0,5,5,20.5458,20.5458,-23.2027,1.71419,15.3574,-0.316819,0.150077,0.127657,0,1,3.29,0.105,0.28,-0.328424,0.555466,-0.805322,-0.04438,-0.1064,0.518
15.5457,0,0,5,5,20.5457,20.5457,-23.2026,1.7154,15.3579,0.437586,0.000839533,-0.0120125,1,1,3.605,0.385,0.35,0.429196,0.406382,-0.943914,-0.04438,-0.1064,0.518
15.5473,0,0,5,5,20.5473,20.5473,-23.205,1.7158,15.3581,0.437579,0.000801522,-0.012029,1,1,2.2225,0.035,-0.0525,0.429196,0.406382,-0.943914,-0.04438,-0.1064,0.518
15.4303,0,0,5,5,20.4303,20.4303,-23.0303,1.77481,15.3637,0.0606728,-0.148676,-0.105655,0,1,2.5725,-0.0875,-0.105,0.051728,0.254248,-1.03798,-0.04438,-0.1064,0.518
15.3148,0,0,5,5,20.3148,20.3148,-22.858,1.83339,15.3693,0.0596509,-0.145895,-0.104513,0,1,3.0275,0.2625,0.035,0.051728,0.254248,-1.03798,-0.04438,-0.1064,0.518
15.2941,0,0,5,5,20.2941,20.2941,-22.8271,1.81504,15.3705,-0.0182657,-0.0373201,0.0131218,0,1,3.2025,0.0175,-0.0525,-0.02684,0.362218,-0.921466,-0.04438,-0.1064,0.518
15.2727,0,0,5,5,20.2727,20.2727,-22.795,1.79653,15.3719,-0.017943,-0.0368081,0.0133482,0,1,4.1825,-0.2975,-0.035,-0.02684,0.362218,-0.921466,-0.04438,-0.1064,0.518
15.2714,0,0,5,5,20.2714,20.2714,-22.7931,1.79715,15.372,0.344317,-0.0288387,-0.183603,1,1,4.6375,0.175,-0.0525,0.336964,0.370148,-1.11691,-0.03822,-0.10234,0.53032
15.2712,0,0,5,5,20.2712,20.2712,-22.7929,1.79699,15.3717,-0.2444,0.273672,-0.0140554,1,1,3.6575,-0.1575,-0.42,-0.254248,0.672342,-0.948672,-0.03822,-0.10234,0.53032
15.2713,0,0,5,5,20.2713,20.2713,-22.793,1.79699,15.3708,-0.2444,0.27367,-0.014056,1,1,3.5175,0.07,-0.735,-0.254248,0.672342,-0.948672,-0.03822,-0.10234,0.53032
15.2986,0,0,5,5,20.2986,20.2986,-22.8337,1.88927,15.368,0.097916,0.0690845,-0.0555667,0,1,3.5,0.525,-0.91,0.091134,0.468602,-0.989542,-0.03822,-0.10234,0.53032
15.3259,0,0,5,5,20.3259,20.3259,-22.8745,1.97978,15.366,0.0963371,0.0684488,-0.0558925,0,1,2.9925,0.2975,-0.525,0.091134,0.468602,-0.989542,-0.03822,-0.10234,0.53032
15.3262,0,0,5,5,20.3262,20.3262,-22.8749,1.98007,15.3649,-0.106792,0.0158065,-0.142574,1,1,3.3775,0.2625,-0.7525,-0.11285,0.41602,-1.07555,-0.03822,-0.10234,0.53032
15.3268,0,0,5,5,20.3268,20.3268,-22.8758,1.97956,15.3643,-0.106783,0.0157919,-0.14258,1,1,3.0625,-0.28,-0.665,-0.11285,0.41602,-1.07555,-0.03822,-0.10234,0.53032
15.2522,0,0,5,5,20.2522,20.2522,-22.7645,2.1961,15.3685,0.20178,-0.116827,0.0109941,0,1,4.095,-0.4375,-0.28,0.200812,0.281698,-0.923784,-0.03822,-0.10234,0.53032
15.1778,0,0,5,5,20.1778,20.1778,-22.6535,2.40965,15.374,0.198056,-0.114983,0.0116034,0,1,5.0225,-0.21,0.455,0.200812,0.281698,-0.923784,-0.04606,-0.10304,0.5264
15.0732,0,0,5,5,20.0732,20.0732,-22.4973,2.47495,15.3821,0.0640117,-0.137975,-0.0630094,0,1,4.2,-0.35,0.6125,0.067344,0.2562,-0.998814,-0.04606,-0.10304,0.5264
14.9703,0,0,5,5,19.9703,19.9703,-22.3438,2.53859,15.3903,0.0629021,-0.135482,-0.0620332,0,1,4.2875,-0.6125,0.525,0.067344,0.2562,-0.998814,-0.04606,-0.10304,0.5264
15.0219,0,0,5,5,20.0219,20.0219,-22.4207,2.65201,15.3885,0.0987066,0.0374646,0.0929028,0,1,3.92,-0.2275,0.7875,0.105286,0.430172,-0.844484,-0.04606,-0.10304,0.5264
15.0735,0,0,5,5,20.0735,20.0735,-22.4978,2.76355,15.3864,0.0967619,0.0362583,0.0923046,0,1,3.0975,-0.105,0.735,0.105286,0.430172,-0.844484,-0.04606,-0.10304,0.5264
15.0743,0,0,5,5,20.0743,20.0743,-22.499,2.76388,15.3873,-0.287625,0.23836,-0.0193405,1,1,2.8875,-0.1575,0.315,-0.280722,0.632082,-0.95526,-0.04606,-0.10304,0.5264
15.0754,0,0,5,5,20.0754,20.0754,-22.5006,2.76547,15.3879,-0.287652,0.238334,-0.0193527,1,1,2.625,0.595,0.42,-0.280722,0.632082,-0.95526,-0.04606,-0.10304,0.5264
14.9897,0,0,5,5,19.9897,19.9897,-22.3727,2.66415,15.3947,-0.0986764,-0.11356,-0.0501448,0,1,3.5175,-0.14,0.28,-0.09272,0.278526,-0.986736,-0.04606,-0.10304,0.5264
14.9047,0,0,5,5,19.9047,19.9047,-22.2458,2.56451,15.4017,-0.0969392,-0.111544,-0.0492316,0,1,4.2175,-0.2975,0.49,-0.09272,0.278526,-0.986736,-0.04004,-0.10444,0.52598
14.7964,0,0,5,5,19.7964,19.7964,-22.0841,2.63412,15.4101,0.0631802,-0.154344,-0.0172364,0,1,4.55,-0.2975,0.3675,0.069296,0.233142,-0.955992,-0.04004,-0.10444,0.52598
14.6906,0,0,5,5,19.6906,19.6906,-21.9262,2.70219,15.4178,0.0619934,-0.151771,-0.0162561,0,1,4.0775,-0.2975,-0.0525,0.069296,0.233142,-0.955992,-0.04004,-0.10444,0.52598
14.6047,0,0,5,5,19.6047,19.6047,-21.7981,2.56959,15.4237,-0.1291,-0.116763,-0.0427431,0,1,3.3075,0.1225,-0.14,-0.124928,0.266082,-0.983198,-0.04004,-0.10444,0.52598
14.5203,0,0,5,5,19.5203,19.5203,-21.6721,2.43878,15.4283,-0.126819,-0.11476,-0.0418369,0,1,3.43,0.0175,-0.7525,-0.124928,0.266082,-0.983198,-0.04004,-0.10444,0.52598
14.5206,0,0,5,5,19.5206,19.5206,-21.6726,2.4389,15.4269,-0.0295112,0.00943568,-0.111306,1,1,3.325,0.245,-0.9975,-0.027206,0.390156,-1.05213,-0.04004,-0.10444,0.52598
14.5214,0,0,5,5,19.5214,19.5214,-21.6738,2.43828,15.4259,-0.0295003,0.00941648,-0.111313,1,1,2.9225,-0.2625,-0.91,-0.027206,0.390156,-1.05213,-0.04004,-0.10444,0.52598
14.5054,0,0,5,5,19.5054,19.5054,-21.6499,2.09309,15.4257,-0.306056,-0.0675908,0.114058,0,1,3.675,-0.7175,-1.1725,-0.310978,0.31293,-0.828868,-0.04004,-0.10444,0.52598
14.4895,0,0,5,5,19.4895,19.4895,-21.6261,1.7546,15.4251,-0.300152,-0.0672782,0.114395,0,1,3.8675,-0.2275,-1.12,-0.310978,0.31293,-0.828868,-0.04872,-0.10276,0.52682
14.5045,0,0,5,5,19.5045,19.5045,-21.6485,2.13944,15.423,0.405406,0.0223287,0.0105165,0,1,4.165,0.105,-0.9625,0.404308,0.402722,-0.931592,-0.04872,-0.10276,0.52682
14.5182,0,0,5,5,19.5182,19.5182,-21.669,2.51692,15.4214,0.398823,0.0220951,0.0101357,0,1,4.9875,-0.525,-0.8575,0.404308,0.402722,-0.931592,-0.04872,-0.10276,0.52682
14.518,0,0,5,5,19.518,19.518,-21.6686,2.51589,15.4208,0.0353562,0.246326,-0.100023,1,1,3.7975,-0.5775,-0.77,0.039284,0.626714,-1.0409,-0.04872,-0.10276,0.52682
14.5184,0,0,5,5,19.5184,19.5184,-21.6692,2.51596,15.4201,0.0353549,0.246316,-0.100027,1,1,3.22,0.0525,-0.595,0.039284,0.626714,-1.0409,-0.04872,-0.10276,0.52682
14.5258,0,0,5,5,19.5258,19.5258,-21.6803,2.5893,15.4189,0.068821,0.00385776,0.0204612,0,1,3.92,0.1925,-0.56,0.074176,0.384666,-0.921222,-0.04872,-0.10276,0.52682
14.5354,0,0,5,5,19.5354,19.5354,-21.6946,2.66134,15.4179,0.0675649,0.00364764,0.0203156,0,1,2.0125,0.1575,-0.455,0.074176,0.384666,-0.921222,-0.04872,-0.10276,0.52682
14.5371,0,0,5,5,19.5371,19.5371,-21.6972,2.6616,15.4172,-0.141273,-0.167249,0.0961581,1,1,2.135,0.14,-0.525,-0.135542,0.213988,-0.845948,-0.04872,-0.10276,0.52682
14.538,0,0,5,5,19.538,19.538,-21.6986,2.66188,15.417,-0.141278,-0.167272,0.0961489,1,1,2.7825,0.07,-0.315,-0.135542,0.213988,-0.845948,-0.03822,-0.1085,0.5201
14.5221,0,0,5,5,19.5221,19.5221,-21.6748,2.6529,15.4181,-0.00773046,-0.00653681,-0.0511064,0,1,3.01,0.28,-0.1225,-0.001586,0.374174,-0.992226,-0.03822,-0.1085,0.5201
14.5055,0,0,5,5,19.5055,19.5055,-21.6499,2.64363,15.4199,-0.00756875,-0.00613694,-0.0509396,0,1,3.8325,-0.14,0.21,-0.001586,0.374174,-0.992226,-0.03822,-0.1085,0.5201
14.4661,0,0,5,5,19.4661,19.4661,-21.5912,2.59794,15.4233,-0.0449188,-0.0457453,-0.0408157,0,1,3.6925,0.1225,0.315,-0.039894,0.33367,-0.982588,-0.03822,-0.1085,0.5201
14.4288,0,0,5,5,19.4288,19.4288,-21.5355,2.55358,15.4265,-0.0441454,-0.0448535,-0.0404259,0,1,2.66,0.4375,0.3325,-0.039894,0.33367,-0.982588,-0.03822,-0.1085,0.5201
14.4298,0,0,5,5,19.4298,19.4298,-21.5371,2.5538,15.4269,-0.486357,-0.00787518,-0.0468297,1,1,2.6425,-0.1225,0.07,-0.483974,0.370636,-0.988932,-0.03822,-0.1085,0.5201
14.4306,0,0,5,5,19.4306,19.4306,-21.5382,2.55426,15.4268,-0.486365,-0.00789401,-0.0468375,1,1,2.905,0.14,-0.21,-0.483974,0.370636,-0.988932,-0.03822,-0.1085,0.5201
14.5152,0,0,5,5,19.5152,19.5152,-21.6645,2.51736,15.4209,-0.0367106,0.126586,0.0211064,0,1,3.2025,0.4725,-0.2275,-0.033062,0.507032,-0.920734,-0.03822,-0.1085,0.5201
14.5974,0,0,5,5,19.5974,19.5974,-21.7872,2.47989,15.4161,-0.0360572,0.124589,0.0203416,0,1,3.99,-0.4025,0.035,-0.033062,0.507032,-0.920734,-0.03822,-0.1085,0.5201
14.5553,0,0,5,5,19.5553,19.5553,-21.7243,2.41853,15.4194,-0.0601348,-0.029023,-0.104126,0,1,3.7975,-0.6825,-0.07,-0.058316,0.35258,-1.04469,-0.04466,-0.10192,0.51436
14.554,0,0,5,5,19.554,19.554,-21.7224,2.41822,15.4204,-0.284999,-0.0310684,0.176578,1,1,4.6025,-0.5075,0.1925,-0.284138,0.350506,-0.76616,-0.04466,-0.10192,0.51436
14.553,0,0,5,5,19.553,19.553,-21.7209,2.41846,15.4212,-0.285003,-0.0310431,0.176588,1,1,4.41,-0.1925,0.28,-0.284138,0.350506,-0.76616,-0.04466,-0.10192,0.51436
14.5503,0,0,5,5,19.5503,19.5503,-21.7169,2.26305,15.4218,-0.155098,0.005008,-0.0235662,0,1,3.5,0.3325,0.1925,-0.156404,0.386496,-0.964898,-0.04466,-0.10192,0.51436
14.5475,0,0,5,5,19.5475,19.5475,-21.7126,2.10945,15.4223,-0.152419,0.0050393,-0.0234437,0,1,3.6925,-0.175,-0.0175,-0.156404,0.386496,-0.964898,-0.04466,-0.10192,0.51436
14.5485,0,0,5,5,19.5485,19.5485,-21.7142,2.10938,15.423,0.273511,0.414017,-0.13214,1,1,2.6775,-0.315,0.105,0.271328,0.795074,-1.07275,-0.04466,-0.10192,0.51436
14.5492,0,0,5,5,19.5492,19.5492,-21.7152,2.10941,15.4235,0.27351,0.413999,-0.132147,1,1,2.94,-0.2275,0.035,0.271328,0.795074,-1.07275,-0.04466,-0.10192,0.51436
14.5601,0,0,5,5,19.5601,19.5601,-21.7315,2.1136,15.4233,0.00544001,0.0270841,-0.0257809,0,1,3.2025,-0.21,-0.035,0.002196,0.408822,-0.967094,-0.04466,-0.10192,0.51436
14.5707,0,0,5,5,19.5707,19.5707,-21.7473,2.11799,15.4235,0.00536345,0.0268288,-0.0258858,0,1,3.255,-0.14,0.2275,0.002196,0.408822,-0.967094,-0.03948,-0.10388,0.52822
14.6146,0,0,5,5,19.6146,19.6146,-21.8128,2.3571,15.4215,0.214036,0.0202105,0.110873,0,1,3.675,0,0.1925,0.21594,0.40321,-0.83082,-0.03948,-0.10388,0.52822
14.6579,0,0,5,5,19.6579,19.6579,-21.8774,2.59162,15.4191,0.209947,0.01923,0.110289,0,1,3.535,-0.1925,-0.0175,0.21594,0.40321,-0.83082,-0.03948,-0.10388,0.52822
14.5638,0,0,5,5,19.5638,19.5638,-21.737,2.31412,15.4254,-0.285735,-0.125613,-0.0747526,0,1,3.64,0.105,0.0525,-0.2867,0.256322,-1.01553,-0.03948,-0.10388,0.52822
14.4715,0,0,5,5,19.4715,19.4715,-21.5992,2.04231,15.4302,-0.280995,-0.123448,-0.073698,0,1,3.5,0.805,-0.1575,-0.2867,0.256322,-1.01553,-0.03948,-0.10388,0.52822
14.5083,0,0,5,5,19.5083,19.5083,-21.6541,1.91333,15.4281,-0.120814,0.0257276,0.0711006,0,1,3.36,0,-0.3325,-0.1281,0.40626,-0.871568,-0.03948,-0.10388,0.52822
14.5446,0,0,5,5,19.5446,19.5446,-21.7083,1.78574,15.4255,-0.118588,0.0248228,0.0708182,0,1,3.22,-0.35,-0.8575,-0.1281,0.40626,-0.871568,-0.03948,-0.10388,0.52822
14.5448,0,0,5,5,19.5448,19.5448,-21.7086,1.78527,15.4245,0.0556308,-0.138711,0.064054,1,1,3.3775,-0.1575,-0.9275,0.046848,0.242902,-0.878278,-0.03948,-0.10388,0.52822
14.5444,0,0,5,5,19.5444,19.5444,-21.708,1.78496,15.4241,0.0556363,-0.138701,0.064058,1,1,3.9025,-0.2275,-0.5075,0.046848,0.242902,-0.878278,-0.04242,-0.09744,0.5285
14.6583,0,0,5,5,19.6583,19.6583,-21.8781,1.91683,15.4182,0.142385,0.188559,0.0129707,0,1,3.6925,-0.56,-0.6825,0.136274,0.572546,-0.92781,-0.04242,-0.09744,0.5285
14.7697,0,0,5,5,19.7697,19.7697,-22.0443,2.04611,15.4119,0.14013,0.185899,0.0118141,0,1,4.1825,-0.7,-0.7875,0.136274,0.572546,-0.92781,-0.04242,-0.09744,0.5285
14.7682,0,0,5,5,19.7682,19.7682,-22.0421,2.04517,15.4116,0.145978,0.099346,-0.160668,1,1,4.7775,-0.5775,-0.6125,0.14213,0.486048,-1.09898,-0.04242,-0.09744,0.5285
14.7683,0,0,5,5,19.7683,19.7683,-22.0422,2.04509,15.4109,0.145979,0.0993445,-0.160669,1,1,3.5175,-0.035,-0.6125,0.14213,0.486048,-1.09898,-0.04242,-0.09744,0.5285
14.6502,0,0,5,5,19.6502,19.6502,-21.866,1.81675,15.4158,-0.228101,-0.166412,-0.0556265,0,1,3.71,0.1925,-0.7525,-0.237534,0.21777,-0.996008,-0.04242,-0.09744,0.5285
14.5359,0,0,5,5,19.5359,19.5359,-21.6953,1.59282,15.4201,-0.224195,-0.163689,-0.0544133,0,1,2.3625,0.4375,-0.56,-0.237534,0.21777,-0.996008,-0.04242,-0.09744,0.5285
14.4476,0,0,5,5,19.4476,19.4476,-21.5636,1.35929,15.4228,-0.236764,-0.121779,-0.062321,0,1,2.2925,-0.1575,-0.7525,-0.254248,0.257542,-1.00479,-0.04242,-0.09744,0.5285
14.3608,0,0,5,5,19.3608,19.3608,-21.434,1.13008,15.4247,-0.232764,-0.119706,-0.0614114,0,1,2.415,0.035,-0.77,-0.254248,0.257542,-1.00479,-0.04074,-0.0994,0.52444
14.5531,0,0,5,5,19.5531,19.5531,-21.7211,1.3203,15.4179,0.165062,0.184031,0.225609,0,1,2.695,0.7875,-0.315,0.148596,0.565592,-0.718092,-0.04074,-0.0994,0.52444
14.7416,0,0,5,5,19.7416,19.7416,-22.0023,1.50589,15.4115,0.161824,0.179507,0.223708,0,1,3.2725,-0.245,0.035,0.148596,0.565592,-0.718092,-0.04074,-0.0994,0.52444
14.6509,0,0,5,5,19.6509,19.6509,-21.867,1.89391,15.4159,0.356357,-0.168366,0.0803076,0,1,3.3075,0.1225,0.0875,0.35075,0.215818,-0.861076,-0.04074,-0.0994,0.52444
14.5617,0,0,5,5,19.5617,19.5617,-21.7339,2.27546,15.4207,0.349702,-0.166119,0.0809454,0,1,3.3425,0.14,-0.175,0.35075,0.215818,-0.861076,-0.04074,-0.0994,0.52444
14.6315,0,0,5,5,19.6315,19.6315,-21.8381,2.24921,15.4166,-0.0283899,0.0619071,0.10082,0,1,3.6925,0.8575,0.1925,-0.029402,0.4453,-0.840702,-0.04074,-0.0994,0.52444
14.7011,0,0,5,5,19.7011,19.7011,-21.9419,2.22295,15.413,-0.0279319,0.0602199,0.100162,0,1,2.8525,0.525,0.28,-0.029402,0.4453,-0.840702,-0.04074,-0.0994,0.52444
14.7021,0,0,5,5,19.7021,19.7021,-21.9435,2.22277,15.4132,-0.138845,-0.0877009,-0.135295,1,1,2.6775,-0.28,-0.1575,-0.140788,0.297558,-1.07433,-0.04074,-0.0994,0.52444
14.7032,0,0,5,5,19.7032,19.7032,-21.9451,2.22323,15.4128,-0.138853,-0.0877269,-0.135306,1,1,2.66,0.21,-0.385,-0.140788,0.297558,-1.07433,-0.03976,-0.09828,0.52472
14.8422,0,0,5,5,19.8422,19.8422,-22.1526,2.52048,15.4043,0.29647,0.17316,0.125632,0,1,3.2725,-0.07,-0.1925,0.301584,0.561444,-0.813862,-0.03976,-0.09828,0.52472
14.9787,0,0,5,5,19.9787,19.9787,-22.3563,2.81283,15.3955,0.291373,0.169963,0.124067,0,1,3.5,-0.175,0.175,0.301584,0.561444,-0.813862,-0.03976,-0.09828,0.52472
14.9784,0,0,5,5,19.9784,19.9784,-22.3558,2.813,15.3963,0.189201,-0.166,0.230175,1,1,3.78,-0.2275,0.245,0.198982,0.225822,-0.708576,-0.03976,-0.09828,0.52472
14.9773,0,0,5,5,19.9773,19.9773,-22.3541,2.81194,15.3969,0.189219,-0.165973,0.230187,1,1,4.4975,-0.84,-0.1575,0.198982,0.225822,-0.708576,-0.03976,-0.09828,0.52472
14.9771,0,0,5,5,19.9771,19.9771,-22.3539,2.81107,15.3975,0.211588,-0.0664359,0.228591,1,1,3.6925,-0.7525,-0.0875,0.22143,0.325252,-0.710162,-0.03976,-0.09828,0.52472
14.9772,0,0,5,5,19.9772,19.9772,-22.354,2.81201,15.3981,0.211572,-0.0664373,0.228589,1,1,3.4825,0.245,0.28,0.22143,0.325252,-0.710162,-0.03976,-0.09828,0.52472
14.9777,0,0,5,5,19.9777,19.9777,-22.3548,2.81321,15.3989,0.0890931,-0.183814,-0.215876,1,1,3.08,0.35,0.42,0.098454,0.20801,-1.15119,-0.03976,-0.09828,0.52472
14.98,0,0,5,5,19.98,19.98,-22.3582,2.81308,15.3992,0.0890953,-0.183869,-0.215898,1,1,1.645,-0.28,-0.0875,0.098454,0.20801,-1.15119,-0.03976,-0.09828,0.52472
14.9814,0,0,5,5,19.9814,19.9814,-22.3603,2.81268,15.3994,-0.372908,-0.143112,-0.202264,1,1,2.38,-0.385,-0.245,-0.365512,0.248758,-1.13765,-0.04242,-0.09828,0.52948
14.9822,0,0,5,5,19.9822,19.9822,-22.3614,2.81364,15.3998,-0.372925,-0.143131,-0.202273,1,1,2.8875,0.28,0.2275,-0.365512,0.248758,-1.13765,-0.04242,-0.09828,0.52948
14.9095,0,0,5,5,19.9095,19.9095,-22.2529,2.70379,15.4059,-0.103255,-0.123219,0.0431979,0,1,3.395,-0.1575,0.2625,-0.096624,0.266936,-0.89487,-0.04242,-0.09828,0.52948
14.9418,0,0,5,5,19.9418,19.9418,-22.3011,2.56168,15.4043,-0.13455,0.0227567,0.064132,0,1,3.815,-0.5425,0,-0.13054,0.41358,-0.873886,-0.04242,-0.09828,0.52948
14.8433,0,0,5,5,19.8433,19.8433,-22.1541,2.57189,15.4112,0.00862471,-0.139861,-0.0308055,0,1,3.92,-0.14,0,0.01342,0.248758,-0.969046,-0.04242,-0.09828,0.52948
14.86,0,0,5,5,19.86,19.86,-22.1791,2.59753,15.4103,0.0288302,0.0533143,-0.0590209,0,1,3.955,0.63,0.21,0.03416,0.442128,-0.996862,-0.04242,-0.09828,0.52948
14.7985,0,0,5,5,19.7985,19.7985,-22.0872,2.54955,15.4145,-0.0478412,-0.107278,0.0419433,0,1,3.1675,0.385,-0.035,-0.043676,0.280234,-0.89731,-0.04242,-0.09828,0.52948
14.8773,0,0,5,5,19.8773,19.8773,-22.2049,2.66069,15.4087,0.103779,0.0843037,0.0854728,0,1,2.8175,-0.1925,-0.5775,0.110532,0.473482,-0.853268,-0.04242,-0.09828,0.52948
14.8787,0,0,5,5,19.8787,19.8787,-22.207,2.66053,15.4079,-0.106267,0.0268701,-0.208265,1,1,2.3975,-0.0525,-0.7,-0.100406,0.416142,-1.14473,-0.0455,-0.09828,0.52934
15.0323,0,0,5,5,20.0323,20.0323,-22.4363,2.55465,15.3972,-0.107458,0.229168,0.0675433,0,1,4.1475,-0.5425,-0.525,-0.103456,0.621956,-0.869616,-0.0455,-0.09828,0.52934
15.1837,0,0,5,5,20.1837,20.1837,-22.6623,2.45046,15.3874,-0.105641,0.225498,0.0661057,0,1,3.7975,-0.6475,-0.42,-0.103456,0.621956,-0.869616,-0.0455,-0.09828,0.52934
15.183,0,0,5,5,20.183,20.183,-22.6612,2.44913,15.3873,0.221664,-0.151735,0.278938,1,1,4.1475,-0.8225,-0.6125,0.225212,0.245098,-0.658434,-0.0455,-0.09828,0.52934
15.182,0,0,5,5,20.182,20.182,-22.6597,2.44725,15.3864,0.221697,-0.15171,0.278949,1,1,4.445,-0.945,-1.155,0.225212,0.245098,-0.658434,-0.0455,-0.09828,0.52934
15.1818,0,0,5,5,20.1818,20.1818,-22.6594,2.44624,15.3855,0.0341409,0.200385,-0.105631,1,1,3.71,-0.49,-0.9275,0.036844,0.596824,-1.04005,-0.0455,-0.09828,0.52934
15.1814,0,0,5,5,20.1814,20.1814,-22.6588,2.4471,15.3843,0.0341259,0.200395,-0.105628,1,1,3.9375,0.595,-0.6825,0.036844,0.596824,-1.04005,-0.0455,-0.09828,0.52934
15.2879,0,0,5,5,20.2879,20.2879,-22.8178,2.38697,15.3762,-0.059949,0.146405,0.058707,0,1,3.3425,0.2625,-0.98,-0.058682,0.545462,-0.87596,-0.0455,-0.09828,0.52934
15.3934,0,0,5,5,20.3934,20.3934,-22.9752,2.32756,15.3682,-0.0589128,0.143861,0.0576788,0,1,2.7125,0.14,-1.1725,-0.058682,0.545462,-0.87596,-0.04228,-0.10444,0.525
15.355,0,0,5,5,20.355,20.355,-22.9179,2.08916,15.3693,-0.250712,-0.033098,-0.078011,0,1,3.5525,-0.175,-0.945,-0.255468,0.36783,-1.01114,-0.04228,-0.10444,0.525
15.3171,0,0,5,5,20.3171,20.3171,-22.8614,1.85567,15.3712,-0.246639,-0.0322444,-0.0774984,0,1,3.6575,0.035,-0.21,-0.255468,0.36783,-1.01114,-0.04228,-0.10444,0.525
15.3169,0,0,5,5,20.3169,20.3169,-22.861,1.85589,15.371,0.152924,-0.124078,-0.146962,1,1,3.745,0.0175,-0.28,0.14579,0.276086,-1.08007,-0.04228,-0.10444,0.525
15.3169,0,0,5,5,20.3169,20.3169,-22.861,1.8555,15.3716,0.152931,-0.124078,-0.146962,1,1,3.57,-0.4725,-0.0175,0.14579,0.276086,-1.08007,-0.04228,-0.10444,0.525
15.3163,0,0,5,5,20.3163,20.3163,-22.8602,1.8582,15.3788,-0.169418,0.0530192,-0.137614,1,1,3.8675,-0.315,4.235,-0.177876,0.452986,-1.07079,-0.04228,-0.10444,0.525
15.3168,0,0,5,5,20.3168,20.3168,-22.8608,1.86017,15.3793,-0.169452,0.0530097,-0.137619,1,1,3.2025,0.805,0.49,-0.177876,0.452986,-1.07079,-0.04228,-0.10444,0.525
15.2958,0,0,5,5,20.2958,20.2958,-22.8296,1.73891,15.3809,-0.118621,-0.0412837,0.018184,0,1,2.8875,0.7,0.49,-0.128954,0.358314,-0.916464,-0.04228,-0.10444,0.525
15.2755,0,0,5,5,20.2755,20.2755,-22.7993,1.61862,15.3822,-0.116523,-0.0408203,0.0184457,0,1,2.66,0.14,0.07,-0.128954,0.358314,-0.916464,-0.04466,-0.10654,0.52626
15.2768,0,0,5,5,20.2768,20.2768,-22.8011,1.61943,15.3824,0.161908,0.149301,-0.143982,1,1,2.5025,0.2625,0.035,0.15067,0.548268,-1.07763,-0.04466,-0.10654,0.52626
15.2761,0,0,5,5,20.2761,20.2761,-22.8002,1.61988,15.3835,0.1619,0.149316,-0.143976,1,1,4.0775,-0.14,0.455,0.15067,0.548268,-1.07763,-0.04466,-0.10654,0.52626
15.2751,0,0,5,5,20.2751,20.2751,-22.7987,1.62061,15.3847,0.0159835,-0.096012,0.142873,1,1,4.375,-0.035,0.6125,0.004148,0.30317,-0.793,-0.04466,-0.10654,0.52626
15.2747,0,0,5,5,20.2747,20.2747,-22.7981,1.61988,15.386,0.0159962,-0.0960027,0.142877,1,1,3.8675,-0.805,0.245,0.004148,0.30317,-0.793,-0.04466,-0.10654,0.52626
15.2743,0,0,5,5,20.2743,20.2743,-22.7975,1.61877,15.3865,-0.126487,-0.0830478,0.096038,1,1,3.885,-0.8575,-0.1925,-0.138958,0.316102,-0.839482,-0.04466,-0.10654,0.52626
15.2748,0,0,5,5,20.2748,20.2748,-22.7983,1.61827,15.387,-0.126478,-0.0830604,0.096033,1,1,3.115,-0.5075,-0.1225,-0.138958,0.316102,-0.839482,-0.04466,-0.10654,0.52626
15.3909,0,0,5,5,20.3909,20.3909,-22.9714,1.76777,15.3819,0.129192,0.0933464,0.172614,0,1,2.9225,0.0875,-0.1225,0.120414,0.495076,-0.762256,-0.04466,-0.10654,0.52626
15.505,0,0,5,5,20.505,20.505,-23.1418,1.91454,15.3764,0.126632,0.090644,0.171374,0,1,2.835,0.035,-0.2275,0.120414,0.495076,-0.762256,-0.04102,-0.1043,0.52976
15.5553,0,0,5,5,20.5553,20.5553,-23.2169,2.10105,15.3739,0.1987,0.0866764,-0.00825929,0,1,2.1175,-0.2625,-0.28,0.196054,0.49227,-0.939888,-0.04102,-0.1043,0.52976
15.6029,0,0,5,5,20.6029,20.6029,-23.2879,2.28479,15.3713,0.195495,0.0855866,-0.00886111,0,1,3.6575,-0.0525,-0.105,0.196054,0.49227,-0.939888,-0.04102,-0.1043,0.52976
15.7619,0,0,5,5,20.7619,20.7619,-23.5252,2.46434,15.3622,0.181916,0.211417,0.118472,0,1,3.71,-0.5425,0.0525,0.185562,0.621712,-0.811788,-0.04102,-0.1043,0.52976
15.919,0,0,5,5,20.919,20.919,-23.7596,2.64211,15.3521,0.178817,0.207728,0.116706,0,1,3.115,0.245,0.1225,0.185562,0.621712,-0.811788,-0.04102,-0.1043,0.52976
15.9014,0,0,5,5,20.9014,20.9014,-23.7335,2.51691,15.3534,-0.119677,-0.0451855,0.0433332,0,1,3.7975,0.0175,-0.0875,-0.116388,0.368684,-0.884866,-0.04102,-0.1043,0.52976
15.8854,0,0,5,5,20.8854,20.8854,-23.7096,2.39377,15.3546,-0.11753,-0.0448411,0.0435852,0,1,2.8,-0.0525,-0.105,-0.116388,0.368684,-0.884866,-0.04102,-0.1043,0.52976
15.8829,0,0,5,5,20.8829,20.8829,-23.7058,2.46672,15.3552,0.079098,0.0194803,-0.0577471,0,1,2.835,-0.0175,0.0525,0.08235,0.432856,-0.985394,-0.04102,-0.1043,0.52976
15.8802,0,0,5,5,20.8802,20.8802,-23.7018,2.53934,15.3553,0.0778317,0.0195655,-0.0577701,0,1,2.9575,0.6125,0,0.08235,0.432856,-0.985394,-0.04228,-0.1029,0.5271
15.8955,0,0,5,5,20.8955,20.8955,-23.7247,2.57892,15.3537,0.0434901,0.0429061,-0.0409915,0,1,3.0275,0.21,-0.525,0.048556,0.456524,-0.968558,-0.04228,-0.1029,0.5271
15.91,0,0,5,5,20.91,20.91,-23.7462,2.61842,15.352,0.0428013,0.0425751,-0.0411712,0,1,3.535,0.5425,-0.385,0.048556,0.456524,-0.968558,-0.04228,-0.1029,0.5271
15.7877,0,0,5,5,20.7877,20.7877,-23.5637,2.77093,15.3602,0.168796,-0.156824,-0.133942,0,1,3.9375,-0.07,-0.455,0.177754,0.25437,-1.06177,-0.04228,-0.1029,0.5271
15.6675,0,0,5,5,20.6675,20.6675,-23.3843,2.92082,15.3687,0.166183,-0.153904,-0.132815,0,1,3.9375,-0.07,-0.455,0.177754,0.25437,-1.06177,-0.04228,-0.1029,0.5271
15.6675,0,0,5,5,20.6675,20.6675,-23.3844,2.91951,15.368,0.166084,-0.193231,0.09464,1,1,3.5175,-0.6825,-0.91,0.177632,0.215086,-0.836066,-0.04228,-0.1029,0.5271
15.6676,0,0,5,5,20.6676,20.6676,-23.3845,2.91792,15.3672,0.166112,-0.193234,0.0946401,1,1,3.4825,-0.805,-1.0325,0.177632,0.215086,-0.836066,-0.04228,-0.1029,0.5271
15.6677,0,0,5,5,20.6677,20.6677,-23.3846,2.91731,15.366,-0.404496,-0.0482713,-0.161831,1,1,3.535,-0.175,-1.05,-0.395402,0.3599,-1.09056,-0.04228,-0.1029,0.5271
15.6678,0,0,5,5,20.6678,20.6678,-23.3848,2.9167,15.3647,-0.404485,-0.0482732,-0.161831,1,1,3.535,-0.175,-1.05,-0.395402,0.3599,-1.09056,-0.04228,-0.1029,0.5271
15.4796,0,0,5,5,20.4796,20.4796,-23.1039,2.67173,15.3776,-0.260263,-0.272112,-0.125651,0,1,2.8175,0.0525,-0.7175,-0.254858,0.131882,-1.05676,-0.04228,-0.10262,0.52542
15.5828,0,0,5,5,20.5828,20.5828,-23.2579,2.80535,15.3691,0.115835,0.0846392,0.155972,0,1,3.6225,0.0875,-0.8575,0.125172,0.490684,-0.776164,-0.04228,-0.10262,0.52542
15.5832,0,0,5,5,20.5832,20.5832,-23.2584,2.8048,15.3685,-0.138546,0.122123,-0.136526,1,1,3.255,-0.28,-0.7175,-0.130296,0.528138,-1.0664,-0.04228,-0.10262,0.52542
15.5834,0,0,5,5,20.5834,20.5834,-23.2588,2.80627,15.3679,-0.138572,0.122118,-0.13653,1,1,3.3775,0.7875,-0.21,-0.130296,0.528138,-1.0664,-0.04228,-0.10262,0.52542
15.7204,0,0,5,5,20.7204,20.7204,-23.4633,3.06359,15.3575,0.258575,0.171817,0.123603,0,1,3.2025,0.245,-0.07,0.273036,0.580964,-0.806664,-0.04228,-0.10262,0.52542
15.8556,0,0,5,5,20.8556,20.8556,-23.6651,3.31583,15.3469,0.254179,0.168692,0.121973,0,1,2.87,-0.315,0.0525,0.273036,0.580964,-0.806664,-0.04228,-0.10262,0.52542
15.8556,0,0,5,5,20.8556,20.8556,-23.6651,3.3167,15.3472,0.0522549,0.00699666,-0.136834,1,1,3.5525,0.2625,0.1225,0.070272,0.419436,-1.06347,-0.04228,-0.10262,0.52542
15.8557,0,0,5,5,20.8557,20.8557,-23.6652,3.31781,15.3481,0.0522356,0.00699483,-0.136836,1,1,3.4475,0.245,0.5075,0.070272,0.419436,-1.06347,-0.04214,-0.1029,0.52752
15.7736,0,0,5,5,20.7736,20.7736,-23.5427,2.89392,15.3556,-0.449888,-0.12909,-0.0270507,0,1,3.255,0.7875,0.6475,-0.441396,0.281698,-0.955748,-0.04214,-0.1029,0.52752
15.6931,0,0,5,5,20.6931,20.6931,-23.4225,2.47459,15.3623,-0.442577,-0.127305,-0.0259013,0,1,3.08,-0.4025,0.35,-0.441396,0.281698,-0.955748,-0.04214,-0.1029,0.52752
15.6942,0,0,5,5,20.6942,20.6942,-23.4242,2.47552,15.363,-0.0186085,-0.208546,-0.251156,1,1,2.5725,0.21,0.3325,-0.015616,0.200568,-1.17925,-0.04214,-0.1029,0.52752
15.6937,0,0,5,5,20.6937,20.6937,-23.4234,2.47599,15.3641,-0.0186167,-0.208532,-0.25115,1,1,4.025,-0.1225,0.42,-0.015616,0.200568,-1.17925,-0.04214,-0.1029,0.52752
15.8066,0,0,5,5,20.8066,20.8066,-23.5919,2.84492,15.3573,0.384722,0.140983,0.117971,0,1,3.29,-0.035,0.4375,0.39589,0.552294,-0.811544,-0.04214,-0.1029,0.52752
15.918,0,0,5,5,20.918,20.918,-23.7582,3.20599,15.3493,0.378429,0.138464,0.116503,0,1,3.15,-1.0325,-0.14,0.39589,0.552294,-0.811544,-0.04214,-0.1029,0.52752
15.9183,0,0,5,5,20.9183,20.9183,-23.7586,3.20464,15.3494,-0.081978,0.437667,-0.0257506,1,1,3.3075,-0.8925,-0.4725,-0.06649,0.851194,-0.952698,-0.04214,-0.1029,0.52752
15.9195,0,0,5,5,20.9195,20.9195,-23.7604,3.20511,15.3487,-0.0819861,0.437638,-0.0257638,1,1,2.555,0.28,-0.5075,-0.06649,0.851194,-0.952698,-0.04214,-0.1029,0.52752
15.9237,0,0,5,5,20.9237,20.9237,-23.7668,3.62638,15.3478,0.436707,-0.0234377,0.0664938,0,1,2.8875,0.7525,-0.2625,0.46177,0.390522,-0.86071,-0.04214,-0.09982,0.52696
15.9253,0,0,5,5,20.9253,20.9253,-23.7692,3.62663,15.3475,0.176602,-0.128993,-0.134298,1,1,2.24,0.07,-0.35,0.200568,0.285114,-1.05994,-0.04214,-0.09982,0.52696
15.9261,0,0,5,5,20.9261,20.9261,-23.7703,3.62789,15.347,0.17658,-0.12901,-0.134307,1,1,2.94,0.665,-0.2275,0.200568,0.285114,-1.05994,-0.04214,-0.09982,0.52696
16.053,0,0,5,5,21.053,21.053,-23.9596,3.33971,15.3355,-0.307865,0.197591,0.0528718,0,1,3.0975,-0.28,-0.2975,-0.29097,0.614514,-0.873154,-0.04214,-0.09982,0.52696
16.1785,0,0,5,5,21.1785,21.1785,-24.147,3.05778,15.3254,-0.302952,0.194498,0.0517917,0,1,2.3975,0.5075,0.21,-0.29097,0.614514,-0.873154,-0.04214,-0.09982,0.52696
16.1786,0,0,5,5,21.1786,21.1786,-24.1472,3.05817,15.3261,-0.0642397,-0.0978765,0.0795763,1,1,3.43,-0.07,0.175,-0.05124,0.322446,-0.845582,-0.04214,-0.09982,0.52696
16.1789,0,0,5,5,21.1789,21.1789,-24.1476,3.05812,15.3268,-0.0642388,-0.0978821,0.0795739,1,1,3.3425,-0.3325,0.1225,-0.05124,0.322446,-0.845582,-0.04214,-0.09982,0.52696
16.2585,0,0,5,5,21.2585,21.2585,-24.2664,3.00077,15.321,-0.0578938,0.145438,-0.0136844,0,1,3.3425,-0.245,0.0525,-0.045872,0.567422,-0.937326,-0.0392,-0.09996,0.52584
16.2583,0,0,5,5,21.2583,21.2583,-24.2661,3.0025,15.3218,0.455232,-0.0423886,0.00537297,1,1,3.675,0.6125,0.56,0.469456,0.379786,-0.918416,-0.0392,-0.09996,0.52584
16.259,0,0,5,5,21.259,21.259,-24.2671,3.00226,15.3221,0.455236,-0.0424045,0.00536606,1,1,2.9925,-0.3325,-0.14,0.469456,0.379786,-0.918416,-0.0392,-0.09996,0.52584
16.2604,0,0,5,5,21.2604,21.2604,-24.2693,3.00268,15.3216,-0.325682,0.170794,-0.0719845,1,1,2.345,0.1925,-0.3675,-0.31476,0.592798,-0.995154,-0.0392,-0.09996,0.52584
16.2605,0,0,5,5,21.2605,21.2605,-24.2694,3.00239,15.3216,-0.325677,0.170792,-0.0719851,1,1,3.5,-0.28,-0.3325,-0.31476,0.592798,-0.995154,-0.0392,-0.09996,0.52584
16.2605,0,0,5,5,21.2605,21.2605,-24.2694,3.00195,15.3214,0.362669,0.19021,0.0756763,1,1,3.5525,-0.3325,-0.4375,0.376492,0.612196,-0.848632,-0.0392,-0.09996,0.52584
16.2608,0,0,5,5,21.2608,21.2608,-24.2698,2.99998,15.3206,0.362703,0.190203,0.0756751,1,1,3.36,-0.98,-1.1725,0.376492,0.612196,-0.848632,-0.0392,-0.09996,0.52584
16.2602,0,0,5,5,21.2602,21.2602,-24.2689,2.99814,15.3193,0.0845332,-0.0992238,0.20773,1,1,4.095,-0.805,-1.365,0.097112,0.323056,-0.717604,-0.0392,-0.09996,0.52584
16.2604,0,0,5,5,21.2604,21.2604,-24.2693,2.99777,15.3175,0.0845396,-0.09923,0.207727,1,1,3.395,0.0875,-1.26,0.097112,0.323056,-0.717604,-0.042,-0.09884,0.52626
16.1846,0,0,5,5,21.1846,21.1846,-24.1561,3.0073,15.3213,0.00601536,-0.119898,0.00258981,0,1,3.2375,0.595,-1.33,0.018422,0.300608,-0.921954,-0.042,-0.09884,0.52626
16.1107,0,0,5,5,21.1107,21.1107,-24.0458,3.01594,15.3256,0.0058647,-0.118139,0.00336814,0,1,2.73,0.07,-1.1725,0.018422,0.300608,-0.921954,-0.042,-0.09884,0.52626
16.0847,0,0,5,5,21.0847,21.0847,-24.007,3.18998,15.3259,0.177164,-0.0401495,-0.0142119,0,1,1.995,0.6125,-1.155,0.193492,0.377834,-0.939522,-0.042,-0.09884,0.52626
16.0572,0,0,5,5,21.0572,21.0572,-23.966,3.36132,15.3266,0.174178,-0.0394261,-0.014077,0,1,3.675,0.6825,-0.91,0.193492,0.377834,-0.939522,-0.042,-0.09884,0.52626
16.0575,0,0,5,5,21.0575,21.0575,-23.9665,3.36172,15.3262,-0.251758,0.205185,-0.184365,1,1,3.2725,0.175,-0.3675,-0.23424,0.6222,-1.10849,-0.042,-0.09884,0.52626
16.0571,0,0,5,5,21.0571,21.0571,-23.9658,3.362,15.3266,-0.251763,0.205196,-0.18436,1,1,3.92,-0.0875,0.0525,-0.23424,0.6222,-1.10849,-0.042,-0.09884,0.52626
16.1692,0,0,5,5,21.1692,21.1692,-24.1331,3.13015,15.3245,-0.246872,0.174352,0.0483859,0,1,4.48,-0.56,4.305,-0.233386,0.59414,-0.87657,-0.042,-0.09884,0.52626
16.2812,0,0,5,5,21.2812,21.2812,-24.3003,2.9006,15.3166,-0.242871,0.171608,0.0473828,0,1,3.15,0.175,0.49,-0.233386,0.59414,-0.87657,-0.042,-0.09884,0.52626
16.2808,0,0,5,5,21.2808,21.2808,-24.2996,2.90209,15.3178,0.258353,-0.0689709,0.222711,1,1,3.9025,0.385,0.7175,0.269986,0.3538,-0.702598,-0.03962,-0.09982,0.52836
16.281,0,0,5,5,21.281,21.281,-24.3001,2.90291,15.319,-0.283609,0.0778191,-0.251259,1,1,3.29,0.0175,0.595,-0.274256,0.500444,-1.17291,-0.03962,-0.09982,0.52836
16.282,0,0,5,5,21.282,21.282,-24.3014,2.90345,15.3196,-0.283619,0.0777973,-0.251269,1,1,2.765,0,0.2275,-0.274256,0.500444,-1.17291,-0.03962,-0.09982,0.52836
16.2424,0,0,5,5,21.2424,21.2424,-24.2424,2.92137,15.3231,0.0203906,-0.0393541,-0.0627495,0,1,3.5,-0.0525,0.14,0.031354,0.38247,-0.986248,-0.03962,-0.09982,0.52836
16.2033,0,0,5,5,21.2033,21.2033,-24.184,2.93862,15.3269,0.0200898,-0.0384198,-0.0623462,0,1,3.675,-0.2975,0.1925,0.031354,0.38247,-0.986248,-0.03962,-0.09982,0.52836
16.2033,0,0,5,5,21.2033,21.2033,-24.184,2.93808,15.3273,0.0271455,0.00224837,0.32777,1,1,3.5525,-0.5075,-0.1925,0.03843,0.423096,-0.599142,-0.03962,-0.09982,0.52836
16.2025,0,0,5,5,21.2025,21.2025,-24.1829,2.93669,15.3275,0.0271696,0.00226527,0.327779,1,1,4.165,-0.9275,-0.455,0.03843,0.423096,-0.599142,-0.03962,-0.09982,0.52836
16.203,0,0,5,5,21.203,21.203,-24.1836,2.93546,15.3276,-0.108994,0.0121461,-0.211846,1,1,3.1675,-0.8225,-0.4725,-0.098332,0.432978,-1.1346,-0.04074,-0.10276,0.53718
16.1142,0,0,5,5,21.1142,21.1142,-24.0511,2.96706,15.3337,0.0283411,-0.130699,-0.0287188,0,1,3.1325,0.7875,-0.2975,0.040138,0.288164,-0.953796,-0.04074,-0.10276,0.53718
16.0289,0,0,5,5,21.0289,21.0289,-23.9237,2.99764,15.3393,0.0278081,-0.12866,-0.0278417,0,1,1.5575,0.665,-0.6825,0.040138,0.288164,-0.953796,-0.04074,-0.10276,0.53718
16.0312,0,0,5,5,21.0312,21.0312,-23.9272,2.99955,15.338,0.0187849,-0.233499,0.202415,1,1,1.645,1.19,-0.4725,0.03111,0.183488,-0.72529,-0.04074,-0.10276,0.53718
16.0316,0,0,5,5,21.0316,21.0316,-23.9278,3.00024,15.3376,0.0187729,-0.233508,0.20241,1,1,3.255,0.3325,-0.2975,0.03111,0.183488,-0.72529,-0.04074,-0.10276,0.53718
16.0384,0,0,5,5,21.0384,21.0384,-23.9379,2.75576,15.3376,-0.232571,-0.029805,0.0851183,0,1,2.275,0.175,0.1575,-0.225578,0.387228,-0.8418,-0.04074,-0.10276,0.53718
16.0433,0,0,5,5,21.0433,21.0433,-23.9452,2.51466,15.338,-0.228368,-0.0299988,0.085244,0,1,3.815,-0.28,0.1575,-0.225578,0.387228,-0.8418,-0.04074,-0.10276,0.53718
16.0427,0,0,5,5,21.0427,21.0427,-23.9444,2.51402,15.339,0.40592,-0.0429314,-0.14909,1,1,3.99,-0.7175,0.14,0.411384,0.374296,-1.07433,-0.04074,-0.10276,0.53718
16.0431,0,0,5,5,21.0431,21.0431,-23.9449,2.51386,15.3407,0.405923,-0.0429398,-0.149093,1,1,3.22,-0.63,0.6475,0.411384,0.374296,-1.07433,-0.04144,-0.1036,0.5362
16.1587,0,0,5,5,21.1587,21.1587,-24.1175,2.31671,15.3347,-0.202927,0.160157,0.0776369,0,1,4.06,-0.2975,0.525,-0.203496,0.579988,-0.848266,-0.04144,-0.1036,0.5362
16.2737,0,0,5,5,21.2737,21.2737,-24.2891,2.12266,15.3288,-0.199543,0.157373,0.0765293,0,1,2.9925,-0.2275,0.14,-0.203496,0.579988,-0.848266,-0.04144,-0.1036,0.5362
16.2749,0,0,5,5,21.2749,21.2749,-24.2909,2.12261,15.3287,0.0790247,0.0689257,-0.0957341,1,1,2.5725,-0.14,-0.315,0.07625,0.49166,-1.01919,-0.04144,-0.1036,0.5362
16.2751,0,0,5,5,21.2751,21.2751,-24.2912,2.12268,15.3282,0.0790234,0.0689213,-0.0957362,1,1,3.4125,0.035,-0.5075,0.07625,0.49166,-1.01919,-0.04144,-0.1036,0.5362
16.3629,0,0,5,5,21.3629,21.3629,-24.4222,1.78428,15.3226,-0.362506,0.13075,0.0515345,0,1,3.43,-0.2975,-1.05,-0.373076,0.555588,-0.8723,-0.04144,-0.1036,0.5362
16.4493,0,0,5,5,21.4493,21.4493,-24.5511,1.45127,15.3178,-0.356696,0.128636,0.0507517,0,1,3.43,-0.2975,-1.05,-0.373076,0.555588,-0.8723,-0.04144,-0.1036,0.5362
16.3541,0,0,5,5,21.3541,21.3541,-24.4091,1.84815,15.3206,0.3772,-0.185579,0.082211,0,1,4.025,-1.085,-1.47,0.37088,0.239364,-0.841922,-0.04144,-0.1036,0.5362
16.2604,0,0,5,5,21.2604,21.2604,-24.2693,2.23885,15.3243,0.370385,-0.183257,0.0829949,0,1,4.025,-1.085,-1.47,0.37088,0.239364,-0.841922,-0.04144,-0.1036,0.5362
16.2613,0,0,5,5,21.2613,21.2613,-24.2706,2.23898,15.3225,0.150494,-0.249714,0.222655,1,1,2.87,0.3675,-1.1725,0.15006,0.172996,-0.70333,-0.04116,-0.0994,0.52556
16.3914,0,0,5,5,21.3914,21.3914,-24.4648,2.29576,15.3135,0.0574176,0.172706,0.0931093,0,1,2.9225,0.0525,-1.05,0.057584,0.598044,-0.830454,-0.04116,-0.0994,0.52556
16.5194,0,0,5,5,21.5194,21.5194,-24.6558,2.35155,15.3044,0.0564446,0.169693,0.091689,0,1,2.9225,0.0525,-1.05,0.057584,0.598044,-0.830454,-0.04116,-0.0994,0.52556
16.4538,0,0,5,5,21.4538,21.4538,-24.5579,2.44044,15.3072,0.0920692,-0.0851948,-0.0624516,0,1,2.6425,0.875,-0.6475,0.094916,0.341844,-0.984052,-0.04116,-0.0994,0.52556
16.3894,0,0,5,5,21.3894,21.3894,-24.4617,2.52781,15.3101,0.0905457,-0.0836412,-0.061816,0,1,2.6425,0.875,-0.6475,0.094916,0.341844,-0.984052,-0.04116,-0.0994,0.52556
16.3894,0,0,5,5,21.3894,21.3894,-24.4617,2.52158,15.314,0.100252,-0.0611717,0.44572,1,1,3.465,-4.41,0.3325,0.104554,0.364292,-0.480436,-0.04116,-0.0994,0.52556
16.3894,0,0,5,5,21.3894,21.3894,-24.4617,2.51534,15.3179,0.10036,-0.0611736,0.445724,1,1,3.465,-4.41,0.3325,0.104554,0.364292,-0.480436,-0.04116,-0.0994,0.52556
16.3886,0,0,5,5,21.3886,21.3886,-24.4606,2.51575,15.3198,-0.177606,-0.00900687,-0.384416,1,1,4.165,-0.3675,0.84,-0.174582,0.416386,-1.30418,-0.03878,-0.09492,0.53284
16.3883,0,0,5,5,21.3883,21.3883,-24.4602,2.51658,15.3214,-0.162678,-0.179123,-0.285563,1,1,3.7275,-0.07,0.7875,-0.159576,0.24644,-1.20609,-0.03878,-0.09492,0.53284
16.3881,0,0,5,5,21.3881,21.3881,-24.4598,2.51741,15.3229,-0.162692,-0.179117,-0.285561,1,1,3.7275,-0.07,0.7875,-0.159576,0.24644,-1.20609,-0.03878,-0.09492,0.53284
16.4087,0,0,5,5,21.4087,21.4087,-24.4907,2.88323,15.3219,0.355141,-0.0196179,0.109345,0,1,1.9075,0.315,0.14,0.366854,0.406138,-0.81374,-0.03878,-0.09492,0.53284
16.4291,0,0,5,5,21.4291,21.4291,-24.521,3.24323,15.3207,0.348867,-0.0199602,0.10882,0,1,1.9075,0.315,0.14,0.366854,0.406138,-0.81374,-0.03878,-0.09492,0.53284
16.4629,0,0,5,5,21.4629,21.4629,-24.5715,3.33864,15.3184,0.0847952,0.00480359,0.100621,0,1,3.2025,-1.05,-0.2625,0.103334,0.431636,-0.821426,-0.03878,-0.09492,0.53284
16.3106,0,0,5,5,21.3106,21.3106,-24.3442,3.34617,15.3321,0.00873541,-0.213248,-0.0917583,0,1,4.515,-0.8925,-0.245,0.027084,0.210206,-1.01394,-0.03878,-0.09492,0.53284
16.1619,0,0,5,5,21.1619,21.1619,-24.1222,3.35368,15.3454,0.00860459,-0.209718,-0.0901777,0,1,3.6575,-0.7525,-0.3325,0.027084,0.210206,-1.01394,-0.03878,-0.09492,0.53284
16.1627,0,0,5,5,21.1627,21.1627,-24.1235,3.35242,15.3453,0.095246,0.0306072,0.172924,1,1,2.8525,-0.805,-0.56,0.11407,0.450302,-0.752862,-0.04368,-0.09968,0.52024
16.1947,0,0,5,5,21.1947,21.1947,-24.1713,3.25644,15.3419,-0.0978233,0.0473941,0.00816662,0,1,2.45,0.28,-0.595,-0.081496,0.46787,-0.916098,-0.04368,-0.09968,0.52024
16.2271,0,0,5,5,21.2271,21.2271,-24.2195,3.16304,15.3384,-0.0961957,0.0465898,0.00790527,0,1,1.7325,0.805,-0.42,-0.081496,0.46787,-0.916098,-0.04368,-0.09968,0.52024
16.2288,0,0,5,5,21.2288,21.2288,-24.2221,3.16391,15.3372,0.222446,0.224609,-0.0964974,1,1,2.135,0.63,-0.7,0.23851,0.645746,-1.01968,-0.04368,-0.09968,0.52024
16.23,0,0,5,5,21.23,21.23,-24.224,3.16491,15.3369,0.222429,0.224581,-0.0965114,1,1,2.5375,0.4725,-0.1575,0.23851,0.645746,-1.01968,-0.04368,-0.09968,0.52024
16.2303,0,0,5,5,21.2303,21.2303,-24.2244,3.16521,15.3375,0.112236,-0.190168,0.159587,1,1,3.3075,-0.1225,0.1575,0.127856,0.231434,-0.76555,-0.04368,-0.09968,0.52024
16.2305,0,0,5,5,21.2305,21.2305,-24.2247,3.16408,15.3392,0.112256,-0.190174,0.159586,1,1,3.325,-1.155,0.4025,0.127856,0.231434,-0.76555,-0.04368,-0.09968,0.52024
16.1348,0,0,5,5,21.1348,21.1348,-24.0819,3.41176,15.349,0.276076,-0.131867,-0.0896993,0,1,3.5875,-0.9975,0.42,0.296704,0.28731,-1.0137,-0.04368,-0.09968,0.52024
16.0412,0,0,5,5,21.0412,21.0412,-23.9421,3.65625,15.359,0.271817,-0.129536,-0.0889489,0,1,3.15,-0.4375,0.4725,0.296704,0.28731,-1.0137,-0.03738,-0.09688,0.52878
16.0417,0,0,5,5,21.0417,21.0417,-23.9428,3.65772,15.3604,-0.30235,0.0714737,0.244973,1,1,3.115,0.3325,0.8225,-0.279868,0.488122,-0.682346,-0.03738,-0.09688,0.52878
16.043,0,0,5,5,21.043,21.043,-23.9448,3.65841,15.3605,-0.302362,0.0714417,0.244958,1,1,2.415,0.21,-0.035,-0.279868,0.488122,-0.682346,-0.03738,-0.09688,0.52878
16.0443,0,0,5,5,21.0443,21.0443,-23.9468,3.65881,15.3598,0.0624526,-0.399998,-0.220662,1,1,2.5025,0.245,-0.5075,0.086498,0.017202,-1.14436,-0.03738,-0.09688,0.52878
16.0446,0,0,5,5,21.0446,21.0446,-23.9472,3.65804,15.3589,0.062466,-0.400005,-0.220665,1,1,3.3425,-0.3325,-0.91,0.086498,0.017202,-1.14436,-0.03738,-0.09688,0.52878
16.0453,0,0,5,5,21.0453,21.0453,-23.9482,3.65673,15.3578,-0.128851,0.0597855,0.147438,1,1,3.045,-0.5775,-1.1375,-0.105652,0.476532,-0.779092,-0.03738,-0.09688,0.52878
16.045,0,0,5,5,21.045,21.045,-23.9478,3.65565,15.3567,-0.128832,0.0597918,0.147442,1,1,3.8325,-0.455,-1.0675,-0.105652,0.476532,-0.779092,-0.03738,-0.09688,0.52878
16.0446,0,0,5,5,21.0446,21.0446,-23.9471,3.6543,15.3556,0.101164,-0.0313052,0.170808,1,1,3.955,-0.595,-1.155,0.125294,0.38552,-0.755912,-0.03738,-0.09688,0.52878
16.0449,0,0,5,5,21.0449,21.0449,-23.9476,3.65343,15.3535,0.101179,-0.0313129,0.170805,1,1,3.3775,-0.105,-1.5575,0.125294,0.38552,-0.755912,-0.03948,-0.09842,0.53242
16.1362,0,0,5,5,21.1362,21.1362,-24.0838,3.62307,15.3424,-0.0322912,0.117455,0.0694214,0,1,3.15,0.8575,-1.3825,-0.009272,0.536312,-0.855586,-0.03948,-0.09842,0.53242
16.2263,0,0,5,5,21.2263,21.2263,-24.2184,3.59339,15.3328,-0.0317742,0.115302,0.068492,0,1,2.73,0.665,-0.6825,-0.009272,0.536312,-0.855586,-0.03948,-0.09842,0.53242
16.2862,0,0,5,5,21.2862,21.2862,-24.3078,3.59849,15.3257,0.00446133,0.0835973,0.032315,0,1,2.7475,0.805,-0.875,0.027206,0.506056,-0.890844,-0.03948,-0.09842,0.53242
16.3452,0,0,5,5,21.3452,21.3452,-24.3957,3.60374,15.3187,0.00436972,0.082204,0.031678,0,1,2.695,0.91,-0.735,0.027206,0.506056,-0.890844,-0.03948,-0.09842,0.53242
16.3451,0,0,5,5,21.3451,21.3451,-24.3957,3.60431,15.3188,-0.114453,-0.416805,-0.260694,1,1,3.57,0.14,-0.0525,-0.09211,0.007564,-1.18096,-0.03948,-0.09842,0.53242
16.3442,0,0,5,5,21.3442,21.3442,-24.3944,3.604,15.3206,-0.114448,-0.416784,-0.260684,1,1,4.235,-0.735,0.6475,-0.09211,0.007564,-1.18096,-0.03948,-0.09842,0.53242
16.3238,0,0,5,5,21.3238,21.3238,-24.3639,3.49189,15.3242,-0.109215,-0.0572974,0.0596806,0,1,4.0075,-0.77,0.5775,-0.088816,0.366244,-0.863394,-0.03948,-0.09842,0.53242
16.3043,0,0,5,5,21.3043,21.3043,-24.3348,3.3826,15.3277,-0.107311,-0.0568833,0.0599935,0,1,3.4825,-0.28,0.7875,-0.088816,0.366244,-0.863394,-0.03612,-0.1001,0.52892
16.2521,0,0,5,5,21.2521,21.2521,-24.2569,3.38277,15.3335,-0.00149954,-0.0692017,-0.0444459,0,1,2.8,0.7875,0.945,0.017446,0.352702,-0.967582,-0.03612,-0.1001,0.52892
16.2003,0,0,5,5,21.2003,21.2003,-24.1795,3.38223,15.3386,-0.00149015,-0.0679723,-0.0438924,0,1,3.255,0.595,0.385,0.017446,0.352702,-0.967582,-0.03612,-0.1001,0.52892
16.2019,0,0,5,5,21.2019,21.2019,-24.1819,3.38276,15.3386,0.273058,0.363585,0.149119,1,1,2.205,0.1575,-0.14,0.293166,0.78385,-0.776042,-0.03612,-0.1001,0.52892
16.2035,0,0,5,5,21.2035,21.2035,-24.1843,3.38328,15.3385,0.273049,0.363547,0.149101,1,1,2.205,0.1575,-0.14,0.293166,0.78385,-0.776042,-0.03612,-0.1001,0.52892
16.1544,0,0,5,5,21.1544,21.1544,-24.111,3.41957,15.343,0.0362487,-0.0717531,-0.0151615,0,1,4.515,-0.5425,-0.2975,0.055998,0.347822,-0.939522,-0.03612,-0.1001,0.52892
16.1061,0,0,5,5,21.1061,21.1061,-24.039,3.45524,15.3474,0.0356273,-0.0705916,-0.0146835,0,1,4.515,-0.5425,-0.2975,0.055998,0.347822,-0.939522,-0.03612,-0.1001,0.52892
16.106,0,0,5,5,21.106,21.106,-24.0387,3.45441,15.3469,-0.141606,-0.00842604,0.161135,1,1,3.6925,-0.4725,-0.6825,-0.122,0.40992,-0.765062,-0.03612,-0.1001,0.52892
16.1058,0,0,5,5,21.1058,21.1058,-24.0385,3.45357,15.3465,-0.141591,-0.008423,0.161138,1,1,3.6925,-0.4725,-0.6825,-0.122,0.40992,-0.765062,-0.03612,-0.1001,0.52892
16.1091,0,0,5,5,21.1091,21.1091,-24.0434,3.62415,15.3456,0.183327,0.0134357,-0.0227497,0,1,2.4675,0.56,-0.385,0.207278,0.431758,-0.94733,-0.04494,-0.10584,0.53172
16.1104,0,0,5,5,21.1104,21.1104,-24.0453,3.63093,15.3417,-0.0378948,-0.0468007,-0.265962,1,1,2.6075,4.4275,-0.7175,-0.014762,0.371612,-1.18865,-0.04494,-0.10584,0.53172
16.1117,0,0,5,5,21.1117,21.1117,-24.0473,3.63771,15.3377,-0.0380129,-0.0468285,-0.265983,1,1,2.6075,4.4275,-0.7175,-0.014762,0.371612,-1.18865,-0.04494,-0.10584,0.53172
16.1111,0,0,5,5,21.1111,21.1111,-24.0465,3.63272,15.3413,0.0269474,-0.146962,0.130413,1,1,3.8675,-3.64,0.4375,0.050386,0.271572,-0.795318,-0.04494,-0.10584,0.53172
16.1106,0,0,5,5,21.1106,21.1106,-24.0457,3.62773,15.3448,0.0270343,-0.146952,0.130424,1,1,3.8675,-3.64,0.4375,0.050386,0.271572,-0.795318,-0.04494,-0.10584,0.53172
16.0355,0,0,5,5,21.0355,21.0355,-23.9335,3.62139,15.3533,-0.00249778,-0.0893582,-0.0935251,0,1,3.7275,-1.085,0.2975,0.020618,0.327326,-1.01833,-0.04494,-0.10584,0.53172
15.9616,0,0,5,5,20.9616,20.9616,-23.8233,3.61513,15.3618,-0.00238889,-0.0876045,-0.0927413,0,1,3.7275,-1.085,0.2975,0.020618,0.327326,-1.01833,-0.04494,-0.10584,0.53172
15.962,0,0,5,5,20.962,20.962,-23.8239,3.61699,15.3626,-0.138728,0.199506,-0.0459045,1,1,3.15,0.665,0.63,-0.116266,0.614148,-0.971852,-0.03444,-0.10248,0.5271
16.001,0,0,5,5,21.001,21.001,-23.882,3.63863,15.3579,0.0218634,0.0608306,0.00825351,0,1,2.975,0.9975,-0.455,0.045384,0.476532,-0.917684,-0.03444,-0.10248,0.5271
16.0392,0,0,5,5,21.0392,21.0392,-23.9392,3.65991,15.3532,0.0214928,0.0599306,0.00782864,0,1,2.975,0.9975,-0.455,0.045384,0.476532,-0.917684,-0.03444,-0.10248,0.5271
16.0399,0,0,5,5,21.0399,21.0399,-23.9401,3.66008,15.3524,-0.0673162,0.00984333,0.345192,1,1,3.045,0.1575,-0.6475,-0.043798,0.426512,-0.582916,-0.03444,-0.10248,0.5271
15.9863,0,0,5,5,20.9863,20.9863,-23.8602,3.45962,15.3565,-0.205355,-0.0754369,-0.0278082,0,1,4.3925,-0.2975,-0.7875,-0.185928,0.340136,-0.953796,-0.03444,-0.10248,0.5271
15.9349,0,0,5,5,20.9349,20.9349,-23.7835,3.26208,15.3595,-0.201913,-0.0742962,-0.0270836,0,1,3.3425,-0.315,-1.3125,-0.185928,0.340136,-0.953796,-0.03444,-0.10248,0.5271
15.9355,0,0,5,5,20.9355,20.9355,-23.7844,3.26158,15.3577,0.287561,-0.262874,-0.131842,1,1,3.115,0,-1.2775,0.30561,0.151768,-1.05774,-0.03444,-0.10248,0.5271
15.9347,0,0,5,5,20.9347,20.9347,-23.7832,3.26067,15.3558,0.287577,-0.262856,-0.131833,1,1,4.27,-0.175,-1.47,0.30561,0.151768,-1.05774,-0.03444,-0.10248,0.5271
15.9354,0,0,5,5,20.9354,20.9354,-23.7842,3.26064,15.3539,-0.113568,0.00226525,-0.224297,1,1,3.0625,0.2975,-1.26,-0.097234,0.41663,-1.14948,-0.04228,-0.10612,0.5257
15.9358,0,0,5,5,20.9358,20.9358,-23.7848,3.26096,15.3523,0.0086409,-0.159806,0.0736032,1,1,3.29,0.42,-1.0325,0.025498,0.254736,-0.853878,-0.04228,-0.10612,0.5257
15.9361,0,0,5,5,20.9361,20.9361,-23.7852,3.26294,15.351,0.00860646,-0.159813,0.073598,1,1,3.325,1.225,-0.455,0.025498,0.254736,-0.853878,-0.04228,-0.10612,0.5257
15.9368,0,0,5,5,20.9368,20.9368,-23.7863,3.26419,15.3509,0.0990914,-0.0442977,0.22789,1,1,2.9575,0.5775,-0.035,0.116388,0.370148,-0.700768,-0.04228,-0.10612,0.5257
15.9353,0,0,5,5,20.9353,20.9353,-23.784,3.26356,15.3522,0.0991025,-0.0442605,0.227907,1,1,4.83,-0.7875,0.315,0.116388,0.370148,-0.700768,-0.04228,-0.10612,0.5257
15.8524,0,0,5,5,20.8524,20.8524,-23.6603,3.3321,15.3606,0.0660789,-0.126528,-0.0138669,0,1,4.235,-0.4725,0.4725,0.084424,0.285968,-0.941474,-0.04228,-0.10612,0.5257
15.7714,0,0,5,5,20.7714,20.7714,-23.5395,3.39953,15.3697,0.0649041,-0.12457,-0.0130872,0,1,3.7975,-0.595,0.8225,0.084424,0.285968,-0.941474,-0.04228,-0.10612,0.5257
15.7885,0,0,5,5,20.7885,20.7885,-23.5649,3.56404,15.3703,0.159348,0.00210448,0.0602219,0,1,3.9725,-0.5425,0.98,0.182146,0.412848,-0.868396,-0.04228,-0.10612,0.5257
15.8064,0,0,5,5,20.8064,20.8064,-23.5917,3.72796,15.3692,0.156493,0.00174997,0.0598687,0,1,3.0625,0.9975,0.63,0.182146,0.412848,-0.868396,-0.03682,-0.10416,0.51786
15.8075,0,0,5,5,20.8075,20.8075,-23.5933,3.7283,15.37,-0.25134,0.17087,-0.0972711,1,1,2.625,-0.14,0.2625,-0.227408,0.581818,-1.02431,-0.03682,-0.10416,0.51786
15.8084,0,0,5,5,20.8084,20.8084,-23.5946,3.72938,15.3708,-0.251359,0.17085,-0.0972811,1,1,2.8175,0.2625,0.4375,-0.227408,0.581818,-1.02431,-0.03682,-0.10416,0.51786
15.656,0,0,5,5,20.656,20.656,-23.3671,3.87199,15.3861,0.137584,-0.234453,-0.0304455,0,1,3.605,0.4375,0.14,0.165676,0.17324,-0.959408,-0.03682,-0.10416,0.51786
15.5057,0,0,5,5,20.5057,20.5057,-23.1429,4.0106,15.4012,0.135171,-0.230801,-0.0290567,0,1,3.85,-0.315,-0.5075,0.165676,0.17324,-0.959408,-0.03682,-0.10416,0.51786
15.5049,0,0,5,5,20.5049,20.5049,-23.1416,4.01033,15.4008,0.155707,-0.0776334,0.111114,1,1,4.2875,-0.1925,-0.5075,0.186294,0.326228,-0.820328,-0.03682,-0.10416,0.51786
15.5044,0,0,5,5,20.5044,20.5044,-23.1409,4.00962,15.4008,0.155719,-0.0776218,0.111119,1,1,3.9725,-0.525,-0.385,0.186294,0.326228,-0.820328,-0.03682,-0.10416,0.51786
15.463,0,0,5,5,20.463,20.463,-23.0791,3.8933,15.4048,-0.123252,-0.0288143,-0.105949,0,1,3.7275,-0.2275,-0.42,-0.095892,0.374052,-1.03627,-0.03682,-0.10416,0.51786
15.424,0,0,5,5,20.424,20.424,-23.0209,3.7792,15.4083,-0.121265,-0.0279331,-0.105429,0,1,2.38,-0.0175,-0.5425,-0.095892,0.374052,-1.03627,-0.04312,-0.10388,0.52724
15.4252,0,0,5,5,20.4252,20.4252,-23.0227,3.7798,15.4076,-0.00963043,0.138253,0.199962,1,1,2.5725,0.35,-0.4725,0.016226,0.540094,-0.73322,-0.04312,-0.10388,0.52724
15.4258,0,0,5,5,20.4258,20.4258,-23.0236,3.78099,15.4072,-0.00965104,0.138238,0.199954,1,1,3.045,0.6125,-0.2275,0.016226,0.540094,-0.73322,-0.04312,-0.10388,0.52724
15.3149,0,0,5,5,20.3149,20.3149,-22.8581,3.67306,15.4185,-0.115529,-0.144565,-0.125606,0,1,3.2025,0.0525,0.14,-0.091988,0.25498,-1.0575,-0.04312,-0.10388,0.52724
15.2045,0,0,5,5,20.2045,20.2045,-22.6933,3.56568,15.4299,-0.113659,-0.141964,-0.124386,0,1,4.3225,-0.7525,0.2275,-0.091988,0.25498,-1.0575,-0.04312,-0.10388,0.52724
15.2036,0,0,5,5,20.2036,20.2036,-22.6919,3.5655,15.4309,0.0385659,-0.0214032,0.18115,1,1,4.27,-0.455,0.245,0.060878,0.375394,-0.754326,-0.04312,-0.10388,0.52724
15.2034,0,0,5,5,20.2034,20.2034,-22.6916,3.56519,15.4324,0.0385713,-0.021398,0.181153,1,1,3.6925,-0.63,0.4725,0.060878,0.375394,-0.754326,-0.04312,-0.10388,0.52724
15.4029,0,0,5,5,20.4029,20.4029,-22.9894,3.54719,15.4151,-0.0216149,0.255071,0.16969,0,1,3.6575,-0.525,0.385,0.000122,0.65636,-0.76372,-0.04312,-0.10388,0.52724
15.6002,0,0,5,5,20.6002,20.6002,-23.2839,3.53019,15.3968,-0.0213188,0.250346,0.167691,0,1,2.8525,0.245,-0.21,0.000122,0.65636,-0.76372,-0.04312,-0.10388,0.52724
15.5773,0,0,5,5,20.5773,20.5773,-23.2497,3.71016,15.3988,0.182437,-0.0462841,0.0155342,0,1,2.73,-0.3675,-0.525,0.207888,0.359412,-0.914756,-0.0392,-0.10654,0.52066
15.5772,0,0,5,5,20.5772,20.5772,-23.2496,3.71048,15.3979,-0.0383086,-0.0636235,-0.146511,1,1,3.675,0.245,-0.6475,-0.013786,0.342088,-1.07555,-0.0392,-0.10654,0.52066
15.5767,0,0,5,5,20.5767,20.5767,-23.2488,3.70892,15.397,-0.0382813,-0.0636118,-0.146504,1,1,4.025,-0.77,-1.085,-0.013786,0.342088,-1.07555,-0.0392,-0.10654,0.52066
15.4966,0,0,5,5,20.4966,20.4966,-23.1293,3.80328,15.403,0.107802,-0.100982,-0.0948835,0,1,3.6925,-0.35,-1.47,0.134566,0.302804,-1.02504,-0.0392,-0.10654,0.52066
15.4173,0,0,5,5,20.4173,20.4173,-23.0109,3.89652,15.4091,0.106178,-0.099041,-0.0941757,0,1,4.235,-0.105,-1.365,0.134566,0.302804,-1.02504,-0.0392,-0.10654,0.52066
15.4652,0,0,5,5,20.4652,20.4652,-23.0823,3.80728,15.4028,-0.0915043,0.0777115,0.00907895,0,1,3.815,-0.14,-1.19,-0.065514,0.480558,-0.922198,-0.0392,-0.10654,0.52066
15.5139,0,0,5,5,20.5139,20.5139,-23.1551,3.71957,15.3968,-0.0899768,0.0765061,0.00867356,0,1,2.38,-0.1575,-1.085,-0.065514,0.480558,-0.922198,-0.0392,-0.10654,0.52066
15.5146,0,0,5,5,20.5146,20.5146,-23.1562,3.71986,15.3953,0.046811,-0.17326,0.216449,1,1,3.0275,0.3675,-0.98,0.071858,0.231068,-0.716018,-0.0392,-0.10654,0.52066
15.5153,0,0,5,5,20.5153,20.5153,-23.1571,3.72121,15.3941,0.0467875,-0.173274,0.216441,1,1,3.08,0.875,-0.595,0.071858,0.231068,-0.716018,-0.03864,-0.10528,0.52304
15.4877,0,0,5,5,20.4877,20.4877,-23.116,3.5891,15.3963,-0.133747,-0.0526229,0.0200172,0,1,3.5175,0.385,-0.315,-0.111752,0.350994,-0.91134,-0.03864,-0.10528,0.52304
15.4595,0,0,5,5,20.4595,20.4595,-23.0739,3.45855,15.3997,-0.131473,-0.0520036,0.0204335,0,1,4.41,-0.2975,0.315,-0.111752,0.350994,-0.91134,-0.03864,-0.10528,0.52304
15.534,0,0,5,5,20.534,20.534,-23.185,3.62683,15.3946,0.190813,0.13473,0.001433,0,1,3.9025,-0.3675,0.805,0.214842,0.53924,-0.929274,-0.03864,-0.10528,0.52304
15.6079,0,0,5,5,20.6079,20.6079,-23.2953,3.79227,15.3898,0.187931,0.133038,0.000503328,0,1,3.325,-0.5075,1.0325,0.214842,0.53924,-0.929274,-0.03864,-0.10528,0.52304
15.6082,0,0,5,5,20.6082,20.6082,-23.2958,3.79252,15.3921,-0.138748,-0.0676238,-0.235438,1,1,3.2025,-0.525,1.0325,-0.113216,0.338794,-1.16339,-0.03864,-0.10528,0.52304
15.61,0,0,5,5,20.61,20.61,-23.2986,3.79442,15.3931,-0.138781,-0.0676674,-0.23546,1,1,1.96,0.6475,0.7525,-0.113216,0.338794,-1.16339,-0.03864,-0.10528,0.52304
15.6112,0,0,5,5,20.6112,20.6112,-23.3003,3.79583,15.3941,-0.129937,-0.271401,0.120586,1,1,2.5725,0.4025,0.595,-0.10431,0.135298,-0.81008,-0.03864,-0.10528,0.52304
15.6117,0,0,5,5,20.6117,20.6117,-23.301,3.79728,15.3946,-0.129963,-0.271413,0.120579,1,1,3.115,0.525,0.3675,-0.10431,0.135298,-0.81008,-0.03486,-0.10444,0.52388
15.4332,0,0,5,5,20.4332,20.4332,-23.0346,3.81135,15.4124,0.0101083,-0.269216,-0.0553935,0,1,3.0975,0.0875,-0.07,0.0366,0.133224,-0.986492,-0.03486,-0.10444,0.52388
15.2561,0,0,5,5,20.2561,20.2561,-22.7703,3.8242,15.4297,0.00988446,-0.264971,-0.0536161,0,1,4.3225,-0.315,-0.49,0.0366,0.133224,-0.986492,-0.03486,-0.10444,0.52388
15.2559,0,0,5,5,20.2559,20.2559,-22.77,3.82429,15.4295,-0.112939,-0.0883716,-0.157752,1,1,3.6925,-0.0525,-0.315,-0.086742,0.309636,-1.08983,-0.03486,-0.10444,0.52388
15.2559,0,0,5,5,20.2559,20.2559,-22.7699,3.8242,15.4294,-0.112938,-0.0883698,-0.157751,1,1,3.6225,-0.1575,-0.315,-0.086742,0.309636,-1.08983,-0.03486,-0.10444,0.52388
15.2564,0,0,5,5,20.2564,20.2564,-22.7707,3.82308,15.429,-0.268906,0.11911,-0.170173,1,1,3.1325,-0.6475,-0.7175,-0.24339,0.516914,-1.10215,-0.03486,-0.10444,0.52388
15.2576,0,0,5,5,20.2576,20.2576,-22.7726,3.82303,15.4281,-0.268905,0.119081,-0.170185,1,1,2.555,0.035,-0.7175,-0.24339,0.516914,-1.10215,-0.03486,-0.10444,0.52388
15.2579,0,0,5,5,20.2579,20.2579,-22.773,3.82388,15.4271,-0.0674963,-0.102219,0.309679,1,1,3.36,0.56,-0.6125,-0.041114,0.29585,-0.625982,-0.03486,-0.10444,0.52388
15.2583,0,0,5,5,20.2583,20.2583,-22.7736,3.82461,15.4266,-0.067509,-0.102228,0.309674,1,1,3.255,0.3675,-0.3325,-0.041114,0.29585,-0.625982,-0.04256,-0.10444,0.52374
15.2972,0,0,5,5,20.2972,20.2972,-22.8317,3.82544,15.4228,-0.00374351,0.0293463,0.0759246,0,1,3.7275,0.1925,-0.0525,0.022936,0.42822,-0.857538,-0.04256,-0.10444,0.52374
15.3353,0,0,5,5,20.3353,20.3353,-22.8886,3.82521,15.4199,-0.00373954,0.0284337,0.0755401,0,1,3.8675,-0.56,0.1575,0.022936,0.42822,-0.857538,-0.04256,-0.10444,0.52374
15.3355,0,0,5,5,20.3355,20.3355,-22.8889,3.8243,15.4213,0.0114621,-0.00857624,-0.118474,1,1,3.325,-0.945,0.2975,0.038186,0.391254,-1.05005,-0.04256,-0.10444,0.52374
15.3358,0,0,5,5,20.3358,20.3358,-22.8893,3.82314,15.4223,0.0114823,-0.00858331,-0.118475,1,1,3.29,-0.9975,0.0525,0.038186,0.391254,-1.05005,-0.04256,-0.10444,0.52374
15.3242,0,0,5,5,20.3242,20.3242,-22.8719,3.52879,15.4239,-0.305571,-0.0260181,0.0132551,0,1,3.0975,-0.77,-0.245,-0.285358,0.373686,-0.919758,-0.04256,-0.10444,0.52374
15.3127,0,0,5,5,20.3127,20.3127,-22.8549,3.24045,15.4247,-0.300547,-0.0258603,0.0136441,0,1,3.0625,0.0875,-0.3325,-0.285358,0.373686,-0.919758,-0.04256,-0.10444,0.52374
15.3125,0,0,5,5,20.3125,20.3125,-22.8545,3.24097,15.4243,0.302013,-0.155064,0.138808,1,1,3.78,0.2275,-0.315,0.319762,0.24461,-0.795562,-0.04256,-0.10444,0.52374
15.3125,0,0,5,5,20.3125,20.3125,-22.8545,3.24101,15.4233,0.302012,-0.155065,0.138807,1,1,3.5525,0.105,-0.7525,0.319762,0.24461,-0.795562,-0.03794,-0.10206,0.52388
15.3812,0,0,5,5,20.3812,20.3812,-22.9569,3.01961,15.4164,-0.240451,0.123734,-0.0022231,0,1,3.745,-0.525,-1.26,-0.228872,0.524844,-0.935008,-0.03794,-0.10206,0.52388
15.4487,0,0,5,5,20.4487,20.4487,-23.0578,2.80305,15.4093,-0.236676,0.122041,-0.00273345,0,1,3.675,0.28,-1.295,-0.228872,0.524844,-0.935008,-0.03794,-0.10206,0.52388
15.4455,0,0,5,5,20.4455,20.4455,-23.053,2.87224,15.4078,0.0830832,0.032133,-0.0859922,0,1,4.2175,0.1925,-1.2075,0.093452,0.43493,-1.0176,-0.03794,-0.10206,0.52388
15.4437,0,0,5,5,20.4437,20.4437,-23.0502,2.93995,15.4063,0.0819028,0.0322013,-0.0860282,0,1,3.1675,0,-1.225,0.093452,0.43493,-1.0176,-0.03794,-0.10206,0.52388
15.4441,0,0,5,5,20.4441,20.4441,-23.0509,2.9394,15.4046,-0.0229297,-0.161747,0.12212,1,1,3.2375,-0.0525,-1.26,-0.011834,0.241194,-0.811056,-0.03794,-0.10206,0.52388
15.4445,0,0,5,5,20.4445,20.4445,-23.0515,2.9403,15.4026,-0.0229453,-0.161756,0.122115,1,1,3.2725,0.805,-1.1025,-0.011834,0.241194,-0.811056,-0.03794,-0.10206,0.52388
15.4454,0,0,5,5,20.4454,20.4454,-23.0529,2.94197,15.4014,-0.00013514,-0.0761664,0.147063,1,1,2.835,1.05,-0.525,0.011102,0.326716,-0.78629,-0.03794,-0.10206,0.52388
15.4454,0,0,5,5,20.4454,20.4454,-23.0529,2.9417,15.4011,-0.000130388,-0.0761669,0.147063,1,1,3.5525,-0.21,-0.4725,0.011102,0.326716,-0.78629,-0.03794,-0.10206,0.52388
15.4459,0,0,5,5,20.4459,20.4459,-23.0536,2.94259,15.401,-0.10353,0.190669,-0.0281445,1,1,3.1675,0.3675,-0.0875,-0.09272,0.593286,-0.96014,-0.03724,-0.10626,0.51954
15.4457,0,0,5,5,20.4457,20.4457,-23.0532,2.94276,15.4031,-0.103533,0.190675,-0.0281423,1,1,3.6925,-0.525,0.9275,-0.09272,0.593286,-0.96014,-0.03724,-0.10626,0.51954
15.4448,0,0,5,5,20.4448,20.4448,-23.052,2.94285,15.4057,0.215487,0.151737,-0.00870773,1,1,4.2,-0.6825,1.1725,0.227652,0.554368,-0.940864,-0.03724,-0.10626,0.51954
15.444,0,0,5,5,20.444,20.444,-23.0507,2.94294,15.4083,0.215485,0.151757,-0.00869908,1,1,4.2,-0.6825,1.1725,0.227652,0.554368,-0.940864,-0.03724,-0.10626,0.51954
15.4438,0,0,5,5,20.4438,20.4438,-23.0504,2.9433,15.4099,-0.127232,-0.245882,0.174988,1,1,3.675,-0.2975,0.6825,-0.11651,0.157136,-0.758596,-0.03724,-0.10626,0.51954
15.4436,0,0,5,5,20.4436,20.4436,-23.0501,2.94367,15.4115,-0.127239,-0.245878,0.174989,1,1,3.675,-0.2975,0.6825,-0.11651,0.157136,-0.758596,-0.03724,-0.10626,0.51954
15.4435,0,0,5,5,20.4435,20.4435,-23.05,2.93808,15.4154,-0.0988352,-0.0949289,0.154708,1,1,3.5175,-4.06,0.6125,-0.088084,0.307928,-0.778726,-0.03724,-0.10626,0.51954
15.4434,0,0,5,5,20.4434,20.4434,-23.0498,2.93249,15.4194,-0.0987377,-0.0949287,0.154714,1,1,3.5175,-4.06,0.6125,-0.088084,0.307928,-0.778726,-0.03724,-0.10626,0.51954
15.5486,0,0,5,5,20.5486,20.5486,-23.2068,3.16064,15.4111,0.240118,0.140297,0.0923392,0,1,3.15,0.0525,-0.175,0.2562,0.54534,-0.83936,-0.0427,-0.1022,0.51632
15.4799,0,0,5,5,20.4799,20.4799,-23.1044,3.26243,15.4169,0.0938982,-0.121695,0.0328276,0,1,3.5175,0.035,-0.105,0.111142,0.281942,-0.899018,-0.0427,-0.1022,0.51632
15.4122,0,0,5,5,20.4122,20.4122,-23.0033,3.36153,15.423,0.0921715,-0.120034,0.0334258,0,1,3.745,-0.525,-0.28,0.111142,0.281942,-0.899018,-0.0427,-0.1022,0.51632
15.3116,0,0,5,5,20.3116,20.3116,-22.8531,3.41317,15.4314,0.0520319,-0.149479,-0.0404798,0,1,3.9025,-0.0875,-0.49,0.071736,0.2501,-0.973316,-0.0427,-0.1022,0.51632
15.2123,0,0,5,5,20.2123,20.2123,-22.705,3.46455,15.4391,0.0511368,-0.147078,-0.0395301,0,1,4.2,0.4025,-0.735,0.071736,0.2501,-0.973316,-0.0427,-0.1022,0.51632
15.3482,0,0,5,5,20.3482,20.3482,-22.9077,3.29694,15.4257,-0.17956,0.197171,0.0840524,0,1,3.3075,0.805,-0.77,-0.16287,0.597312,-0.849486,-0.0427,-0.1022,0.51632
15.4816,0,0,5,5,20.4816,20.4816,-23.1069,3.1307,15.4138,-0.176663,0.193912,0.0828453,0,1,3.395,-0.0525,-0.6825,-0.16287,0.597312,-0.849486,-0.0427,-0.1022,0.51632
15.4244,0,0,5,5,20.4244,20.4244,-23.0215,2.88186,15.4177,-0.260768,-0.0882633,-0.0211139,0,1,3.3425,-0.035,-0.595,-0.251686,0.31415,-0.95343,-0.0427,-0.1022,0.51632
15.3682,0,0,5,5,20.3682,20.3682,-22.9376,2.63769,15.4218,-0.256511,-0.0869963,-0.0203538,0,1,3.2725,0.1575,-0.0525,-0.251686,0.31415,-0.95343,-0.04326,-0.10458,0.51898
15.3149,0,0,5,5,20.3149,20.3149,-22.8581,2.67645,15.4258,0.0317063,-0.107324,0.0654828,0,1,3.9375,-0.3675,-0.105,0.03843,0.292556,-0.868762,-0.04326,-0.10458,0.51898
15.2635,0,0,5,5,20.2635,20.2635,-22.7813,2.71366,15.43,0.0310576,-0.106079,0.0659735,0,1,3.1325,-0.8925,-0.21,0.03843,0.292556,-0.868762,-0.04326,-0.10458,0.51898
15.0874,0,0,5,5,20.0874,20.0874,-22.5186,2.91139,15.4433,0.201943,-0.277649,-0.0403675,0,1,3.5175,-0.42,-0.14,0.2135,0.116876,-0.975878,-0.04326,-0.10458,0.51898
14.9131,0,0,5,5,19.9131,19.9131,-22.2584,3.10611,15.4562,0.198549,-0.273388,-0.0388054,0,1,4.34,-0.105,-0.665,0.2135,0.116876,-0.975878,-0.04326,-0.10458,0.51898
14.947,0,0,5,5,19.947,19.947,-22.3089,3.10818,15.4525,0.000977094,0.043816,0.0274971,0,1,3.1675,0.42,-0.6125,0.015128,0.434564,-0.909754,-0.04326,-0.10458,0.51898
14.9798,0,0,5,5,19.9798,19.9798,-22.358,3.1087,15.4488,0.00096794,0.0430256,0.0271719,0,1,3.5175,-0.35,-1.05,0.015128,0.434564,-0.909754,-0.04326,-0.10458,0.51898
15.1011,0,0,5,5,20.1011,20.1011,-22.539,2.97078,15.4374,-0.146177,0.179897,0.0672731,0,1,3.4475,0.0525,-1.26,-0.135054,0.574254,-0.868884,-0.04326,-0.10458,0.51898
15.2209,0,0,5,5,20.2209,20.2209,-22.7178,2.83488,15.427,-0.143808,0.176972,0.0661843,0,1,2.94,-0.1225,-1.1375,-0.135054,0.574254,-0.868884,-0.04396,-0.10388,0.51688
15.375,0,0,5,5,20.375,20.375,-22.9478,2.91838,15.4143,0.0940631,0.238034,0.0838644,0,1,4.095,-0.84,-1.2425,0.105286,0.638914,-0.84973,-0.04396,-0.10388,0.51688
15.5267,0,0,5,5,20.5267,20.5267,-23.1741,3.00202,15.4011,0.0926052,0.234433,0.0822497,0,1,4.0775,0.07,-1.0675,0.105286,0.638914,-0.84973,-0.04396,-0.10388,0.51688
15.3883,0,0,5,5,20.3883,20.3883,-22.9675,3.23296,15.4109,0.250399,-0.212938,-0.0705956,0,1,4.1475,0.42,-0.8925,0.26779,0.188612,-1.0026,-0.04396,-0.10388,0.51688
15.2525,0,0,5,5,20.2525,20.2525,-22.7649,3.45983,15.4215,0.246446,-0.209596,-0.0694369,0,1,3.6925,0.175,-0.8925,0.26779,0.188612,-1.0026,-0.04396,-0.10388,0.51688
15.4698,0,0,5,5,20.4698,20.4698,-23.0892,3.2797,15.4016,-0.199669,0.321143,0.148487,0,1,2.7475,0.525,-0.525,-0.183366,0.72407,-0.784338,-0.04396,-0.10388,0.51688
15.6833,0,0,5,5,20.6833,20.6833,-23.408,3.10266,15.3838,-0.196584,0.315972,0.146453,0,1,2.975,0.595,-0.0525,-0.183366,0.72407,-0.784338,-0.04396,-0.10388,0.51688
15.762,0,0,5,5,20.762,20.762,-23.5254,3.42312,15.3776,0.298596,0.0435887,0.180018,0,1,2.8525,0.875,0.49,0.319518,0.453718,-0.749934,-0.04396,-0.10388,0.51688
15.8386,0,0,5,5,20.8386,20.8386,-23.6396,3.73687,15.3728,0.293131,0.0419014,0.178908,0,1,3.57,-0.455,1.0675,0.319518,0.453718,-0.749934,-0.0406,-0.10766,0.51282
15.9271,0,0,5,5,20.9271,20.9271,-23.7718,3.71276,15.3669,-0.0219478,0.171924,-0.0172348,0,1,3.8675,-0.7525,1.2425,0.002684,0.585722,-0.94367,-0.0406,-0.10766,0.51282
16.0135,0,0,5,5,21.0135,21.0135,-23.9007,3.68928,15.3611,-0.0215387,0.169859,-0.018118,0,1,4.4625,-0.595,1.225,0.002684,0.585722,-0.94367,-0.0406,-0.10766,0.51282
16.0168,0,0,5,5,21.0168,21.0168,-23.9056,3.87498,15.363,0.169604,-0.0375033,0.102141,0,1,4.8825,-0.3675,1.2075,0.197884,0.378566,-0.82411,-0.0406,-0.10766,0.51282
16.0215,0,0,5,5,21.0215,21.0215,-23.9127,4.05835,15.3645,0.166412,-0.037527,0.101889,0,1,3.605,0.1225,1.12,0.197884,0.378566,-0.82411,-0.0406,-0.10766,0.51282
16.0222,0,0,5,5,21.0222,21.0222,-23.9138,4.06011,15.3661,0.11645,0.00972024,0.159542,1,1,2.905,0.4375,1.015,0.147742,0.42578,-0.766892,-0.0406,-0.10766,0.51282
16.0227,0,0,5,5,21.0227,21.0227,-23.9145,4.06082,15.3673,0.116438,0.00970888,0.159536,1,1,3.0975,-0.035,0.56,0.147742,0.42578,-0.766892,-0.0406,-0.10766,0.51282
15.9885,0,0,5,5,20.9885,20.9885,-23.8635,4.063,15.3716,0.00281095,-0.0393046,-0.0491185,0,1,2.835,0.49,0.4375,0.033672,0.376004,-0.974292,-0.0406,-0.10766,0.51282
15.9535,0,0,5,5,20.9535,20.9535,-23.8112,4.06318,15.3761,0.0028078,-0.0384731,-0.0487513,0,1,3.9375,-0.6125,0.105,0.033672,0.376004,-0.974292,-0.04732,-0.10206,0.52248
15.826,0,0,5,5,20.826,20.826,-23.6209,3.89947,15.3898,-0.176449,-0.174988,-0.113506,0,1,4.83,-0.9625,-0.175,-0.149206,0.23668,-1.04005,-0.04732,-0.10206,0.52248
15.701,0,0,5,5,20.701,20.701,-23.4344,3.7393,15.4017,-0.17366,-0.172084,-0.112039,0,1,4.515,-0.175,-0.5775,-0.149206,0.23668,-1.04005,-0.04732,-0.10206,0.52248
15.6008,0,0,5,5,20.6008,20.6008,-23.2848,3.70385,15.4105,-0.0389221,-0.16067,0.0102586,0,1,4.4975,-0.14,-0.735,-0.014518,0.245708,-0.919758,-0.04732,-0.10206,0.52248
15.5036,0,0,5,5,20.5036,20.5036,-23.1397,3.66937,15.4185,-0.0383215,-0.158363,0.01129,0,1,3.3425,0.21,-0.945,-0.014518,0.245708,-0.919758,-0.04732,-0.10206,0.52248
15.5046,0,0,5,5,20.5046,20.5046,-23.1412,3.6697,15.4166,-0.0796324,0.00379765,-0.111546,1,1,2.8,0.4725,-1.1725,-0.055998,0.407724,-1.04164,-0.04732,-0.10206,0.52248
15.5054,0,0,5,5,20.5054,20.5054,-23.1425,3.66862,15.4158,-0.0796134,0.00377667,-0.111554,1,1,2.87,-0.525,-0.945,-0.055998,0.407724,-1.04164,-0.04732,-0.10206,0.52248
15.5852,0,0,5,5,20.5852,20.5852,-23.2615,3.68955,15.4073,0.0174535,0.0833386,0.100555,0,1,3.115,-0.2625,-0.8575,0.041846,0.489098,-0.830332,-0.04732,-0.10206,0.52248
15.6627,0,0,5,5,20.6627,20.6627,-23.3771,3.70928,15.3993,0.0171098,0.081498,0.0997371,0,1,3.92,-0.7875,-0.875,0.041846,0.489098,-0.830332,-0.04732,-0.10206,0.52248
15.5843,0,0,5,5,20.5843,20.5843,-23.2601,3.79392,15.4065,0.0943585,-0.108331,-0.0630665,0,1,4.0425,-1.19,-0.91,0.120902,0.297558,-0.992592,-0.04172,-0.10556,0.51772
15.7026,0,0,5,5,20.7026,20.7026,-23.4367,3.63984,15.394,-0.152854,0.113244,0.162714,0,1,4.2875,-0.175,-0.8575,-0.130052,0.521794,-0.767502,-0.04172,-0.10556,0.51772
15.8194,0,0,5,5,20.8194,20.8194,-23.611,3.48861,15.3825,-0.15022,0.110396,0.161653,0,1,3.9725,-0.0175,-0.6475,-0.130052,0.521794,-0.767502,-0.04172,-0.10556,0.51772
15.8199,0,0,5,5,20.8199,20.8199,-23.6117,3.48878,15.3814,-0.0503614,0.0699602,-0.153592,1,1,3.185,0.21,-0.7875,-0.029768,0.481412,-1.08031,-0.04172,-0.10556,0.51772
15.8207,0,0,5,5,20.8207,20.8207,-23.613,3.48987,15.3796,-0.0503805,0.0699409,-0.153602,1,1,2.9225,0.875,-0.945,-0.029768,0.481412,-1.08031,-0.04172,-0.10556,0.51772
15.9828,0,0,5,5,20.9828,20.9828,-23.8549,3.77547,15.3626,0.304972,0.213618,0.161498,0,1,3.185,0.735,-0.9275,0.332084,0.628666,-0.765672,-0.04172,-0.10556,0.51772
16.1426,0,0,5,5,21.1426,21.1426,-24.0934,4.05521,15.3454,0.300101,0.209959,0.159506,0,1,3.0625,-0.175,-0.91,0.332084,0.628666,-0.765672,-0.04172,-0.10556,0.51772
16.0176,0,0,5,5,21.0176,21.0176,-23.9069,4.34083,15.3583,0.307399,-0.203869,-0.0358565,0,1,3.9725,-0.28,-0.735,0.344406,0.212158,-0.960506,-0.04172,-0.10556,0.51772
15.8945,0,0,5,5,20.8945,20.8945,-23.7231,4.62179,15.3715,0.30251,-0.200788,-0.0349154,0,1,4.0775,-0.2625,-0.9975,0.344406,0.212158,-0.960506,-0.04354,-0.10192,0.51954
15.8367,0,0,5,5,20.8367,20.8367,-23.6368,4.41744,15.3776,-0.22349,-0.0657971,-0.0853247,0,1,3.92,0.3325,-0.455,-0.187392,0.345748,-1.01138,-0.04354,-0.10192,0.51954
15.7797,0,0,5,5,20.7797,20.7797,-23.5518,4.21596,15.3838,-0.219984,-0.0645476,-0.0844902,0,1,3.99,0,-0.2975,-0.187392,0.345748,-1.01138,-0.04354,-0.10192,0.51954
15.8518,0,0,5,5,20.8518,20.8518,-23.6594,4.33391,15.3757,0.12687,0.109538,0.0363383,0,1,3.2375,0.5075,0.0175,0.162992,0.521306,-0.8906,-0.04354,-0.10192,0.51954
15.923,0,0,5,5,20.923,20.923,-23.7656,4.45012,15.3687,0.124848,0.107908,0.0354527,0,1,2.9925,0.3675,0.63,0.162992,0.521306,-0.8906,-0.04354,-0.10192,0.51954
15.9233,0,0,5,5,20.9233,20.9233,-23.7661,4.4519,15.3707,0.26732,0.102894,-0.0233222,1,1,3.2025,0.35,1.225,0.306098,0.516304,-0.948916,-0.04354,-0.10192,0.51954
15.9231,0,0,5,5,20.9231,20.9231,-23.7658,4.45234,15.3727,0.267312,0.1029,-0.0233202,1,1,3.675,-0.385,0.9625,0.306098,0.516304,-0.948916,-0.04354,-0.10192,0.51954
15.9231,0,0,5,5,20.9231,20.9231,-23.7658,4.45297,15.3751,0.278235,0.0102064,0.408105,1,1,3.4475,-0.35,1.155,0.317078,0.423706,-0.520818,-0.04354,-0.10192,0.51954
15.921,0,0,5,5,20.921,20.921,-23.7627,4.45346,15.378,0.278226,0.0102563,0.408126,1,1,5.18,-0.5425,1.4,0.317078,0.423706,-0.520818,-0.03654,-0.10598,0.51996
16.0273,0,0,5,5,21.0273,21.0273,-23.9213,4.35387,15.3686,-0.106365,0.141894,0.0879583,0,1,4.725,0.035,1.715,-0.070882,0.557784,-0.83753,-0.03654,-0.10598,0.51996
16.133,0,0,5,5,21.133,21.133,-24.0791,4.25513,15.3589,-0.104647,0.139333,0.0869593,0,1,3.7625,-0.1925,1.1725,-0.070882,0.557784,-0.83753,-0.03654,-0.10598,0.51996
16.1329,0,0,5,5,21.1329,21.1329,-24.079,4.25601,15.3607,-0.162854,0.0173309,-0.224346,1,1,3.57,-0.0875,0.91,-0.12932,0.435906,-1.14643,-0.03654,-0.10598,0.51996
16.1337,0,0,5,5,21.1337,21.1337,-24.0802,4.25783,15.362,-0.162886,0.017312,-0.224357,1,1,2.8,0.525,0.8925,-0.12932,0.435906,-1.14643,-0.03654,-0.10598,0.51996
16.0605,0,0,5,5,21.0605,21.0605,-23.9708,4.28016,15.3714,0.0224775,-0.107949,-0.0399236,0,1,2.975,-0.245,0.455,0.057218,0.309026,-0.964166,-0.03654,-0.10598,0.51996
15.9879,0,0,5,5,20.9879,20.9879,-23.8626,4.30106,15.3798,0.0221137,-0.106216,-0.0391849,0,1,3.3775,-0.595,-0.2625,0.057218,0.309026,-0.964166,-0.03654,-0.10598,0.51996
16.0608,0,0,5,5,21.0608,21.0608,-23.9714,4.39717,15.3714,0.106453,0.113276,0.0339463,0,1,3.6575,-0.7,-0.6125,0.143594,0.529968,-0.890722,-0.03654,-0.10598,0.51996
16.1317,0,0,5,5,21.1317,21.1317,-24.0771,4.49256,15.3617,0.104793,0.111649,0.0330795,0,1,4.445,0.0525,-1.015,0.143594,0.529968,-0.890722,-0.04662,-0.10136,0.51982
16.1307,0,0,5,5,21.1307,21.1307,-24.0756,4.49204,15.3596,-0.157728,0.115703,-0.159201,1,1,4.4975,0.0875,-1.4875,-0.120048,0.533994,-1.08153,-0.04662,-0.10136,0.51982
16.1296,0,0,5,5,21.1296,21.1296,-24.0741,4.49152,15.3575,-0.157719,0.115726,-0.159189,1,1,4.4975,0.0875,-1.4875,-0.120048,0.533994,-1.08153,-0.04662,-0.10136,0.51982
16.1301,0,0,5,5,21.1301,21.1301,-24.0748,4.49018,15.3556,-0.274808,-0.0413404,-0.191282,1,1,3.255,-0.385,-1.5925,-0.237656,0.377102,-1.11337,-0.04662,-0.10136,0.51982
16.1306,0,0,5,5,21.1306,21.1306,-24.0755,4.48885,15.3536,-0.274785,-0.0413522,-0.191285,1,1,3.255,-0.385,-1.5925,-0.237656,0.377102,-1.11337,-0.04662,-0.10136,0.51982
16.0926,0,0,5,5,21.0926,21.0926,-24.0188,4.47574,15.3559,-0.0103256,-0.0413139,-0.0582057,0,1,3.5175,-0.14,-1.61,0.027694,0.376248,-0.981734,-0.04662,-0.10136,0.51982
16.0553,0,0,5,5,21.0553,21.0553,-23.9631,4.46285,15.3581,-0.0101013,-0.040435,-0.0577954,0,1,3.5175,-0.14,-1.61,0.027694,0.376248,-0.981734,-0.04662,-0.10136,0.51982
16.0551,0,0,5,5,21.0551,21.0551,-23.9629,4.46193,15.3561,-0.0137298,-0.0361582,0.12245,1,1,3.745,-0.1575,-1.5225,0.024034,0.380518,-0.802882,-0.04662,-0.10136,0.51982
16.055,0,0,5,5,21.055,21.055,-23.9627,4.461,15.3542,-0.0137136,-0.0361559,0.122452,1,1,3.745,-0.1575,-1.5225,0.024034,0.380518,-0.802882,-0.03682,-0.09982,0.52136
16.1222,0,0,5,5,21.1222,21.1222,-24.063,4.41801,15.3452,-0.0433371,0.127098,-0.0145549,0,1,2.905,0.2975,-0.8925,-0.006466,0.545218,-0.93818,-0.03682,-0.09982,0.52136
16.1222,0,0,5,5,21.1222,21.1222,-24.063,4.41802,15.3437,-0.000938724,0.121846,-0.125086,1,1,3.6225,0.21,-0.9975,0.036112,0.539972,-1.04786,-0.03682,-0.09982,0.52136
16.1222,0,0,5,5,21.1222,21.1222,-24.063,4.41941,15.3423,-0.00096287,0.121847,-0.125087,1,1,3.6225,0.945,-0.665,0.036112,0.539972,-1.04786,-0.03682,-0.09982,0.52136
16.2476,0,0,5,5,21.2476,21.2476,-24.2501,4.31588,15.3271,-0.113115,0.221039,0.0243174,0,1,3.3425,0.2275,-0.7,-0.078324,0.642086,-0.898408,-0.03682,-0.09982,0.52136
16.3711,0,0,5,5,21.3711,21.3711,-24.4344,4.21348,15.3133,-0.111332,0.218062,0.0231163,0,1,3.185,-0.2275,-0.4025,-0.078324,0.642086,-0.898408,-0.03682,-0.09982,0.52136
16.3714,0,0,5,5,21.3714,21.3714,-24.435,4.2137,15.3127,-0.0513225,0.0603877,-0.214547,1,1,3.2725,0.1225,-0.49,-0.018056,0.484584,-1.13423,-0.03682,-0.09982,0.52136
16.3718,0,0,5,5,21.3718,21.3718,-24.4355,4.21465,15.3123,-0.0513389,0.0603801,-0.214552,1,1,3.29,0.4725,-0.245,-0.018056,0.484584,-1.13423,-0.03682,-0.09982,0.52136
16.397,0,0,5,5,21.397,21.397,-24.4732,4.06794,15.3096,-0.148646,0.00206279,0.0826342,0,1,3.3775,0.28,-0.0525,-0.11834,0.427,-0.839238,-0.04424,-0.105,0.51968
16.4644,0,0,5,5,21.4644,21.4644,-24.5738,4.05205,15.3036,-0.0136419,0.136754,-0.0239338,0,1,3.8325,0.105,0.63,0.016958,0.563152,-0.94428,-0.04424,-0.105,0.51968
16.5312,0,0,5,5,21.5312,21.5312,-24.6734,4.03646,15.298,-0.0133706,0.13517,-0.0246387,0,1,3.4825,0.0875,0.7525,0.016958,0.563152,-0.94428,-0.04424,-0.105,0.51968
16.4613,0,0,5,5,21.4613,21.4613,-24.5691,4.32311,15.3074,0.309408,-0.117296,-0.0157306,0,1,3.6575,0.2975,1.1375,0.346114,0.309148,-0.935862,-0.04424,-0.105,0.51968
16.3927,0,0,5,5,21.3927,21.3927,-24.4668,4.60397,15.3179,0.304521,-0.115517,-0.0153387,0,1,3.4125,-0.56,1.19,0.346114,0.309148,-0.935862,-0.04424,-0.105,0.51968
16.3934,0,0,5,5,21.3934,21.3934,-24.4678,4.60479,15.3201,0.0216881,0.0533679,-0.219196,1,1,2.87,-0.2275,1.12,0.062098,0.477874,-1.13814,-0.04424,-0.105,0.51968
16.3931,0,0,5,5,21.3931,21.3931,-24.4674,4.60572,15.3229,0.0216719,0.0533753,-0.219194,1,1,3.675,-0.315,1.47,0.062098,0.477874,-1.13814,-0.04424,-0.105,0.51968
16.3839,0,0,5,5,21.3839,21.3839,-24.4536,4.37522,15.3267,-0.253856,0.00668862,-0.0508603,0,1,3.5875,-0.455,1.3475,-0.218624,0.431148,-0.971486,-0.04424,-0.105,0.51968
16.3751,0,0,5,5,21.3751,21.3751,-24.4404,4.14881,15.3301,-0.249915,0.00677537,-0.0504983,0,1,3.3775,-0.175,1.295,-0.218624,0.431148,-0.971486,-0.04074,-0.10878,0.5243
16.121,0,0,5,5,21.121,21.121,-24.0611,4.08977,15.3592,-0.0675094,-0.39184,-0.152963,0,1,4.375,-0.6125,0.7525,-0.036478,0.026962,-1.07592,-0.04074,-0.10878,0.5243
15.8723,0,0,5,5,20.8723,20.8723,-23.69,4.03294,15.3868,-0.0665201,-0.38596,-0.150283,0,1,3.08,0.3325,0.805,-0.036478,0.026962,-1.07592,-0.04074,-0.10878,0.5243
15.9781,0,0,5,5,20.9781,20.9781,-23.8479,3.8916,15.3767,-0.158332,0.193266,0.00343373,0,1,2.5725,0.385,0.4025,-0.13115,0.60817,-0.922442,-0.04074,-0.10878,0.5243
16.082,0,0,5,5,21.082,21.082,-24.003,3.75055,15.3663,-0.155876,0.190731,0.0024884,0,1,2.765,-0.4725,-0.49,-0.13115,0.60817,-0.922442,-0.04074,-0.10878,0.5243
16.0833,0,0,5,5,21.0833,21.0833,-24.0049,3.75008,15.3653,-0.0696127,-0.0947092,-0.295306,1,1,2.555,-0.14,-0.8925,-0.04453,0.323056,-1.21793,-0.04074,-0.10878,0.5243
16.0826,0,0,5,5,21.0826,21.0826,-24.0039,3.74956,15.3636,-0.0696035,-0.094694,-0.295298,1,1,4.165,-0.0175,-1.26,-0.04453,0.323056,-1.21793,-0.04074,-0.10878,0.5243
16.1527,0,0,5,5,21.1527,21.1527,-24.1085,3.83708,15.3541,0.0962795,0.106536,0.0392704,0,1,4.235,-0.2975,-1.9075,0.123586,0.525698,-0.88511,-0.04074,-0.10878,0.5243
16.2225,0,0,5,5,21.2225,21.2225,-24.2128,3.92347,15.3451,0.0947752,0.104922,0.0384344,0,1,3.5,-0.245,-1.575,0.123586,0.525698,-0.88511,-0.04592,-0.09702,0.52458
16.2215,0,0,5,5,21.2215,21.2215,-24.2112,3.92226,15.3428,0.234383,-0.273037,0.174305,1,1,4.4975,-0.245,-1.715,0.263764,0.148108,-0.7503,-0.04592,-0.09702,0.52458
16.2222,0,0,5,5,21.2222,21.2222,-24.2123,3.92066,15.3404,0.234411,-0.273055,0.174299,1,1,3.045,-0.4025,-1.925,0.263764,0.148108,-0.7503,-0.04592,-0.09702,0.52458
16.2236,0,0,5,5,21.2236,21.2236,-24.2143,3.91897,15.3379,-0.0949072,-0.247685,-0.184969,1,1,2.555,-0.4375,-1.9775,-0.066978,0.173484,-1.10678,-0.04592,-0.09702,0.52458
16.2245,0,0,5,5,21.2245,21.2245,-24.2157,3.91714,15.3352,-0.0948753,-0.247709,-0.184977,1,1,2.835,-0.4725,-2.1,-0.066978,0.173484,-1.10678,-0.04592,-0.09702,0.52458
16.1358,0,0,5,5,21.1358,21.1358,-24.0832,3.85075,15.3416,-0.0697865,-0.118746,-0.0978979,0,1,2.2225,0.1925,-1.8725,-0.042944,0.300242,-1.02138,-0.04592,-0.09702,0.52458
16.0472,0,0,5,5,21.0472,21.0472,-23.951,3.78574,15.3484,-0.0686543,-0.116673,-0.0968916,0,1,3.2725,0.175,-1.3825,-0.042944,0.300242,-1.02138,-0.04592,-0.09702,0.52458
16.0472,0,0,5,5,21.0472,21.0472,-23.9511,3.78553,15.3469,0.164845,0.0330525,0.325682,1,1,3.5525,0.105,-1.085,0.19154,0.449814,-0.60207,-0.04592,-0.09702,0.52458
16.0462,0,0,5,5,21.0462,21.0462,-23.9495,3.78575,15.3461,0.164841,0.0330785,0.325693,1,1,4.4975,0.175,-0.6125,0.19154,0.449814,-0.60207,-0.04592,-0.09702,0.52458
16.0453,0,0,5,5,21.0453,21.0453,-23.9481,3.78552,15.3461,0.194123,-0.173905,0.126034,1,1,4.305,-0.245,-0.3325,0.220942,0.243024,-0.800198,-0.04116,-0.10472,0.52052
