pid_x,pid_y,pid_z,front_left_speed,front_right_speed,back_left_speed,back_right_speed,orientation_x,orientation_y,orientation_z,acceleration_x,acceleration_y,acceleration_z,accel_rejected,mag_rejected,gyro_x,gyro_y,gyro_z,accel_x,accel_y,accel_z,mag_x,mag_y,mag_z
-0.01926,0,0,15.0193,15.0193,14.9807,14.9807,0.0137564,0.00646744,0.156369,0.00308963,-0.0115512,-0.00178237,0,0,3.57,-0.1225,-1.1725,-0.037088,0.000366,-1.01443,-0.2268,0.08134,0.3934
-0.0420335,0,0,15.042,15.042,14.958,14.958,0.0300216,0.0179252,0.308364,0.00580531,-0.0140762,-0.00190547,0,0,3.325,0.0525,-1.225,-0.03416,-0.00244,-1.01455,-0.2268,0.08134,0.3934
-0.0640988,0,0,15.0641,15.0641,14.9359,14.9359,0.0457801,0.0290567,0.459272,0.00561103,-0.0138011,-0.00190573,0,0,3.22,0.07,-1.2075,-0.03416,-0.00244,-1.01455,-0.2268,0.08134,0.3934
-0.0819742,0,0,15.082,15.082,14.918,14.918,0.058545,0.041287,0.607999,0.00649094,-0.0111358,0.00792981,0,0,3.2025,0.0875,-1.1025,-0.033062,0,-1.00479,-0.2268,0.08134,0.3934
-0.0996326,0,0,15.0996,15.0996,14.9004,14.9004,0.0711544,0.0530905,0.75561,0.00628493,-0.0109157,0.0079294,0,0,3.255,0.0525,-1.12,-0.033062,0,-1.00479,-0.2268,0.08134,0.3934
-0.117219,0,0,15.1172,15.1172,14.8828,14.8828,0.0837119,0.0602117,0.905051,0.00336647,-0.0109408,-0.000923315,0,0,3.29,0.07,-1.1725,-0.035868,-0.000244,-1.01358,-0.2268,0.08134,0.3934
-0.13446,0,0,15.1345,15.1345,14.8655,14.8655,0.0960214,0.0670157,1.05346,0.00324772,-0.010726,-0.000923784,0,0,3.29,0.0175,-1.1375,-0.035868,-0.000244,-1.01358,-0.2268,0.08134,0.3934
-0.15367,0,0,15.1537,15.1537,14.8463,14.8463,0.109737,0.073283,1.20327,0.00265239,-0.0119521,-0.00215383,0,0,3.29,0.1225,-1.1025,-0.036356,-0.001708,-1.0148,-0.22498,0.08092,0.38584
-0.170907,0,0,15.1709,15.1709,14.8291,14.8291,0.122043,0.0821156,1.34977,0.00444201,-0.0106382,-0.00166268,0,0,3.3425,0.105,-1.19,-0.034404,-0.00061,-1.01431,-0.22498,0.08092,0.38584
-0.187937,0,0,15.1879,15.1879,14.8121,14.8121,0.1342,0.090465,1.49536,0.00429628,-0.010426,-0.00166338,0,0,3.395,-0.0175,-1.085,-0.034404,-0.00061,-1.01431,-0.22498,0.08092,0.38584
-0.203623,0,0,15.2036,15.2036,14.7964,14.7964,0.145396,0.0946339,1.64232,0.00191529,-0.00949787,-0.00227871,0,0,3.4825,-0.175,-1.085,-0.036722,0.000122,-1.01492,-0.22498,0.08092,0.38584
-0.21913,0,0,15.2191,15.2191,14.7809,14.7809,0.156464,0.0993161,1.78807,0.00183357,-0.00930469,-0.00227936,0,0,3.535,0.21,-1.155,-0.036722,0.000122,-1.01492,-0.22498,0.08092,0.38584
-0.234061,0,0,15.2341,15.2341,14.7659,14.7659,0.16712,0.110324,1.92843,0.00577196,-0.00899658,-0.00105075,0,0,3.465,0.315,-1.1025,-0.032574,0.000244,-1.0137,-0.22498,0.08092,0.38584
-0.248699,0,0,15.2487,15.2487,14.7513,14.7513,0.177567,0.120975,2.06788,0.00558607,-0.00881426,-0.00105168,0,0,3.465,0.2975,-1.0325,-0.032574,0.000244,-1.0137,-0.22498,0.08092,0.38584
-0.260714,0,0,15.2607,15.2607,14.7393,14.7393,0.186138,0.127585,2.20885,0.00304098,-0.00719914,0.000300033,0,0,3.4825,0.42,-1.05,-0.035014,0.001708,-1.01236,-0.22498,0.08092,0.38584
-0.272795,0,0,15.2728,15.2728,14.7272,14.7272,0.194758,0.133513,2.35196,0.00293752,-0.00704871,0.000299297,0,0,3.605,0.1225,-1.2075,-0.035014,0.001708,-1.01236,-0.2254,0.0791,0.385
-0.289487,0,0,15.2895,15.2895,14.7105,14.7105,0.206669,0.143385,2.49149,0.00507346,-0.00989398,0.00165059,0,0,3.5525,0.175,-1.1725,-0.032696,-0.001342,-1.01101,-0.2254,0.0791,0.385
-0.305456,0,0,15.3055,15.3055,14.6945,14.6945,0.218064,0.152626,2.63025,0.00491217,-0.00969511,0.00164943,0,0,3.395,-0.0175,-1.015,-0.032696,-0.001342,-1.01101,-0.2254,0.0791,0.385
-0.318036,0,0,15.318,15.318,14.682,14.682,0.227038,0.159991,2.76894,0.00381174,-0.00758446,0.00656641,0,0,3.395,0.07,-1.0675,-0.033672,0.00061,-1.00613,-0.2254,0.0791,0.385
-0.330674,0,0,15.3307,15.3307,14.6693,14.6693,0.236052,0.167073,2.9066,0.00368815,-0.00742713,0.00656542,0,0,3.5175,0.035,-1.0675,-0.033672,0.00061,-1.00613,-0.2254,0.0791,0.385
-0.34937,0,0,15.3494,15.3494,14.6506,14.6506,0.249393,0.172804,3.04427,0.00249475,-0.0111023,-0.000443923,0,0,3.605,0.035,-1.0325,-0.03477,-0.003294,-1.01309,-0.2254,0.0791,0.385
-0.367739,0,0,15.3677,15.3677,14.6323,14.6323,0.2625,0.178342,3.181,0.00239808,-0.0108736,-0.000445241,0,0,3.6225,0.035,-0.98,-0.03477,-0.003294,-1.01309,-0.2254,0.0791,0.385
-0.381489,0,0,15.3815,15.3815,14.6185,14.6185,0.272307,0.18092,3.31807,0.00089527,-0.00813778,0.00754547,0,0,3.5175,-0.0875,-1.12,-0.036234,-0.000732,-1.00516,-0.2254,0.0791,0.385
-0.39509,0,0,15.3951,15.3951,14.6049,14.6049,0.282007,0.183319,3.44826,0.000853391,-0.00796849,0.00754452,0,0,3.57,-0.105,-1.1375,-0.036234,-0.000732,-1.00516,-0.2261,0.08176,0.39144
-0.405339,0,0,15.4053,15.4053,14.5947,14.5947,0.289312,0.190722,3.57339,0.00424727,-0.00588696,-0.000202294,0,0,3.605,-0.0525,-1.4525,-0.032696,0.00122,-1.01284,-0.2261,0.08176,0.39144
-0.415386,0,0,15.4154,15.4154,14.5846,14.5846,0.296472,0.197908,3.69761,0.00412186,-0.005762,-0.000203358,0,0,3.605,-0.0525,-1.4525,-0.032696,0.00122,-1.01284,-0.2261,0.08176,0.39144
-0.427951,0,0,15.428,15.428,14.572,14.572,0.305431,0.210808,3.82268,0.00256036,-0.00780393,0.0010245,0,0,3.29,4.41,-1.155,-0.034038,-0.000976,-1.01162,-0.2261,0.08176,0.39144
-0.440261,0,0,15.4403,15.4403,14.5597,14.5597,0.314207,0.22334,3.94684,0.00234164,-0.00765076,0.00102285,0,0,3.29,4.41,-1.155,-0.034038,-0.000976,-1.01162,-0.2261,0.08176,0.39144
-0.449519,0,0,15.4495,15.4495,14.5505,14.5505,0.320802,0.225696,4.07177,0.000964176,-0.00558163,-0.00377294,0,0,3.4825,0.0525,-1.0325,-0.03538,0.000976,-1.01638,-0.2261,0.08176,0.39144
-0.458593,0,0,15.4586,15.4586,14.5414,14.5414,0.327266,0.227972,4.1958,0.000924459,-0.00546881,-0.00377374,0,0,3.4825,0.0525,-1.0325,-0.03538,0.000976,-1.01638,-0.2261,0.08176,0.39144
-0.467839,0,0,15.4678,15.4678,14.5322,14.5322,0.333853,0.239732,4.31699,0.00217703,-0.00535387,0.00470821,0,0,3.535,4.305,-1.225,-0.033916,0.000976,-1.00796,-0.2261,0.08176,0.39144
-0.476893,0,0,15.4769,15.4769,14.5231,14.5231,0.340302,0.251146,4.43645,0.00197782,-0.00524132,0.00470669,0,0,3.535,4.305,-1.225,-0.033916,0.000976,-1.00796,-0.22372,0.08218,0.392
-0.486484,0,0,15.4865,15.4865,14.5135,14.5135,0.347134,0.252507,4.55646,0.00049625,-0.00597697,-0.00451527,0,0,3.3775,-0.1225,-1.2425,-0.03538,0.000122,-1.01711,-0.22372,0.08218,0.392
-0.495885,0,0,15.4959,15.4959,14.5041,14.5041,0.35383,0.253813,4.6756,0.000473456,-0.00586011,-0.00451608,0,0,3.3775,-0.1225,-1.2425,-0.03538,0.000122,-1.01711,-0.22372,0.08218,0.392
-0.506416,0,0,15.5064,15.5064,14.4936,14.4936,0.361333,0.249094,4.79825,-0.00369619,-0.00658404,-0.00119693,0,0,3.4125,0.0525,-1.2075,-0.03965,-0.000732,-1.01382,-0.22372,0.08218,0.392
-0.516739,0,0,15.5167,15.5167,14.4833,14.4833,0.368687,0.244481,4.92,-0.00361568,-0.00645569,-0.0011974,0,0,3.4125,0.0525,-1.2075,-0.03965,-0.000732,-1.01382,-0.22372,0.08218,0.392
-0.539956,0,0,15.54,15.54,14.46,14.46,0.385249,0.248792,5.03468,0.00177594,-0.0141049,0.00384126,0,0,3.4125,-0.35,-1.0325,-0.03416,-0.008662,-1.00882,-0.22372,0.08218,0.392
-0.517148,0,0,15.5171,15.5171,14.4829,14.4829,0.368938,0.267978,5.13754,0.0138326,0.0145545,0.0193331,0,0,3.5875,-0.2625,-1.1375,-0.021716,0.020252,-0.993446,-0.22372,0.08218,0.392
-0.495095,0,0,15.4951,15.4951,14.5049,14.5049,0.353167,0.286967,5.23922,0.0135012,0.0142792,0.0193333,0,0,3.71,-0.105,-1.4,-0.021716,0.020252,-0.993446,-0.22372,0.08218,0.392
-0.392779,0,0,15.3928,15.3928,14.6072,14.6072,0.280069,0.235932,5.38391,-0.0270347,0.0624648,-0.0067207,0,0,3.4475,0.035,-1.33,-0.063318,0.069662,-1.01931,-0.22316,0.08456,0.3899
-0.544267,0,0,15.5443,15.5443,14.4557,14.4557,0.388254,0.333099,5.42697,0.0530293,-0.0889162,0.0252265,0,0,3.6925,-0.35,-1.1375,0.018788,-0.083448,-0.98759,-0.22316,0.08456,0.3899
-0.691135,0,0,15.6911,15.6911,14.3089,14.3089,0.493134,0.427125,5.46967,0.0513883,-0.0870859,0.0252015,0,0,3.08,-0.49,-1.26,0.018788,-0.083448,-0.98759,-0.22316,0.08456,0.3899
-0.511541,0,0,15.5115,15.5115,14.4885,14.4885,0.364833,0.402431,5.59068,-0.00503604,0.111451,-0.0131385,0,0,2.975,-0.2975,-1.33,-0.038308,0.11712,-1.02565,-0.22316,0.08456,0.3899
-0.336599,0,0,15.3366,15.3366,14.6634,14.6634,0.239861,0.378728,5.71129,-0.00462235,0.10927,-0.0131242,0,0,3.4125,-0.2625,-1.26,-0.038308,0.11712,-1.02565,-0.22316,0.08456,0.3899
-0.340863,0,0,15.3409,15.3409,14.6591,14.6591,0.242894,0.541632,5.7029,0.119973,0.00148523,-0.115932,0,0,3.9025,-0.175,-1.365,0.08967,0.009394,-1.12765,-0.22316,0.08456,0.3899
-0.341583,0,0,15.3416,15.3416,14.6584,14.6584,0.243395,0.541007,5.7019,0.119984,0.00149398,-0.115932,1,0,3.71,-0.315,-1.6975,0.08967,0.009394,-1.12765,-0.22316,0.08456,0.3899
-0.313331,0,0,15.3133,15.3133,14.6867,14.6867,0.223203,0.715716,5.68216,0.123495,0.0232464,-0.0552276,0,0,3.885,-0.105,-1.365,0.096258,0.031476,-1.06738,-0.22316,0.08456,0.3899
-0.283329,0,0,15.2833,15.2833,14.7167,14.7167,0.201763,0.885956,5.65374,0.120524,0.0228721,-0.0552677,0,0,3.045,0.035,-1.33,0.096258,0.031476,-1.06738,-0.2268,0.08834,0.40544
-0.197219,0,0,15.1972,15.1972,14.8028,14.8028,0.140247,0.52066,5.9944,-0.243511,0.0447586,-0.00994122,0,0,2.7125,0.7875,-1.2775,-0.27572,0.054412,-1.02248,-0.2268,0.08834,0.40544
-0.112347,0,0,15.1123,15.1123,14.8877,14.8877,0.0796204,0.165286,6.33425,-0.237308,0.0437005,-0.00990206,0,0,2.695,1.015,-0.7,-0.27572,0.054412,-1.02248,-0.2268,0.08834,0.40544
-0.0697459,0,0,15.0697,15.0697,14.9303,14.9303,0.0491886,0.0810874,6.49203,-0.0554325,0.024484,-0.0419879,0,0,3.01,0.5075,-0.2275,-0.09455,0.035746,-1.05432,-0.2268,0.08834,0.40544
-0.0274249,0,0,15.0274,15.0274,14.9726,14.9726,0.0189582,-0.00255219,6.64883,-0.0539727,0.0239564,-0.0419865,0,0,2.7825,-0.5075,-0.21,-0.09455,0.035746,-1.05432,-0.2268,0.08834,0.40544
-0.21665,0,0,15.2166,15.2166,14.7834,14.7834,0.154111,-0.09299,6.80624,-0.0816723,-0.139777,-0.162727,0,0,3.85,-0.84,-0.14,-0.123952,-0.130174,-1.17413,-0.2268,0.08834,0.40544
-0.219514,0,0,15.2195,15.2195,14.7805,14.7805,0.156148,-0.0952668,6.80802,-0.0816326,-0.139742,-0.162727,1,0,4.5675,-1.2775,-0.07,-0.123952,-0.130174,-1.17413,-0.2268,0.08834,0.40544
-0.312831,0,0,15.3128,15.3128,14.6872,14.6872,0.222791,-0.313689,7.05474,-0.148161,-0.0634705,0.00667856,0,0,3.92,-1.155,-0.1225,-0.19459,-0.055144,-1.00601,-0.2268,0.08834,0.40544
-0.404296,0,0,15.4043,15.4043,14.5957,14.5957,0.288108,-0.525947,7.29155,-0.144456,-0.0623307,0.00664634,0,0,3.955,-0.5425,-0.1575,-0.19459,-0.055144,-1.00601,-0.22694,0.09268,0.40642
-0.223551,0,0,15.2236,15.2236,14.7764,14.7764,0.158996,-0.398175,7.30266,0.0860805,0.104073,0.109212,0,0,3.36,-0.2275,-0.245,0.039162,0.113338,-0.904264,-0.22694,0.09268,0.40642
-0.220729,0,0,15.2207,15.2207,14.7793,14.7793,0.156972,-0.396716,7.30364,0.086055,0.104038,0.109212,1,0,2.2925,0.91,-0.5425,0.039162,0.113338,-0.904264,-0.22694,0.09268,0.40642
-0.217076,0,0,15.2171,15.2171,14.7829,14.7829,0.154354,-0.394181,7.30463,0.148333,-0.0822512,-0.123775,1,0,1.96,1.54,-0.5425,0.101748,-0.072712,-1.13545,-0.22694,0.09268,0.40642
-0.216,0,0,15.216,15.216,14.784,14.784,0.153577,-0.392453,7.30573,0.148303,-0.0822648,-0.123774,1,0,2.9925,1.0675,-0.4725,0.101748,-0.072712,-1.13545,-0.22694,0.09268,0.40642
-0.62345,0,0,15.6234,15.6234,14.3766,14.3766,0.444589,-0.620155,7.54033,-0.175127,-0.260987,0.0464477,0,0,3.535,0.735,-0.665,-0.227042,-0.256322,-0.966484,-0.22694,0.09268,0.40642
-1.02426,0,0,16.0243,16.0243,13.9757,13.9757,0.730844,-0.845233,7.76886,-0.171199,-0.255992,0.0463463,0,0,3.9025,-0.7875,-1.82,-0.227042,-0.256322,-0.966484,-0.22694,0.09268,0.40642
-0.73925,0,0,15.7393,15.7393,14.2607,14.2607,0.527236,-0.958042,7.947,-0.0732568,0.222855,-0.264582,0,0,4.8825,-2.0125,-1.715,-0.130662,0.225578,-1.27502,-0.22694,0.09268,0.40642
-0.74279,0,0,15.7428,15.7428,14.2572,14.2572,0.529736,-0.961855,7.94563,-0.0731903,0.222899,-0.264584,1,0,4.8125,-2.1875,-1.89,-0.130662,0.225578,-1.27502,-0.2219,0.0952,0.42952
-0.70948,0,0,15.7095,15.7095,14.2905,14.2905,0.505916,-1.3615,8.31146,-0.285012,0.0101036,-0.0407095,0,0,4.69,-1.5225,-2.345,-0.350384,0.01342,-1.05274,-0.2219,0.0952,0.42952
-0.672334,0,0,15.6723,15.6723,14.3277,14.3277,0.479358,-1.74877,8.67347,-0.278256,0.00963869,-0.0408889,0,0,2.9925,-0.2625,-3.1325,-0.350384,0.01342,-1.05274,-0.2219,0.0952,0.42952
-0.276848,0,0,15.2768,15.2768,14.7232,14.7232,0.196857,-1.85486,8.86328,-0.0488623,0.253238,-0.0225987,0,0,2.8175,0.7875,-3.57,-0.121878,0.26169,-1.03456,-0.2219,0.0952,0.42952
0.116049,0,0,14.884,14.884,15.116,15.116,-0.083779,-1.95688,9.05445,-0.0470826,0.248343,-0.0226531,0,0,0.8575,1.2775,-2.8525,-0.121878,0.26169,-1.03456,-0.2219,0.0952,0.42952
-0.427536,0,0,15.4275,15.4275,14.5725,14.5725,0.304479,-1.57266,8.84801,0.208138,-0.304957,0.138234,0,0,1.225,1.2425,-2.485,0.141154,-0.297802,-0.875106,-0.2219,0.0952,0.42952
-0.959728,0,0,15.9597,15.9597,14.0403,14.0403,0.68458,-1.19908,8.64734,0.201619,-0.298324,0.138335,0,0,1.225,1.2425,-2.485,0.141154,-0.297802,-0.875106,-0.2219,0.0952,0.42952
-0.873233,0,0,15.8732,15.8732,14.1268,14.1268,0.622765,-1.35172,8.8464,-0.0899555,0.045483,0.0623053,0,0,2.8,0.4375,-2.3625,-0.15433,0.046726,-0.950502,-0.2219,0.0952,0.42952
-0.788458,0,0,15.7885,15.7885,14.2115,14.2115,0.562181,-1.50039,9.03461,-0.0873615,0.0444253,0.0622517,0,0,2.8,0.4375,-2.3625,-0.15433,0.046726,-0.950502,-0.22666,0.10066,0.43316
-0.679142,0,0,15.6791,15.6791,14.3209,14.3209,0.484072,-1.50066,9.12533,0.00691616,0.0745713,-0.0341276,0,0,6.23,-0.525,-0.7525,-0.059658,0.078202,-1.04615,-0.22666,0.10066,0.43316
-0.571981,0,0,15.572,15.572,14.428,14.428,0.407507,-1.50074,9.21554,0.00691756,0.0732355,-0.0341172,0,0,6.23,-0.525,-0.7525,-0.059658,0.078202,-1.04615,-0.22666,0.10066,0.43316
-0.663024,0,0,15.663,15.663,14.337,14.337,0.472512,-1.27693,9.13517,0.149403,-0.0467794,-0.0208758,0,0,5.5825,-1.3475,-1.0675,0.087352,-0.042822,-1.0331,-0.22666,0.10066,0.43316
-0.506344,0,0,15.5063,15.5063,14.4937,14.4937,0.360579,-0.968339,9.00573,0.220311,0.110155,0.00444837,0,0,3.3775,-0.5775,-1.12,0.163968,0.1159,-1.00809,-0.22666,0.10066,0.43316
-0.351283,0,0,15.3513,15.3513,14.6487,14.6487,0.249807,-0.664623,8.87784,0.215011,0.108222,0.0045342,0,0,3.045,0.8575,-0.07,0.163968,0.1159,-1.00809,-0.22666,0.10066,0.43316
-0.575828,0,0,15.5758,15.5758,14.4242,14.4242,0.410175,-0.634972,8.91891,0.00590212,-0.136163,0.0369824,0,0,2.66,1.5925,0.1925,-0.045506,-0.131028,-0.975878,-0.22666,0.10066,0.43316
-0.793808,0,0,15.7938,15.7938,14.2062,14.2062,0.565844,-0.607567,8.96001,0.00542383,-0.133447,0.0369644,0,0,1.82,0.9625,0.35,-0.045506,-0.131028,-0.975878,-0.22666,0.10066,0.43316
-0.789589,0,0,15.7896,15.7896,14.2104,14.2104,0.5628,-0.606458,8.96256,-0.170507,-0.103212,0.148479,1,0,1.7325,0.7175,0.3675,-0.222162,-0.100772,-0.865224,-0.22666,0.10066,0.43316
-0.786499,0,0,15.7865,15.7865,14.2135,14.2135,0.560564,-0.606938,8.96558,-0.170498,-0.103251,0.14848,1,0,2.1875,-0.21,0.6475,-0.222162,-0.100772,-0.865224,-0.22484,0.10122,0.44604
-0.784891,0,0,15.7849,15.7849,14.2151,14.2151,0.559385,-0.608286,8.96885,-0.0480173,0.183237,0.213765,1,0,2.7825,-0.7175,0.805,-0.099186,0.18544,-0.800442,-0.22484,0.10122,0.44604
-0.78549,0,0,15.7855,15.7855,14.2145,14.2145,0.559782,-0.610367,8.97068,-0.047981,0.183244,0.213765,1,0,3.6575,-1.155,-0.035,-0.099186,0.18544,-0.800442,-0.22484,0.10122,0.44604
-0.788458,0,0,15.7885,15.7885,14.2115,14.2115,0.561873,-0.69929,9.09983,-0.0600355,-0.00259624,-0.0229291,0,0,5.04,-1.0675,-0.3325,-0.11285,-0.000244,-1.03529,-0.22484,0.10122,0.44604
-0.795275,0,0,15.7953,15.7953,14.2047,14.2047,0.566712,-0.78518,9.22808,-0.0585366,-0.00251199,-0.0229493,0,0,6.58,-0.63,-0.3325,-0.11285,-0.000244,-1.03529,-0.22484,0.10122,0.44604
-0.80559,0,0,15.8056,15.8056,14.1944,14.1944,0.574049,-0.785368,9.22876,-0.086232,-0.0864071,-0.197783,1,0,7.5425,-0.0525,-0.7175,-0.140666,-0.08418,-1.20878,-0.22484,0.10122,0.44604
-0.809376,0,0,15.8094,15.8094,14.1906,14.1906,0.576722,-0.783839,9.22811,-0.0862587,-0.0863605,-0.197784,1,0,4.9175,0.945,-1.505,-0.140666,-0.08418,-1.20878,-0.22484,0.10122,0.44604
-0.809971,0,0,15.81,15.81,14.19,14.19,0.577116,-0.782132,9.22749,0.0551209,-0.0361595,0.222947,1,0,3.64,1.05,-1.4875,0.001342,-0.034038,-0.791292,-0.22484,0.10122,0.44604
-0.802697,0,0,15.8027,15.8027,14.1973,14.1973,0.57189,-0.782667,9.22699,0.0551302,-0.0362507,0.222947,1,0,0.49,-0.2625,-1.4,0.001342,-0.034038,-0.791292,-0.22512,0.10276,0.4459
-0.792951,0,0,15.793,15.793,14.207,14.207,0.564898,-0.782833,9.22551,-0.225985,0.214964,0.185326,1,0,-0.5075,-0.0525,-1.9775,-0.280966,0.217038,-0.828624,-0.22512,0.10276,0.4459
-0.783888,0,0,15.7839,15.7839,14.2161,14.2161,0.558395,-0.78238,9.22488,-0.225993,0.214851,0.185328,1,0,-0.2275,0.315,-1.4875,-0.280966,0.217038,-0.828624,-0.22512,0.10276,0.4459
-0.77866,0,0,15.7787,15.7787,14.2213,14.2213,0.554631,-0.783366,9.22474,-0.104976,0.178513,-0.0857735,1,0,1.3125,-0.525,-1.19,-0.159454,0.180804,-1.09763,-0.22512,0.10276,0.4459
-0.779375,0,0,15.7794,15.7794,14.2206,14.2206,0.555111,-0.784152,9.22235,-0.104962,0.178522,-0.0857738,1,0,3.675,-0.42,-2.5025,-0.159454,0.180804,-1.09763,-0.22512,0.10276,0.4459
-0.786134,0,0,15.7861,15.7861,14.2139,14.2139,0.55991,-0.784302,9.21925,-0.466744,0.257499,-0.464579,1,0,6.09,-0.0525,-2.9225,-0.52277,0.259616,-1.47352,-0.22512,0.10276,0.4459
-0.800104,0,0,15.8001,15.8001,14.1999,14.1999,0.569857,-0.783228,9.21619,-0.466763,0.257673,-0.46458,1,0,8.9775,0.665,-2.905,-0.52277,0.259616,-1.47352,-0.22512,0.10276,0.4459
-0.814981,0,0,15.815,15.815,14.185,14.185,0.580453,-0.782219,9.2137,-0.208259,0.0520742,-0.328478,1,0,9.345,0.63,-2.5725,-0.263154,0.054046,-1.33846,-0.22512,0.10276,0.4459
-0.820867,0,0,15.8209,15.8209,14.1791,14.1791,0.584626,-0.780697,9.21068,-0.208285,0.052147,-0.328478,1,0,5.74,0.9275,-2.8875,-0.263154,0.054046,-1.33846,-0.23268,0.10626,0.44464
-0.820814,0,0,15.8208,15.8208,14.1792,14.1792,0.584557,-0.779231,9.20739,0.210936,-0.26575,-0.0781549,1,0,3.36,0.8925,-3.045,0.157868,-0.26352,-1.09007,-0.23268,0.10626,0.44464
-0.812329,0,0,15.8123,15.8123,14.1877,14.1877,0.578465,-0.777997,9.20628,0.210915,-0.265856,-0.0781536,1,0,0,0.77,-1.7675,0.157868,-0.26352,-1.09007,-0.23268,0.10626,0.44464
-0.803676,0,0,15.8037,15.8037,14.1963,14.1963,0.572253,-0.779649,9.20709,0.300479,-0.148601,0.246554,1,0,-0.0525,-0.91,-0.63,0.247782,-0.146278,-0.767868,-0.23268,0.10626,0.44464
-0.793101,0,0,15.7931,15.7931,14.2069,14.2069,0.56467,-0.782586,9.2078,0.30053,-0.148733,0.246555,1,0,-0.8225,-1.6625,-0.6825,0.247782,-0.146278,-0.767868,-0.23268,0.10626,0.44464
-0.784716,0,0,15.7847,15.7847,14.2153,14.2153,0.55865,-0.783518,9.20827,0.0255025,-0.423868,0.2184,1,0,0.0525,-0.49,-0.84,-0.028426,-0.421022,-0.795806,-0.23268,0.10626,0.44464
-0.785183,0,0,15.7852,15.7852,14.2148,14.2148,0.558954,-0.784998,9.20971,0.0255284,-0.423862,0.2184,1,0,3.605,-0.805,-0.2625,-0.028426,-0.421022,-0.795806,-0.23268,0.10626,0.44464
-0.790517,0,0,15.7905,15.7905,14.2095,14.2095,0.562734,-0.786021,9.21029,0.0296767,-0.318768,-0.273149,1,0,5.5475,-0.5425,-0.77,-0.024278,-0.316102,-1.28356,-0.23268,0.10626,0.44464
-0.806845,0,0,15.8068,15.8068,14.1932,14.1932,0.574366,-0.786374,9.20959,0.0296829,-0.318565,-0.273151,1,0,9.94,-0.1575,-1.5225,-0.024278,-0.316102,-1.28356,-0.2282,0.1085,0.45472
-0.863686,0,0,15.8637,15.8637,14.1363,14.1363,0.614934,-0.931935,9.36415,-0.101776,-0.0328132,-0.00270989,0,0,8.82,0.175,-1.1025,-0.158844,-0.031354,-1.01516,-0.2282,0.1085,0.45472
-0.911096,0,0,15.9111,15.9111,14.0889,14.0889,0.648763,-1.07242,9.51869,-0.099324,-0.0322234,-0.00275928,0,0,5.46,1.015,-0.385,-0.158844,-0.031354,-1.01516,-0.2282,0.1085,0.45472
-0.913148,0,0,15.9131,15.9131,14.0869,14.0869,0.650194,-1.07177,9.52121,0.102331,-0.145288,-0.101979,1,0,4.2525,0.455,0.35,0.043676,-0.144326,-1.11362,-0.2282,0.1085,0.45472
-0.90586,0,0,15.9059,15.9059,14.0941,14.0941,0.644954,-1.07257,9.52329,0.102345,-0.145379,-0.101978,1,0,0.5075,-0.4025,0.105,0.043676,-0.144326,-1.11362,-0.2282,0.1085,0.45472
-0.896992,0,0,15.897,15.897,14.103,14.103,0.638586,-1.07257,9.52559,0.210467,0.054309,0.182034,1,0,-0.1225,0.07,0.2275,0.152256,0.055266,-0.831796,-0.2282,0.1085,0.45472
-0.886608,0,0,15.8866,15.8866,14.1134,14.1134,0.631135,-1.07344,9.52902,0.210482,0.054179,0.182035,1,0,-0.7175,-0.4375,0.8925,0.152256,0.055266,-0.831796,-0.2282,0.1085,0.45472
-0.881365,0,0,15.8814,15.8814,14.1186,14.1186,0.627356,-1.07472,9.5314,-0.0407277,-0.0273455,0.133348,1,0,1.33,-0.6825,0.28,-0.10004,-0.026108,-0.880108,-0.2282,0.1085,0.45472
-0.886506,0,0,15.8865,15.8865,14.1135,14.1135,0.630994,-1.07493,9.53106,-0.0407241,-0.027282,0.133347,1,0,5.46,-0.07,-1.3125,-0.10004,-0.026108,-0.880108,-0.2282,0.1085,0.45472
-0.894565,0,0,15.8946,15.8946,14.1054,14.1054,0.636717,-1.0746,9.53108,0.307934,0.0662448,-0.0966903,1,0,6.6325,0.245,-1.1025,0.2501,0.067222,-1.10837,-0.22456,0.11186,0.43288
-0.907978,0,0,15.908,15.908,14.092,14.092,0.646263,-1.07466,9.53032,0.307935,0.0664114,-0.0966922,1,0,8.7675,0.0175,-1.5575,0.2501,0.067222,-1.10837,-0.22456,0.11186,0.43288
-0.920372,0,0,15.9204,15.9204,14.0796,14.0796,0.655081,-1.07428,9.52843,0.0308196,-0.123952,-0.26206,1,0,8.3475,0.2625,-2.2225,-0.028182,-0.123098,-1.27246,-0.22456,0.11186,0.43288
-0.932767,0,0,15.9328,15.9328,14.0672,14.0672,0.663898,-1.0739,9.52653,0.030813,-0.123799,-0.262061,1,0,8.3475,0.2625,-2.2225,-0.028182,-0.123098,-1.27246,-0.22456,0.11186,0.43288
-1.23411,0,0,16.2341,16.2341,13.7659,13.7659,0.879095,-1.17237,9.62367,-0.0891974,-0.211273,-0.0476003,0,0,2.765,0.1925,-1.8725,-0.150426,-0.214232,-1.05957,-0.22456,0.11186,0.43288
-1.52986,0,0,16.5299,16.5299,13.4701,13.4701,1.09029,-1.26874,9.71946,-0.0875158,-0.207589,-0.0476994,0,0,2.765,0.1925,-1.8725,-0.150426,-0.214232,-1.05957,-0.22456,0.11186,0.43288
-1.52705,0,0,16.5271,16.5271,13.4729,13.4729,1.08823,-1.26864,9.71864,0.0908234,-0.165125,-0.0940503,1,0,2.2575,0.105,-1.5925,0.02867,-0.171776,-1.10556,-0.22456,0.11186,0.43288
-1.52425,0,0,16.5242,16.5242,13.4758,13.4758,1.08616,-1.26854,9.71782,0.0908216,-0.165161,-0.0940496,1,0,2.2575,0.105,-1.5925,0.02867,-0.171776,-1.10556,-0.22456,0.11186,0.43288
-1.52551,0,0,16.5255,16.5255,13.4745,13.4745,1.08701,-1.26807,9.71686,-0.0119634,0.163375,0.13279,1,0,3.885,0.315,-1.68,-0.074542,0.156404,-0.880474,-0.23086,0.10668,0.42798
-1.47613,0,0,16.4761,16.4761,13.5239,13.5239,1.05168,-1.13282,9.68857,0.0985367,0.0406328,-0.0620221,0,0,5.0225,-0.1575,-1.925,0.038796,0.034404,-1.07384,-0.23086,0.10668,0.42798
-1.42948,0,0,16.4295,16.4295,13.5705,13.5705,1.01831,-1.0012,9.65948,0.09624,0.0400512,-0.0619688,0,0,5.81,-0.3325,-2.415,0.038796,0.034404,-1.07384,-0.23086,0.10668,0.42798
-1.43247,0,0,16.4325,16.4325,13.5675,13.5675,1.02039,-1.00111,9.65716,-0.200308,0.231338,-0.0721742,1,0,4.5675,0.0875,-2.4675,-0.259006,0.225456,-1.08397,-0.23086,0.10668,0.42798
-1.43291,0,0,16.4329,16.4329,13.5671,13.5671,1.02064,-1.00164,9.65549,-0.200299,0.231343,-0.0721744,1,0,3.5525,-0.28,-2.0825,-0.259006,0.225456,-1.08397,-0.23086,0.10668,0.42798
-1.43267,0,0,16.4327,16.4327,13.5673,13.5673,1.02042,-1.00253,9.65481,0.175593,0.221935,-0.116928,1,0,3.29,-0.4725,-1.505,0.118462,0.216062,-1.12838,-0.23086,0.10668,0.42798
-1.42949,0,0,16.4295,16.4295,13.5705,13.5705,1.01809,-1.00259,9.65449,0.175594,0.221894,-0.116927,1,0,2.1175,0.0175,-1.295,0.118462,0.216062,-1.12838,-0.23086,0.10668,0.42798
-1.42888,0,0,16.4289,16.4289,13.5711,13.5711,1.0176,-1.00271,9.65469,0.0262906,-0.0328707,-0.273318,1,0,3.15,-0.0175,-0.9975,-0.031476,-0.03843,-1.28356,-0.23086,0.10668,0.42798
-1.43087,0,0,16.4309,16.4309,13.5691,13.5691,1.01897,-1.00321,9.65557,0.0262992,-0.0328468,-0.273318,1,0,4.2,-0.2275,-0.595,-0.031476,-0.03843,-1.28356,-0.23002,0.1057,0.4263
-1.53265,0,0,16.5326,16.5326,13.4674,13.4674,1.09161,-0.98249,9.69494,0.00832227,-0.0657748,-0.0526426,0,0,4.9175,-0.07,-0.5075,-0.049166,-0.07259,-1.06457,-0.23002,0.1057,0.4263
-1.63439,0,0,16.6344,16.6344,13.3656,13.3656,1.16422,-0.962671,9.73349,0.00797641,-0.0645078,-0.0526617,0,0,5.705,-0.1925,-0.8225,-0.049166,-0.07259,-1.06457,-0.23002,0.1057,0.4263
-1.83196,0,0,16.832,16.832,13.168,13.168,1.30527,-0.676976,9.5832,0.173071,-0.104423,0.0712887,0,0,5.285,0.07,-0.9625,0.121634,-0.114924,-0.941596,-0.23002,0.1057,0.4263
-2.02257,0,0,17.0226,17.0226,12.9774,12.9774,1.44134,-0.400205,9.43478,0.16824,-0.102048,0.0712771,0,0,4.305,-0.735,-1.0675,0.121634,-0.114924,-0.941596,-0.23002,0.1057,0.4263
-1.6754,0,0,16.6754,16.6754,13.3246,13.3246,1.1933,-0.455987,9.54218,-0.0216402,0.236434,-0.0639969,0,0,3.325,-0.5775,-0.8575,-0.070028,0.22753,-1.07592,-0.23002,0.1057,0.4263
-1.33222,0,0,16.3322,16.3322,13.6678,13.6678,0.948123,-0.510104,9.65016,-0.0206957,0.232155,-0.0639249,0,0,2.2925,-0.63,-0.525,-0.070028,0.22753,-1.07592,-0.23002,0.1057,0.4263
-1.41365,0,0,16.4137,16.4137,13.5863,13.5863,1.00623,-0.465841,9.66581,0.0266401,-0.0568817,-0.0602472,0,0,1.925,0.0175,-0.735,-0.021716,-0.06222,-1.07226,-0.23002,0.1057,0.4263
-1.49548,0,0,16.4955,16.4955,13.5045,13.5045,1.06463,-0.422643,9.6829,0.0258862,-0.0558626,-0.0602598,0,0,2.7475,0.105,-0.315,-0.021716,-0.06222,-1.07226,-0.22974,0.10528,0.42406
-1.74605,0,0,16.7461,16.7461,13.2539,13.2539,1.24354,-0.550908,9.80318,-0.100164,-0.168639,0.00654233,0,0,2.835,-0.245,-0.1575,-0.150548,-0.177998,-1.00589,-0.22974,0.10528,0.42406
-1.99201,0,0,16.992,16.992,13.008,13.008,1.41915,-0.675609,9.92151,-0.0979879,-0.165576,0.00644783,0,0,2.835,0.105,-0.3325,-0.150548,-0.177998,-1.00589,-0.22974,0.10528,0.42406
-1.99032,0,0,16.9903,16.9903,13.0097,13.0097,1.41786,-0.675525,9.92286,0.00381568,0.13349,-0.172565,1,0,2.7125,0.1225,-0.3325,-0.048312,0.12078,-1.18352,-0.22974,0.10528,0.42406
-1.99327,0,0,16.9933,16.9933,13.0067,13.0067,1.4199,-0.674585,9.92344,0.00379928,0.133525,-0.172565,1,0,4.5675,0.6125,-0.7875,-0.048312,0.12078,-1.18352,-0.22974,0.10528,0.42406
-1.99884,0,0,16.9988,16.9988,13.0012,13.0012,1.4238,-0.673471,9.92427,0.125994,-0.0500851,-0.154247,1,0,5.6175,0.7175,-0.6475,0.07442,-0.062708,-1.16534,-0.22974,0.10528,0.42406
-2.00154,0,0,17.0015,17.0015,12.9985,12.9985,1.42565,-0.673872,9.9247,0.126001,-0.0500528,-0.154248,1,0,4.4625,-0.175,-0.8575,0.07442,-0.062708,-1.16534,-0.22974,0.10528,0.42406
-1.9501,0,0,16.9501,16.9501,13.0499,13.0499,1.38883,-0.379077,9.77834,0.207719,0.0473737,-0.0142699,0,0,4.2875,-0.105,-1.5225,0.16165,0.035258,-1.02651,-0.22974,0.10528,0.42406
-1.89606,0,0,16.8961,16.8961,13.1039,13.1039,1.35016,-0.0919629,9.6392,0.202708,0.0466995,-0.0142332,0,0,3.1675,-0.035,-0.9625,0.16165,0.035258,-1.02651,-0.23016,0.10164,0.42686
-2.04094,0,0,17.0409,17.0409,12.9591,12.9591,1.45356,0.204616,9.47803,0.200933,-0.0874235,-0.0222741,0,0,2.4325,0.455,-0.9975,0.165066,-0.100528,-1.03444,-0.23016,0.10164,0.42686
-2.18221,0,0,17.1822,17.1822,12.8178,12.8178,1.55439,0.493653,9.31782,0.195889,-0.0856652,-0.022351,0,0,2.3975,0.525,-1.5225,0.165066,-0.100528,-1.03444,-0.23016,0.10164,0.42686
-2.17945,0,0,17.1795,17.1795,12.8205,12.8205,1.55234,0.494796,9.31746,0.25649,-0.155802,0.196375,1,0,2.275,0.7175,-1.3475,0.225944,-0.170556,-0.8174,-0.23016,0.10164,0.42686
-2.17801,0,0,17.178,17.178,12.822,12.822,1.55122,0.49465,9.31729,0.256493,-0.155821,0.196376,1,0,2.8,-0.035,-1.2075,0.225944,-0.170556,-0.8174,-0.23016,0.10164,0.42686
-2.17795,0,0,17.178,17.178,12.822,12.822,1.5511,0.494683,9.31599,0.21628,-0.223237,0.265227,1,0,3.36,0.0525,-1.8725,0.185562,-0.2379,-0.74908,-0.23016,0.10164,0.42686
-2.17789,0,0,17.1779,17.1779,12.8221,12.8221,1.55097,0.494716,9.31469,0.21628,-0.223239,0.265227,1,0,3.36,0.0525,-1.8725,0.185562,-0.2379,-0.74908,-0.23016,0.10164,0.42686
-2.1788,0,0,17.1788,17.1788,12.8212,12.8212,1.55154,0.502003,9.31371,-0.0361734,0.16721,-0.115423,1,0,3.745,4.305,-1.8025,-0.067832,0.152134,-1.12679,-0.23016,0.10164,0.42686
-2.17971,0,0,17.1797,17.1797,12.8203,12.8203,1.5521,0.509289,9.31273,-0.0363005,0.167219,-0.115424,1,0,3.745,4.305,-1.8025,-0.067832,0.152134,-1.12679,-0.22918,0.09674,0.41986
-2.02261,0,0,17.0226,17.0226,12.9774,12.9774,1.43981,-0.1311,9.79538,-0.45737,0.0786733,0.024825,0,0,2.625,-0.2275,-1.925,-0.501908,0.065636,-0.987712,-0.22918,0.09674,0.41986
-2.02051,0,0,17.0205,17.0205,12.9795,12.9795,1.43824,-0.131573,9.79392,0.266693,-0.0102625,-0.0877951,1,0,2.5375,-0.245,-1.96,0.225212,-0.02318,-1.09946,-0.22918,0.09674,0.41986
-2.02164,0,0,17.0216,17.0216,12.9784,12.9784,1.43897,-0.132514,9.79206,0.26671,-0.0102497,-0.0877955,1,0,3.8325,-0.525,-2.1875,0.225212,-0.02318,-1.09946,-0.22918,0.09674,0.41986
-2.28541,0,0,17.2854,17.2854,12.7146,12.7146,1.62729,-0.0859206,9.79873,0.0169722,-0.158645,0.0587957,0,0,3.5,-0.4375,-1.995,-0.024766,-0.174704,-0.953918,-0.22918,0.09674,0.41986
-2.54402,0,0,17.544,17.544,12.456,12.456,1.81191,-0.0408103,9.80629,0.0161848,-0.155425,0.0586999,0,0,3.4825,-0.3325,-1.575,-0.024766,-0.174704,-0.953918,-0.22918,0.09674,0.41986
-2.44479,0,0,17.4448,17.4448,12.5552,12.5552,1.74094,-0.132165,9.92494,-0.0597286,0.0629212,-0.0757698,0,0,3.7625,-0.63,-1.8375,-0.102602,0.044652,-1.08739,-0.22918,0.09674,0.41986
-2.34541,0,0,17.3454,17.3454,12.6546,12.6546,1.66986,-0.220015,10.0433,-0.0581953,0.061681,-0.0757376,0,0,2.905,-0.0175,-1.6625,-0.102602,0.044652,-1.08739,-0.22918,0.09674,0.41986
-2.35454,0,0,17.3545,17.3545,12.6455,12.6455,1.6763,-0.147281,10.0584,0.0448914,-0.00232312,0.0654081,0,0,2.31,0.42,-1.5225,0.002196,-0.019398,-0.94733,-0.22974,0.09114,0.41538
-2.58457,0,0,17.5846,17.5846,12.4154,12.4154,1.84051,0.215656,9.86363,0.233542,-0.135264,0.0283089,0,0,2.485,0.1575,-1.365,0.198006,-0.155062,-0.984052,-0.22974,0.09114,0.41538
-2.80896,0,0,17.809,17.809,12.191,12.191,2.00068,0.567949,9.67117,0.227393,-0.132471,0.0281732,0,0,2.38,-0.5425,-1.68,0.198006,-0.155062,-0.984052,-0.22974,0.09114,0.41538
-2.78355,0,0,17.7835,17.7835,12.2165,12.2165,1.98242,0.294268,9.9058,-0.184162,0.00289446,0.00473699,0,0,2.2575,-0.1925,-1.4175,-0.220088,-0.01952,-1.00735,-0.22974,0.09114,0.41538
-2.76201,0,0,17.762,17.762,12.238,12.238,1.96693,0.0273265,10.1399,-0.179503,0.00262476,0.00475937,0,0,3.5875,-0.35,-0.7,-0.220088,-0.01952,-1.00735,-0.22974,0.09114,0.41538
-2.74622,0,0,17.7462,17.7462,12.2538,12.2538,1.95555,0.0118387,10.2105,-0.00951714,0.00999805,-0.0198234,0,0,3.9725,0,-0.7525,-0.049654,-0.011956,-1.03175,-0.22974,0.09114,0.41538
-2.73325,0,0,17.7332,17.7332,12.2668,12.2668,1.94617,-0.00297832,10.2813,-0.00925854,0.00983458,-0.0198179,0,0,4.97,0.1575,-0.4025,-0.049654,-0.011956,-1.03175,-0.22974,0.09114,0.41538
-2.76956,0,0,17.7696,17.7696,12.2304,12.2304,1.972,0.0723785,10.2884,0.0500476,-0.0189032,-0.0166374,0,0,4.6025,-0.21,-0.385,0.011224,-0.041114,-1.02858,-0.22974,0.09114,0.41538
-2.80149,0,0,17.8015,17.8015,12.1985,12.1985,1.99471,0.146193,10.2875,0.0487593,-0.0185073,-0.0166536,0,0,3.1675,-0.035,-0.4725,0.011224,-0.041114,-1.02858,-0.23114,0.09604,0.40978
-2.74053,0,0,17.7405,17.7405,12.2595,12.2595,1.95106,-0.117715,10.5143,-0.164216,0.0264068,0.0698066,0,0,2.3975,0.2975,-0.1575,-0.207278,0.004514,-0.942816,-0.23114,0.09604,0.40978
-2.6808,0,0,17.6808,17.6808,12.3192,12.3192,1.90829,-0.374801,10.7396,-0.159729,0.0256602,0.0698125,0,0,2.3975,0.2975,-0.1575,-0.207278,0.004514,-0.942816,-0.23114,0.09604,0.40978
-2.67675,0,0,17.6767,17.6767,12.3233,12.3233,1.9053,-0.374941,10.7411,-0.196415,0.157138,-0.169689,1,0,1.75,0,-0.245,-0.244122,0.135908,-1.18047,-0.23114,0.09604,0.40978
-2.6733,0,0,17.6733,17.6733,12.3267,12.3267,1.90273,-0.374832,10.7431,-0.196417,0.157094,-0.169688,1,0,1.995,0.1575,0.0875,-0.244122,0.135908,-1.18047,-0.23114,0.09604,0.40978
-2.40874,0,0,17.4087,17.4087,12.5913,12.5913,1.71367,-0.374715,10.8159,0.0154523,0.175656,-0.0248735,0,0,3.395,0.14,-0.1925,-0.031354,0.157746,-1.03688,-0.23114,0.09604,0.40978
-2.14914,0,0,17.1491,17.1491,12.8509,12.8509,1.52816,-0.374225,10.8883,0.0154437,0.17242,-0.0247818,0,0,3.395,0.14,-0.1925,-0.031354,0.157746,-1.03688,-0.23114,0.09604,0.40978
-2.41371,0,0,17.4137,17.4137,12.5863,12.5863,1.71705,-0.339756,10.9015,0.00816046,-0.174544,-0.0292976,0,0,5.4425,0.455,-0.2975,-0.038064,-0.19215,-1.04127,-0.23114,0.09604,0.40978
-2.67294,0,0,17.6729,17.6729,12.3271,12.3271,1.90211,-0.307498,10.9105,0.00759744,-0.171316,-0.0293964,0,0,5.4425,0.455,-0.2975,-0.038064,-0.19215,-1.04127,-0.2296,0.0987,0.41398
-2.6755,0,0,17.6755,17.6755,12.3245,12.3245,1.90384,-0.308039,10.9106,-0.109627,0.100324,-0.154928,1,0,4.3925,-0.2625,-1.0675,-0.155794,0.079178,-1.16583,-0.2296,0.0987,0.41398
-2.67806,0,0,17.6781,17.6781,12.3219,12.3219,1.90556,-0.308581,10.9107,-0.109617,0.100354,-0.154929,1,0,4.3925,-0.2625,-1.0675,-0.155794,0.079178,-1.16583,-0.2296,0.0987,0.41398
-2.75035,0,0,17.7503,17.7503,12.2497,12.2497,1.95709,-0.353805,10.981,-0.0339929,-0.0494514,0.0111396,0,0,2.52,-0.1925,-1.365,-0.080642,-0.07137,-1.00101,-0.2296,0.0987,0.41398
-2.82133,0,0,17.8213,17.8213,12.1787,12.1787,2.00768,-0.397976,11.0507,-0.0332219,-0.0485691,0.011104,0,0,2.52,-0.1925,-1.365,-0.080642,-0.07137,-1.00101,-0.2296,0.0987,0.41398
-2.82895,0,0,17.8289,17.8289,12.1711,12.1711,2.01302,-0.465288,11.1399,-0.0451676,-0.00915155,0.0198213,0,0,2.24,0.14,-1.925,-0.093818,-0.032086,-0.992348,-0.2296,0.0987,0.41398
-2.79268,0,0,17.7927,17.7927,12.2073,12.2073,1.98701,-0.333471,11.1006,0.0946701,0.0293538,-0.034736,0,0,3.1675,-0.28,-2.1,0.048922,0.006832,-1.04652,-0.2296,0.0987,0.41398
-2.7582,0,0,17.7582,17.7582,12.2418,12.2418,1.96227,-0.205448,11.0611,0.0924357,0.0289227,-0.0347106,0,0,3.71,-0.595,-2.345,0.048922,0.006832,-1.04652,-0.2296,0.0987,0.41398
-2.98369,0,0,17.9837,17.9837,12.0163,12.0163,2.12323,-0.197942,11.0998,-0.00719213,-0.131187,0.0865399,0,0,3.605,-0.595,-2.2925,-0.050996,-0.155916,-0.926102,-0.22484,0.08778,0.4116
-2.98611,0,0,17.9861,17.9861,12.0139,12.0139,2.12484,-0.199768,11.0974,0.144818,0.137886,-0.0960398,1,0,4.3225,-1.0675,-2.4675,0.101626,0.11285,-1.10727,-0.22484,0.08778,0.4116
-2.98979,0,0,17.9898,17.9898,12.0102,12.0102,2.12735,-0.200777,11.0955,0.144836,0.13793,-0.0960415,1,0,4.83,-0.5775,-2.17,0.101626,0.11285,-1.10727,-0.22484,0.08778,0.4116
-3.08497,0,0,18.085,18.085,11.915,11.915,2.19522,-0.349373,11.2463,-0.0984576,-0.0593426,0.079103,0,0,4.41,-0.3325,-2.1875,-0.145302,-0.0854,-0.933422,-0.22484,0.08778,0.4116
-3.17699,0,0,18.177,18.177,11.823,11.823,2.26082,-0.494485,11.3954,-0.095925,-0.0581992,0.0790399,0,0,3.7975,-0.4375,-2.2225,-0.145302,-0.0854,-0.933422,-0.22484,0.08778,0.4116
-3.17793,0,0,18.1779,18.1779,11.8221,11.8221,2.26138,-0.495528,11.3937,0.0391853,0.111322,-0.104277,1,0,3.7275,-0.595,-2.0475,-0.009638,0.083936,-1.11532,-0.22484,0.08778,0.4116
-3.17857,0,0,18.1786,18.1786,11.8214,11.8214,2.26171,-0.495783,11.3926,0.0391897,0.111328,-0.104277,1,0,3.605,-0.1225,-1.785,-0.009638,0.083936,-1.11532,-0.22484,0.08778,0.4116
-3.46842,0,0,18.4684,18.4684,11.5316,11.5316,2.46861,-0.472731,11.418,-0.00263921,-0.186961,0.0170503,0,0,3.4825,-0.0525,-1.5925,-0.05124,-0.217648,-0.994788,-0.22484,0.08778,0.4116
-3.75295,0,0,18.753,18.753,11.247,11.247,2.67171,-0.450806,11.4401,-0.00302187,-0.18342,0.0168945,0,0,3.64,0.2625,-1.4,-0.05124,-0.217648,-0.994788,-0.22806,0.08974,0.41076
-3.60658,0,0,18.6066,18.6066,11.3934,11.3934,2.56702,-0.466572,11.5181,-0.00116739,0.0914939,0.0529997,0,0,3.43,0.14,-1.365,-0.049654,0.058804,-0.959042,-0.22806,0.08974,0.41076
-3.46518,0,0,18.4652,18.4652,11.5348,11.5348,2.46589,-0.48259,11.5967,-0.00088783,0.0897305,0.0530749,0,0,4.305,-0.35,-0.735,-0.049654,0.058804,-0.959042,-0.22806,0.08974,0.41076
-3.47289,0,0,18.4729,18.4729,11.5271,11.5271,2.47127,-0.292906,11.5298,0.116437,0.0104429,0.106207,0,0,4.5325,-0.455,-0.4375,0.071492,-0.020496,-0.906338,-0.22806,0.08974,0.41076
-3.48038,0,0,18.4804,18.4804,11.5196,11.5196,2.47648,-0.107721,11.4639,0.113205,0.0105343,0.106214,0,0,4.6725,-0.28,-0.1225,0.071492,-0.020496,-0.906338,-0.22806,0.08974,0.41076
-3.48416,0,0,18.4842,18.4842,11.5158,11.5158,2.47905,-0.107738,11.4656,-0.0957502,0.074085,-0.106489,1,0,4.865,0.0875,-0.105,-0.138348,0.042944,-1.1174,-0.22806,0.08974,0.41076
-3.48597,0,0,18.486,18.486,11.514,11.514,2.48021,-0.106641,11.4679,-0.0957694,0.0741052,-0.106489,1,0,4.0775,0.7525,0.175,-0.138348,0.042944,-1.1174,-0.22806,0.08974,0.41076
-3.5213,0,0,18.5213,18.5213,11.4787,11.4787,2.50531,-0.162186,11.5572,-0.0426826,-0.0280437,-0.0551182,0,0,4.305,0.665,0.525,-0.08601,-0.059536,-1.0664,-0.22806,0.08974,0.41076
-3.55402,0,0,18.554,18.554,11.446,11.446,2.52855,-0.217132,11.6449,-0.0417236,-0.0276386,-0.0551392,0,0,3.5,0.1925,0.035,-0.08601,-0.059536,-1.0664,-0.22806,0.08974,0.41076
-3.20059,0,0,18.2006,18.2006,11.7994,11.7994,2.27597,-0.204835,11.7098,0.0279161,0.224179,0.0553312,0,0,3.535,-0.1575,-0.07,-0.01586,0.19642,-0.956968,-0.22876,0.09422,0.40964
-3.48939,0,0,18.4894,18.4894,11.5106,11.5106,2.48213,-0.238535,11.7551,-0.0424434,-0.206265,-0.0514168,0,0,3.7975,-0.1225,0.0175,-0.087108,-0.237168,-1.06274,-0.22876,0.09422,0.40964
-3.77276,0,0,18.7728,18.7728,11.2272,11.2272,2.68439,-0.272443,11.7993,-0.0418516,-0.202738,-0.0515786,0,0,3.7625,-0.4725,-0.2275,-0.087108,-0.237168,-1.06274,-0.22876,0.09422,0.40964
-3.77433,0,0,18.7743,18.7743,11.2257,11.2257,2.68537,-0.273883,11.8,-0.058713,-0.13433,-0.0936279,1,0,3.9725,-0.77,-0.665,-0.104066,-0.168848,-1.10447,-0.22876,0.09422,0.40964
-3.77651,0,0,18.7765,18.7765,11.2235,11.2235,2.68678,-0.275267,11.8001,-0.0586888,-0.134306,-0.0936291,1,0,4.2175,-0.7525,-0.9975,-0.104066,-0.168848,-1.10447,-0.22876,0.09422,0.40964
-3.96559,0,0,18.9656,18.9656,11.0344,11.0344,2.82169,-0.131062,11.7346,0.0836053,-0.106307,0.0621653,0,0,3.815,-0.7175,-1.015,0.041358,-0.143228,-0.94977,-0.22876,0.09422,0.40964
-4.1519,0,0,19.1519,19.1519,10.8481,10.8481,2.95461,0.00996429,11.669,0.0811439,-0.10399,0.062051,0,0,4.2875,-0.2625,-1.6275,0.041358,-0.143228,-0.94977,-0.22876,0.09422,0.40964
-4.15589,0,0,19.1559,19.1559,10.8441,10.8441,2.9573,0.0693629,11.6695,0.0413533,0.000475554,-0.0283192,0,0,4.1475,-0.1925,-1.9425,0.00244,-0.038918,-1.03944,-0.231,0.09324,0.41174
-4.10112,0,0,19.1011,19.1011,10.8989,10.8989,2.91803,0.207029,11.6224,0.0986,0.0430236,-0.0247244,0,0,3.43,0.0525,-2.17,0.062342,0.00427,-1.0359,-0.231,0.09324,0.41174
-4.04745,0,0,19.0474,19.0474,10.9526,10.9526,2.87953,0.340933,11.5753,0.096263,0.042352,-0.0247016,0,0,3.57,-0.175,-2.31,0.062342,0.00427,-1.0359,-0.231,0.09324,0.41174
-3.97427,0,0,18.9743,18.9743,11.0257,11.0257,2.82711,0.226706,11.6888,-0.0776547,0.0425379,-0.0646044,0,0,4.0425,-0.0175,-2.24,-0.114314,0.005368,-1.07555,-0.231,0.09324,0.41174
-3.90179,0,0,18.9018,18.9018,11.0982,11.0982,2.77519,0.115461,11.8011,-0.0757131,0.0416331,-0.0645544,0,0,3.71,-0.0525,-2.5725,-0.114314,0.005368,-1.07555,-0.231,0.09324,0.41174
-3.70691,0,0,18.7069,18.7069,11.2931,11.2931,2.63585,0.182266,11.8086,0.0590634,0.136539,-0.042066,0,0,4.235,-0.1925,-2.4675,0.022204,0.102602,-1.05335,-0.231,0.09324,0.41174
-3.51454,0,0,18.5145,18.5145,11.4855,11.4855,2.49831,0.24654,11.816,0.0579416,0.13414,-0.0419626,0,0,3.815,-0.8575,-2.3625,0.022204,0.102602,-1.05335,-0.231,0.09324,0.41174
-3.35243,0,0,18.3524,18.3524,11.6476,11.6476,2.38238,0.38889,11.7699,0.110126,0.118318,-0.0246775,0,0,4.6025,-0.6125,-2.2575,0.077104,0.088816,-1.03627,-0.231,0.09324,0.41174
-3.19228,0,0,18.1923,18.1923,11.8077,11.8077,2.26787,0.52816,11.7241,0.107695,0.11632,-0.0246158,0,0,4.2875,-0.49,-2.0475,0.077104,0.088816,-1.03627,-0.231,0.09324,0.41174
-3.41335,0,0,18.4134,18.4134,11.5866,11.5866,2.42565,0.939525,11.4751,0.256382,-0.114316,0.0905052,0,0,4.1475,0.035,-1.9425,0.23363,-0.144326,-0.921832,-0.2296,0.09072,0.40684
-3.62704,0,0,18.627,18.627,11.373,11.373,2.57815,1.34137,11.2311,0.24937,-0.111664,0.0902496,0,0,3.36,0.5425,-0.9625,0.23363,-0.144326,-0.921832,-0.2296,0.09072,0.40684
-3.60288,0,0,18.6029,18.6029,11.3971,11.3971,2.56076,1.41783,11.2109,0.0536589,0.0190735,-0.0119391,0,0,3.15,0.3675,-0.84,0.03843,-0.01342,-1.02321,-0.2296,0.09072,0.40684
-3.58058,0,0,18.5806,18.5806,11.4194,11.4194,2.54469,1.49166,11.191,0.0523707,0.0187919,-0.0119593,0,0,3.7625,-0.0525,-0.6475,0.03843,-0.01342,-1.02321,-0.2296,0.09072,0.40684
-3.48903,0,0,18.489,18.489,11.511,11.511,2.47916,1.51646,11.2072,0.0190154,0.0605158,0.0403326,0,0,3.2725,0.2275,-0.35,0.005368,0.029402,-0.971364,-0.2296,0.09072,0.40684
-3.3994,0,0,18.3994,18.3994,11.6006,11.6006,2.41501,1.53978,11.2236,0.0186085,0.0593972,0.0403695,0,0,3.36,-0.3325,-0.1225,0.005368,0.029402,-0.971364,-0.2296,0.09072,0.40684
-3.24389,0,0,18.2439,18.2439,11.7561,11.7561,2.30381,1.36342,11.3744,-0.115107,0.0961759,-0.0280779,0,0,3.9725,-0.455,-0.0525,-0.132004,0.068076,-1.03944,-0.2296,0.09072,0.40684
-3.09111,0,0,18.0911,18.0911,11.9089,11.9089,2.19456,1.19204,11.5247,-0.112117,0.0942738,-0.0279365,0,0,3.85,-0.2275,-0.1575,-0.132004,0.068076,-1.03944,-0.2296,0.09072,0.40684
-3.0923,0,0,18.0923,18.0923,11.9077,11.9077,2.19529,1.19141,11.5262,0.0952702,0.0145378,-0.147197,1,0,3.815,-0.28,-0.2275,0.07625,-0.01159,-1.15778,-0.23184,0.09142,0.40922
-3.25364,0,0,18.2536,18.2536,11.7464,11.7464,2.31041,1.21748,11.5269,0.00710266,-0.0898278,0.0957839,0,0,4.5675,0.1225,-0.385,-0.011834,-0.117852,-0.916586,-0.23184,0.09142,0.40922
-3.41084,0,0,18.4108,18.4108,11.5892,11.5892,2.42257,1.24361,11.5274,0.00664662,-0.0878728,0.0956933,0,0,4.1475,0.6825,-0.56,-0.011834,-0.117852,-0.916586,-0.23184,0.09142,0.40922
-3.41067,0,0,18.4107,18.4107,11.5893,11.5893,2.42232,1.24404,11.5285,-0.0452352,-0.0531931,0.144012,1,0,3.2725,0.3325,-0.455,-0.063928,-0.083204,-0.86864,-0.23184,0.09142,0.40922
-3.40926,0,0,18.4093,18.4093,11.5907,11.5907,2.42118,1.2438,11.5286,-0.045231,-0.053213,0.144013,1,0,2.7825,-0.0875,-1.085,-0.063928,-0.083204,-0.86864,-0.23184,0.09142,0.40922
-3.38986,0,0,18.3899,18.3899,11.6101,11.6101,2.4072,1.21888,11.5721,-0.01649,0.00992738,-0.0124808,0,0,2.695,0.42,-1.1025,-0.035502,-0.019886,-1.02395,-0.23184,0.09142,0.40922
-3.37178,0,0,18.3718,18.3718,11.6282,11.6282,2.39415,1.1944,11.6148,-0.0160628,0.00970033,-0.0124623,0,0,3.0625,0.28,-1.435,-0.035502,-0.019886,-1.02395,-0.23184,0.09142,0.40922
-3.60988,0,0,18.6099,18.6099,11.3901,11.3901,2.56409,1.5018,11.4229,0.18595,-0.130231,0.0889617,0,0,3.4125,-0.0525,-1.61,0.172752,-0.162626,-0.923052,-0.23184,0.09142,0.40922
-3.84484,0,0,18.8448,18.8448,11.1552,11.1552,2.73177,1.80102,11.2283,0.180729,-0.127316,0.0886763,0,0,4.305,-0.175,-1.61,0.172752,-0.162626,-0.923052,-0.23044,0.09534,0.39998
-3.85277,0,0,18.8528,18.8528,11.1472,11.1472,2.73729,1.60358,11.3659,-0.132904,-0.0132705,0.0152507,0,0,4.235,-0.1925,-1.785,-0.145668,-0.0488,-0.996008,-0.23044,0.09534,0.39998
-3.8612,0,0,18.8612,18.8612,11.1388,11.1388,2.74316,1.4109,11.5017,-0.129542,-0.0131639,0.0153342,0,0,4.41,-0.3675,-2.1175,-0.145668,-0.0488,-0.996008,-0.23044,0.09534,0.39998
-3.60516,0,0,18.6052,18.6052,11.3948,11.3948,2.56014,0.850383,11.8953,-0.376339,0.143274,0.0550183,0,0,3.815,-0.035,-2.0475,-0.403332,0.110654,-0.956968,-0.23044,0.09534,0.39998
-3.35085,0,0,18.3508,18.3508,11.6492,11.6492,2.37836,0.303547,12.2887,-0.366795,0.140109,0.055251,0,0,2.905,0.1225,-1.9775,-0.403332,0.110654,-0.956968,-0.23044,0.09534,0.39998
-3.37868,0,0,18.3787,18.3787,11.6213,11.6213,2.39811,-0.0688837,12.5536,-0.263228,-0.0429803,0.00926715,0,0,1.925,-0.07,-2.1525,-0.305854,-0.07259,-1.0026,-0.23044,0.09534,0.39998
-3.407,0,0,18.407,18.407,11.593,11.593,2.41821,-0.432106,12.816,-0.256889,-0.042631,0.00922473,0,0,2.2225,-0.14,-2.0825,-0.305854,-0.07259,-1.0026,-0.23044,0.09534,0.39998
-3.26021,0,0,18.2602,18.2602,11.7398,11.7398,2.31324,-0.52059,12.9231,-0.0559866,0.092442,-0.0705061,0,0,1.89,-0.4025,-1.3825,-0.105652,0.064172,-1.08177,-0.23044,0.09534,0.39998
-3.11972,0,0,18.1197,18.1197,11.8803,11.8803,2.21277,-0.604911,13.023,-0.054515,0.0906894,-0.0704513,0,0,3.0625,-0.2625,-1.1025,-0.105652,0.064172,-1.08177,-0.22428,0.1008,0.40768
-3.11907,0,0,18.1191,18.1191,11.8809,11.8809,2.21219,-0.604766,13.0231,-0.0831881,0.12573,-0.206801,1,0,3.0975,0.14,-1.0675,-0.134444,0.099186,-1.21707,-0.22428,0.1008,0.40768
-3.1206,0,0,18.1206,18.1206,11.8794,11.8794,2.21316,-0.603703,13.0234,-0.0832067,0.125747,-0.206801,1,0,3.9725,0.6825,-0.9625,-0.134444,0.099186,-1.21707,-0.22428,0.1008,0.40768
-3.12344,0,0,18.1234,18.1234,11.8766,11.8766,2.21507,-0.603878,13.024,0.287449,-0.0409231,-0.169303,1,0,4.4975,-0.035,-0.7525,0.237778,-0.067344,-1.17986,-0.22428,0.1008,0.40768
-3.12553,0,0,18.1255,18.1255,11.8745,11.8745,2.21644,-0.603278,13.0254,0.287439,-0.0408992,-0.169304,1,0,4.2,0.4375,-0.2975,0.237778,-0.067344,-1.17986,-0.22428,0.1008,0.40768
-3.12371,0,0,18.1237,18.1237,11.8763,11.8763,2.21503,-0.602959,13.0272,-0.0844345,-0.117742,-0.0961487,1,0,2.6425,0.28,-0.0875,-0.135664,-0.144082,-1.10727,-0.22428,0.1008,0.40768
-3.12178,0,0,18.1218,18.1218,11.8782,11.8782,2.21353,-0.60304,13.0285,-0.0844331,-0.117768,-0.0961477,1,0,2.59,0.035,-0.3675,-0.135664,-0.144082,-1.10727,-0.22428,0.1008,0.40768
-2.84545,0,0,17.8455,17.8455,12.1545,12.1545,2.01604,-0.815611,13.2283,-0.127131,0.164563,0.0514718,0,0,2.625,0.175,-0.525,-0.182268,0.141398,-0.960872,-0.22428,0.1008,0.40768
-2.57089,0,0,17.5709,17.5709,12.4291,12.4291,1.81983,-1.02547,13.4352,-0.123469,0.161139,0.0515276,0,0,1.6625,0.2275,-0.1925,-0.182268,0.141398,-0.960872,-0.23128,0.0952,0.40628
-2.90429,0,0,17.9043,17.9043,12.0957,12.0957,2.05786,-0.599618,13.169,0.255303,-0.177516,0.129688,0,0,2.625,0.105,-0.4025,0.20557,-0.201056,-0.88328,-0.23128,0.0952,0.40628
-3.23071,0,0,18.2307,18.2307,11.7693,11.7693,2.29089,-0.184537,12.9065,0.248058,-0.17345,0.129583,0,0,2.9225,0.0525,-0.8925,0.20557,-0.201056,-0.88328,-0.23128,0.0952,0.40628
-3.7109,0,0,18.7109,18.7109,11.2891,11.2891,2.63375,0.149521,12.6796,0.220118,-0.324893,-0.00210437,0,0,3.78,0.56,-0.91,0.183366,-0.358314,-1.0137,-0.23128,0.0952,0.40628
-4.1837,0,0,19.1837,19.1837,10.8163,10.8163,2.9713,0.473321,12.4575,0.214466,-0.31901,-0.0024231,0,0,4.76,-0.2275,-0.9625,0.183366,-0.358314,-1.0137,-0.23128,0.0952,0.40628
-3.82523,0,0,18.8252,18.8252,11.1748,11.1748,2.71511,0.0874336,12.7578,-0.255144,0.223043,0.00705275,0,0,3.36,0,-1.435,-0.294996,0.187636,-1.00455,-0.23128,0.0952,0.40628
-3.46986,0,0,18.4699,18.4699,11.5301,11.5301,2.46114,-0.288737,13.058,-0.248579,0.218615,0.00724138,0,0,2.1175,0.105,-1.8725,-0.294996,0.187636,-1.00455,-0.23128,0.0952,0.40628
-3.46601,0,0,18.466,18.466,11.534,11.534,2.45826,-0.289375,13.0568,-0.142511,-0.0530456,0.162527,1,0,1.8025,-0.35,-1.8025,-0.18849,-0.083692,-0.850462,-0.23128,0.0952,0.40628
-3.465,0,0,18.465,18.465,11.535,11.535,2.4574,-0.290388,13.0552,-0.142493,-0.0530605,0.162528,1,0,2.94,-0.5775,-1.9775,-0.18849,-0.083692,-0.850462,-0.22974,0.0931,0.4053
-3.24522,0,0,18.2452,18.2452,11.7548,11.7548,2.30029,-0.0887763,12.9793,0.156366,0.158899,-0.00812203,0,0,2.3275,-0.245,-2.1175,0.115168,0.130784,-1.01992,-0.22974,0.0931,0.4053
-3.02989,0,0,18.0299,18.0299,11.9701,11.9701,2.14638,0.10915,12.9029,0.152912,0.156215,-0.00801843,0,0,2.6775,0.21,-2.24,0.115168,0.130784,-1.01992,-0.22974,0.0931,0.4053
-3.03085,0,0,18.0309,18.0309,11.9691,11.9691,2.14695,0.109389,12.9013,-0.0545901,-0.0366134,-0.160967,1,0,3.745,0.1575,-2.065,-0.093208,-0.061854,-1.17169,-0.22974,0.0931,0.4053
-3.03212,0,0,18.0321,18.0321,11.9679,11.9679,2.14774,0.109334,12.8995,-0.0545891,-0.0365997,-0.160967,1,0,3.8675,-0.0175,-2.1525,-0.093208,-0.061854,-1.17169,-0.22974,0.0931,0.4053
-2.96742,0,0,17.9674,17.9674,12.0326,12.0326,2.10141,-0.0410149,13.0341,-0.104447,0.033426,-0.0347906,0,0,3.01,-0.0525,-2.0475,-0.145912,0.008906,-1.04652,-0.22974,0.0931,0.4053
-2.90286,0,0,17.9029,17.9029,12.0971,12.0971,2.05519,-0.187888,13.1681,-0.101883,0.0326196,-0.0347664,0,0,2.5025,-0.2625,-1.89,-0.145912,0.008906,-1.04652,-0.22974,0.0931,0.4053
-2.91438,0,0,17.9144,17.9144,12.0856,12.0856,2.0633,-0.271698,13.2564,-0.0611808,-0.0158455,-0.0392035,0,0,2.59,-0.315,-1.505,-0.106506,-0.03965,-1.05091,-0.22974,0.0931,0.4053
-2.92604,0,0,17.926,17.926,12.074,12.074,2.07152,-0.353246,13.3449,-0.0597576,-0.0157025,-0.0392164,0,0,2.6775,-0.1925,-0.9975,-0.106506,-0.03965,-1.05091,-0.22974,0.0931,0.4053
-2.92411,0,0,17.9241,17.9241,12.0759,12.0759,2.07003,-0.353194,13.345,0.179204,-0.0985304,0.19328,1,0,2.59,0.0875,-1.015,0.133468,-0.122366,-0.820206,-0.231,0.09604,0.40348
-2.92401,0,0,17.924,17.924,12.076,12.076,2.06985,-0.353213,13.3464,0.179204,-0.0985336,0.19328,1,0,3.325,0.07,-0.35,0.133468,-0.122366,-0.820206,-0.231,0.09604,0.40348
-2.98119,0,0,17.9812,17.9812,12.0188,12.0188,2.11058,-0.104545,13.2134,0.1598,-0.0192951,0.0702002,0,0,3.4125,0.0875,-0.315,0.11834,-0.04392,-0.942328,-0.231,0.09604,0.40348
-3.03842,0,0,18.0384,18.0384,11.9616,11.9616,2.15134,0.13836,13.0825,0.15556,-0.0185842,0.0701725,0,0,4.1475,0.3325,0.245,0.11834,-0.04392,-0.942328,-0.231,0.09604,0.40348
-3.03956,0,0,18.0396,18.0396,11.9604,11.9604,2.15204,0.139462,13.085,-0.0162395,-0.00648139,0.126728,1,0,3.815,0.7525,0.2975,-0.054168,-0.031842,-0.886208,-0.231,0.09604,0.40348
-3.04071,0,0,18.0407,18.0407,11.9593,11.9593,2.15275,0.140563,13.0875,-0.0162588,-0.00646911,0.126728,1,0,3.815,0.7525,0.2975,-0.054168,-0.031842,-0.886208,-0.231,0.09604,0.40348
-2.90424,0,0,17.9042,17.9042,12.0958,12.0958,2.05516,-0.260477,13.3881,-0.268874,0.0657152,0.0476041,0,0,2.555,0.5075,0.42,-0.314882,0.041968,-0.964776,-0.231,0.09604,0.40348
-2.77024,0,0,17.7702,17.7702,12.2298,12.2298,1.95934,-0.651622,13.6873,-0.262048,0.064042,0.0476084,0,0,2.555,0.5075,0.42,-0.314882,0.041968,-0.964776,-0.231,0.09604,0.40348
-2.76797,0,0,17.768,17.768,12.232,12.232,1.95761,-0.652676,13.6892,-0.0206372,-0.221032,0.140189,1,0,2.4675,-0.525,0.035,-0.072468,-0.24278,-0.87291,-0.23016,0.0952,0.39914
-2.37261,0,0,17.3726,17.3726,12.6274,12.6274,1.67512,-0.924585,13.9425,-0.174309,0.257783,-0.00971674,0,0,3.675,0.0525,-0.77,-0.231556,0.240462,-1.02175,-0.23016,0.0952,0.39914
-1.98417,0,0,16.9842,16.9842,13.0158,13.0158,1.39759,-1.18967,14.1965,-0.169684,0.252939,-0.00967222,0,0,3.675,0.0525,-0.77,-0.231556,0.240462,-1.02175,-0.23016,0.0952,0.39914
-1.87755,0,0,16.8776,16.8776,13.1224,13.1224,1.32137,-1.50962,14.4596,-0.210022,0.051807,0.0580954,0,0,4.655,0.14,-1.54,-0.277672,0.04087,-0.954406,-0.23016,0.0952,0.39914
-1.77304,0,0,16.773,16.773,13.227,13.227,1.24665,-1.82164,14.7212,-0.204579,0.0505003,0.0579664,0,0,4.655,0.14,-1.54,-0.277672,0.04087,-0.954406,-0.23016,0.0952,0.39914
-1.83195,0,0,16.8319,16.8319,13.1681,13.1681,1.28865,-1.71715,14.6953,0.070707,-0.0348653,-0.0382622,0,0,3.0275,0.2975,-2.5725,0.00061,-0.04514,-1.04993,-0.23016,0.0952,0.39914
-1.88947,0,0,16.8895,16.8895,13.1105,13.1105,1.32967,-1.61533,14.6696,0.0689306,-0.0341487,-0.0382269,0,0,3.0275,0.2975,-2.5725,0.00061,-0.04514,-1.04993,-0.23016,0.0952,0.39914
-1.8798,0,0,16.8798,16.8798,13.1202,13.1202,1.3227,-1.52845,14.6607,0.062434,0.0111618,-0.018019,0,0,2.9925,0.0175,-2.625,-0.004392,0.000244,-1.02992,-0.22988,0.09464,0.39648
-1.91936,0,0,16.9194,16.9194,13.0806,13.0806,1.35088,-1.65492,14.7814,-0.0935339,-0.0351227,-0.012682,0,0,3.465,-0.455,-3.2025,-0.163236,-0.046482,-1.02456,-0.22988,0.09464,0.39648
-1.95842,0,0,16.9584,16.9584,13.0416,13.0416,1.3787,-1.77833,14.901,-0.091381,-0.034639,-0.012758,0,0,3.465,-0.455,-3.2025,-0.163236,-0.046482,-1.02456,-0.22988,0.09464,0.39648
-1.76395,0,0,16.764,16.764,13.236,13.236,1.23973,-1.67727,14.9049,0.0867763,0.138557,-0.00465784,0,0,4.48,-0.4375,-2.9225,0.017446,0.128954,-1.01663,-0.22988,0.09464,0.39648
-2.03024,0,0,17.0302,17.0302,12.9698,12.9698,1.42986,-1.42102,14.7513,0.161028,-0.155014,0.042475,0,0,3.7975,-0.42,-2.73,0.096502,-0.167628,-0.9699,-0.22988,0.09464,0.39648
-2.29122,0,0,17.2912,17.2912,12.7088,12.7088,1.61619,-1.17074,14.6014,0.156661,-0.151762,0.0424874,0,0,4.0425,0.0175,-2.03,0.096502,-0.167628,-0.9699,-0.22988,0.09464,0.39648
-2.2916,0,0,17.2916,17.2916,12.7084,12.7084,1.61638,-1.172,14.6004,0.0462527,0.167847,-0.179435,1,0,3.5175,-0.7,-1.6625,-0.014396,0.151646,-1.19011,-0.22988,0.09464,0.39648
-2.29366,0,0,17.2937,17.2937,12.7063,12.7063,1.61776,-1.17266,14.6004,0.0462642,0.167871,-0.179436,1,0,4.2,-0.3325,-1.1025,-0.014396,0.151646,-1.19011,-0.22988,0.09464,0.39648
-2.34675,0,0,17.3468,17.3468,12.6532,12.6532,1.65559,-1.1795,14.648,-0.00731304,-0.0328557,0.0301698,0,0,3.885,-0.1575,-0.84,-0.06832,-0.049532,-0.9821,-0.22638,0.0903,0.39998
-2.34733,0,0,17.3473,17.3473,12.6527,12.6527,1.65592,-1.17999,14.6494,0.128274,0.282359,-0.227285,1,0,3.6225,-0.21,-0.3325,0.067832,0.26535,-1.23757,-0.22638,0.0903,0.39998
-2.34815,0,0,17.3481,17.3481,12.6519,12.6519,1.65641,-1.17995,14.6519,0.128273,0.282368,-0.227285,1,0,3.7275,0.1225,0.35,0.067832,0.26535,-1.23757,-0.22638,0.0903,0.39998
-2.34789,0,0,17.3479,17.3479,12.6521,12.6521,1.65614,-1.17935,14.655,-0.30617,-0.0871926,0.168855,1,0,3.3075,0.455,0.7175,-0.36844,-0.103822,-0.844484,-0.22638,0.0903,0.39998
-2.3484,0,0,17.3484,17.3484,12.6516,12.6516,1.65641,-1.17896,14.659,-0.306177,-0.0871878,0.168855,1,0,3.6225,0.35,1.1725,-0.36844,-0.103822,-0.844484,-0.22638,0.0903,0.39998
-2.03903,0,0,17.039,17.039,12.961,12.961,1.43536,-1.14193,14.7212,0.0471858,0.20548,0.0352046,0,0,3.99,0.4725,0.98,-0.012932,0.192394,-0.97722,-0.22638,0.0903,0.39998
-1.73422,0,0,16.7342,16.7342,13.2658,13.2658,1.21758,-1.10553,14.7831,0.0465505,0.201681,0.0353051,0,0,3.5875,0.315,1.05,-0.012932,0.192394,-0.97722,-0.22638,0.0903,0.39998
-1.73551,0,0,16.7355,16.7355,13.2645,13.2645,1.21843,-1.1047,14.7866,0.244436,-0.205963,0.208908,1,0,3.9375,0.5775,0.875,0.185806,-0.214842,-0.804956,-0.22638,0.0903,0.39998
-1.73628,0,0,16.7363,16.7363,13.2637,13.2637,1.21892,-1.10366,14.7893,0.244418,-0.205954,0.208908,1,0,3.7275,0.7,0.455,0.185806,-0.214842,-0.804956,-0.2303,0.0945,0.41174
-1.62794,0,0,16.6279,16.6279,13.3721,13.3721,1.14147,-1.16322,14.8843,-0.0388191,0.0716316,-0.0508744,0,0,3.9375,0.5775,0.105,-0.099674,0.063806,-1.06274,-0.2303,0.0945,0.41174
-1.52256,0,0,16.5226,16.5226,13.4774,13.4774,1.06614,-1.22168,14.9777,-0.037799,0.0703169,-0.0508703,0,0,4.27,0.2625,-0.5775,-0.099674,0.063806,-1.06274,-0.2303,0.0945,0.41174
-1.7022,0,0,16.7022,16.7022,13.2978,13.2978,1.19439,-1.26674,15.0279,-0.0501331,-0.133718,-0.0801933,0,0,4.2875,0.245,-0.8575,-0.11285,-0.142252,-1.09178,-0.2303,0.0945,0.41174
-1.8769,0,0,16.8769,16.8769,13.1231,13.1231,1.3191,-1.31058,15.0765,-0.0493682,-0.131543,-0.0802582,0,0,3.5875,0.49,-1.4875,-0.11285,-0.142252,-1.09178,-0.2303,0.0945,0.41174
-2.09478,0,0,17.0948,17.0948,12.9052,12.9052,1.47466,-1.10105,14.9524,0.137344,-0.132613,0.00249688,0,0,3.815,-0.315,-1.8725,0.078324,-0.146034,-1.00967,-0.2303,0.0945,0.41174
-2.30704,0,0,17.307,17.307,12.693,12.693,1.62618,-0.897221,14.829,0.133787,-0.129968,0.00248735,0,0,3.4475,-0.49,-2.5375,0.078324,-0.146034,-1.00967,-0.2303,0.0945,0.41174
-1.9856,0,0,16.9856,16.9856,13.0144,13.0144,1.39651,-1.06849,15.0094,-0.103523,0.206879,0.000574627,0,0,3.0275,-0.14,-2.9575,-0.162992,0.194468,-1.01162,-0.2303,0.0945,0.41174
-1.67171,0,0,16.6717,16.6717,13.3283,13.3283,1.17223,-1.23637,15.1871,-0.100594,0.202966,0.000603433,0,0,3.7625,-0.4025,-3.605,-0.162992,0.194468,-1.01162,-0.2303,0.0952,0.40096
-1.67413,0,0,16.6741,16.6741,13.3259,13.3259,1.1739,-1.23658,15.1827,-0.160847,-0.132854,-0.0750106,1,0,4.305,-0.1225,-3.6925,-0.223504,-0.141032,-1.08665,-0.2303,0.0952,0.40096
-1.6767,0,0,16.6767,16.6767,13.3233,13.3233,1.17567,-1.2375,15.1779,-0.160831,-0.132823,-0.0750115,1,0,4.3575,-0.5425,-3.9375,-0.223504,-0.141032,-1.08665,-0.2303,0.0952,0.40096
-1.67857,0,0,16.6786,16.6786,13.3214,13.3214,1.17695,-1.23823,15.1727,0.0833681,0.0836078,-0.0984954,1,0,4.0775,-0.4375,-4.095,0.021716,0.075152,-1.10996,-0.2303,0.0952,0.40096
-1.68019,0,0,16.6802,16.6802,13.3198,13.3198,1.17804,-1.23827,15.1689,0.0833688,0.0836269,-0.0984959,1,0,3.99,-0.0175,-3.325,0.021716,0.075152,-1.10996,-0.2303,0.0952,0.40096
-1.76976,0,0,16.7698,16.7698,13.2302,13.2302,1.24195,-1.09685,15.1016,0.0977877,-0.0506956,-0.0234705,0,0,4.235,-0.455,-2.835,0.038674,-0.060146,-1.03554,-0.2303,0.0952,0.40096
-1.85662,0,0,16.8566,16.8566,13.1434,13.1434,1.30392,-0.95822,15.0358,0.0953684,-0.0496135,-0.0234512,0,0,3.99,0.0175,-2.275,0.038674,-0.060146,-1.03554,-0.2303,0.0952,0.40096
-1.70726,0,0,16.7073,16.7073,13.2927,13.2927,1.19718,-1.09549,15.1771,-0.0935762,0.094709,-0.0430023,0,0,3.71,0.1575,-1.4875,-0.153476,0.085888,-1.05493,-0.2303,0.0952,0.40096
-1.55892,0,0,16.5589,16.5589,13.4411,13.4411,1.09116,-1.22959,15.3185,-0.0912361,0.0928584,-0.0430128,0,0,2.9575,-0.0525,-1.015,-0.153476,0.085888,-1.05493,-0.2303,0.0952,0.40096
-1.68868,0,0,16.6887,16.6887,13.3113,13.3113,1.18378,-1.11394,15.2644,0.0720879,-0.0746704,0.0455193,0,0,3.43,-0.175,-0.0875,0.012566,-0.083082,-0.967094,-0.23072,0.0966,0.39648
-1.68991,0,0,16.6899,16.6899,13.3101,13.3101,1.1846,-1.11396,15.2665,-0.116215,0.182787,0.126542,1,0,3.9025,0.07,0.1225,-0.176534,0.174094,-0.886696,-0.23072,0.0966,0.39648
-1.69009,0,0,16.6901,16.6901,13.3099,13.3099,1.18467,-1.11436,15.2699,-0.116208,0.182788,0.126542,1,0,3.5,-0.14,0.8575,-0.176534,0.174094,-0.886696,-0.23072,0.0966,0.39648
-1.72823,0,0,16.7282,16.7282,13.2718,13.2718,1.21184,-1.10056,15.2933,0.00746694,-0.0243531,-0.00661658,0,0,3.71,-0.0175,0.8925,-0.052094,-0.033306,-1.01882,-0.23072,0.0966,0.39648
-1.76582,0,0,16.7658,16.7658,13.2342,13.2342,1.23863,-1.0858,15.3175,0.0072095,-0.0238857,-0.00662166,0,0,3.7975,0.7875,1.4,-0.052094,-0.033306,-1.01882,-0.23072,0.0966,0.39648
-1.76617,0,0,16.7662,16.7662,13.2338,13.2338,1.23881,-1.08521,15.3217,0.21251,-0.322116,-0.0441208,1,0,3.57,0.455,1.33,0.154086,-0.33123,-1.05603,-0.23072,0.0966,0.39648
-1.76678,0,0,16.7668,16.7668,13.2332,13.2332,1.23918,-1.08395,15.3257,0.212488,-0.32211,-0.0441206,1,0,3.675,0.84,1.19,0.154086,-0.33123,-1.05603,-0.23072,0.0966,0.39648
-1.76548,0,0,16.7655,16.7655,13.2345,13.2345,1.23818,-1.08365,15.3294,0.302989,0.0722204,-0.161536,1,0,2.905,0.28,1.0325,0.244976,0.062708,-1.17254,-0.23044,0.09688,0.39816
-1.76393,0,0,16.7639,16.7639,13.2361,13.2361,1.23701,-1.15997,15.4145,-0.0574631,-0.00522899,-0.0368917,0,0,3.395,0.2275,0.7875,-0.11834,-0.01464,-1.04883,-0.23044,0.09688,0.39816
-1.76365,0,0,16.7636,16.7636,13.2364,13.2364,1.23674,-1.23437,15.4976,-0.0561649,-0.00523429,-0.0369188,0,0,3.815,0.245,-0.035,-0.11834,-0.01464,-1.04883,-0.23044,0.09688,0.39816
-1.63264,0,0,16.6326,16.6326,13.3674,13.3674,1.14311,-1.25986,15.5647,-0.00919109,0.084727,0.0248256,0,0,3.605,0.35,-0.9975,-0.071614,0.07686,-0.98759,-0.23044,0.09688,0.39816
-1.50305,0,0,16.5031,16.5031,13.4969,13.4969,1.05049,-1.28542,15.6311,-0.00874508,0.083111,0.0248467,0,0,3.185,-0.175,-1.1725,-0.071614,0.07686,-0.98759,-0.23044,0.09688,0.39816
-1.50448,0,0,16.5045,16.5045,13.4955,13.4955,1.05145,-1.28574,15.629,0.0650023,-0.117282,-0.126872,1,0,3.9375,-0.1575,-2.3625,0.00244,-0.123342,-1.13814,-0.23044,0.09688,0.39816
-1.50591,0,0,16.5059,16.5059,13.4941,13.4941,1.05241,-1.28606,15.6268,0.0650079,-0.117265,-0.126873,1,0,3.9375,-0.1575,-2.3625,0.00244,-0.123342,-1.13814,-0.23044,0.09688,0.39816
-1.60445,0,0,16.6044,16.6044,13.3956,13.3956,1.12274,-1.16812,15.5676,0.0765564,-0.0552185,0.0332271,0,0,3.535,-0.0875,-3.465,0.016104,-0.062586,-0.979294,-0.23044,0.09688,0.39816
-1.70097,0,0,16.701,16.701,13.299,13.299,1.19162,-1.05275,15.5064,0.0745431,-0.054016,0.0332418,0,0,3.535,-0.0875,-3.465,0.016104,-0.062586,-0.979294,-0.23408,0.09814,0.39508
-1.68054,0,0,16.6805,16.6805,13.3195,13.3195,1.17696,-1.18386,15.616,-0.0883896,0.00556953,0.0378745,0,0,3.64,0.0175,-3.92,-0.149816,-0.002806,-0.974658,-0.23408,0.09814,0.39508
-1.66075,0,0,16.6608,16.6608,13.3392,13.3392,1.16277,-1.31174,15.7248,-0.0861581,0.00532083,0.037831,0,0,3.64,0.0175,-3.92,-0.149816,-0.002806,-0.974658,-0.23408,0.09814,0.39508
-1.66239,0,0,16.6624,16.6624,13.3376,13.3376,1.16387,-1.31174,15.7205,0.0989862,0.0286664,0.121067,1,0,3.99,0,-3.64,0.036112,0.020496,-0.892064,-0.23408,0.09814,0.39508
-1.66381,0,0,16.6638,16.6638,13.3362,13.3362,1.16482,-1.31214,15.7163,-0.0678068,-0.0928332,-0.0974133,1,0,3.9025,-0.2275,-3.5525,-0.131394,-0.100894,-1.10886,-0.23408,0.09814,0.39508
-1.66293,0,0,16.6629,16.6629,13.3371,13.3371,1.16413,-1.31303,15.7129,0.197412,-0.0901585,-0.0958151,1,0,2.9925,-0.5075,-3.045,0.134932,-0.09821,-1.10727,-0.23408,0.09814,0.39508
-1.66476,0,0,16.6648,16.6648,13.3352,13.3352,1.16538,-1.31412,15.7107,0.197431,-0.0901367,-0.0958159,1,0,4.095,-0.6125,-2.4325,0.134932,-0.09821,-1.10727,-0.23408,0.09814,0.39508
-1.81617,0,0,16.8162,16.8162,13.1838,13.1838,1.27346,-1.28591,15.7011,0.0100938,-0.107913,-0.0587145,0,0,3.115,-0.4025,-1.925,-0.052704,-0.117852,-1.07043,-0.23408,0.09814,0.39508
-1.96341,0,0,16.9634,16.9634,13.0366,13.0366,1.37856,-1.25775,15.6978,0.00960241,-0.10608,-0.058746,0,0,2.59,0,-0.7525,-0.052704,-0.117852,-1.07043,-0.2331,0.09576,0.39928
-2.03187,0,0,17.0319,17.0319,12.9681,12.9681,1.42738,-0.777967,15.413,0.338596,-0.0133851,0.05806,0,0,2.485,-0.105,-0.21,0.28609,-0.026108,-0.95465,-0.2331,0.09576,0.39928
-2.09924,0,0,17.0992,17.0992,12.9008,12.9008,1.47542,-0.309032,15.1301,0.330412,-0.012545,0.0581163,0,0,3.2725,-0.175,-0.105,0.28609,-0.026108,-0.95465,-0.2331,0.09576,0.39928
-2.09899,0,0,17.099,17.099,12.901,12.901,1.47517,-0.308006,15.1332,-0.265251,0.203371,-0.104175,1,0,3.29,0.7,0.6475,-0.312076,0.189588,-1.11569,-0.2331,0.09576,0.39928
-2.09712,0,0,17.0971,17.0971,12.9029,12.9029,1.47375,-0.308123,15.1365,-0.265248,0.203346,-0.104175,1,0,2.6425,0.035,0.8225,-0.312076,0.189588,-1.11569,-0.2331,0.09576,0.39928
-2.26748,0,0,17.2675,17.2675,12.7325,12.7325,1.59535,-0.417683,15.212,-0.0819582,-0.112307,0.0822691,0,0,3.1675,0.2975,1.3475,-0.12993,-0.127856,-0.930616,-0.2331,0.09576,0.39928
-2.43497,0,0,17.435,17.435,12.565,12.565,1.7149,-0.524982,15.2859,-0.0800856,-0.110222,0.0821934,0,0,3.1675,0.1925,0.945,-0.12993,-0.127856,-0.930616,-0.2331,0.09576,0.39928
-2.43302,0,0,17.433,17.433,12.567,12.567,1.71341,-0.52368,15.2893,0.083047,-0.0566338,-0.095958,1,0,2.6075,0.875,0.84,0.033916,-0.074298,-1.10739,-0.2331,0.09576,0.39928
-2.43369,0,0,17.4337,17.4337,12.5663,12.5663,1.7138,-0.523247,15.2927,0.0830394,-0.0566271,-0.0959581,1,0,3.6575,0.3675,0.875,0.033916,-0.074298,-1.10739,-0.22834,0.09254,0.39746
-2.4913,0,0,17.4913,17.4913,12.5087,12.5087,1.75485,-0.399752,15.237,0.0879303,-0.0333169,-0.037193,0,0,3.0975,0.1225,0.1225,0.040992,-0.051728,-1.04908,-0.22834,0.09254,0.39746
-2.54752,0,0,17.5475,17.5475,12.4525,12.4525,1.79491,-0.279313,15.1817,0.0858283,-0.0326177,-0.0372022,0,0,3.0975,0.1225,0.1225,0.040992,-0.051728,-1.04908,-0.22834,0.09254,0.39746
-2.81851,0,0,17.8185,17.8185,12.1815,12.1815,1.98837,0.0492639,14.9692,0.219316,-0.166513,0.012369,0,0,3.2375,4.4625,-0.8225,0.180804,-0.188856,-0.99979,-0.22834,0.09254,0.39746
-3.08342,0,0,18.0834,18.0834,11.9166,11.9166,2.17748,0.369699,14.7598,0.213724,-0.163216,0.0122286,0,0,3.2375,4.4625,-0.8225,0.180804,-0.188856,-0.99979,-0.22834,0.09254,0.39746
-3.07153,0,0,18.0715,18.0715,11.9285,11.9285,2.16887,0.169377,14.9048,-0.148331,-0.00875263,-0.0320107,0,0,2.5375,0.2975,-1.645,-0.186294,-0.034404,-1.04371,-0.22834,0.09254,0.39746
-3.06019,0,0,18.0602,18.0602,11.9398,11.9398,2.16065,-0.0260473,15.0486,-0.14492,-0.00889585,-0.032001,0,0,2.5375,0.2975,-1.645,-0.186294,-0.034404,-1.04371,-0.22834,0.09254,0.39746
-3.19835,0,0,18.1984,18.1984,11.8016,11.8016,2.25922,0.254905,14.8715,0.195196,-0.0745911,0.00702046,0,0,4.0075,0.315,-2.6425,0.160186,-0.101748,-1.00491,-0.22834,0.09254,0.39746
-3.33284,0,0,18.3328,18.3328,11.6672,11.6672,2.35516,0.528529,14.6948,0.19042,-0.0729194,0.00692044,0,0,4.0075,0.315,-2.6425,0.160186,-0.101748,-1.00491,-0.2303,0.09296,0.40628
-3.3095,0,0,18.3095,18.3095,11.6905,11.6905,2.33836,0.741353,14.5701,0.167997,0.0297389,-0.0813857,0,0,3.465,0.28,-3.0975,0.141398,0.001098,-1.09251,-0.2303,0.09296,0.40628
-3.28594,0,0,18.2859,18.2859,11.7141,11.7141,2.32141,0.949207,14.4459,0.16437,0.0294411,-0.0814272,0,0,3.465,0.28,-3.0975,0.141398,0.001098,-1.09251,-0.2303,0.09296,0.40628
-3.16088,0,0,18.1609,18.1609,11.8391,11.8391,2.23196,1.0714,14.3841,0.0899537,0.0923628,0.0384721,0,0,3.7625,-0.21,-3.115,0.068808,0.065514,-0.97356,-0.2303,0.09296,0.40628
-3.1613,0,0,18.1613,18.1613,11.8387,11.8387,2.23213,1.07037,14.3812,-0.00928218,0.0662308,-0.13341,1,0,3.5525,-0.6125,-2.765,-0.030866,0.039406,-1.14412,-0.2303,0.09296,0.40628
-3.16141,0,0,18.1614,18.1614,11.8386,11.8386,2.2321,1.06957,14.3788,-0.00926816,0.0662302,-0.133409,1,0,3.43,-0.4725,-2.52,-0.030866,0.039406,-1.14412,-0.2303,0.09296,0.40628
-3.0219,0,0,18.0219,18.0219,11.9781,11.9781,2.13233,1.17792,14.3269,0.0863941,0.10357,-0.0106776,0,0,3.36,-0.3325,-2.345,0.0671,0.078446,-1.02236,-0.2303,0.09296,0.40628
-2.884,0,0,17.884,17.884,12.116,12.116,2.03373,1.28431,14.2759,0.0845378,0.101849,-0.0106549,0,0,3.0975,-0.07,-1.9425,0.0671,0.078446,-1.02236,-0.2303,0.09296,0.40628
-3.27257,0,0,18.2726,18.2726,11.7274,11.7274,2.31115,1.00689,14.4187,-0.219195,-0.283017,0.068806,0,0,3.045,-0.2975,-1.645,-0.24278,-0.310856,-0.943426,-0.2303,0.09296,0.40628
-3.65365,0,0,18.6536,18.6536,11.3464,11.3464,2.58321,0.732822,14.5524,-0.214412,-0.27827,0.0686758,0,0,2.9575,-0.0525,-1.19,-0.24278,-0.310856,-0.943426,-0.23674,0.09632,0.40474
-3.35368,0,0,18.3537,18.3537,11.6463,11.6463,2.36882,0.62122,14.6582,-0.068018,0.207965,-0.0673665,0,0,2.2925,-0.2625,-0.455,-0.097722,0.178608,-1.0786,-0.23674,0.09632,0.40474
-3.0605,0,0,18.0605,18.0605,11.9395,11.9395,2.15929,0.513404,14.7644,-0.0661364,0.204312,-0.0672034,0,0,2.8175,0.245,-0.315,-0.097722,0.178608,-1.0786,-0.23674,0.09632,0.40474
-3.16269,0,0,18.1627,18.1627,11.8373,11.8373,2.23217,0.479188,14.7832,-0.0288505,-0.067492,0.0343085,0,0,3.99,-0.0175,0.0525,-0.060878,-0.094184,-0.97783,-0.23674,0.09632,0.40474
-3.26011,0,0,18.2601,18.2601,11.7399,11.7399,2.30162,0.445915,14.8024,-0.0282698,-0.0662806,0.0342652,0,0,2.7825,0.14,0.4375,-0.060878,-0.094184,-0.97783,-0.23674,0.09632,0.40474
-3.02559,0,0,18.0256,18.0256,11.9744,11.9744,2.13399,0.408337,14.8609,-0.014372,0.161616,-0.0227877,0,0,3.6575,-0.0525,0.1925,-0.04758,0.136396,-1.03456,-0.23674,0.09632,0.40474
-2.79337,0,0,17.7934,17.7934,12.2066,12.2066,1.96802,0.372265,14.9197,-0.0137425,0.158721,-0.0226798,0,0,2.87,0.1575,0.42,-0.04758,0.136396,-1.03456,-0.23674,0.09632,0.40474
-2.69376,0,0,17.6938,17.6938,12.3062,12.3062,1.89677,0.226008,15.0352,-0.0917349,0.0553807,0.0866767,0,0,3.2025,0.595,0.21,-0.128466,0.034404,-0.926102,-0.23674,0.09632,0.40474
-2.59514,0,0,17.5951,17.5951,12.4049,12.4049,1.82623,0.0832243,15.1574,-0.0892428,0.0541504,0.0867234,0,0,2.7125,0.175,0.07,-0.128466,0.034404,-0.926102,-0.22946,0.09268,0.40138
-2.49012,0,0,17.4901,17.4901,12.5099,12.5099,1.75112,0.173296,15.1319,0.0640794,0.0726246,0.0934,0,0,2.835,0.21,-0.07,0.027084,0.054168,-0.919514,-0.22946,0.09268,0.40138
-2.38458,0,0,17.3846,17.3846,12.6154,12.6154,1.67564,0.262147,15.1062,0.0625287,0.0713077,0.0934335,0,0,1.9425,0.6475,-0.1925,0.027084,0.054168,-0.919514,-0.22946,0.09268,0.40138
-2.53022,0,0,17.5302,17.5302,12.4698,12.4698,1.77958,0.348791,15.0525,0.0487464,-0.0840566,0.0842726,0,0,3.115,0.63,-0.5075,0.014762,-0.102846,-0.928542,-0.22946,0.09268,0.40138
-2.67484,0,0,17.6748,17.6748,12.3252,12.3252,1.88277,0.433037,14.9984,0.0472761,-0.0822567,0.084205,0,0,3.8675,0.56,-1.05,0.014762,-0.102846,-0.928542,-0.22946,0.09268,0.40138
-2.6759,0,0,17.6759,17.6759,12.3241,12.3241,1.88344,0.434227,14.9977,-0.017861,0.0702911,0.164736,1,0,3.7975,0.735,-1.5925,-0.05063,0.049532,-0.848632,-0.22946,0.09268,0.40138
-2.67906,0,0,17.6791,17.6791,12.3209,12.3209,1.88559,0.434651,14.9965,-0.0178684,0.0703287,0.164734,1,0,4.6375,0.28,-1.785,-0.05063,0.049532,-0.848632,-0.22946,0.09268,0.40138
-2.68257,0,0,17.6826,17.6826,12.3174,12.3174,1.888,0.435496,14.9953,-0.235707,0.242569,-0.100098,1,0,4.7775,0.525,-1.8375,-0.269376,0.221552,-1.11142,-0.22946,0.09268,0.40138
-2.68608,0,0,17.6861,17.6861,12.3139,12.3139,1.8904,0.436342,14.9941,-0.235722,0.242611,-0.1001,1,0,4.7775,0.525,-1.8375,-0.269376,0.221552,-1.11142,-0.23016,0.09072,0.40138
-2.68849,0,0,17.6885,17.6885,12.3115,12.3115,1.89202,0.437174,14.9924,-0.164181,-0.122641,0.135592,1,0,4.34,0.5075,-2.135,-0.197518,-0.14335,-0.877546,-0.23016,0.09072,0.40138
-2.69091,0,0,17.6909,17.6909,12.3091,12.3091,1.89364,0.438006,14.9907,-0.164196,-0.122613,0.135591,1,0,4.34,0.5075,-2.135,-0.197518,-0.14335,-0.877546,-0.23016,0.09072,0.40138
-2.69021,0,0,17.6902,17.6902,12.3098,12.3098,1.89305,0.438321,14.9883,0.0678364,0.049575,-0.1526,1,0,3.0975,0.1925,-2.485,0.035502,0.02867,-1.16351,-0.23016,0.09072,0.40138
-2.68951,0,0,17.6895,17.6895,12.3105,12.3105,1.89245,0.438635,14.986,0.0678309,0.0495646,-0.1526,1,0,3.0975,0.1925,-2.485,0.035502,0.02867,-1.16351,-0.23016,0.09072,0.40138
-2.90948,0,0,17.9095,17.9095,12.0905,12.0905,2.04945,0.501536,14.9368,0.0316238,-0.143222,0.0363914,0,0,2.52,-0.0525,-1.89,0.000244,-0.166652,-0.975878,-0.23016,0.09072,0.40138
-3.1253,0,0,18.1253,18.1253,11.8747,11.8747,2.2035,0.562581,14.8883,0.0305584,-0.140536,0.0362818,0,0,2.52,-0.0525,-1.89,0.000244,-0.166652,-0.975878,-0.23016,0.09072,0.40138
-3.25601,0,0,18.256,18.256,11.744,11.744,2.29674,0.43987,14.9655,-0.102999,-0.111675,-0.0741711,0,0,2.2225,-0.3325,-1.5925,-0.13603,-0.139446,-1.08543,-0.23016,0.09072,0.40138
-3.38426,0,0,18.3843,18.3843,11.6157,11.6157,2.38822,0.31895,15.0308,-0.100889,-0.110079,-0.0742224,0,0,2.2225,-0.3325,-1.5925,-0.13603,-0.139446,-1.08543,-0.22988,0.098,0.40516
-3.38305,0,0,18.3831,18.3831,11.6169,11.6169,2.38723,0.318365,15.0304,0.0455114,-0.260923,-0.158195,1,0,2.87,-0.2975,-1.3125,0.01098,-0.290116,-1.16876,-0.22988,0.098,0.40516
-3.38185,0,0,18.3818,18.3818,11.6182,11.6182,2.38624,0.317781,15.0301,0.0455216,-0.26094,-0.158195,1,0,2.87,-0.2975,-1.3125,0.01098,-0.290116,-1.16876,-0.22988,0.098,0.40516
-3.38348,0,0,18.3835,18.3835,11.6165,11.6165,2.38728,0.317006,15.03,-0.000750949,-0.165297,-0.305857,1,0,4.0075,-0.4025,-1.155,-0.035502,-0.19459,-1.31528,-0.22988,0.098,0.40516
-3.38512,0,0,18.3851,18.3851,11.6149,11.6149,2.38832,0.316231,15.0299,-0.000737426,-0.165278,-0.305857,1,0,4.0075,-0.4025,-1.155,-0.035502,-0.19459,-1.31528,-0.22988,0.098,0.40516
-3.38589,0,0,18.3859,18.3859,11.6141,11.6141,2.38874,0.315859,15.0309,-0.051026,0.0452754,-0.100779,1,0,3.6575,-0.14,-0.525,-0.08601,0.015738,-1.11179,-0.22988,0.098,0.40516
-3.38666,0,0,18.3867,18.3867,11.6133,11.6133,2.38916,0.315487,15.0319,-0.0510195,0.0452828,-0.10078,1,0,3.6575,-0.14,-0.525,-0.08601,0.015738,-1.11179,-0.22988,0.098,0.40516
-3.26483,0,0,18.2648,18.2648,11.7352,11.7352,2.30202,0.192351,15.1324,-0.0798493,0.0744173,0.0392075,0,0,3.815,0.63,-0.245,-0.11712,0.04636,-0.97295,-0.22988,0.098,0.40516
-3.24807,0,0,18.2481,18.2481,11.7519,11.7519,2.28992,0.157943,15.1709,-0.0253091,0.00667035,-0.0284039,0,0,2.555,0.6825,-0.2275,-0.062952,-0.021106,-1.04005,-0.2282,0.09464,0.40026
-3.23321,0,0,18.2332,18.2332,11.7668,11.7668,2.27919,0.124104,15.2086,-0.0247185,0.00648324,-0.028395,0,0,3.1675,0.5075,-0.455,-0.062952,-0.021106,-1.04005,-0.2282,0.09464,0.40026
-3.55674,0,0,18.5567,18.5567,11.4433,11.4433,2.51015,0.0732706,15.2172,-0.0522589,-0.208951,0.0967227,0,0,2.3975,0.2975,-0.56,-0.0915,-0.24034,-0.915732,-0.2282,0.09464,0.40026
-3.38305,0,0,18.3831,18.3831,11.6169,11.6169,2.38596,-0.072639,15.3441,-0.0893167,0.102871,0.0721026,0,0,2.5025,0.5425,-0.77,-0.131272,0.073322,-0.940254,-0.2282,0.09464,0.40026
-3.21263,0,0,18.2126,18.2126,11.7874,11.7874,2.2641,-0.215201,15.4709,-0.0868285,0.100746,0.0721826,0,0,2.485,0.35,-0.63,-0.131272,0.073322,-0.940254,-0.2282,0.09464,0.40026
-3.21329,0,0,18.2133,18.2133,11.7867,11.7867,2.26445,-0.214175,15.4721,-0.119283,0.0404215,0.120009,1,0,3.6225,0.6825,-0.42,-0.163846,0.013054,-0.892796,-0.2282,0.09464,0.40026
-3.21622,0,0,18.2162,18.2162,11.7838,11.7838,2.26643,-0.213059,15.4726,-0.119303,0.040456,0.120008,1,0,4.5325,0.7175,-0.875,-0.163846,0.013054,-0.892796,-0.2282,0.09464,0.40026
-3.02397,0,0,18.024,18.024,11.976,11.976,2.12899,-0.26435,15.5465,-0.0268072,0.135882,-0.0359252,0,0,5.6,0.3325,-0.8925,-0.071858,0.110776,-1.04761,-0.2282,0.09464,0.40026
-2.83499,0,0,17.835,17.835,12.165,12.165,1.9939,-0.31465,15.6225,-0.0259293,0.133526,-0.0358449,0,0,5.565,0.3325,-0.735,-0.071858,0.110776,-1.04761,-0.22862,0.0931,0.39564
-2.92485,0,0,17.9248,17.9248,12.0752,12.0752,2.05797,0.0541876,15.3972,0.255797,-0.0297385,0.0562187,0,0,5.2325,0.5425,-1.1725,0.217526,-0.053436,-0.956236,-0.22862,0.0931,0.39564
-3.00753,0,0,18.0075,18.0075,11.9925,11.9925,2.11692,0.414543,15.1732,0.249508,-0.0287113,0.0561555,0,0,3.535,0.525,-1.3825,0.217526,-0.053436,-0.956236,-0.22862,0.0931,0.39564
-3.00673,0,0,18.0067,18.0067,11.9933,11.9933,2.11623,0.415387,15.1722,-0.126262,-0.0126025,-0.103923,1,0,3.045,0.525,-1.75,-0.15982,-0.037332,-1.11508,-0.22862,0.0931,0.39564
-3.00707,0,0,18.0071,18.0071,11.9929,11.9929,2.11636,0.415634,15.1711,-0.126266,-0.0126003,-0.103923,1,0,3.5,0.175,-1.7325,-0.15982,-0.037332,-1.11508,-0.22862,0.0931,0.39564
-3.00723,0,0,18.0072,18.0072,11.9928,11.9928,2.11637,0.41549,15.1701,0.138575,-0.263204,-0.0872022,1,0,3.43,-0.0525,-1.6975,0.10614,-0.287676,-1.09849,-0.22862,0.0931,0.39564
-3.00739,0,0,18.0074,18.0074,11.9926,11.9926,2.11637,0.415275,15.1686,0.138579,-0.263204,-0.0872022,1,0,3.43,-0.105,-1.995,0.10614,-0.287676,-1.09849,-0.22862,0.0931,0.39564
-3.37163,0,0,18.3716,18.3716,11.6284,11.6284,2.3764,0.624022,15.0041,0.128618,-0.230704,0.0623382,0,0,3.0275,-0.805,-1.68,0.099796,-0.259738,-0.949892,-0.22862,0.0931,0.39564
-3.72471,0,0,18.7247,18.7247,11.2753,11.2753,2.62847,0.82636,14.8363,0.125087,-0.226311,0.0621014,0,0,1.7325,-0.245,-1.8375,0.099796,-0.259738,-0.949892,-0.22834,0.09688,0.40124
-3.37197,0,0,18.372,18.372,11.628,11.628,2.37638,0.76378,14.913,-0.0288364,0.257069,-0.0740412,0,0,2.4675,-0.4025,-1.9425,-0.055876,0.22753,-1.08519,-0.22834,0.09688,0.40124
-3.0257,0,0,18.0257,18.0257,11.9743,11.9743,2.12893,0.702749,14.9902,-0.0277713,0.252754,-0.0738579,0,0,2.5725,-0.5075,-1.7675,-0.055876,0.22753,-1.08519,-0.22834,0.09688,0.40124
-2.758,0,0,17.758,17.758,12.242,12.242,1.93761,0.407796,15.2115,-0.192218,0.160267,0.0661029,0,0,3.92,-0.4025,-1.9075,-0.226188,0.13847,-0.946476,-0.22834,0.09688,0.40124
-2.49584,0,0,17.4958,17.4958,12.5042,12.5042,1.75026,0.119495,15.4334,-0.187186,0.156999,0.0662313,0,0,4.2,-0.6125,-1.5575,-0.226188,0.13847,-0.946476,-0.22834,0.09688,0.40124
-2.38392,0,0,17.3839,17.3839,12.6161,12.6161,1.67023,0.16268,15.429,0.0371734,0.0811057,0.0275423,0,0,4.6725,-0.21,-1.4,-0.000122,0.06405,-0.984906,-0.22834,0.09688,0.40124
-2.27116,0,0,17.2712,17.2712,12.7288,12.7288,1.58961,0.205708,15.4248,0.0364224,0.079699,0.0275799,0,0,3.57,0.21,-1.225,-0.000122,0.06405,-0.984906,-0.22834,0.09688,0.40124
-2.06345,0,0,17.0634,17.0634,12.9366,12.9366,1.44116,0.114532,15.5189,-0.0523716,0.130234,0.0637997,0,0,3.255,0.21,-1.0675,-0.09089,0.11712,-0.949038,-0.22834,0.09688,0.40124
-1.85919,0,0,16.8592,16.8592,13.1408,13.1408,1.29519,0.0252318,15.6153,-0.0508131,0.127687,0.0638625,0,0,3.115,-0.035,-0.7525,-0.09089,0.11712,-0.949038,-0.2254,0.09604,0.39802
-1.56458,0,0,16.5646,16.5646,13.4354,13.4354,1.0847,-0.365177,15.9206,-0.284176,0.182879,0.00355084,0,0,3.0975,-0.105,-0.84,-0.332084,0.175924,-1.00894,-0.2254,0.09604,0.39802
-1.27656,0,0,16.2766,16.2766,13.7234,13.7234,0.878922,-0.746871,16.2258,-0.277515,0.179287,0.00354774,0,0,3.7275,-0.315,-0.9275,-0.332084,0.175924,-1.00894,-0.2254,0.09604,0.39802
-1.27772,0,0,16.2777,16.2777,13.7223,13.7223,0.879702,-0.746289,16.2267,0.0451409,-0.0421149,0.137562,1,0,3.8675,0.4025,-0.595,-0.008052,-0.045262,-0.87596,-0.2254,0.09604,0.39802
-1.27834,0,0,16.2783,16.2783,13.7217,13.7217,0.880102,-0.745325,16.228,0.0451241,-0.0421079,0.137562,1,0,3.6575,0.63,-0.3675,-0.008052,-0.045262,-0.87596,-0.2254,0.09604,0.39802
-1.65034,0,0,16.6503,16.6503,13.3497,13.3497,1.14575,-0.494083,16.04,0.163075,-0.239958,0.0365864,0,0,3.185,0.63,-0.56,0.114802,-0.247538,-0.976122,-0.2254,0.09604,0.39802
-2.01486,0,0,17.0149,17.0149,12.9851,12.9851,1.40605,-0.249185,15.8553,0.158801,-0.235415,0.0365129,0,0,3.185,0.63,-0.56,0.114802,-0.247538,-0.976122,-0.2254,0.09604,0.39802
-2.01227,0,0,17.0123,17.0123,12.9877,12.9877,1.40412,-0.248785,15.856,0.251366,-0.03797,-0.0925821,1,0,2.345,0.2975,-0.7175,0.207766,-0.050264,-1.10422,-0.2254,0.09604,0.39802
-2.00968,0,0,17.0097,17.0097,12.9903,12.9903,1.4022,-0.248385,15.8567,0.251359,-0.0380036,-0.0925813,1,0,2.345,0.2975,-0.7175,0.207766,-0.050264,-1.10422,-0.2254,0.09604,0.39802
-1.99561,0,0,16.9956,16.9956,13.0044,13.0044,1.39208,-0.365941,15.9684,-0.0924586,0.000655877,-0.0633262,0,0,3.885,0.35,-0.7875,-0.139568,-0.011468,-1.07519,-0.224,0.08596,0.39928
-1.46368,0,0,16.4637,16.4637,13.5363,13.5363,1.01207,-0.388368,16.0787,0.021036,0.393135,-0.0132726,0,0,3.4475,0.14,-1.225,-0.025986,0.387228,-1.02565,-0.224,0.08596,0.39928
-0.940534,0,0,15.9405,15.9405,14.0595,14.0595,0.638361,-0.409707,16.1894,0.0214084,0.386614,-0.0131812,0,0,3.4475,0.14,-1.225,-0.025986,0.387228,-1.02565,-0.224,0.08596,0.39928
-0.660615,0,0,15.6606,15.6606,14.3394,14.3394,0.438395,-0.423096,16.2686,0.00912902,0.188087,0.0445127,0,0,4.5325,0.4375,-1.4875,-0.038552,0.192394,-0.968436,-0.224,0.08596,0.39928
-0.777382,0,0,15.7774,15.7774,14.2226,14.2226,0.521772,-0.33282,16.2297,0.05797,-0.0675342,0.0502895,0,0,4.83,-0.56,-1.8375,0.012078,-0.064416,-0.962702,-0.224,0.08596,0.39928
-0.880175,0,0,15.8802,15.8802,14.1198,14.1198,0.595164,-0.245966,16.1909,0.0564541,-0.0662533,0.0502847,0,0,0.175,-1.225,-2.0475,0.012078,-0.064416,-0.962702,-0.224,0.08596,0.39928
-0.87959,0,0,15.8796,15.8796,14.1204,14.1204,0.594714,-0.246339,16.1893,0.00470774,0.205349,0.178889,1,0,3.1675,-0.175,-2.065,-0.039894,0.206912,-0.83509,-0.224,0.08596,0.39928
-0.876772,0,0,15.8768,15.8768,14.1232,14.1232,0.592669,-0.247673,16.1882,0.00473104,0.205313,0.178889,1,0,2.275,-0.735,-1.75,-0.039894,0.206912,-0.83509,-0.23142,0.0938,0.40446
-0.349308,0,0,15.3493,15.3493,14.6507,14.6507,0.215898,-0.4424,16.4007,-0.104609,0.331489,0.11867,0,0,3.3425,-0.9275,-1.82,-0.15311,0.339526,-0.89487,-0.23142,0.0938,0.40446
0.1723,0,0,14.8277,14.8277,15.1723,15.1723,-0.156671,-0.63143,16.6147,-0.10131,0.324987,0.118643,0,0,2.205,-0.2975,-1.8025,-0.15311,0.339526,-0.89487,-0.23142,0.0938,0.40446
0.426545,0,0,14.5735,14.5735,15.4265,15.4265,-0.338256,-0.758096,16.7574,-0.0712793,0.152795,0.085652,0,0,2.695,-0.735,-1.68,-0.125172,0.170678,-0.927566,-0.23142,0.0938,0.40446
0.67277,0,0,14.3272,14.3272,15.6728,15.6728,-0.514104,-0.880385,16.8996,-0.0691452,0.149726,0.0855987,0,0,4.06,-0.035,-1.855,-0.125172,0.170678,-0.927566,-0.23142,0.0938,0.40446
0.67103,0,0,14.329,14.329,15.671,15.671,-0.512834,-0.880004,16.8989,0.00483299,-0.00718464,0.10982,1,0,4.13,0.28,-1.505,-0.050874,0.013908,-0.903532,-0.23142,0.0938,0.40446
0.670445,0,0,14.3296,14.3296,15.6704,15.6704,-0.512388,-0.880094,16.8991,0.00483456,-0.00717687,0.10982,1,0,3.675,0,-1.015,-0.050874,0.013908,-0.903532,-0.23142,0.0938,0.40446
0.672746,0,0,14.3273,14.3273,15.6727,15.6727,-0.514004,-0.880183,16.8994,0.00811623,-0.260862,-0.0926766,1,0,2.52,0,-0.9625,-0.04758,-0.239486,-1.10447,-0.23142,0.0938,0.40446
0.673747,0,0,14.3263,14.3263,15.6737,15.6737,-0.514692,-0.880058,16.9001,0.00811405,-0.260874,-0.0926766,1,0,3.045,0.1225,-0.665,-0.04758,-0.239486,-1.10447,-0.23142,0.0938,0.40446
0.676599,0,0,14.3234,14.3234,15.6766,15.6766,-0.516701,-0.880465,16.9016,0.215497,-0.28045,-0.116406,1,0,2.31,-0.1925,-0.245,0.160674,-0.259006,-1.12801,-0.22862,0.08918,0.399
0.839196,0,0,14.1608,14.1608,15.8392,15.8392,-0.632808,-1.01073,17.05,-0.0905603,0.107964,-0.0264657,0,0,4.27,-0.1225,-0.175,-0.148962,0.131028,-1.03871,-0.22862,0.08918,0.399
1.0015,0,0,13.9985,13.9985,16.0015,16.0015,-0.7487,-1.1365,17.1976,-0.0883655,0.105942,-0.0265312,0,0,3.1675,0.63,-0.35,-0.148962,0.131028,-1.03871,-0.22862,0.08918,0.399
0.694436,0,0,14.3056,14.3056,15.6944,15.6944,-0.52934,-0.599425,16.8372,0.365244,-0.165505,0.137667,0,0,3.6575,0.63,-0.4025,0.31598,-0.14396,-0.87596,-0.22862,0.08918,0.399
0.395309,0,0,14.6047,14.6047,15.3953,15.3953,-0.315661,-0.0745277,16.4816,0.356083,-0.161776,0.137748,0,0,3.465,0.21,-0.315,0.31598,-0.14396,-0.87596,-0.22862,0.08918,0.399
0.397067,0,0,14.6029,14.6029,15.3971,15.3971,-0.3169,-0.073837,16.4825,0.143957,-0.025871,0.13283,1,0,2.73,0.455,-0.5425,0.102968,-0.008174,-0.88084,-0.22862,0.08918,0.399
0.398956,0,0,14.601,14.601,15.399,15.399,-0.318231,-0.0729395,16.4831,0.143941,-0.0258943,0.13283,1,0,2.6775,0.5775,-0.7875,0.102968,-0.008174,-0.88084,-0.22862,0.08918,0.399
0.401018,0,0,14.599,14.599,15.401,15.401,-0.319688,-0.0717748,16.4833,-0.175587,-0.0788006,0.185329,1,0,2.6075,0.735,-0.9625,-0.217892,-0.061,-0.828746,-0.22918,0.08862,0.40446
0.837186,0,0,14.1628,14.1628,15.8372,15.8372,-0.631202,-0.244618,16.6819,-0.109154,0.305958,-0.00160623,0,0,3.78,0.49,-1.2425,-0.154208,0.32879,-1.01419,-0.22918,0.08862,0.40446
1.2643,0,0,13.7357,13.7357,16.2643,16.2643,-0.936231,-0.414336,16.8806,-0.106192,0.300635,-0.00169608,0,0,4.445,-0.1225,-1.6625,-0.154208,0.32879,-1.01419,-0.22918,0.08862,0.40446
1.26149,0,0,13.7385,13.7385,16.2615,16.2615,-0.93418,-0.414303,16.8791,-0.154058,0.141173,0.197112,1,0,4.5675,0.0875,-2.0125,-0.202276,0.169458,-0.816912,-0.22918,0.08862,0.40446
1.25895,0,0,13.741,13.741,16.259,16.259,-0.932313,-0.414725,16.8771,-0.154051,0.141206,0.197113,1,0,4.4625,-0.175,-2.275,-0.202276,0.169458,-0.816912,-0.22918,0.08862,0.40446
1.00281,0,0,13.9972,13.9972,16.0028,16.0028,-0.749312,-0.444656,16.8948,-0.0410327,-0.181191,-0.00202091,0,0,3.8325,0.0875,-2.0475,-0.089304,-0.155794,-1.01455,-0.22918,0.08862,0.40446
0.75218,0,0,14.2478,14.2478,15.7522,15.7522,-0.570263,-0.474461,16.9119,-0.0405125,-0.178066,-0.0019891,0,0,3.4125,0.0175,-2.275,-0.089304,-0.155794,-1.01455,-0.22918,0.08862,0.40446
0.755249,0,0,14.2448,14.2448,15.7552,15.7552,-0.572424,-0.475016,16.9104,0.365502,-0.0582973,-0.144733,1,0,2.205,-0.2625,-2.0125,0.31842,-0.036112,-1.15619,-0.22918,0.08862,0.40446
0.756265,0,0,14.2437,14.2437,15.7563,15.7563,-0.573119,-0.475151,16.909,0.365505,-0.0583095,-0.144733,1,0,3.0275,-0.0175,-1.9075,0.31842,-0.036112,-1.15619,-0.22218,0.08918,0.40054
0.757201,0,0,14.2428,14.2428,15.7572,15.7572,-0.573757,-0.475519,16.9083,-0.276055,-0.13465,-0.115225,1,0,3.0625,-0.1575,-1.575,-0.325862,-0.112362,-1.12691,-0.22218,0.08918,0.40054
0.758137,0,0,14.2419,14.2419,15.7581,15.7581,-0.574395,-0.475887,16.9075,-0.276048,-0.134661,-0.115226,1,0,3.0625,-0.1575,-1.575,-0.325862,-0.112362,-1.12691,-0.22218,0.08918,0.40054
0.759216,0,0,14.2408,14.2408,15.7592,15.7592,-0.575135,-0.476723,16.9076,-0.325357,-0.0671377,-0.154078,1,0,3.01,-0.4375,-1.015,-0.375394,-0.044896,-1.16547,-0.22218,0.08918,0.40054
0.760294,0,0,14.2397,14.2397,15.7603,15.7603,-0.575874,-0.47756,16.9078,-0.325342,-0.0671506,-0.154078,1,0,3.01,-0.4375,-1.015,-0.375394,-0.044896,-1.16547,-0.22218,0.08918,0.40054
0.762084,0,0,14.2379,14.2379,15.7621,15.7621,-0.577121,-0.477161,16.909,0.123054,-0.059112,-0.194036,1,0,2.73,0.28,-0.42,0.074908,-0.036844,-1.20512,-0.22218,0.08918,0.40054
0.763873,0,0,14.2361,14.2361,15.7639,15.7639,-0.578369,-0.476763,16.9102,0.123047,-0.0591338,-0.194036,1,0,2.73,0.28,-0.42,0.074908,-0.036844,-1.20512,-0.22218,0.08918,0.40054
0.764403,0,0,14.2356,14.2356,15.7644,15.7644,-0.578716,-0.477045,16.912,0.245874,0.115501,-0.231044,1,0,3.2375,-0.1225,-0.07,0.19825,0.137616,-1.24184,-0.22218,0.08918,0.40054
0.76682,0,0,14.2332,14.2332,15.7668,15.7668,-0.580411,-0.477529,16.9145,-0.0396086,-0.295118,-0.147808,1,0,2.485,-0.245,0.35,-0.08845,-0.272548,-1.15924,-0.22694,0.09226,0.39844
0.767002,0,0,14.233,14.233,15.767,15.767,-0.58051,-0.477451,16.9165,0.103257,0.0384081,-0.118547,1,0,3.3775,0.0875,0.07,0.055022,0.060634,-1.13021,-0.22694,0.09226,0.39844
0.766267,0,0,14.2337,14.2337,15.7663,15.7663,-0.579954,-0.477014,16.9185,0.10325,0.0384178,-0.118546,1,0,3.745,0.2975,0.035,0.055022,0.060634,-1.13021,-0.22694,0.09226,0.39844
0.546171,0,0,14.4538,14.4538,15.5462,15.5462,-0.42272,-0.516663,16.9443,-0.043785,-0.152165,0.0349114,0,0,3.4125,0.28,-0.07,-0.09333,-0.132492,-0.977952,-0.22694,0.09226,0.39844
0.328163,0,0,14.6718,14.6718,15.3282,15.3282,-0.266986,-0.555536,16.9686,-0.0431066,-0.149447,0.0349214,0,0,4.095,0.42,-0.7875,-0.09333,-0.132492,-0.977952,-0.22694,0.09226,0.39844
0.18379,0,0,14.8162,14.8162,15.1838,15.1838,-0.163853,-0.779202,17.1238,-0.175146,-0.114184,0.0500054,0,0,3.29,0.63,-1.1725,-0.229848,-0.099064,-0.962946,-0.22694,0.09226,0.39844
0.0408988,0,0,14.9591,14.9591,15.0409,15.0409,-0.0617849,-0.9989,17.2768,-0.171312,-0.112403,0.0499494,0,0,3.535,0.07,-1.365,-0.229848,-0.099064,-0.962946,-0.22694,0.09226,0.39844
0.0419204,0,0,14.9581,14.9581,15.0419,15.0419,-0.0625112,-0.998604,17.2762,-0.0181234,0.125121,-0.109515,1,0,3.01,0.2275,-1.505,-0.076006,0.138226,-1.12118,-0.22694,0.09226,0.39844
0.0412884,0,0,14.9587,14.9587,15.0413,15.0413,-0.0620565,-0.997712,17.274,-0.0181389,0.125129,-0.109514,1,0,3.6575,0.5775,-2.38,-0.076006,0.138226,-1.12118,-0.23254,0.09324,0.40138
0.0426069,0,0,14.9574,14.9574,15.0426,15.0426,-0.0629949,-0.996701,17.2712,0.00929918,-0.320894,-0.0886129,1,0,2.87,0.6475,-2.765,-0.048434,-0.307318,-1.10044,-0.23254,0.09324,0.40138
0.0439256,0,0,14.9561,14.9561,15.0439,15.0439,-0.0639334,-0.99569,17.2683,0.00928154,-0.320911,-0.0886126,1,0,2.87,0.6475,-2.765,-0.048434,-0.307318,-1.10044,-0.23254,0.09324,0.40138
0.0435298,0,0,14.9565,14.9565,15.0435,15.0435,-0.0636473,-0.996204,17.2651,0.117291,-0.0113143,-0.346436,1,0,3.5525,-0.245,-3.01,0.060024,0.001952,-1.35627,-0.23254,0.09324,0.40138
0.0431339,0,0,14.9569,14.9569,15.0431,15.0431,-0.0633612,-0.996717,17.2618,0.1173,-0.0113093,-0.346436,1,0,3.5525,-0.245,-3.01,0.060024,0.001952,-1.35627,-0.23254,0.09324,0.40138
-0.258017,0,0,15.258,15.258,14.742,14.742,0.151739,-1.13942,17.3409,-0.137273,-0.224941,0.0160899,0,0,3.4475,4.4625,-2.765,-0.198128,-0.215208,-0.996496,-0.23254,0.09324,0.40138
-0.554333,0,0,15.5543,15.5543,14.4457,14.4457,0.363374,-1.27936,17.4187,-0.134831,-0.221249,0.0160217,0,0,3.4475,4.4625,-2.765,-0.198128,-0.215208,-0.996496,-0.23254,0.09324,0.40138
-0.746037,0,0,15.746,15.746,14.254,14.254,0.500278,-1.04809,17.268,0.162053,-0.115662,0.013012,0,0,3.3425,-0.28,-1.9425,0.104066,-0.112118,-0.999546,-0.23254,0.09324,0.40138
-0.9328,0,0,15.9328,15.9328,14.0672,14.0672,0.633646,-0.823954,17.1159,0.158142,-0.113334,0.0130528,0,0,3.3425,-0.28,-1.9425,0.104066,-0.112118,-0.999546,-0.22708,0.09604,0.40166
-0.97852,0,0,15.9785,15.9785,14.0215,14.0215,0.666268,-0.731098,17.0694,0.0696589,-0.0245892,-0.0391847,0,0,4.2875,-0.0875,-1.085,0.016836,-0.024034,-1.0514,-0.22708,0.09604,0.40166
-0.98001,0,0,15.98,15.98,14.02,14.02,0.667296,-0.73147,17.0704,0.0593391,-0.190786,-0.20996,1,0,4.0075,-0.1575,-0.525,0.006466,-0.190076,-1.22085,-0.22708,0.09604,0.40166
-0.982793,0,0,15.9828,15.9828,14.0172,14.0172,0.669248,-0.731674,17.0724,0.0593427,-0.190752,-0.209961,1,0,4.5325,-0.0525,0.0525,0.006466,-0.190076,-1.22085,-0.22708,0.09604,0.40166
-0.98172,0,0,15.9817,15.9817,14.0183,14.0183,0.668446,-0.732872,17.075,0.184372,0.14093,-0.198404,1,0,2.9925,-0.63,0.42,0.132004,0.141276,-1.20939,-0.22708,0.09604,0.40166
-0.980373,0,0,15.9804,15.9804,14.0196,14.0196,0.667448,-0.733628,17.0782,0.184386,0.140913,-0.198404,1,0,2.8875,-0.3675,0.7525,0.132004,0.141276,-1.20939,-0.22708,0.09604,0.40166
-0.982243,0,0,15.9822,15.9822,14.0178,14.0178,0.668748,-0.511961,16.9544,0.183068,0.0140466,-0.0820528,0,0,2.4675,-0.42,0.7,0.134566,0.014518,-1.09397,-0.22708,0.09604,0.40166
-0.982948,0,0,15.9829,15.9829,14.0171,14.0171,0.669216,-0.294902,16.8313,0.17928,0.0140551,-0.0820262,0,0,2.275,-0.2275,0.77,0.134566,0.014518,-1.09397,-0.22708,0.09604,0.40166
-1.17755,0,0,16.1776,16.1776,13.8224,13.8224,0.808176,-0.353124,16.8673,-0.0549003,-0.135446,0.041623,0,0,3.4125,0.1575,0.665,-0.101626,-0.13725,-0.971242,-0.22526,0.09156,0.40404
-1.44607,0,0,16.4461,16.4461,13.5539,13.5539,0.99992,-0.138613,16.7149,0.139985,-0.165318,0.0569548,0,0,3.4475,0.4375,0.49,0.097844,-0.170434,-0.955992,-0.22526,0.09156,0.40404
-1.71023,0,0,16.7102,16.7102,13.2898,13.2898,1.18854,0.0701698,16.5632,0.136341,-0.162026,0.0568941,0,0,3.885,0.1575,-0.3325,0.097844,-0.170434,-0.955992,-0.22526,0.09156,0.40404
-1.7123,0,0,16.7123,16.7123,13.2877,13.2877,1.18996,0.0704763,16.5642,-0.0339873,-0.135378,-0.186176,1,0,4.2175,0.245,-0.5425,-0.0732,-0.143838,-1.19719,-0.22526,0.09156,0.40404
-1.71459,0,0,16.7146,16.7146,13.2854,13.2854,1.19153,0.0705221,16.5633,-0.0339881,-0.13535,-0.186176,1,0,4.305,0.07,-1.61,-0.0732,-0.143838,-1.19719,-0.22526,0.09156,0.40404
-1.71622,0,0,16.7162,16.7162,13.2838,13.2838,1.19263,0.0701647,16.5617,0.186758,-0.209218,-0.161464,1,0,4.0425,-0.175,-2.03,0.148474,-0.217648,-1.17266,-0.22526,0.09156,0.40404
-1.71572,0,0,16.7157,16.7157,13.2843,13.2843,1.1922,0.0702019,16.5599,0.186757,-0.209225,-0.161464,1,0,3.185,0.0525,-2.205,0.148474,-0.217648,-1.17266,-0.22526,0.09156,0.40404
-1.52003,0,0,16.52,16.52,13.48,13.48,1.05237,0.293631,16.4505,0.181035,0.155081,0.026314,0,0,3.99,-0.385,-2.87,0.146644,0.148718,-0.98637,-0.22526,0.09156,0.40404
-1.32577,0,0,16.3258,16.3258,13.6742,13.6742,0.913564,0.513328,16.3388,0.177201,0.152658,0.0263286,0,0,3.29,-0.4375,-3.3075,0.146644,0.148718,-0.98637,-0.22624,0.0924,0.39662
-0.978395,0,0,15.9784,15.9784,14.0216,14.0216,0.665407,0.254722,16.5564,-0.170108,0.219406,0.0655161,0,0,4.06,-0.07,-3.605,-0.206668,0.219722,-0.947574,-0.22624,0.0924,0.39662
-0.635505,0,0,15.6355,15.6355,14.3645,14.3645,0.420462,0.00208953,16.7749,-0.165699,0.215131,0.0655665,0,0,3.4475,-0.07,-3.43,-0.206668,0.219722,-0.947574,-0.22624,0.0924,0.39662
-0.627547,0,0,15.6275,15.6275,14.3725,14.3725,0.414756,-0.0350402,16.8131,-0.0287441,0.00350792,-0.0422588,0,0,3.9025,0.0175,-3.3775,-0.069784,0.008418,-1.05457,-0.22624,0.0924,0.39662
-0.618242,0,0,15.6182,15.6182,14.3818,14.3818,0.408088,-0.0713103,16.8512,-0.0281111,0.00339153,-0.0422585,0,0,3.2725,0.0175,-3.22,-0.069784,0.008418,-1.05457,-0.22624,0.0924,0.39662
-0.574153,0,0,15.5742,15.5742,14.4258,14.4258,0.376576,0.190748,16.6987,0.214174,0.0532799,-0.0361121,0,0,3.605,-0.21,-2.8525,0.17812,0.058804,-1.04847,-0.22624,0.0924,0.39662
-0.53026,0,0,15.5303,15.5303,14.4697,14.4697,0.345205,0.446804,16.5476,0.209705,0.0527322,-0.0361335,0,0,3.6925,-0.42,-2.2925,0.17812,0.058804,-1.04847,-0.22624,0.0924,0.39662
-0.402249,0,0,15.4022,15.4022,14.5978,14.5978,0.253755,0.236102,16.7125,-0.158971,0.0782484,-0.0349967,0,0,3.815,-0.5075,-1.75,-0.19581,0.085888,-1.04737,-0.22624,0.0924,0.39662
-0.278297,0,0,15.2783,15.2783,14.7217,14.7217,0.165209,0.0316949,16.8822,-0.155404,0.076703,-0.0349827,0,0,4.2175,-0.4725,-0.9625,-0.19581,0.085888,-1.04737,-0.2226,0.09086,0.40516
-0.280161,0,0,15.2802,15.2802,14.7198,14.7198,0.166531,0.0316602,16.8832,0.0100606,-0.112815,0.109359,1,0,4.165,0.035,-0.49,-0.029646,-0.103456,-0.904142,-0.2226,0.09086,0.40516
-0.282246,0,0,15.2822,15.2822,14.7178,14.7178,0.168011,0.0324853,16.8865,0.0100462,-0.112789,0.109359,1,0,4.2525,0.5425,0.805,-0.029646,-0.103456,-0.904142,-0.2226,0.09086,0.40516
-0.809632,0,0,15.8096,15.8096,14.1904,14.1904,0.544687,0.113586,16.7848,0.0283114,-0.356941,0.0873082,0,0,3.5525,-0.07,1.155,-0.009882,-0.353922,-0.92598,-0.2226,0.09086,0.40516
-1.3256,0,0,16.3256,16.3256,13.6744,13.6744,0.913187,0.191867,16.6853,0.0269451,-0.35051,0.0872227,0,0,2.625,-0.14,1.26,-0.009882,-0.353922,-0.92598,-0.2226,0.09086,0.40516
-1.34395,0,0,16.3439,16.3439,13.6561,13.6561,0.926243,0.358579,16.5927,0.132158,-0.00429727,-0.041522,0,0,1.8025,-0.035,1.82,0.098698,-0.008296,-1.05371,-0.2226,0.09086,0.40516
-1.36157,0,0,16.3616,16.3616,13.6384,13.6384,0.938777,0.521719,16.5003,0.12931,-0.0040789,-0.0415474,0,0,1.82,0.07,1.575,0.098698,-0.008296,-1.05371,-0.2226,0.09086,0.40516
-1.17153,0,0,16.1715,16.1715,13.8285,13.8285,0.802996,0.287723,16.694,-0.174329,0.117511,-0.0218108,0,0,1.8725,0.455,1.3125,-0.210328,0.115534,-1.03419,-0.2226,0.09086,0.40516
-0.98795,0,0,15.988,15.988,14.012,14.012,0.671829,0.0589991,16.8867,-0.170337,0.115222,-0.0217693,0,0,3.0625,0.3325,1.015,-0.210328,0.115534,-1.03419,-0.2226,0.09086,0.40516
-0.988194,0,0,15.9882,15.9882,14.0118,14.0118,0.671967,0.0594529,16.8887,-0.275794,-0.274971,-0.193037,1,0,3.5,0.3325,0,-0.316224,-0.274256,-1.20414,-0.22848,0.0896,0.40194
-0.774805,0,0,15.7748,15.7748,14.2252,14.2252,0.519519,-0.122924,17.0549,-0.134847,0.149079,-0.0621935,0,0,5.11,0.07,-0.4025,-0.177876,0.152012,-1.07433,-0.22848,0.0896,0.40194
-0.566438,0,0,15.5664,15.5664,14.4336,14.4336,0.370665,-0.301183,17.2195,-0.131735,0.146481,-0.0621848,0,0,5.565,-0.07,-1.2075,-0.177876,0.152012,-1.07433,-0.22848,0.0896,0.40194
-0.568981,0,0,15.569,15.569,14.431,14.431,0.372462,-0.301087,17.2183,-0.429255,-0.122166,-0.0706684,1,0,4.4275,0.105,-1.8025,-0.476654,-0.116388,-1.08275,-0.22848,0.0896,0.40194
-0.569442,0,0,15.5694,15.5694,14.4306,14.4306,0.372771,-0.30065,17.2151,-0.429263,-0.122161,-0.0706684,1,0,3.5875,0.2975,-3.01,-0.476654,-0.116388,-1.08275,-0.22848,0.0896,0.40194
-0.626713,0,0,15.6267,15.6267,14.3733,14.3733,0.413657,-0.202571,17.1605,0.0763493,-0.0374238,-0.0737395,0,0,2.485,-0.21,-3.4825,0.032818,-0.032452,-1.0858,-0.22848,0.0896,0.40194
-0.68378,0,0,15.6838,15.6838,14.3162,14.3162,0.454395,-0.106588,17.1062,0.0746741,-0.0367128,-0.0737404,0,0,2.9225,-0.0875,-3.5525,0.032818,-0.032452,-1.0858,-0.22848,0.0896,0.40194
-0.681612,0,0,15.6816,15.6816,14.3184,14.3184,0.452822,-0.107123,17.1019,0.102504,-0.147265,-0.114067,1,0,2.5375,-0.28,-3.6225,0.060756,-0.142862,-1.12582,-0.22848,0.0896,0.40194
-0.681063,0,0,15.6811,15.6811,14.3189,14.3189,0.452405,-0.106697,17.097,0.102496,-0.147272,-0.114067,1,0,3.185,0.28,-4.0075,0.060756,-0.142862,-1.12582,-0.2282,0.08932,0.40278
-0.879828,0,0,15.8798,15.8798,14.1202,14.1202,0.594349,-0.115955,17.0913,-0.0213791,-0.146993,-0.0266738,0,0,2.8175,0.2975,-3.9725,-0.063806,-0.145058,-1.03907,-0.2282,0.08932,0.40278
-1.07442,0,0,16.0744,16.0744,13.9256,13.9256,0.733303,-0.125368,17.0859,-0.0212148,-0.144568,-0.0267022,0,0,2.5375,0.2625,-3.815,-0.063806,-0.145058,-1.03907,-0.2282,0.08932,0.40278
-1.07363,0,0,16.0736,16.0736,13.9264,13.9264,0.732699,-0.125285,17.0816,0.131977,-0.316655,-0.0933402,1,0,3.08,0.07,-3.6225,0.090036,-0.316956,-1.1052,-0.2282,0.08932,0.40278
-1.0717,0,0,16.0717,16.0717,13.9283,13.9283,0.731281,-0.125609,17.0788,0.131983,-0.31668,-0.0933399,1,0,2.625,-0.1575,-2.765,0.090036,-0.316956,-1.1052,-0.2282,0.08932,0.40278
-0.903811,0,0,15.9038,15.9038,14.0962,14.0962,0.611329,-0.0500929,17.0688,0.0735666,0.131996,-0.0604861,0,0,3.5525,-0.21,-2.2925,0.032696,0.133346,-1.07262,-0.2282,0.08932,0.40278
-0.738598,0,0,15.7386,15.7386,14.2614,14.2614,0.493293,0.0244279,17.0618,0.072266,0.129936,-0.0604659,0,0,3.5175,0.07,-0.4725,0.032696,0.133346,-1.07262,-0.2282,0.08932,0.40278
-0.741492,0,0,15.7415,15.7415,14.2585,14.2585,0.495334,0.0252817,17.063,-0.0130319,0.0391097,0.109449,1,0,4.5675,0.56,-0.385,-0.052948,0.042578,-0.90402,-0.2282,0.08932,0.40278
-0.74395,0,0,15.744,15.744,14.256,14.256,0.497063,0.0250741,17.0661,-0.0130283,0.0391399,0.109448,1,0,4.3925,-0.0525,0.6825,-0.052948,0.042578,-0.90402,-0.22302,0.09156,0.39928
-0.744661,0,0,15.7447,15.7447,14.2553,14.2553,0.497544,0.0258747,17.0701,-0.148742,0.0800607,0.233995,1,0,3.6925,0.5425,1.1725,-0.189222,0.083448,-0.780434,-0.22302,0.09156,0.39928
-0.743144,0,0,15.7431,15.7431,14.2569,14.2569,0.496434,0.0267847,17.0751,-0.148758,0.0800414,0.233995,1,0,2.8,0.6125,1.855,-0.189222,0.083448,-0.780434,-0.22302,0.09156,0.39928
-0.669452,0,0,15.6695,15.6695,14.3305,14.3305,0.443773,0.222212,16.9773,0.148387,0.0628794,0.0522775,0,0,2.555,-0.1225,2.2225,0.112606,0.067222,-0.96075,-0.22302,0.09156,0.39928
-0.59414,0,0,15.5941,15.5941,14.4059,14.4059,0.389958,0.413781,16.8793,0.145044,0.06194,0.0522658,0,0,1.5925,0.0525,2.0125,0.112606,0.067222,-0.96075,-0.22302,0.09156,0.39928
-0.173088,0,0,15.1731,15.1731,14.8269,14.8269,0.0892013,0.493624,16.8976,0.094084,0.32708,-0.0378446,0,0,1.365,0.315,1.75,0.06283,0.33733,-1.05018,-0.22302,0.09156,0.39928
0.237282,0,0,14.7627,14.7627,15.2373,15.2373,-0.203909,0.571375,16.9147,0.0927271,0.321964,-0.0378623,0,0,2.905,-0.21,1.295,0.06283,0.33733,-1.05018,-0.22302,0.09156,0.39928
0.286096,0,0,14.7139,14.7139,15.2861,15.2861,-0.238764,0.236546,17.1593,-0.240496,0.00846694,0.0912725,0,0,3.5,-0.1925,0.7875,-0.277672,0.024766,-0.922076,-0.22302,0.09156,0.39928
0.330409,0,0,14.6696,14.6696,15.3304,15.3304,-0.270401,-0.0904951,17.395,-0.234788,0.00791474,0.0912773,0,0,4.76,-0.2975,-0.28,-0.277672,0.024766,-0.922076,-0.22204,0.0959,0.4011
-0.13598,0,0,15.136,15.136,14.864,14.864,0.0627305,-0.0893726,17.341,-0.030104,-0.355704,-0.0282181,0,0,4.725,0.1925,-0.8575,-0.072102,-0.344284,-1.04066,-0.22204,0.0959,0.4011
-0.594866,0,0,15.5949,15.5949,14.4051,14.4051,0.390485,-0.0887309,17.286,-0.0301152,-0.349984,-0.0282407,0,0,4.865,0.35,-1.89,-0.072102,-0.344284,-1.04066,-0.22204,0.0959,0.4011
-0.935157,0,0,15.9352,15.9352,14.0648,14.0648,0.633516,0.211854,17.0485,0.220001,-0.227158,0.00687904,0,0,3.78,0.0875,-2.2925,0.184342,-0.225822,-1.00577,-0.22204,0.0959,0.4011
-1.26776,0,0,16.2678,16.2678,13.7322,13.7322,0.871046,0.505087,16.8123,0.214884,-0.223013,0.0067926,0,0,3.5,-0.14,-3.5175,0.184342,-0.225822,-1.00577,-0.22204,0.0959,0.4011
-1.26542,0,0,16.2654,16.2654,13.7346,13.7346,0.869326,0.504596,16.8071,0.241984,-0.0656214,-0.324184,1,0,2.485,-0.28,-4.13,0.211548,-0.068564,-1.33419,-0.22204,0.0959,0.4011
-1.2657,0,0,16.2657,16.2657,13.7343,13.7343,0.869476,0.503961,16.8016,0.241995,-0.0656188,-0.324184,1,0,3.535,-0.3675,-4.3225,0.211548,-0.068564,-1.33419,-0.22204,0.0959,0.4011
-1.26531,0,0,16.2653,16.2653,13.7347,13.7347,0.869153,0.503991,16.7956,-0.0710745,-0.230862,-0.136811,1,0,3.2725,0.0175,-4.6375,-0.102846,-0.23363,-1.14826,-0.22204,0.0959,0.4011
-1.26646,0,0,16.2665,16.2665,13.7335,13.7335,0.869926,0.504494,16.7899,-0.0710832,-0.230848,-0.136811,1,0,3.885,0.2975,-4.445,-0.102846,-0.23363,-1.14826,-0.2247,0.09436,0.40096
-1.26725,0,0,16.2673,16.2673,13.7327,13.7327,0.870446,0.50503,16.7839,0.145759,-0.216551,-0.205908,1,0,3.745,0.315,-4.585,0.114924,-0.219356,-1.21683,-0.2247,0.09436,0.40096
-1.26615,0,0,16.2661,16.2661,13.7339,13.7339,0.869611,0.505358,16.78,0.145754,-0.216565,-0.205908,1,0,2.975,0.21,-3.4475,0.114924,-0.219356,-1.21683,-0.2247,0.09436,0.40096
-1.26584,0,0,16.2658,16.2658,13.7342,13.7342,0.869345,0.504657,16.7768,0.161802,-0.275679,-0.0690661,1,0,3.29,-0.385,-2.94,0.131028,-0.278404,-1.08104,-0.2247,0.09436,0.40096
-1.26433,0,0,16.2643,16.2643,13.7357,13.7357,0.868218,0.505127,16.7752,0.161794,-0.275699,-0.0690659,1,0,2.8,0.315,-2.03,0.131028,-0.278404,-1.08104,-0.2247,0.09436,0.40096
-0.654618,0,0,15.6546,15.6546,14.3454,14.3454,0.432689,0.333272,16.9732,-0.0977374,0.414289,0.105506,0,0,3.29,0.665,-1.47,-0.132614,0.41846,-0.907924,-0.2247,0.09436,0.40096
-0.0557081,0,0,15.0557,15.0557,14.9443,14.9443,0.00489602,0.163815,17.1758,-0.0947799,0.406823,0.105548,0,0,3.815,-0.1575,0.0875,-0.132614,0.41846,-0.907924,-0.2247,0.09436,0.40096
0.311052,0,0,14.6889,14.6889,15.3111,15.3111,-0.257062,-0.327885,17.5671,-0.343626,0.211611,0.135771,0,0,3.8675,0.455,0.525,-0.391132,0.228018,-0.877912,-0.2247,0.09436,0.40096
0.675111,0,0,14.3249,14.3249,15.6751,15.6751,-0.517076,-0.809109,17.9605,-0.335228,0.207074,0.135657,0,0,2.765,0.4375,1.225,-0.391132,0.228018,-0.877912,-0.2247,0.09436,0.40096
0.970608,0,0,14.0294,14.0294,15.9706,15.9706,-0.728106,-0.928985,18.1135,-0.0766795,0.206078,-0.00900257,0,0,3.5525,0.4025,1.715,-0.13359,0.230702,-1.02138,-0.22526,0.09394,0.39816
0.974145,0,0,14.0259,14.0259,15.9741,15.9741,-0.730594,-0.928374,18.1194,-0.119089,-0.113449,-0.134533,1,0,2.0825,0.3675,2.31,-0.176168,-0.08845,-1.14595,-0.22526,0.09394,0.39816
0.976612,0,0,14.0234,14.0234,15.9766,15.9766,-0.732317,-0.928254,18.1243,0.0155153,0.514863,-0.0222817,1,0,2.5025,0.0875,1.75,-0.040992,0.53924,-1.03456,-0.22526,0.09394,0.39816
1.18004,0,0,13.82,13.82,16.18,16.18,-0.877574,-1.06936,18.279,-0.101321,0.138133,-0.0334256,0,0,2.8,-0.4375,1.75,-0.160796,0.165432,-1.04554,-0.22526,0.09394,0.39816
1.18073,0,0,13.8193,13.8193,16.1807,16.1807,-0.878022,-1.07001,18.2835,-0.196433,0.166947,0.159849,1,0,3.22,-0.3675,1.5225,-0.256322,0.194224,-0.853756,-0.22526,0.09394,0.39816
1.64384,0,0,13.3562,13.3562,16.6438,16.6438,-1.20875,-1.29284,18.5332,-0.156221,0.340094,-0.0238983,0,0,3.675,-0.735,0.7175,-0.219844,0.372954,-1.0359,-0.22526,0.09394,0.39816
1.62345,0,0,13.3765,13.3765,16.6235,16.6235,-1.19412,-1.46755,18.6784,-0.139566,-0.0277392,0.00222165,0,0,3.815,-0.5775,-0.2625,-0.20618,0.005246,-1.00992,-0.22526,0.09394,0.39816
1.62104,0,0,13.379,13.379,16.621,16.621,-1.19234,-1.46755,18.6786,-0.176376,0.182106,0.177178,1,0,4.4275,0.0525,-1.0325,-0.243146,0.214842,-0.83631,-0.22526,0.09394,0.39816
1.57668,0,0,13.4233,13.4233,16.5767,16.5767,-1.16059,-1.33766,18.6127,0.0996814,-0.0211711,-4.68726e-05,0,0,3.3775,-0.315,-1.82,0.036356,0.011224,-1.01223,-0.22666,0.09576,0.399
1.57472,0,0,13.4253,13.4253,16.5747,16.5747,-1.15912,-1.33833,18.6107,-0.133924,0.00926397,0.147492,1,0,4.2175,-0.315,-2.275,-0.19825,0.041602,-0.865834,-0.22666,0.09576,0.399
1.57391,0,0,13.4261,13.4261,16.5739,16.5739,-1.15848,-1.33934,18.6065,-0.133906,0.00927515,0.147491,1,0,3.7275,-0.49,-3.5875,-0.19825,0.041602,-0.865834,-0.22666,0.09576,0.399
1.57452,0,0,13.4255,13.4255,16.5745,16.5745,-1.15886,-1.34043,18.6018,0.177845,-0.0836699,0.239948,1,0,3.15,-0.525,-3.885,0.114802,-0.05124,-0.77409,-0.22666,0.09576,0.399
1.57393,0,0,13.4261,13.4261,16.5739,16.5739,-1.15837,-1.34108,18.5962,0.177856,-0.0836614,0.239948,1,0,3.6225,-0.2625,-4.41,0.114802,-0.05124,-0.77409,-0.22666,0.09576,0.399
1.57463,0,0,13.4254,13.4254,16.5746,16.5746,-1.15882,-1.34135,18.5902,0.312224,-0.233763,-0.0446781,1,0,3.0975,-0.035,-4.62,0.249734,-0.201178,-1.05652,-0.22666,0.09576,0.399
1.57267,0,0,13.4273,13.4273,16.5727,16.5727,-1.15735,-1.34196,18.584,0.312235,-0.233737,-0.0446778,1,0,4.165,-0.2275,-4.69,0.249734,-0.201178,-1.05652,-0.22666,0.09576,0.399
1.18702,0,0,13.813,13.813,16.187,16.187,-0.881838,-1.31308,18.5244,-0.00279549,-0.25531,0.0891874,0,0,3.29,0.1925,-4.2525,-0.066124,-0.22753,-0.923784,-0.22666,0.09576,0.399
0.805112,0,0,14.1949,14.1949,15.8051,15.8051,-0.609016,-1.28473,18.4693,-0.00329024,-0.25055,0.0892605,0,0,4.3575,0.14,-3.4475,-0.066124,-0.22753,-0.923784,-0.22722,0.09408,0.3934
0.804452,0,0,14.1955,14.1955,15.8045,15.8045,-0.608512,-1.28464,18.4668,0.110905,-0.143925,-0.147292,1,0,3.675,0.1225,-2.5725,0.048556,-0.121024,-1.15851,-0.22722,0.09408,0.3934
0.803324,0,0,14.1967,14.1967,15.8033,15.8033,-0.607673,-1.28387,18.4661,0.110891,-0.14391,-0.147292,1,0,3.885,0.5075,-1.5225,0.048556,-0.121024,-1.15851,-0.22722,0.09408,0.3934
0.488784,0,0,14.5112,14.5112,15.4888,15.4888,-0.382982,-1.20117,18.3883,0.0437245,-0.226212,-0.0299337,0,0,3.465,-0.2975,-1.155,-0.017446,-0.207156,-1.04212,-0.22722,0.09408,0.3934
0.180548,0,0,14.8195,14.8195,15.1805,15.1805,-0.162804,-1.11911,18.3138,0.0422926,-0.22237,-0.0298864,0,0,3.2725,0.7175,0.0875,-0.017446,-0.207156,-1.04212,-0.22722,0.09408,0.3934
-0.103431,0,0,15.1034,15.1034,14.8966,14.8966,0.0400363,-0.731357,18.0428,0.285301,-0.174498,0.0335451,0,0,2.8875,0.875,0.42,0.233386,-0.16287,-0.979294,-0.22722,0.09408,0.3934
-0.381468,0,0,15.3815,15.3815,14.6185,14.6185,0.238621,-0.353224,17.7773,0.278701,-0.171032,0.0335992,0,0,3.08,0.28,1.61,0.233386,-0.16287,-0.979294,-0.22722,0.09408,0.3934
-0.378183,0,0,15.3782,15.3782,14.6218,14.6218,0.236262,-0.353245,17.782,-0.086363,-0.184507,-0.11025,1,0,2.1175,0.0525,1.645,-0.133224,-0.17629,-1.12203,-0.22722,0.09408,0.3934
-0.375335,0,0,15.3753,15.3753,14.6247,14.6247,0.234215,-0.352728,17.7867,-0.086372,-0.184543,-0.11025,1,0,2.2925,0.3675,1.6275,-0.133224,-0.17629,-1.12203,-0.22064,0.0889,0.39998
-0.375281,0,0,15.3753,15.3753,14.6247,14.6247,0.234164,-0.353408,17.7917,0.165966,-0.263316,-0.138651,1,0,3.4125,-0.3325,1.82,0.12017,-0.25498,-1.15022,-0.22064,0.0889,0.39998
-0.375268,0,0,15.3753,15.3753,14.6247,14.6247,0.234142,-0.354238,17.7971,0.16598,-0.263316,-0.138651,1,0,3.43,-0.42,2.0475,0.12017,-0.25498,-1.15022,-0.22064,0.0889,0.39998
-0.472956,0,0,15.473,15.473,14.527,14.527,0.303903,-0.0636635,17.6179,0.210232,-0.0425145,0.0733245,0,0,4.4625,-0.6125,1.54,0.169702,-0.035624,-0.939888,-0.22064,0.0889,0.39998
-0.565638,0,0,15.5656,15.5656,14.4344,14.4344,0.370085,0.22097,17.438,0.205264,-0.0413595,0.0733109,0,0,3.5,-0.385,0.4025,0.169702,-0.035624,-0.939888,-0.22064,0.0889,0.39998
-0.567391,0,0,15.5674,15.5674,14.4326,14.4326,0.371317,0.220842,17.439,0.0509795,0.198763,0.394698,1,0,4.1125,-0.0175,-0.525,0.014762,0.204228,-0.62098,-0.22064,0.0889,0.39998
-0.569145,0,0,15.5691,15.5691,14.4309,14.4309,0.37255,0.220714,17.44,0.0509817,0.198785,0.394698,1,0,4.1125,-0.0175,-0.525,0.014762,0.204228,-0.62098,-0.22064,0.0889,0.39998
-0.572196,0,0,15.5722,15.5722,14.4278,14.4278,0.374709,0.219258,17.4386,0.109199,0.13263,0.285643,1,0,4.6375,-0.805,-1.9075,0.0732,0.138104,-0.729194,-0.22064,0.0889,0.39998
-0.575248,0,0,15.5752,15.5752,14.4248,14.4248,0.376869,0.217801,17.4373,0.109224,0.132667,0.285642,1,0,4.6375,-0.805,-1.9075,0.0732,0.138104,-0.729194,-0.2247,0.09114,0.39984
-0.0977512,0,0,15.0978,15.0978,14.9022,14.9022,0.0357977,0.0923082,17.593,-0.0620671,0.302699,0.139115,0,0,3.955,-0.1925,-3.5,-0.101016,0.313906,-0.874618,-0.2247,0.09114,0.39984
0.371974,0,0,14.628,14.628,15.372,15.372,-0.299704,-0.0302022,17.7496,-0.0599289,0.296844,0.139103,0,0,3.955,-0.1925,-3.5,-0.101016,0.313906,-0.874618,-0.2247,0.09114,0.39984
0.580625,0,0,14.4194,14.4194,15.5806,15.5806,-0.448717,-0.140076,17.8631,-0.0744118,0.145126,-0.0202583,0,0,3.675,-0.4025,-4.2525,-0.117486,0.164944,-1.03273,-0.2247,0.09114,0.39984
0.580099,0,0,14.4199,14.4199,15.5801,15.5801,-0.448317,-0.14066,17.8573,0.124713,0.154048,0.132936,1,0,3.64,-0.2625,-4.48,0.082472,0.17385,-0.880718,-0.2247,0.09114,0.39984
0.581498,0,0,14.4185,14.4185,15.5815,15.5815,-0.449292,-0.142313,17.8524,0.124742,0.154031,0.132935,1,0,2.87,-0.8925,-3.9725,0.082472,0.17385,-0.880718,-0.2247,0.09114,0.39984
1.18644,0,0,13.8136,13.8136,16.1864,16.1864,-0.881344,-0.574292,18.2402,-0.311141,0.412484,0.106859,0,0,4.515,-0.7875,-3.7275,-0.362828,0.439566,-0.90646,-0.2247,0.09114,0.39984
1.77375,0,0,13.2262,13.2262,16.7738,16.7738,-1.30079,-0.995799,18.6327,-0.303785,0.405167,0.106618,0,0,8.19,0.28,-3.01,-0.362828,0.439566,-0.90646,-0.2247,0.09114,0.39984
1.77124,0,0,13.2288,13.2288,16.7712,16.7712,-1.29892,-0.994756,18.63,-0.30927,-0.141439,0.339361,1,0,4.445,0.7,-2.6775,-0.368318,-0.106506,-0.675514,-0.22288,0.09268,0.4025
1.76779,0,0,13.2322,13.2322,16.7678,16.7678,-1.29639,-0.993975,18.6289,-0.309284,-0.141395,0.339362,1,0,4.83,0.525,-1.7325,-0.368318,-0.106506,-0.675514,-0.22288,0.09268,0.4025
2.08779,0,0,12.9122,12.9122,17.0878,17.0878,-1.52488,-0.936576,18.6702,0.071787,0.243836,-0.014196,0,0,3.8325,0.14,-0.6475,0.015372,0.282308,-1.02626,-0.22288,0.09268,0.4025
2.10609,0,0,12.8939,12.8939,17.1061,17.1061,-1.53787,-1.1803,18.8687,-0.181388,-0.00845789,0.0778078,0,0,3.15,0.2625,-0.035,-0.243146,0.0305,-0.934886,-0.22288,0.09268,0.4025
2.12624,0,0,12.8738,12.8738,17.1262,17.1262,-1.55218,-1.41817,19.0668,-0.177238,-0.00870491,0.077707,0,0,2.17,0.5425,0.5775,-0.243146,0.0305,-0.934886,-0.22288,0.09268,0.4025
2.56169,0,0,12.4383,12.4383,17.5617,17.5617,-1.86311,-1.32689,19.113,0.108605,0.32172,0.0307401,0,0,1.8025,0.84,0.9275,0.045506,0.366,-0.981368,-0.22288,0.09268,0.4025
2.98809,0,0,12.0119,12.0119,17.9881,17.9881,-2.16757,-1.23869,19.1597,0.107066,0.316409,0.0305877,0,0,2.625,-0.28,1.4525,0.045506,0.366,-0.981368,-0.22288,0.09268,0.4025
3.40396,0,0,11.596,11.596,18.404,18.404,-2.46448,-1.44115,19.4049,-0.143185,0.300245,-0.00523636,0,0,3.99,-0.0875,1.575,-0.209352,0.35502,-1.01663,-0.22288,0.09268,0.4025
3.8144,0,0,11.1856,11.1856,18.8144,18.8144,-2.75751,-1.64083,19.6573,-0.139701,0.295142,-0.00556288,0,0,3.6575,-0.5775,1.3125,-0.209352,0.35502,-1.01663,-0.22106,0.0882,0.40516
3.81207,0,0,11.1879,11.1879,18.8121,18.8121,-2.7557,-1.6412,19.6608,-0.237491,-0.223499,0.247589,1,0,4.4975,-0.2625,0.8925,-0.307562,-0.163114,-0.765428,-0.22106,0.0882,0.40516
3.80909,0,0,11.1909,11.1909,18.8091,18.8091,-2.75342,-1.64108,19.6633,-0.237493,-0.223459,0.247591,1,0,4.7425,0.0525,0.385,-0.307562,-0.163114,-0.765428,-0.22106,0.0882,0.40516
3.80898,0,0,11.191,11.191,18.809,18.809,-2.75319,-1.64124,19.6657,-0.241621,-0.0235337,-0.285513,1,0,3.5875,-0.105,0.245,-0.31171,0.0366,-1.29442,-0.22106,0.0882,0.40516
3.80846,0,0,11.1915,11.1915,18.8085,18.8085,-2.75267,-1.64129,19.6665,-0.24162,-0.0235247,-0.285513,1,0,3.7275,0,-0.63,-0.31171,0.0366,-1.29442,-0.22106,0.0882,0.40516
3.81019,0,0,11.1898,11.1898,18.8102,18.8102,-2.75377,-1.64107,19.6669,-0.0380136,0.102247,-0.181622,1,0,2.8175,0.175,-0.91,-0.107238,0.16226,-1.19133,-0.22106,0.0882,0.40516
3.81114,0,0,11.1889,11.1889,18.8111,18.8111,-2.75429,-1.64138,19.6661,-0.0380083,0.102238,-0.181623,1,0,3.115,-0.105,-1.575,-0.107238,0.16226,-1.19133,-0.22106,0.0882,0.40516
3.81112,0,0,11.1889,11.1889,18.8111,18.8111,-2.75413,-1.64279,19.6641,0.0460845,-0.174987,-0.171541,1,0,3.4825,-0.7175,-2.31,-0.022814,-0.11468,-1.18133,-0.22106,0.0882,0.40516
3.81061,0,0,11.1894,11.1894,18.8106,18.8106,-2.75362,-1.64256,19.6609,0.0460804,-0.174978,-0.171541,1,0,3.6575,0.28,-2.975,-0.022814,-0.11468,-1.18133,-0.22414,0.09604,0.40054
3.81258,0,0,11.1874,11.1874,18.8126,18.8126,-2.75488,-1.64169,19.6571,0.0857912,-0.411682,-0.100354,1,0,2.66,0.665,-3.2725,0.01708,-0.351116,-1.11069,-0.22414,0.09604,0.40054
3.81158,0,0,11.1884,11.1884,18.8116,18.8116,-2.75402,-1.64209,19.6527,0.0857981,-0.411667,-0.100354,1,0,3.8325,-0.0525,-3.7275,0.01708,-0.351116,-1.11069,-0.22414,0.09604,0.40054
3.81261,0,0,11.1874,11.1874,18.8126,18.8126,-2.75461,-1.64367,19.6485,0.13855,0.094294,-0.42457,1,0,3.0275,-0.7525,-3.5875,0.070028,0.15433,-1.4324,-0.22414,0.09604,0.40054
3.81481,0,0,11.1852,11.1852,18.8148,18.8148,-2.75603,-1.6444,19.6452,0.138563,0.0942692,-0.424572,1,0,2.5725,-0.28,-3.08,0.070028,0.15433,-1.4324,-0.22414,0.09604,0.40054
3.75608,0,0,11.2439,11.2439,18.7561,18.7561,-2.71394,-1.58177,19.624,0.0468422,-0.0367734,0.0204445,0,0,3.5175,-0.4025,-2.8,-0.020984,0.022692,-0.990884,-0.22414,0.09604,0.40054
3.69793,0,0,11.3021,11.3021,18.6979,18.6979,-2.67226,-1.52025,19.6041,0.0457688,-0.0360484,0.0205077,0,0,3.78,-0.245,-2.17,-0.020984,0.022692,-0.990884,-0.22414,0.09604,0.40054
3.59993,0,0,11.4001,11.4001,18.5999,18.5999,-2.60212,-1.44377,19.5669,0.0556112,-0.0618176,-0.0123517,0,0,4.5325,-0.0525,-1.995,-0.00976,-0.00427,-1.02358,-0.22414,0.09604,0.40054
3.50562,0,0,11.4944,11.4944,18.5056,18.5056,-2.53462,-1.36759,19.5306,0.054282,-0.0606425,-0.0122664,0,0,3.8325,0.805,-1.6275,-0.00976,-0.00427,-1.02358,-0.22414,0.09604,0.40054
3.03984,0,0,11.9602,11.9602,18.0398,18.0398,-2.2018,-1.05235,19.2832,0.221898,-0.315341,0.0295233,0,0,3.675,1.3825,-1.05,0.16409,-0.264496,-0.982466,-0.22834,0.08652,0.3969
3.03996,0,0,11.96,11.96,18.04,18.04,-2.20177,-1.05144,19.2838,-0.10783,-0.343674,-0.10449,1,0,3.4475,0.5775,-0.7525,-0.167018,-0.2928,-1.11545,-0.22834,0.08652,0.3969
3.04298,0,0,11.957,11.957,18.043,18.043,-2.20381,-1.05062,19.2848,-0.107844,-0.34371,-0.104491,1,0,2.2925,0.5075,-0.5075,-0.167018,-0.2928,-1.11545,-0.22834,0.08652,0.3969
3.04729,0,0,11.9527,11.9527,18.0473,18.0473,-2.20677,-1.05066,19.2869,0.129783,-0.250456,-0.29949,1,0,1.785,-0.0175,0.1225,0.071614,-0.199592,-1.30894,-0.22834,0.08652,0.3969
3.0521,0,0,11.9479,11.9479,18.0521,18.0521,-2.21008,-1.05062,19.2896,0.129782,-0.250514,-0.299492,1,0,1.5925,0.0175,0.4375,0.071614,-0.199592,-1.30894,-0.22834,0.08652,0.3969
3.05507,0,0,11.9449,11.9449,18.0551,18.0551,-2.21209,-1.05109,19.2923,0.236941,-0.0715113,-0.279945,1,0,2.3275,-0.28,0.4375,0.179218,-0.02074,-1.28954,-0.22834,0.08652,0.3969
3.05611,0,0,11.9439,11.9439,18.0561,18.0561,-2.21271,-1.05153,19.2947,0.236948,-0.0715222,-0.279945,1,0,3.0975,-0.2625,0.2625,0.179218,-0.02074,-1.28954,-0.22834,0.08652,0.3969
3.05517,0,0,11.9448,11.9448,18.0552,18.0552,-2.21192,-1.05159,19.2964,0.0848492,0.204254,0.153941,1,0,3.885,-0.0175,-0.1225,0.026474,0.254736,-0.859002,-0.23016,0.0875,0.3962
3.05475,0,0,11.9452,11.9452,18.0548,18.0548,-2.21151,-1.05245,19.2981,0.252636,-0.0859121,-0.22388,1,0,3.675,-0.49,-0.105,0.194956,-0.035136,-1.23391,-0.23016,0.0875,0.3962
3.05546,0,0,11.9445,11.9445,18.0555,18.0555,-2.21189,-1.05333,19.2994,0.252651,-0.0859188,-0.223881,1,0,3.22,-0.49,-0.3675,0.194956,-0.035136,-1.23391,-0.23016,0.0875,0.3962
3.05585,0,0,11.9442,11.9442,18.0558,18.0558,-2.21205,-1.05354,19.3,-0.0465642,-0.132818,-0.179988,1,0,3.3425,-0.0875,-0.77,-0.10553,-0.081984,-1.19035,-0.23016,0.0875,0.3962
3.05639,0,0,11.9436,11.9436,18.0564,18.0564,-2.21232,-1.05378,19.3002,-0.0465601,-0.132823,-0.179988,1,0,3.2725,-0.0875,-1.015,-0.10553,-0.081984,-1.19035,-0.23016,0.0875,0.3962
3.14941,0,0,11.8506,11.8506,18.1494,18.1494,-2.27864,-1.03753,19.3398,0.0203379,0.0609348,0.0650078,0,0,3.64,-0.035,-1.1375,-0.038064,0.112728,-0.947208,-0.23016,0.0875,0.3962
3.24339,0,0,11.7566,11.7566,18.2434,18.2434,-2.34565,-1.02136,19.3785,0.0200558,0.0597662,0.0649656,0,0,2.6075,0.0525,-1.575,-0.038064,0.112728,-0.947208,-0.23016,0.0875,0.3962
3.24281,0,0,11.7572,11.7572,18.2428,18.2428,-2.3451,-1.02152,19.3767,0.205203,0.0683245,-0.11417,1,0,3.71,0,-2.17,0.147864,0.121268,-1.12496,-0.23016,0.0875,0.3962
3.24223,0,0,11.7578,11.7578,18.2422,18.2422,-2.34456,-1.02169,19.3749,0.205206,0.068334,-0.11417,1,0,3.71,0,-2.17,0.147864,0.121268,-1.12496,-0.22652,0.0959,0.40054
3.24252,0,0,11.7575,11.7575,18.2425,18.2425,-2.34464,-1.02236,19.3732,0.0836102,0.09288,0.353403,1,0,3.36,-0.2975,-2.1175,0.025742,0.14579,-0.660996,-0.22652,0.0959,0.40054
3.24281,0,0,11.7572,11.7572,18.2428,18.2428,-2.34473,-1.02303,19.3715,0.0836219,0.0928786,0.353403,1,0,3.36,-0.2975,-2.1175,0.025742,0.14579,-0.660996,-0.22652,0.0959,0.40054
3.24308,0,0,11.7569,11.7569,18.2431,18.2431,-2.34479,-1.02998,19.3705,-0.0245006,-0.130004,0.197748,1,0,3.3775,-3.99,-1.89,-0.08296,-0.07686,-0.815448,-0.22652,0.0959,0.40054
3.24334,0,0,11.7567,11.7567,18.2433,18.2433,-2.34485,-1.03693,19.3694,-0.0243793,-0.130005,0.197746,1,0,3.3775,-3.99,-1.89,-0.08296,-0.07686,-0.815448,-0.22652,0.0959,0.40054
3.27018,0,0,11.7298,11.7298,18.2702,18.2702,-2.3639,-0.886718,19.2959,0.132389,0.0368529,-0.0734484,0,0,3.7275,0.1925,-1.7325,0.077104,0.090158,-1.08458,-0.22652,0.0959,0.40054
3.10383,0,0,11.8962,11.8962,18.1038,18.1038,-2.24495,-0.842348,19.2613,0.0232491,-0.11361,0.0029978,0,0,4.4975,1.0325,-1.82,-0.03172,-0.06222,-1.00882,-0.22652,0.0959,0.40054
2.9418,0,0,12.0582,12.0582,17.9418,17.9418,-2.12911,-0.799001,19.2272,0.0224926,-0.11159,0.00308578,0,0,3.9725,1.1375,-1.6975,-0.03172,-0.06222,-1.00882,-0.22652,0.0959,0.40054
2.94031,0,0,12.0597,12.0597,17.9403,17.9403,-2.12793,-0.797183,19.2263,0.0717841,0.180924,-0.219819,1,0,4.0775,1.1375,-1.61,0.017812,0.22997,-1.23,-0.23366,0.09016,0.40488
2.94145,0,0,12.0585,12.0585,17.9415,17.9415,-2.12863,-0.796489,19.2257,0.071772,0.180912,-0.219819,1,0,3.0275,0.4725,-1.435,0.017812,0.22997,-1.23,-0.23366,0.09016,0.40488
2.94006,0,0,12.0599,12.0599,17.9401,17.9401,-2.12753,-0.796701,19.2257,0.0302276,0.359969,-0.0743702,1,0,4.0425,-0.07,-1.1375,-0.023912,0.408822,-1.08568,-0.23366,0.09016,0.40488
3.17648,0,0,11.8235,11.8235,18.1765,18.1765,-2.29627,-0.532671,19.111,0.253648,0.209129,-0.0436933,0,0,2.8175,-0.7175,-1.05,0.205082,0.26108,-1.05518,-0.23366,0.09016,0.40488
3.40983,0,0,11.5902,11.5902,18.4098,18.4098,-2.46281,-0.272545,18.9948,0.249108,0.206223,-0.0437821,0,0,2.7125,-0.1225,-1.4875,0.205082,0.26108,-1.05518,-0.23366,0.09016,0.40488
3.40864,0,0,11.5914,11.5914,18.4086,18.4086,-2.46183,-0.271884,18.9942,0.0287218,0.0379496,0.14224,1,0,3.9725,0.455,-1.435,-0.016226,0.092964,-0.870592,-0.23366,0.09016,0.40488
3.4109,0,0,11.5891,11.5891,18.4109,18.4109,-2.46332,-0.272777,18.9943,0.0287374,0.0379236,0.142239,1,0,2.59,-0.4725,-1.0675,-0.016226,0.092964,-0.870592,-0.23366,0.09016,0.40488
3.40989,0,0,11.5901,11.5901,18.4099,18.4099,-2.46247,-0.273249,18.9945,-0.158828,0.148341,0.34326,1,0,3.9025,-0.2275,-1.015,-0.204594,0.203252,-0.671122,-0.23366,0.09016,0.40488
3.4133,0,0,11.5867,11.5867,18.4133,18.4133,-2.46477,-0.273503,18.9949,-0.158824,0.148301,0.343258,1,0,2.135,-0.105,-0.8925,-0.204594,0.203252,-0.671122,-0.22442,0.0931,0.3962
3.40526,0,0,11.5947,11.5947,18.4053,18.4053,-2.4589,-0.614451,19.2474,-0.257108,-0.036006,0.110967,0,0,2.9925,0.455,-0.7,-0.30927,0.019032,-0.90158,-0.22442,0.0931,0.3962
3.39523,0,0,11.6048,11.6048,18.3952,18.3952,-2.45159,-0.948955,19.498,-0.25127,-0.0358753,0.110893,0,0,3.6925,0,-0.6475,-0.30927,0.019032,-0.90158,-0.22442,0.0931,0.3962
3.50318,0,0,11.4968,11.4968,18.5032,18.5032,-2.52857,-0.920296,19.5253,0.032506,0.0883286,-0.0616542,0,0,3.885,-0.07,-0.7,-0.02379,0.144448,-1.07275,-0.22442,0.0931,0.3962
3.60681,0,0,11.3932,11.3932,18.6068,18.6068,-2.60245,-0.891959,19.5532,0.0320114,0.0870402,-0.0617041,0,0,4.9,-0.0175,-0.245,-0.02379,0.144448,-1.07275,-0.22442,0.0931,0.3962
3.34683,0,0,11.6532,11.6532,18.3468,18.3468,-2.41662,-0.818526,19.488,0.0420281,-0.182186,-0.0126095,0,0,4.2175,-0.035,-0.56,-0.012444,-0.127734,-1.02419,-0.22442,0.0931,0.3962
3.09215,0,0,11.9078,11.9078,18.0922,18.0922,-2.23459,-0.747696,19.4232,0.040792,-0.179012,-0.0124637,0,0,3.9725,-0.385,-0.8575,-0.012444,-0.127734,-1.02419,-0.22442,0.0931,0.3962
2.93636,0,0,12.0636,12.0636,17.9364,17.9364,-2.12319,-0.613739,19.3308,0.105636,-0.108679,-0.0796149,0,0,2.45,-0.4025,-0.525,0.055022,-0.059414,-1.09092,-0.22442,0.0931,0.3962
2.78312,0,0,12.2169,12.2169,17.7831,17.7831,-2.01363,-0.481844,19.2392,0.103334,-0.106769,-0.0795239,0,0,2.66,0.1925,-0.6125,0.055022,-0.059414,-1.09092,-0.22442,0.0931,0.39592
2.78711,0,0,12.2129,12.2129,17.7871,17.7871,-2.01637,-0.481845,19.24,-0.000657864,-0.0374492,-0.251776,1,0,1.89,0.035,-0.6125,-0.04941,0.009882,-1.26185,-0.22442,0.0931,0.39592
2.78962,0,0,12.2104,12.2104,17.7896,17.7896,-2.01806,-0.481245,19.241,-0.000668336,-0.0374786,-0.251777,1,0,2.485,0.385,-0.5425,-0.04941,0.009882,-1.26185,-0.22442,0.0931,0.39592
2.43683,0,0,12.5632,12.5632,17.4368,17.4368,-1.76597,-0.416232,19.16,0.0273536,-0.238621,0.0714854,0,0,3.1675,0.105,-0.665,-0.02013,-0.195444,-0.94123,-0.22442,0.0931,0.39592
2.08857,0,0,12.9114,12.9114,17.0886,17.0886,-1.51713,-0.351973,19.0792,0.0262321,-0.23428,0.0716174,0,0,3.8325,0.8225,-1.2075,-0.02013,-0.195444,-0.94123,-0.22442,0.0931,0.39592
2.08819,0,0,12.9118,12.9118,17.0882,17.0882,-1.51677,-0.350288,19.0786,0.16093,-0.366903,-0.250507,1,0,3.6225,1.05,-1.4525,0.115168,-0.327936,-1.26087,-0.22442,0.0931,0.39592
2.08739,0,0,12.9126,12.9126,17.0874,17.0874,-1.51613,-0.34908,19.0769,0.160909,-0.366892,-0.250507,1,0,3.78,0.7875,-2.1,0.115168,-0.327936,-1.26087,-0.22442,0.0931,0.39592
2.08642,0,0,12.9136,12.9136,17.0864,17.0864,-1.51535,-0.349294,19.0745,0.0957966,-0.199443,-0.164074,1,0,3.85,-0.035,-2.5025,0.049776,-0.160674,-1.1751,-0.22442,0.0931,0.39592
2.08655,0,0,12.9134,12.9134,17.0866,17.0866,-1.51536,-0.349583,19.0727,0.0958017,-0.199443,-0.164074,1,0,3.4125,-0.0875,-2.17,0.049776,-0.160674,-1.1751,-0.22442,0.0931,0.39592
2.08597,0,0,12.914,12.914,17.086,17.086,-1.51487,-0.350577,19.0702,0.0111435,0.0510475,-0.277186,1,0,3.6925,-0.49,-2.59,-0.035258,0.089548,-1.28734,-0.23086,0.091,0.39662
2.08661,0,0,12.9134,12.9134,17.0866,17.0866,-1.51525,-0.351425,19.0676,-0.00840091,-0.158651,-0.449806,1,0,3.2025,-0.4025,-2.66,-0.0549,-0.119926,-1.45863,-0.23086,0.091,0.39662
2.08726,0,0,12.9127,12.9127,17.0873,17.0873,-1.51563,-0.352273,19.0649,-0.00838611,-0.158657,-0.449807,1,0,3.2025,-0.4025,-2.66,-0.0549,-0.119926,-1.45863,-0.23086,0.091,0.39662
2.08926,0,0,12.9107,12.9107,17.0893,17.0893,-1.51697,-0.353349,19.0627,0.129762,-0.483172,-0.0540361,1,0,2.66,-0.5425,-2.415,0.083814,-0.44408,-1.06591,-0.23086,0.091,0.39662
2.09126,0,0,12.9087,12.9087,17.0913,17.0913,-1.51832,-0.354425,19.0605,0.129781,-0.483195,-0.0540368,1,0,2.66,-0.5425,-2.415,0.083814,-0.44408,-1.06591,-0.23086,0.091,0.39662
2.09542,0,0,12.9046,12.9046,17.0954,17.0954,-1.52121,-0.354427,19.0594,0.0745047,-0.0120805,-0.403458,1,0,1.8025,0.07,-1.7675,0.028304,0.026596,-1.41264,-0.23086,0.091,0.39662
2.09957,0,0,12.9004,12.9004,17.0996,17.0996,-1.52409,-0.354428,19.0583,0.0745047,-0.0121308,-0.403459,1,0,1.8025,0.07,-1.7675,0.028304,0.026596,-1.41264,-0.23086,0.091,0.39662
