pid_x,pid_y,pid_z,front_left_speed,front_right_speed,back_left_speed,back_right_speed,orientation_x,orientation_y,orientation_z,acceleration_x,acceleration_y,acceleration_z,accel_rejected,mag_rejected,gyro_x,gyro_y,gyro_z,accel_x,accel_y,accel_z,mag_x,mag_y,mag_z
-0.0221471,0,0,15.0221,15.0221,14.9779,14.9779,0.0158185,0.0560816,0.124094,0.033324,-0.0135913,0.0062088,0,0,3.29,-0.035,-1.435,-0.005856,-0.001708,-1.0065,-0.23828,0.08358,0.37352
-0.0561824,0,0,15.0562,15.0562,14.9438,14.9438,0.0401273,0.0314025,0.301598,-0.0181196,-0.0222044,-0.041618,0,0,3.1325,-0.07,-1.2775,-0.05795,-0.010736,-1.05396,-0.23828,0.08358,0.37352
-0.0582607,0,0,15.0583,15.0583,14.9417,14.9417,0.0416096,0.0252138,0.463608,-0.0036763,-0.00117276,0.0689127,0,0,3.395,-0.0175,-1.33,-0.043554,0.010248,-0.94428,-0.23828,0.08358,0.37352
-0.0606853,0,0,15.0607,15.0607,14.9393,14.9393,0.0433391,0.0191618,0.624429,-0.00357067,-0.00114257,0.0689127,0,0,3.5525,-0.035,-1.295,-0.043554,0.010248,-0.94428,-0.23828,0.08358,0.37352
-0.0850877,0,0,15.0851,15.0851,14.9149,14.9149,0.0607661,0.00521849,0.791072,-0.010252,-0.0152494,-0.0188727,0,0,3.43,-0.105,-1.0325,-0.050508,-0.004148,-1.03139,-0.23828,0.08358,0.37352
-0.115946,0,0,15.1159,15.1159,14.8841,14.8841,0.0828033,0.00921075,0.944709,0.000733522,-0.0188949,-0.00879146,0,0,3.5,-0.1225,-1.1375,-0.039406,-0.008174,-1.02138,-0.23828,0.08358,0.37352
-0.145792,0,0,15.1458,15.1458,14.8542,14.8542,0.104117,0.0129836,1.09554,0.000667673,-0.0185229,-0.00879208,0,0,3.3425,-0.14,-1.2425,-0.039406,-0.008174,-1.02138,-0.24108,0.08498,0.36834
-0.141825,0,0,15.1418,15.1418,14.8582,14.8582,0.101277,0.0363536,1.23048,0.0149596,0.0024333,-0.0142019,0,0,3.325,0.035,-1.1725,-0.024644,0.01281,-1.02675,-0.24108,0.08498,0.36834
-0.179068,0,0,15.1791,15.1791,14.8209,14.8209,0.127873,0.0404357,1.37888,0.00031003,-0.0228713,-0.00190802,0,0,3.3775,-0.0525,-1.12,-0.039284,-0.012932,-1.01455,-0.24108,0.08498,0.36834
-0.215132,0,0,15.2151,15.2151,14.7849,14.7849,0.153624,0.0441516,1.526,0.000245175,-0.0224218,-0.00190918,0,0,3.2025,-0.1575,-1.155,-0.039284,-0.012932,-1.01455,-0.24108,0.08498,0.36834
-0.23165,0,0,15.2317,15.2317,14.7683,14.7683,0.165414,0.0689998,1.65684,0.0145113,-0.0101255,-0.00486094,0,0,3.325,0,-1.2075,-0.024522,-0.000854,-1.01748,-0.24108,0.08498,0.36834
-0.254622,0,0,15.2546,15.2546,14.7454,14.7454,0.181813,0.06123,1.80825,-0.00624867,-0.014358,-0.0054764,0,0,3.325,0,-1.1725,-0.045506,-0.005368,-1.01809,-0.24108,0.08498,0.36834
-0.277568,0,0,15.2776,15.2776,14.7224,14.7224,0.198192,0.0532116,1.95866,-0.00610872,-0.0140721,-0.0054772,0,0,3.5,-0.245,-1.0325,-0.045506,-0.005368,-1.01809,-0.24108,0.08498,0.36834
-0.285885,0,0,15.2859,15.2859,14.7141,14.7141,0.204122,0.0681428,2.09023,0.00893788,-0.0048091,0.000669581,0,0,3.5,-0.0875,-1.05,-0.030134,0.003782,-1.01199,-0.23702,0.08638,0.36288
-0.311232,0,0,15.3112,15.3112,14.6888,14.6888,0.222215,0.0877788,2.21841,0.0106604,-0.0154847,-0.00179103,0,0,3.3425,0.07,-0.9275,-0.02806,-0.007198,-1.01443,-0.23702,0.08638,0.36288
-0.329809,0,0,15.3298,15.3298,14.6702,14.6702,0.235472,0.0900299,2.35628,0.000173362,-0.0113453,-0.00978367,0,0,3.5175,0.1575,-1.1025,-0.038552,-0.003294,-1.02236,-0.23702,0.08638,0.36288
-0.348017,0,0,15.348,15.348,14.652,14.652,0.248464,0.0921832,2.49307,0.00013578,-0.0111185,-0.00978468,0,0,3.5175,0.1575,-1.1025,-0.038552,-0.003294,-1.02236,-0.23702,0.08638,0.36288
-0.353813,0,0,15.3538,15.3538,14.6462,14.6462,0.252591,0.0879326,2.63244,-0.00294866,-0.00371892,0.00128048,0,0,3.325,-0.0175,-1.015,-0.041724,0.004026,-1.01138,-0.23702,0.08638,0.36288
-0.359493,0,0,15.3595,15.3595,14.6405,14.6405,0.256634,0.0837878,2.77073,-0.00287632,-0.00364836,0.00128028,0,0,3.325,-0.0175,-1.015,-0.041724,0.004026,-1.01138,-0.23702,0.08638,0.36288
-0.371689,0,0,15.3717,15.3717,14.6283,14.6283,0.265331,0.0898817,2.90132,0.00321309,-0.00764887,0.00361545,0,0,3.22,-0.14,-0.945,-0.035502,-0.000122,-1.00906,-0.23702,0.08638,0.36288
-0.383639,0,0,15.3836,15.3836,14.6164,14.6164,0.273852,0.0957233,3.02501,0.00311114,-0.00750016,0.00361458,0,0,3.22,-0.14,-0.945,-0.035502,-0.000122,-1.00906,-0.23548,0.08918,0.36666
-0.39859,0,0,15.3986,15.3986,14.6014,14.6014,0.284516,0.0875692,3.15694,-0.00597946,-0.00951231,-0.0106481,0,0,3.36,-0.0175,-1.085,-0.044774,-0.002318,-1.02321,-0.23548,0.08918,0.36666
-0.423211,0,0,15.4232,15.4232,14.5768,14.5768,0.302087,0.0969599,3.2762,0.00454738,-0.0147014,-0.00265831,0,0,3.6225,-0.0175,-1.2075,-0.034038,-0.007808,-1.01528,-0.23548,0.08918,0.36666
-0.446906,0,0,15.4469,15.4469,14.5531,14.5531,0.318995,0.106316,3.39455,0.0043841,-0.0144063,-0.00266019,0,0,3.4475,0.14,-1.19,-0.034038,-0.007808,-1.01528,-0.23548,0.08918,0.36666
-0.456865,0,0,15.4569,15.4569,14.5431,14.5431,0.326091,0.11877,3.5093,0.00708237,-0.00609994,-0.00339901,0,0,3.325,0.1925,-1.2425,-0.03111,0.000366,-1.01602,-0.23548,0.08918,0.36666
-0.46667,0,0,15.4667,15.4667,14.5333,14.5333,0.333077,0.131223,3.62327,0.00686504,-0.00597801,-0.00340019,0,0,3.3425,0.4025,-1.1725,-0.03111,0.000366,-1.01602,-0.23548,0.08918,0.36666
-0.475659,0,0,15.4757,15.4757,14.5243,14.5243,0.339479,0.141177,3.73755,0.00535496,-0.00537777,0.00336091,0,0,3.3775,0.35,-1.2425,-0.032452,0.000854,-1.00931,-0.23548,0.08918,0.36666
-0.484511,0,0,15.4845,15.4845,14.5155,14.5155,0.345783,0.150484,3.85089,0.00519252,-0.00526774,0.00335984,0,0,3.395,0.14,-1.26,-0.032452,0.000854,-1.00931,-0.23548,0.08918,0.36666
-0.498077,0,0,15.4981,15.4981,14.5019,14.5019,0.355454,0.158061,3.96469,0.00396691,-0.00827425,0.00446499,0,0,3.325,0.0175,-1.1725,-0.03355,-0.002318,-1.00821,-0.23618,0.08834,0.37548
-0.515698,0,0,15.5157,15.5157,14.4843,14.4843,0.368021,0.163202,4.07887,0.00241937,-0.010986,-0.00192997,0,0,3.2725,-0.1575,-1.2075,-0.035014,-0.005246,-1.01455,-0.23618,0.08834,0.37548
-0.533449,0,0,15.5334,15.5334,14.4666,14.4666,0.38068,0.168199,4.19211,0.00233215,-0.010765,-0.00193166,0,0,3.465,-0.14,-1.225,-0.035014,-0.005246,-1.01455,-0.23618,0.08834,0.37548
-0.544885,0,0,15.5449,15.5449,14.4551,14.4551,0.388828,0.172339,4.30494,0.00225989,-0.00720329,-0.00906385,0,0,3.325,-0.21,-1.1025,-0.035014,-0.00183,-1.02163,-0.23618,0.08834,0.37548
-0.556836,0,0,15.5568,15.5568,14.4432,14.4432,0.397343,0.176555,4.41674,0.0021863,-0.00705467,-0.00906509,0,0,3.6225,-0.0875,-1.19,-0.035014,-0.00183,-1.02163,-0.23618,0.08834,0.37548
-0.568612,0,0,15.5686,15.5686,14.4314,14.4314,0.405732,0.183556,4.52566,0.00388641,-0.00690826,-0.00795996,0,0,3.605,-0.0175,-1.2425,-0.033184,-0.00183,-1.02053,-0.23618,0.08834,0.37548
-0.580109,0,0,15.5801,15.5801,14.4199,14.4199,0.413922,0.190552,4.63378,0.00376429,-0.00676532,-0.00796139,0,0,3.5875,0.105,-1.2075,-0.033184,-0.00183,-1.02053,-0.23618,0.08834,0.37548
-0.590642,0,0,15.5906,15.5906,14.4094,14.4094,0.421423,0.186647,4.74836,-0.00321372,-0.00626803,0.00691465,0,0,3.535,0.175,-1.155,-0.04026,-0.001464,-1.00577,-0.23618,0.08834,0.37548
-0.598613,0,0,15.5986,15.5986,14.4014,14.4014,0.427094,0.186457,4.86385,-0.000659207,-0.00482566,0.0103565,0,0,3.3775,0.07,-1.0675,-0.037698,-0.000122,-1.00235,-0.2401,0.08568,0.37954
-0.600828,0,0,15.6008,15.6008,14.3992,14.3992,0.428653,0.162088,4.99408,-0.0154196,-0.00198953,-0.0080847,0,0,3.3775,-0.1575,-1.155,-0.052948,0.002684,-1.02065,-0.2401,0.08568,0.37954
-0.602913,0,0,15.6029,15.6029,14.3971,14.3971,0.430119,0.138202,5.12305,-0.0150027,-0.00196393,-0.0080838,0,0,3.3425,-0.2625,-1.295,-0.052948,0.002684,-1.02065,-0.2401,0.08568,0.37954
-0.505833,0,0,15.5058,15.5058,14.4942,14.4942,0.360757,-0.0289233,5.34627,-0.10077,0.0566676,-0.0046301,0,0,3.4475,-0.175,-1.0675,-0.142008,0.062464,-1.01724,-0.2401,0.08568,0.37954
-0.409051,0,0,15.4091,15.4091,14.5909,14.5909,0.291612,-0.19129,5.56864,-0.0979365,0.0554608,-0.00462868,0,0,2.835,-0.1225,-0.805,-0.142008,0.062464,-1.01724,-0.2401,0.08568,0.37954
-0.569767,0,0,15.5698,15.5698,14.4302,14.4302,0.406387,-0.0491829,5.58895,0.0771953,-0.0923855,0.0436831,0,0,3.185,0,-0.91,0.036356,-0.08723,-0.96929,-0.2401,0.08568,0.37954
-0.727448,0,0,15.7274,15.7274,14.2726,14.2726,0.518989,0.0889383,5.60973,0.0747846,-0.0904203,0.0436664,0,0,3.3075,0.14,-0.735,0.036356,-0.08723,-0.96929,-0.2401,0.08568,0.37954
-0.774699,0,0,15.7747,15.7747,14.2253,14.2253,0.55271,0.0935122,5.71679,0.000355557,-0.0324322,-0.0870335,0,0,3.395,-0.1225,-0.8925,-0.038308,-0.02989,-1.09898,-0.2401,0.08568,0.37954
-0.821949,0,0,15.8219,15.8219,14.1781,14.1781,0.586428,0.0965606,5.8095,0.000302352,-0.0318438,-0.0870394,0,0,3.7975,-0.665,-1.1375,-0.038308,-0.02989,-1.09898,-0.23772,0.09282,0.3822
-0.713231,0,0,15.7132,15.7132,14.2868,14.2868,0.508745,0.133352,5.87899,0.0325829,0.0725622,-0.057766,0,0,3.9025,-0.9275,-1.33,-0.005246,0.075762,-1.06994,-0.23772,0.09282,0.3822
-0.606643,0,0,15.6066,15.6066,14.3934,14.3934,0.432588,0.169338,5.94798,0.0319548,0.0712331,-0.0577568,0,0,3.9025,-0.9275,-1.33,-0.005246,0.075762,-1.06994,-0.23772,0.09282,0.3822
-0.776361,0,0,15.7764,15.7764,14.2236,14.2236,0.553786,0.0236286,6.13389,-0.0939125,-0.0992168,0.0880462,0,0,3.6225,-0.385,-1.995,-0.1342,-0.096624,-0.925248,-0.23772,0.09282,0.3822
-0.942785,0,0,15.9428,15.9428,14.0572,14.0572,0.672624,-0.118403,6.31763,-0.0914336,-0.0971428,0.088022,0,0,3.6225,-0.385,-1.995,-0.1342,-0.096624,-0.925248,-0.23772,0.09282,0.3822
-0.883525,0,0,15.8835,15.8835,14.1165,14.1165,0.630261,0.181655,6.21042,0.187363,0.0417087,0.0511429,0,0,2.24,0.5075,-1.8375,0.151036,0.042822,-0.961848,-0.23772,0.09282,0.3822
-0.707138,0,0,15.7071,15.7071,14.2929,14.2929,0.504243,-0.246029,6.58466,-0.262323,0.0953213,0.0448901,0,0,2.4325,0.525,-1.6625,-0.30805,0.098576,-0.96807,-0.23772,0.09282,0.3822
-0.537064,0,0,15.5371,15.5371,14.4629,14.4629,0.382741,-0.662085,6.95701,-0.255062,0.0932004,0.044849,0,0,3.85,0.7,-2.0125,-0.30805,0.098576,-0.96807,-0.23772,0.09282,0.3822
-0.387949,0,0,15.3879,15.3879,14.6121,14.6121,0.276216,-0.826145,7.15806,-0.136058,0.117598,-0.321072,0,0,4.62,0.84,-1.855,-0.191418,0.124806,-1.33114,-0.23436,0.10038,0.39928
-0.599682,0,0,15.5997,15.5997,14.4003,14.4003,0.427431,-0.743277,7.18058,0.0416868,-0.122917,0.0273674,0,0,5.4075,-0.1925,-1.5925,-0.011468,-0.118096,-0.985394,-0.23436,0.10038,0.39928
-0.785947,0,0,15.7859,15.7859,14.2141,14.2141,0.560447,-0.690735,7.22178,0.0232759,-0.100933,0.107398,0,0,3.605,-0.7875,-1.68,-0.029036,-0.098454,-0.905972,-0.23436,0.10038,0.39928
-0.781926,0,0,15.7819,15.7819,14.2181,14.2181,0.557545,-0.692004,7.22146,0.023298,-0.100984,0.107399,1,0,1.785,-0.7,-1.3475,-0.029036,-0.098454,-0.905972,-0.23436,0.10038,0.39928
-0.776719,0,0,15.7767,15.7767,14.2233,14.2233,0.553796,-0.693246,7.2215,-0.0245457,0.108032,0.206004,1,0,1.3125,-0.6825,-1.1375,-0.077104,0.11041,-0.808128,-0.23436,0.10038,0.39928
-0.771281,0,0,15.7713,15.7713,14.2287,14.2287,0.549883,-0.69357,7.22225,-0.02454,0.107963,0.206004,1,0,1.225,-0.14,-0.735,-0.077104,0.11041,-0.808128,-0.23436,0.10038,0.39928
-0.508334,0,0,15.5083,15.5083,14.4917,14.4917,0.362044,-0.743903,7.34935,-0.016251,0.148895,0.0791365,0,0,1.925,0.4025,-0.5425,-0.069662,0.154574,-0.934032,-0.23436,0.10038,0.39928
-0.25091,0,0,15.2509,15.2509,14.7491,14.7491,0.17816,-0.790539,7.46504,-0.0154371,0.145686,0.0791407,0,0,1.925,0.4025,-0.5425,-0.069662,0.154574,-0.934032,-0.23534,0.10654,0.41258
-0.256335,0,0,15.2563,15.2563,14.7437,14.7437,0.182025,-0.788891,7.46747,0.135419,-0.151747,-0.303598,1,0,5.6,1.015,0.245,0.081862,-0.142618,-1.31382,-0.23534,0.10654,0.41258
-0.261761,0,0,15.2618,15.2618,14.7382,14.7382,0.185891,-0.787243,7.4699,0.135391,-0.15168,-0.303598,1,0,5.6,1.015,0.245,0.081862,-0.142618,-1.31382,-0.23534,0.10654,0.41258
-0.266868,0,0,15.2669,15.2669,14.7331,14.7331,0.189529,-0.786196,7.47302,0.0737791,-0.0104377,-0.231304,1,0,5.4775,0.665,0.6475,0.020008,-0.001586,-1.24208,-0.23534,0.10654,0.41258
-0.435376,0,0,15.4354,15.4354,14.5646,14.5646,0.309875,-0.839955,7.57874,-0.0432453,-0.105062,0.0277262,0,0,2.8525,0.595,0.525,-0.098454,-0.09821,-0.985028,-0.23534,0.10654,0.41258
-0.596871,0,0,15.5969,15.5969,14.4031,14.4031,0.425206,-0.895658,7.68381,-0.0422733,-0.103049,0.0276985,0,0,1.365,-1.225,0.7875,-0.098454,-0.09821,-0.985028,-0.23534,0.10654,0.41258
-0.489055,0,0,15.4891,15.4891,14.5109,14.5109,0.348176,-0.592572,7.55227,0.212417,0.0745225,-0.0110754,0,0,0.8575,-2.24,0.35,0.162626,0.08052,-1.02358,-0.23534,0.10654,0.41258
-0.382784,0,0,15.3828,15.3828,14.6172,14.6172,0.272253,-0.296978,7.42088,0.207258,0.0731977,-0.0110282,0,0,0.8575,-2.24,0.35,0.162626,0.08052,-1.02358,-0.23534,0.10654,0.41258
-0.376321,0,0,15.3763,15.3763,14.6237,14.6237,0.267622,-0.290193,7.42256,0.134005,0.033792,0.151388,1,0,0.8225,4.025,-0.21,0.089182,0.041236,-0.862418,-0.23184,0.10822,0.41776
-0.378251,0,0,15.3783,15.3783,14.6217,14.6217,0.268987,-0.289558,7.42376,-0.0684012,0.00548244,0.170445,1,0,4.1825,0.42,-0.4725,-0.11407,0.012932,-0.843508,-0.23184,0.10822,0.41776
-0.384689,0,0,15.3847,15.3847,14.6153,14.6153,0.273571,-0.288652,7.42418,-0.0684171,0.00556244,0.170444,1,0,5.985,0.5775,-0.9275,-0.11407,0.012932,-0.843508,-0.23184,0.10822,0.41776
-0.73917,0,0,15.7392,15.7392,14.2608,14.2608,0.526743,-0.207707,7.4141,0.0345264,-0.203252,0.0678806,0,0,7.1225,0.9975,-1.855,-0.009272,-0.20008,-0.945256,-0.23184,0.10822,0.41776
-1.08668,0,0,16.0867,16.0867,13.9133,13.9133,0.774924,-0.129439,7.40465,0.0331604,-0.198921,0.0678354,0,0,7.1225,0.9975,-1.855,-0.009272,-0.20008,-0.945256,-0.23184,0.10822,0.41776
-1.35304,0,0,16.353,16.353,13.647,13.647,0.965127,-0.0743983,7.41177,0.0222379,-0.156765,0.0413528,0,0,5.4775,1.155,-2.73,-0.019276,-0.161284,-0.971486,-0.23184,0.10822,0.41776
-1.61413,0,0,16.6141,16.6141,13.3859,13.3859,1.15156,-0.0212057,7.4191,0.0213095,-0.153512,0.0412935,0,0,5.4775,1.155,-2.73,-0.019276,-0.161284,-0.971486,-0.23184,0.10822,0.41776
-1.6091,0,0,16.6091,16.6091,13.3909,13.3909,1.14791,-0.0216787,7.41501,0.103199,-0.092146,-0.0935797,1,0,1.365,-0.28,-3.5525,0.062952,-0.099918,-1.10532,-0.23184,0.10822,0.41776
-1.60408,0,0,16.6041,16.6041,13.3959,13.3959,1.14426,-0.022152,7.41091,0.103207,-0.0922097,-0.0935785,1,0,1.365,-0.28,-3.5525,0.062952,-0.099918,-1.10532,-0.23506,0.10346,0.41706
-1.36782,0,0,16.3678,16.3678,13.6322,13.6322,0.975452,-0.0957695,7.52462,-0.0391038,0.151052,-0.0803698,0,0,-0.175,-1.1025,-3.92,-0.081252,0.146034,-1.09227,-0.23506,0.10346,0.41706
-1.13618,0,0,16.1362,16.1362,13.8638,13.8638,0.809951,-0.16722,7.63808,-0.0378568,0.148164,-0.0803277,0,0,-0.175,-1.1025,-3.92,-0.081252,0.146034,-1.09227,-0.23506,0.10346,0.41706
-1.07286,0,0,16.0729,16.0729,13.9271,13.9271,0.764681,-0.238117,7.74816,-0.0412358,0.0359942,0.0357422,0,0,3.01,-0.35,-3.535,-0.085888,0.03477,-0.977098,-0.23506,0.10346,0.41706
-1.16239,0,0,16.1624,16.1624,13.8376,13.8376,0.828585,-0.259103,7.8199,-0.0166939,-0.0517989,0.0678147,0,0,3.535,0.035,-3.115,-0.06161,-0.054046,-0.945256,-0.23506,0.10346,0.41706
-1.25773,0,0,16.2577,16.2577,13.7423,13.7423,0.896635,-0.278788,7.89228,-0.0163504,-0.0506114,0.0677952,0,0,6.5625,0.56,-2.38,-0.06161,-0.054046,-0.945256,-0.23506,0.10346,0.41706
-1.24702,0,0,16.247,16.247,13.753,13.753,0.888942,-0.0510284,7.8008,0.136634,0.0193553,0.095718,0,0,6.9475,0.5425,-2.0125,0.096014,0.015982,-0.917562,-0.23506,0.10346,0.41706
-1.23254,0,0,16.2325,16.2325,13.7675,13.7675,0.878552,0.170852,7.71135,0.132761,0.0191739,0.0957168,0,0,5.5125,0.5425,-1.12,0.096014,0.015982,-0.917562,-0.23506,0.10346,0.41706
-1.36321,0,0,16.3632,16.3632,13.6368,13.6368,0.971834,0.100336,7.80879,-0.0558899,-0.0894786,-0.0669675,0,0,4.655,0.3675,-0.5775,-0.094672,-0.094184,-1.07897,-0.23408,0.1057,0.41048
-1.48859,0,0,16.4886,16.4886,13.5114,13.5114,1.06133,0.0306355,7.90617,-0.0546734,-0.0879168,-0.0669938,0,0,3.535,-0.14,-0.0175,-0.094672,-0.094184,-1.07897,-0.23408,0.1057,0.41048
-1.48827,0,0,16.4883,16.4883,13.5117,13.5117,1.06105,0.0296784,7.90852,0.262421,0.0652252,-0.163016,1,0,3.255,-0.49,0.21,0.223748,0.058804,-1.17425,-0.23408,0.1057,0.41048
-1.4838,0,0,16.4838,16.4838,13.5162,13.5162,1.0578,0.0267949,7.91164,0.262471,0.0651685,-0.163015,1,0,1.5925,-1.61,0.6825,0.223748,0.058804,-1.17425,-0.23408,0.1057,0.41048
-1.47732,0,0,16.4773,16.4773,13.5227,13.5227,1.05312,0.0240726,7.91414,-0.0862666,-0.252931,0.225257,1,0,0.7875,-1.5225,0.315,-0.126514,-0.258884,-0.788974,-0.23408,0.1057,0.41048
-1.47268,0,0,16.4727,16.4727,13.5273,13.5273,1.04974,0.0219112,7.917,-0.0862289,-0.25299,0.225259,1,0,1.5225,-1.19,0.525,-0.126514,-0.258884,-0.788974,-0.23408,0.1057,0.41048
-1.46813,0,0,16.4681,16.4681,13.5319,13.5319,1.04643,0.020539,7.92084,0.167457,-0.0244266,0.190957,1,0,1.5575,-0.7175,1.085,0.128222,-0.0305,-0.823012,-0.23408,0.1057,0.41048
-1.46868,0,0,16.4687,16.4687,13.5313,13.5313,1.04678,0.019503,7.92427,0.167475,-0.0244207,0.190957,1,0,3.605,-0.525,0.84,0.128222,-0.0305,-0.823012,-0.23408,0.1057,0.41048
-1.47003,0,0,16.47,16.47,13.53,13.53,1.04768,0.0191045,7.92714,0.117187,0.172097,0.177924,1,0,3.92,-0.1575,0.5075,0.077714,0.165798,-0.835944,-0.2366,0.10542,0.4025
-1.40946,0,0,16.4095,16.4095,13.5905,13.5905,1.00436,0.120485,7.92106,0.0696176,0.0453063,-0.0223476,0,0,5.3375,1.12,0.6475,0.03172,0.039894,-1.03468,-0.2366,0.10542,0.4025
-1.35276,0,0,16.3528,16.3528,13.6472,13.6472,0.963808,0.218358,7.91415,0.0679094,0.0445985,-0.0223405,0,0,6.4575,0.56,0.21,0.03172,0.039894,-1.03468,-0.2366,0.10542,0.4025
-1.36153,0,0,16.3615,16.3615,13.6385,13.6385,0.970023,0.21888,7.91584,0.0532005,-0.140681,-0.193118,1,0,6.895,0.3675,-0.1925,0.016958,-0.145302,-1.20414,-0.2366,0.10542,0.4025
-1.36461,0,0,16.3646,16.3646,13.6354,13.6354,0.972173,0.219169,7.91542,0.0531955,-0.140644,-0.193119,1,0,4.62,0.21,-1.4175,0.016958,-0.145302,-1.20414,-0.2366,0.10542,0.4025
-1.36472,0,0,16.3647,16.3647,13.6353,13.6353,0.972197,0.219647,7.91437,0.2031,-0.197677,-0.094268,1,0,3.43,0.315,-1.785,0.167506,-0.202276,-1.10605,-0.2366,0.10542,0.4025
-1.36194,0,0,16.3619,16.3619,13.6381,13.6381,0.970158,0.21826,7.91236,0.203125,-0.197712,-0.0942673,1,0,2.275,-0.7875,-2.3275,0.167506,-0.202276,-1.10605,-0.2366,0.10542,0.4025
-1.42919,0,0,16.4292,16.4292,13.5708,13.5708,1.01814,0.168809,7.99077,-0.0331523,-0.042873,0.0496938,0,0,2.24,-0.7,-2.59,-0.070638,-0.048434,-0.96319,-0.2366,0.10542,0.4025
-1.49223,0,0,16.4922,16.4922,13.5078,13.5078,1.06311,0.121672,8.06747,-0.0323296,-0.0420882,0.0496816,0,0,1.05,-0.14,-2.8525,-0.070638,-0.048434,-0.96319,-0.23226,0.10598,0.40068
-1.37168,0,0,16.3717,16.3717,13.6283,13.6283,0.976957,0.133472,8.11272,0.0132645,0.0723066,0.0236429,0,0,1.505,-0.4725,-2.59,-0.024644,0.067344,-0.989054,-0.23226,0.10598,0.40068
-1.25658,0,0,16.2566,16.2566,13.7434,13.7434,0.894692,0.145446,8.15737,0.0130555,0.070871,0.0236658,0,0,2.7475,-0.28,-2.7825,-0.024644,0.067344,-0.989054,-0.23226,0.10598,0.40068
-1.25711,0,0,16.2571,16.2571,13.7429,13.7429,0.895025,0.146195,8.15419,0.034181,0.0882188,-0.10334,1,0,3.605,0.455,-3.0275,-0.003416,0.084668,-1.11508,-0.23226,0.10598,0.40068
-1.26189,0,0,16.2619,16.2619,13.7381,13.7381,0.898386,0.147627,8.15136,0.034156,0.0882774,-0.103341,1,0,5.3025,0.8575,-2.835,-0.003416,0.084668,-1.11508,-0.23226,0.10598,0.40068
-1.26793,0,0,16.2679,16.2679,13.7321,13.7321,0.902652,0.14876,8.14847,-0.212237,-0.0237605,-0.26379,1,0,5.81,0.6825,-2.87,-0.250832,-0.027328,-1.27429,-0.23226,0.10598,0.40068
-1.27296,0,0,16.273,16.273,13.727,13.727,0.9062,0.148999,8.1455,-0.212241,-0.0236986,-0.263791,1,0,5.4075,0.1575,-2.905,-0.250832,-0.027328,-1.27429,-0.23226,0.10598,0.40068
-1.27612,0,0,16.2761,16.2761,13.7239,13.7239,0.908407,0.149226,8.14325,0.0190638,-0.00863844,-0.23785,1,0,4.655,0.1575,-2.485,-0.018544,-0.012322,-1.24855,-0.23226,0.10598,0.40068
-1.27819,0,0,16.2782,16.2782,13.7218,13.7218,0.909836,0.148727,8.14159,0.0190726,-0.00861351,-0.23785,1,0,4.2175,-0.2625,-2.135,-0.018544,-0.012322,-1.24855,-0.24178,0.10164,0.39872
-1.6229,0,0,16.6229,16.6229,13.3771,13.3771,1.156,-0.0574491,8.31786,-0.14255,-0.211811,0.0947741,0,0,3.185,-0.4375,-1.33,-0.184464,-0.2196,-0.918416,-0.24178,0.10164,0.39872
-1.95931,0,0,16.9593,16.9593,13.0407,13.0407,1.39622,-0.259392,8.49176,-0.139025,-0.20762,0.094671,0,0,2.3975,-0.8575,-0.8925,-0.184464,-0.2196,-0.918416,-0.24178,0.10164,0.39872
-1.93556,0,0,16.9356,16.9356,13.0644,13.0644,1.37918,0.0235568,8.366,0.178946,0.0233911,0.0555907,0,0,1.925,-1.1725,-0.5075,0.139812,0.011468,-0.957212,-0.24178,0.10164,0.39872
-1.91205,0,0,16.912,16.912,13.088,13.088,1.36231,0.29955,8.24167,0.174129,0.0230965,0.0555842,0,0,2.0825,-0.98,-0.0875,0.139812,0.011468,-0.957212,-0.24178,0.10164,0.39872
-1.9095,0,0,16.9095,16.9095,13.0905,13.0905,1.36041,0.436233,8.2058,0.0907122,0.00413342,-0.0084865,0,0,1.9775,-0.56,0.175,0.058438,-0.007442,-1.02077,-0.24178,0.10164,0.39872
-1.91054,0,0,16.9105,16.9105,13.0895,13.0895,1.36109,0.569516,8.17062,0.088386,0.00414469,-0.00850719,0,0,3.4825,-0.4375,0.42,0.058438,-0.007442,-1.02077,-0.24178,0.10164,0.39872
-1.91063,0,0,16.9106,16.9106,13.0894,13.0894,1.36107,0.56861,8.17281,-0.0895747,0.122852,-0.11498,1,0,3.395,-0.455,0.1225,-0.120292,0.111142,-1.12643,-0.24178,0.10164,0.39872
-1.91036,0,0,16.9104,16.9104,13.0896,13.0896,1.36082,0.568834,8.17524,-0.0895786,0.122847,-0.11498,1,0,3.255,0.21,0.245,-0.120292,0.111142,-1.12643,-0.24178,0.10164,0.39872
-1.88118,0,0,16.8812,16.8812,13.1188,13.1188,1.3399,0.694491,8.15317,0.0825604,0.0239254,0.0111492,0,0,3.92,0.35,0.28,0.054778,0.012688,-1.00125,-0.23912,0.09646,0.39998
-1.96812,0,0,16.9681,16.9681,13.0319,13.0319,1.40192,0.603471,8.26773,-0.0623629,-0.0537638,0.0254033,0,0,5.18,0.0525,0.0175,-0.092354,-0.066002,-0.987102,-0.23912,0.09646,0.39998
-2.05326,0,0,17.0533,17.0533,12.9467,12.9467,1.46265,0.514256,8.38051,-0.0608058,-0.0527039,0.025392,0,0,5.11,-0.245,-0.35,-0.092354,-0.066002,-0.987102,-0.23912,0.09646,0.39998
-2.10289,0,0,17.1029,17.1029,12.8971,12.8971,1.49803,0.643313,8.35098,0.0785941,-0.0220441,0.042812,0,0,5.0925,-0.0875,-0.49,0.049898,-0.03599,-0.969778,-0.23912,0.09646,0.39998
-2.15114,0,0,17.1511,17.1511,12.8489,12.8489,1.53241,0.768417,8.32198,0.0764108,-0.021445,0.0427693,0,0,5.005,-0.3675,-0.35,0.049898,-0.03599,-0.969778,-0.23912,0.09646,0.39998
-2.32553,0,0,17.3255,17.3255,12.6745,12.6745,1.65688,1.04343,8.18683,0.168193,-0.0970705,0.0407887,0,0,4.305,-0.21,-0.525,0.146888,-0.113704,-0.971608,-0.23912,0.09646,0.39998
-2.49264,0,0,17.4926,17.4926,12.5074,12.5074,1.77616,1.31192,8.05272,0.163508,-0.094993,0.0406301,0,0,2.9925,0.315,-1.015,0.146888,-0.113704,-0.971608,-0.23912,0.09646,0.39998
-2.57491,0,0,17.5749,17.5749,12.4251,12.4251,1.83482,1.502,7.96955,0.129334,-0.0525716,-0.0551375,0,0,2.345,0.42,-1.26,0.1159,-0.072346,-1.06652,-0.23912,0.09646,0.39998
-2.65486,0,0,17.6549,17.6549,12.3451,12.3451,1.89183,1.68692,7.89173,0.126107,-0.0515804,-0.0552596,0,0,2.2575,0.77,-1.575,0.1159,-0.072346,-1.06652,-0.23506,0.09338,0.40152
-2.75996,0,0,17.76,17.76,12.24,12.24,1.96679,1.71224,7.91583,0.0124412,-0.0701805,-0.0255632,0,0,2.7475,0.5775,-1.855,0.002196,-0.092232,-1.037,-0.23506,0.09338,0.40152
-2.86584,0,0,17.8658,17.8658,12.1342,12.1342,2.04231,1.7371,7.93885,0.0120075,-0.0688643,-0.0256223,0,0,3.9025,0.77,-2.38,0.002196,-0.092232,-1.037,-0.23506,0.09338,0.40152
-2.80125,0,0,17.8012,17.8012,12.1988,12.1988,1.99607,1.70417,8.00304,-0.0190043,0.0407326,-0.0432812,0,0,3.6925,0.63,-2.6075,-0.029524,0.018056,-1.05457,-0.23506,0.09338,0.40152
-2.74191,0,0,17.7419,17.7419,12.2581,12.2581,1.95358,1.67078,8.06661,-0.0184219,0.0399924,-0.0432385,0,0,5.285,-0.1925,-2.7125,-0.029524,0.018056,-1.05457,-0.23506,0.09338,0.40152
-2.69751,0,0,17.6975,17.6975,12.3025,12.3025,1.92176,1.64579,8.12421,-0.0138554,0.0310114,0.0319144,0,0,5.5125,-0.735,-2.5025,-0.025376,0.009638,-0.980026,-0.23506,0.09338,0.40152
-2.65131,0,0,17.6513,17.6513,12.3487,12.3487,1.88866,1.62201,8.18157,-0.0134405,0.0304345,0.0319454,0,0,4.4275,-0.4375,-2.4325,-0.025376,0.009638,-0.980026,-0.23506,0.09338,0.40152
-2.65312,0,0,17.6531,17.6531,12.3469,12.3469,1.88985,1.62116,8.17977,0.00176012,0.108006,-0.111782,1,0,4.1125,-0.49,-2.205,-0.010126,0.087108,-1.12264,-0.23506,0.09338,0.40152
-2.65421,0,0,17.6542,17.6542,12.3458,12.3458,1.89053,1.62031,8.17848,0.0017748,0.108018,-0.111782,1,0,3.815,-0.4725,-1.9075,-0.010126,0.087108,-1.12264,-0.23086,0.09632,0.39536
-2.65392,0,0,17.6539,17.6539,12.3461,12.3461,1.89022,1.61953,8.1774,0.139675,0.229773,-0.0956748,1,0,3.255,-0.4375,-1.785,0.128344,0.208742,-1.10666,-0.23086,0.09632,0.39536
-2.65117,0,0,17.6512,17.6512,12.3488,12.3488,1.88816,1.61907,8.17633,0.139683,0.229737,-0.0956734,1,0,2.275,-0.245,-1.785,0.128344,0.208742,-1.10666,-0.23086,0.09632,0.39536
-2.64929,0,0,17.6493,17.6493,12.3507,12.3507,1.88671,1.61888,8.17512,-0.0427854,-0.0234572,0.113586,1,0,2.625,-0.0875,-1.8725,-0.0549,-0.044164,-0.899018,-0.23086,0.09632,0.39536
-2.64934,0,0,17.6493,17.6493,12.3507,12.3507,1.88665,1.6189,8.17499,-0.0427857,-0.0234584,0.113586,1,0,3.3775,0.0525,-1.2425,-0.0549,-0.044164,-0.899018,-0.23086,0.09632,0.39536
-2.72433,0,0,17.7243,17.7243,12.2757,12.2757,1.94011,1.49793,8.29188,-0.0787002,-0.0447514,0.0798013,0,0,4.06,0.2975,-1.0325,-0.093086,-0.066368,-0.932568,-0.23086,0.09632,0.39536
-2.7994,0,0,17.7994,17.7994,12.2006,12.2006,1.99362,1.3792,8.40853,-0.0766286,-0.0438164,0.0798213,0,0,4.62,-0.1925,-0.4725,-0.093086,-0.066368,-0.932568,-0.23086,0.09632,0.39536
-2.76536,0,0,17.7654,17.7654,12.2346,12.2346,1.9692,1.24162,8.5423,-0.0871055,0.0191434,0.0206297,0,0,4.655,-0.385,-0.35,-0.106018,-0.00305,-0.991372,-0.23086,0.09632,0.39536
-2.73124,0,0,17.7312,17.7312,12.2688,12.2688,1.94472,1.10513,8.67842,-0.0847238,0.0187182,0.0206931,0,0,4.445,-1.085,-0.2625,-0.106018,-0.00305,-0.991372,-0.23898,0.09394,0.3899
-2.79283,0,0,17.7928,17.7928,12.2072,12.2072,1.98861,1.17189,8.68045,0.0420356,-0.0348636,0.00847174,0,0,4.2175,-1.4,-0.0875,0.022448,-0.05734,-1.00345,-0.23898,0.09394,0.3899
-2.85159,0,0,17.8516,17.8516,12.1484,12.1484,2.03047,1.23836,8.68224,0.0408758,-0.0341344,0.00842174,0,0,3.605,-0.49,-0.28,0.022448,-0.05734,-1.00345,-0.23898,0.09394,0.3899
-2.88881,0,0,17.8888,17.8888,12.1112,12.1112,2.05695,1.31402,8.67797,0.0459943,-0.0197513,0.0281706,0,0,3.0975,-0.14,-0.28,0.028914,-0.043432,-0.983808,-0.23898,0.09394,0.3899
-2.92484,0,0,17.9248,17.9248,12.0752,12.0752,2.08257,1.38801,8.67336,0.0447033,-0.0193056,0.028124,0,0,2.9575,0.07,-0.525,0.028914,-0.043432,-0.983808,-0.23898,0.09394,0.3899
-2.8666,0,0,17.8666,17.8666,12.1334,12.1334,2.04087,1.50734,8.64115,0.0755438,0.0418835,0.0464169,0,0,3.3425,0.42,-0.805,0.061976,0.018422,-0.96563,-0.23898,0.09394,0.3899
-2.81046,0,0,17.8105,17.8105,12.1895,12.1895,2.00066,1.62401,8.60901,0.0735084,0.0411805,0.0463861,0,0,3.815,0.63,-0.84,0.061976,0.018422,-0.96563,-0.23898,0.09394,0.3899
-2.60793,0,0,17.6079,17.6079,12.3921,12.3921,1.8559,1.43951,8.77538,-0.11109,0.122438,0.0250411,0,0,4.0425,0.7,-0.9625,-0.126636,0.102114,-0.98698,-0.23898,0.09394,0.3899
-2.41083,0,0,17.4108,17.4108,12.5892,12.5892,1.71501,1.25906,8.94209,-0.107941,0.119983,0.0251918,0,0,4.7075,0.5425,-1.2775,-0.126636,0.102114,-0.98698,-0.2415,0.09296,0.3892
-2.53775,0,0,17.5378,17.5378,12.4622,12.4622,1.80558,1.25579,8.98465,-0.00875153,-0.0781143,0.0108825,0,0,5.075,0.5425,-1.26,-0.027084,-0.097356,-1.00113,-0.2415,0.09296,0.3892
-2.66119,0,0,17.6612,17.6612,12.3388,12.3388,1.89365,1.25176,9.02681,-0.00868132,-0.0765782,0.0108344,0,0,4.655,0.1575,-1.2425,-0.027084,-0.097356,-1.00113,-0.2415,0.09296,0.3892
-2.59058,0,0,17.5906,17.5906,12.4094,12.4094,1.84311,1.30124,9.04047,0.040386,0.0501622,-0.0717774,0,0,4.27,-0.21,-1.505,0.023058,0.030134,-1.08312,-0.2415,0.09296,0.3892
-2.52052,0,0,17.5205,17.5205,12.4795,12.4795,1.79297,1.34922,9.05317,0.0395488,0.0492872,-0.071769,0,0,3.99,-0.4025,-1.9775,0.023058,0.030134,-1.08312,-0.2415,0.09296,0.3892
-2.40378,0,0,17.4038,17.4038,12.5962,12.5962,1.7095,1.33456,9.1077,-0.0050236,0.0726232,0.0425006,0,0,3.395,0.0875,-2.1175,-0.02196,0.0549,-0.969778,-0.2415,0.09296,0.3892
-2.28711,0,0,17.2871,17.2871,12.7129,12.7129,1.62608,1.32103,9.16183,-0.00478746,0.0711684,0.0425484,0,0,2.52,0.4375,-2.1875,-0.02196,0.0549,-0.969778,-0.2415,0.09296,0.3892
-2.25673,0,0,17.2567,17.2567,12.7433,12.7433,1.60428,1.16011,9.30793,-0.100748,0.0132684,0.0501198,0,0,3.22,0.2975,-2.3275,-0.121146,-0.002562,-0.962336,-0.2415,0.09296,0.3892
-2.225,0,0,17.225,17.225,12.775,12.775,1.58154,1.00373,9.45317,-0.0980186,0.012873,0.0501823,0,0,2.3975,0.455,-2.205,-0.121146,-0.002562,-0.962336,-0.2415,0.09296,0.3892
-2.23204,0,0,17.232,17.232,12.768,12.768,1.58649,0.708953,9.68881,-0.205978,-0.0209898,-0.0403562,0,0,2.6075,0,-2.065,-0.234728,-0.036478,-1.05225,-0.24178,0.09212,0.3948
-2.49223,0,0,17.4922,17.4922,12.5078,12.5078,1.77224,1.00786,9.52844,0.189709,-0.159052,0.00889595,0,0,3.4475,-0.6475,-1.96,0.167872,-0.177632,-1.00321,-0.24178,0.09212,0.3948
-2.49191,0,0,17.4919,17.4919,12.5081,12.5081,1.77191,1.00681,9.52787,-0.299253,-0.0238638,-0.148109,1,0,3.2375,-0.5775,-1.4875,-0.323178,-0.042578,-1.159,-0.24178,0.09212,0.3948
-2.62145,0,0,17.6215,17.6215,12.3785,12.3785,1.86435,1.18855,9.44815,0.115244,-0.0764779,0.00288302,0,0,3.395,-0.6125,-1.33,0.096258,-0.096746,-1.00906,-0.24178,0.09212,0.3948
-2.62142,0,0,17.6214,17.6214,12.3786,12.3786,1.86422,1.18679,9.44815,-0.0444793,0.077766,-0.103344,1,0,3.3425,-0.98,-1.1375,-0.064172,0.05734,-1.11447,-0.24178,0.09212,0.3948
-2.56133,0,0,17.5613,17.5613,12.4387,12.4387,1.8212,1.04955,9.58153,-0.087763,0.0323188,-0.0164713,0,0,3.01,-0.8575,-0.9625,-0.110044,0.012688,-1.02834,-0.24178,0.09212,0.3948
-2.56502,0,0,17.565,17.565,12.435,12.435,1.82374,0.995547,9.66002,-0.0350677,-0.00525142,-0.00698884,0,0,3.1675,-0.7,-0.875,-0.058072,-0.024888,-1.01894,-0.24178,0.09212,0.3948
-2.56561,0,0,17.5656,17.5656,12.4344,12.4344,1.82406,0.994999,9.66075,0.0638312,0.149122,0.119402,1,0,3.5875,-0.2625,-0.735,0.041236,0.12932,-0.893528,-0.24178,0.09212,0.3948
-2.69267,0,0,17.6927,17.6927,12.3073,12.3073,1.91472,0.795911,9.83725,-0.133632,-0.0810911,0.0914956,0,0,3.29,4.2875,-0.5075,-0.160552,-0.102236,-0.921222,-0.2359,0.09086,0.39284
-2.47355,0,0,17.4735,17.4735,12.5265,12.5265,1.75811,0.962389,9.78863,0.133526,0.157987,-0.069524,0,0,2.6075,0.175,-0.455,0.110654,0.139324,-1.08104,-0.2359,0.09086,0.39284
-2.25834,0,0,17.2583,17.2583,12.7417,12.7417,1.60431,1.12476,9.73959,0.130692,0.155302,-0.0694968,0,0,2.6425,0.0175,-0.525,0.110654,0.139324,-1.08104,-0.2359,0.09086,0.39284
-2.13452,0,0,17.1345,17.1345,12.8655,12.8655,1.51578,1.17754,9.75689,0.0440023,0.0837792,-0.0467278,0,0,2.625,0.2975,-0.4725,0.024522,0.069418,-1.05847,-0.2359,0.09086,0.39284
-2.01222,0,0,17.0122,17.0122,12.9878,12.9878,1.42834,1.22813,9.77453,0.0431194,0.0822535,-0.0467071,0,0,2.31,-0.28,-0.1575,0.024522,0.069418,-1.05847,-0.2359,0.09086,0.39284
-1.89536,0,0,16.8954,16.8954,13.1046,13.1046,1.3448,1.18862,9.85038,-0.0204571,0.074568,-0.0510834,0,0,2.2925,-0.1575,-0.3325,-0.040016,0.063196,-1.06286,-0.2359,0.09086,0.39284
-1.78154,0,0,16.7815,16.7815,13.2185,13.2185,1.26344,1.15032,9.92541,-0.0197886,0.0731489,-0.0510375,0,0,2.6075,-0.14,-0.595,-0.040016,0.063196,-1.06286,-0.2359,0.09086,0.39284
-1.68556,0,0,16.6856,16.6856,13.3144,13.3144,1.19481,0.973266,10.0915,-0.114495,0.0542445,-0.00398823,0,0,3.2025,-0.1225,-0.56,-0.138226,0.045506,-1.01626,-0.2359,0.09086,0.39284
-1.59189,0,0,16.5919,16.5919,13.4081,13.4081,1.12784,0.801548,10.2423,-0.111498,0.053077,-0.00391813,0,0,3.3425,0.245,-0.84,-0.138226,0.045506,-1.01626,-0.24136,0.0987,0.39774
-1.36273,0,0,16.3627,16.3627,13.6373,13.6373,0.964111,0.40257,10.5519,-0.257243,0.129604,0.037272,0,0,3.0975,0.3675,-0.945,-0.29158,0.124806,-0.975512,-0.24136,0.0987,0.39774
-1.13988,0,0,16.1399,16.1399,13.8601,13.8601,0.804884,0.0143473,10.8606,-0.250467,0.126825,0.0373395,0,0,4.0075,0.7525,-1.19,-0.29158,0.124806,-0.975512,-0.24136,0.0987,0.39774
-1.00339,0,0,16.0034,16.0034,13.9966,13.9966,0.707353,0.104215,10.8559,0.0699015,0.0970342,-0.0402201,0,0,3.955,0.9275,-1.0675,0.03172,0.096746,-1.05249,-0.24136,0.0987,0.39774
-0.868563,0,0,15.8686,15.8686,14.1314,14.1314,0.611017,0.192084,10.8507,0.0683679,0.0953529,-0.0402047,0,0,3.64,0.9625,-1.26,0.03172,0.096746,-1.05249,-0.24136,0.0987,0.39774
-0.963891,0,0,15.9639,15.9639,14.0361,14.0361,0.679072,0.245553,10.8504,0.0315965,-0.0603923,-0.0254679,0,0,3.8325,0.455,-1.4525,-0.00427,-0.060024,-1.03785,-0.24136,0.0987,0.39774
-1.0541,0,0,16.0541,16.0541,13.9459,13.9459,0.743466,0.297087,10.8497,0.030697,-0.0592686,-0.0254861,0,0,2.555,0.21,-1.6975,-0.00427,-0.060024,-1.03785,-0.24136,0.0987,0.39774
-1.08657,0,0,16.0866,16.0866,13.9134,13.9134,0.766619,0.453869,10.7821,0.106198,-0.0156319,-0.0157964,0,0,2.555,0.07,-1.82,0.074298,-0.016836,-1.02822,-0.24136,0.0987,0.39774
-1.11911,0,0,16.1191,16.1191,13.8809,13.8809,0.789819,0.606752,10.7212,0.103529,-0.0152274,-0.0158266,0,0,2.9225,-0.0875,-1.75,0.074298,-0.016836,-1.02822,-0.24416,0.09492,0.39802
-1.11455,0,0,16.1146,16.1146,13.8854,13.8854,0.786521,0.696949,10.7014,0.0577344,0.0065755,0.044647,0,0,2.8175,-0.035,-1.995,0.02989,0.005002,-0.968192,-0.24416,0.09492,0.39802
-1.11038,0,0,16.1104,16.1104,13.8896,13.8896,0.783501,0.78473,10.6816,0.0562025,0.00652253,0.0446279,0,0,3.01,-0.105,-2.1,0.02989,0.005002,-0.968192,-0.24416,0.09492,0.39802
-0.9968,0,0,15.9968,15.9968,14.0032,14.0032,0.702334,0.637689,10.8217,-0.0924811,0.065315,0.0103755,0,0,2.7825,-0.28,-1.7325,-0.122,0.065148,-1.00223,-0.24416,0.09492,0.39802
-0.886552,0,0,15.8866,15.8866,14.1134,14.1134,0.623552,0.494598,10.961,-0.0899838,0.0639405,0.010416,0,0,3.2025,-0.245,-1.7675,-0.122,0.065148,-1.00223,-0.24416,0.09492,0.39802
-0.884704,0,0,15.8847,15.8847,14.1153,14.1153,0.622199,0.291637,11.1343,-0.147913,-0.0107023,-0.0779594,0,0,3.22,-0.3675,-1.68,-0.183732,-0.009394,-1.08995,-0.24416,0.09492,0.39802
-0.881411,0,0,15.8814,15.8814,14.1186,14.1186,0.619813,0.0946107,11.3062,-0.144475,-0.0107438,-0.0779473,0,0,2.555,0.0525,-1.6275,-0.183732,-0.009394,-1.08995,-0.24416,0.09492,0.39802
-0.930938,0,0,15.9309,15.9309,14.0691,14.0691,0.655155,0.0742744,11.3611,-0.0172886,-0.03614,-0.0537328,0,0,3.0275,-0.035,-1.4,-0.056364,-0.03538,-1.06591,-0.24416,0.09492,0.39802
-0.981694,0,0,15.9817,15.9817,14.0183,14.0183,0.691372,0.0539747,11.4151,-0.0169343,-0.035508,-0.0537398,0,0,3.885,-0.28,-1.0675,-0.056364,-0.03538,-1.06591,-0.2387,0.09604,0.39312
-0.900628,0,0,15.9006,15.9006,14.0994,14.0994,0.633434,0.101138,11.4345,0.0398268,0.0584955,-0.0757371,0,0,3.5,-0.2625,-0.91,0.001464,0.059536,-1.08775,-0.2387,0.09604,0.39312
-0.8209,0,0,15.8209,15.8209,14.1791,14.1791,0.576454,0.146005,11.4536,0.0390437,0.057501,-0.0757282,0,0,3.4475,-0.98,-0.91,0.001464,0.059536,-1.08775,-0.2387,0.09604,0.39312
-0.882611,0,0,15.8826,15.8826,14.1174,14.1174,0.6205,0.102297,11.5197,-0.0300477,-0.0384546,0.056435,0,0,3.8675,-1.05,-1.0675,-0.068686,-0.037088,-0.956602,-0.2387,0.09604,0.39312
-0.939152,0,0,15.9392,15.9392,14.0608,14.0608,0.660851,0.0606623,11.5854,-0.029321,-0.0377504,0.0564282,0,0,2.24,-0.4375,-1.0325,-0.068686,-0.037088,-0.956602,-0.2387,0.09604,0.39312
-0.988773,0,0,15.9888,15.9888,14.0112,14.0112,0.696257,0.136809,11.5742,0.0467363,-0.0276066,0.0523613,0,0,2.5375,-0.4025,-0.9625,0.009028,-0.027572,-0.960628,-0.2387,0.09604,0.39312
-1.04013,0,0,16.0401,16.0401,13.9599,13.9599,0.732905,0.211114,11.5634,0.0454395,-0.0269671,0.0523494,0,0,3.675,-0.2975,-0.805,0.009028,-0.027572,-0.960628,-0.2387,0.09604,0.39312
-1.10841,0,0,16.1084,16.1084,13.8916,13.8916,0.781633,-0.0155791,11.7481,-0.146317,-0.0510305,0.0873852,0,0,3.2375,0.35,-0.77,-0.187514,-0.05246,-0.925858,-0.2387,0.09604,0.39312
-1.17812,0,0,16.1781,16.1781,13.8219,13.8219,0.831377,-0.236502,11.9309,-0.142462,-0.0501625,0.0873645,0,0,4.235,0.385,-0.77,-0.187514,-0.05246,-0.925858,-0.2387,0.09604,0.39312
-1.18128,0,0,16.1813,16.1813,13.8187,13.8187,0.833589,-0.236257,11.9314,0.14339,0.0553936,-0.0968129,1,0,4.655,0.1925,-0.8925,0.099552,0.052948,-1.10861,-0.23772,0.08876,0.39354
-1.18116,0,0,16.1812,16.1812,13.8188,13.8188,0.833458,-0.236015,11.932,0.143386,0.0553913,-0.0968129,1,0,3.3425,0.1925,-0.8225,0.099552,0.052948,-1.10861,-0.23772,0.08876,0.39354
-1.38812,0,0,16.3881,16.3881,13.6119,13.6119,0.98124,-0.196763,11.9476,0.0136828,-0.129128,0.0307694,0,0,3.2725,-0.105,-0.7875,-0.030012,-0.133956,-0.981978,-0.23772,0.08876,0.39354
-1.59229,0,0,16.5923,16.5923,13.4077,13.4077,1.12701,-0.159196,11.9627,0.0130272,-0.126584,0.0307247,0,0,3.7625,-0.28,-1.085,-0.030012,-0.133956,-0.981978,-0.23772,0.08876,0.39354
-1.45736,0,0,16.4574,16.4574,13.5426,13.5426,1.03058,-0.246883,12.0846,-0.0548108,0.0872868,-0.0620752,0,0,3.4475,0.0175,-1.12,-0.099674,0.081374,-1.07409,-0.23772,0.08876,0.39354
-1.32522,0,0,16.3252,16.3252,13.6748,13.6748,0.936147,-0.33193,12.2057,-0.0533264,0.0856387,-0.0620544,0,0,3.5,0.14,-1.26,-0.099674,0.081374,-1.07409,-0.23772,0.08876,0.39354
-1.33086,0,0,16.3309,16.3309,13.6691,13.6691,0.940121,-0.370211,12.2864,-0.0273893,-0.00552063,-0.0309537,0,0,3.9025,0.035,-1.2775,-0.074298,-0.00976,-1.04322,-0.23772,0.08876,0.39354
-1.33645,0,0,16.3364,16.3364,13.6636,13.6636,0.944063,-0.407529,12.3666,-0.026738,-0.00545192,-0.0309592,0,0,3.9025,0.035,-1.2775,-0.074298,-0.00976,-1.04322,-0.23772,0.08876,0.39354
-1.21083,0,0,16.2108,16.2108,13.7892,13.7892,0.854287,-0.31784,12.3741,0.0682778,0.0867749,0.0134597,0,0,4.0425,0.5425,-1.2075,0.022692,0.083936,-0.99918,-0.23688,0.08918,0.39508
-1.29142,0,0,16.2914,16.2914,13.7086,13.7086,0.911803,-0.430525,12.4952,-0.0839208,-0.0587737,-0.0181664,0,0,4.2175,-0.1925,-1.3125,-0.132126,-0.062464,-1.03053,-0.23688,0.08918,0.39508
-1.19778,0,0,16.1978,16.1978,13.8022,13.8022,0.844871,-0.439866,12.5646,-0.00139052,0.0631621,-0.062903,0,0,3.395,0.42,-1.26,-0.04941,0.060512,-1.07494,-0.23688,0.08918,0.39508
-1.10637,0,0,16.1064,16.1064,13.8936,13.8936,0.779536,-0.45007,12.6337,-0.00121243,0.0620219,-0.0628882,0,0,3.57,-0.315,-1.2425,-0.04941,0.060512,-1.07494,-0.23688,0.08918,0.39508
-0.996229,0,0,15.9962,15.9962,14.0038,14.0038,0.70083,-0.406869,12.6691,0.0383669,0.0757921,-0.0288081,0,0,3.3425,-0.5425,-1.05,-0.008906,0.07564,-1.04115,-0.23688,0.08918,0.39508
-0.887198,0,0,15.8872,15.8872,14.1128,14.1128,0.622917,-0.363931,12.7041,0.0376175,0.0744325,-0.0287873,0,0,2.975,-0.175,-1.155,-0.008906,0.07564,-1.04115,-0.23688,0.08918,0.39508
-1.07605,0,0,16.0761,16.0761,13.9239,13.9239,0.757774,-0.387195,12.7557,-0.0251491,-0.114587,0.0780239,0,0,3.2725,-0.35,-1.2775,-0.072346,-0.115534,-0.93513,-0.23688,0.08918,0.39508
-1.26335,0,0,16.2633,16.2633,13.7367,13.7367,0.891506,-0.410717,12.8068,-0.0247386,-0.112253,0.0779874,0,0,4.06,-0.6475,-1.33,-0.072346,-0.115534,-0.93513,-0.23688,0.08918,0.39508
-1.36161,0,0,16.3616,16.3616,13.6384,13.6384,0.961646,-0.326735,12.7951,0.0525184,-0.0590028,-0.000955851,0,0,3.6575,-0.7175,-1.19,0.00671,-0.063562,-1.01345,-0.23562,0.08932,0.3927
-1.42647,0,0,16.4265,16.4265,13.5735,13.5735,1.00792,-0.282713,12.811,0.0259952,-0.0365789,0.0464925,0,0,3.6925,-0.665,-1.19,-0.019154,-0.041968,-0.966362,-0.23562,0.08932,0.3927
-1.49139,0,0,16.4914,16.4914,13.5086,13.5086,1.05424,-0.239538,12.8273,0.0252416,-0.0357705,0.0464814,0,0,4.2525,-0.4375,-0.9625,-0.019154,-0.041968,-0.966362,-0.23562,0.08932,0.3927
-1.45462,0,0,16.4546,16.4546,13.5454,13.5454,1.02791,-0.185435,12.8443,0.040212,0.0277646,-0.0123991,0,0,3.7625,-0.1925,-1.015,-0.003172,0.02196,-1.0248,-0.23562,0.08932,0.3927
-1.41801,0,0,16.418,16.418,13.582,13.582,1.00171,-0.132718,12.8612,0.0392919,0.0273073,-0.0123885,0,0,3.5875,-0.245,-0.9975,-0.003172,0.02196,-1.0248,-0.23562,0.08932,0.3927
-1.37519,0,0,16.3752,16.3752,13.6248,13.6248,0.97107,-0.227901,12.9736,-0.0567213,0.0222539,0.0799498,0,0,3.465,-0.63,-1.1375,-0.10126,0.017446,-0.933178,-0.23562,0.08932,0.3927
-1.33258,0,0,16.3326,16.3326,13.6674,13.6674,0.940583,-0.319952,13.085,-0.0551148,0.0217218,0.079951,0,0,3.1675,-0.245,-1.2425,-0.10126,0.017446,-0.933178,-0.23562,0.08932,0.3927
-1.5524,0,0,16.5524,16.5524,13.4476,13.4476,1.09754,-0.430816,13.1777,-0.0792993,-0.133083,0.113946,0,0,3.4125,-0.315,-1.33,-0.12749,-0.139934,-0.899384,-0.24052,0.09254,0.39158
-1.30909,0,0,16.3091,16.3091,13.6909,13.6909,0.923698,-0.514943,13.2977,-0.0478241,0.167979,-0.0862953,0,0,3.745,0.3325,-1.33,-0.097356,0.163846,-1.09812,-0.24052,0.09254,0.39158
-1.07038,0,0,16.0704,16.0704,13.9296,13.9296,0.753153,-0.596647,13.4175,-0.0463982,0.165002,-0.0862656,0,0,3.745,0.3325,-1.33,-0.097356,0.163846,-1.09812,-0.24052,0.09254,0.39158
-1.2239,0,0,16.2239,16.2239,13.7761,13.7761,0.862764,-0.490855,13.3789,0.0626719,-0.0906498,0.0208131,0,0,4.3575,-0.2275,-1.4,0.01403,-0.093452,-0.99186,-0.24052,0.09254,0.39158
-1.37424,0,0,16.3742,16.3742,13.6258,13.6258,0.970095,-0.388003,13.341,0.0608769,-0.0887766,0.0207969,0,0,4.3575,-0.2275,-1.4,0.01403,-0.093452,-0.99186,-0.24052,0.09254,0.39158
-1.56534,0,0,16.5653,16.5653,13.4347,13.4347,1.10653,-0.303789,13.3102,0.0458007,-0.120225,0.00514814,0,0,3.465,0.35,-1.2425,0.000366,-0.127246,-1.00735,-0.24052,0.09254,0.39158
-1.75261,0,0,16.7526,16.7526,13.2474,13.2474,1.24023,-0.222049,13.28,0.0443741,-0.117891,0.0051069,0,0,3.465,0.35,-1.2425,0.000366,-0.127246,-1.00735,-0.24052,0.09254,0.39158
-1.80535,0,0,16.8053,16.8053,13.1947,13.1947,1.27784,-0.0213208,13.1844,0.139274,-0.0229534,-0.0314158,0,0,4.2,0.315,-1.3125,0.099186,-0.033062,-1.04359,-0.24052,0.09254,0.39158
-1.59411,0,0,16.5941,16.5941,13.4059,13.4059,1.12689,-0.164132,13.3306,-0.0935511,0.139284,-0.0750113,0,0,3.395,0.49,-1.435,-0.137128,0.131638,-1.0869,-0.23968,0.0931,0.39144
-1.59686,0,0,16.5969,16.5969,13.4031,13.4031,1.12879,-0.163778,13.33,-0.079465,-0.0939451,0.143222,1,0,4.48,0.245,-1.5575,-0.122976,-0.101382,-0.870348,-0.23968,0.0931,0.39144
-1.58851,0,0,16.5885,16.5885,13.4115,13.4115,1.12277,-0.164094,13.33,-0.0794594,-0.0940503,0.143224,1,0,0.035,-0.14,-1.155,-0.122976,-0.101382,-0.870348,-0.23968,0.0931,0.39144
-1.76818,0,0,16.7682,16.7682,13.2318,13.2318,1.25104,-0.282494,13.425,-0.08614,-0.116238,0.0682937,0,0,3.5525,-0.28,-1.295,-0.13176,-0.125782,-0.944646,-0.23968,0.0931,0.39144
-1.94581,0,0,16.9458,16.9458,13.0542,13.0542,1.37784,-0.397685,13.5188,-0.0841295,-0.114025,0.068231,0,0,3.99,0,-1.295,-0.13176,-0.125782,-0.944646,-0.23968,0.0931,0.39144
-2.0064,0,0,17.0064,17.0064,12.9936,12.9936,1.42105,-0.387088,13.5444,0.00388413,-0.0360874,0.0460831,0,0,3.395,-0.105,-1.015,-0.043188,-0.048678,-0.966606,-0.23968,0.0931,0.39144
-2.06683,0,0,17.0668,17.0668,12.9332,12.9332,1.46413,-0.377514,13.5695,0.00371703,-0.0353357,0.0460653,0,0,3.7975,-0.49,-1.155,-0.043188,-0.048678,-0.966606,-0.23968,0.0931,0.39144
-2.2516,0,0,17.2516,17.2516,12.7484,12.7484,1.59603,-0.136866,13.4341,0.143113,-0.0958071,0.0931119,0,0,3.5175,-0.805,-0.665,0.101016,-0.111386,-0.91988,-0.23968,0.0931,0.39144
-2.43067,0,0,17.4307,17.4307,12.5693,12.5693,1.72384,0.0974956,13.3009,0.139023,-0.0935772,0.0930487,0,0,2.975,-0.6125,-0.7525,0.101016,-0.111386,-0.91988,-0.23856,0.09282,0.39214
-2.43058,0,0,17.4306,17.4306,12.5694,12.5694,1.72368,0.0973807,13.3012,-0.0141688,-0.224866,0.189563,1,0,3.325,-0.0175,-1.015,-0.052826,-0.242536,-0.82411,-0.23856,0.09282,0.39214
-2.43048,0,0,17.4305,17.4305,12.5695,12.5695,1.72352,0.0972658,13.3015,-0.0141668,-0.224869,0.189563,1,0,3.325,-0.0175,-1.015,-0.052826,-0.242536,-0.82411,-0.23856,0.09282,0.39214
-2.5962,0,0,17.5962,17.5962,12.4038,12.4038,1.84179,0.202685,13.2447,0.0625946,-0.0921304,0.0836358,0,0,3.2375,-4.48,-0.9975,0.026108,-0.111996,-0.929152,-0.23856,0.09282,0.39214
-2.75851,0,0,17.7585,17.7585,12.2415,12.2415,1.95762,0.305168,13.1887,0.0608059,-0.0901102,0.0835609,0,0,3.2375,-4.48,-0.9975,0.026108,-0.111996,-0.929152,-0.23856,0.09282,0.39214
-2.62193,0,0,17.6219,17.6219,12.3781,12.3781,1.85996,0.458118,13.1312,0.116571,0.101512,-0.0286521,0,0,3.1325,-0.105,-0.7175,0.08479,0.08113,-1.04054,-0.23856,0.09282,0.39214
-2.62312,0,0,17.6231,17.6231,12.3769,12.3769,1.86072,0.457716,13.132,-0.0539878,-0.234201,0.146795,1,0,3.8325,-0.175,-0.7,-0.086498,-0.254248,-0.866444,-0.23856,0.09282,0.39214
-2.62466,0,0,17.6247,17.6247,12.3753,12.3753,1.86172,0.45768,13.1326,-0.0539871,-0.234183,0.146794,1,0,3.9725,0.035,-0.84,-0.086498,-0.254248,-0.866444,-0.23856,0.09282,0.39214
-2.62331,0,0,17.6233,17.6233,12.3767,12.3767,1.86066,0.457856,13.1331,0.0903348,0.117889,-0.180371,1,0,2.8175,0.1575,-0.8925,0.058438,0.097478,-1.19109,-0.24024,0.09898,0.3955
-2.62372,0,0,17.6237,17.6237,12.3763,12.3763,1.86084,0.457286,13.1335,0.0903447,0.117893,-0.180371,1,0,3.5175,-0.28,-0.8925,0.058438,0.097478,-1.19109,-0.24024,0.09898,0.3955
-2.61911,0,0,17.6191,17.6191,12.3809,12.3809,1.85745,0.343714,13.2217,-0.0750804,-0.00209442,0.0322228,0,0,3.745,0,-1.26,-0.109678,-0.022326,-0.980148,-0.24024,0.09898,0.3955
-2.65095,0,0,17.651,17.651,12.349,12.349,1.8801,0.480817,13.1476,0.0983166,-0.016233,-0.0607564,0,0,3.045,0.245,-1.4175,0.066856,-0.036844,-1.07238,-0.24024,0.09898,0.3955
-2.68401,0,0,17.684,17.684,12.316,12.316,1.90361,0.614334,13.0737,0.0959864,-0.0158236,-0.0607922,0,0,3.92,0.175,-1.6625,0.066856,-0.036844,-1.07238,-0.24024,0.09898,0.3955
-2.63498,0,0,17.635,17.635,12.365,12.365,1.86849,0.632977,13.0792,0.0160879,0.0343683,-0.0423333,0,0,3.815,0.1925,-1.47,-0.013054,0.013908,-1.05408,-0.24024,0.09898,0.3955
-2.58743,0,0,17.5874,17.5874,12.4126,12.4126,1.83443,0.651365,13.0847,0.015767,0.0337741,-0.0423177,0,0,4.06,0.28,-1.4875,-0.013054,0.013908,-1.05408,-0.24024,0.09898,0.3955
-2.73744,0,0,17.7374,17.7374,12.2626,12.2626,1.94147,0.567523,13.1366,-0.0636793,-0.100285,0.0289465,0,0,4.06,0.1225,-1.5225,-0.094306,-0.121878,-0.98332,-0.24024,0.09898,0.3955
-2.88336,0,0,17.8834,17.8834,12.1166,12.1166,2.04559,0.486798,13.1978,-0.0622704,-0.0984689,0.0288962,0,0,3.325,0.105,-1.61,-0.094306,-0.121878,-0.98332,-0.23786,0.09296,0.39494
-3.01314,0,0,18.0131,18.0131,11.9869,11.9869,2.13817,0.426359,13.248,-0.0476092,-0.0865951,0.0297063,0,0,3.255,0.0525,-1.4525,-0.080642,-0.11163,-0.982466,-0.23786,0.09296,0.39494
-3.14041,0,0,18.1404,18.1404,11.8596,11.8596,2.22896,0.366943,13.2976,-0.0465722,-0.0850115,0.0296531,0,0,3.1675,-0.14,-1.4875,-0.080642,-0.11163,-0.982466,-0.23786,0.09296,0.39494
-3.11541,0,0,18.1154,18.1154,11.8846,11.8846,2.21098,0.372422,13.3202,0.00532805,0.015918,-0.0232033,0,0,3.0975,0.0525,-1.5225,-0.028426,-0.010492,-1.03493,-0.23786,0.09296,0.39494
-3.09025,0,0,18.0903,18.0903,11.9097,11.9097,2.1929,0.377339,13.343,0.00524223,0.0156027,-0.0231917,0,0,2.8525,-0.21,-1.3475,-0.028426,-0.010492,-1.03493,-0.23786,0.09296,0.39494
-3.07053,0,0,18.0705,18.0705,11.9295,11.9295,2.1787,0.407073,13.3493,0.0223387,0.0147441,-0.0159318,0,0,3.465,-0.315,-1.3825,-0.010736,-0.011102,-1.02773,-0.23786,0.09296,0.39494
-3.05172,0,0,18.0517,18.0517,11.9483,11.9483,2.16515,0.436978,13.3556,0.0218168,0.0145077,-0.0159267,0,0,3.71,0.21,-1.3125,-0.010736,-0.011102,-1.02773,-0.23786,0.09296,0.39494
-2.96437,0,0,17.9644,17.9644,12.0356,12.0356,2.10264,0.344299,13.4461,-0.0577181,0.0518879,0.0271569,0,0,3.5,0.35,-1.155,-0.092232,0.027328,-0.985028,-0.23786,0.09296,0.39494
-2.8812,0,0,17.8812,17.8812,12.1188,12.1188,2.04312,0.252247,13.5427,-0.0561116,0.0508501,0.0272028,0,0,4.5325,-0.42,-1.33,-0.092232,0.027328,-0.985028,-0.2387,0.08848,0.39172
-2.71149,0,0,17.7115,17.7115,12.2885,12.2885,1.9218,0.215219,13.6135,-0.0152535,0.11456,-0.0394823,0,0,4.13,-0.3325,-1.2425,-0.05185,0.093086,-1.05127,-0.2387,0.08848,0.39172
-2.54211,0,0,17.5421,17.5421,12.4579,12.4579,1.80072,0.179851,13.6843,-0.0146363,0.112448,-0.0394115,0,0,2.975,-0.035,-1.0675,-0.05185,0.093086,-1.05127,-0.2387,0.08848,0.39172
-2.77898,0,0,17.779,17.779,12.221,12.221,1.9698,-0.00275164,13.8101,-0.143261,-0.173188,0.0010693,0,0,3.3425,-0.7,-0.98,-0.18422,-0.1952,-1.01101,-0.2387,0.08848,0.39172
-3.01126,0,0,18.0113,18.0113,11.9887,11.9887,2.1356,-0.18069,13.9339,-0.140156,-0.170296,0.000960686,0,0,3.0975,-0.455,-1.015,-0.18422,-0.1952,-1.01101,-0.2387,0.08848,0.39172
-3.00909,0,0,18.0091,18.0091,11.9909,11.9909,2.13394,-0.181191,13.934,-0.0248569,0.0249558,-0.102561,1,0,2.485,-0.245,-1.085,-0.068442,-0.000122,-1.11374,-0.2387,0.08848,0.39172
-3.00855,0,0,18.0085,18.0085,11.9915,11.9915,2.13344,-0.181794,13.9345,-0.0248464,0.024947,-0.102561,1,0,3.1325,-0.2975,-0.875,-0.068442,-0.000122,-1.11374,-0.2387,0.08848,0.39172
-3.03853,0,0,18.0385,18.0385,11.9615,11.9615,2.15474,-0.0654118,13.8938,0.0752918,-0.0108309,0.0461975,0,0,2.87,-0.4025,-0.8225,0.03416,-0.036234,-0.966118,-0.2387,0.08848,0.39172
-3.06823,0,0,18.0682,18.0682,11.9318,11.9318,2.17583,0.0482401,13.8608,0.0733082,-0.0104629,0.0461839,0,0,3.1325,-0.1225,-1.0325,0.03416,-0.036234,-0.966118,-0.23716,0.08386,0.39452
-2.98283,0,0,17.9828,17.9828,12.0172,12.0172,2.11472,0.0993494,13.877,0.0404654,0.0591825,-0.00283374,0,0,2.9925,0.35,-1.015,0.002074,0.034404,-1.0148,-0.23716,0.08386,0.39452
-2.89984,0,0,17.8998,17.8998,12.1002,12.1002,2.05534,0.148782,13.8934,0.0396027,0.0581467,-0.00279789,0,0,3.36,0.035,-0.805,0.002074,0.034404,-1.0148,-0.23716,0.08386,0.39452
-2.76696,0,0,17.767,17.767,12.233,12.233,1.96031,0.139048,13.9509,0.00150458,0.0876316,0.00930959,0,0,3.815,0.245,-1.225,-0.036356,0.065514,-1.00284,-0.23716,0.08386,0.39452
-2.63656,0,0,17.6366,17.6366,12.3634,12.3634,1.86707,0.129764,14.0082,0.00166662,0.0860052,0.00936431,0,0,3.815,0.245,-1.225,-0.036356,0.065514,-1.00284,-0.23716,0.08386,0.39452
-2.58854,0,0,17.5885,17.5885,12.4115,12.4115,1.83267,0.114004,14.0616,-0.00802015,0.0306923,-0.0289757,0,0,3.3425,0.035,-1.295,-0.04636,0.010858,-1.0409,-0.23716,0.08386,0.39452
-2.54144,0,0,17.5414,17.5414,12.4586,12.4586,1.79893,0.098715,14.1147,-0.00775331,0.0301038,-0.0289565,0,0,3.3425,0.035,-1.295,-0.04636,0.010858,-1.0409,-0.23716,0.08386,0.39452
-2.56679,0,0,17.5668,17.5668,12.4332,12.4332,1.81694,0.141322,14.1241,0.0298925,-0.0195319,-0.0835571,0,0,2.485,0.4025,-1.3125,-0.007808,-0.03904,-1.09507,-0.23716,0.08386,0.39452
-2.59159,0,0,17.5916,17.5916,12.4084,12.4084,1.83456,0.182882,14.1315,0.0291672,-0.0192247,-0.083569,0,0,2.485,0.4025,-1.3125,-0.007808,-0.03904,-1.09507,-0.23772,0.08512,0.39074
-2.47965,0,0,17.4796,17.4796,12.5204,12.5204,1.75451,0.0975884,14.2312,-0.0521974,0.0674323,0.00291124,0,0,2.6775,0.0875,-1.435,-0.091012,0.048922,-1.00931,-0.23772,0.08512,0.39074
-2.36992,0,0,17.3699,17.3699,12.6301,12.6301,1.67604,0.0145813,14.3304,-0.0507487,0.0660635,0.00295365,0,0,2.6775,0.0875,-1.435,-0.091012,0.048922,-1.00931,-0.23772,0.08512,0.39074
-2.3386,0,0,17.3386,17.3386,12.6614,12.6614,1.65358,0.0196032,14.3675,0.00553305,0.0203626,-0.0657632,0,0,3.2725,0.2975,-1.33,-0.034404,0.00366,-1.0775,-0.23772,0.08512,0.39074
-2.30786,0,0,17.3079,17.3079,12.6921,12.6921,1.63153,0.024553,14.4044,0.00544666,0.019978,-0.0657522,0,0,3.2725,0.2975,-1.33,-0.034404,0.00366,-1.0775,-0.23772,0.08512,0.39074
-2.23802,0,0,17.238,17.238,12.762,12.762,1.58157,0.114608,14.3902,0.0693557,0.052691,-0.0360991,0,0,3.0975,0.35,-1.5225,0.031354,0.03721,-1.0481,-0.23772,0.08512,0.39074
-2.16927,0,0,17.1693,17.1693,12.8307,12.8307,1.53238,0.202576,14.376,0.0678204,0.0518327,-0.03608,0,0,3.0975,0.35,-1.5225,0.031354,0.03721,-1.0481,-0.23772,0.08512,0.39074
-2.58515,0,0,17.5852,17.5852,12.4148,12.4148,1.82934,0.201874,14.3682,-0.0258328,-0.265768,0.0756512,0,0,3.36,-0.28,-1.2425,-0.062708,-0.285236,-0.937082,-0.23772,0.08512,0.39074
-2.99342,0,0,17.9934,17.9934,12.0066,12.0066,2.12084,0.200192,14.3593,-0.0258035,-0.260683,0.0754759,0,0,3.36,-0.28,-1.2425,-0.062708,-0.285236,-0.937082,-0.2401,0.08568,0.38934
-3.15182,0,0,18.1518,18.1518,11.8482,11.8482,2.23387,0.217227,14.3629,0.00135497,-0.0956726,0.0741704,0,0,2.5725,0.0525,-1.4875,-0.035136,-0.122366,-0.938302,-0.2401,0.08568,0.38934
-2.89069,0,0,17.8907,17.8907,12.1093,12.1093,2.04723,0.107945,14.4868,-0.0642838,0.176835,-0.072503,0,0,3.0975,0.14,-1.2425,-0.102968,0.15311,-1.08397,-0.2401,0.08568,0.38934
-2.63385,0,0,17.6339,17.6339,12.3661,12.3661,1.86368,0.00124853,14.6104,-0.0624216,0.173633,-0.0723919,0,0,2.8525,-0.1225,-1.3125,-0.102968,0.15311,-1.08397,-0.2401,0.08568,0.38934
-2.7395,0,0,17.7395,17.7395,12.2605,12.2605,1.93904,-0.0208455,14.646,-0.0221886,-0.0729698,-0.00518282,0,0,3.1325,-0.0875,-1.33,-0.062952,-0.09455,-1.01724,-0.2401,0.08568,0.38934
-2.84274,0,0,17.8427,17.8427,12.1573,12.1573,2.01267,-0.0420377,14.6816,-0.0218188,-0.0716853,-0.00522734,0,0,2.94,0.2275,-1.1725,-0.062952,-0.09455,-1.01724,-0.2401,0.08568,0.38934
-2.82045,0,0,17.8204,17.8204,12.1796,12.1796,1.99664,0.0601892,14.6518,0.0772302,0.0196301,-0.0637413,0,0,2.59,-0.14,-1.1725,0.038308,-0.00305,-1.07531,-0.2401,0.08568,0.38934
-2.80053,0,0,17.8005,17.8005,12.1995,12.1995,1.98231,0.159594,14.6222,0.0754952,0.01938,-0.063736,0,0,3.4825,-0.3325,-1.155,0.038308,-0.00305,-1.07531,-0.2401,0.08568,0.38934
-2.7686,0,0,17.7686,17.7686,12.2314,12.2314,1.9594,0.162674,14.6534,0.00461531,0.0211787,-0.0257313,0,0,3.3775,-0.1925,-1.1025,-0.032818,-0.000854,-1.03761,-0.2401,0.08568,0.38934
-2.73821,0,0,17.7382,17.7382,12.2618,12.2618,1.93759,0.166865,14.676,0.00454216,0.0207982,-0.0257185,0,0,3.7275,0.3675,-1.085,-0.032818,-0.000854,-1.03761,-0.2373,0.09128,0.39186
-2.72054,0,0,17.7205,17.7205,12.2795,12.2795,1.92486,0.200326,14.6785,0.0232744,0.0149583,0.0323188,0,0,3.535,0.1925,-1.015,-0.01342,-0.006466,-0.980026,-0.2373,0.09128,0.39186
-2.70207,0,0,17.7021,17.7021,12.2979,12.2979,1.91157,0.232505,14.681,0.0227128,0.0147264,0.0323244,0,0,3.115,-0.0875,-0.9975,-0.01342,-0.006466,-0.980026,-0.2373,0.09128,0.39186
-2.63425,0,0,17.6343,17.6343,12.3657,12.3657,1.86303,0.365829,14.6235,0.0949781,0.0538147,0.0247174,0,0,3.255,-0.175,-1.2075,0.061488,0.033428,-0.98759,-0.2373,0.09128,0.39186
-2.56598,0,0,17.566,17.566,12.434,12.434,1.81417,0.496732,14.5661,0.0926934,0.0529618,0.0247275,0,0,2.7125,0.245,-1.33,0.061488,0.033428,-0.98759,-0.2373,0.09128,0.39186
-2.67316,0,0,17.6732,17.6732,12.3268,12.3268,1.89062,0.455326,14.5989,-0.0351158,-0.0738153,0.0119038,0,0,3.22,0.3325,-1.1725,-0.067588,-0.09455,-1.00028,-0.2373,0.09128,0.39186
-2.78007,0,0,17.7801,17.7801,12.2199,12.2199,1.96688,0.413775,14.6314,-0.0343906,-0.072485,0.0118645,0,0,3.8675,-0.2625,-1.085,-0.067588,-0.09455,-1.00028,-0.2373,0.09128,0.39186
-2.80981,0,0,17.8098,17.8098,12.1902,12.1902,1.98801,0.435923,14.6316,0.015275,-0.0211896,-0.0551581,0,0,3.4125,-0.21,-1.1025,-0.017324,-0.043676,-1.06677,-0.2373,0.09128,0.39186
-2.84037,0,0,17.8404,17.8404,12.1596,12.1596,2.00973,0.457404,14.6343,0.0149001,-0.0208108,-0.0551742,0,0,3.9725,-0.315,-1.26,-0.017324,-0.043676,-1.06677,-0.24038,0.08918,0.39354
-2.94939,0,0,17.9494,17.9494,12.0506,12.0506,2.0875,0.394799,14.6818,-0.046208,-0.0668394,0.0867909,0,0,3.955,-0.0525,-1.1375,-0.079788,-0.091012,-0.925858,-0.24038,0.08918,0.39354
-3.05734,0,0,18.0573,18.0573,11.9427,11.9427,2.16448,0.333584,14.7291,-0.0451396,-0.0654964,0.0867479,0,0,4.27,-0.0525,-0.9275,-0.079788,-0.091012,-0.925858,-0.24038,0.08918,0.39354
-3.1282,0,0,18.1282,18.1282,11.8718,11.8718,2.21498,0.33204,14.743,-0.00526533,-0.0427551,0.0447889,0,0,3.9725,0.1225,-1.05,-0.039772,-0.069174,-0.96746,-0.24038,0.08918,0.39354
-3.19644,0,0,18.1964,18.1964,11.8036,11.8036,2.2636,0.330939,14.7566,-0.00524612,-0.0419071,0.0447559,0,0,3.4475,0.42,-1.19,-0.039772,-0.069174,-0.96746,-0.24038,0.08918,0.39354
-3.2965,0,0,18.2965,18.2965,11.7035,11.7035,2.33495,0.415326,14.7121,0.0554817,-0.0649666,-0.0343596,0,0,3.36,-0.245,-1.295,0.022692,-0.093452,-1.04591,-0.24038,0.08918,0.39354
-3.39637,0,0,18.3964,18.3964,11.6036,11.6036,2.40616,0.498031,14.6677,0.0540383,-0.0637253,-0.0344225,0,0,4.13,0.0875,-1.505,0.022692,-0.093452,-1.04591,-0.24038,0.08918,0.39354
-3.48195,0,0,18.482,18.482,11.518,11.518,2.46715,0.865318,14.4467,0.257677,-0.0331103,0.0050455,0,0,3.57,0.5075,-0.945,0.23363,-0.063928,-1.00662,-0.24038,0.08918,0.39354
-3.56441,0,0,18.5644,18.5644,11.4356,11.4356,2.52592,1.22231,14.2273,0.251448,-0.0320907,0.00488743,0,0,3.5,-0.315,-1.2425,0.23363,-0.063928,-1.00662,-0.2401,0.0889,0.39326
-3.49091,0,0,18.4909,18.4909,11.5091,11.5091,2.47328,1.08289,14.3294,-0.0956339,0.0406362,-0.0482603,0,0,3.7975,-0.56,-1.295,-0.117364,0.009638,-1.05945,-0.2401,0.0889,0.39326
-3.41837,0,0,18.4184,18.4184,11.5816,11.5816,2.42134,0.948377,14.4317,-0.0932866,0.0397323,-0.04818,0,0,3.535,0.245,-0.8925,-0.117364,0.009638,-1.05945,-0.2401,0.0889,0.39326
-3.392,0,0,18.392,18.392,11.608,11.608,2.40238,0.781694,14.5501,-0.118684,0.00471962,-0.0411142,0,0,3.3425,-0.175,-1.2425,-0.14579,-0.02501,-1.05249,-0.2401,0.0889,0.39326
-3.36642,0,0,18.3664,18.3664,11.6336,11.6336,2.38398,0.619203,14.6676,-0.115848,0.00440023,-0.0410661,0,0,3.3425,-0.175,-1.2425,-0.14579,-0.02501,-1.05249,-0.2401,0.0889,0.39326
-3.52569,0,0,18.5257,18.5257,11.4743,11.4743,2.49761,0.689874,14.6224,0.0359904,-0.0891222,0.0939558,0,0,3.4825,-0.315,-1.015,0.00793,-0.120414,-0.918416,-0.2401,0.0889,0.39326
-3.68183,0,0,18.6818,18.6818,11.3182,11.3182,2.609,0.75853,14.5779,0.0347923,-0.0871809,0.093854,0,0,3.4825,-0.315,-1.015,0.00793,-0.120414,-0.918416,-0.2401,0.0889,0.39326
-3.69818,0,0,18.6982,18.6982,11.3018,11.3018,2.62054,0.602321,14.6867,-0.117619,-0.0267697,-0.0792343,0,0,3.7275,-0.035,-1.05,-0.147864,-0.060268,-1.09019,-0.2401,0.0889,0.39326
-3.71439,0,0,18.7144,18.7144,11.2856,11.2856,2.63197,0.449628,14.7975,-0.114954,-0.0265693,-0.079219,0,0,3.7275,-0.035,-1.05,-0.147864,-0.060268,-1.09019,-0.24178,0.08666,0.3885
-3.8822,0,0,18.8822,18.8822,11.1178,11.1178,2.75169,0.474308,14.7837,0.00853077,-0.121695,-0.0618619,0,0,3.5525,-0.28,-1.3475,-0.023424,-0.15738,-1.07287,-0.24178,0.08666,0.3885
-4.04686,0,0,19.0469,19.0469,10.9531,10.9531,2.86915,0.498088,14.7701,0.00811574,-0.119648,-0.061966,0,0,3.5525,-0.28,-1.3475,-0.023424,-0.15738,-1.07287,-0.24178,0.08666,0.3885
-4.02454,0,0,19.0245,19.0245,10.9755,10.9755,2.85306,0.585403,14.7403,0.0605315,0.0190512,-0.0584008,0,0,3.3425,4.235,-1.6975,0.030744,-0.018544,-1.06933,-0.24178,0.08666,0.3885
-4.0024,0,0,19.0024,19.0024,10.9976,10.9976,2.83709,0.670593,14.7106,0.0590448,0.0187721,-0.0584033,0,0,3.3425,4.235,-1.6975,0.030744,-0.018544,-1.06933,-0.24178,0.08666,0.3885
-4.00221,0,0,19.0022,19.0022,10.9978,10.9978,2.8368,0.671159,14.7103,-0.0251547,0.230657,-0.147418,1,0,3.255,0.3675,-1.365,-0.053802,0.193126,-1.15766,-0.24178,0.08666,0.3885
-4.20895,0,0,19.209,19.209,10.791,10.791,2.98431,0.690347,14.6933,2.24209e-05,-0.123382,0.0860496,0,0,3.4475,0.1575,-1.3125,-0.028182,-0.163114,-0.925858,-0.24178,0.08666,0.3885
-4.41318,0,0,19.4132,19.4132,10.5868,10.5868,3.13002,0.708554,14.6761,-0.000295318,-0.120843,0.0859101,0,0,3.99,0.0525,-1.575,-0.028182,-0.163114,-0.925858,-0.24178,0.08666,0.3885
-4.41363,0,0,19.4136,19.4136,10.5864,10.5864,3.13018,0.708371,14.6758,0.14792,0.0796915,-0.097775,1,0,3.5,-0.07,-1.3125,0.120658,0.03721,-1.10813,-0.23632,0.0917,0.38962
-4.39075,0,0,19.3907,19.3907,10.6093,10.6093,3.11367,0.545337,14.7866,-0.107999,0.00722863,0.0418183,0,0,4.165,0.1575,-1.2425,-0.139202,-0.034892,-0.969656,-0.23632,0.0917,0.38962
-4.36912,0,0,19.3691,19.3691,10.6309,10.6309,3.09805,0.385607,14.8966,-0.105211,0.00695776,0.0418557,0,0,4.375,-0.315,-1.225,-0.139202,-0.034892,-0.969656,-0.23632,0.0917,0.38962
-4.23997,0,0,19.24,19.24,10.76,10.76,3.00564,0.555753,14.8156,0.120698,0.0982843,0.0417942,0,0,3.43,0.1225,-1.4175,0.090646,0.05795,-0.969778,-0.23632,0.0917,0.38962
-4.16391,0,0,19.1639,19.1639,10.8361,10.8361,2.95115,0.250384,15.0225,-0.208908,0.0298006,0.018152,0,0,3.2375,0.35,-0.9975,-0.245708,-0.009516,-0.993324,-0.23632,0.0917,0.38962
-3.8958,0,0,18.8958,18.8958,11.1042,11.1042,2.7595,0.272235,15.0514,0.0314952,0.187178,-0.0279117,0,0,3.045,0.2975,-0.9275,-0.003904,0.151036,-1.0392,-0.23632,0.0917,0.38962
-3.89555,0,0,18.8955,18.8955,11.1045,11.1045,2.75917,0.216199,15.0999,-0.0399322,-0.00468819,-0.0114322,0,0,3.2375,0.4025,-0.945,-0.076616,-0.040626,-1.02285,-0.23632,0.0917,0.38962
-3.84602,0,0,18.846,18.846,11.154,11.154,2.72365,-0.159296,15.3523,-0.241119,0.00959215,0.102451,0,0,3.0975,0.245,-0.8225,-0.285236,-0.025742,-0.909876,-0.23632,0.0917,0.38962
-3.6971,0,0,18.6971,18.6971,11.3029,11.3029,2.61713,0.0489254,15.2497,0.165261,0.118016,-0.0147517,0,0,2.9925,-4.41,-0.5775,0.126514,0.084424,-1.02626,-0.23212,0.09394,0.3927
-3.67987,0,0,18.6799,18.6799,11.3201,11.3201,2.60469,-0.142577,15.3856,-0.142279,-0.00396168,-0.0580224,0,0,3.955,-0.2625,-0.5425,-0.185684,-0.03721,-1.06921,-0.23212,0.09394,0.3927
-3.66382,0,0,18.6638,18.6638,11.3362,11.3362,2.59309,-0.329103,15.5203,-0.139023,-0.00416456,-0.0580267,0,0,4.165,-0.14,-0.595,-0.185684,-0.03721,-1.06921,-0.23212,0.09394,0.3927
-3.82727,0,0,18.8273,18.8273,11.1727,11.1727,2.70969,-0.421383,15.5758,-0.070231,-0.106673,0.0635877,0,0,4.2525,-0.21,-0.7525,-0.118218,-0.141642,-0.948428,-0.23212,0.09394,0.3927
-3.98788,0,0,18.9879,18.9879,11.0121,11.0121,2.82426,-0.510467,15.6307,-0.0686763,-0.104676,0.0634785,0,0,4.2175,0.4725,-0.6825,-0.118218,-0.141642,-0.948428,-0.23212,0.09394,0.3927
-4.08873,0,0,19.0887,19.0887,10.9113,10.9113,2.89614,-0.461901,15.6068,0.0277862,-0.0639758,0.01117,0,0,3.0275,0.0525,-0.6825,-0.020496,-0.102236,-1.00028,-0.23212,0.09394,0.3927
-4.18858,0,0,19.1886,19.1886,10.8114,10.8114,2.96731,-0.414431,15.5832,0.0269577,-0.0627351,0.0111128,0,0,3.43,0.21,-0.7175,-0.020496,-0.102236,-1.00028,-0.23212,0.09394,0.3927
-4.20622,0,0,19.2062,19.2062,10.7938,10.7938,2.97974,-0.323771,15.5415,0.0616996,-0.00572883,0.010497,0,0,2.695,0.28,-0.8225,0.015982,-0.045506,-1.00089,-0.23212,0.09394,0.3927
-4.22275,0,0,19.2228,19.2228,10.7772,10.7772,2.99139,-0.235787,15.5056,0.060164,-0.00552544,0.0104939,0,0,2.4325,-0.1575,-1.015,0.015982,-0.045506,-1.00089,-0.23618,0.08974,0.39312
-4.19261,0,0,19.1926,19.1926,10.8074,10.8074,2.9697,-0.220999,15.5191,0.0130125,0.0203538,-0.0364517,0,0,3.325,-0.3325,-1.12,-0.03111,-0.019276,-1.04749,-0.23618,0.08974,0.39312
-4.16377,0,0,19.1638,19.1638,10.8362,10.8362,2.94895,-0.206785,15.5328,0.0127644,0.0199921,-0.0364321,0,0,3.64,-0.4725,-0.9275,-0.03111,-0.019276,-1.04749,-0.23618,0.08974,0.39312
-4.02771,0,0,19.0277,19.0277,10.9723,10.9723,2.85161,-0.389668,15.6808,-0.111361,0.0770375,0.0701107,0,0,3.6225,-0.175,-1.05,-0.158966,0.039406,-0.94184,-0.23618,0.08974,0.39312
-3.8948,0,0,18.8948,18.8948,11.1052,11.1052,2.75652,-0.568042,15.8275,-0.108248,0.0753788,0.0701659,0,0,3.78,-0.2975,-1.4,-0.158966,0.039406,-0.94184,-0.23618,0.08974,0.39312
-3.71681,0,0,18.7168,18.7168,11.2832,11.2832,2.62924,-0.455255,15.8016,0.0964311,0.134713,-0.0574557,0,0,3.71,0,-1.54,0.048556,0.100894,-1.0686,-0.23618,0.08974,0.39312
-3.54052,0,0,18.5405,18.5405,11.4595,11.4595,2.50319,-0.34519,15.7752,0.0945101,0.132515,-0.0573438,0,0,3.2025,-0.1925,-1.68,0.048556,0.100894,-1.0686,-0.23618,0.08974,0.39312
-3.76632,0,0,18.7663,18.7663,11.2337,11.2337,2.66433,-0.185527,15.6684,0.0968259,-0.13604,0.0395487,0,0,3.3775,-0.35,-1.8375,0.05368,-0.17019,-0.97234,-0.23618,0.08974,0.39312
-3.98829,0,0,18.9883,18.9883,11.0117,11.0117,2.82273,-0.0296384,15.5629,0.0941051,-0.133278,0.0394214,0,0,3.7275,-0.0525,-1.995,0.05368,-0.17019,-0.97234,-0.23618,0.08974,0.39312
-4.02452,0,0,19.0245,19.0245,10.9755,10.9755,2.84846,-0.00975583,15.5607,0.0121197,-0.0252363,-0.0279764,0,0,3.2375,-0.07,-2.1,-0.028304,-0.062708,-1.0392,-0.23674,0.09002,0.38682
-4.06256,0,0,19.0626,19.0626,10.9374,10.9374,2.87548,0.0100748,15.5582,0.0117736,-0.0247653,-0.028,0,0,4.2525,0.21,-2.3275,-0.028304,-0.062708,-1.0392,-0.23674,0.09002,0.38682
-3.93439,0,0,18.9344,18.9344,11.0656,11.0656,2.78378,0.127825,15.5136,0.0869834,0.0955186,0.0424031,0,0,4.27,-0.07,-2.3275,0.049288,0.059048,-0.969412,-0.23674,0.09002,0.38682
-3.80671,0,0,18.8067,18.8067,11.1933,11.1933,2.69243,0.243463,15.4692,0.0849652,0.0939258,0.0424727,0,0,3.6575,0.245,-2.205,0.049288,0.059048,-0.969412,-0.23674,0.09002,0.38682
-3.74855,0,0,18.7486,18.7486,11.2514,11.2514,2.65075,0.0966969,15.5783,-0.0955522,0.0303042,0.0462027,0,0,3.9725,0.1575,-2.1175,-0.134566,-0.003782,-0.965752,-0.23674,0.09002,0.38682
-3.689,0,0,18.689,18.689,11.311,11.311,2.60807,-0.0466787,15.6872,-0.0930499,0.0295601,0.046238,0,0,2.87,-0.0175,-1.8725,-0.134566,-0.003782,-0.965752,-0.23674,0.09002,0.38682
-3.65755,0,0,18.6576,18.6576,11.3424,11.3424,2.58547,-0.208096,15.8059,-0.11125,0.00913705,0.0112092,0,0,3.1675,0.14,-1.7675,-0.155672,-0.02379,-1.00052,-0.23674,0.09002,0.38682
-3.62674,0,0,18.6267,18.6267,11.3733,11.3733,2.56333,-0.365642,15.9242,-0.1085,0.0087503,0.0112129,0,0,3.0625,0.0525,-1.505,-0.155672,-0.02379,-1.00052,-0.23674,0.09002,0.38682
-3.57828,0,0,18.5783,18.5783,11.4217,11.4217,2.52857,-0.386019,15.963,-0.0124136,0.0301271,-0.0454418,0,0,3.115,0.3675,-1.645,-0.059536,-0.00183,-1.05676,-0.24304,0.08806,0.38836
-3.53385,0,0,18.5339,18.5339,11.4661,11.4661,2.49671,-0.406391,16.0024,-0.0120581,0.0295714,-0.0454199,0,0,4.3575,0.0525,-1.155,-0.059536,-0.00183,-1.05676,-0.24304,0.08806,0.38836
-3.55815,0,0,18.5581,18.5581,11.4419,11.4419,2.51393,-0.370592,15.9996,0.0221835,-0.00762113,0.0845278,0,0,4.095,0.105,-0.8925,-0.024522,-0.039284,-0.92781,-0.24304,0.08806,0.38836
-3.5819,0,0,18.5819,18.5819,11.4181,11.4181,2.53076,-0.335716,15.9968,0.0215748,-0.0073275,0.0845186,0,0,4.095,0.105,-0.8925,-0.024522,-0.039284,-0.92781,-0.24304,0.08806,0.38836
-3.65134,0,0,18.6513,18.6513,11.3487,11.3487,2.58022,-0.304383,15.9906,0.0176264,-0.0417596,0.0244843,0,0,3.7625,-0.1925,-0.385,-0.027938,-0.074542,-0.987346,-0.24304,0.08806,0.38836
-3.71942,0,0,18.7194,18.7194,11.2806,11.2806,2.62871,-0.273944,15.9844,0.0170951,-0.0409141,0.0244485,0,0,3.7625,-0.1925,-0.385,-0.027938,-0.074542,-0.987346,-0.24304,0.08806,0.38836
-3.43396,0,0,18.434,18.434,11.566,11.566,2.42467,-0.231175,16.0126,0.0518225,0.207964,-0.0646518,0,0,2.66,0.1575,-0.0175,0.007686,0.177632,-1.07592,-0.24304,0.08806,0.38836
-3.34298,0,0,18.343,18.343,11.657,11.657,2.35957,-0.308043,16.091,-0.0430526,0.053682,0.0941158,0,0,2.94,-0.14,-0.175,-0.088938,0.024644,-0.918416,-0.24304,0.08806,0.38836
-3.26864,0,0,18.2686,18.2686,11.7314,11.7314,2.30634,-0.3072,16.1221,0.0054055,0.0509218,-0.0570729,0,0,3.325,0.0875,-0.0175,-0.04026,0.022814,-1.06848,-0.2373,0.08848,0.39354
-3.18847,0,0,18.1885,18.1885,11.8115,11.8115,2.24896,-0.414683,16.2212,-0.0710769,0.0452799,0.00197034,0,0,2.8525,-0.0875,0.0175,-0.11895,0.018178,-1.00992,-0.2373,0.08848,0.39354
-3.11299,0,0,18.113,18.113,11.887,11.887,2.19493,-0.519386,16.3195,-0.0692495,0.044337,0.00199201,0,0,4.06,-0.07,-0.035,-0.11895,0.018178,-1.00992,-0.2373,0.08848,0.39354
-3.11261,0,0,18.1126,18.1126,11.8874,11.8874,2.19453,-0.51894,16.3215,0.137754,0.227764,-0.10694,1,0,3.2025,0.35,-0.035,0.088938,0.201422,-1.11801,-0.2373,0.08848,0.39354
-3.11279,0,0,18.1128,18.1128,11.8872,11.8872,2.19455,-0.518396,16.3232,0.137745,0.227765,-0.10694,1,0,3.43,0.4025,-0.175,0.088938,0.201422,-1.11801,-0.2373,0.08848,0.39354
-3.1684,0,0,18.1684,18.1684,11.8316,11.8316,2.23415,-0.548997,16.36,-0.0235401,-0.0344836,0.0542139,0,0,4.2,0.0875,-0.28,-0.073566,-0.061244,-0.958066,-0.2373,0.08848,0.39354
-3.21872,0,0,18.2187,18.2187,11.7813,11.7813,2.26997,-0.578479,16.396,-0.0230255,-0.0338592,0.0541842,0,0,2.45,0.35,-0.5075,-0.073566,-0.061244,-0.958066,-0.2373,0.08848,0.39354
-3.12144,0,0,18.1214,18.1214,11.8786,11.8786,2.20036,-0.662825,16.4845,-0.0558125,0.0582312,-0.0244714,0,0,2.415,0.3325,-0.7175,-0.10797,0.031964,-1.03615,-0.2373,0.08848,0.39354
-3.02867,0,0,18.0287,18.0287,11.9713,11.9713,2.13399,-0.74604,16.5702,-0.0543602,0.0570729,-0.0244454,0,0,3.395,-0.455,-0.8575,-0.10797,0.031964,-1.03615,-0.23744,0.08988,0.39788
-3.02817,0,0,18.0282,18.0282,11.9718,11.9718,2.13351,-0.745732,16.5703,0.169776,0.0102901,-0.10473,1,0,3.15,0.2275,-1.12,0.11712,-0.014762,-1.11581,-0.23744,0.08988,0.39788
-3.02755,0,0,18.0275,18.0275,11.9725,11.9725,2.13296,-0.745097,16.5696,0.169764,0.0102804,-0.10473,1,0,3.0975,0.4025,-1.575,0.11712,-0.014762,-1.11581,-0.23744,0.08988,0.39788
-3.04619,0,0,18.0462,18.0462,11.9538,11.9538,2.14616,-0.671342,16.5424,0.0525799,-0.00768562,-0.0214865,0,0,3.4475,-0.0875,-1.925,0.000732,-0.03294,-1.03322,-0.23744,0.08988,0.39788
-3.06368,0,0,18.0637,18.0637,11.9363,11.9363,2.15853,-0.598877,16.5151,0.0513153,-0.0074693,-0.0214806,0,0,3.2025,0.21,-2.1525,0.000732,-0.03294,-1.03322,-0.23744,0.08988,0.39788
-3.02259,0,0,18.0226,18.0226,11.9774,11.9774,2.12907,-0.823195,16.6787,-0.169518,0.0075252,-0.0529847,0,0,2.59,-0.07,-2.2925,-0.224968,-0.017446,-1.06445,-0.23744,0.08988,0.39788
-2.98476,0,0,17.9848,17.9848,12.0152,12.0152,2.10194,-1.04126,16.8408,-0.165713,0.00704966,-0.0530291,0,0,3.43,0.35,-2.45,-0.224968,-0.017446,-1.06445,-0.23744,0.08988,0.39788
-2.90127,0,0,17.9013,17.9013,12.0987,12.0987,2.04219,-0.878839,16.774,0.11986,0.0678056,0.0266038,0,0,2.765,0.1575,-2.2575,0.06466,0.044286,-0.985516,-0.23744,0.08988,0.39788
-2.81896,0,0,17.819,17.819,12.181,12.181,1.98329,-0.72031,16.7113,0.117093,0.0667797,0.0266784,0,0,2.7825,-0.07,-2.66,0.06466,0.044286,-0.985516,-0.2387,0.0868,0.39158
-2.90677,0,0,17.9068,17.9068,12.0932,12.0932,2.0459,-0.647302,16.6783,0.0431704,-0.0463162,0.089236,0,0,3.15,0,-2.5725,-0.008296,-0.069784,-0.923418,-0.2387,0.0868,0.39158
-2.99435,0,0,17.9943,17.9943,12.0057,12.0057,2.10835,-0.577793,16.6462,0.0419574,-0.0452267,0.0892095,0,0,3.7975,-0.91,-2.2225,-0.008296,-0.069784,-0.923418,-0.2387,0.0868,0.39158
-3.14369,0,0,18.1437,18.1437,11.8563,11.8563,2.2149,-0.475114,16.5844,0.0619113,-0.0872113,0.0464927,0,0,3.815,-0.5425,-2.59,0.013542,-0.113582,-0.965752,-0.2387,0.0868,0.39158
-3.28977,0,0,18.2898,18.2898,11.7102,11.7102,2.31912,-0.374554,16.524,0.0601562,-0.0853933,0.0464337,0,0,3.745,-0.1575,-2.2225,0.013542,-0.113582,-0.965752,-0.2387,0.0868,0.39158
-3.29656,0,0,18.2966,18.2966,11.7034,11.7034,2.32385,-0.338115,16.5201,0.0251398,0.000300163,0.0306969,0,0,3.78,-0.0875,-1.96,-0.020984,-0.02806,-0.981368,-0.2387,0.0868,0.39158
-3.30226,0,0,18.3023,18.3023,11.6977,11.6977,2.32779,-0.302545,16.5163,0.024519,0.000369087,0.0306976,0,0,3.43,-0.07,-1.9075,-0.020984,-0.02806,-0.981368,-0.2387,0.0868,0.39158
-3.29207,0,0,18.2921,18.2921,11.7079,11.7079,2.32039,-0.430043,16.6146,-0.0824714,-0.000493295,0.0834335,0,0,2.765,-0.1575,-1.8025,-0.130662,-0.028792,-0.92903,-0.2387,0.0868,0.39158
-3.2842,0,0,18.2842,18.2842,11.7158,11.7158,2.31464,-0.554471,16.7123,-0.0802998,-0.000594266,0.0834189,0,0,3.5175,-0.14,-1.2425,-0.130662,-0.028792,-0.92903,-0.23814,0.08736,0.38906
-3.17819,0,0,18.1782,18.1782,11.8218,11.8218,2.2388,-0.497241,16.7116,0.0490555,0.0769774,-0.0102061,0,0,3.2375,-0.385,-1.05,0.000244,0.05002,-1.02199,-0.23814,0.08736,0.38906
-3.07405,0,0,18.0741,18.0741,11.9259,11.9259,2.1643,-0.440625,16.7113,0.0480674,0.0756785,-0.0101481,0,0,3.2725,-0.035,-0.7875,0.000244,0.05002,-1.02199,-0.23814,0.08736,0.38906
-2.98872,0,0,17.9887,17.9887,12.0113,12.0113,2.10324,-0.363349,16.6957,0.0623904,0.0653322,-0.0198118,0,0,3.6225,-0.035,-0.5775,0.015982,0.040748,-1.03163,-0.23814,0.08736,0.38906
-2.90666,0,0,17.9067,17.9067,12.0933,12.0933,2.04452,-0.287885,16.6806,0.0610733,0.0643082,-0.0197673,0,0,4.3925,-0.0875,-0.2275,0.015982,0.040748,-1.03163,-0.23814,0.08736,0.38906
-3.00974,0,0,18.0097,18.0097,11.9903,11.9903,2.11803,-0.326375,16.7119,-0.0311915,-0.0632535,0.0808773,0,0,4.305,0.07,-0.28,-0.077348,-0.087962,-0.931714,-0.23814,0.08736,0.38906
-3.11033,0,0,18.1103,18.1103,11.8897,11.8897,2.18976,-0.364182,16.7434,-0.0305316,-0.0620025,0.0808263,0,0,4.025,0.035,0.0525,-0.077348,-0.087962,-0.931714,-0.23814,0.08736,0.38906
-3.11295,0,0,18.1129,18.1129,11.8871,11.8871,2.19151,-0.364315,16.7378,-0.0310153,-0.131706,0.137873,1,0,4.375,-0.1575,-4.4275,-0.077836,-0.157624,-0.875106,-0.23814,0.08736,0.38906
-3.11204,0,0,18.112,18.112,11.888,11.888,2.19075,-0.364298,16.7401,-0.0310155,-0.13172,0.137874,1,0,2.9925,0.105,0.14,-0.077836,-0.157624,-0.875106,-0.23814,0.08736,0.38906
-3.34421,0,0,18.3442,18.3442,11.6558,11.6558,2.35646,0.0529544,16.4492,0.307207,-0.138111,-0.0207018,0,0,3.0275,0.035,-4.305,0.269132,-0.166896,-1.03236,-0.2401,0.09716,0.39284
-3.34509,0,0,18.3451,18.3451,11.6549,11.6549,2.35696,0.0527937,16.4512,-0.112158,0.178451,-0.0920123,1,0,3.6925,0,0.0175,-0.152012,0.149328,-1.10312,-0.2401,0.09716,0.39284
-3.34426,0,0,18.3443,18.3443,11.6557,11.6557,2.35624,0.0523419,16.453,-0.112151,0.178438,-0.0920118,1,0,3.01,-0.175,-0.0875,-0.152012,0.149328,-1.10312,-0.2401,0.09716,0.39284
-3.34609,0,0,18.3461,18.3461,11.6539,11.6539,2.35743,0.0518166,16.4545,-0.0835922,0.0179842,-0.144512,1,0,4.0775,-0.2275,-0.315,-0.123342,-0.01098,-1.15522,-0.2401,0.09716,0.39284
-3.34631,0,0,18.3463,18.3463,11.6537,11.6537,2.35746,0.0522489,16.4559,-0.0835998,0.0179847,-0.144512,1,0,3.43,0.3325,-0.35,-0.123342,-0.01098,-1.15522,-0.2401,0.09716,0.39284
-3.41444,0,0,18.4144,18.4144,11.5856,11.5856,2.40599,0.22131,16.3428,0.12119,-0.0362484,-0.0336544,0,0,3.43,0.7,-0.49,0.085278,-0.066002,-1.04517,-0.2401,0.09716,0.39284
-3.48207,0,0,18.4821,18.4821,11.5179,11.5179,2.45416,0.385015,16.2299,0.118333,-0.035409,-0.0337051,0,0,3.955,-0.035,-0.9625,0.085278,-0.066002,-1.04517,-0.2401,0.09716,0.39284
-3.50906,0,0,18.5091,18.5091,11.4909,11.4909,2.47331,0.455485,16.1772,0.049314,-0.0133369,-0.00618803,0,0,3.3775,-0.0175,-1.225,0.017202,-0.044286,-1.01785,-0.2401,0.09716,0.39284
-3.53573,0,0,18.5357,18.5357,11.4643,11.4643,2.49223,0.524749,16.136,0.0481052,-0.0130076,-0.00621266,0,0,3.5175,0.28,-1.2075,0.017202,-0.044286,-1.01785,-0.23968,0.09002,0.39396
-3.61741,0,0,18.6174,18.6174,11.3826,11.3826,2.55043,0.669295,16.0399,0.103774,-0.0485098,-0.0394797,0,0,3.5525,0.0525,-1.75,0.07564,-0.080764,-1.05079,-0.23968,0.09002,0.39396
-3.69735,0,0,18.6973,18.6973,11.3027,11.3027,2.60739,0.810941,15.9445,0.101302,-0.0475182,-0.0395563,0,0,3.64,0.455,-1.82,0.07564,-0.080764,-1.05079,-0.23968,0.09002,0.39396
-3.64387,0,0,18.6439,18.6439,11.3561,11.3561,2.56906,0.882977,15.9043,0.0563102,0.0419422,-0.0263892,0,0,3.115,-0.0875,-2.345,0.03172,0.009272,-1.03773,-0.23968,0.09002,0.39396
-3.64384,0,0,18.6438,18.6438,11.3562,11.3562,2.5689,0.883022,15.9022,0.361238,0.209986,-0.0437248,1,0,3.3425,0.0175,-2.38,0.33794,0.177144,-1.05493,-0.23968,0.09002,0.39396
-3.64315,0,0,18.6431,18.6431,11.3569,11.3569,2.56827,0.882839,15.8999,0.361242,0.209975,-0.0437243,1,0,3.08,-0.1225,-2.5025,0.33794,0.177144,-1.05493,-0.23968,0.09002,0.39396
-3.73655,0,0,18.7365,18.7365,11.2635,11.2635,2.63484,1.1797,15.7034,0.205783,-0.0398394,0.0298989,0,0,3.71,0.14,-2.415,0.187026,-0.073566,-0.981734,-0.23968,0.09002,0.39396
-3.82459,0,0,18.8246,18.8246,11.1754,11.1754,2.69758,1.46817,15.509,0.20075,-0.0387512,0.0297318,0,0,2.6775,-0.63,-2.17,0.187026,-0.073566,-0.981734,-0.23968,0.09002,0.39396
-3.89636,0,0,18.8964,18.8964,11.1036,11.1036,2.7487,1.44782,15.5184,-0.0179335,-0.0532478,-0.0156695,0,0,3.0275,-0.56,-2.5025,-0.03294,-0.088938,-1.02675,-0.23408,0.0819,0.38808
-3.69951,0,0,18.6995,18.6995,11.3005,11.3005,2.60795,1.4545,15.5392,0.0174237,0.139091,-0.0266231,0,0,3.3425,-0.2975,-2.24,0.002684,0.105652,-1.03773,-0.23408,0.0819,0.38808
-3.50604,0,0,18.506,18.506,11.494,11.494,2.46962,1.46182,15.5603,0.017296,0.13668,-0.0265194,0,0,3.29,0.035,-2.0825,0.002684,0.105652,-1.03773,-0.23408,0.0819,0.38808
-3.37077,0,0,18.3708,18.3708,11.6292,11.6292,2.37288,1.42625,15.6024,-0.0178002,0.090662,0.0108209,0,0,3.7275,-0.105,-2.17,-0.033184,0.061366,-1.00077,-0.23408,0.0819,0.38808
-3.23685,0,0,18.2368,18.2368,11.7632,11.7632,2.2771,1.39227,15.645,-0.0172072,0.0889927,0.0109033,0,0,3.255,0.245,-1.82,-0.033184,0.061366,-1.00077,-0.23408,0.0819,0.38808
-3.22165,0,0,18.2216,18.2216,11.7784,11.7784,2.26612,1.52442,15.5724,0.0886094,0.0215072,0.0624906,0,0,3.3075,0.3325,-1.4525,0.075396,-0.005856,-0.949526,-0.23408,0.0819,0.38808
-3.20762,0,0,18.2076,18.2076,11.7924,11.7924,2.25597,1.6522,15.5003,0.08638,0.0213279,0.0624358,0,0,3.815,-0.4025,-1.365,0.075396,-0.005856,-0.949526,-0.23408,0.0819,0.38808
-3.08771,0,0,18.0877,18.0877,11.9123,11.9123,2.17021,1.50893,15.6051,-0.0949284,0.0718614,0.0260468,0,0,3.6575,-0.1225,-0.875,-0.10919,0.046116,-0.98576,-0.23352,0.0847,0.38696
-3.24672,0,0,18.2467,18.2467,11.7533,11.7533,2.28367,1.65546,15.506,0.0879024,-0.0948204,0.0426203,0,0,3.5175,4.305,-0.5425,0.076982,-0.122366,-0.969168,-0.23352,0.0847,0.38696
-3.02013,0,0,18.0201,18.0201,11.9799,11.9799,2.12171,1.34279,15.7289,-0.226514,0.141119,-0.0430694,0,0,3.9025,-0.0525,-0.63,-0.244244,0.116144,-1.05445,-0.23352,0.0847,0.38696
-2.79647,0,0,17.7965,17.7965,12.2035,12.2035,1.96184,1.03867,15.9518,-0.221207,0.138335,-0.0428598,0,0,3.3775,0.5425,-0.5075,-0.244244,0.116144,-1.05445,-0.23352,0.0847,0.38696
-2.63108,0,0,17.6311,17.6311,12.3689,12.3689,1.84361,0.560783,16.2822,-0.331802,0.077534,0.0752327,0,0,3.4125,0.6475,-0.5075,-0.363682,0.057462,-0.937448,-0.23352,0.0847,0.38696
-2.46756,0,0,17.4676,17.4676,12.5324,12.5324,1.72671,0.0930771,16.6114,-0.323639,0.0754963,0.0753428,0,0,2.975,0.0525,-0.4025,-0.363682,0.057462,-0.937448,-0.23352,0.0847,0.38696
-2.48189,0,0,17.4819,17.4819,12.5181,12.5181,1.73686,0.32508,16.4854,0.169674,0.00850315,0.00290598,0,0,3.57,0.35,-0.2975,0.135786,-0.009638,-1.00931,-0.23352,0.0847,0.38696
-2.49597,0,0,17.496,17.496,12.504,12.504,1.74682,0.551259,16.3601,0.165727,0.00867607,0.00287052,0,0,3.8675,0.0875,-0.2975,0.135786,-0.009638,-1.00931,-0.23352,0.0847,0.38696
-2.47334,0,0,17.4733,17.4733,12.5267,12.5267,1.73056,0.808907,16.2084,0.206423,0.0379454,-0.0727875,0,0,4.1125,0.4375,-0.3325,0.18117,0.019886,-1.08434,-0.23688,0.09044,0.38654
-2.45105,0,0,17.451,17.451,12.549,12.549,1.71455,1.06039,16.0576,0.202034,0.037664,-0.0728507,0,0,4.4275,0.2625,-0.21,0.18117,0.019886,-1.08434,-0.23688,0.09044,0.38654
-2.45309,0,0,17.4531,17.4531,12.5469,12.5469,1.71591,1.05994,16.0591,-0.0375278,-0.0379087,0.156694,1,0,4.165,-0.1925,-0.315,-0.059414,-0.055632,-0.856562,-0.23688,0.09044,0.38654
-2.45408,0,0,17.4541,17.4541,12.5459,12.5459,1.71653,1.05985,16.0604,0.0517657,0.147246,-0.117236,1,0,3.745,0.0175,-0.385,0.030256,0.12932,-1.12838,-0.23688,0.09044,0.38654
-2.45335,0,0,17.4534,17.4534,12.5466,12.5466,1.71592,1.06005,16.0613,-0.0877032,0.122444,-0.115637,1,0,3.0625,0.175,-0.665,-0.1098,0.104554,-1.12679,-0.23688,0.09044,0.38654
-2.57067,0,0,17.5707,17.5707,12.4293,12.4293,1.79962,1.16488,15.9822,0.0657262,-0.0690576,0.0457137,0,0,3.395,0.315,-0.91,0.046116,-0.088206,-0.966606,-0.23688,0.09044,0.38654
-2.68631,0,0,17.6863,17.6863,12.3137,12.3137,1.88212,1.26612,15.9039,0.0639596,-0.06762,0.04563,0,0,3.6925,-0.2275,-0.8575,0.046116,-0.088206,-0.966606,-0.23688,0.09044,0.38654
-2.63912,0,0,17.6391,17.6391,12.3609,12.3609,1.84831,1.33663,15.8616,0.0522815,0.0376734,0.0173431,0,0,3.1325,0,-1.225,0.035624,0.017568,-0.994666,-0.23688,0.09044,0.38654
-2.59368,0,0,17.5937,17.5937,12.4063,12.4063,1.81576,1.40556,15.8099,0.0510788,0.0371048,0.0173325,0,0,3.5,-0.2625,-1.2775,0.035624,0.017568,-0.994666,-0.2387,0.09632,0.3871
-2.6763,0,0,17.6763,17.6763,12.3237,12.3237,1.87467,1.13371,15.9567,-0.205129,-0.079961,-0.00361975,0,0,3.7975,-0.07,-1.2425,-0.226432,-0.100406,-1.01553,-0.2387,0.09632,0.3871
-2.75813,0,0,17.7581,17.7581,12.2419,12.2419,1.93302,0.867842,16.1009,-0.200489,-0.0789407,-0.00357257,0,0,3.8675,-0.3675,-1.6975,-0.226432,-0.100406,-1.01553,-0.2387,0.09632,0.3871
-2.59552,0,0,17.5955,17.5955,12.4045,12.4045,1.81677,0.634279,16.2567,-0.173695,0.10027,-0.079435,0,0,3.1325,-0.6475,-1.785,-0.203618,0.080642,-1.09092,-0.2387,0.09632,0.3871
-2.4373,0,0,17.4373,17.4373,12.5627,12.5627,1.70367,0.406417,16.4115,-0.169719,0.0982976,-0.0793382,0,0,3.605,-0.6475,-2.0475,-0.203618,0.080642,-1.09092,-0.2387,0.09632,0.3871
-2.4,0,0,17.4,17.4,12.6,12.6,1.67693,0.579004,16.3034,0.140702,0.0399424,-0.0843912,0,0,3.01,-0.49,-2.275,0.111142,0.022814,-1.09593,-0.2387,0.09632,0.3871
-2.3631,0,0,17.3631,17.3631,12.6369,12.6369,1.65049,0.748715,16.1955,0.13774,0.0394802,-0.0844122,0,0,3.1325,0.14,-2.4675,0.111142,0.022814,-1.09593,-0.2387,0.09632,0.3871
-2.36261,0,0,17.3626,17.3626,12.6374,12.6374,1.65005,0.748613,16.1932,0.00252865,0.0107727,0.103945,1,0,3.185,-0.0525,-2.485,-0.024644,-0.005856,-0.909022,-0.2387,0.09632,0.3871
-2.36082,0,0,17.3608,17.3608,12.6392,12.6392,1.64868,0.74818,16.191,0.00253622,0.0107488,0.103946,1,0,2.66,-0.245,-2.415,-0.024644,-0.005856,-0.909022,-0.24178,0.09324,0.39438
-2.33594,0,0,17.3359,17.3359,12.6641,12.6641,1.63083,0.739914,16.1955,-0.00509461,0.0172765,0.0694082,0,0,3.2725,-0.105,-2.2575,-0.032452,0.000976,-0.943304,-0.24178,0.09324,0.39438
-2.31106,0,0,17.3111,17.3111,12.6889,12.6889,1.61297,0.732028,16.1998,-0.00495699,0.0169649,0.0694188,0,0,3.08,-0.0175,-2.31,-0.032452,0.000976,-0.943304,-0.24178,0.09324,0.39438
-2.21975,0,0,17.2198,17.2198,12.7802,12.7802,1.54766,0.496341,16.3556,-0.173353,0.0466029,-0.0320611,0,0,3.745,-0.14,-2.2575,-0.205692,0.03172,-1.04408,-0.24178,0.09324,0.39438
-2.13062,0,0,17.1306,17.1306,12.8694,12.8694,1.48392,0.266128,16.5109,-0.169336,0.0454914,-0.032005,0,0,3.815,-0.2625,-2.0125,-0.205692,0.03172,-1.04408,-0.24178,0.09324,0.39438
-2.17104,0,0,17.171,17.171,12.829,12.829,1.51271,0.139445,16.5877,-0.0888877,-0.0346097,0.0646272,0,0,3.0625,-0.315,-1.75,-0.127124,-0.0488,-0.948184,-0.24178,0.09324,0.39438
-2.21305,0,0,17.213,17.213,12.787,12.787,1.54263,0.0163942,16.6641,-0.0867401,-0.0340876,0.0646162,0,0,3.8675,0.07,-1.61,-0.127124,-0.0488,-0.948184,-0.24178,0.09324,0.39438
-2.26814,0,0,17.2681,17.2681,12.7319,12.7319,1.5819,0.0914487,16.6161,0.0545742,-0.0359672,-0.0627783,0,0,3.4475,0.2625,-1.54,0.016104,-0.051362,-1.07458,-0.24178,0.09324,0.39438
-2.26808,0,0,17.2681,17.2681,12.7319,12.7319,1.58177,0.091818,16.6162,-0.0466298,0.162853,-0.094499,1,0,3.3425,0.2625,-1.1375,-0.085522,0.147254,-1.10605,-0.24178,0.09324,0.39438
-2.4354,0,0,17.4354,17.4354,12.5646,12.5646,1.70119,-0.0550949,16.6985,-0.108089,-0.113757,0.0998237,0,0,3.64,0.1925,-1.1025,-0.149816,-0.13115,-0.91317,-0.23912,0.08974,0.39116
-2.17095,0,0,17.171,17.171,12.829,12.829,1.51222,0.0367882,16.688,0.0889368,0.200232,-0.0450398,0,0,2.8175,0.1925,-0.6825,0.049654,0.185806,-1.05701,-0.23912,0.08974,0.39116
-2.47772,0,0,17.4777,17.4777,12.5223,12.5223,1.73125,0.139388,16.5976,0.0556813,-0.20556,0.0257905,0,0,2.7825,0.07,-0.455,0.018056,-0.223382,-0.986614,-0.23912,0.08974,0.39116
-2.7808,0,0,17.7808,17.7808,12.2192,12.2192,1.94763,0.238795,16.5088,0.0539463,-0.201786,0.0256636,0,0,3.6225,-0.07,-0.3325,0.018056,-0.223382,-0.986614,-0.23912,0.08974,0.39116
-2.59356,0,0,17.5936,17.5936,12.4064,12.4064,1.81379,0.411186,16.4345,0.138164,0.144429,0.00629729,0,0,2.905,0.175,-0.105,0.105652,0.124806,-1.00589,-0.23912,0.08974,0.39116
-2.41108,0,0,17.4111,17.4111,12.5889,12.5889,1.68336,0.579749,16.3603,0.135222,0.142152,0.00634132,0,0,3.675,0.07,0.07,0.105652,0.124806,-1.00589,-0.23912,0.08974,0.39116
-2.41267,0,0,17.4127,17.4127,12.5873,12.5873,1.6844,0.579734,16.3623,0.0616023,0.0349434,-0.154722,1,0,3.99,0.07,-0.035,0.03172,0.01769,-1.16571,-0.23912,0.08974,0.39116
-2.41339,0,0,17.4134,17.4134,12.5866,12.5866,1.68482,0.580323,16.364,0.0615921,0.0349507,-0.154722,1,0,3.64,0.42,-0.1575,0.03172,0.01769,-1.16571,-0.23912,0.08974,0.39116
-2.33677,0,0,17.3368,17.3368,12.6632,12.6632,1.63001,0.390304,16.5015,-0.143318,0.0408344,-0.0609796,0,0,4.2,-0.1575,-0.105,-0.177388,0.024522,-1.07275,-0.2345,0.08988,0.38934
-2.25915,0,0,17.2591,17.2591,12.7409,12.7409,1.57448,0.20544,16.638,-0.140092,0.0398661,-0.0609357,0,0,3.1325,0.175,-0.21,-0.177388,0.024522,-1.07275,-0.2345,0.08988,0.38934
-2.20315,0,0,17.2031,17.2031,12.7969,12.7969,1.5344,0.230214,16.6418,0.0240891,0.04222,-0.0964505,0,0,3.3775,0.105,-0.1925,-0.012078,0.027572,-1.108,-0.2345,0.08988,0.38934
-2.14752,0,0,17.1475,17.1475,12.8525,12.8525,1.49459,0.253938,16.6449,0.023675,0.0415252,-0.0964339,0,0,3.15,-0.2275,-0.525,-0.012078,0.027572,-1.108,-0.2345,0.08988,0.38934
-2.14659,0,0,17.1466,17.1466,12.8534,12.8534,1.49384,0.253829,16.6462,-0.0211513,-0.0394578,0.124628,1,0,2.9925,0,-0.455,-0.057096,-0.053314,-0.888648,-0.2345,0.08988,0.38934
-2.14508,0,0,17.1451,17.1451,12.8549,12.8549,1.49268,0.253378,16.6468,-0.0211434,-0.039478,0.124628,1,0,2.765,-0.21,-0.805,-0.057096,-0.053314,-0.888648,-0.2345,0.08988,0.38934
-2.29561,0,0,17.2956,17.2956,12.7044,12.7044,1.60012,0.323056,16.5935,0.0409345,-0.0948812,0.0418274,0,0,3.255,-0.42,-1.085,0.006466,-0.110532,-0.970754,-0.2345,0.08988,0.38934
-2.44201,0,0,17.442,17.442,12.558,12.558,1.7046,0.390688,16.5405,0.0397542,-0.0930587,0.0417675,0,0,2.765,-0.525,-1.3125,0.006466,-0.110532,-0.970754,-0.2345,0.08988,0.38934
-2.42017,0,0,17.4202,17.4202,12.5798,12.5798,1.68891,0.552488,16.4452,0.111766,0.0275724,0.0695387,0,0,3.01,0.07,-1.7325,0.081618,0.010248,-0.943182,-0.2366,0.09156,0.3927
-2.39642,0,0,17.3964,17.3964,12.6036,12.6036,1.67186,0.710215,16.3499,0.109013,0.027274,0.0695171,0,0,2.2925,-0.1575,-1.995,0.081618,0.010248,-0.943182,-0.2366,0.09156,0.3927
-2.56602,0,0,17.566,17.566,12.434,12.434,1.7929,0.475304,16.4764,-0.182219,-0.136828,0.0276932,0,0,3.0625,-0.1575,-2.0825,-0.214964,-0.155794,-0.984662,-0.2366,0.09156,0.3927
-2.7332,0,0,17.7332,17.7332,12.2668,12.2668,1.91221,0.245749,16.601,-0.178213,-0.134746,0.027651,0,0,3.0625,-0.1575,-2.0825,-0.214964,-0.155794,-0.984662,-0.2366,0.09156,0.3927
-2.7218,0,0,17.7218,17.7218,12.2782,12.2782,1.90397,0.163429,16.6573,-0.0641588,-0.00287024,-0.0778289,0,0,2.45,-0.105,-2.3275,-0.10187,-0.023912,-1.08934,-0.2366,0.09156,0.3927
-2.7108,0,0,17.7108,17.7108,12.2892,12.2892,1.89601,0.083077,16.7131,-0.0627564,-0.00300897,-0.0778212,0,0,2.45,-0.105,-2.3275,-0.10187,-0.023912,-1.08934,-0.2366,0.09156,0.3927
-2.45354,0,0,17.4535,17.4535,12.5465,12.5465,1.71216,0.24224,16.6512,0.14415,0.207017,-0.0608842,0,0,3.6225,0.035,-2.7125,0.108702,0.1891,-1.07262,-0.2366,0.09156,0.3927
-2.20032,0,0,17.2003,17.2003,12.7997,12.7997,1.53121,0.398212,16.5889,0.141428,0.20386,-0.06081,0,0,3.6225,0.035,-2.7125,0.108702,0.1891,-1.07262,-0.2366,0.09156,0.3927
-1.8901,0,0,16.8901,16.8901,13.1099,13.1099,1.30955,0.197049,16.7517,-0.139095,0.215259,-0.0469256,0,0,4.0775,-0.3325,-2.73,-0.176534,0.20435,-1.05896,-0.23856,0.0952,0.3878
-2.1031,0,0,17.1031,17.1031,12.8969,12.8969,1.46162,0.480931,16.5454,0.194288,-0.12441,0.0403973,0,0,3.4125,0.0875,-2.4675,0.163236,-0.137616,-0.972218,-0.23856,0.0952,0.3878
-2.00495,0,0,17.005,17.005,12.995,12.995,1.39144,0.301958,16.6671,-0.133272,0.0564568,-0.0531147,0,0,3.5175,-0.035,-2.205,-0.168848,0.044286,-1.06506,-0.23856,0.0952,0.3878
-1.98884,0,0,16.9888,16.9888,13.0112,13.0112,1.37985,0.421304,16.5927,0.084048,0.0203491,0.0553176,0,0,2.975,-0.315,-2.0475,0.051484,0.008418,-0.957456,-0.23856,0.0952,0.3878
-2.03667,0,0,17.0367,17.0367,12.9633,12.9633,1.41394,0.476214,16.5504,0.0398408,-0.0316929,-0.0383912,0,0,3.0975,-0.245,-1.505,0.008052,-0.044164,-1.05042,-0.23856,0.0952,0.3878
-1.8538,0,0,16.8538,16.8538,13.1462,13.1462,1.28325,0.205413,16.7425,-0.203507,0.112946,-0.0555222,0,0,3.3775,0,-1.435,-0.241072,0.102602,-1.0675,-0.23856,0.0952,0.3878
-1.85407,0,0,16.8541,16.8541,13.1459,13.1459,1.28337,0.205001,16.7428,0.221943,0.138106,-0.145766,1,0,3.4825,-0.1925,-0.9975,0.186172,0.127734,-1.15705,-0.23856,0.0952,0.3878
-1.97176,0,0,16.9718,16.9718,13.0282,13.0282,1.36737,0.384241,16.6177,0.117132,-0.0604723,0.0726631,0,0,4.4275,0.0875,-0.84,0.084058,-0.072102,-0.940254,-0.23856,0.0952,0.3878
-2.13802,0,0,17.138,17.138,12.862,12.862,1.48604,0.350926,16.6184,-0.0320788,-0.106153,0.0839265,0,0,4.4625,0.28,-0.7875,-0.066368,-0.119804,-0.92903,-0.23996,0.09478,0.39004
-1.90792,0,0,16.9079,16.9079,13.0921,13.0921,1.32162,0.469461,16.5747,0.107869,0.181273,-0.0547039,0,0,3.2375,0.1575,-0.6475,0.07625,0.17019,-1.06665,-0.23996,0.09478,0.39004
-1.68124,0,0,16.6812,16.6812,13.3188,13.3188,1.15964,0.585303,16.5316,0.105847,0.178446,-0.0546613,0,0,3.115,-0.0175,-0.1225,0.07625,0.17019,-1.06665,-0.23996,0.09478,0.39004
-1.67903,0,0,16.679,16.679,13.321,13.321,1.158,0.585303,16.5337,0.167805,0.249373,-0.0656031,1,0,2.485,0.07,0.0525,0.13847,0.241072,-1.0775,-0.23996,0.09478,0.39004
-1.67832,0,0,16.6783,16.6783,13.3217,13.3217,1.15743,0.584848,16.5362,0.167813,0.249363,-0.0656028,1,0,3.08,-0.1925,0.2625,0.13847,0.241072,-1.0775,-0.23996,0.09478,0.39004
-1.48083,0,0,16.4808,16.4808,13.5192,13.5192,1.01631,0.604273,16.5506,0.0215697,0.129049,0.097593,0,0,3.43,0.42,0.315,-0.008052,0.123342,-0.91561,-0.23996,0.09478,0.39004
-1.28858,0,0,16.2886,16.2886,13.7114,13.7114,0.878946,0.622652,16.5651,0.021249,0.126652,0.0976292,0,0,4.165,-0.07,0.4725,-0.008052,0.123342,-0.91561,-0.23996,0.09478,0.39004
-1.27831,0,0,16.2783,16.2783,13.7217,13.7217,0.871564,0.49681,16.6475,-0.0855274,0.000976716,0.0774891,0,0,4.76,-0.525,0.2625,-0.117486,-0.002074,-0.935618,-0.23996,0.09478,0.39004
-1.26652,0,0,16.2665,16.2665,13.7335,13.7335,0.863095,0.375771,16.7425,-0.083415,0.00082917,0.0775074,0,0,3.9375,0.385,0.105,-0.117486,-0.002074,-0.935618,-0.23772,0.08624,0.38808
-1.38458,0,0,16.3846,16.3846,13.6154,13.6154,0.947371,0.278625,16.807,-0.0745518,-0.0817232,0.0804446,0,0,3.71,0.245,0.14,-0.110288,-0.08601,-0.93269,-0.23772,0.08624,0.38808
-1.50121,0,0,16.5012,16.5012,13.4988,13.4988,1.03062,0.183536,16.8702,-0.0728922,-0.0802702,0.0804263,0,0,3.885,0.21,-0.245,-0.110288,-0.08601,-0.93269,-0.23772,0.08624,0.38808
-1.50103,0,0,16.501,16.501,13.499,13.499,1.03044,0.184033,16.8714,-0.0942824,0.128685,-0.123176,1,0,3.3075,0.35,-0.42,-0.13176,0.122732,-1.13472,-0.23772,0.08624,0.38808
-1.50014,0,0,16.5001,16.5001,13.4999,13.4999,1.02975,0.184842,16.872,-0.0942965,0.128673,-0.123176,1,0,3.0275,0.525,-0.84,-0.13176,0.122732,-1.13472,-0.23772,0.08624,0.38808
-1.29443,0,0,16.2944,16.2944,13.7056,13.7056,0.882768,0.447833,16.7475,0.208472,0.165066,0.0363054,0,0,3.57,0.2275,-0.98,0.1769,0.16165,-0.976488,-0.23772,0.08624,0.38808
-1.09133,0,0,16.0913,16.0913,13.9087,13.9087,0.737657,0.705149,16.622,0.203982,0.162534,0.036296,0,0,3.5,0.0525,-1.26,0.1769,0.16165,-0.976488,-0.23772,0.08624,0.38808
-1.03804,0,0,16.038,16.038,13.962,13.962,0.699551,0.47334,16.7871,-0.17113,0.0197135,0.00573181,0,0,3.7275,0.245,-1.715,-0.203862,0.019642,-1.00687,-0.23772,0.08624,0.38808
-0.984461,0,0,15.9845,15.9845,14.0155,14.0155,0.661246,0.246253,16.9507,-0.167166,0.0190453,0.00576464,0,0,3.0975,-0.1925,-1.995,-0.203862,0.019642,-1.00687,-0.23772,0.08624,0.38808
-0.822039,0,0,15.822,15.822,14.178,14.178,0.545202,0.255197,16.9762,0.0175788,0.115088,-0.00306701,0,0,3.2375,-0.3675,-2.1875,-0.018178,0.117608,-1.01565,-0.238,0.0889,0.3913
-0.661481,0,0,15.6615,15.6615,14.3385,14.3385,0.430494,0.264277,17.0009,0.0174203,0.113086,-0.00305068,0,0,2.8525,-0.2975,-2.625,-0.018178,0.117608,-1.01565,-0.238,0.0889,0.3913
-0.85326,0,0,15.8533,15.8533,14.1467,14.1467,0.567449,0.556541,16.7986,0.196856,-0.107406,0.0758249,0,0,2.5375,-0.1925,-2.6775,0.16714,-0.105042,-0.937326,-0.238,0.0889,0.3913
-1.04186,0,0,16.0419,16.0419,13.9581,13.9581,0.702122,0.842078,16.5985,0.191873,-0.105056,0.075738,0,0,3.045,-0.14,-2.695,0.16714,-0.105042,-0.937326,-0.238,0.0889,0.3913
-1.16785,0,0,16.1679,16.1679,13.8321,13.8321,0.792077,0.774418,16.6286,-0.05502,-0.0874875,0.0709392,0,0,2.9225,-0.0875,-2.8875,-0.081984,-0.08906,-0.942084,-0.238,0.0889,0.3913
-1.29334,0,0,16.2933,16.2933,13.7067,13.7067,0.881661,0.708468,16.6586,-0.053869,-0.085924,0.0709313,0,0,3.535,0.0875,-2.7825,-0.081984,-0.08906,-0.942084,-0.238,0.0889,0.3913
-1.37923,0,0,16.3792,16.3792,13.6208,13.6208,0.942964,0.660231,16.6826,-0.0392993,-0.0590854,0.0599819,0,0,3.6225,-0.0525,-2.5725,-0.068198,-0.063318,-0.952942,-0.238,0.0889,0.3913
-1.465,0,0,16.465,16.465,13.535,13.535,1.00418,0.613181,16.7067,-0.0384782,-0.0580171,0.0599729,0,0,4.13,0.0525,-2.45,-0.068198,-0.063318,-0.952942,-0.238,0.0889,0.3913
-1.69089,0,0,16.6909,16.6909,13.3091,13.3091,1.16546,0.498398,16.748,-0.0972178,-0.164628,0.0328903,0,0,3.815,-0.035,-2.24,-0.129198,-0.17263,-0.979782,-0.23408,0.09464,0.38794
-1.69117,0,0,16.6912,16.6912,13.3088,13.3088,1.1656,0.498537,16.7462,-0.237172,-0.0151425,-0.0842796,1,0,3.5,0.105,-2.2225,-0.269742,-0.023302,-1.09605,-0.23408,0.09464,0.38794
-1.71646,0,0,16.7165,16.7165,13.2835,13.2835,1.1836,0.90164,16.4866,0.296648,0.0141139,0.0545598,0,0,3.29,0.2275,-1.505,0.273402,0.005612,-0.958188,-0.23408,0.09464,0.38794
-1.74167,0,0,16.7417,16.7417,13.2583,13.2583,1.20155,0.794059,16.547,-0.0854912,-0.0299044,-0.0559497,0,0,2.8875,0,-1.365,-0.11224,-0.038674,-1.06787,-0.23408,0.09464,0.38794
-1.86794,0,0,16.8679,16.8679,13.1321,13.1321,1.29166,0.779771,16.537,-0.0173313,-0.081335,0.0857792,0,0,3.1325,0.0875,-1.1025,-0.044042,-0.091622,-0.9272,-0.23408,0.09464,0.38794
-1.86184,0,0,16.8618,16.8618,13.1382,13.1382,1.28724,0.873386,16.4753,0.069598,0.0118921,0.0098981,0,0,3.43,-0.1225,-0.91,0.044896,0.001586,-1.00247,-0.23408,0.09464,0.38794
-1.8553,0,0,16.8553,16.8553,13.1447,13.1447,1.2825,0.965312,16.4151,0.0679938,0.0118089,0.00987422,0,0,3.3075,0.1575,-0.315,0.044896,0.001586,-1.00247,-0.23408,0.09464,0.38794
-1.75932,0,0,16.7593,16.7593,13.2407,13.2407,1.21388,0.947307,16.4351,-0.00737756,0.0708202,-0.0764043,0,0,3.8675,-0.1225,-0.0525,-0.03111,0.061732,-1.08812,-0.23408,0.09464,0.38794
-1.66461,0,0,16.6646,16.6646,13.3354,13.3354,1.14616,0.929333,16.4636,-0.0070639,0.0696389,-0.0763748,0,0,3.7975,-0.0175,0.0175,-0.03111,0.061732,-1.08812,-0.23716,0.08848,0.38654
-1.47867,0,0,16.4787,16.4787,13.5213,13.5213,1.0133,0.508993,16.7588,-0.330777,0.105182,-0.0427971,0,0,3.29,-0.035,0.1575,-0.36356,0.099552,-1.05493,-0.23716,0.08848,0.38654
-1.29622,0,0,16.2962,16.2962,13.7038,13.7038,0.882932,0.0980497,17.053,-0.323604,0.102907,-0.0427214,0,0,3.36,-0.1925,0.14,-0.36356,0.099552,-1.05493,-0.23716,0.08848,0.38654
-1.08817,0,0,16.0882,16.0882,13.9118,13.9118,0.734286,0.0877025,17.1025,0.00616678,0.152339,-0.0451435,0,0,3.29,0,0.105,-0.032574,0.151524,-1.05737,-0.23716,0.08848,0.38654
-0.885031,0,0,15.885,15.885,14.115,14.115,0.589153,0.0775402,17.1521,0.00634415,0.149806,-0.045114,0,0,3.7975,-0.1925,0.28,-0.032574,0.151524,-1.05737,-0.23716,0.08848,0.38654
-1.00024,0,0,16.0002,16.0002,13.9998,13.9998,0.67141,0.39948,16.9488,0.247949,-0.0574731,-0.0224077,0,0,4.2175,-0.14,0.1225,0.215696,-0.056974,-1.0348,-0.23716,0.08848,0.38654
-1.11094,0,0,16.1109,16.1109,13.8891,13.8891,0.750442,0.71437,16.747,0.242453,-0.0560945,-0.0224782,0,0,3.675,-0.0175,0.035,0.215696,-0.056974,-1.0348,-0.23716,0.08848,0.38654
-1.35467,0,0,16.3547,16.3547,13.6453,13.6453,0.924483,0.901749,16.6067,0.117211,-0.146729,0.078249,0,0,3.71,0.28,-0.2275,0.093208,-0.150548,-0.934764,-0.23716,0.08848,0.38654
-1.5935,0,0,16.5935,16.5935,13.4065,13.4065,1.09501,1.08304,16.4654,0.114048,-0.143755,0.0781418,0,0,3.85,-0.0875,-0.455,0.093208,-0.150548,-0.934764,-0.2352,0.0903,0.38738
-1.5931,0,0,16.5931,16.5931,13.4069,13.4069,1.09467,1.08258,16.4655,0.10373,0.0426044,-0.158288,1,0,3.22,-0.2275,-1.12,0.082838,0.035624,-1.16937,-0.2352,0.0903,0.38738
-1.59269,0,0,16.5927,16.5927,13.4073,13.4073,1.09432,1.08211,16.4656,0.103738,0.0425984,-0.158288,1,0,3.22,-0.2275,-1.12,0.082838,0.035624,-1.16937,-0.2352,0.0903,0.38738
-1.62654,0,0,16.6265,16.6265,13.3735,13.3735,1.11844,1.16949,16.4045,0.0662531,-0.0185334,-0.0227135,0,0,3.0625,-0.5075,-1.4525,0.046726,-0.025864,-1.0348,-0.2352,0.0903,0.38738
-1.65954,0,0,16.6595,16.6595,13.3405,13.3405,1.14195,1.25483,16.3439,0.064764,-0.0181239,-0.0227531,0,0,3.0625,-0.5075,-1.4525,0.046726,-0.025864,-1.0348,-0.2352,0.0903,0.38738
-1.80679,0,0,16.8068,16.8068,13.1932,13.1932,1.24706,1.39018,16.2365,0.0809897,-0.0832167,0.108709,0,0,2.8525,0.315,-2.275,0.065392,-0.09272,-0.904264,-0.2352,0.0903,0.38738
-1.95105,0,0,16.951,16.951,13.049,13.049,1.35003,1.52222,16.1302,0.0786859,-0.081422,0.10861,0,0,2.8525,0.315,-2.275,0.065392,-0.09272,-0.904264,-0.2352,0.0903,0.38738
-2.18001,0,0,17.18,17.18,12.82,12.82,1.51349,1.86168,15.8803,0.220855,-0.124251,0.116478,0,0,3.3425,-0.315,-2.7825,0.21411,-0.138348,-0.896212,-0.2352,0.0903,0.38738
-2.40379,0,0,17.4038,17.4038,12.5962,12.5962,1.67325,2.1934,15.6349,0.215069,-0.121471,0.116196,0,0,3.3425,-0.315,-2.7825,0.21411,-0.138348,-0.896212,-0.23786,0.08876,0.39438
-2.32432,0,0,17.3243,17.3243,12.6757,12.6757,1.6164,1.93103,15.7948,-0.178099,0.0360629,0.0917995,0,0,3.57,-0.4375,-2.695,-0.185318,0.020008,-0.920612,-0.23786,0.08876,0.39438
-2.24662,0,0,17.2466,17.2466,12.7534,12.7534,1.56081,1.67479,15.9539,-0.173629,0.0350975,0.091967,0,0,3.57,-0.4375,-2.695,-0.185318,0.020008,-0.920612,-0.23786,0.08876,0.39438
-2.08297,0,0,17.083,17.083,12.917,12.917,1.44384,1.5941,16.0146,-0.0532868,0.11586,-0.0706002,0,0,3.255,-0.1925,-2.6775,-0.06588,0.102724,-1.08202,-0.23786,0.08876,0.39438
-1.9223,0,0,16.9223,16.9223,13.0777,13.0777,1.32901,1.51541,16.0752,-0.0519139,0.113858,-0.0705145,0,0,3.255,-0.1925,-2.6775,-0.06588,0.102724,-1.08202,-0.23786,0.08876,0.39438
-1.98804,0,0,16.988,16.988,13.012,13.012,1.37589,1.48963,16.0783,-0.0224291,-0.0481185,0.00300123,0,0,3.5875,-0.2275,-2.4675,-0.036722,-0.059902,-1.00906,-0.23786,0.08876,0.39438
-1.60283,0,0,16.6028,16.6028,13.3972,13.3972,1.10068,1.2061,16.2981,-0.208943,0.274505,-0.0518596,0,0,3.395,-0.385,-2.1,-0.228994,0.26718,-1.06372,-0.23786,0.08876,0.39438
-1.22387,0,0,16.2239,16.2239,13.7761,13.7761,0.829948,0.928653,16.5193,-0.204102,0.269783,-0.0516898,0,0,3.2725,-0.595,-1.8025,-0.228994,0.26718,-1.06372,-0.23786,0.08876,0.39438
-1.22403,0,0,16.224,16.224,13.776,13.776,0.830024,0.927245,16.5184,-0.257895,0.106134,-0.139475,1,0,3.465,-0.7875,-1.6975,-0.28304,0.1037,-1.15083,-0.23352,0.09814,0.39858
-1.22322,0,0,16.2232,16.2232,13.7768,13.7768,0.829399,0.927196,16.5185,-0.257895,0.106123,-0.139474,1,0,3.0625,0.0175,-1.12,-0.28304,0.1037,-1.15083,-0.23352,0.09814,0.39858
-1.22269,0,0,16.2227,16.2227,13.7773,13.7773,0.828972,0.927018,16.5193,0.00962004,0.0472509,-0.235743,1,0,3.1675,-0.0525,-0.6825,-0.014396,0.044896,-1.24635,-0.23352,0.09814,0.39858
-1.22215,0,0,16.2222,16.2222,13.7778,13.7778,0.828546,0.926839,16.5201,0.00962316,0.0472435,-0.235743,1,0,3.1675,-0.0525,-0.6825,-0.014396,0.044896,-1.24635,-0.23352,0.09814,0.39858
-1.22202,0,0,16.222,16.222,13.778,13.778,0.828408,0.926892,16.5215,0.0591884,0.0720328,-0.160252,1,0,3.325,0.0875,-0.4025,0.03538,0.069662,-1.17144,-0.23352,0.09814,0.39858
-1.38007,0,0,16.3801,16.3801,13.6199,13.6199,0.941251,0.992289,16.4523,0.0378805,-0.101128,0.0614972,0,0,3.0975,0.245,-0.3325,0.015128,-0.105286,-0.951356,-0.23352,0.09814,0.39858
-1.53533,0,0,16.5353,16.5353,13.4647,13.4647,1.05209,1.05567,16.3846,0.0367744,-0.0991947,0.0614437,0,0,3.15,0.07,0.1225,0.015128,-0.105286,-0.951356,-0.23352,0.09814,0.39858
-1.43258,0,0,16.4326,16.4326,13.5674,13.5674,0.978648,1.29554,16.2358,0.191857,0.0938261,-0.00771648,0,0,3.185,0.35,0.28,0.17507,0.088816,-1.01992,-0.23352,0.09814,0.39858
-1.33176,0,0,16.3318,16.3318,13.6682,13.6682,0.906584,1.52898,16.0938,0.187783,0.0925672,-0.0077962,0,0,3.71,0.2275,0.2275,0.17507,0.088816,-1.01992,-0.23044,0.09394,0.39578
-1.51589,0,0,16.5159,16.5159,13.4841,13.4841,1.03805,1.3421,16.1878,-0.144742,-0.135713,0.0665075,0,0,4.27,-0.0175,0.2625,-0.162138,-0.14152,-0.946232,-0.23044,0.09394,0.39578
-1.69628,0,0,16.6963,16.6963,13.3037,13.3037,1.16684,1.1593,16.2803,-0.141553,-0.133465,0.0665339,0,0,3.885,-0.0175,0.2275,-0.162138,-0.14152,-0.946232,-0.23044,0.09394,0.39578
-1.66241,0,0,16.6624,16.6624,13.3376,13.3376,1.14259,1.19469,16.2597,0.0298536,0.0285402,-0.0321979,0,0,4.1825,0.3325,0.105,0.010614,0.02074,-1.0442,-0.23044,0.09394,0.39578
-1.62633,0,0,16.6263,16.6263,13.3737,13.3737,1.11675,1.22955,16.2385,0.0292454,0.0280892,-0.0322019,0,0,3.0975,0.455,-0.315,0.010614,0.02074,-1.0442,-0.23044,0.09394,0.39578
-1.6607,0,0,16.6607,16.6607,13.3393,13.3393,1.14124,1.21396,16.2407,-0.0145819,-0.022166,0.0896374,0,0,3.0275,0.315,-0.35,-0.033672,-0.02989,-0.923296,-0.23044,0.09394,0.39578
-1.69367,0,0,16.6937,16.6937,13.3063,13.3063,1.16473,1.19813,16.2423,-0.0143057,-0.0217562,0.089635,0,0,2.695,-0.0175,-0.7175,-0.033672,-0.02989,-0.923296,-0.23044,0.09394,0.39578
-1.62413,0,0,16.6241,16.6241,13.3759,13.3759,1.115,1.52473,16.0351,0.266216,0.0765405,-0.0197844,0,0,2.59,0.315,-1.1375,0.25376,0.069174,-1.03175,-0.23044,0.09394,0.39578
-1.55777,0,0,16.5578,16.5578,13.4422,13.4422,1.06754,1.84746,15.826,0.260586,0.0757096,-0.0199343,0,0,3.22,-0.1575,-1.4,0.25376,0.069174,-1.03175,-0.24038,0.09464,0.3892
-1.67599,0,0,16.676,16.676,13.324,13.324,1.15193,2.09986,15.6375,0.168349,-0.0588709,0.0875884,0,0,3.815,0.14,-1.505,0.165554,-0.066734,-0.924882,-0.24038,0.09464,0.3892
-1.79014,0,0,16.7901,16.7901,13.2099,13.2099,1.2334,2.34602,15.4497,0.164056,-0.0574538,0.0873922,0,0,3.36,-0.1225,-1.925,0.165554,-0.066734,-0.924882,-0.24038,0.09464,0.3892
-2.04604,0,0,17.046,17.046,12.954,12.954,1.4161,1.85396,15.7129,-0.350965,-0.198126,0.17173,0,0,3.64,-0.105,-2.415,-0.360266,-0.21045,-0.841434,-0.24038,0.09464,0.3892
-2.2965,0,0,17.2965,17.2965,12.7035,12.7035,1.59491,1.37246,15.9708,-0.342565,-0.195001,0.171884,0,0,2.8525,-0.2275,-2.485,-0.360266,-0.21045,-0.841434,-0.24038,0.09464,0.3892
-2.33205,0,0,17.3321,17.3321,12.6679,12.6679,1.62023,1.23798,16.0369,-0.0973684,-0.0333511,0.0568457,0,0,2.9225,-0.28,-2.73,-0.116388,-0.04941,-0.955626,-0.24038,0.09464,0.3892
-2.36672,0,0,17.3667,17.3667,12.6333,12.6333,1.6449,1.10655,16.1017,-0.0950749,-0.0329194,0.0568804,0,0,2.695,-0.3325,-3.115,-0.116388,-0.04941,-0.955626,-0.24038,0.09464,0.3892
-2.42489,0,0,17.4249,17.4249,12.5751,12.5751,1.68636,1.41522,15.8893,0.239699,-0.0209639,-0.0194872,0,0,2.3625,-0.42,-3.1325,0.225212,-0.038186,-1.03127,-0.24038,0.09464,0.3892
-2.48236,0,0,17.4824,17.4824,12.5176,12.5176,1.72732,1.71564,15.6814,0.234458,-0.020254,-0.0196517,0,0,3.0625,-0.6825,-2.8875,0.225212,-0.038186,-1.03127,-0.2387,0.09282,0.39242
-2.68068,0,0,17.6807,17.6807,12.3193,12.3193,1.86887,1.79192,15.5965,0.0425158,-0.124892,0.0777282,0,0,3.3775,-0.5775,-2.7825,0.033794,-0.14518,-0.93452,-0.2387,0.09282,0.39242
-2.87636,0,0,17.8764,17.8764,12.1236,12.1236,2.00853,1.86731,15.5129,0.0412007,-0.122459,0.0776038,0,0,3.78,0.0875,-2.59,0.033794,-0.14518,-0.93452,-0.2387,0.09282,0.39242
-3.03254,0,0,18.0325,18.0325,11.9675,11.9675,2.11998,1.79242,15.5278,-0.0646431,-0.122957,-0.0298815,0,0,3.71,0.0875,-2.1,-0.07381,-0.14762,-1.04115,-0.2387,0.09282,0.39242
-3.18623,0,0,18.1862,18.1862,11.8138,11.8138,2.22964,1.7191,15.5424,-0.0633641,-0.121044,-0.0299149,0,0,3.71,0.0875,-2.1,-0.07381,-0.14762,-1.04115,-0.2387,0.09282,0.39242
-3.38193,0,0,18.3819,18.3819,11.6181,11.6181,2.3693,1.52398,15.6286,-0.146944,-0.143763,0.0808602,0,0,3.1325,-0.455,-1.8025,-0.161162,-0.172752,-0.931226,-0.2387,0.09282,0.39242
-3.57475,0,0,18.5747,18.5747,11.4253,11.4253,2.50689,1.33322,15.7134,-0.143615,-0.141361,0.0808411,0,0,3.1325,-0.455,-1.8025,-0.161162,-0.172752,-0.931226,-0.2387,0.09282,0.39242
-3.55929,0,0,18.5593,18.5593,11.4407,11.4407,2.49572,1.42303,15.65,0.0728844,0.0168406,-0.0550462,0,0,3.3425,-0.2275,-1.0325,0.057828,-0.014518,-1.06604,-0.2387,0.09282,0.39242
-3.54385,0,0,18.5438,18.5438,11.4562,11.4562,2.48455,1.51078,15.587,0.0713533,0.0166443,-0.0550769,0,0,3.3425,-0.2275,-1.0325,0.057828,-0.014518,-1.06604,-0.2387,0.09282,0.39242
-3.51245,0,0,18.5124,18.5124,11.4876,11.4876,2.46199,1.47029,15.6104,-0.0285304,0.0196714,0.0241373,0,0,3.2375,0.28,-0.1225,-0.043188,-0.011102,-0.987468,-0.23632,0.09072,0.38822
-3.47898,0,0,18.479,18.479,11.521,11.521,2.43796,1.61821,15.518,0.107383,0.0384234,0.0367494,0,0,4.6725,0.035,0.315,0.095892,0.008052,-0.974902,-0.23632,0.09072,0.38822
-3.44567,0,0,18.4457,18.4457,11.5543,11.5543,2.41404,1.76281,15.4261,0.10486,0.0380032,0.0366927,0,0,4.6725,0.035,0.315,0.095892,0.008052,-0.974902,-0.23632,0.09072,0.38822
-3.57778,0,0,18.5778,18.5778,11.4222,11.4222,2.50826,1.99513,15.2612,0.150495,-0.0667327,0.0950128,0,0,3.6575,0.1925,0.665,0.14579,-0.09821,-0.91683,-0.23632,0.09072,0.38822
-3.70686,0,0,18.7069,18.7069,11.2931,11.2931,2.60033,2.22199,15.0978,0.146538,-0.0651351,0.0947957,0,0,3.6575,0.1925,0.665,0.14579,-0.09821,-0.91683,-0.23632,0.09072,0.38822
-3.58203,0,0,18.582,18.582,11.418,11.418,2.51103,2.29965,15.0501,0.0574712,0.0934149,0.0554682,0,0,3.465,0.28,0.5075,0.057706,0.061732,-0.95587,-0.23632,0.09072,0.38822
-3.45913,0,0,18.4591,18.4591,11.5409,11.5409,2.42311,2.37568,15.0026,0.0561454,0.0918809,0.0554801,0,0,3.465,0.28,0.5075,0.057706,0.061732,-0.95587,-0.23632,0.09072,0.38822
-3.32775,0,0,18.3277,18.3277,11.6723,11.6723,2.32914,2.21454,15.1063,-0.112339,0.0832869,0.0160711,0,0,4.3225,0.2975,0.6475,-0.114314,0.054778,-0.995154,-0.23688,0.08904,0.38332
-3.32982,0,0,18.3298,18.3298,11.6702,11.6702,2.33049,2.21531,15.109,0.115069,-0.0735003,0.140002,1,0,4.1125,0.56,0.4375,0.11407,-0.10187,-0.872178,-0.23688,0.08904,0.38332
-3.33249,0,0,18.3325,18.3325,11.6675,11.6675,2.33228,2.21554,15.1108,0.115064,-0.0734692,0.14,1,0,4.375,0.2275,-0.14,0.11407,-0.10187,-0.872178,-0.23688,0.08904,0.38332
-3.61272,0,0,18.6127,18.6127,11.3873,11.3873,2.53231,2.58449,14.8445,0.227565,-0.1495,0.160238,0,0,3.57,-0.07,-0.21,0.233508,-0.181292,-0.851682,-0.23688,0.08904,0.38332
-3.88521,0,0,18.8852,18.8852,11.1148,11.1148,2.72679,2.94525,14.5803,0.221276,-0.146127,0.159779,0,0,2.9225,0.105,-1.015,0.233508,-0.181292,-0.851682,-0.23688,0.08904,0.38332
-4.07517,0,0,19.0752,19.0752,10.9248,10.9248,2.86233,2.69223,14.7005,-0.183477,-0.139238,0.10812,0,0,2.66,-0.1925,-1.295,-0.177388,-0.176778,-0.903044,-0.23688,0.08904,0.38332
-4.26317,0,0,19.2632,19.2632,10.7368,10.7368,2.99645,2.44572,14.8176,-0.179179,-0.136893,0.108193,0,0,2.9925,0.21,-1.925,-0.177388,-0.176778,-0.903044,-0.23688,0.08904,0.38332
-4.33574,0,0,19.3357,19.3357,10.6643,10.6643,3.04813,2.37665,14.8366,-0.0535731,-0.0518449,0.0585247,0,0,3.0275,0.0175,-2.1875,-0.05246,-0.09272,-0.952332,-0.23688,0.08904,0.38332
-4.40813,0,0,19.4081,19.4081,10.5919,10.5919,3.09967,2.30871,14.8547,-0.0523884,-0.0509448,0.0585249,0,0,3.395,-0.245,-2.4675,-0.05246,-0.09272,-0.952332,-0.23688,0.08904,0.38332
-4.19038,0,0,19.1904,19.1904,10.8096,10.8096,2.94398,2.3664,14.8244,0.0565501,0.165681,-0.0316172,0,0,3.2025,-0.42,-2.765,0.05795,0.126392,-1.04188,-0.23842,0.08764,0.38906
-3.97693,0,0,18.9769,18.9769,11.0231,11.0231,2.79136,2.42423,14.7937,0.0555417,0.163021,-0.0315262,0,0,3.5175,0.2975,-3.0275,0.05795,0.126392,-1.04188,-0.23842,0.08764,0.38906
-3.87821,0,0,18.8782,18.8782,11.1218,11.1218,2.7207,2.37578,14.8164,-0.0302328,0.0682432,-0.0444641,0,0,3.465,-0.4375,-3.535,-0.029036,0.03294,-1.05481,-0.23842,0.08764,0.38906
-3.7813,0,0,18.7813,18.7813,11.2187,11.2187,2.65134,2.32855,14.839,-0.029409,0.0670364,-0.0443736,0,0,3.465,-0.4375,-3.535,-0.029036,0.03294,-1.05481,-0.23842,0.08764,0.38906
-3.64673,0,0,18.6467,18.6467,11.3533,11.3533,2.55508,2.14326,14.9525,-0.136851,0.0842949,-0.0647037,0,0,2.835,-0.49,-3.2025,-0.140178,0.05185,-1.07519,-0.23842,0.08764,0.38906
-3.75273,0,0,18.7527,18.7527,11.2473,11.2473,2.63065,1.97764,15.0335,-0.126187,-0.0853611,0.0321009,0,0,3.5875,-0.1575,-3.2725,-0.13237,-0.11895,-0.979172,-0.23842,0.08764,0.38906
-3.85746,0,0,18.8575,18.8575,11.1425,11.1425,2.70532,1.8151,15.1139,-0.123352,-0.0840558,0.0321341,0,0,3.6575,-0.56,-3.01,-0.13237,-0.11895,-0.979172,-0.23842,0.08764,0.38906
-3.85745,0,0,18.8575,18.8575,11.1425,11.1425,2.70516,1.81464,15.1112,-0.030043,-0.180416,0.151149,1,0,3.3775,-0.2975,-2.73,-0.038674,-0.215208,-0.861076,-0.23842,0.08764,0.38906
-3.85717,0,0,18.8572,18.8572,11.1428,11.1428,2.70482,1.81358,15.1093,-0.0300244,-0.180422,0.151149,1,0,3.255,-0.63,-2.24,-0.038674,-0.215208,-0.861076,-0.2436,0.0896,0.38612
-3.85716,0,0,18.8572,18.8572,11.1428,11.1428,2.70467,1.81305,15.1075,-0.0239409,-0.058054,0.134429,1,0,3.36,-0.315,-2.205,-0.032574,-0.092964,-0.877668,-0.2436,0.0896,0.38612
-3.85718,0,0,18.8572,18.8572,11.1428,11.1428,2.70454,1.81273,15.1074,-0.0239354,-0.0580563,0.134429,1,0,3.3425,-0.14,-1.225,-0.032574,-0.092964,-0.877668,-0.2436,0.0896,0.38612
-3.96662,0,0,18.9666,18.9666,11.0334,11.0334,2.78256,2.10708,14.907,0.216331,-0.0570717,0.0116089,0,0,3.29,-0.245,-0.9975,0.213866,-0.09333,-0.999302,-0.2436,0.0896,0.38612
-4.07455,0,0,19.0745,19.0745,10.9255,10.9255,2.8595,2.39532,14.7093,0.211305,-0.0557412,0.0113455,0,0,3.8325,0.175,-0.49,0.213866,-0.09333,-0.999302,-0.2436,0.0896,0.38612
-4.11708,0,0,19.1171,19.1171,10.8829,10.8829,2.88972,2.19262,14.8165,-0.14986,-0.0438499,0.0215423,0,0,3.8325,0.2275,-0.21,-0.152378,-0.081984,-0.989298,-0.2436,0.0896,0.38612
-4.16041,0,0,19.1604,19.1604,10.8396,10.8396,2.92052,1.99432,14.9236,-0.146402,-0.0433071,0.0216413,0,0,4.27,0.0525,0.4025,-0.152378,-0.081984,-0.989298,-0.2436,0.0896,0.38612
-4.14736,0,0,19.1474,19.1474,10.8526,10.8526,2.91104,1.88612,14.983,-0.0793983,0.000618823,-0.0211955,0,0,3.6575,-0.1925,0.7175,-0.086986,-0.037942,-1.03188,-0.2436,0.0896,0.38612
-4.13545,0,0,19.1355,19.1355,10.8645,10.8645,2.90238,1.78221,15.0408,-0.0775855,0.000470831,-0.0211298,0,0,3.85,0.5075,0.805,-0.086986,-0.037942,-1.03188,-0.24066,0.091,0.39242
-3.99146,0,0,18.9915,18.9915,11.0085,11.0085,2.79937,1.85815,15.0019,0.0622561,0.109077,0.00830219,0,0,2.9225,0.42,0.945,0.054778,0.072346,-1.00272,-0.24066,0.091,0.39242
-4.16649,0,0,19.1665,19.1665,10.8335,10.8335,2.92424,1.88431,14.961,0.00786009,-0.113584,0.0743248,0,0,2.8875,0.07,0.9975,0.00061,-0.152256,-0.937082,-0.24066,0.091,0.39242
-3.96863,0,0,18.9686,18.9686,11.0314,11.0314,2.78276,1.88619,14.972,0.00964958,0.140539,0.0325212,0,0,3.325,0,1.0675,0.00244,0.104066,-0.978684,-0.24066,0.091,0.39242
-3.77532,0,0,18.7753,18.7753,11.2247,11.2247,2.64454,1.88819,14.9824,0.00961462,0.138131,0.0326342,0,0,3.815,-0.035,0.6825,0.00244,0.104066,-0.978684,-0.24066,0.091,0.39242
-3.81494,0,0,18.8149,18.8149,11.1851,11.1851,2.6727,1.85406,14.9923,-0.0269646,-0.033454,-0.0545397,0,0,4.3575,0.2275,0.5425,-0.034892,-0.067832,-1.06518,-0.24066,0.091,0.39242
-3.85467,0,0,18.8547,18.8547,11.1453,11.1453,2.70093,1.82035,15.0022,-0.0263766,-0.0329612,-0.0545439,0,0,4.6375,0.035,0.5775,-0.034892,-0.067832,-1.06518,-0.24066,0.091,0.39242
-3.76832,0,0,18.7683,18.7683,11.2317,11.2317,2.63911,1.93508,14.9324,0.0977242,0.0753841,-0.0608296,0,0,4.4275,-0.035,0.2275,0.091744,0.04148,-1.0714,-0.24066,0.091,0.39242
-3.68162,0,0,18.6816,18.6816,11.3184,11.3184,2.57705,2.04701,14.8668,0.0957719,0.0742996,-0.0608481,0,0,4.0075,0.4375,-0.4725,0.091744,0.04148,-1.0714,-0.23086,0.08862,0.38934
-3.76432,0,0,18.7643,18.7643,11.2357,11.2357,2.63598,2.00746,14.8782,-0.0340139,-0.0679272,-0.0392315,0,0,2.975,0.245,-0.8225,-0.039284,-0.101626,-1.04993,-0.23086,0.08862,0.38934
-3.84626,0,0,18.8463,18.8463,11.1537,11.1537,2.69436,1.96803,14.8884,-0.0333261,-0.0669087,-0.039255,0,0,3.22,-0.1925,-1.3825,-0.039284,-0.101626,-1.04993,-0.23086,0.08862,0.38934
-3.78872,0,0,18.7887,18.7887,11.2113,11.2113,2.65312,2.01946,14.8542,0.0487515,0.0455826,-0.0869567,0,0,3.4125,-0.49,-1.82,0.044042,0.011468,-1.09727,-0.23086,0.08862,0.38934
-3.73203,0,0,18.732,18.732,11.268,11.268,2.61249,2.07084,14.8187,0.0478553,0.0448733,-0.0869561,0,0,3.4475,0.0875,-2.765,0.044042,0.011468,-1.09727,-0.23086,0.08862,0.38934
-3.73191,0,0,18.7319,18.7319,11.2681,11.2681,2.61226,2.07078,14.8158,0.169707,0.048533,-0.203265,1,0,3.3425,-0.07,-2.835,0.166408,0.015128,-1.21268,-0.23086,0.08862,0.38934
-3.73315,0,0,18.7331,18.7331,11.2669,11.2669,2.613,2.07065,14.8124,0.169709,0.048546,-0.203266,1,0,3.9025,-0.1225,-3.185,0.166408,0.015128,-1.21268,-0.23086,0.08862,0.38934
-3.63452,0,0,18.6345,18.6345,11.3655,11.3655,2.54242,1.87863,14.9326,-0.141225,0.0568471,-0.0173198,0,0,3.185,-0.315,-3.395,-0.149206,0.024644,-1.02834,-0.23086,0.08862,0.38934
-3.53673,0,0,18.5367,18.5367,11.4633,11.4633,2.47244,1.6911,15.0532,-0.137954,0.055632,-0.0171645,0,0,2.7825,-0.1575,-3.7625,-0.149206,0.024644,-1.02834,-0.2331,0.08722,0.39144
-3.53533,0,0,18.5353,18.5353,11.4647,11.4647,2.4713,1.6908,15.0487,0.069063,-0.0969241,0.143038,1,0,2.8525,-0.245,-3.7975,0.058682,-0.127734,-0.869372,-0.2331,0.08722,0.39144
-3.53385,0,0,18.5339,18.5339,11.4661,11.4661,2.47012,1.69043,15.0445,0.0690695,-0.0969448,0.143039,1,0,2.8175,-0.28,-3.5875,0.058682,-0.127734,-0.869372,-0.2331,0.08722,0.39144
-3.82616,0,0,18.8262,18.8262,11.1738,11.1738,2.67876,2.11631,14.7432,0.298052,-0.174412,0.093327,0,0,3.29,-0.3325,-3.57,0.296094,-0.208742,-0.918294,-0.2331,0.08722,0.39144
-4.11234,0,0,19.1123,19.1123,10.8877,10.8877,2.88303,2.53199,14.4462,0.290803,-0.170869,0.0928603,0,0,3.43,-0.7175,-3.3775,0.296094,-0.208742,-0.918294,-0.2331,0.08722,0.39144
-4.02028,0,0,19.0203,19.0203,10.9797,10.9797,2.81712,2.28413,14.5968,-0.184987,0.0490421,-0.0223496,0,0,3.675,-0.4025,-2.9925,-0.18605,0.012078,-1.03285,-0.2331,0.08722,0.39144
-3.92947,0,0,18.9295,18.9295,11.0705,11.0705,2.75211,2.04197,14.7482,-0.180763,0.0479173,-0.0221352,0,0,3.3775,-0.4025,-2.1,-0.18605,0.012078,-1.03285,-0.2331,0.08722,0.39144
-3.98012,0,0,18.9801,18.9801,11.0199,11.0199,2.78814,1.76518,14.9111,-0.199017,-0.0506141,0.0813944,0,0,3.1325,-0.035,-2.03,-0.20923,-0.086986,-0.93025,-0.2331,0.08722,0.39144
-4.03083,0,0,19.0308,19.0308,10.9692,10.9692,2.8242,1.4943,15.0736,-0.194291,-0.0499791,0.0814979,0,0,3.3075,-0.2625,-1.295,-0.20923,-0.086986,-0.93025,-0.2331,0.08722,0.39144
-3.63219,0,0,18.6322,18.6322,11.3678,11.3678,2.53932,1.30745,15.2294,-0.1247,0.287259,-0.0250322,0,0,2.8,-0.0875,-1.19,-0.142618,0.254858,-1.03627,-0.23464,0.08876,0.38836
-3.2415,0,0,18.2415,18.2415,11.7585,11.7585,2.26014,1.12478,15.3873,-0.121512,0.282394,-0.0247606,0,0,3.3075,-0.1575,-0.5075,-0.142618,0.254858,-1.03627,-0.23464,0.08876,0.38836
-3.24249,0,0,18.2425,18.2425,11.7575,11.7575,2.26073,1.12429,15.3969,0.0893952,0.0286251,0.128556,1,0,3.64,-0.0175,4.445,0.069174,0.001342,-0.884134,-0.23464,0.08876,0.38836
-3.24325,0,0,18.2433,18.2433,11.7567,11.7567,2.26115,1.1248,15.3994,0.0893863,0.0286324,0.128555,1,0,3.6225,0.4025,0.2625,0.069174,0.001342,-0.884134,-0.23464,0.08876,0.38836
-3.24458,0,0,18.2446,18.2446,11.7554,11.7554,2.26197,0.957623,15.5115,-0.12139,-0.0107981,0.0538552,0,0,3.6225,0.665,0.4725,-0.145424,-0.038064,-0.95831,-0.23464,0.08876,0.38836
-3.24641,0,0,18.2464,18.2464,11.7536,11.7536,2.26316,0.793489,15.6239,-0.118525,-0.0107757,0.0538981,0,0,3.71,0.21,1.1025,-0.145424,-0.038064,-0.95831,-0.23464,0.08876,0.38836
-3.04767,0,0,18.0477,18.0477,11.9523,11.9523,2.12109,0.540102,15.8164,-0.194162,0.131225,-0.0673058,0,0,3.29,0.1925,1.155,-0.225822,0.106262,-1.07872,-0.23464,0.08876,0.38836
-2.85222,0,0,17.8522,17.8522,12.1478,12.1478,1.98138,0.292996,16.0087,-0.18985,0.128789,-0.0671871,0,0,3.185,0.4025,1.2775,-0.225822,0.106262,-1.07872,-0.23464,0.08876,0.38836
-2.85248,0,0,17.8525,17.8525,12.1475,12.1475,1.98146,0.293053,16.0126,0.124311,0.115723,-0.205996,1,0,3.4475,0.1575,1.1025,0.08967,0.093208,-1.21646,-0.23674,0.0903,0.39326
-2.85261,0,0,17.8526,17.8526,12.1474,12.1474,1.98144,0.293298,16.0162,-0.0345961,-0.0327836,0.117604,1,0,3.395,0.2625,0.945,-0.069906,-0.055144,-0.895358,-0.23674,0.0903,0.39326
-2.85378,0,0,17.8538,17.8538,12.1462,12.1462,1.98217,0.292583,16.0191,-0.0345836,-0.0327708,0.117604,1,0,3.815,-0.315,0.5425,-0.069906,-0.055144,-0.895358,-0.23674,0.0903,0.39326
-2.88735,0,0,17.8874,17.8874,12.1126,12.1126,2.00605,0.502965,15.8879,0.152234,-0.00536529,0.0410901,0,0,3.7625,0.105,-4.3575,0.12139,-0.028182,-0.971242,-0.23674,0.0903,0.39326
-2.91832,0,0,17.9183,17.9183,12.0817,12.0817,2.02806,0.708348,15.7645,0.14865,-0.00498271,0.0410387,0,0,3.185,0.0875,-0.35,0.12139,-0.028182,-0.971242,-0.23674,0.0903,0.39326
-2.92096,0,0,17.921,17.921,12.079,12.079,2.02984,0.664528,15.7982,-0.0347578,-0.00690539,-0.0344436,0,0,3.325,0.5775,-1.05,-0.063562,-0.030134,-1.04615,-0.23674,0.0903,0.39326
-2.92366,0,0,17.9237,17.9237,12.0763,12.0763,2.03165,0.621709,15.8317,-0.0340105,-0.00687338,-0.0344364,0,0,3.325,0.5775,-1.05,-0.063562,-0.030134,-1.04615,-0.23674,0.0903,0.39326
-2.81987,0,0,17.8199,17.8199,12.1801,12.1801,1.95741,0.439267,15.9688,-0.137977,0.062422,-0.0384191,0,0,3.605,-0.0525,-1.96,-0.171166,0.040382,-1.05018,-0.23296,0.08778,0.39466
-2.93878,0,0,17.9388,17.9388,12.0612,12.0612,2.04224,0.548297,15.8962,0.0790375,-0.0806971,-0.0284054,0,0,3.64,-0.35,-2.625,0.048678,-0.104066,-1.04017,-0.23296,0.08778,0.39466
-3.05532,0,0,18.0553,18.0553,11.9447,11.9447,2.12537,0.654687,15.8243,0.0771808,-0.079248,-0.0284776,0,0,3.64,-0.35,-2.625,0.048678,-0.104066,-1.04017,-0.23296,0.08778,0.39466
-3.27956,0,0,18.2796,18.2796,11.7204,11.7204,2.28542,1.01203,15.5793,0.269817,-0.141432,0.00808584,0,0,3.1675,-0.21,-3.3075,0.248392,-0.16897,-1.00369,-0.23296,0.08778,0.39466
-3.49867,0,0,18.4987,18.4987,11.5013,11.5013,2.4418,1.36132,15.3372,0.263722,-0.138711,0.00784716,0,0,3.1675,-0.21,-3.3075,0.248392,-0.16897,-1.00369,-0.23296,0.08778,0.39466
-3.93353,0,0,18.9335,18.9335,11.0665,11.0665,2.75226,1.60276,15.1372,0.142275,-0.269964,0.146179,0,0,2.415,-0.0875,-3.6925,0.130662,-0.305488,-0.866078,-0.23296,0.08778,0.39466
-4.36041,0,0,19.3604,19.3604,10.6396,10.6396,3.05701,1.83822,14.9408,0.138168,-0.264661,0.145786,0,0,2.415,-0.0875,-3.6925,0.130662,-0.305488,-0.866078,-0.23296,0.08778,0.39466
-4.45154,0,0,19.4515,19.4515,10.5485,10.5485,3.12194,1.62711,15.0538,-0.153116,-0.0723954,0.0884194,0,0,3.01,-0.49,-3.7975,-0.165554,-0.114558,-0.923052,-0.23296,0.08778,0.39466
-4.54098,0,0,19.541,19.541,10.459,10.459,3.18566,1.41927,15.1646,-0.14949,-0.0712801,0.0884545,0,0,3.01,-0.49,-3.7975,-0.165554,-0.114558,-0.923052,-0.23842,0.08722,0.38584
-4.54072,0,0,19.5407,19.5407,10.4593,10.4593,3.1853,1.4185,15.1615,-0.0496157,0.0498633,0.142307,1,0,3.255,-0.5075,-2.94,-0.06527,0.006466,-0.869616,-0.23842,0.08722,0.38584
-4.54045,0,0,19.5405,19.5405,10.4595,10.4595,3.18494,1.41773,15.1584,-0.0496022,0.0498571,0.142307,1,0,3.255,-0.5075,-2.94,-0.06527,0.006466,-0.869616,-0.23842,0.08722,0.38584
-4.48078,0,0,19.4808,19.4808,10.5192,10.5192,3.14214,1.34842,15.2046,-0.0465705,0.0398315,0.04365,0,0,4.0775,-0.3675,-1.995,-0.06344,-0.002806,-0.967582,-0.23842,0.08722,0.38584
-4.26242,0,0,19.2624,19.2624,10.7376,10.7376,2.98601,1.38278,15.2047,0.0429722,0.170839,-0.0715443,0,0,3.6225,-0.2975,-1.6975,0.027084,0.130784,-1.08202,-0.23842,0.08722,0.38584
-4.04735,0,0,19.0473,19.0473,10.9527,10.9527,2.83224,1.41656,15.2058,0.0423829,0.168159,-0.0714225,0,0,3.4825,-0.2975,-1.05,0.027084,0.130784,-1.08202,-0.23842,0.08722,0.38584
-4.06323,0,0,19.0632,19.0632,10.9368,10.9368,2.84343,1.51097,15.1466,0.0743872,-0.00665577,-0.0393847,0,0,3.08,-0.4025,-0.56,0.060878,-0.044042,-1.05018,-0.23842,0.08722,0.38584
-4.07823,0,0,19.0782,19.0782,10.9218,10.9218,2.85399,1.60387,15.0888,0.0727664,-0.00647396,-0.0394379,0,0,2.9225,0.0175,-0.0175,0.060878,-0.044042,-1.05018,-0.23842,0.08722,0.38584
-4.0579,0,0,19.0579,19.0579,10.9421,10.9421,2.83932,1.84058,14.9457,0.171292,0.0347873,0.0482361,0,0,3.4475,0.21,0.35,0.163968,-0.002562,-0.963068,-0.23842,0.08722,0.38584
-4.03793,0,0,19.0379,19.0379,10.9621,10.9621,2.8249,2.07185,14.8074,0.167258,0.0345294,0.0481109,0,0,3.7625,0.2625,0.91,0.163968,-0.002562,-0.963068,-0.23688,0.08526,0.38318
-4.04035,0,0,19.0403,19.0403,10.9597,10.9597,2.82648,2.0717,14.8112,-0.0103512,-0.160113,0.160116,1,0,4.2175,0.07,1.085,-0.014396,-0.19703,-0.851926,-0.23688,0.08526,0.38318
-4.04264,0,0,19.0426,19.0426,10.9574,10.9574,2.82796,2.07127,14.8154,-0.0103437,-0.160087,0.160115,1,0,4.165,-0.0875,1.26,-0.014396,-0.19703,-0.851926,-0.23688,0.08526,0.38318
-4.11809,0,0,19.1181,19.1181,10.8819,10.8819,2.8817,1.86459,14.9373,-0.149241,-0.0604666,0.0866685,0,0,3.7975,0.0175,1.3125,-0.157502,-0.098454,-0.924882,-0.23688,0.08526,0.38318
-4.19082,0,0,19.1908,19.1908,10.8092,10.8092,2.9335,1.6637,15.0579,-0.145737,-0.0595587,0.0867305,0,0,3.08,0.63,1.295,-0.157502,-0.098454,-0.924882,-0.23688,0.08526,0.38318
-4.04596,0,0,19.046,19.046,10.954,10.954,2.82987,1.71594,15.0452,0.0518595,0.11352,-0.0656616,0,0,3.15,0.4725,1.4525,0.041846,0.07625,-1.07616,-0.23688,0.08526,0.38318
-3.90312,0,0,18.9031,18.9031,11.0969,11.0969,2.7277,1.76714,15.0312,0.0509662,0.111738,-0.0656023,0,0,3.045,0.42,0.7525,0.041846,0.07625,-1.07616,-0.23688,0.08526,0.38318
-3.63349,0,0,18.6335,18.6335,11.3665,11.3665,2.53497,1.54305,15.1997,-0.156266,0.181172,7.34682e-05,0,0,3.22,0.2975,0.455,-0.17019,0.148962,-1.01126,-0.23688,0.08526,0.38318
-3.37099,0,0,18.371,18.371,11.629,11.629,2.34734,1.32614,15.3596,-0.152482,0.177906,0.0003076,0,0,3.7625,-0.245,0.035,-0.17019,0.148962,-1.01126,-0.23338,0.09184,0.38878
-3.22117,0,0,18.2212,18.2212,11.7788,11.7788,2.24021,1.38306,15.3381,0.0552375,0.119614,-0.059517,0,0,3.9375,0.4725,-0.6475,0.039406,0.092598,-1.07067,-0.23338,0.09184,0.38878
