pid_x,pid_y,pid_z,front_left_speed,front_right_speed,back_left_speed,back_right_speed,orientation_x,orientation_y,orientation_z,acceleration_x,acceleration_y,acceleration_z,accel_rejected,mag_rejected,gyro_x,gyro_y,gyro_z,accel_x,accel_y,accel_z,mag_x,mag_y,mag_z
-0.0145299,0,0,15.0145,15.0145,14.9855,14.9855,0.0181623,0.057325,0.0587395,0.0450864,-0.0156266,-0.00497955,0,0,3.535,0.42,-0.4025,0.005978,-0.003782,-1.0176,-0.04382,0.08694,0.44562
-0.0297408,0,0,15.0297,15.0297,14.9703,14.9703,0.0371761,0.117844,0.112913,0.0477962,-0.0162717,-0.000801073,0,0,3.5525,0.1925,-0.385,0.00976,-0.004758,-1.01345,-0.04382,0.08694,0.44562
-0.0425903,0,0,15.0426,15.0426,14.9574,14.9574,0.0532379,0.172799,0.17054,0.0439214,-0.0139152,-0.00879538,0,0,3.5175,0.1575,-0.5075,0.006832,-0.002684,-1.02138,-0.04382,0.08694,0.44562
-0.0552428,0,0,15.0552,15.0552,14.9448,14.9448,0.0690535,0.232676,0.222078,0.0479788,-0.0132728,-0.00511092,0,0,3.7625,0.0875,-0.525,0.011956,-0.002318,-1.01772,-0.04382,0.08694,0.44562
-0.0673665,0,0,15.0674,15.0674,14.9326,14.9326,0.0842082,0.291159,0.273667,0.0469581,-0.0130083,-0.00511594,0,0,3.57,0.035,-0.455,0.011956,-0.002318,-1.01772,-0.04382,0.08694,0.44562
-0.0794463,0,0,15.0794,15.0794,14.9206,14.9206,0.0993078,0.346753,0.32693,0.044287,-0.0129891,-0.00106446,0,0,3.5175,0.1225,-0.42,0.010248,-0.002562,-1.0137,-0.04382,0.08694,0.44562
-0.0915864,0,0,15.0916,15.0916,14.9084,14.9084,0.114483,0.397792,0.383261,0.040845,-0.0129685,-0.00795586,0,0,3.64,0.175,-0.49,0.007686,-0.002806,-1.02053,-0.04382,0.08694,0.44562
-0.103383,0,0,15.1034,15.1034,14.8966,14.8966,0.129229,0.447871,0.441315,0.039971,-0.0127111,-0.00796285,0,0,3.57,0.2275,-0.35,0.007686,-0.002806,-1.02053,-0.04466,0.0861,0.44646
-0.117374,0,0,15.1174,15.1174,14.8826,14.8826,0.146718,0.498,0.49896,0.0389746,-0.0148485,0.00432404,0,0,3.5875,0.42,-0.2275,0.007564,-0.005246,-1.00833,-0.04466,0.0861,0.44646
-0.127798,0,0,15.1278,15.1278,14.8722,14.8722,0.159747,0.546401,0.556198,0.0383729,-0.0109573,0.00222561,0,0,3.6575,0.175,-0.315,0.007808,-0.001586,-1.0104,-0.04466,0.0861,0.44646
-0.137262,0,0,15.1373,15.1373,14.8627,14.8627,0.171578,0.589475,0.617111,0.034341,-0.00989596,-0.00331512,0,0,3.7275,0.21,-0.455,0.004514,-0.000732,-1.01589,-0.04466,0.0861,0.44646
-0.146515,0,0,15.1465,15.1465,14.8535,14.8535,0.183143,0.631819,0.678263,0.033602,-0.00969413,-0.00332363,0,0,3.71,0.3325,-0.2625,0.004514,-0.000732,-1.01589,-0.04466,0.0861,0.44646
-0.157361,0,0,15.1574,15.1574,14.8426,14.8426,0.196701,0.678863,0.733871,0.0376404,-0.0114116,-0.00480918,0,0,3.7275,0.175,-0.28,0.009394,-0.002684,-1.01736,-0.04466,0.0861,0.44646
-0.168444,0,0,15.1684,15.1684,14.8316,14.8316,0.210556,0.727672,0.786933,0.0388539,-0.0116583,-0.00211563,0,0,3.71,0.245,-0.2625,0.011468,-0.003172,-1.01467,-0.04466,0.0861,0.44646
-0.179269,0,0,15.1793,15.1793,14.8207,14.8207,0.224086,0.775377,0.829051,0.0380213,-0.0114223,-0.00212745,0,0,3.6925,0.49,-0.385,0.011468,-0.003172,-1.01467,-0.03962,0.09142,0.44744
-0.187761,0,0,15.1878,15.1878,14.8122,14.8122,0.234702,0.820737,0.872087,0.0367438,-0.00928301,-0.00754895,0,0,3.5,0.35,-0.315,0.01098,-0.00122,-1.02004,-0.03962,0.09142,0.44744
-0.197789,0,0,15.1978,15.1978,14.8022,14.8022,0.247236,0.864471,0.915386,0.0353731,-0.0111405,-0.00338085,0,0,3.3425,0.14,-0.385,0.01037,-0.003294,-1.01589,-0.03962,0.09142,0.44744
-0.207613,0,0,15.2076,15.2076,14.7924,14.7924,0.259517,0.907355,0.958507,0.0346248,-0.0109262,-0.00339337,0,0,3.3425,0.1925,-0.455,0.01037,-0.003294,-1.01589,-0.03962,0.09142,0.44744
-0.217301,0,0,15.2173,15.2173,14.7827,14.7827,0.271626,0.949994,1.00084,0.0346096,-0.0105928,-0.0036523,0,0,3.465,0.105,-0.4025,0.011102,-0.003172,-1.01614,-0.03962,0.09142,0.44744
-0.226969,0,0,15.227,15.227,14.773,14.773,0.283712,0.991627,1.04315,0.0338831,-0.010382,-0.00366564,0,0,3.5875,0.0525,-0.385,0.011102,-0.003172,-1.01614,-0.03962,0.09142,0.44744
-0.237007,0,0,15.237,15.237,14.763,14.763,0.296259,1.03496,1.08292,0.0354351,-0.0108959,-0.00368012,0,0,3.5175,-0.0525,-0.315,0.01342,-0.003904,-1.01614,-0.03962,0.09142,0.44744
-0.246669,0,0,15.2467,15.2467,14.7533,14.7533,0.308336,1.07743,1.12257,0.0346941,-0.0106852,-0.00369489,0,0,3.395,-0.0175,-0.35,0.01342,-0.003904,-1.01614,-0.03962,0.09142,0.44744
-0.257661,0,0,15.2577,15.2577,14.7423,14.7423,0.322077,1.11342,1.16682,0.0290851,-0.011911,-0.00174105,0,0,3.5175,0.0175,-0.385,0.008418,-0.005368,-1.01419,-0.0406,0.09198,0.44674
-0.263889,0,0,15.2639,15.2639,14.7361,14.7361,0.329861,1.15324,1.20644,0.0322777,-0.00676804,0.00156404,0,0,3.4825,0.1225,-0.385,0.012322,-0.000366,-1.01089,-0.0406,0.09198,0.44674
-0.270066,0,0,15.2701,15.2701,14.7299,14.7299,0.337583,1.19176,1.24599,0.0316055,-0.00663338,0.0015495,0,0,3.535,-0.14,-0.385,0.012322,-0.000366,-1.01089,-0.0406,0.09198,0.44674
-0.2784,0,0,15.2784,15.2784,14.7216,14.7216,0.347999,1.22753,1.28744,0.0287946,-0.00901636,0.00743676,0,0,3.4475,-0.07,-0.49,0.010126,-0.002928,-1.00504,-0.0406,0.09198,0.44674
-0.286639,0,0,15.2866,15.2866,14.7134,14.7134,0.358299,1.2629,1.32871,0.0281776,-0.00883673,0.00742224,0,0,3.5,0.14,-0.56,0.010126,-0.002928,-1.00504,-0.0406,0.09198,0.44674
-0.2942,0,0,15.2942,15.2942,14.7058,14.7058,0.36775,1.29872,1.36871,0.0291318,-0.00830553,-0.00218276,0,0,3.465,0.1225,-0.5425,0.011712,-0.002562,-1.01455,-0.0406,0.09198,0.44674
-0.301666,0,0,15.3017,15.3017,14.6983,14.6983,0.377083,1.33368,1.40898,0.0285217,-0.00814279,-0.00219784,0,0,3.5,0.07,-0.35,0.011712,-0.002562,-1.01455,-0.0406,0.09198,0.44674
-0.307953,0,0,15.308,15.308,14.692,14.692,0.384941,1.36753,1.44924,0.0276881,-0.0067845,3.99789e-07,0,0,3.535,0,-0.4025,0.011468,-0.001342,-1.01236,-0.0406,0.09198,0.44674
-0.313874,0,0,15.3139,15.3139,14.6861,14.6861,0.392342,1.40112,1.48962,0.0271021,-0.00665546,-1.4636e-05,0,0,3.36,0,-0.385,0.011468,-0.001342,-1.01236,-0.0497,0.09282,0.44506
-0.320252,0,0,15.3203,15.3203,14.6797,14.6797,0.400315,1.42738,1.53607,0.0212986,-0.00712706,-0.00334652,0,0,3.4125,-0.0175,-0.4025,0.0061,-0.001952,-1.01565,-0.0497,0.09282,0.44506
-0.326805,0,0,15.3268,15.3268,14.6732,14.6732,0.408506,1.45315,1.58249,0.0208489,-0.00698424,-0.00335883,0,0,3.6225,0.035,-0.3675,0.0061,-0.001952,-1.01565,-0.0497,0.09282,0.44506
-0.333063,0,0,15.3331,15.3331,14.6669,14.6669,0.416329,1.4848,1.62288,0.0256421,-0.0070921,-0.00448051,0,0,3.36,0.0875,-0.385,0.011468,-0.002196,-1.01675,-0.0497,0.09282,0.44506
-0.339545,0,0,15.3395,15.3395,14.6605,14.6605,0.424431,1.51588,1.66311,0.0250997,-0.00695085,-0.00449575,0,0,3.605,0.1575,-0.4375,0.011468,-0.002196,-1.01675,-0.0497,0.09282,0.44506
-0.347543,0,0,15.3475,15.3475,14.6525,14.6525,0.434429,1.54465,1.70524,0.0228971,-0.00848629,-0.00537111,0,0,3.6925,0.35,-0.42,0.00976,-0.003904,-1.0176,-0.0497,0.09282,0.44506
-0.355183,0,0,15.3552,15.3552,14.6448,14.6448,0.443979,1.57243,1.74731,0.0224123,-0.00831978,-0.00538557,0,0,3.5525,0.14,-0.4025,0.00976,-0.003904,-1.0176,-0.0497,0.09282,0.44506
-0.383025,0,0,15.383,15.383,14.617,14.617,0.478781,1.5966,1.79401,0.0162808,-0.0289628,0.0311136,0,0,3.57,0.315,-0.245,0.004026,-0.025132,-0.981368,-0.0497,0.09282,0.44506
-0.410307,0,0,15.4103,15.4103,14.5897,14.5897,0.512884,1.62004,1.84215,0.015872,-0.0283679,0.0310969,0,0,3.57,0.315,-0.245,0.004026,-0.025132,-0.981368,-0.04298,0.09142,0.44464
-0.336141,0,0,15.3361,15.3361,14.6639,14.6639,0.420176,1.67048,1.85664,0.0503443,0.08518,-0.0559627,0,0,3.57,0.385,-0.595,0.039528,0.089914,-1.06774,-0.04298,0.09142,0.44464
-0.263434,0,0,15.2634,15.2634,14.7366,14.7366,0.329293,1.71997,1.8711,0.0494809,0.0835944,-0.0559779,0,0,3.57,0.385,-0.595,0.039528,0.089914,-1.06774,-0.04298,0.09142,0.44464
-0.28384,0,0,15.2838,15.2838,14.7162,14.7162,0.354799,1.74563,1.91266,0.0207271,-0.0224552,-0.0197243,0,0,3.7275,0.28,-1.05,0.011102,-0.01647,-1.03175,-0.04298,0.09142,0.44464
-0.303841,0,0,15.3038,15.3038,14.6962,14.6962,0.379801,1.77072,1.95414,0.0202894,-0.0220192,-0.0197405,0,0,3.7275,0.28,-1.05,0.011102,-0.01647,-1.03175,-0.04298,0.09142,0.44464
-0.220788,0,0,15.2208,15.2208,14.7792,14.7792,0.275985,1.88171,1.90667,0.0946463,0.0892589,0.0266827,0,0,3.5875,0.035,-0.7,0.087718,0.096502,-0.985638,-0.04298,0.09142,0.44464
-0.139355,0,0,15.1394,15.1394,14.8606,14.8606,0.174193,1.99051,1.85904,0.0927484,0.087483,0.0266255,0,0,3.5875,0.035,-0.7,0.087718,0.096502,-0.985638,-0.04298,0.09142,0.44464
-0.172187,0,0,15.1722,15.1722,14.8278,14.8278,0.215234,1.65984,2.23384,-0.312469,-0.043453,-0.0994612,0,0,3.08,0.945,-0.1225,-0.325008,-0.035014,-1.11093,-0.04298,0.09142,0.44464
-0.171528,0,0,15.1715,15.1715,14.8285,14.8285,0.21441,1.66123,2.23429,-0.312494,-0.0434674,-0.0994619,1,0,3.08,0.945,-0.1225,-0.325008,-0.035014,-1.11093,-0.04298,0.09142,0.44464
-0.169696,0,0,15.1697,15.1697,14.8303,14.8303,0.21212,1.66191,2.23477,-0.226494,0.0940073,-0.189214,1,0,2.2575,0.525,-0.105,-0.238632,0.102358,-1.19999,-0.03906,0.09968,0.45766
-0.272377,0,0,15.2724,15.2724,14.7276,14.7276,0.340471,1.85812,2.09455,0.152278,-0.10624,0.0870578,0,0,2.2925,-4.41,0.245,0.14518,-0.099918,-0.925736,-0.03906,0.09968,0.45766
-0.373063,0,0,15.3731,15.3731,14.6269,14.6269,0.466328,2.05021,1.95516,0.148927,-0.104046,0.086928,0,0,2.2925,-4.41,0.245,0.14518,-0.099918,-0.925736,-0.03906,0.09968,0.45766
-0.453897,0,0,15.4539,15.4539,14.5461,14.5461,0.567371,2.02407,2.02657,-0.025921,-0.074072,0.132665,0,0,4.585,-0.28,0.595,-0.030866,-0.071736,-0.880352,-0.03906,0.09968,0.45766
-0.455422,0,0,15.4554,15.4554,14.5446,14.5446,0.569278,2.02335,2.02824,-0.0259085,-0.0740387,0.132665,1,0,4.585,-0.28,0.595,-0.030866,-0.071736,-0.880352,-0.03906,0.09968,0.45766
-0.45816,0,0,15.4582,15.4582,14.5418,14.5418,0.5727,2.0226,2.03039,-0.0199427,0.0630472,0.122214,1,0,5.425,-0.2975,0.875,-0.024888,0.065148,-0.890722,-0.03906,0.09968,0.45766
-0.460897,0,0,15.4609,15.4609,14.5391,14.5391,0.576122,2.02185,2.03254,-0.0199296,0.0631068,0.122214,1,0,5.425,-0.2975,0.875,-0.024888,0.065148,-0.890722,-0.03906,0.09968,0.45766
-0.461516,0,0,15.4615,15.4615,14.5385,14.5385,0.576895,2.02301,2.03483,0.127534,-0.0339704,0.158852,1,0,3.9375,0.8225,0.945,0.12322,-0.031842,-0.854366,-0.03948,0.10458,0.46172
-0.408516,0,0,15.4085,15.4085,14.5915,14.5915,0.510645,1.93514,2.15372,-0.0711418,0.0534164,0.0539181,0,0,2.3275,1.295,0.9275,-0.077836,0.056608,-0.958554,-0.03948,0.10458,0.46172
-0.356551,0,0,15.3566,15.3566,14.6434,14.6434,0.445689,1.84912,2.27275,-0.0696413,0.0522838,0.0539771,0,0,2.3275,1.295,0.9275,-0.077836,0.056608,-0.958554,-0.03948,0.10458,0.46172
-0.242779,0,0,15.2428,15.2428,14.7572,14.7572,0.303474,1.95513,2.20574,0.121793,0.150069,-0.21803,0,0,2.065,0.2625,0.2275,0.116266,0.15677,-1.22842,-0.03948,0.10458,0.46172
-0.24069,0,0,15.2407,15.2407,14.7593,14.7593,0.300863,1.95535,2.20678,0.121789,0.150023,-0.21803,1,0,2.065,0.2625,0.2275,0.116266,0.15677,-1.22842,-0.03948,0.10458,0.46172
-0.242269,0,0,15.2423,15.2423,14.7577,14.7577,0.302836,1.95429,2.2068,0.134564,0.119526,-0.209669,1,0,4.655,-0.49,-0.3675,0.129076,0.12627,-1.22012,-0.03948,0.10458,0.46172
-0.244176,0,0,15.2442,15.2442,14.7558,14.7558,0.30522,1.95323,2.20697,-0.00366844,-0.115526,-0.172538,1,0,4.8825,-0.49,-0.28,-0.00976,-0.10858,-1.18328,-0.03948,0.10458,0.46172
-0.246977,0,0,15.247,15.247,14.753,14.753,0.308722,1.95256,2.20696,-0.00365677,-0.115465,-0.172538,1,0,5.5125,-0.2625,-0.385,-0.00976,-0.10858,-1.18328,-0.03948,0.10458,0.46172
-0.249098,0,0,15.2491,15.2491,14.7509,14.7509,0.311373,1.95202,2.20671,-0.0528489,0.28247,0.302904,1,0,5.04,-0.1925,-0.525,-0.05917,0.288896,-0.711504,-0.04018,0.11018,0.47166
-0.249418,0,0,15.2494,15.2494,14.7506,14.7506,0.311773,1.95264,2.20545,-0.0528598,0.282477,0.302903,1,0,3.7975,0.49,-1.12,-0.05917,0.288896,-0.711504,-0.04018,0.11018,0.47166
0.18232,0,0,14.8177,14.8177,15.1823,15.1823,-0.2279,2.04545,2.12636,0.0915471,0.504738,0.0731859,0,0,2.9925,0.6825,-1.75,0.087474,0.52033,-0.9394,-0.04018,0.11018,0.47166
-0.0483035,0,0,15.0483,15.0483,14.9517,14.9517,0.0603794,2.12664,2.07493,0.0708149,-0.282104,-0.0555854,0,0,1.435,0.42,-1.7675,0.068076,-0.270718,-1.06713,-0.04018,0.11018,0.47166
-0.273947,0,0,15.2739,15.2739,14.7261,14.7261,0.342433,2.20629,2.02403,0.0694256,-0.277185,-0.0556552,0,0,1.015,0.595,-1.82,0.068076,-0.270718,-1.06713,-0.04018,0.11018,0.47166
-0.428535,0,0,15.4285,15.4285,14.5715,14.5715,0.535669,2.22326,2.0299,0.0105737,-0.174648,0.00369162,0,0,2.1525,0.4375,-1.6625,0.009272,-0.171654,-1.00821,-0.04018,0.11018,0.47166
-0.581802,0,0,15.5818,15.5818,14.4182,14.4182,0.727252,2.23958,2.03594,0.0102889,-0.171307,0.0036437,0,0,3.325,0.3325,-1.5225,0.009272,-0.171654,-1.00821,-0.04018,0.11018,0.47166
-0.631125,0,0,15.6311,15.6311,14.3689,14.3689,0.788907,2.23327,2.05975,-0.00685192,-0.0514025,0.0236744,0,0,4.48,0.0175,-1.575,-0.008052,-0.052948,-0.988322,-0.04018,0.11018,0.47166
-0.682043,0,0,15.682,15.682,14.318,14.318,0.852553,2.22562,2.08063,-0.00671847,-0.0502925,0.0236637,0,0,6.2825,-0.735,-1.5225,-0.008052,-0.052948,-0.988322,-0.04172,0.11172,0.48104
-0.686212,0,0,15.6862,15.6862,14.3138,14.3138,0.857765,2.22438,2.07884,-0.0589357,-0.0442174,-0.106908,1,0,6.51,-0.6125,-1.4175,-0.060512,-0.04697,-1.11789,-0.04172,0.11172,0.48104
-0.687991,0,0,15.688,15.688,14.312,14.312,0.859989,2.22418,2.07727,-0.0589322,-0.0441787,-0.106909,1,0,4.83,0,-1.295,-0.060512,-0.04697,-1.11789,-0.04172,0.11172,0.48104
-0.627826,0,0,15.6278,15.6278,14.3722,14.3722,0.784783,2.25973,2.05703,0.0370289,0.0718733,-0.0906848,0,0,3.85,0.175,-1.225,0.036478,0.070272,-1.10178,-0.04172,0.11172,0.48104
-0.566807,0,0,15.5668,15.5668,14.4332,14.4332,0.708509,2.29518,2.03739,0.0364107,0.0705429,-0.0906921,0,0,2.415,0.5425,-0.8925,0.036478,0.070272,-1.10178,-0.04172,0.11172,0.48104
-0.492196,0,0,15.4922,15.4922,14.5078,14.5078,0.615245,2.33532,2.01245,0.0360752,0.0807626,-0.0259077,0,0,1.2425,0.6125,-0.875,0.036844,0.082106,-1.03749,-0.04172,0.11172,0.48104
-0.420105,0,0,15.4201,15.4201,14.5799,14.5799,0.525131,2.37428,1.98805,0.0353956,0.0791909,-0.02592,0,0,1.9775,0.4025,-0.56,0.036844,0.082106,-1.03749,-0.04172,0.11172,0.48104
-0.419411,0,0,15.4194,15.4194,14.5806,14.5806,0.524264,2.70102,1.69217,0.276072,-0.00155227,0.0382526,0,0,2.0475,0.35,-0.245,0.28426,0.001464,-0.97356,-0.04172,0.11172,0.48104
-0.421793,0,0,15.4218,15.4218,14.5782,14.5782,0.527241,3.02116,1.38551,0.270491,-0.00150293,0.0379733,0,0,4.2,-0.4725,0.4725,0.28426,0.001464,-0.97356,-0.0441,0.1197,0.47852
-0.367728,0,0,15.3677,15.3677,14.6323,14.6323,0.45966,2.70859,1.66851,-0.245356,0.0571635,0.0999762,0,0,5.005,-0.735,0.63,-0.239242,0.061244,-0.912316,-0.0441,0.1197,0.47852
-0.316028,0,0,15.316,15.316,14.684,14.684,0.395035,2.40339,1.95174,-0.240034,0.0560385,0.100222,0,0,5.9675,-0.0525,0.5425,-0.239242,0.061244,-0.912316,-0.0441,0.1197,0.47852
-0.319434,0,0,15.3194,15.3194,14.6806,14.6806,0.399293,2.40333,1.95414,-0.125836,-0.165181,0.171655,1,0,5.88,0.105,1.015,-0.124562,-0.15982,-0.841434,-0.0441,0.1197,0.47852
-0.320099,0,0,15.3201,15.3201,14.6799,14.6799,0.400124,2.40315,1.95668,-0.125833,-0.165166,0.171655,1,0,3.955,0.035,1.1025,-0.124562,-0.15982,-0.841434,-0.0441,0.1197,0.47852
-0.186778,0,0,15.1868,15.1868,14.8132,14.8132,0.233472,2.59458,1.77548,0.157292,0.145304,0.0452571,0,0,3.22,-0.21,0.9975,0.163114,0.153232,-0.966728,-0.0441,0.1197,0.47852
-0.0553242,0,0,15.0553,15.0553,14.9447,14.9447,0.0691553,2.78301,1.593,0.154007,0.142439,0.0451104,0,0,2.8,0.28,0.665,0.163114,0.153232,-0.966728,-0.0441,0.1197,0.47852
-0.0536817,0,0,15.0537,15.0537,14.9463,14.9463,0.0671021,2.78383,1.59495,0.0209658,0.100636,-0.127879,1,0,2.345,0.6125,0.7525,0.029524,0.111508,-1.13838,-0.0441,0.1197,0.47852
-0.0540713,0,0,15.0541,15.0541,14.9459,14.9459,0.0675892,2.78585,1.59713,0.0209306,0.100644,-0.127881,1,0,3.7625,1.3125,0.8925,0.029524,0.111508,-1.13838,-0.0441,0.1197,0.47852
-0.0557135,0,0,15.0557,15.0557,14.9443,14.9443,0.0696418,2.78739,1.59878,-0.194004,-0.184608,-0.102063,1,0,4.655,1.0325,0.5775,-0.186294,-0.173484,-1.11276,-0.03808,0.12362,0.49056
-0.0575722,0,0,15.0576,15.0576,14.9424,14.9424,0.0719652,2.78836,1.60022,-0.0469022,0.00057683,0.138301,1,0,4.8125,0.7,0.455,-0.038552,0.011468,-0.874252,-0.03808,0.12362,0.49056
-0.061702,0,0,15.0617,15.0617,14.9383,14.9383,0.0771276,2.78757,1.60162,-0.0468884,0.000666823,0.138301,1,0,6.405,-0.3325,0.4375,-0.038552,0.011468,-0.874252,-0.03808,0.12362,0.49056
-0.0649868,0,0,15.065,15.065,14.935,14.935,0.0812335,2.78693,1.60249,-0.110779,-0.0118407,-0.148291,1,0,5.8275,-0.245,0.1225,-0.102724,-0.001098,-1.15863,-0.03808,0.12362,0.49056
-0.0670914,0,0,15.0671,15.0671,14.9329,14.9329,0.0838642,2.78692,1.60254,-0.110779,-0.0117948,-0.148291,1,0,5.0225,0.1225,-0.35,-0.102724,-0.001098,-1.15863,-0.03808,0.12362,0.49056
-0.0678382,0,0,15.0678,15.0678,14.9322,14.9322,0.0847978,2.78762,1.60236,0.0894176,0.0867778,-0.406853,1,0,4.0775,0.5425,-0.49,0.098332,0.097356,-1.4152,-0.03808,0.12362,0.49056
-0.0666265,0,0,15.0666,15.0666,14.9334,14.9334,0.0832831,2.78806,1.60061,0.08941,0.0867514,-0.406853,1,0,2.7475,0.385,-1.4,0.098332,0.097356,-1.4152,-0.03808,0.12362,0.49056
-0.065863,0,0,15.0659,15.0659,14.9341,14.9341,0.0823288,2.78853,1.59884,-0.127329,0.10713,-0.144358,1,0,3.0625,0.4025,-1.4175,-0.119316,0.11773,-1.15473,-0.03808,0.12362,0.49056
-0.0659775,0,0,15.066,15.066,14.934,14.934,0.0824719,2.78927,1.59652,-0.127342,0.107132,-0.144359,1,0,3.6925,0.56,-1.7325,-0.119316,0.11773,-1.15473,-0.04018,0.12726,0.4879
0.118724,0,0,14.8813,14.8813,15.1187,15.1187,-0.148404,2.94035,1.42982,0.105829,0.18591,0.130543,0,0,4.06,0.8925,-1.6975,0.117486,0.200446,-0.881816,-0.04018,0.12726,0.4879
0.298865,0,0,14.7011,14.7011,15.2989,15.2989,-0.373581,3.08748,1.26153,0.103264,0.181986,0.13039,0,0,4.8825,0.3675,-2.1,0.117486,0.200446,-0.881816,-0.04018,0.12726,0.4879
0.296213,0,0,14.7038,14.7038,15.2962,15.2962,-0.370266,3.08862,1.25863,0.0568369,0.092769,0.176372,1,0,5.495,0.805,-2.065,0.070882,0.111264,-0.836188,-0.04018,0.12726,0.4879
0.292906,0,0,14.7071,14.7071,15.2929,15.2929,-0.366133,3.08838,1.25587,0.0568411,0.0928411,0.176373,1,0,5.95,0,-1.995,0.070882,0.111264,-0.836188,-0.04018,0.12726,0.4879
0.243809,0,0,14.7562,14.7562,15.2438,15.2438,-0.304761,3.26846,1.05539,0.13522,-0.047267,0.114976,0,0,5.6875,-0.1225,-1.68,0.152744,-0.029768,-0.896944,-0.04018,0.12726,0.4879
0.196775,0,0,14.8032,14.8032,15.1968,15.1968,-0.245969,3.44416,0.855389,0.132158,-0.0462417,0.114802,0,0,4.9,-0.6125,-1.6975,0.152744,-0.029768,-0.896944,-0.04018,0.12726,0.4879
0.0722661,0,0,14.9277,14.9277,15.0723,15.0723,-0.0903326,3.23694,1.02324,-0.172926,-0.137935,0.0234238,0,0,3.6925,-0.7175,-0.9975,-0.157258,-0.124074,-0.987834,-0.04018,0.12726,0.4879
-0.0493555,0,0,15.0494,15.0494,14.9506,14.9506,0.0616944,3.03667,1.19887,-0.169436,-0.135285,0.0236157,0,0,3.36,-0.0175,-0.875,-0.157258,-0.124074,-0.987834,-0.04032,0.12152,0.50106
0.33668,0,0,14.6633,14.6633,15.3367,15.3367,-0.42085,3.12638,1.08957,0.0714861,0.448376,0.0683814,0,0,2.555,0.0525,0.07,0.086254,0.467382,-0.943304,-0.04032,0.12152,0.50106
0.716093,0,0,14.2839,14.2839,15.7161,15.7161,-0.895116,3.21422,0.979274,0.0699552,0.440112,0.0682017,0,0,2.555,0.0525,0.07,0.086254,0.467382,-0.943304,-0.04032,0.12152,0.50106
0.716075,0,0,14.2839,14.2839,15.7161,15.7161,-0.895094,3.21489,0.98067,0.197625,-0.140111,-0.129992,1,0,3.5175,0.5075,0.4375,0.214476,-0.11224,-1.13997,-0.04032,0.12152,0.50106
0.716058,0,0,14.2839,14.2839,15.7161,15.7161,-0.895072,3.21556,0.982067,0.197613,-0.140111,-0.129993,1,0,3.5175,0.5075,0.4375,0.214476,-0.11224,-1.13997,-0.04032,0.12152,0.50106
0.714122,0,0,14.2859,14.2859,15.7141,15.7141,-0.892652,3.21457,0.98448,-0.0102314,0.128976,0.395122,1,0,4.83,-0.4725,1.015,0.005734,0.156526,-0.618906,-0.04032,0.12152,0.50106
0.712186,0,0,14.2878,14.2878,15.7122,15.7122,-0.890232,3.21358,0.986894,-0.0102141,0.129019,0.395124,1,0,4.83,-0.4725,1.015,0.005734,0.156526,-0.618906,-0.04032,0.12152,0.50106
0.70979,0,0,14.2902,14.2902,15.7098,15.7098,-0.887237,3.21346,0.989534,0.0138422,-0.191268,0.142711,1,0,5.145,0.035,1.155,0.02989,-0.16348,-0.869372,-0.04032,0.12152,0.50106
0.707394,0,0,14.2926,14.2926,15.7074,15.7074,-0.884243,3.21334,0.992174,0.0138443,-0.191216,0.142712,1,0,5.145,0.035,1.155,0.02989,-0.16348,-0.869372,-0.04284,0.12866,0.50708
0.793911,0,0,14.2061,14.2061,15.7939,15.7939,-0.992388,3.60514,0.584809,0.345599,0.0997672,0.0621124,0,0,4.8125,0.0525,1.1025,0.369904,0.129076,-0.948916,-0.04284,0.12866,0.50708
0.878992,0,0,14.121,14.121,15.879,15.879,-1.09874,3.98968,0.176261,0.338902,0.0979235,0.0616342,0,0,4.8125,0.0525,1.1025,0.369904,0.129076,-0.948916,-0.04284,0.12866,0.50708
0.88011,0,0,14.1199,14.1199,15.8801,15.8801,-1.10014,3.99087,0.178518,-0.05862,0.242497,-0.10693,1,0,2.6775,0.805,0.945,-0.02928,0.273524,-1.11618,-0.04284,0.12866,0.50708
0.758675,0,0,14.2413,14.2413,15.7587,15.7587,-0.948344,3.93835,0.193975,-0.0432486,-0.136019,0.0179732,0,0,2.59,1.295,0.49,-0.014762,-0.107238,-0.992348,-0.04284,0.12866,0.50708
0.637596,0,0,14.3624,14.3624,15.6376,15.6376,-0.796995,3.88588,0.207426,-0.042335,-0.133385,0.0180758,0,0,4.0425,0.6825,-0.4725,-0.014762,-0.107238,-0.992348,-0.04284,0.12866,0.50708
0.635972,0,0,14.364,14.364,15.636,15.636,-0.794965,3.88649,0.207352,0.222858,-0.0179397,0.205449,1,0,4.69,0.49,-0.42,0.251564,0.008052,-0.80642,-0.04284,0.12866,0.50708
0.634152,0,0,14.3658,14.3658,15.6342,15.6342,-0.79269,3.88564,0.207209,0.222872,-0.0179001,0.205451,1,0,4.83,-0.3675,-0.4725,0.251564,0.008052,-0.80642,-0.04284,0.12866,0.50708
0.67775,0,0,14.3222,14.3222,15.6778,15.6778,-0.847188,3.55466,0.488098,-0.286219,0.0478267,0.067003,0,0,5.2325,0.315,-0.84,-0.265472,0.074664,-0.944158,-0.03738,0.12852,0.511
0.677816,0,0,14.3222,14.3222,15.6778,15.6778,-0.84727,3.55398,0.487172,0.195119,-0.0369307,0.28954,1,0,3.535,-0.2625,-0.9275,0.217892,-0.010004,-0.723338,-0.03738,0.12852,0.511
0.677551,0,0,14.3224,14.3224,15.6776,15.6776,-0.846939,3.55452,0.485866,0.195109,-0.0369249,0.28954,1,0,3.78,0.455,-1.1375,0.217892,-0.010004,-0.723338,-0.03738,0.12852,0.511
0.679118,0,0,14.3209,14.3209,15.6791,15.6791,-0.848898,3.55463,0.484387,-0.16036,-0.219783,-0.0946747,1,0,2.5025,0.21,-1.2425,-0.13908,-0.192638,-1.10459,-0.03738,0.12852,0.511
0.678335,0,0,14.3217,14.3217,15.6783,15.6783,-0.847919,3.55522,0.48245,-0.16037,-0.219766,-0.0946751,1,0,4.165,0.49,-1.505,-0.13908,-0.192638,-1.10459,-0.03738,0.12852,0.511
0.644665,0,0,14.3553,14.3553,15.6447,15.6447,-0.805831,3.20349,0.791386,-0.29067,-0.037191,0.112866,0,0,3.605,0.7875,-1.6275,-0.276086,-0.01098,-0.899018,-0.03738,0.12852,0.511
0.610266,0,0,14.3897,14.3897,15.6103,15.6103,-0.762833,2.85887,1.09964,-0.284664,-0.036446,0.113194,0,0,4.5675,1.085,-1.575,-0.276086,-0.01098,-0.899018,-0.03738,0.12852,0.511
0.513628,0,0,14.4864,14.4864,15.5136,15.5136,-0.642035,3.21439,0.729657,0.338922,-0.116162,0.00666347,0,0,4.62,-0.28,-1.68,0.356362,-0.09272,-1.00443,-0.03738,0.12852,0.511
0.419929,0,0,14.5801,14.5801,15.4199,15.4199,-0.524911,3.5623,0.354793,0.33286,-0.114118,0.00632539,0,0,3.7625,-1.1025,-1.5225,0.356362,-0.09272,-1.00443,-0.03962,0.13342,0.51254
0.388517,0,0,14.6115,14.6115,15.3885,15.3885,-0.485647,3.77414,0.104275,0.207928,-0.0371024,-0.0523057,0,0,4.34,-0.77,-1.47,0.234606,-0.01647,-1.06238,-0.03962,0.13342,0.51254
0.358282,0,0,14.6417,14.6417,15.3583,15.3583,-0.447852,3.98102,-0.145949,0.204325,-0.0364423,-0.0525445,0,0,3.9375,-1.2775,-1.575,0.234606,-0.01647,-1.06238,-0.03962,0.13342,0.51254
0.248908,0,0,14.7511,14.7511,15.2489,15.2489,-0.311135,3.77521,0.00324445,-0.179266,-0.130055,-0.0428187,0,0,3.4825,-0.9975,-1.015,-0.154208,-0.112362,-1.05298,-0.03962,0.13342,0.51254
0.142114,0,0,14.8579,14.8579,15.1421,15.1421,-0.177643,3.57546,0.151076,-0.175787,-0.127731,-0.0425853,0,0,3.1675,0.14,-1.1375,-0.154208,-0.112362,-1.05298,-0.03962,0.13342,0.51254
0.143746,0,0,14.8563,14.8563,15.1437,15.1437,-0.179683,3.57623,0.150798,0.133502,0.0904742,0.176754,1,0,2.415,0.5775,-0.5425,0.156404,0.105652,-0.835334,-0.03962,0.13342,0.51254
0.144613,0,0,14.8554,14.8554,15.1446,15.1446,-0.180766,3.57789,0.150847,0.133473,0.0904553,0.176752,1,0,2.94,1.1025,-0.35,0.156404,0.105652,-0.835334,-0.03962,0.13342,0.51254
0.145717,0,0,14.8543,14.8543,15.1457,15.1457,-0.182146,3.57925,0.151649,-0.347998,0.205353,0.251257,1,0,2.7475,0.9275,0.0875,-0.327082,0.220454,-0.761402,-0.03962,0.13342,0.51254
0.144663,0,0,14.8553,14.8553,15.1447,15.1447,-0.180829,3.57906,0.152155,-0.347995,0.205375,0.251257,1,0,4.27,0.0175,-0.0875,-0.327082,0.220454,-0.761402,-0.0364,0.13958,0.51058
0.143172,0,0,14.8568,14.8568,15.1432,15.1432,-0.178965,3.57789,0.152905,0.43816,0.260365,-0.0014003,1,0,4.5675,-0.56,0.0525,0.46238,0.275354,-1.01211,-0.0364,0.13958,0.51058
0.141682,0,0,14.8583,14.8583,15.1417,15.1417,-0.177102,3.57671,0.153655,0.43818,0.260397,-0.00139892,1,0,4.5675,-0.56,0.0525,0.46238,0.275354,-1.01211,-0.0364,0.13958,0.51058
0.140572,0,0,14.8594,14.8594,15.1406,15.1406,-0.175716,3.57536,0.154765,-0.099735,0.084437,0.148477,1,0,4.2875,-0.665,0.2625,-0.077836,0.099552,-0.863394,-0.0364,0.13958,0.51058
0.139463,0,0,14.8605,14.8605,15.1395,15.1395,-0.174329,3.57401,0.155876,-0.0997115,0.0844611,0.148478,1,0,4.2875,-0.665,0.2625,-0.077836,0.099552,-0.863394,-0.0364,0.13958,0.51058
0.141813,0,0,14.8582,14.8582,15.1418,15.1418,-0.177266,3.57478,0.157732,0.0727848,-0.118931,-0.127542,1,0,1.8375,0.5775,0.7,0.095404,-0.103578,-1.13728,-0.0364,0.13958,0.51058
0.144163,0,0,14.8558,14.8558,15.1442,15.1442,-0.180204,3.57555,0.159587,0.0727714,-0.118982,-0.127543,1,0,1.8375,0.5775,0.7,0.095404,-0.103578,-1.13728,-0.0364,0.13958,0.51058
0.195622,0,0,14.8044,14.8044,15.1956,15.1956,-0.244528,3.41646,0.263388,-0.14301,0.0552706,0.0263078,0,0,2.625,1.4875,0.5775,-0.124074,0.071614,-0.984784,-0.0364,0.13958,0.51058
-0.108046,0,0,15.108,15.108,14.892,14.892,0.135057,3.05571,0.578633,-0.313364,-0.349683,0.0802751,0,0,4.48,1.4875,0.6125,-0.301462,-0.339526,-0.931592,-0.04018,0.13608,0.51142
-0.109581,0,0,15.1096,15.1096,14.8904,14.8904,0.136977,3.05763,0.579984,-0.0293639,0.151925,-0.128739,1,0,4.585,1.26,0.4025,-0.016226,0.161528,-1.13899,-0.04018,0.13608,0.51142
-0.110697,0,0,15.1107,15.1107,14.8893,14.8893,0.138371,3.0575,0.58085,-0.0293615,0.15195,-0.128739,1,0,4.305,0.0525,0.1225,-0.016226,0.161528,-1.13899,-0.04018,0.13608,0.51142
-0.110936,0,0,15.1109,15.1109,14.8891,14.8891,0.13867,3.0562,0.581652,0.117537,-0.168872,-0.261768,1,0,3.6925,-0.63,0.0875,0.131272,-0.158966,-1.271,-0.04018,0.13608,0.51142
-0.110289,0,0,15.1103,15.1103,14.8897,14.8897,0.137861,3.05428,0.582183,0.117571,-0.168886,-0.261766,1,0,3.08,-0.9975,-0.07,0.131272,-0.158966,-1.271,-0.04018,0.13608,0.51142
-0.108585,0,0,15.1086,15.1086,14.8914,14.8914,0.135731,3.05256,0.582504,-0.115166,-0.00234231,-0.16525,1,0,2.345,-0.875,-0.1925,-0.10248,0.007442,-1.17523,-0.04018,0.13608,0.51142
-0.107212,0,0,15.1072,15.1072,14.8928,14.8928,0.134015,3.05243,0.582408,-0.115164,-0.00237221,-0.16525,1,0,2.59,0.0525,-0.4375,-0.10248,0.007442,-1.17523,-0.04018,0.13608,0.51142
-0.0327794,0,0,15.0328,15.0328,14.9672,14.9672,0.0409742,3.40825,0.205399,0.300313,0.0823496,0.0773488,0,0,3.0975,0.63,-0.4025,0.320982,0.093696,-0.934154,-0.04018,0.13608,0.51142
0.0397674,0,0,14.9602,14.9602,15.0398,15.0398,-0.0497092,3.75548,-0.16023,0.294264,0.08077,0.0769701,0,0,3.5525,0.875,-0.56,0.320982,0.093696,-0.934154,-0.03752,0.1274,0.4991
-0.052573,0,0,15.0526,15.0526,14.9474,14.9474,0.0657162,3.52541,0.028822,-0.210146,-0.112012,-0.0561744,0,0,3.9725,0.77,-0.77,-0.189588,-0.100894,-1.06652,-0.03752,0.1274,0.4991
-0.141856,0,0,15.1419,15.1419,14.8581,14.8581,0.17732,3.29922,0.216163,-0.206205,-0.110067,-0.0559435,0,0,3.0975,0.4025,-1.1025,-0.189588,-0.100894,-1.06652,-0.03752,0.1274,0.4991
-0.220054,0,0,15.2201,15.2201,14.7799,14.7799,0.275067,3.54629,-0.0485496,0.222708,-0.0917556,0.0224793,0,0,3.29,-0.4025,-1.4175,0.245464,-0.084302,-0.988444,-0.03752,0.1274,0.4991
-0.296317,0,0,15.2963,15.2963,14.7037,14.7037,0.370397,3.78737,-0.312853,0.218509,-0.0900967,0.0222009,0,0,2.9575,-1.1375,-1.785,0.245464,-0.084302,-0.988444,-0.03752,0.1274,0.4991
-0.29454,0,0,15.2945,15.2945,14.7055,14.7055,0.368175,3.78559,-0.315394,0.418141,0.16743,-0.0327548,1,0,2.3975,-0.9275,-1.855,0.44591,0.172996,-1.04298,-0.03752,0.1274,0.4991
-0.293027,0,0,15.293,15.293,14.707,14.707,0.366284,3.78344,-0.318118,0.418179,0.167397,-0.0327521,1,0,2.59,-1.1375,-1.96,0.44591,0.172996,-1.04298,-0.03752,0.1274,0.4991
-0.291681,0,0,15.2917,15.2917,14.7083,14.7083,0.364601,3.78174,-0.320538,0.107934,0.0663689,-0.100249,1,0,2.695,-0.875,-1.785,0.134322,0.072102,-1.10996,-0.03752,0.1274,0.4991
-0.291607,0,0,15.2916,15.2916,14.7084,14.7084,0.364509,3.78138,-0.3225,0.10794,0.0663673,-0.100248,1,0,3.57,-0.0875,-1.5225,0.134322,0.072102,-1.10996,-0.03668,0.12558,0.49308
-0.292168,0,0,15.2922,15.2922,14.7078,14.7078,0.36521,3.7815,-0.324277,-0.357595,0.0106897,0.24327,1,0,4.0075,0.1925,-1.4175,-0.333182,0.01647,-0.769088,-0.03668,0.12558,0.49308
-0.292727,0,0,15.2927,15.2927,14.7073,14.7073,0.365909,3.78269,-0.325597,-0.357616,0.0107018,0.243268,1,0,3.99,0.8225,-1.155,-0.333182,0.01647,-0.769088,-0.03668,0.12558,0.49308
-0.292984,0,0,15.293,15.293,14.707,14.707,0.36623,3.78412,-0.326976,0.100725,0.0569935,-0.308649,1,0,3.78,0.9625,-1.19,0.127124,0.062708,-1.31675,-0.03668,0.12558,0.49308
-0.292129,0,0,15.2921,15.2921,14.7079,14.7079,0.365162,3.78487,-0.328119,0.100712,0.0569748,-0.30865,1,0,2.9925,0.56,-1.05,0.127124,0.062708,-1.31675,-0.03668,0.12558,0.49308
-0.0846498,0,0,15.0846,15.0846,14.9154,14.9154,0.105812,3.6621,-0.254532,-0.112544,0.213544,0.118016,0,0,2.8,0.3325,-0.7525,-0.089182,0.223626,-0.893528,-0.03668,0.12558,0.49308
0.118812,0,0,14.8812,14.8812,15.1188,15.1188,-0.148515,3.53875,-0.179137,-0.110395,0.209114,0.11815,0,0,2.8875,-1.26,-0.3675,-0.089182,0.223626,-0.893528,-0.03668,0.12558,0.49308
-0.102761,0,0,15.1028,15.1028,14.8972,14.8972,0.128452,3.39437,-0.0523803,-0.120272,-0.250509,0.0460091,0,0,2.8525,-0.84,4.445,-0.101626,-0.24034,-0.965264,-0.03668,0.12558,0.49308
-0.320286,0,0,15.3203,15.3203,14.6797,14.6797,0.400357,3.25612,0.0756153,-0.117863,-0.245771,0.0461271,0,0,3.1675,-0.7525,0.1925,-0.101626,-0.24034,-0.965264,-0.03458,0.11872,0.49084
-0.318541,0,0,15.3185,15.3185,14.6815,14.6815,0.398177,3.25652,0.0772349,-0.201452,-0.119896,0.145224,1,0,2.275,0.3675,0.56,-0.185562,-0.114558,-0.866932,-0.03458,0.11872,0.49084
-0.318391,0,0,15.3184,15.3184,14.6816,14.6816,0.397988,3.25828,0.0798553,-0.201483,-0.1199,0.145222,1,0,3.36,1.1725,1.1375,-0.185562,-0.114558,-0.866932,-0.03458,0.11872,0.49084
-0.317814,0,0,15.3178,15.3178,14.6822,14.6822,0.397268,3.26111,0.0829938,0.351349,-0.062757,-0.0449823,1,0,3.045,1.8025,1.435,0.36966,-0.057462,-1.05567,-0.03458,0.11872,0.49084
-0.318369,0,0,15.3184,15.3184,14.6816,14.6816,0.397962,3.26281,0.0863047,0.35132,-0.0627449,-0.044984,1,0,3.8325,1.1375,1.54,0.36966,-0.057462,-1.05567,-0.03458,0.11872,0.49084
-0.240219,0,0,15.2402,15.2402,14.7598,14.7598,0.300274,2.77395,0.543117,-0.402847,0.0808861,0.16498,0,0,3.6225,0.7875,1.3475,-0.396256,0.087718,-0.847778,-0.03458,0.11872,0.49084
-0.163441,0,0,15.1634,15.1634,14.8366,14.8366,0.204301,2.29225,1.00105,-0.394448,0.0792144,0.165359,0,0,3.6925,-0.035,1.2775,-0.396256,0.087718,-0.847778,-0.03458,0.11872,0.49084
-0.163206,0,0,15.1632,15.1632,14.8368,14.8368,0.204008,2.29238,1.00372,-0.178692,-0.106546,-0.191561,1,0,3.325,0.21,1.1725,-0.179584,-0.097844,-1.20194,-0.03458,0.11872,0.49084
-0.163455,0,0,15.1635,15.1635,14.8365,14.8365,0.204319,2.29192,1.00587,-0.178684,-0.10654,-0.19156,1,0,3.675,-0.14,0.875,-0.179584,-0.097844,-1.20194,-0.03458,0.11872,0.49084
-0.419382,0,0,15.4194,15.4194,14.5806,14.5806,0.524228,2.48933,0.834452,0.167024,-0.291725,0.0766569,0,0,3.1675,0.2975,0.5425,0.171044,-0.288408,-0.935618,-0.03766,0.11718,0.48118
-0.41921,0,0,15.4192,15.4192,14.5808,14.5808,0.524013,2.48918,0.835826,-0.114699,-0.113912,-0.209075,1,0,3.395,0.0525,0.42,-0.111874,-0.110776,-1.21915,-0.03766,0.11718,0.48118
-0.420428,0,0,15.4204,15.4204,14.5796,14.5796,0.525535,2.48991,0.836248,-0.114712,-0.113885,-0.209076,1,0,4.3925,0.56,-0.14,-0.111874,-0.110776,-1.21915,-0.03766,0.11718,0.48118
-0.421279,0,0,15.4213,15.4213,14.5787,14.5787,0.526599,2.49185,0.83545,0.0492602,0.198289,0.152268,1,0,4.165,1.26,-0.8575,0.052826,0.201056,-0.860588,-0.03766,0.11718,0.48118
-0.42213,0,0,15.4221,15.4221,14.5779,14.5779,0.527663,2.49379,0.834652,0.0492264,0.198308,0.152266,1,0,4.165,1.26,-0.8575,0.052826,0.201056,-0.860588,-0.03766,0.11718,0.48118
-0.422745,0,0,15.4227,15.4227,14.5773,14.5773,0.528431,2.49496,0.832797,0.028189,-0.15951,0.335704,1,0,4.025,0.805,-1.47,0.03172,-0.156404,-0.678564,-0.03766,0.11718,0.48118
-0.423359,0,0,15.4234,15.4234,14.5766,14.5766,0.529199,2.49613,0.830941,0.0281686,-0.159497,0.335703,1,0,4.025,0.805,-1.47,0.03172,-0.156404,-0.678564,-0.03766,0.11718,0.48118
-0.1913,0,0,15.1913,15.1913,14.8087,14.8087,0.239125,2.57642,0.743017,0.0668588,0.258614,0.0733032,0,0,3.815,-0.665,-1.96,0.07198,0.266326,-0.938912,-0.03766,0.11718,0.48118
0.0365935,0,0,14.9634,14.9634,15.0366,15.0366,-0.0457419,2.6546,0.65683,0.0654958,0.253648,0.0732494,0,0,3.815,-0.665,-1.96,0.07198,0.266326,-0.938912,-0.0385,0.11578,0.48398
-0.136533,0,0,15.1365,15.1365,14.8635,14.8635,0.170667,2.3337,0.970463,-0.276844,-0.192005,0.0872592,0,0,3.8675,-0.28,-2.0475,-0.277428,-0.182634,-0.925248,-0.0385,0.11578,0.48398
-0.269675,0,0,15.2697,15.2697,14.7303,14.7303,0.337094,2.33296,0.980859,-0.00494591,-0.140863,0.0838043,0,0,4.13,0.035,-2.03,-0.004392,-0.134444,-0.928664,-0.0385,0.11578,0.48398
-0.407229,0,0,15.4072,15.4072,14.5928,14.5928,0.509036,2.33255,0.991807,-0.0049388,-0.137864,0.0837825,0,0,8.9425,0.245,-1.6275,-0.004392,-0.134444,-0.928664,-0.0385,0.11578,0.48398
-0.409231,0,0,15.4092,15.4092,14.5908,14.5908,0.511539,2.33285,0.990274,-0.138335,0.0794427,0.137633,1,0,4.9875,0.2975,-1.2775,-0.138348,0.082594,-0.875228,-0.0385,0.11578,0.48398
-0.411057,0,0,15.4111,15.4111,14.5889,14.5889,0.513821,2.33342,0.989433,-0.138345,0.0794825,0.137633,1,0,4.8475,0.455,-0.875,-0.138348,0.082594,-0.875228,-0.0385,0.11578,0.48398
-0.4115,0,0,15.4115,15.4115,14.5885,14.5885,0.514375,2.3338,0.989102,0.172287,0.0893844,0.221975,1,0,3.8675,0.35,-0.5775,0.173606,0.092476,-0.791536,-0.0385,0.11578,0.48398
-0.411827,0,0,15.4118,15.4118,14.5882,14.5882,0.514783,2.33334,0.989002,0.172295,0.0893915,0.221975,1,0,3.78,-0.14,-0.4375,0.173606,0.092476,-0.791536,-0.0385,0.11578,0.48398
-0.432049,0,0,15.432,15.432,14.568,14.568,0.540061,2.35885,0.976705,0.0232733,-0.0232572,-0.00513304,0,0,3.6925,-0.315,-0.245,0.0244,-0.020496,-1.01687,-0.03794,0.11312,0.48384
-0.378646,0,0,15.3786,15.3786,14.6214,14.6214,0.473307,2.57494,0.779844,0.186427,0.0604555,0.0445091,0,0,3.325,-0.0875,0.1925,0.192028,0.064294,-0.96746,-0.03794,0.11312,0.48384
-0.326291,0,0,15.3263,15.3263,14.6737,14.6737,0.407863,2.786,0.583446,0.182747,0.0593132,0.0443456,0,0,3.3775,-0.6125,0.595,0.192028,0.064294,-0.96746,-0.03794,0.11312,0.48384
-0.32683,0,0,15.3268,15.3268,14.6732,14.6732,0.408538,2.78639,0.585635,-0.0816127,0.0235419,0.184752,1,0,3.8675,0.3675,0.8925,-0.073444,0.028548,-0.828136,-0.03794,0.11312,0.48384
-0.328209,0,0,15.3282,15.3282,14.6718,14.6718,0.410261,2.78734,0.588219,-0.0816293,0.0235719,0.184751,1,0,4.445,0.7,1.12,-0.073444,0.028548,-0.828136,-0.03794,0.11312,0.48384
-0.329252,0,0,15.3293,15.3293,14.6707,14.6707,0.411564,2.78937,0.591141,0.139075,-0.1828,0.184872,1,0,4.2,1.33,1.3125,0.14823,-0.177632,-0.828014,-0.03794,0.11312,0.48384
-0.324957,0,0,15.325,15.325,14.675,14.675,0.406196,2.7911,0.59358,0.139045,-0.182893,0.184872,1,0,0.4725,1.155,1.0325,0.14823,-0.177632,-0.828014,-0.03794,0.11312,0.48384
-0.319034,0,0,15.319,15.319,14.681,14.681,0.398792,2.84576,0.547021,0.0497718,0.00847217,-0.0160723,0,0,4.4275,0.385,0.84,0.059536,0.013664,-1.02736,-0.03794,0.11312,0.48384
-0.312451,0,0,15.3125,15.3125,14.6875,14.6875,0.390563,2.8988,0.510538,0.0488472,0.00832841,-0.0161177,0,0,3.885,0.175,0.84,0.059536,0.013664,-1.02736,-0.03668,0.10696,0.47698
-0.313268,0,0,15.3133,15.3133,14.6867,14.6867,0.391584,2.89839,0.512092,0.19075,0.0248333,-0.173614,1,0,4.0775,-0.105,0.525,0.202032,0.030134,-1.18364,-0.03668,0.10696,0.47698
-0.312332,0,0,15.3123,15.3123,14.6877,14.6877,0.390415,2.89831,0.512927,0.190751,0.0248129,-0.173614,1,0,2.87,0.0875,0.105,0.202032,0.030134,-1.18364,-0.03668,0.10696,0.47698
-0.33124,0,0,15.3312,15.3312,14.6688,14.6688,0.41405,2.98323,0.445564,0.0863723,-0.0249697,-0.0875063,0,0,3.3425,0.455,-0.105,0.098698,-0.020008,-1.09812,-0.03668,0.10696,0.47698
-0.350407,0,0,15.3504,15.3504,14.6496,14.6496,0.438009,3.06617,0.378012,0.0849269,-0.0245527,-0.0875858,0,0,3.78,0.2625,-0.28,0.098698,-0.020008,-1.09812,-0.03668,0.10696,0.47698
-0.351095,0,0,15.3511,15.3511,14.6489,14.6489,0.438869,3.06684,0.378222,-0.028431,-0.220795,-0.0906602,1,0,4.025,0.525,-0.2625,-0.015128,-0.216062,-1.10117,-0.03668,0.10696,0.47698
-0.352624,0,0,15.3526,15.3526,14.6474,14.6474,0.44078,3.06758,0.377652,-0.0284439,-0.220762,-0.0906612,1,0,4.6375,0.56,-0.7175,-0.015128,-0.216062,-1.10117,-0.03668,0.10696,0.47698
-0.354415,0,0,15.3544,15.3544,14.6456,14.6456,0.443018,3.06859,0.376784,-0.151527,0.101447,0.123883,1,0,4.83,0.7175,-0.8925,-0.138714,0.105774,-0.888282,-0.03668,0.10696,0.47698
-0.356709,0,0,15.3567,15.3567,14.6433,14.6433,0.445887,3.06841,0.376026,-0.151523,0.101497,0.123883,1,0,5.18,0.0175,-0.8225,-0.138714,0.105774,-0.888282,-0.04088,0.1078,0.47908
-0.228333,0,0,15.2283,15.2283,14.7717,14.7717,0.285416,2.88941,0.544137,-0.157272,0.150605,0.0194335,0,0,5.11,-0.175,-0.8225,-0.14762,0.157624,-0.992104,-0.04088,0.1078,0.47908
-0.100773,0,0,15.1008,15.1008,14.8992,14.8992,0.125967,2.71338,0.712678,-0.154203,0.147826,0.0195937,0,0,4.0425,-0.42,-1.1375,-0.14762,0.157624,-0.992104,-0.04088,0.1078,0.47908
-0.0595485,0,0,15.0595,15.0595,14.9405,14.9405,0.0744356,2.72993,0.705543,0.0186254,0.0494707,-0.0284913,0,0,3.71,-0.77,-1.2425,0.02623,0.060268,-1.03981,-0.04088,0.1078,0.47908
-0.0196764,0,0,15.0197,15.0197,14.9803,14.9803,0.0245955,2.74706,0.698741,0.0183268,0.0486018,-0.0285049,0,0,4.1125,-0.245,-1.0675,0.02623,0.060268,-1.03981,-0.04088,0.1078,0.47908
-0.0554654,0,0,15.0555,15.0555,14.9445,14.9445,0.0693317,2.76427,0.696281,0.0213068,-0.0441674,-0.0970023,0,0,4.445,-0.07,-1.1375,0.029524,-0.033184,-1.10776,-0.04088,0.1078,0.47908
-0.0912739,0,0,15.0913,15.0913,14.9087,14.9087,0.114092,2.78146,0.694104,0.0210071,-0.0433872,-0.097018,0,0,4.9175,0.1225,-0.9625,0.029524,-0.033184,-1.10776,-0.04088,0.1078,0.47908
-0.0932628,0,0,15.0933,15.0933,14.9067,14.9067,0.116578,2.78145,0.693108,0.196919,0.184789,-0.149886,1,0,4.97,0.1225,-0.9625,0.20618,0.194712,-1.16022,-0.04088,0.1078,0.47908
-0.0945402,0,0,15.0945,15.0945,14.9055,14.9055,0.118175,2.78052,0.69244,0.196935,0.184817,-0.149885,1,0,4.4625,-0.42,-0.77,0.20618,0.194712,-1.16022,-0.0462,0.09926,0.47558
-0.111485,0,0,15.1115,15.1115,14.8885,14.8885,0.139356,2.82579,0.676481,0.040158,-0.0177887,0.00548221,0,0,4.655,-0.49,-0.9275,0.049532,-0.008052,-1.00601,-0.0462,0.09926,0.47558
-0.126997,0,0,15.127,15.127,14.873,14.873,0.158746,2.86888,0.660691,0.0394069,-0.0174508,0.00544397,0,0,3.8675,-1.2425,-0.84,0.049532,-0.008052,-1.00601,-0.0462,0.09926,0.47558
-0.126207,0,0,15.1262,15.1262,14.8738,14.8738,0.157759,2.86806,0.660173,-0.278507,-0.201635,0.160114,1,0,3.01,-0.35,-0.6825,-0.269742,-0.192028,-0.852536,-0.0462,0.09926,0.47558
-0.125393,0,0,15.1254,15.1254,14.8746,14.8746,0.156741,2.86674,0.659683,-0.278484,-0.201653,0.160115,1,0,2.9925,-0.6475,-0.665,-0.269742,-0.192028,-0.852536,-0.0462,0.09926,0.47558
-0.256328,0,0,15.2563,15.2563,14.7437,14.7437,0.32041,2.6479,0.901599,-0.193759,-0.148605,0.0507399,0,0,3.43,-0.0525,-0.4025,-0.18849,-0.141886,-0.961238,-0.0462,0.09926,0.47558
-0.386319,0,0,15.3863,15.3863,14.6137,14.6137,0.482899,2.4336,1.14175,-0.190023,-0.145771,0.0508858,0,0,4.4625,0.21,-0.42,-0.18849,-0.141886,-0.961238,-0.0462,0.09926,0.47558
-0.388425,0,0,15.3884,15.3884,14.6116,14.6116,0.485531,2.4334,1.14183,0.0157774,0.257294,0.148998,1,0,5.0225,0.0175,-0.3325,0.018178,0.260714,-0.863882,-0.0462,0.09926,0.47558
-0.389673,0,0,15.3897,15.3897,14.6103,14.6103,0.487091,2.43443,1.14241,0.0157594,0.257321,0.148997,1,0,4.41,0.735,-0.0525,0.018178,0.260714,-0.863882,-0.0392,0.10318,0.47362
-0.390482,0,0,15.3905,15.3905,14.6095,14.6095,0.488102,2.43435,1.1433,0.293842,-0.056283,0.168423,1,0,4.095,0.0875,0.14,0.297436,-0.052582,-0.844606,-0.0392,0.10318,0.47362
-0.391451,0,0,15.3915,15.3915,14.6085,14.6085,0.489314,2.43484,1.1445,0.293833,-0.0562619,0.168423,1,0,4.2,0.42,0.315,0.297436,-0.052582,-0.844606,-0.0392,0.10318,0.47362
-0.391377,0,0,15.3914,15.3914,14.6086,14.6086,0.489222,2.43547,1.14585,-0.0707565,0.0513301,0.19166,1,0,3.465,0.5075,0.4025,-0.068686,0.0549,-0.821548,-0.0392,0.10318,0.47362
-0.390337,0,0,15.3903,15.3903,14.6097,14.6097,0.487922,2.43536,1.14744,-0.0707545,0.0513075,0.19166,1,0,2.7825,0.07,0.5425,-0.068686,0.0549,-0.821548,-0.0392,0.10318,0.47362
-0.109594,0,0,15.1096,15.1096,14.8904,14.8904,0.136993,2.31592,1.27186,-0.101594,0.331698,0.0378481,0,0,2.345,-0.175,1.0675,-0.101748,0.341112,-0.974292,-0.0392,0.10318,0.47362
0.166257,0,0,14.8337,14.8337,15.1663,15.1663,-0.207821,2.19865,1.39802,-0.0995492,0.325684,0.037925,0,0,2.345,-0.175,1.0675,-0.101748,0.341112,-0.974292,-0.0392,0.10318,0.47362
0.151165,0,0,14.8488,14.8488,15.1512,15.1512,-0.188956,2.26032,1.37268,0.0454012,-0.0160636,0.0962848,0,0,3.64,0.665,0.7,0.044896,-0.00061,-0.916342,-0.0392,0.10318,0.47362
0.136354,0,0,14.8636,14.8636,15.1364,15.1364,-0.170442,2.32079,1.33915,0.0443466,-0.0157406,0.0962436,0,0,3.64,0.665,0.7,0.044896,-0.00061,-0.916342,-0.04102,0.10822,0.4809
0.208903,0,0,14.7911,14.7911,15.2089,15.2089,-0.261129,2.39347,1.28928,0.0696845,0.0900276,-0.0326645,0,0,4.3575,1.1375,0.6475,0.071614,0.106628,-1.0442,-0.04102,0.10822,0.4809
0.280129,0,0,14.7199,14.7199,15.2801,15.2801,-0.350161,2.4648,1.23932,0.0684407,0.0884754,-0.0327256,0,0,4.3575,1.1375,0.6475,0.071614,0.106628,-1.0442,-0.04102,0.10822,0.4809
0.279235,0,0,14.7208,14.7208,15.2792,15.2792,-0.349044,2.46554,1.23976,0.104752,-0.0943289,-0.256615,1,0,4.165,0.56,-0.1225,0.108092,-0.076006,-1.26636,-0.04102,0.10822,0.4809
0.278638,0,0,14.7214,14.7214,15.2786,15.2786,-0.348297,2.46478,1.23955,0.148986,0.307481,-0.205837,1,0,3.9725,-0.315,-0.5075,0.1525,0.325374,-1.21597,-0.04102,0.10822,0.4809
0.279164,0,0,14.7208,14.7208,15.2792,15.2792,-0.348954,2.46461,1.23865,0.148989,0.30747,-0.205837,1,0,3.2025,0.035,-0.91,0.1525,0.325374,-1.21597,-0.04102,0.10822,0.4809
0.279288,0,0,14.7207,14.7207,15.2793,15.2793,-0.34911,2.4639,1.23706,0.0994352,0.0445281,-0.222434,1,0,3.5,-0.28,-1.3125,0.102724,0.062708,-1.23244,-0.04102,0.10822,0.4809
0.280457,0,0,14.7195,14.7195,15.2805,15.2805,-0.350571,2.46214,1.23415,0.0994659,0.0445026,-0.222433,1,0,2.8,-0.8925,-2.0825,0.102724,0.062708,-1.23244,-0.04102,0.10822,0.4809
0.310847,0,0,14.6892,14.6892,15.3108,15.3108,-0.388559,2.5763,1.13635,0.10355,0.0339485,0.0130443,0,0,2.765,-0.14,-2.3625,0.108824,0.052826,-0.998692,-0.04102,0.10822,0.4809
0.340384,0,0,14.6596,14.6596,15.3404,15.3404,-0.42548,2.68891,1.0388,0.101586,0.0333055,0.0129495,0,0,2.9925,0.245,-2.625,0.108824,0.052826,-0.998692,-0.0406,0.10794,0.47502
0.312275,0,0,14.6877,14.6877,15.3123,15.3123,-0.390343,2.73986,1.00202,0.0423849,-0.0337399,0.036149,0,0,2.6425,0.1925,-2.485,0.050264,-0.014762,-0.975634,-0.0406,0.10794,0.47502
0.284632,0,0,14.7154,14.7154,15.2846,15.2846,-0.35579,2.78959,0.965412,0.041518,-0.0331373,0.036111,0,0,2.6775,0.0525,-2.415,0.050264,-0.014762,-0.975634,-0.0406,0.10794,0.47502
0.134603,0,0,14.8654,14.8654,15.1346,15.1346,-0.168254,2.57292,1.19003,-0.213105,-0.194251,-0.0592281,0,0,2.415,0.07,-2.52,-0.20923,-0.178974,-1.07043,-0.0406,0.10794,0.47502
-0.01279,0,0,15.0128,15.0128,14.9872,14.9872,0.0159875,2.35984,1.41369,-0.209389,-0.191039,-0.0590638,0,0,2.45,-0.1575,-2.03,-0.20923,-0.178974,-1.07043,-0.0406,0.10794,0.47502
-0.0284415,0,0,15.0284,15.0284,14.9716,14.9716,0.0355519,2.79955,1.00931,0.352834,-0.0197204,0.180955,0,0,2.24,-0.21,-1.6275,0.363072,-0.008174,-0.831918,-0.0406,0.10794,0.47502
-0.0442824,0,0,15.0443,15.0443,14.9557,14.9557,0.055353,3.23154,0.607224,0.345305,-0.0193756,0.180558,0,0,2.5725,-0.175,-0.665,0.363072,-0.008174,-0.831918,-0.0406,0.10794,0.47502
-0.0433685,0,0,15.0434,15.0434,14.9566,14.9566,0.0542106,3.23063,0.607338,-0.111466,0.090885,0.154002,1,0,2.905,-0.4025,-0.315,-0.095648,0.101992,-0.85827,-0.0406,0.10794,0.47502
-0.0439511,0,0,15.044,15.044,14.956,14.956,0.0549389,3.2307,0.609075,-0.111467,0.0908977,0.154002,1,0,3.9025,0.175,0.63,-0.095648,0.101992,-0.85827,-0.04284,0.10332,0.46998
-0.00444179,0,0,15.0044,15.0044,14.9956,14.9956,0.00555224,3.19047,0.659694,-0.0345945,0.0505901,-0.0573067,0,0,4.3575,0.2275,0.9625,-0.019154,0.062586,-1.06799,-0.04284,0.10332,0.46998
0.0348856,0,0,14.9651,14.9651,15.0349,15.0349,-0.043607,3.15176,0.712162,-0.0339199,0.0497335,-0.0572696,0,0,3.92,0.665,1.995,-0.019154,0.062586,-1.06799,-0.04284,0.10332,0.46998
0.0339246,0,0,14.9661,14.9661,15.0339,15.0339,-0.0424057,3.15259,0.716301,0.216934,-0.121589,-0.115179,1,0,4.095,0.6125,2.03,0.232776,-0.10858,-1.12545,-0.04284,0.10332,0.46998
0.0350806,0,0,14.9649,14.9649,15.0351,15.0351,-0.0438507,3.15339,0.721131,0.21692,-0.121615,-0.11518,1,0,2.59,0.595,2.4325,0.232776,-0.10858,-1.12545,-0.04284,0.10332,0.46998
0.0246614,0,0,14.9753,14.9753,15.0247,15.0247,-0.0308268,3.03124,0.85725,-0.11443,-0.0148932,-0.0774425,0,0,2.5725,-0.07,2.5725,-0.102114,-0.002196,-1.08812,-0.04284,0.10332,0.46998
0.0139168,0,0,14.9861,14.9861,15.0139,15.0139,-0.017396,2.9104,0.992785,-0.112324,-0.0146591,-0.0773331,0,0,2.9575,-0.665,2.3625,-0.102114,-0.002196,-1.08812,-0.04284,0.10332,0.46998
0.0150862,0,0,14.9849,14.9849,15.0151,15.0151,-0.0188577,2.91022,0.997074,-0.127749,-0.0657336,0.146556,1,0,2.6075,0.0175,2.1175,-0.117608,-0.053192,-0.865956,-0.04284,0.10332,0.46998
0.0141617,0,0,14.9858,14.9858,15.0142,15.0142,-0.0177021,2.91005,1.00004,-0.127746,-0.0657134,0.146556,1,0,4.1125,0.035,1.3475,-0.117608,-0.053192,-0.865956,-0.04312,0.11284,0.4718
-0.0343525,0,0,15.0344,15.0344,14.9656,14.9656,0.0429406,2.75734,1.15234,-0.136018,-0.054764,0.0307475,0,0,4.2,0.42,0.385,-0.128588,-0.04331,-0.981002,-0.04312,0.11284,0.4718
-0.0819661,0,0,15.082,15.082,14.918,14.918,0.102458,2.60751,1.30411,-0.133406,-0.0537262,0.0308686,0,0,4.2,0.42,0.385,-0.128588,-0.04331,-0.981002,-0.04312,0.11284,0.4718
0.0414209,0,0,14.9586,14.9586,15.0414,15.0414,-0.0517762,2.54202,1.36832,-0.0596153,0.161214,-0.0867406,0,0,4.4275,0.175,-1.225,-0.055632,0.174094,-1.09776,-0.04312,0.11284,0.4718
0.16257,0,0,14.8374,14.8374,15.1626,15.1626,-0.203212,2.47776,1.43297,-0.0584948,0.158574,-0.0866974,0,0,4.4275,0.175,-1.225,-0.055632,0.174094,-1.09776,-0.04312,0.11284,0.4718
0.0902204,0,0,14.9098,14.9098,15.0902,15.0902,-0.112775,2.77314,1.16011,0.277123,-0.0887431,0.0103231,0,0,4.1125,0.4375,-2.66,0.286578,-0.074542,-1.00125,-0.04312,0.11284,0.4718
0.0191655,0,0,14.9808,14.9808,15.0192,15.0192,-0.0239569,3.06307,0.88831,0.272069,-0.0871946,0.0100673,0,0,4.1125,0.4375,-2.66,0.286578,-0.074542,-1.00125,-0.04312,0.11284,0.4718
-0.00782982,0,0,15.0078,15.0078,14.9922,14.9922,0.00978727,2.96275,0.980332,-0.0899108,-0.0315273,0.0156921,0,0,3.675,0.105,-3.3425,-0.07869,-0.01952,-0.995764,-0.04312,0.11284,0.4718
-0.106864,0,0,15.1069,15.1069,14.8931,14.8931,0.13358,3.1139,0.84804,0.123456,-0.11266,0.0777615,0,0,2.2575,-0.14,-3.5525,0.138226,-0.102724,-0.934032,-0.04424,0.10724,0.46578
-0.204342,0,0,15.2043,15.2043,14.7957,14.7957,0.255428,3.26248,0.717085,0.120867,-0.110538,0.0776101,0,0,2.3975,0.07,-3.1675,0.138226,-0.102724,-0.934032,-0.04424,0.10724,0.46578
-0.161082,0,0,15.1611,15.1611,14.8389,14.8389,0.201353,3.60311,0.393883,0.266911,0.0445969,0.15865,0,0,2.7125,0.1225,-2.415,0.290848,0.053192,-0.853268,-0.04424,0.10724,0.46578
-0.118459,0,0,15.1185,15.1185,14.8815,14.8815,0.148074,3.93753,0.0704424,0.261087,0.0436679,0.158269,0,0,2.7125,0.1225,-2.415,0.290848,0.053192,-0.853268,-0.04424,0.10724,0.46578
-0.0250445,0,0,15.025,15.025,14.975,14.975,0.0313056,3.76894,0.217448,-0.151336,0.107217,0.0350294,0,0,3.6925,0.5425,-1.19,-0.12627,0.118706,-0.975756,-0.04424,0.10724,0.46578
-0.0257195,0,0,15.0257,15.0257,14.9743,14.9743,0.0321494,3.77003,0.216421,0.0799532,-0.230082,-0.0793139,1,0,4.06,0.77,-0.98,0.106018,-0.218258,-1.08922,-0.04424,0.10724,0.46578
-0.0207009,0,0,15.0207,15.0207,14.9793,14.9793,0.0258761,3.77181,0.217289,0.0799222,-0.230192,-0.0793159,1,0,0,1.1725,0.1225,0.106018,-0.218258,-1.08922,-0.04424,0.10724,0.46578
-0.0213902,0,0,15.0214,15.0214,14.9786,14.9786,0.0267377,3.77162,0.218906,0.0998492,0.00516151,-0.151855,1,0,3.9725,0.0175,0.56,0.126026,0.016836,-1.1612,-0.04424,0.10724,0.46578
-0.0203591,0,0,15.0204,15.0204,14.9796,14.9796,0.0254488,3.77146,0.221997,0.0998521,0.00513907,-0.151855,1,0,2.7125,0.035,1.4175,0.126026,0.016836,-1.1612,-0.04564,0.10668,0.47474
-0.0198539,0,0,15.0199,15.0199,14.9801,14.9801,0.0248173,3.7707,0.225117,0.0779979,0.105638,-0.0929619,1,0,3.08,-0.315,1.435,0.104066,0.117242,-1.10276,-0.04564,0.10668,0.47474
-0.0205842,0,0,15.0206,15.0206,14.9794,14.9794,0.0257303,3.76886,0.229889,0.0780298,0.105654,-0.0929598,1,0,3.885,-0.945,2.3975,0.104066,0.117242,-1.10276,-0.04564,0.10668,0.47474
-0.0204953,0,0,15.0205,15.0205,14.9795,14.9795,0.0256191,3.76882,0.234753,-0.359925,-0.0154974,-0.276891,1,0,3.3075,0.105,2.45,-0.335744,-0.003782,-1.28527,-0.04564,0.10668,0.47474
-0.0213137,0,0,15.0213,15.0213,14.9787,14.9787,0.0266422,3.76794,0.238354,-0.35991,-0.0154796,-0.27689,1,0,3.99,-0.385,1.715,-0.335744,-0.003782,-1.28527,-0.04564,0.10668,0.47474
-0.0170652,0,0,15.0171,15.0171,14.9829,14.9829,0.0213315,3.68131,0.321797,-0.0791056,0.00470102,-0.0851147,0,0,3.08,-0.0175,1.68,-0.055266,0.01647,-1.09507,-0.04564,0.10668,0.47474
-0.0134819,0,0,15.0135,15.0135,14.9865,14.9865,0.0168524,3.59613,0.404594,-0.077622,0.00462303,-0.0850204,0,0,3.5175,-0.14,1.3475,-0.055266,0.01647,-1.09507,-0.04564,0.10668,0.47474
0.0655145,0,0,14.9345,14.9345,15.0655,15.0655,-0.0818931,3.67919,0.323339,0.0611258,0.0843617,0.10767,0,0,3.465,0.1225,1.015,0.085522,0.097844,-0.903776,-0.04564,0.10668,0.47474
0.143469,0,0,14.8565,14.8565,15.1435,15.1435,-0.179336,3.76108,0.236066,0.0596995,0.0826648,0.107573,0,0,3.2375,0.49,0.4375,0.085522,0.097844,-0.903776,-0.03962,0.1092,0.4732
-0.03953,0,0,15.0395,15.0395,14.9605,14.9605,0.0494125,3.64165,0.356673,-0.104777,-0.195708,0.117425,0,0,3.745,0.0175,-0.2275,-0.08174,-0.18422,-0.894138,-0.03962,0.1092,0.4732
-0.218685,0,0,15.2187,15.2187,14.7813,14.7813,0.273356,3.52468,0.474451,-0.10274,-0.191807,0.117542,0,0,3.4125,0.175,-1.1375,-0.08174,-0.18422,-0.894138,-0.03962,0.1092,0.4732
-0.110704,0,0,15.1107,15.1107,14.8893,14.8893,0.13838,3.86424,0.137488,0.282651,0.121294,0.131553,0,0,4.235,-0.07,-1.7675,0.311222,0.130906,-0.879864,-0.03962,0.1092,0.4732
-0.00439025,0,0,15.0044,15.0044,14.9956,14.9956,0.00548781,4.19873,-0.201149,0.276828,0.11898,0.131146,0,0,4.235,0.525,-2.0825,0.311222,0.130906,-0.879864,-0.03962,0.1092,0.4732
-0.00531595,0,0,15.0053,15.0053,14.9947,14.9947,0.00664494,4.19985,-0.204612,-0.088013,-0.14113,-0.192825,1,0,4.34,0.7875,-2.3975,-0.055144,-0.128954,-1.20133,-0.03962,0.1092,0.4732
-0.00565141,0,0,15.0057,15.0057,14.9943,14.9943,0.00706426,4.20059,-0.208346,-0.0880258,-0.141123,-0.192826,1,0,3.9375,0.56,-2.555,-0.055144,-0.128954,-1.20133,-0.03962,0.1092,0.4732
-0.136118,0,0,15.1361,15.1361,14.8639,14.8639,0.170148,4.46394,-0.46559,0.265288,-0.170526,-0.022033,0,0,3.15,0.8225,-2.3625,0.304268,-0.161162,-1.03151,-0.03962,0.1092,0.4732
-0.263829,0,0,15.2638,15.2638,14.7362,14.7362,0.329786,4.72457,-0.718191,0.260754,-0.167751,-0.0224095,0,0,2.765,0.5425,-2.0475,0.304268,-0.161162,-1.03151,-0.04522,0.1085,0.46872
-0.262223,0,0,15.2622,15.2622,14.7378,14.7378,0.327779,4.72552,-0.720659,-0.207347,0.0962523,0.234675,1,0,2.5375,0.6825,-1.82,-0.165798,0.102602,-0.776408,-0.04522,0.1085,0.46872
-0.260541,0,0,15.2605,15.2605,14.7395,14.7395,0.325676,4.7257,-0.722769,-0.207351,0.0962157,0.234675,1,0,2.4675,0.2275,-1.61,-0.165798,0.102602,-0.776408,-0.04522,0.1085,0.46872
-0.413436,0,0,15.4134,15.4134,14.5866,14.5866,0.516796,4.44075,-0.460546,-0.245642,-0.171822,0.0927962,0,0,2.3975,0.6125,-1.4525,-0.20923,-0.168482,-0.917562,-0.04522,0.1085,0.46872
-0.564666,0,0,15.5647,15.5647,14.4353,14.4353,0.705832,4.16093,-0.199151,-0.240772,-0.168528,0.0931273,0,0,3.1325,0.525,-0.5425,-0.20923,-0.168482,-0.917562,-0.04522,0.1085,0.46872
-0.565771,0,0,15.5658,15.5658,14.4342,14.4342,0.707214,4.16103,-0.198253,-0.1595,0.199464,0.222469,1,0,4.2875,0.1925,0.14,-0.127612,0.199104,-0.789218,-0.04522,0.1085,0.46872
-0.566766,0,0,15.5668,15.5668,14.4332,14.4332,0.708457,4.16228,-0.196258,-0.159521,0.199485,0.222467,1,0,4.165,0.875,0.77,-0.127612,0.199104,-0.789218,-0.04522,0.1085,0.46872
-0.58287,0,0,15.5829,15.5829,14.4171,14.4171,0.728587,4.21251,-0.250515,0.0466157,-0.017673,-0.0118185,0,0,4.585,0.3675,0.98,0.080276,-0.018178,-1.02163,-0.04522,0.1085,0.46872
-0.597839,0,0,15.5978,15.5978,14.4022,14.4022,0.747299,4.26038,-0.302342,0.0457826,-0.0173481,-0.0118844,0,0,3.99,-0.14,1.015,0.080276,-0.018178,-1.02163,-0.03696,0.10612,0.46592
-0.732243,0,0,15.7322,15.7322,14.2678,14.2678,0.915304,4.09568,-0.14235,-0.15168,-0.167079,-0.0247499,0,0,3.5175,-0.1925,1.3475,-0.120902,-0.170678,-1.03456,-0.03696,0.10612,0.46592
-0.864199,0,0,15.8642,15.8642,14.1358,14.1358,1.08025,3.93407,0.0163412,-0.148867,-0.164205,-0.0246025,0,0,3.5175,-0.1925,1.3475,-0.120902,-0.170678,-1.03456,-0.03696,0.10612,0.46592
-0.864046,0,0,15.864,15.864,14.136,14.136,1.08006,3.93371,0.0189149,-0.0487562,-0.208784,-0.118412,1,0,3.3425,-0.0525,1.12,-0.020374,-0.215208,-1.12765,-0.03696,0.10612,0.46592
-0.863892,0,0,15.8639,15.8639,14.1361,14.1361,1.07987,3.93335,0.0214885,-0.0487499,-0.208787,-0.118411,1,0,3.3425,-0.0525,1.12,-0.020374,-0.215208,-1.12765,-0.03696,0.10612,0.46592
-0.711188,0,0,15.7112,15.7112,14.2888,14.2888,0.888984,3.53707,0.381155,-0.373261,0.187251,0.0280363,0,0,3.325,-0.5775,0.7525,-0.35319,0.183732,-0.982832,-0.03696,0.10612,0.46592
-0.56103,0,0,15.561,15.561,14.439,14.439,0.701288,3.1476,0.743205,-0.366475,0.183986,0.0284779,0,0,3.325,-0.5775,0.7525,-0.35319,0.183732,-0.982832,-0.03696,0.10612,0.46592
-0.561572,0,0,15.5616,15.5616,14.4384,14.4384,0.701965,3.14647,0.744057,0.294062,-0.16504,-0.0981581,1,0,3.9025,-0.525,0.1225,0.310124,-0.164944,-1.10849,-0.03696,0.10612,0.46592
-0.567439,0,0,15.5674,15.5674,14.4326,14.4326,0.709299,2.72853,1.14911,-0.39999,-0.00736423,0.0117612,0,0,4.445,0,-0.49,-0.394182,-0.007564,-0.99979,-0.03696,0.10612,0.46592
-0.573535,0,0,15.5735,15.5735,14.4265,14.4265,0.716918,2.31914,1.54281,-0.392852,-0.00722747,0.0120742,0,0,4.725,0.4375,-0.8925,-0.394182,-0.007564,-0.99979,-0.03584,0.11284,0.46788
-0.57444,0,0,15.5744,15.5744,14.4256,14.4256,0.718051,2.3203,1.5421,0.0359725,0.06387,0.144735,1,0,4.2,0.805,-0.805,0.036478,0.06344,-0.868152,-0.03584,0.11284,0.46788
-0.573965,0,0,15.574,15.574,14.426,14.426,0.717456,2.32103,1.54036,0.0359598,0.0638596,0.144734,1,0,3.255,0.5425,-1.4,0.036478,0.06344,-0.868152,-0.03584,0.11284,0.46788
-0.544383,0,0,15.5444,15.5444,14.4556,14.4556,0.680479,2.18115,1.68245,-0.122083,0.0321958,0.0644296,0,0,2.695,0.21,-1.4875,-0.124684,0.032452,-0.94794,-0.03584,0.11284,0.46788
-0.514675,0,0,15.5147,15.5147,14.4853,14.4853,0.643344,2.04413,1.82428,-0.119693,0.0315492,0.0645252,0,0,2.24,0.3325,-1.6625,-0.124684,0.032452,-0.94794,-0.03584,0.11284,0.46788
-0.413638,0,0,15.4136,15.4136,14.5864,14.5864,0.517048,2.12804,1.75607,0.0676318,0.109217,0.100026,0,0,2.3975,0.385,-1.7325,0.064904,0.11224,-0.912682,-0.03584,0.11284,0.46788
-0.315531,0,0,15.3155,15.3155,14.6845,14.6845,0.394414,2.21129,1.68814,0.0661798,0.107078,0.0999884,0,0,3.185,0.91,-1.47,0.064904,0.11224,-0.912682,-0.03584,0.11284,0.46788
-0.437751,0,0,15.4378,15.4378,14.5622,14.5622,0.547189,2.36787,1.55496,0.144602,-0.149656,0.000514916,0,0,4.06,0.7525,-1.4175,0.1464,-0.146888,-1.01126,-0.03584,0.11284,0.46788
-0.55797,0,0,15.558,15.558,14.442,14.442,0.697462,2.52443,1.43829,0.141872,-0.147037,0.000369837,0,0,4.1125,1.26,-0.91,0.1464,-0.146888,-1.01126,-0.0364,0.10318,0.47222
-0.558926,0,0,15.5589,15.5589,14.4411,14.4411,0.698657,2.5264,1.43765,-0.0435499,0.305829,0.429458,1,0,4.235,1.2775,-0.77,-0.039772,0.305488,-0.585478,-0.0364,0.10318,0.47222
-0.557447,0,0,15.5574,15.5574,14.4426,14.4426,0.696809,2.52813,1.43736,-0.04358,0.305797,0.429457,1,0,2.52,1.1375,-0.56,-0.039772,0.305488,-0.585478,-0.0364,0.10318,0.47222
-0.490508,0,0,15.4905,15.4905,14.5095,14.5095,0.613135,2.45633,1.52672,-0.0656533,0.0814576,-0.0271022,0,0,3.185,0.735,-0.175,-0.063196,0.082838,-1.03859,-0.0364,0.10318,0.47222
-0.424916,0,0,15.4249,15.4249,14.5751,14.5751,0.531145,2.38489,1.61682,-0.0644076,0.0800285,-0.0270352,0,0,3.2725,0.14,0.14,-0.063196,0.082838,-1.03859,-0.0364,0.10318,0.47222
-0.584764,0,0,15.5848,15.5848,14.4152,14.4152,0.730955,2.03453,1.98266,-0.346461,-0.205803,0.0104155,0,0,2.9575,0.2625,0.2625,-0.35258,-0.20618,-1.00162,-0.0364,0.10318,0.47222
-0.742709,0,0,15.7427,15.7427,14.2573,14.2573,0.928387,1.68953,2.34602,-0.340443,-0.202356,0.0105613,0,0,3.5525,-0.14,0.595,-0.35258,-0.20618,-1.00162,-0.0364,0.10318,0.47222
-0.791422,0,0,15.7914,15.7914,14.2086,14.2086,0.989277,1.80536,2.27675,0.0986507,-0.05572,0.0469976,0,0,3.29,-0.07,0.98,0.090402,-0.060756,-0.965386,-0.0364,0.10318,0.47222
-0.840019,0,0,15.84,15.84,14.16,14.16,1.05002,1.91895,2.20597,0.0966694,-0.0546617,0.0469143,0,0,3.8325,0.0875,0.98,0.090402,-0.060756,-0.965386,-0.03514,0.1043,0.46998
-0.708374,0,0,15.7084,15.7084,14.2916,14.2916,0.885468,2.16908,1.99584,0.248294,0.167668,-0.00765907,0,0,3.78,-0.35,1.085,0.24705,0.164212,-1.01943,-0.03514,0.1043,0.46998
-0.578941,0,0,15.5789,15.5789,14.4211,14.4211,0.723676,2.4148,1.78469,0.244009,0.164844,-0.00779094,0,0,3.78,-0.35,1.085,0.24705,0.164212,-1.01943,-0.03514,0.1043,0.46998
-0.579411,0,0,15.5794,15.5794,14.4206,14.4206,0.724264,2.41357,1.78665,-0.160031,-0.105901,-0.551837,1,0,3.8325,-0.5775,0.77,-0.158722,-0.106262,-1.55928,-0.03514,0.1043,0.46998
-0.579882,0,0,15.5799,15.5799,14.4201,14.4201,0.724852,2.41233,1.78861,-0.160009,-0.105891,-0.551836,1,0,3.8325,-0.5775,0.77,-0.158722,-0.106262,-1.55928,-0.03514,0.1043,0.46998
-0.641758,0,0,15.6418,15.6418,14.3582,14.3582,0.802198,2.0896,2.12061,-0.292389,-0.0715646,0.0653223,0,0,4.235,0.1575,-0.105,-0.297314,-0.073322,-0.947086,-0.03514,0.1043,0.46998
-0.702516,0,0,15.7025,15.7025,14.2975,14.2975,0.878145,1.77261,2.45131,-0.286859,-0.0702372,0.0654893,0,0,4.235,0.1575,-0.105,-0.297314,-0.073322,-0.947086,-0.03514,0.1043,0.46998
-0.86294,0,0,15.8629,15.8629,14.1371,14.1371,1.07867,1.71378,2.54151,-0.0614491,-0.208772,-0.0490043,0,0,3.22,-0.945,-0.9625,-0.07198,-0.215208,-1.06067,-0.03514,0.1043,0.46998
-0.874124,0,0,15.8741,15.8741,14.1259,14.1259,1.09266,1.68485,2.59171,-0.0264423,-0.0152015,0.0188737,0,0,2.24,-0.1225,-1.19,-0.037332,-0.022082,-0.993324,-0.03682,0.11074,0.47166
-0.873252,0,0,15.8733,15.8733,14.1267,14.1267,1.09156,1.68395,2.58943,-0.240485,-0.100709,-0.0998938,1,0,2.975,-0.42,-1.6975,-0.252296,-0.107482,-1.11118,-0.03682,0.11074,0.47166
-0.873162,0,0,15.8732,15.8732,14.1268,14.1268,1.09145,1.68352,2.58645,-0.240477,-0.100711,-0.0998935,1,0,3.535,-0.1575,-2.1175,-0.252296,-0.107482,-1.11118,-0.03682,0.11074,0.47166
-0.992926,0,0,15.9929,15.9929,14.0071,14.0071,1.24116,1.88281,2.42317,0.164846,-0.13474,0.0849826,0,0,3.6225,0.8575,-2.0125,0.158234,-0.144082,-0.927566,-0.03682,0.11074,0.47166
-1.11147,0,0,16.1115,16.1115,13.8885,13.8885,1.38934,2.07807,2.261,0.16144,-0.132159,0.0848056,0,0,4.2525,0.7175,-1.995,0.158234,-0.144082,-0.927566,-0.03682,0.11074,0.47166
-1.0565,0,0,16.0565,16.0565,13.9435,13.9435,1.32063,1.88511,2.45653,-0.185438,0.0687652,-0.0640633,0,0,3.5175,0.28,-2.0125,-0.193492,0.057828,-1.07543,-0.03682,0.11074,0.47166
-1.00172,0,0,16.0017,16.0017,13.9983,13.9983,1.25214,1.69716,2.65296,-0.182159,0.0675732,-0.0639339,0,0,2.9575,1.1025,-1.645,-0.193492,0.057828,-1.07543,-0.03682,0.11074,0.47166
-1.00026,0,0,16.0003,16.0003,13.9997,13.9997,1.25033,1.69984,2.65157,-0.0584116,-0.114549,-0.0976225,1,0,2.555,1.68,-1.225,-0.069174,-0.124074,-1.10886,-0.03682,0.11074,0.47166
-0.998543,0,0,15.9985,15.9985,14.0015,14.0015,1.24818,1.70168,2.65146,-0.0584438,-0.114587,-0.0976227,1,0,2.345,1.2075,-0.4725,-0.069174,-0.124074,-1.10886,-0.0378,0.10402,0.4683
-0.886527,0,0,15.8865,15.8865,14.1135,14.1135,1.10816,2.04021,2.37036,0.31335,0.137723,0.063912,0,0,3.7275,-0.035,4.0425,0.310124,0.130418,-0.948428,-0.0378,0.10402,0.4683
-0.776785,0,0,15.7768,15.7768,14.2232,14.2232,0.970981,2.37294,2.08244,0.307547,0.135327,0.0637318,0,0,4.165,-0.035,0.7525,0.310124,0.130418,-0.948428,-0.0378,0.10402,0.4683
-0.77844,0,0,15.7784,15.7784,14.2216,14.2216,0.973051,2.37331,2.08478,-0.416514,-0.000685776,0.252826,1,0,4.655,0.3675,0.98,-0.416996,-0.00549,-0.760792,-0.0378,0.10402,0.4683
-0.778752,0,0,15.7788,15.7788,14.2212,14.2212,0.97344,2.37263,2.08726,-0.416502,-0.000678977,0.252826,1,0,3.71,-0.245,1.0675,-0.416996,-0.00549,-0.760792,-0.0378,0.10402,0.4683
-0.777805,0,0,15.7778,15.7778,14.2222,14.2222,0.972256,2.37289,2.09017,-0.0616472,-0.116964,0.207458,1,0,2.8175,0.315,1.3125,-0.060634,-0.121634,-0.80581,-0.0378,0.10402,0.4683
-0.777615,0,0,15.7776,15.7776,14.2224,14.2224,0.972018,2.37211,2.09333,-0.0616335,-0.116968,0.207459,1,0,3.3425,-0.2975,1.47,-0.060634,-0.121634,-0.80581,-0.0378,0.10402,0.4683
-0.776419,0,0,15.7764,15.7764,14.2236,14.2236,0.970524,2.36485,2.0963,0.130683,0.103933,-0.0949887,1,0,2.6425,-4.095,1.4175,0.13237,0.099064,-1.10593,-0.0378,0.10402,0.4683
-0.775223,0,0,15.7752,15.7752,14.2248,14.2248,0.969029,2.35759,2.09926,0.13081,0.103907,-0.094983,1,0,2.6425,-4.095,1.4175,0.13237,0.099064,-1.10593,-0.03192,0.10668,0.46732
-0.77682,0,0,15.7768,15.7768,14.2232,14.2232,0.971025,2.3574,2.1006,-0.002335,0.064739,-0.103836,1,0,4.6375,0.035,0.4025,-0.001342,0.059902,-1.11471,-0.03192,0.10668,0.46732
-0.777893,0,0,15.7779,15.7779,14.2221,14.2221,0.972366,2.35641,2.10193,0.122934,0.0679377,0.137512,1,0,4.27,-0.4375,0.4025,0.12444,0.063074,-0.875228,-0.03192,0.10668,0.46732
-0.77914,0,0,15.7791,15.7791,14.2209,14.2209,0.973926,2.35548,2.10176,0.12295,0.0679649,0.137513,1,0,4.4275,-0.42,-0.4725,0.12444,0.063074,-0.875228,-0.03192,0.10668,0.46732
-0.590708,0,0,15.5907,15.5907,14.4093,14.4093,0.738385,2.20275,2.25938,-0.129263,0.209434,0.110877,0,0,3.535,-0.1575,-0.9975,-0.131516,0.208498,-0.901824,-0.03192,0.10668,0.46732
-0.404618,0,0,15.4046,15.4046,14.5954,14.5954,0.505772,2.05231,2.41742,-0.126639,0.205379,0.111019,0,0,2.905,-0.4375,-1.5225,-0.131516,0.208498,-0.901824,-0.03192,0.10668,0.46732
-0.472245,0,0,15.4722,15.4722,14.5278,14.5278,0.590307,2.06523,2.42789,0.0119934,-0.0852743,-0.014165,0,0,2.6075,-0.7,-1.68,0.00793,-0.083326,-1.02602,-0.03192,0.10668,0.46732
-0.539986,0,0,15.54,15.54,14.46,14.46,0.674982,2.07911,2.43725,0.0117513,-0.0837976,-0.0141901,0,0,3.5525,0.0175,-2.31,0.00793,-0.083326,-1.02602,-0.03192,0.10668,0.46732
-0.541116,0,0,15.5411,15.5411,14.4589,14.4589,0.676394,2.07911,2.43386,0.185476,-0.0561723,-0.146606,1,0,4.41,0.105,-2.3625,0.18239,-0.055754,-1.15741,-0.04326,0.1064,0.46872
-0.490241,0,0,15.4902,15.4902,14.5098,14.5098,0.612802,2.34586,2.20287,0.245211,0.0641107,0.0398626,0,0,4.6375,0.0875,-2.3975,0.24705,0.065514,-0.972218,-0.04326,0.1064,0.46872
-0.43958,0,0,15.4396,15.4396,14.5604,14.5604,0.549475,2.60895,1.97258,0.240624,0.0630045,0.0396754,0,0,4.2,0.77,-1.82,0.24705,0.065514,-0.972218,-0.04326,0.1064,0.46872
-0.439065,0,0,15.4391,15.4391,14.5609,14.5609,0.548831,2.61077,1.97064,-0.015257,0.0533452,-0.304582,1,0,3.2375,1.19,-1.5225,-0.009882,0.055876,-1.31382,-0.04326,0.1064,0.46872
-0.438031,0,0,15.438,15.438,14.562,14.562,0.547539,2.61235,1.97023,-0.0152845,0.0533227,-0.304583,1,0,2.835,1.05,-0.63,-0.009882,0.055876,-1.31382,-0.04326,0.1064,0.46872
-0.438409,0,0,15.4384,15.4384,14.5616,14.5616,0.548011,2.61406,1.97088,-0.0226035,-0.0299595,0.274749,1,0,3.7975,1.1375,-0.0175,-0.017202,-0.027328,-0.738954,-0.04326,0.1064,0.46872
-0.440442,0,0,15.4404,15.4404,14.5596,14.5596,0.550553,2.61431,1.9724,-0.0226077,-0.0299152,0.274748,1,0,4.935,0.28,0.5075,-0.017202,-0.027328,-0.738954,-0.04326,0.1064,0.46872
-0.442067,0,0,15.4421,15.4421,14.5579,14.5579,0.552583,2.61508,1.97436,-0.29888,-0.0941185,-0.103811,1,0,4.6375,0.595,0.7525,-0.29463,-0.0915,-1.11459,-0.04326,0.1064,0.46872
-0.44288,0,0,15.4429,15.4429,14.5571,14.5571,0.5536,2.61523,1.97667,-0.298882,-0.0941008,-0.103811,1,0,4.06,0.2275,0.9625,-0.29463,-0.0915,-1.11459,-0.04004,0.10304,0.47194
-0.442397,0,0,15.4424,15.4424,14.5576,14.5576,0.552996,2.61513,1.97972,0.11575,0.115092,-0.201678,1,0,3.1325,0.0875,1.4,0.121756,0.117486,-1.2117,-0.04004,0.10304,0.47194
-0.442104,0,0,15.4421,15.4421,14.5579,14.5579,0.55263,2.61574,1.98318,0.115739,0.115085,-0.201678,1,0,3.255,0.5075,1.6275,0.121756,0.117486,-1.2117,-0.04004,0.10304,0.47194
-0.344784,0,0,15.3448,15.3448,14.6552,14.6552,0.43098,2.65961,1.96161,0.0470641,0.123345,-0.0362068,0,0,3.465,0.035,1.295,0.053558,0.127856,-1.04749,-0.04004,0.10304,0.47194
-0.249419,0,0,15.2494,15.2494,14.7506,14.7506,0.311774,2.70346,1.93915,0.0462996,0.121267,-0.0362291,0,0,3.6575,0.4725,0.77,0.053558,0.127856,-1.04749,-0.04004,0.10304,0.47194
-0.29647,0,0,15.2965,15.2965,14.7035,14.7035,0.370588,2.70028,1.96624,-0.00430446,-0.0550361,-0.00647909,0,0,4.9875,0.4375,0.455,0.002684,-0.049288,-1.01797,-0.04004,0.10304,0.47194
-0.342095,0,0,15.3421,15.3421,14.6579,14.6579,0.427619,2.69782,1.99215,-0.00426163,-0.0540418,-0.006484,0,0,4.6025,0.84,-0.175,0.002684,-0.049288,-1.01797,-0.04004,0.10304,0.47194
-0.20809,0,0,15.2081,15.2081,14.7919,14.7919,0.260113,2.88399,1.82878,0.17703,0.166407,0.025219,0,0,4.2525,0.42,-0.6125,0.188002,0.17385,-0.98637,-0.04004,0.10304,0.47194
-0.0750792,0,0,15.0751,15.0751,14.9249,14.9249,0.0938491,3.06688,1.66298,0.173842,0.163509,0.0250622,0,0,3.395,0.245,-1.435,0.188002,0.17385,-0.98637,-0.04144,0.10318,0.47628
-0.073493,0,0,15.0735,15.0735,14.9265,14.9265,0.0918663,3.06645,1.66081,-0.231427,0.0914193,0.222641,1,0,2.5025,-0.1225,-1.645,-0.21899,0.10187,-0.790316,-0.04144,0.10318,0.47628
-0.0718947,0,0,15.0719,15.0719,14.9281,14.9281,0.0898684,3.06602,1.65894,-0.231419,0.0913845,0.222641,1,0,2.485,-0.1225,-1.47,-0.21899,0.10187,-0.790316,-0.04144,0.10318,0.47628
-0.0557475,0,0,15.0557,15.0557,14.9443,14.9443,0.0696844,3.39399,1.35516,0.304692,0.0178784,0.0640846,0,0,2.7825,-0.455,-1.5225,0.32513,0.028792,-0.94733,-0.04144,0.10318,0.47628
-0.0413499,0,0,15.0413,15.0413,14.9587,14.9587,0.0516874,3.71746,1.05048,0.299057,0.0175645,0.0637348,0,0,3.9025,0.2975,-2.0825,0.32513,0.028792,-0.94733,-0.04144,0.10318,0.47628
0.164107,0,0,14.8359,14.8359,15.1641,15.1641,-0.205134,3.6671,1.08544,-0.0481222,0.248063,0.0460809,0,0,4.795,-0.1225,-2.03,-0.0244,0.26352,-0.964898,-0.04144,0.10318,0.47628
0.366346,0,0,14.6337,14.6337,15.3663,15.3663,-0.457932,3.61777,1.12245,-0.0472629,0.24366,0.0461101,0,0,4.515,0,-1.2425,-0.0244,0.26352,-0.964898,-0.04144,0.10318,0.47628
0.238354,0,0,14.7616,14.7616,15.2384,15.2384,-0.297942,3.31979,1.42222,-0.302659,-0.167809,-0.0364242,0,0,3.99,1.0675,-0.735,-0.28609,-0.150304,-1.04713,-0.04144,0.10318,0.47628
0.113616,0,0,14.8864,14.8864,15.1136,15.1136,-0.14202,3.02366,1.71503,-0.297498,-0.165093,-0.0361278,0,0,3.3075,0.9975,-0.315,-0.28609,-0.150304,-1.04713,-0.0462,0.10766,0.4697
-0.00386103,0,0,15.0039,15.0039,14.9961,14.9961,0.00482629,3.03332,1.72142,-2.65335e-05,-0.13017,0.106487,0,0,2.975,0.945,0.0175,0.01281,-0.117974,-0.905606,-0.0462,0.10766,0.4697
-0.11987,0,0,15.1199,15.1199,14.8801,14.8801,0.149838,3.04223,1.72876,-0.000181865,-0.127643,0.106475,0,0,3.36,0.6475,0.63,0.01281,-0.117974,-0.905606,-0.0462,0.10766,0.4697
-0.120832,0,0,15.1208,15.1208,14.8792,14.8792,0.15104,3.04201,1.73071,0.178042,0.234606,-0.223027,1,0,4.165,0,0.7525,0.191784,0.243878,-1.23257,-0.0462,0.10766,0.4697
-0.121802,0,0,15.1218,15.1218,14.8782,14.8782,0.152253,3.04109,1.73286,0.178058,0.234627,-0.223026,1,0,4.165,-0.4025,0.875,0.191784,0.243878,-1.23257,-0.0462,0.10766,0.4697
-0.168064,0,0,15.1681,15.1681,14.8319,14.8319,0.21008,2.81275,1.96099,-0.223117,-0.0593002,-0.0476241,0,0,4.3925,0.14,0.9975,-0.215086,-0.050752,-1.05872,-0.0462,0.10766,0.4697
-0.213192,0,0,15.2132,15.2132,14.7868,14.7868,0.26649,2.58812,2.18865,-0.219201,-0.058316,-0.0474435,0,0,4.1825,-0.1225,1.19,-0.215086,-0.050752,-1.05872,-0.0462,0.10766,0.4697
-0.21373,0,0,15.2137,15.2137,14.7863,14.7863,0.267163,2.58825,2.19099,-0.129547,0.260202,-0.154286,1,0,3.8675,0.21,0.98,-0.12505,0.267424,-1.16473,-0.0462,0.10766,0.4697
-0.21245,0,0,15.2124,15.2124,14.7876,14.7876,0.265562,2.58817,2.19204,-0.129545,0.260174,-0.154286,1,0,2.625,0.0875,0.2275,-0.12505,0.267424,-1.16473,-0.03976,0.1057,0.46452
-0.213262,0,0,15.2133,15.2133,14.7867,14.7867,0.266577,2.58742,2.19158,0.0823388,0.0948325,-0.230636,1,0,4.13,-0.315,-0.6475,0.087718,0.102236,-1.2405,-0.03976,0.1057,0.46452
-0.214074,0,0,15.2141,15.2141,14.7859,14.7859,0.267593,2.58666,2.19112,0.082352,0.0948502,-0.230636,1,0,4.13,-0.315,-0.6475,0.087718,0.102236,-1.2405,-0.03976,0.1057,0.46452
-0.385508,0,0,15.3855,15.3855,14.6145,14.6145,0.481885,2.68028,2.12415,0.0774395,-0.200625,0.0660625,0,0,3.99,0.0525,-1.1725,0.084424,-0.196664,-0.945988,-0.03976,0.1057,0.46452
-0.554009,0,0,15.554,15.554,14.446,14.446,0.692511,2.77209,2.05773,0.075839,-0.196954,0.0659486,0,0,3.99,0.0525,-1.1725,0.084424,-0.196664,-0.945988,-0.03976,0.1057,0.46452
-0.695386,0,0,15.6954,15.6954,14.3046,14.3046,0.869233,2.87139,1.98206,0.0781171,-0.161389,0.0937306,0,0,2.3975,0.385,-1.6625,0.08845,-0.164212,-0.918294,-0.03976,0.1057,0.46452
-0.83433,0,0,15.8343,15.8343,14.1657,14.1657,1.04291,2.96877,1.90691,0.0764197,-0.158363,0.0935936,0,0,2.3975,0.385,-1.6625,0.08845,-0.164212,-0.918294,-0.03976,0.1057,0.46452
-0.731715,0,0,15.7317,15.7317,14.2683,14.2683,0.914644,2.93668,1.94357,-0.0310217,0.115164,0.078292,0,0,2.2575,0.7,-1.54,-0.020008,0.111264,-0.933544,-0.03976,0.1057,0.46452
-0.590529,0,0,15.5905,15.5905,14.4095,14.4095,0.738161,3.32464,1.5802,0.366278,0.179619,0.0826387,0,0,4.7775,0.07,-1.61,0.385764,0.17873,-0.928908,-0.03976,0.1057,0.46452
-0.44517,0,0,15.4452,15.4452,14.5548,14.5548,0.556462,3.70767,1.21851,0.359606,0.17645,0.0822645,0,0,0.315,-0.35,-0.945,0.385764,0.17873,-0.928908,-0.04564,0.1043,0.4732
-0.436719,0,0,15.4367,15.4367,14.5633,14.5633,0.545899,3.77066,1.15933,0.0579533,0.0123709,0.00953198,0,0,4.6725,-0.1575,-0.8225,0.083936,0.015006,-1.00101,-0.04564,0.1043,0.4732
-0.427897,0,0,15.4279,15.4279,14.5721,14.5721,0.534871,3.8337,1.10134,0.0568556,0.0121782,0.00946084,0,0,4.27,0.56,-0.175,0.083936,0.015006,-1.00101,-0.04564,0.1043,0.4732
-0.426404,0,0,15.4264,15.4264,14.5736,14.5736,0.533005,3.83526,1.10228,-0.226476,-0.507992,-0.0584082,1,0,2.4675,1.05,0.1575,-0.200568,-0.504592,-1.06835,-0.04564,0.1043,0.4732
-0.425878,0,0,15.4259,15.4259,14.5741,14.5741,0.532348,3.83604,1.10357,-0.22649,-0.508004,-0.0584091,1,0,3.1325,0.595,0.3675,-0.200568,-0.504592,-1.06835,-0.04564,0.1043,0.4732
-0.356416,0,0,15.3564,15.3564,14.6436,14.6436,0.445519,4.00067,0.94655,0.148707,0.0820649,0.0325123,0,0,2.03,0.5775,0.665,0.179096,0.086376,-0.977952,-0.04564,0.1043,0.4732
-0.290789,0,0,15.2908,15.2908,14.7092,14.7092,0.363487,4.16115,0.789295,0.145913,0.0806354,0.0323231,0,0,3.9025,-0.0875,0.6475,0.179096,0.086376,-0.977952,-0.04564,0.1043,0.4732
-0.292282,0,0,15.2923,15.2923,14.7077,14.7077,0.365353,4.16092,0.791273,-0.0160232,0.131106,-0.156772,1,0,4.515,0,0.77,0.01647,0.136762,-1.16559,-0.04564,0.1043,0.4732
-0.293888,0,0,15.2939,15.2939,14.7061,14.7061,0.367361,4.16164,0.793047,-0.0160358,0.131141,-0.156773,1,0,4.6025,0.56,0.6475,0.01647,0.136762,-1.16559,-0.04298,0.1036,0.47348
-0.373149,0,0,15.3731,15.3731,14.6269,14.6269,0.466436,3.97166,0.975567,-0.167623,-0.0869605,0.103117,0,0,3.78,0.315,0.6475,-0.13908,-0.082838,-0.907924,-0.04298,0.1036,0.47348
-0.449284,0,0,15.4493,15.4493,14.5507,14.5507,0.561606,3.7839,1.15574,-0.164353,-0.0853013,0.103324,0,0,2.6425,-0.42,-0.1575,-0.13908,-0.082838,-0.907924,-0.04298,0.1036,0.47348
-0.447748,0,0,15.4477,15.4477,14.5523,14.5523,0.559685,3.78311,1.15587,-0.0413958,0.0842993,0.121767,1,0,2.4675,-0.3325,-0.2975,-0.015616,0.08662,-0.889624,-0.04298,0.1036,0.47348
-0.44655,0,0,15.4466,15.4466,14.5534,14.5534,0.558188,3.78263,1.15532,-0.0413874,0.0842732,0.121768,1,0,2.73,-0.1575,-0.7,-0.015616,0.08662,-0.889624,-0.04298,0.1036,0.47348
-0.446664,0,0,15.4467,15.4467,14.5533,14.5533,0.55833,3.78283,1.15454,0.0387896,0.107846,0.216192,1,0,3.6575,0.245,-0.84,0.064904,0.110166,-0.795928,-0.04298,0.1036,0.47348
-0.446532,0,0,15.4465,15.4465,14.5535,14.5535,0.558165,3.78292,1.15336,0.0387881,0.107843,0.216192,1,0,3.5,0.175,-1.0675,0.064904,0.110166,-0.795928,-0.04298,0.1036,0.47348
-0.446454,0,0,15.4465,15.4465,14.5535,14.5535,0.558067,3.78226,1.15227,0.179358,0.263675,-0.0458102,1,0,3.535,-0.2625,-1.015,0.206058,0.265838,-1.05591,-0.04298,0.1036,0.47348
-0.444332,0,0,15.4443,15.4443,14.5557,14.5557,0.555415,3.7822,1.15124,0.17936,0.263629,-0.0458097,1,0,2.1,0.0875,-0.98,0.206058,0.265838,-1.05591,-0.0434,0.10388,0.4662
-0.563075,0,0,15.5631,15.5631,14.4369,14.4369,0.703844,3.7402,1.19906,-0.0423493,-0.138514,0.0691668,0,0,2.38,0.63,-1.12,-0.017324,-0.13847,-0.94184,-0.0434,0.10388,0.4662
-0.681418,0,0,15.6814,15.6814,14.3186,14.3186,0.851773,3.69787,1.24696,-0.041612,-0.135937,0.0691798,0,0,3.535,0,-0.8225,-0.017324,-0.13847,-0.94184,-0.0434,0.10388,0.4662
-0.609915,0,0,15.6099,15.6099,14.3901,14.3901,0.762394,3.61735,1.32102,-0.0755619,0.0925947,-0.0599275,0,0,3.745,0.315,-0.665,-0.052826,0.091378,-1.07006,-0.0434,0.10388,0.4662
-0.54033,0,0,15.5403,15.5403,14.4597,14.4597,0.675412,3.53811,1.39551,-0.0741816,0.0910807,-0.0598222,0,0,4.2,0.1925,-0.56,-0.052826,0.091378,-1.07006,-0.0434,0.10388,0.4662
-0.74201,0,0,15.742,15.742,14.258,14.258,0.927512,3.38583,1.5555,-0.143205,-0.239275,0.0691268,0,0,3.5525,0.665,-0.2975,-0.124806,-0.243024,-0.942206,-0.0434,0.10388,0.4662
-0.939841,0,0,15.9398,15.9398,14.0602,14.0602,1.1748,3.23596,1.714,-0.140594,-0.234964,0.0691988,0,0,3.2725,0.525,-0.14,-0.124806,-0.243024,-0.942206,-0.0434,0.10388,0.4662
-0.858568,0,0,15.8586,15.8586,14.1414,14.1414,1.07321,3.25297,1.70526,0.022994,0.107052,-0.0914769,0,0,3.08,0.455,-0.14,0.039772,0.100406,-1.10166,-0.0434,0.10388,0.4662
-0.779237,0,0,15.7792,15.7792,14.2208,14.2208,0.974046,3.26916,1.69517,0.0227118,0.105325,-0.0914621,0,0,3.43,0.0875,0.0875,0.039772,0.100406,-1.10166,-0.04102,0.10486,0.46564
-0.780252,0,0,15.7803,15.7803,14.2197,14.2197,0.975315,3.26905,1.69598,0.0129949,0.0738379,-0.107323,1,0,4.235,0.07,0.0875,0.030012,0.06893,-1.1174,-0.04102,0.10486,0.46564
-0.780837,0,0,15.7808,15.7808,14.2192,14.2192,0.976046,3.26977,1.69665,0.0129823,0.0738506,-0.107324,1,0,3.9375,0.56,0,0.030012,0.06893,-1.1174,-0.04102,0.10486,0.46564
-0.752032,0,0,15.752,15.752,14.248,14.248,0.94004,3.27013,1.7038,0.000220091,0.0365853,0.00370895,0,0,4.1825,0.2625,0.105,0.017202,0.03233,-1.00723,-0.04102,0.10486,0.46564
-0.72243,0,0,15.7224,15.7224,14.2776,14.2776,0.903037,3.27127,1.71033,0.000200161,0.0359406,0.00371818,0,0,3.29,0.7175,-0.28,0.017202,0.03233,-1.00723,-0.04102,0.10486,0.46564
-0.797487,0,0,15.7975,15.7975,14.2025,14.2025,0.996859,3.08306,1.89828,-0.187495,-0.104211,-0.0737074,0,0,2.695,0.14,-0.3675,-0.174582,-0.109312,-1.08421,-0.04102,0.10486,0.46564
-0.871474,0,0,15.8715,15.8715,14.1285,14.1285,1.08934,2.89676,2.08495,-0.184248,-0.102596,-0.0735672,0,0,2.8875,-0.7525,-0.5425,-0.174582,-0.109312,-1.08421,-0.04102,0.10486,0.46564
-0.961489,0,0,15.9615,15.9615,14.0385,14.0385,1.20186,3.0911,1.91824,0.169775,-0.106623,0.0676073,0,0,3.0275,-0.2975,-0.9275,0.184342,-0.11529,-0.943914,-0.04102,0.10486,0.46564
-1.05101,0,0,16.051,16.051,13.949,13.949,1.31376,3.28188,1.75318,0.166451,-0.104678,0.0673794,0,0,3.7625,-0.07,-0.735,0.184342,-0.11529,-0.943914,-0.0399,0.1043,0.469
-1.05183,0,0,16.0518,16.0518,13.9482,13.9482,1.31479,3.28111,1.75244,0.475888,-0.0897602,0.0400852,1,0,4.1475,-0.3325,-0.805,0.495076,-0.100406,-0.970998,-0.0399,0.1043,0.469
-1.05265,0,0,16.0526,16.0526,13.9474,13.9474,1.31581,3.28034,1.7517,0.475902,-0.0897424,0.0400856,1,0,4.1475,-0.3325,-0.805,0.495076,-0.100406,-0.970998,-0.0399,0.1043,0.469
-1.0518,0,0,16.0518,16.0518,13.9482,13.9482,1.31474,3.2728,1.75152,-0.313381,0.0330988,-0.134002,1,0,2.9575,-4.2875,-0.385,-0.29768,0.022326,-1.14375,-0.0399,0.1043,0.469
-1.05094,0,0,16.0509,16.0509,13.9491,13.9491,1.31368,3.26526,1.75134,-0.31325,0.0330804,-0.133994,1,0,2.9575,-4.2875,-0.385,-0.29768,0.022326,-1.14375,-0.0399,0.1043,0.469
-1.04944,0,0,16.0494,16.0494,13.9506,13.9506,1.31179,3.26538,1.75212,-0.218128,-0.0475561,-0.111739,1,0,2.4675,0.21,0.07,-0.202154,-0.058194,-1.12167,-0.0399,0.1043,0.469
-1.01336,0,0,16.0134,16.0134,13.9866,13.9866,1.2667,2.97254,2.0342,-0.292355,0.0464348,-0.0561168,0,0,3.955,0.6825,0,-0.28182,0.036478,-1.06677,-0.0399,0.1043,0.469
-0.976985,0,0,15.977,15.977,14.023,14.023,1.22123,2.68363,2.31608,-0.287319,0.0456478,-0.0558508,0,0,3.36,-0.0875,-0.1575,-0.28182,0.036478,-1.06677,-0.0399,0.1043,0.469
-1.01114,0,0,16.0111,16.0111,13.9889,13.9889,1.26393,2.52018,2.48575,-0.14476,-0.0384832,0.0798747,0,0,3.22,0.3675,0.1225,-0.14152,-0.048312,-0.932202,-0.04326,0.10598,0.4711
-1.10511,0,0,16.1051,16.1051,13.8949,13.8949,1.38139,2.58996,2.4422,0.0718467,-0.128765,-0.0814124,0,0,3.7625,0.2975,0.1925,0.077226,-0.140544,-1.09214,-0.04326,0.10598,0.4711
-1.19731,0,0,16.1973,16.1973,13.8027,13.8027,1.49664,2.65707,2.39846,0.0706766,-0.126757,-0.0815164,0,0,3.675,-0.4725,-0.035,0.077226,-0.140544,-1.09214,-0.04326,0.10598,0.4711
-1.27583,0,0,16.2758,16.2758,13.7242,13.7242,1.59479,2.59265,2.47558,-0.0604982,-0.0953686,0.0132822,0,0,4.06,-0.28,-0.0175,-0.055632,-0.110898,-0.998082,-0.04326,0.10598,0.4711
-1.34731,0,0,16.3473,16.3473,13.6527,13.6527,1.68414,2.53063,2.5515,-0.0594167,-0.09381,0.013286,0,0,0.105,0.42,-0.49,-0.055632,-0.110898,-0.998082,-0.04326,0.10598,0.4711
-1.3269,0,0,16.3269,16.3269,13.6731,13.6731,1.65863,2.28983,2.79069,-0.237932,0.0251905,-0.0666868,0,0,4.1475,0.5775,-0.7875,-0.23912,0.008418,-1.07763,-0.04326,0.10598,0.4711
-1.3066,0,0,16.3066,16.3066,13.6934,13.6934,1.63324,2.05341,3.02918,-0.233809,0.0247524,-0.0665178,0,0,4.0075,0.5425,-1.1025,-0.23912,0.008418,-1.07763,-0.04326,0.10598,0.4711
-1.30711,0,0,16.3071,16.3071,13.6929,13.6929,1.63389,2.05401,3.02787,0.339593,0.0714161,-0.110657,1,0,3.9375,0.455,-1.155,0.33672,0.055022,-1.12142,-0.04326,0.10598,0.4711
-1.30618,0,0,16.3062,16.3062,13.6938,13.6938,1.63273,2.0546,3.02668,0.339583,0.0713959,-0.110657,1,0,2.9225,0.455,-1.085,0.33672,0.055022,-1.12142,-0.04186,0.10738,0.46956
-1.30573,0,0,16.3057,16.3057,13.6943,13.6943,1.63216,2.05417,3.02543,-0.218272,-0.0172781,-0.12959,1,0,3.255,-0.14,-1.1025,-0.223504,-0.03355,-1.14021,-0.04186,0.10738,0.46956
-1.30546,0,0,16.3055,16.3055,13.6945,13.6945,1.63183,2.05382,3.0238,-0.218266,-0.0172839,-0.12959,1,0,3.395,-0.105,-1.33,-0.223504,-0.03355,-1.14021,-0.04186,0.10738,0.46956
-1.30528,0,0,16.3053,16.3053,13.6947,13.6947,1.6316,2.05482,3.02262,-0.165802,-0.0244933,0.194256,1,0,3.4475,0.7,-1.085,-0.1708,-0.040748,-0.818864,-0.04186,0.10738,0.46956
-1.30535,0,0,16.3053,16.3053,13.6947,13.6947,1.63169,2.05539,3.02212,-0.165812,-0.0244918,0.194256,1,0,3.605,0.455,-0.6825,-0.1708,-0.040748,-0.818864,-0.04186,0.10738,0.46956
-1.40743,0,0,16.4074,16.4074,13.5926,13.5926,1.75929,2.29383,2.82403,0.213925,-0.124248,0.052641,0,0,3.1325,-0.2275,-0.35,0.21472,-0.142618,-0.959164,-0.04186,0.10738,0.46956
-1.50785,0,0,16.5079,16.5079,13.4921,13.4921,1.88481,2.52795,2.62768,0.209842,-0.122066,0.0523997,0,0,3.185,-0.1575,-0.0175,0.21472,-0.142618,-0.959164,-0.04186,0.10738,0.46956
-1.50741,0,0,16.5074,16.5074,13.4926,13.4926,1.88427,2.52758,2.62854,0.239977,0.0708852,0.157029,1,0,3.22,-0.07,0.1225,0.244976,0.050142,-0.855342,-0.04186,0.10738,0.46956
-1.50808,0,0,16.5081,16.5081,13.4919,13.4919,1.8851,2.52753,2.62961,0.239978,0.0708997,0.157029,1,0,3.99,0.1225,0.245,0.244976,0.050142,-0.855342,-0.04186,0.10738,0.46956
-1.50813,0,0,16.5081,16.5081,13.4919,13.4919,1.88516,2.52844,2.63081,-0.154137,-0.0572102,-0.220424,1,0,3.5525,0.6825,0.2975,-0.150792,-0.077836,-1.22988,-0.04158,0.10486,0.4676
-1.36265,0,0,16.3626,16.3626,13.6374,13.6374,1.70331,2.4772,2.69461,-0.0440283,0.17093,0.077373,0,0,3.7975,0.0875,0.49,-0.041114,0.153232,-0.93452,-0.04158,0.10486,0.4676
-1.22013,0,0,16.2201,16.2201,13.7799,13.7799,1.52516,2.42756,2.75872,-0.0431628,0.167826,0.0774975,0,0,4.13,0.455,0.4025,-0.041114,0.153232,-0.93452,-0.04158,0.10486,0.4676
-1.07856,0,0,16.0786,16.0786,13.9214,13.9214,1.3482,2.33458,2.86402,-0.083211,0.178054,0.00879116,0,0,4.5675,0.175,0.4375,-0.08296,0.16653,-1.00284,-0.04158,0.10486,0.4676
-0.938869,0,0,15.9389,15.9389,14.0611,14.0611,1.17359,2.24282,2.9695,-0.0816108,0.175011,0.00892211,0,0,4.2,-0.1225,0.1925,-0.08296,0.16653,-1.00284,-0.04158,0.10486,0.4676
-1.04691,0,0,16.0469,16.0469,13.9531,13.9531,1.30864,2.40972,2.83857,0.158936,-0.137968,-0.00550913,0,0,4.06,-0.28,-0.175,0.161528,-0.148474,-1.01699,-0.04158,0.10486,0.4676
-1.15253,0,0,16.1525,16.1525,13.8475,13.8475,1.44066,2.57383,2.70759,0.156075,-0.13567,-0.00568885,0,0,3.675,-0.0875,-0.665,0.161528,-0.148474,-1.01699,-0.04158,0.10486,0.4676
-1.15403,0,0,16.154,16.154,13.846,13.846,1.44253,2.5739,2.70675,-0.203767,-0.0851986,-0.258349,1,0,4.62,0.1575,-0.875,-0.199836,-0.098088,-1.2677,-0.04018,0.10794,0.46284
-1.15446,0,0,16.1545,16.1545,13.8455,13.8455,1.44307,2.57491,2.70542,0.0955559,-0.265082,-0.122738,1,0,3.885,0.7,-1.1725,0.100772,-0.277794,-1.13314,-0.04018,0.10794,0.46284
-1.15596,0,0,16.156,16.156,13.844,13.844,1.44495,2.57522,2.7032,0.0955504,-0.265049,-0.122739,1,0,4.655,0.28,-1.68,0.100772,-0.277794,-1.13314,-0.04018,0.10794,0.46284
-1.15704,0,0,16.157,16.157,13.843,13.843,1.4463,2.5749,2.70126,0.103088,-0.0669361,-0.265851,1,0,4.3575,-0.0875,-1.505,0.108336,-0.07991,-1.27514,-0.04018,0.10794,0.46284
-1.15672,0,0,16.1567,16.1567,13.8433,13.8433,1.4459,2.57653,2.69989,0.10306,-0.0669431,-0.265852,1,0,3.36,1.0675,-1.2075,0.108336,-0.07991,-1.27514,-0.04018,0.10794,0.46284
-1.1257,0,0,16.1257,16.1257,13.8743,13.8743,1.40713,2.66609,2.62877,0.0914149,0.0408279,-0.0582469,0,0,4.0425,0.6825,-1.2425,0.09821,0.028426,-1.06909,-0.04018,0.10794,0.46284
-1.09338,0,0,16.0934,16.0934,13.9066,13.9066,1.36673,2.75262,2.55823,0.0899063,0.0401221,-0.0583012,0,0,2.7475,-0.1225,-0.8925,0.09821,0.028426,-1.06909,-0.04018,0.10794,0.46284
-1.31755,0,0,16.3176,16.3176,13.6824,13.6824,1.64694,2.91426,2.42227,0.126207,-0.249324,0.154132,0,0,3.0625,-0.14,-0.49,0.137494,-0.265594,-0.858026,-0.04018,0.10794,0.46284
-1.53904,0,0,16.539,16.539,13.461,13.461,1.9238,3.07657,2.29968,0.123378,-0.244506,0.153834,0,0,3.675,0.1575,-0.5075,0.137494,-0.265594,-0.858026,-0.04004,0.09954,0.46802
-1.52587,0,0,16.5259,16.5259,13.4741,13.4741,1.90734,3.14609,2.2525,0.0688342,0.014969,-0.0311373,0,0,2.9225,0.1575,-0.3325,0.083936,-0.0061,-1.04151,-0.04004,0.09954,0.46802
-1.51464,0,0,16.5146,16.5146,13.4854,13.4854,1.89331,3.21455,2.20588,0.0676413,0.0147225,-0.0311954,0,0,4.1125,0.2975,-0.035,0.083936,-0.0061,-1.04151,-0.04004,0.09954,0.46802
-1.44946,0,0,16.4495,16.4495,13.5505,13.5505,1.81183,3.28389,2.15481,0.0763948,0.0870657,-0.079045,0,0,4.095,-0.0875,0.3325,0.09394,0.067588,-1.08897,-0.04004,0.09954,0.46802
-1.3847,0,0,16.3847,16.3847,13.6153,13.6153,1.73088,3.3527,2.10449,0.0751958,0.0856538,-0.0790709,0,0,3.5875,0.35,0.77,0.09394,0.067588,-1.08897,-0.04004,0.09954,0.46802
-1.23569,0,0,16.2357,16.2357,13.7643,13.7643,1.54461,3.39692,2.07062,0.0475772,0.194887,-0.0273852,0,0,4.305,0.035,0.4725,0.066978,0.17995,-1.03773,-0.04004,0.09954,0.46802
-1.08865,0,0,16.0887,16.0887,13.9113,13.9113,1.36081,3.44057,2.03639,0.0468167,0.191685,-0.0273494,0,0,3.9375,0.1575,0.2625,0.066978,0.17995,-1.03773,-0.04004,0.09954,0.46802
-1.08941,0,0,16.0894,16.0894,13.9106,13.9106,1.36176,3.44107,2.03745,-0.00943991,-0.0253178,0.147851,1,0,4.0425,0.4375,0.2275,0.010492,-0.036844,-0.863882,-0.04004,0.09954,0.46802
-1.08944,0,0,16.0894,16.0894,13.9106,13.9106,1.3618,3.44134,2.03806,-0.00944466,-0.0253171,0.147851,1,0,3.5525,0.2975,-0.035,0.010492,-0.036844,-0.863882,-0.04592,0.10724,0.47264
-0.92874,0,0,15.9287,15.9287,14.0713,14.0713,1.16093,3.25993,2.19523,-0.169804,0.211778,-0.0417195,0,0,3.5875,-4.0775,-0.315,-0.15372,0.203496,-1.05225,-0.04592,0.10724,0.47264
-0.770753,0,0,15.7708,15.7708,14.2292,14.2292,0.963441,3.08167,2.35364,-0.166697,0.20834,-0.0414836,0,0,3.5875,-4.0775,-0.315,-0.15372,0.203496,-1.05225,-0.04592,0.10724,0.47264
-0.753198,0,0,15.7532,15.7532,14.2468,14.2468,0.941498,3.09593,2.34493,0.0126102,0.0213476,0.0244097,0,0,3.3075,-0.3325,-0.9625,0.026596,0.01708,-0.986858,-0.04592,0.10724,0.47264
-0.754667,0,0,15.7547,15.7547,14.2453,14.2453,0.943334,3.09557,2.34413,0.0812558,-0.0423705,0.111703,1,0,4.6025,-0.0875,-0.84,0.095526,-0.046604,-0.900238,-0.04592,0.10724,0.47264
-0.749572,0,0,15.7496,15.7496,14.2504,14.2504,0.936965,3.09597,2.34284,0.0812489,-0.0424815,0.111704,1,0,0.0175,0.35,-1.1375,0.095526,-0.046604,-0.900238,-0.04592,0.10724,0.47264
-0.719217,0,0,15.7192,15.7192,14.2808,14.2808,0.899022,3.0807,2.36176,-0.0166454,0.0374612,0.0615664,0,0,4.165,0.245,-1.12,-0.00305,0.033916,-0.950014,-0.04592,0.10724,0.47264
-0.689244,0,0,15.6892,15.6892,14.3108,14.3108,0.861555,3.06688,2.38082,-0.0164045,0.0368085,0.0615893,0,0,4.06,0.9275,-1.0675,-0.00305,0.033916,-0.950014,-0.04592,0.10724,0.47264
-0.574773,0,0,15.5748,15.5748,14.4252,14.4252,0.718466,3.20306,2.25728,0.134902,0.148258,-0.017808,0,0,3.08,0.7,-0.8225,0.15128,0.147742,-1.0287,-0.04592,0.10724,0.47264
-0.461872,0,0,15.4619,15.4619,14.5381,14.5381,0.57734,3.33489,2.13899,0.132604,0.145797,-0.0179114,0,0,2.8525,0.105,-0.665,0.15128,0.147742,-1.0287,-0.04452,0.10402,0.46046
-0.62166,0,0,15.6217,15.6217,14.3783,14.3783,0.777076,3.35136,2.1376,0.0133831,-0.204402,0.010063,0,0,2.5025,0.0175,-0.525,0.031842,-0.20557,-1.00089,-0.04452,0.10402,0.46046
-0.778691,0,0,15.7787,15.7787,14.2213,14.2213,0.973363,3.36797,2.13652,0.0130936,-0.200983,0.00999372,0,0,2.45,0.3325,-0.315,0.031842,-0.20557,-1.00089,-0.04452,0.10402,0.46046
-0.85972,0,0,15.8597,15.8597,14.1403,14.1403,1.07465,3.24266,2.26448,-0.120422,-0.105545,-0.0147473,0,0,2.8875,0.1575,-0.1575,-0.104432,-0.111996,-1.02553,-0.04452,0.10402,0.46046
-0.939984,0,0,15.94,15.94,14.06,14.06,1.17498,3.11977,2.39158,-0.118281,-0.103795,-0.0146627,0,0,3.3425,0.245,-0.245,-0.104432,-0.111996,-1.02553,-0.04452,0.10402,0.46046
-0.939983,0,0,15.94,15.94,14.06,14.06,1.17498,3.11993,2.39199,-0.0643441,-0.0664238,0.191645,1,0,3.535,0.2275,-0.14,-0.050264,-0.074664,-0.820816,-0.04452,0.10402,0.46046
-0.941225,0,0,15.9412,15.9412,14.0588,14.0588,1.17653,3.11995,2.39346,-0.0643444,-0.0663967,0.191644,1,0,4.375,0.1575,0.4725,-0.050264,-0.074664,-0.820816,-0.04452,0.10402,0.46046
-0.94185,0,0,15.9418,15.9418,14.0582,14.0582,1.17731,3.12032,2.39509,-0.170651,0.182145,0.165824,1,0,3.9375,0.3675,0.56,-0.157014,0.173606,-0.846436,-0.04452,0.10402,0.46046
-0.943359,0,0,15.9434,15.9434,14.0566,14.0566,1.1792,3.12056,2.39581,-0.170655,0.182178,0.165823,1,0,4.585,0.28,0.035,-0.157014,0.173606,-0.846436,-0.0448,0.10178,0.47012
-0.94411,0,0,15.9441,15.9441,14.0559,14.0559,1.18014,3.12117,2.3963,0.0256552,0.079119,-0.183228,1,0,4.06,0.49,-0.105,0.040138,0.070638,-1.19279,-0.0448,0.10178,0.47012
-0.94396,0,0,15.944,15.944,14.056,14.056,1.17995,3.1218,2.39675,0.0256441,0.0791157,-0.183229,1,0,3.43,0.5075,-0.1225,0.040138,0.070638,-1.19279,-0.0448,0.10178,0.47012
-0.944218,0,0,15.9442,15.9442,14.0558,14.0558,1.18027,3.12212,2.39684,-0.240051,-0.126418,-0.156672,1,0,3.7275,0.315,-0.3325,-0.226676,-0.134688,-1.16644,-0.0448,0.10178,0.47012
-0.94349,0,0,15.9435,15.9435,14.0565,14.0565,1.17936,3.12238,2.39663,-0.240055,-0.126434,-0.156672,1,0,3.045,0.28,-0.5075,-0.226676,-0.134688,-1.16644,-0.0448,0.10178,0.47012
-0.943844,0,0,15.9438,15.9438,14.0562,14.0562,1.1798,3.12205,2.39605,0.000370793,0.00803546,-0.253924,1,0,3.815,-0.07,-0.7175,0.014762,-0.000366,-1.26294,-0.0448,0.10178,0.47012
-0.943873,0,0,15.9439,15.9439,14.0561,14.0561,1.17984,3.12105,2.39488,0.000388285,0.00803611,-0.253923,1,0,3.605,-0.4725,-1.05,0.014762,-0.000366,-1.26294,-0.0448,0.10178,0.47012
-0.749938,0,0,15.7499,15.7499,14.2501,14.2501,0.937423,3.35212,2.18313,0.211027,0.238292,0.0891992,0,0,3.4125,-0.2625,-1.155,0.230336,0.233874,-0.92232,-0.0448,0.10178,0.47012
-0.559726,0,0,15.5597,15.5597,14.4403,14.4403,0.699657,3.5792,1.96664,0.207071,0.234147,0.0890188,0,0,3.8675,-0.665,-0.9275,0.230336,0.233874,-0.92232,-0.04354,0.10444,0.46676
-0.645264,0,0,15.6453,15.6453,14.3547,14.3547,0.80658,3.53194,2.01689,-0.0464969,-0.100938,0.0542511,0,0,3.815,0.1925,-0.91,-0.025132,-0.102724,-0.956846,-0.04354,0.10444,0.46676
-0.729337,0,0,15.7293,15.7293,14.2707,14.2707,0.911671,3.48552,2.0668,-0.0456882,-0.0991068,0.0542732,0,0,3.815,0.1925,-0.91,-0.025132,-0.102724,-0.956846,-0.04354,0.10444,0.46676
-0.726975,0,0,15.727,15.727,14.273,14.273,0.908719,3.43487,2.11781,-0.047114,-0.000112567,-0.0710801,0,0,2.555,0.21,-1.015,-0.02745,-0.003782,-1.08129,-0.04354,0.10444,0.46676
-0.724655,0,0,15.7247,15.7247,14.2753,14.2753,0.905819,3.38514,2.16877,-0.0462476,-0.00016228,-0.0710277,0,0,2.555,0.21,-1.015,-0.02745,-0.003782,-1.08129,-0.04354,0.10444,0.46676
-0.722998,0,0,15.723,15.723,14.277,14.277,0.903747,3.38546,2.16847,0.0217787,-0.0851986,-0.170862,1,0,2.3975,0.315,-0.56,0.04087,-0.088694,-1.18035,-0.04354,0.10444,0.46676
-0.72134,0,0,15.7213,15.7213,14.2787,14.2787,0.901675,3.38579,2.16817,0.0217731,-0.0852347,-0.170861,1,0,2.3975,0.315,-0.56,0.04087,-0.088694,-1.18035,-0.04354,0.10444,0.46676
-0.827797,0,0,15.8278,15.8278,14.1722,14.1722,1.03475,3.01567,2.52438,-0.331375,-0.1237,0.129454,0,0,3.2025,0.175,-0.0875,-0.32025,-0.129442,-0.88267,-0.04354,0.10444,0.46676
-0.932533,0,0,15.9325,15.9325,14.0675,14.0675,1.16567,2.65522,2.88245,-0.325091,-0.121413,0.129722,0,0,3.2025,0.175,-0.0875,-0.32025,-0.129442,-0.88267,-0.0385,0.10108,0.46886
-0.907172,0,0,15.9072,15.9072,14.0928,14.0928,1.13397,2.77516,2.79117,0.128996,0.0331338,-0.0759362,0,0,3.36,-0.07,0.035,0.13786,0.025498,-1.08665,-0.0385,0.10108,0.46886
-0.88578,0,0,15.8858,15.8858,14.1142,14.1142,1.10723,2.7272,2.85688,-0.04535,0.0275392,0.0390699,0,0,4.1825,0.3325,0.14,-0.038064,0.020374,-0.972584,-0.0385,0.10108,0.46886
-0.865097,0,0,15.8651,15.8651,14.1349,14.1349,1.08137,2.67985,2.92238,-0.0445246,0.0270893,0.0391175,0,0,4.4275,0.175,0.0175,-0.038064,0.020374,-0.972584,-0.0385,0.10108,0.46886
-1.11786,0,0,16.1179,16.1179,13.8821,13.8821,1.39732,2.81365,2.82384,0.119457,-0.322185,0.0557304,0,0,3.5875,0.07,-0.0875,0.128954,-0.334036,-0.95587,-0.0385,0.10108,0.46886
-1.3675,0,0,16.3675,16.3675,13.6325,13.6325,1.70938,2.94572,2.727,0.117155,-0.31675,0.0554672,0,0,4.235,0.5775,0.14,0.128954,-0.334036,-0.95587,-0.0385,0.10108,0.46886
-1.36745,0,0,16.3675,16.3675,13.6325,13.6325,1.70932,2.94696,2.72811,0.00354398,-0.00862554,-0.250184,1,0,3.4825,0.875,0.245,0.014884,-0.02623,-1.25916,-0.0385,0.10108,0.46886
-1.36804,0,0,16.368,16.368,13.632,13.632,1.71005,2.94758,2.72894,0.00353315,-0.00861275,-0.250185,1,0,3.9375,0.5075,0.0875,0.014884,-0.02623,-1.25916,-0.0385,0.10108,0.46886
-1.36792,0,0,16.3679,16.3679,13.6321,13.6321,1.7099,2.94758,2.72959,0.0733875,0.159187,0.160832,1,0,3.4475,0.14,0,0.085034,0.141398,-0.851316,-0.03626,0.10262,0.47096
-1.36702,0,0,16.367,16.367,13.633,13.633,1.70877,2.94711,2.72996,0.0733957,0.159167,0.160833,1,0,2.905,-0.14,-0.1575,0.085034,0.141398,-0.851316,-0.03626,0.10262,0.47096
-1.36647,0,0,16.3665,16.3665,13.6335,13.6335,1.70809,2.94581,2.72986,-0.317644,-0.166679,0.164031,1,0,3.1675,-0.63,-0.42,-0.307684,-0.184098,-0.848144,-0.03626,0.10262,0.47096
-1.36592,0,0,16.3659,16.3659,13.6341,13.6341,1.7074,2.94452,2.72976,-0.317622,-0.166691,0.164033,1,0,3.1675,-0.63,-0.42,-0.307684,-0.184098,-0.848144,-0.03626,0.10262,0.47096
-1.36685,0,0,16.3668,16.3668,13.6332,13.6332,1.70856,2.94378,2.72904,0.0435681,-0.148596,-0.280672,1,0,4.2175,-0.315,-0.7875,0.055022,-0.166042,-1.28942,-0.03626,0.10262,0.47096
-1.47999,0,0,16.48,16.48,13.52,13.52,1.84999,2.78244,2.89494,-0.156501,-0.144662,0.0117637,0,0,3.2725,0.0175,-0.9275,-0.148718,-0.164578,-0.999302,-0.03626,0.10262,0.47096
-1.59083,0,0,16.5908,16.5908,13.4092,13.4092,1.98854,2.62417,3.05953,-0.153741,-0.142243,0.011813,0,0,3.01,0.14,-1.0325,-0.148718,-0.164578,-0.999302,-0.03626,0.10262,0.47096
-1.58925,0,0,16.5893,16.5893,13.4107,13.4107,1.98656,2.62482,3.05852,0.251888,-0.0882978,-0.135847,1,0,2.4675,0.49,-0.98,0.25864,-0.110654,-1.14582,-0.03626,0.10262,0.47096
-1.58914,0,0,16.5891,16.5891,13.4109,13.4109,1.98643,2.62496,3.0575,0.251886,-0.0883002,-0.135847,1,0,3.5,0.1925,-0.98,0.25864,-0.110654,-1.14582,-0.04018,0.09982,0.4732
-1.58873,0,0,16.5887,16.5887,13.4113,13.4113,1.98591,2.62574,3.05626,-0.0489265,-0.00404179,0.138573,1,0,3.29,0.56,-1.12,-0.043432,-0.026474,-0.87352,-0.04018,0.09982,0.4732
-1.58909,0,0,16.5891,16.5891,13.4109,13.4109,1.98637,2.62642,3.0552,-0.0489384,-0.00403385,0.138572,1,0,3.8325,0.5075,-1.015,-0.043432,-0.026474,-0.87352,-0.04018,0.09982,0.4732
-1.58877,0,0,16.5888,16.5888,13.4112,13.4112,1.98596,2.6276,3.05446,-0.00996205,0.224947,0.235701,1,0,3.3425,0.805,-0.84,-0.00427,0.202276,-0.77714,-0.04018,0.09982,0.4732
-1.58911,0,0,16.5891,16.5891,13.4109,13.4109,1.98639,2.62818,3.05468,-0.00997213,0.224954,0.2357,1,0,3.78,0.4725,-0.2625,-0.00427,0.202276,-0.77714,-0.04018,0.09982,0.4732
-1.60529,0,0,16.6053,16.6053,13.3947,13.3947,2.00661,2.62765,3.07811,0.00352202,-0.0250534,-0.0871743,0,0,3.6575,-0.21,-0.4025,0.009272,-0.047824,-1.09751,-0.04018,0.09982,0.4732
-1.62038,0,0,16.6204,16.6204,13.3796,13.3796,2.02548,2.6262,3.102,0.0035472,-0.0247245,-0.0871847,0,0,3.08,-0.735,-0.0875,0.009272,-0.047824,-1.09751,-0.04018,0.09982,0.4732
-1.66783,0,0,16.6678,16.6678,13.3322,13.3322,2.08479,2.83863,2.92924,0.207949,-0.0619233,-0.00748186,0,0,3.675,-0.5075,0.0525,0.218258,-0.08601,-1.01821,-0.04018,0.09982,0.4732
-1.71519,0,0,16.7152,16.7152,13.2848,13.2848,2.14398,3.04895,2.75756,0.204283,-0.0608991,-0.00770832,0,0,4.1475,0.105,0.49,0.218258,-0.08601,-1.01821,-0.04256,0.10038,0.47012
-1.71789,0,0,16.7179,16.7179,13.2821,13.2821,2.14736,2.88208,2.92818,-0.161518,-0.0040457,-0.0445674,0,0,4.62,0.2275,0.455,-0.152012,-0.02928,-1.05493,-0.04256,0.10038,0.47012
-1.71869,0,0,16.7187,16.7187,13.2813,13.2813,2.14837,2.7182,3.09825,-0.158661,-0.00402295,-0.0444285,0,0,3.3425,0.1925,0.315,-0.152012,-0.02928,-1.05493,-0.04256,0.10038,0.47012
-1.84481,0,0,16.8448,16.8448,13.1552,13.1552,2.30601,2.89093,2.9654,0.150668,-0.153575,0.0599465,0,0,3.2375,0.56,0.4375,0.16165,-0.181414,-0.951112,-0.04256,0.10038,0.47012
-1.96872,0,0,16.9687,16.9687,13.0313,13.0313,2.4609,3.05976,2.83297,0.147725,-0.150884,0.0596814,0,0,3.185,0.175,0.14,0.16165,-0.181414,-0.951112,-0.04256,0.10038,0.47012
-2.08381,0,0,17.0838,17.0838,12.9162,12.9162,2.60477,2.97533,2.92942,-0.0804113,-0.137994,0.0602628,0,0,2.8,0.14,0.245,-0.06893,-0.171044,-0.950502,-0.04256,0.10038,0.47012
-2.19842,0,0,17.1984,17.1984,12.8016,12.8016,2.74803,2.89171,3.02399,-0.0789537,-0.135497,0.0602208,0,0,3.8675,-0.2975,-0.4025,-0.06893,-0.171044,-0.950502,-0.04256,0.10038,0.47012
-2.15246,0,0,17.1525,17.1525,12.8475,12.8475,2.69058,2.91468,3.01808,0.021479,0.0584164,0.0264372,0,0,3.815,-0.525,-0.7,0.03233,0.023668,-0.984052,-0.04256,0.10038,0.47012
-2.10798,0,0,17.108,17.108,12.892,12.892,2.63497,2.93738,3.01212,0.0210834,0.0574473,0.0264621,0,0,4.305,-0.455,-0.7525,0.03233,0.023668,-0.984052,-0.04256,0.10038,0.47012
-2.10826,0,0,17.1083,17.1083,12.8917,12.8917,2.63532,2.93643,3.0109,-0.0047766,0.241132,-0.195459,1,0,3.78,-0.455,-1.0675,0.006344,0.207156,-1.20426,-0.03976,0.09982,0.46942
-2.1087,0,0,17.1087,17.1087,12.8913,12.8913,2.63588,2.9369,3.0089,0.0150174,-0.0434135,0.151623,1,0,3.92,0.35,-1.5575,0.02623,-0.077104,-0.859856,-0.03976,0.09982,0.46942
-2.10813,0,0,17.1081,17.1081,12.8919,12.8919,2.63516,2.93749,3.00685,0.0150071,-0.0434262,0.151623,1,0,3.2025,0.42,-1.5925,0.02623,-0.077104,-0.859856,-0.03976,0.09982,0.46942
-2.10756,0,0,17.1076,17.1076,12.8924,12.8924,2.63444,2.93855,3.005,0.129428,0.134256,0.122115,1,0,3.2025,0.7,-1.4875,0.141154,0.100406,-0.889136,-0.03976,0.09982,0.46942
-2.1077,0,0,17.1077,17.1077,12.8923,12.8923,2.63462,2.9402,3.0035,0.1294,0.134259,0.122114,1,0,3.6925,1.05,-1.295,0.141154,0.100406,-0.889136,-0.03976,0.09982,0.46942
-2.05826,0,0,17.0583,17.0583,12.9417,12.9417,2.57283,2.95758,3.00462,0.0157504,0.0629592,-0.00117024,0,0,3.71,1.1725,-0.9975,0.027328,0.030256,-1.0115,-0.03976,0.09982,0.46942
-2.0102,0,0,17.0102,17.0102,12.9898,12.9898,2.51275,2.97255,3.00673,0.0154894,0.0619125,-0.0011373,0,0,4.06,-0.035,-0.385,0.027328,0.030256,-1.0115,-0.03976,0.09982,0.46942
-1.94259,0,0,16.9426,16.9426,13.0574,13.0574,2.42824,3.05526,2.94337,0.0729684,0.0842523,0.0539313,0,0,3.535,-0.385,-0.0875,0.086498,0.054046,-0.956846,-0.04018,0.10164,0.47026
-2.10185,0,0,17.1019,17.1019,12.8981,12.8981,2.62731,3.04644,2.96721,-0.00839467,-0.215277,-0.0305562,0,0,3.815,-0.91,0.1575,0.004636,-0.248636,-1.04054,-0.04018,0.10164,0.47026
-2.25871,0,0,17.2587,17.2587,12.7413,12.7413,2.82339,3.03855,2.99165,-0.00825729,-0.211864,-0.0307114,0,0,3.9725,-0.3675,0.63,0.004636,-0.248636,-1.04054,-0.04018,0.10164,0.47026
-2.12058,0,0,17.1206,17.1206,12.8794,12.8794,2.65072,3.3065,2.75805,0.260781,0.18545,0.0204433,0,0,4.55,0.0875,0.8225,0.279502,0.15128,-0.989664,-0.04018,0.10164,0.47026
-1.98332,0,0,16.9833,16.9833,13.0167,13.0167,2.47915,3.57094,2.52385,0.256174,0.182451,0.0203005,0,0,3.675,0.7525,1.0675,0.279502,0.15128,-0.989664,-0.04018,0.10164,0.47026
-1.98381,0,0,16.9838,16.9838,13.0162,13.0162,2.47977,3.57167,2.52607,-0.120566,0.161578,0.135625,1,0,3.815,0.6125,0.8925,-0.09882,0.130418,-0.875228,-0.04018,0.10164,0.47026
-1.98287,0,0,16.9829,16.9829,13.0171,13.0171,2.47858,3.57196,2.528,-0.120571,0.161558,0.135626,1,0,2.8175,0.35,0.735,-0.09882,0.130418,-0.875228,-0.04018,0.10164,0.47026
-1.98229,0,0,16.9823,16.9823,13.0177,13.0177,2.47786,3.57262,2.5298,-0.195904,0.0267172,0.108085,1,0,3.08,0.56,0.6475,-0.17446,-0.00427,-0.902556,-0.04018,0.10164,0.47026
-1.98307,0,0,16.9831,16.9831,13.0169,13.0169,2.47883,3.57215,2.53086,-0.195896,0.0267342,0.108085,1,0,4.06,-0.1225,0.245,-0.17446,-0.00427,-0.902556,-0.04116,0.10864,0.47054
-2.10218,0,0,17.1022,17.1022,12.8978,12.8978,2.62772,3.7358,2.37817,0.15988,-0.156072,0.00549413,0,0,3.6225,-0.455,-0.245,0.185684,-0.189466,-1.00406,-0.04116,0.10864,0.47054
-2.21932,0,0,17.2193,17.2193,12.7807,12.7807,2.77415,3.89646,2.22642,0.157082,-0.153533,0.00518755,0,0,3.6225,-0.455,-0.245,0.185684,-0.189466,-1.00406,-0.04116,0.10864,0.47054
-2.21896,0,0,17.219,17.219,12.781,12.781,2.7737,3.89468,2.2247,-0.0715233,0.189513,-0.117881,1,0,3.36,-0.9625,-1.33,-0.04392,0.153232,-1.12618,-0.04116,0.10864,0.47054
-2.2186,0,0,17.2186,17.2186,12.7814,12.7814,2.77325,3.89289,2.22299,-0.0714922,0.189505,-0.117879,1,0,3.36,-0.9625,-1.33,-0.04392,0.153232,-1.12618,-0.04116,0.10864,0.47054
-2.14097,0,0,17.141,17.141,12.859,12.859,2.67621,4.11051,2.01678,0.202557,0.104393,-0.00199998,0,0,4.5675,4.34,-1.7675,0.235094,0.069906,-1.01101,-0.04116,0.10864,0.47054
-2.06452,0,0,17.0645,17.0645,12.9355,12.9355,2.58065,4.32423,1.81022,0.198837,0.102719,-0.00219773,0,0,4.5675,4.34,-1.7675,0.235094,0.069906,-1.01101,-0.04116,0.10864,0.47054
-1.80625,0,0,16.8062,16.8062,13.1938,13.1938,2.25781,4.41585,1.69877,0.0604493,0.302517,0.142505,0,0,3.5525,0.945,-2.0825,0.097722,0.27511,-0.867542,-0.04116,0.10864,0.47054
-1.55199,0,0,16.552,16.552,13.448,13.448,1.93999,4.50449,1.59032,0.058907,0.296986,0.142587,0,0,3.5525,0.945,-2.0825,0.097722,0.27511,-0.867542,-0.04088,0.10626,0.46578
-1.55204,0,0,16.552,16.552,13.448,13.448,1.94005,4.50571,1.58903,0.104443,-0.00222317,0.152422,1,0,3.64,0.8225,-1.155,0.143472,-0.02379,-0.857782,-0.04088,0.10626,0.46578
-1.55209,0,0,16.5521,16.5521,13.4479,13.4479,1.94011,4.50694,1.58775,0.104421,-0.00222217,0.15242,1,0,3.64,0.8225,-1.155,0.143472,-0.02379,-0.857782,-0.04088,0.10626,0.46578
-1.55262,0,0,16.5526,16.5526,13.4474,13.4474,1.94078,4.5071,1.58784,0.0683374,0.124801,0.394997,1,0,3.92,0.2275,-0.3325,0.107238,0.10309,-0.617076,-0.04088,0.10626,0.46578
-1.55316,0,0,16.5532,16.5532,13.4468,13.4468,1.94145,4.50727,1.58793,0.0683345,0.124813,0.394996,1,0,3.92,0.2275,-0.3325,0.107238,0.10309,-0.617076,-0.04088,0.10626,0.46578
-1.64842,0,0,16.6484,16.6484,13.3516,13.3516,2.06053,4.18724,1.87505,-0.31072,-0.124804,0.00805904,0,0,4.1125,0.28,0.805,-0.279014,-0.148352,-1.00138,-0.04088,0.10626,0.46578
-1.65166,0,0,16.6517,16.6517,13.3483,13.3483,2.06457,3.97871,2.05925,-0.201154,-0.00552905,-0.019225,0,0,3.6225,0.42,0.6825,-0.17263,-0.02928,-1.0287,-0.04088,0.10626,0.46578
-1.65491,0,0,16.6549,16.6549,13.3451,13.3451,2.06863,3.77339,2.24314,-0.197579,-0.0054497,-0.0189854,0,0,3.6925,0.105,0.7,-0.17263,-0.02928,-1.0287,-0.04088,0.10626,0.46578
-1.50102,0,0,16.501,16.501,13.499,13.499,1.87627,3.74054,2.26616,-0.0309356,0.200162,-0.0169884,0,0,3.08,-0.1925,0.9625,-0.005856,0.179462,-1.02687,-0.04088,0.10626,0.46578
-1.35075,0,0,16.3508,16.3508,13.6492,13.6492,1.68844,3.70958,2.2828,-0.0303964,0.196894,-0.0168515,0,0,3.78,-0.175,0.9975,-0.005856,0.179462,-1.02687,-0.04102,0.11102,0.46312
-1.05366,0,0,16.0537,16.0537,13.9463,13.9463,1.31707,3.76967,2.212,0.0443642,0.365922,0.115911,0,0,4.795,-0.1925,0.7,0.070272,0.354776,-0.895236,-0.04102,0.11102,0.46312
-0.759175,0,0,15.7592,15.7592,14.2408,14.2408,0.948969,3.83024,2.14013,0.0433094,0.359512,0.115968,0,0,3.43,0.7525,0.2275,0.070272,0.354776,-0.895236,-0.04102,0.11102,0.46312
-0.759861,0,0,15.7599,15.7599,14.2401,14.2401,0.949826,3.83156,2.14072,-0.0169705,0.327652,-0.136447,1,0,4.0075,0.91,-0.0525,0.00976,0.322934,-1.1457,-0.04102,0.11102,0.46312
-0.759305,0,0,15.7593,15.7593,14.2407,14.2407,0.949131,3.83113,2.1405,-0.0169631,0.32764,-0.136447,1,0,3.1675,-0.1225,-0.5075,0.00976,0.322934,-1.1457,-0.04102,0.11102,0.46312
-0.86491,0,0,15.8649,15.8649,14.1351,14.1351,1.08114,3.89157,2.07363,0.0678748,-0.144281,-0.0490189,0,0,3.71,-0.4375,-0.8575,0.096014,-0.150792,-1.05884,-0.04102,0.11102,0.46312
-0.969586,0,0,15.9696,15.9696,14.0304,14.0304,1.21198,3.95093,2.00572,0.0668412,-0.142005,-0.0491354,0,0,4.34,-0.455,-1.61,0.096014,-0.150792,-1.05884,-0.04102,0.11102,0.46312
-1.121,0,0,16.121,16.121,13.879,13.879,1.40125,3.78238,2.15188,-0.162626,-0.197204,0.0056999,0,0,3.85,0.0175,-1.68,-0.137372,-0.20923,-1.00455,-0.04102,0.11102,0.46312
-1.27045,0,0,16.2704,16.2704,13.7296,13.7296,1.58806,3.61872,2.30684,-0.159775,-0.193947,0.00579933,0,0,4.2175,0.14,-1.505,-0.137372,-0.20923,-1.00455,-0.04298,0.10416,0.46732
-1.18096,0,0,16.181,16.181,13.819,13.819,1.47621,3.47711,2.43543,-0.13046,0.108449,0.0661261,0,0,3.7625,0.2625,-1.505,-0.11041,0.094794,-0.94489,-0.04298,0.10416,0.46732
-1.09247,0,0,16.0925,16.0925,13.9075,13.9075,1.36559,3.33817,2.56468,-0.12804,0.106526,0.066318,0,0,3.395,0.3675,-1.4,-0.11041,0.094794,-0.94489,-0.04298,0.10416,0.46732
-1.09203,0,0,16.092,16.092,13.908,13.908,1.36504,3.33795,2.56362,0.160979,0.136926,0.158284,1,0,3.2725,-0.0175,-0.9975,0.179828,0.125172,-0.853634,-0.04298,0.10416,0.46732
-1.09108,0,0,16.0911,16.0911,13.9089,13.9089,1.36385,3.33896,2.56349,0.160961,0.136905,0.158283,1,0,2.8875,0.7175,-0.4725,0.179828,0.125172,-0.853634,-0.04298,0.10416,0.46732
-1.11283,0,0,16.1128,16.1128,13.8872,13.8872,1.39104,3.35774,2.55374,0.0135148,-0.0254164,0.0455091,0,0,3.535,0.6125,-0.42,0.032086,-0.037454,-0.965508,-0.04298,0.10416,0.46732
-1.1354,0,0,16.1354,16.1354,13.8646,13.8646,1.41925,3.37626,2.54426,0.0131921,-0.0249255,0.0454781,0,0,4.3575,0.665,-0.2625,0.032086,-0.037454,-0.965508,-0.04298,0.10416,0.46732
-1.13632,0,0,16.1363,16.1363,13.8637,13.8637,1.42039,3.37729,2.54458,-0.0646981,0.14253,-0.178167,1,0,4.1825,0.735,-0.21,-0.046116,0.129808,-1.18743,-0.04298,0.10416,0.46732
-1.13636,0,0,16.1364,16.1364,13.8636,13.8636,1.42045,3.37823,2.54589,-0.0647145,0.142531,-0.178168,1,0,3.535,0.7,0.3675,-0.046116,0.129808,-1.18743,-0.0406,0.10332,0.46676
-1.0893,0,0,16.0893,16.0893,13.9107,13.9107,1.36162,3.50125,2.43796,0.113427,0.060167,0.037257,0,0,3.675,0.1925,0.5775,0.134932,0.048556,-0.97356,-0.0406,0.10332,0.46676
-1.04312,0,0,16.0431,16.0431,13.9569,13.9569,1.3039,3.6206,2.32967,0.111348,0.0591587,0.0371511,0,0,3.7625,-0.6825,0.42,0.134932,0.048556,-0.97356,-0.0406,0.10332,0.46676
-1.04432,0,0,16.0443,16.0443,13.9557,13.9557,1.3054,3.61957,2.33121,-0.410537,0.0573531,-0.0875182,1,0,4.34,-0.455,0.525,-0.38918,0.046726,-1.09727,-0.0406,0.10332,0.46676
-1.04255,0,0,16.0426,16.0426,13.9574,13.9574,1.30319,3.61972,2.33214,-0.410539,0.0573145,-0.0875174,1,0,2.275,0.2275,0.1575,-0.38918,0.046726,-1.09727,-0.0406,0.10332,0.46676
-1.04144,0,0,16.0414,16.0414,13.9586,13.9586,1.30179,3.62038,2.33269,0.256527,-0.16437,-0.162393,1,0,2.7475,0.525,-0.07,0.280722,-0.174704,-1.17157,-0.0406,0.10332,0.46676
-1.0407,0,0,16.0407,16.0407,13.9593,13.9593,1.30087,3.62146,2.33328,0.256508,-0.164386,-0.162394,1,0,3.01,0.77,-0.0525,0.280722,-0.174704,-1.17157,-0.0406,0.10332,0.46676
-1.17617,0,0,16.1762,16.1762,13.8238,13.8238,1.47021,3.6403,2.32324,0.0228062,-0.190137,-0.0640045,0,0,3.4125,0.2275,-0.56,0.04636,-0.203374,-1.07384,-0.0406,0.10332,0.46676
-1.31073,0,0,16.3107,16.3107,13.6893,13.6893,1.63841,3.65812,2.30828,0.0224959,-0.187209,-0.0641037,0,0,4.3925,0.1925,-0.9975,0.04636,-0.203374,-1.07384,-0.04312,0.10668,0.45836
-1.46026,0,0,16.4603,16.4603,13.5397,13.5397,1.82533,3.69651,2.27462,0.0391997,-0.200077,-0.0148198,0,0,3.57,0.14,-0.9275,0.063806,-0.219478,-1.0248,-0.04312,0.10668,0.45836
-1.60871,0,0,16.6087,16.6087,13.3913,13.3913,2.01089,3.73426,2.24088,0.0385422,-0.196849,-0.0149706,0,0,4.55,0.1925,-1.0675,0.063806,-0.219478,-1.0248,-0.04312,0.10668,0.45836
-1.36214,0,0,16.3621,16.3621,13.6379,13.6379,1.70267,4.01713,1.96683,0.270878,0.328539,0.0742533,0,0,4.2175,-0.07,-1.12,0.302072,0.310734,-0.936106,-0.04312,0.10668,0.45836
-1.11908,0,0,16.1191,16.1191,13.8809,13.8809,1.39885,4.29533,1.69042,0.266035,0.323243,0.0740447,0,0,4.2175,-0.07,-1.12,0.302072,0.310734,-0.936106,-0.04312,0.10668,0.45836
-1.11931,0,0,16.1193,16.1193,13.8807,13.8807,1.39914,4.29424,1.68966,-0.369073,-0.0604744,-0.0934099,1,0,3.745,-0.525,-0.805,-0.335744,-0.07259,-1.10227,-0.04312,0.10668,0.45836
-1.11955,0,0,16.1195,16.1195,13.8805,13.8805,1.39943,4.29314,1.68891,-0.369054,-0.0604693,-0.0934086,1,0,3.745,-0.525,-0.805,-0.335744,-0.07259,-1.10227,-0.04312,0.10668,0.45836
-1.11874,0,0,16.1187,16.1187,13.8813,13.8813,1.39843,4.30053,1.68914,-0.162657,-0.202032,-0.134729,1,0,2.975,4.4625,-0.35,-0.128344,-0.213988,-1.14326,-0.04312,0.10668,0.45836
-1.11794,0,0,16.1179,16.1179,13.8821,13.8821,1.39742,4.30792,1.68938,-0.162785,-0.20205,-0.134738,1,0,2.975,4.4625,-0.35,-0.128344,-0.213988,-1.14326,-0.04326,0.10416,0.4585
-1.24162,0,0,16.2416,16.2416,13.7584,13.7584,1.55203,4.4866,1.52327,0.171957,-0.16053,0.0292132,0,0,3.3425,0.7175,-0.245,0.210938,-0.175192,-0.98027,-0.04326,0.10416,0.4585
-1.36332,0,0,16.3633,16.3633,13.6367,13.6367,1.70414,4.66208,1.35815,0.168904,-0.157891,0.0288938,0,0,3.3425,0.7175,-0.245,0.210938,-0.175192,-0.98027,-0.04326,0.10416,0.4585
-1.44353,0,0,16.4435,16.4435,13.5565,13.5565,1.80441,4.48659,1.51329,-0.169418,-0.108267,-0.0130868,0,0,2.345,0.595,0.35,-0.131882,-0.127368,-1.02212,-0.04326,0.10416,0.4585
-1.52236,0,0,16.5224,16.5224,13.4776,13.4776,1.90295,4.31426,1.66749,-0.166419,-0.106545,-0.0129116,0,0,2.345,0.595,0.35,-0.131882,-0.127368,-1.02212,-0.04326,0.10416,0.4585
-1.52206,0,0,16.5221,16.5221,13.4779,13.4779,1.90257,4.31226,1.66787,0.0373476,0.138679,-0.0965137,1,0,3.325,-1.0325,-0.1225,0.072712,0.117608,-1.10508,-0.04326,0.10416,0.4585
-1.52201,0,0,16.522,16.522,13.478,13.478,1.90251,4.31044,1.66813,-0.203163,0.154554,-0.0898721,1,0,3.5,-0.9275,-0.1925,-0.168848,0.133468,-1.09849,-0.04326,0.10416,0.4585
-1.52151,0,0,16.5215,16.5215,13.4785,13.4785,1.90188,4.31166,1.66889,-0.203184,0.154543,-0.0898733,1,0,3.1675,0.8575,0.035,-0.168848,0.133468,-1.09849,-0.04326,0.10416,0.4585
-1.52151,0,0,16.5215,16.5215,13.4785,13.4785,1.90188,4.31252,1.66963,0.147652,-0.0419588,-0.2786,1,0,3.5175,0.6475,0.035,0.183488,-0.06283,-1.28576,-0.04326,0.10416,0.4585
-1.52173,0,0,16.5217,16.5217,13.4783,13.4783,1.90216,4.3122,1.66995,0.147658,-0.041954,-0.2786,1,0,3.6925,-0.0525,-0.1925,0.183488,-0.06283,-1.28576,-0.03836,0.1022,0.46774
-1.50056,0,0,16.5006,16.5006,13.4994,13.4994,1.8757,4.42246,1.56048,0.0996957,0.0269489,0.0382298,0,0,3.045,0.3325,-0.105,0.13725,0.006466,-0.971242,-0.03836,0.1022,0.46774
-1.48107,0,0,16.4811,16.4811,13.5189,13.5189,1.85133,4.53119,1.4502,0.0978037,0.0265204,0.0380956,0,0,4.025,0.5775,-0.63,0.13725,0.006466,-0.971242,-0.03836,0.1022,0.46774
-1.48108,0,0,16.4811,16.4811,13.5189,13.5189,1.85135,4.5328,1.44992,-0.138271,0.122146,-0.113133,1,0,3.57,1.0675,-0.5775,-0.099796,0.101992,-1.1213,-0.03836,0.1022,0.46774
-1.48182,0,0,16.4818,16.4818,13.5182,13.5182,1.85227,4.53327,1.45005,-0.138279,0.122162,-0.113134,1,0,4.06,0.4025,-0.315,-0.099796,0.101992,-1.1213,-0.03836,0.1022,0.46774
-1.46816,0,0,16.4682,16.4682,13.5318,13.5318,1.8352,4.47092,1.49655,-0.0596864,0.0176935,0.00388447,0,0,3.7275,-0.07,-0.525,-0.02196,-0.002074,-1.00528,-0.03836,0.1022,0.46774
-1.45347,0,0,16.4535,16.4535,13.5465,13.5465,1.81684,4.4092,1.54249,-0.0586123,0.0173769,0.003978,0,0,2.87,-0.3675,-0.84,-0.02196,-0.002074,-1.00528,-0.03836,0.1022,0.46774
-1.48587,0,0,16.4859,16.4859,13.5141,13.5141,1.85734,4.31084,1.62639,-0.0927389,-0.0411459,0.0286755,0,0,2.765,-0.4375,-0.5775,-0.05795,-0.061244,-0.98088,-0.03836,0.1022,0.46774
-1.51871,0,0,16.5187,16.5187,13.4813,13.4813,1.89839,4.21587,1.71109,-0.091086,-0.0404278,0.0287753,0,0,3.465,0.595,-0.6125,-0.05795,-0.061244,-0.98088,-0.03948,0.10178,0.4627
-1.39971,0,0,16.3997,16.3997,13.6003,13.6003,1.74964,4.04083,1.86252,-0.178667,0.164973,-0.0868629,0,0,3.8325,-0.105,-0.7525,-0.148962,0.146522,-1.09593,-0.03948,0.10178,0.4627
-1.28163,0,0,16.2816,16.2816,13.7184,13.7184,1.60203,3.86997,2.01459,-0.175692,0.16241,-0.0865821,0,0,3.0975,0.5775,-0.8925,-0.148962,0.146522,-1.09593,-0.03948,0.10178,0.4627
-1.28091,0,0,16.2809,16.2809,13.7191,13.7191,1.60113,3.87093,2.0141,0.0558428,0.155799,-0.10023,1,0,3.0625,0.6825,-0.6825,0.08357,0.139934,-1.10947,-0.03948,0.10178,0.4627
-1.28099,0,0,16.281,16.281,13.719,13.719,1.60124,3.87112,2.01334,0.0558395,0.155801,-0.10023,1,0,3.64,0.2275,-0.8225,0.08357,0.139934,-1.10947,-0.03948,0.10178,0.4627
-1.12021,0,0,16.1202,16.1202,13.8798,13.8798,1.40027,3.75688,2.11413,-0.111279,0.205675,0.0230653,0,0,3.78,0.525,-0.8225,-0.086254,0.193248,-0.987346,-0.03948,0.10178,0.4627
-0.960535,0,0,15.9605,15.9605,14.0395,14.0395,1.20067,3.64232,2.21667,-0.109284,0.202203,0.0232732,0,0,2.66,-0.7875,-0.28,-0.086254,0.193248,-0.987346,-0.03948,0.10178,0.4627
-1.00379,0,0,16.0038,16.0038,13.9962,13.9962,1.25473,3.74898,2.1236,0.0942908,-0.0530801,0.0633372,0,0,2.555,-0.105,-0.21,0.120048,-0.062708,-0.947452,-0.03948,0.10178,0.4627
-1.04649,0,0,16.0465,16.0465,13.9535,13.9535,1.30811,3.85486,2.03631,0.0924468,-0.0521536,0.0631939,0,0,2.6775,0.5425,-0.315,0.120048,-0.062708,-0.947452,-0.03808,0.09758,0.46676
-1.06774,0,0,16.0677,16.0677,13.9323,13.9323,1.33467,3.82585,2.07327,-0.0270759,-0.0303182,-0.055797,0,0,3.4825,0.595,-0.1925,-0.000488,-0.041358,-1.06555,-0.03808,0.09758,0.46676
-1.09,0,0,16.09,16.09,13.91,13.91,1.3625,3.79552,2.11066,-0.0265477,-0.0298328,-0.0557732,0,0,4.4275,-0.4725,0.14,-0.000488,-0.041358,-1.06555,-0.03808,0.09758,0.46676
-1.09002,0,0,16.09,16.09,13.91,13.91,1.36253,3.79521,2.11191,-0.274981,-0.351026,-0.131755,1,0,3.5175,-0.035,0.35,-0.249978,-0.362218,-1.14094,-0.03808,0.09758,0.46676
-1.09129,0,0,16.0913,16.0913,13.9087,13.9087,1.36411,3.79619,2.1131,-0.274998,-0.350998,-0.131757,1,0,4.3925,0.7175,0.2975,-0.249978,-0.362218,-1.14094,-0.03808,0.09758,0.46676
-1.0009,0,0,16.0009,16.0009,13.9991,13.9991,1.25113,4.04331,1.88601,0.249041,0.121369,0.0161462,0,0,3.6575,0.3325,0.4025,0.2806,0.11163,-0.993934,-0.03808,0.09758,0.46676
-0.911876,0,0,15.9119,15.9119,14.0881,14.0881,1.13985,4.28625,1.6583,0.244812,0.119425,0.0158788,0,0,3.6575,0.3325,0.4025,0.2806,0.11163,-0.993934,-0.03808,0.09758,0.46676
-0.80055,0,0,15.8006,15.8006,14.1994,14.1994,1.00069,4.03452,1.89124,-0.247561,0.1429,0.0234967,0,0,3.7625,0.4025,0.035,-0.218258,0.137494,-0.986736,-0.03808,0.09758,0.46676
-0.691014,0,0,15.691,15.691,14.309,14.309,0.863767,3.78596,2.12316,-0.243233,0.140521,0.0238313,0,0,3.7625,0.4025,0.035,-0.218258,0.137494,-0.986736,-0.04158,0.0994,0.46508
-0.690061,0,0,15.6901,15.6901,14.3099,14.3099,0.862576,3.78541,2.123,-0.0122793,0.199488,0.171739,1,0,2.8875,-0.1925,-0.4725,0.013664,0.19642,-0.83997,-0.04158,0.0994,0.46508
-0.689109,0,0,15.6891,15.6891,14.3109,14.3109,0.861386,3.78486,2.12284,-0.0122697,0.199467,0.17174,1,0,2.8875,-0.1925,-0.4725,0.013664,0.19642,-0.83997,-0.04158,0.0994,0.46508
-0.690447,0,0,15.6904,15.6904,14.3096,14.3096,0.863058,3.77719,2.1216,0.1249,-0.262875,-0.586598,1,0,4.5325,-4.375,-1.0325,0.15128,-0.265472,-1.59247,-0.04158,0.0994,0.46508
-0.69058,0,0,15.6906,15.6906,14.3094,14.3094,0.863225,3.77726,2.12025,-0.284387,-0.156134,0.145437,1,0,3.6925,0.1575,-1.1725,-0.259738,-0.158844,-0.866078,-0.04158,0.0994,0.46508
-0.689994,0,0,15.69,15.69,14.31,14.31,0.862493,3.77683,2.11804,-0.284379,-0.156147,0.145438,1,0,3.22,-0.14,-1.6625,-0.259738,-0.158844,-0.866078,-0.04158,0.0994,0.46508
-0.690072,0,0,15.6901,15.6901,14.3099,14.3099,0.86259,3.77761,2.11564,-0.0727647,0.0561114,-0.122099,1,0,3.6925,0.56,-1.785,-0.047214,0.053192,-1.13155,-0.04158,0.0994,0.46508
-0.688835,0,0,15.6888,15.6888,14.3112,14.3112,0.861043,3.7775,2.11386,-0.0727629,0.0560845,-0.122098,1,0,2.7475,0.0525,-1.4175,-0.047214,0.053192,-1.13155,-0.04158,0.0994,0.46508
-0.714088,0,0,15.7141,15.7141,14.2859,14.2859,0.89261,3.69012,2.20628,-0.0850904,-0.0309292,0.075571,0,0,2.555,0.5425,-1.225,-0.061122,-0.034282,-0.935496,-0.03808,0.09744,0.46634
-0.705543,0,0,15.7055,15.7055,14.2945,14.2945,0.881929,3.7787,2.13239,0.0874558,0.00894083,-0.00321387,0,0,2.38,0.6475,-1.05,0.113704,0.005734,-1.01358,-0.03808,0.09744,0.46634
-0.698464,0,0,15.6985,15.6985,14.3015,14.3015,0.873081,3.86517,2.05967,0.08595,0.00878521,-0.00331209,0,0,3.2725,0.3325,-0.4025,0.113704,0.005734,-1.01358,-0.03808,0.09744,0.46634
-0.699038,0,0,15.699,15.699,14.301,14.301,0.873798,3.8647,2.0605,0.0280095,-0.087316,0.215537,1,0,3.92,-0.14,0.105,0.05551,-0.09028,-0.796416,-0.03808,0.09744,0.46634
-0.700532,0,0,15.7005,15.7005,14.2995,14.2995,0.875666,3.86502,2.06218,0.0280039,-0.0872835,0.215536,1,0,4.5325,0.3325,0.595,0.05551,-0.09028,-0.796416,-0.03808,0.09744,0.46634
-0.672864,0,0,15.6729,15.6729,14.3271,14.3271,0.84108,3.67103,2.25452,-0.180124,0.0349771,0.0949089,0,0,4.4975,0.595,0.665,-0.156892,0.032452,-0.916342,-0.03808,0.09744,0.46634
-0.64555,0,0,15.6456,15.6456,14.3544,14.3544,0.806938,3.48019,2.44819,-0.1768,0.0343854,0.0951251,0,0,4.3925,0.49,1.4,-0.156892,0.032452,-0.916342,-0.03808,0.09744,0.46634
-0.582228,0,0,15.5822,15.5822,14.4178,14.4178,0.727786,3.75919,2.19686,0.280108,0.0846623,0.0392635,0,0,3.7625,-0.1925,1.54,0.30683,0.084058,-0.971486,-0.03808,0.09744,0.46634
-0.519088,0,0,15.5191,15.5191,14.4809,14.4809,0.64886,4.03415,1.94518,0.27532,0.0832841,0.0389539,0,0,3.22,-0.245,1.4175,0.30683,0.084058,-0.971486,-0.0399,0.09744,0.46536
-0.518314,0,0,15.5183,15.5183,14.4817,14.4817,0.647893,4.03423,1.94776,-0.118052,0.204173,-0.0946911,1,0,2.905,0.1925,1.12,-0.088206,0.204838,-1.1041,-0.0399,0.09744,0.46536
-0.517789,0,0,15.5178,15.5178,14.4822,14.4822,0.647236,4.03501,1.94899,-0.118066,0.204161,-0.0946919,1,0,3.1325,0.595,0.3325,-0.088206,0.204838,-1.1041,-0.0399,0.09744,0.46536
-0.518777,0,0,15.5188,15.5188,14.4812,14.4812,0.648471,4.03541,1.94959,0.0110663,0.218838,-0.418908,1,0,4.2175,0.3675,-0.035,0.04148,0.219478,-1.42581,-0.0399,0.09744,0.46536
-0.519425,0,0,15.5194,15.5194,14.4806,14.4806,0.649282,4.03507,1.94949,0.0110722,0.218852,-0.418908,1,0,4.0075,-0.07,-0.4375,0.04148,0.219478,-1.42581,-0.0399,0.09744,0.46536
-0.464752,0,0,15.4648,15.4648,14.5352,14.5352,0.58094,4.13812,1.85292,0.0957761,0.0700099,0.0458453,0,0,4.1825,-0.0525,-0.945,0.128344,0.07198,-0.964532,-0.0399,0.09744,0.46536
-0.410208,0,0,15.4102,15.4102,14.5898,14.5898,0.512761,4.23909,1.75534,0.0940185,0.0688219,0.0457279,0,0,3.6925,-0.2275,-1.4875,0.128344,0.07198,-0.964532,-0.0399,0.09744,0.46536
-0.410807,0,0,15.4108,15.4108,14.5892,14.5892,0.513509,4.23916,1.75314,-0.0339071,-0.0965247,0.440147,1,0,4.06,0.1575,-1.6625,-0.000122,-0.093208,-0.573156,-0.0399,0.09744,0.46536
-0.411026,0,0,15.411,15.411,14.589,14.589,0.513783,4.23888,1.75,-0.0339022,-0.0965199,0.440147,1,0,3.8325,-0.0525,-2.205,-0.000122,-0.093208,-0.573156,-0.03976,0.10052,0.46382
-0.479478,0,0,15.4795,15.4795,14.5205,14.5205,0.599348,4.40139,1.59394,0.174412,-0.0960099,-0.0319576,0,0,2.9225,-0.4025,-2.03,0.211914,-0.094184,-1.04139,-0.03976,0.10052,0.46382
-0.546372,0,0,15.5464,15.5464,14.4536,14.4536,0.682965,4.5616,1.43853,0.171624,-0.0945575,-0.0321924,0,0,2.6075,-0.105,-1.96,0.211914,-0.094184,-1.04139,-0.03976,0.10052,0.46382
-0.624748,0,0,15.6247,15.6247,14.3753,14.3753,0.780935,4.66305,1.33822,0.0967246,-0.102015,0.0282571,0,0,2.6075,0.5775,-2.0825,0.13847,-0.103334,-0.981246,-0.03976,0.10052,0.46382
-0.703509,0,0,15.7035,15.7035,14.2965,14.2965,0.879387,4.76182,1.23929,0.0950066,-0.100304,0.0280907,0,0,3.7275,0.0525,-1.47,0.13847,-0.103334,-0.981246,-0.03976,0.10052,0.46382
-0.583695,0,0,15.5837,15.5837,14.4163,14.4163,0.729619,4.5901,1.38334,-0.176685,0.161987,-0.0382665,0,0,3.71,0.385,-0.8925,-0.137372,0.161284,-1.04737,-0.03976,0.10052,0.46382
-0.465943,0,0,15.4659,15.4659,14.5341,14.5341,0.582428,4.42143,1.52983,-0.173751,0.159429,-0.0380059,0,0,3.6925,0.5075,0.0175,-0.137372,0.161284,-1.04737,-0.03976,0.10052,0.46382
-0.467697,0,0,15.4677,15.4677,14.5323,14.5323,0.584622,4.41154,1.53653,-0.00981585,-0.00100745,-0.0154935,0,0,4.27,0.77,0.2975,0.027084,0.000976,-1.02504,-0.03976,0.10052,0.46382
-0.469184,0,0,15.4692,15.4692,14.5308,14.5308,0.58648,4.4005,1.55039,-0.00962367,-0.000974963,-0.015479,0,0,4.06,0.0175,0.8925,0.027084,0.000976,-1.02504,-0.04312,0.09632,0.46942
-0.470648,0,0,15.4706,15.4706,14.5294,14.5294,0.58831,4.4,1.55342,-0.115186,-0.189507,0.131322,1,0,4.445,-0.14,1.3825,-0.078934,-0.187392,-0.879376,-0.04312,0.09632,0.46942
-0.470132,0,0,15.4701,15.4701,14.5299,14.5299,0.587665,4.39898,1.55632,-0.115168,-0.189518,0.131323,1,0,3.0625,-0.455,1.3125,-0.078934,-0.187392,-0.879376,-0.04312,0.09632,0.46942
-0.567595,0,0,15.5676,15.5676,14.4324,14.4324,0.709494,4.47485,1.49639,0.0746084,-0.130366,0.00382225,0,0,2.135,0.4725,1.33,0.112972,-0.130418,-1.00577,-0.04312,0.09632,0.46942
-0.663476,0,0,15.6635,15.6635,14.3365,14.3365,0.829346,4.54936,1.43669,0.073312,-0.128282,0.00369195,0,0,2.135,0.4725,1.33,0.112972,-0.130418,-1.00577,-0.04312,0.09632,0.46942
-0.662761,0,0,15.6628,15.6628,14.3372,14.3372,0.828451,4.55608,1.43793,-0.0566732,0.208283,-0.110413,1,0,2.9925,4.0775,0.28,-0.017446,0.205814,-1.11898,-0.04312,0.09632,0.46942
-0.662045,0,0,15.662,15.662,14.338,14.338,0.827556,4.5628,1.43917,-0.0567901,0.208267,-0.110422,1,0,2.9925,4.0775,0.28,-0.017446,0.205814,-1.11898,-0.04312,0.09632,0.46942
-0.596578,0,0,15.5966,15.5966,14.4034,14.4034,0.745723,4.36127,1.62344,-0.208056,0.0909492,-0.0634088,0,0,4.375,0.5075,-0.6825,-0.172874,0.090036,-1.07262,-0.04312,0.09632,0.46942
-0.532185,0,0,15.5322,15.5322,14.4678,14.4678,0.665231,4.16317,1.80818,-0.204608,0.0895515,-0.0631346,0,0,4.375,0.5075,-0.6825,-0.172874,0.090036,-1.07262,-0.04312,0.09632,0.46942
-0.596156,0,0,15.5962,15.5962,14.4038,14.4038,0.745195,4.11347,1.85501,-0.045933,-0.0882158,-0.056327,0,0,3.85,-1.05,-1.715,-0.014396,-0.088938,-1.06591,-0.03962,0.09954,0.4627
