pid_x,pid_y,pid_z,front_left_speed,front_right_speed,back_left_speed,back_right_speed,orientation_x,orientation_y,orientation_z,acceleration_x,acceleration_y,acceleration_z,accel_rejected,mag_rejected,gyro_x,gyro_y,gyro_z,accel_x,accel_y,accel_z,mag_x,mag_y,mag_z
-0.315723,0,0,5.31572,5.31572,5,5,0.485727,-0.0539958,-0.244398,0.0348808,-0.420132,0.0844911,0,0,3.57,-0.1225,-0.21,-0.006222,-0.41602,-0.928786,-0.04578,0.2534,0.34762
-0.625963,0,0,5.62596,5.62596,5,5,0.96302,-0.103963,-0.487546,0.0357529,-0.411803,0.0843846,0,0,3.675,0.14,-0.2275,-0.006222,-0.41602,-0.928786,-0.04578,0.2534,0.34762
-0.929037,0,0,5.92904,5.92904,5,5,1.42929,-0.15513,-0.725328,0.0330013,-0.402323,0.0813849,0,0,3.675,-0.1575,-0.1225,-0.009882,-0.414678,-0.931592,-0.04578,0.2534,0.34762
-1.22478,0,0,6.22478,6.22478,5,5,1.88428,-0.197591,-0.966441,0.03763,-0.390478,0.0842267,0,0,3.43,-0.2975,-0.1575,-0.005978,-0.410774,-0.928542,-0.04578,0.2534,0.34762
-1.51539,0,0,6.51539,6.51539,5,5,2.33137,-0.237097,-1.20625,0.0383195,-0.38268,0.0839371,0,0,3.5875,-0.42,-0.245,-0.005978,-0.410774,-0.928542,-0.04578,0.2534,0.34762
-1.80183,0,0,6.80183,6.80183,5,5,2.77204,-0.283673,-1.4374,0.0317217,-0.375607,0.0862959,0,0,3.535,-0.35,-0.2975,-0.01342,-0.411384,-0.925858,-0.04284,0.25172,0.34006
-2.08478,0,0,7.08478,7.08478,5,5,3.20735,-0.316008,-1.67639,0.041276,-0.372417,0.0817164,0,0,3.8325,-0.21,-0.245,-0.004392,-0.415776,-0.930006,-0.04284,0.25172,0.34006
-2.36356,0,0,7.36356,7.36356,5,5,3.63625,-0.346169,-1.9132,0.0413165,-0.364578,0.0856928,0,0,3.815,-0.1575,-0.2625,-0.00488,-0.41541,-0.925614,-0.04284,0.25172,0.34006
-2.63854,0,0,7.63854,7.63854,5,5,4.05929,-0.37005,-2.15137,0.0446489,-0.357945,0.0887602,0,0,3.71,-0.1225,-0.2625,-0.001952,-0.416142,-0.922076,-0.04284,0.25172,0.34006
-2.90836,0,0,7.90836,7.90836,5,5,4.4744,-0.391462,-2.38767,0.0450226,-0.35072,0.0882187,0,0,3.605,-0.175,-0.1925,-0.001952,-0.416142,-0.922076,-0.04284,0.25172,0.34006
-3.17114,0,0,8.17114,8.17114,5,5,4.87868,-0.416648,-2.61693,0.0404813,-0.342589,0.0829683,0,0,3.5875,-0.2625,-0.175,-0.006954,-0.415044,-0.926712,-0.04284,0.25172,0.34006
-3.42909,0,0,8.42909,8.42909,5,5,5.27553,-0.439344,-2.84452,0.0408774,-0.33569,0.0823524,0,0,3.5875,-0.2625,-0.175,-0.006954,-0.415044,-0.926712,-0.04284,0.25172,0.34006
-3.67973,0,0,8.67973,8.67973,5,5,5.66112,-0.461312,-3.06218,0.0382237,-0.328381,0.0754377,0,0,3.4475,-0.14,-0.175,-0.010004,-0.414434,-0.932934,-0.0413,0.2499,0.3451
-3.92739,0,0,8.92739,8.92739,5,5,6.04213,-0.476796,-3.28199,0.042017,-0.320667,0.0827492,0,0,3.57,-0.315,-0.1925,-0.006466,-0.413336,-0.925004,-0.0413,0.2499,0.3451
-4.16984,0,0,9.16984,9.16984,5,5,6.41514,-0.489045,-3.50102,0.0430812,-0.314073,0.0805658,0,0,3.57,-0.3675,-0.21,-0.005612,-0.413214,-0.926468,-0.0413,0.2499,0.3451
-4.40721,0,0,9.40721,9.40721,5,5,6.78032,-0.495235,-3.72146,0.0461048,-0.306765,0.081062,0,0,3.4125,-0.35,-0.21,-0.002684,-0.412238,-0.925248,-0.0413,0.2499,0.3451
-4.64033,0,0,9.64033,9.64033,5,5,7.13896,-0.499274,-3.94003,0.0461753,-0.300552,0.080303,0,0,3.605,-0.14,-0.2275,-0.002684,-0.412238,-0.925248,-0.0413,0.2499,0.3451
-4.86917,0,0,9.86917,9.86917,5,5,7.49104,-0.505146,-4.15423,0.0440911,-0.297145,0.0743559,0,0,3.57,-0.2975,-0.2975,-0.00488,-0.414922,-0.930372,-0.0413,0.2499,0.3451
-5.09378,0,0,10.0938,10.0938,5,5,7.83659,-0.509221,-4.36656,0.0441622,-0.291168,0.073551,0,0,3.6575,-0.245,-0.28,-0.00488,-0.414922,-0.930372,-0.0413,0.2499,0.3451
-5.31593,0,0,10.3159,10.3159,5,5,8.17835,-0.518263,-4.5719,0.0395821,-0.284285,0.0803416,0,0,3.745,-0.245,-0.28,-0.009638,-0.413946,-0.922808,-0.0413,0.2499,0.3451
-5.53007,0,0,10.5301,10.5301,5,5,8.50781,-0.524011,-4.77842,0.0405328,-0.276642,0.0711458,0,0,3.7975,-0.2625,-0.3675,-0.008784,-0.411994,-0.931104,-0.04242,0.24948,0.33838
-5.74495,0,0,10.7449,10.7449,5,5,8.83838,-0.523064,-4.98736,0.0451327,-0.273991,0.079866,0,0,3.885,-0.385,-0.35,-0.004148,-0.415044,-0.921588,-0.04242,0.24948,0.33838
-5.95574,0,0,10.9557,10.9557,5,5,9.16267,-0.520674,-5.19443,0.045091,-0.268401,0.0789809,0,0,3.885,-0.385,-0.35,-0.004148,-0.415044,-0.921588,-0.04242,0.24948,0.33838
-6.16061,0,0,11.1606,11.1606,5,5,9.47787,-0.519754,-5.3969,0.0426452,-0.263828,0.0712051,0,0,3.605,-0.14,-0.3325,-0.006588,-0.415898,-0.92842,-0.04242,0.24948,0.33838
-6.35954,0,0,11.3595,11.3595,5,5,9.78391,-0.519968,-5.5955,0.0404622,-0.25673,0.0665,0,0,3.8675,-0.14,-0.2975,-0.008784,-0.414068,-0.932202,-0.04242,0.24948,0.33838
-6.5546,0,0,11.5546,11.5546,5,5,10.084,-0.518926,-5.79213,0.040444,-0.251571,0.0655967,0,0,3.8325,-0.175,-0.21,-0.008784,-0.414068,-0.932202,-0.04242,0.24948,0.33838
-6.74818,0,0,11.7482,11.7482,5,5,10.3818,-0.500737,-5.99153,0.0462009,-0.2467,0.0730366,0,0,3.6925,4.4625,-0.175,-0.002684,-0.414312,-0.923906,-0.04242,0.24948,0.33838
-6.93766,0,0,11.9377,11.9377,5,5,10.6733,-0.495872,-6.18596,0.0412565,-0.239988,0.0751815,0,0,3.4475,0.0175,-0.2625,-0.007564,-0.412604,-0.920856,-0.04578,0.25158,0.34286
-7.12407,0,0,12.1241,12.1241,5,5,10.9601,-0.488923,-6.3796,0.0423501,-0.237881,0.0712925,0,0,3.22,-0.1925,-0.315,-0.006344,-0.41541,-0.923784,-0.04578,0.25158,0.34286
-7.30455,0,0,12.3046,12.3046,5,5,11.2378,-0.483556,-6.5694,0.0401912,-0.232514,0.0631064,0,0,3.4475,-0.28,-0.2275,-0.008418,-0.4148,-0.930982,-0.04578,0.25158,0.34286
-7.48183,0,0,12.4818,12.4818,5,5,11.5105,-0.47699,-6.75759,0.0400766,-0.227848,0.0621686,0,0,3.71,-0.2275,-0.3675,-0.008418,-0.4148,-0.930982,-0.04578,0.25158,0.34286
-7.65344,0,0,12.6534,12.6534,5,5,11.7745,-0.469464,-6.94363,0.0394593,-0.221136,0.0595185,0,0,3.5175,-0.14,-0.28,-0.008906,-0.412604,-0.93269,-0.04578,0.25158,0.34286
-7.82173,0,0,12.8217,12.8217,5,5,12.0334,-0.460999,-7.12787,0.0393116,-0.216715,0.0585876,0,0,3.5175,-0.14,-0.28,-0.008906,-0.412604,-0.93269,-0.04578,0.25158,0.34286
-7.98578,0,0,12.9858,12.9858,5,5,12.2858,-0.450887,-7.31082,0.0394995,-0.211798,0.0560629,0,0,3.535,-0.1225,-0.315,-0.00854,-0.411994,-0.934276,-0.04578,0.25158,0.34286
-8.15111,0,0,13.1511,13.1511,5,5,12.5402,-0.43154,-7.49285,0.0449932,-0.209171,0.0670371,0,0,3.5875,-0.0875,-0.21,-0.002684,-0.413702,-0.922442,-0.04396,0.24962,0.34622
-8.30845,0,0,13.3085,13.3085,5,5,12.7822,-0.421318,-7.66618,0.0376471,-0.203095,0.0534488,0,0,3.7275,-0.2275,-0.035,-0.009882,-0.41175,-0.935008,-0.04396,0.24962,0.34622
-8.46134,0,0,13.4613,13.4613,5,5,13.0175,-0.410088,-7.83818,0.0375726,-0.199948,0.0460174,0,0,3.78,-0.2625,-0.1225,-0.00976,-0.412604,-0.941474,-0.04396,0.24962,0.34622
-8.61136,0,0,13.6114,13.6114,5,5,13.2483,-0.398116,-8.00862,0.0373637,-0.196025,0.0451036,0,0,3.9025,-0.245,-0.21,-0.00976,-0.412604,-0.941474,-0.04396,0.24962,0.34622
-8.7613,0,0,13.7613,13.7613,5,5,13.4789,-0.385957,-8.1769,0.037273,-0.193574,0.0513056,0,0,3.7275,-0.245,-0.1925,-0.009638,-0.414068,-0.934398,-0.04396,0.24962,0.34622
-8.90664,0,0,13.9066,13.9066,5,5,13.7025,-0.375231,-8.34159,0.0352635,-0.188925,0.0468242,0,0,3.6925,-0.07,-0.035,-0.011468,-0.413214,-0.937936,-0.04396,0.24962,0.34622
-9.04907,0,0,14.0491,14.0491,5,5,13.9216,-0.364037,-8.50471,0.0350681,-0.185211,0.0459124,0,0,3.6575,-0.175,-0.0525,-0.011468,-0.413214,-0.937936,-0.04396,0.24962,0.34622
-9.19185,0,0,14.1918,14.1918,5,5,14.1413,-0.344201,-8.67397,0.0409177,-0.181247,0.0566651,0,0,3.675,-0.2625,-0.105,-0.005246,-0.41297,-0.926346,-0.04312,0.24906,0.34006
-9.32922,0,0,14.3292,14.3292,5,5,14.3527,-0.320189,-8.84429,0.0424424,-0.174374,0.0553908,0,0,3.5175,-0.1575,-0.28,-0.003294,-0.409676,-0.926712,-0.04312,0.24906,0.34006
-9.46813,0,0,14.4681,14.4681,5,5,14.5663,-0.303355,-9.0076,0.0380181,-0.176013,0.0561824,0,0,3.57,-0.2625,-0.245,-0.007442,-0.414922,-0.925004,-0.04312,0.24906,0.34006
-9.60428,0,0,14.6043,14.6043,5,5,14.7758,-0.285865,-9.16937,0.0377128,-0.172476,0.055258,0,0,3.57,-0.1575,-0.35,-0.007442,-0.414922,-0.925004,-0.04312,0.24906,0.34006
-9.73932,0,0,14.7393,14.7393,5,5,14.9836,-0.266452,-9.33042,0.0385888,-0.168971,0.0597382,0,0,3.5525,-0.175,-0.35,-0.006222,-0.414922,-0.919636,-0.04312,0.24906,0.34006
-9.87181,0,0,14.8718,14.8718,5,5,15.1874,-0.246979,-9.4899,0.038249,-0.165536,0.0588138,0,0,3.6575,-0.35,-0.3675,-0.006222,-0.414922,-0.919636,-0.04312,0.24906,0.34006
-9.99604,0,0,14.996,14.996,5,5,15.3785,-0.229093,-9.64647,0.0358715,-0.160853,0.0425673,0,0,3.675,-0.2275,-0.2975,-0.008296,-0.413458,-0.934886,-0.04312,0.24906,0.34006
-10.12,0,0,15.12,15.12,5,5,15.5693,-0.202401,-9.79473,0.0402651,-0.158254,0.0494263,0,0,3.6225,-0.28,-0.245,-0.003416,-0.414068,-0.9272,-0.0462,0.24514,0.34342
-10.2441,0,0,15.2441,15.2441,5,5,15.7602,-0.178642,-9.93964,0.0385141,-0.157488,0.0511099,0,0,3.675,-0.525,-0.28,-0.004758,-0.416508,-0.924638,-0.0462,0.24514,0.34342
-10.3665,0,0,15.3665,15.3665,5,5,15.9484,-0.154079,-10.0829,0.0383284,-0.154328,0.0520581,0,0,3.7975,-0.2625,-0.2275,-0.004514,-0.416508,-0.922808,-0.0462,0.24514,0.34342
-10.4864,0,0,15.4864,15.4864,5,5,16.133,-0.128961,-10.2246,0.03789,-0.151231,0.0511689,0,0,3.885,0.0175,-0.28,-0.004514,-0.416508,-0.922808,-0.0462,0.24514,0.34342
-10.6025,0,0,15.6025,15.6025,5,5,16.3115,-0.103336,-10.3653,0.0376857,-0.148483,0.0453812,0,0,3.7625,0,-0.2975,-0.00427,-0.416752,-0.927688,-0.0462,0.24514,0.34342
-10.716,0,0,15.716,15.716,5,5,16.4861,-0.0778622,-10.5044,0.0372411,-0.14556,0.0445218,0,0,3.5,-0.07,-0.2275,-0.00427,-0.416752,-0.927688,-0.0462,0.24514,0.34342
-10.8254,0,0,15.8254,15.8254,5,5,16.6545,-0.0565811,-10.6396,0.0340755,-0.142377,0.0380286,0,0,3.5875,-0.245,-0.21,-0.007076,-0.416386,-0.9333,-0.0462,0.24514,0.34342
-10.9328,0,0,15.9328,15.9328,5,5,16.8197,-0.0348178,-10.7734,0.0336957,-0.139615,0.0371983,0,0,3.71,-0.0175,-0.28,-0.007076,-0.416386,-0.9333,-0.0462,0.24514,0.34342
-11.0393,0,0,16.0393,16.0393,5,5,16.9835,-0.0108266,-10.9053,0.0347348,-0.136758,0.0411624,0,0,3.6575,-0.1225,-0.2975,-0.005612,-0.416264,-0.928542,-0.0525,0.24668,0.34496
-11.1452,0,0,16.1452,16.1452,5,5,17.1465,0.00988232,-11.0335,0.0323081,-0.132451,0.0485651,0,0,3.6575,-0.175,-0.2275,-0.007686,-0.414678,-0.920368,-0.0525,0.24668,0.34496
-11.2492,0,0,16.2492,16.2492,5,5,17.3065,0.0306108,-11.1601,0.0319463,-0.129784,0.0477381,0,0,3.78,-0.175,-0.14,-0.007686,-0.414678,-0.920368,-0.0525,0.24668,0.34496
-11.3479,0,0,16.3479,16.3479,5,5,17.4583,0.057615,-11.2898,0.0353625,-0.127622,0.0372331,0,0,3.605,-0.1925,-0.245,-0.003782,-0.415044,-0.930006,-0.0525,0.24668,0.34496
-11.4447,0,0,16.4447,16.4447,5,5,17.6072,0.0844355,-11.418,0.0348944,-0.125143,0.0364495,0,0,3.675,-0.1925,-0.1925,-0.003782,-0.415044,-0.930006,-0.0525,0.24668,0.34496
-11.5379,0,0,16.5379,16.5379,5,5,17.7507,0.108311,-11.5432,0.032291,-0.121048,0.0334755,0,0,3.7275,-0.14,-0.245,-0.005978,-0.413336,-0.932202,-0.0525,0.24668,0.34496
-11.6293,0,0,16.6293,16.6293,5,5,17.8913,0.132085,-11.6671,0.031876,-0.118712,0.0327237,0,0,3.7275,-0.14,-0.245,-0.005978,-0.413336,-0.932202,-0.0525,0.24668,0.34496
-11.7209,0,0,16.7209,16.7209,5,5,18.0322,0.149875,-11.7855,0.027921,-0.117349,0.0365134,0,0,3.5525,-0.0875,-0.21,-0.009638,-0.414312,-0.927688,-0.0525,0.24668,0.34496
-11.811,0,0,16.811,16.811,5,5,18.1707,0.165895,-11.9176,0.0276414,-0.115052,0.0357615,0,0,3.5525,-0.0875,-0.21,-0.009638,-0.414312,-0.927688,-0.049,0.25256,0.34216
-11.8962,0,0,16.8962,16.8962,5,5,18.3019,0.190866,-12.0541,0.0324294,-0.109215,0.0344293,0,0,3.535,-0.07,-0.2625,-0.004392,-0.410652,-0.928298,-0.049,0.25256,0.34216
-11.9798,0,0,16.9798,16.9798,5,5,18.4304,0.215691,-12.1892,0.0319962,-0.107086,0.0337211,0,0,3.535,-0.07,-0.2625,-0.004392,-0.410652,-0.928298,-0.049,0.25256,0.34216
-12.0646,0,0,17.0646,17.0646,5,5,18.5609,0.23643,-12.3202,0.0298119,-0.109078,0.0331198,0,0,3.5875,-0.21,-0.245,-0.006222,-0.4148,-0.928176,-0.049,0.25256,0.34216
-12.149,0,0,17.149,17.149,5,5,18.6908,0.260841,-12.4517,0.0318156,-0.107175,0.0366974,0,0,3.5,-0.07,-0.2625,-0.003782,-0.415044,-0.923906,-0.049,0.25256,0.34216
-12.232,0,0,17.232,17.232,5,5,18.8185,0.284978,-12.5817,0.0313943,-0.105065,0.0359788,0,0,3.745,-0.1225,-0.175,-0.003782,-0.415044,-0.923906,-0.049,0.25256,0.34216
-12.3106,0,0,17.3106,17.3106,5,5,18.9393,0.301531,-12.706,0.0257601,-0.100872,0.0300084,0,0,3.71,-0.105,-0.175,-0.00915,-0.412848,-0.929152,-0.049,0.25256,0.34216
-12.3874,0,0,17.3874,17.3874,5,5,19.0576,0.317859,-12.8292,0.0254751,-0.0989215,0.0293351,0,0,3.6225,-0.2975,-0.2625,-0.00915,-0.412848,-0.929152,-0.049,0.25256,0.34216
-12.4629,0,0,17.4629,17.4629,5,5,19.1737,0.334632,-12.9416,0.0250608,-0.0971295,0.0295306,0,0,3.5875,-0.4725,-0.2625,-0.009272,-0.41297,-0.928298,-0.04606,0.24654,0.34188
-12.5383,0,0,17.5383,17.5383,5,5,19.2897,0.349476,-13.051,0.0234654,-0.0949734,0.0340258,0,0,3.535,-0.28,-0.2625,-0.010614,-0.412726,-0.923174,-0.04606,0.24654,0.34188
-12.6124,0,0,17.6124,17.6124,5,5,19.4037,0.364846,-13.1595,0.0231972,-0.0930971,0.0333652,0,0,3.675,-0.035,-0.42,-0.010614,-0.412726,-0.923174,-0.04606,0.24654,0.34188
-12.6851,0,0,17.6851,17.6851,5,5,19.5156,0.384146,-13.2692,0.025533,-0.0912565,0.0336961,0,0,3.6925,-0.1225,-0.4025,-0.00793,-0.412726,-0.922198,-0.04606,0.24654,0.34188
-12.7564,0,0,17.7564,17.7564,5,5,19.6253,0.403218,-13.3775,0.0252002,-0.0894533,0.0330527,0,0,3.71,-0.1225,-0.175,-0.00793,-0.412726,-0.922198,-0.04606,0.24654,0.34188
-12.8229,0,0,17.8229,17.8229,5,5,19.7276,0.427125,-13.4885,0.0281845,-0.0885062,0.0212605,0,0,3.57,-0.455,-0.1225,-0.004514,-0.413458,-0.9333,-0.04606,0.24654,0.34188
-12.8882,0,0,17.8882,17.8882,5,5,19.828,0.4511,-13.5985,0.0277661,-0.0868578,0.0206643,0,0,3.675,-0.28,-0.21,-0.004514,-0.413458,-0.9333,-0.04606,0.24654,0.34188
-12.955,0,0,17.955,17.955,5,5,19.9308,0.466173,-13.7014,0.0222791,-0.0873697,0.023249,0,0,3.675,-0.2975,-0.1575,-0.00976,-0.415654,-0.930128,-0.04606,0.24654,0.34188
-13.0205,0,0,18.0205,18.0205,5,5,20.0316,0.480179,-13.8139,0.0220347,-0.0857171,0.0226459,0,0,3.5875,-0.385,-0.1925,-0.00976,-0.415654,-0.930128,-0.04298,0.25088,0.34244
-13.0826,0,0,18.0826,18.0826,5,5,20.1271,0.496353,-13.9266,0.0227243,-0.0819545,0.0201044,0,0,3.605,-0.2975,-0.1225,-0.008784,-0.413458,-0.93208,-0.04298,0.25088,0.34244
-13.1433,0,0,18.1433,18.1433,5,5,20.2204,0.513008,-14.038,0.0224336,-0.0804261,0.0195401,0,0,3.4825,0.035,-0.14,-0.008784,-0.413458,-0.93208,-0.04298,0.25088,0.34244
-13.2043,0,0,18.2043,18.2043,5,5,20.3143,0.536351,-14.1521,0.0267642,-0.080234,0.0219199,0,0,3.5525,0,-0.175,-0.004026,-0.4148,-0.929152,-0.04298,0.25088,0.34244
-13.264,0,0,18.264,18.264,5,5,20.4061,0.55934,-14.2653,0.026363,-0.0787337,0.021359,0,0,3.43,-0.0875,-0.2625,-0.004026,-0.4148,-0.929152,-0.04298,0.25088,0.34244
-13.3239,0,0,18.3239,18.3239,5,5,20.4984,0.575949,-14.3731,0.022307,-0.0784467,0.0221459,0,0,3.43,-0.07,-0.175,-0.007808,-0.41602,-0.92781,-0.04298,0.25088,0.34244
-13.3827,0,0,18.3827,18.3827,5,5,20.5888,0.592474,-14.4798,0.0220186,-0.0769693,0.0215891,0,0,3.43,-0.07,-0.175,-0.007808,-0.41602,-0.92781,-0.04298,0.25088,0.34244
-13.4417,0,0,18.4417,18.4417,5,5,20.6795,0.609264,-14.5856,0.0219686,-0.0745123,0.0263153,0,0,3.7275,-0.0875,-0.2625,-0.007564,-0.415044,-0.922564,-0.04298,0.25088,0.34244
-13.4993,0,0,18.4993,18.4993,5,5,20.7682,0.626707,-14.6807,0.0216642,-0.0730661,0.0257646,0,0,3.7275,-0.0875,-0.2625,-0.007564,-0.415044,-0.922564,-0.04522,0.2464,0.34034
-13.5516,0,0,18.5516,18.5516,5,5,20.8486,0.642272,-14.7743,0.0198132,-0.0705346,0.0141981,0,0,3.6575,-0.07,-0.14,-0.00915,-0.413824,-0.933544,-0.04522,0.2464,0.34034
-13.6028,0,0,18.6028,18.6028,5,5,20.9274,0.657718,-14.867,0.0195436,-0.069251,0.013705,0,0,3.6575,-0.07,-0.14,-0.00915,-0.413824,-0.933544,-0.04522,0.2464,0.34034
-13.6557,0,0,18.6557,18.6557,5,5,21.0087,0.672496,-14.958,0.0191642,-0.0681703,0.0215545,0,0,3.605,-0.07,-0.2625,-0.009272,-0.414068,-0.925248,-0.04522,0.2464,0.34034
-13.7071,0,0,18.7071,18.7071,5,5,21.0879,0.686561,-15.0478,0.0183114,-0.0654169,0.0221623,0,0,3.78,-0.035,-0.28,-0.009882,-0.412604,-0.92415,-0.04522,0.2464,0.34034
-13.7575,0,0,18.7575,18.7575,5,5,21.1654,0.700297,-15.1366,0.0180716,-0.0641558,0.0216719,0,0,3.7625,-0.175,-0.245,-0.009882,-0.412604,-0.92415,-0.04522,0.2464,0.34034
-13.8091,0,0,18.8091,18.8091,5,5,21.2448,0.721988,-15.2286,0.0232814,-0.0655524,0.0252236,0,0,3.4125,-0.105,-0.2625,-0.00427,-0.415288,-0.920124,-0.04522,0.2464,0.34034
-13.8597,0,0,18.8597,18.8597,5,5,21.3226,0.743622,-15.3196,0.0229039,-0.064289,0.0247263,0,0,3.395,0.0525,-0.245,-0.00427,-0.415288,-0.920124,-0.04522,0.2464,0.34034
-13.9066,0,0,18.9066,18.9066,5,5,21.3948,0.760849,-15.4072,0.0194446,-0.0609187,0.018854,0,0,3.6575,0.07,-0.2975,-0.007442,-0.413092,-0.925492,-0.04802,0.24822,0.34524
-13.9525,0,0,18.9525,18.9525,5,5,21.4653,0.778561,-15.4946,0.0198644,-0.0617282,0.0147118,0,0,3.4475,-0.0875,-0.4025,-0.00671,-0.415044,-0.929152,-0.04802,0.24822,0.34524
-13.9976,0,0,18.9976,18.9976,5,5,21.5347,0.795837,-15.5809,0.0195629,-0.0606028,0.0142641,0,0,3.5875,-0.175,-0.28,-0.00671,-0.415044,-0.929152,-0.04802,0.24822,0.34524
-14.0396,0,0,19.0396,19.0396,5,5,21.5994,0.812339,-15.6665,0.018789,-0.0589438,0.00831264,0,0,3.5175,-0.2625,-0.2275,-0.007198,-0.414434,-0.934642,-0.04802,0.24822,0.34524
-14.0808,0,0,19.0808,19.0808,5,5,21.6628,0.829025,-15.7513,0.0184978,-0.0579177,0.00790126,0,0,3.4825,-0.07,-0.3675,-0.007198,-0.414434,-0.934642,-0.04802,0.24822,0.34524
-14.1242,0,0,19.1242,19.1242,5,5,21.7295,0.84571,-15.8346,0.0185711,-0.0562261,0.018532,0,0,3.5175,-0.035,-0.28,-0.006832,-0.413824,-0.923662,-0.04802,0.24822,0.34524
-14.1668,0,0,19.1668,19.1668,5,5,21.7951,0.862139,-15.917,0.0182844,-0.0551651,0.0181038,0,0,3.5875,-0.0875,-0.3325,-0.006832,-0.413824,-0.923662,-0.04802,0.24822,0.34524
-14.2064,0,0,19.2064,19.2064,5,5,21.856,0.877054,-15.998,0.0168092,-0.053814,0.0114348,0,0,3.5,0.07,-0.2975,-0.008052,-0.413458,-0.929884,-0.04802,0.24822,0.34524
-14.2451,0,0,19.2451,19.2451,5,5,21.9155,0.891485,-16.0762,0.0165574,-0.052851,0.0110438,0,0,3.465,-0.2275,-0.385,-0.008052,-0.413458,-0.929884,-0.04396,0.24626,0.35042
-14.2833,0,0,19.2833,19.2833,5,5,21.9743,0.907206,-16.1546,0.0172549,-0.0514126,0.0122547,0,0,3.6225,-0.2975,-0.455,-0.007076,-0.41297,-0.928298,-0.04396,0.24626,0.35042
-14.3207,0,0,19.3207,19.3207,5,5,22.0319,0.923124,-16.2319,0.0169771,-0.0504833,0.0118744,0,0,3.57,-0.0175,-0.4025,-0.007076,-0.41297,-0.928298,-0.04396,0.24626,0.35042
-14.358,0,0,19.358,19.358,5,5,22.0893,0.940545,-16.3095,0.0180095,-0.0493117,0.0148129,0,0,3.5175,-0.175,-0.4025,-0.005734,-0.412726,-0.925004,-0.04396,0.24626,0.35042
-14.3947,0,0,19.3947,19.3947,5,5,22.1457,0.957578,-16.3859,0.0177122,-0.0484024,0.014438,0,0,3.535,-0.175,-0.21,-0.005734,-0.412726,-0.925004,-0.04396,0.24626,0.35042
-14.4281,0,0,19.4281,19.4281,5,5,22.1971,0.970983,-16.4604,0.0151701,-0.0476941,0.00475127,0,0,3.675,-0.28,-0.21,-0.008052,-0.412848,-0.934276,-0.04396,0.24626,0.35042
-14.4607,0,0,19.4607,19.4607,5,5,22.2472,0.983997,-16.5343,0.014943,-0.0468874,0.00441751,0,0,3.43,-0.4375,-0.2625,-0.008052,-0.412848,-0.934276,-0.04396,0.24626,0.35042
-14.4971,0,0,19.4971,19.4971,5,5,22.3033,0.997381,-16.606,0.0154383,-0.0501351,0.00969824,0,0,3.535,-0.07,-0.175,-0.00732,-0.416996,-0.928664,-0.04396,0.24626,0.35042
-14.5328,0,0,19.5328,19.5328,5,5,22.3582,1.01057,-16.679,0.0152081,-0.04925,0.0093303,0,0,3.4825,-0.0525,-0.2275,-0.00732,-0.416996,-0.928664,-0.0483,0.2499,0.3542
-14.5644,0,0,19.5644,19.5644,5,5,22.4067,1.02737,-16.7541,0.0167373,-0.0452938,0.00482284,0,0,3.605,0.0175,-0.21,-0.00549,-0.413824,-0.932812,-0.0483,0.2499,0.3542
-14.5953,0,0,19.5953,19.5953,5,5,22.4544,1.04384,-16.8283,0.0164498,-0.0445274,0.00450087,0,0,3.64,0,-0.1925,-0.00549,-0.413824,-0.932812,-0.0483,0.2499,0.3542
-14.627,0,0,19.627,19.627,5,5,22.5031,1.06087,-16.9021,0.0167601,-0.0432559,0.00908889,0,0,3.78,-0.0175,-0.21,-0.00488,-0.413336,-0.927932,-0.0483,0.2499,0.3542
-14.6581,0,0,19.6581,19.6581,5,5,22.5509,1.07741,-16.9748,0.0164716,-0.0424868,0.00876407,0,0,3.8325,-0.0875,-0.07,-0.00488,-0.413336,-0.927932,-0.0483,0.2499,0.3542
-14.688,0,0,19.688,19.688,5,5,22.5969,1.08732,-17.0436,0.0124109,-0.0440669,0.000584059,0,0,3.78,-0.2275,-0.1225,-0.008784,-0.415654,-0.93574,-0.0483,0.2499,0.3542
-14.717,0,0,19.717,19.717,5,5,22.6416,1.09729,-17.1119,0.012237,-0.0433486,0.000281181,0,0,3.535,-0.175,-0.2275,-0.008784,-0.415654,-0.93574,-0.0483,0.2499,0.3542
-14.7437,0,0,19.7437,19.7437,5,5,22.6827,1.10849,-17.1803,0.0122846,-0.0381701,0.00479662,0,0,3.3775,-0.035,-0.2275,-0.00854,-0.41114,-0.930982,-0.0483,0.2499,0.3542
-14.7702,0,0,19.7702,19.7702,5,5,22.7234,1.11953,-17.2476,0.0120919,-0.0375156,0.00451873,0,0,3.6575,-0.035,-0.21,-0.00854,-0.41114,-0.930982,-0.04718,0.24752,0.34524
-14.7986,0,0,19.7986,19.7986,5,5,22.767,1.13403,-17.3158,0.0146331,-0.0397466,0.00655588,0,0,3.6225,-0.0525,-0.2625,-0.005734,-0.414068,-0.928664,-0.04718,0.24752,0.34524
-14.8264,0,0,19.8264,19.8264,5,5,22.8098,1.14829,-17.3832,0.0143842,-0.0390604,0.00626221,0,0,3.6225,-0.0525,-0.2625,-0.005734,-0.414068,-0.928664,-0.04718,0.24752,0.34524
-14.8564,0,0,19.8564,19.8564,5,5,22.856,1.15851,-17.447,0.0120192,-0.0394174,0.0119703,0,0,3.5875,0,-0.245,-0.00793,-0.415166,-0.922686,-0.04718,0.24752,0.34524
-14.8808,0,0,19.8808,19.8808,5,5,22.8935,1.17376,-17.5141,0.0141828,-0.0340541,0.00679321,0,0,3.5,0.0875,-0.2625,-0.00549,-0.410408,-0.927566,-0.04718,0.24752,0.34524
-14.9047,0,0,19.9047,19.9047,5,5,22.9303,1.18876,-17.5805,0.0139211,-0.033465,0.00653836,0,0,3.5175,0.105,-0.2625,-0.00549,-0.410408,-0.927566,-0.04718,0.24752,0.34524
-14.9323,0,0,19.9323,19.9323,5,5,22.9727,1.20203,-17.6444,0.0134464,-0.0366932,0.0103025,0,0,3.6925,0.0875,-0.21,-0.005734,-0.414312,-0.92354,-0.04718,0.24752,0.34524
-14.9593,0,0,19.9593,19.9593,5,5,23.0143,1.21474,-17.7076,0.0132247,-0.0360278,0.0100151,0,0,3.6575,-0.1225,-0.1575,-0.005734,-0.414312,-0.92354,-0.04718,0.24752,0.34524
-14.9834,0,0,19.9834,19.9834,5,5,23.0513,1.2218,-17.7729,0.00957843,-0.0345788,0.00373517,0,0,3.395,-0.28,-0.1225,-0.009272,-0.413458,-0.929518,-0.04914,0.2506,0.343
-15.0093,0,0,20.0093,20.0093,5,5,23.0912,1.23402,-17.8394,0.0128882,-0.0355273,0.00800705,0,0,3.57,-0.07,-0.0875,-0.005734,-0.415044,-0.925004,-0.04914,0.2506,0.343
-15.0347,0,0,20.0347,20.0347,5,5,23.1304,1.24602,-17.9054,0.012679,-0.0349009,0.00773479,0,0,3.57,-0.1225,-0.14,-0.005734,-0.415044,-0.925004,-0.04914,0.2506,0.343
-15.0584,0,0,20.0584,20.0584,5,5,23.1668,1.25528,-17.9697,0.010695,-0.0338289,0.00330126,0,0,3.745,-0.1575,-0.1925,-0.007564,-0.414556,-0.929152,-0.04914,0.2506,0.343
-15.0819,0,0,20.0819,20.0819,5,5,23.2028,1.26461,-18.0333,0.0105323,-0.0332526,0.00305054,0,0,3.9025,-0.035,-0.175,-0.007564,-0.414556,-0.929152,-0.04914,0.2506,0.343
-15.1034,0,0,20.1034,20.1034,5,5,23.2361,1.27311,-18.0964,0.00965493,-0.0311336,0.00220424,0,0,3.7625,-0.07,-0.3325,-0.008296,-0.41297,-0.929762,-0.04914,0.2506,0.343
-15.1245,0,0,20.1245,20.1245,5,5,23.2685,1.28144,-18.1586,0.00950959,-0.0306152,0.00197797,0,0,3.675,-0.07,-0.2275,-0.008296,-0.41297,-0.929762,-0.04914,0.2506,0.343
-15.1468,0,0,20.1468,20.1468,5,5,23.3028,1.29316,-18.2217,0.0118564,-0.0309219,0.00604025,0,0,3.675,-0.1225,-0.2275,-0.005734,-0.413824,-0.925492,-0.04914,0.2506,0.343
-15.1685,0,0,20.1685,20.1685,5,5,23.3362,1.30464,-18.2912,0.011656,-0.0303893,0.00580571,0,0,3.465,0.0175,-0.1925,-0.005734,-0.413824,-0.925492,-0.04326,0.25144,0.3416
-15.1885,0,0,20.1885,20.1885,5,5,23.367,1.31631,-18.3605,0.0116954,-0.0292865,0.00349804,0,0,3.36,-0.105,-0.1225,-0.00549,-0.413214,-0.927566,-0.04326,0.25144,0.3416
-15.2082,0,0,20.2082,20.2082,5,5,23.3972,1.32757,-18.4292,0.0114989,-0.028805,0.00328492,0,0,3.325,-0.2275,-0.105,-0.00549,-0.413214,-0.927566,-0.04326,0.25144,0.3416
-15.2268,0,0,20.2268,20.2268,5,5,23.4259,1.32988,-18.4926,0.00562722,-0.0284673,-0.00158726,0,0,3.5175,-0.245,-0.14,-0.011346,-0.413336,-0.932202,-0.04326,0.25144,0.3416
-15.2454,0,0,20.2454,20.2454,5,5,23.4544,1.33246,-18.5553,0.00558219,-0.0280118,-0.00178589,0,0,3.6925,-0.1225,-0.175,-0.011346,-0.413336,-0.932202,-0.04326,0.25144,0.3416
-15.2643,0,0,20.2643,20.2643,5,5,23.4836,1.34459,-18.6221,0.0114449,-0.026814,0.00403129,0,0,3.7625,0.07,-0.175,-0.005246,-0.412604,-0.926224,-0.04326,0.25144,0.3416
-15.2828,0,0,20.2828,20.2828,5,5,23.5121,1.3564,-18.6883,0.0112388,-0.0263599,0.0038286,0,0,3.6925,0.0175,-0.1575,-0.005246,-0.412604,-0.926224,-0.04326,0.25144,0.3416
-15.3012,0,0,20.3012,20.3012,5,5,23.5403,1.37052,-18.7548,0.0126933,-0.0279868,-0.000307738,0,0,3.85,0.1575,-0.1225,-0.003538,-0.414678,-0.930128,-0.04326,0.25144,0.3416
-15.3188,0,0,20.3188,20.3188,5,5,23.5674,1.38446,-18.8124,0.01245,-0.0275551,-0.00050232,0,0,3.5875,0.07,-0.1225,-0.003538,-0.414678,-0.930128,-0.04872,0.24878,0.33782
-15.3397,0,0,20.3397,20.3397,5,5,23.5996,1.39505,-18.8666,0.0105644,-0.0276536,0.0091051,0,0,3.5175,0.1225,-0.1575,-0.005246,-0.415288,-0.920368,-0.04872,0.24878,0.33782
-15.3602,0,0,20.3602,20.3602,5,5,23.6311,1.40522,-18.9205,0.010387,-0.0271506,0.00888044,0,0,3.5525,-0.07,-0.2275,-0.005246,-0.415288,-0.920368,-0.04872,0.24878,0.33782
-15.3807,0,0,20.3807,20.3807,5,5,23.6627,1.40958,-18.9708,0.00690932,-0.0278684,0.00583015,0,0,3.6225,-0.1925,-0.175,-0.008662,-0.416508,-0.923174,-0.04872,0.24878,0.33782
-15.4009,0,0,20.4009,20.4009,5,5,23.6938,1.41388,-19.0206,0.00683436,-0.0273726,0.00561071,0,0,3.71,-0.2275,-0.1575,-0.008662,-0.416508,-0.923174,-0.04872,0.24878,0.33782
-15.4183,0,0,20.4183,20.4183,5,5,23.7204,1.42058,-19.0718,0.00793228,-0.02536,0.00160956,0,0,3.6575,-0.2275,-0.1575,-0.007442,-0.414922,-0.926956,-0.04872,0.24878,0.33782
-15.435,0,0,20.435,20.435,5,5,23.7462,1.42747,-19.1224,0.00781206,-0.0249496,0.00142582,0,0,3.4475,-0.07,-0.1925,-0.007442,-0.414922,-0.926956,-0.04872,0.24878,0.33782
-15.4495,0,0,20.4495,20.4495,5,5,23.7685,1.44427,-19.1784,0.0139577,-0.024475,-0.00181104,0,0,3.255,-0.105,-0.14,-0.000976,-0.4148,-0.930006,-0.04872,0.24878,0.33782
-15.4639,0,0,20.4639,20.4639,5,5,23.7906,1.46064,-19.2364,0.013672,-0.024124,-0.00197363,0,0,3.4125,-0.035,-0.0875,-0.000976,-0.4148,-0.930006,-0.04368,0.24878,0.343
-15.4807,0,0,20.4807,20.4807,5,5,23.8165,1.46369,-19.2859,0.00523639,-0.0242007,0.00214641,0,0,3.4825,0.035,-0.1925,-0.009394,-0.415288,-0.925736,-0.04368,0.24878,0.343
-15.4972,0,0,20.4972,20.4972,5,5,23.8418,1.46675,-19.335,0.00518301,-0.0237971,0.00196668,0,0,3.4825,0.035,-0.1925,-0.009394,-0.415288,-0.925736,-0.04368,0.24878,0.343
-15.5139,0,0,20.5139,20.5139,5,5,23.8676,1.47008,-19.384,0.00548924,-0.0224085,0.00608625,0,0,3.5,-0.21,-0.315,-0.009028,-0.414312,-0.921466,-0.04368,0.24878,0.343
-15.5304,0,0,20.5304,20.5304,5,5,23.8929,1.47343,-19.4326,0.00543086,-0.0220052,0.00590605,0,0,3.5,-0.21,-0.315,-0.009028,-0.414312,-0.921466,-0.04368,0.24878,0.343
-15.543,0,0,20.543,20.543,5,5,23.9122,1.47651,-19.4814,0.00476968,-0.0198659,-0.00210039,0,0,3.535,-0.2275,-0.1925,-0.009638,-0.412482,-0.929274,-0.04368,0.24878,0.343
-15.5553,0,0,20.5553,20.5553,5,5,23.9312,1.47958,-19.5297,0.00471609,-0.0195647,-0.00223553,0,0,3.535,-0.2275,-0.1925,-0.009638,-0.412482,-0.929274,-0.04368,0.24878,0.343
-15.5719,0,0,20.5719,20.5719,5,5,23.9568,1.48621,-19.5782,0.00788053,-0.0239203,0.00372774,0,0,3.395,-0.315,-0.175,-0.006344,-0.41724,-0.923174,-0.04368,0.24878,0.343
-15.587,0,0,20.587,20.587,5,5,23.9801,1.49498,-19.6314,0.00894232,-0.0217189,0.003805,0,0,3.465,-0.28,-0.1575,-0.005124,-0.41541,-0.92293,-0.04732,0.252,0.3402
-15.6019,0,0,20.6019,20.6019,5,5,24.0029,1.50366,-19.684,0.00879091,-0.021356,0.00363917,0,0,3.4825,-0.245,-0.1575,-0.005124,-0.41541,-0.92293,-0.04732,0.252,0.3402
-15.6137,0,0,20.6137,20.6137,5,5,24.021,1.51022,-19.7359,0.00685427,-0.0180158,0.000311351,0,0,3.5175,-0.2625,-0.21,-0.006954,-0.41236,-0.926102,-0.04732,0.252,0.3402
-15.6252,0,0,20.6252,20.6252,5,5,24.0388,1.51666,-19.7872,0.00674181,-0.0177343,0.000182593,0,0,3.5175,-0.2625,-0.21,-0.006954,-0.41236,-0.926102,-0.04732,0.252,0.3402
-15.6366,0,0,20.6366,20.6366,5,5,24.0563,1.52314,-19.838,0.00675034,-0.0181883,-0.000928659,0,0,3.465,-0.2275,-0.2275,-0.006832,-0.413092,-0.927078,-0.04732,0.252,0.3402
-15.6478,0,0,20.6478,20.6478,5,5,24.0736,1.5295,-19.8883,0.00663925,-0.017915,-0.00105398,0,0,3.465,-0.2275,-0.2275,-0.006832,-0.413092,-0.927078,-0.04732,0.252,0.3402
-15.6574,0,0,20.6574,20.6574,5,5,24.0883,1.54273,-19.9424,0.0109035,-0.0181712,-0.00473006,0,0,3.36,-0.2625,-0.3325,-0.002318,-0.41358,-0.930616,-0.04732,0.252,0.3402
-15.668,0,0,20.668,20.668,5,5,24.1046,1.55449,-19.9946,0.00984785,-0.017548,-0.00177732,0,0,3.675,-0.105,-0.2625,-0.003172,-0.413214,-0.927566,-0.04732,0.252,0.3402
-15.6783,0,0,20.6783,20.6783,5,5,24.1205,1.56604,-20.0441,0.00964631,-0.0172966,-0.00189584,0,0,3.6575,-0.0875,-0.21,-0.003172,-0.413214,-0.927566,-0.0511,0.25312,0.34258
-15.6873,0,0,20.6873,20.6873,5,5,24.1344,1.56891,-20.089,0.00400791,-0.0170763,-0.00752871,0,0,3.5875,-0.1575,-0.245,-0.008784,-0.413214,-0.933056,-0.0511,0.25312,0.34258
-15.6961,0,0,20.6961,20.6961,5,5,24.1479,1.5716,-20.1336,0.00396112,-0.0168618,-0.00762624,0,0,3.535,-0.2625,-0.245,-0.008784,-0.413214,-0.933056,-0.0511,0.25312,0.34258
-15.7075,0,0,20.7075,20.7075,5,5,24.1654,1.57584,-20.1778,0.00534481,-0.0165834,0.00183666,0,0,3.535,-0.385,-0.245,-0.00732,-0.413214,-0.92354,-0.0511,0.25312,0.34258
-15.7188,0,0,20.7188,20.7188,5,5,24.1828,1.57999,-20.2214,0.00527252,-0.016307,0.00171039,0,0,3.6575,-0.3675,-0.1225,-0.00732,-0.413214,-0.92354,-0.0511,0.25312,0.34258
-15.7305,0,0,20.7305,20.7305,5,5,24.2008,1.58476,-20.2646,0.00567512,-0.0179756,-0.000633406,0,0,3.675,-0.21,-0.14,-0.006832,-0.415166,-0.925736,-0.0511,0.25312,0.34258
-15.7419,0,0,20.7419,20.7419,5,5,24.2182,1.58944,-20.3072,0.00559352,-0.0176993,-0.000760112,0,0,3.5525,-0.2275,-0.1225,-0.006832,-0.415166,-0.925736,-0.0511,0.25312,0.34258
-15.7527,0,0,20.7527,20.7527,5,5,24.2349,1.59523,-20.3502,0.00609994,-0.0163356,0.0010849,0,0,3.5175,-0.2275,-0.245,-0.006222,-0.414068,-0.923784,-0.0511,0.25312,0.34258
-15.7633,0,0,20.7633,20.7633,5,5,24.2512,1.60147,-20.3926,0.00599109,-0.0160775,0.000965381,0,0,3.465,0.105,-0.28,-0.006222,-0.414068,-0.923784,-0.0511,0.25312,0.34258
-15.7743,0,0,20.7743,20.7743,5,5,24.2682,1.60278,-20.434,0.00305254,-0.0159303,0.000966228,0,0,3.605,-0.035,-0.21,-0.00915,-0.41419,-0.923662,-0.04928,0.25452,0.34888
-15.7852,0,0,20.7852,20.7852,5,5,24.285,1.60378,-20.4753,0.00303515,-0.0156634,0.000845335,0,0,3.71,-0.2975,-0.2975,-0.00915,-0.41419,-0.923662,-0.04928,0.25452,0.34888
-15.793,0,0,20.793,20.793,5,5,24.2969,1.60829,-20.5191,0.0047788,-0.013277,-0.00366814,0,0,3.7975,-0.3325,-0.3325,-0.00732,-0.411994,-0.928054,-0.04928,0.25452,0.34888
-15.8005,0,0,20.8005,20.8005,5,5,24.3085,1.61272,-20.5624,0.0047015,-0.0130925,-0.00375385,0,0,3.7975,-0.3325,-0.3325,-0.00732,-0.411994,-0.928054,-0.04928,0.25452,0.34888
-15.8098,0,0,20.8098,20.8098,5,5,24.3228,1.61621,-20.6038,0.00427615,-0.0150649,-0.00189062,0,0,3.535,-0.14,-0.2975,-0.007686,-0.41419,-0.926102,-0.04928,0.25452,0.34888
-15.8189,0,0,20.8189,20.8189,5,5,24.3368,1.61966,-20.6448,0.00421594,-0.0148435,-0.00199261,0,0,3.535,-0.14,-0.2975,-0.007686,-0.41419,-0.926102,-0.04928,0.25452,0.34888
-15.8256,0,0,20.8256,20.8256,5,5,24.3471,1.6313,-20.6905,0.00923675,-0.013094,-0.00317869,0,0,3.395,-0.2625,-0.315,-0.00244,-0.412604,-0.9272,-0.04928,0.25452,0.34888
-15.8322,0,0,20.8322,20.8322,5,5,24.3573,1.64266,-20.7357,0.00903851,-0.0129349,-0.00325693,0,0,3.395,-0.2625,-0.315,-0.00244,-0.412604,-0.9272,-0.04928,0.25452,0.34888
-15.8392,0,0,20.8392,20.8392,5,5,24.368,1.64998,-20.7746,0.00660254,-0.0127658,-0.00272279,0,0,3.43,-0.42,-0.2975,-0.004758,-0.412604,-0.92659,-0.05096,0.25158,0.34034
-15.8465,0,0,20.8465,20.8465,5,5,24.3793,1.65569,-20.812,0.0056526,-0.0152742,-0.0077247,0,0,3.5175,-0.2625,-0.2625,-0.005612,-0.415288,-0.93147,-0.05096,0.25158,0.34034
-15.8536,0,0,20.8536,20.8536,5,5,24.3902,1.66127,-20.849,0.00555528,-0.0151021,-0.00780578,0,0,3.4125,-0.28,-0.28,-0.005612,-0.415288,-0.93147,-0.05096,0.25158,0.34034
-15.8609,0,0,20.8609,20.8609,5,5,24.4014,1.67001,-20.8869,0.00734651,-0.0124838,-0.000882323,0,0,3.43,-0.175,-0.14,-0.00366,-0.412848,-0.924516,-0.05096,0.25158,0.34034
-15.8681,0,0,20.8681,20.8681,5,5,24.4124,1.67874,-20.9246,0.00719419,-0.0123097,-0.000966199,0,0,3.4825,-0.105,-0.245,-0.00366,-0.412848,-0.924516,-0.05096,0.25158,0.34034
-15.8749,0,0,20.8749,20.8749,5,5,24.4229,1.67712,-20.9564,0.000419295,-0.0133647,-0.00731116,0,0,3.5,0.035,-0.28,-0.010492,-0.414068,-0.930738,-0.05096,0.25158,0.34034
-15.8816,0,0,20.8816,20.8816,5,5,24.4332,1.67513,-20.9884,0.000454089,-0.0132009,-0.00738441,0,0,3.535,-0.315,-0.4025,-0.010492,-0.414068,-0.930738,-0.05096,0.25158,0.34034
-15.8889,0,0,20.8889,20.8889,5,5,24.4445,1.68086,-21.0238,0.005578,-0.0143659,-0.00599333,0,0,3.605,-0.2975,-0.385,-0.005246,-0.41541,-0.929274,-0.05096,0.25158,0.34034
-15.896,0,0,20.896,20.896,5,5,24.4554,1.68671,-21.0585,0.00547592,-0.0141931,-0.0060752,0,0,3.5175,-0.0525,-0.1925,-0.005246,-0.41541,-0.929274,-0.04732,0.2506,0.3444
-15.9035,0,0,20.9035,20.9035,5,5,24.467,1.69596,-21.0946,0.00774422,-0.0146225,-0.0054252,0,0,3.6575,-0.0525,-0.175,-0.002806,-0.41602,-0.928542,-0.04732,0.2506,0.3444
-15.9108,0,0,20.9108,20.9108,5,5,24.4782,1.70493,-21.1304,0.00758768,-0.0144464,-0.00551042,0,0,3.5875,-0.1225,-0.2275,-0.002806,-0.41602,-0.928542,-0.04732,0.2506,0.3444
-15.9161,0,0,20.9161,20.9161,5,5,24.4863,1.71056,-21.165,0.00518134,-0.0113876,-0.00544889,0,0,3.395,-0.28,-0.1925,-0.005124,-0.413092,-0.92842,-0.04732,0.2506,0.3444
-15.9214,0,0,20.9214,20.9214,5,5,24.4945,1.71589,-21.1994,0.00508824,-0.0112591,-0.00551047,0,0,3.5,-0.4025,-0.2275,-0.005124,-0.413092,-0.92842,-0.04732,0.2506,0.3444
-15.9248,0,0,20.9248,20.9248,5,5,24.4997,1.71269,-21.2296,-0.000565629,-0.0109307,-0.0130469,0,0,3.4825,-0.49,-0.175,-0.010858,-0.412848,-0.935862,-0.04732,0.2506,0.3444
-15.9283,0,0,20.9283,20.9283,5,5,24.5051,1.7097,-21.2595,-0.000513474,-0.0108453,-0.013084,0,0,3.5875,-0.4025,-0.14,-0.010858,-0.412848,-0.935862,-0.04732,0.2506,0.3444
-15.9342,0,0,20.9342,20.9342,5,5,24.5141,1.71157,-21.2906,0.00285548,-0.0119236,-0.00675698,0,0,3.6925,-0.2975,-0.1575,-0.007442,-0.414068,-0.929518,-0.04732,0.2506,0.3444
-15.9399,0,0,20.9399,20.9399,5,5,24.5229,1.71358,-21.3158,0.00282032,-0.0117838,-0.00682191,0,0,3.6925,-0.2625,-0.245,-0.007442,-0.414068,-0.929518,-0.04816,0.24836,0.3472
-15.9445,0,0,20.9445,20.9445,5,5,24.53,1.7116,-21.3391,6.08158e-05,-0.0115485,-0.0112986,0,0,3.7625,-0.245,-0.245,-0.010248,-0.413946,-0.93391,-0.04816,0.24836,0.3472
-15.949,0,0,20.949,20.949,5,5,24.5369,1.70956,-21.362,9.63695e-05,-0.0114386,-0.0113475,0,0,3.7275,-0.2975,-0.175,-0.010248,-0.413946,-0.93391,-0.04816,0.24836,0.3472
-15.9528,0,0,20.9528,20.9528,5,5,24.5428,1.7107,-21.3867,0.00202015,-0.00963631,-0.00893147,0,0,3.7625,-0.3675,-0.21,-0.008296,-0.412238,-0.93147,-0.04816,0.24836,0.3472
-15.9565,0,0,20.9565,20.9565,5,5,24.5484,1.71192,-21.411,0.00199886,-0.00954751,-0.00897273,0,0,3.6925,-0.2975,-0.175,-0.008296,-0.412238,-0.93147,-0.04816,0.24836,0.3472
-15.9607,0,0,20.9607,20.9607,5,5,24.5549,1.71185,-21.434,0.00127126,-0.0121309,-0.0129543,0,0,3.675,-0.175,-0.1925,-0.009028,-0.414922,-0.935374,-0.04816,0.24836,0.3472
-15.9648,0,0,20.9648,20.9648,5,5,24.5613,1.71177,-21.4568,0.00127258,-0.01203,-0.0130003,0,0,3.6575,-0.1925,-0.1925,-0.009028,-0.414922,-0.935374,-0.04816,0.24836,0.3472
-15.9702,0,0,20.9702,20.9702,5,5,24.5695,1.71624,-21.4813,0.00435324,-0.0120222,-0.0072837,0,0,3.535,-0.1925,-0.2275,-0.005856,-0.415044,-0.92964,-0.04816,0.24836,0.3472
-15.9754,0,0,20.9754,20.9754,5,5,24.5775,1.72067,-21.5101,0.00427603,-0.0118963,-0.00734381,0,0,3.465,-0.105,-0.1575,-0.005856,-0.415044,-0.92964,-0.04648,0.24934,0.34272
-15.9776,0,0,20.9776,20.9776,5,5,24.5809,1.72655,-21.5404,0.00465944,-0.00866903,-0.0100759,0,0,3.535,-0.105,-0.175,-0.005368,-0.411872,-0.932324,-0.04648,0.24934,0.34272
-15.9796,0,0,20.9796,20.9796,5,5,24.584,1.73226,-21.5706,0.00455978,-0.00862081,-0.0101012,0,0,3.43,-0.1575,-0.2625,-0.005368,-0.411872,-0.932324,-0.04648,0.24934,0.34272
-15.9851,0,0,20.9851,20.9851,5,5,24.5925,1.73474,-21.5977,0.00305862,-0.0117834,-0.00610704,0,0,3.3775,-0.175,-0.2975,-0.006832,-0.415166,-0.928298,-0.04648,0.24934,0.34272
-15.9908,0,0,20.9908,20.9908,5,5,24.6013,1.73706,-21.6246,0.00301825,-0.0116453,-0.00617162,0,0,3.5875,-0.2625,-0.2975,-0.006832,-0.415166,-0.928298,-0.04648,0.24934,0.34272
-15.9981,0,0,20.9981,20.9981,5,5,24.6125,1.74027,-21.651,0.00369118,-0.0119565,-0.00182855,0,0,3.6925,-0.175,-0.28,-0.0061,-0.415654,-0.923906,-0.04648,0.24934,0.34272
-16.0051,0,0,21.0051,21.0051,5,5,24.6232,1.7436,-21.6772,0.00363293,-0.0117866,-0.00190834,0,0,3.5525,-0.0875,-0.3325,-0.0061,-0.415654,-0.923906,-0.04648,0.24934,0.34272
-16.0121,0,0,21.0121,21.0121,5,5,24.6341,1.74745,-21.703,0.00380886,-0.0111274,-2.17005e-05,0,0,3.4825,0.0525,-0.2625,-0.005856,-0.415166,-0.921954,-0.04648,0.24934,0.34272
-16.0191,0,0,21.0191,21.0191,5,5,24.6447,1.75101,-21.7283,0.00374665,-0.0109589,-0.000101067,0,0,3.5175,-0.0875,-0.2625,-0.005856,-0.415166,-0.921954,-0.04844,0.25186,0.35196
-16.0225,0,0,21.0225,21.0225,5,5,24.65,1.75346,-21.7536,0.00224618,-0.00855633,-0.00653351,0,0,3.4475,0.1225,-0.315,-0.00732,-0.412848,-0.928298,-0.04844,0.25186,0.35196
-16.0259,0,0,21.0259,21.0259,5,5,24.6552,1.75564,-21.7787,0.00220809,-0.00847322,-0.00657294,0,0,3.535,0,-0.28,-0.00732,-0.412848,-0.928298,-0.04844,0.25186,0.35196
-16.0309,0,0,21.0309,21.0309,5,5,24.6629,1.75636,-21.8026,0.00170956,-0.00945057,-0.00380146,0,0,3.5175,-0.1925,-0.245,-0.007808,-0.413946,-0.925492,-0.04844,0.25186,0.35196
-16.0361,0,0,21.0361,21.0361,5,5,24.6709,1.75715,-21.8259,0.00169574,-0.00932467,-0.00385974,0,0,3.745,-0.105,-0.14,-0.007808,-0.413946,-0.925492,-0.04844,0.25186,0.35196
-16.0387,0,0,21.0387,21.0387,5,5,24.6749,1.75828,-21.8499,0.00143311,-0.00816198,-0.00954523,0,0,3.7275,0,-0.1925,-0.008052,-0.412848,-0.931104,-0.04844,0.25186,0.35196
-16.041,0,0,21.041,21.041,5,5,24.6784,1.75915,-21.8739,0.00141802,-0.0081066,-0.00957119,0,0,3.4825,-0.175,-0.2275,-0.008052,-0.412848,-0.931104,-0.04844,0.25186,0.35196
-16.0444,0,0,21.0444,21.0444,5,5,24.6837,1.75972,-21.8971,0.00140797,-0.00899925,-0.00776607,0,0,3.5,-0.175,-0.245,-0.008052,-0.413824,-0.929274,-0.04844,0.25186,0.35196
-16.0481,0,0,21.0481,21.0481,5,5,24.6894,1.76063,-21.9197,0.00139209,-0.00891006,-0.0078076,0,0,3.7275,0.07,-0.175,-0.008052,-0.413824,-0.929274,-0.04844,0.25186,0.35196
-16.0502,0,0,21.0502,21.0502,5,5,24.6926,1.76095,-21.9396,0.000657705,-0.00788258,-0.0107818,0,0,3.675,0.14,-0.2275,-0.008784,-0.412848,-0.932202,-0.042,0.24612,0.34748
-16.0563,0,0,21.0563,21.0563,5,5,24.7019,1.76399,-21.9597,0.00315574,-0.00810108,0.00304162,0,0,3.57,-0.1225,-0.1925,-0.006222,-0.413214,-0.918416,-0.042,0.24612,0.34748
-16.0623,0,0,21.0623,21.0623,5,5,24.7112,1.767,-21.9794,0.00310337,-0.0079545,0.0029724,0,0,3.6225,-0.105,-0.1575,-0.006222,-0.413214,-0.918416,-0.042,0.24612,0.34748
-16.0661,0,0,21.0661,21.0661,5,5,24.717,1.77217,-22.0008,0.00434946,-0.00920736,-0.00703117,0,0,3.7625,-0.035,-0.1225,-0.00488,-0.414556,-0.928298,-0.042,0.24612,0.34748
-16.0695,0,0,21.0695,21.0695,5,5,24.7222,1.77724,-22.022,0.00426103,-0.0091258,-0.00707173,0,0,3.5,-0.035,-0.14,-0.00488,-0.414556,-0.928298,-0.042,0.24612,0.34748
-16.0733,0,0,21.0733,21.0733,5,5,24.7282,1.77867,-22.0411,0.00180628,-0.00768786,-0.00379651,0,0,3.6225,-0.07,-0.1925,-0.00732,-0.413214,-0.925004,-0.042,0.24612,0.34748
-16.0773,0,0,21.0773,21.0773,5,5,24.7344,1.78005,-22.0603,0.00178232,-0.00759077,-0.00384205,0,0,3.78,-0.14,-0.28,-0.00732,-0.413214,-0.925004,-0.042,0.24612,0.34748
-16.0829,0,0,21.0829,21.0829,5,5,24.7429,1.7828,-22.0789,0.00282771,-0.00916567,-0.00144687,0,0,3.675,0.035,-0.1925,-0.006222,-0.414922,-0.922564,-0.042,0.24612,0.34748
-16.0883,0,0,21.0883,21.0883,5,5,24.7513,1.78532,-22.1006,0.00278376,-0.00903366,-0.00150923,0,0,3.6575,-0.0525,-0.1575,-0.006222,-0.414922,-0.922564,-0.04774,0.2506,0.34552
-16.0914,0,0,21.0914,21.0914,5,5,24.7561,1.78872,-22.1233,0.00296735,-0.00749357,-0.00584885,0,0,3.7275,-0.035,-0.1925,-0.005978,-0.413458,-0.926834,-0.04774,0.2506,0.34552
-16.0945,0,0,21.0945,21.0945,5,5,24.7607,1.79205,-22.1457,0.00290924,-0.0074203,-0.00588464,0,0,3.7275,-0.035,-0.1925,-0.005978,-0.413458,-0.926834,-0.04774,0.2506,0.34552
-16.0934,0,0,21.0934,21.0934,5,5,24.7591,1.79818,-22.1711,0.0040172,-0.00390634,-0.0106705,0,0,3.64,-0.07,-0.385,-0.004758,-0.40992,-0.931592,-0.04774,0.2506,0.34552
-16.0923,0,0,21.0923,21.0923,5,5,24.7575,1.80414,-22.1963,0.00391327,-0.00393318,-0.0106618,0,0,3.64,-0.07,-0.385,-0.004758,-0.40992,-0.931592,-0.04774,0.2506,0.34552
-16.0949,0,0,21.0949,21.0949,5,5,24.7614,1.80784,-22.2186,0.00299828,-0.00741372,-0.00700374,0,0,3.6225,0.035,-0.2975,-0.005612,-0.413458,-0.927932,-0.04774,0.2506,0.34552
-16.0974,0,0,21.0974,21.0974,5,5,24.7652,1.81146,-22.2406,0.00293515,-0.0073536,-0.00703367,0,0,3.6225,0.035,-0.2975,-0.005612,-0.413458,-0.927932,-0.04774,0.2506,0.34552
-16.0982,0,0,21.0982,21.0982,5,5,24.7665,1.81273,-22.2621,0.00121225,-0.00513484,-0.00815043,0,0,3.605,-0.1225,-0.315,-0.00732,-0.411262,-0.92903,-0.04774,0.2506,0.34552
-16.0991,0,0,21.0991,21.0991,5,5,24.7679,1.81385,-22.2796,0.00119261,-0.00511365,-0.00816088,0,0,3.64,-0.1575,-0.2275,-0.00732,-0.411262,-0.92903,-0.04816,0.24822,0.34272
-16.0985,0,0,21.0985,21.0985,5,5,24.7669,1.82364,-22.302,0.00685317,-0.00708488,-0.0146752,0,0,3.57,-0.1225,-0.315,-0.001464,-0.413214,-0.935496,-0.04816,0.24822,0.34272
-16.098,0,0,21.098,21.098,5,5,24.7661,1.83272,-22.3242,0.0066948,-0.00710017,-0.0146737,0,0,3.605,-0.385,-0.2625,-0.001464,-0.413214,-0.935496,-0.04816,0.24822,0.34272
-16.1028,0,0,21.1028,21.1028,5,5,24.7736,1.83911,-22.3428,0.0054899,-0.0100368,-0.00428079,0,0,3.64,-0.245,-0.28,-0.002562,-0.416264,-0.925126,-0.04816,0.24822,0.34272
-16.1076,0,0,21.1076,21.1076,5,5,24.7809,1.84557,-22.3611,0.00537732,-0.00992176,-0.00433788,0,0,3.6575,-0.105,-0.2625,-0.002562,-0.416264,-0.925126,-0.04816,0.24822,0.34272
-16.1081,0,0,21.1081,21.1081,5,5,24.7817,1.85044,-22.3799,0.00359148,-0.00600281,-0.0106163,0,0,3.71,-0.035,-0.175,-0.00427,-0.41236,-0.931348,-0.04816,0.24822,0.34272
-16.1085,0,0,21.1085,21.1085,5,5,24.7823,1.85529,-22.3985,0.00350685,-0.00599391,-0.0106234,0,0,3.64,0,-0.245,-0.00427,-0.41236,-0.931348,-0.04816,0.24822,0.34272
-16.1093,0,0,21.1093,21.1093,5,5,24.7835,1.85651,-22.4151,0.00117745,-0.00634124,-0.0111248,0,0,3.64,-0.035,-0.315,-0.006588,-0.412726,-0.931836,-0.04816,0.24822,0.34272
-16.1101,0,0,21.1101,21.1101,5,5,24.7847,1.8575,-22.426,0.00116012,-0.00632295,-0.0111338,0,0,3.6225,-0.1225,-0.2275,-0.006588,-0.412726,-0.931836,-0.04844,0.24514,0.3423
-16.1124,0,0,21.1124,21.1124,5,5,24.7883,1.86321,-22.4387,0.00446218,-0.00675661,-0.0055071,0,0,3.5875,-0.1575,-0.245,-0.003172,-0.413214,-0.926224,-0.04844,0.24514,0.3423
-16.1145,0,0,21.1145,21.1145,5,5,24.7916,1.86909,-22.451,0.00435962,-0.0067055,-0.00553438,0,0,3.4825,0.0525,-0.2275,-0.003172,-0.413214,-0.926224,-0.04844,0.24514,0.3423
-16.1174,0,0,21.1174,21.1174,5,5,24.7961,1.86433,-22.4578,-0.00223916,-0.00822071,-0.00900743,0,0,3.4475,-0.1225,-0.1925,-0.009882,-0.4148,-0.92964,-0.04844,0.24514,0.3423
-16.1202,0,0,21.1202,21.1202,5,5,24.8003,1.85963,-22.4646,-0.00215707,-0.00815293,-0.0090358,0,0,3.3425,-0.175,-0.175,-0.009882,-0.4148,-0.92964,-0.04844,0.24514,0.3423
-16.1204,0,0,21.1204,21.1204,5,5,24.8006,1.86098,-22.4751,0.0014639,-0.0065604,-0.0123585,0,0,3.3775,-0.1575,-0.1575,-0.006222,-0.413214,-0.932934,-0.04844,0.24514,0.3423
-16.1208,0,0,21.1208,21.1208,5,5,24.8012,1.86235,-22.4857,0.00144004,-0.00655066,-0.0123639,0,0,3.5525,-0.1575,-0.2275,-0.006222,-0.413214,-0.932934,-0.04844,0.24514,0.3423
-16.121,0,0,21.121,21.121,5,5,24.8015,1.8663,-22.4977,0.00319332,-0.00654746,-0.0121219,0,0,3.4825,-0.2275,-0.2625,-0.004392,-0.413214,-0.93269,-0.04844,0.24514,0.3423
-16.1213,0,0,21.1213,21.1213,5,5,24.8019,1.87049,-22.5178,0.00312031,-0.00654148,-0.0121273,0,0,3.57,0.0175,-0.2275,-0.004392,-0.413214,-0.93269,-0.04452,0.24668,0.33586
-16.1242,0,0,21.1242,21.1242,5,5,24.8065,1.87538,-22.5372,0.00412825,-0.00842511,-0.00699909,0,0,3.5175,-0.07,-0.1575,-0.003294,-0.415166,-0.927566,-0.04452,0.24668,0.33586
-16.1271,0,0,21.1271,21.1271,5,5,24.8109,1.88005,-22.5564,0.00404691,-0.00835584,-0.00703404,0,0,3.5175,-0.14,-0.14,-0.003294,-0.415166,-0.927566,-0.04452,0.24668,0.33586
-16.1283,0,0,21.1283,21.1283,5,5,24.8127,1.88448,-22.576,0.00384811,-0.00845085,-0.0135657,0,0,3.675,-0.21,-0.0525,-0.003416,-0.415288,-0.934032,-0.04452,0.24668,0.33586
-16.1297,0,0,21.1297,21.1297,5,5,24.8148,1.88881,-22.5957,0.00377265,-0.00841776,-0.0135837,0,0,3.9025,-0.28,-0.21,-0.003416,-0.415288,-0.934032,-0.04452,0.24668,0.33586
-16.135,0,0,21.135,21.135,5,5,24.823,1.89099,-22.6129,0.0027626,-0.0106092,-0.00565306,0,0,3.7975,-0.2275,-0.4025,-0.004392,-0.417606,-0.926102,-0.04452,0.24668,0.33586
-16.1397,0,0,21.1397,21.1397,5,5,24.8303,1.89322,-22.6296,0.00272385,-0.0104944,-0.00570758,0,0,3.3775,-0.1225,-0.2625,-0.004392,-0.417606,-0.926102,-0.04452,0.24668,0.33586
-16.1449,0,0,21.1449,21.1449,5,5,24.8383,1.88718,-22.6419,-0.00263776,-0.00780136,-0.00109113,0,0,3.5,-0.3325,-0.1575,-0.009882,-0.415044,-0.921466,-0.04452,0.24668,0.33586
-16.1502,0,0,21.1502,21.1502,5,5,24.8464,1.88151,-22.6476,-0.00253881,-0.0076722,-0.00114734,0,0,3.64,-0.28,-0.245,-0.009882,-0.415044,-0.921466,-0.04704,0.24584,0.34468
-16.1516,0,0,21.1516,21.1516,5,5,24.8486,1.88774,-22.6602,0.00464163,-0.00763823,-0.0102652,0,0,3.64,0.0175,-0.28,-0.002562,-0.415044,-0.930494,-0.04704,0.24584,0.34468
-16.1528,0,0,21.1528,21.1528,5,5,24.8505,1.89386,-22.673,0.00453488,-0.00761021,-0.0102821,0,0,3.4475,-0.035,-0.455,-0.002562,-0.415044,-0.930494,-0.04704,0.24584,0.34468
-16.152,0,0,21.152,21.152,5,5,24.8492,1.89723,-22.685,0.00228932,-0.00323505,-0.00744648,0,0,3.2025,-0.0875,-0.3675,-0.004758,-0.410652,-0.927688,-0.04704,0.24584,0.34468
-16.1515,0,0,21.1515,21.1515,5,5,24.8484,1.90047,-22.6967,0.00223276,-0.00324835,-0.00744238,0,0,3.465,-0.07,-0.28,-0.004758,-0.410652,-0.927688,-0.04704,0.24584,0.34468
-16.1513,0,0,21.1513,21.1513,5,5,24.8482,1.90185,-22.7073,0.00123684,-0.00545092,-0.0110068,0,0,3.325,-0.105,-0.3325,-0.005734,-0.412848,-0.931226,-0.04704,0.24584,0.34468
-16.1516,0,0,21.1516,21.1516,5,5,24.8486,1.90325,-22.7177,0.00121244,-0.00544462,-0.0110106,0,0,3.6925,-0.035,-0.2625,-0.005734,-0.412848,-0.931226,-0.04704,0.24584,0.34468
-16.1522,0,0,21.1522,21.1522,5,5,24.8495,1.90513,-22.728,0.00142264,-0.00494148,-0.00929729,0,0,3.85,0.0525,-0.245,-0.00549,-0.41236,-0.929518,-0.04704,0.24584,0.34468
-16.1523,0,0,21.1523,21.1523,5,5,24.8498,1.90658,-22.7381,0.00139741,-0.00493828,-0.0092997,0,0,3.4475,-0.14,-0.1225,-0.00549,-0.41236,-0.929518,-0.04704,0.24584,0.34468
-16.1572,0,0,21.1572,21.1572,5,5,24.8573,1.9013,-22.7441,-0.00227666,-0.00823738,-0.00258996,0,0,3.43,-0.1575,-0.035,-0.009272,-0.415776,-0.922808,-0.04746,0.24766,0.34986
-16.1586,0,0,21.1586,21.1586,5,5,24.8594,1.89846,-22.7525,-0.00125523,-0.00588335,-0.00924294,0,0,3.6225,-0.14,-0.07,-0.008296,-0.413458,-0.929396,-0.04746,0.24766,0.34986
-16.1595,0,0,21.1595,21.1595,5,5,24.8608,1.90042,-22.7633,0.00162624,-0.00512913,-0.00802464,0,0,3.675,0,-0.175,-0.005368,-0.412726,-0.928176,-0.04746,0.24766,0.34986
-16.1614,0,0,21.1614,21.1614,5,5,24.8636,1.90035,-22.7728,0.000412694,-0.00569408,-0.00632449,0,0,3.605,-0.0175,-0.2275,-0.006588,-0.413336,-0.926468,-0.04746,0.24766,0.34986
-16.1629,0,0,21.1629,21.1629,5,5,24.8661,1.89863,-22.7817,-0.000529309,-0.0045564,-0.00511177,0,0,3.57,-0.2625,-0.2275,-0.007564,-0.412238,-0.925248,-0.04746,0.24766,0.34986
-16.1659,0,0,21.1659,21.1659,5,5,24.8706,1.90035,-22.7918,0.00223497,-0.00863784,-0.00809648,0,0,3.5,-0.2975,-0.245,-0.004758,-0.416386,-0.928176,-0.04746,0.24766,0.34986
-16.1676,0,0,21.1676,21.1676,5,5,24.8733,1.90478,-22.8031,0.00349391,-0.00566519,-0.00479899,0,0,3.465,-0.0525,-0.1225,-0.003416,-0.413458,-0.924882,-0.04746,0.24766,0.34986
-16.1705,0,0,21.1705,21.1705,5,5,24.8778,1.90374,-22.8111,-1.09013e-05,-0.00657062,-0.00532331,0,0,3.6925,-0.035,-0.14,-0.006954,-0.414434,-0.92537,-0.04746,0.24766,0.34986
-16.1718,0,0,21.1718,21.1718,5,5,24.8797,1.9057,-22.8239,0.00165559,-0.00434243,-0.00521549,0,0,3.6925,-0.0525,-0.175,-0.005246,-0.412238,-0.925248,-0.04928,0.24892,0.343
-16.1738,0,0,21.1738,21.1738,5,5,24.8827,1.90653,-22.8357,0.00127671,-0.00759216,-0.00991017,0,0,3.64,-0.105,-0.21,-0.005612,-0.415532,-0.929884,-0.04928,0.24892,0.343
-16.1755,0,0,21.1755,21.1755,5,5,24.8855,1.90758,-22.8477,0.00125835,-0.00754897,-0.00993088,0,0,3.5175,-0.0175,-0.35,-0.005612,-0.415532,-0.929884,-0.04928,0.24892,0.343
-16.1792,0,0,21.1792,21.1792,5,5,24.891,1.90964,-22.8593,0.00219438,-0.00917087,-0.00689926,0,0,3.4825,0,-0.4025,-0.004636,-0.41724,-0.926834,-0.04928,0.24892,0.343
-16.1829,0,0,21.1829,21.1829,5,5,24.8968,1.91165,-22.8708,0.00215932,-0.00908016,-0.00694264,0,0,3.64,0,-0.385,-0.004636,-0.41724,-0.926834,-0.04928,0.24892,0.343
-16.1828,0,0,21.1828,21.1828,5,5,24.8966,1.9104,-22.8819,-0.000613043,-0.00517461,-0.0119816,0,0,3.57,-0.035,-0.2975,-0.007442,-0.413336,-0.931836,-0.04928,0.24892,0.343
-16.1827,0,0,21.1827,21.1827,5,5,24.8964,1.90945,-22.8926,-0.000596562,-0.00517809,-0.0119793,0,0,3.535,0.1575,-0.2625,-0.007442,-0.413336,-0.931836,-0.04928,0.24892,0.343
-16.1822,0,0,21.1822,21.1822,5,5,24.8956,1.91277,-22.9057,0.00238274,-0.00506902,-0.0111148,0,0,3.4125,0.0175,-0.2275,-0.004392,-0.413214,-0.930982,-0.04928,0.24892,0.343
-16.1818,0,0,21.1818,21.1818,5,5,24.8951,1.91589,-22.9155,0.00232837,-0.0050777,-0.0111127,0,0,3.5525,-0.0875,-0.315,-0.004392,-0.413214,-0.930982,-0.04676,0.24668,0.34902
-16.1855,0,0,21.1855,21.1855,5,5,24.9008,1.91545,-22.9222,0.000513758,-0.00718613,-0.00377725,0,0,3.6575,-0.14,-0.3675,-0.006222,-0.41541,-0.923662,-0.04676,0.24668,0.34902
-16.1887,0,0,21.1887,21.1887,5,5,24.9058,1.91495,-22.9285,0.000522419,-0.00710734,-0.00381351,0,0,3.325,-0.14,-0.245,-0.006222,-0.41541,-0.923662,-0.04676,0.24668,0.34902
-16.1924,0,0,21.1924,21.1924,5,5,24.9114,1.91428,-22.9346,0.000534123,-0.00933768,-0.00778926,0,0,3.5,-0.0875,-0.28,-0.006222,-0.417728,-0.927566,-0.04676,0.24668,0.34902
-16.1962,0,0,21.1962,21.1962,5,5,24.9172,1.91367,-22.9407,0.000544726,-0.00924698,-0.007831,0,0,3.5875,-0.0875,-0.315,-0.006222,-0.417728,-0.927566,-0.04676,0.24668,0.34902
-16.1976,0,0,21.1976,21.1976,5,5,24.9193,1.9164,-22.949,0.00219802,-0.00603832,-0.00760235,0,0,3.5525,0.0175,-0.2975,-0.004514,-0.414556,-0.927322,-0.04676,0.24668,0.34902
-16.1991,0,0,21.1991,21.1991,5,5,24.9217,1.91904,-22.9571,0.00215181,-0.00600195,-0.00762096,0,0,3.675,0.035,-0.245,-0.004514,-0.414556,-0.927322,-0.04676,0.24668,0.34902
-16.1975,0,0,21.1975,21.1975,5,5,24.9193,1.91911,-22.9649,-3.61101e-05,-0.00420799,-0.0147344,0,0,3.6575,0.105,-0.1575,-0.00671,-0.412726,-0.934398,-0.04676,0.24668,0.34902
-16.1958,0,0,21.1958,21.1958,5,5,24.9167,1.91901,-22.974,-3.43732e-05,-0.00424911,-0.0147152,0,0,3.5175,0.0175,-0.1225,-0.00671,-0.412726,-0.934398,-0.04676,0.2464,0.34244
-16.194,0,0,21.194,21.194,5,5,24.9138,1.91602,-22.9819,-0.00180444,-0.00392716,-0.0145697,0,0,3.325,-0.1575,-0.105,-0.00854,-0.41236,-0.934276,-0.04676,0.2464,0.34244
-16.1925,0,0,21.1925,21.1925,5,5,24.9115,1.91334,-22.9897,-0.00175779,-0.0039636,-0.0145511,0,0,3.5875,-0.0525,-0.2275,-0.00854,-0.41236,-0.934276,-0.04676,0.2464,0.34244
-16.1927,0,0,21.1927,21.1927,5,5,24.9119,1.90972,-22.9962,-0.0021805,-0.00566582,-0.0119703,0,0,3.4475,0.0175,-0.2975,-0.009028,-0.414068,-0.931714,-0.04676,0.2464,0.34244
-16.1928,0,0,21.1928,21.1928,5,5,24.9119,1.90594,-23.0027,-0.0021145,-0.00566399,-0.0119687,0,0,3.255,-0.1225,-0.245,-0.009028,-0.414068,-0.931714,-0.04676,0.2464,0.34244
-16.1954,0,0,21.1954,21.1954,5,5,24.916,1.89929,-23.0068,-0.0035778,-0.00620808,-0.00584798,0,0,3.43,-0.245,-0.175,-0.010614,-0.414678,-0.925614,-0.04676,0.2464,0.34244
-16.1984,0,0,21.1984,21.1984,5,5,24.9206,1.89294,-23.0109,-0.0034672,-0.00613436,-0.0058782,0,0,3.745,-0.175,-0.1925,-0.010614,-0.414678,-0.925614,-0.04676,0.2464,0.34244
-16.1983,0,0,21.1983,21.1983,5,5,24.9205,1.88617,-23.0155,-0.00432098,-0.00369172,-0.0107919,0,0,3.7275,-0.105,-0.175,-0.01159,-0.412238,-0.930494,-0.04676,0.2464,0.34244
-16.1982,0,0,21.1982,21.1982,5,5,24.9203,1.87971,-23.013,-0.00420827,-0.00369276,-0.0107873,0,0,3.6925,0.035,-0.0875,-0.01159,-0.412238,-0.930494,-0.04858,0.24304,0.34048
-16.2011,0,0,21.2011,21.2011,5,5,24.9248,1.87432,-23.01,-0.00302082,-0.006674,-0.00663709,0,0,3.64,0,-0.2625,-0.010492,-0.415288,-0.926346,-0.04858,0.24304,0.34048
-16.2041,0,0,21.2041,21.2041,5,5,24.9294,1.86884,-23.0071,-0.00292527,-0.0066003,-0.0066679,0,0,3.7625,-0.14,-0.2275,-0.010492,-0.415288,-0.926346,-0.04858,0.24304,0.34048
-16.2039,0,0,21.2039,21.2039,5,5,24.929,1.87247,-23.01,0.00272132,-0.00477487,-0.0109704,0,0,3.815,-0.14,-0.2275,-0.004758,-0.413458,-0.930616,-0.04858,0.24304,0.34048
-16.2033,0,0,21.2033,21.2033,5,5,24.9281,1.87586,-23.0131,0.00266218,-0.00478996,-0.0109655,0,0,3.5,-0.2625,-0.2975,-0.004758,-0.413458,-0.930616,-0.04858,0.24304,0.34048
-16.2047,0,0,21.2047,21.2047,5,5,24.9303,1.87132,-23.0115,-0.00248257,-0.00524311,-0.00802831,0,0,3.605,-0.245,-0.35,-0.010004,-0.413946,-0.927688,-0.04858,0.24304,0.34048
-16.2061,0,0,21.2061,21.2061,5,5,24.9325,1.86686,-23.0098,-0.00240472,-0.00520767,-0.00804198,0,0,3.64,-0.2625,-0.315,-0.010004,-0.413946,-0.927688,-0.04858,0.24304,0.34048
-16.2069,0,0,21.2069,21.2069,5,5,24.9337,1.86403,-23.009,-0.00150506,-0.00372269,-0.00632798,0,0,3.5875,-0.1925,-0.2275,-0.00915,-0.412482,-0.92598,-0.04858,0.24304,0.34048
-16.2076,0,0,21.2076,21.2076,5,5,24.9347,1.86144,-23.0126,-0.00145986,-0.00370557,-0.00633432,0,0,3.5175,-0.0175,-0.07,-0.00915,-0.412482,-0.92598,-0.04872,0.24612,0.34146
-16.2083,0,0,21.2083,21.2083,5,5,24.9359,1.86084,-23.0177,0.000129903,-0.00515178,-0.00867894,0,0,3.5875,-0.21,-0.1925,-0.007564,-0.413946,-0.928298,-0.04872,0.24612,0.34146
-16.2091,0,0,21.2091,21.2091,5,5,24.9371,1.86026,-23.0226,0.000140005,-0.00513287,-0.00868737,0,0,3.5875,-0.21,-0.1925,-0.007564,-0.413946,-0.928298,-0.04872,0.24612,0.34146
-16.2112,0,0,21.2112,21.2112,5,5,24.9402,1.86096,-23.0274,0.000856766,-0.00532761,-0.00489943,0,0,3.6575,0.0175,-0.245,-0.006832,-0.41419,-0.924516,-0.04872,0.24612,0.34146
-16.2132,0,0,21.2132,21.2132,5,5,24.9433,1.86165,-23.0322,0.000844736,-0.00527902,-0.00492246,0,0,3.6575,0.0175,-0.245,-0.006832,-0.41419,-0.924516,-0.04872,0.24612,0.34146
-16.2149,0,0,21.2149,21.2149,5,5,24.946,1.86478,-23.0382,0.0024909,-0.00596973,-0.00629641,0,0,3.605,0.035,-0.2625,-0.005124,-0.414922,-0.925858,-0.04872,0.24612,0.34146
-16.2166,0,0,21.2166,21.2166,5,5,24.9487,1.86784,-23.0442,0.00243751,-0.00592832,-0.00631759,0,0,3.605,0.035,-0.2625,-0.005124,-0.414922,-0.925858,-0.04872,0.24612,0.34146
-16.2148,0,0,21.2148,21.2148,5,5,24.9458,1.86914,-23.051,0.00107863,-0.00377629,-0.0140426,0,0,3.57,-0.2625,-0.2275,-0.006466,-0.412726,-0.933544,-0.04872,0.24612,0.34146
-16.2139,0,0,21.2139,21.2139,5,5,24.9445,1.86379,-23.0538,-0.0034445,-0.00184203,-0.00812857,0,0,3.5,-0.21,-0.1575,-0.011102,-0.410774,-0.927688,-0.04872,0.24612,0.34146
-16.213,0,0,21.213,21.213,5,5,24.943,1.85868,-23.0554,-0.00335545,-0.00186319,-0.00811553,0,0,3.4475,-0.14,-0.1575,-0.011102,-0.410774,-0.927688,-0.0476,0.24416,0.33726
-16.212,0,0,21.212,21.212,5,5,24.9416,1.864,-23.0625,0.00371936,-0.00249811,-0.00675513,0,0,3.5175,-0.1925,-0.1925,-0.003904,-0.411384,-0.926346,-0.0476,0.24416,0.33726
-16.2107,0,0,21.2107,21.2107,5,5,24.9396,1.86895,-23.0696,0.00363309,-0.00253057,-0.00674313,0,0,3.2025,-0.3675,-0.245,-0.003904,-0.411384,-0.926346,-0.0476,0.24416,0.33726
-16.2122,0,0,21.2122,21.2122,5,5,24.9419,1.86827,-23.0729,0.000121841,-0.00396039,-0.00270201,0,0,3.29,-0.28,-0.2625,-0.007442,-0.412848,-0.92232,-0.0476,0.24416,0.33726
-16.2139,0,0,21.2139,21.2139,5,5,24.9445,1.86734,-23.0759,0.000138053,-0.00391835,-0.00272098,0,0,3.535,-0.385,-0.105,-0.007442,-0.412848,-0.92232,-0.0476,0.24416,0.33726
-16.2169,0,0,21.2169,21.2169,5,5,24.9491,1.86986,-23.0799,0.00252383,-0.0053117,-0.000543063,0,0,3.535,-0.245,-0.105,-0.005002,-0.414312,-0.920124,-0.0476,0.24416,0.33726
-16.2198,0,0,21.2198,21.2198,5,5,24.9536,1.87272,-23.0838,0.00247396,-0.00524133,-0.000577598,0,0,3.5175,-0.0175,-0.1575,-0.005002,-0.414312,-0.920124,-0.0476,0.24416,0.33726
-16.2207,0,0,21.2207,21.2207,5,5,24.9549,1.87644,-23.0889,0.0030164,-0.00693094,-0.0100564,0,0,3.3425,-0.035,-0.2275,-0.004392,-0.41602,-0.929518,-0.0476,0.24416,0.33726
-16.2217,0,0,21.2217,21.2217,5,5,24.9565,1.88007,-23.0924,0.00295309,-0.00690668,-0.0100699,0,0,3.5,-0.105,-0.3675,-0.004392,-0.41602,-0.929518,-0.04802,0.24444,0.3437
-16.2233,0,0,21.2233,21.2233,5,5,24.9589,1.88012,-23.0938,0.000401157,-0.00515887,-0.00639922,0,0,3.6925,-0.035,-0.2625,-0.006954,-0.414312,-0.925858,-0.04802,0.24444,0.3437
-16.2249,0,0,21.2249,21.2249,5,5,24.9614,1.88017,-23.0951,0.000400269,-0.00511906,-0.00641778,0,0,3.78,-0.0175,-0.2275,-0.006954,-0.414312,-0.925858,-0.04802,0.24444,0.3437
-16.2283,0,0,21.2283,21.2283,5,5,24.9666,1.87854,-23.0947,-0.000421699,-0.00747948,-0.00608613,0,0,3.745,0.035,-0.1925,-0.007808,-0.416752,-0.925492,-0.04802,0.24444,0.3437
-16.2318,0,0,21.2318,21.2318,5,5,24.972,1.87664,-23.0945,-0.00038865,-0.00739413,-0.00612468,0,0,3.92,-0.175,-0.1925,-0.007808,-0.416752,-0.925492,-0.04802,0.24444,0.3437
-16.2333,0,0,21.2333,21.2333,5,5,24.9743,1.87787,-23.0964,0.00116922,-0.00528114,-0.0071262,0,0,3.8675,-0.0175,-0.2625,-0.006222,-0.414678,-0.926468,-0.04802,0.24444,0.3437
-16.2346,0,0,21.2346,21.2346,5,5,24.9763,1.87896,-23.0981,0.00115024,-0.00524932,-0.00714171,0,0,3.71,-0.0525,-0.175,-0.006222,-0.414678,-0.926468,-0.04802,0.24444,0.3437
-16.2339,0,0,21.2339,21.2339,5,5,24.9752,1.87946,-23.1005,0.000412543,-0.00306919,-0.0089778,0,0,3.57,-0.105,-0.28,-0.006954,-0.412482,-0.928298,-0.04802,0.24444,0.3437
-16.2332,0,0,21.2332,21.2332,5,5,24.9742,1.8802,-23.1091,0.00039962,-0.00308591,-0.00897048,0,0,3.605,0.105,-0.175,-0.006954,-0.412482,-0.928298,-0.04634,0.24696,0.34118
-16.233,0,0,21.233,21.233,5,5,24.9739,1.88276,-23.1185,0.00193443,-0.00541138,-0.0117975,0,0,3.6225,0.035,-0.175,-0.005368,-0.4148,-0.931104,-0.04634,0.24696,0.34118
-16.2328,0,0,21.2328,21.2328,5,5,24.9736,1.88536,-23.1277,0.00188895,-0.00541669,-0.0117967,0,0,3.605,0.1225,-0.1575,-0.005368,-0.4148,-0.931104,-0.04634,0.24696,0.34118
-16.2345,0,0,21.2345,21.2345,5,5,24.9761,1.88406,-23.1344,-0.000396533,-0.0056208,-0.00689666,0,0,3.535,-0.035,-0.175,-0.007686,-0.415044,-0.926224,-0.04634,0.24696,0.34118
-16.2361,0,0,21.2361,21.2361,5,5,24.9786,1.8828,-23.141,-0.000374529,-0.00558152,-0.00691416,0,0,3.535,-0.035,-0.175,-0.007686,-0.415044,-0.926224,-0.04634,0.24696,0.34118
-16.2374,0,0,21.2374,21.2374,5,5,24.9806,1.88783,-23.1445,-0.00119118,-0.00323043,-0.00410382,0,0,3.745,4.41,-0.2975,-0.008418,-0.412726,-0.923418,-0.04634,0.24696,0.34118
-16.2387,0,0,21.2387,21.2387,5,5,24.9826,1.89273,-23.1479,-0.00127679,-0.00320007,-0.00412108,0,0,3.745,4.41,-0.2975,-0.008418,-0.412726,-0.923418,-0.04634,0.24696,0.34118
-16.2416,0,0,21.2416,21.2416,5,5,24.9871,1.89582,-23.1568,0.00292143,-0.00593909,-0.00255728,0,0,3.6925,-0.315,-0.3325,-0.004148,-0.415532,-0.921832,-0.04634,0.24696,0.34118
-16.2444,0,0,21.2444,21.2444,5,5,24.9914,1.89884,-23.1649,0.00286864,-0.00587044,-0.00259121,0,0,3.6925,-0.315,-0.3325,-0.004148,-0.415532,-0.921832,-0.04872,0.24682,0.33572
-16.2451,0,0,21.2451,21.2451,5,5,24.9924,1.902,-23.1734,0.00257059,-0.00463433,-0.00727219,0,0,3.675,-0.1575,-0.1575,-0.004392,-0.414312,-0.926468,-0.04872,0.24682,0.33572
-16.2457,0,0,21.2457,21.2457,5,5,24.9934,1.90508,-23.1817,0.00251687,-0.00461959,-0.00728103,0,0,3.675,-0.1575,-0.1575,-0.004392,-0.414312,-0.926468,-0.04872,0.24682,0.33572
-16.2459,0,0,21.2459,21.2459,5,5,24.9937,1.90628,-23.189,0.000916593,-0.00339411,-0.00654607,0,0,3.605,0.035,-0.14,-0.005978,-0.413092,-0.925736,-0.04872,0.24682,0.33572
-16.2467,0,0,21.2467,21.2467,5,5,24.9949,1.90682,-23.1959,0.000542792,-0.00471907,-0.00827629,0,0,3.7625,0.0175,-0.315,-0.006344,-0.414434,-0.927444,-0.04872,0.24682,0.33572
-16.2476,0,0,21.2476,21.2476,5,5,24.9962,1.90764,-23.2028,0.000528512,-0.00469761,-0.00828682,0,0,3.885,0.1575,-0.42,-0.006344,-0.414434,-0.927444,-0.04872,0.24682,0.33572
-16.2472,0,0,21.2472,21.2472,5,5,24.9957,1.90839,-23.2105,0.000636783,-0.00446146,-0.0109884,0,0,3.6925,-0.1225,-0.49,-0.006222,-0.41419,-0.930128,-0.04872,0.24682,0.33572
-16.2468,0,0,21.2468,21.2468,5,5,24.9951,1.90902,-23.2178,0.0006259,-0.00447213,-0.0109838,0,0,3.5875,-0.105,-0.2975,-0.006222,-0.41419,-0.930128,-0.04872,0.24682,0.33572
-16.2459,0,0,21.2459,21.2459,5,5,24.9937,1.90892,-23.2294,2.01615e-05,-0.00425028,-0.011711,0,0,3.4125,-0.035,-0.28,-0.006832,-0.413946,-0.93086,-0.0434,0.24626,0.33348
-16.2479,0,0,21.2479,21.2479,5,5,24.9967,1.91113,-23.2411,0.00216829,-0.00615593,-0.00534166,0,0,3.4475,-0.14,-0.245,-0.004636,-0.415898,-0.924516,-0.0434,0.24626,0.33348
-16.2502,0,0,21.2502,21.2502,5,5,25.0004,1.91336,-23.2526,0.0021295,-0.00609897,-0.00536964,0,0,3.78,-0.0875,-0.21,-0.004636,-0.415898,-0.924516,-0.0434,0.24626,0.33348
-16.2502,0,0,21.2502,21.2502,5,5,25.0003,1.91361,-23.2638,0.000302763,-0.00243635,-0.00610695,0,0,3.7625,-0.0875,-0.1225,-0.006466,-0.412238,-0.925248,-0.0434,0.24626,0.33348
-16.2498,0,0,21.2498,21.2498,5,5,24.9996,1.91356,-23.2751,0.000303684,-0.00244693,-0.00610198,0,0,3.43,-0.315,-0.1925,-0.006466,-0.412238,-0.925248,-0.0434,0.24626,0.33348
-16.2477,0,0,21.2477,21.2477,5,5,24.9964,1.9151,-23.2875,0.000884204,-0.00200949,-0.0108742,0,0,3.5525,-0.0525,-0.21,-0.005856,-0.41175,-0.930006,-0.0434,0.24626,0.33348
-16.2456,0,0,21.2456,21.2456,5,5,24.9933,1.91635,-23.2998,0.000862406,-0.00205946,-0.0108517,0,0,3.5525,-0.1925,-0.175,-0.005856,-0.41175,-0.930006,-0.0434,0.24626,0.33348
-16.2472,0,0,21.2472,21.2472,5,5,24.9958,1.91107,-23.3073,-0.0029329,-0.00519465,-0.0071785,0,0,3.535,-0.2275,-0.1575,-0.00976,-0.414922,-0.926346,-0.0434,0.24626,0.33348
-16.2487,0,0,21.2487,21.2487,5,5,24.9979,1.90602,-23.3158,-0.00284492,-0.00515902,-0.00719188,0,0,3.4125,-0.1575,-0.1575,-0.00976,-0.414922,-0.926346,-0.04578,0.25018,0.34426
-16.2482,0,0,21.2482,21.2482,5,5,24.9972,1.90894,-23.3288,0.00196356,-0.00211877,-0.00509761,0,0,3.4825,-0.0175,-0.1925,-0.00488,-0.411872,-0.924272,-0.04578,0.25018,0.34426
-16.2479,0,0,21.2479,21.2479,5,5,24.9968,1.91196,-23.3415,0.00191088,-0.00212485,-0.00509671,0,0,3.71,0.105,-0.175,-0.00488,-0.411872,-0.924272,-0.04578,0.25018,0.34426
-16.2457,0,0,21.2457,21.2457,5,5,24.9934,1.91056,-23.3527,-0.00134469,-0.00107999,-0.0108491,0,0,3.675,0.0525,-0.1925,-0.008174,-0.410774,-0.930006,-0.04578,0.25018,0.34426
-16.2434,0,0,21.2434,21.2434,5,5,24.9898,1.9089,-23.3641,-0.00131578,-0.00113632,-0.0108218,0,0,3.57,-0.1575,-0.2625,-0.008174,-0.410774,-0.930006,-0.04578,0.25018,0.34426
-16.2417,0,0,21.2417,21.2417,5,5,24.9872,1.91586,-23.3793,0.00488007,-0.00264387,-0.00847062,0,0,3.395,-0.1925,-0.14,-0.00183,-0.412238,-0.927688,-0.04578,0.25018,0.34426
-16.24,0,0,21.24,21.24,5,5,24.9846,1.92266,-23.3944,0.00476149,-0.00268722,-0.00845481,0,0,3.3075,-0.1925,-0.175,-0.00183,-0.412238,-0.927688,-0.04578,0.25018,0.34426
-16.2374,0,0,21.2374,21.2374,5,5,24.9807,1.91998,-23.4052,-0.00175201,-0.00287076,-0.0153096,0,0,3.5,-0.245,-0.1575,-0.008418,-0.41236,-0.93452,-0.04578,0.25018,0.34426
-16.2352,0,0,21.2352,21.2352,5,5,24.9772,1.91749,-23.4139,-0.00170869,-0.00292424,-0.0152831,0,0,3.745,-0.175,-0.21,-0.008418,-0.41236,-0.93452,-0.04326,0.2471,0.34146
-16.2345,0,0,21.2345,21.2345,5,5,24.9762,1.91629,-23.4226,-0.000715816,-0.00269615,-0.00900438,0,0,3.71,-0.175,-0.28,-0.007442,-0.412116,-0.928298,-0.04326,0.2471,0.34146
-16.2337,0,0,21.2337,21.2337,5,5,24.9749,1.91514,-23.4312,-0.000695802,-0.00271647,-0.00899418,0,0,3.5525,-0.14,-0.245,-0.007442,-0.412116,-0.928298,-0.04326,0.2471,0.34146
-16.2322,0,0,21.2322,21.2322,5,5,24.9726,1.91816,-23.4419,0.00204571,-0.00263068,-0.0089792,0,0,3.3775,-0.0875,-0.2625,-0.004636,-0.411994,-0.928298,-0.04326,0.2471,0.34146
-16.2308,0,0,21.2308,21.2308,5,5,24.9705,1.92145,-23.452,0.00198828,-0.00266503,-0.00896533,0,0,3.4125,0.21,-0.1225,-0.004636,-0.411994,-0.928298,-0.04326,0.2471,0.34146
-16.2312,0,0,21.2312,21.2312,5,5,24.9711,1.92409,-23.461,0.00157789,-0.00399957,-0.00663513,0,0,3.535,0.385,-0.1925,-0.005002,-0.413336,-0.92598,-0.04326,0.2471,0.34146
-16.2318,0,0,21.2318,21.2318,5,5,24.9719,1.9264,-23.4699,0.00153751,-0.0039872,-0.00664239,0,0,3.6575,0.2625,-0.105,-0.005002,-0.413336,-0.92598,-0.04326,0.2471,0.34146
-16.232,0,0,21.232,21.232,5,5,24.9723,1.92567,-23.4774,-0.000393415,-0.00422607,-0.0083657,0,0,3.4825,0.105,-0.14,-0.006954,-0.41358,-0.927688,-0.04326,0.2471,0.34146
-16.2322,0,0,21.2322,21.2322,5,5,24.9726,1.92466,-23.4782,-0.000375909,-0.00422134,-0.00836725,0,0,3.465,-0.0875,-0.1575,-0.006954,-0.41358,-0.927688,-0.04634,0.24458,0.34062
-16.232,0,0,21.232,21.232,5,5,24.9723,1.92433,-23.4793,-0.000127192,-0.00398084,-0.00922593,0,0,3.5525,0.035,-0.1925,-0.00671,-0.413336,-0.928542,-0.04634,0.24458,0.34062
-16.2318,0,0,21.2318,21.2318,5,5,24.9721,1.92382,-23.4806,-0.000118273,-0.00398454,-0.00922388,0,0,3.5525,-0.0875,-0.1925,-0.00671,-0.413336,-0.928542,-0.04634,0.24458,0.34062
-16.2316,0,0,21.2316,21.2316,5,5,24.9717,1.92328,-23.4817,-0.000108771,-0.00411163,-0.0099589,0,0,3.6225,-0.0875,-0.1225,-0.00671,-0.413458,-0.929274,-0.04634,0.24458,0.34062
-16.2316,0,0,21.2316,21.2316,5,5,24.9717,1.92279,-23.4828,-0.000100216,-0.00411256,-0.00995815,0,0,3.7625,-0.0525,-0.105,-0.00671,-0.413458,-0.929274,-0.04634,0.24458,0.34062
-16.2315,0,0,21.2315,21.2315,5,5,24.9715,1.92062,-23.4832,-0.00103423,-0.00448056,-0.0102019,0,0,3.4825,-0.2275,-0.1575,-0.007686,-0.413824,-0.929518,-0.04634,0.24458,0.34062
-16.2314,0,0,21.2314,21.2314,5,5,24.9714,1.91825,-23.484,-0.000992974,-0.00448237,-0.0101995,0,0,3.4825,-0.4375,-0.2625,-0.007686,-0.413824,-0.929518,-0.04634,0.24458,0.34062
-16.2339,0,0,21.2339,21.2339,5,5,24.9752,1.9188,-23.4848,0.0011842,-0.00808561,-0.00887565,0,0,3.605,-0.14,-0.2975,-0.00549,-0.417484,-0.928176,-0.04634,0.24458,0.34062
-16.2366,0,0,21.2366,21.2366,5,5,24.9794,1.91966,-23.4853,0.00116913,-0.00801918,-0.00890715,0,0,3.85,0.105,-0.21,-0.00549,-0.417484,-0.928176,-0.04634,0.24458,0.34062
-16.2349,0,0,21.2349,21.2349,5,5,24.9768,1.92079,-23.4965,0.000420502,-0.00183292,-0.0104866,0,0,3.7975,0.0525,-0.3325,-0.006222,-0.411262,-0.929762,-0.04606,0.2492,0.33838
-16.2396,0,0,21.2396,21.2396,5,5,24.984,1.92051,-23.5049,0.0010329,-0.00831334,-0.00181033,0,0,3.5175,-0.2975,-0.35,-0.005612,-0.41785,-0.9211,-0.04606,0.2492,0.33838
-16.2443,0,0,21.2443,21.2443,5,5,24.9912,1.9205,-23.513,0.00103297,-0.0082001,-0.00186311,0,0,3.5525,-0.105,-0.28,-0.005612,-0.41785,-0.9211,-0.04606,0.2492,0.33838
-16.2445,0,0,21.2445,21.2445,5,5,24.9916,1.91838,-23.5215,-0.00111675,-0.00538403,-0.0113321,0,0,3.57,-0.07,-0.2275,-0.007808,-0.415044,-0.930494,-0.04606,0.2492,0.33838
-16.245,0,0,21.245,21.245,5,5,24.9923,1.91665,-23.5298,-0.00108656,-0.00537226,-0.0113365,0,0,3.745,0.1225,-0.28,-0.007808,-0.415044,-0.930494,-0.04606,0.2492,0.33838
-16.2467,0,0,21.2467,21.2467,5,5,24.9949,1.91859,-23.5396,0.00167385,-0.0055758,-0.00680761,0,0,3.8325,0.035,-0.2625,-0.005002,-0.415288,-0.92598,-0.04606,0.2492,0.33838
-16.2483,0,0,21.2483,21.2483,5,5,24.9974,1.92052,-23.5492,0.00164007,-0.00553723,-0.00682685,0,0,3.78,0.07,-0.245,-0.005002,-0.415288,-0.92598,-0.04606,0.2492,0.33838
-16.2504,0,0,21.2504,21.2504,5,5,25.0007,1.91524,-23.5552,-0.00312719,-0.00462947,-0.00537271,0,0,3.815,-0.1225,-0.245,-0.009882,-0.414434,-0.924516,-0.04606,0.2492,0.33838
-16.2528,0,0,21.2528,21.2528,5,5,25.0042,1.91055,-23.5612,-0.00304531,-0.00457192,-0.00539653,0,0,4.025,0.1575,-0.28,-0.009882,-0.414434,-0.924516,-0.04844,0.25032,0.33656
-16.2523,0,0,21.2523,21.2523,5,5,25.0035,1.90599,-23.5685,-0.00320884,-0.00287305,-0.0112901,0,0,4.06,-0.035,-0.315,-0.010126,-0.412726,-0.930372,-0.04844,0.25032,0.33656
-16.2515,0,0,21.2515,21.2515,5,5,25.0024,1.90107,-23.5759,-0.00312294,-0.00288934,-0.0112793,0,0,3.8675,-0.315,-0.245,-0.010126,-0.412726,-0.930372,-0.04844,0.25032,0.33656
-16.2543,0,0,21.2543,21.2543,5,5,25.0066,1.90171,-23.5847,0.0016038,-0.00783053,-0.00737615,0,0,3.605,-0.42,-0.245,-0.005368,-0.417728,-0.926468,-0.04844,0.25032,0.33656
-16.2571,0,0,21.2571,21.2571,5,5,25.0108,1.90289,-23.5932,0.00158324,-0.00776287,-0.00740846,0,0,3.71,-0.105,-0.315,-0.005368,-0.417728,-0.926468,-0.04844,0.25032,0.33656
-16.2593,0,0,21.2593,21.2593,5,5,25.0143,1.89911,-23.5995,-0.00187402,-0.00611975,-0.00694014,0,0,3.64,-0.21,-0.2975,-0.008906,-0.416142,-0.92598,-0.04844,0.25032,0.33656
-16.2615,0,0,21.2615,21.2615,5,5,25.0176,1.89549,-23.6057,-0.00181082,-0.00606604,-0.0069629,0,0,3.6225,-0.175,-0.28,-0.008906,-0.416142,-0.92598,-0.04844,0.25032,0.33656
-16.2622,0,0,21.2622,21.2622,5,5,25.0187,1.89296,-23.6128,-0.00128067,-0.00702562,-0.0145922,0,0,3.8325,-0.0875,-0.28,-0.008418,-0.417118,-0.933544,-0.04844,0.25032,0.33656
-16.2628,0,0,21.2628,21.2628,5,5,25.0196,1.89032,-23.6157,-0.00123461,-0.00701012,-0.0145978,0,0,3.78,-0.1575,-0.175,-0.008418,-0.417118,-0.933544,-0.04564,0.2478,0.34468
-16.2629,0,0,21.2629,21.2629,5,5,25.0198,1.89115,-23.6204,0.000937625,-0.00529808,-0.010788,0,0,3.57,-0.1225,-0.245,-0.006222,-0.41541,-0.929762,-0.04564,0.2478,0.34468
-16.2627,0,0,21.2627,21.2627,5,5,25.0196,1.892,-23.6251,0.000922784,-0.00530126,-0.010787,0,0,3.3775,-0.105,-0.2625,-0.006222,-0.41541,-0.929762,-0.04564,0.2478,0.34468
-16.261,0,0,21.261,21.261,5,5,25.0169,1.8908,-23.629,-0.00100014,-0.0039999,-0.0142092,0,0,3.36,0.1225,-0.245,-0.008174,-0.414068,-0.933178,-0.04564,0.2478,0.34468
-16.2597,0,0,21.2597,21.2597,5,5,25.0149,1.88931,-23.6329,-0.000974033,-0.00403179,-0.0141934,0,0,3.6925,-0.07,-0.21,-0.008174,-0.414068,-0.933178,-0.04564,0.2478,0.34468
-16.2606,0,0,21.2606,21.2606,5,5,25.0163,1.88776,-23.636,-0.000461186,-0.00510844,-0.00842431,0,0,3.605,-0.245,-0.1575,-0.007686,-0.415166,-0.927444,-0.04564,0.2478,0.34468
-16.2614,0,0,21.2614,21.2614,5,5,25.0175,1.88612,-23.639,-0.000432528,-0.00508835,-0.00843264,0,0,3.535,-0.2975,-0.07,-0.007686,-0.415166,-0.927444,-0.04564,0.2478,0.34468
-16.2624,0,0,21.2624,21.2624,5,5,25.0191,1.8846,-23.6416,-0.000405949,-0.00701768,-0.0122546,0,0,3.605,-0.0875,-0.035,-0.007686,-0.417118,-0.931226,-0.04564,0.2478,0.34468
-16.2633,0,0,21.2633,21.2633,5,5,25.0205,1.88334,-23.6495,-0.000383924,-0.00699553,-0.0122641,0,0,3.535,0.0175,-0.1225,-0.007686,-0.417118,-0.931226,-0.04634,0.24948,0.33474
-16.2643,0,0,21.2643,21.2643,5,5,25.0219,1.88691,-23.6593,0.00271233,-0.00538537,-0.00699013,0,0,3.4825,0.1575,-0.0875,-0.004514,-0.415532,-0.92598,-0.04634,0.24948,0.33474
-16.2651,0,0,21.2651,21.2651,5,5,25.0233,1.89019,-23.6695,0.00265513,-0.00536522,-0.00700162,0,0,3.4125,-0.0525,-0.245,-0.004514,-0.415532,-0.92598,-0.04634,0.24948,0.33474
-16.2628,0,0,21.2628,21.2628,5,5,25.0197,1.8921,-23.6801,0.00104251,-0.00212388,-0.0111569,0,0,3.395,-0.0175,-0.3325,-0.0061,-0.412238,-0.930128,-0.04634,0.24948,0.33474
-16.2608,0,0,21.2608,21.2608,5,5,25.0167,1.89398,-23.6905,0.00100974,-0.00217329,-0.011135,0,0,3.5875,0.035,-0.2625,-0.0061,-0.412238,-0.930128,-0.04634,0.24948,0.33474
-16.2613,0,0,21.2613,21.2613,5,5,25.0175,1.89766,-23.7008,0.00264635,-0.00289424,-0.00339714,0,0,3.57,-0.0175,-0.2275,-0.004392,-0.41297,-0.922442,-0.04634,0.24948,0.33474
-16.2619,0,0,21.2619,21.2619,5,5,25.0184,1.90088,-23.7113,0.00259016,-0.00288054,-0.00340559,0,0,3.64,-0.28,-0.28,-0.004392,-0.41297,-0.922442,-0.04634,0.24948,0.33474
-16.2608,0,0,21.2608,21.2608,5,5,25.0166,1.90802,-23.7244,0.00513825,-0.00278846,-0.00831408,0,0,3.7275,-0.315,-0.2975,-0.001708,-0.412848,-0.927322,-0.04634,0.24948,0.33474
-16.2597,0,0,21.2597,21.2597,5,5,25.0149,1.91516,-23.7392,0.00501369,-0.00281682,-0.00830543,0,0,3.745,-0.14,-0.21,-0.001708,-0.412848,-0.927322,-0.0434,0.24906,0.33488
-16.2602,0,0,21.2602,21.2602,5,5,25.0157,1.91544,-23.7499,0.000756903,-0.00524694,-0.00917204,0,0,3.5175,-0.2275,-0.175,-0.005978,-0.415288,-0.928176,-0.0434,0.24906,0.33488
-16.2606,0,0,21.2606,21.2606,5,5,25.0163,1.91568,-23.7604,0.000752603,-0.00523666,-0.009177,0,0,3.4475,-0.21,-0.105,-0.005978,-0.415288,-0.928176,-0.0434,0.24906,0.33488
-16.2579,0,0,21.2579,21.2579,5,5,25.0122,1.91983,-23.774,0.00286696,-0.00298281,-0.0140666,0,0,3.5,-0.175,-0.21,-0.003782,-0.41297,-0.933056,-0.0434,0.24906,0.33488
-16.2555,0,0,21.2555,21.2555,5,5,25.0084,1.92403,-23.7874,0.00279383,-0.00304392,-0.0140408,0,0,3.64,-0.07,-0.21,-0.003782,-0.41297,-0.933056,-0.0434,0.24906,0.33488
-16.2574,0,0,21.2574,21.2574,5,5,25.0113,1.92479,-23.7974,0.00107961,-0.00507397,-0.00434983,0,0,3.605,-0.105,-0.1925,-0.00549,-0.415044,-0.923418,-0.0434,0.24906,0.33488
-16.2593,0,0,21.2593,21.2593,5,5,25.0143,1.92561,-23.8073,0.00106543,-0.00502775,-0.00437192,0,0,3.64,-0.0875,-0.2275,-0.00549,-0.415044,-0.923418,-0.0434,0.24906,0.33488
-16.2596,0,0,21.2596,21.2596,5,5,25.0147,1.91756,-23.8132,-0.0053545,-0.00355284,-0.00965789,0,0,3.71,-0.0875,-0.1575,-0.012078,-0.41358,-0.928664,-0.0434,0.24906,0.33488
-16.2598,0,0,21.2598,21.2598,5,5,25.0151,1.90972,-23.8192,-0.00521771,-0.00354464,-0.00965668,0,0,3.6925,-0.1225,-0.2275,-0.012078,-0.41358,-0.928664,-0.0434,0.24906,0.33488
-16.2587,0,0,21.2587,21.2587,5,5,25.0134,1.90712,-23.8184,-0.00164918,-0.00503659,-0.0156672,0,0,3.605,-0.0175,-0.1225,-0.00854,-0.415044,-0.934642,-0.04774,0.24682,0.34048
-16.2597,0,0,21.2597,21.2597,5,5,25.0149,1.90892,-23.8191,0.00159942,-0.00599053,-0.00928575,0,0,3.6225,0.0175,-0.245,-0.005246,-0.41602,-0.928298,-0.04774,0.24682,0.34048
-16.2608,0,0,21.2608,21.2608,5,5,25.0166,1.91054,-23.8198,0.0015712,-0.00596432,-0.00929902,0,0,3.745,-0.07,-0.2275,-0.005246,-0.41602,-0.928298,-0.04774,0.24682,0.34048
-16.2591,0,0,21.2591,21.2591,5,5,25.014,1.91399,-23.8223,0.00236151,-0.00356396,-0.0133389,0,0,3.78,-0.0175,-0.14,-0.004392,-0.41358,-0.932324,-0.04774,0.24682,0.34048
-16.2573,0,0,21.2573,21.2573,5,5,25.0112,1.91702,-23.8252,0.0023086,-0.00360818,-0.0133202,0,0,3.675,-0.2625,-0.2275,-0.004392,-0.41358,-0.932324,-0.04774,0.24682,0.34048
-16.2579,0,0,21.2579,21.2579,5,5,25.0121,1.91977,-23.827,0.00238215,-0.00432789,-0.00681177,0,0,3.6575,-0.245,-0.21,-0.00427,-0.414312,-0.925858,-0.04774,0.24682,0.34048
-16.2581,0,0,21.2581,21.2581,5,5,25.0125,1.92266,-23.8287,0.00233166,-0.00432241,-0.00681619,0,0,3.395,-0.14,-0.28,-0.00427,-0.414312,-0.925858,-0.04774,0.24682,0.34048
-16.2543,0,0,21.2543,21.2543,5,5,25.0066,1.92983,-23.8382,0.00427196,0.000590808,-0.00923596,0,0,3.4825,0,-0.385,-0.002196,-0.40931,-0.928298,-0.04802,0.24976,0.34258
-16.253,0,0,21.253,21.253,5,5,25.0047,1.92783,-23.8422,-0.00128157,-0.00469143,-0.0152448,0,0,3.5875,-0.105,-0.3325,-0.007808,-0.414556,-0.934276,-0.04802,0.24976,0.34258
-16.2517,0,0,21.2517,21.2517,5,5,25.0026,1.92564,-23.8462,-0.00124335,-0.00472361,-0.0152284,0,0,3.5175,-0.21,-0.2275,-0.007808,-0.414556,-0.934276,-0.04802,0.24976,0.34258
-16.2503,0,0,21.2503,21.2503,5,5,25.0005,1.92865,-23.8528,0.00234872,-0.00390272,-0.011526,0,0,3.43,-0.2625,-0.2975,-0.004148,-0.413702,-0.930616,-0.04802,0.24976,0.34258
-16.249,0,0,21.249,21.249,5,5,24.9985,1.93132,-23.859,0.00230218,-0.00393468,-0.0115128,0,0,3.465,-0.315,-0.0525,-0.004148,-0.413702,-0.930616,-0.04802,0.24976,0.34258
-16.2481,0,0,21.2481,21.2481,5,5,24.9971,1.9318,-23.864,0.000957493,-0.00444605,-0.0121172,0,0,3.4825,-0.385,0,-0.00549,-0.41419,-0.931226,-0.04802,0.24976,0.34258
-16.2475,0,0,21.2475,21.2475,5,5,24.9962,1.93271,-23.869,0.000941508,-0.00446066,-0.012111,0,0,3.7625,-0.14,-0.105,-0.00549,-0.41419,-0.931226,-0.04802,0.24976,0.34258
-16.2463,0,0,21.2463,21.2463,5,5,24.9944,1.93259,-23.8737,9.32348e-05,-0.00265729,-0.00988454,0,0,3.605,-0.2275,-0.175,-0.006344,-0.41236,-0.92903,-0.04802,0.24976,0.34258
-16.2452,0,0,21.2452,21.2452,5,5,24.9926,1.93294,-23.8741,8.7092e-05,-0.00268472,-0.00987199,0,0,3.6225,0.0875,-0.175,-0.006344,-0.41236,-0.92903,-0.04396,0.24472,0.34104
-16.2442,0,0,21.2442,21.2442,5,5,24.9911,1.93604,-23.876,0.00221975,-0.00442026,-0.012321,0,0,3.605,0.035,-0.175,-0.004148,-0.414068,-0.93147,-0.04396,0.24472,0.34104
-16.2435,0,0,21.2435,21.2435,5,5,24.9899,1.93913,-23.8778,0.00216592,-0.00443844,-0.0123145,0,0,3.85,0.0875,-0.1575,-0.004148,-0.414068,-0.93147,-0.04396,0.24472,0.34104
-16.2435,0,0,21.2435,21.2435,5,5,24.99,1.93408,-23.8752,-0.00333433,-0.00431443,-0.0113285,0,0,3.6925,0,-0.1225,-0.00976,-0.413946,-0.930494,-0.04396,0.24472,0.34104
-16.2434,0,0,21.2434,21.2434,5,5,24.9899,1.9293,-23.8726,-0.003251,-0.00431439,-0.0113254,0,0,3.64,0.07,-0.175,-0.00976,-0.413946,-0.930494,-0.04396,0.24472,0.34104
-16.2429,0,0,21.2429,21.2429,5,5,24.9891,1.92866,-23.8725,-0.000324092,-0.00567089,-0.0148844,0,0,3.6925,0.035,-0.28,-0.006832,-0.415288,-0.934032,-0.04396,0.24472,0.34104
-16.2422,0,0,21.2422,21.2422,5,5,24.988,1.92817,-23.8724,-0.000315659,-0.00568774,-0.0148762,0,0,3.5525,0.1225,-0.2975,-0.006832,-0.415288,-0.934032,-0.04396,0.24472,0.34104
-16.2401,0,0,21.2401,21.2401,5,5,24.9847,1.92714,-23.8729,-0.000905033,-0.00280813,-0.0134992,0,0,3.5,-0.0525,-0.3675,-0.007442,-0.41236,-0.93269,-0.04396,0.24472,0.34104
-16.238,0,0,21.238,21.238,5,5,24.9815,1.92612,-23.8742,-0.000887289,-0.00285867,-0.013475,0,0,3.5,-0.0525,-0.3675,-0.007442,-0.41236,-0.93269,-0.04578,0.24626,0.3409
-16.2385,0,0,21.2385,21.2385,5,5,24.9823,1.92731,-23.8759,0.0012787,-0.00541116,-0.00905524,0,0,3.465,-0.21,-0.4025,-0.005246,-0.414922,-0.928298,-0.04578,0.24626,0.3409
-16.239,0,0,21.239,21.239,5,5,24.9831,1.92847,-23.8776,0.00125843,-0.00539916,-0.00906159,0,0,3.465,-0.21,-0.4025,-0.005246,-0.414922,-0.928298,-0.04578,0.24626,0.3409
-16.2406,0,0,21.2406,21.2406,5,5,24.9855,1.92702,-23.8771,-0.000781424,-0.00487145,-0.00563636,0,0,3.5875,0.07,-0.315,-0.00732,-0.414434,-0.924882,-0.04578,0.24626,0.3409
-16.2422,0,0,21.2422,21.2422,5,5,24.988,1.9256,-23.8766,-0.000756802,-0.00483306,-0.00565334,0,0,3.5875,0.07,-0.315,-0.00732,-0.414434,-0.924882,-0.04578,0.24626,0.3409
-16.2419,0,0,21.2419,21.2419,5,5,24.9875,1.93239,-23.8743,-2.47595e-05,-0.00459747,-0.0109405,0,0,3.5,4.4275,-0.245,-0.006466,-0.41419,-0.930128,-0.04578,0.24626,0.3409
-16.2429,0,0,21.2429,21.2429,5,5,24.9891,1.92989,-23.8731,-0.00156047,-0.00432799,-0.00554088,0,0,3.2725,0.1225,-0.175,-0.008052,-0.413946,-0.92476,-0.04578,0.24626,0.3409
-16.2441,0,0,21.2441,21.2441,5,5,24.9908,1.92729,-23.8724,-0.00151503,-0.00429916,-0.00555263,0,0,3.43,-0.0875,-0.385,-0.008052,-0.413946,-0.92476,-0.04578,0.24626,0.3409
-16.244,0,0,21.244,21.244,5,5,24.9908,1.93025,-23.8753,0.00244237,-0.00442333,-0.00887321,0,0,3.605,-0.245,-0.3325,-0.004026,-0.414068,-0.928054,-0.04578,0.24626,0.3409
-16.244,0,0,21.244,21.244,5,5,24.9908,1.93307,-23.8755,0.00239305,-0.00442418,-0.00887464,0,0,3.64,-0.2625,-0.28,-0.004026,-0.414068,-0.928054,-0.0483,0.24668,0.34398
-16.2443,0,0,21.2443,21.2443,5,5,24.9913,1.93042,-23.8728,-0.00120532,-0.00734606,-0.0151476,0,0,3.5175,-0.245,-0.3325,-0.007686,-0.416996,-0.934276,-0.0483,0.24668,0.34398
-16.2447,0,0,21.2447,21.2447,5,5,24.9918,1.92787,-23.8701,-0.00116082,-0.00733767,-0.0151498,0,0,3.5,-0.21,-0.2975,-0.007686,-0.416996,-0.934276,-0.0483,0.24668,0.34398
-16.2449,0,0,21.2449,21.2449,5,5,24.9922,1.92618,-23.8679,-0.000766851,-0.00525513,-0.0114633,0,0,3.6925,-0.1925,-0.2975,-0.00732,-0.414922,-0.930616,-0.0483,0.24668,0.34398
-16.2448,0,0,21.2448,21.2448,5,5,24.9919,1.9244,-23.8657,-0.00073577,-0.00525829,-0.0114606,0,0,3.36,-0.2625,-0.2625,-0.00732,-0.414922,-0.930616,-0.0483,0.24668,0.34398
-16.2438,0,0,21.2438,21.2438,5,5,24.9905,1.92714,-23.8659,0.00201059,-0.00332741,-0.0083779,0,0,3.29,-0.105,-0.2975,-0.004514,-0.41297,-0.927566,-0.0483,0.24668,0.34398
-16.2433,0,0,21.2433,21.2433,5,5,24.9897,1.93005,-23.8659,0.00195978,-0.00334105,-0.00837343,0,0,3.605,0.07,-0.2625,-0.004514,-0.41297,-0.927566,-0.0483,0.24668,0.34398
-16.2448,0,0,21.2448,21.2448,5,5,24.992,1.92973,-23.8637,0.000143159,-0.00501405,-0.00580844,0,0,3.5875,-0.0525,-0.315,-0.006344,-0.414678,-0.925004,-0.0483,0.24668,0.34398
-16.2464,0,0,21.2464,21.2464,5,5,24.9945,1.92891,-23.8603,0.000157474,-0.00497406,-0.00582655,0,0,3.7275,-0.385,-0.315,-0.006344,-0.414678,-0.925004,-0.04858,0.24598,0.34426
-16.2476,0,0,21.2476,21.2476,5,5,24.9963,1.92696,-23.8562,-0.00102334,-0.00274674,-0.00337986,0,0,3.7975,-0.21,-0.2625,-0.007564,-0.412482,-0.922564,-0.04858,0.24598,0.34426
-16.2486,0,0,21.2486,21.2486,5,5,24.9979,1.92522,-23.8521,-0.00099312,-0.00272227,-0.00339014,0,0,3.6575,-0.0875,-0.2275,-0.007564,-0.412482,-0.922564,-0.04858,0.24598,0.34426
-16.2486,0,0,21.2486,21.2486,5,5,24.9978,1.92402,-23.8487,-0.000607598,-0.00357793,-0.00830694,0,0,3.5875,-0.14,-0.245,-0.007198,-0.413336,-0.927444,-0.04858,0.24598,0.34426
-16.2485,0,0,21.2485,21.2485,5,5,24.9977,1.92257,-23.8454,-0.000582335,-0.00357827,-0.00830584,0,0,3.605,-0.315,-0.245,-0.007198,-0.413336,-0.927444,-0.04858,0.24598,0.34426
-16.2484,0,0,21.2484,21.2484,5,5,24.9975,1.92202,-23.8429,0.000156048,-0.00517028,-0.0126067,0,0,3.7625,-0.3675,-0.3325,-0.006466,-0.414922,-0.931714,-0.04858,0.24598,0.34426
-16.2481,0,0,21.2481,21.2481,5,5,24.997,1.92149,-23.8402,0.000165398,-0.00517738,-0.012603,0,0,3.6575,-0.2975,-0.175,-0.006466,-0.414922,-0.931714,-0.04858,0.24598,0.34426
-16.2458,0,0,21.2458,21.2458,5,5,24.9935,1.92217,-23.8388,0.000517993,-0.00401207,-0.0166347,0,0,3.6225,-0.1575,-0.2975,-0.0061,-0.413702,-0.93574,-0.04858,0.24598,0.34426
-16.2433,0,0,21.2433,21.2433,5,5,24.9897,1.92287,-23.8439,0.000505756,-0.00407194,-0.0166072,0,0,3.4475,-0.105,-0.2275,-0.0061,-0.413702,-0.93574,-0.0476,0.24934,0.34328
-16.2425,0,0,21.2425,21.2425,5,5,24.9885,1.92571,-23.8492,0.00215701,-0.00567872,-0.0130346,0,0,3.325,0.0175,-0.2975,-0.004392,-0.415288,-0.932202,-0.0476,0.24934,0.34328
-16.2419,0,0,21.2419,21.2419,5,5,24.9875,1.9283,-23.8545,0.00211179,-0.0056953,-0.0130286,0,0,3.395,-0.07,-0.245,-0.004392,-0.415288,-0.932202,-0.0476,0.24934,0.34328
-16.2401,0,0,21.2401,21.2401,5,5,24.9847,1.93083,-23.8604,0.00194621,-0.00244256,-0.00981272,0,0,3.36,-0.2625,-0.1575,-0.004514,-0.411994,-0.92903,-0.0476,0.24934,0.34328
-16.2386,0,0,21.2386,21.2386,5,5,24.9825,1.93349,-23.8661,0.00189984,-0.00247934,-0.00979731,0,0,3.605,-0.1225,-0.14,-0.004514,-0.411994,-0.92903,-0.0476,0.24934,0.34328
-16.237,0,0,21.237,21.237,5,5,24.98,1.93453,-23.871,0.000788369,-0.00459483,-0.0150664,0,0,3.535,-0.0525,-0.2625,-0.005612,-0.414068,-0.934276,-0.0476,0.24934,0.34328
-16.2354,0,0,21.2354,21.2354,5,5,24.9776,1.93553,-23.8758,0.000770869,-0.00463337,-0.0150491,0,0,3.535,-0.0525,-0.2625,-0.005612,-0.414068,-0.934276,-0.0476,0.24934,0.34328
-16.2328,0,0,21.2328,21.2328,5,5,24.9735,1.93576,-23.8808,-8.35622e-05,-0.00201137,-0.0134208,0,0,3.535,-0.0875,-0.315,-0.006466,-0.411384,-0.93269,-0.0476,0.24934,0.34328
-16.2301,0,0,21.2301,21.2301,5,5,24.9695,1.93598,-23.887,-8.73781e-05,-0.00207497,-0.0133913,0,0,3.535,-0.0875,-0.315,-0.006466,-0.411384,-0.93269,-0.04956,0.25144,0.34454
-16.2298,0,0,21.2298,21.2298,5,5,24.9689,1.93802,-23.8928,0.0014563,-0.00416006,-0.00920822,0,0,3.465,0.0875,-0.2275,-0.00488,-0.413458,-0.928542,-0.04956,0.25144,0.34454
-16.2295,0,0,21.2295,21.2295,5,5,24.9684,1.94001,-23.8986,0.00142159,-0.00416871,-0.00920549,0,0,3.465,0.0875,-0.2275,-0.00488,-0.413458,-0.928542,-0.04956,0.25144,0.34454
-16.2307,0,0,21.2307,21.2307,5,5,24.9703,1.93869,-23.9021,-0.000499149,-0.00633658,-0.00971059,0,0,3.535,0.0525,-0.1575,-0.006832,-0.415654,-0.92903,-0.04956,0.25144,0.34454
-16.2319,0,0,21.2319,21.2319,5,5,24.9722,1.93741,-23.9055,-0.000476807,-0.00630681,-0.00972362,0,0,3.535,0.0525,-0.1575,-0.006832,-0.415654,-0.92903,-0.04956,0.25144,0.34454
-16.2338,0,0,21.2338,21.2338,5,5,24.9751,1.93985,-23.9104,0.00227479,-0.00809275,-0.0102384,0,0,3.605,0.105,-0.1925,-0.004026,-0.417484,-0.929518,-0.04956,0.25144,0.34454
-16.2342,0,0,21.2342,21.2342,5,5,24.9757,1.93918,-23.9144,-0.000386172,-0.00417488,-0.00802947,0,0,3.5875,0.105,-0.1925,-0.00671,-0.41358,-0.927322,-0.04956,0.25144,0.34454
-16.2347,0,0,21.2347,21.2347,5,5,24.9765,1.93848,-23.9181,-0.000373929,-0.00416222,-0.00803491,0,0,3.6925,0.1225,-0.0875,-0.00671,-0.41358,-0.927322,-0.04956,0.25144,0.34454
-16.2359,0,0,21.2359,21.2359,5,5,24.9784,1.94241,-23.913,0.00308065,-0.00669852,-0.00952606,0,0,3.675,0.14,-0.175,-0.003172,-0.416142,-0.928786,-0.04998,0.2457,0.34902
-16.2369,0,0,21.2369,21.2369,5,5,24.9799,1.94585,-23.9082,0.00302064,-0.00667497,-0.00953928,0,0,3.5175,-0.14,-0.2275,-0.003172,-0.416142,-0.928786,-0.04998,0.2457,0.34902
-16.2353,0,0,21.2353,21.2353,5,5,24.9774,1.94727,-23.9036,0.00117352,-0.00366185,-0.0129641,0,0,3.535,-0.1925,-0.2275,-0.005002,-0.413092,-0.932202,-0.04998,0.2457,0.34902
-16.2357,0,0,21.2357,21.2357,5,5,24.978,1.94505,-23.8966,-0.000974589,-0.00597272,-0.0123524,0,0,3.605,-0.245,-0.245,-0.007198,-0.41541,-0.931592,-0.04998,0.2457,0.34902
-16.2359,0,0,21.2359,21.2359,5,5,24.9783,1.94315,-23.8896,-0.000941424,-0.00596646,-0.012354,0,0,3.5,-0.0875,-0.2625,-0.007198,-0.41541,-0.931592,-0.04998,0.2457,0.34902
-16.2385,0,0,21.2385,21.2385,5,5,24.9824,1.94156,-23.8819,-0.00018479,-0.00773428,-0.00746492,0,0,3.4475,-0.1925,-0.175,-0.006466,-0.41724,-0.926712,-0.04998,0.2457,0.34902
-16.2412,0,0,21.2412,21.2412,5,5,24.9864,1.93993,-23.8742,-0.000156355,-0.0076695,-0.00749404,0,0,3.5175,-0.245,-0.1575,-0.006466,-0.41724,-0.926712,-0.04998,0.2457,0.34902
-16.2405,0,0,21.2405,21.2405,5,5,24.9854,1.93875,-23.8679,-0.00062156,-0.00512076,-0.0140021,0,0,3.6225,-0.035,-0.175,-0.006954,-0.414678,-0.933178,-0.04998,0.2457,0.34902
-16.2398,0,0,21.2398,21.2398,5,5,24.9844,1.93744,-23.8609,-0.000598813,-0.00513695,-0.0139937,0,0,3.605,-0.14,-0.21,-0.006954,-0.414678,-0.933178,-0.05474,0.24836,0.3521
-16.2391,0,0,21.2391,21.2391,5,5,24.9832,1.93626,-23.854,-0.000578155,-0.00515509,-0.0142304,0,0,3.5875,-0.0875,-0.21,-0.006954,-0.414678,-0.933422,-0.05474,0.24836,0.3521
-16.2383,0,0,21.2383,21.2383,5,5,24.9821,1.93533,-23.847,-0.000561975,-0.00517295,-0.0142215,0,0,3.5875,0.07,-0.1925,-0.006954,-0.414678,-0.933422,-0.05474,0.24836,0.3521
-16.2386,0,0,21.2386,21.2386,5,5,24.9825,1.93772,-23.8413,0.00194744,-0.00528803,-0.00930837,0,0,3.5,0.035,-0.1575,-0.004392,-0.4148,-0.928542,-0.05474,0.24836,0.3521
-16.2392,0,0,21.2392,21.2392,5,5,24.9834,1.93981,-23.8355,0.00191106,-0.00527443,-0.00931607,0,0,3.7275,-0.07,-0.035,-0.004392,-0.4148,-0.928542,-0.05474,0.24836,0.3521
-16.2422,0,0,21.2422,21.2422,5,5,24.988,1.93537,-23.8257,-0.00250647,-0.0041026,-0.000986553,0,0,3.7975,-0.0875,-0.0525,-0.008906,-0.413702,-0.920246,-0.05474,0.24836,0.3521
-16.2448,0,0,21.2448,21.2448,5,5,24.992,1.93091,-23.8161,-0.00242858,-0.004038,-0.00101376,0,0,3.57,-0.21,-0.105,-0.008906,-0.413702,-0.920246,-0.05474,0.24836,0.3521
-16.2455,0,0,21.2455,21.2455,5,5,24.9931,1.92949,-23.8088,-0.000581579,-0.00377603,-0.00643084,0,0,3.6575,-0.1575,-0.105,-0.007076,-0.413458,-0.925614,-0.05474,0.24836,0.3521
-16.246,0,0,21.246,21.246,5,5,24.9939,1.92859,-23.8061,-0.000565826,-0.00376337,-0.00643615,0,0,3.5,0.0525,-0.315,-0.007076,-0.413458,-0.925614,-0.05334,0.24878,0.34314
-16.2464,0,0,21.2464,21.2464,5,5,24.9944,1.9264,-23.8032,-0.00101371,-0.00607476,-0.0125864,0,0,3.5875,-0.1925,-0.2625,-0.007564,-0.415776,-0.931714,-0.05334,0.24878,0.34314
-16.2468,0,0,21.2468,21.2468,5,5,24.995,1.92409,-23.8006,-0.000973274,-0.00606414,-0.0125898,0,0,3.6575,-0.35,-0.3325,-0.007564,-0.415776,-0.931714,-0.05334,0.24878,0.34314
-16.2489,0,0,21.2489,21.2489,5,5,24.9983,1.91923,-23.7958,-0.00271085,-0.00454643,-0.00425052,0,0,3.64,-0.28,-0.2275,-0.009394,-0.414312,-0.923418,-0.05334,0.24878,0.34314
-16.2511,0,0,21.2511,21.2511,5,5,25.0017,1.91477,-23.791,-0.00263314,-0.0044901,-0.00427392,0,0,3.8325,-0.1225,-0.2625,-0.009394,-0.414312,-0.923418,-0.05334,0.24878,0.34314
-16.2541,0,0,21.2541,21.2541,5,5,25.0062,1.90976,-23.7855,-0.00278858,-0.00771538,-0.00946817,0,0,3.92,-0.07,-0.245,-0.009638,-0.417606,-0.928542,-0.05334,0.24878,0.34314
-16.2566,0,0,21.2566,21.2566,5,5,25.0102,1.90458,-23.7801,-0.00269836,-0.00765172,-0.00949456,0,0,3.675,-0.2275,-0.175,-0.009638,-0.417606,-0.928542,-0.05334,0.24878,0.34314
-16.2572,0,0,21.2572,21.2572,5,5,25.0112,1.90525,-23.7781,0.00093464,-0.00470549,-0.00753489,0,0,3.535,-0.1575,-0.14,-0.005978,-0.414678,-0.92659,-0.05334,0.24878,0.34314
-16.2579,0,0,21.2579,21.2579,5,5,25.0122,1.90623,-23.7888,0.00091744,-0.00468896,-0.00754324,0,0,3.5875,0.07,-0.14,-0.005978,-0.414678,-0.92659,-0.04368,0.2506,0.33964
-16.2566,0,0,21.2566,21.2566,5,5,25.0102,1.90576,-23.7995,-0.000289156,-0.0039885,-0.0137982,0,0,3.6575,-0.035,-0.14,-0.007198,-0.413946,-0.932812,-0.04368,0.2506,0.33964
-16.2553,0,0,21.2553,21.2553,5,5,25.0081,1.90529,-23.8102,-0.000280973,-0.00402023,-0.0137831,0,0,3.6575,-0.035,-0.14,-0.007198,-0.413946,-0.932812,-0.04368,0.2506,0.33964
-16.2549,0,0,21.2549,21.2549,5,5,25.0075,1.90491,-23.8205,-0.000152813,-0.00158843,-0.00529443,0,0,3.6225,-0.14,-0.07,-0.007076,-0.411506,-0.924394,-0.04368,0.2506,0.33964
-16.2544,0,0,21.2544,21.2544,5,5,25.0068,1.90453,-23.8308,-0.00014626,-0.00159899,-0.00528927,0,0,3.6225,-0.14,-0.07,-0.007076,-0.411506,-0.924394,-0.04368,0.2506,0.33964
-16.254,0,0,21.254,21.254,5,5,25.0062,1.90552,-23.842,0.0010513,-0.00405148,-0.0108179,0,0,3.8325,-0.245,-0.1925,-0.005856,-0.413946,-0.929884,-0.04368,0.2506,0.33964
-16.2536,0,0,21.2536,21.2536,5,5,25.0056,1.90649,-23.8531,0.00103446,-0.00406121,-0.010814,0,0,3.8325,-0.245,-0.1925,-0.005856,-0.413946,-0.929884,-0.04368,0.2506,0.33964
-16.254,0,0,21.254,21.254,5,5,25.0062,1.91314,-23.8597,-0.000174953,-0.00417462,-0.00725685,0,0,3.4125,4.445,-0.4025,-0.006954,-0.414068,-0.926346,-0.04368,0.2506,0.33964
-16.2545,0,0,21.2545,21.2545,5,5,25.0069,1.91963,-23.8663,-0.000288188,-0.00416571,-0.00726519,0,0,3.4125,4.445,-0.4025,-0.006954,-0.414068,-0.926346,-0.04368,0.2506,0.33964
-16.2554,0,0,21.2554,21.2554,5,5,25.0082,1.91842,-23.8688,-0.000631498,-0.00426632,-0.00653675,0,0,3.5525,0.0525,-0.14,-0.00732,-0.41419,-0.925614,-0.04648,0.24836,0.3402
-16.2535,0,0,21.2535,21.2535,5,5,25.0054,1.9209,-23.8739,0.00151208,-0.00260193,-0.0108204,0,0,3.43,0.14,-0.0875,-0.005124,-0.412482,-0.929884,-0.04648,0.24836,0.3402
-16.2517,0,0,21.2517,21.2517,5,5,25.0026,1.9233,-23.879,0.00147014,-0.00264633,-0.0108012,0,0,3.43,0.14,-0.0875,-0.005124,-0.412482,-0.929884,-0.04648,0.24836,0.3402
-16.2531,0,0,21.2531,21.2531,5,5,25.0047,1.9148,-23.8842,-0.000811371,-0.00358839,-0.00331218,0,0,3.5525,-4.3925,-0.175,-0.007564,-0.413458,-0.922442,-0.04648,0.24836,0.3402
-16.2544,0,0,21.2544,21.2544,5,5,25.0067,1.90652,-23.8895,-0.000666943,-0.00355455,-0.00332265,0,0,3.5525,-4.3925,-0.175,-0.007564,-0.413458,-0.922442,-0.04648,0.24836,0.3402
-16.2547,0,0,21.2547,21.2547,5,5,25.0072,1.90644,-23.8923,0.000549325,-0.0062331,-0.0107034,0,0,3.2025,-0.105,-0.0175,-0.006344,-0.416142,-0.929762,-0.04648,0.24836,0.3402
-16.255,0,0,21.255,21.255,5,5,25.0078,1.90637,-23.8951,0.00055067,-0.00622501,-0.0107071,0,0,3.2025,-0.105,-0.0175,-0.006344,-0.416142,-0.929762,-0.04648,0.24836,0.3402
-16.2537,0,0,21.2537,21.2537,5,5,25.0057,1.9072,-23.9036,0.000657537,-0.00332648,-0.0119219,0,0,3.6575,-0.105,-0.175,-0.006222,-0.413214,-0.930982,-0.04522,0.24906,0.33362
-16.2557,0,0,21.2557,21.2557,5,5,25.0088,1.9046,-23.909,-0.00124072,-0.00571934,-0.00616485,0,0,3.5875,-0.105,-0.1925,-0.008174,-0.415654,-0.925248,-0.04522,0.24906,0.33362
-16.2581,0,0,21.2581,21.2581,5,5,25.0125,1.90677,-23.9167,0.00236592,-0.00663872,-0.00533249,0,0,3.605,-0.1925,-0.1925,-0.004514,-0.41663,-0.924394,-0.04522,0.24906,0.33362
-16.2604,0,0,21.2604,21.2604,5,5,25.016,1.90886,-23.9243,0.00232938,-0.0065845,-0.00535914,0,0,3.5175,-0.21,-0.175,-0.004514,-0.41663,-0.924394,-0.04522,0.24906,0.33362
-16.2616,0,0,21.2616,21.2616,5,5,25.0178,1.90791,-23.9306,-0.000326697,-0.0038684,-0.00426567,0,0,3.5175,-0.0875,-0.2275,-0.007198,-0.413946,-0.923296,-0.04522,0.24906,0.33362
-16.2628,0,0,21.2628,21.2628,5,5,25.0196,1.90714,-23.9368,-0.000313198,-0.0038392,-0.0042788,0,0,3.535,0,-0.245,-0.007198,-0.413946,-0.923296,-0.04522,0.24906,0.33362
-16.262,0,0,21.262,21.262,5,5,25.0185,1.90529,-23.9434,-0.00125284,-0.00239081,-0.00869577,0,0,3.675,-0.14,-0.2275,-0.008174,-0.412482,-0.927688,-0.04522,0.24906,0.33362
-16.2613,0,0,21.2613,21.2613,5,5,25.0173,1.90329,-23.9498,-0.00121788,-0.00240907,-0.00868596,0,0,3.6225,-0.21,-0.105,-0.008174,-0.412482,-0.927688,-0.04522,0.24906,0.33362
-16.2624,0,0,21.2624,21.2624,5,5,25.0191,1.90233,-23.9443,1.36945e-05,-0.00494527,-0.00697735,0,0,3.6225,-0.2975,-0.1225,-0.006954,-0.415044,-0.92598,-0.04704,0.24528,0.34748
-16.2626,0,0,21.2626,21.2626,5,5,25.0194,1.90374,-23.9404,0.00156836,-0.00359792,-0.00624241,0,0,3.5,-0.3675,-0.1575,-0.005368,-0.413702,-0.925248,-0.04704,0.24528,0.34748
-16.2628,0,0,21.2628,21.2628,5,5,25.0197,1.90572,-23.9366,0.00153379,-0.00359408,-0.00624548,0,0,3.5,-0.035,-0.28,-0.005368,-0.413702,-0.925248,-0.04704,0.24528,0.34748
-16.2628,0,0,21.2628,21.2628,5,5,25.0197,1.90801,-23.9328,0.00173677,-0.00566958,-0.0114111,0,0,3.57,0.1225,-0.2625,-0.005124,-0.415776,-0.930372,-0.04704,0.24528,0.34748
-16.2629,0,0,21.2629,21.2629,5,5,25.0198,1.91025,-23.929,0.00169776,-0.0056688,-0.0114129,0,0,3.57,0.1225,-0.2625,-0.005124,-0.415776,-0.930372,-0.04704,0.24528,0.34748
-16.263,0,0,21.263,21.263,5,5,25.02,1.91129,-23.9253,0.00131511,-0.00542173,-0.0109231,0,0,3.605,-0.2975,-0.245,-0.00549,-0.415532,-0.929884,-0.04704,0.24528,0.34748
-16.2631,0,0,21.2631,21.2631,5,5,25.0202,1.91231,-23.9216,0.00129735,-0.0054189,-0.010925,0,0,3.605,-0.2975,-0.245,-0.00549,-0.415532,-0.929884,-0.04704,0.24528,0.34748
-16.2628,0,0,21.2628,21.2628,5,5,25.0196,1.91229,-23.9174,0.000204365,-0.00213059,-0.00600285,0,0,3.605,-0.2275,-0.175,-0.006588,-0.412238,-0.925004,-0.04704,0.24528,0.34748
-16.2624,0,0,21.2624,21.2624,5,5,25.0191,1.91227,-23.9187,0.000204707,-0.00213955,-0.00599865,0,0,3.605,-0.2275,-0.175,-0.006588,-0.412238,-0.925004,-0.04928,0.24962,0.3458
-16.2606,0,0,21.2606,21.2606,5,5,25.0164,1.91342,-23.921,0.000913589,-0.00340404,-0.013602,0,0,3.675,-0.14,-0.1225,-0.005856,-0.413458,-0.932568,-0.04928,0.24962,0.3458
-16.2589,0,0,21.2589,21.2589,5,5,25.0137,1.91453,-23.9232,0.000894211,-0.00344641,-0.013583,0,0,3.675,-0.14,-0.1225,-0.005856,-0.413458,-0.932568,-0.04928,0.24962,0.3458
-16.2588,0,0,21.2588,21.2588,5,5,25.0135,1.91883,-23.9262,0.00337043,-0.00503805,-0.0102643,0,0,3.6575,-0.0525,-0.105,-0.003294,-0.415044,-0.929274,-0.04928,0.24962,0.3458
-16.2596,0,0,21.2596,21.2596,5,5,25.0147,1.92073,-23.9277,0.00163654,-0.0044089,-0.00633978,0,0,3.605,0,-0.1225,-0.005002,-0.414434,-0.92537,-0.04928,0.24962,0.3458
-16.2603,0,0,21.2603,21.2603,5,5,25.0158,1.92234,-23.9292,0.00160843,-0.00439161,-0.00634888,0,0,3.57,-0.1575,-0.1225,-0.005002,-0.414434,-0.92537,-0.04928,0.24962,0.3458
-16.2583,0,0,21.2583,21.2583,5,5,25.0128,1.91744,-23.9284,-0.00353005,-0.00272912,-0.0148071,0,0,3.64,-0.0875,-0.105,-0.010248,-0.412726,-0.933788,-0.04928,0.24962,0.3458
-16.2562,0,0,21.2562,21.2562,5,5,25.0096,1.91284,-23.9276,-0.00344987,-0.00277777,-0.0147815,0,0,3.57,0.035,-0.105,-0.010248,-0.412726,-0.933788,-0.04928,0.24962,0.3458
-16.2589,0,0,21.2589,21.2589,5,5,25.0137,1.91359,-23.9245,0.000910545,-0.00576583,-0.00374695,0,0,3.78,0.14,-0.175,-0.005856,-0.415776,-0.922808,-0.04928,0.2478,0.34636
-16.2614,0,0,21.2614,21.2614,5,5,25.0176,1.91404,-23.9217,0.000902779,-0.00570488,-0.00377567,0,0,3.675,-0.07,-0.21,-0.005856,-0.415776,-0.922808,-0.04928,0.2478,0.34636
-16.2595,0,0,21.2595,21.2595,5,5,25.0146,1.91446,-23.9205,0.000166508,-0.00392096,-0.0161714,0,0,3.7625,0.035,-0.21,-0.006588,-0.413946,-0.93513,-0.04928,0.2478,0.34636
-16.2577,0,0,21.2577,21.2577,5,5,25.0118,1.91445,-23.9195,0.00016662,-0.0039651,-0.0161508,0,0,3.8675,-0.245,-0.245,-0.006588,-0.413946,-0.93513,-0.04928,0.2478,0.34636
-16.2553,0,0,21.2553,21.2553,5,5,25.0082,1.91123,-23.9168,-0.00244976,-0.00218961,-0.0147699,0,0,3.7275,-0.0875,-0.1575,-0.009272,-0.412116,-0.933788,-0.04928,0.2478,0.34636
-16.253,0,0,21.253,21.253,5,5,25.0047,1.90812,-23.914,-0.00239561,-0.00224414,-0.0147425,0,0,3.7625,-0.035,-0.1225,-0.009272,-0.412116,-0.933788,-0.04928,0.2478,0.34636
-16.2522,0,0,21.2522,21.2522,5,5,25.0034,1.90987,-23.9131,0.00133988,-0.00348613,-0.0104308,0,0,3.6925,-0.0525,-0.14,-0.00549,-0.413336,-0.929518,-0.04928,0.2478,0.34636
-16.2512,0,0,21.2512,21.2512,5,5,25.0019,1.9115,-23.9123,0.00131158,-0.00350986,-0.0104207,0,0,3.57,-0.1225,-0.175,-0.00549,-0.413336,-0.929518,-0.04928,0.2478,0.34636
-16.251,0,0,21.251,21.251,5,5,25.0016,1.90854,-23.911,-0.00191689,-0.00620118,-0.0152117,0,0,3.5875,-0.0175,-0.385,-0.008784,-0.41602,-0.934276,-0.049,0.24752,0.33894
-16.2493,0,0,21.2493,21.2493,5,5,24.9989,1.90533,-23.91,-0.00234696,-0.00453217,-0.016789,0,0,3.535,-0.0175,-0.3325,-0.009272,-0.414312,-0.935862,-0.049,0.24752,0.33894
-16.2477,0,0,21.2477,21.2477,5,5,24.9964,1.90163,-23.9088,-0.00228234,-0.00457066,-0.0167687,0,0,3.5875,-0.28,-0.105,-0.009272,-0.414312,-0.935862,-0.049,0.24752,0.33894
-16.2444,0,0,21.2444,21.2444,5,5,24.9914,1.89966,-23.9092,-0.00139752,-0.00196393,-0.0162383,0,0,3.5,-0.2975,-0.1225,-0.008418,-0.411628,-0.935374,-0.049,0.24752,0.33894
-16.241,0,0,21.241,21.241,5,5,24.9862,1.89814,-23.9096,-0.00137111,-0.00204469,-0.0161997,0,0,3.43,-0.07,-0.2275,-0.008418,-0.411628,-0.935374,-0.049,0.24752,0.33894
-16.2391,0,0,21.2391,21.2391,5,5,24.9832,1.90343,-23.913,0.00376049,-0.00258177,-0.0106477,0,0,3.5525,-0.1575,-0.245,-0.003172,-0.412116,-0.929884,-0.049,0.24752,0.33894
-16.2374,0,0,21.2374,21.2374,5,5,24.9806,1.90876,-23.9162,0.00366752,-0.00262516,-0.0106309,0,0,3.6925,-0.0175,-0.1925,-0.003172,-0.412116,-0.929884,-0.049,0.24752,0.33894
-16.2354,0,0,21.2354,21.2354,5,5,24.9776,1.91218,-23.9188,0.00239297,-0.00194007,-0.0102421,0,0,3.6575,-0.1575,-0.1925,-0.004392,-0.411384,-0.929518,-0.049,0.24752,0.33894
-16.2334,0,0,21.2334,21.2334,5,5,24.9745,1.91537,-23.9263,0.00233741,-0.00199063,-0.0102206,0,0,3.5175,-0.21,-0.0875,-0.004392,-0.411384,-0.929518,-0.04998,0.252,0.34314
-16.2343,0,0,21.2343,21.2343,5,5,24.9758,1.92044,-23.9337,0.00419277,-0.00465701,-0.00433183,0,0,3.36,-0.245,-0.21,-0.00244,-0.414068,-0.923662,-0.04998,0.252,0.34314
-16.2351,0,0,21.2351,21.2351,5,5,24.9771,1.92568,-23.9411,0.00410133,-0.00463777,-0.00434418,0,0,3.325,-0.0875,-0.28,-0.00244,-0.414068,-0.923662,-0.04998,0.252,0.34314
-16.2388,0,0,21.2388,21.2388,5,5,24.9828,1.92885,-23.9462,0.00319554,-0.00772484,-0.00168247,0,0,3.3075,-0.07,-0.21,-0.003294,-0.41724,-0.920978,-0.04998,0.252,0.34314
-16.2426,0,0,21.2426,21.2426,5,5,24.9886,1.93194,-23.9515,0.00314173,-0.00763277,-0.00172738,0,0,3.5,-0.14,-0.315,-0.003294,-0.41724,-0.920978,-0.04998,0.252,0.34314
-16.2457,0,0,21.2457,21.2457,5,5,24.9935,1.93377,-23.9565,0.00201634,-0.00609142,-0.00200981,0,0,3.6925,-0.1575,-0.385,-0.004392,-0.415776,-0.921222,-0.04998,0.252,0.34314
-16.2487,0,0,21.2487,21.2487,5,5,24.998,1.93562,-23.9612,0.0019842,-0.00602017,-0.00204423,0,0,3.57,-0.0525,-0.21,-0.004392,-0.415776,-0.921222,-0.04998,0.252,0.34314
-16.2484,0,0,21.2484,21.2484,5,5,24.9976,1.93809,-23.9673,0.00194104,-0.00321871,-0.00634556,0,0,3.3775,-0.0875,-0.1925,-0.004392,-0.41297,-0.925492,-0.04998,0.252,0.34314
-16.2481,0,0,21.2481,21.2481,5,5,24.9972,1.94038,-23.9808,0.00190105,-0.00322576,-0.00634377,0,0,3.3775,-0.14,-0.1575,-0.004392,-0.41297,-0.925492,-0.0448,0.25368,0.34286
-16.2457,0,0,21.2457,21.2457,5,5,24.9934,1.93998,-23.994,-0.000157235,-0.00316208,-0.0151685,0,0,3.5175,-0.28,-0.1925,-0.006466,-0.412848,-0.934276,-0.0448,0.25368,0.34286
-16.2435,0,0,21.2435,21.2435,5,5,24.9901,1.93966,-24.007,-0.000151625,-0.00321553,-0.0151434,0,0,3.6575,-0.2275,-0.1925,-0.006466,-0.412848,-0.934276,-0.0448,0.25368,0.34286
-16.2438,0,0,21.2438,21.2438,5,5,24.9905,1.941,-24.0199,0.00140441,-0.00479602,-0.009492,0,0,3.745,-0.21,-0.2275,-0.00488,-0.414434,-0.928664,-0.0448,0.25368,0.34286
-16.2442,0,0,21.2442,21.2442,5,5,24.9911,1.9422,-24.0325,0.00138347,-0.00478734,-0.00949683,0,0,3.7975,-0.2275,-0.1225,-0.00488,-0.414434,-0.928664,-0.0448,0.25368,0.34286
-16.2464,0,0,21.2464,21.2464,5,5,24.9945,1.94722,-24.0458,0.00421154,-0.00583424,-0.00325409,0,0,3.57,-0.0525,-0.175,-0.001952,-0.415532,-0.922442,-0.0448,0.25368,0.34286
-16.2484,0,0,21.2484,21.2484,5,5,24.9975,1.95206,-24.0592,0.00412711,-0.00578719,-0.00327919,0,0,3.4125,-0.1225,-0.2275,-0.001952,-0.415532,-0.922442,-0.0448,0.25368,0.34286
-16.2507,0,0,21.2507,21.2507,5,5,25.001,1.95742,-24.0727,0.00451948,-0.00622173,-0.00318494,0,0,3.4475,-0.0875,-0.245,-0.001464,-0.41602,-0.92232,-0.0448,0.25368,0.34286
-16.2532,0,0,21.2532,21.2532,5,5,25.0049,1.96306,-24.086,0.0044212,-0.00616215,-0.00321643,0,0,3.675,0.1225,-0.3325,-0.001464,-0.41602,-0.92232,-0.0448,0.25368,0.34286
-16.2534,0,0,21.2534,21.2534,5,5,25.0052,1.96082,-24.0867,-0.00161399,-0.00420231,-0.00936509,0,0,3.6225,0.105,-0.315,-0.007564,-0.414068,-0.92842,-0.04774,0.25046,0.3486
-16.2496,0,0,21.2496,21.2496,5,5,24.9994,1.9652,-24.0924,0.00256157,-0.00160932,-0.0159635,0,0,3.6225,0.0875,-0.2975,-0.003294,-0.411384,-0.935008,-0.04774,0.25046,0.3486
-16.2492,0,0,21.2492,21.2492,5,5,24.9988,1.96297,-24.0934,-0.00140864,-0.00393803,-0.0103025,0,0,3.5175,-0.07,-0.1925,-0.00732,-0.413702,-0.929396,-0.04774,0.25046,0.3486
-16.2484,0,0,21.2484,21.2484,5,5,24.9976,1.96441,-24.0965,0.00123899,-0.00298076,-0.00918769,0,0,3.675,-0.1575,-0.0875,-0.004636,-0.412726,-0.928298,-0.04774,0.25046,0.3486
-16.2503,0,0,21.2503,21.2503,5,5,25.0005,1.96106,-24.0964,-0.00149676,-0.00647546,-0.00883854,0,0,3.7275,-0.2975,-0.105,-0.007442,-0.416264,-0.927932,-0.04774,0.25046,0.3486
-16.2512,0,0,21.2512,21.2512,5,5,25.0018,1.95808,-24.0968,-0.00168776,-0.0034005,-0.00589598,0,0,3.745,-0.245,-0.1925,-0.007686,-0.413214,-0.925004,-0.04774,0.25046,0.3486
-16.2512,0,0,21.2512,21.2512,5,5,25.0018,1.95352,-24.0965,-0.00330904,-0.00388779,-0.0106885,0,0,3.745,0.0525,-0.35,-0.009394,-0.413702,-0.929762,-0.04774,0.25046,0.3486
-16.2512,0,0,21.2512,21.2512,5,5,25.0018,1.94907,-24.0962,-0.00323145,-0.00388683,-0.0106861,0,0,3.745,0.0525,-0.35,-0.009394,-0.413702,-0.929762,-0.04774,0.25046,0.3486
-16.2515,0,0,21.2515,21.2515,5,5,25.0023,1.94844,-24.1033,-0.000426272,-0.00387923,-0.00823023,0,0,3.7275,0.0175,-0.385,-0.006588,-0.413702,-0.927322,-0.04662,0.25228,0.34272
-16.2499,0,0,21.2499,21.2499,5,5,24.9999,1.94598,-24.1101,-0.00208402,-0.00342758,-0.0146048,0,0,3.7625,0.07,-0.42,-0.008296,-0.413214,-0.933666,-0.04662,0.25228,0.34272
-16.2486,0,0,21.2486,21.2486,5,5,24.9979,1.94358,-24.1164,-0.00204231,-0.00345921,-0.0145884,0,0,3.92,0.1925,-0.1925,-0.008296,-0.413214,-0.933666,-0.04662,0.25228,0.34272
-16.2511,0,0,21.2511,21.2511,5,5,25.0016,1.93964,-24.1207,-0.00245948,-0.00425372,-0.00342571,0,0,3.9375,0,-0.2275,-0.008784,-0.414068,-0.922564,-0.04662,0.25228,0.34272
-16.2533,0,0,21.2533,21.2533,5,5,25.0051,1.93617,-24.125,-0.00239891,-0.00419821,-0.00344934,0,0,3.815,0.1925,-0.315,-0.008784,-0.414068,-0.922564,-0.04662,0.25228,0.34272
-16.255,0,0,21.255,21.255,5,5,25.0077,1.9355,-24.1307,-0.000322064,-0.00391313,-0.00346795,0,0,3.71,0.1225,-0.21,-0.00671,-0.413824,-0.922564,-0.04662,0.25228,0.34272
-16.2565,0,0,21.2565,21.2565,5,5,25.0099,1.93458,-24.1365,-0.000305939,-0.00387706,-0.00348418,0,0,3.57,-0.07,-0.2275,-0.00671,-0.413824,-0.922564,-0.04662,0.25228,0.34272
-16.2604,0,0,21.2604,21.2604,5,5,25.0159,1.93322,-24.1411,-0.000282216,-0.00524736,0.00212791,0,0,3.5175,-0.035,-0.245,-0.00671,-0.415288,-0.916952,-0.04662,0.25228,0.34272
-16.2639,0,0,21.2639,21.2639,5,5,25.0214,1.93166,-24.1383,-0.000254959,-0.00516102,0.00208863,0,0,3.2725,-0.1925,-0.1925,-0.00671,-0.415288,-0.916952,-0.05068,0.25018,0.34398
-16.2637,0,0,21.2637,21.2637,5,5,25.021,1.92808,-24.1362,-0.00201476,-0.0030897,-0.00798856,0,0,3.4475,-0.385,-0.0875,-0.00854,-0.413214,-0.926956,-0.05068,0.25018,0.34398
-16.2635,0,0,21.2635,21.2635,5,5,25.0208,1.92488,-24.1337,-0.00195906,-0.00309307,-0.00798493,0,0,3.5,-0.14,0.0175,-0.00854,-0.413214,-0.926956,-0.05068,0.25018,0.34398
-16.2655,0,0,21.2655,21.2655,5,5,25.0238,1.92616,-24.1326,0.00154175,-0.00646487,-0.00665561,0,0,3.605,0,-0.035,-0.005002,-0.41663,-0.925614,-0.05068,0.25018,0.34398
-16.2673,0,0,21.2673,21.2673,5,5,25.0266,1.92709,-24.1317,0.00152556,-0.00642096,-0.00667671,0,0,3.5,-0.245,-0.105,-0.005002,-0.41663,-0.925614,-0.05068,0.25018,0.34398
-16.2705,0,0,21.2705,21.2705,5,5,25.0316,1.92959,-24.1311,0.00281826,-0.00634252,-0.00130522,0,0,3.5875,-0.28,-0.105,-0.00366,-0.41663,-0.920246,-0.05068,0.25018,0.34398
-16.2738,0,0,21.2738,21.2738,5,5,25.0367,1.93213,-24.1306,0.002774,-0.00626297,-0.00134402,0,0,3.675,-0.245,-0.14,-0.00366,-0.41663,-0.920246,-0.05068,0.25018,0.34398
-16.2761,0,0,21.2761,21.2761,5,5,25.0401,1.9383,-24.1324,0.00509598,-0.00449975,-0.000266464,0,0,3.7275,-0.2625,-0.21,-0.00122,-0.414922,-0.919148,-0.05068,0.25018,0.34398
-16.2783,0,0,21.2783,21.2783,5,5,25.0435,1.9445,-24.1261,0.00498781,-0.00444865,-0.000294387,0,0,3.675,-0.175,-0.21,-0.00122,-0.414922,-0.919148,-0.05026,0.24556,0.34804
-16.2784,0,0,21.2784,21.2784,5,5,25.0438,1.93935,-24.1148,-0.0035478,-0.00419857,-0.0101296,0,0,3.57,0.0175,-0.1925,-0.009882,-0.414678,-0.928908,-0.05026,0.24556,0.34804
-16.2787,0,0,21.2787,21.2787,5,5,25.0442,1.93435,-24.1036,-0.00346058,-0.00419072,-0.01013,0,0,3.6575,0.0175,-0.2275,-0.009882,-0.414678,-0.928908,-0.05026,0.24556,0.34804
-16.2781,0,0,21.2781,21.2781,5,5,25.0432,1.93597,-24.0962,0.00112763,-0.0029852,-0.0082795,0,0,3.5875,-0.0175,-0.2975,-0.005246,-0.413458,-0.927078,-0.05026,0.24556,0.34804
-16.2775,0,0,21.2775,21.2775,5,5,25.0424,1.93754,-24.089,0.00110019,-0.00299867,-0.00827424,0,0,3.6575,-0.0525,-0.3675,-0.005246,-0.413458,-0.927078,-0.05026,0.24556,0.34804
-16.2792,0,0,21.2792,21.2792,5,5,25.045,1.93996,-24.0811,0.00178695,-0.00295856,-0.000302898,0,0,3.6925,0.0875,-0.28,-0.004514,-0.413458,-0.919148,-0.05026,0.24556,0.34804
-16.2809,0,0,21.2809,21.2809,5,5,25.0475,1.94233,-24.0733,0.00174568,-0.00291906,-0.000322903,0,0,3.6925,0.0875,-0.28,-0.004514,-0.413458,-0.919148,-0.05026,0.24556,0.34804
-16.2815,0,0,21.2815,21.2815,5,5,25.0485,1.93812,-24.063,-0.00291891,-0.00351239,-0.00721336,0,0,3.71,-0.0175,-0.3325,-0.009272,-0.414068,-0.92598,-0.05026,0.24556,0.34804
-16.2822,0,0,21.2822,21.2822,5,5,25.0495,1.93403,-24.0637,-0.00284758,-0.00349571,-0.00721849,0,0,3.71,-0.0175,-0.3325,-0.009272,-0.414068,-0.92598,-0.04774,0.25074,0.3458
-16.2831,0,0,21.2831,21.2831,5,5,25.0509,1.93259,-24.0657,-0.00063573,-0.00518372,-0.00796542,0,0,3.4475,-0.14,-0.385,-0.007076,-0.415776,-0.926712,-0.04774,0.25074,0.3458
-16.2839,0,0,21.2839,21.2839,5,5,25.0522,1.93119,-24.0677,-0.000611311,-0.00516243,-0.00797446,0,0,3.4475,-0.14,-0.385,-0.007076,-0.415776,-0.926712,-0.04774,0.25074,0.3458
-16.2825,0,0,21.2825,21.2825,5,5,25.05,1.93285,-24.0725,0.00118203,-0.00153432,-0.00771296,0,0,3.535,-0.28,-0.4375,-0.005246,-0.412116,-0.926468,-0.04774,0.25074,0.3458
-16.2811,0,0,21.2811,21.2811,5,5,25.0478,1.93446,-24.0771,0.00115393,-0.00156926,-0.00769768,0,0,3.535,-0.28,-0.4375,-0.005246,-0.412116,-0.926468,-0.04774,0.25074,0.3458
-16.2794,0,0,21.2794,21.2794,5,5,25.0452,1.93316,-24.0798,-0.00113153,-0.00270842,-0.012842,0,0,3.71,0.0175,-0.21,-0.007564,-0.413214,-0.931592,-0.04774,0.25074,0.3458
-16.2816,0,0,21.2816,21.2816,5,5,25.0486,1.92856,-24.0794,-0.00263056,-0.00729505,-0.00991354,0,0,3.6925,-0.0875,-0.2275,-0.00915,-0.41785,-0.928664,-0.04774,0.25074,0.3458
-16.2837,0,0,21.2837,21.2837,5,5,25.0518,1.9242,-24.0789,-0.00255462,-0.00724301,-0.00993504,0,0,3.6575,0.035,-0.14,-0.00915,-0.41785,-0.928664,-0.04774,0.25074,0.3458
-16.2812,0,0,21.2812,21.2812,5,5,25.048,1.92172,-24.08,-0.00190392,-0.00131863,-0.0124874,0,0,3.57,-0.1925,-0.175,-0.00854,-0.411872,-0.931226,-0.04634,0.24976,0.34944
-16.2786,0,0,21.2786,21.2786,5,5,25.044,1.91946,-24.0811,-0.00186453,-0.00138049,-0.012457,0,0,3.465,-0.0875,-0.1925,-0.00854,-0.411872,-0.931226,-0.04634,0.24976,0.34944
-16.2778,0,0,21.2778,21.2778,5,5,25.0427,1.92283,-24.0843,0.00257172,-0.003234,-0.00876065,0,0,3.535,-0.105,-0.1575,-0.004026,-0.413702,-0.927566,-0.04634,0.24976,0.34944
-16.2769,0,0,21.2769,21.2769,5,5,25.0414,1.92611,-24.0874,0.00251449,-0.00325504,-0.00875294,0,0,3.535,-0.105,-0.1575,-0.004026,-0.413702,-0.927566,-0.04634,0.24976,0.34944
-16.2748,0,0,21.2748,21.2748,5,5,25.0382,1.92941,-24.0913,0.00221402,-0.00220812,-0.0115585,0,0,3.64,-0.07,-0.245,-0.00427,-0.412604,-0.930372,-0.04634,0.24976,0.34944
-16.2771,0,0,21.2771,21.2771,5,5,25.0417,1.9308,-24.0926,0.00170385,-0.008381,-0.0102329,0,0,3.78,-0.07,-0.3675,-0.004758,-0.418826,-0.92903,-0.04634,0.24976,0.34944
-16.2793,0,0,21.2793,21.2793,5,5,25.0451,1.93234,-24.0938,0.00167691,-0.00832781,-0.0102588,0,0,3.7275,0.0525,-0.35,-0.004758,-0.418826,-0.92903,-0.04634,0.24976,0.34944
-16.2765,0,0,21.2765,21.2765,5,5,25.0408,1.93286,-24.0965,-3.29913e-05,-0.00241136,-0.0157602,0,0,3.7275,0.035,-0.3325,-0.006466,-0.412848,-0.93452,-0.04634,0.24976,0.34944
-16.2735,0,0,21.2735,21.2735,5,5,25.0361,1.93362,-24.0991,-4.61674e-05,-0.00248609,-0.0157257,0,0,3.43,0.2625,-0.21,-0.006466,-0.412848,-0.93452,-0.04452,0.24906,0.35028
-16.2743,0,0,21.2743,21.2743,5,5,25.0374,1.9391,-24.1027,0.00398876,-0.0036887,-0.00295137,0,0,3.465,0.14,-0.245,-0.002318,-0.414068,-0.921832,-0.04452,0.24906,0.35028
-16.2752,0,0,21.2752,21.2752,5,5,25.0388,1.94408,-24.1066,0.00390179,-0.00366764,-0.00296446,0,0,3.5525,-0.105,-0.2625,-0.002318,-0.414068,-0.921832,-0.04452,0.24906,0.35028
-16.2751,0,0,21.2751,21.2751,5,5,25.0387,1.94537,-24.1089,0.00120663,-0.00525758,-0.0115706,0,0,3.6575,-0.0525,-0.2275,-0.005002,-0.415654,-0.930372,-0.04452,0.24906,0.35028
-16.275,0,0,21.275,21.275,5,5,25.0385,1.94644,-24.1112,0.00118795,-0.00526019,-0.0115701,0,0,3.64,-0.14,-0.1575,-0.005002,-0.415654,-0.930372,-0.04452,0.24906,0.35028
-16.274,0,0,21.274,21.274,5,5,25.0369,1.9466,-24.1134,0.000334876,-0.00333174,-0.0108206,0,0,3.57,-0.21,-0.1925,-0.005856,-0.413702,-0.92964,-0.04452,0.24906,0.35028
-16.2729,0,0,21.2729,21.2729,5,5,25.0353,1.94705,-24.1155,0.000326919,-0.00335781,-0.0108087,0,0,3.535,0,-0.175,-0.005856,-0.413702,-0.92964,-0.04452,0.24906,0.35028
-16.273,0,0,21.273,21.273,5,5,25.0354,1.94812,-24.1176,0.00103726,-0.00482123,-0.00970383,0,0,3.57,-0.0525,-0.2275,-0.005124,-0.415166,-0.928542,-0.04452,0.24906,0.35028
-16.2732,0,0,21.2732,21.2732,5,5,25.0356,1.94943,-24.1223,0.00101432,-0.00481807,-0.00970617,0,0,3.605,0.1575,-0.1575,-0.005124,-0.415166,-0.928542,-0.04718,0.2513,0.34412
-16.2749,0,0,21.2749,21.2749,5,5,25.0384,1.94589,-24.1241,-0.00196104,-0.00514056,-0.00554411,0,0,3.4825,-0.0875,-0.07,-0.008174,-0.415532,-0.924394,-0.04718,0.2513,0.34412
-16.2767,0,0,21.2767,21.2767,5,5,25.041,1.94274,-24.1259,-0.00190601,-0.00509728,-0.00556226,0,0,3.5,0.0525,-0.175,-0.008174,-0.415532,-0.924394,-0.04718,0.2513,0.34412
-16.2746,0,0,21.2746,21.2746,5,5,25.0378,1.94439,-24.1318,0.000980815,-0.00172931,-0.0111949,0,0,3.675,-0.035,-0.1575,-0.005246,-0.412116,-0.930006,-0.04718,0.2513,0.34412
-16.2726,0,0,21.2726,21.2726,5,5,25.0347,1.9456,-24.1377,0.000959672,-0.00177832,-0.0111728,0,0,3.7275,-0.2625,-0.105,-0.005246,-0.412116,-0.930006,-0.04718,0.2513,0.34412
-16.2722,0,0,21.2722,21.2722,5,5,25.0341,1.94307,-24.1409,-0.00154742,-0.00239744,-0.00747871,0,0,3.6225,-0.2275,-0.0875,-0.007808,-0.412726,-0.926346,-0.04718,0.2513,0.34412
-16.2719,0,0,21.2719,21.2719,5,5,25.0337,1.94056,-24.1442,-0.00150362,-0.00240445,-0.0074738,0,0,3.675,-0.2625,-0.105,-0.007808,-0.412726,-0.926346,-0.04718,0.2513,0.34412
-16.2699,0,0,21.2699,21.2699,5,5,25.0306,1.94014,-24.1494,-3.84837e-05,-0.00196369,-0.0110167,0,0,3.5175,-0.42,-0.175,-0.006344,-0.412238,-0.929884,-0.04718,0.2513,0.34412
-16.2682,0,0,21.2682,21.2682,5,5,25.028,1.93999,-24.1543,-3.58927e-05,-0.00200565,-0.010997,0,0,3.6925,-0.245,-0.175,-0.006344,-0.412238,-0.929884,-0.04718,0.2513,0.34412
-16.2673,0,0,21.2673,21.2673,5,5,25.0266,1.94112,-24.1629,0.00103786,-0.00520295,-0.014553,0,0,3.6925,-0.0875,-0.21,-0.005246,-0.41541,-0.933422,-0.04634,0.25326,0.34524
-16.2693,0,0,21.2693,21.2693,5,5,25.0297,1.94135,-24.1702,0.000790828,-0.00417672,-0.00215834,0,0,3.6925,-0.2625,-0.28,-0.00549,-0.414434,-0.9211,-0.04634,0.25326,0.34524
-16.2713,0,0,21.2713,21.2713,5,5,25.0328,1.94159,-24.1771,0.000786594,-0.00412828,-0.00218112,0,0,3.6925,-0.21,-0.175,-0.00549,-0.414434,-0.9211,-0.04634,0.25326,0.34524
-16.2725,0,0,21.2725,21.2725,5,5,25.0346,1.9408,-24.1837,-5.00063e-05,-0.00544357,-0.0082182,0,0,3.6575,-0.1225,-0.175,-0.006344,-0.415776,-0.927078,-0.04634,0.25326,0.34524
-16.2733,0,0,21.2733,21.2733,5,5,25.0358,1.94009,-24.1902,-3.75891e-05,-0.00542342,-0.00822715,0,0,3.395,-0.0875,-0.175,-0.006344,-0.415776,-0.927078,-0.04634,0.25326,0.34524
-16.2719,0,0,21.2719,21.2719,5,5,25.0337,1.94392,-24.1999,0.00293278,-0.00399213,-0.0114103,0,0,3.3775,-0.1225,-0.2275,-0.003294,-0.414312,-0.93025,-0.04634,0.25326,0.34524
-16.2707,0,0,21.2707,21.2707,5,5,25.0318,1.94756,-24.2096,0.00286921,-0.00402314,-0.0113982,0,0,3.465,-0.21,-0.2975,-0.003294,-0.414312,-0.93025,-0.04634,0.25326,0.34524
-16.269,0,0,21.269,21.269,5,5,25.0292,1.94275,-24.2085,-0.00348564,-0.00259801,-0.0135893,0,0,3.64,-0.21,-0.2975,-0.00976,-0.412848,-0.932446,-0.04676,0.24934,0.3465
-16.2676,0,0,21.2676,21.2676,5,5,25.027,1.94062,-24.2086,-0.00138313,-0.00250917,-0.0116052,0,0,3.71,-0.28,-0.21,-0.007686,-0.412726,-0.930494,-0.04676,0.24934,0.3465
-16.266,0,0,21.266,21.266,5,5,25.0246,1.93853,-24.2085,-0.00134674,-0.00254679,-0.0115863,0,0,3.535,-0.2275,-0.105,-0.007686,-0.412726,-0.930494,-0.04676,0.24934,0.3465
-16.266,0,0,21.266,21.266,5,5,25.0246,1.93606,-24.2073,-0.00166802,-0.00266925,-0.00666655,0,0,3.5525,-0.035,-0.0875,-0.008052,-0.412848,-0.925614,-0.04676,0.24934,0.3465
-16.266,0,0,21.266,21.266,5,5,25.0246,1.93358,-24.2062,-0.00162491,-0.00266727,-0.00666587,0,0,3.64,-0.0875,-0.1225,-0.008052,-0.412848,-0.925614,-0.04676,0.24934,0.3465
-16.2638,0,0,21.2638,21.2638,5,5,25.0213,1.93769,-24.2092,0.0029199,-0.00186682,-0.0110693,0,0,3.6925,-0.105,-0.0525,-0.003416,-0.411994,-0.930006,-0.04676,0.24934,0.3465
-16.2616,0,0,21.2616,21.2616,5,5,25.0178,1.94193,-24.2126,0.0028459,-0.00192278,-0.0110459,0,0,3.605,-0.07,-0.315,-0.003416,-0.411994,-0.930006,-0.04676,0.24934,0.3465
-16.2607,0,0,21.2607,21.2607,5,5,25.0164,1.94262,-24.2137,0.000404147,-0.00377627,-0.0111592,0,0,3.57,0,-0.4375,-0.005856,-0.413824,-0.930128,-0.04676,0.24934,0.3465
-16.2597,0,0,21.2597,21.2597,5,5,25.0149,1.94335,-24.2265,0.000391427,-0.00380042,-0.0111485,0,0,3.465,0.07,-0.35,-0.005856,-0.413824,-0.930128,-0.04732,0.25634,0.34174
-16.2603,0,0,21.2603,21.2603,5,5,25.0159,1.9459,-24.2394,0.00229082,-0.00598365,-0.00968176,0,0,3.5525,-0.035,-0.175,-0.003904,-0.41602,-0.928664,-0.04732,0.25634,0.34174
-16.2612,0,0,21.2612,21.2612,5,5,25.0172,1.9484,-24.2522,0.00224724,-0.00596431,-0.00969242,0,0,3.71,-0.035,-0.1925,-0.003904,-0.41602,-0.928664,-0.04732,0.25634,0.34174
-16.262,0,0,21.262,21.262,5,5,25.0184,1.94597,-24.2624,-0.00147656,-0.00496711,-0.00933141,0,0,3.7275,0,-0.1925,-0.007686,-0.415044,-0.928298,-0.04732,0.25634,0.34174
-16.2627,0,0,21.2627,21.2627,5,5,25.0195,1.9435,-24.2727,-0.00143347,-0.00494894,-0.00933827,0,0,3.675,-0.0875,-0.2275,-0.007686,-0.415044,-0.928298,-0.04732,0.25634,0.34174
-16.2626,0,0,21.2626,21.2626,5,5,25.0193,1.94732,-24.2865,0.00311633,-0.00519738,-0.0108142,0,0,3.675,-0.175,-0.3675,-0.00305,-0.415288,-0.929762,-0.04732,0.25634,0.34174
-16.2625,0,0,21.2625,21.2625,5,5,25.0192,1.95127,-24.3,0.00304743,-0.00520069,-0.0108152,0,0,3.6925,0.0175,-0.2625,-0.00305,-0.415288,-0.929762,-0.04732,0.25634,0.34174
-16.2618,0,0,21.2618,21.2618,5,5,25.0181,1.94963,-24.3105,-0.0011758,-0.00546152,-0.0148637,0,0,3.5525,0.1225,-0.1925,-0.00732,-0.415532,-0.933788,-0.04732,0.25634,0.34174
-16.2612,0,0,21.2612,21.2612,5,5,25.0173,1.94801,-24.3211,-0.0011476,-0.00547401,-0.0148568,0,0,3.6925,0.0875,-0.2625,-0.00732,-0.415532,-0.933788,-0.04732,0.25634,0.34174
-16.26,0,0,21.26,21.26,5,5,25.0154,1.95248,-24.3342,0.00326943,-0.00489476,-0.0147222,0,0,3.8325,0.0175,-0.2625,-0.002806,-0.414922,-0.933666,-0.04536,0.25522,0.34454
-16.2593,0,0,21.2593,21.2593,5,5,25.0144,1.9483,-24.3429,-0.00261056,-0.0028336,-0.00881092,0,0,3.36,-0.3675,-0.1575,-0.008784,-0.412848,-0.92781,-0.04536,0.25522,0.34454
-16.2589,0,0,21.2589,21.2589,5,5,25.0137,1.94462,-24.3516,-0.00254639,-0.00284375,-0.00880377,0,0,3.535,-0.175,-0.2975,-0.008784,-0.412848,-0.92781,-0.04536,0.25522,0.34454
-16.2571,0,0,21.2571,21.2571,5,5,25.011,1.9481,-24.3643,0.00249534,-0.00300954,-0.0124741,0,0,3.7625,-0.1225,-0.2625,-0.00366,-0.41297,-0.93147,-0.04536,0.25522,0.34454
-16.2555,0,0,21.2555,21.2555,5,5,25.0084,1.95144,-24.3768,0.00243716,-0.00305018,-0.0124574,0,0,3.8325,-0.1225,-0.1925,-0.00366,-0.41297,-0.93147,-0.04536,0.25522,0.34454
-16.2549,0,0,21.2549,21.2549,5,5,25.0075,1.95152,-24.3876,0.000248946,-0.0036749,-0.0107296,0,0,3.7625,-0.245,-0.42,-0.005856,-0.41358,-0.929762,-0.04536,0.25522,0.34454
-16.2542,0,0,21.2542,21.2542,5,5,25.0064,1.95162,-24.3982,0.000247282,-0.00369263,-0.0107214,0,0,3.6225,-0.21,-0.3675,-0.005856,-0.41358,-0.929762,-0.04536,0.25522,0.34454
-16.2524,0,0,21.2524,21.2524,5,5,25.0037,1.9556,-24.4003,0.00285052,-0.0023933,-0.0105805,0,0,3.6575,-0.0875,-0.14,-0.003172,-0.412238,-0.92964,-0.05054,0.25186,0.34622
-16.2528,0,0,21.2528,21.2528,5,5,25.0044,1.95134,-24.3975,-0.00254203,-0.00470209,-0.0098454,0,0,3.5525,-0.21,-0.0525,-0.008662,-0.414556,-0.928908,-0.05054,0.25186,0.34622
-16.2536,0,0,21.2536,21.2536,5,5,25.0055,1.94703,-24.3949,-0.0024669,-0.00468308,-0.00985144,0,0,3.8325,-0.3325,-0.105,-0.008662,-0.414556,-0.928908,-0.05054,0.25186,0.34622
-16.2554,0,0,21.2554,21.2554,5,5,25.0084,1.94749,-24.3941,0.00104819,-0.00622559,-0.00790562,0,0,3.9025,-0.1925,-0.175,-0.005124,-0.416142,-0.926956,-0.05054,0.25186,0.34622
-16.257,0,0,21.257,21.257,5,5,25.0108,1.94809,-24.3934,0.00103769,-0.00618725,-0.0079239,0,0,3.6925,-0.14,-0.2625,-0.005124,-0.416142,-0.926956,-0.05054,0.25186,0.34622
-16.2565,0,0,21.2565,21.2565,5,5,25.0099,1.9459,-24.3921,-0.00159667,-0.00302487,-0.00914592,0,0,3.535,-0.07,-0.35,-0.007808,-0.41297,-0.928176,-0.05054,0.25186,0.34622
-16.2559,0,0,21.2559,21.2559,5,5,25.0091,1.94376,-24.3908,-0.00155947,-0.00303816,-0.00913833,0,0,3.5175,-0.0525,-0.3325,-0.007808,-0.41297,-0.928176,-0.05054,0.25186,0.34622
-16.2574,0,0,21.2574,21.2574,5,5,25.0113,1.9399,-24.3941,0.00300281,-0.00788646,-0.0102595,0,0,3.535,-4.4625,-0.14,-0.003294,-0.41785,-0.929274,-0.05054,0.25186,0.34622
-16.2588,0,0,21.2588,21.2588,5,5,25.0136,1.93611,-24.4089,0.00306905,-0.00785028,-0.0102739,0,0,3.535,-4.4625,-0.14,-0.003294,-0.41785,-0.929274,-0.04704,0.25774,0.3486
-16.258,0,0,21.258,21.258,5,5,25.0122,1.93376,-24.4192,-0.00138492,-0.00322968,-0.010017,0,0,3.4125,-0.3675,-0.35,-0.007808,-0.413214,-0.92903,-0.04704,0.25774,0.3486
-16.2571,0,0,21.2571,21.2571,5,5,25.0109,1.93146,-24.4293,-0.00134482,-0.00324966,-0.0100062,0,0,3.4125,-0.3675,-0.35,-0.007808,-0.413214,-0.92903,-0.04704,0.25774,0.3486
-16.2598,0,0,21.2598,21.2598,5,5,25.0151,1.92645,-24.4363,-0.00283674,-0.00696912,-0.00745209,0,0,3.675,-0.14,-0.1925,-0.009394,-0.416996,-0.926468,-0.04704,0.25774,0.3486
-16.2624,0,0,21.2624,21.2624,5,5,25.0191,1.92157,-24.4432,-0.00275168,-0.00690412,-0.00747926,0,0,3.675,-0.14,-0.1925,-0.009394,-0.416996,-0.926468,-0.04704,0.25774,0.3486
-16.262,0,0,21.262,21.262,5,5,25.0185,1.91794,-24.4519,-0.00244534,-0.00251709,-0.0090708,0,0,3.7975,-0.2275,-0.1575,-0.00915,-0.412604,-0.928054,-0.04704,0.25774,0.3486
-16.2619,0,0,21.2619,21.2619,5,5,25.0183,1.91959,-24.4628,0.00153485,-0.00300769,-0.00612013,0,0,3.57,-0.21,-0.14,-0.005124,-0.413092,-0.925126,-0.04704,0.25774,0.3486
-16.2619,0,0,21.2619,21.2619,5,5,25.0184,1.9212,-24.4739,0.00150683,-0.00300782,-0.0061211,0,0,3.64,-0.28,-0.28,-0.005124,-0.413092,-0.925126,-0.04704,0.25774,0.3486
-16.2635,0,0,21.2635,21.2635,5,5,25.0207,1.92398,-24.4753,0.00279463,-0.00455893,-0.00404983,0,0,3.7625,-0.385,-0.21,-0.003782,-0.414678,-0.923052,-0.04816,0.25172,0.34664
-16.2647,0,0,21.2647,21.2647,5,5,25.0227,1.92683,-24.4767,0.00274499,-0.00452884,-0.00406572,0,0,3.5525,-0.315,-0.2275,-0.003782,-0.414678,-0.923052,-0.04816,0.25172,0.34664
