pid_x,pid_y,pid_z,front_left_speed,front_right_speed,back_left_speed,back_right_speed,orientation_x,orientation_y,orientation_z,acceleration_x,acceleration_y,acceleration_z,accel_rejected,mag_rejected,gyro_x,gyro_y,gyro_z,accel_x,accel_y,accel_z,mag_x,mag_y,mag_z
-0.335659,0,0,5.33566,5.33566,5,5,0.479514,-0.0474546,-0.236324,0.03586,-0.414867,0.0812955,0,0,3.71,-0.1225,-0.1925,-0.005124,-0.410652,-0.931958,-0.0406,0.245,0.33712
-0.665165,0,0,5.66517,5.66517,5,5,0.950236,-0.0917385,-0.471411,0.0366329,-0.406652,0.081192,0,0,3.57,-0.1925,-0.1925,-0.005124,-0.410652,-0.931958,-0.0406,0.245,0.33712
-0.986964,0,0,5.98696,5.98696,5,5,1.40995,-0.138215,-0.700062,0.0324631,-0.395822,0.0812711,0,0,3.5525,-0.035,-0.245,-0.010126,-0.407846,-0.931714,-0.0406,0.245,0.33712
-1.30306,0,0,6.30306,6.30306,5,5,1.86151,-0.181441,-0.927369,0.0332176,-0.387944,0.081044,0,0,3.6225,0.0175,-0.1925,-0.010126,-0.407846,-0.931714,-0.0406,0.245,0.33712
-1.61619,0,0,6.61619,6.61619,5,5,2.30885,-0.222901,-1.15274,0.0335767,-0.383195,0.0834622,0,0,3.5875,-0.0525,-0.28,-0.010492,-0.410896,-0.92903,-0.0406,0.245,0.33712
-1.92356,0,0,6.92356,6.92356,5,5,2.74795,-0.261255,-1.37675,0.0342461,-0.375539,0.0831213,0,0,3.5175,0.0175,-0.2625,-0.010492,-0.410896,-0.92903,-0.0406,0.245,0.33712
-2.2241,0,0,7.2241,7.2241,5,5,3.17728,-0.294714,-1.6098,0.0381102,-0.365369,0.0853131,0,0,3.4125,0,-0.2275,-0.007198,-0.408212,-0.926468,-0.0434,0.24934,0.33852
-2.51798,0,0,7.51798,7.51798,5,5,3.59711,-0.323249,-1.84326,0.040552,-0.360375,0.0760252,0,0,3.465,-0.175,-0.245,-0.005246,-0.41053,-0.935252,-0.0434,0.24934,0.33852
-2.8066,0,0,7.8066,7.8066,5,5,4.00943,-0.348762,-2.07521,0.0409973,-0.353195,0.0755453,0,0,3.57,0.0525,-0.3325,-0.005246,-0.41053,-0.935252,-0.0434,0.24934,0.33852
-3.08906,0,0,8.08906,8.08906,5,5,4.41294,-0.371001,-2.30595,0.0417499,-0.343851,0.0777306,0,0,3.535,0.0175,-0.2625,-0.00488,-0.408212,-0.932568,-0.0434,0.24934,0.33852
-3.36646,0,0,8.36646,8.36646,5,5,4.80922,-0.390912,-2.53496,0.0420974,-0.336957,0.0771723,0,0,3.6575,-0.0175,-0.245,-0.00488,-0.408212,-0.932568,-0.0434,0.24934,0.33852
-3.64028,0,0,8.64028,8.64028,5,5,5.20041,-0.410157,-2.76101,0.0414614,-0.332355,0.0769432,0,0,3.675,0.035,-0.3325,-0.005856,-0.410408,-0.932202,-0.0434,0.24934,0.33852
-3.90905,0,0,8.90905,8.90905,5,5,5.58436,-0.427153,-2.98536,0.041758,-0.325683,0.0763113,0,0,3.675,0.035,-0.3325,-0.005856,-0.410408,-0.932202,-0.0434,0.24934,0.33852
-4.17297,0,0,9.17297,9.17297,5,5,5.96139,-0.450895,-3.20046,0.0353692,-0.318038,0.078597,0,0,3.6575,0.07,-0.245,-0.012688,-0.40931,-0.929274,-0.0434,0.24934,0.33852
-4.43179,0,0,9.43179,9.43179,5,5,6.33112,-0.468506,-3.40239,0.0356765,-0.311622,0.0779037,0,0,3.6575,0.07,-0.245,-0.012688,-0.40931,-0.929274,-0.0427,0.2443,0.34356
-4.68496,0,0,9.68496,9.68496,5,5,6.6928,-0.474859,-3.61063,0.0430765,-0.305229,0.0757115,0,0,3.64,-0.28,-0.245,-0.005368,-0.409188,-0.930738,-0.0427,0.2443,0.34356
-4.93338,0,0,9.93338,9.93338,5,5,7.04768,-0.479516,-3.81714,0.0431578,-0.29908,0.07497,0,0,3.64,-0.28,-0.245,-0.005368,-0.409188,-0.930738,-0.0427,0.2443,0.34356
-5.17788,0,0,10.1779,10.1779,5,5,7.39697,-0.484231,-4.0203,0.0419038,-0.294376,0.0745717,0,0,3.4825,-0.0525,-0.315,-0.00671,-0.41053,-0.930372,-0.0427,0.2443,0.34356
-5.41794,0,0,10.4179,10.4179,5,5,7.73992,-0.486777,-4.22187,0.0419482,-0.286488,0.0779633,0,0,3.6925,0.1575,-0.35,-0.00671,-0.408578,-0.926224,-0.0427,0.2443,0.34356
-5.65337,0,0,10.6534,10.6534,5,5,8.07624,-0.48758,-4.42122,0.0419622,-0.280675,0.0771556,0,0,3.64,0.3325,-0.105,-0.00671,-0.408578,-0.926224,-0.0427,0.2443,0.34356
-5.88415,0,0,10.8842,10.8842,5,5,8.40593,-0.49106,-4.61566,0.0392288,-0.276812,0.0715353,0,0,3.7275,0.2625,-0.105,-0.009516,-0.410408,-0.930982,-0.0427,0.2443,0.34356
-6.11003,0,0,11.11,11.11,5,5,8.72862,-0.493651,-4.80863,0.039274,-0.271243,0.070696,0,0,3.3425,-0.0875,-0.1925,-0.009516,-0.410408,-0.930982,-0.0427,0.2443,0.34356
-6.33149,0,0,11.3315,11.3315,5,5,9.04498,-0.49324,-5.00483,0.0407247,-0.263468,0.0751299,0,0,3.255,0.035,-0.1225,-0.008052,-0.40809,-0.925736,-0.04634,0.24528,0.33558
-6.54861,0,0,11.5486,11.5486,5,5,9.35516,-0.492408,-5.19868,0.0399812,-0.259956,0.0687318,0,0,3.605,0.14,-0.35,-0.008784,-0.40992,-0.931226,-0.04634,0.24528,0.33558
-6.76143,0,0,11.7614,11.7614,5,5,9.65918,-0.490527,-5.3906,0.0399484,-0.254723,0.0678557,0,0,3.5,0.0175,-0.245,-0.008784,-0.40992,-0.931226,-0.04634,0.24528,0.33558
-6.97001,0,0,11.97,11.97,5,5,9.95715,-0.48639,-5.58154,0.0404836,-0.2474,0.0710277,0,0,3.64,-0.035,-0.245,-0.008174,-0.407724,-0.9272,-0.04634,0.24528,0.33558
-7.17468,0,0,12.1747,12.1747,5,5,10.2495,-0.480712,-5.77089,0.0403845,-0.242376,0.0701333,0,0,3.745,0.175,-0.4025,-0.008174,-0.407724,-0.9272,-0.04634,0.24528,0.33558
-7.3765,0,0,12.3765,12.3765,5,5,10.5379,-0.474056,-5.95826,0.0406328,-0.240846,0.065538,0,0,3.71,0.14,-0.315,-0.007808,-0.41114,-0.93086,-0.04634,0.24528,0.33558
-7.57428,0,0,12.5743,12.5743,5,5,10.8204,-0.466697,-6.14356,0.0405044,-0.236,0.0646253,0,0,3.605,-0.0175,-0.1225,-0.007808,-0.41114,-0.93086,-0.04634,0.24528,0.33558
-7.76654,0,0,12.7665,12.7665,5,5,11.0951,-0.456432,-6.3283,0.0411756,-0.229217,0.0632237,0,0,3.6225,0.14,-0.1925,-0.006954,-0.409066,-0.931348,-0.04634,0.24528,0.33558
-7.95464,0,0,12.9546,12.9546,5,5,11.3638,-0.445375,-6.5105,0.0409827,-0.224617,0.0623119,0,0,3.325,-0.0525,-0.2275,-0.006954,-0.409066,-0.931348,-0.04732,0.24458,0.33292
-8.14042,0,0,13.1404,13.1404,5,5,11.6292,-0.433977,-6.69043,0.0406622,-0.222154,0.0606526,0,0,3.43,0,-0.21,-0.007076,-0.41114,-0.93208,-0.04732,0.24458,0.33292
-8.32291,0,0,13.3229,13.3229,5,5,11.8899,-0.421398,-6.86853,0.0404427,-0.217699,0.0597268,0,0,3.71,0.2275,-0.2275,-0.007076,-0.41114,-0.93208,-0.04732,0.24458,0.33292
-8.50243,0,0,13.5024,13.5024,5,5,12.1463,-0.408787,-7.04442,0.0397367,-0.211123,0.0650668,0,0,3.815,0.1225,-0.1925,-0.007564,-0.408944,-0.925858,-0.04732,0.24458,0.33292
-8.67839,0,0,13.6784,13.6784,5,5,12.3977,-0.395417,-7.2186,0.0395033,-0.206835,0.0641359,0,0,3.78,0.14,-0.2275,-0.007564,-0.408944,-0.925858,-0.04732,0.24458,0.33292
-8.85029,0,0,13.8503,13.8503,5,5,12.6433,-0.382432,-7.3905,0.0385478,-0.202163,0.0627165,0,0,3.71,0.0525,-0.315,-0.008296,-0.408456,-0.926346,-0.04732,0.24458,0.33292
-9.01842,0,0,14.0184,14.0184,5,5,12.8835,-0.369306,-7.56071,0.0383187,-0.198074,0.0617918,0,0,3.395,-0.245,-0.2625,-0.008296,-0.408456,-0.926346,-0.04732,0.24458,0.33292
-9.18512,0,0,14.1851,14.1851,5,5,13.1216,-0.353457,-7.73046,0.0396214,-0.194512,0.0655304,0,0,3.465,-0.1925,-0.2275,-0.00671,-0.408944,-0.92171,-0.04732,0.24458,0.33292
-9.34852,0,0,14.3485,14.3485,5,5,13.355,-0.337165,-7.90147,0.039337,-0.190546,0.0645992,0,0,3.4125,0.1225,-0.2625,-0.00671,-0.408944,-0.92171,-0.04788,0.24766,0.33964
-9.52887,0,0,14.5289,14.5289,5,5,13.6127,-0.134084,-8.19852,0.162867,-0.200825,0.1109,0,0,3.605,0.0175,-0.245,0.120902,-0.423584,-0.87474,-0.04788,0.24766,0.33964
-9.7058,0,0,14.7058,14.7058,5,5,13.8654,0.064765,-8.49133,0.159396,-0.19654,0.109854,0,0,3.605,0.0175,-0.245,0.120902,-0.423584,-0.87474,-0.04788,0.24766,0.33964
-9.92795,0,0,14.9279,14.9279,5,5,14.1828,-0.146456,-8.49741,-0.0896076,-0.196662,0.191992,0,0,3.325,0.0175,-0.28,-0.132858,-0.429074,-0.791902,-0.04788,0.24766,0.33964
-9.92762,0,0,14.9276,14.9276,5,5,14.1823,-0.146338,-8.49744,-0.0896097,-0.19667,0.191994,1,0,3.325,0.0175,-0.28,-0.132858,-0.429074,-0.791902,-0.04788,0.24766,0.33964
-9.92739,0,0,14.9274,14.9274,5,5,14.182,-0.146135,-8.49707,0.126753,-0.192035,-0.111811,1,0,3.4125,0.1225,-0.07,0.084424,-0.424438,-1.09336,-0.04788,0.24766,0.33964
-10.0024,0,0,15.0024,15.0024,5,5,14.2891,-0.211837,-8.6062,-0.0289385,-0.0711504,0.0675998,0,0,3.4125,0.1925,-0.1225,-0.073078,-0.305488,-0.914878,-0.04788,0.24766,0.33964
-10.0765,0,0,15.0765,15.0765,5,5,14.3951,-0.27641,-8.71546,-0.0278115,-0.0693594,0.0671369,0,0,4.025,-0.525,-0.49,-0.073078,-0.305488,-0.914878,-0.04788,0.24766,0.33964
-10.1941,0,0,15.1941,15.1941,5,5,14.5631,0.0881934,-9.13544,0.252045,-0.119643,0.128134,0,0,4.025,-0.1225,-0.525,0.214354,-0.358558,-0.853634,-0.0434,0.25886,0.34454
-10.3096,0,0,15.3096,15.3096,5,5,14.728,0.443585,-9.55011,0.245843,-0.116865,0.127378,0,0,4.165,-0.455,-0.63,0.214354,-0.358558,-0.853634,-0.0434,0.25886,0.34454
-10.5345,0,0,15.5345,15.5345,5,5,15.0493,0.402221,-9.69223,0.0171995,-0.249204,0.111804,0,0,3.885,-0.245,-0.77,-0.015982,-0.496174,-0.867664,-0.0434,0.25886,0.34454
-10.6278,0,0,15.6278,15.6278,5,5,15.1826,0.32786,-9.81716,-0.0303399,-0.0997929,0.0507144,0,0,3.01,-0.0175,-1.0325,-0.065026,-0.349164,-0.927688,-0.0434,0.25886,0.34454
-10.7189,0,0,15.7189,15.7189,5,5,15.3127,0.256352,-9.94083,-0.0290919,-0.0976,0.0501233,0,0,2.765,0.1925,-0.875,-0.065026,-0.349164,-0.927688,-0.0434,0.25886,0.34454
-10.8678,0,0,15.8678,15.8678,5,5,15.5255,0.0667232,-9.97763,-0.0987952,-0.174865,0.0411532,0,0,3.0275,0.2275,-0.77,-0.138348,-0.429928,-0.935618,-0.0434,0.25886,0.34454
-11.0148,0,0,16.0148,16.0148,5,5,15.7354,-0.117717,-10.0149,-0.0955761,-0.171338,0.0401649,0,0,3.92,-0.21,-0.6125,-0.138348,-0.429928,-0.935618,-0.0434,0.25886,0.34454
-11.0833,0,0,16.0833,16.0833,5,5,15.8332,0.0971631,-10.3196,0.185315,-0.154673,-0.142632,0,0,3.92,-0.21,-0.4025,0.147498,-0.414922,-1.11654,-0.0434,0.25886,0.34454
-11.0834,0,0,16.0834,16.0834,5,5,15.8334,0.0963488,-10.3209,0.185329,-0.15467,-0.142633,1,0,3.6925,-0.7,-0.805,0.147498,-0.414922,-1.11654,-0.04284,0.26012,0.35364
-11.2028,0,0,16.2028,16.2028,5,5,16.004,-0.0671622,-10.3696,-0.0894122,-0.153394,-0.00279539,0,0,3.7625,-0.49,-0.7175,-0.131272,-0.416508,-0.976976,-0.04284,0.26012,0.35364
-11.3184,0,0,16.3184,16.3184,5,5,16.1692,-0.224886,-10.4176,-0.0866594,-0.150626,-0.00360086,0,0,2.7475,0.0525,-0.315,-0.131272,-0.416508,-0.976976,-0.04284,0.26012,0.35364
-11.4732,0,0,16.4732,16.4732,5,5,16.3904,-0.386795,-10.4564,-0.0637885,-0.0980742,0.212552,0,0,2.835,0.1575,-0.07,-0.111142,-0.367708,-0.761402,-0.04284,0.26012,0.35364
-11.473,0,0,16.473,16.473,5,5,16.39,-0.387098,-10.4561,-0.0637832,-0.0980795,0.212554,1,0,3.4125,-0.1575,0,-0.111142,-0.367708,-0.761402,-0.04284,0.26012,0.35364
-11.4728,0,0,16.4728,16.4728,5,5,16.3897,-0.386956,-10.4554,0.0795674,-0.00160419,0.186859,1,0,3.43,0.14,0.0875,0.032818,-0.271328,-0.7869,-0.04284,0.26012,0.35364
-11.473,0,0,16.473,16.473,5,5,16.39,-0.386973,-10.4536,0.0795677,-0.00159923,0.186858,1,0,3.7625,0.245,0.77,0.032818,-0.271328,-0.7869,-0.04284,0.26012,0.35364
-11.6511,0,0,16.6511,16.6511,5,5,16.6445,-0.139159,-10.7554,0.214465,-0.254413,0.0252896,0,0,3.5,0.245,0.6475,0.17263,-0.528138,-0.945988,-0.04284,0.26012,0.35364
-11.8257,0,0,16.8257,16.8257,5,5,16.8939,0.101427,-11.0573,0.210266,-0.250245,0.024035,0,0,3.2025,0.2975,0.98,0.17263,-0.528138,-0.945988,-0.04326,0.26726,0.371
-11.9059,0,0,16.9059,16.9059,5,5,17.0085,0.277182,-11.3249,0.137101,-0.115949,0.00438515,0,0,2.6075,0.1925,1.12,0.102236,-0.39589,-0.964898,-0.04326,0.26726,0.371
-11.9849,0,0,16.9849,16.9849,5,5,17.1213,0.447493,-11.5894,0.134129,-0.114073,0.00378947,0,0,2.8175,-0.5075,1.26,0.102236,-0.39589,-0.964898,-0.04326,0.26726,0.371
-11.9835,0,0,16.9835,16.9835,5,5,17.1192,0.446559,-11.5861,0.121146,0.0943634,0.181952,1,0,2.4325,0,1.75,0.089182,-0.187636,-0.78812,-0.04326,0.26726,0.371
-11.9833,0,0,16.9833,16.9833,5,5,17.119,0.444665,-11.5836,0.121179,0.0943591,0.181954,1,0,3.43,-0.665,1.505,0.089182,-0.187636,-0.78812,-0.04326,0.26726,0.371
-11.9835,0,0,16.9835,16.9835,5,5,17.1192,0.442909,-11.5816,0.883654,-0.15282,-0.338611,1,0,3.745,-0.6825,1.1725,0.854854,-0.434564,-1.30467,-0.04326,0.26726,0.371
-11.9854,0,0,16.9854,16.9854,5,5,17.1221,0.442,-11.5798,0.88367,-0.152773,-0.338626,1,0,5.1625,-0.245,0.91,0.854854,-0.434564,-1.30467,-0.04326,0.26726,0.371
-11.987,0,0,16.987,16.987,5,5,17.1243,0.442832,-11.5766,0.451045,-0.472464,0.0632815,1,0,4.83,0.98,1.4175,0.420412,-0.75396,-0.90585,-0.04326,0.26726,0.371
-11.9881,0,0,16.9881,16.9881,5,5,17.1258,0.442149,-11.5748,0.451057,-0.472438,0.0632737,1,0,4.445,-0.1225,0.8575,0.420412,-0.75396,-0.90585,-0.0427,0.27132,0.36946
-11.989,0,0,16.989,16.989,5,5,17.1272,0.441893,-11.5751,-0.449148,0.0528512,-0.0484934,1,0,4.34,-0.245,-0.385,-0.483608,-0.229238,-1.01675,-0.0427,0.27132,0.36946
-11.99,0,0,16.99,16.99,5,5,17.1285,0.441637,-11.5754,-0.449143,0.0528735,-0.0485002,1,0,4.34,-0.245,-0.385,-0.483608,-0.229238,-1.01675,-0.0427,0.27132,0.36946
-11.9894,0,0,16.9894,16.9894,5,5,17.1277,0.442242,-11.5761,-0.131712,-0.170022,-0.0481271,1,0,3.115,0.175,-0.735,-0.164822,-0.451888,-1.01638,-0.0427,0.27132,0.36946
-11.9888,0,0,16.9888,16.9888,5,5,17.1268,0.442848,-11.5768,-0.131722,-0.170036,-0.0481228,1,0,3.115,0.175,-0.735,-0.164822,-0.451888,-1.01638,-0.0427,0.27132,0.36946
-11.9874,0,0,16.9874,16.9874,5,5,17.1249,0.444276,-11.5797,0.0493882,-0.22759,-0.0843828,1,0,2.52,0.2625,-2.0825,0.01708,-0.50935,-1.05237,-0.0427,0.27132,0.36946
-11.9861,0,0,16.9861,16.9861,5,5,17.123,0.445704,-11.5825,0.0493632,-0.227622,-0.0843731,1,0,2.52,0.2625,-2.0825,0.01708,-0.50935,-1.05237,-0.0427,0.27132,0.36946
-12.29,0,0,17.29,17.29,5,5,17.5571,0.0836759,-11.4852,-0.189719,-0.359117,0.126835,0,0,4.095,0.315,-1.6625,-0.22936,-0.647942,-0.84058,-0.0427,0.27132,0.36946
-12.588,0,0,17.588,17.588,5,5,17.9829,-0.270157,-11.4027,-0.183544,-0.352044,0.124558,0,0,4.095,0.315,-1.6625,-0.22936,-0.647942,-0.84058,-0.04158,0.27566,0.36582
-12.7215,0,0,17.7215,17.7215,5,5,18.1736,-0.658341,-11.3087,-0.205561,-0.0870558,0.156668,0,0,4.585,-0.49,-1.61,-0.258274,-0.386374,-0.80764,-0.04158,0.27566,0.36582
-12.852,0,0,17.852,17.852,5,5,18.3599,-1.03563,-11.217,-0.198977,-0.083999,0.155557,0,0,4.585,-0.49,-1.61,-0.258274,-0.386374,-0.80764,-0.04158,0.27566,0.36582
-12.7386,0,0,17.7386,17.7386,5,5,18.1979,-0.896864,-11.4622,0.070365,0.125708,-0.052899,0,0,4.095,-0.7175,-0.6125,0.01464,-0.174216,-1.01541,-0.04158,0.27566,0.36582
-12.7379,0,0,17.7379,17.7379,5,5,18.197,-0.897995,-11.4634,-0.080136,-0.27244,-0.0584271,1,0,3.08,-0.8925,-0.7,-0.136518,-0.571936,-1.0209,-0.04158,0.27566,0.36582
-12.7369,0,0,17.7369,17.7369,5,5,18.1955,-0.898362,-11.4647,-0.0801296,-0.272465,-0.058419,1,0,2.73,-0.49,-0.91,-0.136518,-0.571936,-1.0209,-0.04158,0.27566,0.36582
-12.7348,0,0,17.7348,17.7348,5,5,18.1926,-0.898423,-11.465,-0.141843,-0.291444,-0.051026,1,0,1.925,-0.14,-0.42,-0.198494,-0.590846,-1.01358,-0.04158,0.27566,0.36582
-12.7333,0,0,17.7333,17.7333,5,5,18.1904,-0.897912,-11.4639,-0.141852,-0.291481,-0.0510138,1,0,2.3625,0.4375,0.2625,-0.198494,-0.590846,-1.01358,-0.04158,0.27566,0.36582
-12.7322,0,0,17.7322,17.7322,5,5,18.1889,-0.897904,-11.4632,-0.216688,-0.27917,-0.0331784,1,0,2.7825,0.0875,0.14,-0.273646,-0.578524,-0.995886,-0.04158,0.27566,0.36582
-12.7381,0,0,17.7381,17.7381,5,5,18.1973,-0.899248,-11.4629,-0.216664,-0.279031,-0.0332243,1,0,8.2775,-0.735,0.175,-0.273646,-0.578524,-0.995886,-0.03976,0.27454,0.36624
-12.8143,0,0,17.8143,17.8143,5,5,18.3062,-0.987107,-11.5547,-0.0384906,-0.0588717,0.0841871,0,0,5.0575,-0.8575,0.6125,-0.096258,-0.360388,-0.878766,-0.03976,0.27454,0.36624
-12.8893,0,0,17.8893,17.8893,5,5,18.4133,-1.07303,-11.6447,-0.0369913,-0.0571063,0.0835728,0,0,5.3375,-1.155,1.365,-0.096258,-0.360388,-0.878766,-0.03976,0.27454,0.36624
-12.8906,0,0,17.8906,17.8906,5,5,18.4152,-1.07524,-11.6437,0.042499,-0.0689211,-0.281104,1,0,4.6725,-1.085,0.735,-0.01647,-0.372222,-1.24062,-0.03976,0.27454,0.36624
-12.8894,0,0,17.8894,17.8894,5,5,18.4134,-1.07578,-11.642,0.0425083,-0.0689512,-0.281094,1,0,2.59,-0.035,0.77,-0.01647,-0.372222,-1.24062,-0.03976,0.27454,0.36624
-12.8874,0,0,17.8874,17.8874,5,5,18.4105,-1.07679,-11.6406,-0.130348,0.013681,-0.187392,1,0,1.995,-0.35,0.7175,-0.190076,-0.289628,-1.14765,-0.03976,0.27454,0.36624
-12.8849,0,0,17.8849,17.8849,5,5,18.407,-1.07767,-11.6404,-0.130333,0.0136234,-0.187373,1,0,1.645,-0.49,0.035,-0.190076,-0.289628,-1.14765,-0.03976,0.27454,0.36624
-13.145,0,0,18.145,18.145,5,5,18.7785,-1.15839,-11.717,-0.00355096,-0.33734,0.0836029,0,0,2.1875,-0.21,-0.28,-0.064172,-0.646356,-0.876692,-0.03976,0.27454,0.36624
-13.4009,0,0,18.4009,18.4009,5,5,19.1441,-1.23324,-11.7938,-0.00224484,-0.331316,0.0815044,0,0,3.01,0.665,-0.4375,-0.064172,-0.646356,-0.876692,-0.0343,0.27482,0.37324
-13.4007,0,0,18.4007,18.4007,5,5,19.1439,-1.23236,-11.794,-0.344728,-0.279782,0.0815061,1,0,3.4475,0.42,-0.49,-0.40809,-0.594872,-0.876692,-0.0343,0.27482,0.37324
-13.4014,0,0,18.4014,18.4014,5,5,19.1449,-1.23022,-11.7936,-0.344766,-0.279765,0.081501,1,0,4.165,1.2075,-0.455,-0.40809,-0.594872,-0.876692,-0.0343,0.27482,0.37324
-13.4021,0,0,18.4021,18.4021,5,5,19.1458,-1.22823,-11.793,-0.138639,-0.114512,0.188461,1,0,4.13,1.1725,-0.2975,-0.201056,-0.429806,-0.770552,-0.0343,0.27482,0.37324
-13.4034,0,0,18.4034,18.4034,5,5,19.1477,-1.22753,-11.7922,-0.138651,-0.114482,0.188451,1,0,4.62,0.49,0.0525,-0.201056,-0.429806,-0.770552,-0.0343,0.27482,0.37324
-13.404,0,0,18.404,18.404,5,5,19.1486,-1.22743,-11.7918,-0.324526,-0.171622,-0.294987,1,0,4.1125,0.0875,-0.0525,-0.387716,-0.486902,-1.25026,-0.0343,0.27482,0.37324
-13.4056,0,0,18.4056,18.4056,5,5,19.1508,-1.22684,-11.7919,-0.324537,-0.171585,-0.295,1,0,4.83,0.2625,-0.4025,-0.387716,-0.486902,-1.25026,-0.0343,0.27482,0.37324
-13.4064,0,0,18.4064,18.4064,5,5,19.1519,-1.2264,-11.7929,-0.310695,0.0676801,-0.326235,1,0,4.2175,0.0175,-0.8575,-0.373808,-0.247904,-1.28124,-0.0343,0.27482,0.37324
-13.406,0,0,18.406,18.406,5,5,19.1514,-1.22577,-11.7932,-0.310706,0.0676709,-0.326232,1,0,3.2725,0.245,-0.525,-0.373808,-0.247904,-1.28124,-0.0413,0.26866,0.37226
-13.7608,0,0,18.7608,18.7608,5,5,19.6583,-0.854417,-12.1125,0.29085,-0.340642,0.343222,0,0,2.94,-0.105,-1.05,0.236802,-0.664168,-0.614148,-0.0413,0.26866,0.37226
-14.1101,0,0,19.1101,19.1101,5,5,20.1572,-0.48958,-12.4232,0.284483,-0.332431,0.340328,0,0,3.0275,0.1575,-1.12,0.236802,-0.664168,-0.614148,-0.0413,0.26866,0.37226
-14.2936,0,0,19.2936,19.2936,5,5,20.4194,-0.37373,-12.6065,0.0986528,-0.152881,0.193553,0,0,3.465,-0.3675,-1.085,0.052216,-0.489098,-0.75823,-0.0413,0.26866,0.37226
-14.4741,0,0,19.4741,19.4741,5,5,20.6773,-0.259928,-12.7861,0.0966666,-0.148663,0.191984,0,0,3.78,-0.2275,-0.63,0.052216,-0.489098,-0.75823,-0.0413,0.26866,0.37226
-14.4747,0,0,19.4747,19.4747,5,5,20.6782,-0.260759,-12.7874,0.297861,-0.328786,-0.158056,1,0,4.0775,-0.77,-0.7875,0.254248,-0.669048,-1.10556,-0.0413,0.26866,0.37226
-14.4753,0,0,19.4753,19.4753,5,5,20.6791,-0.261591,-12.788,0.297876,-0.328771,-0.158061,1,0,4.095,-0.6125,-0.3675,0.254248,-0.669048,-1.10556,-0.0413,0.26866,0.37226
-14.4761,0,0,19.4761,19.4761,5,5,20.6801,-0.26245,-12.7881,-0.183192,-0.131764,-0.143437,1,0,4.165,-0.5425,-0.14,-0.228872,-0.472262,-1.09105,-0.0413,0.26866,0.37226
-14.4766,0,0,19.4766,19.4766,5,5,20.6808,-0.262506,-12.7877,-0.183191,-0.131752,-0.143442,1,0,4.0075,0,-0.035,-0.228872,-0.472262,-1.09105,-0.03976,0.27818,0.37674
-14.4775,0,0,19.4775,19.4775,5,5,20.6821,-0.263644,-12.788,-0.739455,-0.108282,0.0179816,1,0,4.3225,-0.7175,-0.14,-0.78751,-0.448838,-0.93086,-0.03976,0.27818,0.37674
-14.4783,0,0,19.4783,19.4783,5,5,20.6832,-0.263529,-12.7876,-0.739457,-0.108265,0.0179749,1,0,4.2,0.0875,-0.0875,-0.78751,-0.448838,-0.93086,-0.03976,0.27818,0.37674
-14.6918,0,0,19.6918,19.6918,5,5,20.9883,-0.203826,-12.9461,0.078558,-0.212468,0.16264,0,0,4.1125,-0.525,-0.175,0.035014,-0.557906,-0.785436,-0.03976,0.27818,0.37674
-14.8999,0,0,19.8999,19.8999,5,5,21.2856,-0.144086,-13.1021,0.0775153,-0.207627,0.160771,0,0,3.045,-0.385,-0.1225,0.035014,-0.557906,-0.785436,-0.03976,0.27818,0.37674
-14.877,0,0,19.877,19.877,5,5,21.2529,0.452918,-13.5959,0.355624,0.0415794,0.131445,0,0,3.5,-0.77,-0.245,0.324764,-0.308416,-0.814716,-0.03976,0.27818,0.37674
-14.8539,0,0,19.8539,19.8539,5,5,21.2199,1.03526,-14.084,0.345461,0.0409951,0.13153,0,0,3.185,-0.035,-0.035,0.324764,-0.308416,-0.814716,-0.03976,0.27818,0.37674
-14.8541,0,0,19.8541,19.8541,5,5,21.2202,1.03427,-14.0838,-0.0888328,-0.505273,0.0498909,1,0,3.7625,-0.5425,0.07,-0.111386,-0.854122,-0.895724,-0.03976,0.27818,0.37674
-14.8553,0,0,19.8553,19.8553,5,5,21.2218,1.03338,-14.083,-0.0888172,-0.505246,0.049881,1,0,4.48,-0.3675,0.3675,-0.111386,-0.854122,-0.895724,-0.03976,0.27818,0.37674
-14.857,0,0,19.857,19.857,5,5,21.2243,1.03249,-14.0823,-0.420458,-0.270112,-0.0232887,1,0,4.97,-0.385,0.315,-0.444446,-0.619272,-0.968314,-0.0469,0.27538,0.38794
-14.8591,0,0,19.8591,19.8591,5,5,21.2272,1.03212,-14.0809,-0.420451,-0.270064,-0.0233073,1,0,5.2325,0.0525,0.595,-0.444446,-0.619272,-0.968314,-0.0469,0.27538,0.38794
-14.898,0,0,19.898,19.898,5,5,21.2828,1.3952,-14.4231,0.235918,-0.0452279,0.0760501,0,0,4.55,-0.245,0.07,0.221064,-0.395524,-0.86925,-0.0469,0.27538,0.38794
-14.9357,0,0,19.9357,19.9357,5,5,21.3367,1.75064,-14.7605,0.229717,-0.0444148,0.0755501,0,0,4.025,0.9625,-0.0875,0.221064,-0.395524,-0.86925,-0.0469,0.27538,0.38794
-14.9364,0,0,19.9364,19.9364,5,5,21.3377,1.7518,-14.7595,0.166402,0.0631953,0.112673,1,0,4.1475,0.805,0.0525,0.157502,-0.288042,-0.832406,-0.0469,0.27538,0.38794
-14.9357,0,0,19.9357,19.9357,5,5,21.3367,1.75331,-14.7588,0.166376,0.0631791,0.112679,1,0,3.0275,0.9275,-0.1925,0.157502,-0.288042,-0.832406,-0.0469,0.27538,0.38794
-15.1032,0,0,20.1032,20.1032,5,5,21.576,1.92686,-14.9697,0.145247,-0.189194,0.116594,0,0,3.325,0.7,-0.245,0.139324,-0.543998,-0.826916,-0.0469,0.27538,0.38794
-15.268,0,0,20.268,20.268,5,5,21.8114,2.096,-15.1771,0.142297,-0.185417,0.11498,0,0,3.6225,0.245,-0.1225,0.139324,-0.543998,-0.826916,-0.0469,0.27538,0.38794
-15.2681,0,0,20.2681,20.2681,5,5,21.8115,2.09559,-15.1773,0.155425,0.0441836,0.133299,1,0,3.6575,-0.315,-0.2625,0.1525,-0.314638,-0.808738,-0.0427,0.28448,0.38738
-15.2696,0,0,20.2696,20.2696,5,5,21.8137,2.09498,-15.1773,0.0512004,-0.0128147,-0.443343,1,0,4.795,-0.385,-0.14,0.047824,-0.371612,-1.38092,-0.0427,0.28448,0.38738
-15.2709,0,0,20.2709,20.2709,5,5,21.8155,2.09526,-15.1772,-0.187038,0.271282,0.172002,1,0,4.6375,0.14,-0.2275,-0.191418,-0.08784,-0.770308,-0.0427,0.28448,0.38738
-15.2722,0,0,20.2722,20.2722,5,5,21.8174,2.0957,-15.1771,0.190896,-0.0536661,-0.179643,1,0,4.655,0.21,-0.2975,0.188124,-0.412482,-1.11923,-0.0427,0.28448,0.38738
-15.2738,0,0,20.2738,20.2738,5,5,21.8197,2.09613,-15.1779,-0.360656,0.379309,0.523607,1,0,4.8475,0.0175,-0.77,-0.365756,0.020008,-0.421388,-0.0427,0.28448,0.38738
-15.2749,0,0,20.2749,20.2749,5,5,21.8213,2.09591,-15.1785,-0.106504,-0.198325,0.351469,1,0,4.4975,-0.2975,-0.525,-0.110532,-0.557052,-0.592188,-0.0427,0.28448,0.38738
-15.2756,0,0,20.2756,20.2756,5,5,21.8222,2.0955,-15.1792,-0.165904,0.00661984,0.314948,1,0,4.1475,-0.42,-0.5425,-0.17019,-0.352336,-0.628422,-0.0427,0.28448,0.38738
-15.8448,0,0,20.8448,20.8448,5,5,22.6355,1.99421,-15.1473,0.0617051,-0.605149,0.500579,0,0,4.165,-0.5775,-0.4025,0.056608,-0.97661,-0.438956,-0.0427,0.28448,0.38738
-15.8449,0,0,20.8449,20.8449,5,5,22.6356,1.99363,-15.1479,-0.524696,0.1888,-0.17109,1,0,3.6925,-0.49,-0.4375,-0.532286,-0.183488,-1.10544,-0.0371,0.28014,0.38752
-15.8457,0,0,20.8457,20.8457,5,5,22.6367,1.99271,-15.1483,0.255622,0.0927034,0.289838,1,0,4.1825,-0.6475,-0.28,0.25132,-0.279502,-0.648064,-0.0371,0.28014,0.38752
-15.8459,0,0,20.8459,20.8459,5,5,22.637,1.99163,-15.1494,0.255641,0.092709,0.289836,1,0,3.7975,-0.875,-0.595,0.25132,-0.279502,-0.648064,-0.0371,0.28014,0.38752
-15.8465,0,0,20.8465,20.8465,5,5,22.6378,1.99053,-15.1503,0.0363788,-0.248011,-0.204422,1,0,4.0775,-0.84,-0.4725,0.03111,-0.619882,-1.1385,-0.0371,0.28014,0.38752
-15.8474,0,0,20.8474,20.8474,5,5,22.6391,1.99003,-15.1521,0.0363874,-0.247991,-0.20443,1,0,4.3225,-0.7175,-1.1025,0.03111,-0.619882,-1.1385,-0.0371,0.28014,0.38752
-15.8482,0,0,20.8482,20.8482,5,5,22.6403,1.99006,-15.1541,-0.337425,-0.282045,-0.0176789,1,0,4.2875,-0.4725,-1.3125,-0.344284,-0.65392,-0.953186,-0.0371,0.28014,0.38752
-15.8499,0,0,20.8499,20.8499,5,5,22.6427,1.99038,-15.1553,-0.33743,-0.282007,-0.0176951,1,0,4.9525,-0.1575,-0.9975,-0.344284,-0.65392,-0.953186,-0.0371,0.28014,0.38752
-15.851,0,0,20.851,20.851,5,5,22.6442,1.99024,-15.157,-0.260892,-0.177441,-0.0630735,1,0,4.4975,-0.49,-1.1025,-0.267424,-0.549488,-0.998204,-0.0371,0.28014,0.38752
-15.8519,0,0,20.8519,20.8519,5,5,22.6456,1.99049,-15.1583,-0.260896,-0.177418,-0.0630832,1,0,4.41,-0.21,-1.015,-0.267424,-0.549488,-0.998204,-0.03962,0.28392,0.39242
-15.8535,0,0,20.8535,20.8535,5,5,22.6478,1.99084,-15.1592,-0.167723,0.174586,0.0955055,1,0,4.83,-0.0525,-0.7875,-0.17385,-0.197884,-0.840824,-0.03962,0.28392,0.39242
-15.8548,0,0,20.8548,20.8548,5,5,22.6497,1.99148,-15.1594,-0.167734,0.174616,0.0954924,1,0,4.655,0.245,-0.525,-0.17385,-0.197884,-0.840824,-0.03962,0.28392,0.39242
-15.8564,0,0,20.8564,20.8564,5,5,22.652,1.99146,-15.1601,0.377251,-0.070211,-0.0682903,1,0,4.8825,-0.21,-0.6125,0.373442,-0.442494,-1.00333,-0.03962,0.28392,0.39242
-15.8584,0,0,20.8584,20.8584,5,5,22.6548,1.99071,-15.1608,0.377264,-0.0701656,-0.0683088,1,0,5.18,-0.6125,-0.4725,0.373442,-0.442494,-1.00333,-0.03962,0.28392,0.39242
-15.8601,0,0,20.8601,20.8601,5,5,22.6573,1.99046,-15.1615,-0.566311,0.146283,-0.2032,1,0,4.9875,-0.3325,-0.5425,-0.574132,-0.22631,-1.13716,-0.03962,0.28392,0.39242
-15.8615,0,0,20.8615,20.8615,5,5,22.6593,1.99049,-15.1606,-0.566311,0.146315,-0.203213,1,0,4.7075,0.175,0.2275,-0.574132,-0.22631,-1.13716,-0.03962,0.28392,0.39242
-15.8625,0,0,20.8625,20.8625,5,5,22.6608,1.9907,-15.1597,0.114856,0.144751,0.0971399,1,0,4.3925,0.2625,0.175,0.109922,-0.227896,-0.839116,-0.03962,0.28392,0.39242
-15.864,0,0,20.864,20.864,5,5,22.6628,1.99122,-15.1581,0.114846,0.144785,0.0971256,1,0,4.725,0.6125,0.525,0.109922,-0.227896,-0.839116,-0.03738,0.27566,0.38388
-15.8657,0,0,20.8657,20.8657,5,5,22.6652,1.99146,-15.1557,0.252364,-0.0892939,0.410382,1,0,4.8825,0.63,0.9975,0.248026,-0.46177,-0.52826,-0.03738,0.27566,0.38388
-15.8672,0,0,20.8672,20.8672,5,5,22.6675,1.9911,-15.1537,0.25237,-0.0892576,0.410367,1,0,4.8125,0.21,0.91,0.248026,-0.46177,-0.52826,-0.03738,0.27566,0.38388
-15.8692,0,0,20.8692,20.8692,5,5,22.6703,1.99144,-15.1511,0.10318,-0.114126,-0.150297,1,0,5.1275,0.7175,1.0675,0.09821,-0.486658,-1.08458,-0.03738,0.27566,0.38388
-15.8715,0,0,20.8715,20.8715,5,5,22.6736,1.99215,-15.1492,0.103168,-0.114073,-0.15032,1,0,5.4075,0.77,0.6125,0.09821,-0.486658,-1.08458,-0.03738,0.27566,0.38388
-15.8738,0,0,20.8738,20.8738,5,5,22.6769,1.99275,-15.1478,0.0511611,0.431032,-0.237513,1,0,5.4075,0.595,0.3675,0.045994,0.057828,-1.17108,-0.03738,0.27566,0.38388
-15.8752,0,0,20.8752,20.8752,5,5,22.6789,1.99141,-15.1476,0.0511845,0.431064,-0.237525,1,0,4.69,-0.735,0.14,0.045994,0.057828,-1.17108,-0.03738,0.27566,0.38388
-15.8163,0,0,20.8163,20.8163,5,5,22.5947,1.90692,-15.2499,-0.0691918,0.0646913,-0.0662614,0,0,5.32,-0.4025,0.2975,-0.076372,-0.30683,-1.00174,-0.03738,0.27566,0.38388
-15.7579,0,0,20.7579,20.7579,5,5,22.5113,1.82405,-15.3565,-0.0677463,0.0633653,-0.0656598,0,0,4.935,-0.98,-0.105,-0.076372,-0.30683,-1.00174,-0.03654,0.27776,0.38388
-15.7591,0,0,20.7591,20.7591,5,5,22.5131,1.82372,-15.3563,-0.0497605,0.0996652,0.361329,1,0,4.5675,-0.1925,-0.0875,-0.058316,-0.270596,-0.578036,-0.03654,0.27776,0.38388
-15.7611,0,0,20.7611,20.7611,5,5,22.5158,1.82251,-15.3573,-0.0497394,0.0997097,0.361311,1,0,5.145,-0.9275,-0.525,-0.058316,-0.270596,-0.578036,-0.03654,0.27776,0.38388
-15.7626,0,0,20.7626,20.7626,5,5,22.518,1.82218,-15.3576,-0.0221565,-0.207404,0.265397,1,0,4.8125,-0.28,-0.315,-0.030622,-0.577426,-0.673196,-0.03654,0.27776,0.38388
-15.7651,0,0,20.7651,20.7651,5,5,22.5215,1.82249,-15.3591,-0.0221619,-0.207347,0.265373,1,0,5.6175,-0.2275,-1.155,-0.030622,-0.577426,-0.673196,-0.03654,0.27776,0.38388
-16.0323,0,0,21.0323,21.0323,5,5,22.9033,2.30009,-15.7147,0.341011,-0.236125,0.327196,0,0,5.3375,0.245,-0.9625,0.342454,-0.612196,-0.609024,-0.03654,0.27776,0.38388
-16.2958,0,0,21.2958,21.2958,5,5,23.2797,2.76735,-16.0608,0.332864,-0.23023,0.324291,0,0,5.5125,0.21,-0.8225,0.342454,-0.612196,-0.609024,-0.03654,0.27776,0.38388
-16.5189,0,0,21.5189,21.5189,5,5,23.5984,2.81035,-16.185,0.0858628,-0.284502,0.094101,0,0,5.3725,-0.105,-0.7,0.09516,-0.671488,-0.835212,-0.03654,0.27776,0.38388
-16.737,0,0,21.737,21.737,5,5,23.9101,2.85314,-16.3082,0.0851169,-0.279544,0.0918786,0,0,4.8825,-0.63,-0.8575,0.09516,-0.671488,-0.835212,-0.03654,0.27776,0.38388
-16.7383,0,0,21.7383,21.7383,5,5,23.9118,2.853,-16.3094,-0.0646725,-0.0858221,-0.217964,1,0,4.62,-0.4025,-0.84,-0.055266,-0.477996,-1.14265,-0.042,0.27748,0.37786
-16.8696,0,0,21.8696,21.8696,5,5,24.0995,2.57269,-16.2679,-0.142032,-0.0724811,0.145213,0,0,5.4075,-0.5075,-0.735,-0.13786,-0.467748,-0.781166,-0.042,0.27748,0.37786
-16.9982,0,0,21.9982,21.9982,5,5,24.2832,2.30053,-16.2272,-0.137286,-0.0694766,0.144085,0,0,5.74,-0.4725,-0.175,-0.13786,-0.467748,-0.781166,-0.042,0.27748,0.37786
-17.0012,0,0,22.0012,22.0012,5,5,24.2875,2.30042,-16.2271,0.233126,0.0387961,0.202209,1,0,6.0025,-0.0875,-0.1925,0.234118,-0.359656,-0.72346,-0.042,0.27748,0.37786
-17.0054,0,0,22.0054,22.0054,5,5,24.2934,2.2995,-16.2271,0.233142,0.0388906,0.202167,1,0,6.9125,-0.525,0,0.234118,-0.359656,-0.72346,-0.042,0.27748,0.37786
-16.9728,0,0,21.9728,21.9728,5,5,24.2469,2.63507,-16.5461,0.192303,0.0502609,0.0712068,0,0,6.545,0.315,0.315,0.198982,-0.347456,-0.853512,-0.042,0.27748,0.37786
-16.9412,0,0,21.9412,21.9412,5,5,24.2017,2.96011,-16.8621,0.186637,0.0494285,0.0712777,0,0,6.5975,-0.35,0.4725,0.198982,-0.347456,-0.853512,-0.042,0.27748,0.37786
-16.9441,0,0,21.9441,21.9441,5,5,24.2059,2.96021,-16.8605,-0.634973,-0.127344,-0.140347,1,0,5.8975,0.4025,0.595,-0.626104,-0.524112,-1.06347,-0.042,0.27748,0.37786
-16.9471,0,0,21.9471,21.9471,5,5,24.2101,2.96049,-16.8599,-0.634978,-0.127278,-0.140377,1,0,5.915,0.245,0,-0.626104,-0.524112,-1.06347,-0.03598,0.27104,0.37912
-16.9883,0,0,21.9883,21.9883,5,5,24.269,3.10463,-17.0586,0.102236,-0.0514108,0.0323148,0,0,5.67,0.0525,0.175,0.116754,-0.449204,-0.891576,-0.03598,0.27104,0.37912
-17.0294,0,0,22.0294,22.0294,5,5,24.3278,3.24488,-17.2548,0.0997923,-0.0505326,0.0317696,0,0,6.125,-0.035,0.28,0.116754,-0.449204,-0.891576,-0.03598,0.27104,0.37912
-16.9486,0,0,21.9486,21.9486,5,5,24.2123,2.79984,-17.148,-0.291774,0.165919,0.0467407,0,0,6.685,-0.7875,-0.0875,-0.28426,-0.231312,-0.877912,-0.03598,0.27104,0.37912
-16.8692,0,0,21.8692,21.8692,5,5,24.0989,2.36523,-17.0407,-0.284197,0.164255,0.0478616,0,0,7.2275,-0.7875,-0.2975,-0.28426,-0.231312,-0.877912,-0.03598,0.27104,0.37912
-16.8741,0,0,21.8741,21.8741,5,5,24.1058,2.36472,-17.0411,0.326642,0.113927,0.212071,1,0,7.5075,-0.4025,-0.315,0.329156,-0.281698,-0.71492,-0.03598,0.27104,0.37912
-16.8784,0,0,21.8784,21.8784,5,5,24.112,2.3649,-17.0412,0.326639,0.114025,0.212028,1,0,7.035,0.0175,-0.3675,0.329156,-0.281698,-0.71492,-0.03598,0.27104,0.37912
-16.8824,0,0,21.8824,21.8824,5,5,24.1177,2.36523,-17.0411,0.16287,-0.252386,-0.199645,1,0,6.8075,0.175,-0.2275,0.1647,-0.64782,-1.12338,-0.03598,0.27104,0.37912
-16.886,0,0,21.886,21.886,5,5,24.1229,2.36564,-17.0413,0.162863,-0.252304,-0.199682,1,0,6.4925,0.1225,-0.455,0.1647,-0.64782,-1.12338,-0.03696,0.2674,0.3815
-16.8894,0,0,21.8894,21.8894,5,5,24.1277,2.36576,-17.0406,0.266489,-0.122407,-0.0567272,1,0,6.2475,0.175,0.07,0.268766,-0.518134,-0.98149,-0.03696,0.2674,0.3815
-16.8927,0,0,21.8927,21.8927,5,5,24.1324,2.36588,-17.04,0.266486,-0.122331,-0.0567612,1,0,6.2475,0.175,0.07,0.268766,-0.518134,-0.98149,-0.03696,0.2674,0.3815
-16.8968,0,0,21.8968,21.8968,5,5,24.1383,2.36512,-17.039,-0.0143752,-0.450271,-0.00418043,1,0,6.8425,-0.2275,0.4375,-0.013298,-0.845826,-0.929274,-0.03696,0.2674,0.3815
-16.9009,0,0,21.9009,21.9009,5,5,24.1441,2.36436,-17.0381,-0.0143619,-0.450177,-0.00422159,1,0,6.8425,-0.2275,0.4375,-0.013298,-0.845826,-0.929274,-0.03696,0.2674,0.3815
-16.9062,0,0,21.9062,21.9062,5,5,24.1517,2.36194,-17.037,0.0453297,-0.158906,-0.28263,1,0,7.8225,-1.0675,0.9275,0.046604,-0.554978,-1.20548,-0.03696,0.2674,0.3815
-16.9115,0,0,21.9115,21.9115,5,5,24.1593,2.35953,-17.0358,0.0453718,-0.158784,-0.282682,1,0,7.8225,-1.0675,0.9275,0.046604,-0.554978,-1.20548,-0.03696,0.2674,0.3815
-16.9115,0,0,21.9115,21.9115,5,5,24.1593,2.13522,-17.0187,-0.149953,0.0151869,-0.0329565,0,0,8.5575,-0.2625,1.1375,-0.153476,-0.38125,-0.957822,-0.03696,0.2674,0.3815
-16.9115,0,0,21.9115,21.9115,5,5,24.1593,1.91499,-17.0001,-0.146111,0.0152422,-0.0328325,0,0,8.5575,-0.2625,1.1375,-0.153476,-0.38125,-0.957822,-0.04466,0.2681,0.37562
-16.8772,0,0,21.8772,21.8772,5,5,24.1102,1.78283,-17.0341,-0.0908383,0.0672505,0.00717469,0,0,7.35,-0.1925,0.9275,-0.100284,-0.328546,-0.918538,-0.04466,0.2681,0.37562
-16.8433,0,0,21.8433,21.8433,5,5,24.0618,1.65397,-17.0676,-0.0885902,0.0665077,0.00758064,0,0,7.35,-0.1925,0.9275,-0.100284,-0.328546,-0.918538,-0.04466,0.2681,0.37562
-16.909,0,0,21.909,21.909,5,5,24.1557,1.63795,-17.1421,0.00158861,-0.0535107,0.0600329,0,0,7.0875,-0.455,0.21,-0.010004,-0.449936,-0.865834,-0.04466,0.2681,0.37562
-16.9734,0,0,21.9734,21.9734,5,5,24.2476,1.62278,-17.2158,0.00185325,-0.0520444,0.0593822,0,0,7.0875,-0.455,0.21,-0.010004,-0.449936,-0.865834,-0.04466,0.2681,0.37562
-16.9793,0,0,21.9793,21.9793,5,5,24.2561,1.6224,-17.2168,0.173276,-0.159137,0.271285,1,0,8.3475,-0.49,-0.6825,0.162138,-0.557052,-0.655506,-0.04466,0.2681,0.37562
-16.9852,0,0,21.9852,21.9852,5,5,24.2646,1.62201,-17.2178,0.173283,-0.159002,0.271224,1,0,8.3475,-0.49,-0.6825,0.162138,-0.557052,-0.655506,-0.04466,0.2681,0.37562
-16.9912,0,0,21.9912,21.9912,5,5,24.2732,1.62161,-17.2202,0.291617,-0.255834,0.0150612,1,0,8.4525,-0.8225,-1.4,0.280966,-0.65392,-0.909632,-0.04466,0.2681,0.37562
-17.0092,0,0,22.0092,22.0092,5,5,24.2989,1.02055,-16.9671,-0.41539,0.0377783,-0.0120743,0,0,9.1525,-0.84,-1.5575,-0.439566,-0.36112,-0.936594,-0.04284,0.26306,0.37744
-17.0248,0,0,22.0248,22.0248,5,5,24.3212,0.434009,-16.7148,-0.405154,0.0381871,-0.0121165,0,0,8.645,-0.5775,-1.26,-0.439566,-0.36112,-0.936594,-0.04284,0.26306,0.37744
-17.0319,0,0,22.0319,22.0319,5,5,24.3313,0.434186,-16.7169,0.374053,-0.040302,-0.0823926,1,0,9.2575,-0.455,-1.4,0.342942,-0.439688,-1.00626,-0.04284,0.26306,0.37744
-17.039,0,0,22.039,22.039,5,5,24.3414,0.434363,-16.719,0.374049,-0.0401415,-0.0824653,1,0,9.2575,-0.455,-1.4,0.342942,-0.439688,-1.00626,-0.04284,0.26306,0.37744
-17.0445,0,0,22.0445,22.0445,5,5,24.3492,0.434071,-16.7196,-0.215394,0.0292288,-0.122234,1,0,7.98,-0.3675,-0.5425,-0.249002,-0.370514,-1.04566,-0.04284,0.26306,0.37744
-17.0499,0,0,22.0499,22.0499,5,5,24.357,0.433779,-16.7203,-0.215389,0.0293533,-0.12229,1,0,7.98,-0.3675,-0.5425,-0.249002,-0.370514,-1.04566,-0.04284,0.26306,0.37744
-17.0023,0,0,22.0023,22.0023,5,5,24.289,0.523038,-16.8501,0.0532374,0.0237465,-0.110993,0,0,8.8725,0.35,0.4725,0.022326,-0.375028,-1.03493,-0.04284,0.26306,0.37744
-17.1056,0,0,22.1056,22.1056,5,5,24.4366,0.184287,-16.7125,-0.188438,-0.0438707,0.115063,0,0,9.3975,-0.14,0.9275,-0.22631,-0.444934,-0.809592,-0.04284,0.26306,0.37744
-17.2075,0,0,22.2075,22.2075,5,5,24.5822,-0.147396,-16.5853,-0.182649,-0.0415568,0.114011,0,0,10.2025,-0.0875,1.61,-0.22631,-0.444934,-0.809592,-0.04578,0.26726,0.3689
-17.2947,0,0,22.2947,22.2947,5,5,24.7067,0.168051,-16.8109,0.236802,-0.14571,0.0132692,0,0,10.535,-0.21,1.6625,0.200446,-0.550952,-0.908656,-0.04578,0.26726,0.3689
-17.3804,0,0,22.3804,22.3804,5,5,24.8292,0.475498,-17.033,0.231436,-0.143782,0.0123467,0,0,10.3775,-0.175,1.5575,0.200446,-0.550952,-0.908656,-0.04578,0.26726,0.3689
-17.3873,0,0,22.3873,22.3873,5,5,24.839,0.474561,-17.0298,-0.16289,-0.197484,-0.094445,1,0,9.1175,0.245,1.68,-0.195566,-0.604754,-1.01455,-0.04578,0.26726,0.3689
-17.3936,0,0,22.3936,22.3936,5,5,24.848,0.47347,-17.0272,-0.162871,-0.197342,-0.0945106,1,0,8.61,0,1.365,-0.195566,-0.604754,-1.01455,-0.04578,0.26726,0.3689
-17.4001,0,0,22.4001,22.4001,5,5,24.8572,0.472407,-17.0256,0.135031,0.347246,0.290128,1,0,8.75,-0.21,0.875,0.103578,-0.060878,-0.632814,-0.04578,0.26726,0.3689
-17.4076,0,0,22.4076,22.4076,5,5,24.8679,0.471632,-17.0247,0.135044,0.347415,0.290049,1,0,9.59,-0.2275,0.4375,0.103578,-0.060878,-0.632814,-0.04578,0.26726,0.3689
-17.4154,0,0,22.4154,22.4154,5,5,24.8792,0.471078,-17.0239,0.358344,-0.256812,-0.0453137,1,0,9.8875,-0.1575,0.28,0.327814,-0.664656,-0.965508,-0.04578,0.26726,0.3689
-17.4234,0,0,22.4234,22.4234,5,5,24.8906,0.470518,-17.0249,0.358354,-0.256632,-0.0453973,1,0,9.975,-0.5775,-0.6125,0.327814,-0.664656,-0.965508,-0.04536,0.26124,0.36162
-17.4312,0,0,22.4312,22.4312,5,5,24.9017,0.470485,-17.0261,0.034231,0.074142,0.380537,1,0,9.8525,-0.3675,-0.8925,0.002318,-0.334402,-0.542778,-0.04536,0.26124,0.36162
-17.4382,0,0,22.4382,22.4382,5,5,24.9117,0.470531,-17.0274,0.0342302,0.0742999,0.380464,1,0,9.1875,-0.3325,-0.9275,0.002318,-0.334402,-0.542778,-0.04536,0.26124,0.36162
-17.5042,0,0,22.5042,22.5042,5,5,25.006,-0.037072,-16.8051,-0.311892,-0.00125558,0.0721826,0,0,8.7325,-0.245,-1.0325,-0.354166,-0.411384,-0.848022,-0.04536,0.26124,0.36162
-17.568,0,0,22.568,22.568,5,5,25.0971,-0.531539,-16.5858,-0.303262,0.000166638,0.0714706,0,0,8.9075,-0.315,-1.365,-0.354166,-0.411384,-0.848022,-0.04536,0.26124,0.36162
-17.575,0,0,22.575,22.575,5,5,25.1071,-0.531081,-16.5874,0.521254,-0.0755165,-0.0712234,1,0,9.17,-0.1925,-1.19,0.473848,-0.487146,-0.989542,-0.04536,0.26124,0.36162
-17.583,0,0,22.583,22.583,5,5,25.1185,-0.531072,-16.5881,0.521253,-0.0753354,-0.0713083,1,0,10.01,-0.2275,-0.6475,0.473848,-0.487146,-0.989542,-0.04536,0.26124,0.36162
-17.6209,0,0,22.6209,22.6209,5,5,25.1727,-0.850235,-16.4627,-0.200997,-0.00355283,0.0203178,0,0,9.38,0.315,-0.21,-0.257054,-0.416264,-0.898164,-0.04536,0.26124,0.36162
-17.6572,0,0,22.6572,22.6572,5,5,25.2246,-1.16059,-16.3279,-0.195581,-0.00277426,0.0198464,0,0,9.3625,0.1925,0.0875,-0.257054,-0.416264,-0.898164,-0.0441,0.25718,0.37128
-17.664,0,0,22.664,22.664,5,5,25.2342,-1.16018,-16.3269,-0.094148,0.0556326,-0.139321,1,0,9.0125,0.4375,0.21,-0.155184,-0.35807,-1.05603,-0.0441,0.25718,0.37128
-17.6704,0,0,22.6704,22.6704,5,5,25.2434,-1.16037,-16.3253,-0.0941447,0.0557774,-0.139389,1,0,8.75,0.245,0.63,-0.155184,-0.35807,-1.05603,-0.0441,0.25718,0.37128
-17.6774,0,0,22.6774,22.6774,5,5,25.2534,-1.16108,-16.3234,0.0130181,0.145577,0.244504,1,0,9.24,0.0525,0.9275,-0.04758,-0.268522,-0.675026,-0.0441,0.25718,0.37128
-17.6856,0,0,22.6856,22.6856,5,5,25.2652,-1.16241,-16.3222,0.0130411,0.145762,0.244416,1,0,10.2025,-0.4375,0.735,-0.04758,-0.268522,-0.675026,-0.0441,0.25718,0.37128
-17.6492,0,0,22.6492,22.6492,5,5,25.2132,-1.09113,-16.4054,0.0382813,0.0675234,0.028436,0,0,10.325,-0.07,0.7175,-0.020984,-0.34587,-0.889746,-0.0441,0.25718,0.37128
-17.6131,0,0,22.6131,22.6131,5,5,25.1615,-1.02218,-16.4889,0.0370781,0.0667171,0.0288397,0,0,9.87,-0.455,0.245,-0.020984,-0.34587,-0.889746,-0.0441,0.25718,0.37128
-17.6203,0,0,22.6203,22.6203,5,5,25.1719,-1.02244,-16.4886,0.0563989,0.280725,0.166588,1,0,9.3975,-0.105,-0.0175,-0.001586,-0.132248,-0.752984,-0.0441,0.25718,0.37128
-17.6276,0,0,22.6276,22.6276,5,5,25.1822,-1.0227,-16.4883,0.0564034,0.280888,0.166511,1,0,9.3975,-0.105,-0.0175,-0.001586,-0.132248,-0.752984,-0.0441,0.25718,0.37128
-17.6345,0,0,22.6345,22.6345,5,5,25.1921,-1.0229,-16.4888,-0.0149053,-0.0406375,-0.264989,1,0,9.135,-0.28,-0.4725,-0.0732,-0.453596,-1.18108,-0.04172,0.25368,0.37226
-17.6413,0,0,22.6413,22.6413,5,5,25.2019,-1.02295,-16.4895,-0.175022,-0.00970716,0.143128,1,0,9.065,-0.245,-0.595,-0.233996,-0.422852,-0.776042,-0.04172,0.25368,0.37226
-17.649,0,0,22.649,22.649,5,5,25.2128,-1.02298,-16.4902,0.148373,0.0952492,-0.180062,1,0,9.6775,-0.245,-0.63,0.090768,-0.318176,-1.09666,-0.04172,0.25368,0.37226
-17.6559,0,0,22.6559,22.6559,5,5,25.2227,-1.02224,-16.491,0.14836,0.0954062,-0.180136,1,0,9.1525,0.1575,-0.84,0.090768,-0.318176,-1.09666,-0.04172,0.25368,0.37226
-17.6624,0,0,22.6624,22.6624,5,5,25.2319,-1.02175,-16.4917,-0.0217284,-0.125253,-0.0662307,1,0,8.75,0.0525,-0.7,-0.080032,-0.538752,-0.983564,-0.04172,0.25368,0.37226
-17.6685,0,0,22.6685,22.6685,5,5,25.2407,-1.02157,-16.4919,-0.0217316,-0.125115,-0.0662959,1,0,8.505,-0.0175,-0.4375,-0.080032,-0.538752,-0.983564,-0.04172,0.25368,0.37226
-17.6742,0,0,22.6742,22.6742,5,5,25.2488,-1.02227,-16.4923,0.204123,0.0409829,0.113149,1,0,8.12,-0.5075,-0.2625,0.146766,-0.372954,-0.805444,-0.04172,0.25368,0.37226
-17.6806,0,0,22.6806,22.6806,5,5,25.2581,-1.0224,-16.4912,0.204125,0.0411288,0.11308,1,0,8.785,0.175,0.385,0.146766,-0.372954,-0.805444,-0.04312,0.2534,0.36862
-17.6871,0,0,22.6871,22.6871,5,5,25.2672,-1.02301,-16.4897,-0.0788049,0.0909792,-0.141369,1,0,8.75,0,0.6825,-0.137372,-0.3233,-1.05786,-0.04312,0.2534,0.36862
-17.93,0,0,22.93,22.93,5,5,25.6143,-1.25004,-16.3535,-0.101084,-0.196079,0.213492,0,0,9.1525,0.2975,0.9625,-0.163724,-0.61549,-0.703086,-0.04312,0.2534,0.36862
-18.1683,0,0,23.1683,23.1683,5,5,25.9548,-1.46991,-16.2212,-0.0972476,-0.19077,0.210826,0,0,9.5375,0.21,0.8575,-0.163724,-0.61549,-0.703086,-0.04312,0.2534,0.36862
-18.1753,0,0,23.1753,23.1753,5,5,25.9647,-1.46969,-16.219,0.113648,-0.0243993,-0.136579,1,0,9.1875,0.63,0.84,0.048068,-0.449448,-1.04774,-0.04312,0.2534,0.36862
-18.1825,0,0,23.1825,23.1825,5,5,25.9751,-1.46998,-16.218,0.113653,-0.0242367,-0.136658,1,0,9.415,0.0525,0.3325,0.048068,-0.449448,-1.04774,-0.04312,0.2534,0.36862
-18.1886,0,0,23.1886,23.1886,5,5,25.9837,-1.47013,-16.2173,-0.0248384,0.305396,0.0914683,1,0,8.4175,0.07,0.1925,-0.091012,-0.120292,-0.821304,-0.04312,0.2534,0.36862
-18.1952,0,0,23.1952,23.1952,5,5,25.9932,-1.4704,-16.2174,-0.0248337,0.305545,0.0913954,1,0,8.925,-0.2275,-0.2625,-0.091012,-0.120292,-0.821304,-0.04312,0.2534,0.36862
-18.2021,0,0,23.2021,23.2021,5,5,26.003,-1.47149,-16.2186,-0.204006,0.0751238,-0.274821,1,0,9.0825,-0.91,-0.56,-0.270962,-0.350628,-1.18462,-0.0413,0.25774,0.36988
-18.3048,0,0,23.3048,23.3048,5,5,26.1497,-1.37451,-16.2914,0.0819799,-0.158385,-0.00247075,0,0,10.57,-0.875,-0.7175,0.017934,-0.58621,-0.913292,-0.0413,0.25774,0.36988
-18.2217,0,0,23.2217,23.2217,5,5,26.031,-1.55359,-16.245,-0.117291,0.151631,0.0251712,0,0,10.325,-0.8575,-0.7175,-0.185318,-0.274622,-0.886696,-0.0413,0.25774,0.36988
-18.2292,0,0,23.2292,23.2292,5,5,26.0416,-1.55379,-16.2464,0.030318,-0.23742,-0.0684742,1,0,9.5375,-0.525,-0.9625,-0.037088,-0.663436,-0.979538,-0.0413,0.25774,0.36988
-18.2354,0,0,23.2354,23.2354,5,5,26.0506,-1.55321,-16.2473,0.0303078,-0.23728,-0.0685425,1,0,8.5925,0.035,-0.8575,-0.037088,-0.663436,-0.979538,-0.0413,0.25774,0.36988
-18.2412,0,0,23.2412,23.2412,5,5,26.0589,-1.55241,-16.2476,0.160769,0.150358,0.0568018,1,0,8.225,0.2975,-0.6125,0.09394,-0.27633,-0.855098,-0.0413,0.25774,0.36988
-18.2482,0,0,23.2482,23.2482,5,5,26.0688,-1.55226,-16.2475,0.160767,0.150514,0.0567256,1,0,9.17,0.07,-0.21,0.09394,-0.27633,-0.855098,-0.0413,0.25774,0.36988
-18.1982,0,0,23.1982,23.1982,5,5,25.9974,-1.03377,-16.5725,0.322043,0.0519055,0.0439315,0,0,9.3275,-0.315,0.035,0.264984,-0.373808,-0.868518,-0.04354,0.26152,0.36568
-18.2077,0,0,23.2077,23.2077,5,5,26.011,-1.03544,-16.572,-0.0244052,0.0400275,-0.14871,1,0,11.2,-0.7875,0.455,-0.08296,-0.385886,-1.05957,-0.04354,0.26152,0.36568
-18.2172,0,0,23.2172,23.2172,5,5,26.0246,-1.03711,-16.5714,-0.0243762,0.04024,-0.148814,1,0,11.2,-0.7875,0.455,-0.08296,-0.385886,-1.05957,-0.04354,0.26152,0.36568
-18.3371,0,0,23.3371,23.3371,5,5,26.1959,-0.84648,-16.6967,0.15161,-0.177612,0.0340954,0,0,9.765,-0.49,0.63,0.097112,-0.606218,-0.876814,-0.04354,0.26152,0.36568
-18.344,0,0,23.344,23.344,5,5,26.2058,-0.847329,-16.6954,-0.183797,0.133599,0.176025,1,0,9.1175,-0.1575,0.6475,-0.23973,-0.295484,-0.735904,-0.04354,0.26152,0.36568
-18.351,0,0,23.351,23.351,5,5,26.2158,-0.848461,-16.6947,-0.183777,0.133756,0.175948,1,0,9.205,-0.4375,0.455,-0.23973,-0.295484,-0.735904,-0.04354,0.26152,0.36568
-18.3597,0,0,23.3597,23.3597,5,5,26.2281,-0.849418,-16.6936,-0.00517667,0.1541,-0.187092,1,0,10.5175,-0.2625,0.5775,-0.06039,-0.275354,-1.09605,-0.04354,0.26152,0.36568
-18.369,0,0,23.369,23.369,5,5,26.2414,-0.850617,-16.6928,-0.00515574,0.154308,-0.187195,1,0,11.06,-0.4725,0.4725,-0.06039,-0.275354,-1.09605,-0.04354,0.26152,0.36568
-18.3792,0,0,23.3792,23.3792,5,5,26.2559,-0.851898,-16.6924,0.239539,-0.250682,-0.00226956,1,0,11.725,-0.63,0.2625,0.185318,-0.68015,-0.912438,-0.04242,0.26502,0.36442
-18.3883,0,0,23.3883,23.3883,5,5,26.269,-0.853113,-16.6924,-0.0187186,0.0464135,-0.149295,1,0,10.9375,-0.6825,0.07,-0.074054,-0.383568,-1.05823,-0.04242,0.26502,0.36442
-18.3975,0,0,23.3975,23.3975,5,5,26.2821,-0.854329,-16.6924,-0.0186974,0.0466185,-0.149396,1,0,10.9375,-0.6825,0.07,-0.074054,-0.383568,-1.05823,-0.04242,0.26502,0.36442
-18.4041,0,0,23.4041,23.4041,5,5,26.2915,-0.854301,-16.6924,-0.0335191,0.0748541,0.124338,1,0,8.8375,-0.035,-0.2625,-0.088938,-0.355508,-0.786534,-0.04242,0.26502,0.36442
-18.4106,0,0,23.4106,23.4106,5,5,26.3008,-0.854194,-16.6926,0.203133,-0.120892,-0.357446,1,0,8.8025,-0.035,-0.3675,0.148718,-0.551196,-1.26453,-0.04242,0.26502,0.36442
-18.4193,0,0,23.4193,23.4193,5,5,26.3133,-0.854741,-16.6925,0.203143,-0.120697,-0.357543,1,0,10.57,-0.2975,-0.035,0.148718,-0.551196,-1.26453,-0.04242,0.26502,0.36442
-18.4292,0,0,23.4292,23.4292,5,5,26.3274,-0.855998,-16.6929,-0.19057,0.00800191,-0.148025,1,0,11.5325,-0.8225,-0.1575,-0.246684,-0.422852,-1.05652,-0.04242,0.26502,0.36442
-18.4409,0,0,23.4409,23.4409,5,5,26.3442,-0.85748,-16.6926,-0.190545,0.00826426,-0.148156,1,0,13.0025,-0.735,0.315,-0.246684,-0.422852,-1.05652,-0.04396,0.2611,0.36582
-18.4517,0,0,23.4517,23.4517,5,5,26.3596,-0.857464,-16.6915,-0.239261,0.276572,-0.20938,1,0,12.1975,0.245,0.315,-0.295606,-0.155062,-1.11715,-0.04396,0.2611,0.36582
-18.5652,0,0,23.5652,23.5652,5,5,26.5218,-0.220028,-17.0469,0.420823,-0.111163,0.209445,0,0,9.8525,0.315,0.2275,0.378444,-0.544974,-0.700402,-0.04396,0.2611,0.36582
-18.6755,0,0,23.6755,23.6755,5,5,26.6792,0.402196,-17.3949,0.409963,-0.108714,0.208199,0,0,8.33,0.595,-0.0175,0.378444,-0.544974,-0.700402,-0.04396,0.2611,0.36582
-18.6826,0,0,23.6826,23.6826,5,5,26.6895,0.402822,-17.3939,0.0379631,-0.107821,0.191152,1,0,9.345,0.525,0.07,0.00488,-0.544242,-0.717238,-0.04396,0.2611,0.36582
-18.6928,0,0,23.6928,23.6928,5,5,26.704,0.401883,-17.3928,0.0379795,-0.107594,0.191038,1,0,11.7425,-0.245,0.5775,0.00488,-0.544242,-0.717238,-0.04396,0.2611,0.36582
-18.9876,0,0,23.9876,23.9876,5,5,27.1251,0.150471,-17.2545,-0.112041,-0.288374,0.205926,0,0,12.88,-1.19,0.245,-0.150182,-0.73139,-0.699182,-0.04396,0.2611,0.36582
-19.2791,0,0,24.2791,24.2791,5,5,27.5416,-0.0930081,-17.1209,-0.107791,-0.281916,0.202591,0,0,15.19,-1.435,0.175,-0.150182,-0.73139,-0.699182,-0.04396,0.2611,0.36582
-19.292,0,0,24.292,24.292,5,5,27.5599,-0.0952236,-17.1211,0.136191,0.165719,0.0958462,1,0,13.8775,-1.2425,0.2625,0.094794,-0.284504,-0.804956,-0.04564,0.25592,0.37016
-19.3016,0,0,24.3016,24.3016,5,5,27.5738,-0.0965085,-17.1209,-0.11259,0.201471,0.240199,1,0,11.34,-0.6825,0.1575,-0.155062,-0.249002,-0.661606,-0.04564,0.25592,0.37016
-19.3113,0,0,24.3113,24.3113,5,5,27.5876,-0.0977933,-17.1208,-0.112567,0.201685,0.240087,1,0,11.34,-0.6825,0.1575,-0.155062,-0.249002,-0.661606,-0.04564,0.25592,0.37016
-19.3185,0,0,24.3185,24.3185,5,5,27.5979,-0.0980909,-17.1206,-0.0515763,0.160322,0.229676,1,0,9.38,-0.14,-0.0525,-0.093818,-0.290482,-0.671854,-0.04564,0.25592,0.37016
-19.3258,0,0,24.3258,24.3258,5,5,27.6083,-0.0983884,-17.1204,-0.0515711,0.160482,0.229593,1,0,9.38,-0.14,-0.0525,-0.093818,-0.290482,-0.671854,-0.04564,0.25592,0.37016
-19.4245,0,0,24.4245,24.4245,5,5,27.7493,0.160417,-17.2684,0.184939,-0.121407,0.0726713,0,0,13.1425,-1.2775,0.175,0.14823,-0.574254,-0.826428,-0.04564,0.25592,0.37016
-19.4396,0,0,24.4396,24.4396,5,5,27.7708,0.158208,-17.2683,0.00578663,0.0670017,-0.280612,1,0,15.68,-1.155,0.42,-0.03172,-0.386374,-1.17681,-0.04564,0.25592,0.37016
-19.4514,0,0,24.4514,24.4514,5,5,27.7877,0.155907,-17.2681,0.0058268,0.0672619,-0.280749,1,0,13.0375,-1.2075,0.4375,-0.03172,-0.386374,-1.17681,-0.04564,0.25592,0.37016
-19.4618,0,0,24.4618,24.4618,5,5,27.8025,0.154113,-17.2675,-0.00568304,0.0361043,0.145885,1,0,11.9,-0.7875,0.595,-0.04331,-0.417728,-0.75335,-0.04074,0.25606,0.36806
-19.1342,0,0,24.1342,24.1342,5,5,27.3345,0.28363,-17.4368,0.0251006,0.425406,-0.0496424,0,0,9.8175,-0.0875,0.5075,-0.010126,-0.021594,-0.951112,-0.04074,0.25606,0.36806
-18.815,0,0,23.815,23.815,5,5,26.8786,0.409113,-17.608,0.0229105,0.418317,-0.0460287,0,0,12.11,-0.21,0.1925,-0.010126,-0.021594,-0.951112,-0.04074,0.25606,0.36806
-18.8277,0,0,23.8277,23.8277,5,5,26.8967,0.408427,-17.6073,0.264315,0.0448907,-0.426451,1,0,13.7375,-0.21,0.315,0.232288,-0.394914,-1.32846,-0.04074,0.25606,0.36806
-18.8433,0,0,23.8433,23.8433,5,5,26.919,0.407544,-17.6071,0.26433,0.0452376,-0.426627,1,0,16.0825,-0.455,0.0875,0.232288,-0.394914,-1.32846,-0.04074,0.25606,0.36806
-18.8606,0,0,23.8606,23.8606,5,5,26.9437,0.405996,-17.6074,0.0366928,-0.483187,0.169355,1,0,17.43,-0.9275,0.0175,0.00366,-0.923174,-0.73688,-0.04074,0.25606,0.36806
-18.875,0,0,23.875,23.875,5,5,26.9643,0.40454,-17.6074,0.0367182,-0.482866,0.169192,1,0,15.1375,-0.805,0.14,0.00366,-0.923174,-0.73688,-0.04074,0.25606,0.36806
-18.9851,0,0,23.9851,23.9851,5,5,27.1215,0.342644,-17.5952,-0.0208791,-0.0493123,0.144222,0,0,13.405,-0.42,0.49,-0.055266,-0.492514,-0.760426,-0.04074,0.25606,0.36806
-19.0895,0,0,24.0895,24.0895,5,5,27.2708,0.283024,-17.5854,-0.0198385,-0.0469927,0.143037,0,0,10.6925,-0.35,0.1575,-0.055266,-0.492514,-0.760426,-0.04242,0.2576,0.3675
-18.9574,0,0,23.9574,23.9574,5,5,27.082,0.352125,-17.6903,0.0190457,0.181259,-0.0109941,0,0,9.8525,-0.035,0,-0.015006,-0.261568,-0.914756,-0.04242,0.2576,0.3675
-18.833,0,0,23.833,23.833,5,5,26.9043,0.418483,-17.7943,0.0178876,0.178492,-0.00959331,0,0,14.0175,-0.1225,0.2975,-0.015006,-0.261568,-0.914756,-0.04242,0.2576,0.3675
-18.847,0,0,23.847,23.847,5,5,26.9243,0.416717,-17.794,-0.135032,0.0931932,-0.489497,1,0,14.84,-0.8925,0.3675,-0.168604,-0.34709,-1.3908,-0.04242,0.2576,0.3675
-18.8654,0,0,23.8654,23.8654,5,5,26.9505,0.41471,-17.7938,-0.134997,0.0936007,-0.489704,1,0,18.27,-1.0325,0.4025,-0.168604,-0.34709,-1.3908,-0.04242,0.2576,0.3675
-18.884,0,0,23.884,23.884,5,5,26.9772,0.413296,-17.794,0.065479,0.10916,0.0752797,1,0,18.55,-0.84,0.0175,0.032696,-0.331962,-0.829966,-0.04242,0.2576,0.3675
-18.8978,0,0,23.8978,23.8978,5,5,26.9969,0.413243,-17.7939,0.0654799,0.109466,0.0751235,1,0,14.6475,-0.0525,-0.1925,0.032696,-0.331962,-0.829966,-0.04242,0.2576,0.3675
-18.8324,0,0,23.8324,23.8324,5,5,26.9035,0.297828,-17.7916,-0.0872785,0.111682,-0.0270342,0,0,13.685,-0.245,-0.105,-0.122732,-0.328302,-0.93208,-0.04242,0.2576,0.3675
-18.7647,0,0,23.7647,23.7647,5,5,26.8068,0.185212,-17.7875,-0.085313,0.11018,-0.0262642,0,0,11.025,-0.175,0.035,-0.122732,-0.328302,-0.93208,-0.0399,0.25802,0.37842
-18.7763,0,0,23.7763,23.7763,5,5,26.8233,0.184065,-17.7878,-0.143971,0.156113,0.0702429,1,0,12.88,-0.735,-0.1225,-0.181658,-0.282674,-0.836188,-0.0399,0.25802,0.37842
-18.7933,0,0,23.7933,23.7933,5,5,26.8476,0.183153,-17.7872,-0.143955,0.156491,0.0700522,1,0,17.1675,-0.3675,0.2975,-0.181658,-0.282674,-0.836188,-0.0399,0.25802,0.37842
-18.7924,0,0,23.7924,23.7924,5,5,26.8463,0.473961,-17.9812,0.197083,-0.01452,-0.0245111,0,0,19.0575,-0.35,0.525,0.16592,-0.453474,-0.930006,-0.0399,0.25802,0.37842
-18.7919,0,0,23.7919,23.7919,5,5,26.8455,0.757063,-18.1731,0.192142,-0.0145558,-0.0245525,0,0,19.0575,-0.35,0.525,0.16592,-0.453474,-0.930006,-0.0399,0.25802,0.37842
-18.8381,0,0,23.8381,23.8381,5,5,26.9115,0.832347,-18.2493,0.0622961,-0.0835152,-0.0635724,0,0,19.5475,-1.1025,0.4025,0.036844,-0.52338,-0.968192,-0.0399,0.25802,0.37842
-18.8791,0,0,23.8791,23.8791,5,5,26.9701,0.905656,-18.3246,0.0610168,-0.0826124,-0.0640529,0,0,15.995,-1.2075,0.455,0.036844,-0.52338,-0.968192,-0.0399,0.25802,0.37842
-18.8918,0,0,23.8918,23.8918,5,5,26.9883,0.903339,-18.3241,0.0487872,0.179511,0.0882597,1,0,13.79,-1.12,0.63,0.024522,-0.261812,-0.816912,-0.0399,0.25802,0.37842
-18.905,0,0,23.905,23.905,5,5,27.0071,0.901347,-18.3239,0.048822,0.179803,0.0881113,1,0,14.1225,-1.05,0.35,0.024522,-0.261812,-0.816912,-0.04354,0.2541,0.36358
-18.92,0,0,23.92,23.92,5,5,27.0285,0.900218,-18.3232,-0.115528,0.275517,0.268061,1,0,15.5925,-0.4375,0.4375,-0.140544,-0.16653,-0.638182,-0.04354,0.2541,0.36358
-18.94,0,0,23.94,23.94,5,5,27.0572,0.89848,-18.3231,-0.115498,0.275963,0.267834,1,0,19.67,-0.9275,0.2625,-0.140544,-0.16653,-0.638182,-0.04354,0.2541,0.36358
-18.8357,0,0,23.8357,23.8357,5,5,26.9081,0.943286,-18.4135,0.00727089,0.151512,-0.0575475,0,0,21.2975,-0.595,-0.0175,-0.01647,-0.28853,-0.962214,-0.04354,0.2541,0.36358
-18.7333,0,0,23.7333,23.7333,5,5,26.7618,0.986457,-18.5034,0.00651752,0.149228,-0.0564065,0,0,21.2975,-0.595,-0.0175,-0.01647,-0.28853,-0.962214,-0.04354,0.2541,0.36358
-18.6256,0,0,23.6256,23.6256,5,5,26.608,1.36461,-18.7679,0.208024,0.154585,0.0408236,0,0,19.7225,-0.385,-0.21,0.192516,-0.280722,-0.86681,-0.04354,0.2541,0.36358
-18.5153,0,0,23.5153,23.5153,5,5,26.4505,1.73297,-19.0313,0.201597,0.152049,0.0418956,0,0,15.855,-0.1225,-0.3325,0.192516,-0.280722,-0.86681,-0.04354,0.2541,0.36358
-18.6347,0,0,23.6347,23.6347,5,5,26.621,1.80423,-19.0852,0.064776,-0.11362,0.0898349,0,0,15.2775,-0.1575,-0.4025,0.056364,-0.548756,-0.817888,-0.04354,0.2541,0.36358
-18.754,0,0,23.754,23.754,5,5,26.7914,1.87461,-19.1319,0.0635483,-0.110982,0.0884637,0,0,17.115,-0.4025,-0.1575,0.056364,-0.548756,-0.817888,-0.04536,0.25312,0.37366
-18.7734,0,0,23.7734,23.7734,5,5,26.8192,1.87395,-19.1312,-0.127051,0.0462618,0.0995566,1,0,19.1625,-0.1925,0.315,-0.135054,-0.392108,-0.806664,-0.04536,0.25312,0.37366
-18.7929,0,0,23.7929,23.7929,5,5,26.847,1.87329,-19.1304,-0.12704,0.0466947,0.0993381,1,0,19.1625,-0.1925,0.315,-0.135054,-0.392108,-0.806664,-0.04536,0.25312,0.37366
-18.7136,0,0,23.7136,23.7136,5,5,26.7338,2.30019,-19.406,0.252932,0.107461,0.0119547,0,0,23.4325,4.34,0.56,0.254004,-0.329522,-0.894016,-0.04536,0.25312,0.37366
-18.6362,0,0,23.6362,23.6362,5,5,26.6231,2.7157,-19.6798,0.245687,0.105595,0.0125373,0,0,23.4325,4.34,0.56,0.254004,-0.329522,-0.894016,-0.04536,0.25312,0.37366
-18.3619,0,0,23.3619,23.3619,5,5,26.2313,3.35026,-20.1308,0.381018,0.342739,-0.0599464,0,0,20.79,-0.0525,1.085,0.401014,-0.086254,-0.968436,-0.04536,0.25312,0.37366
-18.0916,0,0,23.0916,23.0916,5,5,25.8451,3.96885,-20.584,0.370243,0.336393,-0.0576133,0,0,20.79,-0.0525,1.085,0.401014,-0.086254,-0.968436,-0.04536,0.25312,0.37366
-17.992,0,0,22.992,22.992,5,5,25.7028,3.60631,-20.4894,-0.262336,0.198905,-0.0157094,0,0,18.235,-0.2975,1.1725,-0.240584,-0.221552,-0.928298,-0.04536,0.25312,0.37366
-17.8936,0,0,22.8936,22.8936,5,5,25.5622,3.25165,-20.3938,-0.256157,0.196857,-0.014316,0,0,18.235,-0.2975,1.1725,-0.240584,-0.221552,-0.928298,-0.04536,0.25312,0.37366
-17.9179,0,0,22.9179,22.9179,5,5,25.597,3.24951,-20.3928,-0.03781,-0.0628484,-0.104328,1,0,23.03,-0.91,0.8575,-0.02135,-0.481534,-1.01736,-0.04256,0.25116,0.38164
-17.9442,0,0,22.9442,22.9442,5,5,25.6346,3.24739,-20.3914,0.20289,0.329037,0.0592813,1,0,24.6225,-0.8225,0.9975,0.220332,-0.090646,-0.854732,-0.04256,0.25116,0.38164
-17.9697,0,0,22.9697,22.9697,5,5,25.671,3.24573,-20.3916,0.202919,0.32961,0.059008,1,0,24.01,-0.9625,0.0875,0.220332,-0.090646,-0.854732,-0.04256,0.25116,0.38164
-17.9931,0,0,22.9931,22.9931,5,5,25.7044,3.24478,-20.3916,0.166976,0.477297,-0.177059,1,0,22.3125,-0.56,-0.035,0.18422,0.056364,-1.08873,-0.04256,0.25116,0.38164
-18.0126,0,0,23.0126,23.0126,5,5,25.7323,3.24362,-20.3923,0.166996,0.477736,-0.177269,1,0,19.2675,-0.8225,-0.2975,0.18422,0.056364,-1.08873,-0.04256,0.25116,0.38164
-18.0341,0,0,23.0341,23.0341,5,5,25.763,3.24256,-20.3925,-0.222712,0.183283,-0.175164,1,0,20.8075,-0.665,-0.105,-0.207156,-0.238266,-1.08641,-0.04256,0.25116,0.38164
-18.0576,0,0,23.0576,23.0576,5,5,25.7966,3.24108,-20.3922,-0.222686,0.18381,-0.175417,1,0,22.4175,-0.7525,0.28,-0.207156,-0.238266,-1.08641,-0.04256,0.25116,0.38164
-18.1339,0,0,23.1339,23.1339,5,5,25.9056,2.83871,-20.2125,-0.263053,-0.0130173,0.020192,0,0,25.305,-0.525,0.56,-0.254736,-0.43676,-0.89182,-0.04256,0.25116,0.38164
-18.2095,0,0,23.2095,23.2095,5,5,26.0136,2.44652,-20.0339,-0.256215,-0.0111868,0.0196518,0,0,26.81,-0.7525,0.8575,-0.254736,-0.43676,-0.89182,-0.04088,0.25004,0.3808
-18.2378,0,0,23.2378,23.2378,5,5,26.0541,2.44483,-20.0328,0.329497,-0.187636,-0.18303,1,0,26.25,-0.63,0.805,0.333426,-0.61366,-1.09263,-0.04088,0.25004,0.3808
-18.2648,0,0,23.2648,23.2648,5,5,26.0926,2.44274,-20.0316,0.329534,-0.187032,-0.183324,1,0,25.165,-0.84,0.91,0.333426,-0.61366,-1.09263,-0.04088,0.25004,0.3808
-18.2895,0,0,23.2895,23.2895,5,5,26.1279,2.44111,-20.0302,0.105907,0.0861084,0.106565,1,0,23.345,-0.56,0.875,0.108824,-0.341356,-0.804712,-0.04088,0.25004,0.3808
-18.3142,0,0,23.3142,23.3142,5,5,26.1631,2.43818,-20.0288,0.105958,0.0866609,0.106296,1,0,23.31,-1.2075,1.2775,0.108824,-0.341356,-0.804712,-0.04088,0.25004,0.3808
-18.2123,0,0,23.2123,23.2123,5,5,26.0176,2.15968,-19.9574,-0.213916,0.185711,-0.0796637,0,0,23.7475,-1.6275,1.225,-0.217282,-0.240218,-0.990518,-0.04088,0.25004,0.3808
-18.1143,0,0,23.1143,23.1143,5,5,25.8776,1.88765,-19.8856,-0.209172,0.183587,-0.0784439,0,0,25.6725,-1.5225,0.9275,-0.217282,-0.240218,-0.990518,-0.04088,0.25004,0.3808
-17.7401,0,0,22.7401,22.7401,5,5,25.3431,2.55671,-20.3854,0.338723,0.500332,0.0711169,0,0,27.4575,-1.4175,0.56,0.34465,0.08479,-0.845704,-0.04088,0.25004,0.3808
-17.3715,0,0,22.3715,22.3715,5,5,24.8165,3.2103,-20.8913,0.32733,0.491775,0.0744878,0,0,27.93,-1.015,-0.1575,0.34465,0.08479,-0.845704,-0.0399,0.2485,0.38108
-17.4026,0,0,22.4026,22.4026,5,5,24.8609,3.20917,-20.8917,0.331116,0.177635,0.24371,1,0,28.49,-0.735,-0.1575,0.348432,-0.229726,-0.677466,-0.0399,0.2485,0.38108
-17.4305,0,0,22.4305,22.4305,5,5,24.9007,3.20826,-20.8931,0.331132,0.178265,0.243419,1,0,25.97,-0.875,-0.77,0.348432,-0.229726,-0.677466,-0.0399,0.2485,0.38108
-17.4487,0,0,22.4487,22.4487,5,5,24.9267,3.33852,-21.0115,0.0817601,0.0181458,0.0415978,0,0,25.9175,-0.77,-0.735,0.100284,-0.390034,-0.877424,-0.0399,0.2485,0.38108
-17.4669,0,0,22.4669,22.4669,5,5,24.9527,3.46486,-21.1284,0.0795591,0.0185015,0.0412881,0,0,26.0575,-1.085,-0.455,0.100284,-0.390034,-0.877424,-0.0399,0.2485,0.38108
-17.4014,0,0,22.4014,22.4014,5,5,24.8592,3.04235,-20.9807,-0.2926,0.189887,0.0326409,0,0,26.6525,-1.085,-0.0175,-0.280844,-0.217526,-0.887062,-0.0399,0.2485,0.38108
-17.3401,0,0,22.3401,22.3401,5,5,24.7715,2.62911,-20.8313,-0.285396,0.18865,0.0336059,0,0,29.5925,-0.77,0.4375,-0.280844,-0.217526,-0.887062,-0.0399,0.2485,0.38108
-17.3728,0,0,22.3728,22.3728,5,5,24.8183,2.62749,-20.8305,0.1781,-0.289345,-0.464799,1,0,29.8025,-0.7175,0.56,0.184586,-0.695766,-1.38128,-0.0399,0.2485,0.38108
-17.4072,0,0,22.4072,22.4072,5,5,24.8675,2.62541,-20.8289,0.178136,-0.288567,-0.465158,1,0,31.115,-0.7525,1.12,0.184586,-0.695766,-1.38128,-0.03808,0.24248,0.37982
-17.4414,0,0,22.4414,22.4414,5,5,24.9163,2.62315,-20.8275,-0.0701413,-0.171407,-0.170561,1,0,30.9225,-0.91,1.0325,-0.064782,-0.5795,-1.08861,-0.03808,0.24248,0.37982
-17.4735,0,0,22.4735,22.4735,5,5,24.9621,2.6204,-20.825,-0.0700933,-0.170682,-0.170896,1,0,29.2075,-0.875,1.785,-0.064782,-0.5795,-1.08861,-0.03808,0.24248,0.37982
-17.5039,0,0,22.5039,22.5039,5,5,25.0055,2.6174,-20.8224,-0.071013,0.0716938,0.331769,1,0,27.86,-0.9975,1.855,-0.065758,-0.338062,-0.589504,-0.03808,0.24248,0.37982
-17.5353,0,0,22.5353,22.5353,5,5,25.0504,2.61413,-20.8199,-0.0709561,0.0724033,0.33144,1,0,28.665,-1.1725,1.855,-0.065758,-0.338062,-0.589504,-0.03808,0.24248,0.37982
-17.5678,0,0,22.5678,22.5678,5,5,25.0969,2.61043,-20.818,0.309602,0.347925,-0.177785,1,0,29.645,-1.5225,1.715,0.316346,-0.063562,-1.09446,-0.03808,0.24248,0.37982
-17.6022,0,0,22.6022,22.6022,5,5,25.146,2.60745,-20.8171,0.309654,0.348701,-0.178146,1,0,31.0975,-1.4,0.9625,0.316346,-0.063562,-1.09446,-0.03808,0.24248,0.37982
-17.6394,0,0,22.6394,22.6394,5,5,25.1991,2.60447,-20.8172,0.181903,0.227413,-0.351403,1,0,33.3375,-1.6625,0.42,0.188002,-0.185562,-1.26599,-0.03808,0.24248,0.37982
-17.676,0,0,22.676,22.676,5,5,25.2514,2.60286,-20.8178,0.181931,0.228239,-0.351791,1,0,32.9525,-1.05,-0.175,0.188002,-0.185562,-1.26599,-0.04648,0.2408,0.37982
-17.7131,0,0,22.7131,22.7131,5,5,25.3045,2.59761,-20.8119,0.133792,0.00118846,-0.155096,1,0,33.18,-1.3475,4.1825,0.139568,-0.413214,-1.07043,-0.04648,0.2408,0.37982
-17.7473,0,0,22.7473,22.7473,5,5,25.3534,2.5946,-20.8126,0.133845,0.00195973,-0.155458,1,0,31.01,-1.82,0.1225,0.139568,-0.413214,-1.07043,-0.04648,0.2408,0.37982
-17.8262,0,0,22.8262,22.8262,5,5,25.4661,2.53166,-20.7836,-0.031493,-0.0791684,-0.038595,0,0,31.08,-1.925,0.5425,-0.027572,-0.496052,-0.953674,-0.04648,0.2408,0.37982
-17.9054,0,0,22.9054,22.9054,5,5,25.5791,2.47074,-20.7545,-0.0304309,-0.0773696,-0.0394024,0,0,32.585,-1.8025,0.735,-0.027572,-0.496052,-0.953674,-0.04648,0.2408,0.37982
-17.9413,0,0,22.9413,22.9413,5,5,25.6304,2.4681,-20.7537,-0.114574,-0.0612954,-0.234415,1,0,32.3575,-1.225,0.875,-0.112118,-0.480802,-1.1468,-0.04648,0.2408,0.37982
-17.982,0,0,22.982,22.982,5,5,25.6886,2.46575,-20.7518,-0.114533,-0.0603814,-0.234852,1,0,36.12,-0.805,1.3475,-0.112118,-0.480802,-1.1468,-0.04648,0.2408,0.37982
-18.0232,0,0,23.0232,23.0232,5,5,25.7474,2.46339,-20.7497,-0.217998,0.168922,-0.272304,1,0,36.5575,-0.77,1.4175,-0.216062,-0.252662,-1.18352,-0.04648,0.2408,0.37982
-18.0657,0,0,23.0657,23.0657,5,5,25.8081,2.45977,-20.7477,-0.217935,0.169875,-0.272761,1,0,37.5375,-1.435,1.75,-0.216062,-0.252662,-1.18352,-0.04648,0.2408,0.37982
-18.0535,0,0,23.0535,23.0535,5,5,25.7907,2.48726,-20.8023,0.0164177,0.0292686,-0.111585,0,0,36.96,-1.68,1.995,0.019764,-0.39284,-1.0237,-0.04718,0.24752,0.378
-18.0919,0,0,23.0919,23.0919,5,5,25.8456,2.48294,-20.7997,0.119027,-0.144265,-0.143351,1,0,34.3175,-1.6625,2.205,0.122732,-0.567056,-1.05481,-0.04718,0.24752,0.378
-18.1304,0,0,23.1304,23.1304,5,5,25.9006,2.47928,-20.7982,0.119091,-0.1434,-0.143767,1,0,34.4225,-1.5925,1.47,0.122732,-0.567056,-1.05481,-0.04718,0.24752,0.378
-18.1682,0,0,23.1682,23.1682,5,5,25.9546,2.47596,-20.7971,0.0441918,-0.0777029,-0.238601,1,0,33.8275,-1.505,1.19,0.047458,-0.502274,-1.14851,-0.04718,0.24752,0.378
-18.2113,0,0,23.2113,23.2113,5,5,26.0161,2.47358,-20.7973,0.0442333,-0.0767385,-0.239069,1,0,38.0625,-1.3475,0.2625,0.047458,-0.502274,-1.14851,-0.04718,0.24752,0.378
-18.2549,0,0,23.2549,23.2549,5,5,26.0785,2.47151,-20.7981,-0.158369,-0.0546325,-0.123851,1,0,38.5875,-1.3475,-0.14,-0.156038,-0.481168,-1.03371,-0.04718,0.24752,0.378
-18.3054,0,0,23.3054,23.3054,5,5,26.1506,2.46987,-20.7992,-0.15834,-0.0535033,-0.124403,1,0,44.03,-1.19,-0.4025,-0.156038,-0.481168,-1.03371,-0.04718,0.24752,0.378
-18.2586,0,0,23.2586,23.2586,5,5,26.0837,2.81011,-21.0245,0.235294,0.0603724,-0.0808574,0,0,39.62,-1.3825,0.07,0.24522,-0.366244,-0.990762,-0.04718,0.24752,0.378
-18.2109,0,0,23.2109,23.2109,5,5,26.0156,3.13837,-21.234,0.229573,0.0591766,-0.0806038,0,0,37.3625,-1.4,0.4375,0.24522,-0.366244,-0.990762,-0.0434,0.23744,0.3899
-17.9088,0,0,22.9088,22.9088,5,5,25.5839,3.49063,-21.5497,0.161963,0.426202,-0.0197414,0,0,37.03,-1.295,0.525,0.183488,0.00732,-0.9333,-0.0434,0.23744,0.3899
-17.6101,0,0,22.6101,22.6101,5,5,25.1572,3.83393,-21.8668,0.155984,0.419322,-0.0169025,0,0,35.9625,-1.0675,0.98,0.183488,0.00732,-0.9333,-0.0434,0.23744,0.3899
-17.5505,0,0,22.5505,22.5505,5,5,25.0722,4.18446,-22.1065,0.211231,0.11517,0.0311657,0,0,37.905,-0.9625,1.4525,0.245098,-0.294996,-0.885842,-0.0434,0.23744,0.3899
-17.4972,0,0,22.4972,22.4972,5,5,24.996,4.52548,-22.3441,0.205296,0.113778,0.0313169,0,0,41.7375,-1.1375,1.8025,0.245098,-0.294996,-0.885842,-0.0434,0.23744,0.3899
-17.4331,0,0,22.4331,22.4331,5,5,24.9044,4.99976,-22.6583,0.335177,0.0938468,-0.0425264,0,0,44.5025,-0.9975,2.485,0.383812,-0.313174,-0.959164,-0.0434,0.23744,0.3899
-17.3692,0,0,22.3692,22.3692,5,5,24.8132,5.46103,-22.9701,0.327159,0.0920988,-0.0425254,0,0,43.4875,-1.505,2.94,0.383812,-0.313174,-0.959164,-0.0434,0.23744,0.3899
-17.417,0,0,22.417,22.417,5,5,24.8814,5.45564,-22.9668,-0.339825,-0.0429924,-0.0700643,1,0,41.685,-2.0825,2.8525,-0.28609,-0.449204,-0.986004,-0.0434,0.23744,0.3899
-17.4606,0,0,22.4606,22.4606,5,5,24.9437,5.45068,-22.9638,-0.339739,-0.0420077,-0.0705126,1,0,38.3425,-1.9425,2.555,-0.28609,-0.449204,-0.986004,-0.0427,0.23422,0.38598
-17.3323,0,0,22.3323,22.3323,5,5,24.7604,5.1797,-22.923,-0.226664,0.243261,-0.100005,0,0,36.89,-1.89,2.205,-0.177266,-0.161528,-1.01699,-0.0427,0.23422,0.38598
-17.2109,0,0,22.2109,22.2109,5,5,24.5869,4.91409,-22.8827,-0.222047,0.240691,-0.0983758,0,0,40.88,-2.2925,1.295,-0.177266,-0.161528,-1.01699,-0.0427,0.23422,0.38598
-17.2603,0,0,22.2603,22.2603,5,5,24.6576,4.91004,-22.8824,0.0718979,-0.161208,-0.388057,1,0,43.1725,-2.135,0.8925,0.117852,-0.564128,-1.30394,-0.0427,0.23422,0.38598
-17.3172,0,0,22.3172,22.3172,5,5,24.7389,4.9063,-22.8837,0.0719628,-0.159922,-0.388642,1,0,49.2275,-2.3625,-0.0525,0.117852,-0.564128,-1.30394,-0.0427,0.23422,0.38598
-17.3312,0,0,22.3312,22.3312,5,5,24.7588,5.04305,-22.9985,0.0995921,0.0166581,-0.0640229,0,0,48.44,-1.9775,0.105,0.147986,-0.38796,-0.98149,-0.0427,0.23422,0.38598
-17.3403,0,0,22.3403,22.3403,5,5,24.7719,5.17549,-23.1121,0.0972898,0.0167772,-0.0643046,0,0,44.555,-2.45,0.455,0.147986,-0.38796,-0.98149,-0.0427,0.23422,0.38598
-17.3887,0,0,22.3887,22.3887,5,5,24.841,5.17172,-23.1127,-0.0191496,0.229761,-0.256234,1,0,42.4025,-2.205,0.3325,0.030988,-0.17629,-1.17144,-0.0427,0.23422,0.38598
-17.4326,0,0,22.4326,22.4326,5,5,24.9037,5.16895,-23.1132,-0.0191014,0.230752,-0.256689,1,0,38.78,-1.645,0.1575,0.030988,-0.17629,-1.17144,-0.03822,0.22764,0.38654
-17.4791,0,0,22.4791,22.4791,5,5,24.9702,5.16553,-23.1137,0.0843424,0.191866,-0.439873,1,0,40.8625,-1.9775,0.35,0.13481,-0.216184,-1.35274,-0.03822,0.22764,0.38654
-17.5324,0,0,22.5324,22.5324,5,5,25.0463,5.16241,-23.112,0.0843967,0.193067,-0.440428,1,0,46.1825,-1.2775,1.435,0.13481,-0.216184,-1.35274,-0.03822,0.22764,0.38654
-17.5919,0,0,22.5919,22.5919,5,5,25.1313,5.15898,-23.1104,0.205335,0.0518848,0.198529,1,0,51.135,-1.4875,1.4,0.2562,-0.358558,-0.718092,-0.03822,0.22764,0.38654
-17.6522,0,0,22.6522,22.6522,5,5,25.2174,5.15536,-23.1081,0.205397,0.0532424,0.197898,1,0,51.765,-1.3825,1.89,0.2562,-0.358558,-0.718092,-0.03822,0.22764,0.38654
-17.7107,0,0,22.7107,22.7107,5,5,25.301,5.15102,-23.1057,0.0454762,-0.173696,0.371379,1,0,50.33,-1.75,2.0825,0.095526,-0.586576,-0.54534,-0.03822,0.22764,0.38654
-17.7615,0,0,22.7615,22.7615,5,5,25.3735,5.14765,-23.1033,0.0455349,-0.172554,0.370844,1,0,44.135,-1.2425,1.8375,0.095526,-0.586576,-0.54534,-0.03822,0.22764,0.38654
-17.8081,0,0,22.8081,22.8081,5,5,25.4401,5.14521,-23.1007,-0.238699,0.00728702,0.160969,1,0,40.7925,-0.665,1.7675,-0.189954,-0.407968,-0.753106,-0.03822,0.22764,0.38654
-17.8579,0,0,22.8579,22.8579,5,5,25.5113,5.14235,-23.0994,-0.238649,0.00840653,0.160441,1,0,43.4525,-1.2425,1.1375,-0.189954,-0.407968,-0.753106,-0.042,0.23254,0.3927
-17.91,0,0,22.91,22.91,5,5,25.5857,5.13947,-23.0979,0.194254,0.408929,-0.194573,1,0,45.2025,-1.19,1.26,0.244732,-0.009028,-1.10483,-0.042,0.23254,0.3927
-17.9758,0,0,22.9758,22.9758,5,5,25.6797,5.13594,-23.0979,0.194315,0.410405,-0.195275,1,0,56.315,-1.9075,0.6475,0.244732,-0.009028,-1.10483,-0.042,0.23254,0.3927
-18.0428,0,0,23.0428,23.0428,5,5,25.7755,5.13225,-23.0979,-0.202028,0.108789,-0.400947,1,0,57.26,-1.9775,0.7175,-0.153354,-0.311832,-1.30821,-0.042,0.23254,0.3927
-18.106,0,0,23.106,23.106,5,5,25.8657,5.12902,-23.0983,-0.201972,0.110202,-0.401626,1,0,54.18,-1.8725,0.315,-0.153354,-0.311832,-1.30821,-0.042,0.23254,0.3927
-18.1658,0,0,23.1658,23.1658,5,5,25.9512,5.12589,-23.0981,-0.0335385,0.416736,-0.274159,1,0,51.5375,-1.645,0.665,0.015738,-0.006954,-1.18108,-0.042,0.23254,0.3927
-18.2154,0,0,23.2154,23.2154,5,5,26.0221,5.12287,-23.096,-0.0334861,0.417846,-0.274694,1,0,43.2075,-1.085,1.645,0.015738,-0.006954,-1.18108,-0.042,0.23254,0.3927
-18.2664,0,0,23.2664,23.2664,5,5,26.0949,5.11846,-23.0945,0.095487,-0.147437,-0.376185,1,0,44.3625,-1.9775,1.68,0.14518,-0.57279,-1.28124,-0.042,0.23254,0.3927
-18.3226,0,0,23.3226,23.3226,5,5,26.1751,5.1131,-23.0916,0.0955801,-0.146182,-0.376792,1,0,48.405,-2.1175,2.6425,0.14518,-0.57279,-1.28124,-0.042,0.23254,0.3927
-18.3866,0,0,23.3866,23.3866,5,5,26.2665,5.10777,-23.0885,-0.0599504,-0.300831,-0.0543779,1,0,54.6875,-2.0475,2.7475,-0.011102,-0.728706,-0.960628,-0.04816,0.22526,0.39676
-18.458,0,0,23.458,23.458,5,5,26.3686,5.10144,-23.0844,-0.0598404,-0.299235,-0.0551561,1,0,60.6375,-2.3275,3.4825,-0.011102,-0.728706,-0.960628,-0.04816,0.22526,0.39676
-18.5283,0,0,23.5283,23.5283,5,5,26.469,5.09527,-23.0811,-0.161417,-0.445442,0.227473,1,0,59.675,-2.415,3.0975,-0.113216,-0.876326,-0.679418,-0.04816,0.22526,0.39676
-18.5985,0,0,23.5985,23.5985,5,5,26.5693,5.08909,-23.0778,-0.161309,-0.443877,0.226703,1,0,59.675,-2.415,3.0975,-0.113216,-0.876326,-0.679418,-0.04816,0.22526,0.39676
-18.6553,0,0,23.6553,23.6553,5,5,26.6505,5.08383,-23.0762,-0.132061,0.318238,0.109645,1,0,49.035,-2.3975,1.925,-0.083936,-0.116266,-0.794952,-0.04816,0.22526,0.39676
-18.7122,0,0,23.7122,23.7122,5,5,26.7317,5.07858,-23.0747,-0.13197,0.319503,0.109019,1,0,49.035,-2.3975,1.925,-0.083936,-0.116266,-0.794952,-0.04816,0.22526,0.39676
-18.7689,0,0,23.7689,23.7689,5,5,26.8126,5.07459,-23.0741,-0.169318,0.632307,-0.198366,1,0,48.9475,-1.9775,1.1025,-0.121512,0.194956,-1.09934,-0.04816,0.22526,0.39676
-18.8255,0,0,23.8255,23.8255,5,5,26.8936,5.0706,-23.0736,-0.169249,0.633566,-0.198997,1,0,48.9475,-1.9775,1.1025,-0.121512,0.194956,-1.09934,-0.04816,0.22526,0.39676
-18.9023,0,0,23.9023,23.9023,5,5,27.0032,5.06528,-23.0748,-0.463273,0.375993,-0.221369,1,0,65.1175,-3.1675,0.49,-0.416874,-0.06405,-1.12069,-0.04704,0.2289,0.39984
-18.9772,0,0,23.9772,23.9772,5,5,27.1103,5.06164,-23.0762,0.132677,-0.524009,0.377655,1,0,63.665,-2.31,0,0.181536,-0.964776,-0.525454,-0.04704,0.2289,0.39984
-19.0521,0,0,24.0521,24.0521,5,5,27.2173,5.05801,-23.0776,0.132741,-0.52235,0.376811,1,0,63.665,-2.31,0,0.181536,-0.964776,-0.525454,-0.04704,0.2289,0.39984
-19.1108,0,0,24.1108,24.1108,5,5,27.3012,5.05545,-23.0771,0.249411,0.272161,0.145249,1,0,50.5925,-1.2425,0.7,0.298656,-0.172386,-0.75457,-0.04704,0.2289,0.39984
-19.1705,0,0,24.1705,24.1705,5,5,27.3864,5.05262,-23.0758,-0.0947085,0.624472,-0.487015,1,0,51.3275,-1.155,1.2075,-0.04697,0.178242,-1.38128,-0.04704,0.2289,0.39984
-19.2371,0,0,24.2371,24.2371,5,5,27.4816,5.04777,-23.0736,-0.0946242,0.625943,-0.48777,1,0,56.8225,-1.9775,2.1875,-0.04697,0.178242,-1.38128,-0.04704,0.2289,0.39984
-19.3139,0,0,24.3139,24.3139,5,5,27.5913,5.04233,-23.0707,-0.0549253,-0.118556,-0.0732013,1,0,64.9425,-2.0825,2.73,-0.007198,-0.567178,-0.969046,-0.04704,0.2289,0.39984
-19.3945,0,0,24.3945,24.3945,5,5,27.7064,5.03593,-23.0679,-0.0548139,-0.116778,-0.0741217,1,0,68.0225,-2.625,2.905,-0.007198,-0.567178,-0.969046,-0.04494,0.2198,0.40922
-19.4747,0,0,24.4747,24.4747,5,5,27.821,5.03108,-23.0647,0.0826707,-0.536106,0.281631,1,0,67.6375,-1.6975,2.695,0.130784,-0.987834,-0.615124,-0.04494,0.2198,0.40922
-19.5448,0,0,24.5448,24.5448,5,5,27.9212,5.02622,-23.0626,0.0827553,-0.534562,0.280823,1,0,59.675,-1.9775,2.1875,0.130784,-0.987834,-0.615124,-0.04494,0.2198,0.40922
-19.6079,0,0,24.6079,24.6079,5,5,28.0113,5.02016,-23.0606,-0.0191874,-0.0145021,0.165263,1,0,53.9875,-2.625,2.45,0.028304,-0.4697,-0.729072,-0.04494,0.2198,0.40922
-19.6712,0,0,24.6712,24.6712,5,5,28.1017,5.01505,-23.0584,-0.0190985,-0.0131105,0.16453,1,0,54.1975,-2.1,2.2575,0.028304,-0.4697,-0.729072,-0.04494,0.2198,0.40922
-19.6747,0,0,24.6747,24.6747,5,5,28.1067,4.94477,-23.0281,-0.0537148,0.0737254,-0.0668056,0,0,56.56,-2.6775,1.4,-0.007686,-0.38308,-0.958676,-0.04494,0.2198,0.40922
-19.6944,0,0,24.6944,24.6944,5,5,28.1349,4.87552,-22.9979,-0.0525107,0.074207,-0.0669456,0,0,69.7725,-3.0275,1.61,-0.007686,-0.38308,-0.958676,-0.04494,0.2198,0.40922
-19.6669,0,0,24.6669,24.6669,5,5,28.0955,4.37649,-22.7841,-0.357384,0.222196,-0.0467005,0,0,72.17,-3.64,1.89,-0.322568,-0.234972,-0.939522,-0.04494,0.2198,0.40922
-19.64,0,0,24.64,24.64,5,5,28.0571,3.88794,-22.5698,-0.348879,0.221895,-0.0458438,0,0,73.15,-3.64,1.4875,-0.322568,-0.234972,-0.939522,-0.04494,0.2198,0.40922
-19.7221,0,0,24.7221,24.7221,5,5,28.1744,3.88336,-22.5708,0.0980249,0.8198,-0.529128,1,0,69.3875,-2.6775,0.525,0.126148,0.36051,-1.41813,-0.04046,0.20678,0.40838
-19.7887,0,0,24.7887,24.7887,5,5,28.2696,3.87829,-22.5714,0.250213,0.25313,0.33356,1,0,56.98,-2.835,0.8225,0.278892,-0.207034,-0.561322,-0.04046,0.20678,0.40838
-19.8577,0,0,24.8577,24.8577,5,5,28.3681,3.87344,-22.5686,0.250298,0.254643,0.332751,1,0,58.73,-1.7675,2.5375,0.278892,-0.207034,-0.561322,-0.04046,0.20678,0.40838
-19.9325,0,0,24.9325,24.9325,5,5,28.475,3.86745,-22.5667,-0.244409,0.137943,0.245439,1,0,63.455,-2.6075,2.38,-0.218014,-0.325252,-0.647088,-0.04046,0.20678,0.40838
-20.0224,0,0,25.0224,25.0224,5,5,28.6034,3.85922,-22.5625,-0.244266,0.139911,0.244379,1,0,75.4075,-3.0975,4.2175,-0.218014,-0.325252,-0.647088,-0.04046,0.20678,0.40838
-20.1153,0,0,25.1153,25.1153,5,5,28.7361,3.85077,-22.5578,-0.503855,0.426498,0.192871,1,0,77.7875,-3.0625,4.5325,-0.47885,-0.040992,-0.697108,-0.04046,0.20678,0.40838
-20.2078,0,0,25.2078,25.2078,5,5,28.8682,3.84534,-22.555,-0.503761,0.428518,0.191768,1,0,77.56,-2.065,2.6775,-0.47885,-0.040992,-0.697108,-0.04046,0.20678,0.40838
-19.787,0,0,24.787,24.787,5,5,28.2671,4.37072,-22.9886,0.238482,0.666565,0.0461973,0,0,72.625,-1.4175,1.8725,0.27572,0.206302,-0.845948,-0.04046,0.20678,0.40838
-19.3592,0,0,24.3592,24.3592,5,5,27.656,4.88015,-23.4213,0.22962,0.656838,0.050549,0,0,62.9475,-3.255,2.835,0.27572,0.206302,-0.845948,-0.04578,0.20384,0.41244
-19.4326,0,0,24.4326,24.4326,5,5,27.7609,4.874,-23.4171,-0.0200476,0.561122,-0.234302,1,0,62.195,-2.1,3.57,0.024888,0.109068,-1.12777,-0.04578,0.20384,0.41244
-19.513,0,0,24.513,24.513,5,5,27.8757,4.86872,-23.4165,-0.0199557,0.562891,-0.235227,1,0,67.9175,-2.6075,1.5225,0.024888,0.109068,-1.12777,-0.04578,0.20384,0.41244
-19.6012,0,0,24.6012,24.6012,5,5,28.0017,4.86207,-23.4163,-0.188584,-0.00146901,-0.256778,1,0,74.27,-3.4475,1.645,-0.14457,-0.456646,-1.14814,-0.04578,0.20384,0.41244
-19.6969,0,0,24.6969,24.6969,5,5,28.1385,4.85393,-23.4159,-0.188442,0.000635023,-0.257886,1,0,80.2375,-4.1475,2.1875,-0.14457,-0.456646,-1.14814,-0.04578,0.20384,0.41244
-19.796,0,0,24.796,24.796,5,5,28.2801,4.84624,-23.4161,-0.383171,-0.530762,0.279966,1,0,82.9675,-4.06,1.785,-0.340258,-0.989664,-0.613294,-0.04578,0.20384,0.41244
-19.8859,0,0,24.8859,24.8859,5,5,28.4084,4.84295,-23.4168,-0.383114,-0.528794,0.278911,1,0,75.6,-1.9425,0.2975,-0.340258,-0.989664,-0.613294,-0.04578,0.20384,0.41244
-19.9662,0,0,24.9662,24.9662,5,5,28.5232,4.8376,-23.4191,-0.5203,-0.473057,0.092806,1,0,68.0225,-3.43,0.0875,-0.478118,-0.93574,-0.797026,-0.04578,0.20384,0.41244
-20.0444,0,0,25.0444,25.0444,5,5,28.6348,4.83175,-23.4166,-0.520198,-0.471347,0.0918848,1,0,66.0625,-2.3625,2.6425,-0.478118,-0.93574,-0.797026,-0.0448,0.20104,0.41398
-20.0389,0,0,25.0389,25.0389,5,5,28.627,4.86211,-23.4069,0.0208569,0.0661135,-0.139478,0,0,67.83,-1.54,2.5725,0.065758,-0.398696,-1.02663,-0.0448,0.20104,0.41398
-20.0336,0,0,25.0336,25.0336,5,5,28.6194,4.89171,-23.3972,0.0203422,0.0659768,-0.139454,0,0,67.83,-1.54,2.5725,0.065758,-0.398696,-1.02663,-0.0448,0.20104,0.41398
-20.1323,0,0,25.1323,25.1323,5,5,28.7605,4.88248,-23.3921,-0.327068,0.353424,-0.508727,1,0,82.4425,-3.3425,4.97,-0.283284,-0.113704,-1.3919,-0.0448,0.20104,0.41398
-20.2311,0,0,25.2311,25.2311,5,5,28.9016,4.87324,-23.3869,-0.326907,0.35558,-0.509898,1,0,82.4425,-3.3425,4.97,-0.283284,-0.113704,-1.3919,-0.0448,0.20104,0.41398
-20.3352,0,0,25.3352,25.3352,5,5,29.0502,4.86702,-23.3873,0.0332845,0.342946,-0.564133,1,0,86.94,-3.3425,1.3125,0.078324,-0.128588,-1.44448,-0.0448,0.20104,0.41398
-20.4392,0,0,25.4392,25.4392,5,5,29.1989,4.86081,-23.3877,0.0333926,0.345208,-0.565383,1,0,86.94,-3.3425,1.3125,0.078324,-0.128588,-1.44448,-0.0448,0.20104,0.41398
-20.5258,0,0,25.5258,25.5258,5,5,29.3226,4.8523,-23.3846,-0.542788,0.184663,-0.901828,1,0,72.8,-3.5,3.7625,-0.500444,-0.290848,-1.7773,-0.0448,0.20104,0.41398
-20.6124,0,0,25.6124,25.6124,5,5,29.4463,4.84379,-23.3815,-0.54264,0.186544,-0.902872,1,0,72.8,-3.5,3.7625,-0.500444,-0.290848,-1.7773,-0.04424,0.19502,0.42112
-20.7117,0,0,25.7117,25.7117,5,5,29.5881,4.83574,-23.3808,-0.136251,0.00648334,-0.201427,1,0,83.09,-3.955,2.415,-0.092476,-0.472872,-1.08007,-0.04424,0.19502,0.42112
-20.811,0,0,25.811,25.811,5,5,29.73,4.82768,-23.3802,-0.136111,0.00863306,-0.202637,1,0,83.09,-3.955,2.415,-0.092476,-0.472872,-1.08007,-0.04424,0.19502,0.42112
-20.9205,0,0,25.9205,25.9205,5,5,29.8865,4.82067,-23.3812,-0.362074,-0.00353353,0.267157,1,0,91.3675,-3.9025,1.2775,-0.319518,-0.48739,-0.612562,-0.04424,0.19502,0.42112
-21.0301,0,0,26.0301,26.0301,5,5,30.043,4.81366,-23.3822,-0.361952,-0.00117073,0.265807,1,0,91.3675,-3.9025,1.2775,-0.319518,-0.48739,-0.612562,-0.04424,0.19502,0.42112
-21.1278,0,0,26.1278,26.1278,5,5,30.1826,4.80642,-23.3831,0.35336,0.108406,0.180993,1,0,81.9,-3.9725,1.435,0.398696,-0.38003,-0.695522,-0.04424,0.19502,0.42112
-21.2201,0,0,26.2201,26.2201,5,5,30.3144,4.79771,-23.3821,-0.0019557,0.711135,-0.314158,1,0,77.455,-4.1475,2.835,0.041724,0.220088,-1.18572,-0.04424,0.19502,0.42112
-21.3199,0,0,26.3199,26.3199,5,5,30.457,4.79068,-23.3783,-0.00183357,0.713279,-0.315403,1,0,83.3525,-2.485,3.71,0.041724,0.220088,-1.18572,-0.04424,0.19502,0.42112
-21.4254,0,0,26.4254,26.4254,5,5,30.6077,4.78423,-23.3742,0.311104,0.507072,-0.17964,1,0,87.92,-2.1,3.6925,0.355874,0.011834,-1.04969,-0.04228,0.1841,0.4361
-21.5369,0,0,26.5369,26.5369,5,5,30.767,4.7732,-23.3684,-0.680027,-0.236122,0.0335056,1,0,92.5925,-3.8675,5.95,-0.639646,-0.732976,-0.836798,-0.04228,0.1841,0.4361
-21.6543,0,0,26.6543,26.6543,5,5,30.9348,4.7651,-23.3658,-0.679886,-0.23361,0.0320191,1,0,97.545,-3.3425,3.4825,-0.639646,-0.732976,-0.836798,-0.04228,0.1841,0.4361
-21.7636,0,0,26.7636,26.7636,5,5,31.0908,4.75744,-23.3669,0.258238,0.257962,0.0895225,1,0,91.1225,-4.2,1.54,0.302316,-0.244244,-0.77836,-0.04228,0.1841,0.4361
-21.8677,0,0,26.8677,26.8677,5,5,31.2396,4.75122,-23.3648,0.258346,0.26018,0.0881911,1,0,86.905,-2.5375,2.66,0.302316,-0.244244,-0.77836,-0.04228,0.1841,0.4361
-21.2786,0,0,26.2786,26.2786,5,5,30.398,4.63372,-23.6349,-0.222272,1.30531,0.216571,0,0,84.56,-3.885,3.85,-0.18239,0.812276,-0.658556,-0.04228,0.1841,0.4361
-20.7011,0,0,25.7011,25.7011,5,5,29.573,4.51833,-23.9039,-0.220265,1.29296,0.223883,0,0,92.6625,-1.855,3.8675,-0.18239,0.812276,-0.658556,-0.04228,0.1841,0.4361
-20.8178,0,0,25.8178,25.8178,5,5,29.7397,4.51023,-23.9009,-0.198985,0.227977,-0.364499,1,0,96.8975,-3.3075,3.605,-0.161162,-0.254126,-1.24098,-0.04228,0.1841,0.4361
-20.9361,0,0,25.9361,25.9361,5,5,29.9087,4.50047,-23.8981,-0.198816,0.230535,-0.36595,1,0,98.2275,-4.1825,4.0075,-0.161162,-0.254126,-1.24098,-0.04018,0.17542,0.44072
-21.2386,0,0,26.2386,26.2386,5,5,30.3409,4.63307,-23.7625,0.118749,-0.239837,0.140723,0,0,103.058,-4.48,2.205,0.160064,-0.730414,-0.734318,-0.04018,0.17542,0.44072
-21.5276,0,0,26.5276,26.5276,5,5,30.7537,4.76397,-23.63,0.116472,-0.233748,0.136912,0,0,96.18,-4.655,1.015,0.160064,-0.730414,-0.734318,-0.04018,0.17542,0.44072
-21.6375,0,0,26.6375,26.6375,5,5,30.9107,4.75743,-23.6288,0.240744,-0.133452,-0.167671,1,0,91.56,-2.975,2.31,0.284748,-0.63257,-1.03517,-0.04018,0.17542,0.44072
-21.7492,0,0,26.7492,26.7492,5,5,31.0704,4.74579,-23.6275,0.240947,-0.131064,-0.169086,1,0,93.0125,-5.495,3.9025,0.284748,-0.63257,-1.03517,-0.04018,0.17542,0.44072
-21.8651,0,0,26.8651,26.8651,5,5,31.2358,4.73677,-23.6233,-0.288817,-0.424141,0.185495,1,0,96.1625,-3.29,4.585,-0.247416,-0.92781,-0.681858,-0.04018,0.17542,0.44072
-21.9856,0,0,26.9856,26.9856,5,5,31.408,4.72529,-23.6202,-0.288617,-0.421574,0.183953,1,0,99.96,-4.8475,4.7775,-0.247416,-0.92781,-0.681858,-0.04018,0.17542,0.44072
-22.0255,0,0,27.0255,27.0255,5,5,31.465,4.49397,-23.4398,-0.160435,0.103243,-0.138905,0,0,101.483,-4.6375,5.74,-0.122732,-0.404552,-1.00199,-0.04018,0.17542,0.44072
-22.0725,0,0,27.0725,27.0725,5,5,31.5321,4.27135,-23.2561,-0.156561,0.104394,-0.139262,0,0,108.01,-3.36,2.9225,-0.122732,-0.404552,-1.00199,-0.04074,0.17094,0.45094
-22.1999,0,0,27.1999,27.1999,5,5,31.7142,4.2602,-23.2588,-0.115547,-0.0896468,-0.408938,1,0,105.753,-6.4225,1.855,-0.08174,-0.601094,-1.26795,-0.04074,0.17094,0.45094
-22.3199,0,0,27.3199,27.3199,5,5,31.8856,4.25214,-23.2573,-0.115407,-0.0871053,-0.410502,1,0,99.645,-3.605,2.9575,-0.08174,-0.601094,-1.26795,-0.04074,0.17094,0.45094
-22.4409,0,0,27.4409,27.4409,5,5,32.0584,4.24089,-23.2576,-0.270227,0.570053,-0.702364,1,0,100.485,-5.74,3.0625,-0.237412,0.052826,-1.55599,-0.04074,0.17094,0.45094
-22.5686,0,0,27.5686,27.5686,5,5,32.2408,4.2347,-23.2523,-0.270119,0.572745,-0.704046,1,0,105.63,-1.4525,4.305,-0.237412,0.052826,-1.55599,-0.04074,0.17094,0.45094
-22.6994,0,0,27.6994,27.6994,5,5,32.4278,4.22698,-23.249,-0.581717,0.417835,-0.456931,1,0,108.29,-2.8525,3.7625,-0.550464,-0.104676,-1.30906,-0.04074,0.17094,0.45094
-22.8294,0,0,27.8294,27.8294,5,5,32.6135,4.21824,-23.2471,-0.581565,0.420567,-0.458659,1,0,107.625,-3.7625,3.43,-0.550464,-0.104676,-1.30906,-0.04074,0.17094,0.45094
-22.6334,0,0,27.6334,27.6334,5,5,32.3334,5.16218,-23.7334,0.553092,0.444066,0.126949,0,0,110.758,-4.0775,1.9775,0.605486,-0.076372,-0.729438,-0.04074,0.17094,0.45094
-22.4375,0,0,27.4375,27.4375,5,5,32.0536,6.08064,-24.2201,0.537139,0.439117,0.128209,0,0,108.745,-6.02,1.435,0.605486,-0.076372,-0.729438,-0.03906,0.1624,0.44926
-22.5654,0,0,27.5654,27.5654,5,5,32.2362,6.07366,-24.2196,0.0412347,0.310644,0.111779,1,0,105.98,-3.3775,2.135,0.10736,-0.2074,-0.744078,-0.03906,0.1624,0.44926
-22.6999,0,0,27.6999,27.6999,5,5,32.4285,6.06033,-24.2189,0.041466,0.313476,0.110016,1,0,111.318,-6.405,4.2875,0.10736,-0.2074,-0.744078,-0.03906,0.1624,0.44926
-23.0913,0,0,28.0913,28.0913,5,5,32.9876,5.55777,-23.7393,-0.292883,-0.145499,0.245678,0,0,112.928,-3.045,5.985,-0.237168,-0.674538,-0.604998,-0.03906,0.1624,0.44926
-23.4757,0,0,28.4757,28.4757,5,5,33.5367,5.0647,-23.2715,-0.284315,-0.137083,0.241111,0,0,114.643,-4.5675,5.915,-0.237168,-0.674538,-0.604998,-0.03906,0.1624,0.44926
-22.952,0,0,27.952,27.952,5,5,32.7885,5.34657,-23.671,0.0879992,1.04252,0.00834653,0,0,112.158,-4.8825,5.67,0.141642,0.514962,-0.842654,-0.03906,0.1624,0.44926
-22.4364,0,0,27.4364,27.4364,5,5,32.0521,5.62679,-24.0817,0.0831308,1.03147,0.0148116,0,0,116.603,-5.11,3.3425,0.141642,0.514962,-0.842654,-0.03906,0.1624,0.44926
-22.5816,0,0,27.5816,27.5816,5,5,32.2595,5.61148,-24.0837,0.176455,0.0642386,-0.52695,1,0,119.98,-8.26,3.5175,0.235094,-0.454328,-1.37836,-0.03906,0.1624,0.44926
-22.7226,0,0,27.7226,27.7226,5,5,32.4609,5.60066,-24.0832,0.176643,0.0672041,-0.528808,1,0,116.498,-5.25,3.3775,0.235094,-0.454328,-1.37836,-0.03906,0.1624,0.44926
-22.8681,0,0,27.8681,27.8681,5,5,32.6687,5.58691,-24.0849,0.618239,0.344311,-0.143689,1,0,120.19,-7.3675,3.2375,0.67832,-0.18056,-0.9943,-0.04494,0.154,0.45696
-23.0152,0,0,28.0152,28.0152,5,5,32.8789,5.5774,-24.0792,0.618404,0.34739,-0.145652,1,0,121.135,-2.9225,5.5475,0.67832,-0.18056,-0.9943,-0.04494,0.154,0.45696
-23.1621,0,0,28.1621,28.1621,5,5,33.0888,5.56533,-24.0771,-1.22882,-0.279593,0.198972,1,0,121.135,-5.32,4.6025,-1.17693,-0.809958,-0.650382,-0.04494,0.154,0.45696
-23.309,0,0,28.309,28.309,5,5,33.2986,5.55324,-24.0751,-1.22861,-0.276531,0.196994,1,0,121.135,-5.32,4.6025,-1.17693,-0.809958,-0.650382,-0.04494,0.154,0.45696
-23.4504,0,0,28.4504,28.4504,5,5,33.5005,5.54422,-24.076,-1.25639,-0.511009,-0.0558619,1,0,116.813,-4.7425,2.2225,-1.20499,-1.04713,-0.899384,-0.04494,0.154,0.45696
-23.5917,0,0,28.5917,28.5917,5,5,33.7024,5.5352,-24.0769,-1.25624,-0.50808,-0.0577899,1,0,116.813,-4.7425,2.2225,-1.20499,-1.04713,-0.899384,-0.04494,0.154,0.45696
-23.7421,0,0,28.7421,28.7421,5,5,33.9173,5.52597,-24.0773,-0.115934,0.139983,0.401202,1,0,124.128,-4.6725,2.555,-0.060024,-0.402844,-0.441884,-0.04494,0.154,0.45696
-23.8926,0,0,28.8926,28.8926,5,5,34.1323,5.51673,-24.0777,-0.115773,0.143086,0.399125,1,0,124.128,-4.6725,2.555,-0.060024,-0.402844,-0.441884,-0.04494,0.154,0.45696
-24.0519,0,0,29.0519,29.0519,5,5,34.3599,5.50528,-24.0691,-0.837442,0.0813942,-0.437044,1,0,130.725,-2.765,7.6475,-0.784948,-0.467748,-1.26941,-0.04326,0.13356,0.45724
-24.2089,0,0,29.2089,29.2089,5,5,34.5841,5.49323,-24.063,0.103795,0.473224,-0.268456,1,0,128.975,-3.8325,6.685,0.160064,-0.079544,-1.09995,-0.04326,0.13356,0.45724
-24.3549,0,0,29.3549,29.3549,5,5,34.7926,5.48572,-24.0591,0.103926,0.476211,-0.270508,1,0,120.295,-2.38,4.095,0.160064,-0.079544,-1.09995,-0.04326,0.13356,0.45724
-24.5064,0,0,29.5064,29.5064,5,5,35.0091,5.47221,-24.059,0.69944,-0.0247095,-0.314689,1,0,124.933,-6.4925,4.3225,0.757864,-0.583038,-1.14168,-0.04326,0.13356,0.45724
-24.6723,0,0,29.6723,29.6723,5,5,35.2461,5.46025,-24.0541,0.699648,-0.02133,-0.317043,1,0,136.22,-4.1475,6.0725,0.757864,-0.583038,-1.14168,-0.04326,0.13356,0.45724
-24.8443,0,0,29.8443,29.8443,5,5,35.4919,5.44564,-24.0546,0.839732,-0.0545942,-0.182899,1,0,141.4,-7.175,4.48,0.898286,-0.61976,-1.00613,-0.04326,0.13356,0.45724
-25.0185,0,0,30.0185,30.0185,5,5,35.7408,5.43594,-24.0487,0.8399,-0.0510694,-0.185404,1,0,142.818,-2.6775,5.81,0.898286,-0.61976,-1.00613,-0.04326,0.13356,0.45724
-25.1849,0,0,30.1849,30.1849,5,5,35.9785,5.42459,-24.0424,-0.393346,0.429194,0.607669,1,0,136.518,-3.29,6.5975,-0.34038,-0.14335,-0.216794,-0.04326,0.13356,0.45724
-25.3449,0,0,30.3449,30.3449,5,5,36.207,5.41322,-24.039,-0.393149,0.432414,0.605344,1,0,131.548,-4.2525,5.2675,-0.34038,-0.14335,-0.216794,-0.04494,0.12586,0.4669
-25.5029,0,0,30.5029,30.5029,5,5,36.4327,5.4002,-24.0388,-0.100871,0.798058,0.475419,1,0,130.095,-6.125,4.34,-0.047092,0.218746,-0.34343,-0.04494,0.12586,0.4669
-25.6666,0,0,30.6666,30.6666,5,5,36.6665,5.38068,-24.039,-0.100532,0.801341,0.473024,1,0,134.715,-9.2925,6.4575,-0.047092,0.218746,-0.34343,-0.04494,0.12586,0.4669
-25.8369,0,0,30.8369,30.8369,5,5,36.9099,5.36523,-24.0363,-1.90979,0.432989,-0.0527562,1,0,139.86,-6.3525,6.405,-1.86428,-0.152622,-0.862662,-0.04494,0.12586,0.4669
-26.0275,0,0,31.0275,31.0275,5,5,37.1822,5.35506,-24.0376,-1.90962,0.436775,-0.0555937,1,0,156.328,-5.2675,2.7125,-1.86428,-0.152622,-0.862662,-0.04494,0.12586,0.4669
-26.2126,0,0,31.2126,31.2126,5,5,37.4466,5.34404,-24.0347,0.012965,1.41745,-0.574872,1,0,151.69,-4.13,5.0225,0.066246,0.823378,-1.37518,-0.04494,0.12586,0.4669
-26.3907,0,0,31.3907,31.3907,5,5,37.701,5.33027,-24.0288,0.0132042,1.42097,-0.577549,1,0,145.88,-4.34,7.3675,0.066246,0.823378,-1.37518,-0.04494,0.12586,0.4669
-26.5681,0,0,31.5681,31.5681,5,5,37.9545,5.31923,-24.0268,1.00107,1.2828,-0.349463,1,0,145.635,-4.445,4.62,1.05811,0.681858,-1.14619,-0.04494,0.12586,0.4669
-26.7363,0,0,31.7363,31.7363,5,5,38.1948,5.30301,-24.0294,1.00136,1.2861,-0.352017,1,0,138.425,-8.4525,4.41,1.05811,0.681858,-1.14619,-0.04158,0.11312,0.4788
-26.9132,0,0,31.9132,31.9132,5,5,38.4474,5.28482,-24.0283,0.745945,0.649373,-1.27351,1,0,145.18,-8.0325,6.8075,0.801296,0.042334,-2.0579,-0.04158,0.11312,0.4788
-27.1014,0,0,32.1014,32.1014,5,5,38.7163,5.271,-24.0294,0.746186,0.653041,-1.27641,1,0,154.42,-6.755,4.305,0.801296,0.042334,-2.0579,-0.04158,0.11312,0.4788
-27.3042,0,0,32.3042,32.3042,5,5,39.006,5.25848,-24.0307,0.115406,0.0215473,0.736927,1,0,166.04,-6.2475,3.7275,0.167628,-0.592432,-0.056974,-0.04158,0.11312,0.4788
-27.5035,0,0,32.5035,32.5035,5,5,39.2907,5.24391,-24.0297,0.11566,0.0253997,0.733821,1,0,163.17,-6.3,5.565,0.167628,-0.592432,-0.056974,-0.04158,0.11312,0.4788
-27.6932,0,0,32.6932,32.6932,5,5,39.5617,5.22687,-24.0304,-0.969762,2.40051,-0.0142169,1,0,155.558,-8.015,5.7575,-0.922686,1.77656,-0.796294,-0.04158,0.11312,0.4788
-27.8774,0,0,32.8774,32.8774,5,5,39.8249,5.22073,-24.0273,-0.969655,2.40404,-0.0171307,1,0,150.973,-1.645,3.4475,-0.922686,1.77656,-0.796294,-0.04158,0.11312,0.4788
-28.0659,0,0,33.0659,33.0659,5,5,40.0942,5.20707,-24.0286,0.135252,0.302786,-1.23633,1,0,154.665,-6.6675,4.2875,0.18666,-0.326106,-2.00312,-0.04158,0.11312,0.4788
-28.249,0,0,33.249,33.249,5,5,40.3557,5.19022,-24.0276,0.135545,0.306273,-1.23924,1,0,150.133,-7.21,6.545,0.18666,-0.326106,-2.00312,-0.04242,0.10178,0.49588
-27.9956,0,0,32.9956,32.9956,5,5,39.9937,5.32395,-24.1315,0.0732066,0.633513,-0.214382,0,0,161.963,-10.4825,4.83,0.126392,0.005734,-0.99003,-0.04242,0.10178,0.49588
-27.7639,0,0,32.7639,32.7639,5,5,39.6627,5.4621,-24.2296,0.070806,0.628951,-0.210873,0,0,176.365,-4.7075,5.25,0.126392,0.005734,-0.99003,-0.04242,0.10178,0.49588
-27.973,0,0,32.973,32.973,5,5,39.9615,5.45005,-24.2269,-0.777562,0.00790627,0.010692,1,0,170.923,-4.445,5.4775,-0.725778,-0.618662,-0.766892,-0.04242,0.10178,0.49588
-28.1601,0,0,33.1601,33.1601,5,5,40.2287,5.44004,-24.2211,-0.777388,0.0114693,0.00771381,1,0,153.125,-2.345,6.1075,-0.725778,-0.618662,-0.766892,-0.04242,0.10178,0.49588
-28.3545,0,0,33.3545,33.3545,5,5,40.5064,5.43168,-24.2264,0.633935,-2.38806,1.36097,1,0,159.548,-5.7925,0.5425,0.691374,-3.01938,0.579012,-0.04242,0.10178,0.49588
-28.5542,0,0,33.5542,33.5542,5,5,40.7917,5.40736,-24.2316,0.634357,-2.38427,1.35777,1,0,163.818,-12.81,6.7375,0.691374,-3.01938,0.579012,-0.04242,0.10178,0.49588
-28.7443,0,0,33.7443,33.7443,5,5,41.0633,5.38804,-24.2298,-2.54872,1.04571,0.425825,1,0,155.75,-7.91,7.9275,-2.50551,0.403454,-0.342698,-0.04242,0.10178,0.49588
-28.9777,0,0,33.9777,33.9777,5,5,41.3968,5.37116,-24.2316,-2.54842,1.05008,0.422027,1,0,190.663,-8.19,5.4425,-2.50551,0.403454,-0.342698,-0.0413,0.08596,0.497
-29.2199,0,0,34.2199,34.2199,5,5,41.7427,5.36006,-24.2265,0.60991,-1.06663,0.89669,1,0,197.26,-2.9225,6.2825,0.665998,-1.71556,0.132248,-0.0413,0.08596,0.497
-29.4321,0,0,34.4321,34.4321,5,5,42.0458,5.34493,-24.2267,0.610173,-1.06269,0.893192,1,0,173.53,-6.72,5.565,0.665998,-1.71556,0.132248,-0.0413,0.08596,0.497
-29.6284,0,0,34.6284,34.6284,5,5,42.3262,5.33144,-24.2261,-1.49773,1.91252,-0.451679,1,0,160.79,-5.6875,5.2675,-1.45107,1.25294,-1.19902,-0.0413,0.08596,0.497
-29.8247,0,0,34.8247,34.8247,5,5,42.6067,5.31796,-24.2257,-1.4975,1.91613,-0.454953,1,0,160.79,-5.6875,5.2675,-1.45107,1.25294,-1.19902,-0.0413,0.08596,0.497
-30.0438,0,0,35.0438,35.0438,5,5,42.9197,5.29922,-24.2224,-0.204566,2.19713,-1.13472,1,0,178.903,-6.8075,8.575,-0.152988,1.52964,-1.86989,-0.0413,0.08596,0.497
-30.2629,0,0,35.2629,35.2629,5,5,43.2327,5.28046,-24.2192,-0.20424,2.20112,-1.13841,1,0,178.903,-6.8075,8.575,-0.152988,1.52964,-1.86989,-0.0413,0.08596,0.497
-30.5115,0,0,35.5115,35.5115,5,5,43.5879,5.27123,-24.2116,-0.179296,-1.29038,-0.109999,1,0,202.37,-0.91,6.685,-0.1281,-1.96274,-0.845216,-0.0413,0.08596,0.497
-30.7602,0,0,35.7602,35.7602,5,5,43.9432,5.26195,-24.204,-0.179135,-1.28591,-0.114259,1,0,202.37,-0.91,6.685,-0.1281,-1.96274,-0.845216,-0.0413,0.08596,0.497
-30.971,0,0,35.971,35.971,5,5,44.2443,5.24493,-24.2016,-1.24427,4.684,-2.2487,1,0,172.27,-6.2475,7.6475,-1.19804,3.99721,-2.9596,-0.04242,0.0735,0.51548
-31.2022,0,0,36.2022,36.2022,5,5,44.5746,5.22558,-24.2034,2.45093,-3.2517,1.86903,1,0,188.878,-8.855,6.93,2.51247,-3.93438,1.13033,-0.04242,0.0735,0.51548
-31.4334,0,0,36.4334,36.4334,5,5,44.9049,5.20624,-24.2052,2.45127,-3.2476,1.86501,1,0,188.878,-8.855,6.93,2.51247,-3.93438,1.13033,-0.04242,0.0735,0.51548
-31.6639,0,0,36.6639,36.6639,5,5,45.2342,5.17782,-24.2076,-1.02248,1.85209,2.22467,1,0,188.318,-12.7925,10.5175,-0.976488,1.15595,1.49121,-0.04242,0.0735,0.51548
-31.8944,0,0,36.8944,36.8944,5,5,45.5634,5.14941,-24.2102,-1.02199,1.85614,2.22063,1,0,188.318,-12.7925,10.5175,-0.976488,1.15595,1.49121,-0.04242,0.0735,0.51548
-32.1565,0,0,37.1565,37.1565,5,5,45.9379,5.13444,-24.2124,-0.438113,-3.29781,4.35455,1,0,213.658,-7.0875,5.11,-0.3904,-3.99721,3.61327,-0.04242,0.0735,0.51548
-32.4187,0,0,37.4187,37.4187,5,5,46.3124,5.11949,-24.2147,-0.437853,-3.29329,4.34987,1,0,213.658,-7.0875,5.11,-0.3904,-3.99721,3.61327,-0.04242,0.0735,0.51548
-32.6315,0,0,37.6315,37.6315,5,5,46.6164,5.09256,-24.2234,-0.767462,-1.6933,1.67218,1,0,174.44,-14.595,7.665,-0.721874,-2.40255,0.960018,-0.03598,0.04816,0.5222
-32.8863,0,0,37.8863,37.8863,5,5,46.9805,5.0766,-24.2238,-1.66849,3.16889,-2.49766,1,0,207.743,-6.6325,6.37,-1.62699,2.45025,-3.1731,-0.03598,0.04816,0.5222
-33.1412,0,0,38.1412,38.1412,5,5,47.3446,5.06064,-24.2244,-1.66821,3.17321,-2.50229,1,0,207.743,-6.6325,6.37,-1.62699,2.45025,-3.1731,-0.03598,0.04816,0.5222
-33.4225,0,0,38.4225,38.4225,5,5,47.7464,5.04184,-24.2222,1.8665,-0.0585332,0.139906,1,0,228.76,-6.5625,8.68,1.92235,-0.782874,-0.546194,-0.03598,0.04816,0.5222
-33.7037,0,0,38.7037,38.7037,5,5,48.1482,5.02303,-24.2202,1.86683,-0.0538327,0.134738,1,0,228.76,-6.5625,8.68,1.92235,-0.782874,-0.546194,-0.03598,0.04816,0.5222
-33.9614,0,0,38.9614,38.9614,5,5,48.5162,5.00532,-24.222,2.66797,4.73549,-2.3826,1,0,210.018,-7.7175,6.79,2.72658,3.99721,-3.03939,-0.03598,0.04816,0.5222
-34.219,0,0,39.219,39.219,5,5,48.8842,4.98761,-24.2239,2.66828,4.73973,-2.38739,1,0,210.018,-7.7175,6.79,2.72658,3.99721,-3.03939,-0.03598,0.04816,0.5222
-34.4912,0,0,39.4912,39.4912,5,5,49.2732,4.97101,-24.228,-2.1385,0.804617,-3.19165,1,0,221.848,-8.2075,5.53,-2.10084,0.061732,-3.83239,-0.03598,0.04816,0.5222
-34.7633,0,0,39.7633,39.7633,5,5,49.6619,4.95177,-24.2313,0.324956,2.23633,0.821929,1,0,221.69,-8.855,7.0175,0.37271,1.48755,0.155306,-0.03332,0.03514,0.52626
-35.0709,0,0,40.0709,40.0709,5,5,50.1013,4.93147,-24.2264,0.325309,2.24127,0.816105,1,0,249.708,-5.53,10.64,0.37271,1.48755,0.155306,-0.03332,0.03514,0.52626
-35.3706,0,0,40.3706,40.3706,5,5,50.5294,4.91743,-24.234,0.184751,0.37213,3.09809,1,0,243.95,-8.6975,3.255,0.231312,-0.384422,2.42536,-0.03332,0.03514,0.52626
-35.6126,0,0,40.6126,40.6126,5,5,50.8751,4.90462,-24.2353,-3.26729,1.58977,-0.664837,1,0,197.47,-5.4075,5.04,-3.23556,0.828136,-1.30394,-0.03332,0.03514,0.52626
-35.9003,0,0,40.9003,40.9003,5,5,51.2862,4.87265,-24.2451,-3.26673,1.5943,-0.670369,1,0,234.535,-16.2575,10.6925,-3.23556,0.828136,-1.30394,-0.03332,0.03514,0.52626
-36.2052,0,0,41.2052,41.2052,5,5,51.7217,4.85641,-24.2472,-3.14496,3.44815,-1.23201,1,0,247.853,-6.93,6.405,-3.11356,2.67534,-1.85538,-0.03332,0.03514,0.52626
-36.5103,0,0,41.5103,41.5103,5,5,52.1575,4.83234,-24.2495,-3.14454,3.45285,-1.23795,1,0,248.045,-9.765,10.01,-3.11356,2.67534,-1.85538,-0.03332,0.03514,0.52626
-36.8259,0,0,41.8259,41.8259,5,5,52.6085,4.81828,-24.2377,0.587014,-1.79941,1.61305,1,0,255.868,0.385,10.4475,0.633546,-2.57627,0.979782,-0.03332,0.03514,0.52626
-37.1097,0,0,42.1097,42.1097,5,5,53.0138,4.80327,-24.2516,0.587275,-1.79513,1.60744,1,0,231.473,-11.83,1.8375,0.633546,-2.57627,0.979782,-0.03528,0.0182,0.54166
-37.3613,0,0,42.3613,42.3613,5,5,53.3733,4.78383,-24.2656,-0.788942,2.24016,-1.01205,1,0,205.8,-13.4225,3.955,-0.748836,1.45107,-1.61455,-0.03528,0.0182,0.54166
-37.6613,0,0,42.6613,42.6613,5,5,53.8019,4.74655,-24.2794,-0.788293,2.24463,-1.01801,1,0,244.51,-19.495,12.495,-0.748836,1.45107,-1.61455,-0.03528,0.0182,0.54166
-37.985,0,0,42.985,42.985,5,5,54.2643,4.7216,-24.2764,-0.654954,1.8322,-0.735695,1,0,262.728,-7.21,12.565,-0.615368,1.03432,-1.32797,-0.03528,0.0182,0.54166
-38.3081,0,0,43.3081,43.3081,5,5,54.7259,4.70929,-24.272,-0.65474,1.83688,-0.74222,1,0,262.15,-2.135,7.0875,-0.615368,1.03432,-1.32797,-0.03528,0.0182,0.54166
-38.6549,0,0,43.6549,43.6549,5,5,55.2212,4.69642,-24.2618,1.86145,-0.315411,0.631692,1,0,280.84,0.5075,9.31,1.91125,-1.12069,0.042334,-0.03528,0.0182,0.54166
-38.971,0,0,43.971,43.971,5,5,55.6728,4.67133,-24.277,1.86189,-0.310926,0.625242,1,0,257.478,-15.68,6.8075,1.91125,-1.12069,0.042334,-0.03528,0.0182,0.54166
-39.2543,0,0,44.2543,44.2543,5,5,56.0775,4.64032,-24.2887,-2.25083,2.50942,-3.28541,1,0,231.018,-15.89,10.92,-2.21942,1.69275,-3.83239,-0.03528,0.0182,0.54166
-39.5661,0,0,44.5661,44.5661,5,5,56.5231,4.60512,-24.2988,-2.25022,2.51377,-3.29183,1,1,253.838,-16.3975,13.58,-2.21942,1.69275,-3.83239,-0.03696,-0.01302,0.55552
-39.9097,0,0,44.9097,44.9097,5,5,57.0139,4.57804,-24.3021,-1.52351,1.28085,-0.288677,1,1,278.933,-10.3775,11.9,-1.49011,0.456402,-0.845338,-0.03696,-0.01302,0.55552
-40.2533,0,0,45.2533,45.2533,5,5,57.5047,4.551,-24.3057,-1.52304,1.2855,-0.29584,1,1,278.933,-10.3775,11.9,-1.49011,0.456402,-0.845338,-0.03696,-0.01302,0.55552
-40.6183,0,0,45.6183,45.6183,5,5,58.0262,4.53281,-24.3067,1.05484,1.68592,1.03492,1,1,295.978,-6.195,8.435,1.09837,0.85156,0.482754,-0.03696,-0.01302,0.55552
-40.9833,0,0,45.9833,45.9833,5,5,58.5476,4.51464,-24.3078,1.05516,1.69071,1.02721,1,1,295.978,-6.195,8.435,1.09837,0.85156,0.482754,-0.03696,-0.01302,0.55552
-41.2777,0,0,46.2777,46.2777,5,5,58.9681,4.47934,-24.3167,-0.249108,4.84347,-1.78507,1,1,239.733,-15.2075,14.6825,-0.212036,3.99721,-2.30165,-0.03696,-0.01302,0.55552
-41.572,0,0,46.572,46.572,5,5,59.3886,4.44411,-24.3258,-0.248495,4.84726,-1.79133,1,1,239.733,-15.2075,14.6825,-0.212036,3.99721,-2.30165,-0.03696,-0.01302,0.55552
-41.9389,0,0,46.9389,46.9389,5,5,59.9127,4.42848,-24.3282,0.226786,-3.13594,2.35868,1,1,297.535,-5.8625,6.93,0.264984,-3.98232,1.82414,-0.03696,-0.01302,0.55552
-42.3058,0,0,47.3058,47.3058,5,5,60.4368,4.41287,-24.3307,0.227058,-3.13139,2.35078,1,1,297.535,-5.8625,6.93,0.264984,-3.98232,1.82414,-0.03178,-0.04382,0.55398
-42.6785,0,0,47.6785,47.6785,5,5,60.9692,4.4028,-24.3225,2.59329,4.04969,1.43068,1,1,301.735,1.2075,7.1925,2.64106,3.18676,0.919148,-0.03178,-0.04382,0.55398
-43.0511,0,0,48.0511,48.0511,5,5,61.5016,4.39266,-24.3145,2.59347,4.05416,1.42256,1,1,301.735,1.2075,7.1925,2.64106,3.18676,0.919148,-0.03178,-0.04382,0.55398
-43.3698,0,0,48.3698,48.3698,5,5,61.9568,4.35451,-24.3376,2.06081,-1.03973,0.0157169,1,1,259.77,-22.5225,12.985,2.10548,-1.90564,-0.469944,-0.03178,-0.04382,0.55398
-43.6884,0,0,48.6884,48.6884,5,5,62.412,4.31656,-24.361,2.06147,-1.03599,0.00873415,1,1,259.77,-22.5225,12.985,2.10548,-1.90564,-0.469944,-0.03178,-0.04382,0.55398
-44.0649,0,0,49.0649,49.0649,5,5,62.9498,4.30256,-24.3553,1.16588,2.88773,-3.40476,1,1,304.903,-0.84,8.54,1.20585,2.00971,-3.84886,-0.03178,-0.04382,0.55398
-44.4414,0,0,49.4414,49.4414,5,5,63.4877,4.2885,-24.3497,1.16612,2.89197,-3.4131,1,1,304.903,-0.84,8.54,1.20585,2.00971,-3.84886,-0.03178,-0.04382,0.55398
-44.82,0,0,49.82,49.82,5,5,64.0286,4.27965,-24.3567,0.702442,4.88571,1.82614,1,1,307.16,-5.9675,2.6075,0.740052,3.99721,1.35835,-0.03178,-0.04382,0.55398
-45.1395,0,0,50.1395,50.1395,5,5,64.485,4.25072,-24.3769,-1.18847,3.4404,-1.59835,1,1,260.295,-18.0775,9.835,-1.15937,2.54992,-2.03264,-0.03178,-0.04382,0.55398
-45.4628,0,0,50.4628,50.4628,5,5,64.9468,4.21167,-24.4033,-1.18779,3.44388,-1.60559,1,1,263.603,-23.765,13.79,-1.15937,2.54992,-2.03264,-0.02632,-0.0805,0.55566
-45.8084,0,0,50.8084,50.8084,5,5,65.4406,4.18509,-24.4096,-1.80168,-2.80342,-1.41494,1,1,280.7,-9.87,12.32,-1.77632,-3.69453,-1.83573,-0.02632,-0.0805,0.55566
-46.1498,0,0,51.1498,51.1498,5,5,65.9283,4.19812,-24.3876,-1.8019,-2.79994,-1.42269,1,1,276.115,14.77,-1.925,-1.77632,-3.69453,-1.83573,-0.02632,-0.0805,0.55566
-46.5069,0,0,51.5069,51.5069,5,5,66.4384,4.19812,-24.3653,0.535968,-3.09935,3.72393,1,1,288.628,11.9,5.005,0.571448,-3.99721,3.27924,-0.02632,-0.0805,0.55566
-46.8296,0,0,51.8296,51.8296,5,5,66.8994,4.18615,-24.3668,0.536176,-3.09615,3.71657,1,1,262.133,-3.6225,5.8275,0.571448,-3.99721,3.27924,-0.02632,-0.0805,0.55566
-47.1225,0,0,52.1225,52.1225,5,5,67.3178,4.16171,-24.3782,0.632697,2.436,-1.97883,1,1,238.648,-11.76,10.3075,0.66795,1.52634,-2.36558,-0.02632,-0.0805,0.55566
-47.4269,0,0,52.4269,52.4269,5,5,67.7527,4.14077,-24.3915,0.633061,2.43891,-1.98582,1,1,247.94,-11.9175,8.085,0.66795,1.52634,-2.36558,-0.02632,-0.0805,0.55566
-47.741,0,0,52.741,52.741,5,5,68.2014,4.13716,-24.3885,-2.23904,2.24656,-2.34691,1,1,255.045,0.7875,2.3625,-2.21637,1.33126,-2.7167,-0.02632,-0.0805,0.55566
-48.0421,0,0,53.0421,53.0421,5,5,68.6316,4.15327,-24.3627,-2.23932,2.2493,-2.35388,1,1,243.723,17.4475,-3.465,-2.21637,1.33126,-2.7167,-0.03122,-0.11424,0.54782
-48.3568,0,0,53.3568,53.3568,5,5,69.0811,4.16607,-24.3468,2.09992,1.24102,0.896464,1,1,254.94,11.34,-3.8675,2.14147,0.321226,0.515816,-0.03122,-0.11424,0.54782
-48.6084,0,0,53.6084,53.6084,5,5,69.4406,4.1576,-24.3469,2.10007,1.24325,0.890615,1,1,205.135,-1.89,4.34,2.14147,0.321226,0.515816,-0.03122,-0.11424,0.54782
-48.8638,0,0,53.8638,53.8638,5,5,69.8054,4.14257,-24.3581,0.166525,1.06497,-0.467396,1,1,208.583,-9.2575,5.705,0.19947,0.14091,-0.825818,-0.03122,-0.11424,0.54782
-49.1361,0,0,54.1361,54.1361,5,5,70.1944,4.15024,-24.3465,0.166391,1.06728,-0.473762,1,1,221.2,7.8925,-2.135,0.19947,0.14091,-0.825818,-0.03122,-0.11424,0.54782
-49.3901,0,0,54.3901,54.3901,5,5,70.5573,4.17955,-24.308,0.046825,4.92967,-2.98025,1,1,205.485,26.8975,-8.8375,0.07991,3.99721,-3.30705,-0.03122,-0.11424,0.54782
-49.6256,0,0,54.6256,54.6256,5,5,70.8938,4.19679,-24.2786,0.046525,4.93158,-2.98579,1,1,191.03,19.495,-4.095,0.07991,3.99721,-3.30705,-0.03122,-0.11424,0.54782
-49.8719,0,0,54.8719,54.8719,5,5,71.2456,4.20959,-24.2634,2.52024,4.93355,-3.4819,1,1,200.235,10.78,-4.445,2.56432,3.99721,-3.79359,-0.03122,-0.11424,0.54782
-50.0669,0,0,55.0669,55.0669,5,5,71.5241,4.20372,-24.2525,2.52034,4.93511,-3.4865,1,1,159.285,4.935,5.04,2.56432,3.99721,-3.79359,-0.02758,-0.12726,0.54432
-50.2643,0,0,55.2643,55.2643,5,5,71.8061,4.20164,-24.2423,-1.72239,-0.469285,1.74473,1,1,161.263,5.215,2.765,-1.69641,-1.40312,1.4019,-0.02758,-0.12726,0.54432
-50.448,0,0,55.448,55.448,5,5,72.0685,4.22345,-24.2197,-1.72277,-0.467896,1.74038,1,1,149.783,16.485,-8.26,-1.69641,-1.40312,1.4019,-0.02758,-0.12726,0.54432
-50.585,0,0,55.585,55.585,5,5,72.2643,4.23714,-24.2058,0.253442,-0.286488,3.81373,1,1,112.753,10.0975,-5.39,0.288408,-1.22293,3.46248,-0.02758,-0.12726,0.54432
-50.7479,0,0,55.7479,55.7479,5,5,72.497,4.23377,-24.2156,0.2535,-0.285257,3.80987,1,1,134.47,-6.0725,-0.0875,0.288408,-1.22293,3.46248,-0.02758,-0.12726,0.54432
-50.8687,0,0,55.8687,55.8687,5,5,72.6696,4.22046,-24.233,1.39412,2.71619,-0.259881,1,1,101.098,-12.0925,4.13,1.43362,1.77449,-0.573034,-0.02758,-0.12726,0.54432
-50.9711,0,0,55.9711,55.9711,5,5,72.8159,4.21909,-24.2257,1.39414,2.71695,-0.262312,1,1,85.2775,3.815,1.785,1.43362,1.77449,-0.573034,-0.02758,-0.12726,0.54432
-51.0798,0,0,56.0798,56.0798,5,5,72.9712,4.223,-24.2044,1.68941,3.30077,0.140587,1,1,89.7925,12.495,1.2075,1.7302,2.35692,-0.170678,-0.02758,-0.12726,0.54432
-51.1703,0,0,56.1703,56.1703,5,5,73.1004,4.21623,-24.203,1.68952,3.30143,0.138439,1,1,75.9675,-0.385,3.78,1.7302,2.35692,-0.170678,-0.03976,-0.13818,0.55048
-51.2596,0,0,56.2596,56.2596,5,5,73.228,4.20676,-24.1963,2.09776,1.88652,-0.691373,1,1,74.865,2.0475,6.16,2.14,0.942816,-0.991982,-0.03976,-0.13818,0.55048
-51.3412,0,0,56.3412,56.3412,5,5,73.3446,4.18771,-24.1998,-0.824126,3.98746,-1.46567,1,1,69.09,-5.1975,9.8175,-0.794586,3.04097,-1.75839,-0.03976,-0.13818,0.55048
-51.3953,0,0,56.3953,56.3953,5,5,73.4219,4.16852,-24.1876,0.0954898,3.20907,-0.759878,1,1,46.4275,3.57,12.5125,0.128588,2.26298,-1.05676,-0.03976,-0.13818,0.55048
-51.4452,0,0,56.4452,56.4452,5,5,73.4932,4.15104,-24.1867,0.095794,3.20944,-0.761062,1,1,43.54,-2.4675,9.6775,0.128588,2.26298,-1.05676,-0.03976,-0.13818,0.55048
-51.479,0,0,56.479,56.479,5,5,73.5415,4.13627,-24.1952,-0.0605439,4.63418,-1.07747,1,1,31.01,-7.2625,6.615,-0.02867,3.68599,-1.36994,-0.03976,-0.13818,0.55048
-51.5082,0,0,56.5082,56.5082,5,5,73.5831,4.1185,-24.2025,0.579023,3.43659,-0.316248,1,1,27.2125,-7.07,8.505,0.613294,2.48941,-0.613904,-0.03976,-0.13818,0.55048
-51.5358,0,0,56.5358,56.5358,5,5,73.6226,4.09901,-24.2116,-0.329593,3.74432,-1.4436,1,1,26.11,-8.365,9.17,-0.29951,2.79661,-1.73191,-0.03976,-0.13818,0.55048
-51.5538,0,0,56.5538,56.5538,5,5,73.6483,4.09221,-24.2028,0.852945,3.14775,0.164384,1,1,17.64,3.78,5.005,0.887916,2.20051,-0.135908,-0.03976,-0.13818,0.55048
-51.5639,0,0,56.5639,56.5639,5,5,73.6627,4.09076,-24.193,2.05859,2.577,-1.54066,1,1,11.2875,5.1975,2.17,2.09864,1.63029,-1.82756,-0.02884,-0.15512,0.5523
-51.5502,0,0,56.5502,56.5502,5,5,73.6431,4.07849,-24.2021,-1.62707,4.9463,-0.137731,1,1,-7.07,-7.175,5.1275,-1.60284,3.99721,-0.435784,-0.02884,-0.15512,0.5523
-51.1786,0,0,56.1786,56.1786,5,5,73.1123,4.87063,-24.2399,0.70115,1.11798,-0.187836,0,1,-4.375,-0.21,5.775,0.74908,0.176534,-0.493978,-0.02884,-0.15512,0.5523
-50.8067,0,0,55.8067,55.8067,5,5,72.581,5.67238,-24.2708,0.687216,1.11403,-0.179393,0,1,-4.9525,9.415,2.2225,0.74908,0.176534,-0.493978,-0.02884,-0.15512,0.5523
-50.7838,0,0,55.7838,55.7838,5,5,72.5482,5.67486,-24.2509,-0.49136,3.0023,-0.00635414,1,1,-15.89,11.4625,1.8375,-0.434442,2.06302,-0.322812,-0.02884,-0.15512,0.5523
-50.7597,0,0,55.7597,55.7597,5,5,72.5139,5.67976,-24.2476,-0.491445,3.00211,-0.00578755,1,1,-15.855,2.66,-2.3975,-0.434442,2.06302,-0.322812,-0.02884,-0.15512,0.5523
-50.7356,0,0,55.7356,55.7356,5,5,72.4794,5.6876,-24.245,-0.725319,1.91988,0.942097,1,1,-15.8725,2.7475,-4.165,-0.66917,0.9821,0.617198,-0.02884,-0.15512,0.5523
-50.6976,0,0,55.6976,55.6976,5,5,72.4251,5.69977,-24.2448,-0.725531,1.91957,0.942991,1,1,-26.88,2.205,-6.9825,-0.66917,0.9821,0.617198,-0.02884,-0.15512,0.5523
-50.651,0,0,55.651,55.651,5,5,72.3586,5.71303,-24.2396,-1.00979,1.47722,-0.484331,1,1,-33.985,5.215,-6.7025,-0.954406,0.540582,-0.800198,-0.02086,-0.16198,0.54572
-50.6041,0,0,55.6041,55.6041,5,5,72.2915,5.73418,-24.2255,-1.01016,1.47684,-0.483233,1,1,-34.79,11.55,-9.52,-0.954406,0.540582,-0.800198,-0.02086,-0.16198,0.54572
-50.5408,0,0,55.5408,55.5408,5,5,72.2011,5.75486,-24.2141,-0.0243001,2.16011,0.24623,1,1,-47.7575,9.9575,-9.73,0.03599,1.22366,-0.077836,-0.02086,-0.16198,0.54572
-50.4673,0,0,55.4673,55.4673,5,5,72.0961,5.77272,-24.2168,-0.0246101,2.15952,0.247955,1,1,-55.1075,1.68,-10.64,0.03599,1.22366,-0.077836,-0.02086,-0.16198,0.54572
-50.3939,0,0,55.3939,55.3939,5,5,71.9913,5.78858,-24.2179,-0.0778534,1.28133,0.204926,1,1,-55.1425,2.24,-9.24,-0.017202,0.346968,-0.122244,-0.02086,-0.16198,0.54572
-50.3093,0,0,55.3093,55.3093,5,5,71.8705,5.80329,-24.2051,-0.0781087,1.28066,0.206912,1,1,-64.855,9.695,-6.1075,-0.017202,0.346968,-0.122244,-0.02086,-0.16198,0.54572
-50.2094,0,0,55.2094,55.2094,5,5,71.7277,5.81877,-24.1975,-0.555209,1.54792,0.523146,1,1,-76.895,6.9825,-7.455,-0.496052,0.614758,0.189222,-0.02086,-0.16198,0.54572
-50.1043,0,0,55.1043,55.1043,5,5,71.5776,5.83912,-24.1915,-0.555562,1.54707,0.525608,1,1,-80.9025,7.0525,-10.4125,-0.496052,0.614758,0.189222,-0.02086,-0.16198,0.54572
-49.9999,0,0,54.9999,54.9999,5,5,71.4284,5.85718,-24.189,-0.732637,2.3558,-0.121975,1,1,-80.1675,4.69,-9.7825,-0.673562,1.4235,-0.455792,-0.02716,-0.14658,0.54194
-49.8988,0,0,54.8988,54.8988,5,5,71.2839,5.86661,-24.1848,-0.732801,2.35498,-0.119603,1,1,-77.665,4.06,-4.6725,-0.673562,1.4235,-0.455792,-0.02716,-0.14658,0.54194
-49.7947,0,0,54.7947,54.7947,5,5,71.1353,5.87478,-24.1767,-0.893426,3.06222,-1.24165,1,1,-80.2025,5.95,-3.255,-0.834724,2.13085,-1.5716,-0.02716,-0.14658,0.54194
-49.6907,0,0,54.6907,54.6907,5,5,70.9867,5.88298,-24.1686,-0.893568,3.06137,-1.23922,1,1,-80.2025,5.95,-3.255,-0.834724,2.13085,-1.5716,-0.02716,-0.14658,0.54194
-49.5558,0,0,54.5558,54.5558,5,5,70.794,5.90398,-24.1523,0.606416,1.11672,-1.14312,1,1,-105.403,12.985,-8.715,0.671976,0.189344,-1.47937,-0.02716,-0.14658,0.54194
-49.4156,0,0,54.4156,54.4156,5,5,70.5937,5.91293,-24.1484,0.60626,1.11555,-1.13984,1,1,-108.903,3.8325,-4.4275,0.671976,0.189344,-1.47937,-0.02716,-0.14658,0.54194
-49.2895,0,0,54.2895,54.2895,5,5,70.4136,5.90762,-24.147,0.60368,-0.387276,0.00726688,1,1,-97.4575,-0.3325,2.94,0.669292,-1.31089,-0.34404,-0.02716,-0.14658,0.54194
-49.1635,0,0,54.1635,54.1635,5,5,70.2335,5.90231,-24.1456,0.603772,-0.38832,0.010214,1,1,-97.4575,-0.3325,2.94,0.669292,-1.31089,-0.34404,-0.02716,-0.14658,0.54194
-49.0048,0,0,54.0048,54.0048,5,5,70.0069,5.91082,-24.1378,-0.976904,1.2213,-2.48895,1,1,-123.935,5.9675,-3.36,-0.917928,0.298412,-2.82759,-0.03374,-0.13664,0.5509
-48.8493,0,0,53.8493,53.8493,5,5,69.7848,5.92417,-24.133,0.158755,-0.982236,-2.55886,1,1,-121.223,5.25,-6.615,0.222772,-1.90149,-2.90055,-0.03374,-0.13664,0.5509
-48.6912,0,0,53.6912,53.6912,5,5,69.5588,5.92489,-24.1475,-3.39702,4.92123,0.365209,1,1,-122.238,-7.84,-3.57,-3.34805,3.99721,-0.002684,-0.03374,-0.13664,0.5509
-48.5486,0,0,53.5486,53.5486,5,5,69.3551,5.9216,-24.1484,-0.370514,-2.04001,-2.44245,1,1,-110.565,-1.225,1.365,-0.308782,-2.95557,-2.79197,-0.03374,-0.13664,0.5509
-48.4184,0,0,53.4184,53.4184,5,5,69.1692,5.93904,-24.1495,-1.1137,1.3835,-1.75007,1,1,-100.608,3.01,-9.975,-1.05481,0.465552,-2.10792,-0.03374,-0.13664,0.5509
-48.2599,0,0,53.2599,53.2599,5,5,68.9427,5.96497,-24.1383,-2.24883,3.36392,1.81172,1,1,-124.023,11.48,-12.0575,-2.19429,2.44537,1.42276,-0.03374,-0.13664,0.5509
-48.0923,0,0,53.0923,53.0923,5,5,68.7033,5.9896,-24.1456,0.920306,0.100493,-2.37955,1,1,-130.2,1.1725,-15.19,0.988688,-0.81313,-2.74,-0.03374,-0.13664,0.5509
-47.9082,0,0,52.9082,52.9082,5,5,68.4403,6.0057,-24.1645,0.57853,2.95412,1.34794,1,1,-142.748,-6.8075,-12.985,0.645746,2.03923,0.954528,-0.03374,-0.13664,0.5509
-47.7422,0,0,52.7422,52.7422,5,5,68.2032,6.00941,-24.1881,-1.38098,-1.03032,0.0319066,1,1,-127.96,-12.0225,-7.315,-1.32199,-1.93956,-0.355142,-0.03402,-0.11326,0.5481
-47.574,0,0,52.574,52.574,5,5,67.9629,6.01606,-24.1961,0.747337,2.59662,1.2178,1,1,-130.673,-2.9225,-5.5825,0.815448,1.68519,0.817766,-0.03402,-0.11326,0.5481
-47.4035,0,0,52.4035,52.4035,5,5,67.7192,6.03243,-24.1889,0.747053,2.59499,1.2217,1,1,-133.438,7.4375,-7.525,0.815448,1.68519,0.817766,-0.03402,-0.11326,0.5481
-47.2256,0,0,52.2256,52.2256,5,5,67.4652,6.0571,-24.2012,1.10987,0.645348,0.245864,1,1,-138.11,-1.155,-16.275,1.18023,-0.260714,-0.154574,-0.03402,-0.11326,0.5481
-47.0525,0,0,52.0525,52.0525,5,5,67.2178,6.0638,-24.227,1.10975,0.643682,0.249821,1,1,-133.595,-12.4075,-9.625,1.18023,-0.260714,-0.154574,-0.03402,-0.11326,0.5481
-46.8906,0,0,51.8906,51.8906,5,5,66.9865,6.06225,-24.2543,0.855508,0.862684,-0.963916,1,1,-124.443,-15.0675,-5.5825,0.924882,-0.040382,-1.36262,-0.03402,-0.11326,0.5481
-46.7366,0,0,51.7366,51.7366,5,5,66.7666,6.06338,-24.2666,0.855489,0.861183,-0.960406,1,1,-119,-6.37,-3.6575,0.924882,-0.040382,-1.36262,-0.03402,-0.11326,0.5481
-46.5777,0,0,51.5777,51.5777,5,5,66.5396,6.07105,-24.2806,-1.80567,0.106332,0.732148,1,1,-122.815,-5.7575,-7.5775,-1.74741,-0.792878,0.313296,-0.03402,-0.11326,0.5481
-46.4144,0,0,51.4144,51.4144,5,5,66.3063,6.08775,-24.2874,-1.80596,0.104683,0.735847,1,1,-126.84,0.2625,-10.745,-1.74741,-0.792878,0.313296,-0.0287,-0.11522,0.54782
-46.2461,0,0,51.2461,51.2461,5,5,66.0658,6.10037,-24.2979,-2.32869,0.282992,1.92844,1,1,-130.585,-2.6775,-9.45,-2.27213,-0.61305,1.49291,-0.0287,-0.11522,0.54782
-46.1121,0,0,51.1121,51.1121,5,5,65.8745,6.08887,-24.3166,-2.32849,0.281659,1.93149,1,1,-102.585,-12.7225,1.47,-2.27213,-0.61305,1.49291,-0.0287,-0.11522,0.54782
-45.9818,0,0,50.9818,50.9818,5,5,65.6883,6.08032,-24.3247,-0.72254,3.02454,-0.449163,1,1,-100.328,-6.3875,2.38,-0.659532,2.12829,-0.8723,-0.0287,-0.11522,0.54782
-45.8388,0,0,50.8388,50.8388,5,5,65.4841,6.07604,-24.33,-0.722466,3.02308,-0.445932,1,1,-110.583,-3.9025,0.7525,-0.659532,2.12829,-0.8723,-0.0287,-0.11522,0.54782
-45.6951,0,0,50.6951,50.6951,5,5,65.2787,6.07777,-24.3278,3.14512,2.40326,-2.81449,1,1,-111.703,1.54,-0.63,3.22446,1.5106,-3.2258,-0.0287,-0.11522,0.54782
-45.5493,0,0,50.5493,50.5493,5,5,65.0705,6.07393,-24.3387,3.14519,2.40175,-2.81121,1,1,-112.473,-6.7725,-0.875,3.22446,1.5106,-3.2258,-0.0287,-0.11522,0.54782
-45.4204,0,0,50.4204,50.4204,5,5,64.8864,6.05576,-24.3505,0.904215,-0.354871,-1.80688,1,1,-98.945,-10.78,6.4575,0.973682,-1.24184,-2.23211,-0.0287,-0.11522,0.54782
-45.2934,0,0,50.2934,50.2934,5,5,64.7049,6.04364,-24.3633,0.904426,-0.356192,-1.80403,1,1,-97.405,-9.8175,2.9925,0.973682,-1.24184,-2.23211,-0.0287,-0.11522,0.54782
-45.1621,0,0,50.1621,50.1621,5,5,64.5172,6.03718,-24.3639,1.40992,0.198466,0.63822,1,1,-101.57,-1.9425,3.0275,1.4812,-0.686372,0.188368,-0.03192,-0.0959,0.55566
-45.0338,0,0,50.0338,50.0338,5,5,64.334,6.03923,-24.3636,1.76802,0.50668,-0.554832,1,1,-99.1725,0.6125,-1.26,1.84086,-0.377102,-0.998326,-0.03192,-0.0959,0.55566
-44.914,0,0,49.914,49.914,5,5,64.1628,6.03031,-24.3744,1.76818,0.505404,-0.552149,1,1,-91.7525,-7.9625,1.7325,1.84086,-0.377102,-0.998326,-0.03192,-0.0959,0.55566
-44.8081,0,0,49.8081,49.8081,5,5,64.0116,6.00312,-24.3886,0.603358,0.671982,-1.16648,1,1,-80.325,-14.4725,10.4125,0.670634,-0.209596,-1.61028,-0.03192,-0.0959,0.55566
-44.7023,0,0,49.7023,49.7023,5,5,63.8605,5.97589,-24.4028,0.603831,0.670874,-1.1641,1,1,-80.325,-14.4725,10.4125,0.670634,-0.209596,-1.61028,-0.03192,-0.0959,0.55566
-44.5985,0,0,49.5985,49.5985,5,5,63.7122,5.9701,-24.4037,-1.59909,-0.237777,-0.0698788,1,1,-79.485,-2.0475,2.5375,-1.54171,-1.11618,-0.526796,-0.03192,-0.0959,0.55566
-44.4947,0,0,49.4947,49.4947,5,5,63.5639,5.9643,-24.4047,-1.59899,-0.238911,-0.067568,1,1,-79.485,-2.0475,2.5375,-1.54171,-1.11618,-0.526796,-0.03192,-0.0959,0.55566
-44.3934,0,0,49.3934,49.3934,5,5,63.4192,5.95194,-24.4085,-1.63145,-0.330752,-0.396164,1,1,-77.3325,-5.285,5.215,-1.57453,-1.20682,-0.855098,-0.02898,-0.09352,0.54656
-44.3226,0,0,49.3226,49.3226,5,5,63.318,5.9407,-24.4151,0.0418416,2.53418,-1.00244,1,1,-52.7275,-6.4225,3.9025,0.105652,1.65591,-1.45827,-0.02898,-0.09352,0.54656
-44.2518,0,0,49.2518,49.2518,5,5,63.2169,5.92945,-24.4217,0.0420369,2.53341,-1.00087,1,1,-52.7275,-6.4225,3.9025,0.105652,1.65591,-1.45827,-0.02898,-0.09352,0.54656
-44.1791,0,0,49.1791,49.1791,5,5,63.113,5.93603,-24.4218,0.0812842,-0.341911,-1.01291,1,1,-54.6875,1.645,-3.6925,0.14518,-1.21561,-1.47181,-0.02898,-0.09352,0.54656
-44.1063,0,0,49.1063,49.1063,5,5,63.009,5.9426,-24.4219,0.0811701,-0.342739,-1.0113,1,1,-54.6875,1.645,-3.6925,0.14518,-1.21561,-1.47181,-0.02898,-0.09352,0.54656
-44.0326,0,0,49.0326,49.0326,5,5,62.9037,5.93437,-24.4331,1.07968,1.47906,-0.143498,1,1,-54.775,-8.0675,1.0675,1.14778,0.60512,-0.612318,-0.02898,-0.09352,0.54656
-43.9589,0,0,48.9589,48.9589,5,5,62.7985,5.92611,-24.4443,1.07983,1.47824,-0.141866,1,1,-54.775,-8.0675,1.0675,1.14778,0.60512,-0.612318,-0.02898,-0.09352,0.54656
-43.5956,0,0,48.5956,48.5956,5,5,62.2795,5.76565,-24.4897,-0.343509,1.77892,0.449653,0,1,-45.85,-0.3675,-1.715,-0.284382,0.909388,-0.033428,-0.02898,-0.09352,0.54656
-43.5408,0,0,48.5408,48.5408,5,5,62.2011,5.77301,-24.4983,0.299873,1.42436,-0.12836,1,1,-39.865,-2.4675,-6.37,0.361852,0.555832,-0.60817,-0.03052,-0.07686,0.5537
-43.5029,0,0,48.5029,48.5029,5,5,62.147,5.78026,-24.5135,-0.479341,1.81007,-1.2369,1,1,-25.9,-5.915,-8.12,-0.420534,0.941596,-1.70898,-0.03052,-0.07686,0.5537
-43.4724,0,0,48.4724,48.4724,5,5,62.1034,5.78491,-24.5278,-0.479421,1.80971,-1.23623,1,1,-20.0375,-6.1075,-6.51,-0.420534,0.941596,-1.70898,-0.03052,-0.07686,0.5537
-43.4449,0,0,48.4449,48.4449,5,5,62.0641,5.7933,-24.5363,0.362207,-0.288761,-0.889783,1,1,-17.955,-2.1525,-6.895,0.424804,-1.15436,-1.36579,-0.03052,-0.07686,0.5537
-43.4123,0,0,48.4123,48.4123,5,5,62.0176,5.81173,-24.5422,0.361887,-0.289168,-0.889085,1,1,-22.155,1.9775,-11.3575,0.424804,-1.15436,-1.36579,-0.03052,-0.07686,0.5537
-43.3805,0,0,48.3805,48.3805,5,5,61.9722,5.83038,-24.5512,-0.519451,0.986535,-1.07025,1,1,-21.3675,0.49,-12.285,-0.45994,0.120414,-1.54623,-0.03052,-0.07686,0.5537
-43.3638,0,0,48.3638,48.3638,5,5,61.9483,5.83557,-24.5683,-0.519541,0.986331,-1.06988,1,1,-8.8375,-7.42,-7.595,-0.45994,0.120414,-1.54623,-0.03052,-0.07686,0.5537
-43.3527,0,0,48.3527,48.3527,5,5,61.9325,5.84254,-24.5757,-0.577246,0.699194,0.3209,1,1,-4.83,-1.9425,-5.8625,-0.517768,-0.166286,-0.166408,-0.03136,-0.07756,0.54628
-43.341,0,0,48.341,48.341,5,5,61.9156,5.85297,-24.5811,0.104108,1.17888,-0.0271636,1,1,-5.5475,0.0525,-7.0875,0.166652,0.313052,-0.512034,-0.03136,-0.07756,0.54628
-43.3332,0,0,48.3332,48.3332,5,5,61.9046,5.86057,-24.5892,-0.0557781,0.299705,-0.00708284,1,1,-2.1525,-2.1,-6.37,0.006222,-0.565104,-0.49227,-0.03136,-0.07756,0.54628
-43.3389,0,0,48.3389,48.3389,5,5,61.9128,5.8646,-24.5995,-0.055848,0.299766,-0.00721161,1,1,8.7675,-4.2175,-5.1275,0.006222,-0.565104,-0.49227,-0.03136,-0.07756,0.54628
-43.3455,0,0,48.3455,48.3455,5,5,61.9222,5.87152,-24.6047,-0.37912,2.35669,-0.599482,1,1,9.1875,-0.84,-5.25,-0.318298,1.48962,-1.07982,-0.03136,-0.07756,0.54628
-43.3505,0,0,48.3505,48.3505,5,5,61.9293,5.87712,-24.6089,-0.379217,2.35674,-0.599596,1,1,7.8225,-0.6475,-4.27,-0.318298,1.48962,-1.07982,-0.03136,-0.07756,0.54628
-43.3568,0,0,48.3568,48.3568,5,5,61.9383,5.88318,-24.6102,-0.15506,0.497302,-0.162903,1,1,8.715,0.945,-3.7275,-0.093086,-0.367952,-0.646356,-0.03136,-0.07756,0.54628
-43.3663,0,0,48.3663,48.3663,5,5,61.9518,5.88584,-24.612,-0.155106,0.497408,-0.163112,1,1,11.2525,-0.2275,-2.1,-0.093086,-0.367952,-0.646356,-0.03136,-0.07756,0.54628
-42.8569,0,0,47.8569,47.8569,5,5,61.2241,6.33147,-24.6925,0.391014,0.951211,-0.350345,0,1,15.96,-1.89,2.275,0.463112,0.09211,-0.842776,-0.03388,-0.07756,0.54852
-42.8804,0,0,47.8804,47.8804,5,5,61.2577,6.32511,-24.6878,0.151797,0.518563,-0.963994,1,1,22.1375,0.5425,4.305,0.222772,-0.34038,-1.45119,-0.03388,-0.07756,0.54852
-42.9021,0,0,47.9021,47.9021,5,5,61.2887,6.31709,-24.6849,0.0418701,0.54094,-0.751266,1,1,20.79,-0.84,4.655,0.11224,-0.318298,-1.23964,-0.03388,-0.07756,0.54852
-42.9302,0,0,47.9302,47.9302,5,5,61.3288,6.30494,-24.6849,0.042081,0.541294,-0.751865,1,1,26.075,-3.4475,5.985,0.11224,-0.318298,-1.23964,-0.03388,-0.07756,0.54852
-42.9619,0,0,47.9619,47.9619,5,5,61.3741,6.29131,-24.6883,0.00587177,0.180199,-0.394147,1,1,29.2075,-5.635,5.775,0.07564,-0.679418,-0.884012,-0.03388,-0.07756,0.54852
-42.9971,0,0,47.9971,47.9971,5,5,61.4244,6.28024,-24.6903,0.0060638,0.180635,-0.394903,1,1,31.885,-4.1475,4.8825,0.07564,-0.679418,-0.884012,-0.03388,-0.07756,0.54852
-43.0298,0,0,48.0298,48.0298,5,5,61.4712,6.26948,-24.6913,0.412499,1.0341,-0.793836,1,1,29.89,-3.57,4.9875,0.483608,0.172752,-1.27917,-0.03388,-0.07756,0.54852
-43.0667,0,0,48.0667,48.0667,5,5,61.5239,6.26131,-24.6887,0.41264,1.03455,-0.794632,1,1,32.97,-0.98,4.6725,0.483608,0.172752,-1.27917,-0.02926,-0.07812,0.54992
-43.1045,0,0,48.1045,48.1045,5,5,61.5778,6.25236,-24.6866,0.454465,1.06139,-0.781922,1,1,33.6875,-1.4875,4.9175,0.525454,0.199104,-1.26575,-0.02926,-0.07812,0.54992
-43.1418,0,0,48.1418,48.1418,5,5,61.6311,6.24027,-24.6871,-0.353569,1.35715,-0.106017,1,1,33.5125,-3.6575,5.8275,-0.286212,0.4941,-0.594262,-0.02926,-0.07812,0.54992
-43.183,0,0,48.183,48.183,5,5,61.69,6.22894,-24.6838,-0.353373,1.35765,-0.106905,1,1,36.3825,-1.5225,6.475,-0.286212,0.4941,-0.594262,-0.02926,-0.07812,0.54992
-43.2252,0,0,48.2252,48.2252,5,5,61.7503,6.21826,-24.6813,-0.288193,1.00656,-0.211955,1,1,37.275,-1.715,5.9325,-0.220942,0.142862,-0.697596,-0.02926,-0.07812,0.54992
-43.2702,0,0,48.2702,48.2702,5,5,61.8146,6.21123,-24.6807,-0.288071,1.0071,-0.212931,1,1,39.5675,-1.68,3.535,-0.220942,0.142862,-0.697596,-0.02926,-0.07812,0.54992
-43.319,0,0,48.319,48.319,5,5,61.8842,6.20554,-24.6798,0.756076,0.643256,-0.756072,1,1,42.595,-1.1725,2.9225,0.827526,-0.221186,-1.23549,-0.02926,-0.07812,0.54992
-43.369,0,0,48.369,48.369,5,5,61.9557,6.20403,-24.6819,0.756102,0.643842,-0.757164,1,1,43.785,-1.5225,-0.035,0.827526,-0.221186,-1.23549,-0.02926,-0.07812,0.54992
-43.4166,0,0,48.4166,48.4166,5,5,62.0237,6.20334,-24.6839,0.0881859,0.809757,-0.382967,1,1,41.8425,-1.295,-0.455,0.15677,-0.055998,-0.86315,-0.02786,-0.08232,0.5453
-43.469,0,0,48.469,48.469,5,5,62.0985,6.20417,-24.6857,-0.230607,0.340664,-0.188135,1,1,45.6575,-0.7,-1.1375,-0.163358,-0.52521,-0.668682,-0.02786,-0.08232,0.5453
-43.5198,0,0,48.5198,48.5198,5,5,62.1712,6.20576,-24.6843,-0.230634,0.341251,-0.189251,1,1,44.24,1.085,-0.7,-0.163358,-0.52521,-0.668682,-0.02786,-0.08232,0.5453
-42.9902,0,0,47.9902,47.9902,5,5,61.4145,6.63595,-24.775,0.367875,1.20959,-0.366685,0,1,44.38,1.155,-0.315,0.445178,0.349164,-0.85583,-0.02786,-0.08232,0.5453
-42.4624,0,0,47.4624,47.4624,5,5,60.6605,7.0608,-24.8711,0.360513,1.20249,-0.355682,0,1,45.5175,0.6825,1.435,0.445178,0.349164,-0.85583,-0.02786,-0.08232,0.5453
-42.5154,0,0,47.5154,47.5154,5,5,60.7363,7.05848,-24.8662,0.167634,0.63024,-0.330513,1,1,45.71,1.82,2.345,0.251442,-0.223138,-0.829722,-0.02786,-0.08232,0.5453
-42.5753,0,0,47.5753,47.5753,5,5,60.8219,7.05583,-24.8623,0.16768,0.630969,-0.331804,1,1,51.3275,1.1725,2.205,0.251442,-0.223138,-0.829722,-0.02786,-0.08232,0.5453
-41.9845,0,0,46.9845,46.9845,5,5,59.9778,6.88875,-24.9712,-0.292529,1.2894,-0.418626,0,1,51.205,1.54,1.715,-0.213622,0.441518,-0.928664,-0.02786,-0.08232,0.5453
