pid_x,pid_y,pid_z,front_left_speed,front_right_speed,back_left_speed,back_right_speed,orientation_x,orientation_y,orientation_z,acceleration_x,acceleration_y,acceleration_z,accel_rejected,mag_rejected,ahrs_initialized,gyro_x,gyro_y,gyro_z,accel_x,accel_y,accel_z,mag_x,mag_y,mag_z
-0.025679,0,0,10.0257,10.0257,9.97432,9.97432,0.0142661,0.0322837,0.683398,0.0166099,-0.0119086,-0.00129073,0,0,0,4.55,1.26,-1.12,-0.023058,0,-1.01394,-0.1673,-0.24262,0.32256
-0.0724287,0,0,10.0724,10.0724,9.92757,9.92757,0.0402382,0.0693064,1.36469,0.0148704,-0.0218361,0.00350347,0,0,0,4.41,1.19,-0.77,-0.024156,-0.01037,-1.00918,-0.1673,-0.24262,0.32256
-0.0576593,0,0,10.0577,10.0577,9.94234,9.94234,0.0320329,0.0894372,2.04051,0.0175562,0.00696472,-0.00534922,0,0,0,4.34,1.4,-0.84,-0.021106,0.018544,-1.01797,-0.1673,-0.24262,0.32256
-0.042043,0,0,10.042,10.042,9.95796,9.95796,0.0233572,0.109216,2.7087,0.017211,0.0068133,-0.00534974,0,0,0,3.99,1.47,-0.91,-0.021106,0.018544,-1.01797,-0.1645,-0.24248,0.32844
-0.0678312,0,0,10.0678,10.0678,9.93217,9.93217,0.037684,0.142825,3.37131,0.0177177,-0.0121106,-0.00104797,0,0,0,4.13,1.19,-1.19,-0.020008,-0.00061,-1.0137,-0.1645,-0.24248,0.32844
-0.086401,0,0,10.0864,10.0864,9.9136,9.9136,0.0480005,0.140095,4.05224,-0.00653174,-0.00899945,0.00165688,0,0,0,4.2,1.19,-1.05,-0.044408,0.002318,-1.01101,-0.1645,-0.24248,0.32844
-0.104226,0,0,10.1042,10.1042,9.89577,9.89577,0.0579036,0.136708,4.72968,-0.00647263,-0.00882661,0.00165687,0,0,0,4.06,0.84,-0.98,-0.044408,0.002318,-1.01101,-0.1645,-0.24248,0.32844
-0.12234,0,0,10.1223,10.1223,9.87766,9.87766,0.0679668,0.16725,5.38229,0.0175344,-0.00816247,0.000917567,0,0,0,4.2,1.19,-0.63,-0.019764,0.002806,-1.01175,-0.1645,-0.24248,0.32844
-0.157764,0,0,10.1578,10.1578,9.84224,9.84224,0.0876467,0.178383,6.04575,-0.000275309,-0.0162457,0.00337548,0,0,0,4.2,1.12,-0.77,-0.037454,-0.005612,-1.00931,-0.1645,-0.24248,0.32844
-0.193778,0,0,10.1938,10.1938,9.80622,9.80622,0.107654,0.189471,6.70549,-0.000468832,-0.0158965,0.00337427,0,0,0,4.55,1.4,-0.7,-0.037454,-0.005612,-1.00931,-0.1645,-0.24248,0.32844
-0.262414,0,0,10.2624,10.2624,9.73759,9.73759,0.145785,0.216271,7.35517,0.00380137,-0.0301305,0.00619896,0,0,0,4.48,1.12,-0.77,-0.032696,-0.020496,-1.0065,-0.1645,-0.24248,0.32844
-0.330192,0,0,10.3302,10.3302,9.66981,9.66981,0.18344,0.242305,8.0025,0.00334699,-0.0294733,0.00619525,0,0,0,4.55,1.33,-0.84,-0.032696,-0.020496,-1.0065,-0.16212,-0.24444,0.32998
-0.403366,0,0,10.4034,10.4034,9.59663,9.59663,0.224092,0.302619,8.62308,0.0273204,-0.0309621,0.00704836,0,0,0,4.48,1.05,-0.91,-0.007564,-0.022692,-1.00565,-0.16212,-0.24444,0.32998
-0.409978,0,0,10.41,10.41,9.59002,9.59002,0.227765,0.325012,9.25424,0.0149025,-0.00219824,0.00643122,0,0,0,4.55,1.05,-0.91,-0.019642,0.005978,-1.00626,-0.16212,-0.24444,0.32998
-0.416513,0,0,10.4165,10.4165,9.58349,9.58349,0.231396,0.34729,9.8814,0.0145136,-0.00213488,0.00642869,0,0,0,4.55,1.33,-0.98,-0.019642,0.005978,-1.00626,-0.16212,-0.24444,0.32998
-0.447886,0,0,10.4479,10.4479,9.55211,9.55211,0.248826,0.3734,10.505,0.0117497,-0.0130664,0.0104818,0,0,0,4.34,1.26,-0.84,-0.02196,-0.005246,-1.00223,-0.16212,-0.24444,0.32998
-0.470994,0,0,10.471,10.471,9.52901,9.52901,0.261663,0.387634,11.1306,0.00518403,-0.00954489,0.015643,0,0,0,4.41,1.12,-0.77,-0.028304,-0.001952,-0.997106,-0.16212,-0.24444,0.32998
-0.493272,0,0,10.4933,10.4933,9.50673,9.50673,0.27404,0.401718,11.7525,0.00493824,-0.00932889,0.0156403,0,0,0,4.27,1.33,-0.56,-0.028304,-0.001952,-0.997106,-0.16212,-0.24444,0.32998
-0.513008,0,0,10.513,10.513,9.48699,9.48699,0.285005,0.427344,12.3613,0.0144528,-0.00840478,-0.00649456,0,0,0,4.06,1.12,-0.84,-0.0183,-0.00122,-1.01907,-0.16212,-0.24444,0.32998
-0.532443,0,0,10.5324,10.5324,9.46756,9.46756,0.295802,0.452264,12.9662,0.0140179,-0.00821636,-0.00649886,0,0,0,4.06,1.12,-0.84,-0.0183,-0.00122,-1.01907,-0.16506,-0.24654,0.33124
-0.550208,0,0,10.5502,10.5502,9.44979,9.44979,0.305671,0.471871,13.5699,0.0101526,-0.00755562,-0.00158458,0,0,0,4.06,1.33,-0.77,-0.021838,-0.000732,-1.01419,-0.16506,-0.24654,0.33124
-0.564456,0,0,10.5645,10.5645,9.43554,9.43554,0.313587,0.467455,14.1832,-0.00617089,-0.00607408,-0.00342892,0,0,0,4.62,1.19,-0.91,-0.038308,0.00061,-1.01602,-0.16506,-0.24654,0.33124
-0.578216,0,0,10.5782,10.5782,9.42178,9.42178,0.321231,0.463526,14.7921,-0.00610232,-0.00594067,-0.00342911,0,0,0,4.55,1.47,-0.91,-0.038308,0.00061,-1.01602,-0.16506,-0.24654,0.33124
-0.59155,0,0,10.5916,10.5916,9.40845,9.40845,0.328639,0.471276,15.3887,0.00299534,-0.00532288,0.000872254,0,0,0,4.48,1.12,-0.84,-0.029036,0.001098,-1.01175,-0.16506,-0.24654,0.33124
-0.589419,0,0,10.5894,10.5894,9.41058,9.41058,0.327455,0.45442,15.9949,-0.0117747,0.000762803,0.00259603,0,0,0,4.83,1.19,-0.84,-0.044164,0.007198,-1.01004,-0.16506,-0.24654,0.33124
-0.585969,0,0,10.586,10.586,9.41403,9.41403,0.325538,0.438234,16.5965,-0.0114922,0.000729367,0.00259842,0,0,0,4.41,1.33,-0.84,-0.044164,0.007198,-1.01004,-0.16506,-0.24654,0.33124
-0.594674,0,0,10.5947,10.5947,9.40533,9.40533,0.330374,0.435854,17.1785,-0.00440451,-0.00382704,0.00419658,0,0,0,4.41,1.82,-0.84,-0.037088,0.002562,-1.00845,-0.16884,-0.24416,0.33586
-0.615753,0,0,10.6158,10.6158,9.38425,9.38425,0.342085,0.434619,17.7551,-0.00499038,-0.00862986,0.00124478,0,0,0,4.62,1.12,-0.84,-0.037698,-0.00244,-1.01138,-0.16884,-0.24416,0.33586
-0.610066,0,0,10.6101,10.6101,9.38993,9.38993,0.338926,0.442911,18.3196,0.00713496,0.00303916,-0.000600224,0,0,0,4.69,1.4,-0.98,-0.025376,0.009272,-1.01321,-0.16884,-0.24416,0.33586
-0.635836,0,0,10.6358,10.6358,9.36416,9.36416,0.353242,0.435579,18.8912,-0.0110814,-0.0109998,-0.00318267,0,0,0,4.55,1.61,-0.84,-0.043798,-0.005002,-1.01577,-0.16884,-0.24416,0.33586
-0.660413,0,0,10.6604,10.6604,9.33959,9.33959,0.366896,0.428132,19.458,-0.0109515,-0.0107615,-0.00318319,0,0,0,4.34,1.54,-0.98,-0.043798,-0.005002,-1.01577,-0.16884,-0.24416,0.33586
-0.686517,0,0,10.6865,10.6865,9.31348,9.31348,0.381398,0.439751,20.0084,0.00293811,-0.0105084,-0.00134215,0,0,0,4.27,1.54,-0.91,-0.029646,-0.005002,-1.01394,-0.16884,-0.24416,0.33586
-0.711865,0,0,10.7119,10.7119,9.28814,9.28814,0.39548,0.450665,20.5546,0.00274763,-0.0102627,-0.0013453,0,0,0,4.2,1.4,-0.7,-0.029646,-0.005002,-1.01394,-0.16884,-0.24416,0.33586
-0.731213,0,0,10.7312,10.7312,9.26879,9.26879,0.406229,0.457155,21.1128,0.000447619,-0.00787678,0.00418518,0,0,0,4.2,1.47,-0.7,-0.031842,-0.002806,-1.00845,-0.16618,-0.2513,0.3283
-0.731791,0,0,10.7318,10.7318,9.26821,9.26821,0.40655,0.446007,21.6759,-0.00846924,-0.00103208,0.0120554,0,0,0,4.2,1.05,-0.56,-0.040992,0.004026,-1.00064,-0.16618,-0.2513,0.3283
-0.780722,0,0,10.7807,10.7807,9.21928,9.21928,0.433735,0.47406,22.2119,0.0110863,-0.0183882,0.0159823,0,0,0,4.13,1.12,-0.63,-0.020862,-0.013786,-0.99674,-0.16618,-0.2513,0.3283
-0.828621,0,0,10.8286,10.8286,9.17138,9.17138,0.460345,0.501093,22.7433,0.0106145,-0.0179238,0.0159747,0,0,0,4.13,1.12,-0.63,-0.020862,-0.013786,-0.99674,-0.16618,-0.2513,0.3283
-0.866999,0,0,10.867,10.867,9.133,9.133,0.481666,0.513827,23.2767,0.00261717,-0.0142543,0.0115435,0,0,0,4.62,0.84,-0.98,-0.02867,-0.010492,-1.00113,-0.16618,-0.2513,0.3283
-0.895849,0,0,10.8958,10.8958,9.10415,9.10415,0.497694,0.537205,23.799,0.012171,-0.0101887,0.00809481,0,0,0,4.41,0.98,-0.77,-0.018666,-0.00671,-1.00455,-0.16618,-0.2513,0.3283
-0.92495,0,0,10.925,10.925,9.07505,9.07505,0.513861,0.559819,24.3162,0.0117763,-0.00990657,0.00808854,0,0,0,4.69,0.98,-1.05,-0.018666,-0.00671,-1.00455,-0.16618,-0.2513,0.3283
-0.960574,0,0,10.9606,10.9606,9.03943,9.03943,0.533652,0.574127,24.8334,0.00448044,-0.0133471,0.00328792,0,0,0,4.41,0.84,-0.77,-0.025742,-0.010492,-1.00931,-0.16618,-0.2513,0.3283
-0.940708,0,0,10.9407,10.9407,9.05929,9.05929,0.522616,0.573654,25.3436,0.00315235,0.00783243,0.0063635,0,0,0,4.41,1.19,-0.77,-0.027084,0.010858,-1.00626,-0.16604,-0.2443,0.33362
-0.928623,0,0,10.9286,10.9286,9.07138,9.07138,0.515902,0.53823,25.8696,-0.025143,0.00270812,-0.0016211,0,0,0,4.48,1.54,-0.98,-0.05612,0.005856,-1.01419,-0.16604,-0.2443,0.33362
-0.917972,0,0,10.918,10.918,9.08203,9.08203,0.509984,0.50338,26.3911,-0.0245348,0.0026049,-0.00161464,0,0,0,4.83,1.33,-0.84,-0.05612,0.005856,-1.01419,-0.16604,-0.2443,0.33362
-1.02951,0,0,11.0295,11.0295,8.97049,8.97049,0.57195,0.453331,26.9147,-0.0582847,-0.0465077,0.00514461,0,0,0,4.76,1.47,-0.7,-0.09089,-0.044286,-1.00748,-0.16604,-0.2443,0.33362
-1.11021,0,0,11.1102,11.1102,8.88979,8.88979,0.616784,0.429251,27.4189,-0.0324739,-0.0321692,0.0122707,0,0,0,4.9,1.33,-0.91,-0.065392,-0.030744,-1.0004,-0.16604,-0.2443,0.33362
-1.18848,0,0,11.1885,11.1885,8.81152,8.81152,0.660267,0.405692,27.9178,-0.0320628,-0.0314103,0.0122653,0,0,0,4.69,1.61,-1.05,-0.065392,-0.030744,-1.0004,-0.16604,-0.2443,0.33362
-0.898429,0,0,10.8984,10.8984,9.10157,9.10157,0.499127,0.19323,28.5221,-0.106348,0.0963312,0.0530091,0,0,0,4.76,1.33,-1.47,-0.143716,0.099674,-0.960018,-0.16604,-0.2443,0.33362
-0.986156,0,0,10.9862,10.9862,9.01384,9.01384,0.547864,0.353779,28.8884,0.114869,-0.0251894,-0.0486905,0,0,0,5.04,0.7,-1.75,0.081252,-0.02257,-1.06091,-0.1666,-0.23744,0.34538
-0.417316,0,0,10.4173,10.4173,9.58268,9.58268,0.231842,0.128447,29.4858,-0.0759397,0.209519,0.0150509,0,0,0,4.48,1.12,-1.33,-0.114314,0.217404,-0.997716,-0.1666,-0.23744,0.34538
0.138707,0,0,9.86129,9.86129,10.1387,10.1387,-0.0770596,-0.0868012,30.0804,-0.072183,0.204127,0.0150596,0,0,0,4.69,1.96,-1.47,-0.114314,0.217404,-0.997716,-0.1666,-0.23744,0.34538
0.603592,0,0,9.39641,9.39641,10.6036,10.6036,-0.335329,-0.456227,30.7552,-0.215649,0.161638,-0.00109347,0,0,0,4.34,1.82,-1.61,-0.264862,0.179462,-1.0137,-0.1666,-0.23744,0.34538
0.51878,0,0,9.48122,9.48122,10.5188,10.5188,-0.288211,-0.408223,31.1828,0.021018,-0.0286676,0.0718258,0,0,0,3.71,1.33,-1.26,-0.026352,-0.011468,-0.941352,-0.1666,-0.23744,0.34538
0.435617,0,0,9.56438,9.56438,10.4356,10.4356,-0.24201,-0.362491,31.607,0.0202199,-0.0278613,0.0718349,0,0,0,3.85,0.98,-0.91,-0.026352,-0.011468,-0.941352,-0.1666,-0.23744,0.34538
0.130909,0,0,9.86909,9.86909,10.1309,10.1309,-0.072727,-0.462039,32.0874,-0.12504,-0.120288,0.0468719,0,0,0,3.85,1.47,-0.84,-0.173972,-0.10675,-0.966118,-0.1666,-0.23744,0.34538
-0.167775,0,0,10.1678,10.1678,9.83222,9.83222,0.0932085,-0.562119,32.551,-0.123294,-0.117392,0.0468558,0,0,0,4.62,1.82,-0.56,-0.173972,-0.10675,-0.966118,-0.16618,-0.22946,0.35336
-1.17271,0,0,11.1727,11.1727,8.82729,8.82729,0.651503,-0.813841,32.9797,-0.301372,-0.33798,0.294112,0,0,0,5.04,1.19,0.14,-0.357216,-0.336842,-0.720654,-0.16618,-0.22946,0.35336
-1.1743,0,0,11.1743,11.1743,8.8257,8.8257,0.652387,-0.814302,32.9817,0.22066,-0.163446,-0.0767008,1,0,0,4.97,0.91,0.28,0.167018,-0.162504,-1.08861,-0.16618,-0.22946,0.35336
-1.17589,0,0,11.1759,11.1759,8.82411,8.82411,0.653272,-0.814763,32.9836,0.220668,-0.16343,-0.0767011,1,0,0,4.97,0.91,0.28,0.167018,-0.162504,-1.08861,-0.16618,-0.22946,0.35336
-1.41792,0,0,11.4179,11.4179,8.58208,8.58208,0.787734,-0.632709,33.2882,0.109368,-0.086708,-0.0750922,0,0,0,4.97,1.33,0.7,0.058438,-0.088206,-1.08702,-0.16618,-0.22946,0.35336
-1.36325,0,0,11.3633,11.3633,8.63675,8.63675,0.757363,-0.738744,33.7675,-0.0744112,0.0127835,-0.0067478,0,0,0,4.13,1.19,0.91,-0.127978,0.011712,-1.01919,-0.16618,-0.22946,0.35336
-1.30814,0,0,11.3081,11.3081,8.69186,8.69186,0.726742,-0.840828,34.2415,-0.0726296,0.0122489,-0.00676544,0,0,0,3.5,1.82,0.63,-0.127978,0.011712,-1.01919,-0.16618,-0.22946,0.35336
-1.30543,0,0,11.3054,11.3054,8.69457,8.69457,0.725237,-0.839872,34.2446,0.0372982,0.0726754,-0.109796,1,0,0,3.64,1.75,0.91,-0.017568,0.072102,-1.12142,-0.16618,-0.22946,0.35336
-1.30384,0,0,11.3038,11.3038,8.69616,8.69616,0.724358,-0.839989,34.2475,0.0373003,0.07266,-0.109796,1,0,0,3.99,1.12,0.84,-0.017568,0.072102,-1.12142,-0.1624,-0.22988,0.3528
-0.925061,0,0,10.9251,10.9251,9.07494,9.07494,0.513923,-0.823734,34.6816,0.0775928,0.15411,-0.0568839,0,0,0,4.41,1.19,1.33,0.02318,0.157136,-1.06896,-0.1624,-0.22988,0.3528
-0.558783,0,0,10.5588,10.5588,9.44122,9.44122,0.310435,-0.805235,35.1112,0.07727,0.150559,-0.0568537,0,0,0,5.6,1.47,0.56,0.02318,0.157136,-1.06896,-0.1624,-0.22988,0.3528
-0.140572,0,0,10.1406,10.1406,9.85943,9.85943,0.0780956,-0.94387,35.6274,-0.0411889,0.151634,0.00373668,0,0,0,6.44,0.56,0.28,-0.09821,0.16226,-1.00882,-0.1624,-0.22988,0.3528
0.269348,0,0,9.73065,9.73065,10.2693,10.2693,-0.149638,-1.0773,36.1385,-0.0388605,0.14766,0.00369313,0,0,0,5.95,0.28,-0.56,-0.09821,0.16226,-1.00882,-0.1624,-0.22988,0.3528
-0.439557,0,0,10.4396,10.4396,9.56044,9.56044,0.244198,-0.787895,36.3056,0.127505,-0.26595,-0.0461474,0,0,0,5.04,0.35,-1.05,0.073932,-0.257786,-1.05835,-0.1624,-0.22988,0.3528
-1.12604,0,0,11.126,11.126,8.87396,8.87396,0.625575,-0.50686,36.4728,0.122601,-0.259294,-0.0461425,0,0,0,3.92,1.54,-1.33,0.073932,-0.257786,-1.05835,-0.1624,-0.22988,0.3528
-1.11962,0,0,11.1196,11.1196,8.88038,8.88038,0.622011,-0.506201,36.4707,0.0835923,-0.0119271,-0.334702,1,0,0,2.45,1.54,-2.1,0.03477,-0.010614,-1.34468,-0.1624,-0.22988,0.3528
-1.113,0,0,11.113,11.113,8.887,8.887,0.618334,-0.506005,36.4673,0.0835889,-0.0119913,-0.334701,1,0,0,2.38,1.26,-2.87,0.03477,-0.010614,-1.34468,-0.1624,-0.2191,0.35322
-1.10975,0,0,11.1098,11.1098,8.89025,8.89025,0.616528,-0.505213,36.464,-0.17689,-0.0856653,-0.321299,1,0,0,3.43,1.61,-2.8,-0.226798,-0.08418,-1.33139,-0.1624,-0.2191,0.35322
-1.11009,0,0,11.1101,11.1101,8.88991,8.88991,0.616719,-0.503945,36.4608,-0.176912,-0.0856619,-0.321299,1,0,0,4.55,1.89,-2.73,-0.226798,-0.08418,-1.33139,-0.1624,-0.2191,0.35322
-1.09069,0,0,11.0907,11.0907,8.90931,8.90931,0.605936,-0.37909,36.7678,0.106521,0.0184463,-0.0541133,0,0,0,5.46,1.61,-2.45,0.060024,0.020008,-1.06628,-0.1624,-0.2191,0.35322
-1.07314,0,0,11.0731,11.0731,8.92686,8.92686,0.596188,-0.257708,37.071,0.104403,0.0182763,-0.0540997,0,0,0,6.02,1.19,-3.08,0.060024,0.020008,-1.06628,-0.1624,-0.2191,0.35322
-1.07819,0,0,11.0782,11.0782,8.92181,8.92181,0.598994,-0.25774,37.0663,0.141214,-0.186237,0.15565,1,0,0,6.02,1.12,-3.57,0.09699,-0.184342,-0.858148,-0.1624,-0.2191,0.35322
-1.08166,0,0,11.0817,11.0817,8.91834,8.91834,0.600925,-0.258611,37.062,0.141229,-0.186203,0.15565,1,0,0,5.53,0.63,-3.43,0.09699,-0.184342,-0.858148,-0.1624,-0.2191,0.35322
-1.52726,0,0,11.5273,11.5273,8.47274,8.47274,0.848476,0.0336893,37.2151,0.172209,-0.154282,-0.0238999,0,0,0,4.48,0.77,-3.36,0.133224,-0.15677,-1.03627,-0.1624,-0.2191,0.35322
-1.95723,0,0,11.9572,11.9572,8.04277,8.04277,1.08735,0.318184,37.3598,0.167243,-0.150114,-0.0239856,0,0,0,3.36,1.26,-2.45,0.133224,-0.15677,-1.03627,-0.16828,-0.21812,0.35966
-1.95143,0,0,11.9514,11.9514,8.04857,8.04857,1.08413,0.31815,37.3574,-0.120191,-0.132828,-0.379675,1,0,0,2.66,1.12,-2.31,-0.155428,-0.139446,-1.38921,-0.16828,-0.21812,0.35966
-1.94835,0,0,11.9483,11.9483,8.05165,8.05165,1.08241,0.318687,37.3563,-0.120201,-0.132858,-0.379674,1,0,0,3.5,1.47,-1.47,-0.155428,-0.139446,-1.38921,-0.16828,-0.21812,0.35966
-1.82503,0,0,11.825,11.825,8.17497,8.17497,1.01391,0.104276,37.8179,-0.161651,0.0293522,-0.0578821,0,0,0,3.85,1.68,-0.98,-0.200812,0.02379,-1.06994,-0.16828,-0.21812,0.35966
-1.70606,0,0,11.7061,11.7061,8.29394,8.29394,0.947811,-0.104791,38.2767,-0.158002,0.0281987,-0.0578624,0,0,0,4.06,1.47,0.35,-0.200812,0.02379,-1.06994,-0.16828,-0.21812,0.35966
-1.70904,0,0,11.709,11.709,8.29096,8.29096,0.949469,-0.104547,38.2788,-0.0202418,-0.180731,0.502413,1,0,0,5.39,1.33,0.35,-0.062464,-0.184952,-0.513986,-0.16828,-0.21812,0.35966
-1.7136,0,0,11.7136,11.7136,8.2864,8.2864,0.951999,-0.106227,38.2815,-0.0202125,-0.180687,0.502413,1,0,0,5.88,0.21,0.77,-0.062464,-0.184952,-0.513986,-0.16828,-0.21812,0.35966
-1.71793,0,0,11.7179,11.7179,8.28207,8.28207,0.954403,-0.108632,38.2848,0.0858865,-0.00978978,0.3293,1,0,0,5.81,-0.21,1.05,0.044042,-0.014274,-0.685762,-0.16828,-0.21812,0.35966
-1.72023,0,0,11.7202,11.7202,8.27977,8.27977,0.955682,-0.110332,38.2888,0.0859162,-0.00976746,0.3293,1,0,0,5.18,0.21,1.47,0.044042,-0.014274,-0.685762,-0.16828,-0.21812,0.35966
-1.72253,0,0,11.7225,11.7225,8.27747,8.27747,0.95696,-0.111678,38.293,0.110358,0.0750108,-0.185855,1,0,0,5.18,0.42,1.61,0.068564,0.070394,-1.19694,-0.16436,-0.22274,0.34986
-1.72258,0,0,11.7226,11.7226,8.27742,8.27742,0.95699,-0.113026,38.2974,0.110382,0.0750113,-0.185855,1,0,0,4.48,0.42,1.68,0.068564,0.070394,-1.19694,-0.16436,-0.22274,0.34986
-1.72061,0,0,11.7206,11.7206,8.27939,8.27939,0.955895,-0.11259,38.3023,0.135765,-0.176222,-0.260115,1,0,0,3.85,1.47,1.96,0.094062,-0.18056,-1.27063,-0.16436,-0.22274,0.34986
-1.71864,0,0,11.7186,11.7186,8.28136,8.28136,0.9548,-0.112154,38.3071,0.135757,-0.176242,-0.260115,1,0,0,3.85,1.47,1.96,0.094062,-0.18056,-1.27063,-0.16436,-0.22274,0.34986
-1.67291,0,0,11.6729,11.6729,8.32709,8.32709,0.929393,0.218847,38.4838,0.272604,0.0437537,0.019103,0,0,0,3.57,1.89,1.47,0.23729,0.03965,-0.993568,-0.16436,-0.22274,0.34986
-1.62716,0,0,11.6272,11.6272,8.37284,8.37284,0.903979,0.542875,38.6589,0.266949,0.0433096,0.0190725,0,0,0,3.57,1.89,1.47,0.23729,0.03965,-0.993568,-0.16436,-0.22274,0.34986
-1.62681,0,0,11.6268,11.6268,8.37319,8.37319,0.903786,0.544197,38.6609,-0.0678886,-0.0170244,0.25956,1,0,0,4.34,1.96,0.28,-0.098942,-0.020618,-0.754936,-0.16436,-0.22274,0.34986
-1.62647,0,0,11.6265,11.6265,8.37353,8.37353,0.903594,0.54552,38.6629,-0.0679117,-0.0170277,0.259559,1,0,0,4.34,1.96,0.28,-0.098942,-0.020618,-0.754936,-0.16436,-0.22274,0.34986
-1.24325,0,0,11.2432,11.2432,8.75675,8.75675,0.690692,0.573889,39.0221,0.0808991,0.151822,-0.000675668,0,0,0,6.16,0.49,-0.98,0.050996,0.151768,-1.01321,-0.16296,-0.22344,0.35728
-1.24913,0,0,11.2491,11.2491,8.75087,8.75087,0.693961,0.572274,39.0206,-0.0715373,-0.0902983,-0.280138,1,0,0,6.3,0.21,-1.75,-0.102114,-0.090158,-1.29052,-0.16296,-0.22344,0.35728
-1.25095,0,0,11.2509,11.2509,8.74905,8.74905,0.69497,0.571512,39.0177,-0.071524,-0.0902807,-0.280138,1,0,0,5.04,0.7,-2.52,-0.102114,-0.090158,-1.29052,-0.16296,-0.22344,0.35728
-1.24872,0,0,11.2487,11.2487,8.75128,8.75128,0.693734,0.57206,39.0152,-0.0811309,0.108764,-0.285671,1,0,0,3.78,1.47,-2.38,-0.111752,0.108702,-1.29601,-0.16296,-0.22344,0.35728
-1.2476,0,0,11.2476,11.2476,8.7524,8.7524,0.693113,0.573815,39.0116,-0.0811615,0.108753,-0.285671,1,0,0,4.13,2.17,-2.94,-0.111752,0.108702,-1.29601,-0.16296,-0.22344,0.35728
-1.24557,0,0,11.2456,11.2456,8.75443,8.75443,0.691986,0.575458,39.0075,-0.0449875,0.044373,0.177968,1,0,0,3.85,2.1,-3.29,-0.075396,0.044408,-0.835944,-0.16296,-0.22344,0.35728
-1.24198,0,0,11.242,11.242,8.75802,8.75802,0.689987,0.578412,39.0037,-0.045039,0.0443381,0.177968,1,0,0,3.36,2.87,-3.15,-0.075396,0.044408,-0.835944,-0.16296,-0.22344,0.35728
-1.23951,0,0,11.2395,11.2395,8.76049,8.76049,0.688615,0.580407,39,0.263135,0.117224,0.419807,1,0,0,3.71,2.31,-3.01,0.234118,0.117242,-0.59597,-0.16296,-0.22344,0.35728
-1.24287,0,0,11.2429,11.2429,8.75713,8.75713,0.690483,0.5799,38.9958,0.263144,0.117256,0.419807,1,0,0,5.53,0.84,-3.36,0.234118,0.117242,-0.59597,-0.15918,-0.22344,0.35028
-1.24849,0,0,11.2485,11.2485,8.75151,8.75151,0.693604,0.578312,38.992,0.24908,0.137218,0.203049,1,0,0,6.23,0.21,-3.08,0.219966,0.137128,-0.811056,-0.15918,-0.22344,0.35028
-1.25502,0,0,11.255,11.255,8.74498,8.74498,0.697231,0.577793,38.9888,0.249089,0.137281,0.203048,1,0,0,6.51,0.84,-2.73,0.219966,0.137128,-0.811056,-0.15918,-0.22344,0.35028
-1.29028,0,0,11.2903,11.2903,8.70972,8.70972,0.716823,0.574258,39.3242,-0.00560516,-0.0133259,-0.0836716,0,0,0,6.23,0.28,-2.8,-0.035868,-0.013664,-1.09556,-0.15918,-0.22344,0.35028
-1.32155,0,0,11.3216,11.3216,8.67845,8.67845,0.734197,0.570493,39.6569,-0.00553946,-0.0130226,-0.0836748,0,0,0,5.25,0.21,-2.31,-0.035868,-0.013664,-1.09556,-0.15918,-0.22344,0.35028
-1.32451,0,0,11.3245,11.3245,8.67549,8.67549,0.73584,0.568765,39.655,-0.0845965,0.307711,-0.0969533,1,0,0,5.39,0.14,-1.96,-0.11529,0.306708,-1.10874,-0.15918,-0.22344,0.35028
-1.32277,0,0,11.3228,11.3228,8.67723,8.67723,0.734871,0.569531,39.6543,-0.0846098,0.307694,-0.0969532,1,0,0,3.92,1.61,-1.33,-0.11529,0.306708,-1.10874,-0.15918,-0.22344,0.35028
-1.31834,0,0,11.3183,11.3183,8.68166,8.68166,0.732413,0.570884,39.6543,-0.0994547,0.136674,0.229721,1,0,0,3.08,1.96,-0.84,-0.130174,0.135908,-0.784582,-0.15918,-0.22344,0.35028
-1.31371,0,0,11.3137,11.3137,8.68629,8.68629,0.729837,0.572825,39.6551,-0.0994886,0.136629,0.229722,1,0,0,3.01,2.31,-0.42,-0.130174,0.135908,-0.784582,-0.16436,-0.23072,0.3479
-1.30976,0,0,11.3098,11.3098,8.69024,8.69024,0.727647,0.57296,39.657,-0.0371688,0.155276,0.255049,1,0,0,3.22,1.26,0.21,-0.067588,0.154574,-0.75945,-0.16436,-0.23072,0.3479
-1.31167,0,0,11.3117,11.3117,8.68833,8.68833,0.728705,0.572734,39.6591,-0.0371648,0.155294,0.255049,1,0,0,5.04,1.05,0.35,-0.067588,0.154574,-0.75945,-0.16436,-0.23072,0.3479
-1.22419,0,0,11.2242,11.2242,8.77581,8.77581,0.680107,0.539033,40.0239,-0.0131299,0.0319531,-0.0286998,0,0,0,5.32,0.56,0.63,-0.044042,0.032208,-1.04103,-0.16436,-0.23072,0.3479
-1.13942,0,0,11.1394,11.1394,8.86058,8.86058,0.633014,0.506332,40.3856,-0.0125592,0.0311314,-0.0286852,0,0,0,5.46,0.42,0.91,-0.044042,0.032208,-1.04103,-0.16436,-0.23072,0.3479
-1.14313,0,0,11.1431,11.1431,8.85687,8.85687,0.635073,0.505027,40.3883,0.143087,0.122762,-0.178928,1,0,0,5.6,0.42,0.7,0.11224,0.123708,-1.19011,-0.16436,-0.23072,0.3479
-1.14751,0,0,11.1475,11.1475,8.85249,8.85249,0.637506,0.504321,40.3909,0.143099,0.122805,-0.178929,1,0,0,5.81,0.77,0.63,0.11224,0.123708,-1.19011,-0.16436,-0.23072,0.3479
-1.03945,0,0,11.0395,11.0395,8.96055,8.96055,0.577473,0.37649,40.7977,-0.09181,0.032849,-0.0640667,0,0,0,5.53,0.77,0.63,-0.125904,0.034892,-1.07616,-0.16436,-0.23072,0.3479
-0.931278,0,0,10.9313,10.9313,9.06872,9.06872,0.517377,0.254631,41.2025,-0.0896832,0.0318003,-0.0640449,0,0,0,4.34,1.96,0.14,-0.125904,0.034892,-1.07616,-0.16198,-0.23282,0.35294
-0.725275,0,0,10.7253,10.7253,9.27473,9.27473,0.40293,0.256476,41.5559,0.0266679,0.0707154,0.0714602,0,0,0,3.15,2.17,0,-0.009028,0.075762,-0.941718,-0.16198,-0.23282,0.35294
-0.521831,0,0,10.5218,10.5218,9.47817,9.47817,0.289906,0.259231,41.9056,0.0266198,0.0687428,0.0714719,0,0,0,2.38,2.1,-0.28,-0.009028,0.075762,-0.941718,-0.16198,-0.23282,0.35294
-0.525876,0,0,10.5259,10.5259,9.47412,9.47412,0.292153,0.269197,42.2246,0.00457844,-0.00278423,0.069012,0,0,0,2.38,2.1,-0.14,-0.030988,0.00427,-0.944158,-0.16198,-0.23282,0.35294
-0.534715,0,0,10.5347,10.5347,9.46529,9.46529,0.297064,0.27652,42.5395,0.00445063,-0.00269853,0.0690109,0,0,0,3.92,0.7,-0.63,-0.030988,0.00427,-0.944158,-0.16198,-0.23282,0.35294
-0.536132,0,0,10.5361,10.5361,9.46387,9.46387,0.297851,0.275962,42.5395,0.0582785,0.0178325,-0.164468,1,0,0,4.9,0.84,-0.84,0.023058,0.024766,-1.17584,-0.16198,-0.23282,0.35294
-0.540242,0,0,10.5402,10.5402,9.45976,9.45976,0.300134,0.275406,42.539,0.0582882,0.0178723,-0.164468,1,0,0,5.74,0.84,-1.19,0.023058,0.024766,-1.17584,-0.16198,-0.23282,0.35294
-0.54592,0,0,10.5459,10.5459,9.45408,9.45408,0.303289,0.274854,42.538,0.0126193,-0.118732,-0.142953,1,0,0,6.23,0.84,-1.47,-0.022814,-0.111752,-1.15449,-0.16198,-0.23282,0.35294
-0.55024,0,0,10.5502,10.5502,9.44976,9.44976,0.305689,0.273948,42.5359,0.0126351,-0.118691,-0.142953,1,0,0,5.81,0.63,-2.1,-0.022814,-0.111752,-1.15449,-0.16156,-0.23184,0.35112
-0.770094,0,0,10.7701,10.7701,9.22991,9.22991,0.42783,0.248834,42.832,-0.0493703,-0.0790659,0.0489581,0,0,0,5.11,1.4,-2.1,-0.085522,-0.074298,-0.964044,-0.16156,-0.23184,0.35112
-0.984467,0,0,10.9845,10.9845,9.01553,9.01553,0.546926,0.223112,43.1246,-0.0489213,-0.0769874,0.0489423,0,0,0,5.11,1.4,-2.1,-0.085522,-0.074298,-0.964044,-0.16156,-0.23184,0.35112
-0.932817,0,0,10.9328,10.9328,9.06718,9.06718,0.518231,-0.0664095,43.5648,-0.225732,-0.00689884,0.0520275,0,0,0,2.87,2.1,-2.45,-0.268156,-0.003782,-0.960994,-0.16156,-0.23184,0.35112
-0.883621,0,0,10.8836,10.8836,9.11638,9.11638,0.490901,-0.349218,43.9995,-0.220796,-0.00737599,0.0520138,0,0,0,2.87,2.1,-2.45,-0.268156,-0.003782,-0.960994,-0.16156,-0.23184,0.35112
-0.840629,0,0,10.8406,10.8406,9.15937,9.15937,0.467016,-0.422553,44.3416,-0.0545389,0.00857208,0.00897672,0,0,0,3.64,1.47,-2.38,-0.10248,0.012566,-1.00369,-0.16156,-0.23184,0.35112
-0.799032,0,0,10.799,10.799,9.20097,9.20097,0.443907,-0.494025,44.6799,-0.0532916,0.0081687,0.00896995,0,0,0,3.64,1.47,-2.38,-0.10248,0.012566,-1.00369,-0.16156,-0.23184,0.35112
-1.04639,0,0,11.0464,11.0464,8.95361,8.95361,0.581327,-0.320955,44.8605,0.10004,-0.0675939,0.0998289,0,0,0,4.83,0.42,-1.47,0.054534,-0.065514,-0.913536,-0.16156,-0.23184,0.35112
-1.31684,0,0,11.3168,11.3168,8.68316,8.68316,0.731576,-0.147015,45.0317,0.113283,-0.0871987,-0.042686,0,0,0,5.81,0.21,-1.33,0.070882,-0.087718,-1.05493,-0.1652,-0.23324,0.34888
-1.5795,0,0,11.5795,11.5795,8.4205,8.4205,0.877501,0.0235013,45.2026,0.110307,-0.0846521,-0.0427186,0,0,0,5.81,1.19,-0.7,0.070882,-0.087718,-1.05493,-0.1652,-0.23324,0.34888
-1.67415,0,0,11.6741,11.6741,8.32585,8.32585,0.930082,0.0895975,45.4425,0.0427009,-0.0290217,-0.0294558,0,0,0,5.46,1.54,-0.35,0.004148,-0.033062,-1.04176,-0.1652,-0.23324,0.34888
-1.76606,0,0,11.7661,11.7661,8.23394,8.23394,0.981145,0.153771,45.6799,0.0415809,-0.0281307,-0.029473,0,0,0,5.46,1.54,-0.35,0.004148,-0.033062,-1.04176,-0.1652,-0.23324,0.34888
-1.78599,0,0,11.786,11.786,8.21401,8.21401,0.992216,0.0682374,45.9897,-0.0729451,-0.0157247,0.0115913,0,0,0,3.78,1.54,0.07,-0.112362,-0.020862,-1.00101,-0.1652,-0.23324,0.34888
-1.8058,0,0,11.8058,11.8058,8.1942,8.1942,1.00322,-0.0154851,46.2958,-0.0714839,-0.0155327,0.0115887,0,0,0,3.78,1.54,0.07,-0.112362,-0.020862,-1.00101,-0.1652,-0.23324,0.34888
-1.80384,0,0,11.8038,11.8038,8.19616,8.19616,1.00213,-0.0158324,46.2974,-0.0777951,-0.00565938,-0.164596,1,0,0,3.85,0.98,0.07,-0.118706,-0.01098,-1.17584,-0.1652,-0.23324,0.34888
-1.80144,0,0,11.8014,11.8014,8.19856,8.19856,1.0008,-0.0173849,46.2996,0.0642488,-0.0312072,-0.220783,1,0,0,3.71,0.28,0.42,0.023912,-0.036478,-1.23159,-0.1652,-0.23324,0.34888
-1.79993,0,0,11.7999,11.7999,8.20007,8.20007,0.999962,-0.0191804,46.302,0.0642801,-0.0312218,-0.220783,1,0,0,3.99,0.14,0.56,0.023912,-0.036478,-1.23159,-0.17178,-0.23352,0.3451
-1.6871,0,0,11.6871,11.6871,8.3129,8.3129,0.937278,0.0105232,46.5698,0.0409224,0.0446242,-0.00437512,0,0,0,4.48,0.07,0.35,0.000976,0.040382,-1.01687,-0.17178,-0.23352,0.3451
-1.57815,0,0,11.5782,11.5782,8.42185,8.42185,0.876752,0.0410617,46.8343,0.0403894,0.0435679,-0.00435864,0,0,0,4.83,0.63,0,0.000976,0.040382,-1.01687,-0.17178,-0.23352,0.3451
-1.24493,0,0,11.2449,11.2449,8.75507,8.75507,0.691629,-0.0107194,47.1647,0.000838398,0.118865,-0.0114452,0,0,0,4.48,0.98,-0.14,-0.03965,0.118828,-1.02395,-0.17178,-0.23352,0.3451
-0.921241,0,0,10.9212,10.9212,9.07876,9.07876,0.511801,-0.0591532,47.4917,0.00168373,0.115726,-0.0114127,0,0,0,4.76,1.33,-0.42,-0.03965,0.118828,-1.02395,-0.17178,-0.23352,0.3451
-0.913454,0,0,10.9135,10.9135,9.08655,9.08655,0.507475,-0.218668,47.8138,-0.140708,-0.0127045,-0.0637949,0,0,0,5.46,1.61,-0.49,-0.18544,-0.009394,-1.07592,-0.17178,-0.23352,0.3451
-0.907542,0,0,10.9075,10.9075,9.09246,9.09246,0.50419,-0.374942,48.1319,-0.13798,-0.0127619,-0.0638085,0,0,0,5.74,1.4,-0.49,-0.18544,-0.009394,-1.07592,-0.17178,-0.23352,0.3451
-0.908508,0,0,10.9085,10.9085,9.09149,9.09149,0.504727,-0.374305,48.132,-0.0134684,0.0111843,-0.198191,1,0,0,4.76,1.54,-0.84,-0.06039,0.014518,-1.20926,-0.17178,-0.23352,0.3451
-0.907687,0,0,10.9077,10.9077,9.09231,9.09231,0.504271,-0.374498,48.1312,-0.0134651,0.0111763,-0.198191,1,0,0,4.2,1.05,-1.33,-0.06039,0.014518,-1.20926,-0.16688,-0.23114,0.34062
-0.904397,0,0,10.9044,10.9044,9.0956,9.0956,0.502443,-0.374808,48.1302,-0.147094,0.0128542,-0.103644,1,0,0,3.43,0.98,-1.47,-0.19459,0.016226,-1.11545,-0.16688,-0.23114,0.34062
-0.901556,0,0,10.9016,10.9016,9.09844,9.09844,0.500864,-0.376313,48.1292,-0.147068,0.0128267,-0.103643,1,0,0,3.57,0.28,-1.47,-0.19459,0.016226,-1.11545,-0.16688,-0.23114,0.34062
-0.899618,0,0,10.8996,10.8996,9.10038,9.10038,0.499788,-0.377337,48.1278,0.0575321,-0.0122281,0.152089,1,0,0,3.85,0.56,-1.68,0.010858,-0.008784,-0.861686,-0.16688,-0.23114,0.34062
-0.898137,0,0,10.8981,10.8981,9.10186,9.10186,0.498965,-0.377161,48.1258,0.057529,-0.0122425,0.15209,1,0,0,3.99,1.26,-2.03,0.010858,-0.008784,-0.861686,-0.16688,-0.23114,0.34062
-0.8998,0,0,10.8998,10.8998,9.1002,9.1002,0.499889,-0.375911,48.1241,-0.0541381,0.0120769,0.197212,1,0,0,4.97,1.89,-1.89,-0.10126,0.015494,-0.816912,-0.16688,-0.23114,0.34062
-0.903934,0,0,10.9039,10.9039,9.09607,9.09607,0.502186,-0.374543,48.1223,-0.054162,0.012117,0.197212,1,0,0,5.74,1.96,-1.89,-0.10126,0.015494,-0.816912,-0.16688,-0.23114,0.34062
-1.01211,0,0,11.0121,11.0121,8.98789,8.98789,0.562286,-0.375462,48.3593,-0.0161209,-0.0398372,-0.0414414,0,0,0,5.88,1.96,-1.89,-0.063074,-0.037454,-1.05371,-0.16688,-0.23114,0.34062
-1.11428,0,0,11.1143,11.1143,8.88572,8.88572,0.619046,-0.377589,48.5939,-0.0160838,-0.0388466,-0.0414518,0,0,0,4.9,1.54,-1.61,-0.063074,-0.037454,-1.05371,-0.16688,-0.23114,0.34062
-1.11482,0,0,11.1148,11.1148,8.88518,8.88518,0.619342,-0.377538,48.5928,-0.00551546,0.0210007,-0.138581,1,0,0,4.62,1.19,-1.54,-0.05246,0.022326,-1.15009,-0.1624,-0.22946,0.34622
-1.29093,0,0,11.2909,11.2909,8.70907,8.70907,0.717182,-0.299543,48.78,0.0439043,-0.0570405,-0.00949715,0,0,0,4.9,0.84,-1.33,-0.001464,-0.05734,-1.02199,-0.1624,-0.22946,0.34622
-1.45953,0,0,11.4595,11.4595,8.54047,8.54047,0.810851,-0.225358,48.9661,0.0426096,-0.0554058,-0.00951301,0,0,0,4.13,0.07,-0.84,-0.001464,-0.05734,-1.02199,-0.1624,-0.22946,0.34622
-1.4547,0,0,11.4547,11.4547,8.5453,8.5453,0.808165,-0.24343,49.2166,-0.0117436,0.000847781,0.0888452,0,0,0,3.92,0.21,-0.56,-0.056364,-0.001098,-0.924394,-0.1624,-0.22946,0.34622
-1.45076,0,0,11.4508,11.4508,8.54924,8.54924,0.805976,-0.258826,49.4652,-0.0114749,0.000809554,0.0888445,0,0,0,4.13,1.54,-0.14,-0.056364,-0.001098,-0.924394,-0.1624,-0.22946,0.34622
-1.45104,0,0,11.451,11.451,8.54896,8.54896,0.806134,-0.257606,49.4662,0.084356,0.114757,0.138762,1,0,0,4.55,1.89,-0.28,0.039894,0.112728,-0.874862,-0.1624,-0.22946,0.34622
-1.45088,0,0,11.4509,11.4509,8.54912,8.54912,0.806043,-0.257222,49.4672,0.0843493,0.114755,0.138762,1,0,0,4.41,1.4,-0.28,0.039894,0.112728,-0.874862,-0.1624,-0.22946,0.34622
-1.5695,0,0,11.5695,11.5695,8.4305,8.4305,0.871946,-0.278219,49.6937,-0.0293593,-0.0399287,0.0789902,0,0,0,4.9,1.26,-0.21,-0.074664,-0.042944,-0.934154,-0.1624,-0.22946,0.34622
-1.68777,0,0,11.6878,11.6878,8.31223,8.31223,0.937651,-0.298265,49.9222,-0.0290094,-0.0387821,0.0789703,0,0,0,5.6,1.75,0.07,-0.074664,-0.042944,-0.934154,-0.16366,-0.2338,0.33964
-1.6921,0,0,11.6921,11.6921,8.3079,8.3079,0.940055,-0.298126,49.9234,0.0190965,0.132237,-0.127215,1,0,0,5.81,1.26,-0.14,-0.026352,0.127856,-1.13875,-0.16366,-0.2338,0.33964
-1.69216,0,0,11.6922,11.6922,8.30784,8.30784,0.940086,-0.299185,49.9248,0.019115,0.132238,-0.127215,1,0,0,4.48,0.56,-0.07,-0.026352,0.127856,-1.13875,-0.16366,-0.2338,0.33964
-1.69087,0,0,11.6909,11.6909,8.30913,8.30913,0.93937,-0.300954,49.9258,-0.0706321,-0.0469346,0.109707,1,0,0,4.06,0.14,-0.28,-0.11651,-0.051118,-0.903654,-0.16366,-0.2338,0.33964
-1.68868,0,0,11.6887,11.6887,8.31132,8.31132,0.938153,-0.301533,49.927,-0.070622,-0.0469558,0.109707,1,0,0,3.78,0.84,-0.14,-0.11651,-0.051118,-0.903654,-0.16366,-0.2338,0.33964
-1.68716,0,0,11.6872,11.6872,8.31284,8.31284,0.93731,-0.301396,49.9284,0.0851203,-0.00434831,0.134174,1,0,0,3.99,1.26,-0.07,0.039894,-0.00854,-0.879376,-0.16366,-0.2338,0.33964
-1.68654,0,0,11.6865,11.6865,8.31346,8.31346,0.936967,-0.301855,49.9296,0.0851283,-0.0043543,0.134174,1,0,0,4.27,0.91,-0.14,0.039894,-0.00854,-0.879376,-0.16366,-0.2338,0.33964
-1.68368,0,0,11.6837,11.6837,8.31632,8.31632,0.935377,-0.302191,49.9307,0.0043462,0.0488652,0.105773,1,0,0,3.57,0.98,-0.28,-0.041236,0.044652,-0.907558,-0.16366,-0.2338,0.33964
-1.68285,0,0,11.6828,11.6828,8.31715,8.31715,0.934914,-0.299885,49.9309,0.00430595,0.0488571,0.105774,1,0,0,4.2,2.52,-0.77,-0.041236,0.044652,-0.907558,-0.16394,-0.23884,0.3444
-1.55242,0,0,11.5524,11.5524,8.44758,8.44758,0.862454,-0.276444,50.1818,0.0339038,0.0489361,0.0258791,0,0,0,4.9,2.17,-0.98,-0.011102,0.045994,-0.986858,-0.16394,-0.23884,0.3444
-1.42774,0,0,11.4277,11.4277,8.57226,8.57226,0.793191,-0.254598,50.43,0.0335225,0.0477274,0.0258983,0,0,0,5.67,1.19,-1.05,-0.011102,0.045994,-0.986858,-0.16394,-0.23884,0.3444
-1.43378,0,0,11.4338,11.4338,8.56622,8.56622,0.796542,-0.098081,50.5984,0.13624,0.0142011,-0.0276996,0,0,0,5.53,1.19,-1.33,0.094794,0.012444,-1.04005,-0.16394,-0.23884,0.3444
-1.43487,0,0,11.4349,11.4349,8.56513,8.56513,0.79715,0.0554585,50.7643,0.133561,0.0142117,-0.0276988,0,0,0,4.27,1.4,-1.82,0.094794,0.012444,-1.04005,-0.16394,-0.23884,0.3444
-1.5662,0,0,11.5662,11.5662,8.4338,8.4338,0.870113,0.113096,50.9429,0.0319645,-0.0424031,0.00609206,0,0,0,3.85,1.33,-1.96,-0.006222,-0.045384,-1.0065,-0.16394,-0.23884,0.3444
-1.69307,0,0,11.6931,11.6931,8.30693,8.30693,0.940595,0.168086,51.1198,0.0310047,-0.0411731,0.00607027,0,0,0,3.64,0.84,-1.82,-0.006222,-0.045384,-1.0065,-0.16394,-0.23884,0.3444
-1.45335,0,0,11.4533,11.4533,8.54665,8.54665,0.807415,0.136883,51.3908,0.00227128,0.0785074,0.0605734,0,0,0,3.5,0.84,-1.61,-0.035624,0.076494,-0.952454,-0.16394,-0.23884,0.3444
-1.21944,0,0,11.2194,11.2194,8.78056,8.78056,0.677466,0.107959,51.6578,0.0027761,0.0762396,0.0606038,0,0,0,3.43,1.26,-1.68,-0.035624,0.076494,-0.952454,-0.16674,-0.24136,0.343
-1.21636,0,0,11.2164,11.2164,8.78364,8.78364,0.675754,0.108009,51.6569,0.0375201,-0.108446,0.114333,1,0,0,3.5,1.19,-1.4,-0.000732,-0.10797,-0.89914,-0.16674,-0.24136,0.343
-1.21328,0,0,11.2133,11.2133,8.78672,8.78672,0.674043,0.108059,51.656,0.0375193,-0.108476,0.114333,1,0,0,3.5,1.19,-1.4,-0.000732,-0.10797,-0.89914,-0.16674,-0.24136,0.343
-1.27205,0,0,11.2721,11.2721,8.72795,8.72795,0.706695,0.0908425,51.8681,-0.0214653,-0.0208296,0.063426,0,0,0,4.41,1.96,-1.19,-0.060268,-0.020984,-0.949648,-0.16674,-0.24136,0.343
-1.32935,0,0,11.3293,11.3293,8.67065,8.67065,0.738525,0.0737388,52.0777,-0.0211668,-0.0202741,0.0634194,0,0,0,4.41,1.96,-1.19,-0.060268,-0.020984,-0.949648,-0.16674,-0.24136,0.343
-1.28473,0,0,11.2847,11.2847,8.71527,8.71527,0.713736,0.0686271,52.2996,0.0015188,0.0169083,0.037237,0,0,0,5.74,1.05,-0.56,-0.037576,0.016592,-0.975634,-0.16674,-0.24136,0.343
-1.24131,0,0,11.2413,11.2413,8.75869,8.75869,0.689617,0.0638203,52.5192,0.00160269,0.0164874,0.0372422,0,0,0,5.74,1.05,-0.56,-0.037576,0.016592,-0.975634,-0.16674,-0.24136,0.343
-0.986654,0,0,10.9867,10.9867,9.01335,9.01335,0.548141,0.0719106,52.7686,0.0387576,0.0966981,-0.0452297,0,0,0,4.69,1.12,-0.49,-0.000122,0.099186,-1.0575,-0.16674,-0.24136,0.343
-0.73958,0,0,10.7396,10.7396,9.26042,9.26042,0.410878,0.0813059,53.01,0.0385936,0.0943025,-0.0452099,0,0,0,4.69,1.12,-0.49,-0.000122,0.099186,-1.0575,-0.16898,-0.23884,0.34804
-0.798949,0,0,10.7989,10.7989,9.20105,9.20105,0.44386,0.0793961,53.1975,-0.0085095,-0.023829,-0.0399273,0,0,0,3.5,0.77,-0.49,-0.047458,-0.019398,-1.05225,-0.16898,-0.23884,0.34804
-0.856742,0,0,10.8567,10.8567,9.14326,9.14326,0.475968,0.0772778,53.3828,-0.00847253,-0.0232687,-0.0399318,0,0,0,3.5,0.77,-0.49,-0.047458,-0.019398,-1.05225,-0.16898,-0.23884,0.34804
-1.02267,0,0,11.0227,11.0227,8.97733,8.97733,0.568149,0.0814813,53.5441,-0.0164425,-0.0633051,-0.0462169,0,0,0,3.85,1.26,0.07,-0.055388,-0.061,-1.05847,-0.16898,-0.23884,0.34804
-1.1841,0,0,11.1841,11.1841,8.8159,8.8159,0.657833,0.0849106,53.7035,-0.0165023,-0.0617399,-0.0462338,0,0,0,3.85,1.26,0.07,-0.055388,-0.061,-1.05847,-0.16898,-0.23884,0.34804
-1.28523,0,0,11.2852,11.2852,8.71477,8.71477,0.714019,0.0957538,53.8695,-0.00174882,-0.0367004,-0.0516555,0,0,0,5.25,1.05,0,-0.040382,-0.036966,-1.06384,-0.16898,-0.23884,0.34804
-1.12023,0,0,11.1202,11.1202,8.87977,8.87977,0.622352,0.125738,54.0758,0.0423131,0.0605004,0.0674992,0,0,0,5.74,0.63,-0.21,0.004392,0.061732,-0.945622,-0.16898,-0.23884,0.34804
-0.959202,0,0,10.9592,10.9592,9.0408,9.0408,0.53289,0.156098,54.2801,0.0417832,0.058939,0.0675137,0,0,0,5.67,0.84,-0.14,0.004392,0.061732,-0.945622,-0.16898,-0.23884,0.34804
-0.804834,0,0,10.8048,10.8048,9.19517,9.19517,0.44713,0.178385,54.4909,0.0383571,0.0604954,-0.0362432,0,0,0,5.39,1.12,-0.14,0.001342,0.064782,-1.04859,-0.16604,-0.24192,0.34636
-0.651737,0,0,10.6517,10.6517,9.34826,9.34826,0.362076,0.199869,54.699,0.0379821,0.059011,-0.036234,0,0,0,4.55,0.56,-0.49,0.001342,0.064782,-1.04859,-0.16604,-0.24192,0.34636
-0.858968,0,0,10.859,10.859,9.14103,9.14103,0.477205,0.24034,54.8294,0.0122497,-0.0720979,-0.0246942,0,0,0,4.48,1.05,-0.84,-0.02379,-0.068198,-1.03712,-0.16604,-0.24192,0.34636
-1.06036,0,0,11.0604,11.0604,8.93964,8.93964,0.589091,0.279155,54.9583,0.0115723,-0.0701452,-0.0247155,0,0,0,4.48,1.05,-0.84,-0.02379,-0.068198,-1.03712,-0.16604,-0.24192,0.34636
-1.16522,0,0,11.1652,11.1652,8.83478,8.83478,0.647342,0.365514,55.0866,0.06607,-0.0313915,-0.0618654,0,0,0,4.48,1.75,-0.91,0.032452,-0.0305,-1.07397,-0.16604,-0.24192,0.34636
-1.11238,0,0,11.1124,11.1124,8.88762,8.88762,0.617988,0.39697,55.2617,0.0324769,0.0228089,-0.0226428,0,0,0,4.97,2.1,-1.26,-0.000732,0.024156,-1.03505,-0.16604,-0.24192,0.34636
-1.05989,0,0,11.0599,11.0599,8.94011,8.94011,0.588827,0.427847,55.4349,0.031938,0.0223,-0.0226413,0,0,0,4.69,2.03,-1.26,-0.000732,0.024156,-1.03505,-0.16604,-0.24192,0.34636
-0.906943,0,0,10.9069,10.9069,9.09306,9.09306,0.503857,0.557049,55.59,0.13003,0.0701561,-0.00580261,0,0,0,5.53,1.4,-1.54,0.10004,0.073444,-1.01833,-0.16604,-0.24192,0.34636
-0.756772,0,0,10.7568,10.7568,9.24323,9.24323,0.420429,0.684313,55.7402,0.127809,0.0687,-0.00581493,0,0,0,5.18,1.4,-1.75,0.10004,0.073444,-1.01833,-0.16618,-0.23898,0.3486
-1.25038,0,0,11.2504,11.2504,8.74962,8.74962,0.694655,0.858944,55.7445,0.099857,-0.161853,0.00294975,0,0,0,4.76,0.7,-1.89,0.07503,-0.16165,-1.00955,-0.16618,-0.23898,0.3486
-1.72882,0,0,11.7288,11.7288,8.27118,8.27118,0.960458,1.02897,55.7497,0.0968899,-0.157216,0.00283387,0,0,0,4.48,1.05,-1.75,0.07503,-0.16165,-1.00955,-0.16618,-0.23898,0.3486
-1.88506,0,0,11.8851,11.8851,8.11494,8.11494,1.04725,1.03122,55.8726,-0.0138229,-0.0621524,-0.0809213,0,0,0,4.41,0.77,-1.61,-0.036112,-0.068198,-1.09263,-0.16618,-0.23898,0.3486
-2.03839,0,0,12.0384,12.0384,7.96161,7.96161,1.13244,1.03249,55.9941,-0.013845,-0.0606662,-0.08095,0,0,0,4.83,0.56,-1.61,-0.036112,-0.068198,-1.09263,-0.16618,-0.23898,0.3486
-2.06404,0,0,12.064,12.064,7.93596,7.93596,1.14669,0.962426,56.162,-0.066076,-0.0191383,-0.0765075,0,0,0,4.76,0.91,-1.61,-0.089792,-0.026962,-1.08824,-0.16618,-0.23898,0.3486
-2.08986,0,0,12.0899,12.0899,7.91014,7.91014,1.16103,0.894694,56.3282,-0.064894,-0.0188877,-0.0764934,0,0,0,4.9,1.47,-1.4,-0.089792,-0.026962,-1.08824,-0.16618,-0.23898,0.3486
-1.9907,0,0,11.9907,11.9907,8.0093,8.0093,1.10594,0.711526,56.5544,-0.158157,0.0159352,-0.0641347,0,0,0,4.62,1.61,-1.26,-0.18666,0.008784,-1.07604,-0.16618,-0.23898,0.3486
-1.89337,0,0,11.8934,11.8934,8.10663,8.10663,1.05187,0.532154,56.7729,-0.155027,0.0149923,-0.064083,0,0,0,4.41,1.61,-0.77,-0.18666,0.008784,-1.07604,-0.168,-0.23352,0.34216
-2.25187,0,0,12.2519,12.2519,7.74813,7.74813,1.25104,0.526931,56.8427,-0.0436546,-0.132115,-0.00587439,0,0,0,4.06,1.82,-0.7,-0.074908,-0.141642,-1.01821,-0.168,-0.23352,0.34216
-2.6001,0,0,12.6001,12.6001,7.3999,7.3999,1.4445,0.520171,56.9118,-0.0435366,-0.128739,-0.00595272,0,0,0,3.92,1.61,-0.7,-0.074908,-0.141642,-1.01821,-0.168,-0.23352,0.34216
-2.59795,0,0,12.5979,12.5979,7.40205,7.40205,1.4433,0.417595,57.0795,-0.0925274,-0.0134721,-0.0490925,0,0,0,3.71,1.12,-0.56,-0.125904,-0.026474,-1.06103,-0.168,-0.23352,0.34216
-2.60008,0,0,12.6001,12.6001,7.39992,7.39992,1.44449,0.317187,57.2454,-0.090775,-0.0134511,-0.0490818,0,0,0,4.83,1.12,-0.35,-0.125904,-0.026474,-1.06103,-0.168,-0.23352,0.34216
-2.69281,0,0,12.6928,12.6928,7.30719,7.30719,1.49601,0.282029,57.3714,-0.0416886,-0.0414962,-0.076765,0,0,0,4.83,0.7,-0.14,-0.077226,-0.055388,-1.08848,-0.168,-0.23352,0.34216
-2.78164,0,0,12.7816,12.7816,7.21836,7.21836,1.54536,0.246669,57.4962,-0.0410715,-0.0406351,-0.076785,0,0,0,4.34,0.35,0.07,-0.077226,-0.055388,-1.08848,-0.168,-0.23352,0.34216
-3.04112,0,0,13.0411,13.0411,6.95888,6.95888,1.68951,0.336305,57.5452,0.0495718,-0.0786664,0.0394453,0,0,0,4.55,0.7,0,0.015372,-0.095892,-0.973072,-0.168,-0.23352,0.34216
-3.29168,0,0,13.2917,13.2917,6.70832,6.70832,1.82871,0.42437,57.5996,0.0480348,-0.0762385,0.0393605,0,0,0,4.48,1.61,0.14,0.015372,-0.095892,-0.973072,-0.1624,-0.23282,0.34608
-3.00443,0,0,13.0044,13.0044,6.99557,6.99557,1.66913,0.331443,57.8182,-0.0487468,0.0864596,0.0877749,0,0,0,3.92,2.03,-0.14,-0.083448,0.069418,-0.925126,-0.1624,-0.23282,0.34608
-2.72514,0,0,12.7251,12.7251,7.27486,7.27486,1.51396,0.241186,58.0346,-0.0471715,0.0837528,0.087858,0,0,0,3.85,1.82,-0.14,-0.083448,0.069418,-0.925126,-0.1624,-0.23282,0.34608
-2.59162,0,0,12.5916,12.5916,7.40838,7.40838,1.43979,0.130724,58.2264,-0.0808389,0.0339745,0.0355216,0,0,0,3.43,1.68,-0.35,-0.119194,0.020984,-0.977098,-0.1624,-0.23282,0.34608
-2.46439,0,0,12.4644,12.4644,7.53561,7.53561,1.3691,0.0220117,58.4154,-0.0789415,0.0327413,0.0355543,0,0,0,4.06,1.05,-0.63,-0.119194,0.020984,-0.977098,-0.1624,-0.23282,0.34608
-2.64043,0,0,12.6404,12.6404,7.35957,7.35957,1.4669,0.132343,58.4734,0.0728122,-0.0456675,0.067722,0,0,0,4.62,1.47,-0.63,0.035136,-0.059048,-0.945134,-0.1624,-0.23282,0.34608
-2.81059,0,0,12.8106,12.8106,7.18941,7.18941,1.56144,0.239255,58.5304,0.0709463,-0.0440183,0.0676724,0,0,0,4.48,1.12,-0.91,0.035136,-0.059048,-0.945134,-0.1624,-0.23282,0.34608
-2.81155,0,0,12.8115,12.8115,7.18845,7.18845,1.56197,0.238718,58.5296,0.159033,-0.20485,0.159761,1,0,0,4.76,0.84,-1.33,0.123586,-0.219722,-0.853756,-0.1624,-0.23282,0.34608
-2.81161,0,0,12.8116,12.8116,7.18839,7.18839,1.562,0.238198,58.5282,0.159042,-0.204849,0.159761,1,0,0,4.48,0.84,-1.68,0.123586,-0.219722,-0.853756,-0.1624,-0.23282,0.34608
-2.61681,0,0,12.6168,12.6168,7.38319,7.38319,1.45378,0.326556,58.6654,0.0878884,0.0747644,0.0871402,0,0,0,4.27,1.19,-1.68,0.05368,0.061488,-0.925858,-0.16464,-0.23912,0.34552
-2.64868,0,0,12.6487,12.6487,7.35132,7.35132,1.47149,0.203877,58.8176,-0.117225,-0.0284899,-0.0568305,0,0,0,4.13,1.33,-1.75,-0.154452,-0.041968,-1.06872,-0.16464,-0.23912,0.34552
-2.67775,0,0,12.6778,12.6778,7.32225,7.32225,1.48764,0.0844829,58.9676,-0.115141,-0.028208,-0.0568326,0,0,0,3.29,1.82,-1.89,-0.154452,-0.041968,-1.06872,-0.16464,-0.23912,0.34552
-2.65548,0,0,12.6555,12.6555,7.34452,7.34452,1.47527,0.0338045,59.1071,-0.0454958,-0.000823154,-0.0548589,0,0,0,3.08,1.61,-1.96,-0.0854,-0.014396,-1.06677,-0.16464,-0.23912,0.34552
-2.63908,0,0,12.6391,12.6391,7.36092,7.36092,1.46616,-0.0156309,59.2452,-0.044633,-0.000982129,-0.0548547,0,0,0,4.62,1.68,-1.82,-0.0854,-0.014396,-1.06677,-0.16464,-0.23912,0.34552
-2.90749,0,0,12.9075,12.9075,7.09251,7.09251,1.61527,0.0578177,59.2852,0.0370598,-0.086556,0.00814747,0,0,0,4.69,1.47,-1.68,-0.002074,-0.10248,-1.00418,-0.16464,-0.23912,0.34552
-3.16693,0,0,13.1669,13.1669,6.83307,6.83307,1.7594,0.128291,59.3257,0.0358298,-0.0840416,0.0080714,0,0,0,4.34,1.12,-1.26,-0.002074,-0.10248,-1.00418,-0.16464,-0.23912,0.34552
-3.41258,0,0,13.4126,13.4126,6.58742,6.58742,1.89588,0.317297,59.3317,0.151951,-0.0731124,-0.0616062,0,0,0,4.55,1.19,-1.19,0.117852,-0.09394,-1.07323,-0.16464,-0.23912,0.34552
-3.6532,0,0,13.6532,13.6532,6.3468,6.3468,2.02956,0.502151,59.3368,0.148725,-0.0707816,-0.0617092,0,0,0,5.25,1.33,-1.12,0.117852,-0.09394,-1.07323,-0.1659,-0.2394,0.34482
-3.6365,0,0,13.6365,13.6365,6.3635,6.3635,2.02028,0.492385,59.4509,-0.00599855,0.00318756,-0.0803902,0,0,0,5.04,0.84,-0.7,-0.037698,-0.019886,-1.09178,-0.1659,-0.2394,0.34482
-3.62008,0,0,13.6201,13.6201,6.37992,6.37992,2.01116,0.483113,59.5637,-0.00583673,0.00302859,-0.0803832,0,0,0,4.97,0.98,-0.63,-0.037698,-0.019886,-1.09178,-0.1659,-0.2394,0.34482
-3.8387,0,0,13.8387,13.8387,6.1613,6.1613,2.13261,0.61748,59.5843,0.100548,-0.0667866,-0.0394175,0,0,0,4.69,1.61,-0.63,0.071492,-0.091744,-1.05103,-0.1659,-0.2394,0.34482
-4.05058,0,0,14.0506,14.0506,5.94942,5.94942,2.25032,0.748468,59.6048,0.0982619,-0.0647349,-0.0395233,0,0,0,4.69,1.61,-0.63,0.071492,-0.091744,-1.05103,-0.1659,-0.2394,0.34482
-3.88491,0,0,13.8849,13.8849,6.11509,6.11509,2.15828,0.640939,59.7708,-0.0816041,0.0469945,-0.0492747,0,0,0,4.48,1.4,-0.14,-0.11102,0.021472,-1.06079,-0.1659,-0.2394,0.34482
-3.72441,0,0,13.7244,13.7244,6.27559,6.27559,2.06912,0.536221,59.935,-0.0797765,0.0454401,-0.0491985,0,0,0,4.48,1.4,-0.14,-0.11102,0.021472,-1.06079,-0.1659,-0.2394,0.34482
-3.67349,0,0,13.6735,13.6735,6.32651,6.32651,2.04083,0.300564,60.1106,-0.201523,-0.00903223,0.018102,0,0,0,4.41,1.12,0,-0.237412,-0.032452,-0.994056,-0.1659,-0.2394,0.34482
-3.62593,0,0,13.6259,13.6259,6.37407,6.37407,2.01441,0.0700853,60.2839,-0.1975,-0.00949259,0.0181313,0,0,0,4.41,1.12,0,-0.237412,-0.032452,-0.994056,-0.16324,-0.23422,0.34174
-3.79241,0,0,13.7924,13.7924,6.20759,6.20759,2.1069,0.0313833,60.3586,-0.0510419,-0.0671108,-0.0405725,0,0,0,5.25,0.7,-0.28,-0.091012,-0.091622,-1.05225,-0.16324,-0.23422,0.34174
-3.38568,0,0,13.3857,13.3857,6.61432,6.61432,1.88093,0.0507568,60.5404,0.0569852,0.149753,-0.00170679,0,0,0,5.6,0.84,0,0.017812,0.128954,-1.01382,-0.16324,-0.23422,0.34174
-2.98862,0,0,12.9886,12.9886,7.01138,7.01138,1.66034,0.0710738,60.72,0.0566306,0.145905,-0.00158821,0,0,0,5.32,0.84,-0.28,0.017812,0.128954,-1.01382,-0.16324,-0.23422,0.34174
-3.21934,0,0,13.2193,13.2193,6.78066,6.78066,1.78852,0.05584,60.7728,-0.0326385,-0.0751068,0.0722368,0,0,0,5.18,1.12,-0.49,-0.072102,-0.094062,-0.940498,-0.16324,-0.23422,0.34174
-3.44196,0,0,13.442,13.442,6.55804,6.55804,1.9122,0.0402312,60.8238,-0.0323661,-0.0729494,0.0721673,0,0,0,4.62,1.12,-1.19,-0.072102,-0.094062,-0.940498,-0.16324,-0.23422,0.34174
-3.2467,0,0,13.2467,13.2467,6.7533,6.7533,1.80372,0.0274806,60.9641,0.00588151,0.0649934,0.0820647,0,0,0,4.62,1.61,-1.33,-0.033916,0.045628,-0.930738,-0.16324,-0.23422,0.34174
-3.055,0,0,13.055,13.055,6.945,6.945,1.69722,0.0147799,61.103,0.00610318,0.0631356,0.0821216,0,0,0,4.06,1.12,-1.19,-0.033916,0.045628,-0.930738,-0.16324,-0.23422,0.34174
-2.52412,0,0,12.5241,12.5241,7.47588,7.47588,1.40229,-0.133917,61.3562,-0.0804721,0.169492,0.0286526,0,0,0,4.2,0.84,-1.47,-0.123464,0.157014,-0.98393,-0.16156,-0.23702,0.34972
-2.58058,0,0,12.5806,12.5806,7.41942,7.41942,1.43366,-0.0320368,61.4143,0.0838207,-0.007167,0.0200352,0,0,0,5.18,1.05,-1.47,0.04331,-0.020008,-0.99247,-0.16156,-0.23702,0.34972
-2.6414,0,0,12.6414,12.6414,7.3586,7.3586,1.46745,-0.190117,61.539,-0.152261,-0.0418722,-0.0390004,0,0,0,4.76,0.63,-1.33,-0.196542,-0.055266,-1.05103,-0.16156,-0.23702,0.34972
-2.70245,0,0,12.7024,12.7024,7.29755,7.29755,1.50136,-0.344816,61.6615,-0.149561,-0.0412809,-0.0390283,0,0,0,5.04,0.84,-1.54,-0.196542,-0.055266,-1.05103,-0.16156,-0.23702,0.34972
-2.48781,0,0,12.4878,12.4878,7.51219,7.51219,1.38212,-0.341818,61.8041,0.0233822,0.0807194,-0.0727864,0,0,0,4.97,1.4,-1.61,-0.022814,0.068686,-1.08458,-0.16156,-0.23702,0.34972
-2.27873,0,0,12.2787,12.2787,7.72127,7.72127,1.26596,-0.338801,61.945,0.0233295,0.0786927,-0.0727393,0,0,0,4.9,1.05,-1.68,-0.022814,0.068686,-1.08458,-0.16156,-0.23702,0.34972
-2.20127,0,0,12.2013,12.2013,7.79873,7.79873,1.22293,-0.323554,62.053,0.0199048,0.0286027,0.0411289,0,0,0,4.34,1.19,-1.54,-0.025986,0.019398,-0.971608,-0.16156,-0.23702,0.34972
-2.12543,0,0,12.1254,12.1254,7.87457,7.87457,1.1808,-0.306407,62.1585,0.0196055,0.0278676,0.0411459,0,0,0,4.27,2.38,-1.47,-0.025986,0.019398,-0.971608,-0.16394,-0.23842,0.33978
-2.18109,0,0,12.1811,12.1811,7.81891,7.81891,1.21171,-0.407824,62.2639,-0.101447,-0.0336336,-0.0383011,0,0,0,4.34,2.24,-1.4,-0.149328,-0.042578,-1.05042,-0.16394,-0.23842,0.33978
-2.23426,0,0,12.2343,12.2343,7.76574,7.76574,1.24125,-0.508428,62.3677,-0.0996907,-0.0331184,-0.0383262,0,0,0,3.85,1.61,-1.54,-0.149328,-0.042578,-1.05042,-0.16394,-0.23842,0.33978
-2.41024,0,0,12.4102,12.4102,7.58976,7.58976,1.33902,-0.367644,62.3816,0.104135,-0.0430142,0.0503001,0,0,0,4.27,1.4,-1.26,0.057828,-0.054168,-0.962458,-0.16394,-0.23842,0.33978
-2.58191,0,0,12.5819,12.5819,7.41809,7.41809,1.43439,-0.231353,62.3962,0.101756,-0.0413498,0.0502722,0,0,0,4.69,0.7,-0.91,0.057828,-0.054168,-0.962458,-0.16394,-0.23842,0.33978
-2.70671,0,0,12.7067,12.7067,7.29329,7.29329,1.50373,-0.0678145,62.412,0.136198,-0.0258511,-0.00397164,0,0,0,4.27,0.84,-0.77,0.095282,-0.039894,-1.01626,-0.16394,-0.23842,0.33978
-2.82852,0,0,12.8285,12.8285,7.17148,7.17148,1.5714,0.0920094,62.4283,0.133409,-0.0246704,-0.00400392,0,0,0,4.69,0.77,-0.49,0.095282,-0.039894,-1.01626,-0.16394,-0.23842,0.33978
-2.76332,0,0,12.7633,12.7633,7.23668,7.23668,1.53518,0.151139,62.511,0.0587563,0.0303873,0.00547806,0,0,0,4.76,0.84,-0.21,0.02135,0.015738,-1.00687,-0.16394,-0.23842,0.33978
-2.69933,0,0,12.6993,12.6993,7.30067,7.30067,1.49963,0.209206,62.5948,0.0577428,0.029767,0.0054913,0,0,0,4.76,0.84,-0.21,0.02135,0.015738,-1.00687,-0.1645,-0.24234,0.34132
-3.08132,0,0,13.0813,13.0813,6.91868,6.91868,1.71185,0.233268,62.5865,-0.0144752,-0.136409,-0.0108433,0,0,0,3.99,1.82,-0.07,-0.050752,-0.153964,-1.02297,-0.1645,-0.24234,0.34132
-3.45253,0,0,13.4525,13.4525,6.54747,6.54747,1.91807,0.255775,62.5786,-0.014868,-0.132811,-0.010959,0,0,0,3.99,1.82,-0.07,-0.050752,-0.153964,-1.02297,-0.1645,-0.24234,0.34132
-3.50226,0,0,13.5023,13.5023,6.49774,6.49774,1.9457,0.163516,62.668,-0.0942887,-0.0345059,-0.0875663,0,0,0,4.2,1.19,-0.21,-0.132126,-0.056242,-1.09898,-0.1645,-0.24234,0.34132
-3.55121,0,0,13.5512,13.5512,6.44879,6.44879,1.97289,0.0729666,62.7563,-0.0927084,-0.0340314,-0.0875792,0,0,0,4.2,1.19,-0.21,-0.132126,-0.056242,-1.09898,-0.1645,-0.24234,0.34132
-3.35283,0,0,13.3528,13.3528,6.64717,6.64717,1.86268,-0.105556,62.9201,-0.150457,0.0503897,-0.0599753,0,0,0,4.48,0.77,-0.28,-0.193248,0.030012,-1.07165,-0.1645,-0.24234,0.34132
-3.35132,0,0,13.3513,13.3513,6.64868,6.64868,1.86185,-0.106016,62.9207,0.0384614,-0.0749269,-0.137432,1,0,0,3.99,0.91,-0.49,-0.003538,-0.09516,-1.14851,-0.1645,-0.24234,0.34132
-3.34959,0,0,13.3496,13.3496,6.65041,6.65041,1.86088,-0.10718,62.921,0.0384817,-0.0749437,-0.137432,1,0,0,3.92,0.49,-0.7,-0.003538,-0.09516,-1.14851,-0.1645,-0.24234,0.34132
-3.60775,0,0,13.6078,13.6078,6.39225,6.39225,2.00431,-0.027328,62.9185,0.050087,-0.0857537,-0.0230496,0,0,0,3.78,0.63,-0.77,0.009516,-0.108458,-1.03493,-0.1645,-0.24234,0.34132
-3.86014,0,0,13.8601,13.8601,6.13986,6.13986,2.14452,0.0515111,62.9145,0.048711,-0.0833081,-0.0231385,0,0,0,4.41,1.4,-0.77,0.009516,-0.108458,-1.03493,-0.1645,-0.23996,0.33992
-3.70181,0,0,13.7018,13.7018,6.29819,6.29819,2.05656,-0.0333947,63.0395,-0.0644896,0.0458334,-0.0473028,0,0,0,4.06,1.05,-1.19,-0.105652,0.022082,-1.05896,-0.1645,-0.23996,0.33992
-3.54861,0,0,13.5486,13.5486,6.45139,6.45139,1.97145,-0.116328,63.1633,-0.0630421,0.0443488,-0.0472525,0,0,0,4.13,0.91,-1.12,-0.105652,0.022082,-1.05896,-0.1645,-0.23996,0.33992
-3.18489,0,0,13.1849,13.1849,6.81511,6.81511,1.76939,-0.136733,63.3194,0.0132425,0.121428,0.052696,0,0,0,4.34,1.19,-1.26,-0.029402,0.102602,-0.959896,-0.1645,-0.23996,0.33992
-2.83038,0,0,12.8304,12.8304,7.16962,7.16962,1.57243,-0.155619,63.474,0.0135722,0.117992,0.0527954,0,0,0,4.13,1.19,-1.33,-0.029402,0.102602,-0.959896,-0.1645,-0.23996,0.33992
-2.87773,0,0,12.8777,12.8777,7.12227,7.12227,1.59874,-0.167266,63.5369,-0.0140448,-0.0162553,0.0397496,0,0,0,4.48,1.26,-1.4,-0.05734,-0.031964,-0.972828,-0.1645,-0.23996,0.33992
-2.92362,0,0,12.9236,12.9236,7.07638,7.07638,1.62423,-0.179408,63.5989,-0.0138329,-0.0158106,0.0397364,0,0,0,4.41,0.91,-1.47,-0.05734,-0.031964,-0.972828,-0.1645,-0.23996,0.33992
-2.98444,0,0,12.9844,12.9844,7.01556,7.01556,1.65802,-0.0869878,63.6312,0.0787055,-0.0120457,-0.0149888,0,0,0,3.71,1.05,-1.4,0.03721,-0.028792,-1.02712,-0.1645,-0.23996,0.33992
-3.04427,0,0,13.0443,13.0443,6.95573,6.95573,1.69126,0.0046012,63.662,0.077107,-0.0114657,-0.0150046,0,0,0,3.99,1.68,-1.47,0.03721,-0.028792,-1.02712,-0.16786,-0.24486,0.343
-3.27033,0,0,13.2703,13.2703,6.72967,6.72967,1.81685,0.0845343,63.6564,0.0522652,-0.0731472,-0.0167941,0,0,0,3.92,1.47,-1.47,0.013664,-0.092598,-1.02883,-0.16786,-0.24486,0.343
-3.49074,0,0,13.4907,13.4907,6.50926,6.50926,1.9393,0.16181,63.6511,0.0509164,-0.0710113,-0.016867,0,0,0,4.27,1.19,-1.4,0.013664,-0.092598,-1.02883,-0.16786,-0.24486,0.343
-3.28776,0,0,13.2878,13.2878,6.71224,6.71224,1.82653,0.181705,63.7538,0.0336827,0.0733295,0.0339744,0,0,0,4.9,1.54,-1.33,-0.003294,0.053558,-0.97844,-0.16786,-0.24486,0.343
-3.08994,0,0,13.0899,13.0899,6.91006,6.91006,1.71663,0.20189,63.8556,0.0333304,0.0714122,0.0340325,0,0,0,4.83,1.61,-1.19,-0.003294,0.053558,-0.97844,-0.16786,-0.24486,0.343
-2.98707,0,0,12.9871,12.9871,7.01293,7.01293,1.65948,0.203332,63.941,0.00912959,0.0369525,0.0757413,0,0,0,5.39,1.33,-1.05,-0.027572,0.02013,-0.937082,-0.16786,-0.24486,0.343
-2.88476,0,0,12.8848,12.8848,7.11524,7.11524,1.60265,0.205853,64.0263,0.00908559,0.0359609,0.0757694,0,0,0,4.69,1.82,-0.63,-0.027572,0.02013,-0.937082,-0.16786,-0.24486,0.343
-2.77071,0,0,12.7707,12.7707,7.22929,7.22929,1.53929,0.0854836,64.1421,-0.0973003,0.0259404,0.018511,0,0,0,4.48,1.47,-0.56,-0.136518,0.011224,-0.993934,-0.16786,-0.24486,0.343
-2.66048,0,0,12.6605,12.6605,7.33952,7.33952,1.47804,-0.0318625,64.2553,-0.0952522,0.0248719,0.0185401,0,0,0,4.27,1.54,-0.28,-0.136518,0.011224,-0.993934,-0.16646,-0.23954,0.3465
-2.98327,0,0,12.9833,12.9833,7.01673,7.01673,1.65737,-0.0793627,64.2516,-0.0687897,-0.11501,0.0502974,0,0,0,3.78,1.89,-0.14,-0.110776,-0.131638,-0.962336,-0.16646,-0.23954,0.3465
-3.2987,0,0,13.2987,13.2987,6.7013,6.7013,1.83261,-0.12822,64.2478,-0.067937,-0.111953,0.0502027,0,0,0,4.2,1.05,-0.21,-0.110776,-0.131638,-0.962336,-0.16646,-0.23954,0.3465
-2.92311,0,0,12.9231,12.9231,7.07689,7.07689,1.62395,-0.26352,64.4226,-0.083191,0.110097,0.0769843,0,0,0,3.92,1.12,-0.07,-0.128466,0.093818,-0.935862,-0.16646,-0.23954,0.3465
-2.56078,0,0,12.5608,12.5608,7.43922,7.43922,1.42266,-0.394474,64.5958,-0.0809055,0.106585,0.0770646,0,0,0,4.62,1.4,0,-0.128466,0.093818,-0.935862,-0.16646,-0.23954,0.3465
-1.97163,0,0,11.9716,11.9716,8.02837,8.02837,1.09535,-0.524023,64.8226,-0.0690471,0.197231,-0.00397406,0,0,0,4.83,1.33,-0.28,-0.118828,0.190076,-1.01638,-0.16646,-0.23954,0.3465
-1.40039,0,0,11.4004,11.4004,8.59961,8.59961,0.777995,-0.649262,65.0475,-0.0668614,0.191693,-0.0039059,0,0,0,5.32,1.26,-0.42,-0.118828,0.190076,-1.01638,-0.16646,-0.23954,0.3465
-1.32446,0,0,11.3245,11.3245,8.67554,8.67554,0.735809,-0.610199,65.1213,0.0430089,0.0328029,-0.0313062,0,0,0,5.32,1.12,-0.42,-0.007808,0.032086,-1.04359,-0.16646,-0.23954,0.3465
-1.24878,0,0,11.2488,11.2488,8.75122,8.75122,0.693764,-0.571889,65.1985,0.0423403,0.0320693,-0.0312901,0,0,0,4.9,1.05,-0.49,-0.007808,0.032086,-1.04359,-0.16128,-0.23576,0.34664
-1.25042,0,0,11.2504,11.2504,8.74958,8.74958,0.694676,-0.572329,65.1985,0.0858398,0.0552893,-0.142682,1,0,0,4.97,0.91,-0.84,0.035868,0.055266,-1.15412,-0.16128,-0.23576,0.34664
-1.25003,0,0,11.25,11.25,8.74997,8.74997,0.694461,-0.571815,65.1988,0.0858308,0.0552855,-0.142682,1,0,0,4.34,1.47,-0.7,0.035868,0.055266,-1.15412,-0.16128,-0.23576,0.34664
-1.49069,0,0,11.4907,11.4907,8.50931,8.50931,0.828161,-0.704645,65.2367,-0.155916,-0.110794,-0.0779446,0,0,0,4.27,1.47,-0.91,-0.20923,-0.112972,-1.08983,-0.16128,-0.23576,0.34664
-1.72548,0,0,11.7255,11.7255,8.27452,8.27452,0.958598,-0.835556,65.2739,-0.153631,-0.108519,-0.0780108,0,0,0,4.27,1.47,-0.91,-0.20923,-0.112972,-1.08983,-0.16128,-0.23576,0.34664
-1.63465,0,0,11.6347,11.6347,8.36535,8.36535,0.90814,-0.847113,65.3618,-0.00315162,0.0312907,-0.00964003,0,0,0,4.9,1.26,-1.19,-0.058316,0.027572,-1.02199,-0.16128,-0.23576,0.34664
-1.54639,0,0,11.5464,11.5464,8.45361,8.45361,0.859104,-0.858195,65.4488,-0.00295824,0.030435,-0.00962971,0,0,0,4.9,1.26,-1.19,-0.058316,0.027572,-1.02199,-0.16128,-0.23576,0.34664
-1.5476,0,0,11.5476,11.5476,8.4524,8.4524,0.859777,-0.858743,65.4481,0.0895019,-0.0968094,0.115532,1,0,0,4.83,0.84,-1.26,0.034526,-0.099552,-0.897798,-0.16128,-0.23576,0.34664
-1.54881,0,0,11.5488,11.5488,8.45119,8.45119,0.860449,-0.859291,65.4474,0.0895115,-0.0967976,0.115531,1,0,0,4.83,0.84,-1.26,0.034526,-0.099552,-0.897798,-0.16226,-0.23548,0.3444
-1.38395,0,0,11.384,11.384,8.61605,8.61605,0.768861,-0.861453,65.5487,0.0117984,0.0601247,-0.0346897,0,0,0,5.11,1.12,-1.4,-0.043554,0.058804,-1.04688,-0.16226,-0.23548,0.3444
-1.2236,0,0,11.2236,11.2236,8.7764,8.7764,0.679776,-0.863123,65.6489,0.0118275,0.0585702,-0.0346705,0,0,0,5.11,1.12,-1.4,-0.043554,0.058804,-1.04688,-0.16226,-0.23548,0.3444
-1.18062,0,0,11.1806,11.1806,8.81938,8.81938,0.6559,-0.804211,65.7071,0.0597582,0.0232254,-0.0555519,0,0,0,5.18,1.19,-1.61,0.005612,0.023912,-1.06762,-0.16226,-0.23548,0.3444
-1.13847,0,0,11.1385,11.1385,8.86153,8.86153,0.632485,-0.746338,65.7647,0.0587482,0.022817,-0.0555336,0,0,0,5.18,1.19,-1.61,0.005612,0.023912,-1.06762,-0.16226,-0.23548,0.3444
-1.10894,0,0,11.1089,11.1089,8.89106,8.89106,0.616078,-0.714158,65.8244,0.0306093,0.0137376,0.0149261,0,0,0,4.34,1.68,-1.26,-0.022082,0.015128,-0.997716,-0.16226,-0.23548,0.3444
-1.08003,0,0,11.08,11.08,8.91997,8.91997,0.600016,-0.68253,65.8835,0.0300574,0.0134574,0.0149358,0,0,0,4.34,1.68,-1.26,-0.022082,0.015128,-0.997716,-0.16226,-0.23548,0.3444
-1.06733,0,0,11.0673,11.0673,8.93267,8.93267,0.592962,-0.695911,65.9482,-0.0121076,0.002465,-0.0363352,0,0,0,4.27,1.19,-0.91,-0.06466,0.00427,-1.04859,-0.16226,-0.23548,0.3444
-0.850301,0,0,10.8503,10.8503,9.1497,9.1497,0.472389,-0.723864,66.0655,-0.00761076,0.0729041,0.0199887,0,0,0,5.18,1.33,-0.98,-0.060634,0.076738,-0.992714,-0.16226,-0.23548,0.3444
-0.638714,0,0,10.6387,10.6387,9.36129,9.36129,0.354841,-0.750472,66.1822,-0.00714639,0.0708527,0.0199975,0,0,0,5.18,1.54,-0.77,-0.060634,0.076738,-0.992714,-0.16408,-0.24024,0.34356
-0.655539,0,0,10.6555,10.6555,9.34446,9.34446,0.364188,-0.744828,66.2383,0.00271692,-0.00506917,-0.0933607,0,0,0,5.53,1.47,-0.49,-0.05063,0.000732,-1.1052,-0.16408,-0.24024,0.34356
-0.671409,0,0,10.6714,10.6714,9.32859,9.32859,0.373005,-0.739576,66.2939,0.00262528,-0.00491529,-0.0933605,0,0,0,5.39,1.33,-0.35,-0.05063,0.000732,-1.1052,-0.16408,-0.24024,0.34356
-0.838685,0,0,10.8387,10.8387,9.16132,9.16132,0.465936,-0.708609,66.3062,0.0142334,-0.0522663,0.0429843,0,0,0,4.83,1.54,-0.42,-0.03843,-0.04819,-0.9699,-0.16408,-0.24024,0.34356
-1.00112,0,0,11.0011,11.0011,8.99888,8.99888,0.556177,-0.680089,66.3187,0.0137357,-0.0506914,0.0429763,0,0,0,4.83,0.7,-0.28,-0.03843,-0.04819,-0.9699,-0.16408,-0.24024,0.34356
-0.84626,0,0,10.8463,10.8463,9.15374,9.15374,0.470144,-0.731029,66.4226,-0.0316614,0.0473404,0.0363396,0,0,0,4.48,0.63,-0.35,-0.084912,0.05124,-0.976488,-0.16408,-0.24024,0.34356
-0.697299,0,0,10.6973,10.6973,9.3027,9.3027,0.387388,-0.779478,66.526,-0.0308158,0.0458961,0.0363393,0,0,0,4.9,1.26,0,-0.084912,0.05124,-0.976488,-0.16408,-0.24024,0.34356
-0.723483,0,0,10.7235,10.7235,9.27652,9.27652,0.401935,-0.749275,66.5696,0.0262413,-0.00624233,-0.0377934,0,0,0,4.48,1.05,-0.35,-0.027084,-0.001098,-1.05005,-0.16408,-0.24024,0.34356
-0.747639,0,0,10.7476,10.7476,9.25236,9.25236,0.415355,-0.720031,66.6051,0.0257309,-0.00600809,-0.0377885,0,0,0,4.06,0.84,-0.42,-0.027084,-0.001098,-1.05005,-0.16646,-0.23338,0.33964
-0.937793,0,0,10.9378,10.9378,9.06221,9.06221,0.520996,-0.604135,66.5814,0.09417,-0.0564345,-0.0299115,0,0,0,3.85,0.84,-0.28,0.043676,-0.053314,-1.04225,-0.16646,-0.23338,0.33964
-1.12431,0,0,11.1243,11.1243,8.87569,8.87569,0.624616,-0.49112,66.5576,0.0921976,-0.054626,-0.0299107,0,0,0,4.55,0.7,-0.56,0.043676,-0.053314,-1.04225,-0.16646,-0.23338,0.33964
-1.06589,0,0,11.0659,11.0659,8.93411,8.93411,0.59216,-0.355415,66.5866,0.128462,0.0365249,0.0130218,0,0,0,4.41,0.98,-0.56,0.082472,0.038308,-0.999668,-0.16646,-0.23338,0.33964
-1.00668,0,0,11.0067,11.0067,8.99332,8.99332,0.559268,-0.221471,66.6152,0.126124,0.035951,0.0130393,0,0,0,3.92,1.4,-0.63,0.082472,0.038308,-0.999668,-0.16646,-0.23338,0.33964
-1.10379,0,0,11.1038,11.1038,8.89621,8.89621,0.613217,-0.112544,66.6108,0.087777,-0.0202627,0.0529935,0,0,0,4.2,1.05,-0.63,0.045872,-0.018788,-0.960018,-0.16646,-0.23338,0.33964
-1.19874,0,0,11.1987,11.1987,8.80126,8.80126,0.665967,-0.00484757,66.6058,0.0858974,-0.0193421,0.0529851,0,0,0,4.55,1.68,-1.12,0.045872,-0.018788,-0.960018,-0.16646,-0.23338,0.33964
-1.29193,0,0,11.2919,11.2919,8.70807,8.70807,0.717738,-0.0549853,66.6324,-0.0551228,-0.0406657,-0.0116971,0,0,0,3.78,1.75,-0.98,-0.096624,-0.040992,-1.02419,-0.16646,-0.23338,0.33964
-1.38373,0,0,11.3837,11.3837,8.61627,8.61627,0.768737,-0.104995,66.6659,-0.05425,-0.0397756,-0.0117099,0,0,0,3.78,1.26,-1.12,-0.096624,-0.040992,-1.02419,-0.16422,-0.24038,0.34188
-1.18164,0,0,11.1816,11.1816,8.81836,8.81836,0.656468,-0.0101576,66.738,0.110409,0.0875973,-0.0705762,0,0,0,4.06,1.47,-1.47,0.070394,0.088206,-1.08263,-0.16422,-0.24038,0.34188
-0.984386,0,0,10.9844,10.9844,9.01561,9.01561,0.546881,0.0833385,66.8093,0.108777,0.0856847,-0.0705572,0,0,0,4.06,1.47,-1.47,0.070394,0.088206,-1.08263,-0.16422,-0.24038,0.34188
-0.982654,0,0,10.9827,10.9827,9.01735,9.01735,0.545919,0.0831475,66.8084,-0.0116121,-0.0536787,-0.10781,1,0,0,3.92,1.05,-1.4,-0.050508,-0.050996,-1.11959,-0.16422,-0.24038,0.34188
-0.980923,0,0,10.9809,10.9809,9.01908,9.01908,0.544957,0.0829565,66.8075,-0.0116088,-0.0536955,-0.10781,1,0,0,3.92,1.05,-1.4,-0.050508,-0.050996,-1.11959,-0.16422,-0.24038,0.34188
-0.825306,0,0,10.8253,10.8253,9.17469,9.17469,0.458503,-0.15819,66.9392,-0.228261,0.0293074,-0.0609564,0,0,0,4.62,1.47,-0.98,-0.272304,0.033428,-1.07311,-0.16422,-0.24038,0.34188
-0.675469,0,0,10.6755,10.6755,9.32453,9.32453,0.37526,-0.394265,67.0693,-0.224141,0.0278544,-0.0609657,0,0,0,4.62,1.47,-0.98,-0.272304,0.033428,-1.07311,-0.16422,-0.24038,0.34188
-1.06246,0,0,11.0625,11.0625,8.93754,8.93754,0.590255,-0.458476,67.035,-0.0906007,-0.144867,0.00735372,0,0,0,4.62,1.33,-1.19,-0.139324,-0.142862,-1.00528,-0.16422,-0.24038,0.34188
-1.43783,0,0,11.4378,11.4378,8.56217,8.56217,0.798792,-0.52263,66.9959,-0.089481,-0.141228,0.00730002,0,0,0,4.62,1.33,-1.19,-0.139324,-0.142862,-1.00528,-0.16716,-0.23814,0.34104
-1.93497,0,0,11.935,11.935,8.06503,8.06503,1.07498,-0.578534,66.9238,-0.0968879,-0.193319,-0.0294268,0,0,0,4.48,1.68,-0.98,-0.147742,-0.199714,-1.04164,-0.16716,-0.23814,0.34104
-1.68275,0,0,11.6827,11.6827,8.31725,8.31725,0.934858,-0.674748,67.039,-0.0762569,0.0829286,-0.0853439,0,0,0,4.34,1.4,-1.19,-0.12871,0.07869,-1.09715,-0.16716,-0.23814,0.34104
-1.43575,0,0,11.4357,11.4357,8.56425,8.56425,0.797637,-0.768784,67.1543,-0.0746158,0.0805338,-0.0853283,0,0,0,3.64,1.19,-0.35,-0.12871,0.07869,-1.09715,-0.16716,-0.23814,0.34104
-1.62491,0,0,11.6249,11.6249,8.37509,8.37509,0.902728,-0.736814,67.1397,0.0143612,-0.0639401,-0.0042022,0,0,0,4.06,1.26,-0.49,-0.038796,-0.067466,-1.01663,-0.16716,-0.23814,0.34104
-1.80705,0,0,11.807,11.807,8.19295,8.19295,1.00391,-0.705176,67.1258,0.013809,-0.0621743,-0.00422463,0,0,0,3.57,1.68,-0.28,-0.038796,-0.067466,-1.01663,-0.16716,-0.23814,0.34104
-2.19233,0,0,12.1923,12.1923,7.80767,7.80767,1.21796,-0.65192,67.057,0.017739,-0.12451,0.0441557,0,0,0,4.55,1.68,-0.63,-0.033916,-0.133468,-0.968558,-0.16716,-0.23814,0.34104
-2.5659,0,0,12.5659,12.5659,7.4341,7.4341,1.4255,-0.601452,66.9896,0.0168583,-0.120889,0.0440817,0,0,0,4.34,1.12,-0.42,-0.033916,-0.133468,-0.968558,-0.16716,-0.23814,0.34104
-2.86781,0,0,12.8678,12.8678,7.13219,7.13219,1.59323,-0.54508,66.9403,0.0285089,-0.100498,0.00356442,0,0,0,4.34,0.91,-0.42,-0.021228,-0.116022,-1.0087,-0.1638,-0.2373,0.33936
-2.627,0,0,12.627,12.627,7.373,7.373,1.45944,-0.553655,67.0334,0.0115291,0.0823121,0.0368213,0,0,0,4.48,0.84,-0.35,-0.03843,0.06893,-0.975756,-0.1638,-0.2373,0.33936
-2.39164,0,0,12.3916,12.3916,7.60836,7.60836,1.32869,-0.561324,67.1253,0.011663,0.0800307,0.0368755,0,0,0,4.13,0.91,-0.49,-0.03843,0.06893,-0.975756,-0.1638,-0.2373,0.33936
-2.3935,0,0,12.3935,12.3935,7.6065,7.6065,1.32972,-0.56177,67.1255,0.0599006,0.0194739,-0.119393,1,0,0,5.04,0.91,-0.7,0.010004,0.008418,-1.13082,-0.1638,-0.2373,0.33936
-2.39401,0,0,12.394,12.394,7.60599,7.60599,1.33001,-0.56197,67.1256,0.0599041,0.0194789,-0.119393,1,0,0,4.62,1.05,-0.84,0.010004,0.008418,-1.13082,-0.1638,-0.2373,0.33936
-2.55157,0,0,12.5516,12.5516,7.44843,7.44843,1.41754,-0.801931,67.1678,-0.246547,-0.0897641,-0.0153418,0,0,0,4.62,1.26,-0.63,-0.30195,-0.102236,-1.02748,-0.1638,-0.2373,0.33936
-2.70776,0,0,12.7078,12.7078,7.29224,7.29224,1.50431,-1.03727,67.2088,-0.24244,-0.0882519,-0.0154463,0,0,0,5.04,1.54,-0.77,-0.30195,-0.102236,-1.02748,-0.1638,-0.2373,0.33936
-2.56281,0,0,12.5628,12.5628,7.43719,7.43719,1.42378,-1.02405,67.2749,0.0228969,0.0511555,0.0468057,0,0,0,4.2,1.4,-0.7,-0.035258,0.03843,-0.965752,-0.1638,-0.2373,0.33936
-2.42307,0,0,12.4231,12.4231,7.57693,7.57693,1.34615,-1.0111,67.3343,0.022671,0.0498012,0.0468425,0,0,0,4.48,1.12,-1.05,-0.035258,0.03843,-0.965752,-0.16814,-0.23786,0.34328
-2.48882,0,0,12.4888,12.4888,7.51118,7.51118,1.38268,-0.812201,67.3077,0.167777,0.0031768,0.0773737,0,0,0,4.55,1.19,-1.05,0.113948,-0.008784,-0.935496,-0.16814,-0.23786,0.34328
-2.55345,0,0,12.5535,12.5535,7.44655,7.44655,1.41859,-0.617172,67.2813,0.164373,0.00380426,0.0774009,0,0,0,5.11,1.19,-1.05,0.113948,-0.008784,-0.935496,-0.16814,-0.23786,0.34328
-2.34577,0,0,12.3458,12.3458,7.65423,7.65423,1.3032,-0.56092,67.3464,0.0688757,0.0816623,-0.00135121,0,0,0,4.83,0.84,-1.19,0.019032,0.071004,-1.0137,-0.16814,-0.23786,0.34328
-2.14399,0,0,12.144,12.144,7.85601,7.85601,1.1911,-0.505132,67.4101,0.067902,0.0797065,-0.00129958,0,0,0,5.04,0.91,-1.54,0.019032,0.071004,-1.0137,-0.16814,-0.23786,0.34328
-2.77892,0,0,12.7789,12.7789,7.22108,7.22108,1.54384,-0.373116,67.256,0.0705789,-0.200282,0.0618896,0,0,0,5.25,1.12,-1.4,0.024034,-0.214842,-0.950868,-0.16814,-0.23786,0.34328
-3.39299,0,0,13.393,13.393,6.60701,6.60701,1.885,-0.244511,67.1044,0.0683343,-0.19433,0.0617236,0,0,0,4.41,1.19,-1.47,0.024034,-0.214842,-0.950868,-0.16814,-0.23786,0.34328
-3.20715,0,0,13.2071,13.2071,6.79285,6.79285,1.78175,-0.25472,67.1704,0.00448957,0.0624115,0.0730917,0,0,0,4.34,1.47,-1.33,-0.04026,0.043432,-0.939644,-0.16814,-0.23786,0.34328
-3.02771,0,0,13.0277,13.0277,6.97229,6.97229,1.68206,-0.263414,67.2384,0.00464131,0.0606725,0.0731436,0,0,0,4.69,1.96,-1.05,-0.04026,0.043432,-0.939644,-0.1652,-0.2352,0.34272
-2.68318,0,0,12.6832,12.6832,7.31682,7.31682,1.49066,-0.35865,67.3639,-0.0606351,0.108993,0.0298263,0,0,0,4.41,1.75,-0.84,-0.107482,0.095038,-0.98271,-0.1652,-0.2352,0.34272
-2.351,0,0,12.351,12.351,7.649,7.649,1.30611,-0.451496,67.4882,-0.0590147,0.105772,0.0298934,0,0,0,5.18,1.54,-0.84,-0.107482,0.095038,-0.98271,-0.1652,-0.2352,0.34272
-2.35947,0,0,12.3595,12.3595,7.64053,7.64053,1.31082,-0.358978,67.4946,0.0886765,0.00803125,-0.0468169,0,0,0,4.76,1.33,-0.91,0.042456,-0.002684,-1.05884,-0.1652,-0.2352,0.34272
-2.36692,0,0,12.3669,12.3669,7.63308,7.63308,1.31496,-0.268498,67.5016,0.0870973,0.00810365,-0.0468099,0,0,0,4.69,1.19,-0.56,0.042456,-0.002684,-1.05884,-0.1652,-0.2352,0.34272
-2.4857,0,0,12.4857,12.4857,7.5143,7.5143,1.38095,-0.191684,67.4835,0.0659545,-0.0358096,-0.0608478,0,0,0,5.04,1.12,-0.7,0.02257,-0.047702,-1.07275,-0.1652,-0.2352,0.34272
-2.6001,0,0,12.6001,12.6001,7.3999,7.3999,1.4445,-0.116115,67.4659,0.0646356,-0.0347006,-0.0608716,0,0,0,4.83,1.4,-0.56,0.02257,-0.047702,-1.07275,-0.1652,-0.2352,0.34272
-2.60084,0,0,12.6008,12.6008,7.39916,7.39916,1.44491,-0.115489,67.4663,-0.0200508,0.149107,0.124412,1,0,0,4.69,1.54,-0.63,-0.062464,0.135908,-0.888892,-0.1652,-0.2352,0.34272
-2.60114,0,0,12.6011,12.6011,7.39886,7.39886,1.44508,-0.115577,67.4666,-0.0200493,0.14911,0.124412,1,0,0,4.55,1.12,-0.7,-0.062464,0.135908,-0.888892,-0.16198,-0.23408,0.34104
-2.60098,0,0,12.601,12.601,7.39902,7.39902,1.44499,-0.115551,67.4671,0.0946327,-0.123234,0.216992,1,0,0,4.41,1.19,-0.56,0.052704,-0.136152,-0.797026,-0.16198,-0.23408,0.34104
-2.60239,0,0,12.6024,12.6024,7.39761,7.39761,1.44577,-0.115045,67.4676,0.0946239,-0.12322,0.216992,1,0,0,4.9,1.47,-0.63,0.052704,-0.136152,-0.797026,-0.16198,-0.23408,0.34104
-2.8682,0,0,12.8682,12.8682,7.1318,7.1318,1.59345,0.00113678,67.4068,0.0797187,-0.0709382,0.0976651,0,0,0,4.55,0.98,-0.84,0.039772,-0.086498,-0.915366,-0.16198,-0.23408,0.34104
-3.12634,0,0,13.1263,13.1263,6.87366,6.87366,1.73686,0.115311,67.3472,0.0777259,-0.0684363,0.0975904,0,0,0,4.62,1.4,-0.63,0.039772,-0.086498,-0.915366,-0.16198,-0.23408,0.34104
-2.77715,0,0,12.7771,12.7771,7.22285,7.22285,1.54286,0.124601,67.4527,0.0344364,0.124559,0.0280981,0,0,0,4.55,1.19,-0.77,-0.003538,0.109678,-0.984418,-0.16198,-0.23408,0.34104
-2.43754,0,0,12.4375,12.4375,7.56246,7.56246,1.35419,0.133847,67.5568,0.034275,0.121267,0.028181,0,0,0,4.69,0.77,-0.98,-0.003538,0.109678,-0.984418,-0.16198,-0.23408,0.34104
-2.43918,0,0,12.4392,12.4392,7.56082,7.56082,1.3551,0.133291,67.5567,0.0211643,0.106628,0.106007,1,0,0,4.97,0.84,-0.91,-0.016714,0.095038,-0.907192,-0.16198,-0.23408,0.34104
-2.43925,0,0,12.4393,12.4393,7.56075,7.56075,1.35514,0.13262,67.5564,0.021176,0.106628,0.106007,1,0,0,4.48,0.77,-1.05,-0.016714,0.095038,-0.907192,-0.16198,-0.23408,0.34104
-2.43954,0,0,12.4395,12.4395,7.56046,7.56046,1.3553,0.132189,67.5561,-0.0546236,0.000258927,0.180883,1,0,0,4.55,0.91,-1.05,-0.092842,-0.011224,-0.832894,-0.1617,-0.23828,0.34174
-2.44006,0,0,12.4401,12.4401,7.55994,7.55994,1.35559,0.132716,67.5557,-0.0546328,0.000263932,0.180882,1,0,0,4.62,1.47,-1.12,-0.092842,-0.011224,-0.832894,-0.1617,-0.23828,0.34174
-2.44012,0,0,12.4401,12.4401,7.55988,7.55988,1.35562,0.132305,67.5546,0.0298069,0.14413,0.139695,1,0,0,4.48,0.91,-1.54,-0.008052,0.132492,-0.873764,-0.1617,-0.23828,0.34174
-2.44019,0,0,12.4402,12.4402,7.55981,7.55981,1.35566,0.131893,67.5534,0.0298141,0.14413,0.139695,1,0,0,4.48,0.91,-1.54,-0.008052,0.132492,-0.873764,-0.1617,-0.23828,0.34174
-2.40625,0,0,12.4063,12.4063,7.59375,7.59375,1.33681,0.186852,67.5781,0.0479282,0.0189879,0.0975285,0,0,0,4.2,1.33,-1.33,0.011102,0.007808,-0.91561,-0.1617,-0.23828,0.34174
-2.3729,0,0,12.3729,12.3729,7.6271,7.6271,1.31828,0.24084,67.6026,0.0469859,0.0186645,0.0975324,0,0,0,4.2,1.33,-1.33,0.011102,0.007808,-0.91561,-0.1617,-0.23828,0.34174
-2.14062,0,0,12.1406,12.1406,7.85938,7.85938,1.18924,0.252087,67.682,0.0313609,0.089811,-0.0932352,0,0,0,3.57,0.98,-1.47,-0.004392,0.08113,-1.10495,-0.1617,-0.23828,0.34174
-1.91445,0,0,11.9145,11.9145,8.08555,8.08555,1.06359,0.263661,67.7607,0.0311589,0.0876185,-0.093193,0,0,0,3.57,0.98,-1.47,-0.004392,0.08113,-1.10495,-0.1617,-0.23828,0.34174
-2.10351,0,0,12.1035,12.1035,7.89649,7.89649,1.16862,0.358818,67.7204,0.0782139,-0.0601542,-0.0503287,0,0,0,4.55,1.4,-1.4,0.04453,-0.06832,-1.06238,-0.16576,-0.23828,0.33348
-2.22499,0,0,12.225,12.225,7.77501,7.77501,1.23611,0.262317,67.7306,-0.0951627,-0.0525037,0.0493669,0,0,0,4.13,1.12,-1.47,-0.131272,-0.061854,-0.963434,-0.16576,-0.23828,0.33348
-2.34467,0,0,12.3447,12.3447,7.65533,7.65533,1.30259,0.16832,67.7412,-0.0935222,-0.0513434,0.0493474,0,0,0,4.41,1.68,-1.12,-0.131272,-0.061854,-0.963434,-0.16576,-0.23828,0.33348
-2.11639,0,0,12.1164,12.1164,7.88361,7.88361,1.17577,0.0738898,67.8355,-0.0676984,0.0677156,0.0544396,0,0,0,4.76,1.68,-0.7,-0.106994,0.059292,-0.958432,-0.16576,-0.23828,0.33348
-1.894,0,0,11.894,11.894,8.106,8.106,1.05222,-0.0188732,67.9292,-0.0660794,0.0655597,0.0544823,0,0,0,4.48,1.26,-0.56,-0.106994,0.059292,-0.958432,-0.16576,-0.23828,0.33348
-1.52189,0,0,11.5219,11.5219,8.47811,8.47811,0.845494,-0.0766294,68.0534,-0.0240092,0.118497,0.0747048,0,0,0,4.62,1.33,-0.56,-0.065758,0.115778,-0.938424,-0.16576,-0.23828,0.33348
-1.15983,0,0,11.1598,11.1598,8.84017,8.84017,0.644352,-0.131748,68.1768,-0.0230472,0.114986,0.0747487,0,0,0,4.55,1.68,-0.42,-0.065758,0.115778,-0.938424,-0.16576,-0.23828,0.33348
-1.28689,0,0,11.2869,11.2869,8.71311,8.71311,0.71494,-0.101119,68.1678,0.0182093,-0.043157,-0.02264,0,0,0,4.41,1.89,-0.28,-0.02379,-0.043432,-1.03505,-0.16576,-0.23828,0.33348
-1.41175,0,0,11.4117,11.4117,8.58825,8.58825,0.784304,-0.0727993,68.1608,0.017715,-0.0419465,-0.0226551,0,0,0,4.9,1.05,-0.49,-0.02379,-0.043432,-1.03505,-0.16492,-0.2401,0.33698
-1.57907,0,0,11.5791,11.5791,8.42093,8.42093,0.877258,-0.00746384,68.1359,0.0515626,-0.0558344,-0.0606689,0,0,0,4.76,1.19,-0.28,0.011346,-0.058926,-1.07275,-0.16492,-0.2401,0.33698
-1.74099,0,0,11.741,11.741,8.25901,8.25901,0.967219,0.0561672,68.1119,0.050452,-0.0542645,-0.0606947,0,0,0,4.62,1.12,0,0.011346,-0.058926,-1.07275,-0.16492,-0.2401,0.33698
-2.04015,0,0,12.0402,12.0402,7.95985,7.95985,1.13342,0.247664,68.0297,0.15754,-0.0842165,0.00920098,0,0,0,4.76,1.33,-0.07,0.122244,-0.091744,-1.00333,-0.16492,-0.2401,0.33698
-2.33185,0,0,12.3319,12.3319,7.66815,7.66815,1.29547,0.434749,67.9483,0.154275,-0.0813892,0.0091216,0,0,0,5.25,1.12,-0.28,0.122244,-0.091744,-1.00333,-0.16492,-0.2401,0.33698
-2.10018,0,0,12.1002,12.1002,7.89982,7.89982,1.16677,0.529725,68.0067,0.10536,0.0947919,0.0203442,0,0,0,4.62,0.91,-0.21,0.074786,0.086498,-0.992226,-0.16492,-0.2401,0.33698
-1.87333,0,0,11.8733,11.8733,8.12667,8.12667,1.04074,0.623764,68.0647,0.103718,0.0925925,0.0203701,0,0,0,4.41,1.12,0,0.074786,0.086498,-0.992226,-0.16492,-0.2401,0.33698
-1.46113,0,0,11.4611,11.4611,8.53887,8.53887,0.811738,0.583003,68.1929,-0.00709413,0.147217,-0.0184096,0,0,0,4.62,1.05,-0.07,-0.03721,0.145058,-1.03078,-0.16492,-0.2401,0.33698
-1.05671,0,0,11.0567,11.0567,8.94329,8.94329,0.587064,0.544516,68.3219,-0.00642244,0.143297,-0.0183551,0,0,0,3.92,1.47,-0.28,-0.03721,0.145058,-1.03078,-0.16422,-0.2429,0.33446
-1.14228,0,0,11.1423,11.1423,8.85772,8.85772,0.634602,0.541273,68.3295,-0.00916,-0.0311256,-0.00274893,0,0,0,4.48,0.98,-0.56,-0.040016,-0.030012,-1.01528,-0.16422,-0.2429,0.33446
-1.22643,0,0,11.2264,11.2264,8.77357,8.77357,0.681349,0.537912,68.3362,-0.00910135,-0.0303098,-0.00275775,0,0,0,4.76,0.98,-0.98,-0.040016,-0.030012,-1.01528,-0.16422,-0.2429,0.33446
-1.23265,0,0,11.2326,11.2326,8.76735,8.76735,0.684803,0.511828,68.3651,-0.0260186,-0.00680116,-0.0877117,0,0,0,4.48,0.98,-0.84,-0.057462,-0.006588,-1.09959,-0.16422,-0.2429,0.33446
-1.23749,0,0,11.2375,11.2375,8.76251,8.76251,0.687496,0.486712,68.3928,-0.0255802,-0.00675412,-0.0877085,0,0,0,4.06,1.26,-1.33,-0.057462,-0.006588,-1.09959,-0.16422,-0.2429,0.33446
-1.7035,0,0,11.7035,11.7035,8.2965,8.2965,0.946386,0.595716,68.2852,0.0743224,-0.169062,-0.0686109,0,0,0,4.27,0.84,-1.4,0.044774,-0.17324,-1.08055,-0.16422,-0.2429,0.33446
-2.15761,0,0,12.1576,12.1576,7.84239,7.84239,1.19867,0.702608,68.1793,0.0724569,-0.16466,-0.0687144,0,0,0,4.69,1.26,-1.33,0.044774,-0.17324,-1.08055,-0.16422,-0.2429,0.33446
-2.15765,0,0,12.1577,12.1577,7.84235,7.84235,1.1987,0.701957,68.178,-0.0527835,-0.0449753,0.10452,1,0,0,4.48,0.77,-1.61,-0.081008,-0.05368,-0.908656,-0.16422,-0.2429,0.33446
-2.15747,0,0,12.1575,12.1575,7.84253,7.84253,1.1986,0.702376,68.177,-0.0527908,-0.044977,0.10452,1,0,0,4.41,1.4,-1.47,-0.081008,-0.05368,-0.908656,-0.16646,-0.2366,0.33558
-2.0959,0,0,12.0959,12.0959,7.9041,7.9041,1.16439,0.549313,68.2315,-0.148644,0.00132336,-0.061296,0,0,0,4.13,1.47,-1.61,-0.17995,-0.006832,-1.07323,-0.16646,-0.2366,0.33558
-2.03749,0,0,12.0375,12.0375,7.96251,7.96251,1.13194,0.399172,68.2858,-0.146024,0.000757581,-0.0612629,0,0,0,4.27,1.4,-1.33,-0.17995,-0.006832,-1.07323,-0.16646,-0.2366,0.33558
-2.19596,0,0,12.196,12.196,7.80404,7.80404,1.21998,0.369737,68.266,-0.0417615,-0.065975,-0.0530535,0,0,0,4.13,1.33,-1.47,-0.075762,-0.07503,-1.06506,-0.16646,-0.2366,0.33558
-2.35233,0,0,12.3523,12.3523,7.64767,7.64767,1.30685,0.340762,68.2465,-0.0412558,-0.0644591,-0.0530838,0,0,0,4.76,1.47,-1.4,-0.075762,-0.07503,-1.06506,-0.16646,-0.2366,0.33558
-3.0389,0,0,13.0389,13.0389,6.9611,6.9611,1.68828,0.581722,68.05,0.173577,-0.217425,0.0446984,0,0,0,4.48,1.47,-1.12,0.144204,-0.234484,-0.967826,-0.16646,-0.2366,0.33558
-3.70639,0,0,13.7064,13.7064,6.29361,6.29361,2.05911,0.818048,67.8573,0.169453,-0.210958,0.0444364,0,0,0,4.55,1.82,-0.77,0.144204,-0.234484,-0.967826,-0.16646,-0.2366,0.33558
-4.12217,0,0,14.1222,14.1222,5.87783,5.87783,2.29009,0.95413,67.7395,0.0876267,-0.120955,0.0849427,0,0,0,4.69,1.4,-0.91,0.064416,-0.148596,-0.927444,-0.16646,-0.2366,0.33558
-4.52566,0,0,14.5257,14.5257,5.47434,5.47434,2.51426,1.08613,67.6217,0.0853231,-0.117048,0.0847378,0,0,0,4.62,0.91,-1.05,0.064416,-0.148596,-0.927444,-0.16828,-0.23814,0.33922
-4.5273,0,0,14.5273,14.5273,5.4727,5.4727,2.51517,1.08593,67.6217,-0.0545034,0.0269554,0.184571,1,0,0,4.97,1.05,-0.84,-0.076006,-0.004758,-0.82838,-0.16828,-0.23814,0.33922
-4.52762,0,0,14.5276,14.5276,5.47238,5.47238,2.51534,1.08522,67.6223,-0.054491,0.0269585,0.184571,1,0,0,4.55,0.77,-0.49,-0.076006,-0.004758,-0.82838,-0.16828,-0.23814,0.33922
-4.52748,0,0,14.5275,14.5275,5.47252,5.47252,2.51527,1.08536,67.6229,-0.121311,0.00729475,0.167113,1,0,0,4.41,1.26,-0.56,-0.143106,-0.0244,-0.845704,-0.16828,-0.23814,0.33922
-4.52892,0,0,14.5289,14.5289,5.47108,5.47108,2.51607,1.08561,67.6234,-0.121315,0.00730865,0.167112,1,0,0,4.9,1.33,-0.56,-0.143106,-0.0244,-0.845704,-0.16828,-0.23814,0.33922
-4.55691,0,0,14.5569,14.5569,5.44309,5.44309,2.53162,0.947648,67.6423,-0.122309,-0.0228279,0.0866115,0,0,0,4.69,1.4,-0.49,-0.146522,-0.054778,-0.925614,-0.16828,-0.23814,0.33922
-4.58561,0,0,14.5856,14.5856,5.41439,5.41439,2.54756,0.811391,67.6611,-0.119931,-0.0225483,0.0866357,0,0,0,4.83,0.91,-0.28,-0.146522,-0.054778,-0.925614,-0.16828,-0.23814,0.33922
-4.45905,0,0,14.4591,14.4591,5.54095,5.54095,2.47725,0.999049,67.6586,0.165444,0.0707497,0.112826,0,0,0,5.11,1.33,-0.28,0.14335,0.03965,-0.899628,-0.16828,-0.23814,0.33922
-4.33366,0,0,14.3337,14.3337,5.66634,5.66634,2.40759,1.1837,67.656,0.162222,0.0695326,0.112816,0,0,0,4.83,1.47,-0.21,0.14335,0.03965,-0.899628,-0.16828,-0.23814,0.33922
-4.18013,0,0,14.1801,14.1801,5.81987,5.81987,2.32229,1.34718,67.665,0.146127,0.0759812,0.111216,0,0,0,4.9,1.33,-0.21,0.130052,0.04758,-0.901214,-0.16716,-0.23842,0.3444
-4.10804,0,0,14.108,14.108,5.89196,5.89196,2.28224,1.21183,67.7099,-0.126676,0.00726045,-0.0448474,0,0,0,4.83,1.4,-0.28,-0.146278,-0.020374,-1.05615,-0.16716,-0.23842,0.3444
-4.03881,0,0,14.0388,14.0388,5.96119,5.96119,2.24379,1.07816,67.7539,-0.124344,0.00659171,-0.0447743,0,0,0,4.83,0.77,-0.56,-0.146278,-0.020374,-1.05615,-0.16716,-0.23842,0.3444
-3.779,0,0,13.779,13.779,6.221,6.221,2.09945,1.06008,67.8227,0.00341049,0.0939603,-0.00385411,0,0,0,5.04,0.77,-0.49,-0.0183,0.069418,-1.01565,-0.16716,-0.23842,0.3444
-3.52724,0,0,13.5272,13.5272,6.47276,6.47276,1.95958,1.04305,67.8907,0.00370759,0.0915212,-0.00376222,0,0,0,5.39,0.84,-0.7,-0.0183,0.069418,-1.01565,-0.16716,-0.23842,0.3444
-2.97566,0,0,12.9757,12.9757,7.02434,7.02434,1.65314,0.841471,68.0653,-0.15265,0.181681,-0.0134947,0,0,0,5.11,0.91,-0.77,-0.178852,0.164822,-1.02553,-0.16716,-0.23842,0.3444
-2.43835,0,0,12.4384,12.4384,7.56165,7.56165,1.35464,0.645002,68.2387,-0.149221,0.176475,-0.0133135,0,0,0,4.69,0.84,-0.84,-0.178852,0.164822,-1.02553,-0.16716,-0.23842,0.3444
-2.33715,0,0,12.3371,12.3371,7.66285,7.66285,1.29841,0.472477,68.3059,-0.148883,0.0161191,0.0510407,0,0,0,5.11,1.12,-0.98,-0.181536,0.005612,-0.961726,-0.16716,-0.23842,0.3444
-2.23718,0,0,12.2372,12.2372,7.76282,7.76282,1.24288,0.303595,68.3745,-0.145935,0.0151505,0.0510821,0,0,0,4.27,1.19,-1.05,-0.181536,0.005612,-0.961726,-0.1659,-0.23996,0.33908
-2.03413,0,0,12.0341,12.0341,7.96587,7.96587,1.13007,0.110466,68.4734,-0.171843,0.0505531,-0.0120605,0,0,0,4.76,1.4,-1.19,-0.210938,0.042944,-1.02443,-0.1659,-0.23996,0.33908
-1.83713,0,0,11.8371,11.8371,8.16287,8.16287,1.02063,-0.0792348,68.5709,-0.168532,0.0486434,-0.0120237,0,0,0,4.55,0.98,-1.33,-0.210938,0.042944,-1.02443,-0.1659,-0.23996,0.33908
-1.89614,0,0,11.8961,11.8961,8.10386,8.10386,1.05341,-0.108696,68.579,-0.0296453,-0.0211296,0.0877993,0,0,0,4.55,1.4,-1.19,-0.07198,-0.027328,-0.92537,-0.1659,-0.23996,0.33908
-1.95328,0,0,11.9533,11.9533,8.04672,8.04672,1.08516,-0.138087,68.587,-0.0291323,-0.0205757,0.0877878,0,0,0,4.41,1.19,-1.19,-0.07198,-0.027328,-0.92537,-0.1659,-0.23996,0.33908
-2.1223,0,0,12.1223,12.1223,7.8777,7.8777,1.17906,-0.101684,68.5555,0.0201629,-0.0514228,0.0737406,0,0,0,4.06,1.19,-1.12,-0.021838,-0.05978,-0.939278,-0.1659,-0.23996,0.33908
-2.28743,0,0,12.2874,12.2874,7.71257,7.71257,1.27079,-0.0663971,68.5235,0.0195471,-0.049822,0.0737073,0,0,0,4.34,1.12,-1.61,-0.021838,-0.05978,-0.939278,-0.1659,-0.23996,0.33908
-2.28593,0,0,12.2859,12.2859,7.71407,7.71407,1.26996,-0.0664572,68.5226,-0.181025,-0.0122215,0.213992,1,0,0,3.99,1.12,-1.4,-0.22326,-0.022204,-0.800076,-0.1659,-0.23996,0.33908
-2.28532,0,0,12.2853,12.2853,7.71468,7.71468,1.26962,-0.0667589,68.5218,-0.181019,-0.0122274,0.213992,1,0,0,4.27,0.98,-1.33,-0.22326,-0.022204,-0.800076,-0.16856,-0.2429,0.33334
-1.96951,0,0,11.9695,11.9695,8.03049,8.03049,1.09417,-0.290977,68.6499,-0.186947,0.0843663,0.027776,0,0,0,3.92,1.19,-0.91,-0.233142,0.077348,-0.984906,-0.16856,-0.2429,0.33334
-1.66546,0,0,11.6655,11.6655,8.33454,8.33454,0.925256,-0.510046,68.7767,-0.183123,0.0814181,0.0278012,0,0,0,4.48,1.26,-0.98,-0.233142,0.077348,-0.984906,-0.16856,-0.2429,0.33334
-1.06424,0,0,11.0642,11.0642,8.93576,8.93576,0.591243,-0.580108,68.9509,-0.0215393,0.208952,0.00954738,0,0,0,4.13,1.05,-1.12,-0.072102,0.210572,-1.00308,-0.16856,-0.2429,0.33334
-0.478771,0,0,10.4788,10.4788,9.52123,9.52123,0.265984,-0.647327,69.1245,-0.0203661,0.203275,0.00957728,0,0,0,4.06,1.05,-0.7,-0.072102,0.210572,-1.00308,-0.16856,-0.2429,0.33334
-0.0630613,0,0,10.0631,10.0631,9.93694,9.93694,0.035034,-0.666761,69.2512,0.0127742,0.143433,0.0265509,0,0,0,3.85,0.84,-0.56,-0.039162,0.154818,-0.986248,-0.16856,-0.2429,0.33334
0.342257,0,0,9.65774,9.65774,10.3423,10.3423,-0.190143,-0.684232,69.3764,0.0130791,0.139503,0.026542,0,0,0,3.64,1.19,-0.7,-0.039162,0.154818,-0.986248,-0.16856,-0.2429,0.33334
0.872996,0,0,9.127,9.127,10.873,10.873,-0.484998,-0.642305,69.5242,0.0736976,0.179178,0.0952483,0,0,0,4.2,1.33,-0.56,0.022448,0.199592,-0.91805,-0.16856,-0.2429,0.33334
1.38948,0,0,8.61052,8.61052,11.3895,11.3895,-0.771932,-0.59976,69.6687,0.0729551,0.17417,0.0952014,0,0,0,3.71,1.12,-0.49,0.022448,0.199592,-0.91805,-0.1708,-0.24234,0.34314
1.79835,0,0,8.20165,8.20165,11.7984,11.7984,-0.999086,-0.691856,69.8125,-0.0567636,0.13137,0.0412706,0,0,0,4.27,1.26,-0.7,-0.109434,0.160796,-0.971486,-0.1708,-0.24234,0.34314
2.19722,0,0,7.80278,7.80278,12.1972,12.1972,-1.22068,-0.780884,69.9547,-0.0552099,0.127504,0.0411757,0,0,0,3.85,1.47,-0.91,-0.109434,0.160796,-0.971486,-0.1708,-0.24234,0.34314
2.38241,0,0,7.61759,7.61759,12.3824,12.3824,-1.32356,-0.77709,70.0294,0.0161574,0.0729503,-0.0777544,0,0,0,3.78,1.61,-0.56,-0.037698,0.108092,-1.08946,-0.1708,-0.24234,0.34314
2.56268,0,0,7.43732,7.43732,12.5627,12.5627,-1.42371,-0.77296,70.1034,0.0160854,0.0712031,-0.0777953,0,0,0,3.78,1.61,-0.56,-0.037698,0.108092,-1.08946,-0.1708,-0.24234,0.34314
2.6798,0,0,7.3202,7.3202,12.6798,12.6798,-1.48878,-0.718695,70.1526,0.0621533,0.0496724,-0.0371159,0,0,0,3.57,1.12,-0.7,0.009516,0.087718,-1.04908,-0.1708,-0.24234,0.34314
2.79409,0,0,7.20591,7.20591,12.7941,12.7941,-1.55227,-0.665187,70.2013,0.0612195,0.0485643,-0.037134,0,0,0,3.57,1.12,-0.7,0.009516,0.087718,-1.04908,-0.1708,-0.24234,0.34314
3.04212,0,0,6.95788,6.95788,13.0421,13.0421,-1.69007,-0.710773,70.3009,-0.0303141,0.0929354,-0.0871287,0,0,0,3.43,1.26,-0.7,-0.083204,0.134444,-1.09861,-0.1708,-0.24234,0.34314
3.28286,0,0,6.71714,6.71714,13.2829,13.2829,-1.82381,-0.754872,70.4011,-0.0295445,0.0906026,-0.0872101,0,0,0,3.43,1.26,-0.7,-0.083204,0.134444,-1.09861,-0.16758,-0.23744,0.33978
3.28505,0,0,6.71495,6.71495,13.2851,13.2851,-1.82503,-0.754342,70.4015,0.0201339,0.0456388,-0.211143,1,0,0,3.78,1.47,-0.63,-0.033306,0.089548,-1.22159,-0.16758,-0.23744,0.33978
3.28724,0,0,6.71276,6.71276,13.2872,13.2872,-1.82624,-0.753811,70.4019,0.0201247,0.0456176,-0.211143,1,0,0,3.78,1.47,-0.63,-0.033306,0.089548,-1.22159,-0.16758,-0.23744,0.33978
3.28536,0,0,6.71464,6.71464,13.2854,13.2854,-1.8252,-0.752714,70.4013,0.0677279,0.106699,-0.168848,1,0,0,5.04,1.82,-1.19,0.014518,0.150548,-1.17962,-0.16758,-0.23744,0.33978
3.28348,0,0,6.71652,6.71652,13.2835,13.2835,-1.82416,-0.751618,70.4008,0.0677088,0.106717,-0.168847,1,0,0,5.04,1.82,-1.19,0.014518,0.150548,-1.17962,-0.16758,-0.23744,0.33978
2.94822,0,0,7.05178,7.05178,12.9482,12.9482,-1.6379,-0.665308,70.3337,0.0626794,-0.116091,-0.0690193,0,0,0,5.39,1.47,-1.05,0.01098,-0.075274,-1.08068,-0.16758,-0.23744,0.33978
2.62241,0,0,7.37759,7.37759,12.6224,12.6224,-1.4569,-0.581115,70.2677,0.0612101,-0.112933,-0.0689181,0,0,0,5.39,1.47,-1.05,0.01098,-0.075274,-1.08068,-0.16758,-0.23744,0.33978
2.7784,0,0,7.2216,7.2216,12.7784,12.7784,-1.54356,-0.495649,70.321,0.093127,0.0659355,0.00113701,0,0,0,4.69,1.54,-0.91,0.04453,0.10492,-1.01114,-0.16758,-0.23744,0.33978
3.15145,0,0,6.84855,6.84855,13.1515,13.1515,-1.75081,-0.378712,70.429,0.129962,0.133886,0.0898174,0,0,0,4.62,1.19,-1.05,0.08357,0.176412,-0.923052,-0.16254,-0.2373,0.3409
3.51422,0,0,6.48578,6.48578,13.5142,13.5142,-1.95234,-0.262497,70.5366,0.127933,0.13037,0.0897151,0,0,0,5.04,1.54,-0.63,0.08357,0.176412,-0.923052,-0.16254,-0.2373,0.3409
3.32681,0,0,6.67319,6.67319,13.3268,13.3268,-1.84823,-0.131924,70.5036,0.106824,-0.0527142,0.0635952,0,0,0,4.83,1.05,-0.7,0.06466,-0.008296,-0.949038,-0.16254,-0.2373,0.3409
3.14495,0,0,6.85505,6.85505,13.1449,13.1449,-1.74719,-0.00401457,70.4711,0.104592,-0.0509518,0.0636531,0,0,0,4.83,1.05,-0.7,0.06466,-0.008296,-0.949038,-0.16254,-0.2373,0.3409
3.35386,0,0,6.64614,6.64614,13.3539,13.3539,-1.86325,0.188606,70.5235,0.213969,0.104201,-0.0352667,0,0,0,5.6,1.19,-0.84,0.177876,0.148718,-1.04713,-0.16254,-0.2373,0.3409
3.48469,0,0,6.51531,6.51531,13.4847,13.4847,-1.93594,-0.0996245,70.6417,-0.261598,0.0158565,0.0642835,0,0,0,5.18,0.98,-0.77,-0.304756,0.061732,-0.948306,-0.16254,-0.2373,0.3409
3.60981,0,0,6.39019,6.39019,13.6098,13.6098,-2.00545,-0.382631,70.7582,-0.256659,0.0146447,0.064221,0,0,0,5.39,0.84,-0.91,-0.304756,0.061732,-0.948306,-0.16254,-0.2373,0.3409
3.60727,0,0,6.39273,6.39273,13.6073,13.6073,-2.00404,-0.381878,70.7581,-0.0851343,-0.100618,0.150532,1,0,0,5.25,1.61,-0.91,-0.132492,-0.053436,-0.862662,-0.16254,-0.2373,0.3409
3.6063,0,0,6.3937,6.3937,13.6063,13.6063,-2.0035,-0.382199,70.758,-0.0851287,-0.100609,0.150532,1,0,0,4.76,0.98,-0.91,-0.132492,-0.053436,-0.862662,-0.16422,-0.23968,0.3388
3.60623,0,0,6.39377,6.39377,13.6062,13.6062,-2.00346,-0.382396,70.7581,0.0627228,-0.157031,0.274833,1,0,0,4.48,1.05,-0.84,0.015982,-0.1098,-0.73932,-0.16422,-0.23968,0.3388
3.60414,0,0,6.39586,6.39586,13.6041,13.6041,-2.0023,-0.382248,70.7578,0.0627202,-0.15701,0.274834,1,0,0,5.11,1.26,-1.05,0.015982,-0.1098,-0.73932,-0.16422,-0.23968,0.3388
3.60182,0,0,6.39818,6.39818,13.6018,13.6018,-2.00101,-0.383055,70.7575,-0.0214553,-0.0817579,0.299547,1,0,0,5.18,0.7,-1.05,-0.068564,-0.034648,-0.714798,-0.16422,-0.23968,0.3388
3.59657,0,0,6.40343,6.40343,13.5966,13.5966,-1.9981,-0.383874,70.7569,-0.021441,-0.0817071,0.299549,1,0,0,6.09,0.7,-1.26,-0.068564,-0.034648,-0.714798,-0.16422,-0.23968,0.3388
3.59313,0,0,6.40687,6.40687,13.5931,13.5931,-1.99618,-0.384332,70.7564,-0.113762,0.106646,0.256887,1,0,0,5.53,0.91,-1.19,-0.161284,0.153476,-0.757132,-0.16422,-0.23968,0.3388
3.59171,0,0,6.40829,6.40829,13.5917,13.5917,-1.99539,-0.384653,70.7563,-0.113757,0.106659,0.256887,1,0,0,4.9,0.98,-0.91,-0.161284,0.153476,-0.757132,-0.16422,-0.23968,0.3388
3.58961,0,0,6.41039,6.41039,13.5896,13.5896,-1.99423,-0.385217,70.7562,0.105899,0.11816,0.224183,1,0,0,5.11,0.84,-0.98,0.059292,0.164944,-0.789584,-0.16422,-0.23968,0.3388
3.58977,0,0,6.41023,6.41023,13.5898,13.5898,-1.99431,-0.385311,70.7557,0.105901,0.118158,0.224183,1,0,0,4.41,1.12,-1.12,0.059292,0.164944,-0.789584,-0.1603,-0.23982,0.32942
3.58767,0,0,6.41233,6.41233,13.5877,13.5877,-1.99315,-0.386489,70.7551,-0.368116,0.0208435,0.280863,1,0,0,5.11,0.49,-1.26,-0.416752,0.06771,-0.733342,-0.1603,-0.23982,0.32942
3.58939,0,0,6.41061,6.41061,13.5894,13.5894,-1.9941,-0.385876,70.7544,-0.368126,0.0208268,0.280863,1,0,0,3.92,1.54,-1.26,-0.416752,0.06771,-0.733342,-0.1603,-0.23982,0.32942
3.59111,0,0,6.40889,6.40889,13.5911,13.5911,-1.99506,-0.384891,70.7541,-0.281646,0.00188048,0.160496,1,0,0,3.92,1.75,-1.05,-0.329888,0.0488,-0.85278,-0.1603,-0.23982,0.32942
3.59149,0,0,6.40851,6.40851,13.5915,13.5915,-1.99527,-0.384159,70.7534,-0.281658,0.00187686,0.160496,1,0,0,4.34,1.61,-1.26,-0.329888,0.0488,-0.85278,-0.1603,-0.23982,0.32942
3.59096,0,0,6.40904,6.40904,13.591,13.591,-1.99498,-0.383895,70.753,0.0520582,0.030826,0.199102,1,0,0,4.62,1.33,-1.12,0.005246,0.077714,-0.814472,-0.1603,-0.23982,0.32942
3.59089,0,0,6.40911,6.40911,13.5909,13.5909,-1.99494,-0.38338,70.7529,0.0520492,0.0308266,0.199102,1,0,0,4.48,1.47,-0.91,0.005246,0.077714,-0.814472,-0.1603,-0.23982,0.32942
3.59263,0,0,6.40737,6.40737,13.5926,13.5926,-1.9959,-0.383446,70.7533,0.0114742,-0.18279,0.271518,1,0,0,3.92,1.12,-0.63,-0.035502,-0.135664,-0.742614,-0.1603,-0.23982,0.32942
3.59234,0,0,6.40766,6.40766,13.5923,13.5923,-1.99574,-0.383268,70.7539,0.0114711,-0.182787,0.271518,1,0,0,4.55,1.26,-0.56,-0.035502,-0.135664,-0.742614,-0.1603,-0.23982,0.32942
3.59318,0,0,6.40682,6.40682,13.5932,13.5932,-1.99621,-0.38272,70.7547,-0.172832,0.0551077,0.168364,1,0,0,4.2,1.47,-0.35,-0.220576,0.101992,-0.844972,-0.16324,-0.23968,0.33306
3.08558,0,0,6.91442,6.91442,13.0856,13.0856,-1.71421,-0.11904,70.6177,0.200022,-0.145269,0.121208,0,0,0,4.34,1.26,-0.28,0.158478,-0.10309,-0.891942,-0.16324,-0.23968,0.33306
2.59167,0,0,7.40833,7.40833,12.5917,12.5917,-1.43982,0.140666,70.4826,0.195489,-0.140482,0.121339,0,0,0,4.48,1.96,-0.35,0.158478,-0.10309,-0.891942,-0.16324,-0.23968,0.33306
2.01466,0,0,7.98534,7.98534,12.0147,12.0147,-1.11926,0.179068,70.3633,-0.00490373,-0.193265,0.079168,0,0,0,4.69,2.03,-0.42,-0.04209,-0.161406,-0.93391,-0.16324,-0.23968,0.33306
1.45447,0,0,8.54553,8.54553,11.4545,11.4545,-0.808037,0.21469,70.2455,-0.00552544,-0.187834,0.0792572,0,0,0,4.34,1.33,-0.49,-0.04209,-0.161406,-0.93391,-0.16324,-0.23968,0.33306
1.45282,0,0,8.54718,8.54718,11.4528,11.4528,-0.807122,0.215812,70.2461,0.0329659,-0.184154,0.145404,1,0,0,4.97,1.82,-0.56,-0.003416,-0.157746,-0.868274,-0.16324,-0.23968,0.33306
1.45207,0,0,8.54793,8.54793,11.4521,11.4521,-0.806708,0.216456,70.2466,0.0329547,-0.184147,0.145404,1,0,0,4.69,1.54,-0.56,-0.003416,-0.157746,-0.868274,-0.16324,-0.23968,0.33306
1.45268,0,0,8.54732,8.54732,11.4527,11.4527,-0.807042,0.216744,70.2472,-0.0319237,-0.179756,0.122043,1,0,0,4.27,1.33,-0.49,-0.068564,-0.153354,-0.891454,-0.16226,-0.24122,0.33586
1.25442,0,0,8.74558,8.74558,11.2544,11.2544,-0.696902,0.27886,70.214,0.049481,-0.0687746,-0.0635883,0,0,0,4.34,1.12,-0.49,0.014274,-0.044408,-1.07567,-0.16226,-0.24122,0.33586
1.06088,0,0,8.93912,8.93912,11.0609,11.0609,-0.589378,0.338779,70.1812,0.0484352,-0.066898,-0.0635729,0,0,0,4.62,0.7,-0.56,0.014274,-0.044408,-1.07567,-0.16226,-0.24122,0.33586
1.06013,0,0,8.93987,8.93987,11.0601,11.0601,-0.588963,0.337387,70.1815,0.0941381,-0.0880187,-0.104392,1,0,0,4.69,0.35,-0.7,0.060146,-0.065514,-1.11618,-0.16226,-0.24122,0.33586
1.05826,0,0,8.94174,8.94174,11.0583,11.0583,-0.587925,0.336952,70.1818,0.0941457,-0.0880005,-0.104391,1,0,0,5.04,0.91,-0.7,0.060146,-0.065514,-1.11618,-0.16226,-0.24122,0.33586
1.0573,0,0,8.9427,8.9427,11.0573,11.0573,-0.587388,0.336034,70.1816,-0.119167,0.23076,-0.172873,1,0,0,4.76,0.63,-0.98,-0.154086,0.252906,-1.18413,-0.16226,-0.24122,0.33586
1.05633,0,0,8.94367,8.94367,11.0563,11.0563,-0.586852,0.335115,70.1814,-0.119151,0.230769,-0.172873,1,0,0,4.76,0.63,-0.98,-0.154086,0.252906,-1.18413,-0.16226,-0.24122,0.33586
0.920368,0,0,9.07963,9.07963,10.9204,10.9204,-0.511315,0.364545,70.166,0.0189504,-0.0447741,0.00848528,0,0,0,5.39,1.12,-1.47,-0.014884,-0.023668,-1.00418,-0.16226,-0.24122,0.33586
0.788208,0,0,9.21179,9.21179,10.7882,10.7882,-0.437894,0.393186,70.1489,0.0184506,-0.0434926,0.00849259,0,0,0,5.39,1.12,-1.47,-0.014884,-0.023668,-1.00418,-0.16324,-0.24024,0.33572
0.316794,0,0,9.68321,9.68321,10.3168,10.3168,-0.175997,0.463952,70.0399,0.0348309,-0.162514,0.0220322,0,0,0,4.48,0.91,-1.19,0.002806,-0.147132,-0.990762,-0.16324,-0.24024,0.33572
-0.141726,0,0,10.1417,10.1417,9.85827,9.85827,0.0787364,0.532721,69.9324,0.0336307,-0.158068,0.0220255,0,0,0,4.48,0.91,-1.19,0.002806,-0.147132,-0.990762,-0.16324,-0.24024,0.33572
-0.33606,0,0,10.3361,10.3361,9.66394,9.66394,0.1867,0.406015,69.9208,-0.140312,-0.0884037,-0.0163207,0,0,0,4.69,1.26,-1.4,-0.174094,-0.079422,-1.02883,-0.16324,-0.24024,0.33572
-0.525933,0,0,10.5259,10.5259,9.47407,9.47407,0.292185,0.28121,69.9091,-0.138134,-0.0865626,-0.0163153,0,0,0,4.69,1.26,-1.4,-0.174094,-0.079422,-1.02883,-0.16324,-0.24024,0.33572
-0.537604,0,0,10.5376,10.5376,9.4624,9.4624,0.298669,0.290829,69.9177,0.00942478,-0.00340329,-0.070537,0,0,0,4.69,1.19,-1.33,-0.025742,0.003538,-1.08263,-0.16324,-0.24024,0.33572
-0.548909,0,0,10.5489,10.5489,9.45109,9.45109,0.304949,0.30025,69.9263,0.00926036,-0.00329368,-0.0705384,0,0,0,4.69,1.19,-1.33,-0.025742,0.003538,-1.08263,-0.16324,-0.24024,0.33572
-1.03403,0,0,11.034,11.034,8.96597,8.96597,0.574458,0.27274,69.8245,-0.0643658,-0.188009,-0.0148765,0,0,0,3.92,1.47,-1.12,-0.100162,-0.185684,-1.02736,-0.16324,-0.24024,0.33572
-1.50629,0,0,11.5063,11.5063,8.49371,8.49371,0.83683,0.244896,69.7239,-0.0638798,-0.18343,-0.0149307,0,0,0,3.92,1.47,-1.12,-0.100162,-0.185684,-1.02736,-0.16324,-0.24024,0.33572
-2.24779,0,0,12.2478,12.2478,7.75221,7.75221,1.24877,0.291679,69.5445,-0.00917737,-0.253914,0.0792362,0,0,0,3.85,0.98,-0.91,-0.044408,-0.263276,-0.933788,-0.1652,-0.24402,0.3346
-2.24696,0,0,12.247,12.247,7.75304,7.75304,1.24831,0.291364,69.5443,0.0569163,0.111603,-0.147112,1,0,0,4.2,0.98,-0.98,0.02196,0.10187,-1.15839,-0.1652,-0.24402,0.3346
-2.24612,0,0,12.2461,12.2461,7.75388,7.75388,1.24785,0.291049,69.5441,0.0569218,0.111595,-0.147112,1,0,0,4.2,0.98,-0.98,0.02196,0.10187,-1.15839,-0.1652,-0.24402,0.3346
-2.24575,0,0,12.2457,12.2457,7.75425,7.75425,1.24764,0.290837,69.5447,-0.0651676,0.176685,-0.27633,1,0,0,4.34,1.05,-0.56,-0.10065,0.166896,-1.28661,-0.1652,-0.24402,0.3346
-2.24537,0,0,12.2454,12.2454,7.75463,7.75463,1.24743,0.290626,69.5452,-0.0651639,0.176681,-0.27633,1,0,0,4.34,1.05,-0.56,-0.10065,0.166896,-1.28661,-0.1652,-0.24402,0.3346
-2.24477,0,0,12.2448,12.2448,7.75523,7.75523,1.2471,0.290887,69.546,0.100174,0.154449,-0.221618,1,0,0,4.27,1.33,-0.42,0.065392,0.144692,-1.23232,-0.1652,-0.24402,0.3346
-2.24417,0,0,12.2442,12.2442,7.75583,7.75583,1.24676,0.291149,69.5468,0.100169,0.154443,-0.221618,1,0,0,4.27,1.33,-0.42,0.065392,0.144692,-1.23232,-0.1652,-0.24402,0.3346
-2.24178,0,0,12.2418,12.2418,7.75822,7.75822,1.24543,0.292355,69.5481,0.103064,0.0221564,-0.215224,1,0,0,3.71,1.89,-0.14,0.06832,0.012566,-1.22598,-0.16352,-0.24248,0.33404
-1.64831,0,0,11.6483,11.6483,8.35169,8.35169,0.915725,0.162616,69.7215,-0.0765361,0.184083,0.107756,0,0,0,3.99,1.89,-0.14,-0.114314,0.180072,-0.905606,-0.16352,-0.24248,0.33404
-1.07076,0,0,11.0708,11.0708,8.92924,8.92924,0.594869,0.0367064,69.8938,-0.0743386,0.178484,0.107834,0,0,0,3.99,1.89,-0.14,-0.114314,0.180072,-0.905606,-0.16352,-0.24248,0.33404
-0.318151,0,0,10.3182,10.3182,9.68185,9.68185,0.176751,-0.0936753,70.1126,-0.0670821,0.237135,0.117963,0,0,0,4.48,1.68,-0.49,-0.109312,0.245952,-0.895602,-0.16352,-0.24248,0.33404
0.414906,0,0,9.58509,9.58509,10.4149,10.4149,-0.230503,-0.219798,70.3301,-0.0648808,0.230027,0.117954,0,0,0,4.48,1.68,-0.49,-0.109312,0.245952,-0.895602,-0.16352,-0.24248,0.33404
1.29406,0,0,8.70594,8.70594,11.2941,11.2941,-0.71892,-0.324141,70.5833,-0.0371833,0.28794,0.109391,0,0,0,4.41,1.33,-0.7,-0.083326,0.31232,-0.90402,-0.16352,-0.24248,0.33404
2.15117,0,0,7.84883,7.84883,12.1512,12.1512,-1.19509,-0.424376,70.8352,-0.0354339,0.279631,0.109241,0,0,0,4.41,1.33,-0.7,-0.083326,0.31232,-0.90402,-0.16352,-0.24248,0.33404
2.67203,0,0,7.32797,7.32797,12.672,12.672,-1.48446,-0.417297,70.9899,0.0442587,0.191535,0.0119946,0,0,0,4.55,0.77,-0.77,-0.003172,0.22936,-1.0004,-0.16352,-0.24248,0.33404
3.17778,0,0,6.82222,6.82222,13.1778,13.1778,-1.76543,-0.408814,71.1428,0.0441106,0.186634,0.0118566,0,0,0,4.55,0.77,-0.77,-0.003172,0.22936,-1.0004,-0.16254,-0.23744,0.33614
3.42508,0,0,6.57492,6.57492,13.4251,13.4251,-1.90282,-0.256677,71.2077,0.150307,0.0920309,0.117162,0,0,0,4.83,1.19,-1.12,0.10614,0.13725,-0.895846,-0.16254,-0.23744,0.33614
3.42568,0,0,6.57432,6.57432,13.4257,13.4257,-1.90315,-0.256775,71.2072,-0.0153982,-0.0652741,0.143104,1,0,0,4.27,1.12,-1.19,-0.060268,-0.019886,-0.870104,-0.16254,-0.23744,0.33614
3.42605,0,0,6.57395,6.57395,13.4261,13.4261,-1.90336,-0.25819,71.2065,-0.0153735,-0.0652778,0.143104,1,0,0,4.34,0.35,-1.26,-0.060268,-0.019886,-0.870104,-0.16254,-0.23744,0.33614
3.27869,0,0,6.72131,6.72131,13.2787,13.2787,-1.8215,-0.468989,71.232,-0.221257,-0.0772829,0.00062965,0,0,0,4.55,0.63,-1.33,-0.270718,-0.033306,-1.0115,-0.16254,-0.23744,0.33614
3.13191,0,0,6.86809,6.86809,13.1319,13.1319,-1.73995,-0.676979,71.2565,-0.217627,-0.0758593,0.000637592,0,0,0,5.25,0.28,-1.61,-0.270718,-0.033306,-1.0115,-0.16254,-0.23744,0.33614
2.89406,0,0,7.10594,7.10594,12.8941,12.8941,-1.60781,-0.77421,71.2385,-0.113275,-0.0981011,-0.014808,0,0,0,4.55,0.49,-1.61,-0.167628,-0.057828,-1.02687,-0.16254,-0.23744,0.33614
2.66168,0,0,7.33832,7.33832,12.6617,12.6617,-1.47871,-0.868716,71.2205,-0.111626,-0.0958482,-0.014771,0,0,0,4.69,1.33,-1.68,-0.167628,-0.057828,-1.02687,-0.16254,-0.23744,0.33614
2.9742,0,0,7.0258,7.0258,12.9742,12.9742,-1.65233,-1.03783,71.353,-0.152895,0.102023,-0.0334681,0,0,0,5.11,1.19,-1.75,-0.212036,0.142862,-1.0453,-0.16254,-0.23744,0.33614
3.28016,0,0,6.71984,6.71984,13.2802,13.2802,-1.82231,-1.2044,71.4801,-0.149989,0.0990598,-0.0336149,0,0,0,4.97,0.7,-1.54,-0.212036,0.142862,-1.0453,-0.16744,-0.24248,0.33516
3.27602,0,0,6.72398,6.72398,13.276,13.276,-1.82001,-1.20499,71.4793,-0.000186632,-0.0446432,0.117613,1,0,0,5.74,0.84,-1.4,-0.06161,-0.000732,-0.895236,-0.16744,-0.24248,0.33516
3.27438,0,0,6.72562,6.72562,13.2744,13.2744,-1.8191,-1.20542,71.4794,-0.000179082,-0.0446273,0.117613,1,0,0,4.97,0.91,-0.77,-0.06161,-0.000732,-0.895236,-0.16744,-0.24248,0.33516
3.22791,0,0,6.77209,6.77209,13.2279,13.2279,-1.79328,-1.37856,71.52,-0.180237,-0.0355039,-0.0234626,0,0,0,4.9,0.77,-0.91,-0.245464,0.00793,-1.03517,-0.16744,-0.24248,0.33516
3.18172,0,0,6.81828,6.81828,13.1817,13.1817,-1.76762,-1.54752,71.5596,-0.177289,-0.0350541,-0.023524,0,0,0,4.9,1.47,-1.12,-0.245464,0.00793,-1.03517,-0.16744,-0.24248,0.33516
2.83508,0,0,7.16492,7.16492,12.8351,12.8351,-1.57505,-1.6126,71.5062,-0.091235,-0.134648,-0.0201377,0,0,0,4.9,1.33,-0.7,-0.160186,-0.094916,-1.03188,-0.16744,-0.24248,0.33516
2.49842,0,0,7.50158,7.50158,12.4984,12.4984,-1.38801,-1.67821,71.4533,-0.0900904,-0.131385,-0.0200862,0,0,0,4.62,0.7,-0.77,-0.160186,-0.094916,-1.03188,-0.16744,-0.24248,0.33516
2.49746,0,0,7.50254,7.50254,12.4975,12.4975,-1.38748,-1.67853,71.4535,-0.0167076,-0.152626,0.165566,1,0,0,4.76,0.98,-0.77,-0.086498,-0.116144,-0.847656,-0.16744,-0.24248,0.33516
2.49834,0,0,7.50166,7.50166,12.4983,12.4983,-1.38797,-1.67858,71.4544,-0.0167066,-0.152634,0.165566,1,0,0,4.2,1.12,-0.35,-0.086498,-0.116144,-0.847656,-0.16688,-0.24696,0.33502
2.49744,0,0,7.50256,7.50256,12.4974,12.4974,-1.38746,-1.67959,71.4556,-0.244596,-0.190118,0.248433,1,0,0,4.76,0.56,-0.21,-0.31537,-0.153598,-0.765428,-0.16688,-0.24696,0.33502
2.49653,0,0,7.50347,7.50347,12.4965,12.4965,-1.38696,-1.6806,71.4568,-0.244579,-0.190109,0.248433,1,0,0,4.76,0.56,-0.21,-0.31537,-0.153598,-0.765428,-0.16688,-0.24696,0.33502
2.49499,0,0,7.50501,7.50501,12.495,12.495,-1.3861,-1.68076,71.4586,-0.15249,-0.12842,0.213761,1,0,0,4.97,1.05,0.21,-0.222894,-0.091988,-0.799832,-0.16688,-0.24696,0.33502
2.49344,0,0,7.50656,7.50656,12.4934,12.4934,-1.38525,-1.68091,71.4605,-0.152487,-0.128406,0.213762,1,0,0,4.97,1.05,0.21,-0.222894,-0.091988,-0.799832,-0.16688,-0.24696,0.33502
2.49549,0,0,7.50451,7.50451,12.4955,12.4955,-1.38638,-1.67987,71.4622,-0.108406,-0.174956,0.162492,1,0,0,3.85,1.75,0.14,-0.178608,-0.13847,-0.850706,-0.16688,-0.24696,0.33502
2.49753,0,0,7.50247,7.50247,12.4975,12.4975,-1.38752,-1.67884,71.4639,-0.108424,-0.174975,0.162492,1,0,0,3.85,1.75,0.14,-0.178608,-0.13847,-0.850706,-0.16688,-0.24696,0.33502
2.49844,0,0,7.50156,7.50156,12.4984,12.4984,-1.38802,-1.67936,71.4654,-0.177419,-0.194769,0.244621,1,0,0,4.2,0.84,0,-0.247904,-0.158234,-0.76921,-0.16688,-0.24696,0.33502
2.49935,0,0,7.50065,7.50065,12.4994,12.4994,-1.38853,-1.67988,71.4669,-0.17741,-0.194778,0.244621,1,0,0,4.2,0.84,0,-0.247904,-0.158234,-0.76921,-0.16114,-0.23982,0.33628
2.5018,0,0,7.4982,7.4982,12.5018,12.5018,-1.38989,-1.68006,71.4678,-0.0700131,-0.0764606,0.315561,1,0,0,3.71,1.05,-0.35,-0.140056,-0.040016,-0.698816,-0.16114,-0.23982,0.33628
2.50425,0,0,7.49575,7.49575,12.5043,12.5043,-1.39125,-1.68023,71.4687,-0.07001,-0.0764843,0.315561,1,0,0,3.71,1.05,-0.35,-0.140056,-0.040016,-0.698816,-0.16114,-0.23982,0.33628
2.50622,0,0,7.49378,7.49378,12.5062,12.5062,-1.39234,-1.67935,71.4689,0.122165,-0.0641685,0.409862,1,0,0,3.85,1.68,-0.77,0.052948,-0.027694,-0.605242,-0.16114,-0.23982,0.33628
2.50818,0,0,7.49182,7.49182,12.5082,12.5082,-1.39343,-1.67847,71.4691,0.12215,-0.0641876,0.409862,1,0,0,3.85,1.68,-0.77,0.052948,-0.027694,-0.605242,-0.16114,-0.23982,0.33628
2.51125,0,0,7.48875,7.48875,12.5112,12.5112,-1.39514,-1.6782,71.4689,0.151666,-0.0189083,0.287036,1,0,0,3.5,1.33,-0.98,0.082594,0.017568,-0.72712,-0.16114,-0.23982,0.33628
2.51274,0,0,7.48726,7.48726,12.5127,12.5127,-1.39597,-1.67805,71.4687,0.235124,-0.253406,-0.0575888,1,0,0,3.99,1.26,-0.98,0.166408,-0.216672,-1.06909,-0.16114,-0.23982,0.33628
2.51465,0,0,7.48535,7.48535,12.5146,12.5146,-1.39703,-1.67815,71.4678,0.235126,-0.253425,-0.0575893,1,0,0,3.85,1.12,-1.4,0.166408,-0.216672,-1.06909,-0.16114,-0.23982,0.33628
2.04995,0,0,7.95005,7.95005,12.05,12.05,-1.13886,-1.51721,71.3468,0.1327,-0.158916,-0.0430263,0,0,0,4.06,0.98,-1.82,0.066368,-0.126758,-1.05481,-0.1631,-0.24136,0.3402
2.05229,0,0,7.94771,7.94771,12.0523,12.0523,-1.14016,-1.51756,71.3453,-0.0851182,0.13612,-0.287817,1,0,0,3.71,0.98,-1.75,-0.152378,0.167994,-1.29771,-0.1631,-0.24136,0.3402
2.05235,0,0,7.94765,7.94765,12.0523,12.0523,-1.14019,-1.51863,71.3433,-0.0850995,0.136119,-0.287818,1,0,0,4.41,0.56,-2.03,-0.152378,0.167994,-1.29771,-0.1631,-0.24136,0.3402
2.05264,0,0,7.94736,7.94736,12.0526,12.0526,-1.14036,-1.51935,71.3415,0.0838996,-0.0457305,-0.158476,1,0,0,4.34,0.77,-1.96,0.017324,-0.013664,-1.16937,-0.1631,-0.24136,0.3402
2.05138,0,0,7.94862,7.94862,12.0514,12.0514,-1.13965,-1.51898,71.34,0.0838932,-0.0457182,-0.158476,1,0,0,4.83,1.4,-1.75,0.017324,-0.013664,-1.16937,-0.1631,-0.24136,0.3402
2.00501,0,0,7.99499,7.99499,12.005,12.005,-1.11389,-1.51522,71.3504,0.000731432,-0.0162027,-0.000845524,0,0,0,4.55,1.05,-1.89,-0.066124,0.015372,-1.01297,-0.1631,-0.24136,0.3402
1.95901,0,0,8.04099,8.04099,11.959,11.959,-1.08834,-1.5115,71.3609,0.000666448,-0.015757,-0.000835239,0,0,0,4.83,1.12,-1.82,-0.066124,0.015372,-1.01297,-0.1631,-0.24136,0.3402
2.04351,0,0,7.95649,7.95649,12.0435,12.0435,-1.13529,-1.2739,71.3664,0.251641,0.060484,-0.0212828,0,0,0,4.97,1.19,-1.82,0.190076,0.092354,-1.03334,-0.1631,-0.24136,0.3402
2.12388,0,0,7.87612,7.87612,12.1239,12.1239,-1.17993,-1.03994,71.3665,0.247558,0.0597035,-0.0212161,0,0,0,5.04,1.05,-1.19,0.190076,0.092354,-1.03334,-0.16758,-0.24052,0.33446
2.10786,0,0,7.89214,7.89214,12.1079,12.1079,-1.17103,-0.899664,71.357,0.149258,0.0140604,-0.0901456,0,0,0,5.32,1.19,-1.05,0.093818,0.046604,-1.10178,-0.16758,-0.24052,0.33446
2.09342,0,0,7.90658,7.90658,12.0934,12.0934,-1.16301,-0.762,71.3482,0.146856,0.0141996,-0.0901079,0,0,0,5.18,1.12,-0.7,0.093818,0.046604,-1.10178,-0.16758,-0.24052,0.33446
2.09134,0,0,7.90866,7.90866,12.0913,12.0913,-1.16185,-0.76243,71.3487,0.138967,0.0890835,-0.107812,1,0,0,5.11,0.91,-0.63,0.085888,0.12139,-1.11935,-0.16758,-0.24052,0.33446
2.08994,0,0,7.91006,7.91006,12.0899,12.0899,-1.16108,-0.761777,71.3494,0.138955,0.089097,-0.107812,1,0,0,4.9,1.54,-0.42,0.085888,0.12139,-1.11935,-0.16758,-0.24052,0.33446
1.64778,0,0,8.35222,8.35222,11.6478,11.6478,-0.915434,-0.66722,71.2395,0.0666003,-0.160274,-0.0673864,0,0,0,5.25,1.26,-0.21,0.014884,-0.132004,-1.07933,-0.16758,-0.24052,0.33446
1.21849,0,0,8.78151,8.78151,11.2185,11.2185,-0.676939,-0.575543,71.1315,0.0650004,-0.156113,-0.0673112,0,0,0,5.04,0.91,-0.07,0.014884,-0.132004,-1.07933,-0.16758,-0.24052,0.33446
1.21575,0,0,8.78425,8.78425,11.2158,11.2158,-0.675417,-0.576083,71.133,0.107287,0.0841372,-0.124236,1,0,0,5.32,0.84,0,0.05734,0.10797,-1.13582,-0.16758,-0.24052,0.33446
1.21527,0,0,8.78473,8.78473,11.2153,11.2153,-0.675148,-0.575066,71.1348,0.107269,0.0841418,-0.124236,1,0,0,4.62,1.75,0.21,0.05734,0.10797,-1.13582,-0.16688,-0.24108,0.3409
1.21321,0,0,8.78679,8.78679,11.2132,11.2132,-0.674004,-0.575245,71.1366,-0.023082,-0.0689851,-0.128047,1,0,0,5.11,1.05,0.14,-0.073566,-0.045018,-1.1396,-0.16688,-0.24108,0.3409
1.21294,0,0,8.78706,8.78706,11.2129,11.2129,-0.673858,-0.574349,71.1383,-0.0230976,-0.0689826,-0.128047,1,0,0,4.55,1.68,0.14,-0.073566,-0.045018,-1.1396,-0.16688,-0.24108,0.3409
1.21111,0,0,8.78889,8.78889,11.2111,11.2111,-0.672841,-0.57357,71.1403,0.209898,-0.0781243,-0.0846457,1,0,0,5.04,1.61,0.28,0.16043,-0.054168,-1.09654,-0.16688,-0.24108,0.3409
1.2113,0,0,8.7887,8.7887,11.2113,11.2113,-0.672943,-0.573991,71.1418,0.209906,-0.0781261,-0.0846458,1,0,0,4.41,0.91,0,0.16043,-0.054168,-1.09654,-0.16688,-0.24108,0.3409
1.21148,0,0,8.78852,8.78852,11.2115,11.2115,-0.673043,-0.574652,71.1431,0.317797,-0.00216503,-0.149932,1,0,0,4.41,0.77,-0.07,0.268766,0.021716,-1.16132,-0.16688,-0.24108,0.3409
1.21188,0,0,8.78812,8.78812,11.2119,11.2119,-0.673267,-0.574478,71.1444,0.317794,-0.00216894,-0.149932,1,0,0,4.34,1.26,-0.14,0.268766,0.021716,-1.16132,-0.16688,-0.24108,0.3409
1.2134,0,0,8.7866,8.7866,11.2134,11.2134,-0.674113,-0.574188,71.1454,0.0986282,0.0804961,-0.115383,1,0,0,3.99,1.33,-0.28,0.048678,0.10431,-1.12704,-0.16688,-0.24108,0.3409
1.21357,0,0,8.78643,8.78643,11.2136,11.2136,-0.674206,-0.57462,71.146,0.0986358,0.0804945,-0.115383,1,0,0,4.41,0.91,-0.56,0.048678,0.10431,-1.12704,-0.16506,-0.23982,0.32732
1.21508,0,0,8.78492,8.78492,11.2151,11.2151,-0.675044,-0.573621,71.1462,0.0145503,-0.0241828,-0.228742,1,0,0,3.99,1.75,-0.7,-0.035746,-0.000244,-1.23952,-0.16506,-0.23982,0.32732
1.21545,0,0,8.78455,8.78455,11.2154,11.2154,-0.675249,-0.574187,71.1456,0.0145601,-0.0241863,-0.228742,1,0,0,4.34,0.84,-1.26,-0.035746,-0.000244,-1.23952,-0.16506,-0.23982,0.32732
1.2165,0,0,8.7835,8.7835,11.2165,11.2165,-0.675833,-0.574629,71.1453,0.0240437,0.029295,-0.294028,1,0,0,4.13,0.91,-1.05,-0.02623,0.053192,-1.3043,-0.16506,-0.23982,0.32732
1.21889,0,0,8.78111,8.78111,11.2189,11.2189,-0.677164,-0.574595,71.1449,0.0240431,0.0292718,-0.294028,1,0,0,3.71,1.19,-1.12,-0.02623,0.053192,-1.3043,-0.16506,-0.23982,0.32732
1.22151,0,0,8.77849,8.77849,11.2215,11.2215,-0.678616,-0.574684,71.1441,0.000233501,0.0810282,-0.239316,1,0,0,3.64,1.12,-1.33,-0.050142,0.10492,-1.25001,-0.16506,-0.23982,0.32732
1.22367,0,0,8.77633,8.77633,11.2237,11.2237,-0.679819,-0.575132,71.1433,0.000241316,0.0810072,-0.239317,1,0,0,3.78,0.91,-1.33,-0.050142,0.10492,-1.25001,-0.16506,-0.23982,0.32732
1.22582,0,0,8.77418,8.77418,11.2258,11.2258,-0.681013,-0.575112,71.1417,0.102775,-0.11637,-0.161245,1,0,0,3.78,1.19,-1.82,0.052826,-0.092232,-1.17254,-0.16506,-0.23982,0.32732
1.22797,0,0,8.77203,8.77203,11.228,11.228,-0.682207,-0.575092,71.1401,0.102775,-0.116391,-0.161245,1,0,0,3.78,1.19,-1.82,0.052826,-0.092232,-1.17254,-0.1631,-0.23842,0.33096
1.22923,0,0,8.77077,8.77077,11.2292,11.2292,-0.682903,-0.575548,71.1386,0.227548,-0.0999164,-0.21731,1,0,0,4.06,0.91,-1.75,0.17812,-0.075762,-1.22817,-0.1631,-0.23842,0.33096
1.23048,0,0,8.76952,8.76952,11.2305,11.2305,-0.683599,-0.576004,71.1371,0.227556,-0.0999285,-0.21731,1,0,0,4.06,0.91,-1.75,0.17812,-0.075762,-1.22817,-0.1631,-0.23842,0.33096
1.2315,0,0,8.7685,8.7685,11.2315,11.2315,-0.684168,-0.575627,71.1353,0.165349,0.0772675,-0.169606,1,0,0,4.13,1.4,-1.89,0.115656,0.10126,-1.18084,-0.1631,-0.23842,0.33096
1.23253,0,0,8.76747,8.76747,11.2325,11.2325,-0.684736,-0.57525,71.1336,0.165342,0.0772576,-0.169606,1,0,0,4.13,1.4,-1.89,0.115656,0.10126,-1.18084,-0.1631,-0.23842,0.33096
1.26534,0,0,8.73466,8.73466,11.2653,11.2653,-0.702968,-0.481606,71.141,0.100293,0.0247911,-0.0556214,0,0,0,4.34,1.05,-1.47,0.051972,0.049166,-1.06774,-0.1631,-0.23842,0.33096
1.2978,0,0,8.7022,8.7022,11.2978,11.2978,-0.720998,-0.38956,71.1482,0.0986861,0.0244763,-0.0556131,0,0,0,4.34,1.05,-1.47,0.051972,0.049166,-1.06774,-0.1631,-0.23842,0.33096
1.33272,0,0,8.66728,8.66728,11.3327,11.3327,-0.740401,-0.311342,71.159,0.0824997,0.0231606,-0.0315112,0,0,0,4.55,1.12,-1.05,0.037088,0.04819,-1.04383,-0.1631,-0.23842,0.33096
1.36715,0,0,8.63285,8.63285,11.3671,11.3671,-0.759527,-0.234448,71.1696,0.0811577,0.0228267,-0.0315092,0,0,0,4.55,1.12,-1.05,0.037088,0.04819,-1.04383,-0.1631,-0.23842,0.33096
1.33724,0,0,8.66276,8.66276,11.3372,11.3372,-0.742913,-0.205598,71.1712,0.0273219,-0.00704871,-0.00961859,0,0,0,4.83,0.84,-0.84,-0.01647,0.018056,-1.02212,-0.16562,-0.24276,0.32984
1.05855,0,0,8.94145,8.94145,11.0586,11.0586,-0.588085,0.0202487,71.0801,0.219337,-0.0803095,-0.0480637,0,0,0,5.18,0.98,-0.77,0.180316,-0.057828,-1.0603,-0.16562,-0.24276,0.32984
0.787981,0,0,9.21202,9.21202,10.788,10.788,-0.437767,0.241859,70.99,0.215469,-0.077686,-0.0480491,0,0,0,5.18,0.98,-0.77,0.180316,-0.057828,-1.0603,-0.16562,-0.24276,0.32984
1.01397,0,0,8.98603,8.98603,11.014,11.014,-0.563315,0.124194,71.075,-0.0956677,0.0654536,0.0638215,0,0,0,5.11,1.61,-0.42,-0.1342,0.087352,-0.949282,-0.16562,-0.24276,0.32984
1.23337,0,0,8.76663,8.76663,11.2334,11.2334,-0.685203,0.00911661,71.1591,-0.0936592,0.0633264,0.0638006,0,0,0,5.11,1.61,-0.42,-0.1342,0.087352,-0.949282,-0.16562,-0.24276,0.32984
1.4106,0,0,8.5894,8.5894,11.4106,11.4106,-0.783669,-0.066237,71.2287,-0.0616082,0.0559901,0.0196394,0,0,0,5.11,1.4,0.14,-0.103334,0.08174,-0.99308,-0.16562,-0.24276,0.32984
1.58278,0,0,8.41722,8.41722,11.5828,11.5828,-0.879321,-0.139876,71.2975,-0.0603229,0.0543209,0.0196129,0,0,0,5.11,1.4,0.14,-0.103334,0.08174,-0.99308,-0.16562,-0.24276,0.32984
1.53812,0,0,8.46188,8.46188,11.5381,11.5381,-0.854509,0.0305779,71.2764,0.155498,0.00175084,0.0740885,0,0,0,4.55,1.33,0.07,0.116388,0.028792,-0.939034,-0.1652,-0.24598,0.3374
1.9029,0,0,8.0971,8.0971,11.9029,11.9029,-1.05717,-0.0582375,71.3981,-0.0606544,0.118998,0.0521443,0,0,0,5.11,1.33,0,-0.102236,0.14945,-0.96075,-0.1652,-0.24598,0.3374
2.2578,0,0,7.7422,7.7422,12.2578,12.2578,-1.25433,-0.144674,71.5187,-0.0591458,0.115557,0.0520722,0,0,0,5.11,1.33,0,-0.102236,0.14945,-0.96075,-0.1652,-0.24598,0.3374
2.25616,0,0,7.74384,7.74384,12.2562,12.2562,-1.25342,-0.145207,71.5198,-0.165801,-0.0985151,0.122276,1,0,0,4.97,0.84,-0.21,-0.209352,-0.064416,-0.891088,-0.1652,-0.24598,0.3374
2.25453,0,0,7.74547,7.74547,12.2545,12.2545,-1.25252,-0.14574,71.521,-0.165792,-0.0984992,0.122276,1,0,0,4.97,0.84,-0.21,-0.209352,-0.064416,-0.891088,-0.1652,-0.24598,0.3374
2.48313,0,0,7.51687,7.51687,12.4831,12.4831,-1.37951,-0.162184,71.5993,-0.000648566,0.0766128,0.0608735,0,0,0,4.83,1.26,-0.63,-0.043798,0.112728,-0.951966,-0.1652,-0.24598,0.3374
2.70572,0,0,7.29428,7.29428,12.7057,12.7057,-1.50318,-0.177878,71.6768,-0.000374649,0.0744553,0.0608183,0,0,0,4.83,1.26,-0.63,-0.043798,0.112728,-0.951966,-0.1652,-0.24598,0.3374
2.78948,0,0,7.21052,7.21052,12.7895,12.7895,-1.54971,-0.344489,71.743,-0.15394,0.0109927,0.049841,0,0,0,4.69,1.12,-1.19,-0.200934,0.050142,-0.962824,-0.1652,-0.24598,0.3374
2.87082,0,0,7.12918,7.12918,12.8708,12.8708,-1.5949,-0.508113,71.8068,-0.151085,0.0102049,0.0497982,0,0,0,4.69,1.12,-1.19,-0.200934,0.050142,-0.962824,-0.16702,-0.24794,0.336
2.87141,0,0,7.12859,7.12859,12.8714,12.8714,-1.59523,-0.507979,71.8059,-0.070056,-0.186669,0.302334,1,0,0,4.27,1.26,-1.4,-0.11956,-0.146522,-0.712236,-0.16702,-0.24794,0.336
2.872,0,0,7.128,7.128,12.872,12.872,-1.59556,-0.507845,71.805,-0.0700584,-0.186675,0.302334,1,0,0,4.27,1.26,-1.4,-0.11956,-0.146522,-0.712236,-0.16702,-0.24794,0.336
2.65597,0,0,7.34403,7.34403,12.656,12.656,-1.47554,-0.736526,71.8029,-0.247203,-0.107762,0.0123114,0,0,0,3.85,0.49,-1.4,-0.301462,-0.069784,-1.00003,-0.16702,-0.24794,0.336
2.65565,0,0,7.34435,7.34435,12.6556,12.6556,-1.47536,-0.736397,71.8018,0.258176,-0.043154,-0.200021,1,0,0,4.55,1.26,-1.54,0.206058,-0.005246,-1.21073,-0.16702,-0.24794,0.336
2.65735,0,0,7.34265,7.34265,12.6574,12.6574,-1.47631,-0.736984,71.8007,0.258186,-0.0431705,-0.200021,1,0,0,3.92,0.84,-1.54,0.206058,-0.005246,-1.21073,-0.16702,-0.24794,0.336
2.66017,0,0,7.33983,7.33983,12.6602,12.6602,-1.47787,-0.7371,71.7993,0.13573,-0.234448,-0.263217,1,0,0,3.57,1.12,-1.68,0.083082,-0.196298,-1.27344,-0.16702,-0.24794,0.336
2.66255,0,0,7.33745,7.33745,12.6626,12.6626,-1.4792,-0.73637,71.7983,0.135718,-0.234471,-0.263218,1,0,0,3.71,1.61,-1.47,0.083082,-0.196298,-1.27344,-0.16702,-0.24794,0.336
2.66448,0,0,7.33552,7.33552,12.6645,12.6645,-1.48027,-0.735879,71.7972,0.0705927,-0.219224,-0.164122,1,0,0,3.85,1.47,-1.47,0.01769,-0.181048,-1.1751,-0.1659,-0.24346,0.32774
2.66641,0,0,7.33359,7.33359,12.6664,12.6664,-1.48134,-0.735869,71.7961,0.0511549,0.177669,-0.0834679,1,0,0,3.85,1.19,-1.54,-0.00183,0.215452,-1.09507,-0.1659,-0.24346,0.32774
2.66836,0,0,7.33164,7.33164,12.6684,12.6684,-1.48242,-0.735115,71.796,0.0511417,0.17765,-0.0834683,1,0,0,3.85,1.61,-0.91,-0.00183,0.215452,-1.09507,-0.1659,-0.24346,0.32774
2.67031,0,0,7.32969,7.32969,12.6703,12.6703,-1.48351,-0.735319,71.7958,-0.162913,0.0163017,-0.110149,1,0,0,3.85,1.05,-0.98,-0.216794,0.05429,-1.12155,-0.1659,-0.24346,0.32774
2.67181,0,0,7.32819,7.32819,12.6718,12.6718,-1.48434,-0.734926,71.7956,-0.162919,0.0162872,-0.110149,1,0,0,3.99,1.4,-0.98,-0.216794,0.05429,-1.12155,-0.1659,-0.24346,0.32774
2.67399,0,0,7.32601,7.32601,12.674,12.674,-1.48555,-0.734413,71.7954,0.0838091,0.0895421,-0.11519,1,0,0,3.78,1.47,-0.98,0.030988,0.12749,-1.12655,-0.1659,-0.24346,0.32774
2.67482,0,0,7.32518,7.32518,12.6748,12.6748,-1.48601,-0.734611,71.7955,0.0838126,0.0895341,-0.11519,1,0,0,4.2,1.05,-0.84,0.030988,0.12749,-1.12655,-0.1659,-0.24346,0.32774
2.67498,0,0,7.32502,7.32502,12.675,12.675,-1.4861,-0.735165,71.7957,0.0896535,0.085136,-0.232361,1,0,0,4.41,0.84,-0.77,0.036844,0.123098,-1.24281,-0.1659,-0.24346,0.32774
2.67538,0,0,7.32462,7.32462,12.6754,12.6754,-1.48632,-0.734143,71.7967,0.0896357,0.085132,-0.23236,1,0,0,4.34,1.75,-0.28,0.036844,0.123098,-1.24281,-0.16548,-0.24234,0.33236
2.67557,0,0,7.32443,7.32443,12.6756,12.6756,-1.48643,-0.734191,71.798,0.0670402,0.0375008,-0.136092,1,0,0,4.41,1.12,-0.14,0.014152,0.075518,-1.14729,-0.16548,-0.24234,0.33236
2.67643,0,0,7.32357,7.32357,12.6764,12.6764,-1.48691,-0.733996,71.7993,0.0670368,0.0374925,-0.136092,1,0,0,4.2,1.26,-0.07,0.014152,0.075518,-1.14729,-0.16548,-0.24234,0.33236
2.66133,0,0,7.33867,7.33867,12.6613,12.6613,-1.47852,-0.652179,71.8019,0.0835888,0.00478626,-0.0502529,0,0,0,4.34,1.54,0,0.032208,0.0427,-1.06213,-0.16548,-0.24234,0.33236
2.64636,0,0,7.35364,7.35364,12.6464,12.6464,-1.4702,-0.57313,71.8048,0.0822092,0.00493098,-0.0502344,0,0,0,4.55,0.77,0.21,0.032208,0.0427,-1.06213,-0.16548,-0.24234,0.33236
2.37363,0,0,7.62637,7.62637,12.3736,12.3736,-1.31869,-0.523589,71.7466,0.0322644,-0.0994087,-0.0602436,0,0,0,4.48,1.12,0.14,-0.01708,-0.064172,-1.07214,-0.16548,-0.24234,0.33236
2.10653,0,0,7.89347,7.89347,12.1065,12.1065,-1.1703,-0.474632,71.6889,0.03141,-0.0968197,-0.0601799,0,0,0,5.04,1.54,-0.07,-0.01708,-0.064172,-1.07214,-0.16548,-0.24234,0.33236
2.10468,0,0,7.89532,7.89532,12.1047,12.1047,-1.16927,-0.474472,71.6597,0.0525457,0.14391,-0.12276,1,0,0,4.9,1.61,-17.92,0.004148,0.17629,-1.13423,-0.16548,-0.24234,0.33236
2.10463,0,0,7.89537,7.89537,12.1046,12.1046,-1.16924,-0.474287,71.661,0.0525425,0.143911,-0.12276,1,0,0,4.48,1.26,-0.14,0.004148,0.17629,-1.13423,-0.168,-0.24038,0.33404
1.73126,0,0,8.26874,8.26874,11.7313,11.7313,-0.96181,-0.233183,71.5411,0.200192,-0.104784,0.0873291,0,0,0,4.69,2.17,-0.28,0.156648,-0.075762,-0.925858,-0.168,-0.24038,0.33404
1.36837,0,0,8.63163,8.63163,11.3684,11.3684,-0.760205,0.00125743,71.4226,0.1961,-0.101266,0.0873903,0,0,0,4.69,0.91,-0.42,0.156648,-0.075762,-0.925858,-0.168,-0.24038,0.33404
1.18632,0,0,8.81368,8.81368,11.1863,11.1863,-0.659067,0.320773,71.334,0.310916,-0.0301328,0.0329303,0,0,0,4.83,1.33,-0.63,0.27755,-0.006466,-0.979904,-0.168,-0.24038,0.33404
1.01003,0,0,8.98997,8.98997,11.01,11.01,-0.561127,0.63481,71.2461,0.305435,-0.0284231,0.0329028,0,0,0,4.83,1.33,-0.63,0.27755,-0.006466,-0.979904,-0.168,-0.24038,0.33404
0.809067,0,0,9.19093,9.19093,10.8091,10.8091,-0.449482,0.922247,71.1544,0.273084,-0.0399081,0.0381386,0,0,0,5.25,1.26,-1.12,0.2501,-0.019886,-0.974658,-0.168,-0.24038,0.33404
0.614262,0,0,9.38574,9.38574,10.6143,10.6143,-0.341257,1.20465,71.0634,0.268156,-0.038019,0.0380601,0,0,0,5.25,1.26,-1.12,0.2501,-0.019886,-0.974658,-0.168,-0.24038,0.33404
0.701904,0,0,9.2981,9.2981,10.7019,10.7019,-0.389947,1.38362,71.0557,0.180479,0.0550474,0.0330662,0,0,0,5.11,1.82,-1.26,0.165188,0.073932,-0.979538,-0.168,-0.24038,0.33404
0.788319,0,0,9.21168,9.21168,10.7883,10.7883,-0.437955,1.55964,71.0479,0.177408,0.0542103,0.0329813,0,0,0,5.11,1.82,-1.26,0.165188,0.073932,-0.979538,-0.168,-0.24038,0.33404
0.786739,0,0,9.21326,9.21326,10.7867,10.7867,-0.437077,1.55944,71.0466,0.0663739,0.0444555,-0.120089,1,0,0,4.97,1.05,-1.61,0.05368,0.064172,-1.13143,-0.16128,-0.24066,0.33054
1.09263,0,0,8.90737,8.90737,11.0926,11.0926,-0.607016,1.44761,71.1449,-0.0863263,0.0970579,0.0573495,0,0,0,5.18,0.49,-1.96,-0.101626,0.119682,-0.955382,-0.16128,-0.24066,0.33054
1.39008,0,0,8.60992,8.60992,11.3901,11.3901,-0.772268,1.33838,71.2424,-0.0844204,0.0941742,0.0573611,0,0,0,5.18,0.49,-1.96,-0.101626,0.119682,-0.955382,-0.16128,-0.24066,0.33054
1.3903,0,0,8.6097,8.6097,11.3903,11.3903,-0.77239,1.33804,71.2409,-0.125598,0.0747539,0.17822,1,0,0,4.41,0.98,-1.75,-0.142984,0.100284,-0.835456,-0.16128,-0.24066,0.33054
1.39052,0,0,8.60948,8.60948,11.3905,11.3905,-0.772511,1.3377,71.2394,-0.125592,0.0747518,0.17822,1,0,0,4.41,0.98,-1.75,-0.142984,0.100284,-0.835456,-0.16128,-0.24066,0.33054
1.39029,0,0,8.60971,8.60971,11.3903,11.3903,-0.772383,1.33652,71.2379,-0.0898549,-0.0335724,0.268464,1,0,0,4.55,0.49,-1.75,-0.107116,-0.00793,-0.745908,-0.16128,-0.24066,0.33054
1.39006,0,0,8.60994,8.60994,11.3901,11.3901,-0.772255,1.33535,71.2364,-0.0898344,-0.0335702,0.268465,1,0,0,4.55,0.49,-1.75,-0.107116,-0.00793,-0.745908,-0.16128,-0.24066,0.33054
1.39025,0,0,8.60975,8.60975,11.3903,11.3903,-0.772362,1.33537,71.2355,-0.185201,0.153648,0.310759,1,0,0,4.41,1.19,-1.4,-0.202886,0.179096,-0.70394,-0.16128,-0.24066,0.33054
1.39045,0,0,8.60955,8.60955,11.3904,11.3904,-0.77247,1.3354,71.2346,-0.185202,0.153646,0.310759,1,0,0,4.41,1.19,-1.4,-0.202886,0.179096,-0.70394,-0.16646,-0.2422,0.33516
1.39196,0,0,8.60804,8.60804,11.392,11.392,-0.77331,1.33615,71.2345,-0.243528,0.322533,0.265514,1,0,0,3.99,1.61,-0.98,-0.261446,0.347822,-0.748836,-0.16646,-0.2422,0.33516
1.39347,0,0,8.60653,8.60653,11.3935,11.3935,-0.774151,1.33691,71.2343,-0.243541,0.322518,0.265513,1,0,0,3.99,1.61,-0.98,-0.261446,0.347822,-0.748836,-0.16646,-0.2422,0.33516
1.39338,0,0,8.60662,8.60662,11.3934,11.3934,-0.7741,1.33719,71.2348,-0.0573084,-0.0555852,0.148958,1,0,0,4.48,1.33,-0.56,-0.07442,-0.02989,-0.864492,-0.16646,-0.2422,0.33516
1.39329,0,0,8.60671,8.60671,11.3933,11.3933,-0.77405,1.33748,71.2353,-0.0573134,-0.0555843,0.148958,1,0,0,4.48,1.33,-0.56,-0.07442,-0.02989,-0.864492,-0.16646,-0.2422,0.33516
1.39362,0,0,8.60638,8.60638,11.3936,11.3936,-0.774232,1.33813,71.2366,-0.0374012,0.0733784,0.182276,1,0,0,4.34,1.54,-0.14,-0.054412,0.098942,-0.83143,-0.16646,-0.2422,0.33516
0.567383,0,0,9.43262,9.43262,10.5674,10.5674,-0.315213,1.38983,71.033,-0.00817472,-0.310884,0.0317192,0,0,0,4.2,2.1,-0.28,-0.024156,-0.292922,-0.98088,-0.16646,-0.2422,0.33516
-0.237433,0,0,10.2374,10.2374,9.76257,9.76257,0.131907,1.43826,70.833,-0.00901975,-0.303082,0.0317108,0,0,0,4.13,1.26,0.14,-0.024156,-0.292922,-0.98088,-0.16646,-0.2422,0.33516
-0.53213,0,0,10.5321,10.5321,9.46787,9.46787,0.295628,1.39215,70.767,-0.0672573,-0.119478,-0.000615433,0,0,0,3.78,1.26,0.28,-0.083448,-0.112362,-1.01297,-0.16408,-0.23548,0.33334
