pid_x,pid_y,pid_z,front_left_speed,front_right_speed,back_left_speed,back_right_speed,orientation_x,orientation_y,orientation_z,acceleration_x,acceleration_y,acceleration_z,accel_rejected,mag_rejected,gyro_x,gyro_y,gyro_z,accel_x,accel_y,accel_z,mag_x,mag_y,mag_z
-0.0124478,0,0,15.0124,15.0124,14.9876,14.9876,0.0138309,0.0588735,0.0202095,0.0459098,-0.0120384,-0.00264353,0,0,3.29,0.1925,-1.0325,0.006832,-0.000122,-1.01528,-0.063,0.10934,0.45304
-0.0277003,0,0,15.0277,15.0277,14.9723,14.9723,0.0307781,0.121826,0.0364112,0.0483342,-0.0145515,0.00165782,0,0,3.36,0.5425,-0.875,0.01037,-0.002928,-1.01101,-0.063,0.10934,0.45304
-0.0409351,0,0,15.0409,15.0409,14.9591,14.9591,0.0454834,0.184448,0.0510181,0.048699,-0.0125851,0.00165473,0,0,3.395,0.1925,-0.8225,0.011834,-0.00122,-1.01101,-0.063,0.10934,0.45304
-0.0540701,0,0,15.0541,15.0541,14.9459,14.9459,0.0600778,0.245408,0.0654285,0.0476351,-0.0123303,0.0016505,0,0,3.5,0.035,-0.9275,0.011834,-0.00122,-1.01101,-0.063,0.10934,0.45304
-0.0672491,0,0,15.0672,15.0672,14.9328,14.9328,0.0747212,0.303743,0.0811434,0.0456451,-0.0124412,-0.00105955,0,0,3.4825,0.0875,-0.8925,0.010858,-0.001586,-1.0137,-0.063,0.10934,0.45304
-0.0795937,0,0,15.0796,15.0796,14.9204,14.9204,0.0884374,0.362363,0.0952591,0.0459584,-0.0117133,0.000409547,0,0,3.43,0.0175,-0.875,0.0122,-0.001098,-1.01223,-0.063,0.10934,0.45304
-0.0916895,0,0,15.0917,15.0917,14.9083,14.9083,0.101877,0.419769,0.109447,0.0449564,-0.0114787,0.000402319,0,0,3.43,0.07,-0.8225,0.0122,-0.001098,-1.01223,-0.063,0.10934,0.45304
-0.101394,0,0,15.1014,15.1014,14.8986,14.8986,0.11266,0.471654,0.129499,0.0405278,-0.00921439,-0.00587545,0,0,3.465,0.3325,-0.7875,0.008662,0.000976,-1.01846,-0.06524,0.10878,0.45262
-0.112539,0,0,15.1125,15.1125,14.8875,14.8875,0.125043,0.522742,0.148464,0.0400007,-0.0103417,-0.00231813,0,0,3.605,0.105,-1.05,0.009028,-0.000366,-1.01492,-0.06524,0.10878,0.45262
-0.123703,0,0,15.1237,15.1237,14.8763,14.8763,0.137448,0.575448,0.165231,0.0412675,-0.0106137,-0.00454051,0,0,3.465,0.21,-0.945,0.011224,-0.000854,-1.01711,-0.06524,0.10878,0.45262
-0.136381,0,0,15.1364,15.1364,14.8636,14.8636,0.151535,0.62534,0.183692,0.0388175,-0.0119555,-0.00221424,0,0,3.5175,0.245,-0.91,0.009638,-0.00244,-1.0148,-0.06524,0.10878,0.45262
-0.148689,0,0,15.1487,15.1487,14.8513,14.8513,0.16521,0.674181,0.201851,0.0379651,-0.0117169,-0.00222456,0,0,3.4475,0.28,-1.0675,0.009638,-0.00244,-1.0148,-0.06524,0.10878,0.45262
-0.162384,0,0,15.1624,15.1624,14.8376,14.8376,0.180427,0.731577,0.211637,0.0442526,-0.013039,0.00390977,0,0,3.395,0.3675,-0.91,0.016958,-0.004026,-1.0087,-0.06524,0.10878,0.45262
-0.173892,0,0,15.1739,15.1739,14.8261,14.8261,0.193213,0.781329,0.226751,0.0387679,-0.0108619,0.000823867,0,0,3.4825,0.175,-0.945,0.012322,-0.002074,-1.01175,-0.06524,0.10878,0.45262
-0.185081,0,0,15.1851,15.1851,14.8149,14.8149,0.205645,0.829991,0.242489,0.0379186,-0.010645,0.00081117,0,0,3.43,0.3325,-0.98,0.012322,-0.002074,-1.01175,-0.0616,0.10794,0.45332
-0.194904,0,0,15.1949,15.1949,14.8051,14.8051,0.21656,0.875867,0.259507,0.0359032,-0.00911115,-0.000430936,0,0,3.5875,0.2975,-1.05,0.011102,-0.000732,-1.01297,-0.0616,0.10794,0.45332
-0.205559,0,0,15.2056,15.2056,14.7944,14.7944,0.228399,0.919629,0.277633,0.0342891,-0.0101259,-0.00388626,0,0,3.4825,0.35,-1.0675,0.010248,-0.001952,-1.01638,-0.0616,0.10794,0.45332
-0.215635,0,0,15.2156,15.2156,14.7844,14.7844,0.239595,0.962275,0.295785,0.0335449,-0.00993054,-0.00389928,0,0,3.255,0.2625,-1.0325,0.010248,-0.001952,-1.01638,-0.0616,0.10794,0.45332
-0.224851,0,0,15.2249,15.2249,14.7751,14.7751,0.249835,1.00632,0.311385,0.0348415,-0.00901914,-0.00133133,0,0,3.29,0.0875,-1.05,0.012322,-0.00122,-1.01382,-0.0616,0.10794,0.45332
-0.23287,0,0,15.2329,15.2329,14.7671,14.7671,0.258745,1.04399,0.331941,0.0299322,-0.00764245,-0.00306507,0,0,3.4475,0.07,-0.98,0.008052,0,-1.01553,-0.0616,0.10794,0.45332
-0.240562,0,0,15.2406,15.2406,14.7594,14.7594,0.267291,1.08068,0.352576,0.0292919,-0.00749337,-0.00307762,0,0,3.3425,-0.0175,-0.91,0.008052,0,-1.01553,-0.0616,0.10794,0.45332
-0.252157,0,0,15.2522,15.2522,14.7478,14.7478,0.280174,1.12185,0.368576,0.031975,-0.0109324,0.00895644,0,0,3.43,0.0875,-0.98,0.011468,-0.00366,-1.00357,-0.0616,0.10794,0.45332
-0.263742,0,0,15.2637,15.2637,14.7363,14.7363,0.293046,1.16252,0.383111,0.0312654,-0.0107079,0.00894117,0,0,3.57,0.21,-1.015,0.011468,-0.00366,-1.00357,-0.06552,0.10906,0.45542
-0.272528,0,0,15.2725,15.2725,14.7275,14.7275,0.302809,1.19599,0.402802,0.0264295,-0.00870569,-0.00115351,0,0,3.2375,0.0175,-1.1025,0.007198,-0.00183,-1.01358,-0.06552,0.10906,0.45542
-0.278703,0,0,15.2787,15.2787,14.7213,14.7213,0.30967,1.23136,0.419955,0.028485,-0.00614351,-0.00460978,0,0,3.29,-0.1575,-0.8925,0.009882,0.00061,-1.01699,-0.06552,0.10906,0.45542
-0.284754,0,0,15.2848,15.2848,14.7152,14.7152,0.316394,1.26595,0.437075,0.0278813,-0.00602625,-0.00462358,0,0,3.29,-0.1575,-0.8925,0.009882,0.00061,-1.01699,-0.06552,0.10906,0.45542
-0.293569,0,0,15.2936,15.2936,14.7064,14.7064,0.326188,1.30193,0.452921,0.0281039,-0.0084201,0.00163176,0,0,3.4125,0.1925,-0.875,0.010736,-0.001952,-1.01077,-0.06552,0.10906,0.45542
-0.304571,0,0,15.3046,15.3046,14.6954,14.6954,0.338412,1.34221,0.464057,0.03141,-0.0105273,0.00345853,0,0,3.395,0.1575,-0.9275,0.014762,-0.00427,-1.00894,-0.06552,0.10906,0.45542
-0.314906,0,0,15.3149,15.3149,14.6851,14.6851,0.349896,1.38164,0.475292,0.0307221,-0.010327,0.00344097,0,0,3.115,0.175,-0.8575,0.014762,-0.00427,-1.00894,-0.06552,0.10906,0.45542
-0.322218,0,0,15.3222,15.3222,14.6778,14.6778,0.35802,1.4166,0.490381,0.0276824,-0.00737647,-0.00100095,0,0,3.185,0.1225,-0.8225,0.012322,-0.001464,-1.01333,-0.06426,0.10822,0.46032
-0.332734,0,0,15.3327,15.3327,14.6673,14.6673,0.369704,1.44938,0.506513,0.0263815,-0.010348,-0.00347552,0,0,3.29,-0.175,-0.7875,0.01159,-0.004636,-1.01577,-0.06426,0.10822,0.46032
-0.343036,0,0,15.343,15.343,14.657,14.657,0.381151,1.48227,0.522407,0.0258076,-0.0101484,-0.00349151,0,0,3.29,0.315,-0.91,0.01159,-0.004636,-1.01577,-0.06426,0.10822,0.46032
-0.350326,0,0,15.3503,15.3503,14.6497,14.6497,0.389252,1.51163,0.540497,0.0228658,-0.00719822,0.00153504,0,0,3.2725,0.2975,-0.9975,0.00915,-0.00183,-1.01077,-0.06426,0.10822,0.46032
-0.357614,0,0,15.3576,15.3576,14.6424,14.6424,0.397349,1.53976,0.558635,0.0223749,-0.00705704,0.001521,0,0,3.36,-0.035,-0.945,0.00915,-0.00183,-1.01077,-0.06426,0.10822,0.46032
-0.36384,0,0,15.3638,15.3638,14.6362,14.6362,0.404267,1.56942,0.574552,0.0236797,-0.00595943,-0.000706962,0,0,3.43,0.0175,-1.085,0.01098,-0.000854,-1.01297,-0.06426,0.10822,0.46032
-0.369943,0,0,15.3699,15.3699,14.6301,14.6301,0.411047,1.59843,0.590437,0.0231736,-0.00584124,-0.0007218,0,0,3.43,0.0175,-1.085,0.01098,-0.000854,-1.01297,-0.06426,0.10822,0.46032
-0.38502,0,0,15.385,15.385,14.615,14.615,0.4278,1.57999,0.649781,-0.0146512,-0.0149527,-0.0227228,0,0,3.4825,-0.07,-0.91,-0.027328,-0.010248,-1.0348,-0.06426,0.10822,0.46032
-0.399797,0,0,15.3998,15.3998,14.6002,14.6002,0.444219,1.56206,0.714517,-0.0143383,-0.0146662,-0.0227164,0,0,3.4825,-0.07,-0.91,-0.027328,-0.010248,-1.0348,-0.06216,0.105,0.45668
-0.294939,0,0,15.2949,15.2949,14.7051,14.7051,0.327709,1.6051,0.71586,0.0362991,0.0981002,0.0396114,0,0,3.3075,0.07,-1.1025,0.024278,0.104432,-0.97295,-0.06216,0.105,0.45668
-0.192142,0,0,15.1921,15.1921,14.8079,14.8079,0.213491,1.64732,0.717185,0.0355627,0.0961074,0.0395999,0,0,3.3075,0.07,-1.1025,0.024278,0.104432,-0.97295,-0.06216,0.105,0.45668
-0.166474,0,0,15.1665,15.1665,14.8335,14.8335,0.184971,1.47571,0.918459,-0.153634,0.0285626,-0.143141,0,0,3.92,-0.1225,-1.2425,-0.168726,0.037454,-1.15436,-0.06216,0.105,0.45668
-0.167295,0,0,15.1673,15.1673,14.8327,14.8327,0.185884,1.47526,0.91795,-0.153626,0.0285785,-0.143141,1,0,3.92,-0.1225,-1.2425,-0.168726,0.037454,-1.15436,-0.06216,0.105,0.45668
-0.167304,0,0,15.1673,15.1673,14.8327,14.8327,0.185893,1.47565,0.917504,0.0383148,-0.205172,0.227672,1,0,3.4125,0.3675,-1.2075,0.024034,-0.196054,-0.786412,-0.06216,0.105,0.45668
-0.167313,0,0,15.1673,15.1673,14.8327,14.8327,0.185903,1.47603,0.917058,0.038308,-0.205172,0.227671,1,0,3.4125,0.3675,-1.2075,0.024034,-0.196054,-0.786412,-0.06216,0.105,0.45668
-0.165679,0,0,15.1657,15.1657,14.8343,14.8343,0.184088,1.47761,0.917275,0.210426,-0.0389889,0.23013,1,0,2.38,1.0675,-0.8225,0.196908,-0.030012,-0.783972,-0.06216,0.105,0.45668
-0.126416,0,0,15.1264,15.1264,14.8736,14.8736,0.140462,1.26256,1.14333,-0.173361,0.0346253,0.0139552,0,0,1.6275,0.8225,-0.735,-0.192272,0.044286,-0.99857,-0.06356,0.11662,0.46662
-0.0891929,0,0,15.0892,15.0892,14.9108,14.9108,0.0991032,1.05081,1.36915,-0.169666,0.0339038,0.0140313,0,0,2.45,0.0875,-0.805,-0.192272,0.044286,-0.99857,-0.06356,0.11662,0.46662
-0.0385715,0,0,15.0386,15.0386,14.9614,14.9614,0.0428572,1.00001,1.45054,-0.0413413,0.0545387,-0.108039,0,0,3.535,-0.21,-0.63,-0.064294,0.06588,-1.11972,-0.06356,0.11662,0.46662
-0.0387955,0,0,15.0388,15.0388,14.9612,14.9612,0.0431061,0.999406,1.45108,-0.0413309,0.054543,-0.108039,1,0,3.535,-0.21,-0.63,-0.064294,0.06588,-1.11972,-0.06356,0.11662,0.46662
-0.244371,0,0,15.2444,15.2444,14.7556,14.7556,0.271523,1.09225,1.40728,0.0690589,-0.195983,0.0240898,0,0,5.6,-0.5425,-0.385,0.04819,-0.188368,-0.988566,-0.06356,0.11662,0.46662
-0.445977,0,0,15.446,15.446,14.554,14.554,0.49553,1.18293,1.36408,0.0674764,-0.192075,0.0240322,0,0,5.6,-0.5425,-0.385,0.04819,-0.188368,-0.988566,-0.06356,0.11662,0.46662
-0.378385,0,0,15.3784,15.3784,14.6216,14.6216,0.420428,1.62991,0.984954,0.404089,0.0734604,-0.0242216,0,0,3.9375,-0.1925,0.1225,0.39406,0.078202,-1.03627,-0.06356,0.11662,0.46662
-0.378162,0,0,15.3782,15.3782,14.6218,14.6218,0.42018,1.63013,0.987568,0.0197049,0.202666,0.291387,1,0,3.22,0.28,0.5775,0.008052,0.207278,-0.723094,-0.06356,0.11662,0.46662
-0.376531,0,0,15.3765,15.3765,14.6235,14.6235,0.418368,1.63151,0.990071,0.0196808,0.202635,0.291387,1,0,2.345,0.9625,0.5075,0.008052,0.207278,-0.723094,-0.05852,0.12208,0.4767
0.271755,0,0,14.7282,14.7282,15.2718,15.2718,-0.30195,1.67088,0.951071,0.0332078,0.633754,0.225233,0,0,1.61,1.015,0.7525,0.022326,0.650504,-0.78873,-0.05852,0.12208,0.4767
0.9095,0,0,14.0905,14.0905,15.9095,15.9095,-1.01056,1.70856,0.911126,0.0325504,0.621393,0.225072,0,0,2.0125,0.49,0.3675,0.022326,0.650504,-0.78873,-0.05852,0.12208,0.4767
1.24839,0,0,13.7516,13.7516,16.2484,16.2484,-1.3871,1.68226,0.940409,-0.0141272,0.476822,-0.324877,0,0,3.745,-0.525,0.4025,-0.02501,0.512644,-1.33431,-0.05852,0.12208,0.4767
1.24037,0,0,13.7596,13.7596,16.2404,16.2404,-1.37819,1.68219,0.941163,-0.0141259,0.476978,-0.324873,1,0,8.3825,0.0875,-0.5075,-0.02501,0.512644,-1.33431,-0.05852,0.12208,0.4767
1.23622,0,0,13.7638,13.7638,16.2362,16.2362,-1.37358,1.68034,0.94127,-0.221713,-0.0135251,-0.270036,1,0,5.985,-0.945,-0.91,-0.233508,0.02257,-1.2799,-0.05852,0.12208,0.4767
1.24121,0,0,13.7588,13.7588,16.2412,16.2412,-1.37912,1.68,0.941161,-0.221707,-0.0136217,-0.270038,1,0,0.2975,-0.0525,-1.015,-0.233508,0.02257,-1.2799,-0.05852,0.12208,0.4767
1.23936,0,0,13.7606,13.7606,16.2394,16.2394,-1.37707,1.67938,0.940008,-0.571332,-0.441274,-0.20512,1,0,4.5675,-0.21,-1.6275,-0.584624,-0.404674,-1.21549,-0.05852,0.12208,0.4767
1.23806,0,0,13.7619,13.7619,16.2381,16.2381,-1.37562,1.67949,0.938717,-0.571334,-0.441249,-0.205119,1,0,4.235,0.2275,-1.6975,-0.584624,-0.404674,-1.21549,-0.05992,0.12054,0.48776
1.24154,0,0,13.7585,13.7585,16.2415,16.2415,-1.37949,1.68106,0.936911,0.31512,-0.266553,0.20774,1,0,1.26,1.085,-1.9775,0.30561,-0.230092,-0.80581,-0.05992,0.12054,0.48776
1.24153,0,0,13.7585,13.7585,16.2415,16.2415,-1.37948,1.68106,0.933402,0.31512,-0.266552,0.20774,1,0,3.465,0.1925,-2.9925,0.30561,-0.230092,-0.80581,-0.05992,0.12054,0.48776
1.00279,0,0,13.9972,13.9972,16.0028,16.0028,-1.11421,2.32099,0.34565,0.534781,-0.244942,0.191836,0,0,3.1675,0.91,-2.3975,0.53741,-0.213134,-0.821304,-0.05992,0.12054,0.48776
0.76534,0,0,14.2347,14.2347,15.7653,15.7653,-0.850377,2.94986,-0.235209,0.523817,-0.240335,0.19141,0,0,4.76,0.8925,-2.03,0.53741,-0.213134,-0.821304,-0.05992,0.12054,0.48776
0.763061,0,0,14.2369,14.2369,15.7631,15.7631,-0.847846,2.95063,-0.23738,-0.213494,0.159674,-0.295097,1,0,4.8825,0.6125,-2.205,-0.203008,0.186416,-1.30406,-0.05992,0.12054,0.48776
0.761948,0,0,14.2381,14.2381,15.7619,15.7619,-0.846609,2.95038,-0.240437,-0.213489,0.159696,-0.295097,1,0,4.1825,0.0175,-2.73,-0.203008,0.186416,-1.30406,-0.05992,0.12054,0.48776
0.761557,0,0,14.2384,14.2384,15.7616,15.7616,-0.846175,2.94969,-0.242106,-0.273613,0.151765,-0.0794442,1,0,3.6925,-0.245,-1.925,-0.263398,0.178486,-1.09007,-0.05992,0.12054,0.48776
0.762799,0,0,14.2372,14.2372,15.7628,15.7628,-0.847555,2.94838,-0.243856,0.02648,0.207553,0.307107,1,0,2.6775,-0.6125,-1.9775,0.037942,0.23424,-0.706502,-0.06426,0.12922,0.49588
0.763327,0,0,14.2367,14.2367,15.7633,15.7633,-0.848141,2.9464,-0.246558,0.102443,-0.0961862,0.176537,1,0,3.15,-0.9975,-2.5375,0.114192,-0.069174,-0.836066,-0.06426,0.12922,0.49588
0.764267,0,0,14.2357,14.2357,15.7643,15.7643,-0.849185,2.94711,-0.248458,0.102431,-0.0962044,0.176536,1,0,2.87,0.5775,-2.0475,0.114192,-0.069174,-0.836066,-0.06426,0.12922,0.49588
0.778703,0,0,14.2213,14.2213,15.7787,15.7787,-0.865225,3.11551,-0.428091,0.138371,0.0126997,0.01765,0,0,2.87,0.49,-1.68,0.153232,0.039894,-0.993568,-0.06426,0.12922,0.49588
0.792349,0,0,14.2077,14.2077,15.7923,15.7923,-0.880388,3.2808,-0.605733,0.135491,0.0124379,0.017485,0,0,3.15,0.7,-0.63,0.153232,0.039894,-0.993568,-0.06426,0.12922,0.49588
0.793312,0,0,14.2067,14.2067,15.7933,15.7933,-0.881458,3.28144,-0.604629,0.0729144,0.132592,-0.247839,1,0,2.765,0.5075,-0.2975,0.090402,0.159942,-1.25684,-0.06426,0.12922,0.49588
0.792628,0,0,14.2074,14.2074,15.7926,15.7926,-0.880697,3.28094,-0.602606,0.0729232,0.132605,-0.247838,1,0,3.7625,-0.175,0.2275,0.090402,0.159942,-1.25684,-0.06426,0.12922,0.49588
0.791624,0,0,14.2084,14.2084,15.7916,15.7916,-0.879582,3.28018,-0.600939,-0.118404,0.00903242,0.127648,1,0,3.9725,-0.315,0.0175,-0.101748,0.036478,-0.884256,-0.06426,0.12922,0.49588
0.809544,0,0,14.1905,14.1905,15.8095,15.8095,-0.899493,3.39824,-0.753996,0.0860651,0.0158929,0.0870723,0,0,4.165,-0.315,-0.07,0.105652,0.043676,-0.924394,-0.06118,0.13846,0.4991
0.839883,0,0,14.1601,14.1601,15.8399,15.8399,-0.933203,3.08757,-0.504194,-0.252812,0.0275133,0.0667142,0,0,3.745,-0.07,-0.525,-0.240096,0.055876,-0.94489,-0.06118,0.13846,0.4991
0.871438,0,0,14.1286,14.1286,15.8714,15.8714,-0.968264,2.78435,-0.254037,-0.247527,0.0268978,0.0669751,0,0,2.6425,0.665,-0.3325,-0.240096,0.055876,-0.94489,-0.06118,0.13846,0.4991
0.87293,0,0,14.1271,14.1271,15.8729,15.8729,-0.969923,2.78494,-0.252633,-0.251303,-0.121515,-0.139579,1,0,2.4325,0.4725,-0.1225,-0.243878,-0.092354,-1.14985,-0.06118,0.13846,0.4991
0.875009,0,0,14.125,14.125,15.875,15.875,-0.972232,2.78376,-0.25177,-0.251282,-0.121555,-0.139579,1,0,2.0825,-0.56,-0.455,-0.243878,-0.092354,-1.14985,-0.06118,0.13846,0.4991
0.87517,0,0,14.1248,14.1248,15.8752,15.8752,-0.972411,2.78287,-0.251392,-0.122613,-0.177615,-0.151258,1,0,3.29,-0.385,-0.735,-0.11468,-0.148352,-1.16144,-0.06118,0.13846,0.4991
0.874514,0,0,14.1255,14.1255,15.8745,15.8745,-0.971682,2.78353,-0.25095,-0.122625,-0.177602,-0.151259,1,0,3.7975,0.525,-0.6825,-0.11468,-0.148352,-1.16144,-0.06118,0.13846,0.4991
0.872428,0,0,14.1276,14.1276,15.8724,15.8724,-0.969364,2.78455,-0.250575,-0.000549677,-0.353058,-0.100358,1,0,4.69,0.735,-0.7175,0.00793,-0.323666,-1.11093,-0.06118,0.13846,0.4991
0.870342,0,0,14.1297,14.1297,15.8703,15.8703,-0.967046,2.78557,-0.250199,-0.000567459,-0.353017,-0.100358,1,0,4.69,0.735,-0.7175,0.00793,-0.323666,-1.11093,-0.06342,0.13748,0.49252
0.86958,0,0,14.1304,14.1304,15.8696,15.8696,-0.9662,2.78532,-0.250553,-0.357731,0.255677,0.257668,1,0,3.885,0,-1.155,-0.35075,0.284382,-0.755668,-0.06342,0.13748,0.49252
0.868818,0,0,14.1312,14.1312,15.8688,15.8688,-0.965353,2.78507,-0.250906,-0.357727,0.255692,0.257668,1,0,3.885,0,-1.155,-0.35075,0.284382,-0.755668,-0.06342,0.13748,0.49252
0.790013,0,0,14.21,14.21,15.79,15.79,-0.877792,2.65354,-0.149663,-0.114163,-0.0768002,0.00833945,0,0,3.9025,4.3925,-1.4525,-0.108458,-0.049288,-1.00321,-0.06342,0.13748,0.49252
0.790252,0,0,14.2097,14.2097,15.7903,15.7903,-0.878057,2.65512,-0.151126,-0.0105634,0.0561913,0.212433,1,0,3.29,1.085,-1.785,-0.004392,0.08357,-0.800686,-0.06342,0.13748,0.49252
0.790791,0,0,14.2092,14.2092,15.7908,15.7908,-0.878656,2.65687,-0.152382,-0.0105938,0.0561808,0.212431,1,0,3.0975,1.1725,-1.6625,-0.004392,0.08357,-0.800686,-0.06342,0.13748,0.49252
0.789886,0,0,14.2101,14.2101,15.7899,15.7899,-0.877651,2.65782,-0.154045,0.0602157,-0.0557919,-0.163546,1,0,4.0075,0.7175,-1.9075,0.066734,-0.028304,-1.17376,-0.06342,0.13748,0.49252
0.789706,0,0,14.2103,14.2103,15.7897,15.7897,-0.877451,2.65823,-0.15489,0.0602087,-0.0557884,-0.163546,1,0,3.535,0.385,-1.435,0.066734,-0.028304,-1.17376,-0.06342,0.13748,0.49252
0.787972,0,0,14.212,14.212,15.788,15.788,-0.875525,2.65762,-0.155538,-0.152624,-0.333105,-0.258093,1,0,4.4975,-0.21,-1.33,-0.14701,-0.305366,-1.26758,-0.0602,0.13524,0.50064
0.783693,0,0,14.2163,14.2163,15.7837,15.7837,-0.87077,2.65594,-0.155781,-0.152594,-0.333022,-0.25809,1,0,6.0725,-0.84,-1.1025,-0.14701,-0.305366,-1.26758,-0.0602,0.13524,0.50064
0.780514,0,0,14.2195,14.2195,15.7805,15.7805,-0.867238,2.65417,-0.156112,-0.178804,0.00154495,-0.117066,1,0,5.39,-0.8925,-1.155,-0.173362,0.028792,-1.12765,-0.0602,0.13524,0.50064
0.778539,0,0,14.2215,14.2215,15.7785,15.7785,-0.865043,2.65321,-0.156365,0.0683142,0.0917127,0.165471,1,0,4.6375,-0.42,-1.1025,0.074786,0.118828,-0.84729,-0.0602,0.13524,0.50064
0.777939,0,0,14.2221,14.2221,15.7779,15.7779,-0.864377,2.65362,-0.156579,0.068307,0.0917243,0.165471,1,0,3.78,0.385,-1.0675,0.074786,0.118828,-0.84729,-0.0602,0.13524,0.50064
0.78015,0,0,14.2198,14.2198,15.7802,15.7802,-0.866834,2.65449,-0.156169,-0.0428676,0.117695,0.161044,1,0,2.0125,0.6475,-0.7,-0.036844,0.144814,-0.851682,-0.0602,0.13524,0.50064
0.782722,0,0,14.2173,14.2173,15.7827,15.7827,-0.869692,2.65399,-0.155649,-0.0428588,0.117645,0.161043,1,0,1.785,-0.1575,-0.6475,-0.036844,0.144814,-0.851682,-0.0602,0.13524,0.50064
0.781784,0,0,14.2182,14.2182,15.7818,15.7818,-0.868649,2.65386,-0.154473,0.093329,0.0818797,-0.364315,1,0,3.955,0.0525,-0.2625,0.099918,0.109068,-1.37299,-0.0602,0.13524,0.50064
0.781019,0,0,14.219,14.219,15.781,15.781,-0.867799,2.65385,-0.152759,0.0933291,0.0818945,-0.364315,1,0,3.8325,0.1225,0.0525,0.099918,0.109068,-1.37299,-0.06118,0.14406,0.49
0.776785,0,0,14.2232,14.2232,15.7768,15.7768,-0.863095,2.65405,-0.151379,0.431542,-0.456969,-0.455911,1,0,6.0025,0.245,-0.14,0.439566,-0.429318,-1.46388,-0.06118,0.14406,0.49
0.772067,0,0,14.2279,14.2279,15.7721,15.7721,-0.857852,2.65389,-0.149843,0.431545,-0.456877,-0.455909,1,0,6.3,0.035,-0.0525,0.439566,-0.429318,-1.46388,-0.06118,0.14406,0.49
0.769717,0,0,14.2303,14.2303,15.7697,15.7697,-0.855241,2.65459,-0.1485,0.129883,-0.0262129,-0.188496,1,0,4.83,0.5425,-0.1575,0.13664,0.000854,-1.19853,-0.06118,0.14406,0.49
0.768689,0,0,14.2313,14.2313,15.7687,15.7687,-0.854099,2.65503,-0.147213,0.129876,-0.026193,-0.188496,1,0,4.0075,0.385,-0.1925,0.13664,0.000854,-1.19853,-0.06118,0.14406,0.49
0.769187,0,0,14.2308,14.2308,15.7692,15.7692,-0.854652,2.65579,-0.146141,0.203726,0.425056,0.448253,1,0,3.0625,0.5775,-0.315,0.210816,0.451644,-0.56669,-0.06118,0.14406,0.49
0.771179,0,0,14.2288,14.2288,15.7712,15.7712,-0.856866,2.65628,-0.145185,0.203717,0.425017,0.448252,1,0,2.135,0.42,-0.385,0.210816,0.451644,-0.56669,-0.06118,0.14406,0.49
0.77102,0,0,14.229,14.229,15.771,15.771,-0.856689,2.65638,-0.144523,0.139207,0.300695,0.214158,1,0,3.4825,0.1925,-0.56,0.146034,0.327448,-0.798978,-0.06118,0.14406,0.49
0.770574,0,0,14.2294,14.2294,15.7706,15.7706,-0.856193,2.65715,-0.144382,0.139193,0.300704,0.214158,1,0,3.675,0.595,-0.8575,0.146034,0.327448,-0.798978,-0.06342,0.14938,0.51072
0.821207,0,0,14.1788,14.1788,15.8212,15.8212,-0.912452,3.01928,-0.52959,0.275383,0.0449716,0.1317,0,0,4.2525,0.56,-0.9975,0.28914,0.072956,-0.880474,-0.06342,0.14938,0.51072
0.870113,0,0,14.1299,14.1299,15.8701,15.8701,-0.966792,3.37341,-0.915849,0.269212,0.0440305,0.13134,0,0,4.865,0.035,-1.5225,0.28914,0.072956,-0.880474,-0.06342,0.14938,0.51072
0.868166,0,0,14.1318,14.1318,15.8682,15.8682,-0.964629,3.37327,-0.917106,-0.147724,-0.0829436,-0.210948,1,0,4.655,0.07,-1.68,-0.129564,-0.053924,-1.22012,-0.06342,0.14938,0.51072
0.867099,0,0,14.1329,14.1329,15.8671,15.8671,-0.963443,3.37344,-0.919059,-0.147727,-0.082923,-0.210947,1,0,4.13,0.2625,-2.0825,-0.129564,-0.053924,-1.22012,-0.06342,0.14938,0.51072
0.865773,0,0,14.1342,14.1342,15.8658,15.8658,-0.96197,3.37345,-0.920379,0.035716,0.0829508,0.140317,1,0,4.27,0.1575,-1.715,0.054656,0.111752,-0.871568,-0.06342,0.14938,0.51072
0.865947,0,0,14.1341,14.1341,15.8659,15.8659,-0.962164,3.37422,-0.922432,0.0357026,0.0829474,0.140316,1,0,3.36,0.6125,-2.135,0.054656,0.111752,-0.871568,-0.06342,0.14938,0.51072
0.611013,0,0,14.389,14.389,15.611,15.611,-0.678903,3.25107,-0.859879,-0.095786,-0.272515,-0.0456331,0,0,3.78,0.28,-2.275,-0.079544,-0.24827,-1.05628,-0.06342,0.14938,0.51072
0.361457,0,0,14.6385,14.6385,15.3615,15.3615,-0.401619,3.1277,-0.809256,-0.093636,-0.267685,-0.0454678,0,0,3.395,0.4025,-1.925,-0.079544,-0.24827,-1.05628,-0.06496,0.15694,0.5096
0.361147,0,0,14.6389,14.6389,15.3611,15.3611,-0.401274,3.12825,-0.810759,0.563713,-0.190617,-0.0837053,1,0,3.64,0.4725,-1.82,0.580598,-0.171288,-1.09422,-0.06496,0.15694,0.5096
0.359853,0,0,14.6401,14.6401,15.3599,15.3599,-0.399837,3.12908,-0.811693,0.563699,-0.190592,-0.0837059,1,0,4.235,0.63,-1.4875,0.580598,-0.171288,-1.09422,-0.06496,0.15694,0.5096
0.359258,0,0,14.6407,14.6407,15.3593,15.3593,-0.399175,3.12877,-0.8131,0.0861441,-0.146859,-0.0939102,1,0,3.815,-0.035,-1.7675,0.101016,-0.127612,-1.10434,-0.06496,0.15694,0.5096
0.35855,0,0,14.6414,14.6414,15.3586,15.3586,-0.398389,3.12756,-0.814531,0.0861652,-0.146845,-0.093909,1,0,3.885,-0.56,-1.785,0.101016,-0.127612,-1.10434,-0.06496,0.15694,0.5096
0.359229,0,0,14.6408,14.6408,15.3592,15.3592,-0.399143,3.12689,-0.815575,-0.148534,-0.0410964,-0.140998,1,0,3.01,-0.245,-1.5575,-0.134688,-0.02196,-1.15107,-0.06496,0.15694,0.5096
0.358753,0,0,14.6412,14.6412,15.3588,15.3588,-0.398614,3.12638,-0.81656,-0.148525,-0.0410872,-0.140997,1,0,3.7275,-0.1575,-1.5225,-0.134688,-0.02196,-1.15107,-0.06496,0.15694,0.5096
0.698081,0,0,14.3019,14.3019,15.6981,15.6981,-0.775646,3.08339,-0.8447,-0.0579974,0.350842,0.0298746,0,0,3.3075,-0.8575,-1.12,-0.04453,0.376126,-0.98149,-0.06496,0.15694,0.5096
1.03102,0,0,13.969,13.969,16.031,16.031,-1.14557,3.04399,-0.877516,-0.0573109,0.344395,0.0298032,0,0,3.4475,0.0175,-1.12,-0.04453,0.376126,-0.98149,-0.0672,0.161,0.5173
1.0298,0,0,13.9702,13.9702,16.0298,16.0298,-1.14422,3.04403,-0.877154,0.15784,-0.0207408,-0.121054,1,0,4.1475,0.1575,-0.735,0.171532,0.011346,-1.13118,-0.0672,0.161,0.5173
1.02864,0,0,13.9714,13.9714,16.0286,16.0286,-1.14294,3.04434,-0.876257,0.157834,-0.0207184,-0.121054,1,0,4.095,0.315,-0.42,0.171532,0.011346,-1.13118,-0.0672,0.161,0.5173
0.801191,0,0,14.1988,14.1988,15.8012,15.8012,-0.890212,2.97033,-0.872204,-0.0504387,-0.208787,0.101137,0,0,4.585,0.2625,-0.4025,-0.038918,-0.180926,-0.910852,-0.0672,0.161,0.5173
0.578849,0,0,14.4212,14.4212,15.5788,15.5788,-0.643166,2.89792,-0.868293,-0.0491764,-0.204482,0.101259,0,0,4.06,0.14,-0.14,-0.038918,-0.180926,-0.910852,-0.0672,0.161,0.5173
0.578392,0,0,14.4216,14.4216,15.5784,15.5784,-0.642657,2.89859,-0.866676,-0.0617012,0.0109581,-0.134925,1,0,3.64,0.525,0,-0.051484,0.034282,-1.14521,-0.0672,0.161,0.5173
0.577465,0,0,14.4225,14.4225,15.5775,15.5775,-0.641628,2.89795,-0.865255,-0.06169,0.010976,-0.134925,1,0,3.9375,-0.245,-0.1225,-0.051484,0.034282,-1.14521,-0.0672,0.161,0.5173
0.577863,0,0,14.4221,14.4221,15.5779,15.5779,-0.64207,2.89829,-0.863905,0.182247,0.0899843,-0.188039,1,0,3.115,0.3325,-0.1575,0.193492,0.113216,-1.19792,-0.0672,0.161,0.5173
0.57816,0,0,14.4218,14.4218,15.5782,15.5782,-0.642399,2.89821,-0.862821,0.182249,0.0899786,-0.188039,1,0,3.185,0.0875,-0.315,0.193492,0.113216,-1.19792,-0.06538,0.168,0.52276
0.966225,0,0,14.0338,14.0338,15.9662,15.9662,-1.07358,3.16608,-1.18239,0.210624,0.410378,0.0656131,0,0,2.7125,0.0875,-0.245,0.226676,0.440786,-0.945866,-0.06538,0.168,0.52276
1.34763,0,0,13.6524,13.6524,16.3476,16.3476,-1.49737,3.42925,-1.50577,0.206039,0.403002,0.0651833,0,0,2.94,0.4375,-0.315,0.226676,0.440786,-0.945866,-0.06538,0.168,0.52276
1.48002,0,0,13.52,13.52,16.48,16.48,-1.64446,3.12812,-1.30388,-0.289235,0.14421,-0.0395845,0,0,3.395,0.2975,-0.49,-0.275964,0.18483,-1.05005,-0.06538,0.168,0.52276
1.6089,0,0,13.3911,13.3911,16.6089,16.6089,-1.78766,2.83393,-1.10066,-0.284108,0.141707,-0.0393924,0,0,4.025,1.12,-0.4025,-0.275964,0.18483,-1.05005,-0.06538,0.168,0.52276
1.42262,0,0,13.5774,13.5774,16.4226,16.4226,-1.58069,2.85964,-1.19815,0.0311855,-0.183695,0.0338458,0,0,3.9025,0.9975,-0.6125,0.041114,-0.143838,-0.977464,-0.06538,0.168,0.52276
1.23985,0,0,13.7602,13.7602,16.2398,16.2398,-1.37761,2.88515,-1.29602,0.0307408,-0.180156,0.0339148,0,0,3.9025,1.0325,-1.05,0.041114,-0.143838,-0.977464,-0.06538,0.168,0.52276
1.23976,0,0,13.7602,13.7602,16.2398,16.2398,-1.37751,2.88557,-1.29705,-0.148579,-0.156828,-0.148049,1,0,3.4825,0.4025,-1.54,-0.138958,-0.120536,-1.15802,-0.06538,0.168,0.52276
1.23974,0,0,13.7603,13.7603,16.2397,16.2397,-1.37749,2.88605,-1.29817,-0.148588,-0.156828,-0.14805,1,0,3.4475,0.4375,-1.5925,-0.138958,-0.120536,-1.15802,-0.06538,0.168,0.52276
1.24048,0,0,13.7595,13.7595,16.2405,16.2405,-1.37831,2.88542,-1.29944,-0.408921,0.309682,-0.0701001,1,0,2.975,-0.21,-1.6975,-0.400404,0.345504,-1.08068,-0.06258,0.16114,0.51688
1.24022,0,0,13.7598,13.7598,16.2402,16.2402,-1.37802,2.88517,-1.30088,-0.408916,0.309687,-0.0700998,1,0,3.605,0.0175,-1.785,-0.400404,0.345504,-1.08068,-0.06258,0.16114,0.51688
1.24029,0,0,13.7597,13.7597,16.2403,16.2403,-1.3781,2.88473,-1.303,-0.149901,-0.164044,0.261247,1,0,3.4125,-0.0875,-2.1875,-0.1403,-0.127734,-0.751886,-0.06258,0.16114,0.51688
1.55989,0,0,13.4401,13.4401,16.5599,16.5599,-1.73321,3.00939,-1.49262,0.089318,0.330369,0.0460529,0,0,3.9375,-0.035,-2.1525,0.102114,0.372344,-0.965142,-0.06258,0.16114,0.51688
1.87489,0,0,13.1251,13.1251,16.8749,16.8749,-2.08321,3.13168,-1.68327,0.0871868,0.324277,0.0457355,0,0,3.29,0.1575,-1.9075,0.102114,0.372344,-0.965142,-0.06258,0.16114,0.51688
1.71271,0,0,13.2873,13.2873,16.7127,16.7127,-1.90301,3.06209,-1.68575,-0.0508231,-0.172574,-0.053432,0,0,2.8175,0.3675,-1.96,-0.037698,-0.127124,-1.06372,-0.06258,0.16114,0.51688
1.55406,0,0,13.4459,13.4459,16.5541,16.5541,-1.72674,2.99351,-1.68881,-0.0496277,-0.169505,-0.0532715,0,0,2.5375,0.0175,-2.0825,-0.037698,-0.127124,-1.06372,-0.06258,0.16114,0.51688
1.55569,0,0,13.4443,13.4443,16.5557,16.5557,-1.72855,2.99292,-1.69042,0.149133,0.088517,-0.0799518,1,0,2.4325,-0.175,-1.89,0.161894,0.130662,-1.09019,-0.06258,0.16114,0.51688
1.5561,0,0,13.4439,13.4439,16.5561,16.5561,-1.729,2.99201,-1.6906,0.149149,0.088509,-0.0799512,1,0,3.15,-0.385,-1.0675,0.161894,0.130662,-1.09019,-0.06118,0.15246,0.50834
1.55605,0,0,13.444,13.444,16.556,16.556,-1.72894,2.9904,-1.69039,-0.0821318,0.174365,-0.32265,1,0,3.43,-0.805,-0.8575,-0.070394,0.216428,-1.33102,-0.06118,0.15246,0.50834
1.55675,0,0,13.4432,13.4432,16.5568,16.5568,-1.72972,2.98879,-1.69022,-0.0821037,0.174351,-0.322649,1,0,2.9575,-0.805,-0.875,-0.070394,0.216428,-1.33102,-0.06118,0.15246,0.50834
1.4093,0,0,13.5907,13.5907,16.4093,16.4093,-1.56589,2.92536,-1.68027,-0.0475895,-0.157545,-0.066531,0,0,3.57,-0.0875,-0.6125,-0.036844,-0.117974,-1.07702,-0.06118,0.15246,0.50834
1.26555,0,0,13.7344,13.7344,16.2656,16.2656,-1.40617,2.86335,-1.67013,-0.0465086,-0.154763,-0.0664042,0,0,2.9925,-0.0875,-0.28,-0.036844,-0.117974,-1.07702,-0.06118,0.15246,0.50834
1.26677,0,0,13.7332,13.7332,16.2668,16.2668,-1.40752,2.86399,-1.66834,0.0788535,0.0694377,-0.0988637,1,0,2.59,0.49,0.105,0.08906,0.106018,-1.10922,-0.06118,0.15246,0.50834
1.2675,0,0,13.7325,13.7325,16.2675,16.2675,-1.40833,2.8641,-1.66612,0.0788515,0.0694237,-0.0988642,1,0,2.8875,0.175,0.35,0.08906,0.106018,-1.10922,-0.06118,0.15246,0.50834
1.26829,0,0,13.7317,13.7317,16.2683,16.2683,-1.40921,2.86512,-1.6635,-0.165231,-0.622317,-0.0585383,1,0,2.835,0.7,0.595,-0.156038,-0.58499,-1.06921,-0.06118,0.15246,0.50834
1.26872,0,0,13.7313,13.7313,16.2687,16.2687,-1.40969,2.8656,-1.66101,-0.165239,-0.622326,-0.0585389,1,0,3.0625,0.385,0.5075,-0.156038,-0.58499,-1.06921,-0.0616,0.14476,0.50302
1.46651,0,0,13.5335,13.5335,16.4665,16.4665,-1.62946,2.85083,-1.69383,-0.0230866,0.190384,0.0607553,0,0,2.7825,0.385,0.595,-0.013542,0.230702,-0.950746,-0.0616,0.14476,0.50302
1.66125,0,0,13.3387,13.3387,16.6613,16.6613,-1.84584,2.83647,-1.72627,-0.0228362,0.186613,0.0606534,0,0,2.38,0.5425,0.7175,-0.013542,0.230702,-0.950746,-0.0616,0.14476,0.50302
1.60153,0,0,13.3985,13.3985,16.6015,16.6015,-1.77947,2.99757,-1.91624,0.159135,-0.0669825,-0.0654753,0,0,1.75,0.2275,0.2975,0.17202,-0.02379,-1.0758,-0.0616,0.14476,0.50302
1.54296,0,0,13.457,13.457,16.543,16.543,-1.7144,3.15553,-2.10634,0.156382,-0.0658444,-0.0655886,0,0,1.7325,0.2275,-0.1225,0.17202,-0.02379,-1.0758,-0.0616,0.14476,0.50302
1.54388,0,0,13.4561,13.4561,16.5439,16.5439,-1.71543,3.15581,-2.10493,-0.00969343,0.112687,0.119325,1,0,2.7825,0.28,-0.1225,0.005246,0.154574,-0.892308,-0.0616,0.14476,0.50302
1.54452,0,0,13.4555,13.4555,16.5445,16.5445,-1.71613,3.15581,-2.10394,-0.00969339,0.112675,0.119325,1,0,2.975,0.1225,-0.3675,0.005246,0.154574,-0.892308,-0.0616,0.14476,0.50302
1.47818,0,0,13.5218,13.5218,16.4782,16.4782,-1.64242,3.07947,-2.07301,-0.0655827,-0.0683787,-0.0379392,0,0,3.5,0.8925,-0.84,-0.052216,-0.027572,-1.04847,-0.0616,0.14476,0.50302
1.41309,0,0,13.5869,13.5869,16.4131,16.4131,-1.5701,3.0034,-2.04814,-0.0642568,-0.0671206,-0.0378335,0,0,3.5525,0.665,-1.8725,-0.052216,-0.027572,-1.04847,-0.06678,0.14812,0.49938
1.4426,0,0,13.5574,13.5574,16.4426,16.4426,-1.60289,2.62374,-1.7361,-0.352484,0.0309774,-0.0168688,0,0,2.87,0.98,-1.82,-0.34831,0.071004,-1.02797,-0.06678,0.14812,0.49938
1.47204,0,0,13.528,13.528,16.472,16.472,-1.6356,2.24993,-1.42489,-0.345966,0.0303993,-0.0166076,0,0,2.6425,0.245,-2.38,-0.34831,0.071004,-1.02797,-0.06678,0.14812,0.49938
1.36811,0,0,13.6319,13.6319,16.3681,16.3681,-1.52013,2.32268,-1.52742,0.0727412,-0.112184,-0.0512743,0,0,2.6775,0.105,-2.66,0.073444,-0.073444,-1.06238,-0.06678,0.14812,0.49938
1.26642,0,0,13.7336,13.7336,16.2664,16.2664,-1.40714,2.3941,-1.63065,0.0714958,-0.110213,-0.0512753,0,0,2.52,0.14,-3.3075,0.073444,-0.073444,-1.06238,-0.06678,0.14812,0.49938
1.28789,0,0,13.7121,13.7121,16.2879,16.2879,-1.43099,2.3607,-1.64193,-0.0291194,0.020901,-0.00281968,0,0,2.835,-0.1225,-3.5,-0.028182,0.05795,-1.01431,-0.06678,0.14812,0.49938
1.30814,0,0,13.6919,13.6919,16.3081,16.3081,-1.45349,2.32782,-1.65266,-0.028546,0.0205081,-0.00280609,0,0,3.325,-0.21,-3.2025,-0.028182,0.05795,-1.01431,-0.06678,0.14812,0.49938
1.3088,0,0,13.6912,13.6912,16.3088,16.3088,-1.45422,2.32658,-1.65665,-0.0286459,-0.0638943,-0.130672,1,0,3.08,-0.525,-3.29,-0.028304,-0.026352,-1.14119,-0.06678,0.14812,0.49938
1.30953,0,0,13.6905,13.6905,16.3095,16.3095,-1.45503,2.32676,-1.66028,-0.028649,-0.0639085,-0.130672,1,0,3.0275,0.2975,-3.0625,-0.028304,-0.026352,-1.14119,-0.06258,0.13916,0.48678
1.55936,0,0,13.4406,13.4406,16.5594,16.5594,-1.73263,2.03527,-1.42028,-0.246735,0.231556,0.133972,0,0,2.9575,0.28,-2.9925,-0.252418,0.273646,-0.878644,-0.06258,0.13916,0.48678
1.80417,0,0,13.1958,13.1958,16.8042,16.8042,-2.00464,1.74953,-1.17619,-0.24175,0.226809,0.133981,0,0,3.2725,0.5775,-2.0825,-0.252418,0.273646,-0.878644,-0.06258,0.13916,0.48678
1.80365,0,0,13.1964,13.1964,16.8036,16.8036,-2.00405,1.74997,-1.17707,0.109457,-0.0634764,0.1164,1,0,3.745,0.42,-1.4525,0.100284,-0.016348,-0.89609,-0.06258,0.13916,0.48678
1.80273,0,0,13.1973,13.1973,16.8027,16.8027,-2.00303,1.74979,-1.17713,0.109461,-0.0634587,0.116401,1,0,3.9725,0.035,-0.98,0.100284,-0.016348,-0.89609,-0.06258,0.13916,0.48678
1.80218,0,0,13.1978,13.1978,16.8022,16.8022,-2.00243,1.74865,-1.17639,0.0845759,0.18166,0.161401,1,0,3.7275,-0.5425,-0.5425,0.075274,0.228506,-0.851438,-0.06258,0.13916,0.48678
1.80106,0,0,13.1989,13.1989,16.8011,16.8011,-2.00117,1.74775,-1.17387,0.0845916,0.181682,0.161402,1,0,4.06,-0.4375,0.5075,0.075274,0.228506,-0.851438,-0.06258,0.13916,0.48678
1.80094,0,0,13.1991,13.1991,16.8009,16.8009,-2.00104,1.74655,-1.17118,0.133085,0.370981,-0.0193315,1,0,3.43,-0.6125,0.595,0.123952,0.417606,-1.03078,-0.06258,0.13916,0.48678
1.80138,0,0,13.1986,13.1986,16.8014,16.8014,-2.00153,1.74659,-1.16743,0.133085,0.370972,-0.0193318,1,0,3.0625,0.0875,1.2425,0.123952,0.417606,-1.03078,-0.06258,0.13916,0.48678
1.80204,0,0,13.198,13.198,16.802,16.802,-2.00226,1.74679,-1.16353,-0.12131,0.190578,-0.0969129,1,0,2.9225,0.175,1.33,-0.131516,0.237412,-1.10776,-0.06062,0.13538,0.49336
1.80247,0,0,13.1975,13.1975,16.8025,16.8025,-2.00274,1.74792,-1.1584,-0.12133,0.19057,-0.0969138,1,0,3.045,0.7,2.065,-0.131516,0.237412,-1.10776,-0.06062,0.13538,0.49336
1.7187,0,0,13.2813,13.2813,16.7187,16.7187,-1.90967,2.03703,-1.43296,0.266512,-0.0897925,0.0041617,0,0,3.64,0.63,2.03,0.263032,-0.044286,-1.00735,-0.06062,0.13538,0.49336
1.63646,0,0,13.3635,13.3635,16.6365,16.6365,-1.81829,2.32035,-1.70713,0.261571,-0.0881934,0.00402566,0,0,3.64,0.455,1.575,0.263032,-0.044286,-1.00735,-0.06062,0.13538,0.49336
1.63517,0,0,13.3648,13.3648,16.6352,16.6352,-1.81686,2.32032,-1.70326,0.0572323,-0.211517,-0.125438,1,0,4.1125,0.0525,1.3125,0.057828,-0.167506,-1.13582,-0.06062,0.13538,0.49336
1.63463,0,0,13.3654,13.3654,16.6346,16.6346,-1.81625,2.32121,-1.69959,0.0572167,-0.211506,-0.125439,1,0,3.6575,0.595,1.2075,0.057828,-0.167506,-1.13582,-0.06062,0.13538,0.49336
1.63357,0,0,13.3664,13.3664,16.6336,16.6336,-1.81508,2.32095,-1.70492,0.0502966,0.328559,-0.154945,1,0,4.1825,0.0875,-4.06,0.050874,0.371978,-1.1651,-0.06062,0.13538,0.49336
1.63316,0,0,13.3668,13.3668,16.6332,16.6332,-1.81462,2.32169,-1.70419,0.0502837,0.328567,-0.154946,1,0,3.64,0.56,-0.5075,0.050874,0.371978,-1.1651,-0.06062,0.13538,0.49336
1.63258,0,0,13.3674,13.3674,16.6326,16.6326,-1.81398,2.32201,-1.70438,-0.0534707,0.298046,-0.060767,1,0,3.7625,0.3325,-1.05,-0.053314,0.341478,-1.07165,-0.0637,0.13608,0.49294
1.63237,0,0,13.3676,13.3676,16.6324,16.6324,-1.81375,2.32195,-1.70603,0.140664,0.22392,-0.19601,1,0,3.57,0.14,-1.9075,0.141642,0.267424,-1.20585,-0.0637,0.13608,0.49294
1.63265,0,0,13.3674,13.3674,16.6326,16.6326,-1.81405,2.32297,-1.70867,0.140647,0.223914,-0.196011,1,0,3.29,0.7875,-2.4675,0.141642,0.267424,-1.20585,-0.0637,0.13608,0.49294
1.63201,0,0,13.368,13.368,16.632,16.632,-1.81335,2.32308,-1.71264,0.122543,-0.0535454,-0.359778,1,0,3.885,0.28,-3.255,0.123464,-0.00976,-1.36835,-0.0637,0.13608,0.49294
1.6323,0,0,13.3677,13.3677,16.6323,16.6323,-1.81367,2.32336,-1.71721,0.122539,-0.0535509,-0.359779,1,0,3.325,0.385,-3.605,0.123464,-0.00976,-1.36835,-0.0637,0.13608,0.49294
1.63238,0,0,13.3676,13.3676,16.6324,16.6324,-1.81376,2.32325,-1.72228,0.0504994,0.0562394,-0.29019,1,0,3.465,0.175,-3.9025,0.051118,0.099918,-1.2993,-0.0637,0.13608,0.49294
1.63304,0,0,13.367,13.367,16.633,16.633,-1.81449,2.3229,-1.72764,0.0505055,0.0562267,-0.29019,1,0,3.115,0.035,-4.0775,0.051118,0.099918,-1.2993,-0.0637,0.13608,0.49294
1.63229,0,0,13.3677,13.3677,16.6323,16.6323,-1.81366,2.32234,-1.73311,-0.185774,0.260681,-0.182732,1,0,3.99,-0.0875,-4.1475,-0.186172,0.304146,-1.19267,-0.0637,0.13608,0.49294
1.63225,0,0,13.3677,13.3677,16.6323,16.6323,-1.81362,2.32188,-1.73799,-0.185766,0.260682,-0.182732,1,0,3.535,-0.035,-3.7975,-0.186172,0.304146,-1.19267,-0.06454,0.13734,0.48538
1.63093,0,0,13.3691,13.3691,16.6309,16.6309,-1.81214,2.32103,-1.74225,-0.0347448,0.0726325,-0.125805,1,0,4.3225,-0.28,-3.4475,-0.034526,0.116266,-1.13619,-0.06454,0.13734,0.48538
1.63059,0,0,13.3694,13.3694,16.6306,16.6306,-1.81176,2.32076,-1.74498,-0.0347401,0.0726391,-0.125805,1,0,3.675,0.035,-2.5375,-0.034526,0.116266,-1.13619,-0.06454,0.13734,0.48538
1.63028,0,0,13.3697,13.3697,16.6303,16.6303,-1.81143,2.32,-1.74714,0.0130169,0.162652,-0.0964192,1,0,3.64,-0.2625,-2.2225,0.01342,0.20618,-1.10703,-0.06454,0.13734,0.48538
1.62907,0,0,13.3709,13.3709,16.6291,16.6291,-1.81008,2.31984,-1.74752,0.0130198,0.162676,-0.0964184,1,0,4.165,0.0525,-1.1725,0.01342,0.20618,-1.10703,-0.06454,0.13734,0.48538
1.8552,0,0,13.1448,13.1448,16.8552,16.8552,-2.06133,2.60862,-2.05402,0.224472,0.207644,0.155016,0,0,3.5,0.1925,-0.525,0.230824,0.255468,-0.857172,-0.06454,0.13734,0.48538
2.07798,0,0,12.922,12.922,17.078,17.078,-2.30887,2.89041,-2.36118,0.219559,0.203341,0.154615,0,0,3.1675,-0.7875,0.245,0.230824,0.255468,-0.857172,-0.06454,0.13734,0.48538
2.07921,0,0,12.9208,12.9208,17.0792,17.0792,-2.31024,2.88939,-2.35834,-0.0482988,0.0363695,0.198508,1,0,2.555,-0.525,0.6825,-0.038186,0.088694,-0.813618,-0.06454,0.13734,0.48538
2.07888,0,0,12.9211,12.9211,17.0789,17.0789,-2.30986,2.88781,-2.35449,-0.0482713,0.0363759,0.198509,1,0,3.5,-0.875,1.26,-0.038186,0.088694,-0.813618,-0.06146,0.13006,0.48412
2.07915,0,0,12.9209,12.9209,17.0791,17.0791,-2.31016,2.88701,-2.34964,-0.278716,-0.0372718,0.128306,1,0,3.0975,-0.4375,1.855,-0.26962,0.015128,-0.88328,-0.06146,0.13006,0.48412
2.07832,0,0,12.9217,12.9217,17.0783,17.0783,-2.30924,2.88706,-2.34483,-0.278717,-0.0372558,0.128307,1,0,3.78,0.0525,1.855,-0.26962,0.015128,-0.88328,-0.06146,0.13006,0.48412
1.99744,0,0,13.0026,13.0026,16.9974,16.9974,-2.21938,2.60343,-2.07764,-0.234289,-0.0799097,0.116926,0,0,3.3425,0.3325,2.0125,-0.22997,-0.029036,-0.89487,-0.06146,0.13006,0.48412
1.91816,0,0,13.0818,13.0818,16.9182,16.9182,-2.13128,2.32575,-1.81242,-0.229447,-0.0783825,0.117192,0,0,3.3425,0.7175,1.5225,-0.22997,-0.029036,-0.89487,-0.06146,0.13006,0.48412
1.91863,0,0,13.0814,13.0814,16.9186,16.9186,-2.13182,2.32647,-1.80836,0.143501,0.303376,-0.104362,1,0,3.01,0.4725,1.435,0.14457,0.352336,-1.11471,-0.06146,0.13006,0.48412
1.91977,0,0,13.0802,13.0802,16.9198,16.9198,-2.13308,2.32759,-1.8054,0.143482,0.303354,-0.104363,1,0,2.625,0.735,0.805,0.14457,0.352336,-1.11471,-0.06146,0.13006,0.48412
2.03695,0,0,12.963,12.963,17.037,17.037,-2.26328,2.22912,-1.72546,-0.0926699,0.130105,-0.0458587,0,0,3.325,0,0.1925,-0.094306,0.181536,-1.05664,-0.06146,0.13006,0.48412
2.15195,0,0,12.848,12.848,17.152,17.152,-2.39106,2.1323,-1.64532,-0.0909813,0.127876,-0.045885,0,0,3.3425,0.315,-0.595,-0.094306,0.181536,-1.05664,-0.06538,0.12992,0.48244
2.15156,0,0,12.8484,12.8484,17.1516,17.1516,-2.39062,2.13245,-1.64587,0.0811612,0.0389754,-0.122359,1,0,3.6575,0.245,-1.26,0.078568,0.09272,-1.13253,-0.06538,0.12992,0.48244
2.15264,0,0,12.8474,12.8474,17.1526,17.1526,-2.39182,2.13241,-1.64748,0.0811619,0.0389546,-0.12236,1,0,2.765,0.1575,-1.89,0.078568,0.09272,-1.13253,-0.06538,0.12992,0.48244
2.15404,0,0,12.846,12.846,17.154,17.154,-2.39338,2.13258,-1.64977,0.280638,0.242635,-0.0857222,1,0,2.5725,0.2975,-2.275,0.278892,0.296216,-1.09617,-0.06538,0.12992,0.48244
2.15616,0,0,12.8438,12.8438,17.1562,17.1562,-2.39574,2.13273,-1.65332,0.280636,0.242594,-0.085724,1,0,2.1525,0.315,-3.01,0.278892,0.296216,-1.09617,-0.06538,0.12992,0.48244
2.05644,0,0,12.9436,12.9436,17.0564,17.0564,-2.28493,2.01964,-1.54563,-0.101651,-0.104394,0.00331815,0,0,2.8875,0.63,-3.3075,-0.106994,-0.052338,-1.00796,-0.06538,0.12992,0.48244
1.95738,0,0,13.0426,13.0426,16.9574,16.9574,-2.17487,1.90884,-1.43872,-0.0997182,-0.102478,0.00345908,0,0,3.6225,0.7,-3.4125,-0.106994,-0.052338,-1.00796,-0.06538,0.12992,0.48244
2.05748,0,0,12.9425,12.9425,17.0575,17.0575,-2.28608,1.90543,-1.44465,-0.00356349,0.110038,-0.0339908,0,0,3.675,1.1725,-3.36,-0.010492,0.161894,-1.04505,-0.06538,0.12992,0.48244
2.15571,0,0,12.8443,12.8443,17.1557,17.1557,-2.39523,1.90179,-1.4478,-0.00349996,0.108135,-0.0340664,0,0,3.675,1.1725,-3.36,-0.010492,0.161894,-1.04505,-0.06594,0.12824,0.48454
2.02278,0,0,12.9772,12.9772,17.0228,17.0228,-2.24754,1.86884,-1.4073,-0.0309884,-0.145025,-0.0692294,0,0,3.605,0.91,-3.01,-0.038674,-0.093574,-1.08007,-0.06594,0.12824,0.48454
2.34181,0,0,12.6582,12.6582,17.3418,17.3418,-2.60201,1.94992,-1.5065,0.0792425,0.354282,0.00914893,0,0,2.975,0.175,-2.73,0.073444,0.411384,-1.00199,-0.06594,0.12824,0.48454
2.65608,0,0,12.3439,12.3439,17.6561,17.6561,-2.9512,2.02899,-1.60576,0.0778634,0.348201,0.00880603,0,0,2.4675,-0.1225,-2.345,0.073444,0.411384,-1.00199,-0.06594,0.12824,0.48454
2.65754,0,0,12.3425,12.3425,17.6575,17.6575,-2.95283,2.0287,-1.60724,0.262405,0.187209,-0.0665627,1,0,2.52,0.0175,-1.82,0.258762,0.250588,-1.07677,-0.06594,0.12824,0.48454
2.65738,0,0,12.3426,12.3426,17.6574,17.6574,-2.95265,2.02788,-1.60804,0.262419,0.187212,-0.066562,1,0,3.5175,-0.315,-1.435,0.258762,0.250588,-1.07677,-0.06594,0.12824,0.48454
2.55009,0,0,12.4499,12.4499,17.5501,17.5501,-2.83343,1.95713,-1.5312,-0.0630215,-0.108336,0.0600998,0,0,3.0975,0.49,-0.84,-0.069296,-0.046726,-0.951234,-0.06594,0.12824,0.48454
2.44313,0,0,12.5569,12.5569,17.4431,17.4431,-2.71459,1.88628,-1.4538,-0.0617855,-0.106267,0.0602416,0,0,4.1125,-0.385,-0.2975,-0.069296,-0.046726,-0.951234,-0.06594,0.12824,0.48454
2.44383,0,0,12.5562,12.5562,17.4438,17.4438,-2.71536,1.88594,-1.45146,-0.194442,-0.17284,0.338719,1,0,2.9225,-0.1225,0.4025,-0.20252,-0.113216,-0.674904,-0.06048,0.13006,0.4914
2.4429,0,0,12.5571,12.5571,17.4429,17.4429,-2.71433,1.88456,-1.44827,-0.165869,0.024657,0.113234,1,0,3.92,-0.7525,0.875,-0.17385,0.084058,-0.898652,-0.06048,0.13006,0.4914
2.44197,0,0,12.558,12.558,17.442,17.442,-2.7133,1.88318,-1.44508,-0.165845,0.0246749,0.113235,1,0,3.92,-0.7525,0.875,-0.17385,0.084058,-0.898652,-0.06048,0.13006,0.4914
2.44281,0,0,12.5572,12.5572,17.4428,17.4428,-2.71423,1.88174,-1.44276,-0.239561,-0.118596,-0.109424,1,0,2.835,-0.77,0.3675,-0.247904,-0.059048,-1.11959,-0.06048,0.13006,0.4914
2.44318,0,0,12.5568,12.5568,17.4432,17.4432,-2.71464,1.88169,-1.44062,-0.103982,-0.118237,-0.222537,1,0,3.1325,0.0525,0.2975,-0.111752,-0.058682,-1.23183,-0.06048,0.13006,0.4914
2.44287,0,0,12.5571,12.5571,17.4429,17.4429,-2.7143,1.8811,-1.43843,-0.103972,-0.118231,-0.222537,1,0,3.5525,-0.2625,0.315,-0.111752,-0.058682,-1.23183,-0.06048,0.13006,0.4914
2.4429,0,0,12.5571,12.5571,17.4429,17.4429,-2.71433,1.88112,-1.43614,0.140214,-0.0205299,-0.154177,1,0,3.3425,0.0875,0.385,0.133468,0.038918,-1.164,-0.06048,0.13006,0.4914
2.44298,0,0,12.557,12.557,17.443,17.443,-2.71442,1.87998,-1.43494,0.140234,-0.0205316,-0.154177,1,0,3.325,-0.56,-0.28,0.133468,0.038918,-1.164,-0.06048,0.13006,0.4914
2.24762,0,0,12.7524,12.7524,17.2476,17.2476,-2.49735,1.94279,-1.48283,0.0644242,-0.219356,-0.0703133,0,0,3.0275,0.0175,-0.315,0.058438,-0.16348,-1.08092,-0.06678,0.13048,0.49406
2.24829,0,0,12.7517,12.7517,17.2483,17.2483,-2.4981,1.94319,-1.48255,-0.13652,-0.0255535,-0.18441,1,0,2.975,0.3675,-0.77,-0.14335,0.030134,-1.19414,-0.06678,0.13048,0.49406
2.24993,0,0,12.7501,12.7501,17.2499,17.2499,-2.49992,1.94339,-1.48339,-0.136524,-0.0255852,-0.184412,1,0,2.3975,0.28,-1.435,-0.14335,0.030134,-1.19414,-0.06678,0.13048,0.49406
2.25157,0,0,12.7484,12.7484,17.2516,17.2516,-2.50174,1.94436,-1.48437,-0.00254184,-0.0736128,-0.122325,1,0,2.3975,0.735,-1.4875,-0.008784,-0.017812,-1.13253,-0.06678,0.13048,0.49406
2.25203,0,0,12.748,12.748,17.252,17.252,-2.50226,1.94467,-1.48549,-0.0025472,-0.0736218,-0.122325,1,0,3.1325,0.35,-1.5925,-0.008784,-0.017812,-1.13253,-0.06678,0.13048,0.49406
2.03986,0,0,12.9601,12.9601,17.0399,17.0399,-2.26651,2.12185,-1.64456,0.175133,-0.239021,-0.0455441,0,0,3.4125,0.455,-1.855,0.172752,-0.187148,-1.0564,-0.06678,0.13048,0.49406
1.82773,0,0,13.1723,13.1723,16.8277,16.8277,-2.03081,2.38386,-1.88578,0.247464,-0.233807,0.00926546,0,0,3.5175,0.77,-2.0125,0.249978,-0.18605,-1.00199,-0.06678,0.13048,0.49406
1.62037,0,0,13.3796,13.3796,16.6204,16.6204,-1.80042,2.64263,-2.12491,0.242952,-0.229785,0.00920181,0,0,2.8175,1.6975,-2.065,0.249978,-0.18605,-1.00199,-0.06678,0.13048,0.49406
1.40109,0,0,13.5989,13.5989,16.4011,16.4011,-1.55677,2.82592,-2.29615,0.162613,-0.231764,0.0464271,0,0,2.4675,1.89,-1.7325,0.172508,-0.192272,-0.96502,-0.06356,0.13132,0.49476
1.40269,0,0,13.5973,13.5973,16.4027,16.4027,-1.55855,2.82713,-2.29777,0.114241,0.15437,-0.100498,1,0,2.45,0.875,-1.8725,0.123952,0.193492,-1.11081,-0.06356,0.13132,0.49476
1.40493,0,0,13.5951,13.5951,16.4049,16.4049,-1.56103,2.8267,-2.29926,0.114248,0.154327,-0.100499,1,0,2.0475,-0.0875,-1.82,0.123952,0.193492,-1.11081,-0.06356,0.13132,0.49476
1.51976,0,0,13.4802,13.4802,16.5198,16.5198,-1.68862,2.6453,-2.15409,-0.170632,0.124376,-0.0187733,0,0,3.0625,0.385,-1.4875,-0.16531,0.165798,-1.0298,-0.06356,0.13132,0.49476
1.63106,0,0,13.3689,13.3689,16.6311,16.6311,-1.81228,2.46624,-2.00817,-0.16751,0.122217,-0.0186998,0,0,3.955,-0.21,-1.47,-0.16531,0.165798,-1.0298,-0.06356,0.13132,0.49476
1.22222,0,0,13.7778,13.7778,16.2222,16.2222,-1.35802,1.97137,-1.51932,-0.417158,-0.404544,0.247176,0,0,3.325,0.455,-1.19,-0.424682,-0.368318,-0.766526,-0.06356,0.13132,0.49476
0.820875,0,0,14.1791,14.1791,15.8209,15.8209,-0.912083,1.48337,-1.03902,-0.408644,-0.396771,0.247587,0,0,2.6075,-0.0525,-1.33,-0.424682,-0.368318,-0.766526,-0.06356,0.13132,0.49476
0.822384,0,0,14.1776,14.1776,15.8224,15.8224,-0.913759,1.48267,-1.03949,0.277276,-0.0648599,-0.220232,1,0,2.4675,-0.2625,-1.225,0.26413,-0.036722,-1.23074,-0.06132,0.126,0.48482
0.748037,0,0,14.252,14.252,15.748,15.748,-0.831152,1.33262,-0.881173,-0.136559,-0.0812502,-0.0133463,0,0,2.38,-0.14,-0.875,-0.154086,-0.054534,-1.02553,-0.06132,0.126,0.48482
0.675061,0,0,14.3249,14.3249,15.6751,15.6751,-0.750068,1.18543,-0.723533,-0.13399,-0.0798363,-0.0132703,0,0,2.38,-0.14,-0.875,-0.154086,-0.054534,-1.02553,-0.06132,0.126,0.48482
0.674617,0,0,14.3254,14.3254,15.6746,15.6746,-0.749574,1.18337,-0.723324,0.161985,0.0641598,0.140785,1,0,3.675,-1.0675,-0.84,0.143106,0.089304,-0.872666,-0.06132,0.126,0.48482
0.67377,0,0,14.3262,14.3262,15.6738,15.6738,-0.748633,1.18209,-0.722615,-0.196254,-0.100939,-0.143471,1,0,3.92,-0.6125,-0.5425,-0.216672,-0.07564,-1.15473,-0.06132,0.126,0.48482
0.673031,0,0,14.327,14.327,15.673,15.673,-0.747812,1.18004,-0.721625,-0.196219,-0.100925,-0.14347,1,0,3.85,-1.0675,-0.385,-0.216672,-0.07564,-1.15473,-0.06132,0.126,0.48482
0.378865,0,0,14.6211,14.6211,15.3789,15.3789,-0.420961,1.10924,-0.622568,-0.069367,-0.321523,0.0120194,0,0,3.01,-0.6125,-0.3325,-0.090524,-0.301706,-1.00052,-0.06132,0.126,0.48482
0.0895512,0,0,14.9104,14.9104,15.0896,15.0896,-0.0995013,1.03966,-0.524575,-0.0681527,-0.315913,0.0120677,0,0,3.185,-0.595,-0.28,-0.090524,-0.301706,-1.00052,-0.06132,0.126,0.48482
-0.163616,0,0,15.1636,15.1636,14.8364,14.8364,0.181795,1.08224,-0.533273,0.0360679,-0.284503,-0.0223752,0,0,2.6075,-0.1575,-0.245,0.014884,-0.275232,-1.03468,-0.06286,0.12754,0.4837
-0.0280652,0,0,15.0281,15.0281,14.9719,14.9719,0.0311836,1.15272,-0.593259,0.0641161,0.143854,0.00563795,0,0,3.6575,0.245,-4.4275,0.044286,0.155306,-1.00687,-0.06286,0.12754,0.4837
0.10488,0,0,14.8951,14.8951,15.1049,15.1049,-0.116534,1.22287,-0.646058,0.062892,0.141276,0.00561065,0,0,3.675,0.84,-0.1225,0.044286,0.155306,-1.00687,-0.06286,0.12754,0.4837
0.0283773,0,0,14.9716,14.9716,15.0284,15.0284,-0.0315303,1.28694,-0.684588,0.0480461,-0.0732827,0.0890701,0,0,3.7275,0.56,-0.2975,0.0305,-0.060512,-0.924028,-0.06286,0.12754,0.4837
0.144041,0,0,14.856,14.856,15.144,15.144,-0.160046,1.31682,-0.701305,0.0260217,0.121832,0.00631017,0,0,3.3425,1.2075,-0.2625,0.008906,0.13664,-1.00613,-0.06286,0.12754,0.4837
0.258295,0,0,14.7417,14.7417,15.2583,15.2583,-0.286995,1.34513,-0.718824,0.0255278,0.119617,0.00629005,0,0,2.9225,0.6125,-0.7175,0.008906,0.13664,-1.00613,-0.06286,0.12754,0.4837
0.102217,0,0,14.8978,14.8978,15.1022,15.1022,-0.113574,0.897098,-0.281548,-0.397685,-0.165821,0.0984191,0,0,2.8,1.2075,-0.875,-0.42395,-0.151524,-0.914878,-0.06286,0.12754,0.4837
-0.0521761,0,0,15.0522,15.0522,14.9478,14.9478,0.0579734,0.457022,0.15196,-0.390005,-0.162827,0.0985113,0,0,3.4825,1.19,-1.1025,-0.42395,-0.151524,-0.914878,-0.06286,0.12754,0.4837
-0.186574,0,0,15.1866,15.1866,14.8134,14.8134,0.207305,0.515974,0.128223,0.0463145,-0.140559,0.0222685,0,0,3.0975,1.12,-1.12,0.01525,-0.131882,-0.990518,-0.0616,0.12894,0.48468
-0.187292,0,0,15.1873,15.1873,14.8127,14.8127,0.208102,0.517587,0.127721,-0.0883198,-0.254489,0.178659,1,0,3.85,1.085,-1.2425,-0.119926,-0.245708,-0.835334,-0.0616,0.12894,0.48468
-0.188168,0,0,15.1882,15.1882,14.8118,14.8118,0.209076,0.518218,0.126136,-0.0883308,-0.254472,0.178658,1,0,3.955,0.5075,-1.8725,-0.119926,-0.245708,-0.835334,-0.0616,0.12894,0.48468
-0.218719,0,0,15.2187,15.2187,14.7813,14.7813,0.243021,0.765258,-0.078364,0.22152,-0.0339295,0.00279152,0,0,3.115,0.2275,-1.7675,0.195566,-0.025986,-1.00979,-0.0616,0.12894,0.48468
-0.249276,0,0,15.2493,15.2493,14.7507,14.7507,0.276973,1.00791,-0.283128,0.217285,-0.0333373,0.0027233,0,0,3.5,0.455,-2.275,0.195566,-0.025986,-1.00979,-0.0616,0.12894,0.48468
-0.24883,0,0,15.2488,15.2488,14.7512,14.7512,0.276478,1.00816,-0.285854,-0.186902,-0.241206,0.165261,1,0,3.15,0.28,-2.5375,-0.210328,-0.23363,-0.84851,-0.0616,0.12894,0.48468
-0.249742,0,0,15.2497,15.2497,14.7503,14.7503,0.277491,1.00829,-0.287981,0.0642067,0.315221,0.203252,1,0,3.99,0.21,-2.1875,0.041846,0.322202,-0.810812,-0.0616,0.12894,0.48468
-0.250043,0,0,15.25,15.25,14.75,14.75,0.277825,1.00674,-0.289725,0.0642337,0.315227,0.203253,1,0,3.605,-0.77,-1.96,0.041846,0.322202,-0.810812,-0.0644,0.12782,0.47922
-0.251078,0,0,15.2511,15.2511,14.7489,14.7489,0.278975,1.00516,-0.2912,-0.0690086,-0.180343,-0.102643,1,0,4.06,-0.7875,-1.8025,-0.091988,-0.172874,-1.11435,-0.0644,0.12782,0.47922
-0.252322,0,0,15.2523,15.2523,14.7477,14.7477,0.280357,1.00451,-0.291891,-0.0689971,-0.180319,-0.102643,1,0,4.1825,-0.245,-1.3475,-0.091988,-0.172874,-1.11435,-0.0644,0.12782,0.47922
-0.276203,0,0,15.2762,15.2762,14.7238,14.7238,0.306892,1.18832,-0.441775,0.171374,-0.0262207,-0.0422159,0,0,3.99,-0.105,-1.05,0.152622,-0.019398,-1.05432,-0.0644,0.12782,0.47922
-0.265852,0,0,15.2659,15.2659,14.7341,14.7341,0.295391,1.23607,-0.471885,0.0475974,0.0131476,-0.0641173,0,0,4.41,-0.77,-0.8575,0.029158,0.02013,-1.07604,-0.0644,0.12782,0.47922
-0.418337,0,0,15.4183,15.4183,14.5817,14.5817,0.464819,1.45098,-0.647644,0.194247,-0.167453,0.000937833,0,0,3.57,-0.665,-0.4725,0.180194,-0.163236,-1.01138,-0.0644,0.12782,0.47922
-0.323985,0,0,15.324,15.324,14.676,14.676,0.359984,1.39983,-0.594157,-0.0423652,0.0989081,0.0272842,0,0,4.13,-0.595,-0.105,-0.058316,0.104676,-0.985272,-0.0644,0.12782,0.47922
-0.303023,0,0,15.303,15.303,14.697,14.697,0.336692,1.22681,-0.423634,-0.147104,0.0221729,0.0335033,0,0,3.6575,-0.525,0.245,-0.16653,0.028426,-0.979172,-0.0644,0.12782,0.47922
-0.303623,0,0,15.3036,15.3036,14.6964,14.6964,0.337359,1.22683,-0.421172,0.180664,-0.175905,0.184361,1,0,3.745,0.1575,0.49,0.162626,-0.169458,-0.829478,-0.0644,0.12782,0.47922
-0.495255,0,0,15.4953,15.4953,14.5047,14.5047,0.550284,0.952342,-0.13758,-0.225289,-0.184524,0.132908,0,0,3.3075,0.1225,0.525,-0.249856,-0.18178,-0.880596,-0.06342,0.12376,0.48398
-0.495262,0,0,15.4953,15.4953,14.5047,14.5047,0.550291,0.95276,-0.134664,0.351517,-0.274897,-0.0989731,1,0,3.3775,0.4025,0.7525,0.3294,-0.27206,-1.11069,-0.06342,0.12376,0.48398
-0.349927,0,0,15.3499,15.3499,14.6501,14.6501,0.388808,0.877531,-0.0449694,-0.0600995,0.146553,0.0568467,0,0,2.9575,-0.14,0.63,-0.085278,0.151768,-0.956114,-0.06342,0.12376,0.48398
-0.206954,0,0,15.207,15.207,14.793,14.793,0.229949,0.805786,0.0442126,-0.0588475,0.143781,0.0568801,0,0,2.8175,1.015,0.105,-0.085278,0.151768,-0.956114,-0.06342,0.12376,0.48398
-0.207219,0,0,15.2072,15.2072,14.7928,14.7928,0.230243,0.806583,0.0458978,0.0644466,-0.14944,-0.214222,1,0,3.5525,0.6125,0.035,0.038552,-0.141154,-1.22512,-0.06342,0.12376,0.48398
-0.207062,0,0,15.2071,15.2071,14.7929,14.7929,0.230069,0.808128,0.047556,0.0644196,-0.149443,-0.214222,1,0,3.29,1.05,0.0175,0.038552,-0.141154,-1.22512,-0.06342,0.12376,0.48398
-0.208548,0,0,15.2085,15.2085,14.7915,14.7915,0.23172,0.808423,0.0480396,0.202908,0.373288,-0.0513153,1,0,4.3225,0.315,-0.665,0.177632,0.381006,-1.06347,-0.06342,0.12376,0.48398
-0.208735,0,0,15.2087,15.2087,14.7913,14.7913,0.231928,0.808779,0.0480134,0.202902,0.373292,-0.0513154,1,0,3.5175,0.35,-0.9625,0.177632,0.381006,-1.06347,-0.06342,0.12376,0.48398
-0.0854952,0,0,15.0855,15.0855,14.9145,14.9145,0.0949946,0.6945,0.172061,-0.103191,0.138739,-0.0443974,0,0,3.7975,0.3325,-1.505,-0.13176,0.149084,-1.05664,-0.06384,0.12586,0.47964
0.013359,0,0,14.9866,14.9866,15.0134,15.0134,-0.0148434,0.964417,-0.05774,0.253275,0.110687,-0.00930094,0,0,3.92,0.28,-2.3625,0.230946,0.122976,-1.02175,-0.06384,0.12586,0.47964
0.111857,0,0,14.8881,14.8881,15.1119,15.1119,-0.124286,1.22979,-0.288283,0.248644,0.108777,-0.00939194,0,0,3.115,0.56,-2.45,0.230946,0.122976,-1.02175,-0.06384,0.12586,0.47964
0.0555672,0,0,14.9444,14.9444,15.0556,15.0556,-0.0617413,1.49652,-0.518674,0.257597,-0.0641617,-0.0487215,0,0,4.235,0.105,-2.7475,0.24461,-0.050874,-1.06067,-0.06384,0.12586,0.47964
0.00153611,0,0,14.9985,14.9985,15.0015,15.0015,-0.00170679,1.75762,-0.748304,0.253042,-0.0631143,-0.0488503,0,0,3.4825,-0.21,-2.8175,0.24461,-0.050874,-1.06067,-0.06384,0.12586,0.47964
0.000514296,0,0,14.9995,14.9995,15.0005,15.0005,-0.000571441,1.75732,-0.751662,-0.00523177,-0.0753071,-0.318968,1,0,4.095,-0.035,-2.905,-0.014762,-0.063074,-1.3287,-0.06384,0.12586,0.47964
-0.000394394,0,0,15.0004,15.0004,14.9996,14.9996,0.000438215,1.7572,-0.75403,-0.00522965,-0.0752895,-0.318968,1,0,4.0075,0.07,-2.3275,-0.014762,-0.063074,-1.3287,-0.06384,0.12586,0.47964
-0.00147496,0,0,15.0015,15.0015,14.9985,14.9985,0.00163884,1.75704,-0.756278,-0.0821275,-0.114715,-0.169708,1,0,4.1125,0.0525,-2.2575,-0.091988,-0.10248,-1.18059,-0.06384,0.12586,0.47964
-0.00172518,0,0,15.0017,15.0017,14.9983,14.9983,0.00191687,1.75585,-0.758076,-0.0821066,-0.114711,-0.169708,1,0,3.5875,-0.56,-1.995,-0.091988,-0.10248,-1.18059,-0.06706,0.12572,0.48566
-0.0475734,0,0,15.0476,15.0476,14.9524,14.9524,0.0528594,1.6334,-0.635965,-0.107062,-0.0484841,0.00973691,0,0,3.4125,-0.5425,-1.715,-0.119194,-0.03721,-1.0026,-0.06706,0.12572,0.48566
-0.0933778,0,0,15.0934,15.0934,14.9066,14.9066,0.103753,1.5137,-0.512654,-0.104973,-0.0475961,0.00979307,0,0,3.885,-0.3325,-0.7525,-0.119194,-0.03721,-1.0026,-0.06706,0.12572,0.48566
0.117901,0,0,14.8821,14.8821,15.1179,15.1179,-0.131001,1.58988,-0.580592,0.076898,0.242878,-0.0417593,0,0,3.99,-0.1925,-0.4375,0.064782,0.257054,-1.05371,-0.06706,0.12572,0.48566
0.324714,0,0,14.6753,14.6753,15.3247,15.3247,-0.360794,1.66393,-0.64855,0.0756061,0.238869,-0.0418132,0,0,4.4625,-0.6125,-0.245,0.064782,0.257054,-1.05371,-0.06706,0.12572,0.48566
0.44522,0,0,14.5548,14.5548,15.4452,15.4452,-0.494689,1.8069,-0.77524,0.120613,0.122101,0.0667802,0,0,3.675,0.07,0.315,0.112484,0.14274,-0.945866,-0.06706,0.12572,0.48566
0.563375,0,0,14.4366,14.4366,15.5634,15.5634,-0.625973,1.94725,-0.901999,0.118165,0.119812,0.0666776,0,0,3.815,0.105,0.49,0.112484,0.14274,-0.945866,-0.06706,0.12572,0.48566
0.551046,0,0,14.449,14.449,15.551,15.551,-0.612273,2.01945,-0.959334,0.0635731,-0.0140438,0.00823605,0,0,2.905,0.35,0.6475,0.058926,0.008784,-1.00382,-0.06706,0.12572,0.48566
0.538666,0,0,14.4613,14.4613,15.5387,15.5387,-0.598517,2.09087,-1.02493,0.0623273,-0.0138035,0.00819388,0,0,3.08,0.98,0.4725,0.058926,0.008784,-1.00382,-0.06342,0.13048,0.48692
0.539355,0,0,14.4606,14.4606,15.5394,15.5394,-0.599283,2.09167,-1.02254,0.116982,-0.0724376,-0.135657,1,0,2.9225,0.595,0.455,0.113826,-0.049776,-1.14656,-0.06342,0.13048,0.48692
0.539014,0,0,14.461,14.461,15.539,15.539,-0.598904,2.09151,-1.02043,0.116985,-0.072431,-0.135656,1,0,3.57,0.035,0.28,0.113826,-0.049776,-1.14656,-0.06342,0.13048,0.48692
0.364098,0,0,14.6359,14.6359,15.3641,15.3641,-0.404553,2.30247,-1.21104,0.197373,-0.193365,0.0100491,0,0,3.5,-0.385,-0.035,0.19825,-0.173972,-1.00186,-0.06342,0.13048,0.48692
0.19125,0,0,14.8088,14.8088,15.1912,15.1912,-0.2125,2.51005,-1.40013,0.193754,-0.190016,0.00991504,0,0,4.095,-0.035,-0.07,0.19825,-0.173972,-1.00186,-0.06342,0.13048,0.48692
0.636155,0,0,14.3638,14.3638,15.6362,15.6362,-0.706839,2.33981,-1.2778,-0.166155,0.48161,0.122715,0,0,3.99,0.2275,-0.6475,-0.166164,0.505568,-0.88999,-0.06342,0.13048,0.48692
1.07413,0,0,13.9259,13.9259,16.0741,16.0741,-1.19347,2.17204,-1.15365,-0.16323,0.473122,0.12269,0,0,3.955,0.21,-1.26,-0.166164,0.505568,-0.88999,-0.06342,0.13048,0.48692
1.07295,0,0,13.9271,13.9271,16.0729,16.0729,-1.19217,2.17201,-1.15509,0.162231,-0.09621,-0.274802,1,0,4.165,0.14,-1.785,0.160674,-0.063196,-1.28442,-0.06342,0.13048,0.48692
1.0727,0,0,13.9273,13.9273,16.0727,16.0727,-1.19189,2.17255,-1.1575,0.162222,-0.0962053,-0.274802,1,0,3.605,0.49,-2.345,0.160674,-0.063196,-1.28442,-0.0623,0.12586,0.48244
0.990458,0,0,14.0095,14.0095,15.9905,15.9905,-1.10051,1.97393,-0.965619,-0.195369,-0.0929044,-0.0812471,0,0,4.41,0.2625,-2.0475,-0.20191,-0.061488,-1.09251,-0.0623,0.12586,0.48244
0.909934,0,0,14.0901,14.0901,15.9099,15.9099,-1.01104,1.7791,-0.774743,-0.191971,-0.091346,-0.081107,0,0,4.27,0.315,-2.1175,-0.20191,-0.061488,-1.09251,-0.0623,0.12586,0.48244
0.958205,0,0,14.0418,14.0418,15.9582,15.9582,-1.06467,1.89349,-0.887376,0.119467,0.0557373,-0.047746,0,0,3.6225,-4.1475,-2.485,0.11285,0.086376,-1.05933,-0.0623,0.12586,0.48244
1.00564,0,0,13.9944,13.9944,16.0056,16.0056,-1.11737,2.00572,-1.00005,0.117509,0.0548195,-0.0478301,0,0,3.6225,-4.1475,-2.485,0.11285,0.086376,-1.05933,-0.0623,0.12586,0.48244
1.14358,0,0,13.8564,13.8564,16.1436,16.1436,-1.27065,1.96591,-0.969137,-0.0364477,0.129452,0.11025,0,0,2.7125,0.42,-2.415,-0.042456,0.163602,-0.902434,-0.0623,0.12586,0.48244
1.27819,0,0,13.7218,13.7218,16.2782,16.2782,-1.42021,1.92644,-0.937656,-0.0357592,0.126844,0.110212,0,0,3.255,0.1925,-2.24,-0.042456,0.163602,-0.902434,-0.0623,0.12586,0.48244
1.04898,0,0,13.951,13.951,16.049,16.049,-1.16553,1.74878,-0.752296,-0.157183,-0.233632,0.0929531,0,0,2.835,0.595,-1.96,-0.167506,-0.200934,-0.919758,-0.0623,0.12586,0.48244
0.823747,0,0,14.1763,14.1763,15.8237,15.8237,-0.915274,1.57301,-0.570477,-0.154116,-0.229268,0.0931213,0,0,2.835,0.595,-1.96,-0.167506,-0.200934,-0.919758,-0.06622,0.1274,0.48608
0.822678,0,0,14.1773,14.1773,15.8227,15.8227,-0.914086,1.57228,-0.571183,0.175851,0.0956096,-0.164578,1,0,4.0775,-0.28,-1.365,0.163846,0.123586,-1.17547,-0.06622,0.1274,0.48608
0.695333,0,0,14.3047,14.3047,15.6953,15.6953,-0.772592,1.55221,-0.536056,-0.0197548,-0.141413,-0.0275675,0,0,3.0625,0.4725,-0.8575,-0.03294,-0.115656,-1.03956,-0.06622,0.1274,0.48608
0.569435,0,0,14.4306,14.4306,15.5694,15.5694,-0.632706,1.53217,-0.499719,-0.0194052,-0.138972,-0.0275282,0,0,3.5525,0.28,-0.0175,-0.03294,-0.115656,-1.03956,-0.06622,0.1274,0.48608
0.661117,0,0,14.3389,14.3389,15.6611,15.6611,-0.734575,1.68109,-0.63188,0.147955,0.105215,-0.0614331,0,0,2.52,0.14,-0.175,0.137738,0.130052,-1.07311,-0.06622,0.1274,0.48608
0.751416,0,0,14.2486,14.2486,15.7514,15.7514,-0.834907,1.82779,-0.763975,0.145396,0.103466,-0.0615355,0,0,2.38,0.4725,0.0175,0.137738,0.130052,-1.07311,-0.06622,0.1274,0.48608
0.752554,0,0,14.2474,14.2474,15.7526,15.7526,-0.836171,1.82823,-0.762178,0.025239,-0.146306,-0.276819,1,0,2.66,0.385,0.105,0.01708,-0.119438,-1.28673,-0.06622,0.1274,0.48608
0.753263,0,0,14.2467,14.2467,15.7533,15.7533,-0.836959,1.82861,-0.760141,0.0252322,-0.146319,-0.276819,1,0,2.9225,0.35,0.245,0.01708,-0.119438,-1.28673,-0.06622,0.1274,0.48608
0.754191,0,0,14.2458,14.2458,15.7542,15.7542,-0.83799,1.82853,-0.757917,-0.100139,0.0645755,0.169852,1,0,2.7825,0.07,0.35,-0.108824,0.091256,-0.843508,-0.06944,0.11914,0.48622
0.754701,0,0,14.2453,14.2453,15.7547,15.7547,-0.838557,1.82826,-0.75578,0.352278,-0.244659,-0.0670693,1,0,3.045,-0.035,0.2975,0.345504,-0.217648,-1.0786,-0.06944,0.11914,0.48622
0.75534,0,0,14.2447,14.2447,15.7553,15.7553,-0.839267,1.8272,-0.754232,0.352296,-0.244672,-0.0670689,1,0,2.975,-0.49,-0.0525,0.345504,-0.217648,-1.0786,-0.06944,0.11914,0.48622
0.754076,0,0,14.2459,14.2459,15.7541,15.7541,-0.837862,2.04254,-0.936603,0.204215,-0.000636146,-0.0170325,0,0,3.9725,-0.315,-0.4025,0.200568,0.026108,-1.02883,-0.06944,0.11914,0.48622
0.752588,0,0,14.2474,14.2474,15.7526,15.7526,-0.836209,2.25442,-1.11889,0.20052,-0.000605286,-0.0171707,0,0,4.1475,0.035,-0.5075,0.200568,0.026108,-1.02883,-0.06944,0.11914,0.48622
0.749844,0,0,14.2502,14.2502,15.7498,15.7498,-0.83316,2.2543,-1.11889,-0.218361,0.0497641,-0.194093,1,0,5.11,0.07,-0.945,-0.220088,0.076372,-1.20438,-0.06944,0.11914,0.48622
0.748229,0,0,14.2518,14.2518,15.7482,15.7482,-0.831365,2.25394,-1.11903,-0.218355,0.0497954,-0.194092,1,0,4.41,-0.07,-1.0325,-0.220088,0.076372,-1.20438,-0.06944,0.11914,0.48622
0.747093,0,0,14.2529,14.2529,15.7471,15.7471,-0.830104,2.25336,-1.11923,-0.156022,0.0229495,-0.11983,1,0,4.1125,-0.1925,-1.0675,-0.157502,0.049532,-1.1307,-0.06944,0.11914,0.48622
0.745992,0,0,14.254,14.254,15.746,15.746,-0.82888,2.25284,-1.12039,-0.156013,0.0229708,-0.11983,1,0,4.1125,-0.1575,-1.6275,-0.157502,0.049532,-1.1307,-0.06762,0.12488,0.48426
0.765179,0,0,14.2348,14.2348,15.7652,15.7652,-0.850199,1.70992,-0.614686,-0.524728,0.01661,0.060489,0,0,2.0125,0.14,-1.9075,-0.537288,0.043554,-0.952088,-0.06762,0.12488,0.48426
0.766007,0,0,14.234,14.234,15.766,15.766,-0.851118,1.70974,-0.616902,0.411201,0.158994,-0.148647,1,0,2.9225,0.0525,-2.24,0.4026,0.185806,-1.15961,-0.06762,0.12488,0.48426
0.767288,0,0,14.2327,14.2327,15.7673,15.7673,-0.852542,1.70898,-0.619289,0.411214,0.158969,-0.148646,1,0,2.6425,-0.28,-2.345,0.4026,0.185806,-1.15961,-0.06762,0.12488,0.48426
0.56776,0,0,14.4322,14.4322,15.5678,15.5678,-0.630845,1.56736,-0.46873,-0.127655,-0.209651,0.0510196,0,0,3.64,-0.2625,-2.2575,-0.141032,-0.186294,-0.961604,-0.06762,0.12488,0.48426
0.370936,0,0,14.6291,14.6291,15.3709,15.3709,-0.412151,1.42894,-0.319692,-0.12524,-0.205836,0.0511175,0,0,4.13,0.0875,-2.31,-0.141032,-0.186294,-0.961604,-0.06762,0.12488,0.48426
0.118405,0,0,14.8816,14.8816,15.1184,15.1184,-0.131561,1.23565,-0.115913,-0.187713,-0.287773,-0.00386174,0,0,3.5,0.28,-2.0125,-0.207156,-0.273036,-1.01626,-0.06762,0.12488,0.48426
0.11695,0,0,14.883,14.883,15.117,15.117,-0.129945,1.23603,-0.117202,0.057074,0.0631254,0.247691,1,0,4.3225,0.3675,-1.6975,0.038674,0.07747,-0.766648,-0.06762,0.12488,0.48426
0.117826,0,0,14.8822,14.8822,15.1178,15.1178,-0.130917,1.23728,-0.118402,0.0570522,0.0631084,0.24769,1,0,2.87,0.875,-1.645,0.038674,0.07747,-0.766648,-0.06972,0.12138,0.4774
-0.0465575,0,0,15.0466,15.0466,14.9534,14.9534,0.0517305,1.16374,-0.0169864,-0.0761492,-0.193834,-0.0689959,0,0,2.94,1.225,-1.085,-0.09638,-0.18239,-1.08092,-0.06972,0.12138,0.4774
0.0506684,0,0,14.9493,14.9493,15.0507,15.0507,-0.0562983,1.36059,-0.174587,0.159864,0.0950644,0.103917,0,0,2.765,1.0675,-0.5425,0.144082,0.108092,-0.909266,-0.06972,0.12138,0.4774
0.146389,0,0,14.8536,14.8536,15.1464,15.1464,-0.162654,1.55191,-0.331976,0.156526,0.0932089,0.103828,0,0,2.66,-0.0175,-0.21,0.144082,0.108092,-0.909266,-0.06972,0.12138,0.4774
0.191283,0,0,14.8087,14.8087,15.1913,15.1913,-0.212537,1.70863,-0.458105,0.139335,0.0473962,0.0257984,0,0,3.255,-0.175,-0.035,0.129564,0.063196,-0.986614,-0.06972,0.12138,0.4774
0.235115,0,0,14.7649,14.7649,15.2351,15.2351,-0.261239,1.86183,-0.583881,0.136663,0.046547,0.0257116,0,0,3.43,-0.49,0.175,0.129564,0.063196,-0.986614,-0.06972,0.12138,0.4774
0.174026,0,0,14.826,14.826,15.174,15.174,-0.193362,1.68907,-0.405348,-0.164524,-0.069511,-0.063205,0,0,3.99,-0.245,0.5075,-0.175924,-0.053924,-1.07494,-0.06972,0.12138,0.4774
0.173184,0,0,14.8268,14.8268,15.1732,15.1732,-0.192427,1.68854,-0.402913,-0.219669,-0.34489,-0.189596,1,0,3.885,-0.175,0.4725,-0.231312,-0.329034,-1.20036,-0.06356,0.12236,0.47964
0.497274,0,0,14.5027,14.5027,15.4973,15.4973,-0.552527,1.69817,-0.414813,0.0130511,0.361193,0.0423623,0,0,4.235,-0.21,0.1925,0.002562,0.382592,-0.970144,-0.06356,0.12236,0.47964
0.816206,0,0,14.1838,14.1838,15.8162,15.8162,-0.906896,1.70783,-0.427354,0.0128826,0.355011,0.0422786,0,0,4.095,-0.0875,-0.2625,0.002562,0.382592,-0.970144,-0.06356,0.12236,0.47964
0.734993,0,0,14.265,14.265,15.735,15.735,-0.816659,1.69019,-0.391273,-0.0179101,-0.082949,0.0525161,0,0,4.06,0.105,-0.2625,-0.02867,-0.056486,-0.960018,-0.06356,0.12236,0.47964
0.655416,0,0,14.3446,14.3446,15.6554,15.6554,-0.72824,1.67266,-0.356348,-0.0176043,-0.0814067,0.0525459,0,0,3.955,0,-0.84,-0.02867,-0.056486,-0.960018,-0.06356,0.12236,0.47964
0.662594,0,0,14.3374,14.3374,15.6626,15.6626,-0.736216,1.62091,-0.294066,-0.0476802,0.0084612,-0.0368135,0,0,3.3775,0.0525,-1.085,-0.05978,0.033428,-1.04871,-0.06356,0.12236,0.47964
0.669673,0,0,14.3303,14.3303,15.6697,15.6697,-0.744081,1.56884,-0.232851,-0.0467718,0.00832367,-0.03679,0,0,3.3775,-0.7,-1.68,-0.05978,0.033428,-1.04871,-0.06356,0.12236,0.47964
0.670041,0,0,14.33,14.33,15.67,15.67,-0.74449,1.56815,-0.23488,-0.214046,-0.218473,0.160788,1,0,3.2025,-0.245,-2.135,-0.227774,-0.193126,-0.852658,-0.06356,0.12236,0.47964
0.670409,0,0,14.3296,14.3296,15.6704,15.6704,-0.744899,1.56747,-0.236909,-0.214034,-0.21848,0.160789,1,0,3.2025,-0.245,-2.135,-0.227774,-0.193126,-0.852658,-0.06664,0.12096,0.48356
0.584074,0,0,14.4159,14.4159,15.5841,15.5841,-0.648971,1.6713,-0.314942,0.0992887,-0.0979766,-0.0364515,0,0,3.255,-0.42,-3.1325,0.088694,-0.07442,-1.04835,-0.06664,0.12096,0.48356
0.584278,0,0,14.4157,14.4157,15.5843,15.5843,-0.649197,1.67075,-0.318084,-0.0564464,-0.0808828,0.133955,1,0,3.325,-0.1575,-2.7825,-0.06771,-0.05734,-0.879254,-0.06664,0.12096,0.48356
0.584099,0,0,14.4159,14.4159,15.5841,15.5841,-0.648998,1.67093,-0.320544,-0.0564496,-0.0808793,0.133955,1,0,3.5525,0.2625,-2.38,-0.06771,-0.05734,-0.879254,-0.06664,0.12096,0.48356
0.584257,0,0,14.4157,14.4157,15.5843,15.5843,-0.649174,1.67207,-0.323015,-0.00167931,-0.191529,-0.145753,1,0,3.3425,0.8225,-2.38,-0.012688,-0.167872,-1.1568,-0.06664,0.12096,0.48356
0.584687,0,0,14.4153,14.4153,15.5847,15.5847,-0.649652,1.67373,-0.324051,-0.00170825,-0.191538,-0.145754,1,0,3.15,1.12,-1.54,-0.012688,-0.167872,-1.1568,-0.06664,0.12096,0.48356
0.573972,0,0,14.426,14.426,15.574,15.574,-0.637747,1.98512,-0.595917,0.269847,-0.0139999,0.082513,0,0,2.8,0.945,-1.05,0.265472,0.009272,-0.930128,-0.06664,0.12096,0.48356
0.563509,0,0,14.4365,14.4365,15.5635,15.5635,-0.626121,2.29084,-0.867287,0.264515,-0.0137949,0.0823162,0,0,2.8,0.945,-1.05,0.265472,0.009272,-0.930128,-0.06664,0.12096,0.48356
0.605006,0,0,14.395,14.395,15.605,15.605,-0.672229,2.0813,-0.668625,-0.186187,0.0416998,0.052816,0,0,2.9575,0.315,-0.2975,-0.190808,0.065514,-0.95953,-0.06314,0.12264,0.48034
0.605198,0,0,14.3948,14.3948,15.6052,15.6052,-0.672442,2.08141,-0.666463,-0.0665255,0.192523,-0.102468,1,0,3.2375,0.1925,0.315,-0.070638,0.216184,-1.11362,-0.06314,0.12264,0.48034
0.458219,0,0,14.5418,14.5418,15.4582,15.4582,-0.509132,1.87054,-0.451702,-0.179595,-0.145242,0.115307,0,0,3.745,0.0875,0.3675,-0.18788,-0.124074,-0.897676,-0.06314,0.12264,0.48034
0.313889,0,0,14.6861,14.6861,15.3139,15.3139,-0.348766,1.66285,-0.23827,-0.175972,-0.142445,0.11544,0,0,3.71,-0.315,0.5075,-0.18788,-0.124074,-0.897676,-0.06314,0.12264,0.48034
0.313418,0,0,14.6866,14.6866,15.3134,15.3134,-0.348243,1.66259,-0.236015,0.0457439,-0.0287359,0.178635,1,0,3.6575,-0.0175,0.3675,0.03477,-0.010492,-0.834968,-0.06314,0.12264,0.48034
0.312867,0,0,14.6871,14.6871,15.3129,15.3129,-0.34763,1.6635,-0.233918,0.0457281,-0.0287252,0.178635,1,0,3.71,0.665,0.28,0.03477,-0.010492,-0.834968,-0.06314,0.12264,0.48034
0.311572,0,0,14.6884,14.6884,15.3116,15.3116,-0.346191,1.66339,-0.232385,0.184953,0.109059,-0.138572,1,0,4.1825,0.07,-0.0525,0.174582,0.127124,-1.14973,-0.06314,0.12264,0.48034
0.310954,0,0,14.689,14.689,15.311,15.311,-0.345505,1.66345,-0.230973,0.184952,0.109071,-0.138572,1,0,3.7625,0.175,-0.1225,0.174582,0.127124,-1.14973,-0.06314,0.12264,0.48034
0.309637,0,0,14.6904,14.6904,15.3096,15.3096,-0.344041,1.66277,-0.230726,-0.0563071,-0.175581,0.175316,1,0,4.2175,-0.2625,-0.805,-0.06771,-0.157258,-0.838262,-0.06398,0.12922,0.48048
0.244188,0,0,14.7558,14.7558,15.2442,15.2442,-0.27132,2.04799,-0.583943,0.368126,-0.0759993,0.0343293,0,0,3.535,-0.6475,-1.61,0.365268,-0.059048,-0.977952,-0.06398,0.12922,0.48048
0.164222,0,0,14.8358,14.8358,15.1642,15.1642,-0.182469,2.02311,-0.562273,-0.0204375,-0.0909368,-0.0413854,0,0,3.29,-0.77,-1.995,-0.025376,-0.075518,-1.0531,-0.06398,0.12922,0.48048
0.0858106,0,0,14.9142,14.9142,15.0858,15.0858,-0.0953451,1.99896,-0.541689,-0.0200162,-0.0894172,-0.0413669,0,0,3.22,-0.63,-2.5375,-0.025376,-0.075518,-1.0531,-0.06398,0.12922,0.48048
0.0702762,0,0,14.9297,14.9297,15.0703,15.0703,-0.0780847,2.09271,-0.632942,0.0954608,-0.018771,-0.0705637,0,0,3.2025,-0.4725,-2.8,0.092232,-0.005246,-1.08202,-0.06398,0.12922,0.48048
0.0541454,0,0,14.9459,14.9459,15.0541,15.0541,-0.0601615,2.18576,-0.723708,0.0938379,-0.0184583,-0.0706239,0,0,3.745,0.1575,-2.625,0.092232,-0.005246,-1.08202,-0.06398,0.12922,0.48048
0.258542,0,0,14.7415,14.7415,15.2585,15.2585,-0.287269,1.99216,-0.561386,-0.172848,0.213407,0.0753041,0,0,3.6575,0.1925,-2.6775,-0.178974,0.230336,-0.937326,-0.06398,0.12922,0.48048
0.460393,0,0,14.5396,14.5396,15.4604,15.4604,-0.511548,1.80189,-0.389742,-0.169529,0.209494,0.0753868,0,0,3.045,0.735,-2.1,-0.178974,0.230336,-0.937326,-0.06216,0.12418,0.48104
0.530601,0,0,14.4694,14.4694,15.5306,15.5306,-0.589556,1.62263,-0.217187,-0.167495,0.0769681,-0.00444932,0,0,3.045,0.5775,-1.785,-0.180072,0.099308,-1.01663,-0.06216,0.12418,0.48104
0.600256,0,0,14.3997,14.3997,15.6003,15.6003,-0.666951,1.44709,-0.0435635,-0.164432,0.075617,-0.00438206,0,0,2.625,0.805,-1.33,-0.180072,0.099308,-1.01663,-0.06216,0.12418,0.48104
0.653142,0,0,14.3469,14.3469,15.6531,15.6531,-0.725713,1.92141,-0.476294,0.418806,0.0520015,0.147572,0,0,3.2725,0.3675,-0.455,0.413946,0.076738,-0.86559,-0.06216,0.12418,0.48104
0.705375,0,0,14.2946,14.2946,15.7054,15.7054,-0.78375,2.38781,-0.909437,0.410672,0.0509934,0.147253,0,0,3.2725,0.3675,-0.455,0.413946,0.076738,-0.86559,-0.06216,0.12418,0.48104
0.497678,0,0,14.5023,14.5023,15.4977,15.4977,-0.552976,2.3599,-0.868062,-0.028255,-0.207922,0.106993,0,0,3.3775,0.4725,0.35,-0.027328,-0.185928,-0.905606,-0.06216,0.12418,0.48104
0.293545,0,0,14.7065,14.7065,15.2935,15.2935,-0.326161,2.33246,-0.827131,-0.0277765,-0.203967,0.107043,0,0,3.3775,0.4725,0.35,-0.027328,-0.185928,-0.905606,-0.06216,0.12418,0.48104
-0.187335,0,0,15.1873,15.1873,14.8127,14.8127,0.20815,2.04164,-0.526907,-0.256321,-0.489706,0.241752,0,0,3.01,0.105,0.3675,-0.261934,-0.48068,-0.772138,-0.06216,0.12418,0.48104
-0.19138,0,0,15.1914,15.1914,14.8086,14.8086,0.212644,2.07158,-0.560358,0.0285262,-0.00429641,-0.0349012,0,0,3.5875,0.77,0.455,0.024644,0.004148,-1.04664,-0.06048,0.1337,0.48132
-0.195261,0,0,15.1953,15.1953,14.8047,14.8047,0.216956,2.1005,-0.594027,0.0280218,-0.00422127,-0.0349198,0,0,3.535,0.5075,0.2975,0.024644,0.004148,-1.04664,-0.06048,0.1337,0.48132
-0.257574,0,0,15.2576,15.2576,14.7424,14.7424,0.286194,1.90675,-0.422301,-0.175489,-0.0672517,0.0124053,0,0,3.85,-0.245,-0.385,-0.183122,-0.060024,-0.99979,-0.06048,0.1337,0.48132
-0.259141,0,0,15.2591,15.2591,14.7409,14.7409,0.287934,1.90683,-0.421278,-0.282398,0.0071538,-0.164764,1,0,4.3575,0.1925,-0.35,-0.290482,0.014274,-1.17559,-0.06048,0.1337,0.48132
-0.260801,0,0,15.2608,15.2608,14.7392,14.7392,0.289779,1.9068,-0.421816,-0.282397,0.00718597,-0.164764,1,0,4.445,0.1225,-1.26,-0.290482,0.014274,-1.17559,-0.06048,0.1337,0.48132
-0.262461,0,0,15.2625,15.2625,14.7375,14.7375,0.291624,1.90677,-0.422354,0.0615294,0.236206,0.225475,1,0,4.445,0.1225,-1.26,0.0549,0.243024,-0.788364,-0.06048,0.1337,0.48132
-0.220685,0,0,15.2207,15.2207,14.7793,14.7793,0.245206,1.88156,-0.412115,-0.0216129,0.0457333,-0.0237237,0,0,2.9575,-0.77,-2.7125,-0.029036,0.053558,-1.03566,-0.06048,0.1337,0.48132
-0.179643,0,0,15.1796,15.1796,14.8204,14.8204,0.199604,1.85681,-0.401837,-0.0211812,0.0449379,-0.0237065,0,0,2.9575,-0.77,-2.7125,-0.029036,0.053558,-1.03566,-0.06048,0.1337,0.48132
-0.179111,0,0,15.1791,15.1791,14.8209,14.8209,0.199012,1.85571,-0.405319,-0.120902,-0.299714,0.213708,1,0,3.1325,-0.5075,-2.975,-0.129198,-0.290726,-0.800076,-0.06384,0.12572,0.48146
-0.179562,0,0,15.1796,15.1796,14.8204,14.8204,0.199514,1.85533,-0.408799,0.309529,0.240583,-0.152925,1,0,3.745,-0.0875,-2.975,0.303048,0.249002,-1.16388,-0.06384,0.12572,0.48146
-0.180028,0,0,15.18,15.18,14.82,14.82,0.200031,1.85487,-0.411798,0.309537,0.240592,-0.152924,1,0,3.745,-0.14,-2.695,0.303048,0.249002,-1.16388,-0.06384,0.12572,0.48146
-0.180286,0,0,15.1803,15.1803,14.8197,14.8197,0.200317,1.85475,-0.414197,-0.0281915,0.414994,-0.0487869,1,0,3.605,0.07,-2.345,-0.036112,0.423218,-1.06055,-0.06384,0.12572,0.48146
-0.179107,0,0,15.1791,15.1791,14.8209,14.8209,0.199008,1.85541,-0.414792,-0.0282029,0.414972,-0.0487872,1,0,2.6775,0.525,-1.295,-0.036112,0.423218,-1.06055,-0.06384,0.12572,0.48146
-0.178368,0,0,15.1784,15.1784,14.8216,14.8216,0.198187,1.85639,-0.414786,-0.343597,-0.214118,0.214691,1,0,2.94,0.7175,-0.945,-0.352824,-0.205204,-0.7991,-0.06384,0.12572,0.48146
-0.177656,0,0,15.1777,15.1777,14.8223,14.8223,0.197395,1.85687,-0.413852,-0.343605,-0.214131,0.214691,1,0,2.94,0.42,-0.4025,-0.352824,-0.205204,-0.7991,-0.06384,0.12572,0.48146
-0.176867,0,0,15.1769,15.1769,14.8231,14.8231,0.196518,1.8568,-0.411689,-0.0920071,-0.0971493,0.115717,1,0,2.87,0.105,0.315,-0.100162,-0.088328,-0.89731,-0.06384,0.12572,0.48146
-0.178113,0,0,15.1781,15.1781,14.8219,14.8219,0.197903,1.85723,-0.408145,-0.0920147,-0.0971252,0.115717,1,0,4.1125,0.4025,1.12,-0.100162,-0.088328,-0.89731,-0.05894,0.12782,0.4837
-0.113347,0,0,15.1133,15.1133,14.8867,14.8867,0.125941,2.19024,-0.714171,0.29822,0.069177,0.0756799,0,0,3.3775,0.42,1.225,0.297558,0.079056,-0.936838,-0.05894,0.12782,0.4837
-0.049072,0,0,15.0491,15.0491,14.9509,14.9509,0.0545244,2.51795,-1.02077,0.292505,0.0679312,0.075447,0,0,3.08,0.7875,1.085,0.297558,0.079056,-0.936838,-0.05894,0.12782,0.4837
-0.0484888,0,0,15.0485,15.0485,14.9515,14.9515,0.0538764,2.51852,-1.01752,-0.0821663,0.174292,-0.161844,1,0,2.9575,0.4725,0.945,-0.07869,0.185318,-1.1723,-0.05894,0.12782,0.4837
-0.0471973,0,0,15.0472,15.0472,14.9528,14.9528,0.0524415,2.51836,-1.01443,-0.0821637,0.174267,-0.161844,1,0,2.52,0.0525,0.8575,-0.07869,0.185318,-1.1723,-0.05894,0.12782,0.4837
0.00341771,0,0,14.9966,14.9966,15.0034,15.0034,-0.00379745,2.35757,-0.874567,-0.147999,0.0559229,0.00942019,0,0,3.6925,-0.2275,0.28,-0.14762,0.068076,-1.00247,-0.05894,0.12782,0.4837
0.0520439,0,0,14.948,14.948,15.052,15.052,-0.0578265,2.1997,-0.735995,-0.145246,0.0549806,0.00952923,0,0,4.4275,-0.245,-0.56,-0.14762,0.068076,-1.00247,-0.05894,0.12782,0.4837
0.0497453,0,0,14.9503,14.9503,15.0497,15.0497,-0.0552725,2.20017,-0.735873,0.113632,0.0611315,-0.194443,1,0,4.83,0.42,-0.875,0.112362,0.074176,-1.20487,-0.05894,0.12782,0.4837
0.0482226,0,0,14.9518,14.9518,15.0482,15.0482,-0.0535806,2.19969,-0.737881,0.11364,0.061161,-0.194442,1,0,4.3925,-0.14,-2.1175,0.112362,0.074176,-1.20487,-0.05894,0.12782,0.4837
0.0598103,0,0,14.9402,14.9402,15.0598,15.0598,-0.0664559,2.36728,-0.90043,0.160769,0.0124522,-0.0160378,0,0,3.29,-0.4025,-2.695,0.162626,0.025742,-1.02773,-0.06244,0.1281,0.47656
0.0604197,0,0,14.9396,14.9396,15.0604,15.0604,-0.067133,2.17052,-0.729296,-0.183977,-0.000383043,-0.0182379,0,0,2.9575,-0.49,-3.64,-0.187026,0.012932,-1.03005,-0.06244,0.1281,0.47656
0.0609807,0,0,14.939,14.939,15.061,15.061,-0.0677564,1.97795,-0.55835,-0.180618,-0.000394059,-0.0181163,0,0,2.9925,-0.175,-3.605,-0.187026,0.012932,-1.03005,-0.06244,0.1281,0.47656
0.0476399,0,0,14.9524,14.9524,15.0476,15.0476,-0.0529332,1.99788,-0.580096,0.0217936,-0.0158898,-0.0562421,0,0,3.255,-0.14,-3.395,0.016592,-0.002806,-1.06787,-0.06244,0.1281,0.47656
0.0333295,0,0,14.9667,14.9667,15.0333,15.0333,-0.0370328,2.01727,-0.601928,0.0214556,-0.0156125,-0.0562537,0,0,4.0075,-0.245,-3.465,0.016592,-0.002806,-1.06787,-0.06244,0.1281,0.47656
0.017646,0,0,14.9824,14.9824,15.0176,15.0176,-0.0196067,2.11875,-0.698725,0.104361,-0.0184838,-0.076481,0,0,3.6575,-0.0875,-2.905,0.101626,-0.005978,-1.08787,-0.06244,0.1281,0.47656
0.00223548,0,0,14.9978,14.9978,15.0022,15.0022,-0.00248386,2.21922,-0.793315,0.102609,-0.0181852,-0.0765473,0,0,3.6225,0.4375,-1.7325,0.101626,-0.005978,-1.08787,-0.06244,0.1281,0.47656
-0.0866637,0,0,15.0867,15.0867,14.9133,14.9133,0.096293,2.2021,-0.775992,-0.0171206,-0.0919368,0.0650994,0,0,3.2375,0.2975,-1.19,-0.01891,-0.081374,-0.94733,-0.06244,0.1281,0.47656
-0.173492,0,0,15.1735,15.1735,14.8265,14.8265,0.192769,2.18708,-0.746271,-0.0168585,-0.0902542,0.0651052,0,0,2.8875,0.7175,-0.175,-0.01891,-0.081374,-0.94733,-0.06244,0.12096,0.47348
-0.173627,0,0,15.1736,15.1736,14.8264,14.8264,0.192919,2.18775,-0.744526,0.132071,0.139713,-0.116121,1,0,3.4475,0.5425,0.07,0.130662,0.148352,-1.12716,-0.06244,0.12096,0.47348
-0.174037,0,0,15.174,15.174,14.826,14.826,0.193374,2.18774,-0.740502,0.132071,0.139721,-0.116121,1,0,3.57,0.14,1.4,0.130662,0.148352,-1.12716,-0.06244,0.12096,0.47348
-0.0981352,0,0,15.0981,15.0981,14.9019,14.9019,0.109039,1.99764,-0.556697,-0.185943,0.0913538,-0.0671857,0,0,3.9725,0.4025,1.8025,-0.192028,0.101504,-1.07872,-0.06244,0.12096,0.47348
-0.0227595,0,0,15.0228,15.0228,14.9772,14.9772,0.0252883,1.81168,-0.372813,-0.182699,0.089893,-0.0670762,0,0,3.5175,0.77,1.645,-0.192028,0.101504,-1.07872,-0.06244,0.12096,0.47348
0.00245842,0,0,14.9975,14.9975,15.0025,15.0025,-0.00273158,1.73936,-0.28738,-0.0680911,0.0279744,-0.00974295,0,0,3.29,1.12,1.54,-0.078202,0.040138,-1.02187,-0.06244,0.12096,0.47348
0.0277794,0,0,14.9722,14.9722,15.0278,15.0278,-0.030866,1.66731,-0.201893,-0.066834,0.0274836,-0.00970571,0,0,2.9575,0.4725,1.5925,-0.078202,0.040138,-1.02187,-0.06244,0.12096,0.47348
-0.255341,0,0,15.2553,15.2553,14.7447,14.7447,0.283712,1.48557,-0.000607026,-0.167777,-0.299579,0.0975805,0,0,3.7975,0.105,1.295,-0.182756,-0.292068,-0.915488,-0.06244,0.12096,0.47348
-0.5342,0,0,15.5342,15.5342,14.4658,14.4658,0.593555,1.3028,0.181996,-0.164588,-0.294172,0.0976167,0,0,4.095,0.5775,0.0875,-0.182756,-0.292068,-0.915488,-0.06314,0.13104,0.47488
-0.699151,0,0,15.6992,15.6992,14.3008,14.3008,0.776834,1.64247,-0.115654,0.311663,-0.183749,0.0593121,0,0,4.3925,0.35,-0.8225,0.301462,-0.184952,-0.953308,-0.06314,0.13104,0.47488
-0.854243,0,0,15.8542,15.8542,14.1458,14.1458,0.949158,1.9756,-0.412896,0.305851,-0.180746,0.0590833,0,0,0,0.1225,-2.03,0.301462,-0.184952,-0.953308,-0.06314,0.13104,0.47488
-1.0618,0,0,16.0618,16.0618,13.9382,13.9382,1.17978,1.93361,-0.372606,-0.038071,-0.244626,-0.0321942,0,0,3.395,0.0175,-2.59,-0.044652,-0.252784,-1.04383,-0.06314,0.13104,0.47488
-1.2661,0,0,16.2661,16.2661,13.7339,13.7339,1.40678,1.892,-0.334301,-0.0373452,-0.240667,-0.0322593,0,0,3.5875,-0.245,-3.4475,-0.044652,-0.252784,-1.04383,-0.06314,0.13104,0.47488
-1.26437,0,0,16.2644,16.2644,13.7356,13.7356,1.40485,1.88831,-0.338434,-0.00119967,1.11229e-05,-0.0526658,0,0,3.115,-0.2625,-3.6925,-0.008418,-0.012322,-1.06408,-0.06314,0.13104,0.47488
-1.26268,0,0,16.2627,16.2627,13.7373,13.7373,1.40298,1.88483,-0.343096,-0.00113896,-2.15178e-05,-0.052663,0,0,3.1325,-0.1925,-4.0075,-0.008418,-0.012322,-1.06408,-0.06314,0.13104,0.47488
-1.26395,0,0,16.2639,16.2639,13.7361,13.7361,1.40438,1.88401,-0.348456,-0.0109649,-0.186973,-0.171554,1,0,4.2875,-0.42,-4.06,-0.0183,-0.199104,-1.18206,-0.06314,0.13104,0.47488
-1.26443,0,0,16.2644,16.2644,13.7356,13.7356,1.40493,1.88372,-0.352573,-0.0109598,-0.186964,-0.171554,1,0,3.78,-0.0875,-3.3425,-0.0183,-0.199104,-1.18206,-0.06538,0.12082,0.48202
-1.33595,0,0,16.336,16.336,13.664,13.664,1.48439,2.21103,-0.63342,0.306726,-0.0826303,0.0175473,0,0,3.815,-0.1925,-2.7475,0.306464,-0.096258,-0.994178,-0.06538,0.12082,0.48202
-1.40563,0,0,16.4056,16.4056,13.5944,13.5944,1.56181,2.53303,-0.911137,0.301111,-0.0812869,0.0172789,0,0,3.43,0.28,-1.7325,0.306464,-0.096258,-0.994178,-0.06538,0.12082,0.48202
-1.37386,0,0,16.3739,16.3739,13.6261,13.6261,1.52651,2.74974,-1.10478,0.17123,0.0330145,0.115726,0,0,2.59,0.2975,-1.295,0.179828,0.018544,-0.896334,-0.06538,0.12082,0.48202
-1.34285,0,0,16.3429,16.3429,13.6571,13.6571,1.49206,2.96355,-1.29573,0.167503,0.0324092,0.115556,0,0,2.695,1.0325,0.1575,0.179828,0.018544,-0.896334,-0.06538,0.12082,0.48202
-1.22333,0,0,16.2233,16.2233,13.7767,13.7767,1.35925,3.1836,-1.50299,0.202301,0.135486,0.00672109,0,0,3.395,0.595,0.56,0.218624,0.12383,-1.00418,-0.06538,0.12082,0.48202
-1.10517,0,0,16.1052,16.1052,13.8948,13.8948,1.22796,3.39924,-1.70956,0.198543,0.133194,0.0065567,0,0,3.01,0.42,1.2425,0.218624,0.12383,-1.00418,-0.06538,0.12082,0.48202
-1.18576,0,0,16.1858,16.1858,13.8142,13.8142,1.31751,3.38616,-1.69673,-0.00799735,-0.0965542,-0.066127,0,0,3.4475,0.5075,1.225,0.01098,-0.107238,-1.07628,-0.06538,0.12082,0.48202
-1.2646,0,0,16.2646,16.2646,13.7354,13.7354,1.40511,3.37239,-1.69004,-0.00775748,-0.0950282,-0.0661491,0,0,3.2025,0.245,1.47,0.01098,-0.107238,-1.07628,-0.0609,0.1246,0.47614
-1.45268,0,0,16.4527,16.4527,13.5473,13.5473,1.61409,3.20618,-1.5363,-0.156232,-0.226456,-0.0543985,0,0,3.6925,0.2275,1.75,-0.141032,-0.24217,-1.06469,-0.0609,0.1246,0.47614
-1.63842,0,0,16.6384,16.6384,13.3616,13.3616,1.82047,3.04228,-1.38552,-0.153376,-0.222856,-0.0543505,0,0,4.3225,-0.28,0.98,-0.141032,-0.24217,-1.06469,-0.0609,0.1246,0.47614
-1.67233,0,0,16.6723,16.6723,13.3277,13.3277,1.85814,2.92201,-1.28325,-0.106938,-0.0366858,0.0128675,0,0,3.22,0.0175,0.63,-0.096502,-0.056852,-0.998082,-0.0609,0.1246,0.47614
-1.70664,0,0,16.7066,16.7066,13.2934,13.2934,1.89627,2.80414,-1.18351,-0.104883,-0.0360183,0.0129484,0,0,3.92,0.035,-0.63,-0.096502,-0.056852,-0.998082,-0.0609,0.1246,0.47614
-1.40251,0,0,16.4025,16.4025,13.5975,13.5975,1.55834,2.54268,-0.974986,-0.254368,0.35721,0.0123551,0,0,2.9925,0.035,-1.12,-0.251198,0.341844,-0.999058,-0.0609,0.1246,0.47614
-1.10285,0,0,16.1029,16.1029,13.8971,13.8971,1.22539,2.28526,-0.765467,-0.24988,0.35141,0.0126853,0,0,2.8,-0.14,-2.17,-0.251198,0.341844,-0.999058,-0.0609,0.1246,0.47614
-1.00717,0,0,16.0072,16.0072,13.9928,13.9928,1.11907,2.24423,-0.736684,-0.0369286,0.106525,-0.00556776,0,0,3.325,-0.28,-2.87,-0.038064,0.099064,-1.01724,-0.0609,0.1246,0.47614
-0.912073,0,0,15.9121,15.9121,14.0879,14.0879,1.01341,2.20421,-0.708461,-0.0362306,0.104683,-0.00550636,0,0,2.6775,-0.14,-3.29,-0.038064,0.099064,-1.01724,-0.0609,0.1246,0.47614
-0.913304,0,0,15.9133,15.9133,14.0867,14.0867,1.01478,2.20272,-0.712387,0.350727,0.289118,-0.0559147,1,0,4.2525,-0.77,-3.22,0.350506,0.283284,-1.06726,-0.0672,0.12292,0.483
-0.913346,0,0,15.9133,15.9133,14.0867,14.0867,1.01483,2.20172,-0.716605,0.350745,0.289119,-0.055914,1,0,3.5175,-0.49,-3.395,0.350506,0.283284,-1.06726,-0.0672,0.12292,0.483
-0.914227,0,0,15.9142,15.9142,14.0858,14.0858,1.01581,2.2013,-0.720092,-0.0172281,0.0875046,-0.126486,1,0,4.025,-0.14,-2.975,-0.019032,0.081862,-1.13728,-0.0672,0.12292,0.483
-0.915109,0,0,15.9151,15.9151,14.0849,14.0849,1.01679,2.20088,-0.723579,-0.0172208,0.0875217,-0.126486,1,0,4.025,-0.14,-2.975,-0.019032,0.081862,-1.13728,-0.0672,0.12292,0.483
-0.833854,0,0,15.8339,15.8339,14.1661,14.1661,0.926504,1.77544,-0.33776,-0.398797,0.0914472,0.0423602,0,0,2.8525,0.49,-1.1025,-0.409676,0.087352,-0.970022,-0.0672,0.12292,0.483
-0.834275,0,0,15.8343,15.8343,14.1657,14.1657,0.926972,1.77624,-0.337444,0.10827,-0.0601039,-0.0959574,1,0,3.6575,0.6125,-0.77,0.099552,-0.06405,-1.10727,-0.0672,0.12292,0.483
-0.834464,0,0,15.8345,15.8345,14.1655,14.1655,0.927182,1.77719,-0.335386,0.108254,-0.0601003,-0.095958,1,0,3.4825,0.7175,0.245,0.099552,-0.06405,-1.10727,-0.0672,0.12292,0.483
-0.86971,0,0,15.8697,15.8697,14.1303,14.1303,0.966344,1.87254,-0.403234,0.0758544,-0.0364583,0.0816383,0,0,2.45,0.9975,0.7,0.068686,-0.041114,-0.930982,-0.0672,0.12292,0.483
-0.905207,0,0,15.9052,15.9052,14.0948,14.0948,1.00579,1.9651,-0.479194,0.0742399,-0.0357713,0.0815724,0,0,2.975,0.8925,1.0675,0.068686,-0.041114,-0.930982,-0.06314,0.12852,0.4795
-1.05611,0,0,16.0561,16.0561,13.9439,13.9439,1.17345,1.83507,-0.348607,-0.114953,-0.157049,0.0828215,0,0,2.3975,1.1725,1.1725,-0.123586,-0.165188,-0.929762,-0.06314,0.12852,0.4795
-1.20714,0,0,16.2071,16.2071,13.7929,13.7929,1.34126,1.70664,-0.218734,-0.112713,-0.15412,0.0828265,0,0,4.095,0.7,1.4,-0.123586,-0.165188,-0.929762,-0.06314,0.12852,0.4795
-1.20984,0,0,16.2098,16.2098,13.7902,13.7902,1.34426,1.70602,-0.215205,0.0493599,0.0496394,-0.214464,1,0,5.0225,-0.175,1.12,0.039162,0.038308,-1.22476,-0.06314,0.12852,0.4795
-1.21128,0,0,16.2113,16.2113,13.7887,13.7887,1.34587,1.70607,-0.21232,0.049359,0.0496674,-0.214465,1,0,4.2525,0.21,0.735,0.039162,0.038308,-1.22476,-0.06314,0.12852,0.4795
-1.2126,0,0,16.2126,16.2126,13.7874,13.7874,1.34734,1.70486,-0.210816,0.234524,-0.298979,-0.0923767,1,0,4.2,-0.5425,-0.0525,0.22509,-0.310002,-1.10361,-0.06314,0.12852,0.4795
-1.21289,0,0,16.2129,16.2129,13.7871,13.7871,1.34765,1.70452,-0.211391,0.23453,-0.298973,-0.0923767,1,0,3.5875,-0.07,-1.2775,0.22509,-0.310002,-1.10361,-0.06314,0.12852,0.4795
-1.21173,0,0,16.2117,16.2117,13.7883,13.7883,1.34636,1.70448,-0.21244,0.0557039,-0.0788012,0.114669,1,0,2.695,0.105,-1.5575,0.045506,-0.090036,-0.898164,-0.06314,0.12852,0.4795
-1.21198,0,0,16.212,16.212,13.788,13.788,1.34665,1.70421,-0.215055,0.0557086,-0.0787962,0.114669,1,0,3.605,-0.0525,-2.4675,0.045506,-0.090036,-0.898164,-0.06454,0.12516,0.47908
-0.936328,0,0,15.9363,15.9363,14.0637,14.0637,1.04036,1.62838,-0.153663,-0.0648186,0.287616,0.106827,0,0,3.01,-0.07,-2.9575,-0.07686,0.281332,-0.906094,-0.06454,0.12516,0.47908
-0.667264,0,0,15.6673,15.6673,14.3327,14.3327,0.741404,1.55287,-0.0922299,-0.0635013,0.282401,0.106945,0,0,4.305,-0.6475,-3.4125,-0.07686,0.281332,-0.906094,-0.06454,0.12516,0.47908
-0.668789,0,0,15.6688,15.6688,14.3312,14.3312,0.743099,1.55149,-0.0961458,0.222379,-0.114481,-0.1076,1,0,4.41,-0.7,-3.22,0.210206,-0.115168,-1.11898,-0.06454,0.12516,0.47908
-0.66973,0,0,15.6697,15.6697,14.3303,14.3303,0.744145,1.55094,-0.0997809,0.222388,-0.114463,-0.1076,1,0,4.0425,-0.21,-3.0625,0.210206,-0.115168,-1.11898,-0.06454,0.12516,0.47908
-0.671386,0,0,15.6714,15.6714,14.3286,14.3286,0.745984,1.55005,-0.10294,0.30307,0.161698,-0.298293,1,0,4.48,-0.4025,-2.7825,0.291214,0.160674,-1.30821,-0.06454,0.12516,0.47908
-0.671444,0,0,15.6714,15.6714,14.3286,14.3286,0.746049,1.54974,-0.104802,0.303076,0.161699,-0.298293,1,0,3.465,-0.0525,-2.03,0.291214,0.160674,-1.30821,-0.06454,0.12516,0.47908
-0.603203,0,0,15.6032,15.6032,14.3968,14.3968,0.670225,1.72824,-0.259468,0.168028,0.0770849,-9.25333e-05,0,0,3.255,0.1575,-1.4175,0.158722,0.07747,-1.01223,-0.06454,0.12516,0.47908
-0.536491,0,0,15.5365,15.5365,14.4635,14.4635,0.596101,1.90474,-0.409069,0.164949,0.0757908,-0.000175882,0,0,3.4825,0.4375,-0.4725,0.158722,0.07747,-1.01223,-0.06944,0.12334,0.48118
-0.459767,0,0,15.4598,15.4598,14.5402,14.5402,0.510852,1.65152,-0.170679,-0.213799,0.0782131,0.112965,0,0,3.2725,0.735,0.1225,-0.226066,0.081374,-0.900116,-0.06944,0.12334,0.48118
-0.383551,0,0,15.3836,15.3836,14.6164,14.6164,0.426168,1.40238,0.0691958,-0.209453,0.0767366,0.113093,0,0,2.8175,0.42,0.77,-0.226066,0.081374,-0.900116,-0.06944,0.12334,0.48118
-0.403724,0,0,15.4037,15.4037,14.5963,14.5963,0.448582,1.64704,-0.131499,0.209778,-0.0220401,0.0807641,0,0,2.835,0.49,0.7875,0.199226,-0.01769,-0.93208,-0.06944,0.12334,0.48118
-0.423674,0,0,15.4237,15.4237,14.5763,14.5763,0.470749,1.88739,-0.330976,0.205585,-0.0216544,0.0806317,0,0,2.9225,0.6125,1.19,0.199226,-0.01769,-0.93208,-0.06944,0.12334,0.48118
-0.424926,0,0,15.4249,15.4249,14.5751,14.5751,0.47214,1.8879,-0.327309,-0.20954,-0.154626,-0.123586,1,0,4.1125,0.455,1.19,-0.217648,-0.150548,-1.13472,-0.06944,0.12334,0.48118
-0.426177,0,0,15.4262,15.4262,14.5738,14.5738,0.47353,1.8884,-0.323642,-0.209549,-0.154602,-0.123587,1,0,4.1125,0.455,1.19,-0.217648,-0.150548,-1.13472,-0.06944,0.12334,0.48118
-0.316358,0,0,15.3164,15.3164,14.6836,14.6836,0.351509,1.63459,-0.0864389,-0.235493,0.125383,0.0162342,0,0,4.2525,0.385,0.0175,-0.248148,0.131272,-0.99613,-0.06944,0.12334,0.48118
-0.20832,0,0,15.2083,15.2083,14.7917,14.7917,0.231467,1.38916,0.144104,-0.231211,0.123289,0.0163579,0,0,4.2525,0.385,0.0175,-0.248148,0.131272,-0.99613,-0.06006,0.12768,0.47446
-0.343563,0,0,15.3436,15.3436,14.6564,14.6564,0.381736,1.40545,0.141726,0.0131772,-0.148385,0.0296154,0,0,3.36,-0.14,-1.8375,-0.00244,-0.14274,-0.982954,-0.06006,0.12768,0.47446
-0.476513,0,0,15.4765,15.4765,14.5235,14.5235,0.529459,1.4214,0.139357,0.0128988,-0.145808,0.029588,0,0,3.36,-0.14,-1.8375,-0.00244,-0.14274,-0.982954,-0.06006,0.12768,0.47446
-0.493871,0,0,15.4939,15.4939,14.5061,14.5061,0.548745,1.66569,-0.077809,0.221115,-0.0193158,0.0454533,0,0,3.3425,0.7175,-2.905,0.210938,-0.016714,-0.967094,-0.06006,0.12768,0.47446
-0.510874,0,0,15.5109,15.5109,14.4891,14.4891,0.567638,1.90555,-0.294502,0.216931,-0.0189875,0.0453196,0,0,3.3425,0.7175,-2.905,0.210938,-0.016714,-0.967094,-0.06006,0.12768,0.47446
-0.529803,0,0,15.5298,15.5298,14.4702,14.4702,0.58867,2.03885,-0.419126,0.130052,-0.0235065,-0.0258284,0,0,2.9225,-0.3325,-3.3775,0.126026,-0.021594,-1.03761,-0.06006,0.12768,0.47446
-0.548387,0,0,15.5484,15.5484,14.4516,14.4516,0.609319,2.16969,-0.54347,0.12777,-0.0231473,-0.025916,0,0,2.9225,-0.3325,-3.3775,0.126026,-0.021594,-1.03761,-0.06006,0.12768,0.47446
-0.783932,0,0,15.7839,15.7839,14.2161,14.2161,0.871036,2.1429,-0.506506,-0.0321242,-0.245372,0.094901,0,0,4.0775,4.13,-2.8525,-0.035014,-0.248148,-0.917684,-0.06006,0.12768,0.47446
-1.01555,0,0,16.0156,16.0156,13.9844,13.9844,1.12839,2.11825,-0.463187,-0.0316942,-0.240884,0.0948387,0,0,4.0775,4.13,-2.8525,-0.035014,-0.248148,-0.917684,-0.0644,0.12334,0.48244
-0.917865,0,0,15.9179,15.9179,14.0821,14.0821,1.01985,2.3092,-0.638165,0.188023,0.116274,-0.0338586,0,0,4.0775,-0.0175,-1.8725,0.188978,0.110532,-1.0453,-0.0644,0.12334,0.48244
-0.821748,0,0,15.8217,15.8217,14.1783,14.1783,0.913053,2.49666,-0.813485,0.184754,0.114409,-0.0339644,0,0,4.0775,-0.0175,-1.8725,0.188978,0.110532,-1.0453,-0.0644,0.12334,0.48244
-0.857643,0,0,15.8576,15.8576,14.1424,14.1424,0.952937,2.54662,-0.855138,0.0489127,-0.0420732,-0.0314322,0,0,3.43,0.245,-0.0175,0.053436,-0.046482,-1.04273,-0.0644,0.12334,0.48244
-0.648305,0,0,15.6483,15.6483,14.3517,14.3517,0.720339,2.28377,-0.627479,-0.258236,0.247711,-0.0150734,0,0,2.7475,0.4375,0.0175,-0.259616,0.24705,-1.02675,-0.0644,0.12334,0.48244
-0.441846,0,0,15.4418,15.4418,14.5582,14.5582,0.49094,2.02613,-0.397571,-0.253743,0.243712,-0.014862,0,0,2.4325,0.84,0.245,-0.259616,0.24705,-1.02675,-0.0644,0.12334,0.48244
-0.292715,0,0,15.2927,15.2927,14.7073,14.7073,0.325239,1.76514,-0.15544,-0.228052,0.154235,0.103832,0,0,2.66,0.6825,0.7175,-0.238388,0.160552,-0.909144,-0.0644,0.12334,0.48244
-0.146561,0,0,15.1466,15.1466,14.8534,14.8534,0.162846,1.50789,0.0886671,-0.223563,0.151402,0.103972,0,0,3.01,0.175,1.1725,-0.238388,0.160552,-0.909144,-0.0644,0.12334,0.48244
0.048903,0,0,14.9511,14.9511,15.0489,15.0489,-0.0543366,1.83826,-0.214086,0.342506,0.242017,-0.00328101,0,0,4.4975,0.3675,1.085,0.335866,0.254858,-1.01541,-0.05978,0.12712,0.48048
-0.0212823,0,0,15.0213,15.0213,14.9787,14.9787,0.023647,1.56529,0.0482743,-0.27814,-0.0842883,-0.0578512,0,0,4.41,-0.0175,0.6125,-0.29219,-0.072468,-1.0697,-0.05978,0.12712,0.48048
-0.0836966,0,0,15.0837,15.0837,14.9163,14.9163,0.0929963,1.29694,0.308163,-0.273458,-0.0830782,-0.0577355,0,0,0.3675,-0.1575,-0.1925,-0.29219,-0.072468,-1.0697,-0.05978,0.12712,0.48048
-0.108671,0,0,15.1087,15.1087,14.8913,14.8913,0.120745,1.14437,0.462083,-0.15259,-0.0299573,-0.0693598,0,0,3.7275,-0.21,-0.77,-0.173484,-0.019886,-1.08129,-0.05978,0.12712,0.48048
-0.133708,0,0,15.1337,15.1337,14.8663,14.8663,0.148565,0.995066,0.614186,-0.149985,-0.0294717,-0.0693123,0,0,4.06,0.07,-1.61,-0.173484,-0.019886,-1.08129,-0.05978,0.12712,0.48048
-0.133979,0,0,15.134,15.134,14.866,14.866,0.148866,0.995487,0.61233,0.296832,-0.15025,-0.210457,1,0,3.5875,0.385,-2.03,0.275232,-0.140544,-1.22134,-0.05978,0.12712,0.48048
-0.135081,0,0,15.1351,15.1351,14.8649,14.8649,0.15009,0.994715,0.60975,0.296846,-0.150228,-0.210457,1,0,4.1125,-0.315,-2.45,0.275232,-0.140544,-1.22134,-0.05978,0.12712,0.48048
-0.135423,0,0,15.1354,15.1354,14.8646,14.8646,0.15047,0.993495,0.60705,0.431352,0.227516,0.0156455,1,0,3.64,-0.5775,-2.52,0.410286,0.236802,-0.996984,-0.05978,0.12712,0.48048
-0.135143,0,0,15.1351,15.1351,14.8649,14.8649,0.150158,0.992007,0.604049,0.431378,0.227511,0.015646,1,0,3.255,-0.735,-2.695,0.410286,0.236802,-0.996984,-0.0637,0.12348,0.46802
-0.267626,0,0,15.2676,15.2676,14.7324,14.7324,0.297363,1.03564,0.586465,0.041619,-0.155475,-0.038106,0,0,4.0075,-0.8925,-2.695,0.019642,-0.148352,-1.0503,-0.0637,0.12348,0.46802
-0.398661,0,0,15.3987,15.3987,14.6013,14.6013,0.442956,1.07909,0.569494,0.0408608,-0.152934,-0.0381364,0,0,4.4975,-0.49,-2.4325,0.019642,-0.148352,-1.0503,-0.0637,0.12348,0.46802
-0.58377,0,0,15.5838,15.5838,14.4162,14.4162,0.648633,0.756758,0.887343,-0.330241,-0.226406,-0.0165645,0,0,4.445,-0.105,-2.03,-0.35868,-0.225334,-1.02895,-0.0637,0.12348,0.46802
-0.765349,0,0,15.7653,15.7653,14.2347,14.2347,0.850388,0.441127,1.20425,-0.324733,-0.222885,-0.016553,0,0,4.13,0.56,-0.91,-0.35868,-0.225334,-1.02895,-0.0637,0.12348,0.46802
-0.764586,0,0,15.7646,15.7646,14.2354,14.2354,0.84954,0.441383,1.20495,0.183802,-0.090514,-0.158189,1,0,2.9225,0.2975,-0.5425,0.152012,-0.093086,-1.16949,-0.0637,0.12348,0.46802
-0.763095,0,0,15.7631,15.7631,14.2369,14.2369,0.847884,0.44256,1.20602,0.183781,-0.0905429,-0.158189,1,0,2.4675,0.84,-0.3325,0.152012,-0.093086,-1.16949,-0.0637,0.12348,0.46802
-0.621894,0,0,15.6219,15.6219,14.3781,14.3781,0.690993,0.711547,0.989863,0.234241,0.147552,0.112287,0,0,2.4675,0.4375,-0.1575,0.2074,0.147498,-0.901092,-0.0637,0.12348,0.46802
-0.483542,0,0,15.4835,15.4835,14.5165,14.5165,0.537269,0.976926,0.774323,0.22961,0.144869,0.112248,0,0,2.835,0.7875,0.28,0.2074,0.147498,-0.901092,-0.06636,0.12306,0.47698
-0.48377,0,0,15.4838,15.4838,14.5162,14.5162,0.537522,0.977318,0.776939,-0.0779985,-0.0709243,0.141263,1,0,3.5175,0.385,0.5775,-0.101504,-0.068076,-0.8723,-0.06636,0.12306,0.47698
-0.484217,0,0,15.4842,15.4842,14.5158,14.5158,0.538019,0.978429,0.779232,-0.0780179,-0.0709157,0.141263,1,0,3.6575,0.805,0.385,-0.101504,-0.068076,-0.8723,-0.06636,0.12306,0.47698
-0.668123,0,0,15.6681,15.6681,14.3319,14.3319,0.742359,0.861644,0.915803,-0.121659,-0.224771,-0.0517735,0,0,3.5525,0.2625,0.14,-0.147376,-0.225334,-1.06384,-0.06636,0.12306,0.47698
-0.848945,0,0,15.8489,15.8489,14.1511,14.1511,0.943272,0.745649,1.05049,-0.119634,-0.221265,-0.0517967,0,0,3.5525,-0.4725,-0.2625,-0.147376,-0.225334,-1.06384,-0.06636,0.12306,0.47698
-0.82378,0,0,15.8238,15.8238,14.1762,14.1762,0.915311,0.691732,1.12525,-0.0461663,0.0278747,0.0506392,0,0,3.57,-0.4025,-0.735,-0.074542,0.024034,-0.962214,-0.06636,0.12306,0.47698
-0.798694,0,0,15.7987,15.7987,14.2013,14.2013,0.887438,0.640254,1.19903,-0.0452679,0.0273885,0.0506572,0,0,3.36,0.42,-1.2775,-0.074542,0.024034,-0.962214,-0.06636,0.12306,0.47698
-0.798783,0,0,15.7988,15.7988,14.2012,14.2012,0.887536,0.640334,1.19756,0.418685,0.159653,-0.269624,1,0,3.465,0.175,-1.8025,0.391376,0.15616,-1.28002,-0.06636,0.12306,0.47698
-0.79929,0,0,15.7993,15.7993,14.2007,14.2007,0.8881,0.639701,1.19588,0.418696,0.159663,-0.269624,1,0,3.7275,-0.245,-1.925,0.391376,0.15616,-1.28002,-0.06636,0.12306,0.47698
-0.800751,0,0,15.8008,15.8008,14.1992,14.1992,0.889723,0.639251,1.19395,-0.0762292,0.333722,-0.131922,1,0,4.3225,-0.14,-2.065,-0.105652,0.33001,-1.14338,-0.06692,0.1281,0.47936
-0.910699,0,0,15.9107,15.9107,14.0893,14.0893,1.01189,0.87912,0.997354,0.19803,-0.112719,0.119048,0,0,2.555,-0.0175,-2.03,0.173972,-0.118096,-0.89426,-0.06692,0.1281,0.47936
-1.01939,0,0,16.0194,16.0194,13.9806,13.9806,1.13265,1.11346,0.802083,0.19394,-0.110613,0.118938,0,0,2.94,-0.6475,-1.995,0.173972,-0.118096,-0.89426,-0.06692,0.1281,0.47936
-0.882634,0,0,15.8826,15.8826,14.1174,14.1174,0.980704,1.23625,0.699316,0.113318,0.151384,0.0338624,0,0,2.8875,-0.4025,-1.9075,0.09516,0.146278,-0.978684,-0.06692,0.1281,0.47936
-0.750176,0,0,15.7502,15.7502,14.2498,14.2498,0.833528,1.35685,0.596757,0.111214,0.148816,0.0338554,0,0,4.1475,-0.385,-1.575,0.09516,0.146278,-0.978684,-0.06692,0.1281,0.47936
-0.617166,0,0,15.6172,15.6172,14.3828,14.3828,0.68574,1.49403,0.478911,0.138827,0.161014,-0.0522339,0,0,3.6225,0.42,-1.0325,0.125294,0.16104,-1.06408,-0.06692,0.1281,0.47936
-0.486337,0,0,15.4863,15.4863,14.5137,14.5137,0.540375,1.62876,0.360649,0.136477,0.158477,-0.0522709,0,0,3.6225,0.42,-1.0325,0.125294,0.16104,-1.06408,-0.06692,0.1281,0.47936
-0.485744,0,0,15.4857,15.4857,14.5143,14.5143,0.539715,1.62842,0.361969,-0.16383,0.123049,0.147521,1,0,3.01,-0.0525,-0.175,-0.17629,0.12566,-0.865834,-0.06692,0.1281,0.47936
-0.48515,0,0,15.4852,15.4852,14.5148,14.5148,0.539056,1.62807,0.363288,-0.163824,0.123037,0.147521,1,0,3.01,-0.0525,-0.175,-0.17629,0.12566,-0.865834,-0.06594,0.12222,0.47824
-0.544008,0,0,15.544,15.544,14.456,14.456,0.604453,1.50881,0.490544,-0.118616,-0.0741551,-0.0696834,0,0,2.5025,0.2275,0.0175,-0.13298,-0.072468,-1.08141,-0.06594,0.12222,0.47824
-0.601852,0,0,15.6019,15.6019,14.3981,14.3981,0.668724,1.39174,0.617273,-0.116573,-0.0730332,-0.0696441,0,0,2.5025,0.2275,0.0175,-0.13298,-0.072468,-1.08141,-0.06594,0.12222,0.47824
-0.589491,0,0,15.5895,15.5895,14.4105,14.4105,0.65499,1.67495,0.379209,0.241363,0.0138021,0.10678,0,0,3.3075,0.8575,0.035,0.231434,0.014518,-0.906216,-0.06594,0.12222,0.47824
-0.577255,0,0,15.5773,15.5773,14.4227,14.4227,0.641394,1.9531,0.141396,0.236511,0.0135632,0.106629,0,0,3.3075,0.8575,0.035,0.231434,0.014518,-0.906216,-0.06594,0.12222,0.47824
-0.439452,0,0,15.4395,15.4395,14.5605,14.5605,0.488279,2.07523,0.0321437,0.120549,0.16123,-0.0142775,0,0,3.465,-0.3325,-0.91,0.11712,0.1647,-1.02614,-0.06594,0.12222,0.47824
-0.303907,0,0,15.3039,15.3039,14.6961,14.6961,0.337675,2.19517,-0.0774679,0.118457,0.158603,-0.0143366,0,0,3.465,-0.3325,-0.91,0.11712,0.1647,-1.02614,-0.06594,0.12222,0.47824
-0.465246,0,0,15.4652,15.4652,14.5348,14.5348,0.51694,2.15712,-0.030559,-0.0367457,-0.167891,0.0909092,0,0,3.36,-0.105,-1.5225,-0.039406,-0.164578,-0.92171,-0.06594,0.12222,0.47824
-0.623881,0,0,15.6239,15.6239,14.3761,14.3761,0.693201,2.1193,0.0113245,-0.0360861,-0.164817,0.0909014,0,0,3.36,-0.105,-1.5225,-0.039406,-0.164578,-0.92171,-0.05796,0.12446,0.4795
-0.918106,0,0,15.9181,15.9181,14.0819,14.0819,1.02012,2.14619,-0.000918149,0.0288042,-0.366365,-0.0288302,0,0,3.3775,-0.175,-1.96,0.02623,-0.371612,-1.04042,-0.05796,0.12446,0.4795
-1.20764,0,0,16.2076,16.2076,13.7924,13.7924,1.34182,2.17253,-0.0130205,0.0283448,-0.360755,-0.0289632,0,0,3.3775,-0.175,-1.96,0.02623,-0.371612,-1.04042,-0.05796,0.12446,0.4795
-1.14421,0,0,16.1442,16.1442,13.8558,13.8558,1.27134,2.36166,-0.188573,0.171437,0.069975,0.0401543,0,0,2.8175,0.105,-1.89,0.17324,0.059902,-0.97173,-0.05796,0.12446,0.4795
-1.14476,0,0,16.1448,16.1448,13.8552,13.8552,1.27195,2.36121,-0.190171,0.12771,0.248046,-0.235988,1,0,3.78,-0.14,-1.8725,0.12932,0.237778,-1.24574,-0.05796,0.12446,0.4795
-1.14457,0,0,16.1446,16.1446,13.8554,13.8554,1.27174,2.36103,-0.191194,0.127713,0.248043,-0.235988,1,0,3.3075,0.0175,-1.54,0.12932,0.237778,-1.24574,-0.05796,0.12446,0.4795
-1.28896,0,0,16.289,16.289,13.711,13.711,1.43218,2.24128,-0.078796,-0.114992,-0.171594,-0.0344572,0,0,4.235,-0.28,-1.5225,-0.11651,-0.18422,-1.04578,-0.05796,0.12446,0.4795
-1.43105,0,0,16.4311,16.4311,13.5689,13.5689,1.59006,2.12394,0.0333672,-0.112946,-0.16884,-0.0344519,0,0,4.305,-0.14,-1.12,-0.11651,-0.18422,-1.04578,-0.05796,0.12446,0.4795
-1.46188,0,0,16.4619,16.4619,13.5381,13.5381,1.62431,2.19117,-0.0262951,0.0547467,-0.0299964,0.0660591,0,0,3.92,0.2975,-0.56,0.05307,-0.046116,-0.945988,-0.07168,0.12894,0.47796
-1.46259,0,0,16.4626,16.4626,13.5374,13.5374,1.6251,2.1911,-0.0251836,-0.195877,0.250787,-0.113323,1,0,3.815,0.1225,-0.2975,-0.198616,0.234362,-1.12399,-0.07168,0.12894,0.47796
-1.46203,0,0,16.462,16.462,13.538,13.538,1.62448,2.19094,-0.0238947,-0.195874,0.250776,-0.113323,1,0,3.0275,0.07,-0.1925,-0.198616,0.234362,-1.12399,-0.07168,0.12894,0.47796
-1.4876,0,0,16.4876,16.4876,13.5124,13.5124,1.65289,2.01906,0.127499,-0.146955,-0.0257092,0.0839826,0,0,2.6775,0.0175,-0.245,-0.1525,-0.042334,-0.928298,-0.07168,0.12894,0.47796
-1.51281,0,0,16.5128,16.5128,13.4872,13.4872,1.6809,1.85151,0.278503,-0.144032,-0.0252179,0.0840671,0,0,2.7475,0.665,-0.1925,-0.1525,-0.042334,-0.928298,-0.07168,0.12894,0.47796
-1.37701,0,0,16.377,16.377,13.623,13.623,1.53001,1.75022,0.36701,-0.0968296,0.163403,-0.0583009,0,0,3.7625,0.385,-0.525,-0.106872,0.148718,-1.0697,-0.07168,0.12894,0.47796
-1.24413,0,0,16.2441,16.2441,13.7559,13.7559,1.38237,1.65092,0.455453,-0.0950973,0.160829,-0.058184,0,0,4.1825,0.455,-0.805,-0.106872,0.148718,-1.0697,-0.07168,0.12894,0.47796
-1.2458,0,0,16.2458,16.2458,13.7542,13.7542,1.38422,1.65143,0.455198,0.0692639,0.478025,-0.0572015,1,0,4.445,0.4375,-1.1025,0.058194,0.465552,-1.06872,-0.07168,0.12894,0.47796
-1.24646,0,0,16.2465,16.2465,13.7535,13.7535,1.38495,1.65156,0.454933,0.0692617,0.478038,-0.0572018,1,0,3.815,0.21,-1.1025,0.058194,0.465552,-1.06872,-0.06482,0.12236,0.48006
-1.24705,0,0,16.247,16.247,13.753,13.753,1.38561,1.65076,0.454286,0.105843,0.366303,-0.0765046,1,0,3.78,-0.3325,-1.3125,0.094916,0.353922,-1.08787,-0.06482,0.12236,0.48006
-1.24705,0,0,16.247,16.247,13.753,13.753,1.38561,1.64962,0.453421,0.105863,0.366303,-0.0765041,1,0,3.4125,-0.5425,-1.435,0.094916,0.353922,-1.08787,-0.06482,0.12236,0.48006
-1.24783,0,0,16.2478,16.2478,13.7522,13.7522,1.38648,1.64888,0.452715,-0.239873,-0.192167,0.275743,1,0,3.9025,-0.2975,-1.3475,-0.252296,-0.203984,-0.738344,-0.06482,0.12236,0.48006
-1.24726,0,0,16.2473,16.2473,13.7527,13.7527,1.38585,1.64861,0.45172,-0.239868,-0.192178,0.275744,1,0,3.0625,-0.035,-1.5225,-0.252296,-0.203984,-0.738344,-0.06482,0.12236,0.48006
-1.24667,0,0,16.2467,16.2467,13.7533,13.7533,1.38519,1.64821,0.450753,-0.0816866,-0.141385,0.17382,1,0,3.045,-0.105,-1.505,-0.093452,-0.153232,-0.839482,-0.06482,0.12236,0.48006
-1.24695,0,0,16.2469,16.2469,13.7531,13.7531,1.3855,1.64858,0.450074,-0.0816931,-0.14138,0.17382,1,0,3.5875,0.35,-1.3475,-0.093452,-0.153232,-0.839482,-0.06482,0.12236,0.48006
-1.24614,0,0,16.2461,16.2461,13.7539,13.7539,1.3846,1.64901,0.449667,0.59947,-0.0719052,-0.0468727,1,0,2.905,0.385,-1.19,0.590602,-0.083814,-1.05847,-0.06482,0.12236,0.48006
-1.24726,0,0,16.2473,16.2473,13.7527,13.7527,1.38585,1.64903,0.44985,0.599469,-0.0718835,-0.0468733,1,0,4.095,0.1575,-0.84,0.590602,-0.083814,-1.05847,-0.07,0.12194,0.4788
-0.896845,0,0,15.8968,15.8968,14.1032,14.1032,0.996495,1.67614,0.424808,0.0295929,0.408,0.0596047,0,0,3.885,0.105,-1.1375,0.018788,0.402356,-0.952942,-0.07,0.12194,0.4788
-0.552008,0,0,15.552,15.552,14.448,14.448,0.613342,1.70278,0.400344,0.0291282,0.401316,0.0596849,0,0,3.9725,0.105,-0.77,0.018788,0.402356,-0.952942,-0.07,0.12194,0.4788
-0.554498,0,0,15.5545,15.5545,14.4455,14.4455,0.616109,1.70196,0.401358,-0.0816524,0.0159325,0.112307,1,0,4.935,-0.3325,-0.35,-0.092476,0.017324,-0.900726,-0.07,0.12194,0.4788
-0.553975,0,0,15.554,15.554,14.446,14.446,0.615528,1.70177,0.402108,-0.0816491,0.0159224,0.112307,1,0,3.0625,0.035,-0.5075,-0.092476,0.017324,-0.900726,-0.07,0.12194,0.4788
-0.636895,0,0,15.6369,15.6369,14.3631,14.3631,0.707662,1.51712,0.585755,-0.17999,-0.0997109,-0.0330692,0,0,3.43,-0.2625,-0.91,-0.194468,-0.099796,-1.04505,-0.07,0.12194,0.4788
-0.716879,0,0,15.7169,15.7169,14.2831,14.2831,0.796532,1.33727,0.768482,-0.176852,-0.0981594,-0.0330114,0,0,2.485,0.5775,-0.8925,-0.194468,-0.099796,-1.04505,-0.07,0.12194,0.4788
-0.716307,0,0,15.7163,15.7163,14.2837,14.2837,0.795896,1.33787,0.768433,0.212135,0.176004,-0.0694042,1,0,3.045,0.49,-0.98,0.196176,0.174094,-1.08116,-0.07,0.12194,0.4788
-0.715735,0,0,15.7157,15.7157,14.2843,14.2843,0.795261,1.33846,0.768384,0.212125,0.175993,-0.0694043,1,0,3.045,0.49,-0.98,0.196176,0.174094,-1.08116,-0.06412,0.12628,0.47516
-0.717274,0,0,15.7173,15.7173,14.2827,14.2827,0.796972,1.33994,0.767237,0.443286,0.246124,-0.105798,1,0,4.375,0.9975,-1.6275,0.428342,0.244122,-1.11728,-0.06412,0.12628,0.47516
-0.718814,0,0,15.7188,15.7188,14.2812,14.2812,0.798682,1.34142,0.76609,0.44326,0.246153,-0.105799,1,0,4.375,0.9975,-1.6275,0.428342,0.244122,-1.11728,-0.06412,0.12628,0.47516
-0.832915,0,0,15.8329,15.8329,14.1671,14.1671,0.925461,0.883031,1.1952,-0.42283,-0.127294,0.122146,0,0,3.5,0.07,-1.435,-0.449448,-0.13115,-0.89121,-0.06412,0.12628,0.47516
-0.945074,0,0,15.9451,15.9451,14.0549,14.0549,1.05008,0.432254,1.62156,-0.414963,-0.125118,0.122199,0,0,3.5,0.07,-1.435,-0.449448,-0.13115,-0.89121,-0.06412,0.12628,0.47516
-1.06814,0,0,16.0681,16.0681,13.9319,13.9319,1.18682,0.194245,1.86076,-0.202704,-0.12493,0.133855,0,0,3.0625,-0.3325,-1.5225,-0.240462,-0.133346,-0.87962,-0.06412,0.12628,0.47516
-1.18917,0,0,16.1892,16.1892,13.8108,13.8108,1.3213,-0.0395315,2.09835,-0.198624,-0.122583,0.13381,0,0,3.0625,-0.3325,-1.5225,-0.240462,-0.133346,-0.87962,-0.06412,0.12628,0.47516
-1.18905,0,0,16.189,16.189,13.811,13.811,1.32116,-0.0402727,2.098,0.304947,-0.0800854,-0.0990548,1,0,3.325,-0.2975,-1.1375,0.265228,-0.09089,-1.11069,-0.06412,0.12628,0.47516
-1.18985,0,0,16.1899,16.1899,13.8101,13.8101,1.32206,-0.0405817,2.09836,-0.286804,0.0225166,-0.166185,1,0,3.9025,-0.035,-0.735,-0.329034,0.01159,-1.1773,-0.0609,0.12712,0.47558
-1.1897,0,0,16.1897,16.1897,13.8103,13.8103,1.32189,-0.0398351,2.09958,-0.286817,0.0225137,-0.166185,1,0,3.3075,0.595,-0.245,-0.329034,0.01159,-1.1773,-0.0609,0.12712,0.47558
-1.52628,0,0,16.5263,16.5263,13.4737,13.4737,1.69586,-0.0485825,2.13648,-0.0204897,-0.366408,0.121957,0,0,3.08,0.4375,-0.0875,-0.061732,-0.383446,-0.89121,-0.0609,0.12712,0.47558
-1.85763,0,0,16.8576,16.8576,13.1424,13.1424,2.06403,-0.0574726,2.17312,-0.0203345,-0.359986,0.121746,0,0,3.08,0.4375,-0.0875,-0.061732,-0.383446,-0.89121,-0.0609,0.12712,0.47558
-1.84057,0,0,16.8406,16.8406,13.1594,13.1594,2.04507,-0.0293625,2.18018,0.0280121,0.0183988,-0.0325418,0,0,3.08,-0.21,0.035,-0.012688,-0.005124,-1.04432,-0.0609,0.12712,0.47558
-1.7497,0,0,16.7497,16.7497,13.2503,13.2503,1.94411,0.00687895,2.17913,0.0350332,0.0996839,0.0801405,0,0,4.2,-0.525,-0.07,-0.005002,0.077836,-0.932568,-0.0609,0.12712,0.47558
-1.6594,0,0,16.6594,16.6594,13.3406,13.3406,1.84378,0.0431638,2.1772,0.0343999,0.0979337,0.0801981,0,0,3.605,-0.1575,-0.56,-0.005002,0.077836,-0.932568,-0.0609,0.12712,0.47558
-1.65976,0,0,16.6598,16.6598,13.3402,13.3402,1.84418,0.0427051,2.17745,-0.28024,-0.142283,0.17536,1,0,3.6225,-0.1225,-0.7875,-0.320982,-0.162138,-0.83814,-0.0609,0.12712,0.47558
-1.66012,0,0,16.6601,16.6601,13.3399,13.3399,1.84457,0.0433925,2.17739,-0.280252,-0.142276,0.17536,1,0,3.6225,0.5425,-0.9975,-0.320982,-0.162138,-0.83814,-0.06552,0.1274,0.46536
-1.93158,0,0,16.9316,16.9316,13.0684,13.0684,2.1462,0.18003,2.08287,0.116565,-0.313244,0.0540676,0,0,2.7475,0.385,-1.155,0.07991,-0.338184,-0.95831,-0.06552,0.1274,0.46536
-2.20105,0,0,17.201,17.201,12.799,12.799,2.44561,0.314189,1.98895,0.114224,-0.308023,0.0538481,0,0,4.2175,0.5075,-1.68,0.07991,-0.338184,-0.95831,-0.06552,0.1274,0.46536
-2.20162,0,0,17.2016,17.2016,12.7984,12.7984,2.44624,0.315376,1.98702,0.203981,-0.13276,-0.134141,1,0,3.7625,0.7875,-2.1,0.170068,-0.163114,-1.14485,-0.06552,0.1274,0.46536
-2.20292,0,0,17.2029,17.2029,12.7971,12.7971,2.44769,0.316042,1.98537,0.203969,-0.132734,-0.134142,1,0,4.2175,0.49,-1.925,0.170068,-0.163114,-1.14485,-0.06552,0.1274,0.46536
-2.18765,0,0,17.1876,17.1876,12.8124,12.8124,2.43072,0.425571,1.912,0.0996452,0.019139,0.0143802,0,0,3.885,-0.1925,-1.89,0.067222,-0.011102,-0.997472,-0.06552,0.1274,0.46536
-2.17263,0,0,17.1726,17.1726,12.8274,12.8274,2.41404,0.532574,1.83869,0.0977777,0.0188474,0.0143769,0,0,3.9025,-0.4725,-1.9075,0.067222,-0.011102,-0.997472,-0.06552,0.1274,0.46536
-2.173,0,0,17.173,17.173,12.827,12.827,2.41445,0.53177,1.83715,-0.1125,-0.0649243,-0.139801,1,0,3.64,-0.3675,-1.82,-0.14396,-0.094794,-1.15046,-0.06552,0.1274,0.46536
-2.17279,0,0,17.1728,17.1728,12.8272,12.8272,2.41421,0.53069,1.83648,-0.112481,-0.0649284,-0.1398,1,0,3.2725,-0.5075,-1.3125,-0.14396,-0.094794,-1.15046,-0.06454,0.12166,0.47992
-2.14505,0,0,17.145,17.145,12.855,12.855,2.38338,0.529652,1.8663,0.00039721,0.0312584,0.000752464,0,0,3.185,-0.105,-1.1725,-0.030622,0.00183,-1.01101,-0.06454,0.12166,0.47992
-2.11856,0,0,17.1186,17.1186,12.8814,12.8814,2.35396,0.529417,1.89707,0.000401317,0.0307453,0.000773727,0,0,3.675,0.3675,-0.6125,-0.030622,0.00183,-1.01101,-0.06454,0.12166,0.47992
-2.11921,0,0,17.1192,17.1192,12.8808,12.8808,2.35468,0.529481,1.89837,0.434226,0.0294144,-0.125987,1,0,3.7975,0.21,-0.1925,0.40504,0.000488,-1.1368,-0.06454,0.12166,0.47992
-2.11986,0,0,17.1199,17.1199,12.8801,12.8801,2.3554,0.529545,1.89966,0.434224,0.029427,-0.125987,1,0,3.7975,0.21,-0.1925,0.40504,0.000488,-1.1368,-0.06454,0.12166,0.47992
-2.11995,0,0,17.1199,17.1199,12.8801,12.8801,2.3555,0.529954,1.9013,0.0226238,0.021002,-0.100537,1,0,3.4475,0.42,0,-0.008296,-0.00793,-1.11154,-0.06454,0.12166,0.47992
-2.12004,0,0,17.12,17.12,12.88,12.88,2.35559,0.530363,1.90295,0.0226167,0.0210037,-0.100537,1,0,3.4475,0.42,0,-0.008296,-0.00793,-1.11154,-0.06454,0.12166,0.47992
-2.23495,0,0,17.2349,17.2349,12.7651,12.7651,2.48327,0.231016,2.19723,-0.290208,-0.138464,0.0105489,0,0,3.64,-0.385,0,-0.327692,-0.169458,-1.00125,-0.06454,0.12166,0.47992
-2.34783,0,0,17.3478,17.3478,12.6522,12.6522,2.6087,-0.0659493,2.47844,-0.285025,-0.136277,0.0104591,0,0,3.64,-0.385,0,-0.327692,-0.169458,-1.00125,-0.06832,0.12992,0.48426
-2.34791,0,0,17.3479,17.3479,12.6521,12.6521,2.60879,-0.0669253,2.47816,0.111156,-0.073136,-0.175439,1,0,3.4475,-0.4375,-1.085,0.07015,-0.106384,-1.18572,-0.06832,0.12992,0.48426
-2.34798,0,0,17.348,17.348,12.652,12.652,2.60887,-0.0679013,2.47787,0.111174,-0.0731345,-0.175439,1,0,3.4475,-0.4375,-1.085,0.07015,-0.106384,-1.18572,-0.06832,0.12992,0.48426
-2.34727,0,0,17.3473,17.3473,12.6527,12.6527,2.60808,-0.0668277,2.47723,0.297514,-0.0156266,-0.139783,1,0,2.9575,0.7525,-1.3475,0.257298,-0.048922,-1.15034,-0.06832,0.12992,0.48426
-2.34656,0,0,17.3466,17.3466,12.6534,12.6534,2.60729,-0.0657541,2.47659,0.297495,-0.0156404,-0.139783,1,0,2.9575,0.7525,-1.3475,0.257298,-0.048922,-1.15034,-0.06832,0.12992,0.48426
-2.34712,0,0,17.3471,17.3471,12.6529,12.6529,2.60791,-0.0653352,2.47458,0.023902,-0.226543,-0.210848,1,0,3.745,0.3325,-2.135,-0.017446,-0.259616,-1.22085,-0.06832,0.12992,0.48426
-2.34849,0,0,17.3485,17.3485,12.6515,12.6515,2.60943,-0.0653774,2.47217,0.111615,0.204591,0.122711,1,0,4.2525,0.0525,-2.345,0.070638,0.171044,-0.889868,-0.06832,0.12992,0.48426
-2.34943,0,0,17.3494,17.3494,12.6506,12.6506,2.61048,-0.0644485,2.47012,0.111599,0.20461,0.12271,1,0,3.99,0.63,-2.17,0.070638,0.171044,-0.889868,-0.06832,0.12992,0.48426
-2.00744,0,0,17.0074,17.0074,12.9926,12.9926,2.23049,0.217964,2.24868,0.290235,0.425383,0.0376569,0,0,3.5875,0.4025,-2.03,0.25498,0.398208,-0.974536,-0.06832,0.12992,0.48426
-1.66854,0,0,16.6685,16.6685,13.3315,13.3315,1.85394,0.489493,2.031,0.285496,0.418815,0.0378619,0,0,2.5375,-0.0525,-1.96,0.25498,0.398208,-0.974536,-0.06076,0.1239,0.47936
-1.66679,0,0,16.6668,16.6668,13.3332,13.3332,1.85198,0.488981,2.03012,-0.0274421,-0.169382,0.16991,1,0,2.31,-0.175,-1.4525,-0.059292,-0.189344,-0.843508,-0.06076,0.1239,0.47936
-1.66588,0,0,16.6659,16.6659,13.3341,13.3341,1.85098,0.489423,2.03026,-0.0274498,-0.169399,0.16991,1,0,2.835,0.4025,-0.875,-0.059292,-0.189344,-0.843508,-0.06076,0.1239,0.47936
-1.66456,0,0,16.6646,16.6646,13.3354,13.3354,1.84951,0.490434,2.03128,-0.0856591,-0.0734335,0.15528,1,0,2.5725,0.7525,-0.3675,-0.11773,-0.093452,-0.858026,-0.06076,0.1239,0.47936
-1.66529,0,0,16.6653,16.6653,13.3347,13.3347,1.85032,0.491094,2.03299,-0.0856706,-0.0734193,0.15528,1,0,3.85,0.56,0.035,-0.11773,-0.093452,-0.858026,-0.06076,0.1239,0.47936
-1.53207,0,0,16.5321,16.5321,13.4679,13.4679,1.7023,0.456878,2.09249,-0.0290686,0.159093,-0.0407383,0,0,3.5875,0.5075,0.245,-0.061488,0.141398,-1.05262,-0.06076,0.1239,0.47936
-1.40151,0,0,16.4015,16.4015,13.5985,13.5985,1.55723,0.422613,2.15281,-0.0284706,0.156562,-0.0406617,0,0,3.8675,0.0875,0.63,-0.061488,0.141398,-1.05262,-0.06076,0.1239,0.47936
-1.4023,0,0,16.4023,16.4023,13.5977,13.5977,1.55811,0.422304,2.15532,0.166519,0.072432,-0.108653,1,0,3.885,0,0.525,0.134322,0.05734,-1.12008,-0.06076,0.1239,0.47936
-1.40317,0,0,16.4032,16.4032,13.5968,13.5968,1.55908,0.421144,2.15724,0.16654,0.072449,-0.108653,1,0,3.9375,-0.5075,0.1925,0.134322,0.05734,-1.12008,-0.06594,0.126,0.48356
-1.34344,0,0,16.3434,16.3434,13.6566,13.6566,1.49271,0.522935,2.09169,0.0973385,0.0695808,0.0123446,0,0,3.85,-0.7,0.0875,0.066612,0.055632,-1.00003,-0.06594,0.126,0.48356
-1.28384,0,0,16.2838,16.2838,13.7162,13.7162,1.42648,0.624231,2.02533,0.0955707,0.068425,0.0123563,0,0,3.325,0.07,-0.3675,0.066612,0.055632,-1.00003,-0.06594,0.126,0.48356
-1.25521,0,0,16.2552,16.2552,13.7448,13.7448,1.39468,0.457809,2.1972,-0.141945,0.0319655,0.0956336,0,0,3.64,0.1925,-0.7875,-0.174826,0.019764,-0.91744,-0.06594,0.126,0.48356
-1.22582,0,0,16.2258,16.2258,13.7742,13.7742,1.36202,0.295811,2.36765,-0.139118,0.0313962,0.0956659,0,0,2.8875,0.98,-1.5575,-0.174826,0.019764,-0.91744,-0.06594,0.126,0.48356
-1.26193,0,0,16.2619,16.2619,13.7381,13.7381,1.40214,0.413108,2.288,0.115534,-0.0436227,-0.0573116,0,0,4.165,0.315,-1.715,0.08296,-0.055876,-1.06921,-0.06594,0.126,0.48356
-1.29836,0,0,16.2984,16.2984,13.7016,13.7016,1.44262,0.527768,2.20786,0.113533,-0.0429169,-0.0573456,0,0,4.76,0.035,-2.1525,0.08296,-0.055876,-1.06921,-0.06594,0.126,0.48356
-1.29977,0,0,16.2998,16.2998,13.7002,13.7002,1.44419,0.528059,2.20568,0.218249,-0.211058,-0.0786164,1,0,4.2875,0.28,-2.2225,0.188124,-0.22387,-1.09031,-0.06594,0.126,0.48356
-1.30159,0,0,16.3016,16.3016,13.6984,13.6984,1.44621,0.527886,2.20298,0.218252,-0.211023,-0.0786173,1,0,4.55,0,-2.52,0.188124,-0.22387,-1.09031,-0.06468,0.1211,0.47726
-1.30083,0,0,16.3008,16.3008,13.6992,13.6992,1.44536,0.528162,2.20026,0.116321,-0.177331,0.189165,1,0,2.94,0.2625,-2.5375,0.085766,-0.190198,-0.824598,-0.06468,0.1211,0.47726
-1.30052,0,0,16.3005,16.3005,13.6995,13.6995,1.44503,0.528324,2.19849,0.116318,-0.177337,0.189165,1,0,3.22,0.21,-1.9775,0.085766,-0.190198,-0.824598,-0.06468,0.1211,0.47726
-1.29876,0,0,16.2988,16.2988,13.7012,13.7012,1.44307,0.528025,2.19723,0.175608,-0.189339,-0.108984,1,0,2.31,-0.0525,-1.68,0.145302,-0.202154,-1.12045,-0.06468,0.1211,0.47726
-1.29808,0,0,16.2981,16.2981,13.7019,13.7019,1.44231,0.527398,2.19716,0.175619,-0.189352,-0.108984,1,0,2.975,-0.2275,-0.98,0.145302,-0.202154,-1.12045,-0.06468,0.1211,0.47726
-1.29779,0,0,16.2978,16.2978,13.7022,13.7022,1.44198,0.526953,2.19694,-0.090184,0.0964186,-0.289718,1,0,3.22,-0.1225,-1.0675,-0.121634,0.083326,-1.29979,-0.06468,0.1211,0.47726
-1.2993,0,0,16.2993,16.2993,13.7007,13.7007,1.44367,0.527194,2.19794,-0.0901882,0.096448,-0.289719,1,0,4.34,0.2975,-0.3675,-0.121634,0.083326,-1.29979,-0.06468,0.1211,0.47726
-1.30207,0,0,16.3021,16.3021,13.6979,13.6979,1.44674,0.527731,2.20029,-0.0320059,0.150115,-0.100994,1,0,5.11,0.49,0.42,-0.063196,0.136884,-1.11252,-0.06468,0.1211,0.47726
-1.30483,0,0,16.3048,16.3048,13.6952,13.6952,1.44981,0.528267,2.20265,-0.0320153,0.150169,-0.100996,1,0,5.11,0.49,0.42,-0.063196,0.136884,-1.11252,-0.06468,0.11844,0.4802
-1.37013,0,0,16.3701,16.3701,13.6299,13.6299,1.52237,0.450967,2.30904,-0.0707565,-0.0674161,0.0754142,0,0,3.85,0.385,0.2975,-0.103456,-0.08174,-0.937448,-0.06468,0.11844,0.4802
-1.43435,0,0,16.4343,16.4343,13.5657,13.5657,1.59372,0.375034,2.415,-0.0694312,-0.066171,0.0753899,0,0,3.85,0.385,0.2975,-0.103456,-0.08174,-0.937448,-0.06468,0.11844,0.4802
-1.48837,0,0,16.4884,16.4884,13.5116,13.5116,1.65374,0.389556,2.43932,0.0118322,-0.0599947,0.0197858,0,0,3.64,-0.4375,0.175,-0.021594,-0.076616,-0.992592,-0.06468,0.11844,0.4802
-1.54149,0,0,16.5415,16.5415,13.4585,13.4585,1.71276,0.403764,2.46358,0.0115842,-0.0589651,0.0197539,0,0,3.64,-0.4375,0.175,-0.021594,-0.076616,-0.992592,-0.06468,0.11844,0.4802
-1.61671,0,0,16.6167,16.6167,13.3833,13.3833,1.79635,0.57163,2.3486,0.15468,-0.086696,0.00923364,0,0,3.3425,0.175,-1.12,0.12505,-0.105774,-1.00296,-0.06468,0.11844,0.4802
-1.69067,0,0,16.6907,16.6907,13.3093,13.3093,1.87852,0.736362,2.23424,0.151805,-0.0852637,0.00915486,0,0,3.3425,0.175,-1.12,0.12505,-0.105774,-1.00296,-0.06468,0.11844,0.4802
-1.84172,0,0,16.8417,16.8417,13.1583,13.1583,2.04636,0.525398,2.45068,-0.201073,-0.171732,0.0441354,0,0,4.06,-0.1225,-1.6975,-0.23302,-0.195078,-0.968192,-0.06468,0.11844,0.4802
-1.99029,0,0,16.9903,16.9903,13.0097,13.0097,2.21143,0.317255,2.65704,-0.197441,-0.168852,0.0440551,0,0,4.06,-0.1225,-1.6975,-0.23302,-0.195078,-0.968192,-0.063,0.12432,0.48958
-1.90475,0,0,16.9048,16.9048,13.0952,13.0952,2.11639,0.358771,2.64568,0.046021,0.106596,-0.0930971,0,0,4.34,0.21,-2.6425,0.0122,0.08174,-1.10434,-0.063,0.12432,0.48958
-1.82063,0,0,16.8206,16.8206,13.1794,13.1794,2.02292,0.399574,2.63426,0.0453089,0.104966,-0.0930429,0,0,4.34,0.21,-2.6425,0.0122,0.08174,-1.10434,-0.063,0.12432,0.48958
-1.82063,0,0,16.8206,16.8206,13.1794,13.1794,2.02292,0.399937,2.63155,0.133258,-0.143196,-0.085789,1,0,3.4125,0.2975,-2.5375,0.100528,-0.166164,-1.09715,-0.063,0.12432,0.48958
-1.82063,0,0,16.8206,16.8206,13.1794,13.1794,2.02292,0.4003,2.62883,0.133252,-0.143196,-0.085789,1,0,3.4125,0.2975,-2.5375,0.100528,-0.166164,-1.09715,-0.063,0.12432,0.48958
-1.68619,0,0,16.6862,16.6862,13.3138,13.3138,1.87355,0.32791,2.71919,-0.0613196,0.150234,0.032707,0,0,2.59,-0.105,-1.8025,-0.096136,0.129564,-0.97966,-0.063,0.12432,0.48958
-1.74452,0,0,16.7445,16.7445,13.2555,13.2555,1.93835,0.603187,2.49783,0.258729,-0.0689534,0.0272207,0,0,2.0825,-0.07,-1.3125,0.230092,-0.090524,-0.985028,-0.063,0.12432,0.48958
-1.74381,0,0,16.7438,16.7438,13.2562,13.2562,1.93757,0.602037,2.49818,-0.168759,0.113979,0.168981,1,0,2.9575,-0.525,-0.7175,-0.199226,0.092232,-0.844362,-0.063,0.12432,0.48958
-1.70783,0,0,16.7078,16.7078,13.2922,13.2922,1.89758,0.442348,2.66549,-0.158805,0.0419602,-0.0650642,0,0,3.675,0.21,-0.3675,-0.192028,0.020984,-1.07665,-0.063,0.12432,0.48958
-1.618,0,0,16.618,16.618,13.382,13.382,1.79778,0.585228,2.56873,0.137435,0.107266,0.00480432,0,0,4.515,0.3675,0.2275,0.10797,0.087962,-1.00735,-0.06454,0.12264,0.4837
-1.66272,0,0,16.6627,16.6627,13.3373,13.3373,1.84747,0.43882,2.72872,-0.141735,-0.0527072,-0.0067576,0,0,3.885,0.8225,0.56,-0.174948,-0.072712,-1.01882,-0.06454,0.12264,0.4837
-1.70559,0,0,16.7056,16.7056,13.2944,13.2944,1.8951,0.294537,2.88802,-0.139217,-0.0518759,-0.00676864,0,0,3.2025,0.5075,0.525,-0.174948,-0.072712,-1.01882,-0.06454,0.12264,0.4837
-1.70682,0,0,16.7068,16.7068,13.2932,13.2932,1.89647,0.290286,2.9241,-0.00392918,-0.000192346,0.0708114,0,0,2.7125,0.0525,0.35,-0.039162,-0.021106,-0.94184,-0.06454,0.12264,0.4837
-1.70843,0,0,16.7084,16.7084,13.2916,13.2916,1.89826,0.286075,2.96036,-0.00385568,-0.000161138,0.0708108,0,0,2.9575,0.035,0.49,-0.039162,-0.021106,-0.94184,-0.06454,0.12264,0.4837
-1.73902,0,0,16.739,16.739,13.261,13.261,1.93225,0.391023,2.89831,0.0958747,-0.0337641,0.0180352,0,0,3.395,-0.0525,0.315,0.06283,-0.055266,-0.994178,-0.06454,0.12264,0.4837
-1.76973,0,0,16.7697,16.7697,13.2303,13.2303,1.96636,0.494397,2.83491,0.0940705,-0.0331695,0.0180011,0,0,3.7975,0.14,-0.6125,0.06283,-0.055266,-0.994178,-0.06454,0.12264,0.4837
-1.72942,0,0,16.7294,16.7294,13.2706,13.2706,1.92158,0.750855,2.6331,0.250199,0.0517807,-0.00427473,0,0,4.795,-0.0175,-0.6825,0.224114,0.030378,-1.01626,-0.06454,0.12264,0.4837
-1.6903,0,0,16.6903,16.6903,13.3097,13.3097,1.87812,1.00251,2.41982,0.245807,0.0510203,-0.00431674,0,0,5.1975,-0.3325,-1.26,0.224114,0.030378,-1.01626,-0.06356,0.13006,0.4872
-1.6932,0,0,16.6932,16.6932,13.3068,13.3068,1.88133,1.00224,2.41885,0.0149891,-0.187437,0.169408,1,0,5.215,-0.035,-1.505,-0.007686,-0.207888,-0.843874,-0.06356,0.13006,0.4872
-1.69372,0,0,16.6937,16.6937,13.3063,13.3063,1.88191,1.00207,2.41648,0.014992,-0.187427,0.169407,1,0,3.745,0,-2.3275,-0.007686,-0.207888,-0.843874,-0.06356,0.13006,0.4872
-1.69356,0,0,16.6936,16.6936,13.3064,13.3064,1.88173,1.00218,2.41417,0.176931,0.016033,0.214407,1,0,3.325,0.1575,-2.2925,0.15494,-0.004636,-0.799222,-0.06356,0.13006,0.4872
