pid_x,pid_y,pid_z,front_left_speed,front_right_speed,back_left_speed,back_right_speed,orientation_x,orientation_y,orientation_z,acceleration_x,acceleration_y,acceleration_z,accel_rejected,mag_rejected,ahrs_initialized,gyro_x,gyro_y,gyro_z,accel_x,accel_y,accel_z,mag_x,mag_y,mag_z
-0.234255,0,0,5.23426,5.23426,4.76574,4.76574,0.00342144,0.0120343,0.699938,0.00724447,-0.00281628,-0.00461017,0,0,0,3.5525,0.0525,-1.4175,-0.032818,0.009272,-1.01724,-0.16492,-0.25788,0.33446
-0.497787,0,0,5.49779,5.49779,4.50221,4.50221,0.010602,0.0188062,1.40159,0.00190239,-0.00574412,0.00633219,0,0,0,3.6925,0.0525,-1.155,-0.038064,0.006222,-1.00638,-0.16492,-0.25788,0.33446
-0.267039,0,0,5.26704,5.26704,4.73296,4.73296,0.0142235,0.0279556,2.09711,0.00502282,-0.00299413,0.00288956,0,0,0,3.5,0.07,-1.155,-0.03477,0.008906,-1.00979,-0.16492,-0.25788,0.33446
-0.236955,0,0,5.23696,5.23696,4.76304,4.76304,0.0173103,0.0372885,2.7893,0.00485993,-0.00294025,0.00288945,0,0,0,3.22,0.3325,-1.19,-0.03477,0.008906,-1.00979,-0.16492,-0.25788,0.33446
-0.502969,0,0,5.50297,5.50297,4.49703,4.49703,0.0242012,0.0528234,3.47617,0.00762594,-0.00599528,0.00854482,0,0,0,3.2025,0.3325,-1.225,-0.03172,0.005734,-1.00418,-0.16352,-0.25802,0.33348
-0.262971,0,0,5.26297,5.26297,4.73703,4.73703,0.0274056,0.0569627,4.16522,0.00123644,-0.00313044,0.000676026,0,0,0,3.1675,0.21,-1.2425,-0.038064,0.00854,-1.01199,-0.16352,-0.25802,0.33348
-0.411244,0,0,5.41124,5.41124,4.58876,4.58876,0.0326913,0.0678574,4.84692,0.0051768,-0.0045037,0.00288884,0,0,0,3.3075,0.3325,-1.26,-0.033916,0.007076,-1.00979,-0.16352,-0.25802,0.33348
-0.448266,0,0,5.44827,5.44827,4.55173,4.55173,0.0383787,0.078298,5.52512,0.00499458,-0.00440444,0.00288855,0,0,0,3.57,0.2625,-1.2075,-0.033916,0.007076,-1.00979,-0.16352,-0.25802,0.33348
-0.66084,0,0,5.66084,5.66084,4.33916,4.33916,0.0470213,0.0851402,6.20245,0.00123059,-0.00681826,-0.00153788,0,0,0,3.605,0.245,-1.225,-0.037576,0.004514,-1.01419,-0.16352,-0.25802,0.33348
-0.420147,0,0,5.42015,5.42015,4.57985,4.57985,0.051921,0.0957138,6.87235,0.0056625,-0.00367958,-0.00252183,0,0,0,3.5875,0.1575,-1.1375,-0.03294,0.007564,-1.01516,-0.16352,-0.25802,0.33348
-0.402954,0,0,5.40295,5.40295,4.59705,4.59705,0.0564407,0.10591,7.53853,0.00548454,-0.00360069,-0.00252222,0,0,0,3.4125,0.1225,-1.1025,-0.03294,0.007564,-1.01516,-0.16352,-0.25802,0.33348
-0.213128,0,0,5.21313,5.21313,4.78687,4.78687,0.0580689,0.11471,8.20047,0.00557392,-0.00125187,0.00485437,0,0,0,3.4125,0.175,-1.2425,-0.032696,0.009882,-1.00784,-0.16352,-0.25802,0.33348
-0.227671,0,0,5.22767,5.22767,4.77233,4.77233,0.0598666,0.122866,8.85967,0.00543159,-0.00122049,0.00485404,0,0,0,3.5175,-0.07,-1.12,-0.032696,0.009882,-1.00784,-0.16436,-0.2583,0.33208
-0.339524,0,0,5.33952,5.33952,4.66048,4.66048,0.0632505,0.12625,9.51796,0.00112052,-0.0023827,0.00546859,0,0,0,3.6575,0.175,-1.3125,-0.036966,0.008662,-1.00723,-0.16436,-0.2583,0.33208
-0.403157,0,0,5.40316,5.40316,4.59684,4.59684,0.0674748,0.130238,10.1721,0.00105092,-0.00304173,-0.000433179,0,0,0,3.6575,0.3325,-1.2775,-0.036966,0.00793,-1.01309,-0.16436,-0.2583,0.33208
-0.405964,0,0,5.40596,5.40596,4.59404,4.59404,0.0716288,0.134075,10.8221,0.00098395,-0.00296923,-0.000433421,0,0,0,3.6575,0.3325,-1.2775,-0.036966,0.00793,-1.01309,-0.16436,-0.2583,0.33208
-0.245922,0,0,5.24592,5.24592,4.75408,4.75408,0.073336,0.141685,11.4645,0.00461719,-0.00122966,0.0050989,0,0,0,3.43,0.28,-1.4,-0.033184,0.009638,-1.0076,-0.16436,-0.2583,0.33208
-0.524666,0,0,5.52467,5.52467,4.47533,4.47533,0.0790693,0.150919,12.1023,0.00421304,-0.0043049,0.00239349,0,0,0,3.43,0.2975,-1.4,-0.033428,0.006466,-1.01028,-0.16436,-0.2583,0.33208
-0.52836,0,0,5.52836,5.52836,4.47164,4.47164,0.0847057,0.159586,12.7358,0.00406177,-0.00420652,0.00239294,0,0,0,3.43,0.14,-1.3825,-0.033428,0.006466,-1.01028,-0.16436,-0.2583,0.33208
-0.343865,0,0,5.34387,5.34387,4.65613,4.65613,0.087499,0.169038,13.3643,0.00608356,-0.00195949,0.00472842,0,0,0,3.4125,-0.1225,-1.33,-0.031232,0.008662,-1.00796,-0.16506,-0.25942,0.33222
-0.541228,0,0,5.54123,5.54123,4.45877,4.45877,0.0931013,0.177185,13.9896,0.00411908,-0.00381574,0.00915398,0,0,0,3.6225,-0.0875,-1.2075,-0.033062,0.00671,-1.00357,-0.16506,-0.25942,0.33222
-0.476845,0,0,5.47684,5.47684,4.52316,4.52316,0.0976157,0.179932,14.6133,0.000669543,-0.00312632,0.00423576,0,0,0,3.6575,-0.105,-1.26,-0.036478,0.00732,-1.00845,-0.16506,-0.25942,0.33222
-0.475163,0,0,5.47516,5.47516,4.52484,4.52484,0.101987,0.182792,15.2327,0.000619621,-0.00305003,0.00423547,0,0,0,3.6225,0.035,-1.2075,-0.036478,0.00732,-1.00845,-0.16506,-0.25942,0.33222
-0.453668,0,0,5.45367,5.45367,4.54633,4.54633,0.105929,0.187312,15.8463,0.00187707,-0.00273698,0.00607932,0,0,0,3.5525,0.105,-1.19,-0.035136,0.007564,-1.00662,-0.16506,-0.25942,0.33222
-0.477526,0,0,5.47753,5.47753,4.52247,4.52247,0.110115,0.192372,16.4547,0.00251768,-0.00266391,0.00435761,0,0,0,3.71,-0.0525,-1.225,-0.034404,0.007564,-1.00833,-0.16506,-0.25942,0.33222
-0.466695,0,0,5.4667,5.4667,4.5333,4.5333,0.114033,0.197016,17.0583,0.00243662,-0.00259553,0.0043572,0,0,0,3.605,-0.1925,-1.295,-0.034404,0.007564,-1.00833,-0.16506,-0.25942,0.33222
-0.455859,0,0,5.45586,5.45586,4.54414,4.54414,0.117689,0.207768,17.6489,0.00662244,-0.00228746,0.00939729,0,0,0,3.4825,0.0525,-1.225,-0.030012,0.007808,-1.00333,-0.16786,-0.25816,0.33488
-0.495781,0,0,5.49578,5.49578,4.50422,4.50422,0.121833,0.212076,18.2388,0.00156635,-0.00319217,0.00374124,0,0,0,3.29,0.0875,-1.19,-0.035014,0.006832,-1.00894,-0.16786,-0.25816,0.33488
-0.23857,0,0,5.23857,5.23857,4.76143,4.76143,0.12211,0.213199,18.8254,0.00069635,-0.000378414,0.00288051,0,0,0,3.3425,0.07,-1.2075,-0.035868,0.009638,-1.00979,-0.16786,-0.25816,0.33488
-0.243138,0,0,5.24314,5.24314,4.75686,4.75686,0.122446,0.2142,19.4077,0.000678877,-0.000372544,0.00288044,0,0,0,3.3775,0.0175,-0.9975,-0.035868,0.009638,-1.00979,-0.16786,-0.25816,0.33488
-0.840266,0,0,5.84027,5.84027,4.15973,4.15973,0.131495,0.226237,19.9788,0.00569268,-0.00619883,0.00386287,0,0,0,3.43,0.0875,-1.26,-0.030622,0.00366,-1.00882,-0.16786,-0.25816,0.33488
-0.844096,0,0,5.8441,5.8441,4.1559,4.1559,0.140361,0.237867,20.5452,0.00548969,-0.00604408,0.00386168,0,0,0,3.43,0.0875,-1.26,-0.030622,0.00366,-1.00882,-0.16786,-0.25816,0.33488
-0.462598,0,0,5.4626,5.4626,4.5374,4.5374,0.143422,0.242477,21.1104,0.00249358,-0.00171623,0.00398416,0,0,0,3.7275,0.1225,-1.26,-0.03355,0.00793,-1.0087,-0.16786,-0.25816,0.33488
-0.785506,0,0,5.78551,5.78551,4.21449,4.21449,0.151119,0.248861,21.6698,0.00226069,-0.00500145,0.00717999,0,0,0,3.6925,0.035,-1.2425,-0.033672,0.004514,-1.00552,-0.16786,-0.25816,0.33488
-0.784576,0,0,5.78458,5.78458,4.21542,4.21542,0.158599,0.254837,22.2284,0.00215639,-0.0048709,0.00717918,0,0,0,3.6575,-0.07,-1.295,-0.033672,0.004514,-1.00552,-0.16646,-0.25634,0.32634
-0.792891,0,0,5.79289,5.79289,4.20711,4.20711,0.166003,0.265192,22.7796,0.00549874,-0.00461954,0.00594851,0,0,0,3.6225,-0.0875,-1.19,-0.030134,0.004636,-1.00674,-0.16646,-0.25634,0.32634
-0.608822,0,0,5.60882,5.60882,4.39118,4.39118,0.170524,0.269645,23.3292,0.00189792,-0.00307511,0.00115293,0,0,0,3.465,0.0175,-1.1725,-0.033672,0.0061,-1.0115,-0.16646,-0.25634,0.32634
-0.621137,0,0,5.62114,5.62114,4.37886,4.37886,0.175106,0.274052,23.8741,0.00182102,-0.00299515,0.00115232,0,0,0,3.5525,0.0875,-1.085,-0.033672,0.0061,-1.0115,-0.16646,-0.25634,0.32634
-0.711972,0,0,5.71197,5.71197,4.28803,4.28803,0.180894,0.279896,24.4131,0.00256942,-0.00387115,0.00115151,0,0,0,3.465,0,-1.0675,-0.032818,0.005124,-1.0115,-0.16646,-0.25634,0.32634
-0.651596,0,0,5.6516,5.6516,4.3484,4.3484,0.185647,0.287625,24.946,0.0042568,-0.00305544,0.00520788,0,0,0,3.4125,0.035,-1.1025,-0.030988,0.005856,-1.00748,-0.16646,-0.25634,0.32634
-0.655009,0,0,5.65501,5.65501,4.34499,4.34499,0.190325,0.295228,25.4738,0.00412411,-0.0029738,0.00520694,0,0,0,3.43,0.105,-1.19,-0.030988,0.005856,-1.00748,-0.16646,-0.25634,0.32634
-0.642753,0,0,5.64275,5.64275,4.35725,4.35725,0.1947,0.293903,26.0061,-0.00265596,-0.00314169,0.00582154,0,0,0,3.5175,0.245,-1.3125,-0.03782,0.005612,-1.00687,-0.16408,-0.25942,0.32774
-0.655877,0,0,5.65588,5.65588,4.34412,4.34412,0.199151,0.297441,26.5308,0.000926865,-0.00318613,0.00446852,0,0,0,3.3075,0.2275,-1.155,-0.03416,0.00549,-1.00821,-0.16408,-0.25942,0.32774
-0.545773,0,0,5.54577,5.54577,4.45423,4.45423,0.201877,0.305254,27.0482,0.00467805,-0.00191729,0.00471354,0,0,0,3.15,0.2275,-1.1025,-0.030256,0.00671,-1.00796,-0.16408,-0.25942,0.32774
-0.565496,0,0,5.5655,5.5655,4.4345,4.4345,0.204819,0.312904,27.5607,0.00454454,-0.00186595,0.00471263,0,0,0,3.3075,0.2625,-1.155,-0.030256,0.00671,-1.00796,-0.16408,-0.25942,0.32774
-0.721833,0,0,5.72183,5.72183,4.27817,4.27817,0.209966,0.312864,28.0722,-0.00189352,-0.00385227,-0.000574474,0,0,0,3.325,0.175,-1.26,-0.036722,0.004636,-1.01321,-0.16408,-0.25942,0.32774
-0.73392,0,0,5.73392,5.73392,4.26608,4.26608,0.215155,0.312493,28.5789,-0.00188703,-0.00376172,-0.000574774,0,0,0,3.4125,0.0175,-1.295,-0.036722,0.004636,-1.01321,-0.16408,-0.25942,0.32774
-0.723209,0,0,5.72321,5.72321,4.27679,4.27679,0.220049,0.316635,29.078,0.00144228,-0.00330991,0.00249822,0,0,0,3.3775,0.175,-1.4,-0.033306,0.005002,-1.01016,-0.16408,-0.25942,0.32774
-0.724278,0,0,5.72428,5.72428,4.27572,4.27572,0.224831,0.320618,29.5723,0.00137275,-0.00322647,0.00249751,0,0,0,3.3775,0.175,-1.4,-0.033306,0.005002,-1.01016,-0.16408,-0.25942,0.32774
-0.547742,0,0,5.54774,5.54774,4.45226,4.45226,0.226907,0.322463,30.0614,0.000490162,-0.00135832,0.00692333,0,0,0,3.465,0.28,-1.2425,-0.03416,0.006832,-1.00577,-0.16758,-0.25998,0.32676
-0.726045,0,0,5.72605,5.72605,4.27395,4.27395,0.231533,0.321674,30.5469,-0.00229025,-0.00335374,0.00606244,0,0,0,3.395,0.2275,-1.1375,-0.036966,0.004758,-1.00662,-0.16758,-0.25998,0.32676
-0.725041,0,0,5.72504,5.72504,4.27496,4.27496,0.236022,0.32058,31.0277,-0.00227115,-0.0032754,0.00606223,0,0,0,3.3775,0.07,-1.085,-0.036966,0.004758,-1.00662,-0.16758,-0.25998,0.32676
-0.576038,0,0,5.57604,5.57604,4.42396,4.42396,0.238216,0.323127,31.5019,0.00120747,-0.0014052,-0.000823293,0,0,0,3.465,0.175,-1.085,-0.033428,0.006588,-1.01345,-0.16758,-0.25998,0.32676
-0.582745,0,0,5.58274,5.58274,4.41726,4.41726,0.24045,0.325468,31.9715,0.00116662,-0.00136621,-0.000823687,0,0,0,3.5175,0.105,-1.015,-0.033428,0.006588,-1.01345,-0.16758,-0.25998,0.32676
-0.342891,0,0,5.34289,5.34289,4.65711,4.65711,0.239122,0.32831,32.4362,0.00245337,0.00105313,0.00716778,0,0,0,3.465,0.1925,-1.05,-0.032086,0.009028,-1.00552,-0.16758,-0.25998,0.32676
-0.342408,0,0,5.34241,5.34241,4.65759,4.65759,0.23782,0.3311,32.8964,0.00240467,0.00103042,0.00716759,0,0,0,3.465,0.1925,-1.05,-0.032086,0.009028,-1.00552,-0.16758,-0.25998,0.32676
-0.645237,0,0,5.64524,5.64524,4.35476,4.35476,0.240976,0.33273,33.3517,0.000310971,-0.00184555,0.00778194,0,0,0,3.6225,0.14,-1.12,-0.03416,0.0061,-1.00491,-0.16758,-0.25998,0.32676
-0.645421,0,0,5.64542,5.64542,4.35458,4.35458,0.244051,0.334279,33.8019,0.000283922,-0.00179189,0.00778156,0,0,0,3.6225,0.14,-1.12,-0.03416,0.0061,-1.00491,-0.16604,-0.25928,0.32928
-0.801095,0,0,5.80109,5.80109,4.19891,4.19891,0.249318,0.335851,34.2465,-0.000107972,-0.00340974,-0.00107129,0,0,0,3.535,-0.035,-1.33,-0.034526,0.004392,-1.0137,-0.16604,-0.25928,0.32928
-0.801869,0,0,5.80187,5.80187,4.19813,4.19813,0.254457,0.337325,34.6866,-0.000133696,-0.00332004,-0.00107184,0,0,0,3.535,-0.035,-1.33,-0.034526,0.004392,-1.0137,-0.16604,-0.25928,0.32928
-0.876327,0,0,5.87633,5.87633,4.12367,4.12367,0.260548,0.340588,35.1212,0.000902731,-0.00370224,0.00421413,0,0,0,3.605,0.035,-1.225,-0.033428,0.003904,-1.00845,-0.16604,-0.25928,0.32928
-0.876928,0,0,5.87693,5.87693,4.12307,4.12307,0.266487,0.343705,35.5512,0.000848338,-0.00359859,0.00421333,0,0,0,3.605,0.035,-1.225,-0.033428,0.003904,-1.00845,-0.16604,-0.25928,0.32928
-0.796311,0,0,5.79631,5.79631,4.20369,4.20369,0.271092,0.35339,35.9733,0.00638914,-0.00217483,0.000646421,0,0,0,3.675,0.0875,-1.2425,-0.027694,0.005246,-1.01199,-0.16604,-0.25928,0.32928
-0.795857,0,0,5.79586,5.79586,4.20414,4.20414,0.275569,0.362797,36.3911,0.00622495,-0.00209671,0.000645022,0,0,0,3.675,0.0875,-1.2425,-0.027694,0.005246,-1.01199,-0.16604,-0.25928,0.32928
-0.387591,0,0,5.38759,5.38759,4.61241,4.61241,0.273964,0.363637,36.8093,0.00122937,0.00105058,0.00703838,0,0,0,3.4125,-0.0175,-1.1725,-0.032696,0.008418,-1.00565,-0.16604,-0.25928,0.32928
-0.264702,0,0,5.2647,5.2647,4.7353,4.7353,0.270606,0.358643,37.2197,-0.00281397,0.00184687,0.00654742,0,0,0,3.465,-0.0175,-1.2075,-0.036844,0.009272,-1.00613,-0.1659,-0.25592,0.33698
-0.275648,0,0,5.27565,5.27565,4.72435,4.72435,0.267496,0.35407,37.6256,-0.00273417,0.00179259,0.00654817,0,0,0,3.5525,0.14,-1.3125,-0.036844,0.009272,-1.00613,-0.1659,-0.25592,0.33698
-0.761669,0,0,5.76167,5.76167,4.23833,4.23833,0.271566,0.355485,38.0228,0.000156785,-0.00253295,0.00027731,0,0,0,3.5525,0.0175,-1.3825,-0.033916,0.00488,-1.01236,-0.1659,-0.25592,0.33698
-0.410295,0,0,5.4103,5.4103,4.5897,4.5897,0.270395,0.356326,38.4169,0.001114,0.000866174,0.00765422,0,0,0,3.5,0,-1.33,-0.03294,0.008296,-1.00504,-0.1659,-0.25592,0.33698
-0.405831,0,0,5.40583,5.40583,4.59417,4.59417,0.26919,0.35737,38.8066,0.00109578,0.000845141,0.00765421,0,0,0,3.465,0.1225,-1.435,-0.03294,0.008296,-1.00504,-0.1659,-0.25592,0.33698
-0.642795,0,0,5.64279,5.64279,4.35721,4.35721,0.271477,0.356964,39.1921,-0.000962384,-0.00143535,0.00335087,0,0,0,3.5875,0.1575,-1.4875,-0.035014,0.005978,-1.00931,-0.1659,-0.25592,0.33698
-0.628276,0,0,5.62828,5.62828,4.37172,4.37172,0.273491,0.356631,39.5739,-0.000956579,-0.0014002,0.00335074,0,0,0,3.465,0.21,-1.2775,-0.035014,0.005978,-1.00931,-0.1659,-0.25592,0.33698
-0.463087,0,0,5.46309,5.46309,4.53691,4.53691,0.273039,0.357994,39.951,0.00108489,0.000179557,-0.002305,0,0,0,3.3425,0.175,-1.2425,-0.03294,0.007564,-1.01492,-0.1659,-0.25592,0.33698
-0.486419,0,0,5.48642,5.48642,4.51358,4.51358,0.272939,0.358854,40.3223,0.00106988,0.000177811,-0.00230509,0,0,0,3.535,-0.105,-1.3475,-0.03294,0.007564,-1.01492,-0.16758,-0.25536,0.33488
-0.548881,0,0,5.54888,5.54888,4.45112,4.45112,0.273754,0.359609,40.6894,0.000570765,-0.000418611,-0.000952806,0,0,0,3.5525,0.0175,-1.3825,-0.033428,0.006954,-1.01358,-0.16758,-0.25536,0.33488
-0.572375,0,0,5.57237,5.57237,4.42763,4.42763,0.274889,0.360636,41.0524,0.00055284,-0.000398795,-0.000953014,0,0,0,3.745,0.1925,-1.47,-0.033428,0.006954,-1.01358,-0.16758,-0.25536,0.33488
-0.507423,0,0,5.50742,5.50742,4.49258,4.49258,0.275046,0.362862,41.4112,0.00172883,0.00045882,0.00347287,0,0,0,3.8325,0.2275,-1.3125,-0.032208,0.007808,-1.00918,-0.16758,-0.25536,0.33488
-0.496379,0,0,5.49638,5.49638,4.50362,4.50362,0.275036,0.365068,41.7661,0.00169035,0.00045865,0.00347263,0,0,0,3.745,0.245,-1.3475,-0.032208,0.007808,-1.00918,-0.16758,-0.25536,0.33488
-0.397416,0,0,5.39742,5.39742,4.60258,4.60258,0.27358,0.368861,42.1164,0.00332494,0.00128813,-0.000216127,0,0,0,3.5525,0.21,-1.295,-0.0305,0.008662,-1.01284,-0.16758,-0.25536,0.33488
-0.377669,0,0,5.37767,5.37767,4.62233,4.62233,0.271874,0.372372,42.4632,0.00326366,0.00125835,-0.000216382,0,0,0,3.395,0.0875,-1.1375,-0.0305,0.008662,-1.01284,-0.16758,-0.25536,0.33488
-0.385022,0,0,5.38502,5.38502,4.61498,4.61498,0.27032,0.370411,42.8086,-0.00131857,0.00062059,0.0051937,0,0,0,3.3075,0.1575,-1.1025,-0.035136,0.008052,-1.00748,-0.16758,-0.25536,0.33488
-0.368266,0,0,5.36827,5.36827,4.63173,4.63173,0.268561,0.368245,43.1539,-0.00128076,0.000589892,0.00519409,0,0,0,3.1675,0,-1.1725,-0.035136,0.008052,-1.00748,-0.16604,-0.25774,0.33516
-0.390021,0,0,5.39002,5.39002,4.60998,4.60998,0.267165,0.371112,43.4931,0.00243525,0.000809787,0.00666926,0,0,0,3.22,0.1575,-1.2075,-0.031354,0.008296,-1.00601,-0.16604,-0.25774,0.33516
-0.428187,0,0,5.42819,5.42819,4.57181,4.57181,0.266363,0.373895,43.8286,0.00238668,0.000795788,0.00666901,0,0,0,3.535,0.14,-1.1025,-0.031354,0.008296,-1.00601,-0.16604,-0.25774,0.33516
-0.747675,0,0,5.74768,5.74768,4.25232,4.25232,0.270248,0.378068,44.1585,0.00231386,-0.00206746,0.0040863,0,0,0,3.57,0.175,-1.225,-0.031354,0.005368,-1.00857,-0.16604,-0.25774,0.33516
-0.734154,0,0,5.73415,5.73415,4.26585,4.26585,0.273832,0.381959,44.4844,0.00224595,-0.0020049,0.00408555,0,0,0,3.465,0.0875,-1.33,-0.031354,0.005368,-1.00857,-0.16604,-0.25774,0.33516
-0.50468,0,0,5.50468,5.50468,4.49532,4.49532,0.273971,0.380076,44.8101,-0.00148725,-0.000170584,-0.00243051,0,0,0,3.5875,0.1225,-1.295,-0.035136,0.007198,-1.01504,-0.16604,-0.25774,0.33516
-0.502995,0,0,5.503,5.503,4.497,4.497,0.27408,0.378444,45.1322,-0.00145876,-0.000168676,-0.00243033,0,0,0,3.57,0.245,-1.19,-0.035136,0.007198,-1.01504,-0.16604,-0.25774,0.33516
-0.97647,0,0,5.97647,5.97647,4.02353,4.02353,0.281101,0.379503,45.4477,-0.0009913,-0.0044427,0.000888561,0,0,0,3.4825,0.21,-1.1725,-0.034648,0.002806,-1.01175,-0.16604,-0.25774,0.33516
-0.95845,0,0,5.95845,5.95845,4.04155,4.04155,0.287674,0.380522,45.7566,-0.0010091,-0.00432799,0.000887874,0,0,0,3.3425,0.245,-1.26,-0.034648,0.002806,-1.01175,-0.1673,-0.25676,0.33684
-0.668713,0,0,5.66871,5.66871,4.33129,4.33129,0.289841,0.380091,46.0636,-0.00124454,-0.00148124,0.0076499,0,0,0,3.4475,0.35,-1.2775,-0.034892,0.005612,-1.00504,-0.1673,-0.25676,0.33684
-0.668807,0,0,5.66881,5.66881,4.33119,4.33119,0.291953,0.379649,46.3671,-0.00123683,-0.0014444,0.00764976,0,0,0,3.4475,0.35,-1.2775,-0.034892,0.005612,-1.00504,-0.1673,-0.25676,0.33684
-0.569246,0,0,5.56925,5.56925,4.43075,4.43075,0.292554,0.380157,46.6671,9.06568e-05,-0.000212639,0.000641588,0,0,0,3.64,0.2975,-1.225,-0.03355,0.006832,-1.01199,-0.1673,-0.25676,0.33684
-0.569167,0,0,5.56917,5.56917,4.43083,4.43083,0.293137,0.380647,46.9638,8.20943e-05,-0.000202457,0.000641479,0,0,0,3.64,0.2975,-1.225,-0.03355,0.006832,-1.01199,-0.1673,-0.25676,0.33684
-0.610812,0,0,5.61081,5.61081,4.38919,4.38919,0.294313,0.383107,47.2559,0.00186146,-0.00054832,0.00383775,0,0,0,3.465,0,-1.085,-0.03172,0.006466,-1.00882,-0.1673,-0.25676,0.33684
-0.27712,0,0,5.27712,5.27712,4.72288,4.72288,0.290583,0.378487,47.5487,-0.00255288,0.00207338,0.00359272,0,0,0,3.57,-0.0875,-1.155,-0.036234,0.00915,-1.00906,-0.1673,-0.25676,0.33684
-0.34232,0,0,5.34232,5.34232,4.65768,4.65768,0.287903,0.374031,47.8383,-0.00247512,0.00202661,0.00359347,0,0,0,4.095,-0.07,-1.015,-0.036234,0.00915,-1.00906,-0.1673,-0.25676,0.33684
-0.403606,0,0,5.40361,5.40361,4.59639,4.59639,0.286188,0.369924,48.126,-0.00313235,0.000531159,0.00679074,0,0,0,3.325,0.1925,-1.155,-0.036966,0.007686,-1.00589,-0.16604,-0.25816,0.33894
-0.244669,0,0,5.24467,5.24467,4.75533,4.75533,0.282196,0.36596,48.4106,-0.00245575,0.00217127,0.00765217,0,0,0,3.5,0.21,-1.3825,-0.036356,0.009394,-1.00504,-0.16604,-0.25816,0.33894
-0.245673,0,0,5.24567,5.24567,4.75433,4.75433,0.278323,0.362001,48.6922,-0.00238665,0.00210367,0.00765294,0,0,0,3.5,0.14,-1.225,-0.036356,0.009394,-1.00504,-0.16604,-0.25816,0.33894
-0.607887,0,0,5.60789,5.60789,4.39211,4.39211,0.279842,0.360895,48.9678,-0.00127397,-0.00116724,0.00371858,0,0,0,3.395,0.105,-1.225,-0.035258,0.0061,-1.00894,-0.16604,-0.25816,0.33894
-0.61232,0,0,5.61232,5.61232,4.38768,4.38768,0.281385,0.35977,49.2402,-0.00125433,-0.00114031,0.00371857,0,0,0,3.43,0.0875,-1.2425,-0.035258,0.0061,-1.00894,-0.16604,-0.25816,0.33894
-0.770115,0,0,5.77011,5.77011,4.22989,4.22989,0.285191,0.358951,49.5089,-0.00160451,-0.0025394,0.0064232,0,0,0,3.4125,0.14,-1.12,-0.035624,0.004636,-1.00626,-0.16604,-0.25816,0.33894
-0.776512,0,0,5.77651,5.77651,4.22349,4.22349,0.28899,0.358237,49.7744,-0.00159204,-0.0024731,0.00642295,0,0,0,3.465,0.21,-1.1375,-0.035624,0.004636,-1.00626,-0.16604,-0.25816,0.33894
-0.418016,0,0,5.41802,5.41802,4.58198,4.58198,0.287453,0.355401,50.0392,-0.00214996,0.00055324,0.0016284,0,0,0,3.3775,0.21,-0.9975,-0.036234,0.007686,-1.01101,-0.16604,-0.25816,0.33894
-0.435939,0,0,5.43594,5.43594,4.56406,4.56406,0.286217,0.352585,50.3018,-0.00210082,0.000531672,0.00162881,0,0,0,3.5175,0.175,-1.1375,-0.036234,0.007686,-1.01101,-0.16478,-0.25788,0.34006
-0.645322,0,0,5.64532,5.64532,4.35468,4.35468,0.288071,0.352136,50.5592,-0.000756641,-0.00114574,-0.000830273,0,0,0,3.57,0.14,-1.26,-0.034892,0.005978,-1.01345,-0.16478,-0.25788,0.34006
-0.628165,0,0,5.62817,5.62817,4.37183,4.37183,0.289625,0.351892,50.8134,-0.000752377,-0.00111862,-0.000830383,0,0,0,3.43,0.2625,-1.3825,-0.034892,0.005978,-1.01345,-0.16478,-0.25788,0.34006
-0.753125,0,0,5.75313,5.75313,4.24687,4.24687,0.292963,0.352648,51.0639,-0.000401125,-0.00191525,0.00765269,0,0,0,3.5875,0.3325,-1.33,-0.034526,0.005124,-1.00504,-0.16478,-0.25788,0.34006
-0.759261,0,0,5.75926,5.75926,4.24074,4.24074,0.296302,0.35291,51.3118,-0.000405692,-0.00185698,0.00765236,0,0,0,3.64,0.07,-1.12,-0.034526,0.005124,-1.00504,-0.16478,-0.25788,0.34006
-0.261089,0,0,5.26109,5.26109,4.73891,4.73891,0.292277,0.35192,51.5592,-2.39567e-05,0.0023472,0.00605449,0,0,0,3.43,0.14,-1.19,-0.03416,0.009394,-1.00662,-0.16478,-0.25788,0.34006
-0.257355,0,0,5.25735,5.25735,4.74265,4.74265,0.288302,0.350926,51.8037,-6.60817e-06,0.00227783,0.00605495,0,0,0,3.395,0.105,-1.19,-0.03416,0.009394,-1.00662,-0.16478,-0.25788,0.34006
-0.830977,0,0,5.83098,5.83098,4.16902,4.16902,0.292809,0.353479,52.0416,0.00104221,-0.00252858,0.00273467,0,0,0,3.5525,0.21,-1.2075,-0.033062,0.004514,-1.00992,-0.16478,-0.25788,0.34006
-0.821732,0,0,5.82173,5.82173,4.17827,4.17827,0.297062,0.356359,52.2732,0.000991934,-0.00245435,0.00273398,0,0,0,3.4825,0.455,-1.295,-0.033062,0.004514,-1.00992,-0.16632,-0.2555,0.33698
-0.335504,0,0,5.3355,5.3355,4.6645,4.6645,0.294101,0.3557,52.5055,-0.000211413,0.0017684,-0.00193773,0,0,0,3.535,0.35,-1.3475,-0.034282,0.008784,-1.01455,-0.16632,-0.2555,0.33698
-0.348829,0,0,5.34883,5.34883,4.65117,4.65117,0.291411,0.354899,52.7352,-0.00019743,0.00172147,-0.0019374,0,0,0,3.64,0.245,-1.2075,-0.034282,0.008784,-1.01455,-0.16632,-0.2555,0.33698
-0.509196,0,0,5.5092,5.5092,4.4908,4.4908,0.291134,0.356355,52.9605,0.0011135,0.000128982,0.00457874,0,0,0,3.3425,0.175,-1.155,-0.03294,0.007198,-1.00809,-0.16632,-0.2555,0.33698
-0.543205,0,0,5.5432,5.5432,4.4568,4.4568,0.291361,0.35781,53.1832,0.0010881,0.000132931,0.00457856,0,0,0,3.6225,0.1925,-1.1375,-0.03294,0.007198,-1.00809,-0.16632,-0.2555,0.33698
-0.961922,0,0,5.96192,5.96192,4.03808,4.03808,0.297696,0.362437,53.3998,0.00270814,-0.00329818,0.00347094,0,0,0,3.6575,0.035,-1.2425,-0.031232,0.00366,-1.00918,-0.16632,-0.2555,0.33698
-0.958164,0,0,5.95816,5.95816,4.04184,4.04184,0.303809,0.366975,53.6136,0.00262895,-0.00319149,0.00346988,0,0,0,3.64,0.07,-1.4175,-0.031232,0.00366,-1.00918,-0.16632,-0.2555,0.33698
-0.382051,0,0,5.38205,5.38205,4.61795,4.61795,0.301347,0.365884,53.8293,-0.000146186,0.0016506,0.000396517,0,0,0,3.6925,0,-1.4875,-0.034038,0.00854,-1.01223,-0.16632,-0.2555,0.33698
-0.37176,0,0,5.37176,5.37176,4.62824,4.62824,0.298798,0.364952,54.043,-0.000129916,0.00160612,0.000396854,0,0,0,3.605,0.07,-1.2775,-0.034038,0.00854,-1.01223,-0.16856,-0.25928,0.33768
-0.929986,0,0,5.92999,5.92999,4.07001,4.07001,0.304468,0.369174,54.2497,0.0023476,-0.00293573,0.00851046,0,0,0,3.605,0.1225,-1.26,-0.031476,0.003904,-1.00418,-0.16856,-0.25928,0.33768
-0.926476,0,0,5.92648,5.92648,4.07352,4.07352,0.309938,0.373528,54.454,0.00227161,-0.00284027,0.00850946,0,0,0,3.5875,0.28,-1.225,-0.031476,0.003904,-1.00418,-0.16856,-0.25928,0.33768
-0.537311,0,0,5.53731,5.53731,4.46269,4.46269,0.309579,0.370887,54.6601,-0.00229876,-3.76152e-05,-0.00169493,0,0,0,3.535,0.2625,-1.225,-0.036112,0.00671,-1.01431,-0.16856,-0.25928,0.33768
-0.529321,0,0,5.52932,5.52932,4.47068,4.47068,0.309113,0.368249,54.8635,-0.00225271,-4.57589e-05,-0.00169459,0,0,0,3.465,0.2275,-1.295,-0.036112,0.00671,-1.01431,-0.16856,-0.25928,0.33768
-0.607296,0,0,5.6073,5.6073,4.3927,4.3927,0.309796,0.369462,55.063,0.000641773,-0.00027808,0.00494442,0,0,0,3.535,0.28,-1.26,-0.033184,0.006466,-1.00772,-0.16856,-0.25928,0.33768
-0.596351,0,0,5.59635,5.59635,4.40365,4.40365,0.310302,0.370314,55.2601,0.000626899,-0.000269262,0.00494428,0,0,0,3.4475,0.0875,-1.1725,-0.033184,0.006466,-1.00772,-0.16856,-0.25928,0.33768
-0.44561,0,0,5.44561,5.44561,4.55439,4.55439,0.308591,0.368833,55.4563,-0.000805077,0.000800029,0.0013791,0,0,0,3.395,0.035,-1.2425,-0.034648,0.007564,-1.01126,-0.16856,-0.25928,0.33768
-0.450469,0,0,5.45047,5.45047,4.54953,4.54953,0.306996,0.367336,55.6501,-0.000778958,0.000772191,0.00137942,0,0,0,3.43,0,-1.2075,-0.034648,0.007564,-1.01126,-0.16856,-0.25928,0.33768
-0.724073,0,0,5.72407,5.72407,4.27593,4.27593,0.309439,0.370109,55.8361,0.00184533,-0.00138347,2.64452e-05,0,0,0,3.3775,0.105,-1.2775,-0.031964,0.005368,-1.0126,-0.1694,-0.2562,0.33194
-0.738161,0,0,5.73816,5.73816,4.26184,4.26184,0.312022,0.372773,56.0198,0.00179883,-0.00133839,2.58992e-05,0,0,0,3.5,0.0875,-1.33,-0.031964,0.005368,-1.0126,-0.1694,-0.2562,0.33194
-0.764754,0,0,5.76475,5.76475,4.23525,4.23525,0.314925,0.373486,56.2018,8.55993e-05,-0.00177623,0.00605002,0,0,0,3.4125,0.0525,-1.2775,-0.033672,0.00488,-1.00662,-0.1694,-0.2562,0.33194
-0.757897,0,0,5.7579,5.7579,4.2421,4.2421,0.317651,0.374011,56.3816,7.64302e-05,-0.00172866,0.00604969,0,0,0,3.36,-0.035,-1.225,-0.033672,0.00488,-1.00662,-0.1694,-0.2562,0.33194
-0.938234,0,0,5.93823,5.93823,4.06177,4.06177,0.322938,0.377124,56.5579,0.0017229,-0.00273552,0.00838484,0,0,0,3.6225,0.035,-1.1025,-0.031964,0.003782,-1.0043,-0.1694,-0.2562,0.33194
-0.913383,0,0,5.91338,5.91338,4.08662,4.08662,0.327723,0.380342,56.732,0.00166674,-0.00265202,0.008384,0,0,0,3.43,0.1575,-1.1725,-0.031964,0.003782,-1.0043,-0.1694,-0.2562,0.33194
-0.788615,0,0,5.78862,5.78862,4.21138,4.21138,0.330558,0.374479,56.9047,0.00116164,-0.00162551,0.00629426,0,0,0,3.4125,-4.445,-1.2425,-0.032574,0.004758,-1.00638,-0.1694,-0.2562,0.33194
-0.789696,0,0,5.7897,5.7897,4.2103,4.2103,0.333335,0.368718,57.0753,0.00126218,-0.00157705,0.00629464,0,0,0,3.4125,-4.445,-1.2425,-0.032574,0.004758,-1.00638,-0.1694,-0.2562,0.33194
-0.82903,0,0,5.82903,5.82903,4.17097,4.17097,0.336612,0.372764,57.2448,0.00277087,-0.00151986,0.00223654,0,0,0,3.5875,0.1575,-1.3125,-0.030988,0.004758,-1.0104,-0.16716,-0.2548,0.33278
-0.60297,0,0,5.60297,5.60297,4.39703,4.39703,0.3365,0.374144,57.4139,0.00128897,0.000187972,0.00100691,0,0,0,3.4825,0.0525,-1.3825,-0.032452,0.006466,-1.01162,-0.16716,-0.2548,0.33278
-0.600709,0,0,5.60071,5.60071,4.39929,4.39929,0.336358,0.375314,57.5812,0.00126855,0.000185487,0.00100679,0,0,0,3.465,-0.0525,-1.225,-0.032452,0.006466,-1.01162,-0.16716,-0.2548,0.33278
-0.753714,0,0,5.75371,5.75371,4.24629,4.24629,0.338453,0.372995,57.7469,-0.00221407,-0.00148772,0.0110886,0,0,0,3.4475,0,-1.1725,-0.03599,0.004758,-1.00162,-0.16716,-0.2548,0.33278
-0.749665,0,0,5.74967,5.74967,4.25033,4.25033,0.340434,0.370832,57.9105,-0.00217632,-0.00145315,0.0110887,0,0,0,3.4125,0.07,-1.2425,-0.03599,0.004758,-1.00162,-0.16716,-0.2548,0.33278
-0.871676,0,0,5.87168,5.87168,4.12832,4.12832,0.344144,0.373128,58.07,0.00118521,-0.00199904,0.00617007,0,0,0,3.5175,0.1575,-1.3475,-0.032574,0.004148,-1.0065,-0.16716,-0.2548,0.33278
-0.855785,0,0,5.85579,5.85579,4.14421,4.14421,0.347523,0.37511,58.2277,0.00115062,-0.00194007,0.00616949,0,0,0,3.395,0.0175,-1.2775,-0.032574,0.004148,-1.0065,-0.16716,-0.2548,0.33278
-0.770607,0,0,5.77061,5.77061,4.22939,4.22939,0.349568,0.374897,58.3848,-0.000667939,-0.00141586,0.00272674,0,0,0,3.3775,0.175,-1.12,-0.034404,0.004636,-1.00992,-0.16716,-0.2548,0.33278
-0.786892,0,0,5.78689,5.78689,4.21311,4.21311,0.351797,0.37473,58.5359,-0.000665026,-0.00137696,0.00272652,0,0,0,3.5175,0.21,-1.26,-0.034404,0.004636,-1.00992,-0.16842,-0.25256,0.33698
-0.76744,0,0,5.76744,5.76744,4.23256,4.23256,0.353683,0.371557,58.686,-0.00291789,-0.00146618,0.00702988,0,0,0,3.465,0.035,-1.225,-0.036722,0.004514,-1.00565,-0.16842,-0.25256,0.33698
-0.765865,0,0,5.76587,5.76587,4.23413,4.23413,0.355495,0.368499,58.8345,-0.00286451,-0.00143455,0.00703003,0,0,0,3.4475,0.07,-1.1375,-0.036722,0.004514,-1.00565,-0.16842,-0.25256,0.33698
-0.482341,0,0,5.48234,5.48234,4.51766,4.51766,0.353117,0.36876,58.9818,0.000775503,0.00157712,-0.00108435,0,0,0,3.5875,0.07,-1.12,-0.033062,0.007564,-1.0137,-0.16842,-0.25256,0.33698
-0.501758,0,0,5.50176,5.50176,4.49824,4.49824,0.351085,0.369063,59.127,0.000770214,0.00154166,-0.00108416,0,0,0,3.745,0.0875,-1.3125,-0.033062,0.007564,-1.0137,-0.16842,-0.25256,0.33698
-0.517483,0,0,5.51748,5.51748,4.48252,4.48252,0.349335,0.366535,59.2715,-0.00173686,0.00102262,2.28431e-05,0,0,0,3.6925,0.105,-1.155,-0.035624,0.007076,-1.0126,-0.16842,-0.25256,0.33698
-0.505598,0,0,5.5056,5.5056,4.4944,4.4944,0.347457,0.364131,59.4144,-0.00169491,0.00098984,2.33099e-05,0,0,0,3.5875,0.14,-1.05,-0.035624,0.007076,-1.0126,-0.16842,-0.25256,0.33698
-0.523561,0,0,5.52356,5.52356,4.47644,4.47644,0.34589,0.360772,59.5556,-0.00260816,0.000718238,0.00408115,0,0,0,3.5875,0.1575,-1.1375,-0.0366,0.006832,-1.00857,-0.16842,-0.25256,0.33698
-0.682311,0,0,5.68231,5.68231,4.31769,4.31769,0.346682,0.361777,59.6942,0.000411438,-0.000489208,0.00555633,0,0,0,3.4125,0.2975,-1.2075,-0.03355,0.005612,-1.00711,-0.16814,-0.25396,0.3381
-0.679915,0,0,5.67992,5.67992,4.32008,4.32008,0.347418,0.362755,59.8311,0.000394365,-0.000476374,0.00555615,0,0,0,3.395,0.2975,-1.1725,-0.03355,0.005612,-1.00711,-0.16814,-0.25396,0.3381
-0.728573,0,0,5.72857,5.72857,4.27143,4.27143,0.348844,0.365714,59.9655,0.00204352,-0.000573616,0.00530977,0,0,0,3.5,0.2625,-1.2075,-0.031842,0.00549,-1.00735,-0.16814,-0.25396,0.3381
-0.753412,0,0,5.75341,5.75341,4.24659,4.24659,0.350594,0.368511,60.0983,0.0019947,-0.000543067,0.00530927,0,0,0,3.71,0.21,-1.19,-0.031842,0.00549,-1.00735,-0.16814,-0.25396,0.3381
-0.649098,0,0,5.6491,5.6491,4.3509,4.3509,0.350774,0.371139,60.2302,0.00207033,0.000437089,0.00641549,0,0,0,3.745,0.245,-1.1725,-0.03172,0.006466,-1.00626,-0.16814,-0.25396,0.3381
-0.625007,0,0,5.62501,5.62501,4.37499,4.37499,0.350597,0.3738,60.3604,0.00202388,0.000433994,0.00641521,0,0,0,3.5525,0.2975,-1.2075,-0.03172,0.006466,-1.00626,-0.16814,-0.25396,0.3381
-0.859167,0,0,5.85917,5.85917,4.14083,4.14083,0.353844,0.373073,60.4884,-0.00148651,-0.002074,0.00702969,0,0,0,3.4825,0.315,-1.33,-0.035258,0.003904,-1.00565,-0.16814,-0.25396,0.3381
-0.858916,0,0,5.85892,5.85892,4.14108,4.14108,0.357001,0.37234,60.615,-0.00147373,-0.00201891,0.00702943,0,0,0,3.4825,0.315,-1.33,-0.035258,0.003904,-1.00565,-0.16814,-0.25396,0.3381
-0.161773,0,0,5.16177,5.16177,4.83823,4.83823,0.349892,0.366107,60.7467,-0.00428058,0.00396336,0.00137527,0,0,0,3.7625,0.28,-1.2775,-0.038186,0.010004,-1.01126,-0.16772,-0.25466,0.33712
-0.367526,0,0,5.36753,5.36753,4.63247,4.63247,0.345974,0.364171,60.8745,-0.000723723,0.00242947,0.00162179,0,0,0,3.6925,-0.0175,-1.26,-0.034648,0.00854,-1.01101,-0.16772,-0.25466,0.33712
-0.364388,0,0,5.36439,5.36439,4.63561,4.63561,0.342112,0.362629,61.0008,-0.000696812,0.00236208,0.00162237,0,0,0,3.6575,0.175,-1.2075,-0.034648,0.00854,-1.01101,-0.16772,-0.25466,0.33712
-0.471622,0,0,5.47162,5.47162,4.52838,4.52838,0.339918,0.360969,61.1252,-0.00115378,0.00134677,0.00604892,0,0,0,3.6575,0.21,-1.085,-0.035136,0.007564,-1.00662,-0.16772,-0.25466,0.33712
-0.457429,0,0,5.45743,5.45743,4.54257,4.54257,0.337573,0.359209,61.2482,-0.00112305,0.00130585,0.00604936,0,0,0,3.535,0.1225,-1.05,-0.035136,0.007564,-1.00662,-0.16772,-0.25466,0.33712
-0.622643,0,0,5.62264,5.62264,4.37736,4.37736,0.337703,0.353796,61.3695,-0.00467315,-0.000523795,-9.74905e-05,0,0,0,3.6225,0.1575,-1.2425,-0.038796,0.005734,-1.01272,-0.16772,-0.25466,0.33712
-0.653742,0,0,5.65374,5.65374,4.34626,4.34626,0.338282,0.348795,61.4892,-0.00458588,-0.000513681,-9.70151e-05,0,0,0,3.8675,0.3325,-1.365,-0.038796,0.005734,-1.01272,-0.16772,-0.25466,0.33712
-0.792081,0,0,5.79208,5.79208,4.20792,4.20792,0.340866,0.35602,61.6033,0.00549282,-0.000590716,0.0076477,0,0,0,3.71,0.315,-1.295,-0.028548,0.005612,-1.00504,-0.16772,-0.25466,0.33712
-0.774849,0,0,5.77485,5.77485,4.22515,4.22515,0.343129,0.363044,61.7165,0.00537023,-0.000551217,0.00764669,0,0,0,3.5875,0.2975,-1.19,-0.028548,0.005612,-1.00504,-0.16884,-0.25788,0.34314
-0.651003,0,0,5.651,5.651,4.349,4.349,0.343524,0.363109,61.8309,-0.000340732,-5.58264e-05,0.00912203,0,0,0,3.6575,0.35,-1.2075,-0.034282,0.0061,-1.00357,-0.16884,-0.25788,0.34314
-0.657325,0,0,5.65733,5.65733,4.34267,4.34267,0.343999,0.363232,61.9438,-0.000342869,-4.75257e-05,0.00912196,0,0,0,3.71,0.385,-1.295,-0.034282,0.0061,-1.00357,-0.16884,-0.25788,0.34314
-0.492842,0,0,5.49284,5.49284,4.50716,4.50716,0.342059,0.358878,62.0574,-0.00366849,0.00101776,-0.00255746,0,0,0,3.815,0.35,-1.365,-0.037698,0.007198,-1.01516,-0.16884,-0.25788,0.34314
-0.464281,0,0,5.46428,5.46428,4.53572,4.53572,0.339752,0.354718,62.1696,-0.00359587,0.0009775,-0.00255677,0,0,0,3.57,0.4025,-1.33,-0.037698,0.007198,-1.01516,-0.16884,-0.25788,0.34314
-0.741164,0,0,5.74116,5.74116,4.25884,4.25884,0.341549,0.358814,62.2769,0.00277137,-0.000700913,0.00297528,0,0,0,3.5175,0.4375,-1.2425,-0.031232,0.00549,-1.00967,-0.16884,-0.25788,0.34314
-0.750746,0,0,5.75075,5.75075,4.24925,4.24925,0.343438,0.362605,62.3831,0.00270521,-0.000667948,0.00297467,0,0,0,3.605,0.315,-1.155,-0.031232,0.00549,-1.00967,-0.16884,-0.25788,0.34314
-0.375978,0,0,5.37598,5.37598,4.62402,4.62402,0.339803,0.359948,62.4915,-0.00150042,0.00219965,0.00445072,0,0,0,3.71,0.0175,-1.2425,-0.035502,0.008418,-1.00821,-0.16884,-0.25788,0.34314
-0.372993,0,0,5.37299,5.37299,4.62701,4.62701,0.336219,0.357519,62.6022,-0.00145802,0.00213711,0.00445135,0,0,0,3.675,0.105,-1.3125,-0.035502,0.008418,-1.00821,-0.16534,-0.25592,0.3388
-0.508867,0,0,5.50887,5.50887,4.49113,4.49113,0.334714,0.359905,62.7094,0.00238789,0.00137806,0.00211522,0,0,0,3.6925,0.105,-1.365,-0.031598,0.007686,-1.01053,-0.16534,-0.25592,0.3388
-0.510829,0,0,5.51083,5.51083,4.48917,4.48917,0.333275,0.362159,62.8156,0.00234854,0.00135296,0.00211512,0,0,0,3.71,0.0525,-1.26,-0.031598,0.007686,-1.01053,-0.16534,-0.25592,0.3388
-0.518972,0,0,5.51897,5.51897,4.48103,4.48103,0.331993,0.363933,62.9206,0.00207461,0.00108632,0.000393778,0,0,0,3.5875,-0.07,-1.12,-0.031842,0.007442,-1.01223,-0.16534,-0.25592,0.3388
-0.52089,0,0,5.52089,5.52089,4.47911,4.47911,0.330771,0.365499,63.0242,0.00204727,0.00106501,0.000393727,0,0,0,3.605,-0.175,-1.2075,-0.031842,0.007442,-1.01223,-0.16534,-0.25592,0.3388
-0.482241,0,0,5.48224,5.48224,4.51776,4.51776,0.329017,0.366427,63.1271,0.00154514,0.00140077,-0.00243402,0,0,0,3.6925,-0.1225,-1.1725,-0.03233,0.007808,-1.01504,-0.16534,-0.25592,0.3388
-0.486556,0,0,5.48656,5.48656,4.51344,4.51344,0.327371,0.367735,63.2285,0.00152231,0.00137204,-0.002434,0,0,0,3.7275,0.105,-1.3125,-0.03233,0.007808,-1.01504,-0.16534,-0.25592,0.3388
-0.465009,0,0,5.46501,5.46501,4.53499,4.53499,0.325453,0.362956,63.3304,-0.00361817,0.000727929,0.000886335,0,0,0,3.535,-0.0175,-1.19,-0.037576,0.007198,-1.01175,-0.16534,-0.25592,0.3388
-0.46424,0,0,5.46424,5.46424,4.53576,4.53576,0.323573,0.358375,63.4284,-0.00353822,0.000695127,0.000887024,0,0,0,3.5175,0.035,-1.12,-0.037576,0.007198,-1.01175,-0.16772,-0.25732,0.34524
-0.674346,0,0,5.67435,5.67435,4.32565,4.32565,0.324811,0.359989,63.5226,0.00141452,-0.000504539,0.00236211,0,0,0,3.5525,0,-1.085,-0.032574,0.005978,-1.01028,-0.16772,-0.25732,0.34524
-0.673803,0,0,5.6738,5.6738,4.3262,4.3262,0.326007,0.361833,63.6156,0.00138235,-0.000483657,0.00236179,0,0,0,3.5525,0.1575,-1.155,-0.032574,0.005978,-1.01028,-0.16772,-0.25732,0.34524
-0.833006,0,0,5.83301,5.83301,4.16699,4.16699,0.329497,0.366755,63.7055,0.00372616,-0.00164402,0.0054346,0,0,0,3.4475,0.105,-1.2075,-0.030134,0.004758,-1.00723,-0.16772,-0.25732,0.34524
-0.829277,0,0,5.82928,5.82928,4.17072,4.17072,0.33284,0.371646,63.7944,0.0036408,-0.00158569,0.00543372,0,0,0,3.43,0.1575,-1.19,-0.030134,0.004758,-1.00723,-0.16772,-0.25732,0.34524
-0.552942,0,0,5.55294,5.55294,4.44706,4.44706,0.332058,0.372443,63.8847,0.000832716,0.000476819,0.00395832,0,0,0,3.4125,0.0875,-1.26,-0.03294,0.006832,-1.0087,-0.16772,-0.25732,0.34524
-0.570056,0,0,5.57006,5.57006,4.42994,4.42994,0.331546,0.373436,63.9738,0.000815379,0.00046788,0.00395826,0,0,0,3.5525,0.21,-1.2425,-0.03294,0.006832,-1.0087,-0.16772,-0.25732,0.34524
-0.827441,0,0,5.82744,5.82744,4.17256,4.17256,0.334806,0.373107,64.0607,-0.00100116,-0.00191776,0.00432681,0,0,0,3.605,0.28,-1.3125,-0.03477,0.004392,-1.00833,-0.16772,-0.25732,0.34524
-0.810154,0,0,5.81015,5.81015,4.18985,4.18985,0.337727,0.372794,64.147,-0.0009957,-0.00186678,0.00432655,0,0,0,3.465,0.2975,-1.05,-0.03477,0.004392,-1.00833,-0.16772,-0.25732,0.34524
-0.229392,0,0,5.22939,5.22939,4.77061,4.77061,0.332088,0.369712,64.2407,-0.00203527,0.00279775,0.00272914,0,0,0,3.2375,0.21,-1.1725,-0.035868,0.00915,-1.00992,-0.16464,-0.2576,0.33768
-0.366087,0,0,5.36609,5.36609,4.63391,4.63391,0.328593,0.363379,64.3332,-0.0049619,0.00127123,0.00100892,0,0,0,3.325,0.07,-1.225,-0.038918,0.007686,-1.01162,-0.16464,-0.2576,0.33768
-0.381043,0,0,5.38104,5.38104,4.61896,4.61896,0.325407,0.357553,64.4247,-0.00486021,0.00121564,0.00100988,0,0,0,3.43,0.28,-1.1375,-0.038918,0.007686,-1.01162,-0.16464,-0.2576,0.33768
-0.66093,0,0,5.66093,5.66093,4.33907,4.33907,0.326393,0.359584,64.5115,0.00130011,-0.000599056,0.00457507,0,0,0,3.325,0.2975,-1.2075,-0.032696,0.005856,-1.00809,-0.16464,-0.2576,0.33768
-0.664644,0,0,5.66464,5.66464,4.33536,4.33536,0.327406,0.361269,64.5973,0.00127071,-0.000581373,0.00457478,0,0,0,3.36,0.1225,-1.1725,-0.032696,0.005856,-1.00809,-0.16464,-0.2576,0.33768
-0.437945,0,0,5.43794,5.43794,4.56206,4.56206,0.325081,0.357471,64.6846,-0.00267204,0.000965696,0.00801799,0,0,0,3.395,-0.105,-1.155,-0.036722,0.007442,-1.00467,-0.16464,-0.2576,0.33768
-0.460564,0,0,5.46056,5.46056,4.53944,4.53944,0.323146,0.354212,64.7707,-0.00261516,0.000931937,0.00801853,0,0,0,3.57,0.1575,-1.2425,-0.036722,0.007442,-1.00467,-0.16464,-0.2576,0.33768
-0.370843,0,0,5.37084,5.37084,4.62916,4.62916,0.319952,0.350226,64.8566,-0.00315302,0.00160894,0.00420787,0,0,0,3.5875,0.2275,-1.1725,-0.037332,0.008174,-1.00845,-0.16464,-0.2576,0.33768
-0.373287,0,0,5.37329,5.37329,4.62671,4.62671,0.316876,0.346523,64.944,-0.0030884,0.00155527,0.00420856,0,0,0,3.5875,0.3325,-1.05,-0.037332,0.008174,-1.00845,-0.16282,-0.2576,0.34076
-0.0125044,0,0,5.0125,5.0125,4.9875,4.9875,0.308611,0.314512,65.039,-0.0271913,0.00189955,-0.0027955,0,0,0,3.71,0.2975,-1.12,-0.062098,0.008662,-1.01541,-0.16282,-0.2576,0.34076
-0.0124104,0,0,5.01241,5.01241,4.98759,4.98759,0.300561,0.282843,65.1326,-0.0266386,0.00175907,-0.00279187,0,0,0,3.64,0.0875,-1.295,-0.062098,0.008662,-1.01541,-0.16282,-0.2576,0.34076
-0.450561,0,0,5.45056,5.45056,4.54944,4.54944,0.299122,0.282605,65.2155,-0.000393508,0.00063481,-0.00439005,0,0,0,3.3775,0.385,-1.1725,-0.035746,0.007564,-1.01699,-0.16282,-0.2576,0.34076
-0.431574,0,0,5.43157,5.43157,4.56843,4.56843,0.297443,0.281752,65.2973,-0.00037863,0.0006055,-0.00438982,0,0,0,3.22,0.0175,-1.26,-0.035746,0.007564,-1.01699,-0.16282,-0.2576,0.34076
-0.659962,0,0,5.65996,5.65996,4.34004,4.34004,0.299143,0.283725,65.3761,0.00153071,-0.000830354,0.00728996,0,0,0,3.465,0.07,-1.3825,-0.033794,0.0061,-1.0054,-0.16282,-0.2576,0.34076
-0.674322,0,0,5.67432,5.67432,4.32568,4.32568,0.301007,0.286036,65.454,0.00149037,-0.000797819,0.00728959,0,0,0,3.5875,0.2975,-1.295,-0.033794,0.0061,-1.0054,-0.16282,-0.2576,0.34076
-0.382347,0,0,5.38235,5.38235,4.61765,4.61765,0.298557,0.288142,65.5329,0.00181807,0.00184621,-0.0026692,0,0,0,3.6925,0.4375,-1.3475,-0.033428,0.008784,-1.01528,-0.16282,-0.2576,0.34076
-0.385671,0,0,5.38567,5.38567,4.61433,4.61433,0.296219,0.289716,65.6017,0.0017906,0.00180541,-0.00266912,0,0,0,3.71,0.14,-1.155,-0.033428,0.008784,-1.01528,-0.16996,-0.25774,0.33866
-0.946616,0,0,5.94662,5.94662,4.05338,4.05338,0.302135,0.293389,65.6656,0.00221244,-0.00322066,0.000157827,0,0,0,3.5175,0.245,-1.2075,-0.03294,0.00366,-1.01248,-0.16996,-0.25774,0.33866
-0.936234,0,0,5.93623,5.93623,4.06377,4.06377,0.307744,0.296958,65.7287,0.00215015,-0.00312278,0.000156985,0,0,0,3.4475,0.245,-1.2775,-0.03294,0.00366,-1.01248,-0.16996,-0.25774,0.33866
-0.697154,0,0,5.69715,5.69715,4.30285,4.30285,0.309712,0.299044,65.7927,0.00150632,-0.000890149,0.00126315,0,0,0,3.5875,0.175,-1.3125,-0.03355,0.005856,-1.01138,-0.16996,-0.25774,0.33866
-0.698506,0,0,5.69851,5.69851,4.30149,4.30149,0.311648,0.301137,65.8559,0.00146978,-0.000856368,0.00126277,0,0,0,3.605,0.21,-1.3475,-0.03355,0.005856,-1.01138,-0.16996,-0.25774,0.33866
-0.755751,0,0,5.75575,5.75575,4.24425,4.24425,0.314368,0.302262,65.9183,0.000599758,-0.0012974,0.00347548,0,0,0,3.71,0.1575,-1.2775,-0.034404,0.005368,-1.00918,-0.16996,-0.25774,0.33866
-0.752946,0,0,5.75295,5.75295,4.24705,4.24705,0.316975,0.303231,65.98,0.000582846,-0.0012519,0.00347514,0,0,0,3.6925,0.0875,-1.2775,-0.034404,0.005368,-1.00918,-0.16996,-0.25774,0.33866
-0.806116,0,0,5.80612,5.80612,4.19388,4.19388,0.320289,0.301818,66.0412,-0.00170074,-0.00204895,0.000893033,0,0,0,3.6225,0.14,-1.19,-0.036722,0.004514,-1.01175,-0.16996,-0.25774,0.33866
-0.818188,0,0,5.81819,5.81819,4.18181,4.18181,0.323692,0.300892,66.0992,-0.00168457,-0.00198956,0.000892784,0,0,0,3.7275,0.42,-1.1375,-0.036722,0.004514,-1.01175,-0.1708,-0.2555,0.34076
-0.941404,0,0,5.9414,5.9414,4.0586,4.0586,0.328804,0.301406,66.1551,-0.00060016,-0.00287735,0.00408889,0,0,0,3.6925,0.3675,-1.26,-0.035624,0.003538,-1.00857,-0.1708,-0.2555,0.34076
-0.931968,0,0,5.93197,5.93197,4.06803,4.06803,0.333643,0.301466,66.2104,-0.000601208,-0.00279289,0.0040884,0,0,0,3.6225,0.1225,-1.225,-0.035624,0.003538,-1.00857,-0.1708,-0.2555,0.34076
-0.65651,0,0,5.65651,5.65651,4.34349,4.34349,0.334331,0.30162,66.2665,-0.00011796,-0.000582603,0.0012605,0,0,0,3.36,0.21,-1.19,-0.035136,0.005734,-1.01138,-0.1708,-0.2555,0.34076
-0.667106,0,0,5.66711,5.66711,4.33289,4.33289,0.335155,0.301409,66.3221,-0.000114279,-0.000568221,0.00126043,0,0,0,3.4475,0,-1.155,-0.035136,0.005734,-1.01138,-0.1708,-0.2555,0.34076
-0.339324,0,0,5.33932,5.33932,4.66068,4.66068,0.331169,0.301101,66.3789,0.000377051,0.00229326,0.0021215,0,0,0,3.395,0.0525,-1.1375,-0.034648,0.008662,-1.01053,-0.1708,-0.2555,0.34076
-0.320837,0,0,5.32084,5.32084,4.67916,4.67916,0.327018,0.300937,66.4351,0.000379909,0.0022208,0.00212194,0,0,0,3.2375,0.1225,-1.155,-0.034648,0.008662,-1.01053,-0.1708,-0.2555,0.34076
-0.5744,0,0,5.5744,5.5744,4.4256,4.4256,0.326678,0.302395,66.4891,0.00108338,0.000138709,-0.00808289,0,0,0,3.3775,0.315,-1.085,-0.033916,0.006588,-1.02065,-0.1708,-0.2555,0.34076
-0.5844,0,0,5.5844,5.5844,4.4156,4.4156,0.326492,0.303733,66.5486,0.00106002,0.000135468,-0.008083,0,0,0,3.465,0.2625,-1.1375,-0.033916,0.006588,-1.02065,-0.16562,-0.25424,0.3367
-0.444479,0,0,5.44448,5.44448,4.55552,4.55552,0.324267,0.300519,66.6092,-0.00277143,0.000951523,0.000523916,0,0,0,3.4825,0.28,-1.1025,-0.03782,0.007442,-1.01211,-0.16562,-0.25424,0.3367
-0.460501,0,0,5.4605,5.4605,4.5395,4.5395,0.322334,0.297442,66.669,-0.00271772,0.000917784,0.000524387,0,0,0,3.605,0.315,-1.2425,-0.03782,0.007442,-1.01211,-0.16562,-0.25424,0.3367
-0.936106,0,0,5.93611,5.93611,4.06389,4.06389,0.327397,0.299884,66.7239,0.00137017,-0.00253552,0.00581045,0,0,0,3.745,0.21,-1.295,-0.033672,0.003904,-1.00687,-0.16562,-0.25424,0.3367
-0.90491,0,0,5.90491,5.90491,4.09509,4.09509,0.331871,0.301984,66.7784,0.00133351,-0.00245744,0.00580981,0,0,0,3.5,0.0525,-1.2075,-0.033672,0.003904,-1.00687,-0.16562,-0.25424,0.3367
-0.456723,0,0,5.45672,5.45672,4.54328,4.54328,0.32968,0.300734,66.8356,-0.000831409,0.00129025,0.00224464,0,0,0,3.5875,0.1575,-1.2425,-0.035868,0.007686,-1.0104,-0.16562,-0.25424,0.3367
-0.438225,0,0,5.43823,5.43823,4.56177,4.56177,0.327277,0.299369,66.8923,-0.000807585,0.0012483,0.002245,0,0,0,3.43,0.07,-1.155,-0.035868,0.007686,-1.0104,-0.16562,-0.25424,0.3367
-0.798745,0,0,5.79875,5.79875,4.20125,4.20125,0.330201,0.304856,66.9447,0.00432054,-0.0011432,0.0101129,0,0,0,3.5,0.175,-1.225,-0.030622,0.005246,-1.0026,-0.16562,-0.25424,0.3367
-0.809818,0,0,5.80982,5.80982,4.19018,4.19018,0.333209,0.310071,66.9962,0.00422952,-0.0010907,0.0101121,0,0,0,3.605,0.0875,-1.33,-0.030622,0.005246,-1.0026,-0.16562,-0.25424,0.3367
-0.454572,0,0,5.45457,5.45457,4.54543,4.54543,0.330949,0.311453,67.0501,0.00153271,0.00131239,-0.00205969,0,0,0,3.325,0.1225,-1.3475,-0.033306,0.007686,-1.01467,-0.16534,-0.25396,0.3374
-0.482547,0,0,5.48255,5.48255,4.51745,4.51745,0.329156,0.312906,67.1036,0.00150736,0.0012811,-0.00205965,0,0,0,3.5525,0.175,-1.1725,-0.033306,0.007686,-1.01467,-0.16534,-0.25396,0.3374
-0.787451,0,0,5.78745,5.78745,4.21255,4.21255,0.331863,0.320714,67.1534,0.00647348,-0.000625685,0.00961943,0,0,0,3.6225,0.1575,-1.1375,-0.028182,0.005734,-1.00308,-0.16534,-0.25396,0.3374
-0.770288,0,0,5.77029,5.77029,4.22971,4.22971,0.334248,0.328594,67.2025,0.00633595,-0.000584075,0.00961841,0,0,0,3.5,0.2975,-1.2075,-0.028182,0.005734,-1.00308,-0.16534,-0.25396,0.3374
-0.381674,0,0,5.38167,5.38167,4.61833,4.61833,0.330893,0.324004,67.256,-0.00366725,0.00179991,-0.000339619,0,0,0,3.745,0.1925,-1.155,-0.038308,0.008174,-1.01297,-0.16534,-0.25396,0.3374
-0.38967,0,0,5.38967,5.38967,4.61033,4.61033,0.327742,0.319432,67.3089,-0.00358747,0.00174492,-0.000338854,0,0,0,3.7975,0.14,-1.225,-0.038308,0.008174,-1.01297,-0.16534,-0.25396,0.3374
-0.680126,0,0,5.68013,5.68013,4.31987,4.31987,0.328916,0.31665,67.3588,-0.00293147,-0.000921379,0.00248911,0,0,0,3.6225,0.3325,-1.3125,-0.037698,0.00549,-1.01016,-0.16534,-0.25396,0.3374
-0.665739,0,0,5.66574,5.66574,4.33426,4.33426,0.329848,0.313767,67.4082,-0.00288117,-0.000905111,0.0024893,0,0,0,3.5,0.245,-1.2075,-0.037698,0.00549,-1.01016,-0.16534,-0.25396,0.3374
-0.988672,0,0,5.98867,5.98867,4.01133,4.01133,0.335471,0.314757,67.4567,1.72149e-05,-0.0032495,0.00101325,0,0,0,3.5875,0.21,-1.2075,-0.03477,0.00305,-1.01162,-0.16548,-0.25788,0.3367
-0.2343,0,0,5.2343,5.2343,4.7657,4.7657,0.329928,0.310078,67.5103,-0.00305974,0.00288222,-0.00132176,0,0,0,3.4825,-0.105,-1.12,-0.037942,0.009272,-1.01394,-0.16548,-0.25788,0.3367
-0.257523,0,0,5.25752,5.25752,4.74248,4.74248,0.324869,0.305758,67.5628,-0.00298435,0.00279393,-0.00132085,0,0,0,3.6575,0.035,-1.3825,-0.037942,0.009272,-1.01394,-0.16548,-0.25788,0.3367
-0.859499,0,0,5.8595,5.8595,4.1405,4.1405,0.328734,0.311109,67.6089,0.00457586,-0.00141305,0.000399537,0,0,0,3.815,-0.0175,-1.54,-0.030256,0.005002,-1.01223,-0.16548,-0.25788,0.3367
-0.840849,0,0,5.84085,5.84085,4.15915,4.15915,0.332225,0.316333,67.6551,0.00448469,-0.00135213,0.000398686,0,0,0,3.675,-0.0175,-1.1725,-0.030256,0.005002,-1.01223,-0.16548,-0.25788,0.3367
-0.684637,0,0,5.68464,5.68464,4.31536,4.31536,0.333342,0.320035,67.7021,0.00320521,1.07528e-05,0.00482436,0,0,0,3.745,0.1225,-1.19,-0.031476,0.006344,-1.00784,-0.16548,-0.25788,0.3367
-0.660093,0,0,5.66009,5.66009,4.33991,4.33991,0.33407,0.3239,67.7483,0.00313776,2.34579e-05,0.00482391,0,0,0,3.5525,0.2625,-1.295,-0.031476,0.006344,-1.00784,-0.16548,-0.25788,0.3367
-0.662477,0,0,5.66248,5.66248,4.33752,4.33752,0.334813,0.327574,67.7939,0.00295215,-8.57029e-05,0.00728244,0,0,0,3.465,0.245,-1.2775,-0.031598,0.006222,-1.0054,-0.16548,-0.25788,0.3367
-0.652382,0,0,5.65238,5.65238,4.34762,4.34762,0.335388,0.331347,67.8443,0.00288631,-7.5664e-05,0.007282,0,0,0,3.395,0.35,-1.2775,-0.031598,0.006222,-1.0054,-0.1624,-0.25942,0.33208
-0.729674,0,0,5.72967,5.72967,4.27033,4.27033,0.337077,0.329212,67.8947,-0.00254329,-0.00138959,0.00347064,0,0,0,3.4125,0.3675,-1.26,-0.037088,0.00488,-1.00918,-0.1624,-0.25942,0.33208
-0.736396,0,0,5.7364,5.7364,4.2636,4.2636,0.338818,0.326902,67.9447,-0.00250298,-0.0013592,0.00347069,0,0,0,3.465,0.245,-1.1725,-0.037088,0.00488,-1.00918,-0.1624,-0.25942,0.33208
-0.799625,0,0,5.79963,5.79963,4.20037,4.20037,0.341436,0.328883,67.9929,0.00147147,-0.00119137,0.00863406,0,0,0,3.6225,0.0875,-1.19,-0.033062,0.005002,-1.00406,-0.1624,-0.25942,0.33208
-0.79023,0,0,5.79023,5.79023,4.20977,4.20977,0.343848,0.330994,68.0405,0.00143464,-0.00114929,0.00863359,0,0,0,3.5525,0.1925,-1.2425,-0.033062,0.005002,-1.00406,-0.1624,-0.25942,0.33208
-0.622035,0,0,5.62204,5.62204,4.37796,4.37796,0.343739,0.330448,68.0889,-0.000499617,7.00762e-05,0.000764956,0,0,0,3.57,0.1575,-1.295,-0.035014,0.006222,-1.01187,-0.1624,-0.25942,0.33208
-0.635041,0,0,5.63504,5.63504,4.36496,4.36496,0.343822,0.329944,68.1367,-0.00049082,7.15232e-05,0.000764998,0,0,0,3.675,0.175,-1.3125,-0.035014,0.006222,-1.01187,-0.1624,-0.25942,0.33208
-0.673571,0,0,5.67357,5.67357,4.32643,4.32643,0.344464,0.329178,68.1838,-0.000963384,-0.000405766,0.00162565,0,0,0,3.5875,0.2625,-1.225,-0.035502,0.005734,-1.01101,-0.1624,-0.25942,0.33208
-0.643318,0,0,5.64332,5.64332,4.35668,4.35668,0.344648,0.328601,68.2234,-0.000953308,-0.000402568,0.00162569,0,0,0,3.3425,0.3675,-1.225,-0.035502,0.005734,-1.01101,-0.16772,-0.25998,0.33614
-0.425745,0,0,5.42575,5.42575,4.57425,4.57425,0.341648,0.324688,68.2644,-0.00307177,0.00137697,-0.00267681,0,0,0,3.5,0.105,-1.3125,-0.037698,0.007564,-1.01528,-0.16772,-0.25998,0.33614
-0.480673,0,0,5.48067,5.48067,4.51933,4.51933,0.339528,0.320835,68.3051,-0.00300452,0.00133998,-0.00267621,0,0,0,3.9375,0.0875,-1.225,-0.037698,0.007564,-1.01528,-0.16772,-0.25998,0.33614
-0.683266,0,0,5.68327,5.68327,4.31673,4.31673,0.340422,0.323682,68.3428,0.00241265,0.000134318,0.00863468,0,0,0,3.7975,0.1575,-1.1375,-0.032208,0.006344,-1.00406,-0.16772,-0.25998,0.33614
-0.650506,0,0,5.65051,5.65051,4.34949,4.34949,0.340813,0.326438,68.3802,0.00236455,0.000141149,0.00863437,0,0,0,3.535,0.14,-1.0675,-0.032208,0.006344,-1.00406,-0.16772,-0.25998,0.33614
-0.610176,0,0,5.61018,5.61018,4.38982,4.38982,0.340605,0.325873,68.4181,-0.000662731,0.000381762,0.00470009,0,0,0,3.7975,0.28,-1.19,-0.035258,0.006588,-1.00796,-0.16772,-0.25998,0.33614
-0.563273,0,0,5.56327,5.56327,4.43673,4.43673,0.339716,0.325292,68.4552,-0.000652595,0.000366249,0.00470024,0,0,0,3.4125,0.2625,-1.3475,-0.035258,0.006588,-1.00796,-0.16772,-0.25998,0.33614
-0.587325,0,0,5.58733,5.58733,4.41267,4.41267,0.339201,0.320525,68.4927,-0.00445693,-0.00025337,-0.0020614,0,0,0,3.5175,0.28,-1.295,-0.039162,0.005978,-1.01467,-0.16772,-0.25998,0.33614
-0.584238,0,0,5.58424,5.58424,4.41576,4.41576,0.338654,0.315553,68.5277,-0.00437016,-0.000262919,-0.00206087,0,0,0,3.4825,0.105,-1.1725,-0.039162,0.005978,-1.01467,-0.16772,-0.25634,0.33908
-0.652639,0,0,5.65264,5.65264,4.34736,4.34736,0.339119,0.31336,68.5613,-0.00202366,-0.000621175,0.00838992,0,0,0,3.3775,0.0875,-1.19,-0.036844,0.005612,-1.0043,-0.16772,-0.25634,0.33908
-0.646684,0,0,5.64668,5.64668,4.35332,4.35332,0.339485,0.31103,68.5944,-0.00198299,-0.000614796,0.0083901,0,0,0,3.325,-0.0175,-1.2425,-0.036844,0.005612,-1.0043,-0.16772,-0.25634,0.33908
-0.379157,0,0,5.37916,5.37916,4.62084,4.62084,0.335932,0.309407,68.6288,-0.000739808,0.00213212,-9.28252e-05,0,0,0,3.605,-0.0175,-1.26,-0.035624,0.008418,-1.01272,-0.16772,-0.25634,0.33908
-0.358746,0,0,5.35875,5.35875,4.64125,4.64125,0.332174,0.307921,68.6628,-0.000713867,0.00206654,-9.23031e-05,0,0,0,3.43,0.035,-1.26,-0.035624,0.008418,-1.01272,-0.16772,-0.25634,0.33908
-0.615979,0,0,5.61598,5.61598,4.38402,4.38402,0.332272,0.308784,68.6943,0.000850381,0.000114212,0.00113709,0,0,0,3.57,0.0875,-1.3825,-0.034038,0.006466,-1.0115,-0.16772,-0.25634,0.33908
-0.590232,0,0,5.59023,5.59023,4.40977,4.40977,0.33199,0.309509,68.7256,0.000837721,0.00010929,0.00113705,0,0,0,3.36,0.0175,-1.2775,-0.034038,0.006466,-1.0115,-0.16772,-0.25634,0.33908
-0.406691,0,0,5.40669,5.40669,4.59331,4.59331,0.329034,0.308952,68.7581,-0.000124437,0.00164535,0.000522659,0,0,0,3.4125,0.1225,-1.2075,-0.035014,0.008052,-1.01211,-0.16772,-0.25634,0.33908
-0.407812,0,0,5.40781,5.40781,4.59219,4.59219,0.326171,0.308093,68.7901,-0.000109447,0.00159539,0.000523025,0,0,0,3.4125,-0.07,-1.2775,-0.035014,0.008052,-1.01211,-0.16744,-0.25564,0.34552
-0.422853,0,0,5.42285,5.42285,4.57715,4.57715,0.323603,0.309457,68.8213,0.00193201,0.00179481,0.00224443,0,0,0,3.5175,-0.105,-1.225,-0.03294,0.008296,-1.0104,-0.16744,-0.25564,0.34552
-0.427195,0,0,5.42719,5.42719,4.57281,4.57281,0.321165,0.311283,68.8521,0.00190014,0.00175226,0.0022445,0,0,0,3.5525,0.175,-1.2775,-0.03294,0.008296,-1.0104,-0.16744,-0.25564,0.34552
-0.623482,0,0,5.62348,5.62348,4.37652,4.37652,0.321657,0.309522,68.882,-0.00159222,-0.000437431,-0.000952046,0,0,0,3.57,0.105,-1.2075,-0.036478,0.0061,-1.01358,-0.16744,-0.25564,0.34552
-0.636628,0,0,5.63663,5.63663,4.36337,4.36337,0.322327,0.307825,68.9115,-0.00156259,-0.000425729,-0.000951952,0,0,0,3.675,0.1225,-1.3125,-0.036478,0.0061,-1.01358,-0.16744,-0.25564,0.34552
-0.921824,0,0,5.92182,5.92182,4.07818,4.07818,0.327145,0.312377,68.9375,0.00358184,-0.00205142,0.00839123,0,0,0,3.815,0.0875,-1.4175,-0.031232,0.004392,-1.0043,-0.16744,-0.25564,0.34552
-0.915911,0,0,5.91591,5.91591,4.08409,4.08409,0.331749,0.317238,68.9634,0.003497,-0.00197108,0.0083903,0,0,0,3.78,0.3325,-1.3825,-0.031232,0.004392,-1.0043,-0.16744,-0.25564,0.34552
-0.615531,0,0,5.61553,5.61553,4.38447,4.38447,0.331844,0.324327,68.9904,0.00628894,0.000961616,0.00728306,0,0,0,3.6925,0.1925,-1.2775,-0.028304,0.00732,-1.0054,-0.16744,-0.25564,0.34552
-0.601058,0,0,5.60106,5.60106,4.39894,4.39894,0.331724,0.331187,69.017,0.00616921,0.000959522,0.00728239,0,0,0,3.5875,0.14,-1.3475,-0.028304,0.00732,-1.0054,-0.16744,-0.25564,0.34552
-0.637108,0,0,5.63711,5.63711,4.36289,4.36289,0.332133,0.333119,69.046,0.00164051,-1.03512e-05,0.00728215,0,0,0,3.5,0.14,-1.2775,-0.032818,0.006344,-1.0054,-0.16632,-0.25648,0.33656
-0.645285,0,0,5.64528,5.64528,4.35472,4.35472,0.33265,0.335131,69.0748,0.00160541,-1.32684e-06,0.00728189,0,0,0,3.57,0.21,-1.155,-0.032818,0.006344,-1.0054,-0.16632,-0.25648,0.33656
-0.54769,0,0,5.54769,5.54769,4.45231,4.45231,0.331728,0.33385,69.1046,-0.00128789,0.000593206,0.000274053,0,0,0,3.6925,0.315,-1.1725,-0.035746,0.006954,-1.01236,-0.16632,-0.25648,0.33656
-0.548167,0,0,5.54817,5.54817,4.45183,4.45183,0.330835,0.332597,69.1341,-0.00126603,0.000577637,0.00027427,0,0,0,3.6925,0.315,-1.1725,-0.035746,0.006954,-1.01236,-0.16632,-0.25648,0.33656
-0.259434,0,0,5.25943,5.25943,4.74057,4.74057,0.325749,0.333872,69.1644,0.00187034,0.0034199,-0.000831887,0,0,0,3.64,0.1225,-1.1725,-0.032574,0.009882,-1.01345,-0.16632,-0.25648,0.33656
-0.259883,0,0,5.25988,5.25988,4.74012,4.74012,0.320802,0.335143,69.1944,0.00184816,0.00333357,-0.000831529,0,0,0,3.64,0.1225,-1.1725,-0.032574,0.009882,-1.01345,-0.16632,-0.25648,0.33656
-0.415779,0,0,5.41578,5.41578,4.58422,4.58422,0.318261,0.338831,69.2224,0.00384905,0.0018237,0.00654525,0,0,0,3.325,-0.035,-1.1375,-0.0305,0.008418,-1.00613,-0.16632,-0.25648,0.33656
-0.415314,0,0,5.41531,5.41531,4.58469,4.58469,0.31578,0.342457,69.2501,0.00378576,0.0017804,0.00654511,0,0,0,3.325,-0.035,-1.1375,-0.0305,0.008418,-1.00613,-0.16632,-0.25648,0.33656
-0.25459,0,0,5.25459,5.25459,4.74541,4.74541,0.311016,0.342766,69.278,0.000986213,0.00328489,0.0016276,0,0,0,3.78,0.105,-1.3125,-0.033306,0.010004,-1.01101,-0.1687,-0.25984,0.34314
-0.985458,0,0,5.98546,5.98546,4.01454,4.01454,0.317051,0.345479,69.3004,0.00178925,-0.003571,-0.000955185,0,0,0,3.3775,0.07,-1.2075,-0.032452,0.00305,-1.01358,-0.1687,-0.25984,0.34314
-0.981831,0,0,5.98183,5.98183,4.01817,4.01817,0.322874,0.348207,69.3223,0.00174165,-0.00346938,-0.00095604,0,0,0,3.36,0.1225,-1.295,-0.032452,0.00305,-1.01358,-0.1687,-0.25984,0.34314
-0.788044,0,0,5.78804,5.78804,4.21196,4.21196,0.325712,0.348923,69.3458,0.000271314,-0.00158794,0.00088783,0,0,0,3.5875,0.1575,-1.295,-0.033916,0.00488,-1.01175,-0.1687,-0.25984,0.34314
-0.783283,0,0,5.78328,5.78328,4.21672,4.21672,0.328406,0.349525,69.369,0.000260815,-0.00154093,0.000887498,0,0,0,3.5525,0.105,-1.26,-0.033916,0.00488,-1.01175,-0.1687,-0.25984,0.34314
-0.693736,0,0,5.69374,5.69374,4.30626,4.30626,0.32972,0.34698,69.3931,-0.00236745,-0.00102948,0.00457609,0,0,0,3.535,0.0525,-1.2075,-0.0366,0.005368,-1.00809,-0.1687,-0.25984,0.34314
-0.68998,0,0,5.68998,5.68998,4.31002,4.31002,0.330945,0.344806,69.4171,-0.00232952,-0.00100811,0.0045762,0,0,0,3.5,0.245,-1.1375,-0.0366,0.005368,-1.00809,-0.1687,-0.25984,0.34314
-0.29682,0,0,5.29682,5.29682,4.70318,4.70318,0.326394,0.344482,69.4428,0.00010586,0.00282051,0.00629797,0,0,0,3.5525,0.2275,-1.2075,-0.03416,0.009272,-1.00638,-0.1687,-0.25984,0.34314
-0.297394,0,0,5.29739,5.29739,4.70261,4.70261,0.32197,0.344181,69.4714,0.000111113,0.00274331,0.00629843,0,0,0,3.5525,0.2275,-1.2075,-0.03416,0.009272,-1.00638,-0.1666,-0.2604,0.34314
-0.381801,0,0,5.3818,5.3818,4.6182,4.6182,0.318894,0.341483,69.4992,-0.00239301,0.00146837,0.00875799,0,0,0,3.395,0.2975,-1.33,-0.036722,0.008052,-1.00394,-0.1666,-0.2604,0.34314
-0.382871,0,0,5.38287,5.38287,4.61713,4.61713,0.315915,0.33885,69.5267,-0.00234705,0.00141637,0.00875855,0,0,0,3.395,0.2975,-1.33,-0.036722,0.008052,-1.00394,-0.1666,-0.2604,0.34314
-0.57219,0,0,5.57219,5.57219,4.42781,4.42781,0.315778,0.337137,69.5528,-0.0018312,-0.000173666,0.00347195,0,0,0,3.465,0.2975,-1.19,-0.036234,0.006466,-1.00918,-0.1666,-0.2604,0.34314
-0.572648,0,0,5.57265,5.57265,4.42735,4.42735,0.315651,0.335457,69.5787,-0.00180188,-0.000175885,0.00347214,0,0,0,3.465,0.2975,-1.19,-0.036234,0.006466,-1.00918,-0.1666,-0.2604,0.34314
-0.495887,0,0,5.49589,5.49589,4.50411,4.50411,0.314405,0.331277,69.6049,-0.00367271,0.00041301,0.00568575,0,0,0,3.5875,0.14,-1.365,-0.038186,0.007076,-1.00699,-0.1666,-0.2604,0.34314
-0.774274,0,0,5.77427,5.77427,4.22573,4.22573,0.317258,0.326575,69.6291,-0.00492699,-0.00210187,0.00802197,0,0,0,3.6575,0.315,-1.4525,-0.039528,0.004514,-1.00467,-0.1666,-0.2604,0.34314
-0.766546,0,0,5.76655,5.76655,4.23345,4.23345,0.319921,0.321623,69.6532,-0.00484056,-0.00205537,0.0080222,0,0,0,3.5875,0.1225,-1.33,-0.039528,0.004514,-1.00467,-0.1666,-0.2604,0.34314
-0.599691,0,0,5.59969,5.59969,4.40031,4.40031,0.320077,0.319306,69.6767,-0.00212743,-9.86198e-05,0.00630113,0,0,0,3.71,0.14,-1.225,-0.036844,0.006466,-1.00638,-0.16576,-0.25634,0.3451
-0.583123,0,0,5.58312,5.58312,4.41688,4.41688,0.319987,0.317152,69.6999,-0.00208984,-0.000100202,0.00630135,0,0,0,3.57,0.21,-1.2775,-0.036844,0.006466,-1.00638,-0.16576,-0.25634,0.3451
-0.454533,0,0,5.45453,5.45453,4.54547,4.54547,0.31802,0.310864,69.7241,-0.00538169,0.000598229,0.00470381,0,0,0,3.5525,0.0525,-1.3475,-0.04026,0.007198,-1.00796,-0.16576,-0.25634,0.3451
-0.456266,0,0,5.45627,5.45627,4.54373,4.54373,0.316129,0.304705,69.7481,-0.00527419,0.000565232,0.00470457,0,0,0,3.5525,0.0525,-1.3475,-0.04026,0.007198,-1.00796,-0.16576,-0.25634,0.3451
-0.699903,0,0,5.6999,5.6999,4.3001,4.3001,0.317845,0.306815,69.7689,0.00161365,-0.000748203,0.00470421,0,0,0,3.57,0.1925,-1.365,-0.033306,0.005856,-1.00796,-0.16576,-0.25634,0.3451
-0.545921,0,0,5.54592,5.54592,4.45408,4.45408,0.317267,0.306171,69.7908,-0.000804818,0.00021872,0.00372074,0,0,0,3.465,0.2975,-1.33,-0.035746,0.006832,-1.00894,-0.16576,-0.25634,0.3451
-0.533415,0,0,5.53341,5.53341,4.46659,4.46659,0.316521,0.305182,69.8127,-0.00078756,0.000205695,0.0037209,0,0,0,3.36,0.0875,-1.2425,-0.035746,0.006832,-1.00894,-0.16576,-0.25634,0.3451
-0.780048,0,0,5.78005,5.78005,4.21995,4.21995,0.319396,0.308596,69.832,0.00279743,-0.00145391,0.00519569,0,0,0,3.43,0.0875,-1.2775,-0.032086,0.005124,-1.00748,-0.16576,-0.25634,0.3451
-0.790261,0,0,5.79026,5.79026,4.20974,4.20974,0.322343,0.311995,69.8515,0.0027381,-0.00140246,0.00519508,0,0,0,3.5175,0.1225,-1.225,-0.032086,0.005124,-1.00748,-0.16674,-0.25928,0.343
-0.667395,0,0,5.6674,5.6674,4.3326,4.3326,0.323418,0.311515,69.8723,-0.000776602,-0.000773069,0.00384258,0,0,0,3.465,0.245,-1.1725,-0.035624,0.005734,-1.00882,-0.16674,-0.25928,0.343
-0.688704,0,0,5.6887,5.6887,4.3113,4.3113,0.324776,0.310772,69.8927,-0.000763638,-0.000749381,0.00384252,0,0,0,3.64,0.0875,-1.295,-0.035624,0.005734,-1.00882,-0.16674,-0.25928,0.343
-0.699458,0,0,5.69946,5.69946,4.30054,4.30054,0.326253,0.315305,69.9118,0.00425965,-0.000235083,0.00261246,0,0,0,3.6225,-0.035,-1.3125,-0.0305,0.006222,-1.01004,-0.16674,-0.25928,0.343
-0.698393,0,0,5.69839,5.69839,4.30161,4.30161,0.327676,0.319623,69.9309,0.00418429,-0.000210254,0.0026119,0,0,0,3.6225,-0.105,-1.1375,-0.0305,0.006222,-1.01004,-0.16674,-0.25928,0.343
-0.796389,0,0,5.79639,5.79639,4.20361,4.20361,0.330492,0.317306,69.9502,-0.00209252,-0.00187088,0.00851337,0,0,0,3.535,-0.1225,-1.155,-0.036844,0.004514,-1.00418,-0.16674,-0.25928,0.343
-0.777342,0,0,5.77734,5.77734,4.22266,4.22266,0.332955,0.31568,69.9692,-0.00206415,-0.0018279,0.00851328,0,0,0,3.3775,0.2625,-1.225,-0.036844,0.004514,-1.00418,-0.16674,-0.25928,0.343
-0.408734,0,0,5.40873,5.40873,4.59127,4.59127,0.329969,0.316965,69.99,0.001558,0.00190591,0.00384141,0,0,0,3.4125,0.105,-1.0675,-0.033184,0.008296,-1.00882,-0.16674,-0.25928,0.343
-0.427094,0,0,5.42709,5.42709,4.57291,4.57291,0.327329,0.31817,70.0149,0.00153696,0.00185983,0.00384156,0,0,0,3.57,0.07,-1.015,-0.033184,0.008296,-1.00882,-0.16394,-0.26026,0.3346
-0.538553,0,0,5.53855,5.53855,4.46145,4.46145,0.326385,0.31941,70.0385,0.00115087,0.000866349,0.00666935,0,0,0,3.6225,0.1925,-1.2425,-0.03355,0.00732,-1.00601,-0.16394,-0.26026,0.3346
-0.53197,0,0,5.53197,5.53197,4.46803,4.46803,0.325369,0.320839,70.0617,0.00112593,0.000848621,0.00666931,0,0,0,3.57,0.315,-1.3475,-0.03355,0.00732,-1.00601,-0.16394,-0.26026,0.3346
-0.461169,0,0,5.46117,5.46117,4.53883,4.53883,0.323345,0.325434,70.0847,0.00432584,0.00179031,0.000398683,0,0,0,3.5525,0.245,-1.2075,-0.030256,0.008296,-1.01223,-0.16394,-0.26026,0.3346
-0.481789,0,0,5.48179,5.48179,4.51821,4.51821,0.321675,0.330068,70.1074,0.00424496,0.00176116,0.000398384,0,0,0,3.7275,0.315,-1.2425,-0.030256,0.008296,-1.01223,-0.16394,-0.26026,0.3346
-0.583975,0,0,5.58397,5.58397,4.41603,4.41603,0.321541,0.331172,70.1297,0.000702614,0.000415418,0.00531623,0,0,0,3.71,0.35,-1.26,-0.033794,0.006954,-1.00735,-0.16394,-0.26026,0.3346
-0.59231,0,0,5.59231,5.59231,4.40769,4.40769,0.321531,0.331747,70.1516,0.000692571,0.000415245,0.00531617,0,0,0,3.78,0.0525,-1.295,-0.033794,0.006954,-1.00735,-0.16394,-0.26026,0.3346
-0.691455,0,0,5.69145,5.69145,4.30855,4.30855,0.322969,0.330015,70.1731,-0.00170691,-0.000903055,0.00752928,0,0,0,3.6225,0.0875,-1.225,-0.036234,0.005612,-1.00516,-0.16394,-0.26026,0.3346
-0.660794,0,0,5.66079,5.66079,4.33921,4.33921,0.32392,0.328336,70.187,-0.00167761,-0.00088645,0.00752935,0,0,0,3.3775,0.105,-1.3125,-0.036234,0.005612,-1.00516,-0.16772,-0.25648,0.33572
-0.712912,0,0,5.71291,5.71291,4.28709,4.28709,0.325607,0.334951,70.199,0.00586054,-0.000368505,0.00998748,0,0,0,3.3775,0.07,-1.2775,-0.028548,0.0061,-1.00272,-0.16772,-0.25648,0.33572
-0.711206,0,0,5.71121,5.71121,4.28879,4.28879,0.327224,0.341672,70.2109,0.00574324,-0.00034029,0.00998663,0,0,0,3.3775,0.21,-1.2775,-0.028548,0.0061,-1.00272,-0.16772,-0.25648,0.33572
-0.861946,0,0,5.86195,5.86195,4.13805,4.13805,0.330999,0.344176,70.2228,0.001812,-0.00198418,0.00211729,0,0,0,3.57,0.1575,-1.1375,-0.032452,0.004392,-1.01053,-0.16772,-0.25648,0.33572
-0.856635,0,0,5.85663,5.85663,4.14337,4.14337,0.334597,0.346767,70.2344,0.00176677,-0.00192139,0.00211665,0,0,0,3.535,0.245,-1.19,-0.032452,0.004392,-1.01053,-0.16772,-0.25648,0.33572
-0.676684,0,0,5.67668,5.67668,4.32332,4.32332,0.335471,0.351131,70.2467,0.00387736,-7.42319e-05,0.00100956,0,0,0,3.4825,0.1575,-1.19,-0.030256,0.006222,-1.01162,-0.16772,-0.25648,0.33572
-0.679905,0,0,5.6799,5.6799,4.3201,4.3201,0.336369,0.355168,70.2589,0.0038069,-5.85711e-05,0.00100903,0,0,0,3.5175,0.0175,-1.155,-0.030256,0.006222,-1.01162,-0.16772,-0.25648,0.33572
-0.681269,0,0,5.68127,5.68127,4.31873,4.31873,0.337262,0.355947,70.2711,0.000634671,-0.000531492,-0.00169601,0,0,0,3.465,0.1225,-1.295,-0.033428,0.005734,-1.01431,-0.16772,-0.25648,0.33572
-0.674175,0,0,5.67417,5.67417,4.32583,4.32583,0.338027,0.356975,70.2899,0.000616737,-0.000518137,-0.0016962,0,0,0,3.4125,0.28,-1.295,-0.033428,0.005734,-1.01431,-0.16338,-0.25774,0.34314
-0.69866,0,0,5.69866,5.69866,4.30134,4.30134,0.339129,0.355199,70.3091,-0.00178199,-0.000865284,0.0049431,0,0,0,3.5,0.1225,-1.1025,-0.035868,0.005368,-1.00772,-0.16338,-0.25774,0.34314
-0.698986,0,0,5.69899,5.69899,4.30101,4.30101,0.340206,0.353453,70.3281,-0.00175151,-0.000846485,0.00494318,0,0,0,3.5,0.1225,-1.1025,-0.035868,0.005368,-1.00772,-0.16338,-0.25774,0.34314
-0.338096,0,0,5.3381,5.3381,4.6619,4.6619,0.335983,0.351462,70.3487,-0.000866366,0.00225511,0.00445203,0,0,0,3.3075,-0.1925,-1.225,-0.035014,0.00854,-1.00821,-0.16338,-0.25774,0.34314
-0.339056,0,0,5.33906,5.33906,4.66094,4.66094,0.331884,0.349525,70.3691,-0.000832552,0.00218358,0.00445265,0,0,0,3.3075,-0.1925,-1.225,-0.035014,0.00854,-1.00821,-0.16338,-0.25774,0.34314
-0.537901,0,0,5.5379,5.5379,4.4621,4.4621,0.330797,0.350301,70.3879,0.00121915,0.000699075,-0.00267833,0,0,0,3.43,-0.0875,-1.1025,-0.03294,0.007076,-1.01528,-0.16338,-0.25774,0.34314
-0.537894,0,0,5.53789,5.53789,4.46211,4.46211,0.329737,0.351067,70.4065,0.00120579,0.000680581,-0.00267831,0,0,0,3.43,-0.0875,-1.1025,-0.03294,0.007076,-1.01528,-0.16338,-0.25774,0.34314
-0.478647,0,0,5.47865,5.47865,4.52135,4.52135,0.327839,0.350628,70.4254,-0.000122889,0.00101384,0.00445294,0,0,0,3.3775,0.07,-1.1375,-0.034282,0.007442,-1.00821,-0.16338,-0.25774,0.34314
-0.543514,0,0,5.54351,5.54351,4.45649,4.45649,0.326938,0.344947,70.4462,-0.00536911,-0.000345282,0.00347005,0,0,0,3.2725,0.2275,-1.085,-0.03965,0.0061,-1.00918,-0.16338,-0.26054,0.33894
-0.585264,0,0,5.58526,5.58526,4.41474,4.41474,0.326669,0.346975,70.4649,0.00176315,0.000138538,0.00211743,0,0,0,3.29,0.1925,-1.225,-0.032452,0.006588,-1.01053,-0.16338,-0.26054,0.33894
-0.610542,0,0,5.61054,5.61054,4.38946,4.38946,0.326776,0.348845,70.4834,0.00173051,0.000140405,0.00211722,0,0,0,3.5,0.1225,-1.2075,-0.032452,0.006588,-1.01053,-0.16338,-0.26054,0.33894
-0.541541,0,0,5.54154,5.54154,4.45846,4.45846,0.325872,0.34894,70.5024,0.000149543,0.00061313,0.00715819,0,0,0,3.5175,0.14,-1.26,-0.034038,0.007076,-1.00552,-0.16338,-0.26054,0.33894
-0.537305,0,0,5.5373,5.5373,4.4627,4.4627,0.324929,0.349336,70.5209,0.00014263,0.00059667,0.00715824,0,0,0,3.4825,0.315,-1.4,-0.034038,0.007076,-1.00552,-0.16338,-0.26054,0.33894
-0.773474,0,0,5.77347,5.77347,4.22653,4.22653,0.327459,0.347075,70.5383,-0.00261208,-0.0018017,0.00629759,0,0,0,3.5175,0.245,-1.365,-0.036844,0.004636,-1.00638,-0.16338,-0.26054,0.33894
-0.758892,0,0,5.75889,5.75889,4.24111,4.24111,0.32971,0.344577,70.5557,-0.00256848,-0.00176243,0.00629762,0,0,0,3.395,0.0875,-1.19,-0.036844,0.004636,-1.00638,-0.16338,-0.26054,0.33894
-0.752574,0,0,5.75257,5.75257,4.24743,4.24743,0.331808,0.346371,70.5724,0.00140923,-0.00123731,0.000518645,0,0,0,3.395,0.1225,-1.12,-0.032818,0.005124,-1.01211,-0.16338,-0.26054,0.33894
-0.767238,0,0,5.76724,5.76724,4.23276,4.23276,0.334064,0.348546,70.5829,0.00137128,-0.00119793,0.000518186,0,0,0,3.5175,0.3675,-1.33,-0.032818,0.005124,-1.01211,-0.16702,-0.25928,0.33754
-0.770532,0,0,5.77053,5.77053,4.22947,4.22947,0.336308,0.34626,70.5941,-0.00259786,-0.00140301,0.00383781,0,0,0,3.745,0.28,-1.3825,-0.036844,0.00488,-1.00882,-0.16702,-0.25928,0.33754
-0.790206,0,0,5.79021,5.79021,4.20979,4.20979,0.33878,0.34353,70.6054,-0.00255021,-0.00135987,0.00383784,0,0,0,3.9025,0,-1.2075,-0.036844,0.00488,-1.00882,-0.16702,-0.25928,0.33754
-0.723376,0,0,5.72338,5.72338,4.27662,4.27662,0.34021,0.343097,70.6166,-0.000234425,-0.000602149,0.00310005,0,0,0,3.7625,-0.0525,-1.225,-0.034526,0.005612,-1.00955,-0.16702,-0.25928,0.33754
-0.70212,0,0,5.70212,5.70212,4.29788,4.29788,0.341292,0.342725,70.6278,-0.000227934,-0.000583276,0.00309997,0,0,0,3.5875,-0.0175,-1.05,-0.034526,0.005612,-1.00955,-0.16702,-0.25928,0.33754
-1.15265,0,0,6.15265,6.15265,3.84735,3.84735,0.348924,0.346482,70.6355,0.00274364,-0.00411388,0.00555775,0,0,0,3.64,0.0175,-1.1025,-0.031476,0.001952,-1.00711,-0.16702,-0.25928,0.33754
-1.11245,0,0,6.11245,6.11245,3.88755,3.88755,0.355768,0.35023,70.6429,0.00267823,-0.00399444,0.00555661,0,0,0,3.325,0.07,-1.1725,-0.031476,0.001952,-1.00711,-0.16702,-0.25928,0.33754
-1.19954,0,0,6.19954,6.19954,3.80046,3.80046,0.363703,0.341014,70.6516,-0.00943099,-0.00605422,0.00137647,0,0,0,3.465,0.0525,-1.3125,-0.043798,-0.000244,-1.01126,-0.16702,-0.25928,0.33754
-1.20354,0,0,6.20354,6.20354,3.79646,3.79646,0.371487,0.331959,70.6632,-0.00927295,-0.00591836,0.00137652,0,0,0,3.465,0.0525,-1.3125,-0.043798,-0.000244,-1.01126,-0.16632,-0.26306,0.33642
-1.02336,0,0,6.02336,6.02336,3.97664,3.97664,0.376434,0.32524,70.6756,-0.00684745,-0.00363374,0.00986008,0,0,0,3.6225,0.14,-1.2775,-0.04148,0.001952,-1.00284,-0.16632,-0.26306,0.33642
-1.0244,0,0,6.0244,6.0244,3.9756,3.9756,0.381265,0.31863,70.688,-0.00673209,-0.00354942,0.00986017,0,0,0,3.6225,0.14,-1.2775,-0.04148,0.001952,-1.00284,-0.16632,-0.26306,0.33642
-0.390095,0,0,5.39009,5.39009,4.60991,4.60991,0.376704,0.319447,70.7032,0.00163617,0.00321008,0.0118278,0,0,0,3.675,-0.0875,-1.1025,-0.033062,0.008784,-1.00089,-0.16632,-0.26306,0.33642
-0.390467,0,0,5.39047,5.39047,4.60953,4.60953,0.372268,0.320265,70.7183,0.00162189,0.00313265,0.0118282,0,0,0,3.675,-0.0875,-1.1025,-0.033062,0.008784,-1.00089,-0.16632,-0.26306,0.33642
-0.613386,0,0,5.61339,5.61339,4.38661,4.38661,0.371203,0.321518,70.7315,0.00123557,0.000915786,-0.00390919,0,0,0,3.64,0.21,-1.3125,-0.033428,0.006588,-1.0165,-0.16632,-0.26306,0.33642
-0.436123,0,0,5.43612,5.43612,4.56388,4.56388,0.367576,0.319055,70.7461,-0.00200156,0.00182951,-0.000465985,0,0,0,3.395,0.21,-1.225,-0.036722,0.007564,-1.01309,-0.16632,-0.26306,0.33642
-0.432858,0,0,5.43286,5.43286,4.56714,4.56714,0.363997,0.316503,70.7605,-0.00195703,0.00176703,-0.000465339,0,0,0,3.36,0.1225,-1.26,-0.036722,0.007564,-1.01309,-0.16632,-0.26306,0.33642
-0.561545,0,0,5.56155,5.56155,4.43845,4.43845,0.36239,0.315243,70.7747,-0.000720175,0.000884101,-0.00218632,0,0,0,3.5175,-0.0175,-1.1725,-0.035502,0.00671,-1.0148,-0.16548,-0.26222,0.34006
-0.566315,0,0,5.56632,5.56632,4.43368,4.43368,0.360894,0.314132,70.7887,-0.000700789,0.000857997,-0.00218605,0,0,0,3.5525,0.0525,-1.2075,-0.035502,0.00671,-1.0148,-0.16548,-0.26222,0.34006
-1.38363,0,0,6.38363,6.38363,3.61637,3.61637,0.371374,0.31655,70.7967,0.000957808,-0.00604245,0.011091,0,0,0,3.605,0.1225,-1.33,-0.033794,-0.000366,-1.00162,-0.16548,-0.26222,0.34006
-0.0297854,0,0,5.02979,5.02979,4.97021,4.97021,0.361804,0.313242,70.8141,-0.00177863,0.00588108,0.00752687,0,0,0,3.7275,0.0525,-1.3125,-0.0366,0.011712,-1.00516,-0.16548,-0.26222,0.34006
-0.0230889,0,0,5.02309,5.02309,4.97691,4.97691,0.352387,0.310091,70.8313,-0.00172364,0.00571673,0.00752819,0,0,0,3.6575,0.0875,-1.295,-0.0366,0.011712,-1.00516,-0.16548,-0.26222,0.34006
-0.992781,0,0,5.99278,5.99278,4.00722,4.00722,0.35738,0.314571,70.8412,0.00342207,-0.002745,-0.00513647,0,0,0,3.465,0.2625,-1.1725,-0.031354,0.003172,-1.01772,-0.16548,-0.26222,0.34006
-0.989178,0,0,5.98918,5.98918,4.01082,4.01082,0.362188,0.318888,70.851,0.00334673,-0.00266109,-0.00513741,0,0,0,3.4475,0.2275,-1.12,-0.031354,0.003172,-1.01772,-0.16548,-0.26222,0.34006
-0.683485,0,0,5.68348,5.68348,4.31652,4.31652,0.362404,0.317408,70.8633,-0.00160836,-0.000581165,-0.00550614,0,0,0,3.325,0.245,-1.1725,-0.036356,0.005246,-1.01809,-0.16548,-0.26222,0.34006
-0.693801,0,0,5.6938,5.6938,4.3062,4.3062,0.362765,0.316073,70.8695,-0.00158506,-0.000574875,-0.00550605,0,0,0,3.4125,0.315,-1.3125,-0.036356,0.005246,-1.01809,-0.16758,-0.25718,0.33208
-0.47916,0,0,5.47916,5.47916,4.52084,4.52084,0.35998,0.315007,70.8771,-0.000959032,0.0015748,0.00113358,0,0,0,3.5,0.315,-1.26,-0.035746,0.007442,-1.0115,-0.16758,-0.25718,0.33208
-0.484104,0,0,5.4841,5.4841,4.5159,4.5159,0.35734,0.31403,70.8848,-0.000941978,0.00152872,0.00113396,0,0,0,3.535,0.35,-1.155,-0.035746,0.007442,-1.0115,-0.16758,-0.25718,0.33208
-0.918543,0,0,5.91854,5.91854,4.08146,4.08146,0.361113,0.319267,70.8887,0.00431199,-0.00158072,0.00740342,0,0,0,3.6225,0.1925,-1.155,-0.030378,0.00427,-1.00528,-0.16758,-0.25718,0.33208
-0.910579,0,0,5.91058,5.91058,4.08942,4.08942,0.364671,0.324213,70.8926,0.00422567,-0.00151863,0.00740254,0,0,0,3.57,0.0875,-1.1375,-0.030378,0.00427,-1.00528,-0.16758,-0.25718,0.33208
-0.942364,0,0,5.94236,5.94236,4.05764,4.05764,0.368598,0.328261,70.8964,0.00330462,-0.00181648,0.0119508,0,0,0,3.57,0.0875,-1.1725,-0.031232,0.003904,-1.00077,-0.16758,-0.25718,0.33208
-0.958093,0,0,5.95809,5.95809,4.04191,4.04191,0.372651,0.332429,70.8999,0.00323188,-0.00174575,0.0119499,0,0,0,3.71,0.21,-1.2775,-0.031232,0.003904,-1.00077,-0.16758,-0.25718,0.33208
-1.01433,0,0,6.01433,6.01433,3.98567,3.98567,0.377418,0.335314,70.9033,0.00196667,-0.00251744,0.00174435,0,0,0,3.64,0.245,-1.19,-0.032452,0.00305,-1.01089,-0.16758,-0.25718,0.33208
-1.01759,0,0,6.01759,6.01759,3.98241,3.98241,0.382106,0.338278,70.9061,0.00191493,-0.00243562,0.0017435,0,0,0,3.675,0.3325,-1.2775,-0.032452,0.00305,-1.01089,-0.168,-0.25746,0.33152
-0.385363,0,0,5.38536,5.38536,4.61464,4.61464,0.377436,0.338373,70.9132,0.000455451,0.00310071,0.00408006,0,0,0,3.6575,0.2625,-1.26,-0.033916,0.008662,-1.00857,-0.168,-0.25746,0.33152
-0.364498,0,0,5.3645,5.3645,4.6355,4.6355,0.372583,0.338273,70.9202,0.000457189,0.00301602,0.00408062,0,0,0,3.4825,0.14,-1.2775,-0.033916,0.008662,-1.00857,-0.168,-0.25746,0.33152
-0.0816033,0,0,5.0816,5.0816,4.9184,4.9184,0.363726,0.339616,70.9286,0.00237753,0.00554822,0.00358968,0,0,0,3.3425,0.07,-1.3125,-0.031964,0.011346,-1.00906,-0.168,-0.25746,0.33152
-0.103636,0,0,5.10364,5.10364,4.89636,4.89636,0.355422,0.340785,70.9369,0.00235712,0.00540329,0.00359047,0,0,0,3.5175,-0.035,-1.2775,-0.031964,0.011346,-1.00906,-0.168,-0.25746,0.33152
-0.37243,0,0,5.37243,5.37243,4.62757,4.62757,0.351262,0.343073,70.9432,0.00292462,0.00276602,0.00395953,0,0,0,3.36,-0.07,-1.2075,-0.031354,0.008784,-1.0087,-0.168,-0.25746,0.33152
-0.389441,0,0,5.38944,5.38944,4.61056,4.61056,0.347458,0.345721,70.9494,0.00287841,0.00269964,0.00395965,0,0,0,3.5,0.1575,-1.2425,-0.031354,0.008784,-1.0087,-0.168,-0.25746,0.33152
-0.620663,0,0,5.62066,5.62066,4.37934,4.37934,0.347131,0.34726,70.9544,0.00163669,0.000495653,0.00703324,0,0,0,3.5525,0.0175,-1.1725,-0.032574,0.006588,-1.00565,-0.168,-0.25746,0.33152
-0.630383,0,0,5.63038,5.63038,4.36962,4.36962,0.346954,0.349186,70.9646,0.00160307,0.000492561,0.00703305,0,0,0,3.64,0.2625,-1.2425,-0.032574,0.006588,-1.00565,-0.16296,-0.25508,0.33334
-0.871686,0,0,5.87169,5.87169,4.12831,4.12831,0.350305,0.353177,70.9727,0.00335571,-0.00176936,2.42041e-05,0,0,0,3.4125,0.1225,-1.2075,-0.030744,0.00427,-1.0126,-0.16296,-0.25508,0.33334
-0.870533,0,0,5.87053,5.87053,4.12947,4.12947,0.353551,0.357081,70.9807,0.00328757,-0.00171273,2.34338e-05,0,0,0,3.4125,0.1225,-1.2075,-0.030744,0.00427,-1.0126,-0.16296,-0.25508,0.33334
-0.220636,0,0,5.22064,5.22064,4.77936,4.77936,0.347218,0.353863,70.994,-0.00212313,0.00391671,-0.00206567,0,0,0,3.7625,0.0875,-1.225,-0.036234,0.010004,-1.01467,-0.16296,-0.25508,0.33334
-0.221993,0,0,5.22199,5.22199,4.77801,4.77801,0.341071,0.350729,71.0072,-0.00206843,0.00380943,-0.00206469,0,0,0,3.7625,0.0875,-1.225,-0.036234,0.010004,-1.01467,-0.16296,-0.25508,0.33334
-0.544554,0,0,5.54455,5.54455,4.45545,4.45545,0.339796,0.353993,71.0172,0.00334145,0.00134463,-0.00526156,0,0,0,3.675,0.1225,-1.2425,-0.030744,0.007564,-1.01785,-0.16296,-0.25508,0.33334
-0.543985,0,0,5.54398,5.54398,4.45602,4.45602,0.338545,0.357202,71.027,0.00328546,0.0013228,-0.00526178,0,0,0,3.675,0.1225,-1.2425,-0.030744,0.007564,-1.01785,-0.16296,-0.25508,0.33334
-0.461985,0,0,5.46199,5.46199,4.53801,4.53801,0.336129,0.352371,71.038,-0.00440532,0.000914257,0.00371423,0,0,0,3.465,0.21,-1.4525,-0.038552,0.007198,-1.00894,-0.16296,-0.25508,0.33334
-0.341724,0,0,5.34172,5.34172,4.65828,4.65828,0.332019,0.347175,71.0497,-0.00455759,0.00181955,-0.000833895,0,0,0,3.3775,0.21,-1.365,-0.038796,0.008174,-1.01345,-0.16296,-0.25508,0.33334
-0.358372,0,0,5.35837,5.35837,4.64163,4.64163,0.328259,0.341688,71.0552,-0.00446183,0.00175394,-0.000832941,0,0,0,3.5175,-0.0175,-1.0675,-0.038796,0.008174,-1.01345,-0.1694,-0.2583,0.3353
-0.660806,0,0,5.66081,5.66081,4.33919,4.33919,0.329015,0.337621,71.0582,-0.00378343,-0.000919657,0.00027394,0,0,0,3.535,0.0525,-1.225,-0.038186,0.00549,-1.01236,-0.1694,-0.2583,0.3353
-0.67027,0,0,5.67027,5.67027,4.32973,4.32973,0.329889,0.333419,71.0611,-0.00371009,-0.000904408,0.000274282,0,0,0,3.605,-0.07,-1.2425,-0.038186,0.00549,-1.01236,-0.1694,-0.2583,0.3353
-0.637998,0,0,5.638,5.638,4.362,4.362,0.330267,0.332808,71.0637,-0.00029783,-0.000287168,0.00605289,0,0,0,3.465,-0.0875,-1.225,-0.03477,0.0061,-1.00662,-0.1694,-0.2583,0.3353
-0.625332,0,0,5.62533,5.62533,4.37467,4.37467,0.33045,0.332416,71.0662,-0.000290993,-0.000283976,0.00605291,0,0,0,3.36,0.035,-1.225,-0.03477,0.0061,-1.00662,-0.1694,-0.2583,0.3353
-0.683981,0,0,5.68398,5.68398,4.31602,4.31602,0.331484,0.328374,71.0685,-0.003865,-0.00136507,0.00494667,0,0,0,3.2725,0.0525,-1.3475,-0.03843,0.005002,-1.00772,-0.1694,-0.2583,0.3353
-0.685015,0,0,5.68502,5.68502,4.31498,4.31498,0.332505,0.324162,71.0712,-0.0037915,-0.00134725,0.00494699,0,0,0,3.2725,-0.0875,-1.1375,-0.03843,0.005002,-1.00772,-0.1694,-0.2583,0.3353
-0.636989,0,0,5.63699,5.63699,4.36301,4.36301,0.332797,0.320274,71.0742,-0.00335918,-0.000853639,0.00089004,0,0,0,3.29,-0.105,-1.155,-0.038064,0.00549,-1.01175,-0.1694,-0.2583,0.3353
-0.632628,0,0,5.63263,5.63263,4.36737,4.36737,0.333017,0.316542,71.0728,-0.00329405,-0.000849798,0.00089038,0,0,0,3.255,-0.0525,-1.1375,-0.038064,0.00549,-1.01175,-0.17164,-0.25634,0.3283
-0.672727,0,0,5.67273,5.67273,4.32727,4.32727,0.333816,0.31902,71.0703,0.00225104,-0.000591599,0.00298018,0,0,0,3.15,0.07,-1.1375,-0.032452,0.005734,-1.00967,-0.17164,-0.25634,0.3283
-0.708397,0,0,5.7084,5.7084,4.2916,4.2916,0.335115,0.321748,71.0677,0.00220344,-0.00056894,0.00297978,0,0,0,3.4475,0.245,-1.19,-0.032452,0.005734,-1.00967,-0.17164,-0.25634,0.3283
-0.987727,0,0,5.98773,5.98773,4.01227,4.01227,0.340458,0.323143,71.0633,0.000356806,-0.00340673,0.00961832,0,0,0,3.29,0.2625,-1.225,-0.034282,0.002806,-1.00308,-0.17164,-0.25634,0.3283
-0.995423,0,0,5.99542,5.99542,4.00458,4.00458,0.345772,0.324374,71.0589,0.000335307,-0.00331398,0.00961764,0,0,0,3.36,0.1925,-1.3125,-0.034282,0.002806,-1.00308,-0.17164,-0.25634,0.3283
-0.892393,0,0,5.89239,5.89239,4.10761,4.10761,0.349442,0.321843,71.0556,-0.00265765,-0.00300568,-0.00021838,0,0,0,3.1675,-0.0175,-1.2425,-0.037332,0.00305,-1.01284,-0.17164,-0.25634,0.3283
-0.899122,0,0,5.89912,5.89912,4.10088,4.10088,0.353112,0.319167,71.0525,-0.00261095,-0.00294163,-0.000218511,0,0,0,3.22,-0.1225,-1.225,-0.037332,0.00305,-1.01284,-0.17164,-0.25634,0.3283
-0.674115,0,0,5.67411,5.67411,4.32589,4.32589,0.353398,0.323725,71.0497,0.00447716,0.000238666,0.00162524,0,0,0,3.36,-0.0175,-1.295,-0.030134,0.006222,-1.01101,-0.17164,-0.25634,0.3283
-0.671589,0,0,5.67159,5.67159,4.32841,4.32841,0.35364,0.328189,71.0523,0.00439924,0.000242876,0.00162477,0,0,0,3.36,-0.0175,-1.295,-0.030134,0.006222,-1.01101,-0.16842,-0.25844,0.3283
-0.22844,0,0,5.22844,5.22844,4.77156,4.77156,0.347402,0.32627,71.0589,-0.000912639,0.00355355,-0.00181693,0,0,0,3.36,0.035,-1.1725,-0.035502,0.009638,-1.01443,-0.16842,-0.25844,0.3283
-0.250826,0,0,5.25083,5.25083,4.74917,4.74917,0.341654,0.32438,71.0653,-0.000879649,0.00345324,-0.00181614,0,0,0,3.535,0.0175,-1.26,-0.035502,0.009638,-1.01443,-0.16842,-0.25844,0.3283
-0.495936,0,0,5.49594,5.49594,4.50406,4.50406,0.339636,0.322477,71.0699,-0.00169683,0.000975488,0.00740539,0,0,0,3.43,0.1925,-1.3475,-0.036356,0.007198,-1.00528,-0.16842,-0.25844,0.3283
-0.511565,0,0,5.51157,5.51157,4.48843,4.48843,0.337899,0.320676,71.0744,-0.00166541,0.000945173,0.00740575,0,0,0,3.5525,0.2275,-1.365,-0.036356,0.007198,-1.00528,-0.16842,-0.25844,0.3283
-0.54977,0,0,5.54977,5.54977,4.45023,4.45023,0.336765,0.319683,71.0786,-0.000676184,0.000681126,0.00408635,0,0,0,3.5525,0.0525,-1.2775,-0.03538,0.006954,-1.00857,-0.16842,-0.25844,0.3283
-0.528843,0,0,5.52884,5.52884,4.47116,4.47116,0.335354,0.318651,71.0829,-0.00065818,0.000656506,0.0040866,0,0,0,3.3775,0.0175,-1.19,-0.03538,0.006954,-1.00857,-0.16842,-0.25844,0.3283
-0.771352,0,0,5.77135,5.77135,4.22865,4.22865,0.337522,0.32249,71.0849,0.00328385,-0.00125969,0.00224177,0,0,0,3.2025,0.14,-1.155,-0.031354,0.005002,-1.0104,-0.16842,-0.25844,0.3283
-0.770438,0,0,5.77044,5.77044,4.22956,4.22956,0.339618,0.326251,71.0853,0.00321822,-0.0012231,0.00224119,0,0,0,3.2025,0.14,-1.155,-0.031354,0.005002,-1.0104,-0.16996,-0.25914,0.3311
-0.633857,0,0,5.63386,5.63386,4.36614,4.36614,0.339664,0.330667,71.0863,0.00411302,0.000365342,0.00101125,0,0,0,3.395,0.1575,-1.2775,-0.030378,0.006588,-1.01162,-0.16996,-0.25914,0.3311
-0.632868,0,0,5.63287,5.63287,4.36713,4.36713,0.339694,0.335002,71.0874,0.00403737,0.000365854,0.00101081,0,0,0,3.395,0.1575,-1.2775,-0.030378,0.006588,-1.01162,-0.16996,-0.25914,0.3311
-0.750033,0,0,5.75003,5.75003,4.24997,4.24997,0.341433,0.339212,71.0877,0.00396388,-0.000580809,0.0012561,0,0,0,3.5,0.0175,-1.3125,-0.030378,0.005612,-1.01138,-0.16996,-0.25914,0.3311
-0.778918,0,0,5.77892,5.77892,4.22108,4.22108,0.343547,0.343606,71.0881,0.0038872,-0.000543906,0.00125542,0,0,0,3.745,0.175,-1.2425,-0.030378,0.005612,-1.01138,-0.16996,-0.25914,0.3311
-0.600134,0,0,5.60013,5.60013,4.39987,4.39987,0.342994,0.345469,71.09,0.00166795,0.000667709,0.00777155,0,0,0,3.57,0.21,-1.1375,-0.032574,0.006832,-1.00491,-0.16996,-0.25914,0.3311
-0.582639,0,0,5.58264,5.58264,4.41736,4.41736,0.3422,0.34715,71.0918,0.0016386,0.000653838,0.00777146,0,0,0,3.43,0.1225,-1.225,-0.032574,0.006832,-1.00491,-0.16996,-0.25914,0.3311
-0.631432,0,0,5.63143,5.63143,4.36857,4.36857,0.342138,0.345004,71.0937,-0.00184703,-0.000202129,0.00764874,0,0,0,3.465,0,-1.26,-0.036112,0.005978,-1.00504,-0.16996,-0.25914,0.3311
-0.632246,0,0,5.63225,5.63225,4.36775,4.36775,0.342089,0.3429,71.096,-0.00181031,-0.000202985,0.00764897,0,0,0,3.465,0,-1.26,-0.036112,0.005978,-1.00504,-0.16996,-0.25914,0.34426
-0.978035,0,0,5.97803,5.97803,4.02197,4.02197,0.347091,0.34166,71.0962,-0.00203164,-0.00329098,-9.71842e-05,0,0,0,3.5875,0.2975,-1.225,-0.036356,0.002806,-1.01272,-0.16996,-0.25914,0.34426
-0.978013,0,0,5.97801,5.97801,4.02199,4.02199,0.35196,0.340426,71.0964,-0.00201011,-0.003206,-9.75745e-05,0,0,0,3.5875,0.2975,-1.225,-0.036356,0.002806,-1.01272,-0.16996,-0.25914,0.34426
-0.711354,0,0,5.71135,5.71135,4.28865,4.28865,0.352806,0.341091,71.0978,0.000772473,-0.0002602,-0.00169606,0,0,0,3.675,0.0175,-1.295,-0.03355,0.005734,-1.01431,-0.16996,-0.25914,0.34426
-0.711198,0,0,5.7112,5.7112,4.2888,4.2888,0.353626,0.34174,71.0993,0.000761146,-0.000245881,-0.00169622,0,0,0,3.675,0.0175,-1.295,-0.03355,0.005734,-1.01431,-0.16996,-0.25914,0.34426
-0.595088,0,0,5.59509,5.59509,4.40491,4.40491,0.352728,0.344108,71.1012,0.00229912,0.00108184,0.00150029,0,0,0,3.71,0.1925,-1.3125,-0.031964,0.007076,-1.01114,-0.16996,-0.25914,0.34426
-0.59466,0,0,5.59466,5.59466,4.40534,4.40534,0.351847,0.346436,71.1031,0.0022585,0.00106646,0.00150014,0,0,0,3.71,0.1925,-1.3125,-0.031964,0.007076,-1.01114,-0.16996,-0.25914,0.34426
-0.67858,0,0,5.67858,5.67858,4.32142,4.32142,0.352214,0.345969,71.1046,-0.000649005,-0.000392654,0.00764757,0,0,0,3.395,0.1925,-1.33,-0.034892,0.005612,-1.00504,-0.16996,-0.25914,0.34426
-0.678714,0,0,5.67871,5.67871,4.32129,4.32129,0.352572,0.345509,71.1061,-0.000640983,-0.000386397,0.00764758,0,0,0,3.395,0.1925,-1.33,-0.034892,0.005612,-1.00504,-0.16996,-0.25914,0.34426
-0.505219,0,0,5.50522,5.50522,4.49478,4.49478,0.350387,0.347554,71.1108,0.0021175,0.00165161,0.00715581,0,0,0,3.5,0.1575,-1.19,-0.032086,0.007686,-1.00552,-0.16632,-0.2548,0.33838
-0.657125,0,0,5.65712,5.65712,4.34288,4.34288,0.350476,0.346802,71.115,-0.000420576,6.55265e-05,0.0016232,0,0,0,3.6575,-0.035,-1.225,-0.034648,0.0061,-1.01101,-0.16632,-0.2548,0.33838
-0.64661,0,0,5.64661,5.64661,4.35339,4.35339,0.350409,0.346273,71.1189,-0.000411351,6.43566e-05,0.00162326,0,0,0,3.57,0.0875,-1.295,-0.034648,0.0061,-1.01101,-0.16632,-0.2548,0.33838
-0.393152,0,0,5.39315,5.39315,4.60685,4.60685,0.346641,0.346563,71.1243,0.000798455,0.00244113,0.00543503,0,0,0,3.4825,0.07,-1.26,-0.033428,0.00854,-1.00723,-0.16632,-0.2548,0.33838
-0.414721,0,0,5.41472,5.41472,4.58528,4.58528,0.343287,0.34689,71.1296,0.000792741,0.00238258,0.00543535,0,0,0,3.6575,0.0875,-1.33,-0.033428,0.00854,-1.00723,-0.16632,-0.2548,0.33838
-0.72046,0,0,5.72046,5.72046,4.27954,4.27954,0.344485,0.347705,71.1326,0.000778526,-0.000649672,0.00273027,0,0,0,3.5,0.035,-1.3125,-0.033428,0.00549,-1.00992,-0.16632,-0.2548,0.33838
-0.709547,0,0,5.70955,5.70955,4.29045,4.29045,0.345492,0.348709,71.1356,0.000760994,-0.000632104,0.00273006,0,0,0,3.4125,0.1575,-1.33,-0.033428,0.00549,-1.00992,-0.16632,-0.2548,0.33838
-0.452159,0,0,5.45216,5.45216,4.54784,4.54784,0.342712,0.346489,71.1408,-0.00187295,0.00139554,0.00137815,0,0,0,3.4125,0.175,-1.26,-0.036112,0.007564,-1.01126,-0.16632,-0.2548,0.33838
-0.450168,0,0,5.45017,5.45017,4.54983,4.54983,0.339975,0.344078,71.1464,-0.00183087,0.00134778,0.00137869,0,0,0,3.395,0.035,-1.2425,-0.036112,0.007564,-1.01126,-0.16716,-0.25788,0.33474
-0.287776,0,0,5.28778,5.28778,4.71222,4.71222,0.334938,0.33767,71.1536,-0.00512062,0.00235901,-0.00734947,0,0,0,3.4125,-0.105,-1.225,-0.039528,0.008662,-1.01992,-0.16716,-0.25788,0.33474
-0.296145,0,0,5.29614,5.29614,4.70386,4.70386,0.330155,0.331366,71.161,-0.0050106,0.00227553,-0.00734834,0,0,0,3.465,-0.1225,-1.12,-0.039528,0.008662,-1.01992,-0.16716,-0.25788,0.33474
-0.334749,0,0,5.33475,5.33475,4.66525,4.66525,0.32606,0.326957,71.1677,-0.00335434,0.00208195,0.0108489,0,0,0,3.43,-0.105,-1.1375,-0.037942,0.00854,-1.00186,-0.16716,-0.25788,0.33474
-0.340376,0,0,5.34038,5.34038,4.65962,4.65962,0.322155,0.323092,71.1743,-0.00328689,0.00201379,0.0108497,0,0,0,3.465,0.1575,-1.1375,-0.037942,0.00854,-1.00186,-0.16716,-0.25788,0.33474
-0.189149,0,0,5.18915,5.18915,4.81085,4.81085,0.316143,0.318038,71.182,-0.00392759,0.00313013,0.00150665,0,0,0,3.395,0.0175,-1.12,-0.038674,0.00976,-1.01114,-0.16716,-0.25788,0.33474
-0.203522,0,0,5.20352,5.20352,4.79648,4.79648,0.310498,0.31313,71.1893,-0.00384192,0.00303162,0.00150766,0,0,0,3.5,0.035,-1.2425,-0.038674,0.00976,-1.01114,-0.16716,-0.25788,0.33474
-0.298262,0,0,5.29826,5.29826,4.70174,4.70174,0.306385,0.310024,71.1957,-0.0022084,0.00222707,0.00322962,0,0,0,3.4475,-0.035,-1.225,-0.037088,0.009028,-1.00943,-0.16716,-0.25788,0.33474
-0.310737,0,0,5.31074,5.31074,4.68926,4.68926,0.302561,0.307022,71.2047,-0.00215602,0.00216034,0.00323025,0,0,0,3.535,-0.0175,-1.1725,-0.037088,0.009028,-1.00943,-0.16394,-0.25494,0.33362
-0.375456,0,0,5.37546,5.37546,4.62454,4.62454,0.299783,0.307853,71.2127,0.00135256,0.00211185,0.00642709,0,0,0,3.675,0,-1.2075,-0.03355,0.009028,-1.00626,-0.16394,-0.25494,0.33362
-0.347788,0,0,5.34779,5.34779,4.65221,4.65221,0.296673,0.308528,71.2208,0.00134079,0.00205757,0.00642731,0,0,0,3.4475,-0.0875,-1.1025,-0.03355,0.009028,-1.00626,-0.16394,-0.25494,0.33362
-0.332685,0,0,5.33268,5.33268,4.66732,4.66732,0.293423,0.303247,71.2297,-0.00451984,0.00151235,0.00273964,0,0,0,3.535,0.0525,-1.19,-0.039528,0.00854,-1.00992,-0.16394,-0.25494,0.33362
-0.331832,0,0,5.33183,5.33183,4.66817,4.66817,0.290246,0.297988,71.2381,-0.00442805,0.00145689,0.0027404,0,0,0,3.5175,0,-1.4525,-0.039528,0.00854,-1.00992,-0.16394,-0.25494,0.33362
-0.370944,0,0,5.37094,5.37094,4.62906,4.62906,0.287722,0.294699,71.246,-0.00266985,0.00129073,0.00913424,0,0,0,3.5175,0.0175,-1.4175,-0.03782,0.008418,-1.00357,-0.16394,-0.25494,0.33362
-0.382683,0,0,5.38268,5.38268,4.61732,4.61732,0.285436,0.291418,71.254,-0.0026126,0.00125084,0.00913474,0,0,0,3.605,-0.0175,-1.2425,-0.03782,0.008418,-1.00357,-0.16394,-0.25494,0.33362
-0.5293,0,0,5.5293,5.5293,4.4707,4.4707,0.285351,0.28721,71.2612,-0.00387549,-0.000338294,0.00360243,0,0,0,3.57,0.0525,-1.2425,-0.039162,0.006832,-1.00906,-0.16394,-0.25494,0.33362
-0.545435,0,0,5.54543,5.54543,4.45457,4.45457,0.285503,0.283407,71.2695,-0.00380912,-0.000335636,0.00360275,0,0,0,3.6925,0.245,-1.0675,-0.039162,0.006832,-1.00906,-0.16422,-0.25732,0.33306
-0.00309924,0,0,5.0031,5.0031,4.9969,4.9969,0.27773,0.279941,71.2811,-0.00265524,0.00478014,-0.00156012,0,0,0,3.7275,0.3325,-1.1025,-0.038064,0.012078,-1.01419,-0.16422,-0.25732,0.33306
-0.0193135,0,0,5.01931,5.01931,4.98069,4.98069,0.270397,0.276387,71.2923,-0.00259322,0.00465216,-0.00155921,0,0,0,3.85,0.2275,-1.26,-0.038064,0.012078,-1.01419,-0.16422,-0.25732,0.33306
-0.657169,0,0,5.65717,5.65717,4.34283,4.34283,0.272572,0.277269,71.2987,0.000428529,-0.000805573,0.00606334,0,0,0,3.92,0.2625,-1.295,-0.035014,0.006588,-1.00662,-0.16422,-0.25732,0.33306
-0.6205,0,0,5.6205,5.6205,4.3795,4.3795,0.274154,0.27762,71.3049,0.000422395,-0.00077796,0.00606318,0,0,0,3.6225,-0.035,-1.365,-0.035014,0.006588,-1.00662,-0.16422,-0.25732,0.33306
-0.57047,0,0,5.57047,5.57047,4.42953,4.42953,0.274964,0.278286,71.3112,0.000896724,-0.000519584,-0.000699109,0,0,0,3.4125,-0.0875,-1.3125,-0.034526,0.006832,-1.01333,-0.16422,-0.25732,0.33306
-0.589653,0,0,5.58965,5.58965,4.41035,4.41035,0.276031,0.279084,71.3177,0.000882795,-0.000500954,-0.000699267,0,0,0,3.57,0,-1.12,-0.034526,0.006832,-1.01333,-0.16422,-0.25732,0.33306
-0.728231,0,0,5.72823,5.72823,4.27177,4.27177,0.279094,0.276611,71.3237,-0.00223268,-0.00203515,0.00163671,0,0,0,3.64,-0.1575,-1.225,-0.037698,0.005246,-1.01101,-0.16422,-0.25732,0.33306
-0.732644,0,0,5.73264,5.73264,4.26736,4.26736,0.28214,0.274621,71.3296,-0.00219794,-0.00198198,0.00163661,0,0,0,3.675,0.105,-1.26,-0.037698,0.005246,-1.01101,-0.16436,-0.2576,0.33754
-0.595783,0,0,5.59578,5.59578,4.40422,4.40422,0.283107,0.276986,71.3359,0.00225576,-0.000133211,-0.00451109,0,0,0,3.71,0.1225,-1.1025,-0.033184,0.007076,-1.01711,-0.16436,-0.2576,0.33754
-0.595251,0,0,5.59525,5.59525,4.40475,4.40475,0.284039,0.279304,71.3422,0.0022153,-0.000116934,-0.00451137,0,0,0,3.71,0.1225,-1.1025,-0.033184,0.007076,-1.01711,-0.16436,-0.2576,0.33754
-0.699003,0,0,5.699,5.699,4.301,4.301,0.286462,0.284482,71.3468,0.00491909,-0.00080741,0.0016354,0,0,0,3.605,0,-1.3125,-0.030378,0.006344,-1.01101,-0.16436,-0.2576,0.33754
-0.697767,0,0,5.69777,5.69777,4.30223,4.30223,0.288803,0.289558,71.3513,0.0048305,-0.000766563,0.00163475,0,0,0,3.605,0,-1.3125,-0.030378,0.006344,-1.01101,-0.16436,-0.2576,0.33754
-0.528017,0,0,5.52802,5.52802,4.47198,4.47198,0.288602,0.288397,71.3581,-0.000980555,-3.73089e-05,-0.0013159,0,0,0,3.4825,0.07,-1.12,-0.036234,0.007076,-1.01394,-0.16436,-0.2576,0.33754
-0.488257,0,0,5.48826,5.48826,4.51174,4.51174,0.287825,0.286444,71.365,-0.00191834,0.000193385,0.00692189,0,0,0,3.43,0.1925,-1.2075,-0.03721,0.00732,-1.00577,-0.16436,-0.2576,0.33754
-0.441868,0,0,5.44187,5.44187,4.55813,4.55813,0.28639,0.289257,71.3715,0.00301348,0.00126748,0.00765946,0,0,0,3.4825,0.0175,-1.1375,-0.032208,0.008418,-1.00504,-0.16436,-0.2576,0.33754
-0.173836,0,0,5.17384,5.17384,4.82616,4.82616,0.281078,0.285722,71.3782,-0.00251318,0.00288454,0.00544716,0,0,0,3.3775,-0.035,-1.1025,-0.03782,0.010126,-1.00723,-0.16492,-0.25452,0.3346
-0.166349,0,0,5.16635,5.16635,4.83365,4.83365,0.275795,0.282421,71.3845,-0.00245557,0.00279235,0.00544789,0,0,0,3.3075,0.0525,-1.2425,-0.03782,0.010126,-1.00723,-0.16492,-0.25452,0.3346
-0.534938,0,0,5.53494,5.53494,4.46506,4.46506,0.276034,0.278665,71.3883,-0.00348338,-0.000745156,0.00237448,0,0,0,3.36,0.0175,-1.3475,-0.038918,0.006588,-1.01028,-0.16492,-0.25452,0.3346
-0.535807,0,0,5.53581,5.53581,4.46419,4.46419,0.276279,0.274976,71.3921,-0.003419,-0.000740882,0.00237477,0,0,0,3.36,0.0175,-1.3475,-0.038918,0.006588,-1.01028,-0.16492,-0.25452,0.3346
-0.79956,0,0,5.79956,5.79956,4.20044,4.20044,0.280369,0.277242,71.3934,0.00152236,-0.0025014,0.00274308,0,0,0,3.395,0.21,-1.295,-0.033916,0.004758,-1.00992,-0.16492,-0.25452,0.3346
-0.798875,0,0,5.79887,5.79887,4.20113,4.20113,0.284341,0.279453,71.3947,0.00148378,-0.00243208,0.00274255,0,0,0,3.395,0.21,-1.295,-0.033916,0.004758,-1.00992,-0.16492,-0.25452,0.3346
-0.579132,0,0,5.57913,5.57913,4.42087,4.42087,0.284998,0.282359,71.3975,0.00289089,-0.0001002,0.00581596,0,0,0,3.4475,0,-1.2075,-0.032452,0.007076,-1.00687,-0.16492,-0.25452,0.3346
-0.458694,0,0,5.45869,5.45869,4.54131,4.54131,0.283879,0.282928,71.4012,0.00105867,0.000490894,-0.00463462,0,0,0,3.2375,-0.105,-1.155,-0.034282,0.007686,-1.01724,-0.16492,-0.25452,0.3346
-0.462767,0,0,5.46277,5.46277,4.53723,4.53723,0.282847,0.283491,71.4072,0.00104885,0.000472895,-0.00463458,0,0,0,3.2725,-0.105,-1.19,-0.034282,0.007686,-1.01724,-0.1638,-0.25606,0.33894
-0.771213,0,0,5.77121,5.77121,4.22879,4.22879,0.286348,0.287292,71.4108,0.00353371,-0.00190855,0.00347939,0,0,0,3.3775,-0.07,-1.1725,-0.03172,0.005246,-1.00918,-0.1638,-0.25606,0.33894
-0.770226,0,0,5.77023,5.77023,4.22977,4.22977,0.289741,0.291341,71.4143,0.00346305,-0.00184933,0.00347874,0,0,0,3.3775,0.1225,-1.19,-0.03172,0.005246,-1.00918,-0.1638,-0.25606,0.33894
-0.836002,0,0,5.836,5.836,4.164,4.164,0.294005,0.295043,71.4174,0.00303398,-0.00238555,0.00384687,0,0,0,3.43,0.1225,-1.2075,-0.032086,0.004636,-1.00882,-0.1638,-0.25606,0.33894
-0.828544,0,0,5.82854,5.82854,4.17146,4.17146,0.298047,0.298515,71.4203,0.00297338,-0.002315,0.00384619,0,0,0,3.3775,0.035,-1.295,-0.032086,0.004636,-1.00882,-0.1638,-0.25606,0.33894
-0.590581,0,0,5.59058,5.59058,4.40942,4.40942,0.298507,0.298364,71.4252,0.000181846,-0.000475075,0.00212489,0,0,0,3.325,-0.1225,-1.26,-0.034892,0.006466,-1.01053,-0.1638,-0.25606,0.33894
-0.597044,0,0,5.59704,5.59704,4.40296,4.40296,0.299048,0.298542,71.4301,0.000178725,-0.000465625,0.00212482,0,0,0,3.3775,0.07,-1.26,-0.034892,0.006466,-1.01053,-0.1638,-0.25606,0.33894
-0.723299,0,0,5.7233,5.7233,4.2767,4.2767,0.301419,0.298666,71.4342,-6.6402e-05,-0.00164552,0.00237049,0,0,0,3.3775,0.0525,-1.2075,-0.035136,0.005246,-1.01028,-0.1638,-0.25606,0.33894
-0.72067,0,0,5.72067,5.72067,4.27933,4.27933,0.303688,0.298268,71.4341,-5.94571e-05,-0.00160591,0.00237032,0,0,0,3.36,-0.245,-1.0675,-0.035136,0.005246,-1.01028,-0.16674,-0.25466,0.34286
-0.644337,0,0,5.64434,5.64434,4.35566,4.35566,0.304782,0.296198,71.4347,-0.00184562,-0.00109831,0.000403227,0,0,0,3.36,-0.0525,-1.1025,-0.036966,0.005734,-1.01223,-0.16674,-0.25466,0.34286
-0.646898,0,0,5.6469,5.6469,4.3531,4.3531,0.305884,0.294342,71.4351,-0.00181322,-0.00107908,0.000403291,0,0,0,3.3775,0.0525,-1.155,-0.036966,0.005734,-1.01223,-0.16674,-0.25466,0.34286
-0.436355,0,0,5.43636,5.43636,4.56364,4.56364,0.303881,0.293362,71.4368,-0.000824228,0.000962121,0.00323138,0,0,0,3.325,0.175,-1.2075,-0.03599,0.007808,-1.00943,-0.16674,-0.25466,0.34286
-0.458078,0,0,5.45808,5.45808,4.54192,4.54192,0.302248,0.292346,71.4384,-0.000806504,0.000933613,0.00323162,0,0,0,3.5,0.14,-1.2075,-0.03599,0.007808,-1.00943,-0.16674,-0.25466,0.34286
-0.977896,0,0,5.9779,5.9779,4.0221,4.0221,0.308249,0.29563,71.436,0.0024163,-0.00335822,0.00618153,0,0,0,3.5875,0.14,-1.19,-0.032696,0.003416,-1.0065,-0.16674,-0.25466,0.34286
-0.951225,0,0,5.95123,5.95123,4.04877,4.04877,0.313702,0.298596,71.4335,0.00236453,-0.00326305,0.00618075,0,0,0,3.3775,0,-1.3125,-0.032696,0.003416,-1.0065,-0.16674,-0.25466,0.34286
-0.84416,0,0,5.84416,5.84416,4.15584,4.15584,0.317447,0.298481,71.4323,-0.000184658,-0.00258705,0.00359848,0,0,0,3.325,-0.1225,-1.225,-0.035258,0.004026,-1.00906,-0.16674,-0.25466,0.34286
-0.854761,0,0,5.85476,5.85476,4.14524,4.14524,0.321248,0.298385,71.4311,-0.000182989,-0.00252071,0.00359812,0,0,0,3.4125,-0.105,-1.2075,-0.035258,0.004026,-1.00906,-0.16674,-0.25466,0.34286
-1.24246,0,0,6.24246,6.24246,3.75754,3.75754,0.330611,0.299093,71.428,-0.000195344,-0.00589898,0.00347418,0,0,0,3.535,-0.0175,-1.2075,-0.035258,0.000488,-1.00918,-0.16604,-0.2541,0.343
-1.23971,0,0,6.23971,6.23971,3.76029,3.76029,0.339687,0.299819,71.4246,-0.000208013,-0.00574058,0.00347318,0,0,0,3.5175,0.0175,-1.3825,-0.035258,0.000488,-1.00918,-0.16604,-0.2541,0.343
-0.755758,0,0,5.75576,5.75576,4.24424,4.24424,0.341455,0.298247,71.4249,-0.00139543,-0.00119104,0.00531737,0,0,0,3.57,-0.07,-1.2775,-0.036478,0.005002,-1.00735,-0.16604,-0.2541,0.343
-0.760362,0,0,5.76036,5.76036,4.23964,4.23964,0.343243,0.296787,71.4253,-0.00136995,-0.00115983,0.00531732,0,0,0,3.605,-0.0175,-1.2775,-0.036478,0.005002,-1.00735,-0.16604,-0.2541,0.343
-0.515183,0,0,5.51518,5.51518,4.48482,4.48482,0.341402,0.294222,71.4274,-0.00217557,0.00100632,-0.0034116,0,0,0,3.6225,0.105,-1.2775,-0.037332,0.007198,-1.01602,-0.16604,-0.2541,0.343
-0.518031,0,0,5.51803,5.51803,4.48197,4.48197,0.33965,0.291858,71.4295,-0.00213433,0.000975757,-0.00341121,0,0,0,3.64,0.1925,-1.26,-0.037332,0.007198,-1.01602,-0.16604,-0.2541,0.343
-0.695868,0,0,5.69587,5.69587,4.30413,4.30413,0.340542,0.292588,71.43,0.000525622,-0.000596336,0.00322785,0,0,0,3.4125,0.1575,-1.19,-0.034648,0.005612,-1.00943,-0.16604,-0.2541,0.343
-0.716975,0,0,5.71698,5.71698,4.28302,4.28302,0.341717,0.293124,71.43,0.000516261,-0.000575824,0.00322768,0,0,0,3.5875,0.0525,-1.3825,-0.034648,0.005612,-1.00943,-0.16604,-0.2541,0.343
-0.932849,0,0,5.93285,5.93285,4.06715,4.06715,0.346014,0.295098,71.4279,0.00181816,-0.00245486,0.00187462,0,0,0,3.535,-0.1225,-1.365,-0.033306,0.00366,-1.01077,-0.16716,-0.25592,0.33712
-0.695519,0,0,5.69552,5.69552,4.30448,4.30448,0.34673,0.299889,71.427,0.00452871,0.000244427,0.00679205,0,0,0,3.5875,0.1225,-1.2775,-0.0305,0.006344,-1.00589,-0.16716,-0.25592,0.33712
-0.677431,0,0,5.67743,5.67743,4.32257,4.32257,0.347163,0.304768,71.4264,0.00444356,0.000251978,0.00679156,0,0,0,3.4475,0.2275,-1.1725,-0.0305,0.006344,-1.00589,-0.16716,-0.25592,0.33712
-0.655962,0,0,5.65596,5.65596,4.34404,4.34404,0.34727,0.303334,71.4268,-0.00172718,-0.00023466,-0.00538022,0,0,0,3.5875,0.35,-1.2425,-0.036722,0.005856,-1.01797,-0.16716,-0.25592,0.33712
-0.639333,0,0,5.63933,5.63933,4.36067,4.36067,0.347131,0.301326,71.4275,-0.00169214,-0.000237091,-0.00538002,0,0,0,3.4475,0,-1.085,-0.036722,0.005856,-1.01797,-0.16716,-0.25592,0.33712
-0.915796,0,0,5.9158,5.9158,4.0842,4.0842,0.351032,0.304487,71.4256,0.00274767,-0.00212303,0.00482399,0,0,0,3.4825,0.0175,-1.1725,-0.032208,0.003904,-1.00784,-0.16716,-0.25592,0.33712
-0.89794,0,0,5.89794,5.89794,4.10206,4.10206,0.354569,0.307605,71.4238,0.00269324,-0.0020613,0.00482332,0,0,0,3.3425,0.035,-1.0675,-0.032208,0.003904,-1.00784,-0.16716,-0.25592,0.33712
-0.388854,0,0,5.38885,5.38885,4.61115,4.61115,0.350577,0.306753,71.4258,-0.000329031,0.00238772,-0.00120064,0,0,0,3.43,0.1225,-1.1725,-0.035258,0.008418,-1.01382,-0.16716,-0.25592,0.33712
-0.391128,0,0,5.39113,5.39113,4.60887,4.60887,0.346723,0.305958,71.4221,-0.000315152,0.00232045,-0.00120016,0,0,0,3.4475,0.14,-1.1725,-0.035258,0.008418,-1.01382,-0.17178,-0.25648,0.33558
-0.454604,0,0,5.4546,5.4546,4.5454,4.5454,0.343896,0.301734,71.4185,-0.00340006,0.0012941,-0.00451908,0,0,0,3.4825,-0.07,-1.2075,-0.03843,0.007442,-1.01711,-0.17178,-0.25648,0.33558
-0.44718,0,0,5.44718,5.44718,4.55282,4.55282,0.341034,0.297896,71.4148,-0.00333308,0.00124416,-0.00451843,0,0,0,3.4125,0.105,-1.26,-0.03843,0.007442,-1.01711,-0.17178,-0.25648,0.33558
-0.49351,0,0,5.49351,5.49351,4.50649,4.50649,0.338924,0.299108,71.4102,0.0015052,0.00145157,-0.000583972,0,0,0,3.4475,0.0875,-1.225,-0.03355,0.007686,-1.01321,-0.17178,-0.25648,0.33558
-0.486913,0,0,5.48691,5.48691,4.51309,4.51309,0.336771,0.300276,71.4055,0.00148482,0.00141401,-0.000583857,0,0,0,3.395,0.07,-1.295,-0.03355,0.007686,-1.01321,-0.17178,-0.25648,0.33558
-0.493018,0,0,5.49302,5.49302,4.50698,4.50698,0.334764,0.299764,71.4012,-0.000328541,0.0010126,0.000277034,0,0,0,3.325,0.1575,-1.225,-0.03538,0.00732,-1.01236,-0.17178,-0.25648,0.33558
-0.516765,0,0,5.51676,5.51676,4.48324,4.48324,0.333156,0.29897,71.3969,-0.000314683,0.000984533,0.00027727,0,0,0,3.5175,-0.0175,-1.2425,-0.03538,0.00732,-1.01236,-0.17178,-0.25648,0.33558
-0.505647,0,0,5.50565,5.50565,4.49435,4.49435,0.331427,0.302037,71.3922,0.00339785,0.00168711,0.00507216,0,0,0,3.6225,0,-1.225,-0.031598,0.008052,-1.0076,-0.17178,-0.25648,0.33558
-0.481221,0,0,5.48122,5.48122,4.51878,4.51878,0.329386,0.305141,71.3897,0.00334367,0.00165149,0.00507207,0,0,0,3.43,0.0525,-1.1725,-0.031598,0.008052,-1.0076,-0.17038,-0.25648,0.33992
-0.409591,0,0,5.40959,5.40959,4.59041,4.59041,0.326351,0.299604,71.389,-0.00482071,0.00123215,-0.00168928,0,0,0,3.4475,0.0175,-1.1375,-0.039894,0.007686,-1.01431,-0.17038,-0.25648,0.33992
-0.438705,0,0,5.43871,5.43871,4.56129,4.56129,0.323821,0.294149,71.388,-0.00472551,0.001188,-0.00168854,0,0,0,3.675,0,-1.295,-0.039894,0.007686,-1.01431,-0.17038,-0.25648,0.33992
-0.320645,0,0,5.32065,5.32065,4.67935,4.67935,0.319632,0.294694,71.387,0.00133927,0.00319105,0.00790181,0,0,0,3.7975,-0.035,-1.2775,-0.033794,0.00976,-1.00479,-0.17038,-0.25648,0.33992
-0.327143,0,0,5.32714,5.32714,4.67286,4.67286,0.315648,0.295481,71.3861,0.00132552,0.00312151,0.00790212,0,0,0,3.85,0.105,-1.26,-0.033794,0.00976,-1.00479,-0.17038,-0.25648,0.33992
-0.635586,0,0,5.63559,5.63559,4.36441,4.36441,0.316273,0.2957,71.3833,-1.46332e-05,7.92463e-05,0.00433654,0,0,0,3.9025,0.2625,-1.33,-0.035136,0.00671,-1.00833,-0.17038,-0.25648,0.33992
-0.607871,0,0,5.60787,5.60787,4.39213,4.39213,0.316476,0.295343,71.3807,-8.41257e-06,8.27867e-05,0.00433655,0,0,0,3.675,-0.07,-1.19,-0.035136,0.00671,-1.00833,-0.17038,-0.25648,0.33992
-0.405175,0,0,5.40518,5.40518,4.59482,4.59482,0.313712,0.296954,71.3793,0.0023932,0.00235496,0.000402317,0,0,0,3.7625,-0.1225,-1.1725,-0.032696,0.009028,-1.01223,-0.17038,-0.25648,0.33992
-0.402767,0,0,5.40277,5.40277,4.59723,4.59723,0.310985,0.298745,71.3873,0.00236193,0.00230737,0.000402414,0,0,0,3.7625,0,-1.4,-0.032696,0.009028,-1.01223,-0.16226,-0.25578,0.33348
-0.507336,0,0,5.50734,5.50734,4.49266,4.49266,0.309857,0.298727,71.395,0.000296991,0.000944277,0.00495162,0,0,0,3.6575,0.035,-1.295,-0.03477,0.007686,-1.00772,-0.16226,-0.25578,0.33348
-0.479748,0,0,5.47975,5.47975,4.52025,4.52025,0.308354,0.2991,71.4029,0.000290481,0.000918054,0.00495172,0,0,0,3.43,0.2625,-1.1375,-0.03477,0.007686,-1.00772,-0.16226,-0.25578,0.33348
-0.43312,0,0,5.43312,5.43312,4.56688,4.56688,0.306209,0.301459,71.4107,0.00219308,0.00161338,0.00445992,0,0,0,3.4825,0.3325,-1.155,-0.032818,0.008418,-1.00821,-0.16226,-0.25578,0.33348
-0.411188,0,0,5.41119,5.41119,4.58881,4.58881,0.3038,0.303606,71.418,0.00215561,0.00157133,0.00445994,0,0,0,3.3075,0.2275,-1.435,-0.032818,0.008418,-1.00821,-0.16226,-0.25578,0.33348
-0.674274,0,0,5.67427,5.67427,4.32573,4.32573,0.305296,0.309411,71.4232,0.00521292,-0.000600845,0.000279012,0,0,0,3.2725,0.2625,-1.2425,-0.029646,0.006222,-1.01236,-0.16226,-0.25578,0.33348
-0.698706,0,0,5.69871,5.69871,4.30129,4.30129,0.307109,0.314956,71.4286,0.00511615,-0.00056921,0.000278316,0,0,0,3.4825,0.175,-1.155,-0.029646,0.006222,-1.01236,-0.16226,-0.25578,0.33348
-0.537135,0,0,5.53714,5.53714,4.46286,4.46286,0.306513,0.316374,71.4353,0.00132535,0.000641664,-0.000459456,0,0,0,3.605,0.2275,-1.3475,-0.033428,0.007442,-1.01309,-0.16226,-0.25578,0.33348
-0.549947,0,0,5.54995,5.54995,4.45005,4.45005,0.30612,0.317709,71.4399,0.00130204,0.000634799,-0.000459548,0,0,0,3.71,0.1925,-1.3475,-0.033428,0.007442,-1.01309,-0.16408,-0.2562,0.33964
-0.142219,0,0,5.14222,5.14222,4.85778,4.85778,0.299781,0.3172,71.4477,0.0007035,0.0043101,0.00716389,0,0,0,3.6575,-0.1225,-1.0675,-0.034038,0.011224,-1.00552,-0.16408,-0.2562,0.33964
-0.142537,0,0,5.14254,5.14254,4.85746,4.85746,0.293613,0.316721,71.4555,0.000711862,0.00420245,0.0071645,0,0,0,3.6575,-0.1225,-1.0675,-0.034038,0.011224,-1.00552,-0.16408,-0.2562,0.33964
-0.399343,0,0,5.39934,5.39934,4.60066,4.60066,0.291357,0.321032,71.4617,-0.00276499,0.000987781,0.00175454,0,0,0,3.395,4.3925,-1.12,-0.037454,0.008052,-1.01089,-0.16408,-0.2562,0.33964
-0.398514,0,0,5.39851,5.39851,4.60149,4.60149,0.289148,0.325275,71.4678,-0.00283903,0.000949222,0.00175432,0,0,0,3.395,4.3925,-1.12,-0.037454,0.008052,-1.01089,-0.16408,-0.2562,0.33964
-0.155689,0,0,5.15569,5.15569,4.84431,4.84431,0.28345,0.326288,71.4748,0.00151677,0.00353656,0.00667266,0,0,0,3.255,0.175,-1.085,-0.033062,0.010736,-1.00601,-0.16408,-0.2562,0.33964
-0.155646,0,0,5.15565,5.15565,4.84435,4.84435,0.2779,0.327302,71.4816,0.00149907,0.0034397,0.00667303,0,0,0,3.255,0.175,-1.085,-0.033062,0.010736,-1.00601,-0.16408,-0.2562,0.33964
-0.398383,0,0,5.39838,5.39838,4.60162,4.60162,0.276041,0.332357,71.486,0.00517689,0.00157535,0.000156411,0,0,0,3.3075,0.105,-1.2425,-0.02928,0.008906,-1.01248,-0.16408,-0.2562,0.33964
-0.14519,0,0,5.14519,5.14519,4.85481,4.85481,0.270532,0.33257,71.4926,0.000678213,0.0033111,-0.000457895,0,0,0,3.2725,0.2275,-1.2075,-0.033794,0.010736,-1.01309,-0.16338,-0.2548,0.33152
-0.368878,0,0,5.36888,5.36888,4.63112,4.63112,0.268434,0.331026,71.4985,-0.00136009,0.000954084,0.00064897,0,0,0,3.325,0.175,-0.98,-0.035868,0.008418,-1.01199,-0.16338,-0.2548,0.33152
-0.379887,0,0,5.37989,5.37989,4.62011,4.62011,0.266552,0.329607,71.5039,-0.00133533,0.000921234,0.000649266,0,0,0,3.4125,0.2275,-1.155,-0.035868,0.008418,-1.01199,-0.16338,-0.2548,0.33152
-0.49892,0,0,5.49892,5.49892,4.50108,4.50108,0.266457,0.327115,71.5085,-0.00287114,-0.000545939,0.00114132,0,0,0,3.29,0.3675,-1.2775,-0.037454,0.006954,-1.0115,-0.16338,-0.2548,0.33152
-0.499551,0,0,5.49955,5.49955,4.50045,4.50045,0.266374,0.324428,71.5131,-0.00282425,-0.000547398,0.00114159,0,0,0,3.29,0.2275,-1.2075,-0.037454,0.006954,-1.0115,-0.16338,-0.2548,0.33152
-0.615779,0,0,5.61578,5.61578,4.38422,4.38422,0.267989,0.326246,71.5164,0.00151749,-0.000885583,0.00273961,0,0,0,3.465,0.1575,-1.19,-0.033062,0.006588,-1.00992,-0.16338,-0.2548,0.33152
-0.611098,0,0,5.6111,5.6111,4.3889,4.3889,0.269493,0.327967,71.5197,0.00148747,-0.000859333,0.00273931,0,0,0,3.43,0.1225,-1.19,-0.033062,0.006588,-1.00992,-0.16338,-0.2548,0.33152
-0.609715,0,0,5.60971,5.60971,4.39029,4.39029,0.270937,0.326101,71.5235,-0.00200305,-0.00120051,0.00372297,0,0,0,3.465,0.1225,-1.225,-0.0366,0.006222,-1.00894,-0.16338,-0.2548,0.33152
-0.629183,0,0,5.62918,5.62918,4.37082,4.37082,0.272627,0.324533,71.5278,-0.00197569,-0.00117103,0.00372299,0,0,0,3.6225,0.28,-1.295,-0.0366,0.006222,-1.00894,-0.16184,-0.25214,0.33726
-0.746509,0,0,5.74651,5.74651,4.25349,4.25349,0.275985,0.326106,71.5309,0.00103401,-0.00184518,0.00470614,0,0,0,3.64,0.1925,-1.2775,-0.03355,0.00549,-1.00796,-0.16184,-0.25214,0.33726
-0.769599,0,0,5.7696,5.7696,4.2304,4.2304,0.279591,0.32749,71.5338,0.00100984,-0.00178223,0.00470569,0,0,0,3.8325,0.105,-1.3475,-0.03355,0.00549,-1.00796,-0.16184,-0.25214,0.33726
-0.893716,0,0,5.89372,5.89372,4.10628,4.10628,0.284915,0.327208,71.5361,-0.000807525,-0.00315484,0.00519706,0,0,0,3.78,0.0875,-1.295,-0.03538,0.004026,-1.00748,-0.16184,-0.25214,0.33726
-0.874528,0,0,5.87453,5.87453,4.12547,4.12547,0.289818,0.326854,71.5386,-0.000801334,-0.00306927,0.00519666,0,0,0,3.6225,0.0525,-1.2075,-0.03538,0.004026,-1.00748,-0.16184,-0.25214,0.33726
-0.82183,0,0,5.82183,5.82183,4.17817,4.17817,0.293822,0.327748,71.5411,0.000640881,-0.00263301,0.00224546,0,0,0,3.3775,-0.035,-1.155,-0.033916,0.004392,-1.0104,-0.16184,-0.25214,0.33726
-0.823625,0,0,5.82363,5.82363,4.17637,4.17637,0.297746,0.328794,71.5433,0.000622623,-0.00256452,0.002245,0,0,0,3.395,0.07,-1.3125,-0.033916,0.004392,-1.0104,-0.16184,-0.25214,0.33726
-0.566574,0,0,5.56657,5.56657,4.43343,4.43343,0.297812,0.329455,71.5471,0.000489612,-0.00012084,0.0039662,0,0,0,3.3775,0.1925,-1.365,-0.034038,0.006832,-1.0087,-0.16184,-0.25214,0.33726
-0.560237,0,0,5.56024,5.56024,4.43976,4.43976,0.297783,0.329566,71.5507,0.000487678,-0.000121347,0.0039662,0,0,0,3.325,-0.1225,-1.3125,-0.034038,0.006832,-1.0087,-0.16394,-0.2569,0.33348
-0.729898,0,0,5.7299,5.7299,4.2701,4.2701,0.300232,0.326928,71.5537,-0.00238195,-0.0019105,0.00347444,0,0,0,3.4475,-0.175,-1.295,-0.036966,0.005002,-1.00918,-0.16394,-0.2569,0.33348
-0.728326,0,0,5.72833,5.72833,4.27167,4.27167,0.302593,0.324479,71.5566,-0.00233921,-0.0018693,0.00347447,0,0,0,3.43,-0.0875,-1.2775,-0.036966,0.005002,-1.00918,-0.16394,-0.2569,0.33348
-0.756659,0,0,5.75666,5.75666,4.24334,4.24334,0.305305,0.327048,71.5586,0.0023539,-0.00145558,0.00384281,0,0,0,3.4825,0.0175,-1.33,-0.032208,0.005368,-1.00882,-0.16394,-0.2569,0.33348
-0.779605,0,0,5.7796,5.7796,4.2204,4.2204,0.30828,0.32965,71.5606,0.00230848,-0.00140366,0.00384227,0,0,0,3.675,0.07,-1.295,-0.032208,0.005368,-1.00882,-0.16394,-0.2569,0.33348
-0.883953,0,0,5.88395,5.88395,4.11605,4.11605,0.312701,0.328691,71.5626,-0.00144084,-0.00291416,0.00507143,0,0,0,3.5525,0.105,-1.1725,-0.03599,0.003782,-1.0076,-0.16394,-0.2569,0.33348
-0.879779,0,0,5.87978,5.87978,4.12022,4.12022,0.316943,0.327855,71.5645,-0.00142624,-0.00284011,0.00507111,0,0,0,3.5175,0.175,-1.225,-0.03599,0.003782,-1.0076,-0.16394,-0.2569,0.33348
-0.693877,0,0,5.69388,5.69388,4.30612,4.30612,0.318359,0.328546,71.5675,0.000626955,-0.000861385,0.00630039,0,0,0,3.4475,0.035,-1.05,-0.033916,0.005734,-1.00638,-0.16394,-0.2569,0.33348
-0.693743,0,0,5.69374,5.69374,4.30626,4.30626,0.319734,0.32922,71.5705,0.000615189,-0.000837384,0.00630019,0,0,0,3.4475,0.035,-1.05,-0.033916,0.005734,-1.00638,-0.16394,-0.2569,0.33348
-0.252327,0,0,5.25233,5.25233,4.74767,4.74767,0.314625,0.3275,71.5774,-0.000934094,0.00310364,0.00531726,0,0,0,3.4475,0.035,-1.1725,-0.035502,0.00976,-1.00735,-0.16282,-0.25592,0.33908
-0.77587,0,0,5.77587,5.77587,4.22413,4.22413,0.317297,0.327377,71.5804,-0.00032452,-0.00210119,0.00261215,0,0,0,3.2025,0.0175,-1.2775,-0.034892,0.004514,-1.01004,-0.16282,-0.25592,0.33908
-0.775899,0,0,5.7759,5.7759,4.2241,4.2241,0.319898,0.327247,71.5833,-0.00032226,-0.00205579,0.00261191,0,0,0,3.2025,0.0175,-1.2775,-0.034892,0.004514,-1.01004,-0.16282,-0.25592,0.33908
-0.744458,0,0,5.74446,5.74446,4.25554,4.25554,0.32197,0.325639,71.5868,-0.00138756,-0.00128685,0.00617738,0,0,0,3.6575,-0.1225,-1.33,-0.03599,0.005246,-1.0065,-0.16282,-0.25592,0.33908
-0.744822,0,0,5.74482,5.74482,4.25518,4.25518,0.323993,0.324053,71.5903,-0.00135988,-0.00125155,0.00617734,0,0,0,3.6575,-0.1225,-1.33,-0.03599,0.005246,-1.0065,-0.16282,-0.25592,0.33908
-0.91,0,0,5.91,5.91,4.09,4.09,0.328375,0.325595,71.5921,0.000799942,-0.00276273,0.0060538,0,0,0,3.43,0.21,-1.3825,-0.033794,0.00366,-1.00662,-0.16282,-0.25592,0.33908
-0.909652,0,0,5.90965,5.90965,4.09035,4.09035,0.332635,0.327096,71.5938,0.000773746,-0.00268837,0.00605322,0,0,0,3.43,0.21,-1.3825,-0.033794,0.00366,-1.00662,-0.16282,-0.25592,0.33908
-0.859938,0,0,5.85994,5.85994,4.14006,4.14006,0.336057,0.332959,71.5941,0.00540937,-0.00165165,0.00260972,0,0,0,3.395,0.07,-1.2775,-0.029036,0.004636,-1.01004,-0.16492,-0.25886,0.33796
-0.79657,0,0,5.79657,5.79657,4.20343,4.20343,0.338462,0.328596,71.5949,0.00329876,-0.00136541,-0.00304571,0,0,0,3.36,-4.48,-1.3825,-0.031232,0.00488,-1.01565,-0.16492,-0.25886,0.33796
-0.797541,0,0,5.79754,5.79754,4.20246,4.20246,0.340818,0.324304,71.5957,0.00337368,-0.00132429,-0.00304553,0,0,0,3.36,-4.48,-1.3825,-0.031232,0.00488,-1.01565,-0.16492,-0.25886,0.33796
-0.904523,0,0,5.90452,5.90452,4.09548,4.09548,0.344673,0.329409,71.5961,0.00449944,-0.00162339,-0.00120221,0,0,0,3.78,0.21,-1.33,-0.030012,0.004514,-1.01382,-0.16492,-0.25886,0.33796
-0.706474,0,0,5.70647,5.70647,4.29353,4.29353,0.345534,0.332349,71.5982,0.00274733,0.000101405,0.00371534,0,0,0,3.7625,0.175,-1.225,-0.03172,0.006222,-1.00894,-0.16492,-0.25886,0.33796
-0.688778,0,0,5.68878,5.68878,4.31122,4.31122,0.346113,0.335144,71.6003,0.00269855,0.000111506,0.00371499,0,0,0,3.6225,0.1225,-1.225,-0.03172,0.006222,-1.00894,-0.16492,-0.25886,0.33796
-0.682202,0,0,5.6822,5.6822,4.3178,4.3178,0.34658,0.338112,71.6022,0.0030112,0.000119651,-0.00194099,0,0,0,3.57,0.07,-1.295,-0.031354,0.006222,-1.01455,-0.16492,-0.25886,0.33796
-0.683714,0,0,5.68371,5.68371,4.31629,4.31629,0.347056,0.341176,71.604,0.00295772,0.000127955,-0.00194136,0,0,0,3.5875,0.1575,-1.33,-0.031354,0.006222,-1.01455,-0.16492,-0.25886,0.33796
-0.589195,0,0,5.5892,5.5892,4.4108,4.4108,0.346138,0.345751,71.6061,0.00457868,0.00121107,-0.000958151,0,0,0,3.57,0.175,-1.1725,-0.029646,0.00732,-1.01358,-0.16366,-0.25522,0.33628
-0.966643,0,0,5.96664,5.96664,4.03336,4.03336,0.350756,0.342927,71.6067,-0.00314712,-0.00310489,0.00457434,0,0,0,3.6925,0.035,-1.26,-0.037454,0.002928,-1.00809,-0.16366,-0.25522,0.33628
-0.9778,0,0,5.9778,5.9778,4.0222,4.0222,0.355415,0.34032,71.607,-0.00310162,-0.00302357,0.00457411,0,0,0,3.78,0.14,-1.435,-0.037454,0.002928,-1.00809,-0.16366,-0.25522,0.33628
-0.835623,0,0,5.83562,5.83562,4.16438,4.16438,0.357874,0.343131,71.6076,0.00243767,-0.000904498,0.000762144,0,0,0,3.8325,0.1925,-1.365,-0.031842,0.005002,-1.01187,-0.16366,-0.25522,0.33628
-0.832961,0,0,5.83296,5.83296,4.16704,4.16704,0.360229,0.345912,71.6084,0.00238913,-0.0008634,0.000761595,0,0,0,3.815,0.21,-1.2775,-0.031842,0.005002,-1.01187,-0.16366,-0.25522,0.33628
-0.836475,0,0,5.83648,5.83648,4.16352,4.16352,0.362573,0.346713,71.6093,0.000552865,-0.00118888,0.00272843,0,0,0,3.71,0.1225,-1.26,-0.033672,0.004636,-1.00992,-0.16366,-0.25522,0.33628
-0.836334,0,0,5.83633,5.83633,4.16367,4.16367,0.364852,0.347492,71.6102,0.000539271,-0.0011491,0.00272809,0,0,0,3.71,0.1225,-1.26,-0.033672,0.004636,-1.00992,-0.16366,-0.25522,0.33628
-0.469231,0,0,5.46923,5.46923,4.53077,4.53077,0.361708,0.347289,71.6138,-6.46257e-05,0.00221558,0.00162193,0,0,0,3.675,0.2975,-1.1725,-0.034282,0.008052,-1.01101,-0.16366,-0.25522,0.33628
-0.469812,0,0,5.46981,5.46981,4.53019,4.53019,0.358655,0.347103,71.6175,-6.1372e-05,0.0021623,0.00162228,0,0,0,3.675,0.2975,-1.1725,-0.034282,0.008052,-1.01101,-0.16394,-0.25606,0.34216
-0.630372,0,0,5.63037,5.63037,4.36963,4.36963,0.358027,0.348278,71.62,0.0010115,0.000685808,0.00113043,0,0,0,3.64,0.28,-1.155,-0.033184,0.006588,-1.0115,-0.16394,-0.25606,0.34216
-0.630177,0,0,5.63018,5.63018,4.36982,4.36982,0.357411,0.349433,71.6225,0.000991326,0.000675063,0.00113038,0,0,0,3.64,0.28,-1.155,-0.033184,0.006588,-1.0115,-0.16394,-0.25606,0.34216
-0.857048,0,0,5.85705,5.85705,4.14295,4.14295,0.360125,0.347593,71.6239,-0.00213518,-0.00184224,0.00260566,0,0,0,3.64,0.14,-1.155,-0.036356,0.004026,-1.01004,-0.16394,-0.25606,0.34216
-0.857484,0,0,5.85748,5.85748,4.14252,4.14252,0.362772,0.345777,71.6252,-0.00210349,-0.00179603,0.00260556,0,0,0,3.64,0.14,-1.155,-0.036356,0.004026,-1.01004,-0.16394,-0.25606,0.34216
-0.988934,0,0,5.98893,5.98893,4.01107,4.01107,0.367269,0.346328,71.6256,-4.78506e-05,-0.00269456,0.00272795,0,0,0,3.675,0.175,-1.0675,-0.034282,0.00305,-1.00992,-0.16394,-0.25606,0.34216
-0.988851,0,0,5.98885,5.98885,4.01115,4.01115,0.371646,0.346855,71.6259,-5.7049e-05,-0.00261817,0.0027274,0,0,0,3.675,0.175,-1.0675,-0.034282,0.00305,-1.00992,-0.16394,-0.25606,0.34216
-0.61589,0,0,5.61589,5.61589,4.38411,4.38411,0.37046,0.346009,71.6283,-0.000892679,0.00078067,0.00580133,0,0,0,3.5875,0.245,-1.3475,-0.035136,0.006466,-1.00687,-0.16394,-0.25606,0.34216
-0.615475,0,0,5.61547,5.61547,4.38453,4.38453,0.369298,0.345178,71.628,-0.000878183,0.00076039,0.00580155,0,0,0,3.5875,0.245,-1.3475,-0.035136,0.006466,-1.00687,-0.1673,-0.25942,0.3346
-0.520178,0,0,5.52018,5.52018,4.47982,4.47982,0.366774,0.34339,71.6285,-0.00157588,0.0014491,-0.00046835,0,0,0,3.535,0.21,-1.2775,-0.035868,0.007198,-1.01309,-0.1673,-0.25942,0.3346
-0.662838,0,0,5.66284,5.66284,4.33716,4.33716,0.366399,0.342812,71.6278,-0.000593906,9.91603e-05,0.0075234,0,0,0,3.4125,0.14,-1.2775,-0.034892,0.005856,-1.00516,-0.1673,-0.25942,0.3346
-0.675922,0,0,5.67592,5.67592,4.32408,4.32408,0.366224,0.342154,71.6272,-0.000582432,9.61098e-05,0.00752349,0,0,0,3.5175,0.0875,-1.1725,-0.034892,0.005856,-1.00516,-0.1673,-0.25942,0.3346
-0.362741,0,0,5.36274,5.36274,4.63726,4.63726,0.361479,0.341211,71.6285,-8.00338e-05,0.00306646,0.00457335,0,0,0,3.5175,-0.035,-1.26,-0.034404,0.008906,-1.00809,-0.1673,-0.25942,0.3346
-0.37799,0,0,5.37799,5.37799,4.62201,4.62201,0.35708,0.340092,71.6298,-6.04992e-05,0.0029897,0.00457395,0,0,0,3.64,-0.1575,-1.3125,-0.034404,0.008906,-1.00809,-0.1673,-0.25942,0.3346
-0.349267,0,0,5.34927,5.34927,4.65073,4.65073,0.352377,0.342802,71.6304,0.00377974,0.00351825,-0.00132735,0,0,0,3.535,-0.1575,-1.365,-0.0305,0.009516,-1.01394,-0.1673,-0.25942,0.3346
-0.323095,0,0,5.32309,5.32309,4.67691,4.67691,0.347414,0.346137,71.631,0.00372155,0.00343163,-0.00132717,0,0,0,3.325,0.2275,-1.4175,-0.0305,0.009516,-1.01394,-0.1673,-0.25942,0.3346
-0.31974,0,0,5.31974,5.31974,4.68026,4.68026,0.342532,0.344782,71.6359,-0.000871272,0.00285793,0.0053127,0,0,0,3.3425,0.175,-1.2425,-0.035136,0.009028,-1.00735,-0.1631,-0.25564,0.33138
-0.0545386,0,0,5.05454,5.05454,4.94546,4.94546,0.333905,0.343117,71.6427,-0.000477742,0.00539414,0.00777274,0,0,0,3.4125,0.035,-1.1025,-0.03477,0.011712,-1.00491,-0.1631,-0.25564,0.33138
-0.0507135,0,0,5.05071,5.05071,4.94929,4.94929,0.325447,0.341569,71.6493,-0.000450732,0.00524654,0.00777375,0,0,0,3.3775,0.07,-1.1725,-0.03477,0.011712,-1.00491,-0.1631,-0.25564,0.33138
-0.160807,0,0,5.16081,5.16081,4.83919,4.83919,0.31882,0.341109,71.6548,0.000529177,0.00427598,0.0076515,0,0,0,3.4475,0,-1.3125,-0.033794,0.010858,-1.00504,-0.1631,-0.25564,0.33138
-0.190925,0,0,5.19093,5.19093,4.80907,4.80907,0.312805,0.341038,71.6602,0.000530425,0.00417101,0.00765208,0,0,0,3.6925,0.21,-1.33,-0.033794,0.010858,-1.00504,-0.1631,-0.25564,0.33138
-0.241752,0,0,5.24175,5.24175,4.75825,4.75825,0.307691,0.340307,71.6653,-0.000550195,0.00334899,0.00310355,0,0,0,3.605,0.4025,-1.295,-0.034892,0.010126,-1.00955,-0.1631,-0.25564,0.33138
-0.227032,0,0,5.22703,5.22703,4.77297,4.77297,0.302495,0.339278,71.6704,-0.000532229,0.00325831,0.00310414,0,0,0,3.4825,0.21,-1.3125,-0.034892,0.010126,-1.00955,-0.1631,-0.25564,0.33138
-0.45349,0,0,5.45349,5.45349,4.54651,4.54651,0.300743,0.337495,71.674,-0.00171597,0.000907321,0.000768459,0,0,0,3.5,0.2275,-1.3825,-0.036112,0.007808,-1.01187,-0.1631,-0.25564,0.33138
-0.468677,0,0,5.46868,5.46868,4.53132,4.53132,0.299258,0.335718,71.6754,-0.00168495,0.000881404,0.000768777,0,0,0,3.6225,0.21,-1.33,-0.036112,0.007808,-1.01187,-0.16548,-0.25704,0.33292
-0.361876,0,0,5.36188,5.36188,4.63812,4.63812,0.296251,0.33575,71.6772,0.000622714,0.00217233,0.00175263,0,0,0,3.64,0.0175,-1.295,-0.033794,0.00915,-1.01089,-0.16548,-0.25704,0.33292
-0.370466,0,0,5.37047,5.37047,4.62953,4.62953,0.293449,0.335971,71.6789,0.000618858,0.00212341,0.00175286,0,0,0,3.71,0.1225,-1.33,-0.033794,0.00915,-1.01089,-0.16548,-0.25704,0.33292
-0.586796,0,0,5.5868,5.5868,4.4132,4.4132,0.293879,0.336396,71.6794,0.000368468,5.47631e-05,0.00249047,0,0,0,3.745,0.1575,-1.2425,-0.034038,0.007076,-1.01016,-0.16548,-0.25704,0.33292
-0.58671,0,0,5.58671,5.58671,4.41329,4.41329,0.294295,0.336693,71.6798,0.000363282,6.20379e-05,0.0024904,0,0,0,3.745,0.0875,-1.295,-0.034038,0.007076,-1.01016,-0.16548,-0.25704,0.33292
-0.372876,0,0,5.37288,5.37288,4.62712,4.62712,0.291578,0.336048,71.6816,-0.000111407,0.0018465,0.00470379,0,0,0,3.5875,0.0175,-1.295,-0.034526,0.008906,-1.00796,-0.16548,-0.25704,0.33292
-0.390191,0,0,5.39019,5.39019,4.60981,4.60981,0.289183,0.335722,71.6833,-0.000105716,0.00180472,0.00470403,0,0,0,3.7275,0.1925,-1.2775,-0.034526,0.008906,-1.00796,-0.16548,-0.25704,0.33292
-0.412869,0,0,5.41287,5.41287,4.58713,4.58713,0.287183,0.336307,71.6846,0.000491512,0.00128129,0.00605658,0,0,0,3.43,0.2975,-1.295,-0.033916,0.008418,-1.00662,-0.16548,-0.25704,0.33292
-0.420678,0,0,5.42068,5.42068,4.57932,4.57932,0.285348,0.336557,71.697,0.000487144,0.00124927,0.00605672,0,0,0,3.5,0.105,-1.4175,-0.033916,0.008418,-1.00662,-0.15932,-0.26376,0.33936
-0.404332,0,0,5.40433,5.40433,4.59567,4.59567,0.283322,0.336041,71.7099,-0.000232768,0.00109179,-0.00144291,0,0,0,3.36,0.105,-1.1375,-0.034648,0.008296,-1.01406,-0.15932,-0.26376,0.33936
-0.39381,0,0,5.39381,5.39381,4.60619,4.60619,0.281195,0.33569,71.7226,-0.000226648,0.00105467,-0.0014427,0,0,0,3.2725,0.1925,-1.1375,-0.034648,0.008296,-1.01406,-0.15932,-0.26376,0.33936
-0.526727,0,0,5.52673,5.52673,4.47327,4.47327,0.281065,0.33512,71.7343,-0.000581155,-0.000168868,0.00322942,0,0,0,3.3425,0.1225,-1.2425,-0.035014,0.007076,-1.00943,-0.15932,-0.26376,0.33936
-0.526886,0,0,5.52689,5.52689,4.47311,4.47311,0.28094,0.334561,71.7458,-0.000571388,-0.00017105,0.00322948,0,0,0,3.3425,0.1225,-1.2425,-0.035014,0.007076,-1.00943,-0.15932,-0.26376,0.33936
-0.783162,0,0,5.78316,5.78316,4.21684,4.21684,0.284561,0.334638,71.7558,-0.000694229,-0.00230614,0.00593403,0,0,0,3.57,0.315,-1.19,-0.035136,0.00488,-1.00674,-0.15932,-0.26376,0.33936
-0.783172,0,0,5.78317,5.78317,4.21683,4.21683,0.288086,0.334703,71.7657,-0.000695355,-0.00224462,0.00593372,0,0,0,3.57,0.315,-1.19,-0.035136,0.00488,-1.00674,-0.15932,-0.26376,0.33936
-0.590155,0,0,5.59015,5.59015,4.40985,4.40985,0.288698,0.337444,71.7763,0.00229395,-3.5649e-05,0.004458,0,0,0,3.57,0.3325,-1.1375,-0.032086,0.007076,-1.00821,-0.15932,-0.26376,0.33936
