pid_x,pid_y,pid_z,front_left_speed,front_right_speed,back_left_speed,back_right_speed,orientation_x,orientation_y,orientation_z,acceleration_x,acceleration_y,acceleration_z,accel_rejected,mag_rejected,gyro_x,gyro_y,gyro_z,accel_x,accel_y,accel_z,mag_x,mag_y,mag_z
-0.0323591,0,0,15.0324,15.0324,14.9676,14.9676,0.0231124,0.0103913,0.156899,0.00447897,-0.0195703,-0.000675897,0,0,3.5175,-0.035,-1.2075,-0.035624,-0.007808,-1.01333,-0.2324,0.08176,0.38206
-0.057833,0,0,15.0578,15.0578,14.9422,14.9422,0.0413058,0.0174703,0.314081,0.00289759,-0.0158333,-0.00940545,0,0,3.3075,-0.0875,-1.2425,-0.037088,-0.004392,-1.02199,-0.2324,0.08176,0.38206
-0.0831575,0,0,15.0832,15.0832,14.9168,14.9168,0.0593916,0.0267057,0.468404,0.00443721,-0.0156397,-0.00522554,0,0,3.325,-0.245,-1.1375,-0.03538,-0.004514,-1.01785,-0.2324,0.08176,0.38206
-0.107633,0,0,15.1076,15.1076,14.8924,14.8924,0.0768702,0.0355172,0.621689,0.00428342,-0.0153347,-0.00522599,0,0,3.185,-0.315,-1.05,-0.03538,-0.004514,-1.01785,-0.2324,0.08176,0.38206
-0.138109,0,0,15.1381,15.1381,14.8619,14.8619,0.0986331,0.0438524,0.774428,0.00340902,-0.018985,-0.00190706,0,0,3.1675,-0.1575,-1.0675,-0.036112,-0.00854,-1.01455,-0.2324,0.08176,0.38206
-0.166946,0,0,15.1669,15.1669,14.8331,14.8331,0.119225,0.0585941,0.92336,0.00740373,-0.0175265,0.00042805,0,0,3.4125,-0.07,-1.12,-0.031842,-0.007442,-1.01223,-0.23772,0.08134,0.37828
-0.191411,0,0,15.1914,15.1914,14.8086,14.8086,0.136692,0.0591252,1.08034,-0.00147399,-0.0151455,-0.00178571,0,0,3.29,0.175,-1.19,-0.040748,-0.005368,-1.01443,-0.23772,0.08134,0.37828
-0.215954,0,0,15.216,15.216,14.784,14.784,0.154215,0.0593529,1.23598,-0.00147797,-0.0148396,-0.00178649,0,0,3.5175,0.035,-1.2425,-0.040748,-0.005368,-1.01443,-0.23772,0.08134,0.37828
-0.24187,0,0,15.2419,15.2419,14.7581,14.7581,0.172717,0.0666156,1.38569,0.00313322,-0.015738,-0.00707434,0,0,3.5175,-0.21,-1.0675,-0.03599,-0.006588,-1.01968,-0.23772,0.08134,0.37828
-0.27001,0,0,15.27,15.27,14.73,14.73,0.192807,0.0768666,1.53217,0.00477659,-0.0172193,-0.0012971,0,0,3.36,-0.175,-1.085,-0.03416,-0.008418,-1.01394,-0.23772,0.08134,0.37828
-0.297945,0,0,15.2979,15.2979,14.7021,14.7021,0.212749,0.0872846,1.67764,0.00459476,-0.0168712,-0.0012986,0,0,3.5,0.1225,-0.9975,-0.03416,-0.008418,-1.01394,-0.23772,0.08134,0.37828
-0.320387,0,0,15.3204,15.3204,14.6796,14.6796,0.228766,0.0953538,1.82277,0.00360353,-0.0137827,-0.000808103,0,0,3.325,-0.0175,-1.0675,-0.035014,-0.005612,-1.01345,-0.23772,0.08134,0.37828
-0.34458,0,0,15.3446,15.3446,14.6554,14.6554,0.246034,0.112472,1.95628,0.00913607,-0.0147026,0.0118538,0,0,3.22,-0.0875,-0.9975,-0.029158,-0.006832,-1.00089,-0.23842,0.0833,0.38248
-0.362507,0,0,15.3625,15.3625,14.6375,14.6375,0.258825,0.116431,2.09699,0.0012919,-0.0113041,-0.00474537,0,0,3.2025,0.035,-1.085,-0.036966,-0.00366,-1.01736,-0.23842,0.0833,0.38248
-0.383351,0,0,15.3834,15.3834,14.6166,14.6166,0.273699,0.124655,2.23351,0.00394252,-0.0127543,0.00324478,0,0,3.3075,-0.1225,-1.1025,-0.03416,-0.005368,-1.00943,-0.23842,0.0833,0.38248
-0.404001,0,0,15.404,15.404,14.596,14.596,0.288434,0.132464,2.36891,0.00380623,-0.0124971,0.00324321,0,0,3.395,-0.21,-1.12,-0.03416,-0.005368,-1.00943,-0.23842,0.0833,0.38248
-0.426984,0,0,15.427,15.427,14.573,14.573,0.304834,0.146005,2.49927,0.00721447,-0.0137985,0.00373295,0,0,3.43,-0.175,-1.155,-0.0305,-0.006954,-1.00894,-0.23842,0.0833,0.38248
-0.449557,0,0,15.4496,15.4496,14.5504,14.5504,0.32094,0.159277,2.62871,0.00698283,-0.0135174,0.00373079,0,0,3.4475,-0.0875,-1.085,-0.0305,-0.006954,-1.00894,-0.23842,0.0833,0.38248
-0.46923,0,0,15.4692,15.4692,14.5308,14.5308,0.334975,0.169069,2.75886,0.00498964,-0.0119291,4.04482e-05,0,0,3.395,-0.07,-1.225,-0.03233,-0.005612,-1.0126,-0.23842,0.0833,0.38248
-0.493479,0,0,15.4935,15.4935,14.5065,14.5065,0.352276,0.181846,2.88588,0.00658893,-0.0148024,0.00544769,0,0,3.255,-0.14,-1.2075,-0.0305,-0.008784,-1.00723,-0.23842,0.0833,0.38248
-0.516979,0,0,15.517,15.517,14.483,14.483,0.369043,0.194012,3.01175,0.0063766,-0.0145098,0.00544515,0,0,3.15,-0.2625,-1.225,-0.0305,-0.008784,-1.00723,-0.23702,0.08358,0.37954
-0.536197,0,0,15.5362,15.5362,14.4638,14.4638,0.382749,0.201653,3.13934,0.00381351,-0.0115838,0.0031071,0,0,3.4125,-0.21,-1.2075,-0.03294,-0.0061,-1.00955,-0.23702,0.08358,0.37954
-0.551746,0,0,15.5517,15.5517,14.4483,14.4483,0.393834,0.206603,3.2677,0.00239078,-0.00931421,-0.00353374,0,0,3.5175,-0.1925,-1.0675,-0.034282,-0.004026,-1.01614,-0.23702,0.08358,0.37954
-0.572131,0,0,15.5721,15.5721,14.4279,14.4279,0.408373,0.218009,3.39076,0.00607925,-0.0119915,0.0047013,0,0,3.5525,-0.175,-1.05,-0.030378,-0.006954,-1.00796,-0.23702,0.08358,0.37954
-0.591979,0,0,15.592,15.592,14.408,14.408,0.422528,0.229573,3.51259,0.00587743,-0.0117445,0.00469872,0,0,3.5,0.1225,-1.2075,-0.030378,-0.006954,-1.00796,-0.23702,0.08358,0.37954
-0.612392,0,0,15.6124,15.6124,14.3876,14.3876,0.437085,0.237194,3.63585,0.00343618,-0.0123453,-0.00391013,0,0,3.4825,0.1225,-1.2075,-0.032696,-0.007808,-1.0165,-0.23702,0.08358,0.37954
-0.626861,0,0,15.6269,15.6269,14.3731,14.3731,0.447396,0.24486,3.75779,0.00390982,-0.00850155,-0.00182195,0,0,3.57,0.0525,-1.155,-0.032086,-0.004148,-1.01443,-0.23702,0.08358,0.37954
-0.640694,0,0,15.6407,15.6407,14.3593,14.3593,0.457252,0.252002,3.88091,0.00378517,-0.00832954,-0.00182385,0,0,3.43,-0.14,-1.19,-0.032086,-0.004148,-1.01443,-0.24262,0.08204,0.38374
-0.653847,0,0,15.6538,15.6538,14.3462,14.3462,0.466622,0.251607,4.00794,-0.000945874,-0.00792176,0.00198626,0,0,3.465,-0.1225,-1.1725,-0.036844,-0.003904,-1.01065,-0.24262,0.08204,0.38374
-0.672922,0,0,15.6729,15.6729,14.3271,14.3271,0.480221,0.263316,4.12614,0.00613891,-0.0117146,0.000262105,0,0,3.255,0,-1.1725,-0.029524,-0.00793,-1.01236,-0.24262,0.08204,0.38374
-0.691617,0,0,15.6916,15.6916,14.3084,14.3084,0.493549,0.274575,4.24359,0.0059424,-0.011482,0.000259206,0,0,3.255,-0.0525,-1.05,-0.029524,-0.00793,-1.01236,-0.24262,0.08204,0.38374
-0.70777,0,0,15.7078,15.7078,14.2922,14.2922,0.505059,0.279543,4.36388,0.00221113,-0.00969348,0.00505203,0,0,3.4125,-0.1225,-1.0675,-0.033184,-0.006344,-1.0076,-0.24262,0.08204,0.38374
-0.718847,0,0,15.7188,15.7188,14.2812,14.2812,0.512944,0.283154,4.48399,0.00190513,-0.00662484,-0.00171167,0,0,3.465,-0.28,-0.91,-0.033428,-0.003416,-1.01431,-0.24262,0.08204,0.38374
-0.729964,0,0,15.73,15.73,14.27,14.27,0.520857,0.286946,4.60274,0.00183894,-0.00648675,-0.00171325,0,0,3.57,-0.105,-1.1375,-0.033428,-0.003416,-1.01431,-0.24262,0.08204,0.38374
-0.744287,0,0,15.7443,15.7443,14.2557,14.2557,0.531059,0.287104,4.72523,-0.000593528,-0.00887336,-0.00663284,0,0,3.4125,-0.175,-1.12,-0.035868,-0.005978,-1.01919,-0.23856,0.08106,0.37968
-0.758332,0,0,15.7583,15.7583,14.2417,14.2417,0.541062,0.287458,4.84693,-0.000721182,-0.00894303,-0.00147066,0,0,3.2025,0.0175,-1.05,-0.03599,-0.006222,-1.01406,-0.23856,0.08106,0.37968
-0.766609,0,0,15.7666,15.7666,14.2334,14.2334,0.546945,0.29431,4.96307,0.00389717,-0.00517657,-0.00442301,0,0,3.2725,-0.07,-1.0675,-0.031232,-0.002562,-1.01699,-0.23856,0.08106,0.37968
-0.774892,0,0,15.7749,15.7749,14.2251,14.2251,0.552832,0.300991,5.07797,0.00378055,-0.00507384,-0.0044246,0,0,3.3425,-0.0525,-1.26,-0.031232,-0.002562,-1.01699,-0.23856,0.08106,0.37968
-0.791661,0,0,15.7917,15.7917,14.2083,14.2083,0.564779,0.304949,5.19371,0.00152474,-0.0101168,0.00626952,0,0,3.3775,-0.1225,-1.2075,-0.033428,-0.007808,-1.00638,-0.23856,0.08106,0.37968
-0.802867,0,0,15.8029,15.8029,14.1971,14.1971,0.572753,0.304039,5.31156,-0.00113207,-0.0071687,-0.000125099,0,0,3.22,-0.175,-1.2075,-0.036112,-0.005002,-1.01272,-0.23856,0.08106,0.37968
-0.813984,0,0,15.814,15.814,14.186,14.186,0.580663,0.303041,5.42865,-0.00111464,-0.00703066,-0.000126396,0,0,3.2725,-0.2275,-1.1025,-0.036112,-0.005002,-1.01272,-0.23856,0.08106,0.37968
-0.827091,0,0,15.8271,15.8271,14.1729,14.1729,0.589993,0.301397,5.54506,-0.00157189,-0.00808909,-0.000496754,0,0,3.395,-0.28,-1.1725,-0.0366,-0.006222,-1.01309,-0.23856,0.08106,0.37968
-0.83955,0,0,15.8396,15.8396,14.1604,14.1604,0.59886,0.300166,5.66497,-0.00155041,-0.00793434,-0.000498247,0,0,3.2375,-0.07,-1.085,-0.0366,-0.006222,-1.01309,-0.23772,0.0784,0.38318
-0.999693,0,0,15.9997,15.9997,14.0003,14.0003,0.71321,0.408139,5.71093,0.0562146,-0.092771,0.040655,0,0,3.255,-0.105,-1.1725,0.023302,-0.092964,-0.972218,-0.23772,0.0784,0.38318
-1.15731,0,0,16.1573,16.1573,13.8427,13.8427,0.82575,0.512397,5.75713,0.054395,-0.0908072,0.040614,0,0,3.5525,-0.35,-0.945,0.023302,-0.092964,-0.972218,-0.23772,0.0784,0.38318
-0.996226,0,0,15.9962,15.9962,14.0038,14.0038,0.710651,0.786605,5.68244,0.188225,0.107471,0.00603817,0,0,3.01,-0.315,-1.4875,0.162504,0.107116,-1.0065,-0.23772,0.0784,0.38318
-0.837904,0,0,15.8379,15.8379,14.1621,14.1621,0.597532,1.05402,5.60748,0.183558,0.105497,0.00598574,0,0,3.01,-0.315,-1.4875,0.162504,0.107116,-1.0065,-0.23772,0.0784,0.38318
-0.816573,0,0,15.8166,15.8166,14.1834,14.1834,0.582265,1.68812,5.27699,0.444501,0.0299974,0.0142071,0,0,3.955,-0.2625,-1.155,0.435662,0.031964,-0.998082,-0.23772,0.0784,0.38318
-0.793828,0,0,15.7938,15.7938,14.2062,14.2062,0.565988,2.30697,4.94796,0.433706,0.0297098,0.0138335,0,0,3.955,-0.2625,-1.155,0.435662,0.031964,-0.998082,-0.23772,0.0784,0.38318
-0.595398,0,0,15.5954,15.5954,14.4046,14.4046,0.424229,2.18371,5.11104,-0.0689171,0.121276,-0.00278183,0,0,3.2725,-0.3675,-1.8025,-0.071248,0.125904,-1.01467,-0.23772,0.0784,0.38318
-0.401175,0,0,15.4012,15.4012,14.5988,14.5988,0.285483,2.06625,5.25763,-0.0668686,0.118857,-0.00269084,0,0,3.2725,-0.3675,-1.8025,-0.071248,0.125904,-1.01467,-0.2387,0.0868,0.39508
-0.250956,0,0,15.251,15.251,14.749,14.749,0.178175,1.54732,5.67744,-0.34683,0.0857213,-0.00584026,0,0,3.71,0.4375,-1.6625,-0.361486,0.094672,-1.01809,-0.2387,0.0868,0.39508
-0.201006,0,0,15.201,15.201,14.799,14.799,0.142488,1.86037,5.54206,0.194394,0.0362476,0.061006,0,0,3.045,0.7525,-1.4525,0.187514,0.045872,-0.9516,-0.2387,0.0868,0.39508
-0.151464,0,0,15.1515,15.1515,14.8485,14.8485,0.107096,2.16538,5.40765,0.189074,0.0356299,0.0608203,0,0,3.0275,0.735,-1.225,0.187514,0.045872,-0.9516,-0.2387,0.0868,0.39508
-0.0698908,0,0,15.0699,15.0699,14.9301,14.9301,0.0488262,2.19871,5.45484,0.0287387,0.0551309,-0.0713701,0,0,3.36,0.8225,-1.295,0.027084,0.066368,-1.08275,-0.2387,0.0868,0.39508
0.00667991,0,0,14.9933,14.9933,15.0067,15.0067,-0.00586684,2.22944,5.50257,0.0282028,0.054177,-0.0713904,0,0,4.7075,-0.245,-0.805,0.027084,0.066368,-1.08275,-0.2387,0.0868,0.39508
-0.0695492,0,0,15.0695,15.0695,14.9305,14.9305,0.0485799,1.94338,5.76667,-0.17552,-0.0479483,0.0975993,0,0,4.5675,0.1575,-0.7875,-0.182512,-0.0366,-0.915244,-0.2387,0.0868,0.39508
-0.142188,0,0,15.1422,15.1422,14.8578,14.8578,0.10046,1.66347,6.02886,-0.170637,-0.047043,0.0977518,0,0,3.78,-0.63,-0.3675,-0.182512,-0.0366,-0.915244,-0.2387,0.0868,0.39508
-0.134262,0,0,15.1343,15.1343,14.8657,14.8657,0.0947931,1.12997,6.4635,-0.336876,-0.00952648,0.0833481,0,0,3.185,-1.4175,-0.315,-0.358802,0.000976,-0.929762,-0.23562,0.0875,0.4032
-0.131261,0,0,15.1313,15.1313,14.8687,14.8687,0.0926441,1.13089,6.46472,0.370762,-0.116425,0.291008,1,0,2.17,0.525,-0.42,0.351848,-0.105774,-0.723704,-0.23562,0.0875,0.4032
-0.128426,0,0,15.1284,15.1284,14.8716,14.8716,0.0906147,1.13143,6.46726,0.370753,-0.11646,0.291008,1,0,2.2225,0.2975,0.35,0.351848,-0.105774,-0.723704,-0.23562,0.0875,0.4032
-0.127328,0,0,15.1273,15.1273,14.8727,14.8727,0.0898257,1.13253,6.46939,0.337325,-0.334104,0.3424,1,0,2.9225,0.63,0.105,0.318298,-0.323178,-0.672708,-0.23562,0.0875,0.4032
-0.125755,0,0,15.1258,15.1258,14.8742,14.8742,0.0886973,1.13157,6.47172,0.337342,-0.334124,0.3424,1,0,2.73,-0.5775,0.2275,0.318298,-0.323178,-0.672708,-0.23562,0.0875,0.4032
-0.124879,0,0,15.1249,15.1249,14.8751,14.8751,0.0880666,1.13044,6.47396,-0.109949,-0.319846,0.251296,1,0,3.01,-0.6825,0.175,-0.130906,-0.308904,-0.76311,-0.23562,0.0875,0.4032
-0.127763,0,0,15.1278,15.1278,14.8722,14.8722,0.0901215,1.12963,6.47626,-0.109934,-0.31981,0.251296,1,0,4.515,-0.49,0.21,-0.130906,-0.308904,-0.76311,-0.23562,0.0875,0.4032
-0.452085,0,0,15.4521,15.4521,14.5479,14.5479,0.321763,0.941086,6.68137,-0.13738,-0.201457,0.0468776,0,0,4.725,-0.525,0.3675,-0.161772,-0.194712,-0.965996,-0.23562,0.0875,0.4032
-0.76907,0,0,15.7691,15.7691,14.2309,14.2309,0.548152,0.753961,6.86423,-0.134115,-0.197506,0.0468959,0,0,4.5325,-0.0875,-0.175,-0.161772,-0.194712,-0.965996,-0.23842,0.098,0.41342
-0.769399,0,0,15.7694,15.7694,14.2306,14.2306,0.548358,0.755093,6.86474,0.193391,-0.135584,0.342095,1,0,3.5,0.6475,-0.84,0.16714,-0.132858,-0.673074,-0.23842,0.098,0.41342
-0.769729,0,0,15.7697,15.7697,14.2303,14.2303,0.548563,0.756225,6.86526,0.193371,-0.13558,0.342095,1,0,3.5,0.6475,-0.84,0.16714,-0.132858,-0.673074,-0.23842,0.098,0.41342
-0.767144,0,0,15.7671,15.7671,14.2329,14.2329,0.546688,0.756655,6.86417,0.341698,-0.219148,0.325743,1,0,2.345,0.2275,-1.7675,0.316102,-0.216306,-0.6893,-0.23842,0.098,0.41342
-0.761235,0,0,15.7612,15.7612,14.2388,14.2388,0.542438,0.756788,6.86294,-0.316635,0.285161,-0.255188,1,0,1.015,0.0525,-1.855,-0.345016,0.287554,-1.26575,-0.23842,0.098,0.41342
-0.7581,0,0,15.7581,15.7581,14.2419,14.2419,0.54017,0.758576,6.86046,-0.316667,0.285122,-0.255188,1,0,2.135,1.015,-2.59,-0.345016,0.287554,-1.26575,-0.23842,0.098,0.41342
-0.757792,0,0,15.7578,15.7578,14.2422,14.2422,0.539921,0.759982,6.85729,-0.126688,0.15603,-0.365965,1,0,3.2725,0.7875,-2.9925,-0.154208,0.1586,-1.37567,-0.23842,0.098,0.41342
-0.763128,0,0,15.7631,15.7631,14.2369,14.2369,0.543703,0.759592,6.85443,-0.126681,0.156096,-0.365966,1,0,5.53,-0.2625,-2.8,-0.154208,0.1586,-1.37567,-0.23842,0.098,0.41342
-0.770033,0,0,15.77,15.77,14.23,14.23,0.548606,0.759863,6.85133,0.139125,0.165096,-0.193101,1,0,6.16,0.1225,-2.94,0.112728,0.167506,-1.20414,-0.23436,0.09744,0.4172
-0.481969,0,0,15.482,15.482,14.518,14.518,0.342828,0.451462,7.12801,-0.192615,0.181046,0.00542268,0,0,6.475,-1.085,-2.555,-0.225822,0.187026,-1.00723,-0.23436,0.09744,0.4172
-0.192998,0,0,15.193,15.193,14.807,14.807,0.136412,0.154294,7.40397,-0.187429,0.177443,0.00546517,0,0,4.0075,0.8225,-3.1325,-0.225822,0.187026,-1.00723,-0.23436,0.09744,0.4172
0.0823027,0,0,14.9177,14.9177,15.0823,15.0823,-0.0602276,-0.25762,7.76406,-0.277064,0.168516,-0.0149485,0,0,2.6425,0.9975,-2.8,-0.323056,0.181536,-1.02748,-0.23436,0.09744,0.4172
0.357188,0,0,14.6428,14.6428,15.3572,15.3572,-0.256561,-0.65795,8.12466,-0.270077,0.165089,-0.0150138,0,0,0.945,1.645,-2.52,-0.323056,0.181536,-1.02748,-0.23436,0.09744,0.4172
0.364151,0,0,14.6358,14.6358,15.3642,15.3642,-0.26152,-0.655538,8.12263,0.0354176,0.0337166,-0.140052,1,0,0.595,1.4,-2.31,-0.016226,0.050386,-1.15156,-0.23436,0.09744,0.4172
0.368448,0,0,14.6316,14.6316,15.3684,15.3684,-0.264575,-0.65695,8.12059,0.0354422,0.0336633,-0.140053,1,0,1.6625,-0.84,-2.3275,-0.016226,0.050386,-1.15156,-0.23436,0.09744,0.4172
0.370478,0,0,14.6295,14.6295,15.3705,15.3705,-0.266011,-0.657972,8.11888,0.173346,0.103251,-0.300009,1,0,2.5725,-0.6125,-2.135,0.122244,0.119926,-1.31028,-0.23758,0.09716,0.42714
0.0691936,0,0,14.9308,14.9308,15.0692,15.0692,-0.0508051,-1.14415,8.51576,-0.368256,-0.220782,0.0133865,0,0,4.445,-0.8925,-1.33,-0.430172,-0.207522,-0.99918,-0.23758,0.09716,0.42714
-0.231286,0,0,15.2313,15.2313,14.7687,14.7687,0.163815,-1.61805,8.90701,-0.359988,-0.217037,0.0131834,0,0,6.37,-0.5425,-0.7525,-0.430172,-0.207522,-0.99918,-0.23758,0.09716,0.42714
-0.517806,0,0,15.5178,15.5178,14.4822,14.4822,0.368452,-1.61947,8.99152,-0.0136074,-0.156922,0.114599,0,0,5.95,-0.315,4.0075,-0.08235,-0.151036,-0.89853,-0.23758,0.09716,0.42714
-0.796039,0,0,15.796,15.796,14.204,14.204,0.567159,-1.62236,9.06861,-0.013557,-0.153456,0.114569,0,0,4.76,-0.875,0.1225,-0.08235,-0.151036,-0.89853,-0.23758,0.09716,0.42714
-0.795688,0,0,15.7957,15.7957,14.2043,14.2043,0.566878,-1.62298,9.07124,0.0259367,-0.191076,0.215386,1,0,3.2725,-0.3675,0.4025,-0.0427,-0.188612,-0.79849,-0.23758,0.09716,0.42714
-0.791971,0,0,15.792,15.792,14.208,14.208,0.564193,-1.6225,9.07388,0.0259283,-0.191123,0.215387,1,0,1.925,0.28,0.4025,-0.0427,-0.188612,-0.79849,-0.23758,0.09716,0.42714
-1.21004,0,0,16.21,16.21,13.79,13.79,0.862767,-1.23066,8.87218,0.218328,-0.231831,0.122543,0,0,1.715,0.5425,0.63,0.15738,-0.234484,-0.890722,-0.23758,0.09716,0.42714
-1.61954,0,0,16.6195,16.6195,13.3805,13.3805,1.1552,-0.850786,8.6682,0.211699,-0.226727,0.122574,0,0,2.205,1.4875,0.6125,0.15738,-0.234484,-0.890722,-0.23296,0.10164,0.42364
-1.61506,0,0,16.6151,16.6151,13.3849,13.3849,1.15194,-0.849867,8.6701,-0.187762,-0.349521,-0.0802897,1,0,1.575,0.5425,-0.035,-0.243756,-0.357094,-1.09202,-0.23296,0.10164,0.42364
-1.94121,0,0,16.9412,16.9412,13.0588,13.0588,1.38483,-0.818822,8.70175,0.0036438,-0.194875,0.0592977,0,0,3.605,-0.4725,-0.21,-0.050996,-0.206668,-0.95343,-0.23296,0.10164,0.42364
-2.27397,0,0,17.274,17.274,12.726,12.726,1.62243,-0.79186,8.73399,0.00317326,-0.19073,0.0591956,0,0,8.8025,-2.03,0.2275,-0.050996,-0.206668,-0.95343,-0.23296,0.10164,0.42364
-2.30927,0,0,17.3093,17.3093,12.6907,12.6907,1.64756,-1.0806,8.99175,-0.176082,-0.0255451,0.0812315,0,0,5.5125,-1.9075,-0.245,-0.23607,-0.04209,-0.93147,-0.23296,0.10164,0.42364
-2.34144,0,0,17.3414,17.3414,12.6586,12.6586,1.67045,-1.35802,9.24682,-0.171241,-0.0251489,0.0811169,0,0,4.515,0.315,-0.5075,-0.23607,-0.04209,-0.93147,-0.23296,0.10164,0.42364
-2.83507,0,0,17.8351,17.8351,12.1649,12.1649,2.02293,-1.2845,9.23878,0.0200311,-0.278032,0.123243,0,0,5.74,0.6825,-0.875,-0.0427,-0.300852,-0.889502,-0.23296,0.10164,0.42364
-3.31215,0,0,18.3122,18.3122,11.6878,11.6878,2.36358,-1.21246,9.23156,0.0187739,-0.272091,0.123042,0,0,2.9225,1.505,-0.945,-0.0427,-0.300852,-0.889502,-0.23296,0.10164,0.42364
-3.30715,0,0,18.3072,18.3072,11.6928,11.6928,2.35988,-1.20973,9.2314,0.242867,-0.152593,-0.128875,1,0,1.3125,1.575,-1.295,0.18239,-0.181414,-1.13948,-0.23072,0.10668,0.43372
-3.30727,0,0,18.3073,18.3073,11.6927,11.6927,2.35984,-1.20791,9.22936,-0.237397,0.145884,-0.21875,1,0,3.3425,0.9975,-2.3625,-0.299876,0.116754,-1.22866,-0.23072,0.10668,0.43372
-3.30806,0,0,18.3081,18.3081,11.6919,11.6919,2.36028,-1.20718,9.22693,-0.23741,0.145892,-0.21875,1,0,3.605,0.35,-2.5725,-0.299876,0.116754,-1.22866,-0.23072,0.10668,0.43372
-3.42479,0,0,18.4248,18.4248,11.5752,11.5752,2.44352,-1.76348,9.6436,-0.406531,-0.102051,0.00740878,0,0,5.4075,0.315,-2.66,-0.47946,-0.13237,-1.00394,-0.23072,0.10668,0.43372
-3.53965,0,0,18.5397,18.5397,11.4603,11.4603,2.52543,-2.30671,10.0544,-0.397056,-0.100638,0.00701047,0,0,5.6175,-0.175,-3.01,-0.47946,-0.13237,-1.00394,-0.23072,0.10668,0.43372
-3.56529,0,0,18.5653,18.5653,11.4347,11.4347,2.54361,-1.85584,9.82119,0.281231,0.00997178,0.0900263,0,0,5.8625,-0.2975,-2.7825,0.209596,-0.022204,-0.921832,-0.23072,0.10668,0.43372
-3.58732,0,0,18.5873,18.5873,11.4127,11.4127,2.55921,-1.41747,9.59074,0.273584,0.0102534,0.0902325,0,0,5.18,-1.05,-1.9775,0.209596,-0.022204,-0.921832,-0.23072,0.10668,0.43372
-3.5889,0,0,18.5889,18.5889,11.4111,11.4111,2.5602,-1.41826,9.58905,0.330939,0.0554575,0.19818,1,0,3.92,-0.525,-2.1,0.26718,0.022936,-0.814716,-0.23072,0.10668,0.43372
-3.58656,0,0,18.5866,18.5866,11.4134,11.4134,2.55839,-1.41828,9.58826,0.330939,0.055426,0.198182,1,0,2.3625,-0.0525,-1.5925,0.26718,0.022936,-0.814716,-0.23786,0.1092,0.43652
-3.583,0,0,18.583,18.583,11.417,11.417,2.55571,-1.41703,9.58708,-0.0263723,0.0445101,-0.137096,1,0,1.8725,0.6825,-1.855,-0.091622,0.012078,-1.14741,-0.23786,0.1092,0.43652
-3.58102,0,0,18.581,18.581,11.419,11.419,2.55416,-1.4148,9.586,-0.0264112,0.0444831,-0.137094,1,0,2.5025,1.26,-1.82,-0.091622,0.012078,-1.14741,-0.23786,0.1092,0.43652
-3.58248,0,0,18.5825,18.5825,11.4175,11.4175,2.55506,-1.413,9.58526,0.0336928,0.190196,0.186629,1,0,3.885,1.015,-1.61,-0.031232,0.157624,-0.826184,-0.23786,0.1092,0.43652
-3.58651,0,0,18.5865,18.5865,11.4135,11.4135,2.55781,-1.4136,9.58469,0.0337033,0.190244,0.186627,1,0,4.9175,-0.385,-1.4525,-0.031232,0.157624,-0.826184,-0.23786,0.1092,0.43652
-3.12805,0,0,18.1281,18.1281,11.8719,11.8719,2.23022,-1.80875,9.93102,-0.212093,0.260733,0.133927,0,0,5.355,-0.455,-1.2425,-0.284992,0.233752,-0.878522,-0.23786,0.1092,0.43652
-2.67781,0,0,17.6778,17.6778,12.3222,12.3222,1.90852,-2.19559,10.2802,-0.205345,0.255116,0.133894,0,0,5.6,-1.4175,-0.525,-0.284992,0.233752,-0.878522,-0.23786,0.1092,0.43652
-2.12214,0,0,17.1221,17.1221,12.8779,12.8779,1.51153,-2.19671,10.3899,0.0364306,0.351637,0.068814,0,0,6.055,-1.1375,-0.4725,-0.042212,0.337086,-0.943304,-0.23786,0.1092,0.43652
-1.57367,0,0,16.5737,16.5737,13.4263,13.4263,1.1197,-2.19201,10.4894,0.0363485,0.344806,0.0689741,0,0,4.4275,-0.7875,0.0175,-0.042212,0.337086,-0.943304,-0.23688,0.1169,0.45038
-1.20933,0,0,16.2093,16.2093,13.7907,13.7907,0.859412,-2.69698,10.9201,-0.297557,0.199082,0.13261,0,0,3.5175,-0.1225,-0.035,-0.386374,0.196054,-0.879864,-0.23688,0.1169,0.45038
-0.849389,0,0,15.8494,15.8494,14.1506,14.1506,0.602281,-3.18816,11.3516,-0.288996,0.194595,0.132227,0,0,3.045,0.6825,-0.0875,-0.386374,0.196054,-0.879864,-0.23688,0.1169,0.45038
-0.849649,0,0,15.8496,15.8496,14.1504,14.1504,0.602434,-3.18832,11.3535,0.157588,0.261279,-0.142686,1,0,3.535,-0.105,0,0.062098,0.262666,-1.15266,-0.23688,0.1169,0.45038
-0.851254,0,0,15.8513,15.8513,14.1487,14.1487,0.603548,-3.18597,11.3545,0.157547,0.261299,-0.142684,1,0,4.0425,1.365,-0.595,0.062098,0.262666,-1.15266,-0.23688,0.1169,0.45038
-0.853902,0,0,15.8539,15.8539,14.1461,14.1461,0.605407,-3.18421,11.3549,-0.408607,0.120885,-0.0376846,1,0,4.445,1.015,-0.875,-0.506422,0.122366,-1.04847,-0.23688,0.1169,0.45038
-0.85652,0,0,15.8565,15.8565,14.1435,14.1435,0.607245,-3.18374,11.3558,-0.408615,0.120917,-0.0376845,1,0,4.445,0.2625,-0.6475,-0.506422,0.122366,-1.04847,-0.23688,0.1169,0.45038
-0.862965,0,0,15.863,15.863,14.137,14.137,0.611816,-3.1844,11.3563,0.394417,-0.227553,-0.191863,1,0,5.9675,-0.4025,-0.8225,0.299998,-0.225822,-1.20146,-0.23688,0.1169,0.45038
-0.86784,0,0,15.8678,15.8678,14.1322,14.1322,0.615265,-3.18524,11.3568,0.394432,-0.227493,-0.191865,1,0,5.3375,-0.5075,-0.84,0.299998,-0.225822,-1.20146,-0.23688,0.1169,0.45038
-0.698418,0,0,15.6984,15.6984,14.3016,14.3016,0.494223,-2.28018,10.7991,0.701563,0.164019,0.134722,0,0,6.2475,-1.05,-1.12,0.624274,0.167384,-0.878156,-0.23114,0.11914,0.45346
-0.213251,0,0,15.2133,15.2133,14.7867,14.7867,0.147667,-2.27171,10.8939,0.033608,0.34202,-0.0414233,0,0,6.335,0.21,-0.665,-0.04636,0.351238,-1.05298,-0.23114,0.11914,0.45346
0.266496,0,0,14.7335,14.7335,15.2665,15.2665,-0.194999,-2.2629,10.9878,0.0334544,0.336045,-0.0414197,0,0,4.9175,0.1575,-1.015,-0.04636,0.351238,-1.05298,-0.23114,0.11914,0.45346
0.26743,0,0,14.7326,14.7326,15.2674,15.2674,-0.195656,-2.26096,10.9874,-0.340998,0.0994736,-0.150105,1,0,3.01,1.12,-1.4,-0.422364,0.114924,-1.16083,-0.23114,0.11914,0.45346
0.268804,0,0,14.7312,14.7312,15.2688,15.2688,-0.196627,-2.26,10.987,-0.341015,0.0994566,-0.150104,1,0,2.835,0.5425,-1.365,-0.422364,0.114924,-1.16083,-0.23114,0.11914,0.45346
0.271051,0,0,14.7289,14.7289,15.2711,15.2711,-0.198222,-2.25896,10.9865,-0.456323,0.107245,-0.306863,1,0,2.485,0.595,-1.3825,-0.538142,0.122732,-1.31638,-0.23114,0.11914,0.45346
0.270963,0,0,14.729,14.729,15.271,15.271,-0.198148,-2.26033,10.9858,-0.456299,0.107246,-0.306864,1,0,3.4125,-0.8225,-1.5925,-0.538142,0.122732,-1.31638,-0.23114,0.11914,0.45346
0.268432,0,0,14.7316,14.7316,15.2684,15.2684,-0.19633,-2.26198,10.9851,-0.0144271,-0.102047,0.329148,1,0,4.3925,-0.98,-1.54,-0.094428,-0.086376,-0.685274,-0.23114,0.11914,0.45346
0.261455,0,0,14.7385,14.7385,15.2615,15.2615,-0.191336,-2.26257,10.9846,-0.0144167,-0.10196,0.329148,1,0,6.1775,-0.3675,-1.4175,-0.094428,-0.086376,-0.685274,-0.23562,0.12194,0.46242
0.253515,0,0,14.7465,14.7465,15.2535,15.2535,-0.185655,-2.26391,10.9849,-0.151551,0.0808405,0.330008,1,0,6.58,-0.805,-0.9625,-0.232166,0.096136,-0.68442,-0.23562,0.12194,0.46242
0.246899,0,0,14.7531,14.7531,15.2469,15.2469,-0.180919,-2.26526,10.9846,-0.151527,0.0809231,0.330007,1,0,6.0375,-0.805,-1.295,-0.232166,0.096136,-0.68442,-0.23562,0.12194,0.46242
0.241751,0,0,14.7582,14.7582,15.2418,15.2418,-0.177232,-2.26562,10.984,0.370382,0.321821,-0.0363797,1,0,5.4425,-0.2275,-1.47,0.291946,0.33672,-1.04798,-0.23562,0.12194,0.46242
0.241477,0,0,14.7585,14.7585,15.2415,15.2415,-0.177027,-2.26568,10.9839,0.370383,0.321825,-0.0363797,1,0,3.5,-0.0525,-1.225,0.291946,0.33672,-1.04798,-0.23562,0.12194,0.46242
0.243778,0,0,14.7562,14.7562,15.2438,15.2438,-0.178661,-2.26496,10.9829,0.0512272,-0.000496078,-0.111255,1,0,2.45,0.4025,-1.715,-0.028548,0.014762,-1.12228,-0.23562,0.12194,0.46242
0.243357,0,0,14.7566,14.7566,15.2434,15.2434,-0.178351,-2.26475,10.9824,0.0512236,-0.000490659,-0.111255,1,0,3.5525,0.105,-1.4,-0.028548,0.014762,-1.12228,-0.23562,0.12194,0.46242
0.112015,0,0,14.888,14.888,15.112,15.112,-0.0845307,-2.18034,10.9601,0.0503588,-0.0794582,0.0166726,0,0,3.0975,0.6825,-1.6275,-0.027938,-0.065758,-0.995398,-0.23562,0.12194,0.46242
-0.0288051,0,0,15.0288,15.0288,14.9712,14.9712,0.0160544,-2.09847,10.9558,0.048931,-0.0777039,0.016727,0,0,7.805,-0.4375,-1.365,-0.027938,-0.065758,-0.995398,-0.23366,0.11102,0.4445
-0.0321461,0,0,15.0321,15.0321,14.9679,14.9679,0.0184397,-2.09961,10.9557,-0.10971,0.00672726,0.129962,1,0,4.725,-0.6825,-1.155,-0.18727,0.018544,-0.883036,-0.23366,0.11102,0.4445
-0.0357057,0,0,15.0357,15.0357,14.9643,14.9643,0.0209812,-2.1002,10.9557,-0.109699,0.00677158,0.129961,1,0,4.8125,-0.3675,-1.155,-0.18727,0.018544,-0.883036,-0.23366,0.11102,0.4445
-0.0389127,0,0,15.0389,15.0389,14.9611,14.9611,0.0232707,-2.10035,10.9557,0.162917,0.166065,-0.249827,1,0,4.6725,-0.105,-1.12,0.086498,0.177632,-1.25989,-0.23366,0.11102,0.4445
-0.0424912,0,0,15.0425,15.0425,14.9575,14.9575,0.0258254,-2.10154,10.9553,0.162938,0.166109,-0.249827,1,0,4.8125,-0.7175,-1.365,0.086498,0.177632,-1.25989,-0.23366,0.11102,0.4445
-0.202444,0,0,15.2024,15.2024,14.7976,14.7976,0.14007,-2.10295,11.0047,-0.0111263,-0.102897,-0.016352,0,0,4.1825,-0.0525,-1.3475,-0.088328,-0.093086,-1.02822,-0.23366,0.11102,0.4445
-0.35818,0,0,15.3582,15.3582,14.6418,14.6418,0.251296,-2.10295,11.0527,-0.0111264,-0.100957,-0.0163586,0,0,3.71,0.91,-1.9425,-0.088328,-0.093086,-1.02822,-0.23366,0.11102,0.4445
-0.375984,0,0,15.376,15.376,14.624,14.624,0.264,-2.00531,11.0454,0.0660148,-0.0093847,-0.0324048,0,0,2.2575,0.63,-1.645,-0.00915,-0.00183,-1.0442,-0.23366,0.11102,0.4445
-0.39505,0,0,15.395,15.395,14.605,14.605,0.277603,-1.90979,11.0441,0.0643486,-0.00914715,-0.032349,0,0,2.94,0.6125,-1.1375,-0.00915,-0.00183,-1.0442,-0.23702,0.10766,0.44184
-0.395031,0,0,15.395,15.395,14.605,14.605,0.277574,-1.9088,11.0434,0.0298294,-0.111246,0.118509,1,0,3.36,0.56,-1.5225,-0.043798,-0.103822,-0.894504,-0.23702,0.10766,0.44184
-0.396959,0,0,15.397,15.397,14.603,14.603,0.278937,-1.90786,11.0422,0.0298131,-0.111222,0.11851,1,0,4.13,0.525,-1.8375,-0.043798,-0.103822,-0.894504,-0.23702,0.10766,0.44184
-0.400626,0,0,15.4006,15.4006,14.5994,14.5994,0.281541,-1.90651,11.0413,-0.308184,-0.222678,0.480963,1,0,4.83,0.77,-1.715,-0.383202,-0.215208,-0.534848,-0.23702,0.10766,0.44184
-0.407788,0,0,15.4078,15.4078,14.5922,14.5922,0.286641,-1.90561,11.0413,-0.308199,-0.222589,0.480963,1,0,6.2475,0.5075,-1.1375,-0.383202,-0.215208,-0.534848,-0.23702,0.10766,0.44184
-0.413809,0,0,15.4138,15.4138,14.5862,14.5862,0.290926,-1.90501,11.0413,0.400416,-0.497666,-0.0190689,1,0,5.7925,0.3325,-1.085,0.328424,-0.490074,-1.03102,-0.23702,0.10766,0.44184
-0.416289,0,0,15.4163,15.4163,14.5837,14.5837,0.292682,-1.90474,11.0415,0.400412,-0.497635,-0.0190689,1,0,4.375,0.14,-1.0675,0.328424,-0.490074,-1.03102,-0.23702,0.10766,0.44184
-0.318311,0,0,15.3183,15.3183,14.6817,14.6817,0.222686,-1.37274,10.7445,0.403886,0.0923603,-0.0186749,0,0,3.3075,0.455,-0.9975,0.341234,0.100528,-1.0309,-0.23702,0.10766,0.44184
-0.220757,0,0,15.2208,15.2208,14.7792,14.7792,0.152996,-0.855889,10.4397,0.394867,0.0911448,-0.0184955,0,0,3.5,-0.945,-0.665,0.341234,0.100528,-1.0309,-0.23212,0.11326,0.43918
-0.288475,0,0,15.2885,15.2885,14.7115,14.7115,0.201356,-0.373955,10.1399,0.355599,-0.0279394,-0.0250471,0,0,2.835,0.0175,-0.7175,0.310246,-0.019276,-1.03749,-0.23212,0.11326,0.43918
-0.352237,0,0,15.3522,15.3522,14.6478,14.6478,0.246887,0.0956877,9.84216,0.347402,-0.0271447,-0.0250303,0,0,2.345,-0.5425,-0.665,0.310246,-0.019276,-1.03749,-0.23212,0.11326,0.43918
-0.350526,0,0,15.3505,15.3505,14.6495,14.6495,0.245651,0.0954466,9.84305,-0.0108549,-0.246139,0.354635,1,0,2.695,-0.1575,-0.6125,-0.049532,-0.238022,-0.660752,-0.23212,0.11326,0.43918
-0.350389,0,0,15.3504,15.3504,14.6496,14.6496,0.245541,0.0940085,9.84445,-0.0108298,-0.246141,0.354635,1,0,3.325,-0.8575,-0.315,-0.049532,-0.238022,-0.660752,-0.23212,0.11326,0.43918
-0.795046,0,0,15.795,15.795,14.205,14.205,0.563122,-0.389304,10.1719,-0.352273,-0.30899,0.113103,0,0,3.5525,-0.63,-0.175,-0.400892,-0.306342,-0.90036,-0.23212,0.11326,0.43918
-1.23811,0,0,16.2381,16.2381,13.7619,13.7619,0.879548,-0.860516,10.4918,-0.34405,-0.303469,0.112944,0,0,5.88,-0.0175,-0.35,-0.400892,-0.306342,-0.90036,-0.23212,0.11326,0.43918
-1.24388,0,0,16.2439,16.2439,13.7561,13.7561,0.883626,-0.86027,10.4934,-0.0874761,0.24202,-0.0754142,1,0,5.6875,0.14,-0.2275,-0.143228,0.23851,-1.08726,-0.23212,0.11326,0.43918
-1.24364,0,0,16.2436,16.2436,13.7564,13.7564,0.883403,-0.861061,10.4944,-0.0874623,0.242016,-0.0754144,1,0,3.2725,-0.4725,-0.5075,-0.143228,0.23851,-1.08726,-0.23212,0.11326,0.43918
-1.2434,0,0,16.2434,16.2434,13.7566,13.7566,0.883186,-0.861578,10.4951,-0.176016,0.676783,-0.246682,1,0,3.2725,-0.315,-0.7175,-0.232166,0.67283,-1.25721,-0.23562,0.10948,0.42784
-1.23997,0,0,16.24,16.24,13.76,13.76,0.880691,-0.862064,10.4957,-0.176008,0.67674,-0.246681,1,0,1.995,-0.2975,-0.77,-0.232166,0.67283,-1.25721,-0.23562,0.10948,0.42784
-1.23874,0,0,16.2387,16.2387,13.7613,13.7613,0.879765,-0.860869,10.4958,0.0889316,0.103461,0.3313,1,0,2.87,0.6825,-1.085,0.033916,0.100162,-0.683688,-0.23562,0.10948,0.42784
-1.23751,0,0,16.2375,16.2375,13.7625,13.7625,0.878839,-0.859673,10.4959,0.0889107,0.103445,0.331301,1,0,2.87,0.6825,-1.085,0.033916,0.100162,-0.683688,-0.23562,0.10948,0.42784
-1.23708,0,0,16.2371,16.2371,13.7629,13.7629,0.878486,-0.859512,10.4953,-0.182734,0.235213,0.254704,1,0,3.185,0.07,-1.54,-0.238876,0.2318,-0.759694,-0.23562,0.10948,0.42784
-1.23666,0,0,16.2367,16.2367,13.7633,13.7633,0.878134,-0.85935,10.4946,-0.182737,0.235207,0.254704,1,0,3.185,0.07,-1.54,-0.238876,0.2318,-0.759694,-0.23562,0.10948,0.42784
-1.3282,0,0,16.3282,16.3282,13.6718,13.6718,0.943473,-0.847164,10.5168,0.00839039,-0.0576117,-0.0223137,0,0,4.795,-4.0075,-2.1525,-0.046726,-0.061854,-1.03456,-0.23562,0.10948,0.42784
-1.41798,0,0,16.418,16.418,13.582,13.582,1.00755,-0.835413,10.539,0.00818533,-0.0564936,-0.0223297,0,0,4.795,-4.0075,-2.1525,-0.046726,-0.061854,-1.03456,-0.23562,0.10948,0.42784
-1.56521,0,0,16.5652,16.5652,13.4348,13.4348,1.11265,-0.74155,10.5243,0.0548986,-0.0883664,0.00569113,0,0,4.795,0.5075,-2.4325,0.00183,-0.095526,-1.00674,-0.23478,0.09842,0.42532
-1.56224,0,0,16.5622,16.5622,13.4378,13.4378,1.11047,-0.74091,10.5222,-0.0466746,-0.0107317,-0.165329,1,0,2.1525,0.3325,-2.3625,-0.100162,-0.017934,-1.17645,-0.23478,0.09842,0.42532
-1.56089,0,0,16.5609,16.5609,13.4391,13.4391,1.10945,-0.741554,10.5201,-0.0466634,-0.0107496,-0.165329,1,0,2.8,-0.42,-2.3625,-0.100162,-0.017934,-1.17645,-0.23478,0.09842,0.42532
-1.55744,0,0,16.5574,16.5574,13.4426,13.4426,1.10692,-0.742088,10.5184,-0.0243007,0.302584,-0.0871332,1,0,1.96,-0.35,-2.0825,-0.077714,0.295118,-1.09885,-0.23478,0.09842,0.42532
-1.5548,0,0,16.5548,16.5548,13.4452,13.4452,1.10498,-0.742783,10.5174,-0.0242886,0.30255,-0.0871327,1,0,2.2925,-0.4375,-1.75,-0.077714,0.295118,-1.09885,-0.23478,0.09842,0.42532
-1.55475,0,0,16.5548,16.5548,13.4452,13.4452,1.10488,-0.742787,10.5161,0.0530979,0.0679425,0.231919,1,0,3.325,-0.035,-1.8725,0,0.060756,-0.782264,-0.23478,0.09842,0.42532
-1.55836,0,0,16.5584,16.5584,13.4416,13.4416,1.1074,-0.743581,10.5155,0.0531117,0.0679864,0.231918,1,0,4.795,-0.49,-1.4525,0,0.060756,-0.782264,-0.23478,0.09842,0.42532
-1.83635,0,0,16.8363,16.8363,13.1637,13.1637,1.30589,-0.213097,10.1945,0.348904,-0.153994,0.0699988,0,0,5.425,-0.0875,-1.12,0.306342,-0.164456,-0.942938,-0.23478,0.09842,0.42532
-2.10453,0,0,17.1045,17.1045,12.8955,12.8955,1.49737,0.306259,9.88611,0.33984,-0.150654,0.0699097,0,0,4.1475,0.3325,-0.9975,0.306342,-0.164456,-0.942938,-0.23464,0.09352,0.42406
-1.70586,0,0,16.7059,16.7059,13.2941,13.2941,1.21254,-0.341427,10.3912,-0.451512,0.247273,0.055147,0,0,3.5,0.35,-0.7175,-0.499712,0.238022,-0.9577,-0.23464,0.09352,0.42406
-1.3092,0,0,16.3092,16.3092,13.6908,13.6908,0.929167,-0.975298,10.8989,-0.44045,0.242326,0.0551124,0,0,2.2225,-0.1925,-0.21,-0.499712,0.238022,-0.9577,-0.23464,0.09352,0.42406
-1.30685,0,0,16.3069,16.3069,13.6931,13.6931,0.927439,-0.976154,10.9002,-0.00733846,0.112597,0.227855,1,0,2.4325,-0.5075,-0.35,-0.064782,0.108458,-0.78629,-0.23464,0.09352,0.42406
-1.30435,0,0,16.3044,16.3044,13.6956,13.6956,0.925606,-0.976007,10.9023,-0.00734104,0.112565,0.227856,1,0,2.38,0.0875,0.07,-0.064782,0.108458,-0.78629,-0.23464,0.09352,0.42406
-1.6924,0,0,16.6924,16.6924,13.3076,13.3076,1.20272,-1.13689,11.0489,-0.127356,-0.24605,0.0949299,0,0,2.485,0.0875,0.0175,-0.188124,-0.254614,-0.91805,-0.23464,0.09352,0.42406
-2.07765,0,0,17.0777,17.0777,12.9223,12.9223,1.47782,-1.29397,11.193,-0.124615,-0.241253,0.0947594,0,0,4.1125,0.3675,0.035,-0.188124,-0.254614,-0.91805,-0.23464,0.09352,0.42406
-2.41089,0,0,17.4109,17.4109,12.5891,12.5891,1.71575,-1.10953,11.1148,0.100196,-0.190082,0.0858589,0,0,4.795,-0.4025,0.1925,0.04087,-0.207644,-0.926834,-0.23464,0.09352,0.42406
-2.73347,0,0,17.7335,17.7335,12.2665,12.2665,1.94606,-0.930259,11.0296,0.0970672,-0.186063,0.0857862,0,0,3.465,0.84,-0.5075,0.04087,-0.207644,-0.926834,-0.2324,0.09842,0.42588
-2.73536,0,0,17.7354,17.7354,12.2646,12.2646,1.94731,-0.930472,11.0306,0.280393,0.0192536,-0.269413,1,0,4.095,-0.1225,-0.525,0.224968,-0.002562,-1.27929,-0.2324,0.09842,0.42588
-2.73475,0,0,17.7348,17.7348,12.2652,12.2652,1.94677,-0.930837,11.0318,0.280399,0.0192442,-0.269413,1,0,3.0975,-0.21,-0.4725,0.224968,-0.002562,-1.27929,-0.2324,0.09842,0.42588
-2.92543,0,0,17.9254,17.9254,12.0746,12.0746,2.08286,-0.377581,10.7023,0.350438,-0.090735,0.116058,0,0,3.1675,-0.2975,-0.7875,0.305,-0.114802,-0.896822,-0.2324,0.09842,0.42588
-3.10966,0,0,18.1097,18.1097,11.8903,11.8903,2.21433,0.162666,10.3759,0.341009,-0.0884413,0.115989,0,0,2.7825,-0.1925,-1.19,0.305,-0.114802,-0.896822,-0.2324,0.09842,0.42588
-3.10787,0,0,18.1079,18.1079,11.8921,11.8921,2.21294,0.162977,10.3749,0.216603,-0.1295,-0.106915,1,0,2.6075,0.14,-1.75,0.180072,-0.155794,-1.11801,-0.2324,0.09842,0.42588
-3.10936,0,0,18.1094,18.1094,11.8906,11.8906,2.21388,0.163232,10.3737,0.216598,-0.129484,-0.106916,1,0,3.92,0.105,-1.8025,0.180072,-0.155794,-1.11801,-0.2324,0.09842,0.42588
-2.93291,0,0,17.9329,17.9329,12.0671,12.0671,2.08773,0.158015,10.4284,0.00566852,0.120508,-0.05249,0,0,4.1125,0.1925,-2.0475,-0.031842,0.096136,-1.06408,-0.2324,0.09842,0.42588
-2.76298,0,0,17.763,17.763,12.237,12.237,1.96625,0.151287,10.4892,0.00578593,0.118389,-0.0524146,0,0,5.4775,-0.42,-2.5375,-0.031842,0.096136,-1.06408,-0.23366,0.0938,0.42588
-2.77218,0,0,17.7722,17.7722,12.2278,12.2278,1.97272,0.108734,10.5627,-0.0302815,-0.0069224,-0.0393843,0,0,4.9,-0.105,-2.695,-0.068808,-0.029158,-1.05115,-0.23366,0.0938,0.42588
-2.78022,0,0,17.7802,17.7802,12.2198,12.2198,1.97835,0.0675603,10.6354,-0.0295629,-0.00682405,-0.0393866,0,0,4.48,0.07,-2.8875,-0.068808,-0.029158,-1.05115,-0.23366,0.0938,0.42588
-2.78078,0,0,17.7808,17.7808,12.2192,12.2192,1.97864,0.0682144,10.6329,-0.243875,-0.215167,-0.113894,1,0,3.5525,0.315,-2.5725,-0.284016,-0.23729,-1.12508,-0.23366,0.0938,0.42588
-2.78002,0,0,17.78,17.78,12.22,12.22,1.978,0.0678451,10.6307,-0.243869,-0.215178,-0.113893,1,0,3.0275,-0.28,-2.4325,-0.284016,-0.23729,-1.12508,-0.23366,0.0938,0.42588
-2.77756,0,0,17.7776,17.7776,12.2224,12.2224,1.97613,0.0668128,10.6286,-0.305444,0.0788702,-0.0831549,1,0,2.345,-0.665,-2.3275,-0.34587,0.056486,-1.09458,-0.23366,0.0938,0.42588
-2.77641,0,0,17.7764,17.7764,12.2236,12.2236,1.97521,0.0655508,10.6271,-0.305422,0.078854,-0.0831543,1,0,2.87,-0.7875,-1.9775,-0.34587,0.056486,-1.09458,-0.23366,0.0938,0.42588
-2.77701,0,0,17.777,17.777,12.223,12.223,1.97553,0.0646347,10.626,-0.266652,0.36598,-0.0364341,1,0,3.57,-0.5775,-1.7675,-0.306952,0.343308,-1.04822,-0.23366,0.0938,0.42588
-2.78141,0,0,17.7814,17.7814,12.2186,12.2186,1.97857,0.063635,10.6256,-0.266634,0.366033,-0.0364359,1,0,5.0925,-0.6125,-1.365,-0.306952,0.343308,-1.04822,-0.2366,0.09394,0.41594
-2.6606,0,0,17.6606,17.6606,12.3394,12.3394,1.89217,0.492536,10.3973,0.317515,0.107081,-0.0101103,0,0,4.97,-0.385,-0.9275,0.287188,0.086132,-1.02212,-0.2366,0.09394,0.41594
-2.54072,0,0,17.5407,17.5407,12.4593,12.4593,1.80645,0.912119,10.1692,0.310193,0.105583,-0.0101517,0,0,4.9525,-0.0875,-0.875,0.287188,0.086132,-1.02212,-0.2366,0.09394,0.41594
-2.44263,0,0,17.4426,17.4426,12.5574,12.5574,1.73629,0.773238,10.3058,-0.0918095,0.0606391,-0.0229878,0,0,4.5325,0.3675,-0.6825,-0.11895,0.042456,-1.03493,-0.2366,0.09394,0.41594
-2.34686,0,0,17.3469,17.3469,12.6531,12.6531,1.66779,0.636271,10.4428,-0.0894192,0.0594451,-0.0229229,0,0,4.6725,-0.6125,0.035,-0.11895,0.042456,-1.03493,-0.2366,0.09394,0.41594
-2.59256,0,0,17.5926,17.5926,12.4074,12.4074,1.84319,0.0414414,10.8575,-0.411423,-0.181869,0.130238,0,0,4.1475,-0.56,-0.1575,-0.452742,-0.201666,-0.882914,-0.2366,0.09394,0.41594
-2.83223,0,0,17.8322,17.8322,12.1678,12.1678,2.01428,-0.538139,11.2653,-0.401307,-0.178886,0.130094,0,0,3.4825,0.21,-0.035,-0.452742,-0.201666,-0.882914,-0.2366,0.09394,0.41594
-2.83132,0,0,17.8313,17.8313,12.1687,12.1687,2.01352,-0.538462,11.2677,-0.334241,0.353451,-0.0933028,1,0,2.975,-0.1575,0.2975,-0.385398,0.330132,-1.10459,-0.2366,0.09394,0.41594
-2.83368,0,0,17.8337,17.8337,12.1663,12.1663,2.0151,-0.539297,11.2703,-0.334227,0.353479,-0.0933039,1,0,4.2875,-0.455,0.3675,-0.385398,0.330132,-1.10459,-0.2366,0.09394,0.41594
-2.83701,0,0,17.837,17.837,12.163,12.163,2.01736,-0.540608,11.2728,-0.0697295,0.148956,-0.131543,1,0,4.6725,-0.735,0.3325,-0.119804,0.125782,-1.14253,-0.2331,0.09338,0.41552
-2.83124,0,0,17.8312,17.8312,12.1688,12.1688,2.01314,-0.636286,11.3932,-0.0617425,0.00184098,0.044997,0,0,4.1475,0.14,-0.0175,-0.11346,-0.021106,-0.967338,-0.2331,0.09338,0.41552
-2.82741,0,0,17.8274,17.8274,12.1726,12.1726,2.0103,-0.729535,11.5122,-0.0601151,0.00179068,0.0449793,0,0,4.83,0.1225,-0.2975,-0.11346,-0.021106,-0.967338,-0.2331,0.09338,0.41552
-2.83187,0,0,17.8319,17.8319,12.1681,12.1681,2.01337,-0.729631,11.5141,0.216631,-0.307136,0.228785,1,0,5.1275,-0.035,-0.0175,0.164456,-0.329766,-0.784948,-0.2331,0.09338,0.41552
-2.8366,0,0,17.8366,17.8366,12.1634,12.1634,2.01665,-0.72985,11.5153,0.216635,-0.307079,0.228783,1,0,5.2325,-0.1225,-0.4375,0.164456,-0.329766,-0.784948,-0.2331,0.09338,0.41552
-2.6272,0,0,17.6272,17.6272,12.3728,12.3728,1.86697,-0.774252,11.6182,-0.0166932,0.135462,0.0237836,0,0,4.9875,0.175,-0.6475,-0.070638,0.114924,-0.988444,-0.2331,0.09338,0.41552
-2.4232,0,0,17.4232,17.4232,12.5768,12.5768,1.72116,-0.817043,11.7202,-0.0159464,0.132918,0.0238529,0,0,5.565,0.28,-0.9975,-0.070638,0.114924,-0.988444,-0.2331,0.09338,0.41552
-2.4289,0,0,17.4289,17.4289,12.5711,12.5711,1.72514,-0.816648,11.72,0.158014,0.176953,-0.365527,1,0,5.6175,0.21,-1.2425,0.104066,0.158844,-1.37482,-0.2331,0.09338,0.41552
-2.43503,0,0,17.435,17.435,12.565,12.565,1.72943,-0.817511,11.72,0.158029,0.177028,-0.365529,1,0,5.7925,-0.525,-1.155,0.104066,0.158844,-1.37482,-0.2366,0.0966,0.41314
-2.44259,0,0,17.4426,17.4426,12.5574,12.5574,1.73473,-0.818072,11.7189,-0.138872,0.161488,-0.127012,1,0,6.3525,-0.3675,-1.785,-0.194102,0.143228,-1.13814,-0.2366,0.0966,0.41314
-2.45028,0,0,17.4503,17.4503,12.5497,12.5497,1.74014,-0.818557,11.7172,-0.138864,0.161583,-0.127015,1,0,6.405,-0.3325,-2.1175,-0.194102,0.143228,-1.13814,-0.2366,0.0966,0.41314
-2.45808,0,0,17.4581,17.4581,12.5419,12.5419,1.74561,-0.819177,11.715,0.111408,0.243625,-0.305908,1,0,6.44,-0.42,-2.38,0.057218,0.22509,-1.31565,-0.2366,0.0966,0.41314
-2.4675,0,0,17.4675,17.4675,12.5325,12.5325,1.75225,-0.820048,11.7123,0.111423,0.243741,-0.305912,1,0,7.0875,-0.5775,-2.7125,0.057218,0.22509,-1.31565,-0.2366,0.0966,0.41314
-2.16968,0,0,17.1697,17.1697,12.8303,12.8303,1.53944,-0.95688,11.8745,-0.0656235,0.177865,0.113781,0,0,6.86,-0.385,-3.0975,-0.122976,0.162992,-0.899262,-0.2366,0.0966,0.41314
-1.87236,0,0,16.8724,16.8724,13.1276,13.1276,1.327,-1.08922,12.0365,-0.0633141,0.174158,0.113832,0,0,4.8475,0.07,-3.185,-0.122976,0.162992,-0.899262,-0.2366,0.0966,0.41314
-2.12483,0,0,17.1248,17.1248,12.8752,12.8752,1.50725,-1.29567,12.2001,-0.154349,-0.169417,0.0525741,0,0,4.865,0.0875,-3.2725,-0.218014,-0.183366,-0.959896,-0.2366,0.0966,0.41314
-2.3761,0,0,17.3761,17.3761,12.6239,12.6239,1.68664,-1.4971,12.3687,-0.150834,-0.166291,0.0524012,0,0,5.9675,-0.5425,-3.325,-0.218014,-0.183366,-0.959896,-0.23688,0.09156,0.41076
-2.38208,0,0,17.3821,17.3821,12.6179,12.6179,1.69082,-1.49835,12.3655,0.313384,0.1805,-0.0923119,1,0,5.6875,-0.805,-2.9225,0.248148,0.162992,-1.10349,-0.23688,0.09156,0.41076
-2.39202,0,0,17.392,17.392,12.608,12.608,1.69783,-1.49971,12.363,0.313408,0.180622,-0.0923161,1,0,7.28,-0.8575,-2.59,0.248148,0.162992,-1.10349,-0.23688,0.09156,0.41076
-2.2533,0,0,17.2533,17.2533,12.7467,12.7467,1.59866,-1.2931,12.3039,0.164992,0.116,-0.0771788,0,0,7.28,-0.42,-2.5025,0.102724,0.100162,-1.08861,-0.23688,0.09156,0.41076
-2.11645,0,0,17.1165,17.1165,12.8835,12.8835,1.50083,-1.09095,12.2458,0.161465,0.114295,-0.0770593,0,0,7.175,-0.245,-1.82,0.102724,0.100162,-1.08861,-0.23688,0.09156,0.41076
-1.87081,0,0,16.8708,16.8708,13.1292,13.1292,1.3253,-1.16673,12.3769,-0.0335339,0.160694,0.0298324,0,0,7.21,-0.385,-1.54,-0.094428,0.149572,-0.982588,-0.23688,0.09156,0.41076
-1.62895,0,0,16.629,16.629,13.371,13.371,1.15248,-1.24127,12.5089,-0.0322333,0.157678,0.0298703,0,0,6.895,-0.945,-0.735,-0.094428,0.149572,-0.982588,-0.23688,0.09156,0.41076
-1.67196,0,0,16.672,16.672,13.328,13.328,1.18314,-1.03016,12.4297,0.136228,-0.0088547,0.0773905,0,0,6.685,-0.8575,-0.315,0.078446,-0.017324,-0.935496,-0.23688,0.09156,0.41076
-1.71605,0,0,16.716,16.716,13.284,13.284,1.21457,-0.823638,12.353,0.132624,-0.00830524,0.0774374,0,0,7.7,-0.2275,0.4725,0.078446,-0.017324,-0.935496,-0.23436,0.09142,0.40936
-1.72757,0,0,16.7276,16.7276,13.2724,13.2724,1.22273,-0.824676,12.3569,-0.0295411,-0.294916,0.49927,1,0,7.9975,-0.5775,1.155,-0.084424,-0.30378,-0.516914,-0.23436,0.09142,0.40936
-1.73808,0,0,16.7381,16.7381,13.2619,13.2619,1.23017,-0.824532,12.3614,-0.0295436,-0.294787,0.499268,1,0,7.595,0.1225,1.505,-0.084424,-0.30378,-0.516914,-0.23436,0.09142,0.40936
-1.90976,0,0,16.9098,16.9098,13.0902,13.0902,1.35273,-0.488966,12.1876,0.237821,-0.0972439,-0.0420557,0,0,6.72,0.28,1.9425,0.189954,-0.10858,-1.05408,-0.23436,0.09142,0.40936
-2.07741,0,0,17.0774,17.0774,12.9226,12.9226,1.4724,-0.162713,12.0159,0.232127,-0.0951551,-0.0420748,0,0,6.7725,-0.245,1.9425,0.189954,-0.10858,-1.05408,-0.23436,0.09142,0.40936
-2.40062,0,0,17.4006,17.4006,12.5994,12.5994,1.70317,0.104312,11.8668,0.174378,-0.201287,-0.00296347,0,0,7.0875,-1.0675,2.31,0.13664,-0.218624,-1.01516,-0.23436,0.09142,0.40936
-2.64282,0,0,17.6428,17.6428,12.3572,12.3572,1.87607,0.0466574,11.9345,-0.0499721,-0.145634,0.0665325,0,0,7.6475,-0.49,1.8725,-0.08967,-0.166042,-0.94611,-0.23436,0.09142,0.40936
-2.88128,0,0,17.8813,17.8813,12.1187,12.1187,2.04629,-0.00876566,11.9998,-0.0490048,-0.142665,0.0664311,0,0,7.91,0.175,0.945,-0.08967,-0.166042,-0.94611,-0.23436,0.09142,0.40936
-2.89373,0,0,17.8937,17.8937,12.1063,12.1063,2.05507,-0.00877824,12.0027,-0.0384354,0.166102,-0.25988,1,0,8.3125,0.035,0.56,-0.079056,0.142252,-1.2699,-0.23688,0.091,0.40642
-2.90955,0,0,17.9095,17.9095,12.0905,12.0905,2.06626,-0.00935784,12.0039,-0.0384252,0.166297,-0.259887,1,0,9.66,-0.3325,-0.42,-0.079056,0.142252,-1.2699,-0.23688,0.091,0.40642
-2.92514,0,0,17.9251,17.9251,12.0749,12.0749,2.07729,-0.0102721,12.0027,0.144913,0.00687009,-0.191288,1,0,9.5725,-0.5775,-1.7675,0.105042,-0.017202,-1.20182,-0.23688,0.091,0.40642
-2.93886,0,0,17.9389,17.9389,12.0611,12.0611,2.08698,-0.0110552,12.0005,-0.148705,0.149072,-0.204696,1,0,8.82,-0.525,-2.4325,-0.189832,0.124684,-1.21512,-0.23688,0.091,0.40642
-2.95412,0,0,17.9541,17.9541,12.0459,12.0459,2.09776,-0.0121305,11.9964,-0.148686,0.149261,-0.204703,1,0,9.4325,-0.735,-3.4825,-0.189832,0.124684,-1.21512,-0.23688,0.091,0.40642
-2.92712,0,0,17.9271,17.9271,12.0729,12.0729,2.07837,-0.131869,12.1154,-0.0809938,0.0214219,-0.0195327,0,0,9.52,-0.525,-4.0425,-0.123952,-0.002684,-1.03139,-0.23688,0.091,0.40642
-2.89901,0,0,17.899,17.899,12.101,12.101,2.05818,-0.248619,12.2326,-0.0789561,0.0210695,-0.0195267,0,0,8.8025,-0.5775,-4.5675,-0.123952,-0.002684,-1.03139,-0.23688,0.091,0.40642
-2.91552,0,0,17.9155,17.9155,12.0845,12.0845,2.06986,-0.249697,12.2261,0.0474078,0.48621,-0.172605,1,0,9.9225,-0.7875,-4.9175,0.002928,0.46177,-1.18328,-0.23688,0.091,0.40642
-2.92972,0,0,17.9297,17.9297,12.0703,12.0703,2.07989,-0.250929,12.2197,0.0474293,0.486385,-0.172611,1,0,8.995,-0.875,-4.83,0.002928,0.46177,-1.18328,-0.24164,0.08946,0.40684
-2.53695,0,0,17.5369,17.5369,12.4631,12.4631,1.79924,0.0485093,12.0968,0.20876,0.263738,0.155221,0,0,10.08,-0.91,-4.69,0.17019,0.244244,-0.858148,-0.24164,0.08946,0.40684
-2.1476,0,0,17.1476,17.1476,12.8524,12.8524,1.52106,0.341261,11.9745,0.203651,0.258884,0.155345,0,0,8.96,-1.225,-3.3775,0.17019,0.244244,-0.858148,-0.24164,0.08946,0.40684
-1.98572,0,0,16.9857,16.9857,13.0143,13.0143,1.40535,0.61736,11.8443,0.214747,0.1395,-0.0331242,0,0,9.38,-0.8225,-3.01,0.186172,0.127002,-1.04517,-0.24164,0.08946,0.40684
-1.82522,0,0,16.8252,16.8252,13.1748,13.1748,1.29064,0.888348,11.7153,0.210017,0.137498,-0.0331392,0,0,9.0125,-0.14,-2.17,0.186172,0.127002,-1.04517,-0.24164,0.08946,0.40684
-1.94468,0,0,16.9447,16.9447,13.0553,13.0553,1.37589,1.32666,11.4544,0.285708,-0.0440866,0.0858154,0,0,8.96,-0.2975,-1.4525,0.269864,-0.055876,-0.926956,-0.24164,0.08946,0.40684
-2.06303,0,0,17.063,17.063,12.937,12.937,1.46035,1.75473,11.198,0.27824,-0.0426185,0.0855782,0,0,9.9225,-0.1575,-0.1925,0.269864,-0.055876,-0.926956,-0.24164,0.08946,0.40684
-2.08105,0,0,17.081,17.081,12.919,12.919,1.47314,1.75371,11.2005,0.0693019,0.208087,0.24307,1,0,10.5175,-0.5775,0.35,0.060024,0.194346,-0.770674,-0.24164,0.08946,0.40684
-2.09797,0,0,17.098,17.098,12.902,12.902,1.48515,1.75213,11.2049,0.0693294,0.208296,0.243065,1,0,10.045,-0.875,1.4525,0.060024,0.194346,-0.770674,-0.23772,0.08148,0.40488
-2.11578,0,0,17.1158,17.1158,12.8842,12.8842,1.49779,1.75114,11.2096,-0.352938,-0.0864196,0.209126,1,0,10.395,-0.525,1.645,-0.364048,-0.100284,-0.804346,-0.23772,0.08148,0.40488
-2.13558,0,0,17.1356,17.1356,12.8644,12.8644,1.51185,1.74919,11.2158,-0.352904,-0.0861744,0.209121,1,0,11.165,-1.0675,2.485,-0.364048,-0.100284,-0.804346,-0.23772,0.08148,0.40488
-2.21057,0,0,17.2106,17.2106,12.7894,12.7894,1.56533,1.45703,11.446,-0.197772,-0.047745,0.0577661,0,0,11.3225,-0.6125,2.275,-0.213378,-0.06283,-0.95465,-0.23772,0.08148,0.40488
-2.28431,0,0,17.2843,17.2843,12.7157,12.7157,1.61792,1.17199,11.674,-0.192798,-0.0468246,0.0578546,0,0,11.3225,-0.6125,2.275,-0.213378,-0.06283,-0.95465,-0.23772,0.08148,0.40488
-2.3013,0,0,17.3013,17.3013,12.6987,12.6987,1.62997,1.17074,11.678,-0.102391,0.0959075,-0.160753,1,0,10.0975,-0.6825,1.225,-0.12261,0.079544,-1.17157,-0.23772,0.08148,0.40488
-2.31829,0,0,17.3183,17.3183,12.6817,12.6817,1.64201,1.16949,11.682,-0.102369,0.0961177,-0.160759,1,0,10.0975,-0.6825,1.225,-0.12261,0.079544,-1.17157,-0.23772,0.08148,0.40488
-2.33398,0,0,17.334,17.334,12.666,12.666,1.65313,1.16736,11.6847,0.164937,-0.163818,0.180295,1,0,9.59,-1.225,0.455,0.14579,-0.180316,-0.833138,-0.23772,0.08148,0.40488
-2.34966,0,0,17.3497,17.3497,12.6503,12.6503,1.66425,1.16522,11.6874,0.164974,-0.163624,0.180291,1,0,9.59,-1.225,0.455,0.14579,-0.180316,-0.833138,-0.24024,0.08708,0.40684
-2.37136,0,0,17.3714,17.3714,12.6286,12.6286,1.67965,1.16458,11.6876,0.0874773,0.0603804,-0.151063,1,0,12.0225,-0.385,-0.9625,0.067954,0.043188,-1.16193,-0.24024,0.08708,0.40684
-2.4116,0,0,17.4116,17.4116,12.5884,12.5884,1.70831,1.30142,11.6298,0.0890987,-0.00287146,0.048662,0,0,12.2325,-0.4725,-1.435,0.07198,-0.020496,-0.963678,-0.24024,0.08708,0.40684
-2.4508,0,0,17.4508,17.4508,12.5492,12.5492,1.73622,1.43484,11.5725,0.0867707,-0.00238638,0.0485917,0,0,12.2325,-0.4725,-1.435,0.07198,-0.020496,-0.963678,-0.24024,0.08708,0.40684
-2.10516,0,0,17.1052,17.1052,12.8948,12.8948,1.48925,1.67042,11.467,0.18568,0.266135,0.0327413,0,0,13.6675,-0.8225,-2.4675,0.175436,0.252052,-0.979416,-0.24024,0.08708,0.40684
-1.76505,0,0,16.765,16.765,13.235,13.235,1.24624,1.90113,11.3607,0.181656,0.261894,0.032717,0,0,13.6675,-0.8225,-2.4675,0.175436,0.252052,-0.979416,-0.24024,0.08708,0.40684
-1.68285,0,0,16.6829,16.6829,13.3171,13.3171,1.18747,1.97137,11.3424,0.0540854,0.0771891,0.0183124,0,0,14.77,-1.12,-2.5025,0.048556,0.068564,-0.99369,-0.24024,0.08708,0.40684
-1.60204,0,0,16.602,16.602,13.398,13.398,1.12969,2.04001,11.3242,0.0528881,0.0761806,0.0182909,0,0,14.77,-1.12,-2.5025,0.048556,0.068564,-0.99369,-0.24024,0.08708,0.40684
-1.62914,0,0,16.6291,16.6291,13.3709,13.3709,1.14898,2.03836,11.3214,-0.0270208,-0.0578223,-0.202407,1,0,14.2625,-1.015,-2.765,-0.03172,-0.065636,-1.21268,-0.2387,0.08736,0.40446
-1.65118,0,0,16.6512,16.6512,13.3488,13.3488,1.16466,2.03664,11.3195,-0.193912,0.16289,-0.16479,1,0,12.215,-1.05,-2.205,-0.199348,0.154574,-1.17535,-0.2387,0.08736,0.40446
-1.75481,0,0,16.7548,16.7548,13.2452,13.2452,1.23861,2.31301,11.1531,0.203871,-0.0423408,-0.0361496,0,0,13.16,-0.875,-2.1175,0.20496,-0.051728,-1.04749,-0.2387,0.08736,0.40446
-1.85609,0,0,16.8561,16.8561,13.1439,13.1439,1.31089,2.58215,10.9883,0.199178,-0.0410853,-0.0363782,0,0,13.265,-1.155,-1.9425,0.20496,-0.051728,-1.04749,-0.2387,0.08736,0.40446
-1.88223,0,0,16.8822,16.8822,13.1178,13.1178,1.32948,2.57934,10.9872,0.18963,-0.0275714,-0.0821203,1,0,13.8425,-1.68,-1.7325,0.195322,-0.038552,-1.09288,-0.2387,0.08736,0.40446
-1.90764,0,0,16.9076,16.9076,13.0924,13.0924,1.34756,2.57837,10.9864,0.189647,-0.0272562,-0.0821269,1,0,13.545,-0.595,-1.61,0.195322,-0.038552,-1.09288,-0.2387,0.08736,0.40446
-1.93558,0,0,16.9356,16.9356,13.0644,13.0644,1.36745,2.57783,10.9856,0.143613,-0.0849197,0.198926,1,0,14.56,-0.35,-1.5925,0.149084,-0.096502,-0.813984,-0.2387,0.08736,0.40446
-1.96544,0,0,16.9654,16.9654,13.0346,13.0346,1.3887,2.57607,10.9852,0.143644,-0.0845493,0.198918,1,0,15.3125,-1.05,-1.3475,0.149084,-0.096502,-0.813984,-0.2387,0.08736,0.40446
-1.99789,0,0,16.9979,16.9979,13.0021,13.0021,1.41181,2.57348,10.9851,-0.0340445,-0.00806154,0.204812,1,0,16.345,-1.54,-1.155,-0.029402,-0.020496,-0.808128,-0.23968,0.08302,0.40264
-1.91154,0,0,16.9115,16.9115,13.0885,13.0885,1.35005,2.67573,10.9451,0.0803131,0.0835543,-0.0111415,0,0,14.5425,-1.5225,-0.7875,0.08723,0.072102,-1.02236,-0.23968,0.08302,0.40264
-1.83113,0,0,16.8311,16.8311,13.1689,13.1689,1.29255,2.77566,10.906,0.078571,0.0825502,-0.0112013,0,0,16.345,-1.4875,-0.2975,0.08723,0.072102,-1.02236,-0.23968,0.08302,0.40264
-1.89059,0,0,16.8906,16.8906,13.1094,13.1094,1.33495,2.70352,10.9731,-0.0502825,-0.0235704,-0.0221005,0,0,15.5225,-1.085,-0.21,-0.043432,-0.034648,-1.03322,-0.23968,0.08302,0.40264
-1.94872,0,0,16.9487,16.9487,13.0513,13.0513,1.3764,2.63233,11.0397,-0.0490415,-0.0228467,-0.0220598,0,0,15.3825,-1.5225,-0.0875,-0.043432,-0.034648,-1.03322,-0.23968,0.08302,0.40264
-1.94411,0,0,16.9441,16.9441,13.0559,13.0559,1.37303,2.23899,11.321,-0.264987,0.00152704,0.0602399,0,0,13.5975,-0.84,-0.1575,-0.26718,-0.010248,-0.951844,-0.23968,0.08302,0.40264
-1.94602,0,0,16.946,16.946,13.054,13.054,1.37432,1.85275,11.602,-0.258251,0.00155538,0.0604799,0,0,16.135,-2.205,0.9275,-0.26718,-0.010248,-0.951844,-0.23968,0.08302,0.40264
-1.97859,0,0,16.9786,16.9786,13.0214,13.0214,1.39751,1.84925,11.6062,0.0627759,0.281752,-0.167351,1,0,16.31,-2.0125,1.4,0.055144,0.269254,-1.17791,-0.23968,0.08302,0.40264
-2.01241,0,0,17.0124,17.0124,12.9876,12.9876,1.42159,1.84656,11.6112,0.0628228,0.282172,-0.16736,1,0,16.8,-1.5225,1.785,0.055144,0.269254,-1.17791,-0.23506,0.08568,0.4053
-1.67891,0,0,16.6789,16.6789,13.3211,13.3211,1.18332,1.72021,11.7464,-0.0658132,0.220496,0.115953,0,0,16.905,-1.4525,1.715,-0.07625,0.211792,-0.896944,-0.23506,0.08568,0.4053
-1.35269,0,0,16.3527,16.3527,13.6473,13.6473,0.950254,1.59783,11.8824,-0.0636782,0.216432,0.116091,0,0,17.4125,-0.9975,1.9425,-0.07625,0.211792,-0.896944,-0.23506,0.08568,0.4053
-1.33651,0,0,16.3365,16.3365,13.6635,13.6635,0.938643,1.1353,12.2254,-0.316924,0.0110599,0.0683367,0,0,17.7975,-1.19,1.7675,-0.338672,0.006832,-0.944524,-0.23506,0.08568,0.4053
-1.31924,0,0,16.3192,16.3192,13.6808,13.6808,0.926259,0.685812,12.5641,-0.30908,0.0108459,0.0684649,0,0,17.325,0.07,0.6825,-0.338672,0.006832,-0.944524,-0.23506,0.08568,0.4053
-1.355,0,0,16.355,16.355,13.645,13.645,0.951746,0.683823,12.567,0.200345,0.161751,-0.171415,1,0,17.6575,-1.155,0.63,0.172874,0.157136,-1.18255,-0.23506,0.08568,0.4053
-1.39362,0,0,16.3936,16.3936,13.6064,13.6064,0.97928,0.681463,12.5689,0.200386,0.162231,-0.171422,1,0,18.8125,-1.3825,-0.035,0.172874,0.157136,-1.18255,-0.23506,0.08568,0.4053
-1.43302,0,0,16.433,16.433,13.567,13.567,1.00737,0.678468,12.5677,0.0666824,0.296206,-0.177086,1,0,19.145,-1.785,-1.785,0.038552,0.290482,-1.18816,-0.23506,0.08568,0.4053
-1.46973,0,0,16.4697,16.4697,13.5303,13.5303,1.03354,0.678096,12.5652,0.0666889,0.296663,-0.177094,1,0,18.0775,-0.2625,-2.59,0.038552,0.290482,-1.18816,-0.23422,0.08204,0.4039
-1.58125,0,0,16.5813,16.5813,13.4187,13.4187,1.11314,0.46941,12.7385,-0.149194,-0.0584358,0.0294702,0,0,18.9175,-0.77,-3.3775,-0.181902,-0.065636,-0.983198,-0.23422,0.08204,0.4039
-1.69099,0,0,16.691,16.691,13.309,13.309,1.19145,0.265606,12.91,-0.145637,-0.0570687,0.0294655,0,0,18.9175,-0.77,-3.3775,-0.181902,-0.065636,-0.983198,-0.23422,0.08204,0.4039
-1.97452,0,0,16.9745,16.9745,13.0255,13.0255,1.3939,0.0916095,13.0458,-0.132395,-0.166015,0.0664028,0,0,18.27,-1.3825,-4.3575,-0.171654,-0.177998,-0.946476,-0.23422,0.08204,0.4039
-2.25324,0,0,17.2532,17.2532,12.7468,12.7468,1.59291,-0.0786353,13.1795,-0.129424,-0.162543,0.0663126,0,0,18.27,-1.3825,-4.3575,-0.171654,-0.177998,-0.946476,-0.23422,0.08204,0.4039
-3.0517,0,0,18.0517,18.0517,11.9483,11.9483,2.16312,-0.0490262,13.1342,-0.0309297,-0.539371,0.0978307,0,0,18.7775,-1.4175,-3.92,-0.072224,-0.564372,-0.914878,-0.23422,0.08204,0.4039
-3.0934,0,0,18.0934,18.0934,11.9066,11.9066,2.19278,-0.0518039,13.1295,-0.000145343,0.262542,-0.238084,1,0,20.02,-1.75,-3.8325,-0.041358,0.236192,-1.24818,-0.23422,0.08204,0.4039
-3.13222,0,0,18.1322,18.1322,11.8678,11.8678,2.22039,-0.0542604,13.1266,-0.000102468,0.263023,-0.238103,1,0,18.865,-1.5225,-2.7825,-0.041358,0.236192,-1.24818,-0.23422,0.08204,0.4039
-3.22956,0,0,18.2296,18.2296,11.7704,11.7704,2.2898,0.389614,12.8835,0.339478,-0.0131171,-0.0417015,0,0,20.1775,-1.645,-2.5725,0.30744,-0.04087,-1.05323,-0.2366,0.08008,0.40222
-3.32432,0,0,18.3243,18.3243,11.6757,11.6757,2.35736,0.822239,12.6447,0.331928,-0.0119423,-0.0418291,0,0,20.4225,-2.1875,-1.05,0.30744,-0.04087,-1.05323,-0.2366,0.08008,0.40222
-3.37004,0,0,18.37,18.37,11.63,11.63,2.38989,0.819598,12.6464,0.266615,0.107332,-0.199103,1,0,21.6125,-1.5225,-0.07,0.241804,0.077714,-1.20926,-0.2366,0.08008,0.40222
-3.57656,0,0,18.5766,18.5766,11.4234,11.4234,2.53727,1.33129,12.3472,0.355724,-0.0807455,0.0564747,0,0,20.0725,-1.365,0.6825,0.340258,-0.112728,-0.955382,-0.2366,0.08008,0.40222
-3.78074,0,0,18.7807,18.7807,11.2193,11.2193,2.68297,1.82971,12.0526,0.347029,-0.078217,0.0561193,0,0,21.28,-2.17,1.575,0.340258,-0.112728,-0.955382,-0.2366,0.08008,0.40222
-4.21044,0,0,19.2104,19.2104,10.7896,10.7896,2.98974,1.70522,12.1387,-0.104913,-0.256425,0.080634,0,0,19.9325,-1.1725,1.7675,-0.115778,-0.296094,-0.93086,-0.2366,0.08008,0.40222
-4.63441,0,0,19.6344,19.6344,10.3656,10.3656,3.29239,1.58208,12.2243,-0.102765,-0.25115,0.0804063,0,0,20.58,-1.715,2.52,-0.115778,-0.296094,-0.93086,-0.2366,0.08008,0.40222
-4.67762,0,0,19.6776,19.6776,10.3224,10.3224,3.32308,1.57879,12.2309,-0.0714856,-0.125679,-0.125931,1,0,20.4925,-1.715,2.87,-0.084424,-0.171288,-1.13558,-0.2366,0.08008,0.40222
-4.72047,0,0,19.7205,19.7205,10.2795,10.2795,3.35351,1.57517,12.2371,-0.0714224,-0.125149,-0.12596,1,0,20.3525,-1.925,2.5725,-0.084424,-0.171288,-1.13558,-0.22862,0.0805,0.40446
-4.74411,0,0,19.7441,19.7441,10.2559,10.2559,3.37021,1.69936,12.1925,0.0932109,0.0199802,-0.0276799,0,0,20.44,-1.365,2.3625,0.083082,-0.026596,-1.03798,-0.22862,0.0805,0.40446
-4.76896,0,0,19.769,19.769,10.231,10.231,3.38778,1.81941,12.1476,0.0911166,0.0202825,-0.0277622,0,0,21.21,-2.03,2.0125,0.083082,-0.026596,-1.03798,-0.22862,0.0805,0.40446
-4.81571,0,0,19.8157,19.8157,10.1843,10.1843,3.42099,1.81627,12.1521,-0.173668,-0.186755,0.214537,1,0,21.9275,-1.6975,1.575,-0.182878,-0.233996,-0.797514,-0.22862,0.0805,0.40446
-4.86691,0,0,19.8669,19.8669,10.1331,10.1331,3.45738,1.81374,12.1544,-0.173623,-0.186121,0.2145,1,0,23.7475,-1.4175,0.315,-0.182878,-0.233996,-0.797514,-0.22862,0.0805,0.40446
-5.16313,0,0,20.1631,20.1631,9.83687,9.83687,3.66877,1.77336,12.1898,-0.040621,-0.186225,-0.0645544,0,0,24.0625,-1.4525,-0.2975,-0.05002,-0.237778,-1.07421,-0.22862,0.0805,0.40446
-5.45969,0,0,20.4597,20.4597,9.54031,9.54031,3.88039,1.73199,12.2234,-0.0398992,-0.18254,-0.0647754,0,0,26.3375,-2.3975,-1.015,-0.05002,-0.237778,-1.07421,-0.22862,0.0805,0.40446
-5.3815,0,0,20.3815,20.3815,9.6185,9.6185,3.82434,1.83591,12.1882,0.0836611,0.0952962,-0.024316,0,0,23.6775,-1.505,-1.8375,0.075884,0.040748,-1.03407,-0.22862,0.0805,0.40446
-5.3018,0,0,20.3018,20.3018,9.6982,9.6982,3.7672,1.93681,12.1521,0.081901,0.0942979,-0.0243079,0,0,22.54,-2.31,-2.87,0.075884,0.040748,-1.03407,-0.23856,0.07896,0.4067
-5.35208,0,0,20.3521,20.3521,9.64792,9.64792,3.80292,1.93249,12.1482,-0.051172,0.430524,-0.159959,1,0,23.485,-2.695,-3.2725,-0.057828,0.376004,-1.16864,-0.23856,0.07896,0.4067
-5.40415,0,0,20.4042,20.4042,9.59585,9.59585,3.8399,1.92804,12.1441,-0.0510943,0.431168,-0.159999,1,0,24.2025,-2.7825,-3.36,-0.057828,0.376004,-1.16864,-0.23856,0.07896,0.4067
-5.46055,0,0,20.4605,20.4605,9.53945,9.53945,3.87998,1.92347,12.1399,0.0391278,0.156348,0.137615,1,0,25.935,-2.8525,-3.3775,0.032696,0.100772,-0.873276,-0.23856,0.07896,0.4067
-5.51735,0,0,20.5173,20.5173,9.48265,9.48265,3.92034,1.92264,12.1367,0.0391423,0.15705,0.137568,1,0,26.075,-0.63,-2.94,0.032696,0.100772,-0.873276,-0.23856,0.07896,0.4067
-5.64543,0,0,20.6454,20.6454,9.35457,9.35457,4.01161,1.94322,12.1399,0.0115704,-0.0477567,-0.012306,0,0,26.2325,-0.5425,-2.7125,0.005368,-0.105408,-1.02187,-0.23856,0.07896,0.4067
-5.76615,0,0,20.7661,20.7661,9.23385,9.23385,4.09762,1.96178,12.1445,0.0112466,-0.0462611,-0.0124231,0,0,24.2025,-1.26,-1.8375,0.005368,-0.105408,-1.02187,-0.23856,0.07896,0.4067
-5.81728,0,0,20.8173,20.8173,9.18272,9.18272,4.13392,1.95909,12.1433,0.00315411,0.326979,-0.279388,1,0,23.765,-1.645,-1.7325,-0.002806,0.266814,-1.28673,-0.23856,0.07896,0.4067
-5.86885,0,0,20.8689,20.8689,9.13115,9.13115,4.17053,1.9561,12.142,0.00320631,0.327616,-0.279433,1,0,23.94,-1.82,-1.7325,-0.002806,0.266814,-1.28673,-0.22722,0.07098,0.40978
-5.92473,0,0,20.9247,20.9247,9.07527,9.07527,4.21022,1.95213,12.1431,0.128892,0.0979761,-0.216285,1,0,25.62,-2.2925,-0.35,0.123342,0.036722,-1.22403,-0.22722,0.07098,0.40978
-5.98062,0,0,20.9806,20.9806,9.01938,9.01938,4.24991,1.94816,12.1442,0.128961,0.0986667,-0.216334,1,0,25.62,-2.2925,-0.35,0.123342,0.036722,-1.22403,-0.22722,0.07098,0.40978
-6.04093,0,0,21.0409,21.0409,8.95907,8.95907,4.29277,1.9437,12.1465,-0.219747,0.0973361,-0.146306,1,0,27.37,-2.52,0.4025,-0.22692,0.034648,-1.15449,-0.22722,0.07098,0.40978
-6.28229,0,0,21.2823,21.2823,8.71771,8.71771,4.46492,2.01276,12.1281,0.0420653,-0.125363,-0.013178,0,0,25.935,-2.24,0.525,0.03721,-0.190808,-1.02212,-0.22722,0.07098,0.40978
-6.51761,0,0,21.5176,21.5176,8.48239,8.48239,4.63276,2.07945,12.1107,0.0409019,-0.122448,-0.0134516,0,0,25.3225,-2.3625,0.8225,0.03721,-0.190808,-1.02212,-0.22722,0.07098,0.40978
-6.57484,0,0,21.5748,21.5748,8.42516,8.42516,4.67339,2.07471,12.1142,-0.147804,0.0277414,-0.145553,1,0,26.0925,-2.625,1.12,-0.152378,-0.04148,-1.15314,-0.22722,0.07098,0.40978
-6.63746,0,0,21.6375,21.6375,8.36254,8.36254,4.71786,2.07034,12.1181,-0.147728,0.0285148,-0.145614,1,0,28.245,-2.38,1.3475,-0.152378,-0.04148,-1.15314,-0.22722,0.07098,0.40978
-6.22232,0,0,21.2223,21.2223,8.77768,8.77768,4.4211,2.01333,12.2071,-0.0100621,0.343941,-0.0458234,0,0,28.245,-2.24,1.0675,-0.015128,0.27877,-1.05457,-0.22876,0.0756,0.39424
-6.28497,0,0,21.285,21.285,8.71503,8.71503,4.46561,2.00816,12.2112,0.226439,-0.273857,-0.154567,1,0,28.2625,-2.8525,1.5225,0.222284,-0.33916,-1.16242,-0.22876,0.0756,0.39424
-6.34919,0,0,21.3492,21.3492,8.65081,8.65081,4.51124,2.00381,12.2144,0.226515,-0.273063,-0.154627,1,0,28.91,-2.415,0.8925,0.222284,-0.33916,-1.16242,-0.22876,0.0756,0.39424
-6.46956,0,0,21.4696,21.4696,8.53044,8.53044,4.59697,1.84255,12.338,-0.110953,-0.0469741,0.00358359,0,0,28.875,-3.115,0.805,-0.119438,-0.114802,-1.0054,-0.22876,0.0756,0.39424
-6.59071,0,0,21.5907,21.5907,8.40929,8.40929,4.68326,1.68583,12.4593,-0.108219,-0.0454669,0.00354575,0,0,29.995,-2.7475,0.175,-0.119438,-0.114802,-1.0054,-0.22876,0.0756,0.39424
-6.65659,0,0,21.6566,21.6566,8.34341,8.34341,4.73006,1.68142,12.4604,-0.206667,-0.020594,-0.262825,1,0,29.61,-2.5375,-0.28,-0.21838,-0.090768,-1.26965,-0.22876,0.0756,0.39424
-6.72437,0,0,21.7244,21.7244,8.27563,8.27563,4.77822,1.67593,12.4608,-0.206572,-0.0197565,-0.262892,1,0,30.38,-3.2025,-0.63,-0.21838,-0.090768,-1.26965,-0.22876,0.0756,0.39424
-6.7899,0,0,21.7899,21.7899,8.2101,8.2101,4.82477,1.67126,12.4607,0.0584702,0.163632,-0.381234,1,0,29.4875,-2.7475,-0.9275,0.047702,0.091622,-1.38702,-0.22876,0.0756,0.39424
-6.85334,0,0,21.8533,21.8533,8.14666,8.14666,4.86982,1.66708,12.4596,0.0585432,0.164416,-0.381299,1,0,28.665,-2.52,-1.61,0.047702,0.091622,-1.38702,-0.23142,0.06986,0.4018
-6.92397,0,0,21.924,21.924,8.07603,8.07603,4.92001,1.66204,12.4578,-0.145586,0.0106758,-0.169285,1,0,31.5525,-3.045,-1.8725,-0.15738,-0.06283,-1.17657,-0.23142,0.06986,0.4018
-6.99393,0,0,21.9939,21.9939,8.00607,8.00607,4.96971,1.65811,12.4568,-0.145518,0.0115399,-0.169357,1,0,31.2725,-2.3625,-1.5575,-0.15738,-0.06283,-1.17657,-0.23142,0.06986,0.4018
-7.06698,0,0,22.067,22.067,7.93302,7.93302,5.02163,1.65691,12.4555,-0.220939,-0.382516,-0.0839865,1,0,32.515,-0.7875,-1.82,-0.233142,-0.457378,-1.09178,-0.23142,0.06986,0.4018
-7.14353,0,0,22.1435,22.1435,7.85647,7.85647,5.07603,1.65413,12.454,-0.220891,-0.38157,-0.0840686,1,0,33.915,-1.715,-1.8725,-0.233142,-0.457378,-1.09178,-0.23142,0.06986,0.4018
-7.21677,0,0,22.2168,22.2168,7.78323,7.78323,5.12807,1.65177,12.4526,-0.0923179,-0.0984308,-0.226031,1,0,32.585,-1.47,-1.8025,-0.104066,-0.175436,-1.23257,-0.23142,0.06986,0.4018
-7.28957,0,0,22.2896,22.2896,7.71043,7.71043,5.17979,1.64761,12.4512,-0.0922454,-0.0975319,-0.22611,1,0,32.41,-2.52,-1.75,-0.104066,-0.175436,-1.23257,-0.23142,0.06986,0.4018
-7.35999,0,0,22.36,22.36,7.64001,7.64001,5.22981,1.64327,12.4501,0.0961331,0.400027,-0.237867,1,0,31.4475,-2.6075,-1.5225,0.085034,0.320738,-1.24416,-0.23142,0.06986,0.4018
-7.43866,0,0,22.4387,22.4387,7.56134,7.56134,5.28572,1.63851,12.4501,0.0962162,0.400998,-0.237954,1,0,34.7375,-2.8,-0.91,0.085034,0.320738,-1.24416,-0.2317,0.06706,0.39956
-7.51674,0,0,22.5167,22.5167,7.48326,7.48326,5.34121,1.6349,12.4502,0.0778134,0.525066,-0.150871,1,0,34.4925,-2.1175,-0.875,0.06649,0.443714,-1.15766,-0.2317,0.06706,0.39956
-7.59359,0,0,22.5936,22.5936,7.40641,7.40641,5.39581,1.62988,12.4512,0.0779009,0.526015,-0.150958,1,0,33.985,-2.8875,-0.2625,0.06649,0.443714,-1.15766,-0.2317,0.06706,0.39956
-6.93668,0,0,21.9367,21.9367,8.06332,8.06332,4.92632,1.51258,12.5983,-0.0331557,0.531907,0.0271267,0,0,34.545,-3.7625,-0.245,-0.047092,0.457744,-0.981734,-0.2317,0.06706,0.39956
-6.28557,0,0,21.2856,21.2856,8.71443,8.71443,4.46101,1.39836,12.7482,-0.0311629,0.523819,0.0278415,0,0,32.76,-3.535,0.245,-0.047092,0.457744,-0.981734,-0.2317,0.06706,0.39956
-5.23437,0,0,20.2344,20.2344,9.76563,9.76563,3.70995,0.990967,13.1014,-0.226328,0.810091,0.272607,0,0,33.8975,-3.4475,0.4375,-0.250222,0.756766,-0.73993,-0.2317,0.06706,0.39956
-4.20217,0,0,19.2022,19.2022,10.7978,10.7978,2.97251,0.588815,13.4661,-0.21931,0.797249,0.273454,0,0,37.275,-3.465,1.1375,-0.250222,0.756766,-0.73993,-0.2317,0.06706,0.39956
-4.28995,0,0,19.2899,19.2899,10.7101,10.7101,3.03504,0.582387,13.4695,0.0580329,-0.204933,0.253357,1,0,38.43,-3.675,1.0325,0.028182,-0.245464,-0.759816,-0.2317,0.06706,0.39956
-4.37385,0,0,19.3738,19.3738,10.6262,10.6262,3.0948,0.577675,13.4731,0.0581152,-0.203891,0.253302,1,0,36.8725,-2.66,1.155,0.028182,-0.245464,-0.759816,-0.2317,0.06706,0.39956
-4.45233,0,0,19.4523,19.4523,10.5477,10.5477,3.1507,0.57354,13.4771,0.210166,0.018743,0.362059,1,0,34.7025,-2.31,1.33,0.180804,-0.024034,-0.651846,-0.22652,0.06804,0.39956
-3.97724,0,0,18.9772,18.9772,11.0228,11.0228,2.81119,0.55529,13.5821,0.0353021,0.403509,-0.00192613,0,0,36.61,-4.48,1.2775,0.00488,0.366244,-1.01333,-0.22652,0.06804,0.39956
-3.51096,0,0,18.511,18.511,11.489,11.489,2.478,0.538576,13.6864,0.0355938,0.397701,-0.00165504,0,0,36.9775,-4.165,0.5775,0.00488,0.366244,-1.01333,-0.22652,0.06804,0.39956
-3.59352,0,0,18.5935,18.5935,11.4065,11.4065,2.53684,0.532441,13.6886,-0.0688983,0.250221,0.411408,1,0,36.365,-3.5525,0.315,-0.100162,0.217892,-0.603412,-0.22652,0.06804,0.39956
-3.69173,0,0,18.6917,18.6917,11.3083,11.3083,2.60685,0.526573,13.6901,-0.0687959,0.251441,0.411354,1,0,42.63,-3.4125,-0.0875,-0.100162,0.217892,-0.603412,-0.22652,0.06804,0.39956
-3.78439,0,0,18.7844,18.7844,11.2156,11.2156,2.67289,0.520017,13.6916,-0.0713542,0.1439,0.399745,1,0,40.4075,-3.815,-0.0875,-0.102846,0.109312,-0.61488,-0.22652,0.06804,0.39956
-3.87717,0,0,18.8772,18.8772,11.1228,11.1228,2.73902,0.514241,13.6918,-0.0712533,0.145053,0.399691,1,0,40.46,-3.395,-0.8925,-0.102846,0.109312,-0.61488,-0.22652,0.06804,0.39956
-3.96807,0,0,18.9681,18.9681,11.0319,11.0319,2.8038,0.507557,13.6921,0.124212,-0.378597,0.334229,1,0,39.7075,-3.92,-0.7525,0.09333,-0.414922,-0.679784,-0.22652,0.06804,0.39956
-4.07131,0,0,19.0713,19.0713,10.9287,10.9287,2.87738,0.500997,13.6923,0.124327,-0.377314,0.334166,1,0,44.6425,-3.85,-0.805,0.09333,-0.414922,-0.679784,-0.23352,0.06314,0.39704
-4.16541,0,0,19.1654,19.1654,10.8346,10.8346,2.94444,0.495885,13.6923,0.133527,-0.113939,-0.103712,1,0,40.985,-3.01,-0.9975,0.10248,-0.152988,-1.11423,-0.23352,0.06314,0.39704
-4.26079,0,0,19.2608,19.2608,10.7392,10.7392,3.01241,0.491848,13.6923,0.133598,-0.112754,-0.103773,1,0,41.4925,-2.38,-0.9975,0.10248,-0.152988,-1.11423,-0.23352,0.06314,0.39704
-4.36404,0,0,19.364,19.364,10.636,10.636,3.08599,0.487173,13.6925,0.185554,0.108234,-0.171708,1,0,44.6425,-2.7475,-0.875,0.154574,0.06649,-1.18157,-0.23352,0.06314,0.39704
-4.46472,0,0,19.4647,19.4647,10.5353,10.5353,3.15774,0.482491,13.6928,0.185636,0.109485,-0.171776,1,0,43.61,-2.7475,-0.805,0.154574,0.06649,-1.18157,-0.23352,0.06314,0.39704
-4.56405,0,0,19.564,19.564,10.436,10.436,3.22851,0.47752,13.6929,0.219131,0.229059,0.169707,1,0,43.0675,-2.9225,-0.91,0.188124,0.184708,-0.842654,-0.23352,0.06314,0.39704
-4.66848,0,0,19.6685,19.6685,10.3315,10.3315,3.30293,0.471722,13.6923,0.219232,0.230355,0.169634,1,0,45.115,-3.43,-1.295,0.188124,0.184708,-0.842654,-0.23352,0.06314,0.39704
-4.77345,0,0,19.7735,19.7735,10.2265,10.2265,3.37773,0.46393,13.6921,-0.00598789,-0.28909,-0.0885097,1,0,45.325,-4.585,-1.0325,-0.038186,-0.3355,-1.09873,-0.23352,0.06314,0.39704
-4.87079,0,0,19.8708,19.8708,10.1292,10.1292,3.44707,0.458535,13.6922,-0.00589372,-0.287882,-0.0885809,1,0,42.2625,-3.1675,-0.84,-0.038186,-0.3355,-1.09873,-0.22918,0.05572,0.39032
-4.64599,0,0,19.646,19.646,10.354,10.354,3.28632,0.207523,13.9413,-0.151548,0.20723,-0.00847424,0,0,41.335,-3.64,-0.5075,-0.188856,0.161894,-1.01943,-0.22918,0.05572,0.39032
-4.43475,0,0,19.4347,19.4347,10.5653,10.5653,3.13527,-0.0395473,14.1918,-0.147235,0.204598,-0.00832027,0,0,45.2025,-4.83,0.385,-0.188856,0.161894,-1.01943,-0.22918,0.05572,0.39032
-4.54329,0,0,19.5433,19.5433,10.4567,10.4567,3.21263,-0.0487749,14.1942,0.131978,0.786048,-0.269415,1,0,46.76,-5.3375,0.5775,0.091378,0.741394,-1.27844,-0.22918,0.05572,0.39032
-4.65481,0,0,19.6548,19.6548,10.3452,10.3452,3.29211,-0.0562275,14.1975,0.132108,0.787433,-0.269494,1,0,47.95,-4.27,0.9975,0.091378,0.741394,-1.27844,-0.22918,0.05572,0.39032
-5.15648,0,0,20.1565,20.1565,9.84352,9.84352,3.65025,-0.0123216,14.2173,0.0022027,-0.266998,0.00848377,0,0,50.085,-3.4825,1.2775,-0.038308,-0.318176,-1.00223,-0.22918,0.05572,0.39032
-5.65284,0,0,20.6528,20.6528,9.34716,9.34716,4.00458,0.0278525,14.2385,0.00150153,-0.260828,0.00807087,0,0,51.5725,-4.2875,1.9425,-0.038308,-0.318176,-1.00223,-0.22918,0.05572,0.39032
-5.96773,0,0,20.9677,20.9677,9.03227,9.03227,4.22927,0.00380939,14.3136,-0.0297866,-0.131737,0.0246334,0,0,50.1375,-3.115,1.75,-0.07015,-0.193126,-0.985516,-0.22918,0.05572,0.39032
-6.27573,0,0,21.2757,21.2757,8.72427,8.72427,4.44903,-0.0221911,14.3988,-0.0293328,-0.127912,0.0243431,0,0,49.455,-4.935,2.17,-0.07015,-0.193126,-0.985516,-0.22246,0.05026,0.38682
-6.38795,0,0,21.388,21.388,8.61205,8.61205,4.52895,-0.0318204,14.4036,0.053567,0.047387,-0.315965,1,0,48.195,-5.425,2.065,0.012932,-0.019398,-1.32309,-0.22246,0.05026,0.38682
-6.4997,0,0,21.4997,21.4997,8.5003,8.5003,4.60852,-0.0389606,14.4067,0.0536916,0.0487714,-0.316075,1,0,48.0025,-4.0425,1.015,0.012932,-0.019398,-1.32309,-0.22246,0.05026,0.38682
-6.61482,0,0,21.6148,21.6148,8.38518,8.38518,4.6905,-0.0473295,14.409,0.0356148,0.0426256,0.155931,1,0,49.35,-4.795,0.6125,-0.005368,-0.026962,-0.85461,-0.22246,0.05026,0.38682
-6.73677,0,0,21.7368,21.7368,8.26323,8.26323,4.77735,-0.0560716,14.4111,0.0357674,0.0441362,0.155806,1,0,52.08,-5.0225,0.49,-0.005368,-0.026962,-0.85461,-0.22246,0.05026,0.38682
-6.86195,0,0,21.862,21.862,8.13805,8.13805,4.86651,-0.065334,14.4121,0.124371,-0.183179,0.1901,1,0,53.375,-5.3725,-0.0525,0.083448,-0.25559,-0.82045,-0.22246,0.05026,0.38682
-6.98676,0,0,21.9868,21.9868,8.01324,8.01324,4.95539,-0.0723703,14.4107,0.124493,-0.181633,0.189967,1,0,53.2175,-4.2,-1.645,0.083448,-0.25559,-0.82045,-0.22246,0.05026,0.38682
-7.31878,0,0,22.3188,22.3188,7.68122,7.68122,5.19227,0.166095,14.3241,0.165524,-0.133428,-0.0339222,0,0,53.305,-4.41,-1.8375,0.128832,-0.211548,-1.04225,-0.22246,0.05026,0.38682
-7.65103,0,0,22.651,22.651,7.34897,7.34897,5.4293,0.397284,14.2455,0.161489,-0.12931,-0.0343248,0,0,55.8075,-6.0025,-1.8025,0.128832,-0.211548,-1.04225,-0.22862,0.04536,0.38864
-7.37404,0,0,22.374,22.374,7.62596,7.62596,5.23117,0.437736,14.3192,0.0713697,0.286263,0.0065643,0,0,55.2475,-4.795,-1.6275,0.03904,0.207034,-1.00199,-0.22862,0.04536,0.38864
-7.10464,0,0,22.1046,22.1046,7.89536,7.89536,5.03847,0.479169,14.3933,0.0706466,0.282913,0.00685953,0,0,56.385,-3.955,-1.33,0.03904,0.207034,-1.00199,-0.22862,0.04536,0.38864
-7.24462,0,0,22.2446,22.2446,7.75538,7.75538,5.13818,0.471617,14.3929,0.109897,-0.134248,-0.166036,1,0,59.29,-4.445,-0.9625,0.078324,-0.211426,-1.1734,-0.22862,0.04536,0.38864
-7.38025,0,0,22.3802,22.3802,7.61975,7.61975,5.23478,0.464536,14.394,0.11002,-0.132569,-0.166188,1,0,57.54,-4.095,-0.1575,0.078324,-0.211426,-1.1734,-0.22862,0.04536,0.38864
-7.84493,0,0,22.8449,22.8449,7.15507,7.15507,5.5664,0.660158,14.3275,0.118026,-0.220237,0.00462437,0,0,56.315,-3.9375,0.07,0.089792,-0.304756,-1.00333,-0.22862,0.04536,0.38864
-8.30262,0,0,23.3026,23.3026,6.69738,6.69738,5.893,0.848315,14.2625,0.114742,-0.21457,0.00401231,0,0,57.0675,-4.935,-0.0175,0.089792,-0.304756,-1.00333,-0.22862,0.04536,0.38864
-8.58196,0,0,23.582,23.582,6.41804,6.41804,6.0922,1.25085,14.0779,0.263463,-0.0571249,0.0882329,0,0,56.5075,-5.67,0.3325,0.246196,-0.150914,-0.91927,-0.22862,0.04536,0.38864
-8.85779,0,0,23.8578,23.8578,6.14221,6.14221,6.28889,1.64454,13.909,0.256594,-0.053732,0.0876903,0,0,57.4175,-5.5475,1.4875,0.246196,-0.150914,-0.91927,-0.22582,0.03962,0.378
-8.99337,0,0,23.9934,23.9934,6.00663,6.00663,6.38539,1.63437,13.9137,0.240128,-0.242576,-0.0344554,1,0,57.4175,-5.635,2.2575,0.229482,-0.341234,-1.04029,-0.22582,0.03962,0.378
-9.13421,0,0,24.1342,24.1342,5.86579,5.86579,6.48564,1.62546,13.9196,0.240283,-0.240837,-0.034647,1,0,59.5,-4.8125,2.8875,0.229482,-0.341234,-1.04029,-0.22582,0.03962,0.378
-9.28142,0,0,24.2814,24.2814,5.71858,5.71858,6.59043,1.61499,13.926,-0.237216,0.262066,-0.0783738,1,0,62.0375,-5.6875,3.2725,-0.250222,0.159332,-1.08348,-0.22582,0.03962,0.378
-9.42916,0,0,24.4292,24.4292,5.57084,5.57084,6.6956,1.60578,13.9315,-0.237055,0.263889,-0.0785816,1,0,62.265,-5.005,2.6775,-0.250222,0.159332,-1.08348,-0.22582,0.03962,0.378
-9.58265,0,0,24.5826,24.5826,5.41735,5.41735,6.80488,1.59668,13.9364,-0.259858,0.0521827,-0.204209,1,0,64.575,-4.97,2.345,-0.27328,-0.054046,-1.20792,-0.22582,0.03962,0.378
-9.7404,0,0,24.7404,24.7404,5.2596,5.2596,6.91719,1.58521,13.9406,-0.259657,0.0541288,-0.204437,1,0,66.29,-6.405,2.0475,-0.27328,-0.054046,-1.20792,-0.22582,0.03962,0.378
-9.89641,0,0,24.8964,24.8964,5.10359,5.10359,7.02825,1.57676,13.9435,0.054895,0.193811,-0.43114,1,0,65.6075,-4.725,1.155,0.042456,0.08357,-1.43265,-0.22582,0.03962,0.378
-10.0511,0,0,25.0511,25.0511,5,5,7.13832,1.56615,13.9448,0.0550801,0.195718,-0.431371,1,0,65.0825,-6.09,0.385,0.042456,0.08357,-1.43265,-0.22582,0.03962,0.378
-10.2046,0,0,25.2046,25.2046,5,5,7.24761,1.5528,13.9457,0.0209326,0.362359,-0.3614,1,0,64.645,-7.7175,0.35,0.00793,0.248148,-1.36298,-0.22176,0.03388,0.38458
-10.3536,0,0,25.3536,25.3536,5,5,7.35368,1.5417,13.9456,0.0211263,0.364196,-0.36163,1,0,62.86,-6.475,-0.3675,0.00793,0.248148,-1.36298,-0.22176,0.03388,0.38458
-10.5014,0,0,25.5014,25.5014,5,5,7.45878,1.53072,13.9452,-0.535694,0.251826,-0.120514,1,0,62.3175,-6.4225,-0.49,-0.55144,0.134078,-1.1235,-0.22176,0.03388,0.38458
-10.6491,0,0,25.6491,25.6491,5,5,7.56388,1.51973,13.9449,-0.535502,0.253645,-0.120748,1,0,62.3175,-6.4225,-0.49,-0.55144,0.134078,-1.1235,-0.22176,0.03388,0.38458
-10.8108,0,0,25.8108,25.8108,5,5,7.67902,1.50787,13.9439,0.0139413,0.403166,0.138781,1,0,67.9525,-6.9825,-0.7875,0.000122,0.281454,-0.865712,-0.22176,0.03388,0.38458
-10.9724,0,0,25.9724,25.9724,5,5,7.79398,1.49604,13.9425,-0.396838,-0.0954434,-0.0976678,1,0,67.865,-7,-1.015,-0.412604,-0.218624,-1.10007,-0.22176,0.03388,0.38458
-10.7964,0,0,25.7964,25.7964,5,5,7.66786,1.65087,13.9383,0.13524,0.24542,0.0556255,0,0,69.1075,-5.1625,-0.735,0.12444,0.124074,-0.948184,-0.22176,0.03388,0.38458
-10.9652,0,0,25.9652,25.9652,5,5,7.78803,1.64174,13.9389,0.0120917,0.2028,0.174485,1,0,70.7525,-5.2675,-0.0525,0.00061,0.079422,-0.829966,-0.22176,0.03388,0.38458
-11.1431,0,0,26.1431,26.1431,5,5,7.9147,1.63057,13.9397,0.0122867,0.20499,0.174189,1,0,74.3925,-6.44,0.2275,0.00061,0.079422,-0.829966,-0.2275,0.03206,0.38682
-11.3298,0,0,26.3298,26.3298,5,5,8.0476,1.62033,13.9411,0.104916,-0.22724,-0.268251,1,0,77.875,-5.845,0.49,0.093452,-0.354654,-1.26868,-0.2275,0.03206,0.38682
-11.5143,0,0,26.5143,26.5143,5,5,8.17893,1.61058,13.9445,-0.556525,0.185375,-0.260455,1,0,76.965,-5.39,1.645,-0.57096,0.055266,-1.26063,-0.2275,0.03206,0.38682
-11.6828,0,0,26.6828,26.6828,5,5,8.29885,1.60408,13.9471,0.255113,0.497403,-0.681973,1,0,70.5775,-3.57,0.8925,0.244,0.364902,-1.6786,-0.2275,0.03206,0.38682
-11.8522,0,0,26.8522,26.8522,5,5,8.41939,1.59043,13.9477,-0.437847,0.00291759,-0.454817,1,0,70.9625,-7.875,0.4025,-0.452132,-0.13115,-1.4529,-0.2275,0.03206,0.38682
-12.0308,0,0,27.0308,27.0308,5,5,8.54651,1.57436,13.9478,-0.335275,0.506565,-0.186003,1,0,74.655,-9.3275,0.28,-0.349408,0.369782,-1.18584,-0.2275,0.03206,0.38682
-12.2042,0,0,27.2042,27.2042,5,5,8.66993,1.56319,13.9483,-0.33508,0.508694,-0.18632,1,0,72.5725,-6.44,0.1575,-0.349408,0.369782,-1.18584,-0.2275,0.03206,0.38682
-11.1311,0,0,26.1311,26.1311,5,5,7.903,1.23062,14.2347,-0.111332,0.828269,0.406025,0,0,75.39,-7.2275,0.7175,-0.13054,0.702232,-0.600118,-0.2275,0.03206,0.38682
-10.0631,0,0,25.0631,25.0631,5,5,7.13976,0.889559,14.5414,-0.105381,0.815079,0.407877,0,0,75.425,-8.015,1.575,-0.13054,0.702232,-0.600118,-0.21882,0.02394,0.3808
-10.2533,0,0,25.2533,25.2533,5,5,7.27521,0.874857,14.5458,0.0857299,0.345038,0.291521,1,0,79.2925,-8.2425,2.4675,0.061122,0.230336,-0.715286,-0.21882,0.02394,0.3808
-10.4421,0,0,25.4421,25.4421,5,5,7.40972,0.86383,14.5498,0.0859224,0.347367,0.291224,1,0,78.7675,-6.125,2.0125,0.061122,0.230336,-0.715286,-0.21882,0.02394,0.3808
-10.6378,0,0,25.6378,25.6378,5,5,7.54905,0.853616,14.5544,-0.215548,-0.0897561,0.301238,1,0,81.4625,-5.6,2.31,-0.241804,-0.208742,-0.705038,-0.21882,0.02394,0.3808
-10.842,0,0,25.842,25.842,5,5,7.6945,0.838683,14.5595,-0.215288,-0.0872397,0.300905,1,0,84.8925,-8.295,2.9575,-0.241804,-0.208742,-0.705038,-0.21882,0.02394,0.3808
-11.0527,0,0,26.0527,26.0527,5,5,7.84463,0.824324,14.5644,-0.128782,0.107218,-0.740451,1,0,87.5175,-7.9625,2.8525,-0.155184,-0.01708,-1.73801,-0.21882,0.02394,0.3808
-11.2625,0,0,26.2625,26.2625,5,5,7.99403,0.814275,14.571,-0.128607,0.109801,-0.740807,1,0,87.0975,-5.32,3.465,-0.155184,-0.01708,-1.73801,-0.21882,0.02394,0.3808
-11.4686,0,0,26.4686,26.4686,5,5,8.14083,0.801205,14.5766,0.038178,0.393107,-0.081545,1,0,85.645,-7.14,3.1675,0.012078,0.263398,-1.08348,-0.21882,0.02394,0.3808
-11.6756,0,0,26.6756,26.6756,5,5,8.28824,0.784248,14.5814,0.038474,0.395654,-0.0819085,1,0,85.995,-9.45,3.045,0.012078,0.263398,-1.08348,-0.22022,0.02072,0.38626
-10.6689,0,0,25.6689,25.6689,5,5,7.56871,0.619721,14.7962,0.0143755,0.865378,0.315015,0,0,83.1075,-8.085,3.2375,-0.015006,0.745054,-0.691374,-0.22022,0.02072,0.38626
-9.66329,0,0,24.6633,24.6633,5.33671,5.33671,6.85008,0.459252,15.0141,0.017176,0.852938,0.316615,0,0,79.905,-7.0525,1.2425,-0.015006,0.745054,-0.691374,-0.22022,0.02072,0.38626
-9.87145,0,0,24.8715,24.8715,5.12855,5.12855,6.9984,0.447428,15.0143,0.229375,-0.483367,-0.0933598,1,0,86.5375,-6.8775,-0.1575,0.197884,-0.592432,-1.09788,-0.22022,0.02072,0.38626
-10.0859,0,0,25.0859,25.0859,5,5,7.15122,0.430459,15.0133,0.229671,-0.48072,-0.0936861,1,0,89.075,-9.9575,-0.5075,0.197884,-0.592432,-1.09788,-0.22022,0.02072,0.38626
-10.2927,0,0,25.2927,25.2927,5,5,7.29852,0.413149,15.0121,-0.411228,0.274742,-0.0731059,1,0,85.9775,-10.1675,-0.56,-0.446032,0.159698,-1.07714,-0.22022,0.02072,0.38626
-10.5064,0,0,25.5064,25.5064,5,5,7.45075,0.398498,15.0097,-0.410973,0.277377,-0.0734452,1,0,88.7425,-8.715,-1.4525,-0.446032,0.159698,-1.07714,-0.22022,0.02072,0.38626
-10.7407,0,0,25.7407,25.7407,5,5,7.61768,0.381607,15.0073,-0.371924,-0.221797,-0.161487,1,0,96.985,-10.01,-1.2075,-0.407114,-0.341844,-1.16412,-0.22022,0.02072,0.38626
-10.9849,0,0,25.9849,25.9849,5,5,7.79172,0.368104,15.0051,-0.371688,-0.218787,-0.161893,1,0,100.975,-8.0325,-1.365,-0.407114,-0.341844,-1.16412,-0.22498,0.00728,0.37016
-11.2249,0,0,26.2249,26.2249,5,5,7.96274,0.357795,15.0031,-0.315868,0.513877,-0.384469,1,0,99.2775,-6.16,-1.4525,-0.351238,0.387106,-1.38458,-0.22498,0.00728,0.37016
-11.4609,0,0,26.4609,26.4609,5,5,8.13084,0.347361,15.0018,-0.315686,0.516782,-0.384879,1,0,97.6325,-6.1775,-1.0325,-0.351238,0.387106,-1.38458,-0.22498,0.00728,0.37016
-11.6984,0,0,26.6984,26.6984,5,5,8.30008,0.334285,15.0008,0.0598118,0.0889647,-0.435093,1,0,98.28,-7.6825,-0.6125,0.02562,-0.043188,-1.43399,-0.22498,0.00728,0.37016
-11.9369,0,0,26.9369,26.9369,5,5,8.46994,0.315073,15.0025,0.0601471,0.0918978,-0.435524,1,0,98.6125,-11.0075,1.4875,0.02562,-0.043188,-1.43399,-0.22498,0.00728,0.37016
-11.671,0,0,26.671,26.671,5,5,8.27959,0.188986,15.2107,-0.0169824,0.331523,0.0450834,0,0,97.1775,-9.2575,2.345,-0.054046,0.19947,-0.957578,-0.22498,0.00728,0.37016
-11.4125,0,0,26.4125,26.4125,5,5,8.09453,0.0653011,15.42,-0.0148237,0.328326,0.0455481,0,0,98.385,-9.695,2.94,-0.054046,0.19947,-0.957578,-0.22498,0.00728,0.37016
-13.0334,0,0,28.0334,28.0334,5,5,9.25177,0.129985,15.3412,-0.105609,-0.799211,0.81474,0,0,100.38,-10.29,3.4475,-0.144082,-0.946842,-0.191296,-0.22498,0.00728,0.37016
-14.6461,0,0,29.6461,29.6461,5,5,10.4032,0.191973,15.2722,-0.106691,-0.77941,0.811307,0,0,101.605,-8.645,5.6,-0.144082,-0.946842,-0.191296,-0.22498,0.00728,0.37016
-15.7487,0,0,30.7487,30.7487,5,5,11.1902,0.884913,14.9714,0.342254,-0.427405,0.399327,0,0,92.2425,-7.7175,5.1275,0.318908,-0.608658,-0.597434,-0.2226,-0.00826,0.36764
-16.8754,0,0,31.8754,31.8754,5,5,11.9943,1.5563,14.6815,0.330539,-0.41371,0.396263,0,0,109.568,-10.8675,3.535,0.318908,-0.608658,-0.597434,-0.2226,-0.00826,0.36764
-17.138,0,0,32.138,32.138,5,5,12.1812,1.53346,14.6868,-0.174444,0.600079,-0.343084,1,0,108.08,-12.4425,4.7075,-0.188612,0.400892,-1.33041,-0.2226,-0.00826,0.36764
-17.4142,0,0,32.4142,32.4142,5,5,12.3778,1.51774,14.6919,-0.174169,0.603433,-0.343806,1,0,113.575,-8.3825,3.7275,-0.188612,0.400892,-1.33041,-0.2226,-0.00826,0.36764
-17.6999,0,0,32.6999,32.6999,5,5,12.5812,1.50213,14.696,-0.344098,0.128406,-0.391409,1,0,117.338,-8.435,3.15,-0.359534,-0.077104,-1.37689,-0.2226,-0.00826,0.36764
-17.9902,0,0,32.9902,32.9902,5,5,12.7879,1.48075,14.6971,-0.343725,0.131926,-0.392192,1,0,119.245,-12.0925,2.2575,-0.359534,-0.077104,-1.37689,-0.2226,-0.00826,0.36764
-18.2703,0,0,33.2703,33.2703,5,5,12.9873,1.46314,14.6984,0.251011,-0.00549241,-0.0984984,1,0,115.168,-9.905,1.89,0.237412,-0.21777,-1.0847,-0.2226,-0.00826,0.36764
-18.5187,0,0,33.5187,33.5187,5,5,13.164,1.44826,14.7,0.251271,-0.00248798,-0.0991894,1,0,102.428,-8.295,1.75,0.237412,-0.21777,-1.0847,-0.2226,-0.00826,0.36764
-18.7668,0,0,33.7668,33.7668,5,5,13.3405,1.42963,14.6998,0.0628073,-0.709045,0.225803,1,0,102.34,-10.675,1.2075,0.047824,-0.92659,-0.761524,-0.22358,-0.01652,0.364
-19.0524,0,0,34.0524,34.0524,5,5,13.5438,1.40697,14.6971,0.496664,0.314044,-0.469671,1,0,117.425,-13.3,0.42,0.48312,0.091988,-1.45082,-0.22358,-0.01652,0.364
-19.3298,0,0,34.3298,34.3298,5,5,13.7412,1.38652,14.6986,0.497021,0.317393,-0.470475,1,0,114.03,-11.445,2.555,0.48312,0.091988,-1.45082,-0.22358,-0.01652,0.364
-19.61,0,0,34.61,34.61,5,5,13.9406,1.36327,14.7,-0.0842472,0.698389,0.232214,1,0,115.168,-13.055,2.8875,-0.101016,0.469212,-0.75274,-0.22358,-0.01652,0.364
-19.9051,0,0,34.9051,34.9051,5,5,14.1506,1.34184,14.7005,-0.0838734,0.701946,0.231333,1,0,121.118,-12.1275,2.17,-0.101016,0.469212,-0.75274,-0.22358,-0.01652,0.364
-19.3017,0,0,34.3017,34.3017,5,5,13.7189,0.727542,15.127,-0.307864,0.615909,0.0398141,0,0,120.943,-8.9775,0.7525,-0.33672,0.390522,-0.944768,-0.22358,-0.01652,0.364
-18.6981,0,0,33.6981,33.6981,5,5,13.287,0.129224,15.5606,-0.297422,0.608599,0.0416498,0,0,118.37,-6.615,-0.21,-0.33672,0.390522,-0.944768,-0.22358,-0.01652,0.364
-19.0137,0,0,34.0137,34.0137,5,5,13.5117,0.10731,15.5589,-0.380135,-1.32965,0.150781,1,0,129.378,-12.74,0.8575,-0.420168,-1.54952,-0.835578,-0.22358,-0.01652,0.364
-19.3448,0,0,34.3448,34.3448,5,5,13.7475,0.0873319,15.5563,-0.379787,-1.32565,0.149811,1,0,135.573,-11.76,0.105,-0.420168,-1.54952,-0.835578,-0.2233,-0.0252,0.37562
-19.6482,0,0,34.6482,34.6482,5,5,13.9634,0.0767923,15.5535,-0.617107,0.743298,-0.987873,1,0,124.443,-6.405,-1.2425,-0.658678,0.51362,-1.96359,-0.2233,-0.0252,0.37562
-19.9956,0,0,34.9956,34.9956,5,5,14.2108,0.0504642,15.552,-0.616648,0.747486,-0.988923,1,0,142.083,-15.19,1.7675,-0.658678,0.51362,-1.96359,-0.2233,-0.0252,0.37562
-20.3384,0,0,35.3384,35.3384,5,5,14.4549,0.0228824,15.5515,-0.783817,0.383769,-0.398841,1,0,140.263,-15.75,2.555,-0.827038,0.146156,-1.37701,-0.2233,-0.0252,0.37562
-20.6446,0,0,35.6446,35.6446,5,5,14.6728,0.00767194,15.5496,-0.783551,0.38745,-0.399797,1,0,125.563,-8.925,0.0175,-0.827038,0.146156,-1.37701,-0.2233,-0.0252,0.37562
-20.9276,0,0,35.9276,35.9276,5,5,14.8742,-0.0022805,15.5499,-0.104515,1.80153,-0.389874,1,0,116.253,-5.6,0.56,-0.145302,1.55538,-1.36628,-0.2233,-0.0252,0.37562
-21.23,0,0,36.23,36.23,5,5,15.0894,-0.0350604,15.5509,-0.103943,1.80516,-0.390845,1,0,124.058,-18.4275,4.34,-0.145302,1.55538,-1.36628,-0.2233,-0.0252,0.37562
-21.0175,0,0,36.0175,36.0175,5,5,14.9368,-0.698499,16.0155,-0.374576,0.334485,-0.019783,0,0,134.26,-16.0125,4.3575,-0.428708,0.088816,-0.998692,-0.2233,-0.0252,0.37562
-20.8026,0,0,35.8026,35.8026,5,5,14.7825,-1.33712,16.4965,-0.363432,0.331832,-0.0192839,0,0,132.72,-9.555,5.0225,-0.428708,0.088816,-0.998692,-0.21182,-0.02758,0.3591
-21.1554,0,0,36.1554,36.1554,5,5,15.0337,-1.36704,16.5046,-0.57308,-0.0791666,0.643007,1,0,144.34,-15.7325,7.945,-0.639768,-0.325984,-0.34038,-0.21182,-0.02758,0.3591
-21.52,0,0,36.52,36.52,5,5,15.2933,-1.39604,16.5131,-0.572574,-0.0747979,0.64181,1,0,149.048,-15.1025,8.1025,-0.639768,-0.325984,-0.34038,-0.21182,-0.02758,0.3591
-21.8792,0,0,36.8792,36.8792,5,5,15.549,-1.41725,16.5166,0.553361,-0.429185,-0.0565033,1,0,146.808,-11.4625,4.095,0.490562,-0.684298,-1.03212,-0.21182,-0.02758,0.3591
-22.2166,0,0,37.2166,37.2166,5,5,15.7892,-1.42197,16.5216,0.553444,-0.425152,-0.0576367,1,0,138.075,-1.89,2.4325,0.490562,-0.684298,-1.03212,-0.21182,-0.02758,0.3591
-22.5635,0,0,37.5635,37.5635,5,5,16.0361,-1.45333,16.5277,0.215289,-1.02407,0.691278,1,0,141.925,-16.7125,7.28,0.150426,-1.28673,-0.287798,-0.21182,-0.02758,0.3591
-22.9656,0,0,37.9656,37.9656,5,5,16.3225,-1.48333,16.5277,0.215812,-1.01928,0.689872,1,0,163.94,-16.8875,3.78,0.150426,-1.28673,-0.287798,-0.21182,-0.02758,0.3591
-23.337,0,0,38.337,38.337,5,5,16.5868,-1.49897,16.5283,-0.514287,1.82947,-0.540557,1,0,151.603,-8.715,1.75,-0.583038,1.55465,-1.50743,-0.21182,-0.02758,0.3591
-23.7194,0,0,38.7194,38.7194,5,5,16.8591,-1.52907,16.5302,-0.513762,1.83402,-0.541937,1,0,156.065,-16.5725,5.0225,-0.583038,1.55465,-1.50743,-0.21182,-0.02702,0.371
-24.1211,0,0,39.1211,39.1211,5,5,17.1451,-1.56971,16.5346,-1.66972,-0.970251,1.17811,1,0,163.818,-22.05,8.2075,-1.7446,-1.25148,0.200812,-0.21182,-0.02702,0.371
-24.4946,0,0,39.4946,39.4946,5,5,17.411,-1.59069,16.5253,-1.66935,-0.965826,1.17672,1,0,152.285,-13.37,-2.66,-1.7446,-1.25148,0.200812,-0.21182,-0.02702,0.371
-24.8174,0,0,39.8174,39.8174,5,5,17.6406,-1.58739,16.5189,0.276913,1.99041,-0.354453,1,0,132.02,0.7,-5.2675,0.209962,1.69787,-1.31736,-0.21182,-0.02702,0.371
-25.1704,0,0,40.1704,40.1704,5,5,17.8918,-1.63175,16.5168,0.277687,1.99458,-0.355811,1,0,144.183,-25.1475,5.5825,0.209962,1.69787,-1.31736,-0.21182,-0.02702,0.371
-25.5626,0,0,40.5626,40.5626,5,5,18.171,-1.66462,16.5198,-0.763115,0.555908,-0.533642,1,0,159.968,-17.78,6.475,-0.835822,0.256078,-1.4923,-0.21182,-0.02702,0.371
-25.9828,0,0,40.9828,40.9828,5,5,18.4701,-1.69523,16.5144,-0.762581,0.560857,-0.535297,1,0,170.993,-18.025,1.5225,-0.835822,0.256078,-1.4923,-0.21182,-0.02702,0.371
-26.4263,0,0,41.4263,41.4263,5,5,18.7859,-1.7274,16.5181,0.881438,1.18489,-0.852067,1,0,180.513,-17.185,6.9125,0.814594,0.874252,-1.80487,-0.21182,-0.02702,0.371
-26.8641,0,0,41.8641,41.8641,5,5,19.0976,-1.75038,16.5233,0.881839,1.19003,-0.853844,1,0,178.22,-11.7775,6.055,0.814594,0.874252,-1.80487,-0.21798,-0.05096,0.35966
-27.3134,0,0,42.3134,42.3134,5,5,19.4175,-1.76705,16.5049,1.95983,1.39021,-1.99284,1,0,182.42,-12.7925,-8.0675,1.89686,1.06896,-2.93325,-0.21798,-0.05096,0.35966
-27.7628,0,0,42.7628,42.7628,5,5,19.7374,-1.78361,16.4864,1.96012,1.39546,-1.99472,1,0,182.42,-12.7925,-8.0675,1.89686,1.06896,-2.93325,-0.21798,-0.05096,0.35966
-28.176,0,0,43.176,43.176,5,5,20.0314,-1.83652,16.4803,2.16113,0.785002,-0.673568,1,0,168.158,-30.3625,6.0725,2.09779,0.454328,-1.62053,-0.21798,-0.05096,0.35966
-28.5892,0,0,43.5892,43.5892,5,5,20.3255,-1.88939,16.4741,2.16205,0.789807,-0.675366,1,0,168.158,-30.3625,6.0725,2.09779,0.454328,-1.62053,-0.21798,-0.05096,0.35966
-29.0447,0,0,44.0447,44.0447,5,5,20.6497,-1.91644,16.4685,-0.674533,2.15437,0.287417,1,0,185.045,-16.0125,1.33,-0.751276,1.81219,-0.663192,-0.21798,-0.05096,0.35966
-29.5001,0,0,44.5001,44.5001,5,5,20.9739,-1.94346,16.4627,-0.674061,2.15965,0.285393,1,0,185.045,-16.0125,1.33,-0.751276,1.81219,-0.663192,-0.21798,-0.05096,0.35966
-29.9564,0,0,44.9564,44.9564,5,5,21.2987,-1.97598,16.4553,-2.28476,-1.75705,0.0052223,1,0,185.325,-19.355,1.6625,-2.36936,-2.10572,-0.939156,-0.21798,-0.05096,0.35966
-30.4127,0,0,45.4127,45.4127,5,5,21.6235,-2.00845,16.4477,-2.28419,-1.75179,0.00313131,1,0,185.325,-19.355,1.6625,-2.36936,-2.10572,-0.939156,-0.20692,-0.05684,0.35112
-30.7888,0,0,45.7888,45.7888,5,5,21.891,-2.05891,16.4486,-1.99308,-1.45204,0.868406,1,0,153.37,-27.265,10.3075,-2.0779,-1.8106,-0.078812,-0.20692,-0.05684,0.35112
-31.221,0,0,46.221,46.221,5,5,22.1985,-2.08323,16.4608,-0.405448,-0.894084,-0.480277,1,0,176.05,-10.5525,10.7625,-0.483974,-1.25819,-1.41508,-0.20692,-0.05684,0.35112
-31.7609,0,0,46.7609,46.7609,5,5,22.5829,-2.13461,16.4574,-0.404552,-0.887897,-0.482861,1,0,218.838,-28.595,8.4875,-0.483974,-1.25819,-1.41508,-0.20692,-0.05684,0.35112
-32.2763,0,0,47.2763,47.2763,5,5,22.9498,-2.17891,16.4531,1.95863,2.73954,-1.40072,1,0,209.003,-24.9375,6.5275,1.88844,2.3596,-2.32337,-0.20692,-0.05684,0.35112
-32.7881,0,0,47.7881,47.7881,5,5,23.3141,-2.19279,16.4642,1.95887,2.74538,-1.40322,1,0,207.883,-4.935,8.015,1.88844,2.3596,-2.32337,-0.20692,-0.05684,0.35112
-33.3243,0,0,48.3243,48.3243,5,5,23.6959,-2.21972,16.4562,0.960002,1.57222,-1.94748,1,0,217.263,-16.345,0.875,0.884866,1.18157,-2.86078,-0.20692,-0.05684,0.35112
-33.7919,0,0,48.7919,48.7919,5,5,24.0286,-2.26972,16.449,0.960874,1.57751,-1.94986,1,0,189.753,-28.525,6.8075,0.884866,1.18157,-2.86078,-0.20692,-0.05684,0.35112
-34.2537,0,0,49.2537,49.2537,5,5,24.3572,-2.3281,16.4466,0.166282,3.90057,-1.75159,1,0,187.53,-31.7975,11.5325,0.085888,3.49701,-2.66167,-0.20692,-0.05684,0.35112
-34.7593,0,0,49.7593,49.7593,5,5,24.717,-2.35772,16.4438,0.166798,3.90627,-1.75422,1,0,205.048,-16.4675,4.6025,0.085888,3.49701,-2.66167,-0.2051,-0.0847,0.34454
-35.2792,0,0,50.2792,50.2792,5,5,25.0869,-2.38599,16.4369,-2.16353,1.95197,2.14679,1,0,210.665,-16.7475,2.1525,-2.2548,1.53891,1.21195,-0.2051,-0.0847,0.34454
-35.8027,0,0,50.8027,50.8027,5,5,25.4596,-2.41112,16.4368,-2.16309,1.95784,2.14399,1,0,212.293,-13.3525,5.075,-2.2548,1.53891,1.21195,-0.2051,-0.0847,0.34454
-36.3654,0,0,51.3654,51.3654,5,5,25.8601,-2.436,16.4319,0.0233525,-0.456178,-0.602642,1,0,227.833,-14.4025,2.5725,-0.059536,-0.878888,-1.51048,-0.2051,-0.0847,0.34454
-36.8813,0,0,51.8813,51.8813,5,5,26.2272,-2.47274,16.4225,0.0239932,-0.450439,-0.605477,1,0,208.968,-21.77,3.36,-0.059536,-0.878888,-1.51048,-0.2051,-0.0847,0.34454
-37.3817,0,0,52.3817,52.3817,5,5,26.5832,-2.52253,16.4175,-0.965247,4.43627,-0.0681592,1,0,202.86,-27.4575,9.1525,-1.05384,3.99721,-0.974536,-0.2051,-0.0847,0.34454
-37.9293,0,0,52.9293,52.9293,5,5,26.9729,-2.55568,16.4129,-0.964669,4.44232,-0.0712434,1,0,221.76,-18.5675,5.1975,-1.05384,3.99721,-0.974536,-0.2051,-0.0847,0.34454
-38.5307,0,0,53.5307,53.5307,5,5,27.401,-2.59087,16.4044,-2.62671,2.78167,0.0137218,1,0,243.18,-20.6325,3.8325,-2.72353,2.33166,-0.886818,-0.2051,-0.0847,0.34454
-39.0867,0,0,54.0867,54.0867,5,5,27.7966,-2.621,16.3967,-2.62618,2.78778,0.0105048,1,0,225.015,-17.745,3.045,-2.72353,2.33166,-0.886818,-0.20258,-0.08316,0.31388
-39.6973,0,0,54.6973,54.6973,5,5,28.2313,-2.64311,16.3893,-1.38567,-0.260665,0.332374,1,0,246.89,-13.475,1.1375,-1.47815,-0.720288,-0.563884,-0.20258,-0.08316,0.31388
-40.308,0,0,55.308,55.308,5,5,28.666,-2.66516,16.3818,-1.38529,-0.25401,0.328749,1,0,246.89,-13.475,1.1375,-1.47815,-0.720288,-0.563884,-0.20258,-0.08316,0.31388
-40.868,0,0,55.868,55.868,5,5,29.0644,-2.71132,16.3776,0.292992,2.08956,-0.108523,1,0,226.678,-24.885,9.73,0.206424,1.61479,-0.994422,-0.20258,-0.08316,0.31388
-41.4281,0,0,56.4281,56.4281,5,5,29.4629,-2.75745,16.3731,0.293796,2.0956,-0.111953,1,0,226.678,-24.885,9.73,0.206424,1.61479,-0.994422,-0.20258,-0.08316,0.31388
-42.0375,0,0,57.0375,57.0375,5,5,29.8966,-2.76788,16.3637,-0.759182,1.19159,-0.189841,1,0,246.26,-8.0675,-2.905,-0.851194,0.70516,-1.06799,-0.20258,-0.08316,0.31388
-42.6469,0,0,57.6469,57.6469,5,5,30.3302,-2.77824,16.3541,-0.759001,1.19812,-0.193642,1,0,246.26,-8.0675,-2.905,-0.851194,0.70516,-1.06799,-0.20258,-0.08316,0.31388
-43.2492,0,0,58.2492,58.2492,5,5,30.7588,-2.82067,16.3503,-2.61225,0.468238,0.983942,1,0,243.548,-22.5575,9.5375,-2.71304,-0.030378,0.10431,-0.20258,-0.08316,0.31388
-43.8748,0,0,58.8748,58.8748,5,5,31.204,-2.86023,16.3462,1.20576,1.47827,-0.122315,1,0,252.893,-21.1225,8.6975,1.12045,0.971974,-0.98942,-0.20244,-0.11144,0.29162
-44.4191,0,0,59.4191,59.4191,5,5,31.5911,-2.90473,16.3482,1.20653,1.48401,-0.125864,1,0,220.465,-21.665,13.3875,1.12045,0.971974,-0.98942,-0.20244,-0.11144,0.29162
-45.0063,0,0,60.0063,60.0063,5,5,32.0088,-2.92306,16.3483,2.83379,1.67057,0.384456,1,0,237.563,-9.1175,4.55,2.75427,1.15217,-0.479216,-0.20244,-0.11144,0.29162
-45.5935,0,0,60.5935,60.5935,5,5,32.4265,-2.94139,16.3483,2.83411,1.67672,0.380561,1,0,237.563,-9.1175,4.55,2.75427,1.15217,-0.479216,-0.20244,-0.11144,0.29162
-46.2019,0,0,61.2019,61.2019,5,5,32.8593,-2.98351,16.3293,3.02351,0.752443,-0.471393,1,0,245.49,-26.7925,2.8,2.94374,0.222528,-1.32053,-0.20244,-0.11144,0.29162
-46.8103,0,0,61.8103,61.8103,5,5,33.2921,-3.02549,16.3099,3.02424,0.758744,-0.475542,1,0,245.49,-26.7925,2.8,2.94374,0.222528,-1.32053,-0.20244,-0.11144,0.29162
-47.3944,0,0,62.3944,62.3944,5,5,33.7075,-3.05092,16.3098,-0.636042,0.672807,2.00253,1,0,236.285,-12.495,6.9825,-0.732488,0.130662,1.14241,-0.20244,-0.11144,0.29162
-47.922,0,0,62.922,62.922,5,5,34.0826,-3.07084,16.3058,2.3859,2.32009,0.757332,1,0,213.535,-11.0075,3.4125,2.3019,1.77083,-0.089548,-0.20244,-0.11144,0.29162
-48.4601,0,0,63.4601,63.4601,5,5,34.465,-3.07927,16.2972,2.38604,2.3256,0.753572,1,0,217.56,-6.9475,-2.52,2.3019,1.77083,-0.089548,-0.19348,-0.1162,0.266
-49.0309,0,0,64.0309,64.0309,5,5,34.8709,-3.10567,16.2763,3.26825,1.43682,1.24513,1,0,230.318,-19.6875,-2.38,3.18737,0.87718,0.402234,-0.19348,-0.1162,0.266
-49.6514,0,0,64.6514,64.6514,5,5,35.3122,-3.14358,16.2545,3.26891,1.4431,1.24068,1,0,250.145,-25.4975,1.225,3.18737,0.87718,0.402234,-0.19348,-0.1162,0.266
-50.2407,0,0,65.2407,65.2407,5,5,35.7312,-3.16599,16.2484,2.16694,0.727256,-0.660304,1,0,238.088,-12.7925,3.5525,2.08034,0.15616,-1.47986,-0.19348,-0.1162,0.266
-50.7529,0,0,65.7529,65.7529,5,5,36.0951,-3.18156,16.2492,2.16721,0.732384,-0.664036,1,0,207.445,-7.1225,4.585,2.08034,0.15616,-1.47986,-0.19348,-0.1162,0.266
-51.2498,0,0,66.2498,66.2498,5,5,36.4481,-3.1942,16.2493,1.70032,0.592738,-1.88192,1,0,201.303,-5.9675,3.255,1.61125,0.011712,-2.68473,-0.19348,-0.1162,0.266
-51.7606,0,0,66.7606,66.7606,5,5,36.811,-3.19356,16.2426,1.7003,0.597813,-1.8857,1,0,206.623,-2.0475,-4.48,1.61125,0.011712,-2.68473,-0.19348,-0.1162,0.266
-52.2705,0,0,67.2705,67.2705,5,5,37.1733,-3.22406,16.2205,1.95426,-0.436705,0.77957,1,0,205.8,-22.0675,-0.7,1.86575,-1.02675,-0.036234,-0.19348,-0.1162,0.266
-52.7727,0,0,67.7727,67.7727,5,5,37.5299,-3.26684,16.205,1.955,-0.43179,0.775765,1,0,202.878,-25.445,6.825,1.86575,-1.02675,-0.036234,-0.19194,-0.13426,0.24458
-53.1689,0,0,68.1689,68.1689,5,5,37.8109,-3.29875,16.1982,-0.798888,3.85908,1.34618,1,0,160.703,-17.2375,7.1225,-0.90036,3.25581,0.532774,-0.19194,-0.13426,0.24458
-53.5202,0,0,68.5202,68.5202,5,5,38.0598,-3.32126,16.1949,-0.798496,3.86249,1.3435,1,0,142.818,-11.62,5.4075,-0.90036,3.25581,0.532774,-0.19194,-0.13426,0.24458
-53.8838,0,0,68.8838,68.8838,5,5,38.3175,-3.33505,16.1987,0.657265,2.18676,-0.272375,1,0,147.963,-5.005,5.565,0.561322,1.57831,-1.06787,-0.19194,-0.13426,0.24458
-54.2957,0,0,69.2957,69.2957,5,5,38.6096,-3.36403,16.186,0.657769,2.19073,-0.275564,1,0,166.758,-17.92,3.605,0.561322,1.57831,-1.06787,-0.19194,-0.13426,0.24458
-54.7358,0,0,69.7358,69.7358,5,5,38.9219,-3.4119,16.1749,-0.885966,-0.426019,-0.10848,1,0,178.098,-25.935,11.34,-0.989786,-1.03993,-0.898652,-0.19194,-0.13426,0.24458
-55.1474,0,0,70.1474,70.1474,5,5,39.2138,-3.44562,16.1824,-0.885378,-0.422093,-0.111712,1,0,167.3,-12.6175,14.63,-0.989786,-1.03993,-0.898652,-0.19194,-0.13426,0.24458
-55.4591,0,0,70.4591,70.4591,5,5,39.4343,-3.47497,16.2024,-0.911351,2.72501,0.289838,1,0,127.698,-5.8975,18.7425,-1.01638,2.10096,-0.49776,-0.19194,-0.13426,0.24458
-55.7708,0,0,70.7708,70.7708,5,5,39.6548,-3.5044,16.2223,-0.910838,2.72795,0.287368,1,0,127.698,-5.8975,18.7425,-1.01638,2.10096,-0.49776,-0.19474,-0.14392,0.22582
-55.9793,0,0,70.9793,70.9793,5,5,39.8016,-3.5297,16.2303,-0.182212,4.60614,-1.32995,1,0,85.96,-8.435,11.8825,-0.285114,3.97525,-2.10096,-0.19474,-0.14392,0.22582
-56.1878,0,0,71.1878,71.1878,5,5,39.9484,-3.55503,16.2382,-0.181771,4.60808,-1.33161,1,0,85.96,-8.435,11.8825,-0.285114,3.97525,-2.10096,-0.19474,-0.14392,0.22582
-56.4694,0,0,71.4694,71.4694,5,5,40.1474,-3.6096,16.2508,0.107101,1.94101,-2.26449,1,0,115.395,-19.74,24.99,0.004026,1.30833,-3.02438,-0.19474,-0.14392,0.22582
-56.751,0,0,71.751,71.751,5,5,40.3464,-3.66422,16.2633,0.108052,1.94361,-2.26677,1,0,115.395,-19.74,24.99,0.004026,1.30833,-3.02438,-0.19474,-0.14392,0.22582
-56.8678,0,0,71.8678,71.8678,5,5,40.4276,-3.68826,16.2912,1.19589,3.05334,-0.587987,1,0,49.945,-0.175,20.335,1.09605,2.41584,-1.35762,-0.19474,-0.14392,0.22582
-56.9846,0,0,71.9846,71.9846,5,5,40.5089,-3.71234,16.3191,1.19631,3.0544,-0.588926,1,0,49.945,-0.175,20.335,1.09605,2.41584,-1.35762,-0.19474,-0.14392,0.22582
-57.1111,0,0,72.1111,72.1111,5,5,40.5971,-3.75721,16.3409,1.37701,1.15207,1.28734,1,0,53.6375,-11.69,25.55,1.27673,0.514352,0.505202,-0.19474,-0.14392,0.22582
-57.2352,0,0,72.2352,72.2352,5,5,40.6835,-3.80279,16.3687,-0.105779,2.50475,-0.631434,1,0,52.885,-9.695,28.4725,-0.213134,1.86453,-1.39775,-0.18704,-0.15092,0.21784
-57.2882,0,0,72.2882,72.2882,5,5,40.7192,-3.82464,16.4062,-0.105398,2.5052,-0.631859,1,0,24.78,4.5675,23.73,-0.213134,1.86453,-1.39775,-0.18704,-0.15092,0.21784
-57.3289,0,0,72.3289,72.3289,5,5,40.7461,-3.84839,16.4424,-0.332892,0.549193,-0.937835,1,0,19.8275,3.2375,23.87,-0.442006,-0.089792,-1.70105,-0.18704,-0.15092,0.21784
-57.3136,0,0,72.3136,72.3136,5,5,40.733,-3.86741,16.4765,1.4472,2.22031,0.00150036,1,0,-2.6775,4.55,21.1575,1.34529,1.57978,-0.769088,-0.18704,-0.15092,0.21784
-57.276,0,0,72.276,72.276,5,5,40.7039,-3.88949,16.494,1.44759,2.21991,0.00181059,1,0,-12.2325,-3.1325,15.015,1.34529,1.57978,-0.769088,-0.18704,-0.15092,0.21784
-57.2577,0,0,72.2577,72.2577,5,5,40.6887,-3.91011,16.5195,1.85286,0.433956,0.366753,1,0,-4.165,0.5425,17.9725,1.75192,-0.204106,-0.407114,-0.18704,-0.15092,0.21784
-57.2333,0,0,72.2333,72.2333,5,5,40.6691,-3.90898,16.5563,1.85284,0.433698,0.366977,1,0,-6.2125,14.4725,14.6475,1.75192,-0.204106,-0.407114,-0.18704,-0.15092,0.21784
-57.1682,0,0,72.1682,72.1682,5,5,40.6204,-3.90779,16.5883,2.39465,0.612216,-0.359588,1,0,-22.6625,12.705,12.565,2.29604,-0.025132,-1.12862,-0.18704,-0.15092,0.21784
-57.1114,0,0,72.1114,72.1114,5,5,40.5777,-3.90319,16.6101,2.39457,0.611654,-0.359099,1,0,-19.74,10.3075,6.7375,2.29604,-0.025132,-1.12862,-0.1932,-0.1505,0.22568
-57.051,0,0,72.051,72.051,5,5,40.5324,-3.91112,16.6211,-0.947125,2.0453,0.507087,1,0,-21.6125,0.63,6.7375,-1.05994,1.40764,-0.26962,-0.1932,-0.1505,0.22568
-56.9604,0,0,71.9604,71.9604,5,5,40.4655,-3.8956,16.6526,-0.947395,2.04443,0.507858,1,0,-32.9175,18.8825,6.965,-1.05994,1.40764,-0.26962,-0.1932,-0.1505,0.22568
-56.8263,0,0,71.8263,71.8263,5,5,40.3675,-3.87814,16.6836,-0.314272,3.56912,0.257795,1,0,-50.33,19.5125,6.0025,-0.423828,2.93203,-0.518866,-0.1932,-0.1505,0.22568
-56.6608,0,0,71.6608,71.6608,5,5,40.2472,-3.86358,16.696,-0.314526,3.56753,0.259164,1,0,-63.63,11.1825,-1.12,-0.423828,2.93203,-0.518866,-0.1932,-0.1505,0.22568
-56.5349,0,0,71.5349,71.5349,5,5,40.1551,-3.84936,16.7132,-0.146394,1.79169,0.746227,1,0,-47.5825,12.8275,1.155,-0.254736,1.15924,-0.0366,-0.1932,-0.1505,0.22568
-56.4072,0,0,71.4072,71.4072,5,5,40.0617,-3.85076,16.7196,-0.14637,1.79045,0.747273,1,0,-48.72,1.7675,2.24,-0.254736,1.15924,-0.0366,-0.1932,-0.1505,0.22568
-56.2796,0,0,71.2796,71.2796,5,5,39.9684,-3.84358,16.734,-0.236516,1.46765,-0.0229315,1,0,-48.37,8.61,2.59,-0.345138,0.838018,-0.801906,-0.1932,-0.1505,0.22568
-56.1193,0,0,71.1193,71.1193,5,5,39.8518,-3.8276,16.7467,-0.236794,1.46611,-0.0216144,1,0,-61.5125,11.9,-1.47,-0.345138,0.838018,-0.801906,-0.1967,-0.14672,0.22736
-55.9421,0,0,70.9421,70.9421,5,5,39.7231,-3.81097,16.7509,0.932094,0.876356,-0.210121,1,0,-68.6175,9.0475,-5.46,0.82899,0.250588,-0.990396,-0.1967,-0.14672,0.22736
-55.7901,0,0,70.7901,70.7901,5,5,39.6124,-3.80325,16.7534,0.93196,0.874878,-0.208883,1,0,-58.5725,4.3925,-2.8875,0.82899,0.250588,-0.990396,-0.1967,-0.14672,0.22736
-55.6463,0,0,70.6463,70.6463,5,5,39.5076,-3.80253,16.7515,0.444425,2.57091,1.02459,1,0,-55.475,-0.385,-2.24,0.339404,1.94627,0.23241,-0.1967,-0.14672,0.22736
-55.5367,0,0,70.5367,70.5367,5,5,39.4272,-3.80296,16.7603,0.444433,2.56983,1.02548,1,0,-41.3525,3.0625,2.9925,0.339404,1.94627,0.23241,-0.1967,-0.14672,0.22736
-55.418,0,0,70.418,70.418,5,5,39.3403,-3.79392,16.7761,2.11949e-06,0.976866,0.250154,1,0,-44.73,9.9225,2.6075,-0.10675,0.356118,-0.537898,-0.1967,-0.14672,0.22736
-55.2118,0,0,70.2118,70.2118,5,5,39.1909,-3.77628,16.7832,-0.000305002,0.974865,0.251816,1,0,-80.0975,10.6225,-4.4275,-0.10675,0.356118,-0.537898,-0.1967,-0.14672,0.22736
-55.0076,0,0,70.0076,70.0076,5,5,39.043,-3.76029,16.7935,-0.154141,1.87991,0.365708,1,0,-79.1875,11.025,-2.3975,-0.260958,1.26221,-0.426512,-0.1967,-0.14672,0.22736
-54.8508,0,0,69.8508,69.8508,5,5,38.9289,-3.76395,16.7967,-0.154078,1.87837,0.366955,1,0,-60.445,-0.49,1.68,-0.260958,1.26221,-0.426512,-0.20146,-0.14728,0.23408
-54.7099,0,0,69.7099,69.7099,5,5,38.8262,-3.77324,16.7979,0.337737,1.98529,0.612122,1,0,-54.1625,-3.815,2.8175,0.232776,1.37043,-0.184342,-0.20146,-0.14728,0.23408
-54.5617,0,0,69.5617,69.5617,5,5,38.7182,-3.77002,16.8153,0.337681,1.98383,0.613303,1,0,-56.5075,7.805,5.565,0.232776,1.37043,-0.184342,-0.20146,-0.14728,0.23408
-54.3818,0,0,69.3818,69.3818,5,5,38.5877,-3.75663,16.832,-0.417465,1.71937,1.23931,1,0,-69.1775,12.1975,1.575,-0.525332,1.108,0.435418,-0.20146,-0.14728,0.23408
-54.1893,0,0,69.1893,69.1893,5,5,38.4481,-3.7416,16.8452,-0.417726,1.71748,1.24084,1,0,-74.3575,11.7075,-0.5425,-0.525332,1.108,0.435418,-0.20146,-0.14728,0.23408
-54.0209,0,0,69.0209,69.0209,5,5,38.3257,-3.73371,16.8571,0.472019,2.02772,1.22865,1,0,-64.8025,7.9275,1.435,0.368318,1.41959,0.421998,-0.20146,-0.14728,0.23408
-53.9056,0,0,68.9056,68.9056,5,5,38.2414,-3.74294,16.861,0.47218,2.02656,1.22955,1,0,-43.7675,-2.8525,3.99,0.368318,1.41959,0.421998,-0.20146,-0.14728,0.23408
-53.8017,0,0,68.8017,68.8017,5,5,38.1651,-3.736,16.8712,0.901511,1.68137,0.091873,1,0,-39.0075,6.8425,0.9975,0.799588,1.0758,-0.707722,-0.20146,-0.14728,0.23408
-53.6526,0,0,68.6526,68.6526,5,5,38.0565,-3.70724,16.898,0.90101,1.6799,0.0930654,1,0,-56.49,22.925,0.805,0.799588,1.0758,-0.707722,-0.20146,-0.14728,0.23408
-53.4839,0,0,68.4839,68.4839,5,5,37.934,-3.68133,16.9148,0.886952,2.22134,0.315217,1,0,-64.68,17.9725,-2.7475,0.785924,1.61833,-0.48861,-0.203,-0.13132,0.24332
-53.343,0,0,68.343,68.343,5,5,37.8314,-3.66701,16.9279,-0.442715,1.14156,0.306246,1,0,-53.7075,11.3225,-0.2275,-0.549122,0.54107,-0.498614,-0.203,-0.13132,0.24332
-53.2179,0,0,68.2179,68.2179,5,5,37.74,-3.66417,16.9335,-0.442765,1.1403,0.307224,1,0,-47.635,3.29,0.42,-0.549122,0.54107,-0.498614,-0.203,-0.13132,0.24332
-52.0593,0,0,67.0593,67.0593,5,5,36.9105,-3.40612,17.1137,0.377385,0.793864,-0.0514094,0,0,-50.33,8.855,3.01,0.279014,0.206302,-0.863394,-0.203,-0.13132,0.24332
-50.9077,0,0,65.9077,65.9077,5,5,36.0859,-3.13254,17.2887,0.372618,0.782476,-0.0426446,0,0,-52.6225,15.2075,-3.5525,0.279014,0.206302,-0.863394,-0.203,-0.13132,0.24332
-49.1551,0,0,64.1551,64.1551,5,5,34.8322,-3.93708,17.5654,-0.144017,1.36627,0.220011,0,0,-60.305,15.295,-7.35,-0.253882,0.807762,-0.614636,-0.203,-0.13132,0.24332
-47.4182,0,0,62.4182,62.4182,5,5,33.5897,-4.7507,17.8678,-0.129857,1.34779,0.231278,0,0,-51.485,9.905,-5.215,-0.253882,0.807762,-0.614636,-0.203,-0.13132,0.24332
-47.309,0,0,62.309,62.309,5,5,33.5099,-4.74608,17.8667,-0.301718,0.556106,0.864252,1,0,-41.405,1.89,-3.15,-0.42639,0.018056,0.012688,-0.20454,-0.1337,0.24892
-47.2412,0,0,62.2412,62.2412,5,5,33.4598,-4.72944,17.8701,0.495546,1.68128,-0.0391637,1,0,-24.5875,9.1875,-4.865,0.37454,1.14277,-0.884256,-0.20454,-0.1337,0.24892
-47.1382,0,0,62.1382,62.1382,5,5,33.3844,-4.69853,17.8778,0.495008,1.68021,-0.0384045,1,0,-38.5175,17.5875,-7.315,0.37454,1.14277,-0.884256,-0.20454,-0.1337,0.24892
-47.0362,0,0,62.0362,62.0362,5,5,33.3098,-4.67098,17.8771,0.0837859,1.23057,-0.0486005,1,0,-38.4825,13.2125,-10.3425,-0.037942,0.694668,-0.895114,-0.20454,-0.1337,0.24892
-46.9343,0,0,61.9343,61.9343,5,5,33.2351,-4.64344,17.8763,0.0833068,1.22951,-0.0478558,1,0,-38.4825,13.2125,-10.3425,-0.037942,0.694668,-0.895114,-0.20454,-0.1337,0.24892
-46.836,0,0,61.836,61.836,5,5,33.1632,-4.63384,17.8691,-0.782203,1.12088,0.282343,1,0,-37.275,2.415,-7.665,-0.906948,0.587186,-0.568154,-0.20454,-0.1337,0.24892
-46.7378,0,0,61.7378,61.7378,5,5,33.0912,-4.62424,17.862,-0.78237,1.11983,0.283038,1,0,-37.275,2.415,-7.665,-0.906948,0.587186,-0.568154,-0.20454,-0.1337,0.24892
-46.6556,0,0,61.6556,61.6556,5,5,33.0308,-4.61115,17.8572,0.620441,0.47047,0.2883,1,0,-30.73,4.865,-7.665,0.50203,-0.060634,-0.563518,-0.20454,-0.1337,0.24892
-46.5734,0,0,61.5734,61.5734,5,5,32.9703,-4.59807,17.8523,0.620213,0.469598,0.288888,1,0,-30.73,4.865,-7.665,0.50203,-0.060634,-0.563518,-0.19796,-0.13482,0.25648
-46.4638,0,0,61.4638,61.4638,5,5,32.8902,-4.59479,17.8417,-0.132934,0.773382,0.0674811,1,0,-41.9825,-1.785,-7.3675,-0.254248,0.244,-0.783972,-0.19796,-0.13482,0.25648
-46.3541,0,0,61.3541,61.3541,5,5,32.8102,-4.59153,17.831,-0.132991,0.772214,0.0682406,1,0,-41.9825,-1.785,-7.3675,-0.254248,0.244,-0.783972,-0.19796,-0.13482,0.25648
-46.2766,0,0,61.2766,61.2766,5,5,32.7531,-4.59235,17.8224,0.165879,2.03942,0.662127,1,0,-29.015,-3.15,-5.0925,0.045872,1.51073,-0.1952,-0.19796,-0.13482,0.25648
-46.1992,0,0,61.1992,61.1992,5,5,32.6959,-4.59318,17.8138,0.165893,2.03858,0.662663,1,0,-29.015,-3.15,-5.0925,0.045872,1.51073,-0.1952,-0.19796,-0.13482,0.25648
-44.7143,0,0,59.7143,59.7143,5,5,31.6337,-4.83536,18.0602,0.19258,1.07676,0.0677906,0,0,-26.6,-0.77,-10.2725,0.068442,0.565714,-0.794952,-0.19796,-0.13482,0.25648
-44.6281,0,0,59.6281,59.6281,5,5,31.5704,-4.82697,18.0502,-1.37084,1.22971,-0.313992,1,0,-32.5675,1.1025,-8.6625,-1.50145,0.719434,-1.17437,-0.19796,-0.13482,0.25648
-44.5655,0,0,59.5655,59.5655,5,5,31.524,-4.8337,18.0322,-1.37073,1.22902,-0.313578,1,0,-23.485,-8.8725,-7.9975,-1.50145,0.719434,-1.17437,-0.19796,-0.13482,0.25648
-44.4976,0,0,59.4976,59.4976,5,5,31.4738,-4.83948,18.0143,-1.22581,0.845281,0.254647,1,0,-25.6025,-8.365,-8.2425,-1.35603,0.336842,-0.610976,-0.20146,-0.13048,0.24766
-44.423,0,0,59.423,59.423,5,5,31.4188,-4.84326,18.0019,0.23293,0.45439,-0.601933,1,0,-28.0175,-5.6875,-6.1425,0.108824,-0.052826,-1.46144,-0.20146,-0.13048,0.24766
-44.3223,0,0,59.3223,59.3223,5,5,31.3452,-4.84038,17.9845,0.23288,0.453299,-0.601263,1,0,-38.6925,-3.8675,-10.64,0.108824,-0.052826,-1.46144,-0.20146,-0.13048,0.24766
-43.4959,0,0,58.4959,58.4959,5,5,30.7533,-4.22704,18.0347,0.570022,0.648986,0.0513601,0,0,-39.095,-3.99,-11.2525,0.45811,0.151036,-0.81984,-0.20146,-0.13048,0.24766
-42.6932,0,0,57.6932,57.6932,5,5,30.1783,-3.63446,18.0698,0.559704,0.640717,0.057047,0,0,-33.495,-13.51,-11.305,0.45811,0.151036,-0.81984,-0.20146,-0.13048,0.24766
-41.0837,0,0,56.0837,56.0837,5,5,29.0271,-4.80371,18.4735,-0.361094,1.20522,0.391207,0,0,-30.24,-14.175,-10.92,-0.487024,0.733098,-0.496784,-0.20146,-0.13048,0.24766
-39.4727,0,0,54.4727,54.4727,5,5,27.8749,-5.95811,18.9181,-0.341035,1.18672,0.399084,0,0,-27.055,-6.16,-10.7275,-0.487024,0.733098,-0.496784,-0.20146,-0.13048,0.24766
-39.3856,0,0,54.3856,54.3856,5,5,27.8112,-5.95278,18.8974,0.191587,2.05138,0.193301,1,0,-33.495,-2.8875,-13.195,0.047946,1.59783,-0.7015,-0.20146,-0.13048,0.24766
-39.3023,0,0,54.3023,54.3023,5,5,27.7502,-5.94576,18.8758,0.191465,2.05045,0.193806,1,0,-32.0775,-2.2575,-14.1575,0.047946,1.59783,-0.7015,-0.19824,-0.12222,0.266
-39.2317,0,0,54.2317,54.2317,5,5,27.6983,-5.94525,18.8518,0.212716,1.31872,-0.646619,1,0,-27.125,-6.265,-13.615,0.069296,0.867664,-1.53586,-0.19824,-0.12222,0.266
-39.1435,0,0,54.1435,54.1435,5,5,27.6338,-5.95305,18.8238,0.212852,1.31773,-0.646112,1,0,-34.3875,-11.62,-13.37,0.069296,0.867664,-1.53586,-0.19824,-0.12222,0.266
-39.0559,0,0,54.0559,54.0559,5,5,27.5698,-5.9592,18.7997,0.57292,0.782675,-0.163771,1,0,-33.915,-9.7125,-11.865,0.430782,0.334158,-1.05774,-0.19824,-0.12222,0.266
-38.9547,0,0,53.9547,53.9547,5,5,27.496,-5.95373,18.7784,0.572825,0.781544,-0.163171,1,0,-39.2175,-2.94,-13.615,0.430782,0.334158,-1.05774,-0.19824,-0.12222,0.266
-38.8431,0,0,53.8431,53.8431,5,5,27.4148,-5.94257,18.757,-0.146321,0.761495,-1.23978,1,0,-43.365,0.035,-15.155,-0.291214,0.31537,-2.1267,-0.19824,-0.12222,0.266
-38.747,0,0,53.747,53.747,5,5,27.3447,-5.92249,18.7399,-0.146669,0.760431,-1.23919,1,0,-36.9075,5.845,-15.33,-0.291214,0.31537,-2.1267,-0.19824,-0.12222,0.266
-38.6631,0,0,53.6631,53.6631,5,5,27.2833,-5.91704,18.7265,-0.249298,1.06371,-0.619151,1,0,-31.78,-0.7525,-9.485,-0.394182,0.619272,-1.51195,-0.19824,-0.12222,0.266
-38.5813,0,0,53.5813,53.5813,5,5,27.2235,-5.91294,18.7122,-0.249369,1.06279,-0.618668,1,0,-31.01,-1.6975,-9.6075,-0.394182,0.619272,-1.51195,-0.19544,-0.1204,0.27146
-38.4898,0,0,53.4898,53.4898,5,5,27.1566,-5.90065,18.706,0.624143,0.73593,-1.29015,1,0,-34.44,4.725,-7.63,0.483242,0.293776,-2.1788,-0.19544,-0.1204,0.27146
-38.3484,0,0,53.3484,53.3484,5,5,27.0542,-5.8848,18.6976,0.623868,0.73436,-1.28932,1,0,-54.53,6.02,-9.6775,0.483242,0.293776,-2.1788,-0.19544,-0.1204,0.27146
-38.197,0,0,53.197,53.197,5,5,26.9446,-5.87792,18.695,0.288569,0.410012,-1.11927,1,0,-58.1875,2.8875,-4.305,0.146644,-0.028548,-2.01093,-0.19544,-0.1204,0.27146
-38.0638,0,0,53.0638,53.0638,5,5,26.848,-5.89133,18.6856,0.288802,0.408505,-1.11853,1,0,-51.31,-9.5025,-2.45,0.146644,-0.028548,-2.01093,-0.19544,-0.1204,0.27146
-37.9325,0,0,52.9325,52.9325,5,5,26.7528,-5.91399,18.6824,-0.737602,0.0673769,-0.312509,1,0,-50.1725,-12.705,3.1675,-0.8845,-0.36783,-1.21183,-0.19544,-0.1204,0.27146
-37.8012,0,0,52.8012,52.8012,5,5,26.6576,-5.93664,18.6792,-0.737208,0.065882,-0.311803,1,0,-50.1725,-12.705,3.1675,-0.8845,-0.36783,-1.21183,-0.19544,-0.1204,0.27146
-37.6467,0,0,52.6467,52.6467,5,5,26.5458,-5.93667,18.6874,-1.03521,0.683573,-1.00326,1,0,-58.8175,2.1,3.115,-1.18377,0.250954,-1.89881,-0.19544,-0.1204,0.27146
-37.4922,0,0,52.4922,52.4922,5,5,26.434,-5.93668,18.6956,-1.03521,0.681836,-1.00239,1,0,-58.8175,2.1,3.115,-1.18377,0.250954,-1.89881,-0.19544,-0.1204,0.27146
-37.3701,0,0,52.3701,52.3701,5,5,26.3454,-5.94663,18.7077,0.396184,0.465263,-1.04598,1,0,-45.605,-2.1,7.7525,0.253516,0.03599,-1.94273,-0.19642,-0.11956,0.27356
-37.2371,0,0,52.2371,52.2371,5,5,26.249,-5.95636,18.7211,0.42721,0.413438,0.0831624,1,0,-49.875,-1.6625,8.365,0.284504,-0.014274,-0.823012,-0.19642,-0.11956,0.27356
-37.1041,0,0,52.1041,52.1041,5,5,26.1526,-5.96606,18.7346,0.427378,0.411929,0.0838855,1,0,-49.875,-1.6625,8.365,0.284504,-0.014274,-0.823012,-0.19642,-0.11956,0.27356
-36.9446,0,0,51.9446,51.9446,5,5,26.0373,-5.95513,18.7484,-0.083659,0.968015,-0.172056,1,0,-60.4625,9.275,3.255,-0.228506,0.543022,-1.07787,-0.19642,-0.11956,0.27356
-36.7851,0,0,51.7851,51.7851,5,5,25.9219,-5.94416,18.7622,-0.0838494,0.966224,-0.171161,1,0,-60.4625,9.275,3.255,-0.228506,0.543022,-1.07787,-0.19642,-0.11956,0.27356
-36.6102,0,0,51.6102,51.6102,5,5,25.7956,-5.95192,18.7621,0.00982938,0.374617,0.314569,1,0,-67.4275,-4.13,0.805,-0.134566,-0.045994,-0.596824,-0.19642,-0.11956,0.27356
-36.4433,0,0,51.4433,51.4433,5,5,25.675,-5.96859,18.7613,0.397415,0.386518,0.276476,1,0,-64.2775,-9.0125,2.6775,0.25437,-0.032208,-0.635498,-0.19642,-0.11956,0.27356
-36.2906,0,0,51.2906,51.2906,5,5,25.5646,-5.97468,18.7642,0.397521,0.384786,0.277294,1,0,-58.3275,-2.52,1.89,0.25437,-0.032208,-0.635498,-0.19502,-0.11662,0.28476
-36.1296,0,0,51.1296,51.1296,5,5,25.4482,-5.96871,18.7628,-0.815496,0.605971,-0.317265,1,0,-61.95,2.8,-3.3425,-0.963678,0.190564,-1.22634,-0.19502,-0.11662,0.28476
-35.9708,0,0,50.9708,50.9708,5,5,25.3334,-5.95119,18.7557,-0.8158,0.604184,-0.316382,1,0,-61.39,7.4725,-9.2575,-0.963678,0.190564,-1.22634,-0.19502,-0.11662,0.28476
-35.8376,0,0,50.8376,50.8376,5,5,25.237,-5.93871,18.7452,1.09082,0.832888,-0.323884,1,0,-51.31,3.99,-9.73,0.951234,0.420534,-1.23452,-0.19502,-0.11662,0.28476
-35.7399,0,0,50.7399,50.7399,5,5,25.1658,-5.94584,18.7325,1.09095,0.831765,-0.32337,1,0,-37.2225,-6.9475,-6.02,0.951234,0.420534,-1.23452,-0.19502,-0.11662,0.28476
-35.6457,0,0,50.6457,50.6457,5,5,25.0972,-5.94492,18.7243,0.335047,0.768769,0.721462,1,0,-35.56,-1.575,-5.705,0.19215,0.35868,-0.19825,-0.19502,-0.11662,0.28476
-35.5265,0,0,50.5265,50.5265,5,5,25.0107,-5.91971,18.7197,0.334609,0.767428,0.722139,1,0,-45.3775,12.2325,-9.765,0.19215,0.35868,-0.19825,-0.19502,-0.11662,0.28476
-35.3956,0,0,50.3956,50.3956,5,5,24.9159,-5.89106,18.7121,1.78137,0.570676,-0.0922677,1,0,-50.225,13.335,-12.18,1.64554,0.163602,-1.00711,-0.19502,-0.11662,0.28476
-35.2973,0,0,50.2973,50.2973,5,5,24.8443,-5.87447,18.7016,1.78108,0.569562,-0.0917182,1,0,-37.3275,6.2125,-10.7625,1.64554,0.163602,-1.00711,-0.19502,-0.11662,0.28476
-35.214,0,0,50.214,50.214,5,5,24.7835,-5.87133,18.6889,0.880454,1.92885,0.837483,1,0,-31.43,-1.4525,-8.5925,0.74115,1.52244,-0.085522,-0.20146,-0.11144,0.28154
-35.1403,0,0,50.1403,50.1403,5,5,24.7295,-5.87138,18.6924,0.206331,0.658984,0.205059,1,0,-26.67,0.8225,0.7525,0.064172,0.254736,-0.713456,-0.20146,-0.11144,0.28154
-35.0456,0,0,50.0456,50.0456,5,5,24.6606,-5.85669,18.6903,0.206076,0.657907,0.205583,1,0,-35.385,7.28,-5.845,0.064172,0.254736,-0.713456,-0.20146,-0.11144,0.28154
-34.9516,0,0,49.9516,49.9516,5,5,24.5922,-5.84302,18.6855,0.423177,0.914891,-0.114795,1,0,-35.2625,6.09,-7,0.28243,0.512522,-1.03188,-0.20146,-0.11144,0.28154
-34.9256,0,0,49.9256,49.9256,5,5,24.5722,-5.84236,18.6873,0.423165,0.914577,-0.11465,1,0,-7.6825,0.7875,-0.2975,0.28243,0.512522,-1.03188,-0.20146,-0.11144,0.28154
-34.9144,0,0,49.9144,49.9144,5,5,24.5629,-5.84905,18.6917,1.20541,0.295487,1.6314,1,0,-1.575,-2.52,2.8,1.06787,-0.105774,0.700646,-0.20146,-0.11144,0.28154
-34.9172,0,0,49.9172,49.9172,5,5,24.5636,-5.84747,18.7072,1.20538,0.295499,1.6314,1,0,4.6725,4.5675,6.65,1.06787,-0.105774,0.700646,-0.20146,-0.11144,0.28154
-34.9133,0,0,49.9133,49.9133,5,5,24.5595,-5.838,18.7181,-0.509435,2.47833,0.939609,1,0,1.68,7.6825,2.345,-0.654042,2.07485,0.014152,-0.203,-0.10808,0.28952
-34.923,0,0,49.923,49.923,5,5,24.5651,-5.83036,18.7422,1.83644,0.227022,-0.496703,1,0,7.91,9.87,9.695,1.7019,-0.174216,-1.41105,-0.203,-0.10808,0.28952
-34.975,0,0,49.975,49.975,5,5,24.601,-5.83731,18.7596,1.83656,0.227583,-0.496974,1,0,24.5,0.5075,9.765,1.7019,-0.174216,-1.41105,-0.203,-0.10808,0.28952
-35.0136,0,0,50.0136,50.0136,5,5,24.6272,-5.84967,18.7722,0.561179,0.688406,0.710909,1,0,18.8125,-3.535,8.54,0.4209,0.285724,-0.21228,-0.203,-0.10808,0.28952
-35.0734,0,0,50.0734,50.0734,5,5,24.6686,-5.85156,18.7898,0.561211,0.689057,0.710606,1,0,27.58,3.255,8.61,0.4209,0.285724,-0.21228,-0.203,-0.10808,0.28952
-35.1302,0,0,50.1302,50.1302,5,5,24.7078,-5.85065,18.8072,0.293563,0.70018,0.0743103,1,0,26.4075,4.69,7.805,0.152134,0.296216,-0.843386,-0.203,-0.10808,0.28952
-35.1824,0,0,50.1824,50.1824,5,5,24.7438,-5.85913,18.8166,0.29371,0.70074,0.0740357,1,0,24.0625,-2.24,5.88,0.152134,0.296216,-0.843386,-0.203,-0.10808,0.28952
-35.2512,0,0,50.2512,50.2512,5,5,24.7916,-5.8672,18.8246,-0.184439,1.99872,1.0173,1,0,30.6775,-2.345,5.0925,-0.32818,1.5921,0.092964,-0.203,-0.10808,0.28952
-35.3362,0,0,50.3362,50.3362,5,5,24.851,-5.87549,18.8302,-0.184295,1.99965,1.01686,1,0,36.995,-3.08,3.7975,-0.32818,1.5921,0.092964,-0.20538,-0.13958,0.2807
-35.4333,0,0,50.4333,50.4333,5,5,24.919,-5.87904,18.836,-0.312887,-0.0236553,-0.0215761,1,0,41.8775,-0.4725,2.8175,-0.457378,-0.430172,-0.93696,-0.20538,-0.13958,0.2807
-35.5469,0,0,50.5469,50.5469,5,5,24.9988,-5.87641,18.8339,-0.312933,-0.0223978,-0.0221561,1,0,47.985,0.8575,-2.905,-0.457378,-0.430172,-0.93696,-0.20538,-0.13958,0.2807
-35.6652,0,0,50.6652,50.6652,5,5,25.082,-5.87541,18.8281,0.398349,1.04398,0.637713,1,0,49.7,-0.91,-4.41,0.256932,0.63379,-0.281576,-0.20538,-0.13958,0.2807
-35.8212,0,0,50.8212,50.8212,5,5,25.1921,-5.87267,18.8271,0.398301,1.04571,0.636906,1,0,65.03,1.1725,-2.3625,0.256932,0.63379,-0.281576,-0.20538,-0.13958,0.2807
-35.9757,0,0,50.9757,50.9757,5,5,25.3011,-5.86785,18.8236,1.01573,1.59492,0.0468148,1,0,64.295,1.68,-4.1475,0.877058,1.18072,-0.866322,-0.20538,-0.13958,0.2807
-36.1128,0,0,51.1128,51.1128,5,5,25.3976,-5.85894,18.8132,1.01557,1.59644,0.0461114,1,0,56.9275,2.1,-8.82,0.877058,1.18072,-0.866322,-0.20538,-0.13958,0.2807
-36.2528,0,0,51.2528,51.2528,5,5,25.4963,-5.85913,18.797,1.7666,0.645766,0.805566,1,0,57.7675,-4.165,-9.555,1.63126,0.229482,-0.111996,-0.20538,-0.13958,0.2807
-36.4039,0,0,51.4039,51.4039,5,5,25.6029,-5.86399,18.7809,1.76669,0.647432,0.80476,1,0,62.23,-6.6325,-8.3475,1.63126,0.229482,-0.111996,-0.20538,-0.13958,0.2807
-36.5539,0,0,51.5539,51.5539,5,5,25.7085,-5.86911,18.7645,0.0687701,1.75543,0.820678,1,0,61.705,-6.8775,-8.4525,-0.073932,1.33468,-0.095404,-0.1932,-0.1232,0.27202
-36.6852,0,0,51.6852,51.6852,5,5,25.801,-5.86796,18.749,-0.957318,-0.13609,-0.169999,1,0,54.32,-3.325,-9.5025,-1.10434,-0.55632,-1.07775,-0.1932,-0.1232,0.27202
-36.8389,0,0,51.8389,51.8389,5,5,25.9094,-5.8672,18.73,-0.957331,-0.134396,-0.170818,1,0,63.07,-4.445,-11.2525,-1.10434,-0.55632,-1.07775,-0.1932,-0.1232,0.27202
-36.1809,0,0,51.1809,51.1809,5,5,25.438,-6.8577,19.3311,-0.477533,0.512738,0.0824267,0,0,65.4325,-4.9,-8.9075,-0.639768,0.098332,-0.828258,-0.1932,-0.1232,0.27202
-35.5522,0,0,50.5522,50.5522,5,5,24.9876,-7.82869,19.9448,-0.460725,0.504762,0.0837882,0,0,76.265,-5.25,-4.795,-0.639768,0.098332,-0.828258,-0.1932,-0.1232,0.27202
-35.7313,0,0,50.7313,50.7313,5,5,25.1142,-7.83208,19.9369,0.85636,2.07693,-0.0275536,1,0,73.7625,-3.745,-4.41,0.682834,1.66689,-0.937814,-0.1932,-0.1232,0.27202
-35.907,0,0,50.907,50.907,5,5,25.2383,-7.82881,19.9357,0.856303,2.07887,-0.0284594,1,0,72.87,1.4175,-2.5725,0.682834,1.66689,-0.937814,-0.1932,-0.1232,0.27202
-36.0831,0,0,51.0831,51.0831,5,5,25.3628,-7.8299,19.9311,0.265173,0.6926,-0.881538,1,0,72.8175,-1.75,-3.29,0.089182,0.280112,-1.7834,-0.1932,-0.1232,0.27202
-36.2532,0,0,51.2532,51.2532,5,5,25.4829,-7.84487,19.9257,0.265432,0.694461,-0.882462,1,0,70.3325,-9.2925,-0.2275,0.089182,0.280112,-1.7834,-0.19334,-0.12278,0.27496
-36.4238,0,0,51.4238,51.4238,5,5,25.6034,-7.86031,19.9253,-0.326423,-0.00370664,-0.257954,1,0,70.875,-8.2775,2.555,-0.505446,-0.419192,-1.16278,-0.19334,-0.12278,0.27496
-36.5785,0,0,51.5785,51.5785,5,5,25.7125,-7.87233,19.9273,-0.326215,-0.00201814,-0.258796,1,0,64.7325,-5.8625,2.94,-0.505446,-0.419192,-1.16278,-0.19334,-0.12278,0.27496
-36.719,0,0,51.719,51.719,5,5,25.8115,-7.87723,19.9307,1.20921,0.913514,-0.089144,1,0,59.1325,-1.7325,1.9075,1.03639,0.493856,-0.99369,-0.19334,-0.12278,0.27496
-36.8768,0,0,51.8768,51.8768,5,5,25.9228,-7.88355,19.9341,1.20932,0.915239,-0.0899972,1,0,66.0625,-2.485,2.2575,1.03639,0.493856,-0.99369,-0.19334,-0.12278,0.27496
-37.0496,0,0,52.0496,52.0496,5,5,26.0449,-7.8985,19.9366,0.0853451,1.57893,-0.0368567,1,0,72.0125,-7.28,3.9375,-0.092598,1.15497,-0.94001,-0.19334,-0.12278,0.27496
-37.2112,0,0,52.2112,52.2112,5,5,26.1589,-7.915,19.9473,0.0856304,1.58068,-0.0377596,1,0,68.145,-5.9675,8.6625,-0.092598,1.15497,-0.94001,-0.19334,-0.12278,0.27496
-36.047,0,0,51.047,51.047,5,5,25.326,-8.36139,20.4086,0.0475428,0.942803,-0.0435682,0,0,62.0025,-4.865,6.0725,-0.138592,0.531188,-0.95099,-0.19334,-0.12278,0.27496
-34.8711,0,0,49.8711,49.8711,5,5,24.4847,-8.7977,20.8835,0.0550725,0.929157,-0.0384848,0,0,56.945,0.455,3.395,-0.138592,0.531188,-0.95099,-0.19656,-0.12894,0.25872
-34.9903,0,0,49.9903,49.9903,5,5,24.5685,-8.80606,20.8881,1.28587,0.762294,0.135728,1,0,50.7675,-3.3775,3.29,1.09727,0.363194,-0.777506,-0.19656,-0.12894,0.25872
-35.119,0,0,50.119,50.119,5,5,24.6591,-8.82336,20.8889,1.28617,0.763695,0.135035,1,0,54.2325,-9.03,3.5175,1.09727,0.363194,-0.777506,-0.19656,-0.12894,0.25872
