pid_x,pid_y,pid_z,front_left_speed,front_right_speed,back_left_speed,back_right_speed,orientation_x,orientation_y,orientation_z,acceleration_x,acceleration_y,acceleration_z,accel_rejected,mag_rejected,gyro_x,gyro_y,gyro_z,accel_x,accel_y,accel_z,mag_x,mag_y,mag_z
-0.319479,0,0,15.3195,15.3195,14.6805,14.6805,0.1141,0.198937,-0.118143,0.135673,-0.0891822,0.10456,0,0,3.15,0.175,-0.98,0.09943,-0.078934,-0.9089,-0.07546,0.1204,0.45192
-0.960226,0,0,15.9602,15.9602,14.0398,14.0398,0.342938,0.238474,-0.0907429,0.0285614,-0.247495,-0.227911,0,0,3.1675,0.1575,-0.91,-0.007442,-0.241072,-1.23879,-0.07546,0.1204,0.45192
-0.403624,0,0,15.4036,15.4036,14.5964,14.5964,0.144152,0.182382,0.0020169,-0.0352115,0.164145,0.0510773,0,0,3.43,-0.07,-0.875,-0.072468,0.173606,-0.96197,-0.07546,0.1204,0.45192
0.142168,0,0,14.8578,14.8578,15.1422,15.1422,-0.0507742,0.127536,0.0949113,-0.0342543,0.160743,0.0510826,0,0,3.3775,-0.14,-0.9975,-0.072468,0.173606,-0.96197,-0.07546,0.1204,0.45192
-0.313676,0,0,15.3137,15.3137,14.6863,14.6863,0.112027,0.335233,-0.0327608,0.15589,-0.140512,0.0189769,0,0,3.255,-0.0875,-0.98,0.122122,-0.130174,-0.993812,-0.07546,0.1204,0.45192
-0.760873,0,0,15.7609,15.7609,14.2391,14.2391,0.27174,0.537603,-0.159145,0.152359,-0.137724,0.0189407,0,0,3.36,-0.42,-0.98,0.122122,-0.130174,-0.993812,-0.07546,0.1204,0.45192
-0.762743,0,0,15.7627,15.7627,14.2373,14.2373,0.272408,0.405903,0.00974291,-0.105565,-0.00129701,-0.0330476,0,0,3.1325,-0.0875,-1.0325,-0.139202,0.0061,-1.04542,-0.07672,0.11774,0.45514
0.0163471,0,0,14.9837,14.9837,15.0163,15.0163,-0.00583824,0.382277,0.069481,-0.00820738,0.185586,0.245691,0,0,3.3775,0.105,-0.98,-0.041846,0.19764,-0.768844,-0.07672,0.11774,0.45514
-0.456288,0,0,15.4563,15.4563,14.5437,14.5437,0.16296,0.610108,-0.0754721,0.193492,-0.164415,-0.0963905,0,0,3.185,0.035,-1.1725,0.1647,-0.15494,-1.10825,-0.07672,0.11774,0.45514
-0.790025,0,0,15.79,15.79,14.21,14.21,0.282152,0.60569,-0.0165313,-0.0072471,-0.120445,-0.161437,0,0,3.3775,0.07,-1.12,-0.036966,-0.113094,-1.17279,-0.07672,0.11774,0.45514
-0.13359,0,0,15.1336,15.1336,14.8664,14.8664,0.0477108,0.630556,-0.00266396,0.021597,0.172598,0.163645,0,0,3.535,-0.1925,-1.0675,-0.007564,0.183732,-0.850218,-0.07672,0.11774,0.45514
0.510975,0,0,14.489,14.489,15.511,15.511,-0.182491,0.654706,0.0113894,0.0211755,0.16858,0.163636,0,0,3.3075,-0.385,-0.9625,-0.007564,0.183732,-0.850218,-0.07672,0.11774,0.45514
0.511681,0,0,14.4883,14.4883,15.5117,15.5117,-0.182743,0.654689,0.0115861,0.1949,-0.141382,-0.108695,1,0,3.2375,-0.105,-0.9275,0.166896,-0.125904,-1.12045,-0.07672,0.11774,0.45514
0.435158,0,0,14.5648,14.5648,15.4352,15.4352,-0.155413,0.639532,0.0792497,-0.0129401,-0.0243958,-0.0436508,0,0,3.4125,-0.0175,-0.9625,-0.04209,-0.009516,-1.05591,-0.08232,0.11578,0.45822
0.813966,0,0,14.186,14.186,15.814,15.814,-0.290702,0.61041,0.15072,-0.0166839,0.0989115,0.152817,0,0,3.5525,-0.14,-0.98,-0.04636,0.116022,-0.860954,-0.08232,0.11578,0.45822
0.577128,0,0,14.4229,14.4229,15.5771,15.5771,-0.206117,0.699382,0.127305,0.0671678,-0.0736428,-0.00419933,0,0,3.3425,-0.35,-1.0325,0.039406,-0.057828,-1.01675,-0.08232,0.11578,0.45822
0.344791,0,0,14.6552,14.6552,15.3448,15.3448,-0.12314,0.786616,0.104047,0.0656454,-0.0721947,-0.00421491,0,0,3.395,-0.1575,-1.0675,0.039406,-0.057828,-1.01675,-0.08232,0.11578,0.45822
0.345743,0,0,14.6543,14.6543,15.3457,15.3457,-0.12348,0.801226,0.140497,0.0110864,0.000342668,0.0147156,0,0,3.43,-0.1575,-0.945,-0.015128,0.01464,-0.99796,-0.08232,0.11578,0.45822
0.346586,0,0,14.6534,14.6534,15.3466,15.3466,-0.123781,0.81575,0.176858,0.0108329,0.000337423,0.014712,0,0,3.4475,-0.0175,-0.945,-0.015128,0.01464,-0.99796,-0.08232,0.11578,0.45822
0.293113,0,0,14.7069,14.7069,15.2931,15.2931,-0.104683,0.935894,0.118507,0.0906176,-0.0163049,0.0262378,0,0,3.325,-0.175,-1.015,0.0671,-0.002318,-0.986492,-0.08232,0.11578,0.45822
0.092435,0,0,14.9076,14.9076,15.0924,15.0924,-0.0330125,1.09907,0.011286,0.139159,-0.0673243,-0.0763503,0,0,3.5175,-0.0875,-1.12,0.118706,-0.054534,-1.08824,-0.0742,0.11984,0.45318
0.0260587,0,0,14.9739,14.9739,15.0261,15.0261,-0.00930667,1.13922,0.0112957,0.026691,-0.0187927,0.0808873,0,0,3.43,0.07,-0.9625,0.006466,-0.006466,-0.932202,-0.0742,0.11984,0.45318
-0.213,0,0,15.213,15.213,14.787,14.787,0.0760714,0.981396,0.191922,-0.115001,-0.0659093,0.112535,0,0,3.5525,0.105,-1.1025,-0.138592,-0.055022,-0.900848,-0.0742,0.11984,0.45318
-0.4472,0,0,15.4472,15.4472,14.5528,14.5528,0.159714,0.826739,0.371662,-0.112302,-0.0644495,0.112575,0,0,3.5525,-0.035,-1.0675,-0.138592,-0.055022,-0.900848,-0.0742,0.11984,0.45318
-0.318681,0,0,15.3187,15.3187,14.6813,14.6813,0.113815,0.996138,0.255899,0.133666,0.0396562,0.0142938,0,0,3.4125,-0.0525,-1.0675,0.111386,0.049776,-0.998326,-0.0742,0.11984,0.45318
-0.396079,0,0,15.3961,15.3961,14.6039,14.6039,0.141457,0.91128,0.370272,-0.0638471,-0.0226345,0.0737015,0,0,3.0275,0.035,-1.015,-0.08845,-0.012932,-0.9394,-0.0742,0.11984,0.45318
-0.473124,0,0,15.4731,15.4731,14.5269,14.5269,0.168973,0.828065,0.48445,-0.0623949,-0.0221542,0.0737222,0,0,3.2725,-0.0875,-0.91,-0.08845,-0.012932,-0.9394,-0.0742,0.11984,0.45318
-0.281971,0,0,15.282,15.282,14.718,14.718,0.100704,0.947166,0.421849,0.097953,0.0604333,-0.0167973,0,0,3.255,-0.105,-0.945,0.074664,0.07076,-1.02919,-0.08008,0.11564,0.45948
-0.242647,0,0,15.2426,15.2426,14.7574,14.7574,0.0866598,1.15111,0.28327,0.161576,0.0121923,0.00342444,0,0,3.3425,0.14,-0.98,0.14213,0.022814,-1.00906,-0.08008,0.11564,0.45948
-0.809237,0,0,15.8092,15.8092,14.1908,14.1908,0.289013,1.00554,0.463937,-0.11846,-0.17284,0.0387469,0,0,3.2375,0.035,-0.98,-0.141642,-0.165554,-0.974048,-0.08008,0.11564,0.45948
-1.3656,0,0,16.3656,16.3656,13.6344,13.6344,0.487714,0.862848,0.642894,-0.11597,-0.169372,0.038764,0,0,3.43,-0.0525,-1.015,-0.141642,-0.165554,-0.974048,-0.08008,0.11564,0.45948
-0.852495,0,0,15.8525,15.8525,14.1475,14.1475,0.304463,1.06951,0.495412,0.163,0.156439,0.0483153,0,0,3.4825,-0.105,-1.12,0.14213,0.163114,-0.964532,-0.08008,0.11564,0.45948
-0.706737,0,0,15.7067,15.7067,14.2933,14.2933,0.252406,1.15172,0.462024,0.0610963,0.0431736,0.0573901,0,0,3.43,-0.07,-0.9975,0.041236,0.050874,-0.955504,-0.08008,0.11564,0.45948
-0.563696,0,0,15.5637,15.5637,14.4363,14.4363,0.20132,1.23208,0.428688,0.0596942,0.0422821,0.0573644,0,0,3.395,-0.1225,-0.9625,0.041236,0.050874,-0.955504,-0.08008,0.11564,0.45948
-1.00513,0,0,16.0051,16.0051,13.9949,13.9949,0.358975,1.01257,0.672584,-0.183456,-0.142553,-0.0143759,0,0,3.6925,0.07,-1.0325,-0.20679,-0.136518,-1.02675,-0.07854,0.11466,0.46074
-0.376659,0,0,15.3767,15.3767,14.6233,14.6233,0.134521,1.28799,0.457889,0.217014,0.191332,0.0707478,0,0,3.5525,-0.14,-1.05,0.200202,0.200934,-0.942206,-0.07854,0.11466,0.46074
-0.672342,0,0,15.6723,15.6723,14.3277,14.3277,0.240122,1.41532,0.387803,0.097802,-0.092724,0.00392828,0,0,3.3075,-0.175,-0.9625,0.082716,-0.084668,-1.00845,-0.07854,0.11466,0.46074
-0.961877,0,0,15.9619,15.9619,14.0381,14.0381,0.343527,1.53976,0.318077,0.0956308,-0.0909201,0.00386309,0,0,3.255,-0.175,-1.05,0.082716,-0.084668,-1.00845,-0.07854,0.11466,0.46074
-1.09967,0,0,16.0997,16.0997,13.9003,13.9003,0.392738,1.36119,0.514733,-0.138272,-0.0420652,0.0325835,0,0,3.29,-0.28,-0.9625,-0.155306,-0.036722,-0.980026,-0.07854,0.11466,0.46074
-1.23461,0,0,16.2346,16.2346,13.7654,13.7654,0.440931,1.18649,0.710574,-0.135224,-0.0412238,0.0326451,0,0,3.29,-0.28,-0.9625,-0.155306,-0.036722,-0.980026,-0.07854,0.11466,0.46074
-0.824982,0,0,15.825,15.825,14.175,14.175,0.294636,1.51337,0.450528,0.236893,0.11743,0.125107,0,0,3.115,-0.0525,-1.1025,0.224114,0.124318,-0.88816,-0.07854,0.11466,0.46074
-1.6288,0,0,16.6288,16.6288,13.3712,13.3712,0.581715,1.31354,0.676224,-0.185306,-0.288761,-0.0917261,0,0,2.975,-0.1225,-1.0325,-0.203374,-0.286456,-1.10337,-0.08022,0.11438,0.46004
-1.39322,0,0,16.3932,16.3932,13.6068,13.6068,0.497579,1.24591,0.771799,-0.0518281,0.0763955,-0.048408,0,0,3.255,-0.1925,-1.05,-0.070516,0.079788,-1.06042,-0.08022,0.11438,0.46004
-0.578912,0,0,15.5789,15.5789,14.4211,14.4211,0.206754,1.64487,0.438794,0.30907,0.246328,0.123452,0,0,3.185,-0.245,-1.155,0.2989,0.254614,-0.889746,-0.08022,0.11438,0.46004
-1.2887,0,0,16.2887,16.2887,13.7113,13.7113,0.460251,1.54028,0.576485,-0.0971761,-0.251556,-0.097461,0,0,3.22,-0.0525,-1.1725,-0.110898,-0.247172,-1.10898,-0.08022,0.11438,0.46004
-1.28789,0,0,16.2879,16.2879,13.7121,13.7121,0.45996,1.5403,0.576292,-0.144677,-0.162287,-0.099674,1,0,3.22,-0.0875,-1.155,-0.1586,-0.15799,-1.11118,-0.08022,0.11438,0.46004
-0.110683,0,0,15.1107,15.1107,14.8893,14.8893,0.0395297,1.83066,0.327791,0.216415,0.340623,0.174753,0,0,3.1325,-0.07,-0.9975,0.209108,0.351726,-0.83875,-0.08022,0.11438,0.46004
1.04465,0,0,13.9554,13.9554,16.0446,16.0446,-0.373089,2.11552,0.0760447,0.211446,0.333427,0.174561,0,0,3.4125,-0.07,-1.05,0.209108,0.351726,-0.83875,-0.08022,0.11438,0.46004
0.0777629,0,0,14.9222,14.9222,15.0778,15.0778,-0.0277725,1.94146,0.272855,-0.164067,-0.352643,-0.103789,0,0,3.5,-0.1225,-1.12,-0.171044,-0.339648,-1.11508,-0.08204,0.11536,0.46228
-0.0394724,0,0,15.0395,15.0395,14.9605,14.9605,0.0140973,1.79549,0.432291,-0.124225,-0.040123,-0.088952,0,0,3.5175,0,-0.9975,-0.13359,-0.028182,-1.10044,-0.08204,0.11536,0.46228
-0.154204,0,0,15.1542,15.1542,14.8458,14.8458,0.0550728,1.65235,0.591002,-0.121728,-0.0394081,-0.0888773,0,0,3.5,-0.1925,-1.05,-0.13359,-0.028182,-1.10044,-0.08204,0.11536,0.46228
0.16245,0,0,14.8375,14.8375,15.1625,15.1625,-0.058018,1.93861,0.359274,0.208701,0.0919815,0.10879,0,0,3.605,-0.07,-1.085,0.203252,0.105042,-0.904142,-0.08204,0.11536,0.46228
0.474704,0,0,14.5253,14.5253,15.4747,15.4747,-0.169537,2.21926,0.127118,0.203806,0.0900367,0.108609,0,0,3.3425,0.14,-1.0675,0.203252,0.105042,-0.904142,-0.08204,0.11536,0.46228
-0.212618,0,0,15.2126,15.2126,14.7874,14.7874,0.0759351,1.93871,0.412406,-0.264731,-0.257163,-0.138091,0,0,3.395,0.2625,-0.9975,-0.272182,-0.246074,-1.14912,-0.08204,0.11536,0.46228
-0.213321,0,0,15.2133,15.2133,14.7867,14.7867,0.0761859,1.93893,0.412573,-0.264735,-0.257158,-0.138091,1,0,3.5175,0.035,-0.945,-0.272182,-0.246074,-1.14912,-0.08204,0.11536,0.46228
0.691161,0,0,14.3088,14.3088,15.6912,15.6912,-0.246843,2.33361,0.0650306,0.283693,0.257346,0.188564,0,0,3.36,-0.035,-1.085,0.28548,0.273524,-0.82472,-0.08204,0.11536,0.46228
1.57968,0,0,13.4203,13.4203,16.5797,16.5797,-0.564171,2.72128,-0.288097,0.276933,0.251815,0.188226,0,0,3.5,-0.105,-1.0325,0.28548,0.273524,-0.82472,-0.08176,0.1169,0.46158
1.5789,0,0,13.4211,13.4211,16.5789,16.5789,-0.563892,2.72132,-0.288051,-0.202936,-0.381529,-0.153201,1,0,3.535,-0.07,-1.015,-0.19642,-0.359168,-1.16351,-0.08176,0.1169,0.46158
1.57909,0,0,13.4209,13.4209,16.5791,16.5791,-0.56396,2.72142,-0.288065,-0.202938,-0.38153,-0.153202,1,0,3.3425,-0.035,-1.05,-0.19642,-0.359168,-1.16351,-0.08176,0.1169,0.46158
2.58221,0,0,12.4178,12.4178,17.5822,17.5822,-0.922219,2.89306,-0.456936,0.120624,0.285756,0.152467,0,0,3.5,0.07,-1.1375,0.131516,0.313662,-0.859978,-0.08176,0.1169,0.46158
3.56805,0,0,11.432,11.432,18.568,18.568,-1.2743,3.0611,-0.626932,0.117695,0.279623,0.152197,0,0,3.3075,-0.0175,-0.9625,0.131516,0.313662,-0.859978,-0.08176,0.1169,0.46158
3.56849,0,0,11.4315,11.4315,18.5685,18.5685,-1.27446,3.06135,-0.62689,-0.0980681,-0.222565,-0.0853401,1,0,3.29,0.0525,-1.015,-0.085156,-0.188002,-1.09568,-0.08176,0.1169,0.46158
3.568,0,0,11.432,11.432,18.568,18.568,-1.27429,3.06166,-0.627031,-0.0980734,-0.222562,-0.0853404,1,0,3.4825,0.0875,-1.12,-0.085156,-0.188002,-1.09568,-0.08176,0.1169,0.46158
3.80101,0,0,11.199,11.199,18.801,18.801,-1.3575,3.05544,-0.623345,-0.00514995,0.0731224,0.00585991,0,0,3.465,-0.07,-1.05,0.008052,0.108824,-1.00516,-0.08176,0.1169,0.46158
4.03031,0,0,10.9697,10.9697,19.0303,19.0303,-1.4394,3.04952,-0.620191,-0.00504689,0.0716955,0.00583058,0,0,3.29,0,-1.1025,0.008052,0.108824,-1.00516,-0.07812,0.1169,0.45696
3.75638,0,0,11.2436,11.2436,18.7564,18.7564,-1.34156,3.06689,-0.626527,0.0178541,-0.0904937,-0.0597987,0,0,3.2025,0,-1.05,0.031354,-0.0549,-1.07031,-0.07812,0.1169,0.45696
3.48692,0,0,11.5131,11.5131,18.4869,18.4869,-1.24533,3.08368,-0.632799,0.0175617,-0.0888166,-0.0597766,0,0,3.3775,-0.1225,-0.9975,0.031354,-0.0549,-1.07031,-0.07812,0.1169,0.45696
3.27756,0,0,11.7224,11.7224,18.2776,18.2776,-1.17056,3.01605,-0.563288,-0.0551231,-0.0673641,-0.0253837,0,0,3.1675,-0.2275,-1.0325,-0.042822,-0.03477,-1.03627,-0.07812,0.1169,0.45696
3.0715,0,0,11.9285,11.9285,18.0715,18.0715,-1.09696,2.9501,-0.494311,-0.0539736,-0.0660828,-0.0252984,0,0,3.3425,-0.0875,-1.12,-0.042822,-0.03477,-1.03627,-0.07812,0.1169,0.45696
3.29404,0,0,11.706,11.706,18.294,18.294,-1.17644,3.04296,-0.580024,0.0686879,0.0647971,0.063973,0,0,3.29,-0.245,-0.9975,0.081984,0.097356,-0.947574,-0.07812,0.1169,0.45696
3.51178,0,0,11.4882,11.4882,18.5118,18.5118,-1.25421,3.13379,-0.665865,0.0671049,0.0634439,0.0638588,0,0,3.395,-0.28,-1.0675,0.081984,0.097356,-0.947574,-0.07812,0.1169,0.45696
2.8877,0,0,12.1123,12.1123,17.8877,17.8877,-1.03132,3.04067,-0.564139,-0.077784,-0.204162,-0.0235155,0,0,3.3425,-0.245,-0.9975,-0.065148,-0.17385,-1.03444,-0.07812,0.1169,0.45696
2.27706,0,0,12.7229,12.7229,17.2771,17.2771,-0.813235,2.95161,-0.454515,-0.0762317,-0.200363,-0.0233731,0,0,3.0975,-0.1575,-0.8925,-0.065148,-0.17385,-1.03444,-0.07714,0.11144,0.4592
2.73052,0,0,12.2695,12.2695,17.7305,17.7305,-0.975186,3.13515,-0.62109,0.145075,0.138406,0.0544851,0,0,3.22,-0.2275,-1.015,0.160308,0.167384,-0.956968,-0.07714,0.11144,0.4592
3.17443,0,0,11.8256,11.8256,18.1744,18.1744,-1.13372,3.31551,-0.788486,0.141932,0.135647,0.0542572,0,0,3.4475,0.1225,-1.19,0.160308,0.167384,-0.956968,-0.07714,0.11144,0.4592
2.63737,0,0,12.3626,12.3626,17.6374,17.6374,-0.941919,3.20121,-0.661596,-0.0947957,-0.16694,0.0278742,0,0,3.535,0.1575,-1.2425,-0.079422,-0.138226,-0.98332,-0.07714,0.11144,0.4592
2.1116,0,0,12.8884,12.8884,17.1116,17.1116,-0.754142,3.08887,-0.53593,-0.092838,-0.16367,0.0280302,0,0,3.3775,-0.07,-1.26,-0.079422,-0.138226,-0.98332,-0.07714,0.11144,0.4592
2.11297,0,0,12.887,12.887,17.113,17.113,-0.754633,3.08885,-0.536274,0.00629474,0.0091308,0.145323,1,0,3.115,-0.105,-1.2425,0.02013,0.034404,-0.866932,-0.07714,0.11144,0.4592
2.11294,0,0,12.8871,12.8871,17.1129,17.1129,-0.75462,3.08877,-0.536526,0.00629614,0.00913102,0.145323,1,0,3.395,-0.14,-1.19,0.02013,0.034404,-0.866932,-0.07714,0.11144,0.4592
0.749225,0,0,14.2508,14.2508,15.7492,15.7492,-0.267581,2.87386,-0.297557,-0.181298,-0.425702,0.120389,0,0,3.36,-0.455,-1.3125,-0.17202,-0.408456,-0.891942,-0.07714,0.11144,0.4592
-0.587517,0,0,15.5875,15.5875,14.4125,14.4125,0.209827,2.65909,-0.0674067,-0.177554,-0.41738,0.120575,0,0,2.8175,-0.2275,-1.2775,-0.17202,-0.408456,-0.891942,-0.08274,0.11522,0.44884
0.040929,0,0,14.9591,14.9591,15.0409,15.0409,-0.0146175,2.60274,-0.0167621,-0.043909,0.184822,0.0871843,0,0,3.185,0.1575,-1.5575,-0.038796,0.19703,-0.925126,-0.08274,0.11522,0.44884
0.654248,0,0,14.3458,14.3458,15.6542,15.6542,-0.23366,2.54763,0.0350707,-0.0429482,0.181003,0.0872193,0,0,3.78,0.1925,-1.1725,-0.038796,0.19703,-0.925126,-0.08274,0.11522,0.44884
0.801012,0,0,14.199,14.199,15.801,15.801,-0.286076,2.82411,-0.200636,0.246592,0.0523456,-0.0574755,0,0,4.235,0.175,-1.3125,0.25681,0.069418,-1.06848,-0.08274,0.11522,0.44884
0.945954,0,0,14.054,14.054,15.946,15.946,-0.337841,3.09472,-0.436435,0.241875,0.0514447,-0.0577242,0,0,4.1125,0.1225,-1.4175,0.25681,0.069418,-1.06848,-0.08274,0.11522,0.44884
0.576664,0,0,14.4233,14.4233,15.5767,15.5767,-0.205951,3.04372,-0.375561,-0.0427278,-0.109907,0.0591354,0,0,4.0425,0.175,-1.3125,-0.02989,-0.094062,-0.952576,-0.08274,0.11522,0.44884
0.216271,0,0,14.7837,14.7837,15.2163,15.2163,-0.0772395,2.99276,-0.314228,-0.0418396,-0.107664,0.0591878,0,0,3.675,-0.4375,-0.7525,-0.02989,-0.094062,-0.952576,-0.08274,0.11522,0.44884
0.215612,0,0,14.7844,14.7844,15.2156,15.2156,-0.0770043,2.99242,-0.31382,0.0967816,-0.0441536,0.275455,1,0,3.5,-0.2975,-0.805,0.109312,-0.030622,-0.737978,-0.08274,0.11522,0.44884
0.212782,0,0,14.7872,14.7872,15.2128,15.2128,-0.0759934,2.99285,-0.312903,0.096774,-0.044136,0.275454,1,0,3.92,0.1575,-0.5075,0.109312,-0.030622,-0.737978,-0.08274,0.11522,0.44884
0.21838,0,0,14.7816,14.7816,15.2184,15.2184,-0.0779929,2.99158,-0.311653,-0.325245,0.778475,-0.169987,1,0,2.2225,-0.84,-0.315,-0.314516,0.79117,-1.17998,-0.07756,0.1169,0.46018
0.21305,0,0,14.7869,14.7869,15.2131,15.2131,-0.0760894,2.99204,-0.310977,-0.224056,-0.0552512,0.264635,1,0,4.4275,0.175,-0.6475,-0.21289,-0.041724,-0.748714,-0.07756,0.1169,0.46018
0.216447,0,0,14.7836,14.7836,15.2164,15.2164,-0.0773024,2.99193,-0.310209,-0.224054,-0.0552723,0.264635,1,0,2.6775,-0.1575,-0.595,-0.21289,-0.041724,-0.748714,-0.07756,0.1169,0.46018
-2.1399,0,0,17.1399,17.1399,12.8601,12.8601,0.764249,2.95603,-0.230417,-0.121744,-0.817941,1.69509,0,0,3.2025,-0.1925,-1.015,-0.110776,-0.818254,0.670756,-0.07756,0.1169,0.46018
-4.53035,0,0,19.5303,19.5303,10.4697,10.4697,1.61798,2.91882,-0.151822,-0.121096,-0.803063,1.69481,0,0,4.4275,-0.3325,-1.4,-0.110776,-0.818254,0.670756,-0.07756,0.1169,0.46018
-4.53331,0,0,19.5333,19.5333,10.4667,10.4667,1.61904,2.91762,-0.15244,-0.625969,-0.155162,0.659584,1,0,3.99,-0.805,-1.3825,-0.617808,-0.171044,-0.356484,-0.07756,0.1169,0.46018
-4.53942,0,0,19.5394,19.5394,10.4606,10.4606,1.62122,2.91662,-0.153623,-0.625952,-0.155124,0.659584,1,0,4.6375,-0.7,-1.715,-0.617808,-0.171044,-0.356484,-0.07756,0.1169,0.46018
-4.53481,0,0,19.5348,19.5348,10.4652,10.4652,1.61958,2.91655,-0.155801,0.362214,0.127204,-0.0623689,1,0,2.52,-0.175,-2.31,0.37454,0.11102,-1.07287,-0.07756,0.1169,0.46018
-4.53597,0,0,19.536,19.536,10.464,10.464,1.61999,2.91745,-0.158613,0.362198,0.127211,-0.0623699,1,0,3.6925,0.385,-2.695,0.37454,0.11102,-1.07287,-0.07602,0.1232,0.46522
-4.53358,0,0,19.5336,19.5336,10.4664,10.4664,1.61914,2.91829,-0.160585,-0.541063,-0.00372332,-0.444002,1,0,2.9575,0.3675,-2.205,-0.53253,-0.019764,-1.45156,-0.07602,0.1232,0.46522
-4.53572,0,0,19.5357,19.5357,10.4643,10.4643,1.6199,2.91968,-0.162632,-0.541087,-0.00371002,-0.444004,1,0,3.8675,0.6825,-2.2575,-0.53253,-0.019764,-1.45156,-0.07602,0.1232,0.46522
-4.53816,0,0,19.5382,19.5382,10.4618,10.4618,1.62077,2.92204,-0.164471,0.259341,0.452693,-0.0745463,1,0,3.92,1.26,-2.1525,0.271328,0.43615,-1.08495,-0.07602,0.1232,0.46522
-4.53877,0,0,19.5388,19.5388,10.4612,10.4612,1.62099,2.92362,-0.166813,0.259314,0.452696,-0.0745478,1,0,3.57,0.7875,-2.4325,0.271328,0.43615,-1.08495,-0.07602,0.1232,0.46522
-4.54246,0,0,19.5425,19.5425,10.4575,10.4575,1.62231,2.92376,-0.167212,0.0384502,-0.163654,-0.430239,1,0,4.13,-0.0175,-1.2775,0.049532,-0.179584,-1.43789,-0.07602,0.1232,0.46522
-4.54364,0,0,19.5436,19.5436,10.4564,10.4564,1.62273,2.92332,-0.168049,0.0384579,-0.163647,-0.430238,1,0,3.64,-0.3675,-1.5225,0.049532,-0.179584,-1.43789,-0.07602,0.1232,0.46522
-4.53244,0,0,19.5324,19.5324,10.4676,10.4676,1.61873,2.92123,-0.168633,0.0383729,-0.164694,-0.184092,1,0,1.155,-1.33,-1.3475,0.04941,-0.18056,-1.19365,-0.07602,0.1232,0.46522
-4.52823,0,0,19.5282,19.5282,10.4718,10.4718,1.61722,2.91939,-0.168668,0.038405,-0.16472,-0.184089,1,0,2.5375,-1.1725,-1.0325,0.04941,-0.18056,-1.19365,-0.077,0.119,0.45584
-4.5236,0,0,19.5236,19.5236,10.4764,10.4764,1.61557,2.9184,-0.167958,0.0810637,-0.277716,-0.150277,1,0,2.4325,-0.665,-0.6125,0.092232,-0.29341,-1.1601,-0.077,0.119,0.45584
-4.52743,0,0,19.5274,19.5274,10.4726,10.4726,1.61694,2.91879,-0.166699,0.0810568,-0.277692,-0.150278,1,0,4.1125,0.1575,-0.315,0.092232,-0.29341,-1.1601,-0.077,0.119,0.45584
-4.85287,0,0,19.8529,19.8529,10.1471,10.1471,1.73317,2.65747,0.0720154,-0.221868,-0.113964,-0.0614694,0,0,4.06,0.1925,-0.07,-0.21655,-0.131882,-1.07214,-0.077,0.119,0.45584
-5.1787,0,0,20.1787,20.1787,9.8213,9.8213,1.84953,2.40381,0.309439,-0.217445,-0.11193,-0.0613374,0,0,5.4425,1.4175,0.175,-0.21655,-0.131882,-1.07214,-0.077,0.119,0.45584
-4.91552,0,0,19.9155,19.9155,10.0845,10.0845,1.75554,2.64404,0.108768,0.184736,0.0852483,0.0434046,0,0,4.025,0.6125,0.665,0.19154,0.066734,-0.96807,-0.077,0.119,0.45584
-4.65761,0,0,19.6576,19.6576,10.3424,10.3424,1.66343,2.87835,-0.0915287,0.180651,0.0836374,0.0432556,0,0,4.13,0.1225,0.98,0.19154,0.066734,-0.96807,-0.077,0.119,0.45584
-4.6474,0,0,19.6474,19.6474,10.3526,10.3526,1.65979,2.87828,-0.0888403,-0.31428,-0.254839,-0.133051,1,0,1.26,-0.0875,0.525,-0.305488,-0.271328,-1.14302,-0.077,0.119,0.45584
-4.64368,0,0,19.6437,19.6437,10.3563,10.3563,1.65846,2.87615,-0.0860015,-0.314243,-0.254862,-0.133048,1,0,2.555,-1.295,0.6475,-0.305488,-0.271328,-1.14302,-0.07784,0.1232,0.46228
-4.63799,0,0,19.638,19.638,10.362,10.362,1.65642,2.87475,-0.0835021,0.371325,-0.0698758,-0.205462,1,0,2.17,-0.875,0.4375,0.382958,-0.086498,-1.21488,-0.07784,0.1232,0.46228
-4.64084,0,0,19.6408,19.6408,10.3592,10.3592,1.65744,2.87233,-0.0811222,0.371367,-0.069858,-0.205461,1,0,3.885,-1.47,0.385,0.382958,-0.086498,-1.21488,-0.07784,0.1232,0.46228
-4.64736,0,0,19.6474,19.6474,10.3526,10.3526,1.65977,2.87083,-0.0794067,-0.00411901,-0.235788,-0.283164,1,0,4.6375,-0.945,-0.0175,0.005856,-0.252296,-1.29198,-0.07784,0.1232,0.46228
-4.65724,0,0,19.6572,19.6572,10.3428,10.3428,1.6633,2.87005,-0.0786918,-0.00410533,-0.235726,-0.283165,1,0,5.3375,-0.5425,-0.6125,0.005856,-0.252296,-1.29198,-0.07784,0.1232,0.46228
-4.66079,0,0,19.6608,19.6608,10.3392,10.3392,1.66457,2.87091,-0.0782293,-0.0890389,0.0483627,0.307109,1,0,4.0775,0.42,-0.7875,-0.079422,0.031476,-0.706258,-0.07784,0.1232,0.46228
-4.66161,0,0,19.6616,19.6616,10.3384,10.3384,1.66486,2.87329,-0.0785337,-0.0890805,0.0483677,0.307107,1,0,3.5525,1.295,-1.26,-0.079422,0.031476,-0.706258,-0.07784,0.1232,0.46228
-5.04394,0,0,20.0439,20.0439,9.95606,9.95606,1.80141,2.83425,-0.0414208,-0.0328808,-0.12487,0.0237954,0,0,0.7525,1.2075,-1.5225,-0.023668,-0.14396,-0.987346,-0.07784,0.1232,0.46228
-5.42574,0,0,20.4257,20.4257,9.57426,9.57426,1.93776,2.79463,-0.0129191,-0.0321903,-0.122494,0.0237518,0,0,2.135,0.84,-1.8025,-0.023668,-0.14396,-0.987346,-0.07574,0.1274,0.47418
-5.42304,0,0,20.423,20.423,9.57696,9.57696,1.9368,2.795,-0.0146623,0.285853,0.377965,-0.026288,1,0,2.8875,0.0875,-2.065,0.295728,0.355996,-1.037,-0.07574,0.1274,0.47418
-5.42638,0,0,20.4264,20.4264,9.57362,9.57362,1.93799,2.79288,-0.0169406,0.28589,0.377986,-0.0262869,1,0,4.1125,-1.3825,-2.3275,0.295728,0.355996,-1.037,-0.07574,0.1274,0.47418
-5.44058,0,0,20.4406,20.4406,9.55942,9.55942,1.94306,2.79105,-0.01981,0.139046,-0.0971208,-0.416773,1,0,6.3,-1.225,-2.6775,0.14823,-0.118706,-1.42447,-0.07574,0.1274,0.47418
-5.45404,0,0,20.454,20.454,9.54596,9.54596,1.94787,2.79004,-0.022261,0.139063,-0.097037,-0.416775,1,0,6.1425,-0.735,-2.45,0.14823,-0.118706,-1.42447,-0.07574,0.1274,0.47418
-5.46525,0,0,20.4653,20.4653,9.53475,9.53475,1.95188,2.78948,-0.0238857,-0.304471,-0.0885405,-0.357638,1,0,5.67,-0.455,-1.9775,-0.297192,-0.110288,-1.36579,-0.07574,0.1274,0.47418
-5.47004,0,0,20.47,20.47,9.52996,9.52996,1.95359,2.79176,-0.027156,-0.304511,-0.0885108,-0.357641,1,0,4.4275,1.1725,-2.9925,-0.297192,-0.110288,-1.36579,-0.07574,0.1274,0.47418
-5.46049,0,0,20.4605,20.4605,9.53951,9.53951,1.95018,2.79363,-0.0291182,0.155644,-0.0463144,-0.216742,1,0,1.5225,0.9625,-2.2225,0.164944,-0.068076,-1.22598,-0.07574,0.1274,0.47418
-5.45286,0,0,20.4529,20.4529,9.54714,9.54714,1.94745,2.79556,-0.0311386,0.15561,-0.0463619,-0.216742,1,0,1.9075,0.9975,-2.2575,0.164944,-0.068076,-1.22598,-0.07574,0.1274,0.47418
-5.43784,0,0,20.4378,20.4378,9.56216,9.56216,1.94209,2.79791,-0.0328748,0.0678568,-0.00822976,-0.202725,1,0,0.42,1.2425,-2.1,0.07686,-0.02989,-1.21207,-0.07476,0.12474,0.46578
-5.43832,0,0,20.4383,20.4383,9.56168,9.56168,1.94226,2.79789,-0.0337899,0.0678571,-0.00822681,-0.202725,1,0,3.5,-0.1225,-1.575,0.07686,-0.02989,-1.21207,-0.07476,0.12474,0.46578
-5.44211,0,0,20.4421,20.4421,9.55789,9.55789,1.94361,2.79771,-0.0340799,0.219232,-0.0395898,-0.587308,1,0,4.1475,-0.21,-1.2075,0.228872,-0.061244,-1.59369,-0.07476,0.12474,0.46578
-5.46267,0,0,20.4627,20.4627,9.53733,9.53733,1.95096,2.7944,-0.0331543,0.219289,-0.0394617,-0.58731,1,0,7.4725,-2.0125,-0.4375,0.228872,-0.061244,-1.59369,-0.07476,0.12474,0.46578
-5.47811,0,0,20.4781,20.4781,9.52189,9.52189,1.95647,2.7918,-0.0319945,0.188842,0.0737238,-0.436699,1,0,6.44,-1.5925,-0.315,0.19825,0.051728,-1.44424,-0.07476,0.12474,0.46578
-5.48501,0,0,20.485,20.485,9.51499,9.51499,1.95893,2.79036,-0.0313062,0.188867,0.0737668,-0.436699,1,0,4.7425,-0.9275,-0.6125,0.19825,0.051728,-1.44424,-0.07476,0.12474,0.46578
-5.48535,0,0,20.4854,20.4854,9.51465,9.51465,1.95906,2.78914,-0.0293484,0.154143,0.0879356,-0.224858,1,0,3.395,-0.77,0.1225,0.163358,0.06588,-1.23403,-0.07476,0.12474,0.46578
-5.47358,0,0,20.4736,20.4736,9.52642,9.52642,1.95485,2.78967,-0.0278114,0.154134,0.0878623,-0.224856,1,0,0.98,0.245,-0.1575,0.163358,0.06588,-1.23403,-0.07476,0.12474,0.46578
-5.4585,0,0,20.4585,20.4585,9.5415,9.5415,1.94946,2.79147,-0.0261107,0.296484,0.184249,-0.113586,1,0,0.315,0.9975,-0.0875,0.306342,0.16226,-1.12362,-0.06692,0.1253,0.4753
-5.45253,0,0,20.4525,20.4525,9.54747,9.54747,1.94733,2.79301,-0.0242992,-0.503526,-0.0787275,0.451116,1,0,2.135,0.84,-0.0175,-0.497028,-0.100406,-0.563274,-0.06692,0.1253,0.4753
-5.47356,0,0,20.4736,20.4736,9.52644,9.52644,1.95484,2.79499,-0.0231636,-0.503561,-0.0785967,0.45111,1,0,7.56,1.085,-0.42,-0.497028,-0.100406,-0.563274,-0.06692,0.1253,0.4753
-5.4904,0,0,20.4904,20.4904,9.5096,9.5096,1.96086,2.79502,-0.0219741,-0.0426448,0.168937,0.291765,1,0,6.72,-0.0525,-0.35,-0.03416,0.146766,-0.721386,-0.06692,0.1253,0.4753
-5.50878,0,0,20.5088,20.5088,9.49122,9.49122,1.96742,2.79431,-0.0210802,-0.0426325,0.169051,0.291762,1,0,7.035,-0.49,-0.5075,-0.03416,0.146766,-0.721386,-0.06692,0.1253,0.4753
-6.51292,0,0,21.5129,21.5129,8.48708,8.48708,2.32604,3.02855,-0.223602,0.181799,-0.304302,0.125217,0,0,7.4025,-1.3125,-0.7175,0.195322,-0.332328,-0.886208,-0.06692,0.1253,0.4753
-7.49374,0,0,22.4937,22.4937,7.50626,7.50626,2.67634,3.25795,-0.424214,0.177801,-0.298212,0.124731,0,0,6.2825,-1.3475,-1.3825,0.195322,-0.332328,-0.886208,-0.06692,0.1253,0.4753
-7.4862,0,0,22.4862,22.4862,7.5138,7.5138,2.67364,3.25739,-0.425396,-0.116549,0.0693422,-0.166408,1,0,1.9075,-0.455,-1.715,-0.100284,0.034892,-1.1751,-0.06692,0.1253,0.4753
-7.47731,0,0,22.4773,22.4773,7.52269,7.52269,2.67047,3.25816,-0.426817,-0.116562,0.0692869,-0.166406,1,0,1.645,0.315,-1.89,-0.100284,0.034892,-1.1751,-0.07322,0.1358,0.47446
-6.87644,0,0,21.8764,21.8764,8.12356,8.12356,2.45587,3.29434,-0.498111,0.0251887,0.198668,-0.0386544,0,0,0.7,0.735,-1.61,0.0427,0.167872,-1.04847,-0.07322,0.1358,0.47446
-6.29231,0,0,21.2923,21.2923,8.70769,8.70769,2.24725,3.32958,-0.571257,0.0245747,0.195034,-0.0385408,0,0,1.8725,0.665,-2.695,0.0427,0.167872,-1.04847,-0.07322,0.1358,0.47446
-6.14839,0,0,21.1484,21.1484,8.85161,8.85161,2.19585,3.7288,-0.955019,0.328259,0.0479375,0.0348344,0,0,3.2725,1.0325,-2.3275,0.354654,0.021838,-0.975268,-0.07322,0.1358,0.47446
-6.02942,0,0,21.0294,21.0294,8.97058,8.97058,2.15336,4.11849,-1.33833,0.321474,0.0471805,0.0343975,0,0,7.9275,0.21,-2.2575,0.354654,0.021838,-0.975268,-0.07322,0.1358,0.47446
-6.05493,0,0,21.0549,21.0549,8.94507,8.94507,2.16247,4.11856,-1.34005,0.182128,-0.0173882,-0.259947,1,0,8.5575,-0.0875,-2.0475,0.21472,-0.042822,-1.26734,-0.07322,0.1358,0.47446
-6.08698,0,0,21.087,21.087,8.91302,8.91302,2.17392,4.11809,-1.34228,0.182137,-0.0171891,-0.259954,1,0,9.8875,-0.42,-2.3275,0.21472,-0.042822,-1.26734,-0.07322,0.1358,0.47446
-6.10829,0,0,21.1083,21.1083,8.89171,8.89171,2.18153,4.11748,-1.344,-0.164937,-0.561131,-0.23832,1,0,7.7175,-0.49,-2.03,-0.133834,-0.586332,-1.24586,-0.07322,0.1358,0.47446
-6.11455,0,0,21.1145,21.1145,8.88545,8.88545,2.18377,4.11624,-1.34545,-0.164916,-0.561092,-0.23832,1,0,4.69,-0.8575,-1.855,-0.133834,-0.586332,-1.24586,-0.07476,0.13706,0.48594
-6.11001,0,0,21.11,21.11,8.88999,8.88999,2.18215,4.11506,-1.34707,0.12254,-0.50824,0.0095472,1,0,2.5375,-0.8225,-1.96,0.154818,-0.533506,-0.999912,-0.07476,0.13706,0.48594
-6.09976,0,0,21.0998,21.0998,8.90024,8.90024,2.17849,4.11481,-1.34799,0.122544,-0.508303,0.00954993,1,0,1.365,-0.2625,-1.575,0.154818,-0.533506,-0.999912,-0.07476,0.13706,0.48594
-6.08284,0,0,21.0828,21.0828,8.91716,8.91716,2.17244,4.11699,-1.34862,-0.181087,0.0156374,0.551631,1,0,0.0175,1.1725,-1.4525,-0.15006,-0.010004,-0.462014,-0.07476,0.13706,0.48594
-6.08346,0,0,21.0835,21.0835,8.91654,8.91654,2.17266,4.11763,-1.34854,-0.181098,0.0156412,0.55163,1,0,3.5,0.28,-1.015,-0.15006,-0.010004,-0.462014,-0.07476,0.13706,0.48594
-5.57568,0,0,20.5757,20.5757,9.42432,9.42432,1.99132,4.06896,-1.36199,-0.0474664,0.166002,0.00640593,0,0,3.64,0.0175,-0.385,-0.016714,0.14335,-1.00321,-0.07476,0.13706,0.48594
-5.09098,0,0,20.091,20.091,9.90902,9.90902,1.81821,4.02134,-1.37613,-0.0466374,0.162992,0.0065647,0,0,6.3875,0.1225,-1.015,-0.016714,0.14335,-1.00321,-0.07476,0.13706,0.48594
-5.11591,0,0,20.1159,20.1159,9.88409,9.88409,1.82711,4.02012,-1.37504,-0.524541,-0.093686,-0.231344,1,0,8.33,-0.7875,-0.385,-0.496662,-0.113216,-1.23928,-0.07476,0.13706,0.48594
-5.14938,0,0,20.1494,20.1494,9.85062,9.85062,1.83906,4.01946,-1.37369,-0.524529,-0.093478,-0.23135,1,0,10.0275,-0.455,-0.245,-0.496662,-0.113216,-1.23928,-0.07462,0.1421,0.49126
-5.18246,0,0,20.1825,20.1825,9.81754,9.81754,1.85088,4.0192,-1.37248,-0.252518,-0.190852,-0.0947605,1,0,9.9575,-0.2275,-0.3325,-0.223504,-0.210694,-1.10373,-0.07462,0.1421,0.49126
-5.20633,0,0,20.2063,20.2063,9.79367,9.79367,1.8594,4.01963,-1.37061,-0.252526,-0.190703,-0.0947658,1,0,8.085,0.1925,0.035,-0.223504,-0.210694,-1.10373,-0.07462,0.1421,0.49126
-4.78955,0,0,19.7895,19.7895,10.2105,10.2105,1.71055,4.37122,-1.73717,0.263986,0.137046,0.0918709,0,0,5.74,0.5425,-0.21,0.30134,0.119316,-0.918172,-0.07462,0.1421,0.49126
-4.35987,0,0,19.3599,19.3599,10.6401,10.6401,1.5571,4.71488,-2.10439,0.258006,0.134363,0.0914721,0,0,1.855,0.105,-0.0875,0.30134,0.119316,-0.918172,-0.07462,0.1421,0.49126
-4.34174,0,0,19.3417,19.3417,10.6583,10.6583,1.55062,4.71581,-2.10296,-0.0368555,0.227556,0.292618,1,0,-0.315,0.4725,-0.2275,0.005246,0.212524,-0.71858,-0.07462,0.1421,0.49126
-4.32261,0,0,19.3226,19.3226,10.6774,10.6774,1.54379,4.71614,-2.10134,-0.0368612,0.227437,0.29262,1,0,-0.525,0.1225,-0.105,0.005246,0.212524,-0.71858,-0.07462,0.1421,0.49126
-4.31529,0,0,19.3153,19.3153,10.6847,10.6847,1.54117,4.71559,-2.09932,0.173197,0.0335763,0.403891,1,0,1.82,-0.385,0.14,0.216184,0.01891,-0.60817,-0.07462,0.1421,0.49126
-4.33034,0,0,19.3303,19.3303,10.6697,10.6697,1.54655,4.71505,-2.09881,0.173206,0.0336698,0.403889,1,0,6.37,-0.4025,-0.735,0.216184,0.01891,-0.60817,-0.06944,0.15498,0.50372
-4.80859,0,0,19.8086,19.8086,10.1914,10.1914,1.71735,4.36812,-1.86772,-0.276936,-0.143727,0.0301513,0,0,10.0625,-0.56,-0.9975,-0.241926,-0.161284,-0.979416,-0.06944,0.15498,0.50372
-5.29134,0,0,20.2913,20.2913,9.70866,9.70866,1.88976,4.02905,-1.63995,-0.271034,-0.140714,0.0304899,0,0,12.915,-0.1925,-1.54,-0.241926,-0.161284,-0.979416,-0.06944,0.15498,0.50372
-5.33443,0,0,20.3344,20.3344,9.66557,9.66557,1.90515,4.02921,-1.64165,-0.347087,-0.39276,-0.149516,1,0,12.075,-0.035,-2.03,-0.318298,-0.413336,-1.15802,-0.06944,0.15498,0.50372
-5.35473,0,0,20.3547,20.3547,9.64527,9.64527,1.9124,4.03064,-1.64456,-0.347112,-0.392634,-0.149522,1,0,7.56,0.6825,-2.765,-0.318298,-0.413336,-1.15802,-0.06944,0.15498,0.50372
-5.35485,0,0,20.3548,20.3548,9.64515,9.64515,1.91245,4.03176,-1.64745,-0.0865447,-0.079134,0.164733,1,0,3.5175,0.5075,-2.7475,-0.056608,-0.100162,-0.846192,-0.06944,0.15498,0.50372
-5.33708,0,0,20.3371,20.3371,9.66292,9.66292,1.9061,4.03385,-1.65064,-0.0865811,-0.0792445,0.164734,1,0,-0.0525,1.0675,-2.94,-0.056608,-0.100162,-0.846192,-0.06944,0.15498,0.50372
-5.31133,0,0,20.3113,20.3113,9.68867,9.68867,1.8969,4.03655,-1.65307,0.0504079,0.151537,0.189695,1,0,-1.68,1.435,-2.5025,0.081008,0.13054,-0.821426,-0.06944,0.15498,0.50372
-5.30829,0,0,20.3083,20.3083,9.69171,9.69171,1.89582,4.03446,-1.65378,0.0504442,0.151518,0.189698,1,0,2.8,-1.33,-1.4175,0.081008,0.13054,-0.821426,-0.06944,0.15498,0.50372
-5.31012,0,0,20.3101,20.3101,9.68988,9.68988,1.89647,4.03187,-1.65553,-1.1046,0.730655,-0.134145,1,0,3.815,-1.645,-2.0125,-1.07897,0.709064,-1.14277,-0.06958,0.16254,0.51548
-5.35115,0,0,20.3512,20.3512,9.64885,9.64885,1.91113,4.02978,-1.65703,-1.10456,0.73091,-0.134151,1,0,11.655,-1.3475,-1.8725,-1.07897,0.709064,-1.14277,-0.06958,0.16254,0.51548
-5.40377,0,0,20.4038,20.4038,9.59623,9.59623,1.92992,4.02872,-1.64893,-0.629533,-0.0695482,-0.280101,1,0,13.5975,-0.56,3.6925,-0.601948,-0.09089,-1.28759,-0.06958,0.16254,0.51548
-5.46619,0,0,20.4662,20.4662,9.53381,9.53381,1.95221,4.02962,-1.64789,-0.629548,-0.0691603,-0.280115,1,0,15.8375,0.455,-0.455,-0.601948,-0.09089,-1.28759,-0.06958,0.16254,0.51548
-5.50984,0,0,20.5098,20.5098,9.49016,9.49016,1.9678,4.03013,-1.64674,-0.0405947,-0.0211375,-0.35746,1,0,12.075,0.2275,-0.385,-0.010492,-0.043188,-1.36433,-0.06958,0.16254,0.51548
-5.52504,0,0,20.525,20.525,9.47496,9.47496,1.97323,4.03339,-1.64541,-0.0406514,-0.0210433,-0.357467,1,0,6.37,1.8375,-0.3325,-0.010492,-0.043188,-1.36433,-0.06958,0.16254,0.51548
-6.267,0,0,21.267,21.267,8.733,8.733,2.23822,4.86921,-2.42426,0.619415,-0.217009,0.45134,0,0,2.9225,1.9075,0.56,0.666974,-0.243512,-0.560468,-0.06958,0.16254,0.51548
-6.9787,0,0,21.9787,21.9787,8.0213,8.0213,2.49239,5.69228,-3.19355,0.605111,-0.21265,0.449837,0,0,-1.26,1.47,0.7,0.666974,-0.243512,-0.560468,-0.06958,0.16254,0.51548
-6.94759,0,0,21.9476,21.9476,8.05241,8.05241,2.48128,5.69336,-3.19068,0.16422,0.16172,0.2846,1,0,-3.01,0.6125,0.595,0.224236,0.130662,-0.724436,-0.07084,0.15596,0.50806
-5.90779,0,0,20.9078,20.9078,9.09221,9.09221,2.10993,6.6406,-4.10129,0.732252,0.358062,0.478695,0,0,1.3125,-0.98,0.6125,0.811178,0.333304,-0.530334,-0.07084,0.15596,0.50806
-5.91735,0,0,20.9173,20.9173,9.08265,9.08265,2.11334,6.63662,-4.09846,-0.595883,-0.0655358,-0.184975,1,0,5.11,-2.3625,0.6825,-0.522648,-0.089914,-1.18889,-0.07084,0.15596,0.50806
-6.11232,0,0,21.1123,21.1123,8.88768,8.88768,2.18297,6.85197,-4.39849,0.159792,-0.0421192,0.108631,0,0,12.8625,-1.75,-0.14,0.239974,-0.06771,-0.897066,-0.07084,0.15596,0.50806
-7.22238,0,0,22.2224,22.2224,7.77762,7.77762,2.57942,6.45053,-4.12414,-0.31822,-0.376441,-0.0012512,0,0,13.4225,-1.1025,-0.105,-0.24705,-0.408578,-1.00662,-0.07084,0.15596,0.50806
-7.27805,0,0,22.278,22.278,7.72195,7.72195,2.5993,6.45017,-4.12302,-0.376527,-0.248718,-0.227737,1,0,14.455,-0.28,-0.385,-0.30561,-0.281332,-1.23135,-0.07084,0.15596,0.50806
-7.31508,0,0,22.3151,22.3151,7.68492,7.68492,2.61253,6.45761,-4.12194,0.634713,-0.296608,-0.33608,1,0,10.7275,4.2875,-0.6125,0.71004,-0.3294,-1.33883,-0.07084,0.15596,0.50806
-7.32691,0,0,22.3269,22.3269,7.67309,7.67309,2.61675,6.46072,-4.12181,-0.214162,-0.0666922,-0.364859,1,0,5.74,1.7325,-1.05,-0.142374,-0.099796,-1.36738,-0.07084,0.15596,0.50806
-7.31895,0,0,22.3189,22.3189,7.68105,7.68105,2.61391,6.46375,-4.12235,-0.0290701,-0.0597805,-0.228882,1,0,1.82,1.6625,-1.435,0.043554,-0.092842,-1.23244,-0.07112,0.15862,0.51282
-7.30744,0,0,22.3074,22.3074,7.69256,7.69256,2.6098,6.46471,-4.12331,0.166019,0.165228,0.15017,1,0,1.1375,0.4375,-1.6275,0.239486,0.132004,-0.856318,-0.07112,0.15862,0.51282
-7.29039,0,0,22.2904,22.2904,7.70961,7.70961,2.60371,6.46458,-4.12496,0.166022,0.165122,0.150175,1,0,0.07,-0.21,-1.995,0.239486,0.132004,-0.856318,-0.07112,0.15862,0.51282
-6.56986,0,0,21.5699,21.5699,8.43014,8.43014,2.34638,6.6838,-4.45178,0.138774,0.226472,0.0842753,0,0,2.9225,-0.2625,-2.695,0.21594,0.197762,-0.921466,-0.07112,0.15862,0.51282
-5.88961,0,0,20.8896,20.8896,9.11039,9.11039,2.10343,6.89478,-4.77997,0.135117,0.222248,0.0840038,0,0,8.645,-2.205,-2.8,0.21594,0.197762,-0.921466,-0.07112,0.15862,0.51282
-5.91633,0,0,20.9163,20.9163,9.08367,9.08367,2.11298,6.89024,-4.78362,-0.225495,0.701517,-0.143693,1,0,8.9775,-2.835,-3.0625,-0.146278,0.676368,-1.14741,-0.07112,0.15862,0.51282
-5.94538,0,0,20.9454,20.9454,9.05462,9.05462,2.12335,6.88984,-4.78637,-0.225488,0.701696,-0.143699,1,0,9.38,-0.385,-2.625,-0.146278,0.676368,-1.14741,-0.07112,0.15862,0.51282
-5.98652,0,0,20.9865,20.9865,9.01348,9.01348,2.13804,6.88877,-4.78927,0.0393694,0.14432,-0.171616,1,0,11.8125,-0.7875,-2.695,0.119682,0.119316,-1.1751,-0.07112,0.15862,0.51282
-6.01126,0,0,21.0113,21.0113,8.98874,8.98874,2.14688,6.89134,-4.79154,0.0393248,0.144473,-0.171627,1,0,8.4875,1.365,-2.415,0.119682,0.119316,-1.1751,-0.0819,0.15078,0.50036
-5.60005,0,0,20.6001,20.6001,9.39995,9.39995,2.00002,6.93288,-4.94966,0.00871968,0.13289,0.0568163,0,0,5.985,1.8725,-2.3625,0.08967,0.110288,-0.948428,-0.0819,0.15078,0.50036
-5.173,0,0,20.173,20.173,9.827,9.827,1.8475,6.97404,-5.10602,0.00800653,0.130246,0.0568181,0,0,1.2075,2.38,-1.4875,0.08967,0.110288,-0.948428,-0.0819,0.15078,0.50036
-5.15922,0,0,20.1592,20.1592,9.84078,9.84078,1.84258,6.97704,-5.10694,-0.158724,-0.0411834,0.344514,1,0,0.6825,1.645,-1.6275,-0.077714,-0.060878,-0.662948,-0.0819,0.15078,0.50036
-5.15442,0,0,20.1544,20.1544,9.84558,9.84558,1.84087,6.97666,-5.10687,-0.158717,-0.0412131,0.344516,1,0,2.415,-0.315,-0.9975,-0.077714,-0.060878,-0.662948,-0.0819,0.15078,0.50036
-5.15635,0,0,20.1563,20.1563,9.84365,9.84365,1.84155,6.97498,-5.10606,-0.123822,0.061019,0.173129,1,0,3.71,-1.0675,-0.5425,-0.0427,0.041236,-0.833016,-0.0819,0.15078,0.50036
-5.18009,0,0,20.1801,20.1801,9.81991,9.81991,1.85003,6.97243,-5.10456,-0.123778,0.061166,0.173129,1,0,8.0325,-1.5575,-0.1225,-0.0427,0.041236,-0.833016,-0.0819,0.15078,0.50036
-5.21038,0,0,20.2104,20.2104,9.78962,9.78962,1.86085,6.96996,-5.10256,-0.163947,0.0420575,-0.199774,1,0,9.31,-1.505,0.1575,-0.083082,0.02196,-1.20304,-0.0819,0.15078,0.50036
-5.2454,0,0,20.2454,20.2454,9.7546,9.7546,1.87336,6.96972,-5.10032,-0.163942,0.042274,-0.199781,1,0,10.2375,-0.1925,0.2625,-0.083082,0.02196,-1.20304,-0.07406,0.14518,0.50106
-5.27299,0,0,20.273,20.273,9.72701,9.72701,1.88321,6.97051,-5.09753,0.242049,0.142833,-0.156387,1,0,8.715,0.42,0.56,0.324642,0.122244,-1.15998,-0.07406,0.14518,0.50106
-5.27931,0,0,20.2793,20.2793,9.72069,9.72069,1.88547,6.9715,-5.09457,0.242032,0.142872,-0.156391,1,0,4.445,0.5425,0.6475,0.324642,0.122244,-1.15998,-0.07406,0.14518,0.50106
-4.81447,0,0,19.8145,19.8145,10.1855,10.1855,1.71945,6.7424,-5.00664,-0.212849,0.156865,-0.036563,0,0,1.645,1.3825,0.945,-0.136152,0.13908,-1.04164,-0.07406,0.14518,0.50106
-4.35378,0,0,19.3538,19.3538,10.6462,10.6462,1.55492,6.51657,-4.91808,-0.208935,0.154027,-0.0360266,0,0,0.77,0.805,0.7,-0.136152,0.13908,-1.04164,-0.07406,0.14518,0.50106
-4.34225,0,0,19.3422,19.3422,10.6578,10.6578,1.5508,6.51876,-4.91556,-0.389136,-0.164063,0.318677,1,0,0.91,1.225,0.385,-0.317078,-0.178608,-0.689666,-0.07406,0.14518,0.50106
-4.34619,0,0,19.3462,19.3462,10.6538,10.6538,1.55221,6.51726,-4.91383,-0.38911,-0.164038,0.31868,1,0,4.06,-0.945,-0.0175,-0.317078,-0.178608,-0.689666,-0.07406,0.14518,0.50106
-6.25975,0,0,21.2597,21.2597,8.74025,8.74025,2.23562,6.2641,-4.69172,-0.17139,-0.555926,0.31128,0,0,5.1975,-0.56,-0.28,-0.102846,-0.58194,-0.697108,-0.07406,0.14518,0.50106
-8.16462,0,0,23.1646,23.1646,6.83538,6.83538,2.91594,6.01467,-4.47787,-0.167061,-0.544112,0.311214,0,0,9.5725,-1.3825,-0.945,-0.102846,-0.58194,-0.697108,-0.07406,0.14518,0.50106
-9.0585,0,0,24.0585,24.0585,5.9415,5.9415,3.23518,6.06304,-4.58607,0.0610996,-0.278087,0.0753818,0,0,9.4675,-1.75,-0.805,0.127124,-0.321714,-0.930738,-0.07588,0.15372,0.50204
-9.92895,0,0,24.929,24.929,5.07105,5.07105,3.54605,6.1136,-4.69463,0.0602222,-0.272707,0.0749693,0,0,7.98,-0.245,-1.505,0.127124,-0.321714,-0.930738,-0.07588,0.15372,0.50204
-9.94367,0,0,24.9437,24.9437,5.05633,5.05633,3.55131,6.1138,-4.69535,-0.011215,0.188901,-0.17204,1,0,6.37,0,-1.47,0.055388,0.139324,-1.17584,-0.07588,0.15372,0.50204
-9.94129,0,0,24.9413,24.9413,5.05871,5.05871,3.55046,6.11619,-4.69594,-0.0112564,0.188886,-0.172044,1,0,2.94,1.2775,-1.47,0.055388,0.139324,-1.17584,-0.07588,0.15372,0.50204
-9.93644,0,0,24.9364,24.9364,5.06356,5.06356,3.54873,6.11821,-4.69692,0.214672,0.0574476,-0.207701,1,0,2.4675,1.05,-1.68,0.282308,0.008052,-1.21122,-0.07588,0.15372,0.50204
-9.9318,0,0,24.9318,24.9318,5.0682,5.0682,3.54707,6.11983,-4.69868,0.214644,0.0574187,-0.207702,1,0,2.555,0.7875,-2.1175,0.282308,0.008052,-1.21122,-0.07588,0.15372,0.50204
-9.92844,0,0,24.9284,24.9284,5.07156,5.07156,3.54587,6.12031,-4.70053,-0.154681,0.313498,-0.0928676,1,0,2.8175,0.1225,-2.135,-0.088572,0.263886,-1.09727,-0.07588,0.15372,0.50204
-9.93309,0,0,24.9331,24.9331,5.06691,5.06691,3.54753,6.12114,-4.70306,-0.154695,0.313526,-0.092871,1,0,4.4625,0.2975,-2.5375,-0.088572,0.263886,-1.09727,-0.07588,0.15372,0.50204
-9.53169,0,0,24.5317,24.5317,5.46831,5.46831,3.40418,6.17044,-4.83737,0.0342097,0.141404,-0.0264199,0,0,7.28,-0.9275,-2.2225,0.101992,0.094428,-1.03139,-0.0749,0.1365,0.49462
-9.80637,0,0,24.8064,24.8064,5.19363,5.19363,3.50228,5.73858,-4.52932,-0.371588,-0.0926762,-0.0578315,0,0,7.1225,-0.875,-1.7325,-0.313052,-0.141154,-1.06323,-0.0749,0.1365,0.49462
-10.082,0,0,25.082,25.082,5,5,3.60071,5.34249,-4.24489,-0.305179,-0.0722429,0.0864555,0,0,6.8775,-0.385,-1.19,-0.253272,-0.122488,-0.920612,-0.0749,0.1365,0.49462
-10.0937,0,0,25.0937,25.0937,5,5,3.6049,5.343,-4.24472,0.199221,0.235101,-0.0580144,1,0,5.7225,0.21,-0.9625,0.253272,0.184464,-1.06396,-0.0749,0.1365,0.49462
-10.178,0,0,25.178,25.178,5,5,3.635,5.50053,-4.43334,0.138535,-0.0298972,-0.0286761,0,0,5.18,0.3675,-0.875,0.195078,-0.080764,-1.03456,-0.0749,0.1365,0.49462
-10.1814,0,0,25.1814,25.1814,5,5,3.63622,5.50288,-4.43293,-0.162062,-0.00752713,-0.165523,1,0,4.0425,1.295,-0.8925,-0.10675,-0.058438,-1.17035,-0.0749,0.1365,0.49462
-10.1788,0,0,25.1788,25.1788,5,5,3.63527,5.50526,-4.43207,-0.347369,0.149755,-0.219377,1,0,2.8,1.33,-0.63,-0.2928,0.098698,-1.22378,-0.0749,0.1365,0.49462
-9.46295,0,0,24.463,24.463,5.53705,5.53705,3.37963,5.80993,-4.77603,0.197427,0.222109,0.140733,0,0,2.6075,1.1375,-0.6825,0.259616,0.175436,-0.8662,-0.0749,0.1365,0.49462
-9.46233,0,0,24.4623,24.4623,5.53767,5.53767,3.3794,5.81738,-4.77572,0.0544305,-0.0128673,0.207112,1,0,3.2375,4.27,-1.12,0.116144,-0.059292,-0.80032,-0.0798,0.1379,0.50148
-9.45542,0,0,24.4554,24.4554,5.54458,5.54458,3.37693,5.81699,-4.776,-0.0920745,0.335518,0.177485,1,0,2.0125,-0.3325,-1.19,-0.030988,0.288774,-0.829722,-0.0798,0.1379,0.50148
-9.46032,0,0,24.4603,24.4603,5.53968,5.53968,3.37869,5.81488,-4.77653,-0.0920378,0.335548,0.177487,1,0,4.3925,-1.3475,-1.2775,-0.030988,0.288774,-0.829722,-0.0798,0.1379,0.50148
-9.46968,0,0,24.4697,24.4697,5.53032,5.53032,3.38203,5.81302,-4.77737,0.025714,0.40876,-0.1814,1,0,5.3025,-1.2075,-1.47,0.08723,0.361852,-1.18584,-0.0798,0.1379,0.50148
-9.48699,0,0,24.487,24.487,5.51301,5.51301,3.38821,5.81257,-4.77917,0.0257218,0.408867,-0.181405,1,0,6.9475,-0.42,-2.065,0.08723,0.361852,-1.18584,-0.0798,0.1379,0.50148
-9.50902,0,0,24.509,24.509,5.49098,5.49098,3.39608,5.81253,-4.78066,-0.107183,-0.205172,-0.146619,1,0,7.875,-0.175,-1.9075,-0.046238,-0.251686,-1.15131,-0.0798,0.1379,0.50148
-9.51785,0,0,24.5178,24.5178,5.48215,5.48215,3.39923,5.81402,-4.78246,-0.107209,-0.205117,-0.146625,1,0,5.25,0.7175,-2.135,-0.046238,-0.251686,-1.15131,-0.0798,0.1379,0.50148
-9.52532,0,0,24.5253,24.5253,5.47468,5.47468,3.4019,5.8154,-4.78378,-0.468774,-0.209223,-0.224825,1,0,4.9525,0.665,-1.855,-0.40931,-0.255834,-1.22891,-0.0798,0.1379,0.50148
-9.52662,0,0,24.5266,24.5266,5.47338,5.47338,3.40237,5.81589,-4.7847,-0.468782,-0.209215,-0.224827,1,0,3.6925,0.1575,-1.5925,-0.40931,-0.255834,-1.22891,-0.07098,0.14084,0.49406
-9.52301,0,0,24.523,24.523,5.47699,5.47699,3.40108,5.81739,-4.78568,0.178589,0.0858204,0.226639,1,0,2.7125,0.7525,-1.6625,0.240828,0.038918,-0.780922,-0.07098,0.14084,0.49406
-9.512,0,0,24.512,24.512,5.488,5.488,3.39714,5.81642,-4.78563,0.178606,0.0857523,0.226645,1,0,1.1725,-0.665,-0.98,0.240828,0.038918,-0.780922,-0.07098,0.14084,0.49406
-9.50242,0,0,24.5024,24.5024,5.49758,5.49758,3.39372,5.81507,-4.78548,-0.230656,0.226505,0.170094,1,0,1.4525,-0.875,-0.91,-0.17019,0.179584,-0.837042,-0.07098,0.14084,0.49406
-9.50346,0,0,24.5035,24.5035,5.49654,5.49654,3.39409,5.81372,-4.78422,-0.230633,0.226512,0.170096,1,0,3.5175,-0.84,-0.2625,-0.17019,0.179584,-0.837042,-0.07098,0.14084,0.49406
-8.2752,0,0,23.2752,23.2752,6.7248,6.7248,2.95543,5.73703,-4.83367,-0.10162,0.422865,0.0494253,0,0,5.5475,-0.7,0.2275,-0.041968,0.383324,-0.957334,-0.07098,0.14084,0.49406
-7.07722,0,0,22.0772,22.0772,7.92278,7.92278,2.52758,5.66222,-4.88145,-0.100321,0.41545,0.0499103,0,0,7.4025,0,0.5075,-0.041968,0.383324,-0.957334,-0.07098,0.14084,0.49406
-6.11499,0,0,21.115,21.115,8.88501,8.88501,2.18392,5.83598,-5.13738,0.102945,0.314582,0.107515,0,0,7.77,0.5075,0.595,0.165188,0.28853,-0.900116,-0.07098,0.14084,0.49406
-5.15954,0,0,20.1595,20.1595,9.84046,9.84046,1.84269,6.00606,-5.39372,0.0999921,0.308651,0.107417,0,0,5.9325,0.735,0.7875,0.165188,0.28853,-0.900116,-0.07042,0.14028,0.48972
-5.17217,0,0,20.1722,20.1722,9.82783,9.82783,1.8472,6.00748,-5.39086,0.11734,0.0763221,0.234049,1,0,5.74,0.7875,0.595,0.182634,0.056364,-0.774456,-0.07042,0.14028,0.48972
-5.1742,0,0,20.1742,20.1742,9.8258,9.8258,1.84793,6.00884,-5.38895,0.117316,0.0763346,0.234046,1,0,3.675,0.735,0.035,0.182634,0.056364,-0.774456,-0.07042,0.14028,0.48972
-5.3873,0,0,20.3873,20.3873,9.6127,9.6127,1.92404,5.59344,-5.08589,-0.338088,-0.0620335,0.0753936,0,0,3.5525,0.4375,-0.4025,-0.281942,-0.083204,-0.932568,-0.07042,0.14028,0.48972
-5.59803,0,0,20.598,20.598,9.40197,9.40197,1.9993,5.18498,-4.78619,-0.330991,-0.0607036,0.076018,0,0,4.1475,-0.28,-1.3825,-0.281942,-0.083204,-0.932568,-0.07042,0.14028,0.48972
-5.60498,0,0,20.605,20.605,9.39502,9.39502,2.00178,5.18479,-4.78732,-0.0753817,-0.366954,-0.0945128,1,0,4.83,-0.2275,-1.6975,-0.025254,-0.38918,-1.10178,-0.07042,0.14028,0.48972
-5.62788,0,0,20.6279,20.6279,9.37212,9.37212,2.00996,5.18404,-4.78935,-0.0753686,-0.366812,-0.0945166,1,0,8.0675,-0.5775,-2.205,-0.025254,-0.38918,-1.10178,-0.07042,0.14028,0.48972
-5.65612,0,0,20.6561,20.6561,9.34388,9.34388,2.02004,5.18351,-4.79167,0.0679938,-0.0883101,-0.202225,1,0,9.1525,-0.455,-2.38,0.118706,-0.111142,-1.20865,-0.07042,0.14028,0.48972
-5.68408,0,0,20.6841,20.6841,9.31592,9.31592,2.03003,5.18419,-4.79444,0.067982,-0.0881367,-0.202232,1,0,9.1175,0.245,-2.66,0.118706,-0.111142,-1.20865,-0.0728,0.14154,0.4858
-5.7045,0,0,20.7045,20.7045,9.2955,9.2955,2.03732,5.18578,-4.79692,-0.165298,0.271042,0.186524,1,0,7.595,0.7875,-2.52,-0.115534,0.247538,-0.82289,-0.0728,0.14154,0.4858
-5.7153,0,0,20.7153,20.7153,9.2847,9.2847,2.04118,5.18653,-4.79908,-0.165311,0.271109,0.186521,1,0,5.6525,0.2975,-2.31,-0.115534,0.247538,-0.82289,-0.0728,0.14154,0.4858
-5.58535,0,0,20.5854,20.5854,9.41465,9.41465,1.99477,5.2032,-4.88525,0.0123755,0.045467,-0.0222439,0,0,4.585,0.385,-2.1875,0.063196,0.022936,-1.03005,-0.0728,0.14154,0.4858
-5.45057,0,0,20.4506,20.4506,9.54943,9.54943,1.94663,5.21848,-4.97034,0.0121099,0.04463,-0.0222393,0,0,3.0975,-0.175,-1.6625,0.063196,0.022936,-1.03005,-0.0728,0.14154,0.4858
-5.05345,0,0,20.0534,20.0534,9.94655,9.94655,1.8048,5.1236,-4.96841,-0.0885318,0.138651,-0.0497958,0,0,3.1675,-0.6125,-1.05,-0.039528,0.119316,-1.05762,-0.0728,0.14154,0.4858
-4.67642,0,0,19.6764,19.6764,10.3236,10.3236,1.67015,5.03006,-4.96546,-0.0869055,0.136316,-0.0495804,0,0,5.705,-0.8225,-0.7175,-0.039528,0.119316,-1.05762,-0.0728,0.14154,0.4858
-5.28862,0,0,20.2886,20.2886,9.71138,9.71138,1.88879,5.02975,-5.00225,0.0133255,-0.203672,0.00353868,0,0,7.07,-0.2625,-0.49,0.061122,-0.224114,-1.00479,-0.0728,0.14154,0.4858
-5.90743,0,0,20.9074,20.9074,9.09257,9.09257,2.1098,5.03062,-5.03883,0.0133103,-0.199832,0.0034033,0,0,10.5875,0.28,-0.35,0.061122,-0.224114,-1.00479,-0.0728,0.14154,0.4858
-5.94047,0,0,20.9405,20.9405,9.05953,9.05953,2.12159,5.03109,-5.03735,-0.179374,-0.282673,-0.063489,1,0,9.9225,0.21,-0.1925,-0.13237,-0.307074,-1.07116,-0.07084,0.14182,0.49042
-5.96956,0,0,20.9696,20.9696,9.03044,9.03044,2.13198,5.03123,-5.03522,-0.179377,-0.282492,-0.0634959,1,0,9.1,0.035,0.1925,-0.13237,-0.307074,-1.07116,-0.07084,0.14182,0.49042
-5.98773,0,0,20.9877,20.9877,9.01227,9.01227,2.13848,5.03253,-5.03447,0.104999,0.20857,-0.0878459,1,0,6.9825,0.6825,-0.63,0.153232,0.183366,-1.09532,-0.07084,0.14182,0.49042
-6.00591,0,0,21.0059,21.0059,8.99409,8.99409,2.14497,5.03383,-5.03371,0.104976,0.208683,-0.0878521,1,0,6.9825,0.6825,-0.63,0.153232,0.183366,-1.09532,-0.07084,0.14182,0.49042
-6.51724,0,0,21.5172,21.5172,8.48276,8.48276,2.32759,5.03611,-5.07862,0.00823399,-0.160754,0.0563621,0,0,5.075,-0.315,-1.645,0.05612,-0.188856,-0.952088,-0.07084,0.14182,0.49042
-7.01936,0,0,22.0194,22.0194,7.98064,7.98064,2.50692,5.03856,-5.12352,0.00819133,-0.157639,0.0562268,0,0,5.075,-0.315,-1.645,0.05612,-0.188856,-0.952088,-0.07084,0.14182,0.49042
-7.86726,0,0,22.8673,22.8673,7.13274,7.13274,2.80974,4.81946,-4.96103,-0.172292,-0.290123,0.0115576,0,0,6.3525,-0.6125,-2.1,-0.128954,-0.326472,-0.996496,-0.07084,0.14182,0.49042
-8.69953,0,0,23.6995,23.6995,6.30047,6.30047,3.10697,4.60507,-4.80132,-0.168563,-0.284943,0.0115977,0,0,6.3525,-0.6125,-2.1,-0.128954,-0.326472,-0.996496,-0.07084,0.14182,0.49042
-8.98947,0,0,23.9895,23.9895,6.01053,6.01053,3.21052,4.3704,-4.6255,-0.186469,-0.0802742,0.0480882,0,0,9.0475,-0.35,-1.785,-0.151036,-0.12383,-0.960506,-0.07504,0.13076,0.48188
-9.2419,0,0,24.2419,24.2419,5.7581,5.7581,3.30068,4.58931,-4.83478,0.17102,-0.0711532,0.074381,0,0,9.0125,0.035,-1.8025,0.211792,-0.116266,-0.934032,-0.07504,0.13076,0.48188
-9.47857,0,0,24.4786,24.4786,5.52143,5.52143,3.3852,4.80502,-5.04199,0.167268,-0.0697033,0.0739875,0,0,6.72,0.805,-1.3475,0.211792,-0.116266,-0.934032,-0.07504,0.13076,0.48188
-9.59901,0,0,24.599,24.599,5.40099,5.40099,3.42822,4.73607,-5.01471,-0.0543374,-0.0417163,-0.0733723,0,0,6.335,0.735,-0.91,-0.011956,-0.08906,-1.08031,-0.07504,0.13076,0.48188
-9.70474,0,0,24.7047,24.7047,5.29526,5.29526,3.46598,4.66834,-4.9862,-0.0531592,-0.0410548,-0.0733151,0,0,3.78,0.63,-0.07,-0.011956,-0.08906,-1.08031,-0.07504,0.13076,0.48188
-9.7078,0,0,24.7078,24.7078,5.2922,5.2922,3.46707,4.66895,-4.98422,0.150197,0.0371252,0.145162,1,0,3.9025,0.3325,0.0875,0.192272,-0.01098,-0.863516,-0.07504,0.13076,0.48188
-9.71887,0,0,24.7189,24.7189,5.28113,5.28113,3.47102,4.66801,-4.98125,0.150214,0.0371939,0.14516,1,0,5.46,-0.5425,0.7175,0.192272,-0.01098,-0.863516,-0.07504,0.13076,0.48188
-9.42444,0,0,24.4244,24.4244,5.57556,5.57556,3.36587,4.6642,-5.02487,-0.00242761,0.108889,-0.0711153,0,0,6.79,-0.2625,0.5775,0.038918,0.062464,-1.07824,-0.07504,0.13076,0.48188
-9.14526,0,0,24.1453,24.1453,5.85474,5.85474,3.26617,4.65979,-5.06234,-0.00235096,0.107157,-0.0710087,0,0,8.7325,-0.245,0.6475,0.038918,0.062464,-1.07824,-0.07616,0.1274,0.47362
-8.65794,0,0,23.6579,23.6579,6.34206,6.34206,3.09212,4.6596,-5.11297,-0.0110946,0.168129,0.0514932,0,0,8.2425,-0.105,0.455,0.030134,0.126392,-0.956846,-0.07616,0.1274,0.47362
-8.17081,0,0,23.1708,23.1708,6.82919,6.82919,2.91815,4.65986,-5.16454,-0.0110992,0.165107,0.0516515,0,0,6.58,0.21,-0.245,0.030134,0.126392,-0.956846,-0.07616,0.1274,0.47362
-8.18524,0,0,23.1852,23.1852,6.81476,6.81476,2.9233,4.58026,-5.12467,-0.0657193,-0.00211174,-0.046969,0,0,5.8275,0.2625,-0.56,-0.026108,-0.040748,-1.05481,-0.07616,0.1274,0.47362
-8.19604,0,0,23.196,23.196,6.80396,6.80396,2.92716,4.50269,-5.08598,-0.0643698,-0.00203923,-0.0468654,0,0,5.215,0.455,-1.19,-0.026108,-0.040748,-1.05481,-0.07616,0.1274,0.47362
-7.69607,0,0,22.6961,22.6961,7.30393,7.30393,2.7486,4.4871,-5.12376,-0.0213354,0.172431,0.0136775,0,0,5.5475,0.385,-1.68,0.016836,0.13664,-0.99491,-0.07616,0.1274,0.47362
-7.21235,0,0,22.2124,22.2124,7.78765,7.78765,2.57584,4.47058,-5.1624,-0.021048,0.169429,0.0138396,0,0,7.0525,-0.28,-2.31,0.016836,0.13664,-0.99491,-0.07616,0.1274,0.47362
-7.3063,0,0,22.3063,22.3063,7.6937,7.6937,2.60939,4.07109,-4.84255,-0.320239,-0.0165734,0.0908059,0,0,7.315,0.07,-2.6075,-0.290604,-0.049776,-0.919026,-0.07616,0.1274,0.47362
-7.39486,0,0,22.3949,22.3949,7.60514,7.60514,2.64102,3.67718,-4.53264,-0.31338,-0.016002,0.0912446,0,0,6.6325,0.175,-2.7475,-0.290604,-0.049776,-0.919026,-0.0798,0.13384,0.47082
-6.00986,0,0,21.0099,21.0099,8.99014,8.99014,2.14638,3.68636,-4.62091,-0.0133484,0.477941,0.103397,0,0,5.74,-1.0325,-2.345,0.010858,0.452254,-0.907314,-0.0798,0.13384,0.47082
-4.63161,0,0,19.6316,19.6316,10.3684,10.3684,1.65415,3.69528,-4.70899,-0.0135038,0.469372,0.103672,0,0,2.66,-0.8225,-2.2225,0.010858,0.452254,-0.907314,-0.0798,0.13384,0.47082
-4.62361,0,0,19.6236,19.6236,10.3764,10.3764,1.65129,3.69493,-4.71064,0.229109,0.464071,-0.161649,1,0,1.8375,-0.3325,-1.995,0.254492,0.447008,-1.17059,-0.0798,0.13384,0.47082
-4.61982,0,0,19.6198,19.6198,10.3802,10.3802,1.64994,3.6954,-4.71121,0.229101,0.464048,-0.161649,1,0,2.6425,0.175,-1.3825,0.254492,0.447008,-1.17059,-0.0798,0.13384,0.47082
-4.62195,0,0,19.622,19.622,10.378,10.378,1.6507,3.69628,-4.71096,0.148176,0.202465,-0.355663,1,0,3.7975,0.42,-0.91,0.17324,0.185684,-1.36311,-0.0798,0.13384,0.47082
-4.63786,0,0,19.6379,19.6379,10.3621,10.3621,1.65638,3.69734,-4.70995,0.148158,0.202564,-0.355667,1,0,6.5275,0.5425,-0.4725,0.17324,0.185684,-1.36311,-0.0798,0.13384,0.47082
-4.81336,0,0,19.8134,19.8134,10.1866,10.1866,1.71906,3.66379,-4.69652,-0.0300848,-0.0457262,0.0779773,0,0,7.525,0.3675,0.0525,-0.006344,-0.06344,-0.932812,-0.0798,0.13384,0.47082
-4.98232,0,0,19.9823,19.9823,10.0177,10.0177,1.7794,3.63301,-4.68537,-0.0295486,-0.0446745,0.0779794,0,0,6.895,1.4175,-0.35,-0.006344,-0.06344,-0.932812,-0.07406,0.13356,0.47572
-5.18742,0,0,20.1874,20.1874,9.81258,9.81258,1.85265,3.59444,-4.66653,-0.030699,-0.0669684,-0.0216069,0,0,6.0725,0.4025,-0.2275,-0.008174,-0.086986,-1.03163,-0.07406,0.13356,0.47572
-5.3682,0,0,20.3682,20.3682,9.6318,9.6318,1.91721,3.55703,-4.64898,-0.0300473,-0.065843,-0.0216032,0,0,1.995,0.5775,-0.875,-0.008174,-0.086986,-1.03163,-0.07406,0.13356,0.47572
-5.60046,0,0,20.6005,20.6005,9.39954,9.39954,2.00017,3.43103,-4.55271,-0.107182,-0.0906514,-0.0645507,0,0,0.7875,-0.3675,-1.1025,-0.08784,-0.113216,-1.07433,-0.07406,0.13356,0.47572
-5.83148,0,0,20.8315,20.8315,9.16852,9.16852,2.08267,3.30658,-4.45717,-0.105014,-0.0892103,-0.0644743,0,0,1.4175,-0.9975,-1.12,-0.08784,-0.113216,-1.07433,-0.07406,0.13356,0.47572
-5.82714,0,0,20.8271,20.8271,9.17286,9.17286,2.08112,3.30554,-4.45794,-0.117145,0.202157,-0.196642,1,0,2.5375,-0.7175,-1.47,-0.10004,0.177876,-1.20548,-0.07406,0.13356,0.47572
-5.84282,0,0,20.8428,20.8428,9.15718,9.15718,2.08672,3.30529,-4.45878,-0.11714,0.202255,-0.196645,1,0,6.545,-0.2625,-1.5225,-0.10004,0.177876,-1.20548,-0.07406,0.13356,0.47572
-4.91783,0,0,19.9178,19.9178,10.0822,10.0822,1.75637,3.54416,-4.72407,0.192374,0.328025,0.063212,0,0,8.365,0.105,-1.6625,0.214964,0.30927,-0.947574,-0.07406,0.13356,0.47572
-4.00765,0,0,19.0076,19.0076,10.9924,10.9924,1.4313,3.78022,-4.99175,0.188263,0.322358,0.0631064,0,0,8.4,1.1375,-1.9075,0.214964,0.30927,-0.947574,-0.07406,0.13356,0.47572
-3.61904,0,0,18.619,18.619,11.381,11.381,1.29252,4.48035,-5.64963,0.580865,0.135266,0.251871,0,0,7.21,0.6125,-1.8375,0.621468,0.124806,-0.75945,-0.0721,0.13062,0.47936
-3.60287,0,0,18.6029,18.6029,11.3971,11.3971,1.28674,4.48092,-5.65038,-0.182439,0.396883,-0.332133,1,0,0.175,0.2275,-1.4875,-0.145058,0.386252,-1.33895,-0.0721,0.13062,0.47936
-3.57806,0,0,18.5781,18.5781,11.4219,11.4219,1.27788,4.47981,-5.64988,-0.18242,0.396729,-0.332128,1,0,-1.61,-0.735,-0.735,-0.145058,0.386252,-1.33895,-0.0721,0.13062,0.47936
-3.55691,0,0,18.5569,18.5569,11.4431,11.4431,1.27032,4.47772,-5.64903,-0.116296,0.692144,-0.3829,1,0,-0.8925,-1.3125,-0.525,-0.07869,0.681492,-1.38934,-0.0721,0.13062,0.47936
-3.56196,0,0,18.562,18.562,11.438,11.438,1.27213,4.47652,-5.64703,-0.116275,0.692176,-0.382899,1,0,4.305,-0.77,0.14,-0.07869,0.681492,-1.38934,-0.0721,0.13062,0.47936
-3.57588,0,0,18.5759,18.5759,11.4241,11.4241,1.2771,4.47543,-5.64448,0.0437409,0.289732,-0.249501,1,0,6.055,-0.7,0.455,0.081984,0.27938,-1.25697,-0.0721,0.13062,0.47936
-3.59532,0,0,18.5953,18.5953,11.4047,11.4047,1.28404,4.47799,-5.64227,0.0436963,0.289853,-0.249507,1,0,7.175,1.435,0.21,0.081984,0.27938,-1.25697,-0.0721,0.13062,0.47936
-3.62453,0,0,18.6245,18.6245,11.3755,11.3755,1.29448,4.47915,-5.64009,0.347876,-0.200426,-0.0952122,1,0,9.135,0.6125,0.21,0.387472,-0.210572,-1.10386,-0.0721,0.13062,0.47936
-3.64363,0,0,18.6436,18.6436,11.3564,11.3564,1.3013,4.48073,-5.63904,0.347849,-0.200308,-0.095217,1,0,7.1575,0.84,-0.455,0.387472,-0.210572,-1.10386,-0.07252,0.12838,0.476
-3.63617,0,0,18.6362,18.6362,11.3638,11.3638,1.29863,4.4816,-5.63873,-0.0687407,0.211335,-0.155462,1,0,1.8725,0.42,-0.875,-0.030866,0.20069,-1.16364,-0.07252,0.12838,0.476
-3.61109,0,0,18.6111,18.6111,11.3889,11.3889,1.28967,4.48147,-5.63905,-0.0687384,0.211179,-0.155458,1,0,-1.6275,-0.175,-1.225,-0.030866,0.20069,-1.16364,-0.07252,0.12838,0.476
-3.58821,0,0,18.5882,18.5882,11.4118,11.4118,1.2815,4.48054,-5.63969,-0.0219503,0.249629,-0.174757,1,0,-1.1725,-0.6475,-1.4,0.016104,0.239242,-1.18279,-0.07252,0.12838,0.476
-3.58955,0,0,18.5896,18.5896,11.4104,11.4104,1.28198,4.47935,-5.64069,-0.0219296,0.249638,-0.174755,1,0,3.6925,-0.805,-1.61,0.016104,0.239242,-1.18279,-0.07252,0.12838,0.476
-3.95118,0,0,18.9512,18.9512,11.0488,11.0488,1.41114,4.58392,-5.74735,0.0973723,-0.126957,0.00381489,0,0,3.4475,-0.4375,-1.61,0.137738,-0.139202,-1.0054,-0.07252,0.12838,0.476
-4.31228,0,0,19.3123,19.3123,10.6877,10.6877,1.5401,4.68684,-5.85369,0.0955819,-0.124718,0.003612,0,0,4.62,-0.2275,-1.785,0.137738,-0.139202,-1.0054,-0.07252,0.12838,0.476
-4.60749,0,0,19.6075,19.6075,10.3925,10.3925,1.64553,4.32744,-5.55629,-0.321907,-0.0979563,-0.025208,0,0,6.965,0.0175,-1.785,-0.287798,-0.114314,-1.03444,-0.07252,0.12838,0.476
-4.86674,0,0,19.8667,19.8667,10.1333,10.1333,1.73812,3.97182,-5.26723,-0.315716,-0.0963319,-0.0248066,0,0,0.84,-0.3325,-1.9425,-0.287798,-0.114314,-1.03444,-0.07714,0.13342,0.48076
-4.85387,0,0,19.8539,19.8539,10.1461,10.1461,1.73353,3.97156,-5.26818,-0.34499,0.167504,-0.216481,1,0,0.84,-0.2625,-1.5925,-0.3172,0.149328,-1.22464,-0.07714,0.13342,0.48076
-4.83043,0,0,19.8304,19.8304,10.1696,10.1696,1.72515,3.97074,-5.26912,-0.344976,0.167358,-0.216475,1,0,-1.2775,-0.595,-1.575,-0.3172,0.149328,-1.22464,-0.07714,0.13342,0.48076
-4.80785,0,0,19.8079,19.8079,10.1921,10.1921,1.71709,3.96913,-5.26876,-0.152393,0.133267,-0.518185,1,0,-1.155,-1.0325,-0.805,-0.12383,0.115412,-1.52402,-0.07714,0.13342,0.48076
-4.81274,0,0,19.8127,19.8127,10.1873,10.1873,1.71883,3.97002,-5.2683,-0.152408,0.133297,-0.518187,1,0,4.34,0.4375,-0.7875,-0.12383,0.115412,-1.52402,-0.07714,0.13342,0.48076
-4.98913,0,0,19.9891,19.9891,10.0109,10.0109,1.78183,4.17821,-5.46759,0.179997,-0.0663909,0.020651,0,0,1.505,0.805,-0.735,0.213622,-0.085156,-0.989054,-0.07714,0.13342,0.48076
-5.17103,0,0,20.171,20.171,9.82897,9.82897,1.8468,4.38155,-5.66541,0.176458,-0.0652692,0.0203505,0,0,3.2025,0.4025,-0.455,0.213622,-0.085156,-0.989054,-0.07714,0.13342,0.48076
-6.18791,0,0,21.1879,21.1879,8.81209,8.81209,2.20997,4.31032,-5.58544,-0.0521537,-0.344726,0.0789903,0,0,2.2925,0.805,-0.77,-0.017202,-0.370636,-0.930738,-0.07714,0.13342,0.48076
-7.187,0,0,22.187,22.187,7.813,7.813,2.56679,4.23836,-5.5103,-0.0509011,-0.338517,0.078825,0,0,2.205,0.035,-0.9975,-0.017202,-0.370636,-0.930738,-0.07812,0.13552,0.49098
-7.11047,0,0,22.1105,22.1105,7.88953,7.88953,2.53945,4.56056,-5.82355,0.273326,0.0167436,0.0442356,0,0,-0.6475,-0.56,-1.05,0.314028,-0.01525,-0.964654,-0.07812,0.13552,0.49098
-7.05965,0,0,22.0597,22.0597,7.94035,7.94035,2.5213,4.87585,-6.13694,0.267841,0.0164082,0.0437973,0,0,4.3575,-0.875,-1.61,0.314028,-0.01525,-0.964654,-0.07812,0.13552,0.49098
-7.05725,0,0,22.0573,22.0573,7.94275,7.94275,2.52045,4.87413,-6.13778,0.0674199,0.579398,-0.143573,1,0,2.94,-1.12,-1.4875,0.112728,0.54717,-1.15058,-0.07812,0.13552,0.49098
-7.05706,0,0,22.0571,22.0571,7.94294,7.94294,2.52038,4.87669,-6.13856,0.0673754,0.579396,-0.143577,1,0,3.3775,1.3825,-1.5575,0.112728,0.54717,-1.15058,-0.07812,0.13552,0.49098
-7.2842,0,0,22.2842,22.2842,7.7158,7.7158,2.6015,4.88576,-6.178,0.0146143,-0.0807555,-0.0408683,0,0,4.9175,0.735,-1.4175,0.059902,-0.113704,-1.04859,-0.07812,0.13552,0.49098
-7.48298,0,0,22.483,22.483,7.51702,7.51702,2.67249,4.89596,-6.21771,0.0144369,-0.079523,-0.0409403,0,0,0.07,1.4525,-1.645,0.059902,-0.113704,-1.04859,-0.07812,0.13552,0.49098
-7.47166,0,0,22.4717,22.4717,7.52834,7.52834,2.66845,4.89582,-6.21893,-0.340542,-0.247395,-0.0805262,1,0,1.1725,-0.21,-1.75,-0.296582,-0.281332,-1.08787,-0.07812,0.13552,0.49098
-7.43328,0,0,22.4333,22.4333,7.56672,7.56672,2.65474,4.89547,-6.22002,-0.340536,-0.247633,-0.0805146,1,0,-4.2525,-0.3325,-1.6625,-0.296582,-0.281332,-1.08787,-0.07322,0.13468,0.4837
-7.40631,0,0,22.4063,22.4063,7.59369,7.59369,2.64511,4.894,-6.22091,0.070233,0.388724,-0.0806276,1,0,-1.9775,-0.98,-1.5225,0.1159,0.354532,-1.088,-0.07322,0.13468,0.4837
-7.40593,0,0,22.4059,22.4059,7.59407,7.59407,2.64498,4.89223,-6.22062,0.0702637,0.388722,-0.0806249,1,0,3.29,-1.12,-0.8225,0.1159,0.354532,-1.088,-0.07322,0.13468,0.4837
-7.40223,0,0,22.4022,22.4022,7.59777,7.59777,2.64365,4.89107,-6.22032,0.0533975,0.478462,-0.165948,1,0,2.625,-0.77,-0.84,0.098942,0.444202,-1.17266,-0.07322,0.13468,0.4837
-7.40796,0,0,22.408,22.408,7.59204,7.59204,2.6457,4.89306,-6.21973,0.0533629,0.478497,-0.165953,1,0,4.4975,1.085,-0.7525,0.098942,0.444202,-1.17266,-0.07322,0.13468,0.4837
-7.4236,0,0,22.4236,22.4236,7.5764,7.5764,2.65129,4.893,-6.21821,0.0576159,0.081194,-0.437428,1,0,6.44,-0.0875,-0.1575,0.103212,0.047214,-1.44204,-0.07322,0.13468,0.4837
-7.41832,0,0,22.4183,22.4183,7.58168,7.58168,2.6494,4.89432,-6.21684,0.0575928,0.0811612,-0.437428,1,0,2.2575,0.7175,-0.28,0.103212,0.047214,-1.44204,-0.07322,0.13468,0.4837
-8.01289,0,0,23.0129,23.0129,6.98711,6.98711,2.86175,4.56802,-5.94503,-0.262192,-0.189424,0.0910503,0,0,1.82,0.4375,-0.5775,-0.223626,-0.226798,-0.917928,-0.07322,0.13468,0.4837
-8.58683,0,0,23.5868,23.5868,6.41317,6.41317,3.06672,4.24781,-5.67669,-0.256619,-0.185839,0.0912948,0,0,0,0.1575,-0.77,-0.223626,-0.226798,-0.917928,-0.07322,0.13468,0.4837
-8.57057,0,0,23.5706,23.5706,6.42943,6.42943,3.06092,4.2476,-5.67704,0.0954497,0.192286,-0.166523,1,0,0.14,-0.2275,-1.2425,0.12993,0.151036,-1.17376,-0.07476,0.12152,0.48188
-8.57115,0,0,23.5712,23.5712,6.42885,6.42885,3.06113,4.24651,-5.67714,0.0954687,0.19229,-0.166521,1,0,3.5,-0.735,-1.0675,0.12993,0.151036,-1.17376,-0.07476,0.12152,0.48188
-8.56928,0,0,23.5693,23.5693,6.43072,6.43072,3.06046,4.24732,-5.67808,0.381432,0.265921,-0.0390242,1,0,3.045,0.35,-1.61,0.417118,0.224602,-1.04725,-0.07476,0.12152,0.48188
-8.58476,0,0,23.5848,23.5848,6.41524,6.41524,3.06599,4.24693,-5.67838,0.381439,0.266017,-0.0390288,1,0,6.4925,-0.3325,-1.2075,0.417118,0.224602,-1.04725,-0.07476,0.12152,0.48188
-8.59515,0,0,23.5952,23.5952,6.40485,6.40485,3.0697,4.24727,-5.6788,-0.255638,-0.0926049,-0.114031,1,0,5.4775,0.0875,-1.295,-0.22265,-0.133712,-1.12167,-0.07476,0.12152,0.48188
-8.59967,0,0,23.5997,23.5997,6.40033,6.40033,3.07131,4.2471,-5.67885,-0.255635,-0.0925768,-0.114033,1,0,4.2875,-0.1925,-1.0675,-0.22265,-0.133712,-1.12167,-0.07476,0.12152,0.48188
-8.59218,0,0,23.5922,23.5922,6.40782,6.40782,3.06864,4.24731,-5.67909,-0.0189847,-0.167976,-0.109604,1,0,1.89,0.0175,-1.19,0.015006,-0.208986,-1.11728,-0.07476,0.12152,0.48188
-8.58239,0,0,23.5824,23.5824,6.41761,6.41761,3.06514,4.24701,-5.67949,-0.0189796,-0.168036,-0.109601,1,0,1.435,-0.28,-1.26,0.015006,-0.208986,-1.11728,-0.07476,0.12152,0.48188
-8.57775,0,0,23.5778,23.5778,6.42225,6.42225,3.06348,4.24502,-5.67942,-0.124637,-0.13851,-0.286519,1,0,2.45,-1.26,-0.945,-0.091134,-0.179462,-1.29283,-0.07644,0.1288,0.48244
-8.18796,0,0,23.188,23.188,6.81204,6.81204,2.92427,4.34046,-5.80283,0.0881238,0.14252,-0.0756606,0,0,4.0425,0,-0.8925,0.124196,0.1037,-1.0836,-0.07644,0.1288,0.48244
-7.81471,0,0,22.8147,22.8147,7.18529,7.18529,2.79097,4.43452,-5.92627,0.0864869,0.140197,-0.0756704,0,0,6.0025,0.3675,-0.9275,0.124196,0.1037,-1.0836,-0.07644,0.1288,0.48244
-7.83063,0,0,22.8306,22.8306,7.16937,7.16937,2.79665,4.4343,-5.92575,-0.203739,0.319578,-0.0753061,1,0,6.545,-0.21,-0.735,-0.167262,0.282796,-1.08324,-0.07644,0.1288,0.48244
-7.8363,0,0,22.8363,22.8363,7.1637,7.1637,2.79868,4.43369,-5.92538,-0.203728,0.319613,-0.075307,1,0,4.4975,-0.4375,-0.805,-0.167262,0.282796,-1.08324,-0.07644,0.1288,0.48244
-7.83444,0,0,22.8344,22.8344,7.16556,7.16556,2.79801,4.43364,-5.92461,-0.320839,-0.158647,-0.113666,1,0,2.975,-0.105,-0.595,-0.28487,-0.194956,-1.1213,-0.07644,0.1288,0.48244
-7.82906,0,0,22.8291,22.8291,7.17094,7.17094,2.79609,4.43325,-5.92437,-0.320833,-0.15868,-0.113664,1,0,2.2925,-0.315,-0.8925,-0.28487,-0.194956,-1.1213,-0.07644,0.1288,0.48244
-7.8255,0,0,22.8255,22.8255,7.1745,7.1745,2.79482,4.4338,-5.92421,-0.134726,-0.572468,-0.0723531,1,0,2.66,0.2275,-0.9625,-0.097966,-0.608292,-1.08031,-0.07644,0.1288,0.48244
-7.8354,0,0,22.8354,22.8354,7.1646,7.1646,2.79836,4.43326,-5.92404,-0.134717,-0.572407,-0.0723554,1,0,5.355,-0.4025,-0.9275,-0.097966,-0.608292,-1.08031,-0.07014,0.12866,0.47978
-7.35565,0,0,22.3557,22.3557,7.64435,7.64435,2.62702,4.42456,-5.96815,-0.00967794,0.180092,-0.0872023,0,0,4.6725,0.3675,-1.19,0.02745,0.1464,-1.09519,-0.07014,0.12866,0.47978
-6.89538,0,0,21.8954,21.8954,8.10462,8.10462,2.46264,4.41591,-6.01273,-0.00952753,0.177235,-0.0870636,0,0,6.9125,0.3675,-1.5925,0.02745,0.1464,-1.09519,-0.07014,0.12866,0.47978
-7.23204,0,0,22.232,22.232,7.76796,7.76796,2.58287,3.7693,-5.45709,-0.561357,-0.100187,0.149587,0,0,5.9325,0.7175,-1.96,-0.53802,-0.132858,-0.861076,-0.07014,0.12866,0.47978
-7.55908,0,0,22.5591,22.5591,7.44092,7.44092,2.69967,3.13295,-4.90488,-0.550271,-0.0981233,0.150161,0,0,5.5475,0.4375,-2.0825,-0.53802,-0.132858,-0.861076,-0.07014,0.12866,0.47978
-7.55957,0,0,22.5596,22.5596,7.44043,7.44043,2.69985,3.13344,-4.90619,-0.148648,-0.25029,-0.0769254,1,0,3.5175,0.1575,-1.82,-0.134688,-0.28487,-1.08641,-0.07014,0.12866,0.47978
-7.55326,0,0,22.5533,22.5533,7.44674,7.44674,2.69759,3.13405,-4.90735,-0.148658,-0.250329,-0.0769241,1,0,2.1525,0.2275,-1.7325,-0.134688,-0.28487,-1.08641,-0.07014,0.12866,0.47978
-7.55091,0,0,22.5509,22.5509,7.44909,7.44909,2.69675,3.13312,-4.90831,0.156773,-0.309575,-0.388843,1,0,2.94,-0.665,-1.575,0.17202,-0.34404,-1.39592,-0.07014,0.12866,0.47978
-7.54903,0,0,22.549,22.549,7.45097,7.45097,2.69608,3.13224,-4.90908,0.156788,-0.309587,-0.388841,1,0,3.0275,-0.63,-1.47,0.17202,-0.34404,-1.39592,-0.07392,0.13132,0.47908
-7.93865,0,0,22.9386,22.9386,7.06135,7.06135,2.83523,3.17845,-4.94367,0.0349832,-0.121535,0.084103,0,0,4.2,-0.0875,-1.5575,0.050508,-0.1586,-0.926468,-0.07392,0.13132,0.47908
-8.32148,0,0,23.3215,23.3215,6.67852,6.67852,2.97196,3.22377,-4.97807,0.0341935,-0.119157,0.0839382,0,0,4.2,-0.0875,-1.5575,0.050508,-0.1586,-0.926468,-0.07392,0.13132,0.47908
-8.33129,0,0,23.3313,23.3313,6.66871,6.66871,2.97546,3.22339,-4.97844,0.329896,-0.621648,0.0426247,1,0,5.355,-0.3325,-1.2425,0.347456,-0.66063,-0.96746,-0.07392,0.13132,0.47908
-8.3411,0,0,23.3411,23.3411,6.6589,6.6589,2.97896,3.223,-4.9788,0.329903,-0.621587,0.0426219,1,0,5.355,-0.3325,-1.2425,0.347456,-0.66063,-0.96746,-0.07392,0.13132,0.47908
-8.33858,0,0,23.3386,23.3386,6.66142,6.66142,2.97806,3.22363,-4.97863,0.263804,0.126179,0.162497,1,0,2.87,0.28,-0.9625,0.281088,0.086376,-0.84851,-0.07392,0.13132,0.47908
-8.33606,0,0,23.3361,23.3361,6.66394,6.66394,2.97716,3.22426,-4.97846,0.263793,0.126164,0.162497,1,0,2.87,0.28,-0.9625,0.281088,0.086376,-0.84851,-0.07392,0.13132,0.47908
-8.33961,0,0,23.3396,23.3396,6.66039,6.66039,2.97843,3.22408,-4.97803,-0.126902,0.0391095,0.213766,1,0,4.0775,-0.1925,-0.7875,-0.111264,-0.00061,-0.797636,-0.07392,0.13132,0.47908
-8.3483,0,0,23.3483,23.3483,6.6517,6.6517,2.98154,3.22383,-4.9777,-0.281913,0.251664,0.15192,1,0,5.11,-0.2275,-0.84,-0.266936,0.21167,-0.859002,-0.07364,0.13076,0.47712
-8.36697,0,0,23.367,23.367,6.63303,6.63303,2.9882,3.22487,-4.97727,-0.0641076,-0.250039,-0.107631,1,0,7.105,0.525,-0.8225,-0.04819,-0.289628,-1.11654,-0.07364,0.13076,0.47712
-8.38671,0,0,23.3867,23.3867,6.61329,6.61329,2.99525,3.22503,-4.97673,-0.0641104,-0.249916,-0.107638,1,0,7.315,0.0175,-0.735,-0.04819,-0.289628,-1.11654,-0.07364,0.13076,0.47712
-8.41089,0,0,23.4109,23.4109,6.58911,6.58911,3.00389,3.09467,-4.874,-0.107517,0.000600603,0.067927,0,0,5.5825,0.07,-0.77,-0.094062,-0.039528,-0.94245,-0.07364,0.13076,0.47712
-8.4265,0,0,23.4265,23.4265,6.5735,6.5735,3.00946,2.96655,-4.77173,-0.105284,0.000703873,0.0680399,0,0,3.99,-0.1575,-0.8575,-0.094062,-0.039528,-0.94245,-0.07364,0.13076,0.47712
-8.41751,0,0,23.4175,23.4175,6.58249,6.58249,3.00625,2.96464,-4.77095,-0.274845,-0.102915,-0.0921573,1,0,1.5575,-1.19,-0.525,-0.264374,-0.142984,-1.10142,-0.07364,0.13076,0.47712
-8.41128,0,0,23.4113,23.4113,6.58872,6.58872,3.00403,2.96439,-4.76986,-0.274841,-0.102954,-0.092155,1,0,2.1,-0.21,-0.4025,-0.264374,-0.142984,-1.10142,-0.07364,0.13076,0.47712
-8.40404,0,0,23.404,23.404,6.59596,6.59596,3.00144,2.96441,-4.76903,0.187291,0.144185,-0.197643,1,0,1.9075,-0.0525,-0.56,0.199714,0.103944,-1.20609,-0.07364,0.13076,0.47712
-8.41127,0,0,23.4113,23.4113,6.58873,6.58873,3.00402,2.96362,-4.76854,0.187304,0.14423,-0.197644,1,0,4.8125,-0.5425,-0.735,0.199714,0.103944,-1.20609,-0.07406,0.12376,0.47306
-8.42358,0,0,23.4236,23.4236,6.57642,6.57642,3.00842,2.96214,-4.76794,0.303713,0.0803125,-0.104083,1,0,5.8275,-0.945,-0.6475,0.31659,0.040016,-1.11325,-0.07406,0.12376,0.47306
-8.43623,0,0,23.4362,23.4362,6.56377,6.56377,3.01294,2.96204,-4.76742,0.303715,0.0803912,-0.104087,1,0,5.8975,-0.14,-0.735,0.31659,0.040016,-1.11325,-0.07406,0.12376,0.47306
-8.44809,0,0,23.4481,23.4481,6.55191,6.55191,3.01717,2.9625,-4.7669,-0.00595985,-0.0441044,-0.120689,1,0,5.74,0.1925,-0.7525,0.005612,-0.084424,-1.12972,-0.07406,0.12376,0.47306
-8.45132,0,0,23.4513,23.4513,6.54868,6.54868,3.01833,2.96308,-4.76622,-0.00596988,-0.0440843,-0.120691,1,0,4.0075,0.2625,-0.665,0.005612,-0.084424,-1.12972,-0.07406,0.12376,0.47306
-8.78285,0,0,23.7829,23.7829,6.21715,6.21715,3.13673,2.24304,-4.13079,-0.645551,-0.104765,0.170418,0,0,5.0225,-0.56,-0.4725,-0.649284,-0.147132,-0.841312,-0.07406,0.12376,0.47306
-9.09889,0,0,24.0989,24.0989,5.90111,5.90111,3.2496,1.53638,-3.49961,-0.633224,-0.102777,0.170715,0,0,3.5,0.5775,-0.875,-0.649284,-0.147132,-0.841312,-0.07406,0.12376,0.47306
-8.62685,0,0,23.6268,23.6268,6.37315,6.37315,3.08102,1.85586,-3.76656,0.269308,0.165154,0.0631324,0,0,3.9025,0.0175,-1.015,0.262666,0.123464,-0.948062,-0.07406,0.12376,0.47306
-8.16988,0,0,23.1699,23.1699,6.83012,6.83012,2.91781,2.1712,-4.0424,0.263807,0.162302,0.0630882,0,0,5.5475,-0.35,-1.085,0.262666,0.123464,-0.948062,-0.07658,0.12978,0.47474
-7.78238,0,0,22.7824,22.7824,7.21762,7.21762,2.77942,2.72466,-4.52675,0.45801,0.137766,0.157466,0,0,5.2325,0.315,-1.575,0.467382,0.101382,-0.854122,-0.07658,0.12978,0.47474
-7.38901,0,0,22.389,22.389,7.61099,7.61099,2.63893,3.26895,-5.01259,0.448523,0.135297,0.157086,0,0,3.22,0.6125,-1.8375,0.467382,0.101382,-0.854122,-0.07658,0.12978,0.47474
-7.38355,0,0,22.3836,22.3836,7.61645,7.61645,2.63698,3.26971,-5.01437,0.192175,0.00898355,0.156718,1,0,2.345,0.2975,-2.1,0.209962,-0.024766,-0.854488,-0.07658,0.12978,0.47474
-7.3836,0,0,22.3836,22.3836,7.6164,7.6164,2.637,3.26655,-5.01565,0.19223,0.00898399,0.156721,1,0,3.43,-1.9775,-1.6975,0.209962,-0.024766,-0.854488,-0.07658,0.12978,0.47474
-7.38514,0,0,22.3851,22.3851,7.61486,7.61486,2.63755,3.2653,-5.01743,0.194681,0.0721331,0.173812,1,0,3.745,-0.875,-2.0475,0.212402,0.038308,-0.83753,-0.07658,0.12978,0.47474
-7.38585,0,0,22.3859,22.3859,7.61415,7.61415,2.6378,3.26579,-5.02001,0.194673,0.0721375,0.173811,1,0,3.605,0.1225,-2.555,0.212402,0.038308,-0.83753,-0.07658,0.12978,0.47474
-7.39447,0,0,22.3945,22.3945,7.60553,7.60553,2.64088,3.26535,-5.02178,-0.315802,-0.556517,0.101638,1,0,5.1625,-0.4025,-2.065,-0.300242,-0.589748,-0.909144,-0.07658,0.12978,0.47474
-7.40309,0,0,22.4031,22.4031,7.59691,7.59691,2.64396,3.2649,-5.02356,-0.315795,-0.556464,0.101636,1,0,5.1625,-0.4025,-2.065,-0.300242,-0.589748,-0.909144,-0.07308,0.12978,0.47194
-7.40452,0,0,22.4045,22.4045,7.59548,7.59548,2.64447,3.26483,-5.0249,-0.0685699,-0.234773,0.361549,1,0,3.71,-0.175,-1.82,-0.051972,-0.2684,-0.651236,-0.07308,0.12978,0.47194
-7.40596,0,0,22.406,22.406,7.59404,7.59404,2.64498,3.26475,-5.02624,-0.0685686,-0.234764,0.361549,1,0,3.71,-0.175,-1.82,-0.051972,-0.2684,-0.651236,-0.07308,0.12978,0.47194
-7.39564,0,0,22.3956,22.3956,7.60436,7.60436,2.6413,3.26378,-5.02561,0.285336,0.0609628,0.303275,1,0,1.295,-0.6475,-0.6475,0.303414,0.027084,-0.709064,-0.07308,0.12978,0.47194
-7.38533,0,0,22.3853,22.3853,7.61467,7.61467,2.63762,3.26281,-5.02498,0.285353,0.0608988,0.303279,1,0,1.295,-0.6475,-0.6475,0.303414,0.027084,-0.709064,-0.07308,0.12978,0.47194
-6.6557,0,0,21.6557,21.6557,8.3443,8.3443,2.37704,3.4485,-5.22622,0.15638,0.260428,0.0224737,0,0,3.2725,0.525,-0.3325,0.177144,0.230946,-0.987712,-0.07308,0.12978,0.47194
-5.93787,0,0,20.9379,20.9379,9.06213,9.06213,2.12067,3.63061,-5.42847,0.153208,0.255958,0.0224529,0,0,3.2725,0.525,-0.3325,0.177144,0.230946,-0.987712,-0.07308,0.12978,0.47194
-5.95836,0,0,20.9584,20.9584,9.04164,9.04164,2.12799,3.63086,-5.4277,0.0292879,-0.0946624,-0.17095,1,0,7.455,0.07,-0.595,0.052704,-0.119438,-1.17962,-0.07308,0.12978,0.47194
-6.6709,0,0,21.6709,21.6709,8.3291,8.3291,2.38247,3.47875,-5.27025,-0.132189,-0.258395,-0.00165995,0,0,4.2525,0.42,-0.56,-0.112118,-0.287432,-1.01162,-0.07924,0.1267,0.47852
-7.35291,0,0,22.3529,22.3529,7.64709,7.64709,2.62604,3.32941,-5.1147,-0.129588,-0.254149,-0.00169076,0,0,0.6475,0.2625,-0.525,-0.112118,-0.287432,-1.01162,-0.07924,0.1267,0.47852
-7.35831,0,0,22.3583,22.3583,7.64169,7.64169,2.62797,3.72261,-5.45537,0.36542,-0.0141553,0.0119022,0,0,-0.0525,-1.0325,-0.0875,0.391864,-0.047702,-0.997716,-0.07924,0.1267,0.47852
-7.34794,0,0,22.3479,22.3479,7.65206,7.65206,2.62426,3.72131,-5.45421,-0.459202,0.662607,-0.0321089,1,0,1.26,-0.8225,-0.3325,-0.436272,0.628422,-1.04139,-0.07924,0.1267,0.47852
-7.34009,0,0,22.3401,22.3401,7.65991,7.65991,2.62146,3.72201,-5.45356,-0.459214,0.662558,-0.0321075,1,0,1.785,0.3325,-0.6825,-0.436272,0.628422,-1.04139,-0.07924,0.1267,0.47852
-7.34367,0,0,22.3437,22.3437,7.65633,7.65633,2.62274,3.72222,-5.45254,0.103747,-0.154448,-0.439191,1,0,4.06,0.0525,-0.455,0.129076,-0.187758,-1.44533,-0.07924,0.1267,0.47852
-7.36075,0,0,22.3607,22.3607,7.63925,7.63925,2.62884,3.72068,-5.45133,0.103773,-0.154342,-0.439194,1,0,6.755,-0.9625,-0.2975,0.129076,-0.187758,-1.44533,-0.07924,0.1267,0.47852
-7.36787,0,0,22.3679,22.3679,7.63213,7.63213,2.63138,3.72028,-5.45004,0.139862,0.167385,-0.25256,1,0,4.76,-0.2975,-0.28,0.16531,0.13359,-1.26014,-0.07924,0.1267,0.47852
-7.35771,0,0,22.3577,22.3577,7.64229,7.64229,2.62775,3.72139,-5.44913,0.139842,0.167321,-0.252558,1,0,1.3125,0.5775,-0.5425,0.16531,0.13359,-1.26014,-0.07084,0.12796,0.47922
-7.34435,0,0,22.3443,22.3443,7.65565,7.65565,2.62298,3.72017,-5.44709,-0.229453,0.211448,-0.223046,1,0,0.63,-0.7525,0.175,-0.20557,0.177754,-1.23086,-0.07084,0.12796,0.47922
-7.33299,0,0,22.333,22.333,7.66701,7.66701,2.61893,3.72099,-5.44505,-0.229467,0.211378,-0.223043,1,0,1.0325,0.4375,0.1225,-0.20557,0.177754,-1.23086,-0.07084,0.12796,0.47922
-7.31844,0,0,22.3184,22.3184,7.68156,7.68156,2.61373,3.7205,-5.44328,0.320021,0.300073,-0.0542304,1,0,0.4025,-0.3325,0,0.346236,0.266448,-1.06335,-0.07084,0.12796,0.47922
-7.32063,0,0,22.3206,22.3206,7.67937,7.67937,2.61451,3.72164,-5.44177,0.320001,0.300087,-0.0542323,1,0,3.7625,0.6125,-0.1925,0.346236,0.266448,-1.06335,-0.07084,0.12796,0.47922
-7.33369,0,0,22.3337,22.3337,7.66631,7.66631,2.61917,3.722,-5.4415,0.240786,0.00596477,-0.255749,1,0,5.985,0.1225,-0.8925,0.266692,-0.02745,-1.26331,-0.07084,0.12796,0.47922
-7.34855,0,0,22.3486,22.3486,7.65145,7.65145,2.62448,3.722,-5.44187,0.240786,0.00605713,-0.255753,1,0,6.37,-0.105,-1.26,0.266692,-0.02745,-1.26331,-0.07084,0.12796,0.47922
-7.3529,0,0,22.3529,22.3529,7.6471,7.6471,2.62604,3.72423,-5.44334,-0.259288,-0.560828,-0.14412,1,0,4.305,1.1725,-1.96,-0.23546,-0.593774,-1.15253,-0.07084,0.12796,0.47922
-7.35037,0,0,22.3504,22.3504,7.64963,7.64963,2.62513,3.7237,-5.44519,-0.259278,-0.560844,-0.144118,1,0,2.94,-0.455,-2.1,-0.23546,-0.593774,-1.15253,-0.07294,0.13244,0.47726
-7.34409,0,0,22.3441,22.3441,7.65591,7.65591,2.62289,3.72359,-5.44698,-0.080085,0.0488958,-0.136863,1,0,2.1875,-0.21,-2.0825,-0.05551,0.015372,-1.14534,-0.07294,0.13244,0.47726
-7.32655,0,0,22.3266,22.3266,7.67345,7.67345,2.61663,3.72229,-5.44961,-0.0800623,0.0487869,-0.136856,1,0,-0.035,-0.9275,-2.5375,-0.05551,0.015372,-1.14534,-0.07294,0.13244,0.47726
-7.30685,0,0,22.3069,22.3069,7.69315,7.69315,2.60959,3.72131,-5.45214,0.109472,0.136962,-0.407828,1,0,-0.4725,-0.735,-2.485,0.13481,0.103578,-1.41422,-0.07294,0.13244,0.47726
-7.30472,0,0,22.3047,22.3047,7.69528,7.69528,2.60883,3.72098,-5.4571,0.109478,0.136949,-0.407827,1,0,3.1325,-0.42,-3.92,0.13481,0.103578,-1.41422,-0.07294,0.13244,0.47726
-7.30383,0,0,22.3038,22.3038,7.69617,7.69617,2.60851,3.72025,-5.46048,-0.131537,0.287648,-0.449628,1,0,3.325,-0.6125,-2.9925,-0.107238,0.254126,-1.4557,-0.07294,0.13244,0.47726
-7.29936,0,0,22.2994,22.2994,7.70064,7.70064,2.60691,3.72084,-5.46336,-0.131547,0.28762,-0.449628,1,0,2.59,0.175,-2.73,-0.107238,0.254126,-1.4557,-0.07294,0.13244,0.47726
-7.29453,0,0,22.2945,22.2945,7.70547,7.70547,2.60519,3.72025,-5.46532,-0.404515,0.227015,-0.324095,1,0,2.485,-0.49,-2.17,-0.381372,0.193614,-1.33114,-0.07294,0.13244,0.47726
-7.28827,0,0,22.2883,22.2883,7.71173,7.71173,2.60295,3.72009,-5.46604,-0.404512,0.226976,-0.324093,1,0,2.1525,-0.21,-1.4525,-0.381372,0.193614,-1.33114,-0.07,0.12726,0.46788
-7.28275,0,0,22.2827,22.2827,7.71725,7.71725,2.60098,3.72016,-5.46605,0.190402,0.140843,-0.386058,1,0,2.275,-0.0525,-1.05,0.216062,0.107604,-1.39263,-0.07,0.12726,0.46788
-7.28002,0,0,22.28,22.28,7.71998,7.71998,2.60001,3.7199,-5.46466,0.190406,0.140826,-0.386057,1,0,2.7825,-0.21,-0.2275,0.216062,0.107604,-1.39263,-0.07,0.12726,0.46788
-7.28296,0,0,22.283,22.283,7.71704,7.71704,2.60106,3.72229,-5.46429,0.104353,0.00980182,0.155774,1,0,3.955,1.3125,-0.8925,0.129686,-0.023302,-0.854976,-0.07,0.12726,0.46788
-7.29607,0,0,22.2961,22.2961,7.70393,7.70393,2.60574,3.72267,-5.46372,0.104346,0.00988329,0.15577,1,0,5.985,0.14,-0.7175,0.129686,-0.023302,-0.854976,-0.07,0.12726,0.46788
-6.31768,0,0,21.3177,21.3177,8.68232,8.68232,2.25631,4.28236,-6.01106,0.502429,0.370645,0.165797,0,0,5.775,-0.035,-0.7525,0.53924,0.343186,-0.844606,-0.07,0.12726,0.46788
-5.34216,0,0,20.3422,20.3422,9.65784,9.65784,1.90792,4.83295,-6.56306,0.49285,0.36456,0.165254,0,0,4.1825,-0.1575,-0.5075,0.53924,0.343186,-0.844606,-0.07,0.12726,0.46788
-5.34359,0,0,20.3436,20.3436,9.65641,9.65641,1.90842,4.83367,-6.56254,0.175274,0.585252,-0.0172028,1,0,3.64,0.3325,-0.7525,0.220332,0.56364,-1.02565,-0.07,0.12726,0.46788
-5.34181,0,0,20.3418,20.3418,9.65819,9.65819,1.90779,4.83295,-6.56222,0.175286,0.585241,-0.0172014,1,0,3.01,-0.5075,-0.84,0.220332,0.56364,-1.02565,-0.07,0.12726,0.46788
-5.34394,0,0,20.3439,20.3439,9.65606,9.65606,1.90855,4.82983,-6.56128,-0.0826948,0.447984,-0.165842,1,0,3.7625,-1.9075,-0.4375,-0.038796,0.426512,-1.17315,-0.0784,0.12838,0.47712
-5.33994,0,0,20.3399,20.3399,9.66006,9.66006,1.90712,4.82936,-6.56227,-0.0969006,-0.0999019,0.190341,1,0,2.625,-0.385,-1.61,-0.05307,-0.12078,-0.819718,-0.0784,0.12838,0.47712
-5.34136,0,0,20.3414,20.3414,9.65864,9.65864,1.90763,4.82886,-6.56212,-0.0968919,-0.099893,0.190342,1,0,3.6575,-0.385,-0.945,-0.05307,-0.12078,-0.819718,-0.0784,0.12838,0.47712
-5.34441,0,0,20.3444,20.3444,9.65559,9.65559,1.90872,4.829,-6.56135,0.163692,-0.260226,0.204972,1,0,3.955,0,-0.595,0.20862,-0.280966,-0.8052,-0.0784,0.12838,0.47712
-5.34607,0,0,20.3461,20.3461,9.65393,9.65393,1.90931,4.82874,-6.55944,0.163697,-0.260216,0.204972,1,0,3.6225,-0.21,0.07,0.20862,-0.280966,-0.8052,-0.0784,0.12838,0.47712
-5.34579,0,0,20.3458,20.3458,9.65421,9.65421,1.90921,4.82955,-6.55726,-0.0975113,0.259553,0.211487,1,0,3.22,0.42,0.21,-0.05368,0.238266,-0.798734,-0.0784,0.12838,0.47712
-5.33558,0,0,20.3356,20.3356,9.66442,9.66442,1.90557,4.82844,-6.55415,-0.097492,0.25949,0.211491,1,0,1.19,-0.6825,0.7875,-0.05368,0.238266,-0.798734,-0.0784,0.12838,0.47712
-5.33528,0,0,20.3353,20.3353,9.66472,9.66472,1.90546,4.8279,-6.55018,-0.19455,0.317987,-0.102642,1,0,3.1325,-0.3325,1.2775,-0.151158,0.296704,-1.11044,-0.0784,0.12838,0.47712
-5.33752,0,0,20.3375,20.3375,9.66248,9.66248,1.90626,4.82943,-6.54806,-0.194576,0.318001,-0.102645,1,0,3.7275,0.84,0.1575,-0.151158,0.296704,-1.11044,-0.07112,0.1204,0.47908
-5.6815,0,0,20.6815,20.6815,9.3185,9.3185,2.02911,4.6184,-6.3615,-0.192606,-0.123784,-0.049301,0,0,5.775,0.8925,0.035,-0.152866,-0.146766,-1.05774,-0.07112,0.1204,0.47908
-6.02177,0,0,21.0218,21.0218,8.97823,8.97823,2.15063,4.41071,-6.1771,-0.188993,-0.12166,-0.0490929,0,0,6.3525,0.4375,-0.42,-0.152866,-0.146766,-1.05774,-0.07112,0.1204,0.47908
-6.03488,0,0,21.0349,21.0349,8.96512,8.96512,2.15531,4.41027,-6.17622,-0.0727233,-0.000307157,0.193851,1,0,5.9675,-0.3325,-0.525,-0.036112,-0.02562,-0.816668,-0.07112,0.1204,0.47908
-6.04664,0,0,21.0466,21.0466,8.95336,8.95336,2.15951,4.41218,-6.17755,-0.0727566,-0.000234202,0.193845,1,0,5.7925,0.9975,-1.855,-0.036112,-0.02562,-0.816668,-0.07112,0.1204,0.47908
-5.02052,0,0,20.0205,20.0205,9.97948,9.97948,1.79304,4.82892,-6.61461,0.323812,0.343634,0.198029,0,0,2.345,1.435,-2.3975,0.369416,0.324276,-0.812154,-0.07112,0.1204,0.47908
-4.00937,0,0,19.0094,19.0094,10.9906,10.9906,1.43192,5.23423,-7.05548,0.316765,0.33734,0.197585,0,0,2.6775,-1.085,-2.275,0.369416,0.324276,-0.812154,-0.07112,0.1204,0.47908
-3.65424,0,0,18.6542,18.6542,11.3458,11.3458,1.30509,5.61773,-7.44896,0.291393,0.11163,0.182374,0,0,3.255,-1.015,-3.3775,0.350628,0.101016,-0.826672,-0.07112,0.1204,0.47908
-3.29922,0,0,18.2992,18.2992,11.7008,11.7008,1.17829,5.99834,-7.85328,0.284784,0.109414,0.18175,0,0,2.59,-0.2275,-3.7275,0.350628,0.101016,-0.826672,-0.07252,0.12852,0.4704
-3.30366,0,0,18.3037,18.3037,11.6963,11.6963,1.17988,5.9989,-7.85838,0.118825,0.149255,0.295722,1,0,4.5675,0.175,-4.0075,0.183976,0.140788,-0.713578,-0.07252,0.12852,0.4704
-3.32794,0,0,18.3279,18.3279,11.6721,11.6721,1.18855,5.99767,-7.8602,0.118847,0.149406,0.295721,1,0,8.3475,-0.84,-2.0825,0.183976,0.140788,-0.713578,-0.07252,0.12852,0.4704
-3.92857,0,0,18.9286,18.9286,11.0714,11.0714,1.40306,5.76498,-7.67029,-0.202817,-0.218982,-0.0349247,0,0,5.25,-1.2425,-1.8725,-0.143106,-0.230946,-1.042,-0.07252,0.12852,0.4704
-4.50544,0,0,19.5054,19.5054,10.4946,10.4946,1.60909,5.53889,-7.48321,-0.19889,-0.215395,-0.0346303,0,0,2.73,-0.07,-2.2575,-0.143106,-0.230946,-1.042,-0.07252,0.12852,0.4704
-5.8824,0,0,20.8824,20.8824,9.1176,9.1176,2.10086,5.68052,-7.55923,0.146828,-0.505709,0.145709,0,0,1.19,-0.6475,-1.4,0.206546,-0.52948,-0.86254,-0.07252,0.12852,0.4704
-7.24563,0,0,22.2456,22.2456,7.75437,7.75437,2.58772,5.82111,-7.63246,0.144387,-0.497272,0.145117,0,0,2.345,0.0875,-0.8225,0.206546,-0.52948,-0.86254,-0.07252,0.12852,0.4704
-7.24089,0,0,22.2409,22.2409,7.75911,7.75911,2.58603,5.82207,-7.63279,-0.116824,-0.0875658,0.268926,1,0,2.45,0.455,-1.26,-0.055754,-0.12017,-0.739686,-0.07252,0.12852,0.4704
-7.24134,0,0,22.2413,22.2413,7.75866,7.75866,2.58619,5.82352,-7.63298,-0.11685,-0.087563,0.268924,1,0,3.4825,0.7525,-1.19,-0.055754,-0.12017,-0.739686,-0.077,0.12488,0.47152
-8.3781,0,0,23.3781,23.3781,6.6219,6.6219,2.99218,5.61881,-7.41937,-0.172094,-0.425634,0.0318915,0,0,4.4625,0.07,-0.7,-0.114802,-0.464942,-0.974902,-0.077,0.12488,0.47152
-9.50565,0,0,24.5057,24.5057,5.49435,5.49435,3.39488,5.41769,-7.21029,-0.168599,-0.41863,0.0318388,0,0,6.5275,-0.21,-1.0325,-0.114802,-0.464942,-0.974902,-0.077,0.12488,0.47152
-9.51402,0,0,24.514,24.514,5.48598,5.48598,3.39786,5.41979,-7.21132,-0.175318,-0.0581824,-0.138328,1,0,5.11,1.1025,-1.715,-0.121512,-0.10492,-1.14375,-0.077,0.12488,0.47152
-9.51591,0,0,24.5159,24.5159,5.48409,5.48409,3.39854,5.41977,-7.2117,-0.175317,-0.0581707,-0.138329,1,0,3.78,-0.1225,-1.26,-0.121512,-0.10492,-1.14375,-0.077,0.12488,0.47152
-9.51984,0,0,24.5198,24.5198,5.48016,5.48016,3.39994,5.41866,-7.21202,0.278451,-0.0370184,-0.310088,1,0,4.1825,-0.7525,-1.19,0.334158,-0.083814,-1.31418,-0.077,0.12488,0.47152
-9.5129,0,0,24.5129,24.5129,5.4871,5.4871,3.39746,5.41742,-7.21244,0.278473,-0.0370612,-0.310083,1,0,2.0125,-0.84,-1.2425,0.334158,-0.083814,-1.31418,-0.077,0.12488,0.47152
-9.50788,0,0,24.5079,24.5079,5.49212,5.49212,3.39567,5.41691,-7.21284,0.462532,-0.158242,-0.160698,1,0,2.3975,-0.4025,-1.26,0.518988,-0.204838,-1.16595,-0.077,0.12488,0.47152
-9.50159,0,0,24.5016,24.5016,5.49841,5.49841,3.39343,5.41705,-7.21246,0.46253,-0.158281,-0.160696,1,0,2.1,0,-0.8225,0.518988,-0.204838,-1.16595,-0.07938,0.1281,0.47362
-9.50096,0,0,24.501,24.501,5.49904,5.49904,3.3932,5.41604,-7.21081,0.027021,0.213835,-0.211349,1,0,3.1675,-0.63,-0.0525,0.081618,0.166896,-1.21622,-0.07938,0.1281,0.47362
-9.49547,0,0,24.4955,24.4955,5.50453,5.50453,3.39124,5.41657,-7.20841,0.0270118,0.213801,-0.211348,1,0,2.1525,0.2975,0.3325,0.081618,0.166896,-1.21622,-0.07938,0.1281,0.47362
-9.4891,0,0,24.4891,24.4891,5.5109,5.5109,3.38897,5.41642,-7.20565,-0.343152,-0.115248,0.174713,1,0,1.96,-0.0875,0.56,-0.290116,-0.161772,-0.833138,-0.07938,0.1281,0.47362
-9.48907,0,0,24.4891,24.4891,5.51093,5.51093,3.38895,5.41494,-7.20111,-0.343127,-0.115248,0.174716,1,0,3.1325,-0.805,1.645,-0.290116,-0.161772,-0.833138,-0.07938,0.1281,0.47362
-9.48883,0,0,24.4888,24.4888,5.51117,5.51117,3.38887,5.41426,-7.197,-0.301324,0.000649295,0.156397,1,0,3.115,-0.35,1.365,-0.248148,-0.045994,-0.851316,-0.07938,0.1281,0.47362
-9.48463,0,0,24.4846,24.4846,5.51537,5.51537,3.38737,5.41589,-7.19399,-0.301352,0.000623124,0.156396,1,0,2.38,0.9625,0.6475,-0.248148,-0.045994,-0.851316,-0.07938,0.1281,0.47362
-9.4836,0,0,24.4836,24.4836,5.5164,5.5164,3.387,5.41791,-7.19089,-0.138596,-0.175124,-0.107946,1,0,3.01,1.19,0.6825,-0.084668,-0.221552,-1.11362,-0.07938,0.1281,0.47362
-9.4961,0,0,24.4961,24.4961,5.5039,5.5039,3.39146,5.41753,-7.18888,-0.13859,-0.175046,-0.10795,1,0,5.775,-0.245,0.14,-0.084668,-0.221552,-1.11362,-0.07938,0.1281,0.47362
-9.53733,0,0,24.5373,24.5373,5.46267,5.46267,3.40619,5.17324,-7.01275,-0.216347,-0.00891946,-0.0201559,0,0,5.215,-0.035,-0.525,-0.167018,-0.055876,-1.02687,-0.07308,0.12684,0.47838
-9.57313,0,0,24.5731,24.5731,5.42687,5.42687,3.41898,4.93593,-6.83914,-0.212221,-0.00867585,-0.0198048,0,0,4.4625,1.225,-1.7675,-0.167018,-0.055876,-1.02687,-0.07308,0.12684,0.47838
-9.81303,0,0,24.813,24.813,5.18697,5.18697,3.50465,4.71985,-6.67804,-0.175662,-0.0765373,0.0441094,0,0,3.6575,-4.41,-2.4325,-0.134078,-0.125172,-0.963678,-0.07308,0.12684,0.47838
-10.0483,0,0,25.0483,25.0483,5,5,3.58869,4.50806,-6.51802,-0.171978,-0.0750597,0.0443157,0,0,3.6575,-4.41,-2.4325,-0.134078,-0.125172,-0.963678,-0.07308,0.12684,0.47838
-10.0411,0,0,25.0411,25.0411,5,5,3.5861,4.50652,-6.52156,0.284713,0.358567,-0.185224,1,0,2.0825,-1.12,-3.045,0.32452,0.30805,-1.19145,-0.07308,0.12684,0.47838
-10.0338,0,0,25.0338,25.0338,5,5,3.58351,4.50499,-6.52511,0.28474,0.358523,-0.185219,1,0,2.0825,-1.12,-3.045,0.32452,0.30805,-1.19145,-0.07308,0.12684,0.47838
-10.0253,0,0,25.0253,25.0253,5,5,3.58045,4.50497,-6.52784,-0.238377,0.474001,-0.271034,1,0,1.785,-0.21,-2.625,-0.200812,0.423462,-1.27661,-0.07308,0.12684,0.47838
-10.0167,0,0,25.0167,25.0167,5,5,3.57739,4.50494,-6.53057,-0.238376,0.473948,-0.271031,1,0,1.785,-0.21,-2.625,-0.200812,0.423462,-1.27661,-0.07308,0.12684,0.47838
-10.0195,0,0,25.0195,25.0195,5,5,3.57839,4.50496,-6.53166,0.0421337,-0.0361578,0.118223,1,0,3.99,-0.1225,-1.68,0.080886,-0.086132,-0.890356,-0.06776,0.1309,0.47922
-10.0884,0,0,25.0884,25.0884,5,5,3.60301,4.56134,-6.60796,0.0584038,-0.0265758,-0.0460175,0,0,5.0925,-1.085,-1.575,0.09821,-0.076982,-1.05323,-0.06776,0.1309,0.47922
-10.1498,0,0,25.1498,25.1498,5,5,3.62493,4.61798,-6.68324,0.0574184,-0.0262001,-0.0461205,0,0,3.78,-0.2625,-1.1725,0.09821,-0.076982,-1.05323,-0.06776,0.1309,0.47922
-10.1439,0,0,25.1439,25.1439,5,5,3.62283,4.61766,-6.68364,0.00506364,0.27102,-0.201893,1,0,2.2225,-0.2975,-1.26,0.045628,0.219966,-1.2078,-0.06776,0.1309,0.47922
-10.1279,0,0,25.1279,25.1279,5,5,3.61709,4.61925,-6.68388,0.00503607,0.27092,-0.201889,1,0,0.175,0.8225,-1.2425,0.045628,0.219966,-1.2078,-0.06776,0.1309,0.47922
-10.1224,0,0,25.1224,25.1224,5,5,3.61515,4.61968,-6.68435,-0.399519,-0.12688,-0.124676,1,0,2.31,0.14,-1.33,-0.360632,-0.177388,-1.13118,-0.06776,0.1309,0.47922
-10.1279,0,0,25.1279,25.1279,5,5,3.6171,4.61911,-6.68564,-0.399509,-0.126846,-0.124678,1,0,4.5325,-0.4725,-1.7675,-0.360632,-0.177388,-1.13118,-0.06776,0.1309,0.47922
-10.1406,0,0,25.1406,25.1406,5,5,3.62165,4.61929,-6.68687,0.096514,-0.211646,0.165476,1,0,5.985,-0.035,-1.7675,0.137494,-0.262178,-0.843264,-0.06776,0.1309,0.47922
-10.1524,0,0,25.1524,25.1524,5,5,3.62586,4.62001,-6.68802,0.0965015,-0.211573,0.16547,1,0,5.7925,0.28,-1.7325,0.137494,-0.262178,-0.843264,-0.07336,0.12642,0.48384
-10.1636,0,0,25.1636,25.1636,5,5,3.62987,4.61977,-6.68928,0.11728,-0.418263,-0.0437924,1,0,5.6875,-0.28,-1.7675,0.158356,-0.468724,-1.05091,-0.07336,0.12642,0.48384
-10.1593,0,0,25.1593,25.1593,5,5,3.62833,4.61843,-6.69059,0.117303,-0.41829,-0.0437888,1,0,2.5725,-0.9275,-1.75,0.158356,-0.468724,-1.05091,-0.07336,0.12642,0.48384
-10.1407,0,0,25.1407,25.1407,5,5,3.62168,4.61798,-6.69132,0.181212,-0.220927,-0.0523873,1,0,-0.315,-0.385,-1.4525,0.222528,-0.27145,-1.05945,-0.07336,0.12642,0.48384
-10.1333,0,0,25.1333,25.1333,5,5,3.61902,4.61778,-6.69126,0.181216,-0.220973,-0.0523841,1,0,1.89,-0.21,-0.9975,0.222528,-0.27145,-1.05945,-0.07336,0.12642,0.48384
-9.38225,0,0,24.3823,24.3823,5.61775,5.61775,3.35081,4.28219,-6.46593,-0.300831,0.26559,0.0818753,0,0,1.61,0.4725,-0.385,-0.267424,0.219234,-0.926956,-0.07336,0.12642,0.48384
-8.65563,0,0,23.6556,23.6556,6.34437,6.34437,3.0913,3.95039,-6.23593,-0.295055,0.261103,0.0825441,0,0,4.0425,-0.525,0.8575,-0.267424,0.219234,-0.926956,-0.07336,0.12642,0.48384
-8.66615,0,0,23.6661,23.6661,6.33385,6.33385,3.09505,3.94966,-6.2321,-0.541901,0.170673,-0.0506117,1,0,5.3375,-0.4025,1.2075,-0.515328,0.128832,-1.05908,-0.07336,0.12642,0.48384
-8.6669,0,0,23.6669,23.6669,6.3331,6.3331,3.09532,3.94892,-6.22815,-0.541889,0.170677,-0.0506111,1,0,3.3775,-0.4025,1.2775,-0.515328,0.128832,-1.05908,-0.0763,0.1288,0.47964
-8.66974,0,0,23.6697,23.6697,6.33026,6.33026,3.09633,3.94801,-6.22379,-0.15239,0.164222,-0.16901,1,0,3.78,-0.49,1.5225,-0.124196,0.122366,-1.17657,-0.0763,0.1288,0.47964
-8.65585,0,0,23.6559,23.6559,6.34415,6.34415,3.09138,3.94926,-6.22003,-0.152411,0.164136,-0.169007,1,0,0.455,0.7525,1.1025,-0.124196,0.122366,-1.17657,-0.0763,0.1288,0.47964
-9.40827,0,0,24.4083,24.4083,5.59173,5.59173,3.3601,3.62506,-5.91475,-0.298744,-0.290489,-0.00205628,0,0,2.415,0.3325,1.2075,-0.276818,-0.336476,-1.01101,-0.0763,0.1288,0.47964
-10.1507,0,0,25.1507,25.1507,5,5,3.62523,3.30865,-5.61592,-0.293232,-0.285859,-0.00200435,0,0,3.185,1.2075,-0.3325,-0.276818,-0.336476,-1.01101,-0.0763,0.1288,0.47964
-10.1562,0,0,25.1562,25.1562,5,5,3.62723,3.30883,-5.61486,0.0962483,0.0873954,-0.144873,1,0,4.4625,0.0525,-0.4375,0.114314,0.036356,-1.15278,-0.0763,0.1288,0.47964
-10.1745,0,0,25.1745,25.1745,5,5,3.63376,3.31012,-5.61507,0.0962259,0.087509,-0.144881,1,0,7.0525,0.6475,-1.2075,0.114314,0.036356,-1.15278,-0.0763,0.1288,0.47964
-9.28826,0,0,24.2883,24.2883,5.71174,5.71174,3.31724,3.19904,-5.57018,-0.109943,0.34153,-0.0133741,0,0,6.195,0.7175,-2.2575,-0.094672,0.295606,-1.02273,-0.0763,0.1288,0.47964
-8.41603,0,0,23.416,23.416,6.58397,6.58397,3.00573,3.08814,-5.52656,-0.108011,0.336115,-0.0129687,0,0,6.1775,-0.7875,-2.4675,-0.094672,0.295606,-1.02273,-0.0735,0.12964,0.47782
-8.41692,0,0,23.4169,23.4169,6.58308,6.58308,3.00604,3.08778,-5.52987,0.112249,0.24135,0.191126,1,0,3.6575,-0.4025,-2.9575,0.126514,0.200934,-0.820206,-0.0735,0.12964,0.47782
-8.41049,0,0,23.4105,23.4105,6.58951,6.58951,3.00375,3.08739,-5.5324,0.112256,0.24131,0.191128,1,0,2.17,-0.4025,-2.5025,0.126514,0.200934,-0.820206,-0.0735,0.12964,0.47782
-7.69175,0,0,22.6918,22.6918,7.30825,7.30825,2.74705,2.76656,-5.29532,-0.28755,0.257495,0.0727471,0,0,1.9075,0.9275,-2.87,-0.2806,0.221552,-0.93818,-0.0735,0.12964,0.47782
-6.98535,0,0,21.9854,21.9854,8.01465,8.01465,2.49477,2.44696,-5.05363,-0.281977,0.253113,0.0732017,0,0,2.0825,-1.4875,-1.4525,-0.2806,0.221552,-0.93818,-0.0735,0.12964,0.47782
-7.5997,0,0,22.5997,22.5997,7.4003,7.4003,2.71418,1.82198,-4.4856,-0.561185,-0.209692,0.183104,0,0,4.2525,-1.19,-1.085,-0.571936,-0.24461,-0.829356,-0.0735,0.12964,0.47782
-8.20289,0,0,23.2029,23.2029,6.79711,6.79711,2.9296,1.2088,-3.92439,-0.550487,-0.205924,0.183201,0,0,4.2525,-0.1575,-1.9425,-0.571936,-0.24461,-0.829356,-0.0735,0.12964,0.47782
-9.35919,0,0,24.3592,24.3592,5.64081,5.64081,3.34257,1.33851,-3.97492,0.0986562,-0.38009,0.181404,0,0,4.76,-0.105,-1.365,0.082228,-0.42578,-0.830698,-0.0735,0.12964,0.47782
-10.4933,0,0,25.4933,25.4933,5,5,3.74761,1.46914,-4.02016,0.0963769,-0.37304,0.180912,0,0,3.9725,0.42,-1.5575,0.082228,-0.42578,-0.830698,-0.08022,0.12796,0.47544
-10.4963,0,0,25.4963,25.4963,5,5,3.74869,1.4683,-4.02035,0.237558,-0.0870003,0.199107,1,0,3.99,-0.595,-1.12,0.223992,-0.140056,-0.812642,-0.08022,0.12796,0.47544
-10.4982,0,0,25.4982,25.4982,5,5,3.74935,1.47118,-4.02255,0.237508,-0.0869889,0.199105,1,0,3.78,1.505,-2.4325,0.223992,-0.140056,-0.812642,-0.08022,0.12796,0.47544
-10.7312,0,0,25.7312,25.7312,5,5,3.83257,1.27156,-3.82561,-0.171696,-0.0794282,0.0291776,0,0,3.7275,-0.49,-2.1875,-0.190442,-0.133956,-0.981246,-0.08022,0.12796,0.47544
-10.9707,0,0,25.9707,25.9707,5,5,3.91811,1.07656,-3.6293,-0.168293,-0.0779341,0.0291463,0,0,5.88,-0.0525,-1.9075,-0.190442,-0.133956,-0.981246,-0.08022,0.12796,0.47544
-10.3642,0,0,25.3642,25.3642,5,5,3.70149,0.497715,-3.14038,-0.536498,0.247923,0.0809284,0,0,4.725,0.665,-2.66,-0.57035,0.195322,-0.93025,-0.08022,0.12796,0.47544
-9.76734,0,0,24.7673,24.7673,5.23266,5.23266,3.48833,-0.0724962,-2.64782,-0.526546,0.244213,0.0811985,0,0,5.3375,0.2975,-2.52,-0.57035,0.195322,-0.93025,-0.08022,0.12796,0.47544
-9.77319,0,0,24.7732,24.7732,5.22681,5.22681,3.49042,-0.0726832,-2.65043,0.409626,0.231059,-0.0113839,1,0,4.55,-0.2975,-2.555,0.369782,0.182146,-1.02212,-0.08022,0.12796,0.47544
-9.77064,0,0,24.7706,24.7706,5.22936,5.22936,3.48952,-0.0754107,-2.65064,0.409673,0.231043,-0.011383,1,0,2.87,-1.6975,-1.0675,0.369782,0.182146,-1.02212,-0.08022,0.12796,0.47544
-8.9155,0,0,23.9155,23.9155,6.0845,6.0845,3.18411,0.0608997,-2.75549,0.114271,0.284954,0.132531,0,0,2.1875,-0.3675,-1.3475,0.075518,0.241316,-0.87962,-0.07896,0.13496,0.47236
-8.90832,0,0,23.9083,23.9083,6.09168,6.09168,3.18154,0.0602685,-2.75413,0.281568,-0.145466,-0.113855,1,0,1.9425,-0.42,-0.2275,0.243512,-0.188612,-1.12411,-0.07896,0.13496,0.47236
-8.914,0,0,23.914,23.914,6.086,6.086,3.18357,0.0603327,-2.75075,0.281567,-0.14543,-0.113857,1,0,4.515,0.0525,0.9275,0.243512,-0.188612,-1.12411,-0.07896,0.13496,0.47236
-8.74029,0,0,23.7403,23.7403,6.25971,6.25971,3.12153,-0.18198,-2.51401,-0.223594,0.0708738,-0.0390491,0,0,5.8275,0.1575,0.7875,-0.268034,0.028548,-1.04993,-0.07896,0.13496,0.47236
-8.56671,0,0,23.5667,23.5667,6.43329,6.43329,3.05954,-0.420225,-2.27686,-0.219436,0.0697923,-0.0390126,0,0,5.3725,-0.1575,1.05,-0.268034,0.028548,-1.04993,-0.07896,0.13496,0.47236
-8.51862,0,0,23.5186,23.5186,6.48138,6.48138,3.04237,-0.287104,-2.34831,0.121924,0.0166128,-0.0423019,0,0,4.13,0.35,1.2075,0.077104,-0.024278,-1.05323,-0.07896,0.13496,0.47236
-8.47757,0,0,23.4776,23.4776,6.52243,6.52243,3.0277,-0.15843,-2.42006,0.119678,0.0163578,-0.0422797,0,0,5.3725,-0.7525,1.015,0.077104,-0.024278,-1.05323,-0.07896,0.13496,0.47236
-8.47807,0,0,23.4781,23.4781,6.52193,6.52193,3.02788,-0.156342,-2.41801,0.286077,0.516348,-0.0795331,1,0,3.4825,1.19,0.0875,0.244244,0.47519,-1.09019,-0.07896,0.13496,0.47236
-8.48748,0,0,23.4875,23.4875,6.51252,6.51252,3.03124,-0.156462,-2.41661,0.286079,0.516406,-0.0795362,1,0,5.2675,-0.1225,-0.2275,0.244244,0.47519,-1.09019,-0.0756,0.12656,0.47922
-8.50223,0,0,23.5022,23.5022,6.49777,6.49777,3.03651,-0.156525,-2.41519,0.189378,0.215211,-0.315725,1,0,6.335,-0.0875,-0.21,0.147132,0.174216,-1.32455,-0.0756,0.12656,0.47922
-8.51228,0,0,23.5123,23.5123,6.48772,6.48772,3.0401,-0.155735,-2.4163,0.189364,0.215274,-0.315728,1,0,5.39,0.3325,-1.715,0.147132,0.174216,-1.32455,-0.0756,0.12656,0.47922
-8.17136,0,0,23.1714,23.1714,6.82864,6.82864,2.91834,-0.431808,-2.14419,-0.261875,0.135844,-0.0520411,0,0,4.6375,0.6475,-2.2575,-0.310856,0.09699,-1.06299,-0.0756,0.12656,0.47922
-7.82995,0,0,22.8299,22.8299,7.17005,7.17005,2.79641,-0.703807,-1.8717,-0.257128,0.133717,-0.051982,0,0,3.535,0,-2.3625,-0.310856,0.09699,-1.06299,-0.0756,0.12656,0.47922
-8.10822,0,0,23.1082,23.1082,6.89178,6.89178,2.89579,-0.224201,-2.23167,0.423204,-0.0992752,0.0984885,0,0,4.025,-0.5425,-1.8025,0.380762,-0.137494,-0.913658,-0.0756,0.12656,0.47922
-8.36632,0,0,23.3663,23.3663,6.63368,6.63368,2.98797,0.24795,-2.58975,0.414963,-0.0976686,0.0984043,0,0,1.0325,0.14,-2.17,0.380762,-0.137494,-0.913658,-0.0756,0.12656,0.47922
-8.7891,0,0,23.7891,23.7891,6.2109,6.2109,3.13896,0.860129,-3.07106,0.574602,-0.169418,0.128283,0,0,1.505,0.1925,-2.3275,0.551806,-0.211792,-0.883768,-0.0756,0.12656,0.47922
-9.21337,0,0,24.2134,24.2134,5.78663,5.78663,3.29049,1.46207,-3.54671,0.564099,-0.16679,0.127922,0,0,3.29,0.0175,-0.9275,0.551806,-0.211792,-0.883768,-0.07532,0.12782,0.469
-9.56359,0,0,24.5636,24.5636,5.43641,5.43641,3.41557,1.50054,-3.54677,0.0319276,-0.124189,0.0165085,0,0,4.795,0.105,-1.1375,0.018056,-0.17141,-0.994178,-0.07532,0.12782,0.469
-9.90767,0,0,24.9077,24.9077,5.09233,5.09233,3.53845,1.5376,-3.54678,0.0312811,-0.122049,0.0163613,0,0,4.7425,-0.2625,-1.12,0.018056,-0.17141,-0.994178,-0.07532,0.12782,0.469
-9.90721,0,0,24.9072,24.9072,5.09279,5.09279,3.53829,1.53792,-3.54692,-0.203192,-0.243691,0.192424,1,0,3.29,0.0875,-1.1375,-0.217404,-0.292922,-0.819474,-0.07532,0.12782,0.469
-9.91386,0,0,24.9139,24.9139,5.08614,5.08614,3.54067,1.5372,-3.54662,-0.203179,-0.243649,0.192421,1,0,4.7075,-0.5075,-0.84,-0.217404,-0.292922,-0.819474,-0.07532,0.12782,0.469
-9.91378,0,0,24.9138,24.9138,5.08622,5.08622,3.54064,1.53808,-3.54757,0.292831,0.19564,0.212093,1,0,3.3775,0.385,-1.6275,0.280722,0.145912,-0.799954,-0.07532,0.12782,0.469
-9.91831,0,0,24.9183,24.9183,5.08169,5.08169,3.54225,1.53915,-3.54872,0.292813,0.195668,0.212091,1,0,4.305,0.49,-1.75,0.280722,0.145912,-0.799954,-0.07532,0.12782,0.469
-10.1489,0,0,25.1489,25.1489,5,5,3.62462,1.6718,-3.63426,0.111064,-0.0792744,0.0384556,0,0,4.4275,0.5425,-1.9425,0.100528,-0.130174,-0.972096,-0.07532,0.12782,0.469
-10.3827,0,0,25.3827,25.3827,5,5,3.70811,1.80005,-3.72156,0.108827,-0.0778252,0.0382948,0,0,5.8275,-0.28,-2.24,0.100528,-0.130174,-0.972096,-0.07434,0.12866,0.47544
-10.7478,0,0,25.7478,25.7478,5,5,3.8385,1.62272,-3.54766,-0.164217,-0.139666,-0.0382366,0,0,5.0225,-0.4025,-2.7125,-0.176778,-0.194224,-1.04798,-0.07434,0.12866,0.47544
-11.0954,0,0,26.0954,26.0954,5,5,3.96264,1.44945,-3.37455,-0.161194,-0.1375,-0.038303,0,0,2.7825,-0.035,-2.4325,-0.176778,-0.194224,-1.04798,-0.07434,0.12866,0.47544
-11.0927,0,0,26.0927,26.0927,5,5,3.96168,1.44967,-3.37626,0.0255261,0.405215,-0.208832,1,0,2.87,-0.035,-2.0475,0.010736,0.347944,-1.21719,-0.07434,0.12866,0.47544
-11.0798,0,0,26.0798,26.0798,5,5,3.95708,1.44818,-3.37668,0.025552,0.405135,-0.208825,1,0,0.805,-0.98,-1.225,0.010736,0.347944,-1.21719,-0.07434,0.12866,0.47544
-11.0708,0,0,26.0708,26.0708,5,5,3.95387,1.4467,-3.37628,0.0938528,0.262191,-0.284926,1,0,1.575,-0.945,-0.7525,0.0793,0.205204,-1.29271,-0.07434,0.12866,0.47544
-11.0665,0,0,26.0665,26.0665,5,5,3.95233,1.44604,-3.3752,0.0938644,0.262164,-0.284924,1,0,2.5025,-0.4375,-0.385,0.0793,0.205204,-1.29271,-0.07434,0.12866,0.47544
-11.0674,0,0,26.0674,26.0674,5,5,3.95263,1.44648,-3.37319,-0.207914,0.103282,-0.193942,1,0,3.5175,0.245,0.105,-0.223748,0.046482,-1.20243,-0.07434,0.12866,0.47544
-11.0731,0,0,26.0731,26.0731,5,5,3.95469,1.44709,-3.37055,-0.207924,0.103318,-0.193945,1,0,4.4975,0.3675,0.4725,-0.223748,0.046482,-1.20243,-0.07266,0.12838,0.47894
-11.0757,0,0,26.0757,26.0757,5,5,3.9556,1.44793,-3.36777,-0.107835,-0.318614,-0.076162,1,0,3.85,0.5075,0.5425,-0.12322,-0.375028,-1.08556,-0.07266,0.12838,0.47894
-11.0767,0,0,26.0767,26.0767,5,5,3.95597,1.44852,-3.36525,-0.107845,-0.318607,-0.0761627,1,0,3.5525,0.35,0.4025,-0.12322,-0.375028,-1.08556,-0.07266,0.12838,0.47894
-11.0723,0,0,26.0723,26.0723,5,5,3.9544,1.44892,-3.36307,-0.201518,0.416324,-0.162594,1,0,2.4675,0.2275,0.21,-0.217282,0.359168,-1.17132,-0.07266,0.12838,0.47894
-11.0736,0,0,26.0736,26.0736,5,5,3.95486,1.44948,-3.36187,-0.201527,0.416332,-0.162595,1,0,3.6225,0.28,-0.3675,-0.217282,0.359168,-1.17132,-0.07266,0.12838,0.47894
-11.0751,0,0,26.0751,26.0751,5,5,3.95539,1.45131,-3.36178,-0.479519,0.40596,-0.271774,1,0,3.675,0.98,-1.0675,-0.496418,0.348798,-1.27966,-0.07266,0.12838,0.47894
-11.0845,0,0,26.0845,26.0845,5,5,3.95874,1.45284,-3.36238,-0.479545,0.406019,-0.271779,1,0,5.2675,0.77,-1.4525,-0.496418,0.348798,-1.27966,-0.07266,0.12838,0.47894
-11.0968,0,0,26.0968,26.0968,5,5,3.96313,1.45327,-3.36372,0.109896,0.365671,-0.256293,1,0,5.8625,0.105,-1.8375,0.095526,0.308416,-1.26429,-0.07266,0.12838,0.47894
-11.0994,0,0,26.0994,26.0994,5,5,3.96406,1.45235,-3.36494,0.109912,0.365687,-0.256294,1,0,3.92,-0.6825,-1.715,0.095526,0.308416,-1.26429,-0.07266,0.12838,0.47894
-11.0985,0,0,26.0985,26.0985,5,5,3.96374,1.45363,-3.3664,0.256523,-0.0105908,0.157428,1,0,3.22,0.595,-1.9425,0.24278,-0.067466,-0.853756,-0.07406,0.12936,0.47698
-11.0868,0,0,26.0868,26.0868,5,5,3.95956,1.45242,-3.36734,0.256544,-0.0106635,0.157433,1,0,1.05,-0.84,-1.54,0.24278,-0.067466,-0.853756,-0.07406,0.12936,0.47698
-11.8918,0,0,26.8918,26.8918,5,5,4.24705,1.6753,-3.5129,0.181465,-0.276423,0.135576,0,0,1.5925,-0.84,-1.26,0.171288,-0.33794,-0.874984,-0.07406,0.12936,0.47698
-12.6841,0,0,27.6841,27.6841,5,5,4.53005,1.89382,-3.65611,0.177653,-0.27151,0.135079,0,0,1.5925,-0.84,-1.26,0.171288,-0.33794,-0.874984,-0.07406,0.12936,0.47698
-12.6282,0,0,27.6282,27.6282,5,5,4.51009,1.36746,-3.20549,-0.449628,0.0305493,0.121351,0,0,2.31,-0.2275,-0.7875,-0.46787,-0.035868,-0.888892,-0.07406,0.12936,0.47698
-12.5714,0,0,27.5714,27.5714,5,5,4.48978,0.850264,-2.75547,-0.440603,0.0302098,0.121553,0,0,2.31,-0.2275,-0.7875,-0.46787,-0.035868,-0.888892,-0.07406,0.12936,0.47698
-12.5738,0,0,27.5738,27.5738,5,5,4.49065,0.850375,-2.75367,-0.0738395,-0.088116,-0.137132,1,0,3.85,0.0525,0,-0.099552,-0.154086,-1.14558,-0.07406,0.12936,0.47698
-12.5762,0,0,27.5762,27.5762,5,5,4.49151,0.850487,-2.75187,-0.0738414,-0.0881009,-0.137133,1,0,3.85,0.0525,0,-0.099552,-0.154086,-1.14558,-0.07406,0.12936,0.47698
-12.4656,0,0,27.4656,27.4656,5,5,4.452,0.529242,-2.45566,-0.28776,0.0427473,0.00560847,0,0,2.835,-0.2975,-0.9625,-0.320006,-0.022692,-1.00406,-0.07322,0.1267,0.48132
-12.4665,0,0,27.4665,27.4665,5,5,4.4523,0.529868,-2.45584,0.323302,-0.0865796,-0.184593,1,0,3.5525,0.2625,-1.1725,0.293654,-0.15189,-1.19279,-0.07322,0.1267,0.48132
-12.4684,0,0,27.4684,27.4684,5,5,4.45301,0.529807,-2.45682,0.323303,-0.0865673,-0.184594,1,0,3.78,-0.175,-1.61,0.293654,-0.15189,-1.19279,-0.07322,0.1267,0.48132
-12.4721,0,0,27.4721,27.4721,5,5,4.4543,0.529811,-2.45785,0.609645,-0.126358,-0.0448036,1,0,4.1125,-0.14,-1.645,0.581208,-0.191662,-1.05408,-0.07322,0.1267,0.48132
-12.4777,0,0,27.4777,27.4777,5,5,4.45631,0.529221,-2.45972,0.609655,-0.126323,-0.0448063,1,0,4.515,-0.525,-2.1,0.581208,-0.191662,-1.05408,-0.07322,0.1267,0.48132
-12.4865,0,0,27.4865,27.4865,5,5,4.45945,0.528189,-2.46092,0.229302,0.281635,-0.360542,1,0,5.145,-0.7525,-1.6975,0.199226,0.215818,-1.36738,-0.07322,0.1267,0.48132
-12.4804,0,0,27.4804,27.4804,5,5,4.45728,0.529249,-2.46206,0.229283,0.281597,-0.360539,1,0,2.17,0.4725,-1.75,0.199226,0.215818,-1.36738,-0.07322,0.1267,0.48132
-12.384,0,0,27.384,27.384,5,5,4.42287,0.929139,-2.77059,0.377928,0.0327077,0.0011331,0,0,2.7125,-1.47,-1.05,0.355508,-0.032208,-1.00845,-0.07322,0.1267,0.48132
-12.2816,0,0,27.2816,27.2816,5,5,4.38627,1.32674,-3.0872,0.370989,0.0320605,0.00104594,0,0,1.4,0.3675,-1.3475,0.355508,-0.032208,-1.00845,-0.07588,0.13356,0.47894
-12.2779,0,0,27.2779,27.2779,5,5,4.38498,1.32676,-3.08757,0.219254,0.492456,-0.0455498,1,0,2.66,-0.105,-1.26,0.20313,0.427732,-1.05469,-0.07588,0.13356,0.47894
-12.2755,0,0,27.2755,27.2755,5,5,4.38409,1.32578,-3.08522,0.219271,0.49244,-0.0455482,1,0,2.8525,-0.56,0.3675,0.20313,0.427732,-1.05469,-0.07588,0.13356,0.47894
-12.4784,0,0,27.4784,27.4784,5,5,4.45657,1.31574,-3.05422,-0.0102835,-0.0646619,0.0723889,0,0,2.9575,0.1575,0.175,-0.027572,-0.130052,-0.93757,-0.07588,0.13356,0.47894
-12.685,0,0,27.685,27.685,5,5,4.53035,1.30709,-3.02346,-0.0101326,-0.0633782,0.0722915,0,0,4.375,0.8575,0.07,-0.027572,-0.130052,-0.93757,-0.07588,0.13356,0.47894
-12.6103,0,0,27.6103,27.6103,5,5,4.50369,0.839747,-2.61804,-0.404217,0.0359477,0.0931358,0,0,3.0625,1.19,-0.2275,-0.431514,-0.030378,-0.917074,-0.07588,0.13356,0.47894
-12.5394,0,0,27.5394,27.5394,5,5,4.47837,0.37759,-2.21314,-0.396151,0.0355139,0.0932558,0,0,3.885,-0.665,-0.07,-0.431514,-0.030378,-0.917074,-0.07588,0.13356,0.47894
-11.7011,0,0,26.7011,26.7011,5,5,4.17896,0.224446,-2.0768,-0.123294,0.303502,0.0719023,0,0,3.9725,-0.0875,-0.735,-0.160186,0.242536,-0.938668,-0.07588,0.13356,0.47894
-10.8838,0,0,25.8838,25.8838,5,5,3.88707,0.0775355,-1.94712,-0.12073,0.29842,0.0722674,0,0,5.6,0.4375,-1.4175,-0.160186,0.242536,-0.938668,-0.07588,0.1386,0.49252
-10.8965,0,0,25.8965,25.8965,5,5,3.89162,0.0779742,-1.9481,0.185406,0.264304,-0.185069,1,0,5.9325,0.1225,-1.6275,0.147254,0.208376,-1.19401,-0.07588,0.1386,0.49252
-10.9175,0,0,25.9175,25.9175,5,5,3.8991,0.0777491,-1.949,0.18541,0.264434,-0.185078,1,0,7.5775,-0.2625,-1.5575,0.147254,0.208376,-1.19401,-0.07588,0.1386,0.49252
-9.97024,0,0,24.9702,24.9702,5.02976,5.02976,3.5608,-0.0136468,-1.86675,-0.0744316,0.353679,0.0636629,0,0,7.2975,0.595,-1.8725,-0.11529,0.303414,-0.947574,-0.07588,0.1386,0.49252
-9.01941,0,0,24.0194,24.0194,5.98059,5.98059,3.22122,-0.104226,-1.78366,-0.0728507,0.347763,0.0640118,0,0,3.6225,0.105,-1.89,-0.11529,0.303414,-0.947574,-0.07588,0.1386,0.49252
-9.01958,0,0,24.0196,24.0196,5.98042,5.98042,3.22128,-0.105814,-1.78445,-0.0327327,0.0066638,0.26786,1,0,3.4125,-1.05,-1.4525,-0.07503,-0.037332,-0.745298,-0.07588,0.1386,0.49252
-9.00926,0,0,24.0093,24.0093,5.99074,5.99074,3.21759,-0.106234,-1.78527,-0.0327254,0.00659957,0.267864,1,0,1.3125,-0.3675,-1.505,-0.07503,-0.037332,-0.745298,-0.07588,0.1386,0.49252
-9.02517,0,0,24.0252,24.0252,5.97483,5.97483,3.22328,0.443245,-2.23401,0.482503,-0.00392801,0.144144,0,0,2.45,-0.1575,-1.4,0.45201,-0.047946,-0.86803,-0.07588,0.1386,0.49252
-9.04276,0,0,24.0428,24.0428,5.95724,5.95724,3.22956,0.982459,-2.67556,0.473092,-0.00382515,0.144021,0,0,3.045,0.2975,-0.9625,0.45201,-0.047946,-0.86803,-0.0735,0.13398,0.49154
-9.05206,0,0,24.0521,24.0521,5.94794,5.94794,3.23288,0.982262,-2.6745,0.228302,-0.513036,-0.0531917,1,0,5.2325,-0.175,-0.42,0.20618,-0.556686,-1.06372,-0.0735,0.13398,0.49154
-9.06257,0,0,24.0626,24.0626,5.93743,5.93743,3.23663,0.984719,-2.6738,0.228259,-0.51297,-0.0531961,1,0,5.4775,1.365,-0.7175,0.20618,-0.556686,-1.06372,-0.0735,0.13398,0.49154
-9.23948,0,0,24.2395,24.2395,5.76052,5.76052,3.29981,1.18126,-2.82197,0.189113,-0.0705074,-0.0439796,0,0,5.04,-0.5075,-0.525,0.170312,-0.115778,-1.05445,-0.0735,0.13398,0.49154
-9.41151,0,0,24.4115,24.4115,5.58849,5.58849,3.36125,1.37474,-2.96863,0.185737,-0.0694415,-0.0441171,0,0,4.655,-0.07,-0.1225,0.170312,-0.115778,-1.05445,-0.0735,0.13398,0.49154
-9.02684,0,0,24.0268,24.0268,5.97316,5.97316,3.22387,1.75182,-3.2934,0.36491,0.151159,-0.00407745,0,0,4.515,0.035,-0.9275,0.35685,0.106994,-1.01467,-0.0735,0.13398,0.49154
-8.65377,0,0,23.6538,23.6538,6.34623,6.34623,3.09063,2.12287,-3.61954,0.358437,0.148826,-0.00416805,0,0,5.7925,0.4025,-1.2775,0.35685,0.106994,-1.01467,-0.0735,0.13398,0.49154
-8.66722,0,0,23.6672,23.6672,6.33278,6.33278,3.09544,2.12395,-3.62033,-0.171502,-0.345581,0.325206,1,0,6.09,0.5075,-1.54,-0.175314,-0.386984,-0.687836,-0.0735,0.13398,0.49154
-8.68882,0,0,23.6888,23.6888,6.31118,6.31118,3.10315,2.12361,-3.62003,-0.171496,-0.345447,0.325199,1,0,7.7,-0.28,-0.8575,-0.175314,-0.386984,-0.687836,-0.07728,0.1372,0.4879
-7.69952,0,0,22.6995,22.6995,7.30048,7.30048,2.74983,1.65579,-3.25015,-0.427932,0.376409,0.14972,0,0,5.7925,1.015,-1.2775,-0.44103,0.340258,-0.86254,-0.07728,0.1372,0.4879
-6.71924,0,0,21.7192,21.7192,8.28076,8.28076,2.39973,1.19104,-2.87446,-0.419823,0.370316,0.150196,0,0,4.9875,-1.2075,-0.7525,-0.44103,0.340258,-0.86254,-0.07728,0.1372,0.4879
-6.10136,0,0,21.1014,21.1014,8.89864,8.89864,2.17906,0.985833,-2.70233,-0.184569,0.227613,0.0390262,0,0,2.9925,0.035,-0.7875,-0.208376,0.201544,-0.973072,-0.07728,0.1372,0.4879
-5.49697,0,0,20.497,20.497,9.50303,9.50303,1.9632,0.782978,-2.52899,-0.181029,0.22385,0.0392169,0,0,3.745,-0.7175,-0.77,-0.208376,0.201544,-0.973072,-0.07728,0.1372,0.4879
-5.4998,0,0,20.4998,20.4998,9.5002,9.5002,1.96421,0.78217,-2.52771,-0.108002,0.282122,-0.198443,1,0,3.9375,-0.5425,-0.28,-0.135054,0.259738,-1.2089,-0.07728,0.1372,0.4879
-5.50998,0,0,20.51,20.51,9.49002,9.49002,1.96785,0.781892,-2.5262,-0.107997,0.282186,-0.198445,1,0,5.4075,-0.2275,-0.1575,-0.135054,0.259738,-1.2089,-0.07728,0.1372,0.4879
-5.52796,0,0,20.528,20.528,9.47204,9.47204,1.97427,0.782441,-2.5244,0.0242917,0.315516,-0.217752,1,0,6.965,0.2625,0,-0.002196,0.292922,-1.22805,-0.07728,0.1372,0.4879
-5.54223,0,0,20.5422,20.5422,9.45777,9.45777,1.97937,0.783162,-2.52328,0.0242791,0.315605,-0.217755,1,0,6.23,0.35,-0.4025,-0.002196,0.292922,-1.22805,-0.07728,0.1372,0.4879
-5.55608,0,0,20.5561,20.5561,9.44392,9.44392,1.98431,0.783427,-2.52193,0.00301446,0.100504,-0.222184,1,0,6.1425,0.0875,-0.2625,-0.023546,0.077958,-1.23244,-0.06972,0.13202,0.4781
-5.45581,0,0,20.4558,20.4558,9.54419,9.54419,1.9485,0.626925,-2.36589,-0.156316,0.0426031,-0.089222,0,0,5.53,0.1225,-1.05,-0.186294,0.02074,-1.10056,-0.06972,0.13202,0.4781
-5.36742,0,0,20.3674,20.3674,9.63258,9.63258,1.91693,0.473107,-2.21094,-0.153632,0.0420534,-0.0891777,0,0,7.6125,-0.0175,-1.6275,-0.186294,0.02074,-1.10056,-0.06972,0.13202,0.4781
-5.80019,0,0,20.8002,20.8002,9.19981,9.19981,2.07149,-0.146272,-1.6366,-0.552593,-0.140272,0.229073,0,0,7.035,-0.0175,-1.96,-0.5978,-0.16409,-0.784704,-0.06972,0.13202,0.4781
-6.23311,0,0,21.2331,21.2331,8.76689,8.76689,2.22611,-0.75412,-1.06647,-0.541984,-0.137578,0.228888,0,0,8.5575,1.225,-2.1175,-0.5978,-0.16409,-0.784704,-0.06972,0.13202,0.4781
-7.41721,0,0,22.4172,22.4172,7.58279,7.58279,2.649,-1.07125,-0.735066,-0.274891,-0.378737,0.25492,0,0,7.1575,1.47,-2.0825,-0.335134,-0.41236,-0.758474,-0.06972,0.13202,0.4781
-8.58453,0,0,23.5845,23.5845,6.41547,6.41547,3.0659,-1.38339,-0.408971,-0.269445,-0.371477,0.254441,0,0,7.1575,1.47,-2.0825,-0.335134,-0.41236,-0.758474,-0.06972,0.13202,0.4781
-8.27725,0,0,23.2773,23.2773,6.72275,6.72275,2.95616,-0.746779,-0.923576,0.636906,0.126975,0.104382,0,0,3.9375,0.2275,-1.89,0.58621,0.087474,-0.90768,-0.06972,0.13202,0.4781
-7.97218,0,0,22.9722,22.9722,7.02782,7.02782,2.84721,-0.113965,-1.43598,0.625862,0.12508,0.104561,0,0,3.9375,0.2275,-1.89,0.58621,0.087474,-0.90768,-0.07714,0.1309,0.47656
-7.97331,0,0,22.9733,22.9733,7.02669,7.02669,2.84761,-0.114896,-1.43685,0.548856,0.0650005,-0.0598213,1,0,3.605,-0.665,-1.5225,0.508862,0.02745,-1.07079,-0.07714,0.1309,0.47656
-7.97443,0,0,22.9744,22.9744,7.02557,7.02557,2.84801,-0.115826,-1.43772,0.548873,0.0650075,-0.0598217,1,0,3.605,-0.665,-1.5225,0.508862,0.02745,-1.07079,-0.07714,0.1309,0.47656
-7.99243,0,0,22.9924,22.9924,7.00757,7.00757,2.85444,-0.114401,-1.43785,0.307334,0.0917431,-0.0927775,1,0,6.9825,0.735,-1.155,0.266326,0.054046,-1.10349,-0.07714,0.1309,0.47656
-8.01042,0,0,23.0104,23.0104,6.98958,6.98958,2.86086,-0.112977,-1.43797,0.307309,0.0918552,-0.092783,1,0,6.9825,0.735,-1.155,0.266326,0.054046,-1.10349,-0.07714,0.1309,0.47656
-8.02317,0,0,23.0232,23.0232,6.97683,6.97683,2.86542,-0.113055,-1.43853,0.0436867,0.0196355,-0.102746,1,0,5.9325,-0.1575,-1.365,0.001586,-0.018178,-1.11337,-0.07714,0.1309,0.47656
-8.03592,0,0,23.0359,23.0359,6.96408,6.96408,2.86997,-0.113134,-1.43908,0.043688,0.0197149,-0.10275,1,0,5.9325,-0.1575,-1.365,0.001586,-0.018178,-1.11337,-0.07714,0.1309,0.47656
-8.0471,0,0,23.0471,23.0471,6.9529,6.9529,2.87396,-0.113186,-1.44018,-0.175107,-0.136782,0.1997,1,0,5.6175,-0.1575,-1.68,-0.218136,-0.174582,-0.813252,-0.07714,0.1309,0.47656
-8.06212,0,0,23.0621,23.0621,6.93788,6.93788,2.87933,-0.112973,-1.44117,0.2869,0.102191,-0.131282,1,0,6.3875,0,-1.6275,0.24583,0.06405,-1.14168,-0.0777,0.12404,0.47208
-8.08798,0,0,23.088,23.088,6.91202,6.91202,2.88857,-0.11172,-1.44145,0.286878,0.102352,-0.13129,1,0,8.5575,0.63,-1.2425,0.24583,0.06405,-1.14168,-0.0777,0.12404,0.47208
-9.22919,0,0,24.2292,24.2292,5.77081,5.77081,3.29614,0.197437,-1.63848,0.253662,-0.399935,0.169669,0,0,7.28,0.7875,-1.1025,0.217892,-0.444812,-0.842654,-0.0777,0.12404,0.47208
-10.3535,0,0,25.3535,25.3535,5,5,3.69768,0.50076,-1.83117,0.248368,-0.392942,0.169209,0,0,7.28,0.7875,-1.1025,0.217892,-0.444812,-0.842654,-0.0777,0.12404,0.47208
-10.6383,0,0,25.6383,25.6383,5,5,3.79939,0.796135,-2.03693,0.232401,-0.0892775,0.140265,0,0,2.6775,-0.28,-0.84,0.207034,-0.143228,-0.871202,-0.0777,0.12404,0.47208
-10.9182,0,0,25.9182,25.9182,5,5,3.89937,1.08585,-2.24116,0.227345,-0.0875423,0.140065,0,0,2.6775,-0.28,-0.84,0.207034,-0.143228,-0.871202,-0.0777,0.12404,0.47208
-10.9074,0,0,25.9074,25.9074,5,5,3.8955,1.08498,-2.23913,-0.0725881,-0.218652,0.2956,1,0,1.19,-0.525,0.175,-0.094184,-0.274134,-0.716872,-0.0777,0.12404,0.47208
-10.9054,0,0,25.9054,25.9054,5,5,3.89479,1.08514,-2.23694,0.184473,0.194857,-0.161891,1,0,2.9575,0.0875,0.2275,0.163968,0.138958,-1.17083,-0.0777,0.12404,0.47208
-10.9323,0,0,25.9323,25.9323,5,5,3.90439,1.08525,-2.23403,0.184471,0.195024,-0.161902,1,0,8.7325,0.0875,0.6475,0.163968,0.138958,-1.17083,-0.07686,0.1225,0.48398
-10.9442,0,0,25.9442,25.9442,5,5,3.90863,1.08551,-2.23093,-0.297589,0.00189356,-0.198546,1,0,5.7225,0.175,0.7525,-0.320128,-0.054046,-1.20719,-0.07686,0.1225,0.48398
-10.95,0,0,25.95,25.95,5,5,3.91072,1.08483,-2.22915,-0.297577,0.00192994,-0.198548,1,0,4.5325,-0.42,0.0175,-0.320128,-0.054046,-1.20719,-0.07686,0.1225,0.48398
-10.957,0,0,25.957,25.957,5,5,3.91321,1.08389,-2.22758,-0.338987,0.309122,-0.122323,1,0,4.76,-0.5775,-0.0875,-0.36173,0.252784,-1.13155,-0.07686,0.1225,0.48398
-10.9671,0,0,25.9671,25.9671,5,5,3.9168,1.08397,-2.22713,-0.338989,0.309185,-0.122327,1,0,5.39,-0.035,-0.7875,-0.36173,0.252784,-1.13155,-0.07686,0.1225,0.48398
-10.6138,0,0,25.6138,25.6138,5,5,3.79063,1.02502,-2.1563,-0.0504034,0.135401,-0.00658869,0,0,5.2325,0.3675,-1.3125,-0.072956,0.081374,-1.01687,-0.07686,0.1225,0.48398
-10.2654,0,0,25.2654,25.2654,5,5,3.66622,0.968942,-2.08539,-0.0494247,0.133236,-0.00643051,0,0,5.0575,1.365,-1.4175,-0.072956,0.081374,-1.01687,-0.07686,0.1225,0.48398
-10.2751,0,0,25.2751,25.2751,5,5,3.66969,0.971177,-2.08643,0.0471174,-0.228321,0.16225,1,0,5.3375,1.1725,-1.7325,0.024034,-0.279868,-0.849486,-0.07686,0.1225,0.48398
-10.274,0,0,25.274,25.274,5,5,3.66929,0.972288,-2.08815,0.047098,-0.228328,0.16225,1,0,3.1675,0.49,-2.0825,0.024034,-0.279868,-0.849486,-0.07798,0.12404,0.48244
-9.62982,0,0,24.6298,24.6298,5.37018,5.37018,3.43922,1.05148,-2.14571,0.0736578,0.233577,0.0403871,0,0,2.205,-0.42,-2.3625,0.052094,0.185562,-0.970632,-0.07798,0.12404,0.48244
-8.98587,0,0,23.9859,23.9859,6.01413,6.01413,3.20924,1.12902,-2.20324,0.0723047,0.229569,0.0405941,0,0,0.175,-0.56,-2.135,0.052094,0.185562,-0.970632,-0.07798,0.12404,0.48244
-9.14282,0,0,24.1428,24.1428,5.85718,5.85718,3.26529,1.33043,-2.34575,0.169502,-0.057678,0.0729219,0,0,0.5775,-0.5775,-2.31,0.153232,-0.102358,-0.938424,-0.07798,0.12404,0.48244
-9.30609,0,0,24.3061,24.3061,5.69391,5.69391,3.3236,1.52947,-2.4875,0.166029,-0.0566673,0.0727769,0,0,2.38,0.2975,-2.3625,0.153232,-0.102358,-0.938424,-0.07798,0.12404,0.48244
-9.30237,0,0,24.3024,24.3024,5.69763,5.69763,3.32227,1.53045,-2.48923,0.309122,0.121492,-0.26115,1,0,2.66,0.42,-2.0825,0.296948,0.07564,-1.26978,-0.07798,0.12404,0.48244
-9.31011,0,0,24.3101,24.3101,5.68989,5.68989,3.32504,1.53052,-2.49065,0.309121,0.121541,-0.261153,1,0,4.9525,-0.105,-1.8725,0.296948,0.07564,-1.26978,-0.07798,0.12404,0.48244
-9.31362,0,0,24.3136,24.3136,5.68638,5.68638,3.32629,1.53164,-2.49273,-0.158497,0.44874,-0.165009,1,0,4.1125,0.49,-2.2925,-0.17263,0.402478,-1.17437,-0.07798,0.12404,0.48244
-9.31467,0,0,24.3147,24.3147,5.68533,5.68533,3.32667,1.5324,-2.49477,-0.15851,0.448746,-0.16501,1,0,3.6225,0.28,-2.2575,-0.17263,0.402478,-1.17437,-0.07518,0.12936,0.47726
-8.75345,0,0,23.7535,23.7535,6.24655,6.24655,3.12623,1.73497,-2.67199,0.17763,0.206125,0.0550411,0,0,3.885,-0.175,-1.9075,0.168482,0.163602,-0.956114,-0.07518,0.12936,0.47726
-8.20174,0,0,23.2017,23.2017,6.79826,6.79826,2.92919,1.93344,-2.85067,0.174167,0.202687,0.0551119,0,0,4.06,-0.455,-2.275,0.168482,0.163602,-0.956114,-0.07518,0.12936,0.47726
-6.89266,0,0,21.8927,21.8927,8.10734,8.10734,2.46166,1.98786,-2.93337,0.0462657,0.493994,0.110421,0,0,5.1975,-0.6825,-2.24,0.040992,0.462746,-0.90158,-0.07518,0.12936,0.47726
-5.59836,0,0,20.5984,20.5984,9.40164,9.40164,1.99941,2.04263,-3.01542,0.0453102,0.485936,0.110701,0,0,4.3575,0.14,-1.5225,0.040992,0.462746,-0.90158,-0.07518,0.12936,0.47726
-5.60421,0,0,20.6042,20.6042,9.39579,9.39579,2.0015,2.04294,-3.01533,0.018578,0.139865,-0.204294,1,0,4.55,0.0875,-0.9975,0.014152,0.116998,-1.21414,-0.07518,0.12936,0.47726
-5.59377,0,0,20.5938,20.5938,9.40623,9.40623,1.99778,2.04335,-3.01554,0.0185708,0.1398,-0.204292,1,0,1.295,0.14,-1.1725,0.014152,0.116998,-1.21414,-0.07518,0.12936,0.47726
-5.11301,0,0,20.113,20.113,9.88699,9.88699,1.82608,1.9789,-2.96812,-0.0613358,0.182606,-0.0569836,0,0,0.245,-0.21,-1.225,-0.067222,0.162748,-1.06811,-0.07518,0.12936,0.47726
-4.63277,0,0,19.6328,19.6328,10.3672,10.3672,1.65456,1.91352,-2.91608,-0.0601955,0.179617,-0.056854,0,0,-1.2775,-0.875,-0.5425,-0.067222,0.162748,-1.06811,-0.08064,0.12796,0.47992
-5.31348,0,0,20.3135,20.3135,9.68652,9.68652,1.89767,1.44031,-2.47161,-0.432433,-0.251396,0.143293,0,0,-0.175,-0.8575,0.56,-0.449326,-0.27206,-0.869616,-0.08064,0.12796,0.47992
-5.98294,0,0,20.9829,20.9829,9.01706,9.01706,2.13676,0.974974,-2.03206,-0.424313,-0.247221,0.143318,0,0,-0.175,-0.8575,0.56,-0.449326,-0.27206,-0.869616,-0.08064,0.12796,0.47992
-5.54965,0,0,20.5496,20.5496,9.45035,9.45035,1.98202,0.771274,-1.83943,-0.18459,0.164581,0.00908601,0,0,3.57,-0.385,0.8575,-0.212158,0.142008,-1.00296,-0.08064,0.12796,0.47992
-5.1276,0,0,20.1276,20.1276,9.8724,9.8724,1.83129,0.571674,-1.64615,-0.181107,0.161953,0.00921433,0,0,4.48,-0.1575,0.805,-0.212158,0.142008,-1.00296,-0.08064,0.12796,0.47992
-5.12862,0,0,20.1286,20.1286,9.87138,9.87138,1.83165,0.572058,-1.64375,0.274822,-0.00376681,0.17126,1,0,3.57,0.175,0.35,0.245708,-0.023546,-0.842166,-0.08064,0.12796,0.47992
-5.12607,0,0,20.1261,20.1261,9.87393,9.87393,1.83074,0.571081,-1.64082,0.274839,-0.00378271,0.171261,1,0,2.8525,-0.6125,0.6825,0.245708,-0.023546,-0.842166,-0.08064,0.12796,0.47992
-4.39476,0,0,19.3948,19.3948,10.6052,10.6052,1.56956,0.699829,-1.74715,0.115147,0.254843,0.104856,0,0,2.7825,-0.385,-4.3225,0.087596,0.239364,-0.908168,-0.08064,0.12796,0.47992
-3.68427,0,0,18.6843,18.6843,11.3157,11.3157,1.31581,0.823791,-1.84289,0.112984,0.250416,0.104939,0,0,4.55,-0.3675,-0.3675,0.087596,0.239364,-0.908168,-0.0749,0.12362,0.48034
-2.81695,0,0,17.817,17.817,12.183,12.183,1.00606,0.832275,-1.84205,0.0133387,0.310105,0.0948414,0,0,4.0775,0.4375,-0.595,-0.012322,0.30439,-0.918294,-0.0749,0.12362,0.48034
-1.96242,0,0,16.9624,16.9624,13.0376,13.0376,0.700863,0.84098,-1.84209,0.0131868,0.304779,0.0949186,0,0,3.92,0.595,-1.155,-0.012322,0.30439,-0.918294,-0.0749,0.12362,0.48034
-1.96394,0,0,16.9639,16.9639,13.0361,13.0361,0.701409,0.8416,-1.8429,-0.00310315,0.0825182,0.203974,1,0,3.6925,0.2625,-1.5225,-0.02867,0.08235,-0.81008,-0.0749,0.12362,0.48034
