pid_x,pid_y,pid_z,front_left_speed,front_right_speed,back_left_speed,back_right_speed,orientation_x,orientation_y,orientation_z,acceleration_x,acceleration_y,acceleration_z,accel_rejected,mag_rejected,ahrs_initialized,gyro_x,gyro_y,gyro_z,accel_x,accel_y,accel_z,mag_x,mag_y,mag_z
0.0162568,0,0,9.98374,9.98374,10.0163,10.0163,-0.00903158,0.00556345,0.966362,0.00565661,0.00551525,0.00301264,0,0,0,4.41,1.26,-0.77,-0.034526,0.017812,-1.00967,-0.17486,-0.2569,0.33012
0.0391899,0,0,9.96081,9.96081,10.0392,10.0392,-0.0217722,0.0057254,1.929,0.00395298,0.00785754,0.00325848,0,0,0,4.55,1.47,-0.63,-0.036234,0.020374,-1.00943,-0.17486,-0.2569,0.33012
0.0614467,0,0,9.93855,9.93855,10.0614,10.0614,-0.0341371,0.00597656,2.88533,0.0039486,0.00764173,0.00325837,0,0,0,4.62,1.4,-0.77,-0.036234,0.020374,-1.00943,-0.17486,-0.2569,0.33012
0.0759984,0,0,9.924,9.924,10.076,10.076,-0.0422213,0.0127173,3.83202,0.00577472,0.00493598,0.00116813,0,0,0,4.48,1.47,-1.19,-0.034282,0.017812,-1.0115,-0.17486,-0.2569,0.33012
0.090227,0,0,9.90977,9.90977,10.0902,10.0902,-0.0501261,0.0193705,4.77227,0.0056586,0.00479801,0.00116799,0,0,0,4.48,1.47,-1.19,-0.034282,0.017812,-1.0115,-0.17486,-0.2569,0.33012
0.110904,0,0,9.8891,9.8891,10.1109,10.1109,-0.0616131,0.0249392,5.69791,0.00629032,0.00691793,0.00596275,0,0,0,4.55,1.33,-0.91,-0.03355,0.02013,-1.00674,-0.17514,-0.25522,0.33474
0.124148,0,0,9.87585,9.87585,10.1241,10.1241,-0.068971,0.0325558,6.61617,0.00615739,0.00422485,0.000183955,0,0,0,4.27,1.12,-1.05,-0.03355,0.017568,-1.01248,-0.17514,-0.25522,0.33474
0.137074,0,0,9.86293,9.86293,10.1371,10.1371,-0.076152,0.040043,7.52747,0.00602671,0.00409952,0.000183713,0,0,0,4.27,1.12,-1.05,-0.03355,0.017568,-1.01248,-0.17514,-0.25522,0.33474
0.148483,0,0,9.85152,9.85152,10.1485,10.1485,-0.0824904,0.0471086,8.43178,0.00541745,0.00362251,0.00706858,0,0,0,4.34,1.26,-1.05,-0.034038,0.017202,-1.00565,-0.17514,-0.25522,0.33474
0.174045,0,0,9.82596,9.82596,10.174,10.174,-0.0966915,0.0557584,9.3259,0.00842511,0.00789335,0.000674737,0,0,0,4.06,1.26,-0.91,-0.030866,0.021716,-1.01199,-0.17514,-0.25522,0.33474
0.198309,0,0,9.80169,9.80169,10.1983,10.1983,-0.110172,0.0644796,10.2129,0.0082729,0.00765808,0.000674153,0,0,0,4.27,1.33,-0.7,-0.030866,0.021716,-1.01199,-0.17514,-0.25522,0.33474
0.220253,0,0,9.77975,9.77975,10.2203,10.2203,-0.122363,0.0643995,11.0985,0.00305041,0.00659041,0.0028868,0,0,0,4.2,1.54,-0.56,-0.036112,0.020862,-1.00979,-0.17514,-0.25522,0.33474
0.240563,0,0,9.75944,9.75944,10.2406,10.2406,-0.133646,0.0633348,11.9759,0.00306899,0.00639348,0.00288638,0,0,0,4.55,0.84,-0.7,-0.036112,0.020862,-1.00979,-0.17514,-0.25522,0.33474
0.260196,0,0,9.7398,9.7398,10.2602,10.2602,-0.144553,0.0710853,12.8377,0.00730721,0.00632525,0.00632831,0,0,0,4.55,1.05,-0.98,-0.03172,0.020984,-1.00638,-0.175,-0.25256,0.3325
0.275128,0,0,9.72487,9.72487,10.2751,10.2751,-0.152849,0.0772189,13.6933,0.00562084,0.00483707,0.0020246,0,0,0,4.55,1.19,-0.77,-0.033306,0.019642,-1.01065,-0.175,-0.25256,0.3325
0.289233,0,0,9.71077,9.71077,10.2892,10.2892,-0.160685,0.0832889,14.5405,0.0055149,0.00470031,0.00202408,0,0,0,4.69,1.19,-0.84,-0.033306,0.019642,-1.01065,-0.175,-0.25256,0.3325
0.299525,0,0,9.70047,9.70047,10.2995,10.2995,-0.166403,0.0859467,15.3813,0.00291731,0.00325711,0.00472859,0,0,0,4.55,1.33,-1.19,-0.035868,0.0183,-1.00796,-0.175,-0.25256,0.3325
0.309555,0,0,9.69045,9.69045,10.3096,10.3096,-0.171975,0.0886158,16.2138,0.00287073,0.00315986,0.00472823,0,0,0,4.55,1.33,-1.19,-0.035868,0.0183,-1.00796,-0.175,-0.25256,0.3325
0.32836,0,0,9.67164,9.67164,10.3284,10.3284,-0.182422,0.084805,17.0414,0.000871983,0.00554219,0.00853917,0,0,0,4.55,1.19,-0.84,-0.037942,0.020862,-1.00418,-0.175,-0.25256,0.3325
0.346672,0,0,9.65333,9.65333,10.3467,10.3467,-0.192595,0.081305,17.8605,0.000933069,0.00536463,0.00853868,0,0,0,4.55,1.19,-0.84,-0.037942,0.020862,-1.00418,-0.175,-0.25256,0.3325
0.359591,0,0,9.64041,9.64041,10.3596,10.3596,-0.199773,0.0886954,18.6641,0.00602797,0.0040181,0.00275948,0,0,0,4.41,0.98,-0.91,-0.032696,0.019642,-1.00992,-0.175,-0.25256,0.3325
0.372145,0,0,9.62786,9.62786,10.3721,10.3721,-0.206747,0.095986,19.4594,0.00590072,0.00389638,0.00275885,0,0,0,4.41,0.98,-0.91,-0.032696,0.019642,-1.00992,-0.17822,-0.2548,0.33292
0.384759,0,0,9.61524,9.61524,10.3848,10.3848,-0.213755,0.104317,20.2454,0.00624127,0.00414045,0.000668018,0,0,0,4.62,1.33,-0.91,-0.032208,0.020008,-1.01199,-0.17822,-0.2548,0.33292
0.397033,0,0,9.60297,9.60297,10.397,10.397,-0.220574,0.11249,21.0226,0.00609861,0.00402144,0.000667297,0,0,0,4.62,1.33,-0.91,-0.032208,0.020008,-1.01199,-0.17822,-0.2548,0.33292
0.395825,0,0,9.60418,9.60418,10.3958,10.3958,-0.219903,0.1231,21.7898,0.00554898,0.000369352,0.0055849,0,0,0,4.83,1.33,-0.77,-0.032574,0.016348,-1.00711,-0.17822,-0.2548,0.33292
0.408783,0,0,9.59122,9.59122,10.4088,10.4088,-0.227102,0.125448,22.5526,0.00295681,0.00390751,0.0077974,0,0,0,4.62,1.4,-0.63,-0.035136,0.020008,-1.00491,-0.17822,-0.2548,0.33292
0.422058,0,0,9.57794,9.57794,10.4221,10.4221,-0.234476,0.127363,23.3058,0.00292337,0.00377879,0.0077968,0,0,0,4.41,1.12,-0.98,-0.035136,0.020008,-1.00491,-0.17822,-0.2548,0.33292
0.440299,0,0,9.5597,9.5597,10.4403,10.4403,-0.244611,0.132957,24.0478,0.00549842,0.00531169,0.00127957,0,0,0,4.34,1.19,-0.98,-0.032452,0.021716,-1.01138,-0.17822,-0.2548,0.33292
0.45756,0,0,9.54244,9.54244,10.4576,10.4576,-0.2542,0.13913,24.7802,0.0053907,0.00514433,0.00127859,0,0,0,4.48,1.54,-1.33,-0.032452,0.021716,-1.01138,-0.17822,-0.2548,0.33292
0.466823,0,0,9.53318,9.53318,10.4668,10.4668,-0.259346,0.141418,25.5116,0.00231361,0.00248985,0.0041059,0,0,0,4.27,1.33,-1.12,-0.035502,0.019154,-1.00857,-0.1729,-0.25494,0.3332
0.472944,0,0,9.52706,9.52706,10.4729,10.4729,-0.262747,0.145663,26.2332,0.00308993,0.00157562,0.00250712,0,0,0,4.13,1.12,-0.7,-0.034648,0.0183,-1.01016,-0.1729,-0.25494,0.3332
0.478211,0,0,9.52179,9.52179,10.4782,10.4782,-0.265673,0.14982,26.9457,0.00301738,0.00152455,0.00250669,0,0,0,4.34,1.12,-0.84,-0.034648,0.0183,-1.01016,-0.1729,-0.25494,0.3332
0.481632,0,0,9.51837,9.51837,10.4816,10.4816,-0.267573,0.156906,27.6472,0.00423005,0.00112501,0.00287505,0,0,0,4.34,1.26,-0.91,-0.033306,0.017934,-1.00979,-0.1729,-0.25494,0.3332
0.484284,0,0,9.51572,9.51572,10.4843,10.4843,-0.269047,0.164145,28.34,0.0041037,0.00109929,0.00287458,0,0,0,4.55,1.47,-0.84,-0.033306,0.017934,-1.00979,-0.1729,-0.25494,0.3332
0.478501,0,0,9.5215,9.5215,10.4785,10.4785,-0.265834,0.175863,29.0206,0.00535701,-0.00104292,0.00791512,0,0,0,4.55,1.54,-0.98,-0.031842,0.015738,-1.00479,-0.1729,-0.25494,0.3332
0.472711,0,0,9.52729,9.52729,10.4727,10.4727,-0.262617,0.186902,29.6924,0.00516435,-0.000986776,0.00791477,0,0,0,4.62,1.4,-0.98,-0.031842,0.015738,-1.00479,-0.1729,-0.25494,0.3332
0.47326,0,0,9.52674,9.52674,10.4733,10.4733,-0.262922,0.199296,30.3544,0.00677032,0.000717686,0.00299608,0,0,0,4.48,1.33,-0.91,-0.030012,0.017446,-1.00967,-0.1729,-0.25494,0.3332
0.473942,0,0,9.52606,9.52606,10.4739,10.4739,-0.263301,0.21151,31.0004,0.00655714,0.000711075,0.00299528,0,0,0,4.41,1.4,-0.7,-0.030012,0.017446,-1.00967,-0.18088,-0.25536,0.33068
0.482575,0,0,9.51742,9.51742,10.4826,10.4826,-0.268097,0.213205,31.6432,0.00203259,0.00258139,0.00680619,0,0,0,4.69,1.26,-0.77,-0.034526,0.019398,-1.00589,-0.18088,-0.25536,0.33068
0.491168,0,0,9.50883,9.50883,10.4912,10.4912,-0.272871,0.214564,32.277,0.00200887,0.00249808,0.00680571,0,0,0,4.62,1.05,-0.84,-0.034526,0.019398,-1.00589,-0.18088,-0.25536,0.33068
0.468152,0,0,9.53185,9.53185,10.4682,10.4682,-0.260084,0.252589,32.8809,0.0178673,-0.00436209,0.00717288,0,0,0,4.34,1.26,-0.63,-0.017934,0.012322,-1.00552,-0.18088,-0.25536,0.33068
0.446268,0,0,9.55373,9.55373,10.4463,10.4463,-0.247927,0.289031,33.4759,0.0172312,-0.0041499,0.00717082,0,0,0,4.27,1.19,-0.98,-0.017934,0.012322,-1.00552,-0.18088,-0.25536,0.33068
0.527768,0,0,9.47223,9.47223,10.5278,10.5278,-0.293204,0.341874,34.0591,0.041821,0.0266907,-0.0686972,0,0,0,4.41,1.26,-0.84,0.007686,0.04392,-1.0808,-0.18088,-0.25536,0.33068
0.605668,0,0,9.39433,9.39433,10.6057,10.6057,-0.336482,0.393675,34.634,0.0409169,0.0259354,-0.0687072,0,0,0,4.76,1.26,-1.05,0.007686,0.04392,-1.0808,-0.18088,-0.25536,0.33068
1.19933,0,0,8.80067,8.80067,11.1993,11.1993,-0.666295,0.248358,35.3323,-0.0114584,0.153786,-0.00653139,0,0,0,4.97,1.12,-1.12,-0.047458,0.177388,-1.01907,-0.18088,-0.25536,0.33068
1.77312,0,0,8.22688,8.22688,11.7731,11.7731,-0.985065,0.115264,36.0164,-0.00913551,0.148223,-0.00660419,0,0,0,3.99,1.05,-1.33,-0.047458,0.177388,-1.01907,-0.17472,-0.24738,0.34062
2.19102,0,0,7.80898,7.80898,12.191,12.191,-1.21723,0.0303716,36.6641,-2.60907e-07,0.0998395,0.0567612,0,0,0,4.62,0.98,-1.4,-0.039772,0.133102,-0.956114,-0.17472,-0.24738,0.34062
2.5951,0,0,7.4049,7.4049,12.5951,12.5951,-1.44172,-0.0481181,37.3049,0.00136964,0.0959225,0.0566701,0,0,0,4.55,1.12,-1.19,-0.039772,0.133102,-0.956114,-0.17472,-0.24738,0.34062
3.11762,0,0,6.88238,6.88238,13.1176,13.1176,-1.73201,-0.0856683,37.9297,0.032275,0.114306,0.134355,0,0,0,4.27,1.61,-1.05,-0.009394,0.156526,-0.878888,-0.17472,-0.24738,0.34062
3.11939,0,0,6.88061,6.88061,13.1194,13.1194,-1.733,-0.0842289,37.9297,0.0322498,0.114289,0.134355,1,0,0,3.92,2.1,-0.91,-0.009394,0.156526,-0.878888,-0.17472,-0.24738,0.34062
3.87717,0,0,6.12283,6.12283,13.8772,13.8772,-2.15398,-0.0179003,38.5099,0.110422,0.179733,0.116033,0,0,0,3.85,1.82,-1.12,0.070272,0.229238,-0.896822,-0.17472,-0.24738,0.34062
4.61134,0,0,5.38866,5.38866,14.6113,14.6113,-2.56186,0.0506141,39.0854,0.109227,0.172621,0.11574,0,0,0,3.71,1.05,-1.19,0.070272,0.229238,-0.896822,-0.17472,-0.24738,0.34062
4.74244,0,0,5.25756,5.25756,14.7424,14.7424,-2.63469,-0.0292806,39.6896,-0.0287231,0.0229668,0.0896177,0,0,0,4.13,1.33,-0.98,-0.069662,0.081008,-0.922686,-0.17472,-0.24738,0.34062
4.86923,0,0,5.13077,5.13077,14.8692,14.8692,-2.70513,-0.105392,40.2776,-0.0273947,0.0217388,0.0895589,0,0,0,4.06,1.54,-0.42,-0.069662,0.081008,-0.922686,-0.17878,-0.24444,0.33726
3.49837,0,0,6.50163,6.50163,13.4984,13.4984,-1.94354,-0.451586,40.7495,-0.591971,-0.620189,-0.487789,0,0,0,4.55,1.68,-0.28,-0.642696,-0.573522,-1.49609,-0.17878,-0.24444,0.33726
3.495,0,0,6.505,6.505,13.495,13.495,-1.94167,-0.45308,40.7512,-0.591945,-0.620156,-0.487788,1,0,0,5.53,0.35,0,-0.642696,-0.573522,-1.49609,-0.17878,-0.24444,0.33726
3.49521,0,0,6.50479,6.50479,13.4952,13.4952,-1.94178,-0.452466,40.7832,0.00952013,-0.0423768,-0.344553,1,0,0,4.55,0.98,17.78,-0.038674,0.00366,-1.35396,-0.17878,-0.24444,0.33726
3.49253,0,0,6.50747,6.50747,13.4925,13.4925,-1.9403,-0.451168,40.7861,0.00949747,-0.0423509,-0.344552,1,0,0,5.32,1.96,0.77,-0.038674,0.00366,-1.35396,-0.17878,-0.24444,0.33726
3.39558,0,0,6.60442,6.60442,13.3956,13.3956,-1.88644,-0.683762,41.4023,-0.147412,-0.0383569,-0.0124772,0,0,0,4.55,2.45,0.98,-0.200324,0.00671,-1.02443,-0.17878,-0.24444,0.33726
3.30491,0,0,6.69509,6.69509,13.3049,13.3049,-1.83606,-0.910606,42.0076,-0.143453,-0.0374764,-0.0125037,0,0,0,3.29,1.96,0.91,-0.200324,0.00671,-1.02443,-0.17878,-0.24444,0.33726
3.91974,0,0,6.08026,6.08026,13.9197,13.9197,-2.17763,-1.52232,42.855,-0.260339,0.107402,0.132386,0,0,0,4.27,0,0.42,-0.328424,0.15738,-0.88023,-0.17878,-0.24444,0.33726
4.50987,0,0,5.49013,5.49013,14.5099,14.5099,-2.50549,-2.10587,43.6848,-0.250159,0.1017,0.13183,0,0,0,4.13,1.47,0.42,-0.328424,0.15738,-0.88023,-0.17962,-0.24052,0.34524
4.50506,0,0,5.49494,5.49494,14.5051,14.5051,-2.50281,-2.10504,43.6871,0.13445,0.338551,0.296092,1,0,0,6.02,1.68,0.42,0.057828,0.393938,-0.717238,-0.17962,-0.24052,0.34524
4.50433,0,0,5.49567,5.49567,14.5043,14.5043,-2.50241,-2.10396,43.69,0.134431,0.338558,0.296093,1,0,0,4.76,1.82,0.77,0.057828,0.393938,-0.717238,-0.17962,-0.24052,0.34524
4.49832,0,0,5.50168,5.50168,14.4983,14.4983,-2.49907,-2.1051,43.6912,0.151823,-0.107025,0.266464,1,0,0,6.37,0.56,-0.28,0.075274,-0.05124,-0.74664,-0.17962,-0.24052,0.34524
4.49231,0,0,5.50769,5.50769,14.4923,14.4923,-2.49573,-2.10623,43.6923,0.151843,-0.106966,0.266466,1,0,0,6.37,0.56,-0.28,0.075274,-0.05124,-0.74664,-0.17962,-0.24052,0.34524
4.49361,0,0,5.50639,5.50639,14.4936,14.4936,-2.49645,-2.10673,43.6919,-0.0890543,0.0238188,0.130607,1,0,0,4.06,0.98,-1.19,-0.166652,0.079422,-0.88145,-0.17962,-0.24052,0.34524
4.49491,0,0,5.50509,5.50509,14.4949,14.4949,-2.49717,-2.10722,43.6915,-0.0890457,0.0238063,0.130606,1,0,0,4.06,0.98,-1.19,-0.166652,0.079422,-0.88145,-0.17962,-0.24052,0.34524
4.50665,0,0,5.49335,5.49335,14.5067,14.5067,-2.5037,-2.10444,43.6893,-0.0697779,0.208104,-0.0679587,1,0,0,0.77,2.94,-2.17,-0.147254,0.263642,-1.07848,-0.17962,-0.24052,0.34524
4.5184,0,0,5.4816,5.4816,14.5184,14.5184,-2.51022,-2.10166,43.687,-0.0698264,0.20799,-0.0679619,1,0,0,0.77,2.94,-2.17,-0.147254,0.263642,-1.07848,-0.17962,-0.24052,0.34524
4.52012,0,0,5.47988,5.47988,14.5201,14.5201,-2.51118,-2.10136,43.6829,-0.000949204,-0.066079,-0.155256,1,0,0,3.85,1.54,-3.36,-0.07808,-0.010126,-1.1651,-0.17514,-0.23394,0.33712
4.51577,0,0,5.48423,5.48423,14.5158,14.5158,-2.50876,-2.10239,43.6785,0.0882391,0.0167651,-0.230499,1,0,0,5.74,0.77,-3.5,0.011468,0.07259,-1.23976,-0.17514,-0.23394,0.33712
4.51142,0,0,5.48858,5.48858,14.5114,14.5114,-2.50634,-2.10341,43.6742,0.088257,0.0168073,-0.230498,1,0,0,5.74,0.77,-3.5,0.011468,0.07259,-1.23976,-0.17514,-0.23394,0.33712
4.50415,0,0,5.49585,5.49585,14.5042,14.5042,-2.50231,-2.10251,43.67,-0.138208,0.0961378,0.13995,1,0,0,6.65,1.89,-3.36,-0.21594,0.151768,-0.872178,-0.17514,-0.23394,0.33712
4.49689,0,0,5.50311,5.50311,14.4969,14.4969,-2.49827,-2.10161,43.6658,-0.138224,0.0962081,0.139953,1,0,0,6.65,1.89,-3.36,-0.21594,0.151768,-0.872178,-0.17514,-0.23394,0.33712
4.49657,0,0,5.50343,5.50343,14.4966,14.4966,-2.4981,-2.10348,43.6613,0.0537562,0.182311,0.349948,1,0,0,4.48,0.28,-3.57,-0.02318,0.237778,-0.663802,-0.17514,-0.23394,0.33712
4.49626,0,0,5.50374,5.50374,14.4963,14.4963,-2.49792,-2.10534,43.6569,0.0537887,0.182314,0.349947,1,0,0,4.48,0.28,-3.57,-0.02318,0.237778,-0.663802,-0.17514,-0.23394,0.33712
3.94324,0,0,6.05676,6.05676,13.9432,13.9432,-2.19069,-2.00803,44.013,0.00264675,-0.1262,0.0989204,0,0,0,3.29,1.61,-2.59,-0.072834,-0.075762,-0.91317,-0.1799,-0.23562,0.3395
3.95128,0,0,6.04872,6.04872,13.9513,13.9513,-2.19516,-2.00577,44.0126,-0.0863202,-0.0817019,-0.150913,1,0,0,1.96,2.59,-1.12,-0.162138,-0.031232,-1.16107,-0.1799,-0.23562,0.3395
3.95932,0,0,6.04068,6.04068,13.9593,13.9593,-2.19962,-2.00351,44.0122,-0.0863597,-0.0817799,-0.150914,1,0,0,1.96,2.59,-1.12,-0.162138,-0.031232,-1.16107,-0.1799,-0.23562,0.3395
3.96099,0,0,6.03901,6.03901,13.961,13.961,-2.20055,-2.00415,44.014,-0.25412,-0.164354,-0.2537,1,0,0,3.99,0.84,0.07,-0.33062,-0.113704,-1.26307,-0.1799,-0.23562,0.3395
3.96265,0,0,6.03735,6.03735,13.9627,13.9627,-2.20147,-2.0048,44.0157,-0.254109,-0.16437,-0.253701,1,0,0,3.99,0.84,0.07,-0.33062,-0.113704,-1.26307,-0.1799,-0.23562,0.3395
3.36321,0,0,6.63679,6.63679,13.3632,13.3632,-1.86845,-1.92459,44.3674,-0.0110787,-0.139637,0.0514654,0,0,0,7.49,1.26,0.84,-0.085156,-0.094794,-0.960506,-0.1799,-0.23562,0.3395
2.78649,0,0,7.21351,7.21351,12.7865,12.7865,-1.54805,-1.85146,44.714,-0.0123544,-0.134051,0.0516741,0,0,0,7.49,1.26,0.84,-0.085156,-0.094794,-0.960506,-0.1799,-0.23562,0.3395
2.78653,0,0,7.21347,7.21347,12.7865,12.7865,-1.54807,-1.85324,44.7189,0.131759,-0.0947268,0.372815,1,0,0,4.55,0.14,1.89,0.059536,-0.05551,-0.641842,-0.1799,-0.23562,0.3395
2.78657,0,0,7.21343,7.21343,12.7866,12.7866,-1.54809,-1.85501,44.7238,0.13179,-0.0947272,0.372814,1,0,0,4.55,0.14,1.89,0.059536,-0.05551,-0.641842,-0.17304,-0.2317,0.34748
3.08113,0,0,6.91887,6.91887,13.0811,13.0811,-1.71174,-1.86378,45.2328,0.0235774,0.0746182,-0.00312621,0,0,0,4.48,1.54,1.26,-0.049288,0.11651,-1.0148,-0.17304,-0.2317,0.34748
3.36516,0,0,6.63484,6.63484,13.3652,13.3652,-1.86953,-1.87009,45.7348,0.0236874,0.0718671,-0.00321581,0,0,0,4.48,1.54,1.26,-0.049288,0.11651,-1.0148,-0.17304,-0.2317,0.34748
3.36744,0,0,6.63256,6.63256,13.3674,13.3674,-1.8708,-1.86886,45.7395,0.0107884,-0.137236,-0.17018,1,0,0,3.85,1.89,1.82,-0.06222,-0.092354,-1.18047,-0.17304,-0.2317,0.34748
3.36901,0,0,6.63099,6.63099,13.369,13.369,-1.87167,-1.86836,45.7436,0.0619252,-0.217,-0.186778,1,0,0,4.06,1.47,1.47,-0.010858,-0.17202,-1.19694,-0.17304,-0.2317,0.34748
3.36893,0,0,6.63107,6.63107,13.3689,13.3689,-1.87163,-1.86814,45.7464,0.0619214,-0.216999,-0.186778,1,0,0,4.55,1.33,0.7,-0.010858,-0.17202,-1.19694,-0.17304,-0.2317,0.34748
3.36252,0,0,6.63748,6.63748,13.3625,13.3625,-1.86807,-1.86902,45.7486,0.230073,0.0295146,0.19338,1,0,0,6.51,0.7,0.35,0.15799,0.074176,-0.819718,-0.17304,-0.2317,0.34748
3.35464,0,0,6.64536,6.64536,13.3546,13.3546,-1.86369,-1.86913,45.7488,0.230075,0.0295909,0.193383,1,0,0,6.93,1.19,-0.84,0.15799,0.074176,-0.819718,-0.17304,-0.2317,0.34748
3.35347,0,0,6.64653,6.64653,13.3535,13.3535,-1.86304,-1.86974,45.7483,0.0727615,-0.235291,0.293955,1,0,0,4.83,0.91,-1.26,0,-0.190442,-0.719922,-0.17304,-0.2317,0.34748
3.35538,0,0,6.64462,6.64462,13.3554,13.3554,-1.8641,-1.87074,45.7468,0.072779,-0.235309,0.293953,1,0,0,3.85,0.7,-1.82,0,-0.190442,-0.719922,-0.17682,-0.23128,0.33922
3.35572,0,0,6.64428,6.64428,13.3557,13.3557,-1.86429,-1.87198,45.7453,0.26985,0.261988,-0.0927204,1,0,0,4.34,0.56,-1.82,0.197884,0.306342,-1.10361,-0.17682,-0.23128,0.33922
3.35778,0,0,6.64222,6.64222,13.3578,13.3578,-1.86544,-1.87183,45.7425,0.269848,0.261968,-0.092721,1,0,0,3.78,1.4,-2.59,0.197884,0.306342,-1.10361,-0.17682,-0.23128,0.33922
3.36006,0,0,6.63994,6.63994,13.3601,13.3601,-1.8667,-1.87108,45.7395,0.196093,-0.181985,-0.238661,1,0,0,3.71,1.75,-2.66,0.12383,-0.137128,-1.24843,-0.17682,-0.23128,0.33922
3.36186,0,0,6.63814,6.63814,13.3619,13.3619,-1.8677,-1.86892,45.736,0.196055,-0.182002,-0.23866,1,0,0,3.85,2.59,-2.94,0.12383,-0.137128,-1.24843,-0.17682,-0.23128,0.33922
3.38718,0,0,6.61282,6.61282,13.3872,13.3872,-1.88177,-2.03267,46.2479,-0.090346,-0.00406167,0.0282784,0,0,0,4.69,1.96,-3.29,-0.166652,0.04087,-0.983442,-0.17682,-0.23128,0.33922
3.40723,0,0,6.59277,6.59277,13.4072,13.4072,-1.8929,-2.19171,46.7511,-0.0875721,-0.0042524,0.0281698,0,0,0,5.74,1.61,-3.36,-0.166652,0.04087,-0.983442,-0.17682,-0.23128,0.33922
3.40421,0,0,6.59579,6.59579,13.4042,13.4042,-1.89123,-2.19089,46.7468,0.139592,-0.0518527,0.40132,1,0,0,5.32,1.82,-3.43,0.061488,-0.00671,-0.613172,-0.17682,-0.23128,0.33922
3.40229,0,0,6.59771,6.59771,13.4023,13.4023,-1.89016,-2.19212,46.7421,0.139613,-0.0518341,0.40132,1,0,0,4.97,0.63,-3.71,0.061488,-0.00671,-0.613172,-0.17668,-0.23716,0.3472
3.40041,0,0,6.59959,6.59959,13.4004,13.4004,-1.88912,-2.19381,46.7378,0.0148769,0.114521,0.21788,1,0,0,4.97,0.35,-3.43,-0.063806,0.159454,-0.795196,-0.17668,-0.23716,0.3472
3.40155,0,0,6.59845,6.59845,13.4015,13.4015,-1.88975,-2.19557,46.7351,0.0149076,0.11451,0.217879,1,0,0,4.06,0.28,-2.59,-0.063806,0.159454,-0.795196,-0.17668,-0.23716,0.3472
2.98535,0,0,7.01465,7.01465,12.9854,12.9854,-1.65853,-2.4229,47.1863,-0.169431,-0.117648,0.0310848,0,0,0,4.69,0.21,-2.31,-0.252906,-0.076494,-0.980514,-0.17668,-0.23716,0.3472
2.58533,0,0,7.41467,7.41467,12.5853,12.5853,-1.43629,-2.64467,47.6292,-0.165564,-0.11377,0.0310184,0,0,0,3.99,1.26,-1.75,-0.252906,-0.076494,-0.980514,-0.17668,-0.23716,0.3472
2.40086,0,0,7.59914,7.59914,12.4009,12.4009,-1.33381,-2.33164,47.8807,0.164036,-0.0275995,0.0131023,0,0,0,3.99,2.03,-1.4,0.08357,0.007808,-0.99857,-0.17668,-0.23716,0.3472
2.22453,0,0,7.77547,7.77547,12.2245,12.2245,-1.23585,-2.03004,48.1302,0.158775,-0.025896,0.0133409,0,0,0,4.2,1.54,-0.91,0.08357,0.007808,-0.99857,-0.17668,-0.23716,0.3472
2.22677,0,0,7.77323,7.77323,12.2268,12.2268,-1.2371,-2.02871,48.1304,-0.0165516,0.160692,0.231083,1,0,0,3.78,2.03,-0.77,-0.092476,0.194224,-0.782508,-0.17668,-0.23716,0.3472
2.23018,0,0,7.76982,7.76982,12.2302,12.2302,-1.23899,-2.02642,48.1314,-0.0165917,0.160659,0.231084,1,0,0,3.43,2.59,-0.35,-0.092476,0.194224,-0.782508,-0.17766,-0.23142,0.34216
2.23068,0,0,7.76932,7.76932,12.2307,12.2307,-1.23926,-2.0246,48.1324,-0.116971,0.134641,0.344197,1,0,0,4.34,2.31,-0.35,-0.193248,0.168238,-0.670268,-0.17766,-0.23142,0.34216
2.23054,0,0,7.76946,7.76946,12.2305,12.2305,-1.23919,-2.02635,48.1341,-0.11694,0.134642,0.344196,1,0,0,4.55,0.21,0.07,-0.193248,0.168238,-0.670268,-0.17766,-0.23142,0.34216
2.66716,0,0,7.33284,7.33284,12.6672,12.6672,-1.48175,-1.9311,48.5597,0.0958207,0.110382,0.0509211,0,0,0,5.46,-0.56,0.14,0.022082,0.14823,-0.961238,-0.17766,-0.23142,0.34216
3.08597,0,0,6.91403,6.91403,13.086,13.086,-1.71443,-1.83453,48.9799,0.0941362,0.106324,0.0508632,0,0,0,6.3,0.21,0.35,0.022082,0.14823,-0.961238,-0.17766,-0.23142,0.34216
3.1212,0,0,6.8788,6.8788,13.1212,13.1212,-1.734,-1.96686,49.4263,-0.0788594,0.00352046,-0.0464759,0,0,0,6.3,0.7,0.28,-0.153964,0.045872,-1.05774,-0.17766,-0.23142,0.34216
3.16237,0,0,6.83763,6.83763,13.1624,13.1624,-1.75687,-2.09339,49.8652,-0.0766524,0.0031241,-0.0465662,0,0,0,3.78,1.54,0.35,-0.153964,0.045872,-1.05774,-0.17766,-0.23142,0.34216
3.16565,0,0,6.83435,6.83435,13.1656,13.1656,-1.75869,-2.09248,49.8675,0.0432381,0.162101,0.134905,1,0,0,3.5,1.75,0.42,-0.03355,0.204716,-0.877668,-0.17766,-0.23142,0.34216
3.17115,0,0,6.82885,6.82885,13.1711,13.1711,-1.76175,-2.0911,49.8694,0.043214,0.162048,0.134905,1,0,0,2.8,2.03,0.21,-0.03355,0.204716,-0.877668,-0.1778,-0.23478,0.34496
3.1755,0,0,6.8245,6.8245,13.1755,13.1755,-1.76417,-2.08865,49.871,0.122501,-0.107894,0.353507,1,0,0,3.15,2.66,0.07,0.046116,-0.064904,-0.660752,-0.1778,-0.23478,0.34496
3.17651,0,0,6.82349,6.82349,13.1765,13.1765,-1.76473,-2.08643,49.8731,0.122463,-0.107904,0.353508,1,0,0,4.2,2.52,0.28,0.046116,-0.064904,-0.660752,-0.1778,-0.23478,0.34496
3.17616,0,0,6.82384,6.82384,13.1762,13.1762,-1.76454,-2.08637,49.8749,0.296065,-0.0856737,0.201175,1,0,0,4.62,1.26,0.14,0.220454,-0.0427,-0.81191,-0.1778,-0.23478,0.34496
3.17127,0,0,6.82873,6.82873,13.1713,13.1713,-1.76182,-2.08801,49.876,0.296093,-0.0856262,0.201176,1,0,0,6.02,0.28,-0.35,0.220454,-0.0427,-0.81191,-0.1778,-0.23478,0.34496
3.16794,0,0,6.83206,6.83206,13.1679,13.1679,-1.75997,-2.08929,49.8769,0.175602,0.087826,-0.10054,1,0,0,5.53,0.49,-0.42,0.09943,0.13054,-1.1113,-0.1778,-0.23478,0.34496
3.16324,0,0,6.83676,6.83676,13.1632,13.1632,-1.75736,-2.08962,49.8775,0.175608,0.0878715,-0.100538,1,0,0,5.95,1.05,-0.56,0.09943,0.13054,-1.1113,-0.1778,-0.23478,0.34496
3.15834,0,0,6.84166,6.84166,13.1583,13.1583,-1.75463,-2.08994,49.8786,0.118515,0.0534792,-0.124881,1,0,0,6.02,1.05,-0.35,0.04209,0.096136,-1.13545,-0.1778,-0.23478,0.34496
3.15767,0,0,6.84233,6.84233,13.1577,13.1577,-1.75426,-2.09077,49.8789,0.118529,0.0534858,-0.124881,1,0,0,4.69,0.77,-0.77,0.04209,0.096136,-1.13545,-0.17472,-0.23506,0.34146
2.83086,0,0,7.16914,7.16914,12.8309,12.8309,-1.5727,-1.85584,50.1047,0.112974,-0.068899,-0.0382155,0,0,0,3.78,0.77,-1.05,0.040626,-0.02928,-1.04969,-0.17472,-0.23506,0.34146
2.51546,0,0,7.48454,7.48454,12.5155,12.5155,-1.39748,-1.62665,50.3279,0.108975,-0.0658463,-0.0380147,0,0,0,4.55,2.73,-0.98,0.040626,-0.02928,-1.04969,-0.17472,-0.23506,0.34146
2.49119,0,0,7.50881,7.50881,12.4912,12.4912,-1.384,-1.4647,50.6225,0.0868338,0.00180087,0.0812043,0,0,0,4.48,2.66,-1.05,0.021228,0.038064,-0.93147,-0.17472,-0.23506,0.34146
2.46681,0,0,7.53319,7.53319,12.4668,12.4668,-1.37045,-1.30782,50.9118,0.0840965,0.00203555,0.0812762,0,0,0,5.11,2.66,-1.61,0.021228,0.038064,-0.93147,-0.17472,-0.23506,0.34146
2.46516,0,0,7.53484,7.53484,12.4652,12.4652,-1.36953,-1.3063,50.9104,0.114806,-0.101146,-0.125276,1,0,0,4.97,2.17,-1.75,0.052094,-0.065026,-1.13643,-0.17472,-0.23506,0.34146
2.46238,0,0,7.53762,7.53762,12.4624,12.4624,-1.36799,-1.30741,50.9088,0.114825,-0.101119,-0.125276,1,0,0,5.32,0.63,-1.89,0.052094,-0.065026,-1.13643,-0.17472,-0.23506,0.34146
2.45978,0,0,7.54022,7.54022,12.4598,12.4598,-1.36654,-1.30902,50.9063,-0.0744215,-0.11355,-0.176054,1,0,0,5.25,0.35,-2.45,-0.137982,-0.07747,-1.18682,-0.17472,-0.23506,0.34146
2.45919,0,0,7.54081,7.54081,12.4592,12.4592,-1.36622,-1.31099,50.9033,-0.074387,-0.113545,-0.176055,1,0,0,4.62,0.14,-2.66,-0.137982,-0.07747,-1.18682,-0.17472,-0.23506,0.34146
2.45994,0,0,7.54006,7.54006,12.4599,12.4599,-1.36663,-1.31333,50.9003,0.0280662,0.08869,-0.102287,1,0,0,4.2,-0.07,-2.73,-0.035136,0.124562,-1.11362,-0.17626,-0.23814,0.3318
2.46272,0,0,7.53728,7.53728,12.4627,12.4627,-1.36818,-1.31507,50.8974,-0.0134515,-0.00793915,0.176068,1,0,0,3.57,0.28,-2.66,-0.07686,0.02806,-0.837408,-0.17626,-0.23814,0.3318
2.4617,0,0,7.5383,7.5383,12.4617,12.4617,-1.36761,-1.31405,50.895,-0.0134694,-0.00792929,0.176068,1,0,0,4.76,1.89,-2.31,-0.07686,0.02806,-0.837408,-0.17626,-0.23814,0.3318
2.45934,0,0,7.54066,7.54066,12.4593,12.4593,-1.3663,-1.31266,50.8926,0.036923,0.00296291,0.21197,1,0,0,5.18,2.1,-2.31,-0.02623,0.038918,-0.801784,-0.17626,-0.23814,0.3318
2.46039,0,0,7.53961,7.53961,12.4604,12.4604,-1.36688,-1.31233,50.8914,0.0369172,0.00295273,0.21197,1,0,0,4.13,1.47,-1.68,-0.02623,0.038918,-0.801784,-0.17626,-0.23814,0.3318
2.17208,0,0,7.82792,7.82792,12.1721,12.1721,-1.20671,-1.23073,51.1591,0.0226159,-0.0671635,-0.00248065,0,0,0,3.5,1.33,-1.47,-0.039162,-0.033916,-1.01467,-0.17626,-0.23814,0.3318
1.8947,0,0,8.1053,8.1053,11.8947,11.8947,-1.05261,-1.15321,51.4228,0.0212633,-0.0644756,-0.0023995,0,0,0,3.71,1.47,-1.4,-0.039162,-0.033916,-1.01467,-0.17626,-0.23814,0.3318
1.89379,0,0,8.10621,8.10621,11.8938,11.8938,-1.0521,-1.15476,51.423,0.235105,-0.091701,-0.0919064,1,0,0,4.76,0.35,-0.84,0.175558,-0.061122,-1.10349,-0.17738,-0.24416,0.3409
1.8922,0,0,8.1078,8.1078,11.8922,11.8922,-1.05122,-1.15726,51.4233,-0.220544,-0.067871,-0.182151,1,0,0,4.97,-0.21,-0.77,-0.282064,-0.037332,-1.19304,-0.17738,-0.24416,0.3409
1.89155,0,0,8.10845,8.10845,11.8915,11.8915,-1.05086,-1.15831,51.4243,-0.220526,-0.0678646,-0.182151,1,0,0,4.69,0.63,-0.35,-0.282064,-0.037332,-1.19304,-0.17738,-0.24416,0.3409
1.43332,0,0,8.56668,8.56668,11.4333,11.4333,-0.796286,-1.14556,51.6753,-0.0272216,-0.103236,0.105255,0,0,0,4.27,1.54,-0.21,-0.087718,-0.077104,-0.907924,-0.17738,-0.24416,0.3409
0.992168,0,0,9.00783,9.00783,10.9922,10.9922,-0.551205,-1.13542,51.9227,-0.0273985,-0.09896,0.105309,0,0,0,4.48,1.96,0.07,-0.087718,-0.077104,-0.907924,-0.17738,-0.24416,0.3409
0.99335,0,0,9.00665,9.00665,10.9934,10.9934,-0.551861,-1.13539,51.9249,-0.0214462,0.0365892,0.222479,1,0,0,4.13,1.26,0.35,-0.08174,0.058316,-0.791658,-0.17738,-0.24416,0.3409
0.997453,0,0,9.00255,9.00255,10.9975,10.9975,-0.55414,-1.13346,51.927,-0.02148,0.0365494,0.222479,1,0,0,3.22,2.38,0.35,-0.08174,0.058316,-0.791658,-0.17738,-0.24416,0.3409
0.873568,0,0,9.12643,9.12643,10.8736,10.8736,-0.485315,-0.756986,52.0834,0.228771,-0.00621618,-0.0708796,0,0,0,3.43,3.15,0.42,0.176168,0.014396,-1.08287,-0.17738,-0.24416,0.3409
0.755857,0,0,9.24414,9.24414,10.7559,10.7559,-0.419921,-0.396035,52.2479,0.222472,-0.00507543,-0.0708072,0,0,0,4.9,1.89,0.42,0.176168,0.014396,-1.08287,-0.17094,-0.2436,0.34076
0.754511,0,0,9.24549,9.24549,10.7545,10.7545,-0.419173,-0.396614,52.2497,-0.0728501,-0.139646,-0.190313,1,0,0,4.9,0.91,0.14,-0.120414,-0.120048,-1.20146,-0.17094,-0.2436,0.34076
0.753384,0,0,9.24662,9.24662,10.7534,10.7534,-0.418547,-0.397555,52.2511,-0.0728336,-0.139635,-0.190313,1,0,0,4.83,0.7,-0.14,-0.120414,-0.120048,-1.20146,-0.17094,-0.2436,0.34076
0.50854,0,0,9.49146,9.49146,10.5085,10.5085,-0.282522,-0.544625,52.5765,-0.118861,-0.0768083,-0.0865512,0,0,0,4.9,0.91,-0.49,-0.169214,-0.059658,-1.09849,-0.17094,-0.2436,0.34076
0.27196,0,0,9.72804,9.72804,10.272,10.272,-0.151089,-0.688727,52.8954,-0.116346,-0.0745144,-0.0865696,0,0,0,4.9,0.98,-0.7,-0.169214,-0.059658,-1.09849,-0.17094,-0.2436,0.34076
1.2664,0,0,8.7336,8.7336,11.2664,11.2664,-0.703558,-1.30063,53.5911,-0.278785,0.200524,0.0828421,0,0,0,4.48,1.26,-1.12,-0.343064,0.224724,-0.930128,-0.17094,-0.2436,0.34076
2.2227,0,0,7.7773,7.7773,12.2227,12.2227,-1.23484,-1.88765,54.2793,-0.268544,0.191261,0.0824003,0,0,0,4.48,1.26,-1.12,-0.343064,0.224724,-0.930128,-0.17094,-0.2436,0.34076
1.95686,0,0,8.04314,8.04314,11.9569,11.9569,-1.08714,-1.84963,54.5274,0.00207053,-0.0596985,0.0715317,0,0,0,3.99,2.38,-1.54,-0.070638,-0.028548,-0.940986,-0.17094,-0.2436,0.34076
1.70165,0,0,8.29835,8.29835,11.7016,11.7016,-0.945359,-1.81435,54.7716,0.00145495,-0.0572259,0.0715953,0,0,0,3.99,2.38,-1.54,-0.070638,-0.028548,-0.940986,-0.17094,-0.2436,0.34076
0.549314,0,0,9.45069,9.45069,10.5493,10.5493,-0.305174,-1.64757,54.7686,0.00704943,-0.271139,0.0354123,0,0,0,4.27,1.82,-1.89,-0.062098,-0.253394,-0.977098,-0.16982,-0.2401,0.34188
-0.0558782,0,0,10.0559,10.0559,9.94412,9.94412,0.0310435,-1.54069,54.8931,0.0158755,-0.137651,0.0258883,0,0,0,5.46,1.4,-2.17,-0.051362,-0.125904,-0.986614,-0.16982,-0.2401,0.34188
-0.634859,0,0,10.6349,10.6349,9.36514,9.36514,0.3527,-1.44235,55.0167,0.0141599,-0.132039,0.0259141,0,0,0,4.97,0.21,-2.03,-0.051362,-0.125904,-0.986614,-0.16982,-0.2401,0.34188
-0.745325,0,0,10.7453,10.7453,9.25468,9.25468,0.414069,-1.43096,55.2568,-0.000738663,-0.0259389,-0.00568581,0,0,0,4.9,0.07,-2.45,-0.066124,-0.020984,-1.01797,-0.16982,-0.2401,0.34188
-0.850743,0,0,10.8507,10.8507,9.14926,9.14926,0.472635,-1.41923,55.4928,-0.000943316,-0.024917,-0.00568862,0,0,0,4.69,0.84,-2.52,-0.066124,-0.020984,-1.01797,-0.16982,-0.2401,0.34188
-0.0400387,0,0,10.04,10.04,9.95996,9.95996,0.0222437,-1.58294,55.9643,-0.0342898,0.186198,0.0203355,0,0,0,4.34,0.91,-1.82,-0.10248,0.197762,-0.992104,-0.16982,-0.2401,0.34188
0.739784,0,0,9.26022,9.26022,10.7398,10.7398,-0.410991,-1.73685,56.4303,-0.0316048,0.17864,0.0202321,0,0,0,4.34,0.91,-1.82,-0.10248,0.197762,-0.992104,-0.16982,-0.2401,0.34188
0.99833,0,0,9.00167,9.00167,10.9983,10.9983,-0.554628,-1.5758,56.6808,0.122788,0.0798977,-0.0559358,0,0,0,4.62,1.12,-1.4,0.055388,0.101626,-1.06774,-0.1757,-0.24066,0.3423
0.997608,0,0,9.00239,9.00239,10.9976,10.9976,-0.554227,-1.57676,56.6802,0.0511282,0.165516,-0.0892553,1,0,0,4.69,0.7,-1.26,-0.016592,0.187148,-1.10081,-0.1757,-0.24066,0.3423
1.13601,0,0,8.86399,8.86399,11.136,11.136,-0.631115,-1.49192,56.9293,0.0638619,0.0425355,-0.0532056,0,0,0,4.48,1.05,-1.05,-0.002318,0.065636,-1.06506,-0.1757,-0.24066,0.3423
1.26932,0,0,8.73068,8.73068,11.2693,11.2693,-0.705176,-1.40919,57.1756,0.0624184,0.0412429,-0.0531841,0,0,0,4.62,0.84,-0.35,-0.002318,0.065636,-1.06506,-0.1757,-0.24066,0.3423
1.26822,0,0,8.73178,8.73178,11.2682,11.2682,-0.704568,-1.40977,57.1767,0.0685028,-0.0690269,-0.167403,1,0,0,4.83,0.91,-0.28,0.003782,-0.04453,-1.1784,-0.1757,-0.24066,0.3423
1.2676,0,0,8.7324,8.7324,11.2676,11.2676,-0.704225,-1.41093,57.1785,0.0685232,-0.0690209,-0.167404,1,0,0,4.69,0.56,0.07,0.003782,-0.04453,-1.1784,-0.1757,-0.24066,0.3423
1.33868,0,0,8.66132,8.66132,11.3387,11.3387,-0.743712,-1.35687,57.4178,0.0400026,0.023839,-0.0724735,0,0,0,4.62,0.42,-0.14,-0.023912,0.048922,-1.08421,-0.1757,-0.24066,0.3423
1.40946,0,0,8.59054,8.59054,11.4095,11.4095,-0.783034,-1.30246,57.6541,0.0390532,0.0231526,-0.0724606,0,0,0,3.99,1.33,0.35,-0.023912,0.048922,-1.08421,-0.1757,-0.24066,0.3423
1.04818,0,0,8.95182,8.95182,11.0482,11.0482,-0.58232,-1.26347,57.8037,-0.005362,-0.0883889,-0.0411747,0,0,0,4.2,2.03,0.63,-0.067832,-0.066002,-1.05323,-0.17766,-0.24556,0.33866
1.00781,0,0,8.99219,8.99219,11.0078,11.0078,-0.559893,-1.14826,57.9914,0.0657621,-0.00141019,0.0146901,0,0,0,4.69,1.54,0.7,0.005612,0.020496,-0.997838,-0.17766,-0.24556,0.33866
0.970798,0,0,9.0292,9.0292,10.9708,10.9708,-0.539332,-1.0363,58.176,0.0638084,-0.00105178,0.0147308,0,0,0,4.41,1.75,0.63,0.005612,0.020496,-0.997838,-0.17766,-0.24556,0.33866
0.547032,0,0,9.45297,9.45297,10.547,10.547,-0.303906,-0.519083,58.1429,0.299576,-0.0696097,-0.0238452,0,0,0,4.62,2.03,0.21,0.251442,-0.052094,-1.03627,-0.17766,-0.24556,0.33866
0.141366,0,0,9.85863,9.85863,10.1414,10.1414,-0.0785365,-0.0184071,58.1114,0.290837,-0.0656765,-0.0237911,0,0,0,5.04,1.68,0.14,0.251442,-0.052094,-1.03627,-0.17766,-0.24556,0.33866
0.322526,0,0,9.67747,9.67747,10.3225,10.3225,-0.179181,0.140608,58.3025,0.112272,0.0586018,-0.0217079,0,0,0,5.04,1.47,0.07,0.074908,0.07381,-1.03419,-0.17766,-0.24556,0.33866
0.498945,0,0,9.50106,9.50106,10.4989,10.4989,-0.277192,0.295489,58.4897,0.109569,0.0568912,-0.021725,0,0,0,4.76,1.26,-0.56,0.074908,0.07381,-1.03419,-0.17766,-0.24556,0.33866
0.465448,0,0,9.53455,9.53455,10.4654,10.4654,-0.258582,0.23597,58.6968,-0.0388195,-0.0125184,-0.0122516,0,0,0,4.83,1.33,-0.77,-0.075152,0.004148,-1.0248,-0.17766,-0.24556,0.33866
0.434785,0,0,9.56521,9.56521,10.4348,10.4348,-0.241547,0.178523,58.8997,-0.0378168,-0.0122211,-0.0122467,0,0,0,4.2,1.61,-1.19,-0.075152,0.004148,-1.0248,-0.17584,-0.24192,0.3339
0.16762,0,0,9.83238,9.83238,10.1676,10.1676,-0.0931222,0.229066,59.0176,0.0106242,-0.0606796,0.0255029,0,0,0,3.78,1.89,-1.33,-0.02562,-0.046848,-0.987346,-0.17584,-0.24192,0.3339
0.592208,0,0,9.40779,9.40779,10.5922,10.5922,-0.329005,0.0791129,59.3323,-0.0632946,0.0940904,-0.0153241,0,0,0,4.27,1.75,-1.82,-0.10248,0.111874,-1.02785,-0.17584,-0.24192,0.3339
0.99967,0,0,9.00033,9.00033,10.9997,10.9997,-0.555372,-0.0647663,59.6419,-0.0607834,0.0901397,-0.0153543,0,0,0,4.13,1.4,-2.1,-0.10248,0.111874,-1.02785,-0.17584,-0.24192,0.3339
0.762245,0,0,9.23776,9.23776,10.7622,10.7622,-0.423469,0.212726,59.6919,0.1426,-0.0357913,0.0714608,0,0,0,4.06,1.54,-2.17,0.106628,-0.016226,-0.941718,-0.17584,-0.24192,0.3339
0.535447,0,0,9.46455,9.46455,10.5354,10.5354,-0.29747,0.480804,59.7418,0.137921,-0.0335921,0.0714463,0,0,0,4.27,1.26,-2.03,0.106628,-0.016226,-0.941718,-0.17584,-0.24192,0.3339
1.05001,0,0,8.94999,8.94999,11.05,11.05,-0.58334,0.432761,60.0339,0.00536834,0.119207,0.0265384,0,0,0,4.06,1.19,-1.96,-0.027328,0.141398,-0.986248,-0.17584,-0.24192,0.3339
1.5435,0,0,8.4565,8.4565,11.5435,11.5435,-0.857501,0.389016,60.3224,0.0061318,0.114422,0.0264837,0,0,0,4.41,1.4,-1.75,-0.027328,0.141398,-0.986248,-0.17584,-0.24192,0.3339
1.6942,0,0,8.3058,8.3058,11.6942,11.6942,-0.941224,0.439914,60.5113,0.038895,0.0378531,0.0483392,0,0,0,4.55,1.33,-2.1,0.006466,0.066368,-0.964532,-0.1785,-0.24584,0.33586
1.66669,0,0,8.33331,8.33331,11.6667,11.6667,-0.925938,0.425726,60.6785,-0.0100591,-0.00877686,0.0120756,0,0,0,3.22,0.63,-1.75,-0.042944,0.01952,-1.00052,-0.1785,-0.24584,0.33586
1.63968,0,0,8.36032,8.36032,11.6397,11.6397,-0.910931,0.412307,60.8435,-0.00982486,-0.00851501,0.0120815,0,0,0,3.36,0.91,-1.4,-0.042944,0.01952,-1.00052,-0.1785,-0.24584,0.33586
1.74251,0,0,8.25749,8.25749,11.7425,11.7425,-0.96806,0.459725,61.0174,0.0363625,0.0284696,-0.00958006,0,0,0,3.78,1.05,-0.91,0.00427,0.057462,-1.02199,-0.1785,-0.24584,0.33586
1.83992,0,0,8.16008,8.16008,11.8399,11.8399,-1.02218,0.505517,61.1886,0.0355633,0.0275253,-0.00960319,0,0,0,4.34,0.63,-0.91,0.00427,0.057462,-1.02199,-0.1785,-0.24584,0.33586
1.75029,0,0,8.24971,8.24971,11.7503,11.7503,-0.972385,0.608812,61.3023,0.0609734,-0.0139835,-0.0504245,0,0,0,4.41,1.19,-0.63,0.031598,0.015128,-1.0625,-0.1785,-0.24584,0.33586
1.66499,0,0,8.33501,8.33501,11.665,11.665,-0.924994,0.708739,61.4143,0.0592294,-0.0131562,-0.0504309,0,0,0,4.41,1.19,-0.63,0.031598,0.015128,-1.0625,-0.1785,-0.24584,0.33586
1.64353,0,0,8.35647,8.35647,11.6435,11.6435,-0.91307,0.719506,61.5626,0.00534486,-0.00391067,-0.00223405,0,0,0,5.04,1.26,0,-0.022326,0.024156,-1.01467,-0.1785,-0.24584,0.33586
1.49214,0,0,8.50786,8.50786,11.4921,11.4921,-0.828968,0.588467,61.7245,-0.0930799,-0.0477525,-0.0222262,0,0,0,4.06,1.82,0.35,-0.123464,-0.021106,-1.03456,-0.17724,-0.2492,0.33012
1.34457,0,0,8.65543,8.65543,11.3446,11.3446,-0.746983,0.459539,61.883,-0.0908297,-0.0463221,-0.022186,0,0,0,4.41,1.26,0.14,-0.123464,-0.021106,-1.03456,-0.17724,-0.2492,0.33012
1.79245,0,0,8.20755,8.20755,11.7924,11.7924,-0.995804,0.220693,62.1945,-0.115089,0.0863616,0.0428125,0,0,0,4.62,1.89,0,-0.152012,0.115778,-0.970022,-0.17724,-0.2492,0.33012
1.64029,0,0,8.35971,8.35971,11.6403,11.6403,-0.91127,0.26768,62.3041,0.0169965,-0.0327023,0.0503334,0,0,0,3.99,2.03,0.14,-0.018544,-0.004636,-0.96258,-0.17724,-0.2492,0.33012
1.49524,0,0,8.50476,8.50476,11.4952,11.4952,-0.830692,0.311086,62.4119,0.0162389,-0.031296,0.0503509,0,0,0,3.78,1.12,0.07,-0.018544,-0.004636,-0.96258,-0.17724,-0.2492,0.33012
1.24696,0,0,8.75304,8.75304,11.247,11.247,-0.692758,0.319111,62.5031,-0.0112355,-0.0584435,0.0184156,0,0,0,4.41,1.61,0,-0.045994,-0.03416,-0.9943,-0.17724,-0.2492,0.33012
1.0069,0,0,8.9931,8.9931,11.0069,11.0069,-0.559388,0.324851,62.5923,-0.0113356,-0.056116,0.0184404,0,0,0,4.97,1.05,-0.35,-0.045994,-0.03416,-0.9943,-0.17724,-0.2492,0.33012
0.427532,0,0,9.57247,9.57247,10.4275,10.4275,-0.237518,0.457547,62.5744,0.0463624,-0.130614,-0.00317525,0,0,0,5.04,0.42,-0.56,0.014274,-0.114192,-1.01577,-0.17542,-0.25102,0.3339
0.425488,0,0,9.57451,9.57451,10.4255,10.4255,-0.236382,0.457791,62.5744,-0.0405042,0.0685949,-0.177393,1,0,0,5.11,1.4,-0.91,-0.072956,0.08479,-1.18865,-0.17542,-0.25102,0.3339
0.423675,0,0,9.57633,9.57633,10.4237,10.4237,-0.235375,0.458034,62.5741,-0.0405084,0.0686125,-0.177393,1,0,0,5.04,1.4,-1.12,-0.072956,0.08479,-1.18865,-0.17542,-0.25102,0.3339
0.422543,0,0,9.57746,9.57746,10.4225,10.4225,-0.234746,0.458632,62.5732,-0.0060169,0.0649597,-0.13805,1,0,0,4.83,1.61,-1.47,-0.038308,0.08113,-1.14961,-0.17542,-0.25102,0.3339
0.422991,0,0,9.57701,9.57701,10.423,10.423,-0.234995,0.459349,62.5719,-0.00602941,0.0649554,-0.13805,1,0,0,4.34,1.68,-1.68,-0.038308,0.08113,-1.14961,-0.17542,-0.25102,0.3339
0.423887,0,0,9.57611,9.57611,10.4239,10.4239,-0.235493,0.459229,62.5706,0.0494916,0.123079,-0.14432,1,0,0,4.2,1.19,-1.68,0.017446,0.139202,-1.15583,-0.17542,-0.25102,0.3339
0.426131,0,0,9.57387,9.57387,10.4261,10.4261,-0.236739,0.45899,62.5695,0.0494958,0.123057,-0.14432,1,0,0,3.78,1.12,-1.61,0.017446,0.139202,-1.15583,-0.17542,-0.25102,0.3339
0.428155,0,0,9.57185,9.57185,10.4282,10.4282,-0.237864,0.458033,62.568,0.0131883,-0.0633278,-0.128583,1,0,0,3.85,0.7,-1.82,-0.019032,-0.04697,-1.14021,-0.17542,-0.25102,0.3339
0.428152,0,0,9.57185,9.57185,10.4282,10.4282,-0.237862,0.457196,62.5667,-0.0285882,0.0159325,0.11338,1,0,0,4.48,0.77,-1.68,-0.061,0.032208,-0.900116,-0.17794,-0.24822,0.33712
-0.132742,0,0,10.1327,10.1327,9.86726,9.86726,0.0737454,0.463687,62.5681,-0.0311312,-0.136783,-0.00525847,0,0,0,5.39,0.7,-1.82,-0.06344,-0.125782,-1.01785,-0.17794,-0.24822,0.33712
-0.671119,0,0,10.6711,10.6711,9.32888,9.32888,0.372844,0.467932,62.5696,-0.0312053,-0.131563,-0.00527941,0,0,0,5.39,0.84,-1.82,-0.06344,-0.125782,-1.01785,-0.17794,-0.24822,0.33712
-1.18719,0,0,11.1872,11.1872,8.81281,8.81281,0.659551,0.552673,62.5514,0.0177324,-0.109828,0.0696609,0,0,0,5.32,1.26,-1.75,-0.01281,-0.109068,-0.943426,-0.17794,-0.24822,0.33712
-1.67835,0,0,11.6784,11.6784,8.32165,8.32165,0.932419,0.632706,62.5346,0.0163356,-0.105067,0.0695803,0,0,0,4.2,1.12,-1.33,-0.01281,-0.109068,-0.943426,-0.17794,-0.24822,0.33712
-1.6779,0,0,11.6779,11.6779,8.3221,8.3221,0.932166,0.632014,62.5333,0.0461116,-0.0549993,0.108555,1,0,0,4.34,0.84,-1.68,0.01708,-0.059048,-0.904752,-0.17794,-0.24822,0.33712
-1.67679,0,0,11.6768,11.6768,8.32321,8.32321,0.931547,0.631431,62.5327,0.0461218,-0.0550101,0.108555,1,0,0,4.13,0.91,-1.26,0.01708,-0.059048,-0.904752,-0.17794,-0.24822,0.33712
-1.67525,0,0,11.6752,11.6752,8.32475,8.32475,0.930692,0.630947,62.5334,0.0177026,-0.052094,0.128965,1,0,0,3.99,0.98,-0.56,-0.011468,-0.05612,-0.8845,-0.17794,-0.24822,0.33712
-1.67371,0,0,11.6737,11.6737,8.32629,8.32629,0.929836,0.630464,62.534,0.0177111,-0.0521089,0.128966,1,0,0,3.99,0.98,-0.56,-0.011468,-0.05612,-0.8845,-0.175,-0.2471,0.33166
-1.63354,0,0,11.6335,11.6335,8.36646,8.36646,0.907521,0.89507,62.5884,0.160941,0.0321345,0.0376826,0,0,0,5.04,1.4,-0.21,0.137006,0.028426,-0.975024,-0.175,-0.2471,0.33166
-1.59267,0,0,11.5927,11.5927,8.40733,8.40733,0.884818,1.15238,62.6419,0.156451,0.0317372,0.0376086,0,0,0,5.04,1.4,-0.21,0.137006,0.028426,-0.975024,-0.175,-0.2471,0.33166
-1.28012,0,0,11.2801,11.2801,8.71988,8.71988,0.711176,1.17977,62.8094,0.0392255,0.0824431,-0.0417837,0,0,0,5.25,0.98,0.07,0.019764,0.082106,-1.05384,-0.175,-0.2471,0.33166
-0.979337,0,0,10.9793,10.9793,9.02066,9.02066,0.544076,1.20768,62.9744,0.0387384,0.0795273,-0.0417619,0,0,0,5.25,0.98,0.07,0.019764,0.082106,-1.05384,-0.175,-0.2471,0.33166
-1.52738,0,0,11.5274,11.5274,8.47262,8.47262,0.848547,1.20724,62.9628,-0.0337809,-0.125218,0.0632947,0,0,0,5.25,1.47,-0.14,-0.05307,-0.127734,-0.949526,-0.175,-0.2471,0.33166
-2.05361,0,0,12.0536,12.0536,7.94639,7.94639,1.1409,1.20461,62.9515,-0.033735,-0.120118,0.0632071,0,0,0,5.25,1.47,-0.14,-0.05307,-0.127734,-0.949526,-0.175,-0.2471,0.33166
-2.29263,0,0,12.2926,12.2926,7.70737,7.70737,1.27368,1.25565,62.9844,0.0163984,-0.0539292,0.00596807,0,0,0,4.34,1.33,-0.07,-0.00183,-0.063928,-1.00626,-0.175,-0.2471,0.33166
-2.52118,0,0,12.5212,12.5212,7.47882,7.47882,1.40065,1.30412,63.0129,0.0155527,-0.0517148,0.00589748,0,0,0,4.34,1.33,-0.07,-0.00183,-0.063928,-1.00626,-0.17458,-0.2429,0.33222
-2.3398,0,0,12.3398,12.3398,7.6602,7.6602,1.29989,1.40227,63.114,0.0711814,0.0531432,0.00466898,0,0,0,4.48,1.33,-0.63,0.055754,0.042578,-1.00748,-0.17458,-0.2429,0.33222
-2.16448,0,0,12.1645,12.1645,7.83552,7.83552,1.20249,1.49831,63.2135,0.0695056,0.0514433,0.00466367,0,0,0,4.48,1.33,-0.63,0.055754,0.042578,-1.00748,-0.17458,-0.2429,0.33222
-1.79359,0,0,11.7936,11.7936,8.20641,8.20641,0.99644,1.40067,63.4005,-0.0381278,0.0829001,-0.00210936,0,0,0,4.48,1.4,-1.19,-0.054046,0.077592,-1.01431,-0.17458,-0.2429,0.33222
-1.43797,0,0,11.438,11.438,8.56203,8.56203,0.798875,1.3074,63.5849,-0.0365005,0.0794539,-0.00201689,0,0,0,4.48,1.4,-1.19,-0.054046,0.077592,-1.01431,-0.17458,-0.2429,0.33222
-1.04337,0,0,11.0434,11.0434,8.95663,8.95663,0.579649,1.19377,63.7841,-0.0467878,0.0882085,-0.00733733,0,0,0,4.97,1.12,-1.47,-0.066368,0.090158,-1.01968,-0.17458,-0.2429,0.33222
-0.665102,0,0,10.6651,10.6651,9.3349,9.3349,0.369501,1.08508,63.9805,-0.0448911,0.0845418,-0.00726923,0,0,0,4.97,1.12,-1.47,-0.066368,0.090158,-1.01968,-0.17458,-0.2429,0.33222
-0.642425,0,0,10.6424,10.6424,9.35758,9.35758,0.356903,1.10272,64.07,0.0114134,0.00726,0.0361271,0,0,0,4.83,1.05,-1.61,-0.009516,0.013176,-0.97661,-0.17458,-0.2429,0.33222
-0.620479,0,0,10.6205,10.6205,9.37952,9.37952,0.344711,1.11994,64.1588,0.0111129,0.00704721,0.0361226,0,0,0,4.83,1.05,-1.61,-0.009516,0.013176,-0.97661,-0.17346,-0.24192,0.33922
-0.595823,0,0,10.5958,10.5958,9.40418,9.40418,0.331013,1.07535,64.2604,-0.0252836,0.00241171,0.0897444,0,0,0,4.06,0.91,-1.82,-0.046848,0.008784,-0.923418,-0.17346,-0.24192,0.33922
-0.57254,0,0,10.5725,10.5725,9.42746,9.42746,0.318078,1.03213,64.3604,-0.0245294,0.00218607,0.0897596,0,0,0,4.06,0.91,-1.82,-0.046848,0.008784,-0.923418,-0.17346,-0.24192,0.33922
-0.261265,0,0,10.2613,10.2613,9.73874,9.73874,0.145147,0.890712,64.5474,-0.0712633,0.0660939,-0.0240371,0,0,0,4.41,1.19,-1.89,-0.096258,0.07564,-1.03639,-0.17346,-0.24192,0.33922
0.0365803,0,0,9.96342,9.96342,10.0366,10.0366,-0.0203224,0.754623,64.7316,-0.0688883,0.0632063,-0.0239999,0,0,0,4.41,1.19,-1.89,-0.096258,0.07564,-1.03639,-0.17346,-0.24192,0.33922
0.0410705,0,0,9.95893,9.95893,10.0411,10.0411,-0.022817,0.754269,64.7309,-0.236289,0.0497288,-0.128383,1,0,0,3.08,1.05,-1.33,-0.264374,0.06222,-1.13997,-0.17346,-0.24192,0.33922
0.0455607,0,0,9.95444,9.95444,10.0456,10.0456,-0.0253115,0.753915,64.7302,-0.236283,0.0496853,-0.128383,1,0,0,3.08,1.05,-1.33,-0.264374,0.06222,-1.13997,-0.17346,-0.24192,0.33922
0.406808,0,0,9.59319,9.59319,10.4068,10.4068,-0.226004,0.42046,64.9756,-0.203615,0.0660893,-0.071037,0,0,0,3.5,1.05,-1.05,-0.237412,0.082106,-1.08312,-0.17346,-0.24192,0.33922
0.750875,0,0,9.24913,9.24913,10.7509,10.7509,-0.417153,0.098021,65.2171,-0.197988,0.0627531,-0.0710303,0,0,0,3.5,1.05,-1.05,-0.237412,0.082106,-1.08312,-0.17346,-0.24192,0.33922
0.205051,0,0,9.79495,9.79495,10.2051,10.2051,-0.113917,0.228344,65.1583,0.0509701,-0.123449,-0.0100298,0,0,0,4.48,0.77,-0.63,0.014884,-0.10919,-1.0226,-0.17402,-0.24556,0.3311
0.207269,0,0,9.79273,9.79273,10.2073,10.2073,-0.115149,0.227754,65.1595,0.0300848,-0.03212,0.119804,1,0,0,3.78,0.91,-0.21,-0.0061,-0.017934,-0.893772,-0.17402,-0.24556,0.3311
0.209935,0,0,9.79006,9.79006,10.2099,10.2099,-0.116631,0.227642,65.1609,0.0300868,-0.0321458,0.119804,1,0,0,3.64,1.19,-0.14,-0.0061,-0.017934,-0.893772,-0.17402,-0.24556,0.3311
0.491815,0,0,9.50819,9.50819,10.4918,10.4918,-0.27323,0.137793,65.3356,-0.0394142,0.0587922,0.0192276,0,0,0,3.36,1.26,-0.14,-0.07747,0.07564,-0.993568,-0.17402,-0.24556,0.3311
0.762456,0,0,9.23754,9.23754,10.7625,10.7625,-0.423586,0.0511869,65.5078,-0.0379026,0.056168,0.0192141,0,0,0,3.15,0.98,-0.07,-0.07747,0.07564,-0.993568,-0.17402,-0.24556,0.3311
0.749997,0,0,9.25,9.25,10.75,10.75,-0.416665,-0.0666027,65.6226,-0.0750867,-0.0130791,-0.00107176,0,0,0,3.57,1.4,-0.07,-0.116876,0.006344,-1.0137,-0.17402,-0.24556,0.3311
0.734967,0,0,9.26503,9.26503,10.735,10.735,-0.408315,-0.180632,65.7358,-0.0730965,-0.0129334,-0.00107501,0,0,0,4.2,1.68,0.14,-0.116876,0.006344,-1.0137,-0.17402,-0.24556,0.3311
0.938881,0,0,9.06112,9.06112,10.9389,10.9389,-0.5216,-0.166421,65.8705,0.0205639,0.0512822,-0.0275242,0,0,0,3.92,1.61,0.21,-0.02257,0.072468,-1.03993,-0.17402,-0.24556,0.3311
1.1329,0,0,8.8671,8.8671,11.1329,11.1329,-0.62939,-0.15143,66.0028,0.0203023,0.049401,-0.0275424,0,0,0,4.34,1.75,0,-0.02257,0.072468,-1.03993,-0.17318,-0.2436,0.33754
1.23965,0,0,8.76035,8.76035,11.2396,11.2396,-0.688693,-0.101173,66.1062,0.0380124,0.0301691,-0.00738882,0,0,0,4.76,1.19,-0.28,-0.003904,0.05429,-1.01992,-0.17318,-0.2436,0.33754
1.34441,0,0,8.65559,8.65559,11.3444,11.3444,-0.746892,-0.0516855,66.2082,0.0371487,0.0291534,-0.00740039,0,0,0,4.2,1.33,-0.14,-0.003904,0.05429,-1.01992,-0.17318,-0.2436,0.33754
1.41811,0,0,8.58189,8.58189,11.4181,11.4181,-0.787839,-0.0544368,66.313,0.00208735,0.0174474,-0.00704116,0,0,0,4.13,1.47,-0.35,-0.039162,0.04331,-1.01955,-0.17318,-0.2436,0.33754
1.48887,0,0,8.51113,8.51113,11.4889,11.4889,-0.827151,-0.0563633,66.4156,0.00212098,0.0167614,-0.00705086,0,0,0,4.13,1.75,-0.63,-0.039162,0.04331,-1.01955,-0.17318,-0.2436,0.33754
0.918304,0,0,9.0817,9.0817,10.9183,10.9183,-0.510169,-0.0554571,66.364,-0.0327612,-0.142211,-0.0289941,0,0,0,4.55,1.47,-0.98,-0.074176,-0.121024,-1.04139,-0.17318,-0.2436,0.33754
0.371146,0,0,9.62885,9.62885,10.3711,10.3711,-0.206192,-0.0566279,66.3132,-0.0327408,-0.136906,-0.0289609,0,0,0,4.41,1.4,-1.19,-0.074176,-0.121024,-1.04139,-0.17318,-0.2436,0.33754
-0.0439752,0,0,10.044,10.044,9.95602,9.95602,0.0244307,-0.212916,66.3211,-0.123922,-0.114806,-0.00609253,0,0,0,4.55,1.26,-1.26,-0.168482,-0.102968,-1.0187,-0.17318,-0.2436,0.33754
-0.449616,0,0,10.4496,10.4496,9.55038,9.55038,0.249787,-0.365282,66.3378,-0.121262,-0.110873,-0.00611536,0,0,0,5.25,1.4,-1.68,-0.168482,-0.102968,-1.0187,-0.17178,-0.25088,0.33222
-0.450321,0,0,10.4503,10.4503,9.54968,9.54968,0.250179,-0.365154,66.3368,-0.169251,0.131922,-0.0923023,1,0,0,4.69,1.33,-1.47,-0.216672,0.139568,-1.10422,-0.17178,-0.25088,0.33222
-0.45126,0,0,10.4513,10.4513,9.54874,9.54874,0.2507,-0.365261,66.3352,-0.169249,0.131931,-0.0923023,1,0,0,4.76,1.19,-1.89,-0.216672,0.139568,-1.10422,-0.17178,-0.25088,0.33222
-0.454447,0,0,10.4544,10.4544,9.54555,9.54555,0.25247,-0.365368,66.3335,-0.139241,0.0544112,-0.154269,1,0,0,5.46,1.19,-1.96,-0.186538,0.062098,-1.16571,-0.17178,-0.25088,0.33222
-0.456732,0,0,10.4567,10.4567,9.54327,9.54327,0.25374,-0.364998,66.3319,-0.139247,0.0544334,-0.154269,1,0,0,5.18,1.47,-1.82,-0.186538,0.062098,-1.16571,-0.17178,-0.25088,0.33222
-0.326239,0,0,10.3262,10.3262,9.67376,9.67376,0.181244,-0.516054,66.47,-0.095913,0.021293,-0.0842034,0,0,0,5.39,1.12,-1.89,-0.145668,0.030256,-1.09617,-0.17178,-0.25088,0.33222
-0.200099,0,0,10.2001,10.2001,9.7999,9.7999,0.111166,-0.661974,66.6066,-0.0933664,0.0200699,-0.0842265,0,0,0,4.69,1.33,-1.26,-0.145668,0.030256,-1.09617,-0.17178,-0.25088,0.33222
-0.833631,0,0,10.8336,10.8336,9.16637,9.16637,0.463129,-0.664953,66.5353,-0.0410755,-0.162107,-0.0540125,0,0,0,4.83,1.4,-1.33,-0.093208,-0.157868,-1.06616,-0.17178,-0.25088,0.33222
-1.43762,0,0,11.4376,11.4376,8.56238,8.56238,0.798677,-0.671421,66.4479,-0.0409627,-0.156251,-0.0540783,0,0,0,5.25,1.26,-1.26,-0.093208,-0.157868,-1.06616,-0.1757,-0.24094,0.33572
-1.22939,0,0,11.2294,11.2294,8.77061,8.77061,0.682993,-0.757916,66.5662,-0.0428548,0.0433608,-0.0030474,0,0,0,5.04,1.26,-1.26,-0.096624,0.043554,-1.01553,-0.1757,-0.24094,0.33572
-1.03159,0,0,11.0316,11.0316,8.96841,8.96841,0.573106,-0.841655,66.6831,-0.0413934,0.041443,-0.00304678,0,0,0,5.46,0.98,-0.91,-0.096624,0.043554,-1.01553,-0.1757,-0.24094,0.33572
-0.898407,0,0,10.8984,10.8984,9.10159,9.10159,0.499115,-0.975051,66.7945,-0.0738104,0.0210997,0.0256983,0,0,0,5.25,0.84,-1.05,-0.131516,0.024522,-0.98698,-0.1757,-0.24094,0.33572
-0.771587,0,0,10.7716,10.7716,9.22841,9.22841,0.42866,-1.10454,66.9045,-0.0715508,0.0198699,0.0256673,0,0,0,5.18,0.63,-0.77,-0.131516,0.024522,-0.98698,-0.1757,-0.24094,0.33572
-0.467766,0,0,10.4678,10.4678,9.53223,9.53223,0.25987,-0.939613,66.9997,0.11193,0.0803086,0.0966776,0,0,0,5.39,0.91,-0.77,0.055632,0.08784,-0.916586,-0.1757,-0.24094,0.33572
-0.174697,0,0,10.1747,10.1747,9.8253,9.8253,0.0970538,-0.777605,67.0935,0.109103,0.0774674,0.0967288,0,0,0,5.53,1.26,-0.56,0.055632,0.08784,-0.916586,-0.1757,-0.24094,0.33572
-0.237624,0,0,10.2376,10.2376,9.76238,9.76238,0.132014,-0.588468,67.0964,0.109811,0.00113773,0.0620955,0,0,0,5.11,1.4,-0.56,0.059658,0.01098,-0.95099,-0.1757,-0.24094,0.33572
-0.295034,0,0,10.295,10.295,9.70497,9.70497,0.163908,-0.404907,67.0987,0.106608,0.00169444,0.0621218,0,0,0,4.55,1.26,-0.63,0.059658,0.01098,-0.95099,-0.17864,-0.2464,0.33978
-0.00241696,0,0,10.0024,10.0024,9.99758,9.99758,0.00134275,-0.489335,67.2358,-0.0404959,0.0679809,-0.0643996,0,0,0,4.9,1.33,-0.42,-0.089548,0.080032,-1.07653,-0.17864,-0.2464,0.33978
0.280331,0,0,9.71967,9.71967,10.2803,10.2803,-0.155739,-0.569929,67.3715,-0.0390894,0.0652395,-0.0644163,0,0,0,4.13,1.54,0,-0.089548,0.080032,-1.07653,-0.17864,-0.2464,0.33978
-0.0563537,0,0,10.0564,10.0564,9.94365,9.94365,0.0313076,-0.503352,67.3309,0.0235287,-0.0751171,0.012441,0,0,0,3.99,1.33,-0.07,-0.025498,-0.06344,-1.00028,-0.17864,-0.2464,0.33978
-0.383671,0,0,10.3837,10.3837,9.61633,9.61633,0.21315,-0.439335,67.2907,0.0224114,-0.0719435,0.0124434,0,0,0,5.46,1.54,-0.35,-0.025498,-0.06344,-1.00028,-0.17864,-0.2464,0.33978
-0.381368,0,0,10.3814,10.3814,9.61863,9.61863,0.211871,-0.319425,67.3148,0.0742583,0.0110804,0.0281947,0,0,0,5.18,1.12,-0.63,0.02867,0.01952,-0.984662,-0.17864,-0.2464,0.33978
-0.376963,0,0,10.377,10.377,9.62304,9.62304,0.209424,-0.202832,67.3386,0.0722234,0.0110378,0.0282042,0,0,0,4.83,1.12,-0.56,0.02867,0.01952,-0.984662,-0.17864,-0.2464,0.33978
-0.702775,0,0,10.7028,10.7028,9.29722,9.29722,0.390431,-0.269418,67.3168,-0.053567,-0.0755663,0.101091,0,0,0,4.48,1.4,-0.91,-0.09882,-0.07015,-0.912316,-0.17864,-0.2464,0.33978
-1.01364,0,0,11.0136,11.0136,8.98636,8.98636,0.563134,-0.33572,67.2945,-0.0524099,-0.0725523,0.10106,0,0,0,3.71,1.12,-1.4,-0.09882,-0.07015,-0.912316,-0.17864,-0.2464,0.33978
-0.595006,0,0,10.595,10.595,9.40499,9.40499,0.330559,-0.108441,67.3957,0.158046,0.114273,0.0682799,0,0,0,4.06,1.33,-1.4,0.11651,0.120536,-0.94489,-0.17458,-0.24836,0.34076
-0.457718,0,0,10.4577,10.4577,9.54228,9.54228,0.254288,-0.162194,67.4864,-0.0288331,0.0296513,-0.0636393,0,0,0,3.85,1.4,-1.4,-0.072102,0.037332,-1.0758,-0.17458,-0.24836,0.34076
-0.326599,0,0,10.3266,10.3266,9.6734,9.6734,0.181444,-0.214077,67.5757,-0.0279275,0.0283799,-0.0636374,0,0,0,3.92,1.33,-1.33,-0.072102,0.037332,-1.0758,-0.17458,-0.24836,0.34076
-0.399871,0,0,10.3999,10.3999,9.60013,9.60013,0.22215,-0.0431532,67.5737,0.110256,-0.0042502,-0.0550268,0,0,0,4.27,1.54,-1.26,0.069662,0.004026,-1.06726,-0.17458,-0.24836,0.34076
-0.46791,0,0,10.4679,10.4679,9.53209,9.53209,0.25995,0.122134,67.5714,0.107371,-0.00359049,-0.0550316,0,0,0,3.99,1.12,-1.54,0.069662,0.004026,-1.06726,-0.17458,-0.24836,0.34076
-0.257463,0,0,10.2575,10.2575,9.74254,9.74254,0.143035,-0.0475088,67.6977,-0.0909701,0.0345487,0.0567377,0,0,0,3.85,0.84,-1.54,-0.132492,0.044164,-0.956358,-0.17458,-0.24836,0.34076
-0.0569679,0,0,10.057,10.057,9.94303,9.94303,0.0316488,-0.211047,67.8225,-0.0881159,0.0326046,0.0567342,0,0,0,3.85,1.19,-1.26,-0.132492,0.044164,-0.956358,-0.17458,-0.24836,0.34076
-0.411482,0,0,10.4115,10.4115,9.58852,9.58852,0.228601,-0.230551,67.7896,-0.0289764,-0.0810775,0.0740608,0,0,0,3.78,1.33,-1.4,-0.073444,-0.072834,-0.939156,-0.17346,-0.24766,0.33628
-0.622981,0,0,10.623,10.623,9.37702,9.37702,0.3461,-0.262198,67.7902,-0.0338909,-0.0583874,-0.066482,0,0,0,3.57,1.19,-1.33,-0.078934,-0.052216,-1.0786,-0.17346,-0.24766,0.33628
-0.826494,0,0,10.8265,10.8265,9.17351,9.17351,0.459164,-0.293675,67.7914,-0.0333415,-0.0564141,-0.0664985,0,0,0,3.64,1.19,-0.98,-0.078934,-0.052216,-1.0786,-0.17346,-0.24766,0.33628
-0.307627,0,0,10.3076,10.3076,9.69237,9.69237,0.170904,-0.392349,67.9757,-0.0370862,0.121012,-0.0336539,0,0,0,4.13,1.33,-1.19,-0.084424,0.130052,-1.04603,-0.17346,-0.24766,0.33628
0.190746,0,0,9.80925,9.80925,10.1907,10.1907,-0.10597,-0.486805,68.1584,-0.0354377,0.11618,-0.0336638,0,0,0,3.92,1.05,-0.7,-0.084424,0.130052,-1.04603,-0.17346,-0.24766,0.33628
-0.0769662,0,0,10.077,10.077,9.92303,9.92303,0.042759,-0.593174,68.162,-0.0799888,-0.071742,0.0300075,0,0,0,3.78,1.54,-0.56,-0.131028,-0.060268,-0.982832,-0.17346,-0.24766,0.33628
-0.339104,0,0,10.3391,10.3391,9.6609,9.6609,0.188391,-0.697396,68.1655,-0.0781699,-0.0692004,0.0299818,0,0,0,5.11,1.61,-0.49,-0.131028,-0.060268,-0.982832,-0.17346,-0.24766,0.33628
0.00525522,0,0,9.99474,9.99474,10.0053,10.0053,-0.00291956,-0.774903,68.3088,-0.032475,0.078898,-0.0263405,0,0,0,5.04,1.26,-0.28,-0.086498,0.091012,-1.03871,-0.17346,-0.24766,0.33628
0.339241,0,0,9.66076,9.66076,10.3392,10.3392,-0.188467,-0.849619,68.4417,-0.0311711,0.0756599,-0.0263644,0,0,0,4.34,1.12,-0.07,-0.086498,0.091012,-1.03871,-0.17696,-0.24668,0.32522
-0.0802403,0,0,10.0802,10.0802,9.91976,9.91976,0.0445779,-0.652863,68.3472,0.0990294,-0.0800149,0.0511432,0,0,0,4.62,1.33,-0.14,0.047702,-0.068564,-0.961848,-0.17696,-0.24668,0.32522
-0.479287,0,0,10.4793,10.4793,9.52071,9.52071,0.266271,-0.462259,68.2546,0.0957029,-0.0761457,0.0511651,0,0,0,3.99,1.54,-0.28,0.047702,-0.068564,-0.961848,-0.17696,-0.24668,0.32522
-0.176893,0,0,10.1769,10.1769,9.82311,9.82311,0.0982738,-0.328687,68.335,0.104427,0.0873811,-0.0379471,0,0,0,4.06,1.82,-0.42,0.058804,0.097722,-1.0503,-0.17696,-0.24668,0.32522
0.114723,0,0,9.88528,9.88528,10.1147,10.1147,-0.063735,-0.198748,68.4144,0.102159,0.0845535,-0.0379358,0,0,0,4.13,1.26,-0.21,0.058804,0.097722,-1.0503,-0.17696,-0.24668,0.32522
-0.276041,0,0,10.276,10.276,9.72396,9.72396,0.153356,-0.101751,68.3391,0.0411811,-0.0858103,0.00509762,0,0,0,4.27,1.26,-0.07,-0.000732,-0.07625,-1.0076,-0.17696,-0.24668,0.32522
-0.650291,0,0,10.6503,10.6503,9.34971,9.34971,0.361273,-0.00819271,68.2647,0.0395482,-0.0821815,0.00508289,0,0,0,4.27,1.47,-0.42,-0.000732,-0.07625,-1.0076,-0.17696,-0.24668,0.32522
-0.765058,0,0,10.7651,10.7651,9.23494,9.23494,0.425032,0.0414097,68.2566,0.0264125,-0.0240355,-0.0362357,0,0,0,5.04,1.4,-0.7,-0.013054,-0.019276,-1.04859,-0.17696,-0.24668,0.32522
-0.874023,0,0,10.874,10.874,9.12598,9.12598,0.485568,0.0891102,68.2529,0.0255799,-0.022979,-0.036245,0,0,0,5.04,1.4,-0.7,-0.013054,-0.019276,-1.04859,-0.1743,-0.24584,0.33502
-0.737766,0,0,10.7378,10.7378,9.26223,9.26223,0.40987,0.0457274,68.322,-0.0203134,0.0287029,0.0331091,0,0,0,4.76,1.68,-1.12,-0.059902,0.033672,-0.979782,-0.1743,-0.24584,0.33502
-0.607301,0,0,10.6073,10.6073,9.3927,9.3927,0.33739,0.00400222,68.39,-0.0195852,0.0274379,0.0331177,0,0,0,4.76,1.68,-1.12,-0.059902,0.033672,-0.979782,-0.1743,-0.24584,0.33502
-0.571478,0,0,10.5715,10.5715,9.42852,9.42852,0.317488,0.0914882,68.4112,0.0594329,0.0165876,-0.0290935,0,0,0,4.69,1.26,-1.68,0.020984,0.02318,-1.04151,-0.1743,-0.24584,0.33502
-0.536274,0,0,10.5363,10.5363,9.46373,9.46373,0.29793,0.176686,68.4322,0.0579459,0.0162463,-0.0290952,0,0,0,4.69,1.26,-1.68,0.020984,0.02318,-1.04151,-0.1743,-0.24584,0.33502
-0.534712,0,0,10.5347,10.5347,9.46529,9.46529,0.297062,0.176102,68.4305,-0.0761641,0.0122009,-0.113069,1,0,0,3.99,0.91,-1.89,-0.113704,0.019154,-1.12484,-0.1743,-0.24584,0.33502
-0.53315,0,0,10.5332,10.5332,9.46685,9.46685,0.296195,0.175518,68.4289,-0.0761539,0.0121858,-0.113069,1,0,0,3.99,0.91,-1.89,-0.113704,0.019154,-1.12484,-0.1743,-0.24584,0.33502
-0.296775,0,0,10.2968,10.2968,9.70322,9.70322,0.164875,-0.0049912,68.5448,-0.106898,0.0436009,-0.0353514,0,0,0,4.48,0.91,-1.89,-0.147742,0.052826,-1.04774,-0.1743,-0.24584,0.33502
-0.296796,0,0,10.2968,10.2968,9.7032,9.7032,0.164887,-0.00581703,68.5428,0.0129014,0.210426,-0.0820718,1,0,0,4.48,0.77,-2.1,-0.02745,0.219478,-1.0941,-0.1743,-0.24584,0.33502
-0.297716,0,0,10.2977,10.2977,9.70228,9.70228,0.165398,-0.0050909,68.5413,0.0128887,0.210435,-0.0820719,1,0,0,4.76,1.68,-1.82,-0.02745,0.219478,-1.0941,-0.17822,-0.24416,0.33796
-0.21476,0,0,10.2148,10.2148,9.78524,9.78524,0.119311,0.085787,68.5657,0.0673075,0.0303487,-0.0782596,0,0,0,4.83,1.33,-1.61,0.028792,0.040382,-1.09031,-0.17822,-0.24416,0.33796
-0.132424,0,0,10.1324,10.1324,9.86758,9.86758,0.0735686,0.174305,68.5896,0.0657626,0.0295503,-0.0782618,0,0,0,4.27,1.26,-1.68,0.028792,0.040382,-1.09031,-0.17822,-0.24416,0.33796
-0.187596,0,0,10.1876,10.1876,9.8124,9.8124,0.10422,0.216056,68.5891,0.025794,-0.0109493,-0.0983057,0,0,0,4.62,1.89,-1.61,-0.010614,-0.00061,-1.1102,-0.17822,-0.24416,0.33796
-0.237744,0,0,10.2377,10.2377,9.76226,9.76226,0.13208,0.254341,68.5897,0.0251258,-0.0104631,-0.0983094,0,0,0,3.85,0.63,-1.05,-0.010614,-0.00061,-1.1102,-0.17822,-0.24416,0.33796
-0.235068,0,0,10.2351,10.2351,9.76493,9.76493,0.130593,0.254107,68.5897,0.00192615,-0.0224574,-0.103965,1,0,0,3.64,1.12,-0.91,-0.033916,-0.012566,-1.11581,-0.17822,-0.24416,0.33796
-0.234868,0,0,10.2349,10.2349,9.76513,9.76513,0.130482,0.255186,68.5902,0.00190732,-0.0224594,-0.103965,1,0,0,4.41,1.89,-0.63,-0.033916,-0.012566,-1.11581,-0.17822,-0.24416,0.33796
0.19803,0,0,9.80197,9.80197,10.198,10.198,-0.110017,0.050836,68.7507,-0.118199,0.0951035,-0.0776438,0,0,0,3.99,1.19,-0.56,-0.158112,0.109068,-1.0897,-0.17822,-0.24416,0.33796
0.610111,0,0,9.38989,9.38989,10.6101,10.6101,-0.33895,-0.146584,68.9148,-0.114753,0.0911079,-0.0776623,0,0,0,4.83,1.12,-0.14,-0.158112,0.109068,-1.0897,-0.17766,-0.2499,0.33698
0.722481,0,0,9.27752,9.27752,10.7225,10.7225,-0.401379,-0.0187099,68.9524,0.0878401,0.0378702,-0.000208596,0,0,0,4.48,1.47,0.07,0.04758,0.056974,-1.01284,-0.17766,-0.2499,0.33698
0.831569,0,0,9.16843,9.16843,10.8316,10.8316,-0.461983,0.106034,68.9894,0.0856629,0.0368125,-0.000218224,0,0,0,4.48,1.47,0.07,0.04758,0.056974,-1.01284,-0.17766,-0.2499,0.33698
0.886207,0,0,9.11379,9.11379,10.8862,10.8862,-0.492337,0.0750434,69.0406,-0.0180309,0.0128344,-0.0853021,0,0,0,5.04,0.98,-0.14,-0.057096,0.03355,-1.09727,-0.17766,-0.2499,0.33698
1.10406,0,0,8.89594,8.89594,11.1041,11.1041,-0.613368,0.0896184,69.123,0.0222909,0.0601835,-0.0962653,0,0,0,4.48,1.4,0.14,-0.016348,0.08296,-1.10813,-0.17766,-0.2499,0.33698
1.31261,0,0,8.68739,8.68739,11.3126,11.3126,-0.729226,0.104138,69.2039,0.0220375,0.0581615,-0.0962894,0,0,0,4.76,1.19,0,-0.016348,0.08296,-1.10813,-0.17766,-0.2499,0.33698
1.86101,0,0,8.13899,8.13899,11.861,11.861,-1.03389,0.211651,69.3498,0.101678,0.148959,-0.0341645,0,0,0,3.92,1.12,0.07,0.065514,0.178974,-1.04639,-0.17766,-0.2499,0.33698
2.38841,0,0,7.61159,7.61159,12.3884,12.3884,-1.32689,0.318844,69.4931,0.0998071,0.143846,-0.0342785,0,0,0,4.27,1.61,-0.21,0.065514,0.178974,-1.04639,-0.17766,-0.2499,0.33698
2.65199,0,0,7.34801,7.34801,12.652,12.652,-1.47333,0.153873,69.624,-0.0964287,0.0538481,-0.0290423,0,0,0,4.83,1.05,-0.63,-0.134444,0.091622,-1.04115,-0.17528,-0.24402,0.33656
2.43287,0,0,7.56713,7.56713,12.4329,12.4329,-1.3516,0.62323,69.5243,0.266033,-0.0184018,0.127468,0,0,0,4.76,1.26,-0.77,0.237778,0.017324,-0.885842,-0.17528,-0.24402,0.33656
2.22264,0,0,7.77736,7.77736,12.2226,12.2226,-1.2348,1.08016,69.4253,0.258059,-0.0163614,0.127396,0,0,0,5.46,1.26,-1.05,0.237778,0.017324,-0.885842,-0.17528,-0.24402,0.33656
2.21971,0,0,7.78029,7.78029,12.2197,12.2197,-1.23317,1.07944,69.4249,0.141931,0.136447,0.137109,1,0,0,5.39,0.84,-1.19,0.121146,0.169946,-0.876204,-0.17528,-0.24402,0.33656
2.21927,0,0,7.78073,7.78073,12.2193,12.2193,-1.23293,1.07907,69.4241,0.141937,0.136452,0.137109,1,0,0,4.62,1.05,-1.4,0.121146,0.169946,-0.876204,-0.17528,-0.24402,0.33656
2.30607,0,0,7.69393,7.69393,12.3061,12.3061,-1.28115,1.03184,69.4841,-0.0253747,0.0147046,0.0862055,0,0,0,5.39,1.26,-1.33,-0.047702,0.049166,-0.926712,-0.17528,-0.24402,0.33656
2.3911,0,0,7.6089,7.6089,12.3911,12.3911,-1.32839,0.985561,69.5431,-0.0245672,0.0138802,0.086201,0,0,0,4.76,0.91,-1.4,-0.047702,0.049166,-0.926712,-0.17528,-0.24402,0.33656
2.0876,0,0,7.9124,7.9124,12.0876,12.0876,-1.15978,1.29233,69.4451,0.172961,-0.0491244,0.0677162,0,0,0,4.48,1.19,-1.4,0.156038,-0.016714,-0.945012,-0.17528,-0.24402,0.33656
1.79718,0,0,8.20282,8.20282,11.7972,11.7972,-0.998434,1.5895,69.3493,0.167776,-0.0463074,0.0676388,0,0,0,4.83,0.77,-1.68,0.156038,-0.016714,-0.945012,-0.17402,-0.24262,0.33516
1.92648,0,0,8.07352,8.07352,11.9265,11.9265,-1.07026,1.68987,69.3851,0.075761,0.0423259,-0.0402598,0,0,0,4.34,1.05,-1.82,0.065392,0.073078,-1.05201,-0.17402,-0.24262,0.33516
2.04985,0,0,7.95015,7.95015,12.0498,12.0498,-1.13881,1.78801,69.4205,0.0740489,0.0411314,-0.0403348,0,0,0,4.9,1.12,-1.75,0.065392,0.073078,-1.05201,-0.17402,-0.24262,0.33516
2.1609,0,0,7.8391,7.8391,12.1609,12.1609,-1.2005,1.89271,69.4525,0.0755025,0.0374919,-0.0149651,0,0,0,5.32,0.98,-1.47,0.068686,0.070516,-1.02675,-0.17402,-0.24262,0.33516
2.26944,0,0,7.73056,7.73056,12.2694,12.2694,-1.2608,1.99503,69.4844,0.0737178,0.0364416,-0.0150482,0,0,0,5.04,1.05,-1.19,0.068686,0.070516,-1.02675,-0.17402,-0.24262,0.33516
1.95955,0,0,8.04045,8.04045,11.9595,11.9595,-1.08864,2.14925,69.4076,0.0824476,-0.0630185,0.0275791,0,0,0,4.9,0.77,-1.33,0.080154,-0.031842,-0.984418,-0.17402,-0.24262,0.33516
1.66252,0,0,8.33748,8.33748,11.6625,11.6625,-0.923622,2.29857,69.3319,0.0798435,-0.0601393,0.0275286,0,0,0,4.97,0.77,-1.33,0.080154,-0.031842,-0.984418,-0.17402,-0.24262,0.33516
1.66231,0,0,8.33769,8.33769,11.6623,11.6623,-0.923503,2.29761,69.3315,-0.0302059,0.127938,-0.149025,1,0,0,4.55,0.7,-1.19,-0.030378,0.156038,-1.15961,-0.17402,-0.24262,0.33516
1.66297,0,0,8.33703,8.33703,11.663,11.663,-0.923873,2.29701,69.3313,-0.0301955,0.127931,-0.149024,1,0,0,4.27,0.91,-1.05,-0.030378,0.156038,-1.15961,-0.17458,-0.24416,0.33754
1.66362,0,0,8.33638,8.33638,11.6636,11.6636,-0.924235,2.2969,69.3313,-0.150586,0.115957,-0.243449,1,0,0,4.27,1.19,-0.91,-0.15128,0.144082,-1.25331,-0.17458,-0.24416,0.33754
1.66293,0,0,8.33707,8.33707,11.6629,11.6629,-0.923851,2.29654,69.3313,-0.15058,0.115963,-0.243449,1,0,0,4.69,1.05,-0.98,-0.15128,0.144082,-1.25331,-0.17458,-0.24416,0.33754
1.66134,0,0,8.33866,8.33866,11.6613,11.6613,-0.922969,2.29619,69.3312,-0.0999139,0.00789668,-0.239022,1,0,0,4.97,1.05,-0.98,-0.100406,0.036112,-1.24891,-0.17458,-0.24416,0.33754
1.66063,0,0,8.33937,8.33937,11.6606,11.6606,-0.922572,2.29704,69.3315,-0.0999287,0.00790361,-0.239022,1,0,0,4.69,1.75,-0.77,-0.100406,0.036112,-1.24891,-0.17458,-0.24416,0.33754
1.66035,0,0,8.33965,8.33965,11.6603,11.6603,-0.922415,2.29812,69.332,0.0431625,0.0369725,-0.247752,1,0,0,4.55,1.89,-0.63,0.04331,0.065148,-1.25758,-0.17458,-0.24416,0.33754
1.66115,0,0,8.33885,8.33885,11.6612,11.6612,-0.922863,2.29862,69.333,0.0431538,0.0369647,-0.247753,1,0,0,4.2,1.54,-0.35,0.04331,0.065148,-1.25758,-0.17458,-0.24416,0.33754
1.66108,0,0,8.33892,8.33892,11.6611,11.6611,-0.922821,2.29924,69.3337,0.086635,-0.152453,-0.119026,1,0,0,4.48,1.61,-0.49,0.086986,-0.124074,-1.12984,-0.17458,-0.24416,0.33754
1.66281,0,0,8.33719,8.33719,11.6628,11.6628,-0.923783,2.29925,69.3344,0.0866347,-0.15247,-0.119027,1,0,0,3.92,1.26,-0.56,0.086986,-0.124074,-1.12984,-0.17612,-0.2464,0.33712
0.989484,0,0,9.01052,9.01052,10.9895,10.9895,-0.549714,2.51781,69.1562,0.119148,-0.160356,-0.0562763,0,0,0,4.27,1.26,-0.77,0.123464,-0.13847,-1.0675,-0.17612,-0.2464,0.33712
0.343625,0,0,9.65638,9.65638,10.3436,10.3436,-0.190903,2.73018,68.9815,0.115445,-0.1541,-0.0564055,0,0,0,4.2,1.89,-0.56,0.123464,-0.13847,-1.0675,-0.17612,-0.2464,0.33712
0.344479,0,0,9.65552,9.65552,10.3445,10.3445,-0.191377,2.73078,68.9818,-0.0646071,-0.145559,-0.0951349,1,0,0,4.2,1.61,-0.77,-0.05734,-0.12993,-1.10593,-0.17612,-0.2464,0.33712
0.34424,0,0,9.65576,9.65576,10.3442,10.3442,-0.191245,2.7309,68.9817,-0.0646093,-0.145557,-0.0951349,1,0,0,4.55,1.33,-0.98,-0.05734,-0.12993,-1.10593,-0.17612,-0.2464,0.33712
-0.397993,0,0,10.398,10.398,9.60201,9.60201,0.221107,2.8495,68.7967,0.0419314,-0.182334,-0.0214685,0,0,0,4.34,1.75,-1.05,0.051728,-0.17385,-1.03273,-0.17612,-0.2464,0.33712
-1.10984,0,0,11.1098,11.1098,8.89016,8.89016,0.616576,2.96233,68.6151,0.0399646,-0.175442,-0.0216187,0,0,0,4.06,1.26,-0.98,0.051728,-0.17385,-1.03273,-0.17612,-0.2464,0.33712
-1.7062,0,0,11.7062,11.7062,8.2938,8.2938,0.947889,2.97268,68.4734,-0.0256965,-0.135228,0.0923893,0,0,0,3.85,0.98,-1.05,-0.01403,-0.139446,-0.919514,-0.17612,-0.2464,0.33712
-2.28065,0,0,12.2806,12.2806,7.71935,7.71935,1.26703,2.98253,68.3291,-0.0258681,-0.129666,0.0922729,0,0,0,4.06,1.68,-1.05,-0.01403,-0.139446,-0.919514,-0.18032,-0.24878,0.336
-2.27816,0,0,12.2782,12.2782,7.72184,7.72184,1.26564,2.98266,68.3287,-0.0925661,-0.0685051,0.147846,1,0,0,3.71,1.33,-1.19,-0.081008,-0.078324,-0.86437,-0.18032,-0.24878,0.336
-2.27568,0,0,12.2757,12.2757,7.72432,7.72432,1.26426,2.98255,68.3284,-0.0925642,-0.0685291,0.147847,1,0,0,3.71,1.19,-1.12,-0.081008,-0.078324,-0.86437,-0.18032,-0.24878,0.336
-2.27588,0,0,12.2759,12.2759,7.72412,7.72412,1.26438,2.98316,68.328,0.102896,-0.00428845,0.114527,1,0,0,4.55,1.61,-1.19,0.11529,-0.014152,-0.897432,-0.18032,-0.24878,0.336
-2.27429,0,0,12.2743,12.2743,7.72571,7.72571,1.26349,2.98282,68.3275,0.102902,-0.00430387,0.114528,1,0,0,3.99,1.05,-1.19,0.11529,-0.014152,-0.897432,-0.18032,-0.24878,0.336
-2.85192,0,0,12.8519,12.8519,7.14808,7.14808,1.5844,3.03152,68.1722,0.000733736,-0.136839,0.033444,0,0,0,4.13,0.91,-1.26,0.013542,-0.152134,-0.977708,-0.18032,-0.24878,0.336
-3.40833,0,0,13.4083,13.4083,6.59167,6.59167,1.89352,3.07895,68.0197,-9.2943e-05,-0.131455,0.0332364,0,0,0,4.62,1.82,-1.19,0.013542,-0.152134,-0.977708,-0.18032,-0.24878,0.336
-3.64408,0,0,13.6441,13.6441,6.35592,6.35592,2.02449,2.88295,67.9784,-0.129339,-0.0670052,0.106859,0,0,0,4.41,1.61,-0.98,-0.119682,-0.090036,-0.904752,-0.18032,-0.24878,0.336
-3.87261,0,0,13.8726,13.8726,6.12739,6.12739,2.15145,2.69152,67.9399,-0.126002,-0.0647875,0.106941,0,0,0,4.27,1.54,-0.91,-0.119682,-0.090036,-0.904752,-0.17738,-0.2457,0.33922
-3.87309,0,0,13.8731,13.8731,6.12691,6.12691,2.15172,2.69235,67.94,-0.204739,-0.0287555,0.228413,1,0,0,4.62,1.75,-0.91,-0.198738,-0.054046,-0.784216,-0.17738,-0.2457,0.33922
-3.87316,0,0,13.8732,13.8732,6.12684,6.12684,2.15175,2.69234,67.9405,-0.204739,-0.0287549,0.228413,1,0,0,4.48,1.26,-0.63,-0.198738,-0.054046,-0.784216,-0.17738,-0.2457,0.33922
-3.47311,0,0,13.4731,13.4731,6.52689,6.52689,1.9295,2.37574,68.0674,-0.172127,0.0671587,0.0846998,0,0,0,4.41,1.12,-0.63,-0.171532,0.045628,-0.9272,-0.17738,-0.2457,0.33922
-3.09343,0,0,13.0934,13.0934,6.90657,6.90657,1.71857,2.0693,68.1927,-0.166783,0.0634884,0.0850242,0,0,0,4.9,1.19,-0.77,-0.171532,0.045628,-0.9272,-0.17738,-0.2457,0.33922
-2.99013,0,0,12.9901,12.9901,7.00987,7.00987,1.66118,1.87514,68.2388,-0.114195,0.00887769,0.0635314,0,0,0,4.69,1.33,-0.56,-0.122122,-0.00793,-0.948672,-0.17738,-0.2457,0.33922
-2.89359,0,0,12.8936,12.8936,7.10641,7.10641,1.60755,1.68579,68.2847,-0.110891,0.00794534,0.0636607,0,0,0,4.9,0.84,-0.28,-0.122122,-0.00793,-0.948672,-0.17738,-0.2457,0.33922
-2.75054,0,0,12.7505,12.7505,7.24946,7.24946,1.52808,1.48222,68.346,-0.121554,0.0174313,0.0167075,0,0,0,5.32,0.7,-0.21,-0.136396,0.002928,-0.995398,-0.17738,-0.2457,0.33922
-2.61673,0,0,12.6167,12.6167,7.38327,7.38327,1.45374,1.28566,68.4058,-0.118124,0.0161368,0.0168241,0,0,0,5.81,1.26,-0.49,-0.136396,0.002928,-0.995398,-0.17738,-0.2457,0.33922
-1.81829,0,0,11.8183,11.8183,8.18171,8.18171,1.01016,0.818867,68.6741,-0.261592,0.156541,0.0373037,0,0,0,5.04,0.98,-0.49,-0.288652,0.150914,-0.97539,-0.1771,-0.2478,0.3423
-2.09731,0,0,12.0973,12.0973,7.90269,7.90269,1.16517,0.988361,68.583,0.0974771,-0.0548433,-0.0133262,0,0,0,4.9,1.19,-0.63,0.074908,-0.062952,-1.02553,-0.1771,-0.2478,0.3423
-2.3634,0,0,12.3634,12.3634,7.6366,7.6366,1.313,1.15247,68.493,0.0946133,-0.0522655,-0.0134354,0,0,0,4.69,1.12,-0.84,0.074908,-0.062952,-1.02553,-0.1771,-0.2478,0.3423
-2.36186,0,0,12.3619,12.3619,7.63814,7.63814,1.31215,1.15223,68.4934,0.0663114,0.0128131,-0.147326,1,0,0,3.99,1.12,-0.7,0.046482,0.002074,-1.15839,-0.1771,-0.2478,0.3423
-2.36278,0,0,12.3628,12.3628,7.63722,7.63722,1.31266,1.15211,68.4935,0.0663134,0.0128221,-0.147326,1,0,0,4.76,1.19,-0.91,0.046482,0.002074,-1.15839,-0.1771,-0.2478,0.3423
-3.00495,0,0,13.005,13.005,6.99505,6.99505,1.66942,1.3154,68.3126,0.0740333,-0.14827,-0.00320789,0,0,0,4.27,1.05,-1.05,0.057096,-0.165066,-1.01516,-0.1771,-0.2478,0.3423
-3.6222,0,0,13.6222,13.6222,6.3778,6.3778,2.01233,1.47246,68.1348,0.0712931,-0.142292,-0.00346674,0,0,0,4.69,0.84,-1.26,0.057096,-0.165066,-1.01516,-0.1771,-0.2478,0.3423
-3.54765,0,0,13.5476,13.5476,6.45235,6.45235,1.97091,1.39911,68.1543,-0.043932,0.0108665,-0.0635314,0,0,0,5.25,0.91,-1.4,-0.059902,-0.011346,-1.07482,-0.1771,-0.2478,0.3423
-3.47639,0,0,13.4764,13.4764,6.52361,6.52361,1.93133,1.32848,68.182,-0.0426995,0.0101771,-0.0634785,0,0,0,5.04,1.12,-1.82,-0.059902,-0.011346,-1.07482,-0.1736,-0.25088,0.33992
-3.47747,0,0,13.4775,13.4775,6.52253,6.52253,1.93193,1.32781,68.1806,-0.0245866,-0.0296257,-0.148559,1,0,0,4.83,0.84,-1.75,-0.041724,-0.051118,-1.15924,-0.1736,-0.25088,0.33992
-3.47721,0,0,13.4772,13.4772,6.52279,6.52279,1.93178,1.32727,68.1792,-0.0245771,-0.0296282,-0.148559,1,0,0,4.41,0.91,-1.75,-0.041724,-0.051118,-1.15924,-0.1736,-0.25088,0.33992
-3.4776,0,0,13.4776,13.4776,6.5224,6.5224,1.932,1.32709,68.1774,0.145627,-0.169459,-0.100855,1,0,0,4.62,1.12,-1.96,0.129198,-0.190808,-1.11191,-0.1736,-0.25088,0.33992
-3.47823,0,0,13.4782,13.4782,6.52177,6.52177,1.93235,1.32704,68.1757,0.145628,-0.169453,-0.100855,1,0,0,4.69,1.19,-1.96,0.129198,-0.190808,-1.11191,-0.1736,-0.25088,0.33992
-3.47684,0,0,13.4768,13.4768,6.52316,6.52316,1.93158,1.32781,68.1742,0.131037,-0.161773,-0.123969,1,0,0,4.06,1.68,-1.82,0.114558,-0.183122,-1.13484,-0.1736,-0.25088,0.33992
-3.47546,0,0,13.4755,13.4755,6.52454,6.52454,1.93081,1.32773,68.1731,0.131038,-0.161786,-0.123969,1,0,0,4.06,1.19,-1.54,0.114558,-0.183122,-1.13484,-0.1736,-0.25088,0.33992
-3.90468,0,0,13.9047,13.9047,6.09532,6.09532,2.16926,1.5152,68.0403,0.108815,-0.10011,-0.0693635,0,0,0,4.13,1.05,-1.61,0.095526,-0.12566,-1.08043,-0.1736,-0.25088,0.33992
-4.31763,0,0,14.3176,14.3176,5.68237,5.68237,2.39868,1.69675,67.8958,0.105648,-0.0961138,-0.0696118,0,0,0,4.48,1.05,-1.19,0.095526,-0.12566,-1.08043,-0.17626,-0.2401,0.33236
-5.15665,0,0,15.1567,15.1567,4.84335,4.84335,2.86481,1.75725,67.6723,-0.006324,-0.19754,0.0530545,0,0,0,4.97,1.19,-1.12,-0.01586,-0.235094,-0.95831,-0.17626,-0.2401,0.33236
-5.96245,0,0,15.9624,15.9624,4.03755,4.03755,3.31247,1.81341,67.4536,-0.0073037,-0.189743,0.0526033,0,0,0,4.9,0.84,-0.84,-0.01586,-0.235094,-0.95831,-0.17626,-0.2401,0.33236
-6.23671,0,0,16.2367,16.2367,3.76329,3.76329,3.46484,1.82796,67.3585,-0.00464183,-0.0702153,-0.0164131,0,0,0,4.62,1.26,-0.98,-0.012932,-0.11834,-1.02663,-0.17626,-0.2401,0.33236
-6.50026,0,0,16.5003,16.5003,3.49974,3.49974,3.61126,1.84127,67.266,-0.00487395,-0.0676665,-0.0165781,0,0,0,4.62,1.26,-0.42,-0.012932,-0.11834,-1.02663,-0.17626,-0.2401,0.33236
-6.45008,0,0,16.4501,16.4501,3.54992,3.54992,3.58338,1.67961,67.2736,-0.107017,-0.0103805,-0.0849434,0,0,0,4.06,1.33,-0.42,-0.11834,-0.060634,-1.09458,-0.17626,-0.2401,0.33236
-6.40439,0,0,16.4044,16.4044,3.59561,3.59561,3.55799,1.52292,67.2814,-0.104284,-0.0108177,-0.0848396,0,0,0,4.27,1.54,-0.28,-0.11834,-0.060634,-1.09458,-0.17626,-0.2401,0.33236
-6.40292,0,0,16.4029,16.4029,3.59708,3.59708,3.55718,1.52319,67.283,-0.157621,-0.142607,-0.10992,1,0,0,3.99,1.47,0,-0.171898,-0.192272,-1.11947,-0.17626,-0.2401,0.33236
-6.40079,0,0,16.4008,16.4008,3.59921,3.59921,3.556,1.52306,67.2852,-0.157618,-0.142627,-0.109919,1,0,0,3.78,1.26,0.35,-0.171898,-0.192272,-1.11947,-0.17486,-0.2436,0.33726
-6.20977,0,0,16.2098,16.2098,3.79023,3.79023,3.44987,1.46989,67.3166,-0.0239069,0.0411587,-0.0813805,0,0,0,4.41,1.47,0.35,-0.038552,-0.006832,-1.09129,-0.17486,-0.2436,0.33726
-6.02641,0,0,16.0264,16.0264,3.97359,3.97359,3.348,1.41857,67.3476,-0.0230114,0.0393858,-0.0812526,0,0,0,4.34,1.33,0.28,-0.038552,-0.006832,-1.09129,-0.17486,-0.2436,0.33726
-6.36509,0,0,16.3651,16.3651,3.63491,3.63491,3.53616,1.17424,67.2944,-0.179717,-0.113898,-0.00561714,0,0,0,4.76,1.26,0.07,-0.200202,-0.163236,-1.01614,-0.17486,-0.2436,0.33726
-6.69419,0,0,16.6942,16.6942,3.30581,3.30581,3.719,0.935565,67.241,-0.175552,-0.110709,-0.00574248,0,0,0,5.04,1.33,-0.21,-0.200202,-0.163236,-1.01614,-0.17486,-0.2436,0.33726
-6.84638,0,0,16.8464,16.8464,3.15362,3.15362,3.80354,0.9045,67.1906,-0.028498,-0.0473176,-0.05501,0,0,0,4.76,1.05,-0.49,-0.05307,-0.101382,-1.06494,-0.17486,-0.2436,0.33726
-6.99164,0,0,16.9916,16.9916,3.00836,3.00836,3.88424,0.8737,67.1409,-0.0279605,-0.0459119,-0.0550961,0,0,0,4.34,0.98,-0.49,-0.05307,-0.101382,-1.06494,-0.17486,-0.2436,0.33726
-7.04153,0,0,17.0415,17.0415,2.95847,2.95847,3.91196,0.760135,67.1275,-0.0783389,-0.028696,-0.0476009,0,0,0,4.69,1.12,-0.56,-0.105652,-0.084668,-1.0575,-0.17486,-0.2436,0.33726
-7.08953,0,0,17.0895,17.0895,2.91047,2.91047,3.93863,0.649374,67.1187,-0.0764059,-0.0282301,-0.047609,0,0,0,4.13,0.91,-0.98,-0.105652,-0.084668,-1.0575,-0.17402,-0.24724,0.33474
-7.32566,0,0,17.3257,17.3257,2.67434,2.67434,4.06981,0.543762,67.0657,-0.0828238,-0.0743071,-0.023283,0,0,0,4.27,1.05,-1.33,-0.113948,-0.13298,-1.03322,-0.17402,-0.24724,0.33474
-7.55596,0,0,17.556,17.556,2.44404,2.44404,4.19776,0.439949,67.0133,-0.081012,-0.0720788,-0.0234285,0,0,0,4.97,0.84,-1.47,-0.113948,-0.13298,-1.03322,-0.17402,-0.24724,0.33474
-7.54816,0,0,17.5482,17.5482,2.45184,2.45184,4.19342,0.430421,66.999,-0.00528158,0.000389158,-0.0134628,0,0,0,4.9,0.98,-1.33,-0.038064,-0.060512,-1.02334,-0.17402,-0.24724,0.33474
-7.53986,0,0,17.5399,17.5399,2.46014,2.46014,4.18881,0.420638,66.9841,-0.00511083,0.00030899,-0.0134557,0,0,0,4.62,0.63,-1.75,-0.038064,-0.060512,-1.02334,-0.17402,-0.24724,0.33474
-7.5428,0,0,17.5428,17.5428,2.4572,2.4572,4.19045,0.438903,66.9621,0.0121858,-0.000639736,-0.0231731,0,0,0,4.27,0.98,-1.68,-0.020374,-0.061488,-1.03297,-0.17402,-0.24724,0.33474
-7.54588,0,0,17.5459,17.5459,2.45412,2.45412,4.19216,0.456418,66.9405,0.0118801,-0.000610155,-0.0231777,0,0,0,4.41,0.84,-1.68,-0.020374,-0.061488,-1.03297,-0.17402,-0.24724,0.33474
-7.28579,0,0,17.2858,17.2858,2.71421,2.71421,4.04766,0.461905,66.9817,0.0178587,0.0653876,0.000854764,0,0,0,4.06,1.05,-1.54,-0.014274,0.006954,-1.00931,-0.17402,-0.24724,0.33474
-7.03559,0,0,17.0356,17.0356,2.96441,2.96441,3.90866,0.467988,67.0221,0.0177525,0.0629674,0.00102221,0,0,0,4.06,0.98,-1.68,-0.014274,0.006954,-1.00931,-0.17402,-0.24724,0.33474
-6.71143,0,0,16.7114,16.7114,3.28857,3.28857,3.72857,0.637713,67.0591,0.132267,0.0993986,-0.0329767,0,0,0,3.71,1.26,-1.89,0.1037,0.046482,-1.04322,-0.17346,-0.2548,0.33124
-6.71097,0,0,16.711,16.711,3.28903,3.28903,3.72831,0.638428,67.0574,-0.0933444,0.243381,0.124398,1,0,0,4.34,1.61,-1.96,-0.122854,0.19032,-0.887062,-0.17346,-0.2548,0.33124
-6.7096,0,0,16.7096,16.7096,3.2904,3.2904,3.72756,0.637593,67.0556,-0.0933298,0.243368,0.124399,1,0,0,4.06,0.7,-1.96,-0.122854,0.19032,-0.887062,-0.17346,-0.2548,0.33124
-5.4316,0,0,15.4316,15.4316,4.5684,4.5684,3.01756,0.152741,67.4279,-0.252518,0.282295,0.0120732,0,0,0,4.69,0.7,-1.61,-0.291214,0.24156,-0.999302,-0.17346,-0.2548,0.33124
-4.2037,0,0,14.2037,14.2037,5.7963,5.7963,2.33539,-0.312941,67.7984,-0.24439,0.270402,0.0126178,0,0,0,4.41,1.19,-1.61,-0.291214,0.24156,-0.999302,-0.17346,-0.2548,0.33124
-4.12176,0,0,14.1218,14.1218,5.87824,5.87824,2.28987,-0.550602,67.8734,-0.153745,-0.00334667,-0.0118481,0,0,0,3.92,1.68,-1.26,-0.20435,-0.03111,-1.02358,-0.17346,-0.2548,0.33124
-4.04531,0,0,14.0453,14.0453,5.95469,5.95469,2.24739,-0.781762,67.9475,-0.14971,-0.00408922,-0.0118657,0,0,0,3.85,1.54,-0.91,-0.20435,-0.03111,-1.02358,-0.17346,-0.2548,0.33124
-3.52919,0,0,13.5292,13.5292,6.47081,6.47081,1.96066,-1.02624,68.1285,-0.129651,0.102898,0.0167748,0,0,0,3.43,1.26,-0.84,-0.18849,0.080764,-0.995276,-0.17346,-0.2548,0.33124
-3.03748,0,0,13.0375,13.0375,6.96252,6.96252,1.68749,-1.26193,68.3025,-0.125538,0.0981311,0.0168445,0,0,0,3.85,1.26,-0.7,-0.18849,0.080764,-0.995276,-0.17402,-0.24976,0.33166
-3.03477,0,0,13.0348,13.0348,6.96523,6.96523,1.68598,-1.26208,68.3034,-0.0493641,0.0841824,0.141884,1,0,0,3.64,1.19,-0.42,-0.111996,0.066856,-0.871202,-0.17402,-0.24976,0.33166
-3.03406,0,0,13.0341,13.0341,6.96594,6.96594,1.68559,-1.26079,68.3047,-0.0493865,0.0841756,0.141884,1,0,0,4.27,2.03,-0.21,-0.111996,0.066856,-0.871202,-0.17402,-0.24976,0.33166
-1.39643,0,0,11.3964,11.3964,8.60357,8.60357,0.775792,-1.43509,68.7496,-0.0254498,0.384978,0.0752699,0,0,0,4.06,1.75,-0.07,-0.091012,0.383202,-0.93757,-0.17402,-0.24976,0.33166
0.181474,0,0,9.81853,9.81853,10.1815,10.1815,-0.100819,-1.59824,69.1912,-0.0226031,0.369684,0.0752846,0,0,0,4.69,1.54,-0.42,-0.091012,0.383202,-0.93757,-0.17402,-0.24976,0.33166
0.753248,0,0,9.24675,9.24675,10.7532,10.7532,-0.418471,-1.83262,69.4115,-0.114245,0.111462,0.0774731,0,0,0,4.55,1.4,-0.28,-0.187148,0.130784,-0.935252,-0.17402,-0.24976,0.33166
1.30304,0,0,8.69696,8.69696,11.303,11.303,-0.723909,-2.05825,69.6281,-0.110309,0.106136,0.0772863,0,0,0,3.85,1.54,-0.49,-0.187148,0.130784,-0.935252,-0.17402,-0.24976,0.33166
1.66468,0,0,8.33532,8.33532,11.6647,11.6647,-0.924823,-2.00507,69.7548,0.0534977,0.0906632,0.00718814,0,0,0,3.85,1.33,-0.42,-0.021716,0.118828,-1.00479,-0.17402,-0.24976,0.33166
2.01056,0,0,7.98944,7.98944,12.0106,12.0106,-1.11698,-1.95177,69.8699,0.0525679,0.0873114,0.00716054,0,0,0,3.99,1.33,-0.49,-0.021716,0.118828,-1.00479,-0.17878,-0.24864,0.33628
2.64956,0,0,7.35044,7.35044,12.6496,12.6496,-1.47198,-1.93687,70.0668,0.0421031,0.150611,0.0404715,0,0,0,4.2,1.33,-0.21,-0.031964,0.188246,-0.971608,-0.17878,-0.24864,0.33628
3.26232,0,0,6.73768,6.73768,13.2623,13.2623,-1.8124,-1.92096,70.2605,0.0418257,0.144675,0.0403106,0,0,0,4.83,0.84,-0.42,-0.031964,0.188246,-0.971608,-0.17878,-0.24864,0.33628
3.26167,0,0,6.73833,6.73833,13.2617,13.2617,-1.81204,-1.92117,70.2613,0.202069,0.0659092,0.177275,1,0,0,4.69,1.12,-0.49,0.128954,0.109556,-0.8357,-0.17878,-0.24864,0.33628
3.25988,0,0,6.74012,6.74012,13.2599,13.2599,-1.81104,-1.92115,70.2618,0.202069,0.0659265,0.177276,1,0,0,5.04,1.26,-0.63,0.128954,0.109556,-0.8357,-0.17878,-0.24864,0.33628
3.22243,0,0,6.77757,6.77757,13.2224,13.2224,-1.79024,-1.63753,70.2494,0.179992,0.0112053,0.0484679,0,0,0,4.9,1.19,-0.56,0.111752,0.054534,-0.963678,-0.17878,-0.24864,0.33628
3.18662,0,0,6.81338,6.81338,13.1866,13.1866,-1.77035,-1.36115,70.2361,0.175169,0.0115483,0.0486049,0,0,0,5.46,1.33,-1.19,0.111752,0.054534,-0.963678,-0.17878,-0.24864,0.33628
3.87693,0,0,6.12307,6.12307,13.8769,13.8769,-2.15385,-1.47444,70.4682,-0.0407993,0.16033,0.0132866,0,0,0,5.53,1.33,-1.26,-0.107116,0.20984,-0.998448,-0.17878,-0.24864,0.33628
4.53971,0,0,5.46029,5.46029,14.5397,14.5397,-2.52206,-1.58173,70.707,-0.0389273,0.153913,0.0129746,0,0,0,4.69,1.26,-1.26,-0.107116,0.20984,-0.998448,-0.17318,-0.24528,0.34118
4.60759,0,0,5.39241,5.39241,14.6076,14.6076,-2.55977,-1.42676,70.7531,0.107067,0.0280727,0.000352677,0,0,0,4.97,0.84,-1.4,0.042212,0.08479,-1.01101,-0.17318,-0.24528,0.34118
4.67394,0,0,5.32606,5.32606,14.6739,14.6739,-2.59663,-1.27564,70.7984,0.10443,0.0274274,0.000385877,0,0,0,4.97,0.84,-1.4,0.042212,0.08479,-1.01101,-0.17318,-0.24528,0.34118
4.7471,0,0,5.2529,5.2529,14.7471,14.7471,-2.63728,-1.32005,70.8776,-0.0264851,0.0160947,-0.0199505,0,0,0,4.69,0.91,-1.61,-0.090036,0.074176,-1.03114,-0.17318,-0.24528,0.34118
4.81707,0,0,5.18293,5.18293,14.8171,14.8171,-2.67615,-1.36307,70.9555,-0.0257344,0.015418,-0.0199995,0,0,0,4.69,0.91,-1.61,-0.090036,0.074176,-1.03114,-0.17318,-0.24528,0.34118
4.60819,0,0,5.39181,5.39181,14.6082,14.6082,-2.56011,-1.33316,70.9508,0.00994632,-0.0476534,-0.00661635,0,0,0,5.6,1.26,-1.4,-0.05368,0.00915,-1.01797,-0.17318,-0.24528,0.34118
4.40774,0,0,5.59226,5.59226,14.4077,14.4077,-2.44874,-1.30459,70.9462,0.00944795,-0.0457127,-0.00651997,0,0,0,5.6,1.26,-1.4,-0.05368,0.00915,-1.01797,-0.17318,-0.24528,0.34118
4.0871,0,0,5.9129,5.9129,14.0871,14.0871,-2.27061,-1.45655,70.9384,-0.106349,-0.0853489,0.0734607,0,0,0,5.39,0.91,-1.26,-0.17263,-0.03355,-0.938668,-0.17318,-0.24528,0.34118
3.77601,0,0,6.22399,6.22399,13.776,13.776,-2.09778,-1.60509,70.9363,-0.103758,-0.0823331,0.0735064,0,0,0,5.39,0.91,-1.26,-0.17263,-0.03355,-0.938668,-0.17206,-0.25018,0.33684
3.02634,0,0,6.97366,6.97366,13.0263,13.0263,-1.6813,-1.79091,70.8248,-0.156642,-0.193531,0.0426669,0,0,0,4.69,1.19,-1.26,-0.228994,-0.15189,-0.969412,-0.17206,-0.25018,0.33684
2.3049,0,0,7.6951,7.6951,12.3049,12.3049,-1.2805,-1.97395,70.7152,-0.153449,-0.186539,0.0427427,0,0,0,4.69,1.19,-1.26,-0.228994,-0.15189,-0.969412,-0.17206,-0.25018,0.33684
2.30395,0,0,7.69605,7.69605,12.3039,12.3039,-1.27997,-1.97443,70.7147,-0.136919,-0.0700211,0.129913,1,0,0,4.76,0.98,-1.19,-0.212402,-0.035502,-0.882914,-0.17206,-0.25018,0.33684
2.303,0,0,7.697,7.697,12.303,12.303,-1.27945,-1.97492,70.7143,-0.13691,-0.0700119,0.129913,1,0,0,4.76,0.98,-1.19,-0.212402,-0.035502,-0.882914,-0.17206,-0.25018,0.33684
2.30188,0,0,7.69812,7.69812,12.3019,12.3019,-1.27882,-1.97479,70.7146,0.170568,-0.130698,0.163232,1,0,0,4.83,1.33,-0.77,0.09638,-0.096136,-0.849852,-0.17206,-0.25018,0.33684
2.30075,0,0,7.69925,7.69925,12.3007,12.3007,-1.27819,-1.97466,70.7149,0.170565,-0.130687,0.163233,1,0,0,4.83,1.33,-0.77,0.09638,-0.096136,-0.849852,-0.17206,-0.25018,0.33684
2.30073,0,0,7.69927,7.69927,12.3007,12.3007,-1.27818,-1.97573,70.7148,0.0617328,-0.0235817,0.117126,1,0,0,4.48,0.63,-0.98,-0.012932,0.010858,-0.895602,-0.17206,-0.25018,0.33684
2.3016,0,0,7.6984,7.6984,12.3016,12.3016,-1.27867,-1.97572,70.7148,0.204721,0.0438238,-0.167377,1,0,0,4.2,1.26,-0.98,0.130662,0.078202,-1.17791,-0.1715,-0.24948,0.34272
2.47052,0,0,7.52948,7.52948,12.4705,12.4705,-1.37251,-2.43611,70.8728,-0.268454,0.00177072,0.131656,0,0,0,3.99,1.05,-0.98,-0.35258,0.03782,-0.88084,-0.1715,-0.24948,0.34272
2.6288,0,0,7.3712,7.3712,12.6288,12.6288,-1.46044,-2.88375,71.0277,-0.26065,0.000247139,0.131256,0,0,0,4.06,1.26,-0.77,-0.35258,0.03782,-0.88084,-0.1715,-0.24948,0.34272
3.13736,0,0,6.86264,6.86264,13.1374,13.1374,-1.74298,-2.99002,71.222,-0.0403661,0.105241,0.0674585,0,0,0,3.85,1.4,-0.91,-0.133224,0.14762,-0.943914,-0.1715,-0.24948,0.34272
3.62459,0,0,6.37541,6.37541,13.6246,13.6246,-2.01366,-3.09207,71.4129,-0.0385877,0.100529,0.0672094,0,0,0,4.06,1.19,-1.05,-0.133224,0.14762,-0.943914,-0.1715,-0.24948,0.34272
3.62523,0,0,6.37477,6.37477,13.6252,13.6252,-2.01402,-3.09219,71.4128,0.0978429,0.129711,0.129913,1,0,0,4.27,1.19,-1.05,0.003782,0.176778,-0.881694,-0.1715,-0.24948,0.34272
3.62771,0,0,6.37229,6.37229,13.6277,13.6277,-2.01539,-3.09181,71.413,0.0978364,0.129687,0.129912,1,0,0,3.71,1.47,-0.77,0.003782,0.176778,-0.881694,-0.1715,-0.24948,0.34272
3.62885,0,0,6.37115,6.37115,13.6288,13.6288,-2.01603,-3.09144,71.4134,0.0395167,0.039913,0.219542,1,0,0,4.13,1.47,-0.7,-0.054778,0.087108,-0.792756,-0.1715,-0.24948,0.34272
3.63221,0,0,6.36779,6.36779,13.6322,13.6322,-2.01789,-3.09083,71.4136,0.0395061,0.0398805,0.219541,1,0,0,3.43,1.61,-0.84,-0.054778,0.087108,-0.792756,-0.17836,-0.25186,0.34748
3.72242,0,0,6.27758,6.27758,13.7224,13.7224,-2.06801,-3.08103,71.4761,0.0139448,0.0170244,0.0835382,0,0,0,3.92,1.61,-0.63,-0.080276,0.065148,-0.927688,-0.17836,-0.25186,0.34748
3.80956,0,0,6.19044,6.19044,13.8096,13.8096,-2.11642,-3.07159,71.5371,0.0137803,0.0161809,0.0835162,0,0,0,3.78,1.4,-0.84,-0.080276,0.065148,-0.927688,-0.17836,-0.25186,0.34748
3.80976,0,0,6.19024,6.19024,13.8098,13.8098,-2.11653,-3.07123,71.537,0.236822,-0.203893,0.137737,1,0,0,4.41,1.47,-0.98,0.143716,-0.154696,-0.873886,-0.17836,-0.25186,0.34748
3.80727,0,0,6.19273,6.19273,13.8073,13.8073,-2.11515,-3.07099,71.5371,0.236818,-0.203869,0.137738,1,0,0,5.25,1.4,-0.91,0.143716,-0.154696,-0.873886,-0.17836,-0.25186,0.34748
3.81134,0,0,6.18866,6.18866,13.8113,13.8113,-2.11741,-3.07097,71.5376,0.158823,-0.0556468,0.127901,1,0,0,3.22,1.26,-0.63,0.065392,-0.006588,-0.883646,-0.17836,-0.25186,0.34748
3.81226,0,0,6.18774,6.18774,13.8123,13.8123,-2.11792,-3.07106,71.538,0.158825,-0.0556557,0.1279,1,0,0,4.2,1.19,-0.7,0.065392,-0.006588,-0.883646,-0.17836,-0.25186,0.34748
3.68439,0,0,6.31561,6.31561,13.6844,13.6844,-2.04688,-2.91361,71.5197,0.0970386,-0.020228,0.0324346,0,0,0,3.57,1.33,-0.7,0.0061,0.027572,-0.978562,-0.17836,-0.25186,0.34748
3.56097,0,0,6.43903,6.43903,13.561,13.561,-1.97832,-2.76093,71.5006,0.094377,-0.0190382,0.0326084,0,0,0,3.92,1.05,-0.49,0.0061,0.027572,-0.978562,-0.17878,-0.2513,0.34244
3.5617,0,0,6.4383,6.4383,13.5617,13.5617,-1.97872,-2.76149,71.5014,0.115525,-0.1336,0.157155,1,0,0,4.27,0.91,-0.49,0.027328,-0.086864,-0.854976,-0.17878,-0.2513,0.34244
3.56194,0,0,6.43806,6.43806,13.5619,13.5619,-1.97885,-2.76147,71.5018,0.115525,-0.133602,0.157154,1,0,0,4.41,1.26,-0.7,0.027328,-0.086864,-0.854976,-0.17878,-0.2513,0.34244
3.13512,0,0,6.86488,6.86488,13.1351,13.1351,-1.74173,-2.47678,71.3817,0.165838,-0.0801386,0.0386244,0,0,0,4.06,1.05,-0.7,0.082838,-0.037576,-0.97295,-0.17878,-0.2513,0.34244
2.72486,0,0,7.27514,7.27514,12.7249,12.7249,-1.51381,-2.20037,71.2641,0.161017,-0.0761711,0.0389341,0,0,0,4.69,0.98,-0.84,0.082838,-0.037576,-0.97295,-0.17878,-0.2513,0.34244
3.02661,0,0,6.97339,6.97339,13.0266,13.0266,-1.68145,-2.19459,71.3673,0.0180492,0.079671,-0.0531091,0,0,0,4.83,0.63,-0.91,-0.060634,0.121024,-1.06421,-0.17878,-0.2513,0.34244
3.31617,0,0,6.68383,6.68383,13.3162,13.3162,-1.84232,-2.18721,71.4682,0.0179205,0.0768665,-0.0531904,0,0,0,4.97,1.12,-1.26,-0.060634,0.121024,-1.06421,-0.17878,-0.2513,0.34244
3.26494,0,0,6.73506,6.73506,13.2649,13.2649,-1.81385,-2.1442,71.4776,0.0268892,-0.00861538,0.0079592,0,0,0,5.18,0.84,-1.19,-0.050874,0.035136,-1.00357,-0.17878,-0.2513,0.34244
3.21835,0,0,6.78165,6.78165,13.2184,13.2184,-1.78797,-2.10159,71.4876,0.0261461,-0.00816511,0.00800092,0,0,0,4.48,1.33,-0.7,-0.050874,0.035136,-1.00357,-0.17878,-0.2513,0.34244
3.21745,0,0,6.78255,6.78255,13.2175,13.2175,-1.78747,-2.10217,71.4879,0.139259,-0.135779,-0.0939235,1,0,0,4.76,0.91,-0.77,0.062708,-0.092354,-1.10471,-0.17724,-0.25368,0.34202
3.06714,0,0,6.93286,6.93286,13.0671,13.0671,-1.70397,-1.92583,71.4534,0.106905,-0.0235573,0.0516771,0,0,0,4.06,0.98,-1.12,0.033306,0.0183,-0.960384,-0.17724,-0.25368,0.34202
2.92018,0,0,7.07982,7.07982,12.9202,12.9202,-1.62232,-1.75442,71.4195,0.103915,-0.0221364,0.0518144,0,0,0,5.25,0.98,-1.12,0.033306,0.0183,-0.960384,-0.17724,-0.25368,0.34202
3.39653,0,0,6.60347,6.60347,13.3965,13.3965,-1.88696,-1.68765,71.5578,0.0652115,0.110885,0.0738388,0,0,0,4.62,0.98,-1.12,-0.004392,0.155794,-0.938424,-0.17724,-0.25368,0.34202
3.85545,0,0,6.14455,6.14455,13.8554,13.8554,-2.14191,-1.62046,71.6936,0.0640392,0.106438,0.0737163,0,0,0,4.55,1.4,-1.26,-0.004392,0.155794,-0.938424,-0.17724,-0.25368,0.34202
4.80893,0,0,5.19107,5.19107,14.8089,14.8089,-2.67163,-1.57778,71.9603,0.0708268,0.215911,0.0983075,0,0,0,4.55,1.05,-1.4,0.003172,0.274378,-0.913658,-0.17724,-0.25368,0.34202
5.72885,0,0,4.27115,4.27115,15.7288,15.7288,-3.18269,-1.53313,72.2235,0.0700478,0.207005,0.0978733,0,0,0,4.2,0.98,-1.47,0.003172,0.274378,-0.913658,-0.17724,-0.25368,0.34202
6.50012,0,0,3.49988,3.49988,16.5001,16.5001,-3.61118,-1.6482,72.4923,-0.0408048,0.173655,0.0448757,0,0,0,4.62,1.12,-1.4,-0.110166,0.248514,-0.965752,-0.17276,-0.25676,0.3493
5.62345,0,0,4.37655,4.37655,15.6234,15.6234,-3.12414,-1.72391,72.3325,-0.0863776,-0.213062,0.0470573,0,0,0,4.62,1.05,-1.4,-0.157258,-0.146278,-0.964044,-0.17276,-0.25676,0.3493
4.782,0,0,5.218,5.218,14.782,14.782,-2.65667,-1.79898,72.1759,-0.085068,-0.204916,0.0474283,0,0,0,4.27,1.4,-1.47,-0.157258,-0.146278,-0.964044,-0.17276,-0.25676,0.3493
3.78299,0,0,6.21701,6.21701,13.783,13.783,-2.10166,-1.76391,71.957,-0.0226287,-0.240552,0.0212923,0,0,0,4.2,1.61,-1.19,-0.09394,-0.19154,-0.990396,-0.17276,-0.25676,0.3493
2.82391,0,0,7.17609,7.17609,12.8239,12.8239,-1.56884,-1.73233,71.7428,-0.0231796,-0.231262,0.0216068,0,0,0,4.06,1.19,-1.4,-0.09394,-0.19154,-0.990396,-0.17276,-0.25676,0.3493
1.31258,0,0,8.68742,8.68742,11.3126,11.3126,-0.72921,-1.44923,71.3439,0.114991,-0.338502,0.0902741,0,0,0,3.85,1.75,-1.19,0.049776,-0.313296,-0.922686,-0.17276,-0.25676,0.3493
-0.142056,0,0,10.1421,10.1421,9.85794,9.85794,0.0789202,-1.17545,70.9555,0.110214,-0.324402,0.0904636,0,0,0,4.48,1.19,-1.12,0.049776,-0.313296,-0.922686,-0.17276,-0.25676,0.3493
-1.00382,0,0,11.0038,11.0038,8.99618,8.99618,0.557677,-0.969863,70.7201,0.0935064,-0.192211,0.036387,0,0,0,3.85,1.4,-0.98,0.0366,-0.189588,-0.976366,-0.17276,-0.25676,0.3493
-1.83436,0,0,11.8344,11.8344,8.16564,8.16564,1.01909,-0.771503,70.4823,0.0900447,-0.184159,0.0363288,0,0,0,4.76,1.05,-0.56,0.0366,-0.189588,-0.976366,-0.1743,-0.24962,0.34048
-2.39091,0,0,12.3909,12.3909,7.60909,7.60909,1.32828,-0.462793,70.292,0.170912,-0.104876,0.0561939,0,0,0,4.48,1.4,-0.28,0.12322,-0.115778,-0.956602,-0.1743,-0.24962,0.34048
-2.92475,0,0,12.9248,12.9248,7.07525,7.07525,1.62486,-0.16314,70.1053,0.165682,-0.0997006,0.0560891,0,0,0,4.76,1.33,-0.35,0.12322,-0.115778,-0.956602,-0.1743,-0.24962,0.34048
-2.97187,0,0,12.9719,12.9719,7.02813,7.02813,1.65104,0.147729,70.0316,0.196095,0.0183641,0.0525113,0,0,0,4.48,1.33,-0.21,0.15921,0.001708,-0.96014,-0.1743,-0.24962,0.34048
-3.01459,0,0,13.0146,13.0146,6.98541,6.98541,1.67477,0.450523,69.9586,0.19081,0.0187774,0.0524717,0,0,0,4.48,1.33,-0.21,0.15921,0.001708,-0.96014,-0.1743,-0.24962,0.34048
-2.84698,0,0,12.847,12.847,7.15302,7.15302,1.58166,0.535084,69.9683,0.0581296,0.0485391,0.0811522,0,0,0,4.83,1.4,-0.28,0.02745,0.033062,-0.931714,-0.1743,-0.24962,0.34048
-2.68491,0,0,12.6849,12.6849,7.31509,7.31509,1.49162,0.617867,69.9778,0.0566848,0.0469679,0.0811798,0,0,0,4.83,1.4,-0.28,0.02745,0.033062,-0.931714,-0.1743,-0.24962,0.34048
-2.20956,0,0,12.2096,12.2096,7.79044,7.79044,1.22753,0.477817,70.0983,-0.0711036,0.109042,-0.0274969,0,0,0,4.69,1.12,-0.21,-0.103334,0.099674,-1.03968,-0.1743,-0.24962,0.34048
-1.75255,0,0,11.7526,11.7526,8.24745,8.24745,0.97364,0.342787,70.22,-0.0687469,0.104612,-0.0273949,0,0,0,4.69,1.12,-0.21,-0.103334,0.099674,-1.03968,-0.17402,-0.25284,0.33824
-1.84164,0,0,11.8416,11.8416,8.15836,8.15836,1.02313,0.107921,70.229,-0.174714,-0.0487701,-0.0822289,0,0,0,4.9,0.84,-0.49,-0.213866,-0.054412,-1.0941,-0.17402,-0.25284,0.33824
-1.92955,0,0,11.9296,11.9296,8.07045,8.07045,1.07197,-0.121055,70.2375,-0.170717,-0.0479178,-0.082245,0,0,0,4.9,0.84,-0.49,-0.213866,-0.054412,-1.0941,-0.17402,-0.25284,0.33824
-2.16013,0,0,12.1601,12.1601,7.83987,7.83987,1.20007,-0.0789402,70.169,0.0166074,-0.0533765,0.00156288,0,0,0,4.55,1.12,-0.98,-0.02501,-0.062098,-1.01089,-0.17402,-0.25284,0.33824
-2.38138,0,0,12.3814,12.3814,7.61862,7.61862,1.32299,-0.0385304,70.1016,0.0159021,-0.0512316,0.00151637,0,0,0,4.55,1.12,-0.98,-0.02501,-0.062098,-1.01089,-0.17402,-0.25284,0.33824
-2.69694,0,0,12.6969,12.6969,7.30306,7.30306,1.4983,0.0754827,69.9987,0.0657866,-0.0769948,-0.090648,0,0,0,4.48,1.05,-1.19,0.027084,-0.09089,-1.10227,-0.17402,-0.25284,0.33824
-2.99931,0,0,12.9993,12.9993,7.00069,7.00069,1.66628,0.185745,69.8975,0.0638621,-0.0740642,-0.0907334,0,0,0,4.48,1.05,-1.19,0.027084,-0.09089,-1.10227,-0.17402,-0.25284,0.33824
-2.93702,0,0,12.937,12.937,7.06298,7.06298,1.63168,0.100424,69.9114,-0.0567419,0.00605794,-0.0764502,0,0,0,4.55,0.84,-1.61,-0.095526,-0.010248,-1.08812,-0.17402,-0.25284,0.33824
-2.87797,0,0,12.878,12.878,7.12203,7.12203,1.59887,0.0175502,69.925,-0.0552954,0.00548572,-0.0764326,0,0,0,4.55,0.84,-1.61,-0.095526,-0.010248,-1.08812,-0.17402,-0.25284,0.33824
-3.1611,0,0,13.1611,13.1611,6.8389,6.8389,1.75617,0.188659,69.8115,0.100986,-0.0552763,-0.00779014,0,0,0,4.76,0.77,-1.54,0.064416,-0.073688,-1.01992,-0.17682,-0.25032,0.3374
-3.16336,0,0,13.1634,13.1634,6.83664,6.83664,1.75742,0.187867,69.8102,-0.0551094,0.156269,0.138272,1,0,0,5.18,0.77,-1.68,-0.092354,0.137616,-0.874984,-0.17682,-0.25032,0.3374
-3.16562,0,0,13.1656,13.1656,6.83438,6.83438,1.75868,0.187075,69.8089,-0.0550956,0.156291,0.138271,1,0,0,5.18,0.77,-1.68,-0.092354,0.137616,-0.874984,-0.17682,-0.25032,0.3374
-2.97557,0,0,12.9756,12.9756,7.02443,7.02443,1.6531,0.178454,69.8344,0.00373248,0.0467334,0.0127963,0,0,0,4.76,1.26,-1.61,-0.033428,0.030012,-0.999546,-0.17682,-0.25032,0.3374
-2.79287,0,0,12.7929,12.7929,7.20713,7.20713,1.55159,0.170607,69.8596,0.00386943,0.0449625,0.0128463,0,0,0,4.76,1.26,-1.61,-0.033428,0.030012,-0.999546,-0.17682,-0.25032,0.3374
-2.85876,0,0,12.8588,12.8588,7.14124,7.14124,1.5882,0.0154434,69.8489,-0.0972927,-0.0268198,0.0859875,0,0,0,3.92,1.05,-1.33,-0.137738,-0.042334,-0.926956,-0.17682,-0.25032,0.3374
-2.92367,0,0,12.9237,12.9237,7.07633,7.07633,1.62426,-0.135811,69.8383,-0.0946528,-0.0261908,0.0859671,0,0,0,3.92,1.05,-1.33,-0.137738,-0.042334,-0.926956,-0.17682,-0.25032,0.3374
-2.92391,0,0,12.9239,12.9239,7.07609,7.07609,1.6244,-0.136528,69.8384,-0.0619607,0.035852,0.18285,1,0,0,4.55,0.84,-0.84,-0.10492,0.019642,-0.83082,-0.17682,-0.25032,0.3374
-2.92416,0,0,12.9242,12.9242,7.07584,7.07584,1.62453,-0.137244,69.8385,-0.0619482,0.0358543,0.18285,1,0,0,4.55,0.84,-0.84,-0.10492,0.019642,-0.83082,-0.17304,-0.2513,0.34286
-3.57857,0,0,13.5786,13.5786,6.42143,6.42143,1.9881,0.0939192,69.636,0.115152,-0.134277,0.0625312,0,0,0,4.62,0.91,-0.56,0.076982,-0.156648,-0.950014,-0.17304,-0.2513,0.34286
-4.20618,0,0,14.2062,14.2062,5.79382,5.79382,2.33677,0.317812,69.4375,0.111245,-0.128196,0.0622875,0,0,0,4.62,0.91,-0.56,0.076982,-0.156648,-0.950014,-0.17304,-0.2513,0.34286
-4.56551,0,0,14.5655,14.5655,5.43449,5.43449,2.5364,0.310057,69.3353,-0.0237119,-0.0922293,0.00349372,0,0,0,3.64,1.26,-0.42,-0.058682,-0.124196,-1.00821,-0.17304,-0.2513,0.34286
-4.91104,0,0,14.911,14.911,5.08896,5.08896,2.72836,0.301557,69.2347,-0.0235636,-0.0888825,0.00334064,0,0,0,3.64,1.26,-0.42,-0.058682,-0.124196,-1.00821,-0.17304,-0.2513,0.34286
-5.47718,0,0,15.4772,15.4772,4.52282,4.52282,3.04288,0.516449,69.0458,0.11118,-0.121261,0.0240618,0,0,0,3.29,1.68,-0.21,0.080398,-0.162016,-0.987346,-0.17304,-0.2513,0.34286
-6.0199,0,0,16.0199,16.0199,3.9801,3.9801,3.34439,0.724538,68.8605,0.107548,-0.116009,0.0237293,0,0,0,3.29,1.68,-0.21,0.080398,-0.162016,-0.987346,-0.17304,-0.2513,0.34286
-6.37524,0,0,16.3752,16.3752,3.62476,3.62476,3.5418,1.03239,68.7017,0.187823,-0.0606713,0.00303075,0,0,0,3.99,1.54,0.07,0.166408,-0.110166,-1.0076,-0.17304,-0.2513,0.34286
-6.715,0,0,16.715,16.715,3.285,3.285,3.73056,1.33163,68.5398,0.182601,-0.0573911,0.00271434,0,0,0,3.99,1.54,0.07,0.166408,-0.110166,-1.0076,-0.1722,-0.2436,0.33838
-6.33198,0,0,16.332,16.332,3.66802,3.66802,3.51777,1.5622,68.5543,0.173719,0.124408,0.000142751,0,0,0,3.85,1.61,0,0.161528,0.075152,-1.01028,-0.1722,-0.2436,0.33838
-5.96035,0,0,15.9603,15.9603,4.03965,4.03965,3.3113,1.78775,68.5681,0.169784,0.120805,0.000242418,0,0,0,3.85,1.61,0,0.161528,0.075152,-1.01028,-0.1722,-0.2436,0.33838
-5.97089,0,0,15.9709,15.9709,4.02911,4.02911,3.31716,1.95505,68.503,0.107338,0.0151401,0.0163705,0,0,0,4.2,1.75,-0.63,0.101748,-0.0305,-0.994178,-0.1722,-0.2436,0.33838
-5.9794,0,0,15.9794,15.9794,4.0206,4.0206,3.32189,2.11792,68.4386,0.104497,0.0152165,0.0162649,0,0,0,4.2,1.75,-0.63,0.101748,-0.0305,-0.994178,-0.1722,-0.2436,0.33838
-5.87467,0,0,15.8747,15.8747,4.12533,4.12533,3.26371,2.3121,68.3942,0.132089,0.0475366,0.0131187,0,0,0,4.06,1.33,-0.84,0.132858,0.002806,-0.997228,-0.1722,-0.2436,0.33838
-5.59991,0,0,15.5999,15.5999,4.40009,4.40009,3.11106,2.09983,68.4557,-0.127225,0.0478174,-0.0151149,0,0,0,3.29,1.19,-0.98,-0.131272,0.005734,-1.02553,-0.1722,-0.2436,0.33838
-5.34048,0,0,15.3405,15.3405,4.65952,4.65952,2.96693,1.89458,68.5164,-0.123645,0.0453137,-0.014857,0,0,0,4.13,1.47,-1.19,-0.131272,0.005734,-1.02553,-0.1722,-0.2436,0.33838
-4.49356,0,0,14.4936,14.4936,5.50644,5.50644,2.49642,1.85817,68.6965,0.0179134,0.21249,0.0256362,0,0,0,4.27,1.05,-1.05,0.010248,0.180926,-0.98576,-0.16814,-0.24388,0.3381
-4.55216,0,0,14.5522,14.5522,5.44784,5.44784,2.52898,1.96184,68.6471,0.0656712,-0.00457473,0.00809233,0,0,0,4.34,0.56,-1.47,0.060024,-0.036478,-1.00308,-0.16814,-0.24388,0.3381
-4.60893,0,0,14.6089,14.6089,5.39107,5.39107,2.56051,2.06324,68.5981,0.0639026,-0.00402795,0.00800581,0,0,0,4.76,0.91,-1.68,0.060024,-0.036478,-1.00308,-0.16814,-0.24388,0.3381
-4.22047,0,0,14.2205,14.2205,5.77953,5.77953,2.34471,2.00712,68.6785,-0.0183363,0.0906469,0.0688153,0,0,0,4.48,0.98,-1.68,-0.023546,0.061854,-0.942938,-0.16814,-0.24388,0.3381
-3.84607,0,0,13.8461,13.8461,6.15393,6.15393,2.13671,1.95364,68.7584,-0.0174033,0.0870229,0.0689893,0,0,0,4.2,0.98,-1.54,-0.023546,0.061854,-0.942938,-0.16814,-0.24388,0.3381
-3.3313,0,0,13.3313,13.3313,6.6687,6.6687,1.85072,2.04573,68.8493,0.0883837,0.143343,-0.000113168,0,0,0,5.18,0.98,-1.68,0.084302,0.123098,-1.01162,-0.16814,-0.24388,0.3381
-2.83281,0,0,12.8328,12.8328,7.16719,7.16719,1.57378,2.13683,68.9391,0.0867947,0.138513,-2.68382e-05,0,0,0,4.76,0.98,-1.68,0.084302,0.123098,-1.01162,-0.16814,-0.24388,0.3381
-3.02021,0,0,13.0202,13.0202,6.97979,6.97979,1.67789,2.39482,68.843,0.152514,-0.0205177,0.0656441,0,0,0,5.11,0.35,-1.89,0.154818,-0.037576,-0.946232,-0.16814,-0.24388,0.3381
-3.2009,0,0,13.2009,13.2009,6.7991,6.7991,1.77828,2.6475,68.7501,0.148108,-0.018774,0.0653974,0,0,0,5.11,1.12,-1.54,0.154818,-0.037576,-0.946232,-0.17248,-0.25326,0.3346
-2.76708,0,0,12.7671,12.7671,7.23292,7.23292,1.53727,2.56301,68.8517,-0.032647,0.110879,-0.0908045,0,0,0,5.25,0.98,-1.47,-0.028182,0.096136,-1.10142,-0.17248,-0.25326,0.3346
-2.35018,0,0,12.3502,12.3502,7.64982,7.64982,1.30566,2.48218,68.9525,-0.0312377,0.106843,-0.0906423,0,0,0,5.25,1.05,-1.4,-0.028182,0.096136,-1.10142,-0.17248,-0.25326,0.3346
-2.14703,0,0,12.147,12.147,7.85297,7.85297,1.19279,2.58961,68.9756,0.0899542,0.0655488,-0.0578551,0,0,0,5.25,1.05,-1.33,0.095404,0.056852,-1.06884,-0.17248,-0.25326,0.3346
-1.94813,0,0,11.9481,11.9481,8.05187,8.05187,1.08229,2.69511,68.9986,0.0881147,0.063621,-0.0579017,0,0,0,4.55,1.26,-1.19,0.095404,0.056852,-1.06884,-0.17248,-0.25326,0.3346
-2.48347,0,0,12.4835,12.4835,7.51653,7.51653,1.37971,2.87758,68.8432,0.0924659,-0.119152,0.0237159,0,0,0,4.62,1.12,-1.26,0.102968,-0.130906,-0.98759,-0.17248,-0.25326,0.3346
-2.99731,0,0,12.9973,12.9973,7.00269,7.00269,1.66517,3.05445,68.6913,0.0893831,-0.114182,0.023424,0,0,0,4.55,1.33,-0.7,0.102968,-0.130906,-0.98759,-0.17248,-0.25326,0.3346
-2.7943,0,0,12.7943,12.7943,7.2057,7.2057,1.55239,3.02245,68.7326,-0.00797665,0.0506788,-0.0615716,0,0,0,4.62,0.98,-0.49,0.004636,0.035746,-1.07201,-0.17248,-0.25326,0.3346
-2.59892,0,0,12.5989,12.5989,7.40108,7.40108,1.44384,2.99178,68.7727,-0.0074421,0.0487883,-0.0614941,0,0,0,4.34,0.84,-0.42,0.004636,0.035746,-1.07201,-0.17192,-0.2506,0.3388
-2.59926,0,0,12.5993,12.5993,7.40074,7.40074,1.44403,2.99128,68.7736,0.0839238,0.0430516,-0.101821,1,0,0,4.55,0.98,-0.35,0.09638,0.030012,-1.11203,-0.17192,-0.2506,0.3388
-2.59898,0,0,12.599,12.599,7.40102,7.40102,1.44388,2.99077,68.7752,0.0839328,0.043049,-0.10182,1,0,0,4.34,0.98,0,0.09638,0.030012,-1.11203,-0.17192,-0.2506,0.3388
-2.00248,0,0,12.0025,12.0025,7.99752,7.99752,1.11249,2.57881,68.9771,-0.247345,0.116419,0.0143524,0,0,0,4.76,1.61,0,-0.243512,0.109068,-0.997228,-0.17192,-0.2506,0.3388
-1.43277,0,0,11.4328,11.4328,8.56723,8.56723,0.795983,2.1788,69.177,-0.240369,0.110906,0.014734,0,0,0,4.97,1.12,-0.14,-0.243512,0.109068,-0.997228,-0.17192,-0.2506,0.3388
-1.27794,0,0,11.2779,11.2779,8.72206,8.72206,0.709966,1.80081,69.2824,-0.240822,0.00596713,0.0409249,0,0,0,4.76,1.4,-0.07,-0.250588,0.005734,-0.971486,-0.17192,-0.2506,0.3388
-1.13258,0,0,11.1326,11.1326,8.86742,8.86742,0.629209,1.43207,69.3856,-0.234389,0.00456045,0.0411229,0,0,0,4.76,0.77,-0.28,-0.250588,0.005734,-0.971486,-0.17192,-0.2506,0.3388
-1.13154,0,0,11.1315,11.1315,8.86846,8.86846,0.628631,1.43242,69.387,-0.191754,0.314142,-0.0561294,1,0,0,4.13,1.47,-0.14,-0.207766,0.315004,-1.06799,-0.17192,-0.2506,0.3388
-1.13139,0,0,11.1314,11.1314,8.86861,8.86861,0.628548,1.43241,69.3882,-0.191754,0.31414,-0.0561294,1,0,0,4.41,1.26,-0.21,-0.207766,0.315004,-1.06799,-0.1722,-0.24878,0.3423
-0.44148,0,0,10.4415,10.4415,9.55852,9.55852,0.245267,1.06029,69.6219,-0.207128,0.137087,0.0661507,0,0,0,4.41,1.26,-0.56,-0.229726,0.144814,-0.946842,-0.1722,-0.24878,0.3423
0.21768,0,0,9.78232,9.78232,10.2177,10.2177,-0.120933,0.699549,69.8533,-0.200833,0.130696,0.0662544,0,0,0,4.97,0.84,-0.56,-0.229726,0.144814,-0.946842,-0.1722,-0.24878,0.3423
0.216534,0,0,9.78347,9.78347,10.2165,10.2165,-0.120297,0.698837,69.8534,-0.0781196,0.127532,0.128221,1,0,0,4.83,0.84,-0.91,-0.106506,0.141642,-0.885354,-0.1722,-0.24878,0.3423
0.216076,0,0,9.78392,9.78392,10.2161,10.2161,-0.120042,0.698482,69.8528,-0.0781134,0.127537,0.128221,1,0,0,4.62,1.05,-1.26,-0.106506,0.141642,-0.885354,-0.1722,-0.24878,0.3423
0.866538,0,0,9.13346,9.13346,10.8665,10.8665,-0.48141,0.691449,70.0262,0.0240574,0.151273,0.0872472,0,0,0,4.69,1.61,-1.47,-0.004026,0.171654,-0.92598,-0.1722,-0.24878,0.3423
1.49591,0,0,8.50409,8.50409,11.4959,11.4959,-0.831062,0.686368,70.1975,0.024146,0.145171,0.0871784,0,0,0,3.85,1.47,-1.61,-0.004026,0.171654,-0.92598,-0.1722,-0.24878,0.3423
1.4975,0,0,8.5025,8.5025,11.4975,11.4975,-0.831945,0.686466,70.1957,0.0464977,-0.0430412,0.110292,1,0,0,3.99,1.33,-1.96,0.018422,-0.016348,-0.903044,-0.1722,-0.24878,0.3423
1.49932,0,0,8.50068,8.50068,11.4993,11.4993,-0.832955,0.685727,70.1938,0.0465106,-0.0430589,0.110292,1,0,0,3.92,0.84,-2.03,0.018422,-0.016348,-0.903044,-0.17122,-0.2471,0.3395
1.49132,0,0,8.50868,8.50868,11.4913,11.4913,-0.828508,0.604198,70.2268,-0.0525352,-0.00915239,0.0562122,0,0,0,4.27,1.12,-2.24,-0.082472,0.017446,-0.956724,-0.17122,-0.2471,0.3395
1.48226,0,0,8.51774,8.51774,11.4823,11.4823,-0.82348,0.525249,70.2592,-0.0511574,-0.00906485,0.056227,0,0,0,4.48,1.4,-2.24,-0.082472,0.017446,-0.956724,-0.17122,-0.2471,0.3395
2.01359,0,0,7.98641,7.98641,12.0136,12.0136,-1.11866,0.551364,70.4059,0.0393796,0.124276,0.0876102,0,0,0,4.76,1.33,-1.96,0.008906,0.155794,-0.925492,-0.17122,-0.2471,0.3395
2.52562,0,0,7.47438,7.47438,12.5256,12.5256,-1.40312,0.578383,70.5509,0.0389081,0.119313,0.0874963,0,0,0,4.76,1.33,-1.96,0.008906,0.155794,-0.925492,-0.17122,-0.2471,0.3395
2.292,0,0,7.708,7.708,12.292,12.292,-1.27334,0.75333,70.4918,0.0957474,-0.0429266,0.100669,0,0,0,4.62,0.63,-1.47,0.069052,-0.00854,-0.912438,-0.17122,-0.2471,0.3395
2.06837,0,0,7.93163,7.93163,12.0684,12.0684,-1.14909,0.923261,70.4338,0.0927818,-0.040758,0.100672,0,0,0,4.62,0.63,-1.47,0.069052,-0.00854,-0.912438,-0.17122,-0.2471,0.3395
1.91936,0,0,8.08064,8.08064,11.9194,11.9194,-1.06631,0.752152,70.4497,-0.125215,-0.0521377,-0.0138447,0,0,0,4.55,1.68,-1.33,-0.152866,-0.02135,-1.02614,-0.17122,-0.2471,0.3395
1.77464,0,0,8.22536,8.22536,11.7746,11.7746,-0.985913,0.58503,70.4651,-0.122298,-0.0507355,-0.0137856,0,0,0,4.55,1.68,-1.33,-0.152866,-0.02135,-1.02614,-0.17122,-0.2471,0.3395
1.77417,0,0,8.22583,8.22583,11.7742,11.7742,-0.98565,0.585993,70.4653,-0.106522,0.0529547,-0.118907,1,0,0,4.62,1.82,-0.84,-0.137006,0.082228,-1.13045,-0.16996,-0.24906,0.34048
2.14221,0,0,7.85779,7.85779,12.1422,12.1422,-1.19012,0.545694,70.5895,-0.00948014,0.0907877,-0.00708429,0,0,0,4.55,1.4,-0.35,-0.04026,0.123586,-1.01943,-0.16996,-0.24906,0.34048
2.49617,0,0,7.50383,7.50383,12.4962,12.4962,-1.38676,0.507552,70.7121,-0.00881446,0.0873565,-0.00715534,0,0,0,4.55,1.4,-0.35,-0.04026,0.123586,-1.01943,-0.16996,-0.24906,0.34048
2.25209,0,0,7.74791,7.74791,12.2521,12.2521,-1.25116,0.379007,70.7057,-0.09562,-0.069409,0.0397599,0,0,0,4.9,1.47,-0.21,-0.129686,-0.03538,-0.97295,-0.16996,-0.24906,0.34048
2.01638,0,0,7.98362,7.98362,12.0164,12.0164,-1.12021,0.253082,70.6991,-0.0934222,-0.0671243,0.0398193,0,0,0,4.9,1.47,-0.21,-0.129686,-0.03538,-0.97295,-0.16996,-0.24906,0.34048
1.70057,0,0,8.29943,8.29943,11.7006,11.7006,-0.944762,0.424223,70.6224,0.088978,-0.060765,0.103544,0,0,0,5.04,1.75,-0.14,0.056486,-0.032086,-0.909754,-0.16996,-0.24906,0.34048
1.39786,0,0,8.60214,8.60214,11.3979,11.3979,-0.776587,0.590265,70.5471,0.0860801,-0.0578298,0.103563,0,0,0,5.04,1.75,-0.14,0.056486,-0.032086,-0.909754,-0.16996,-0.24906,0.34048
2.26615,0,0,7.73385,7.73385,12.2661,12.2661,-1.25897,0.316969,70.8273,-0.132927,0.180082,0.102836,0,0,0,4.34,1.12,-0.28,-0.168238,0.213988,-0.910364,-0.16996,-0.24906,0.34048
3.10067,0,0,6.89933,6.89933,13.1007,13.1007,-1.72259,0.0536995,71.1074,-0.128332,0.171992,0.10264,0,0,0,4.34,1.12,-0.28,-0.168238,0.213988,-0.910364,-0.16842,-0.2492,0.33838
3.51634,0,0,6.48366,6.48366,13.5163,13.5163,-1.95352,-0.0311818,71.2617,-0.036708,0.0939551,0.0331684,0,0,0,4.48,1.19,-0.07,-0.077714,0.140056,-0.979172,-0.16842,-0.2492,0.33838
3.7456,0,0,6.2544,6.2544,13.7456,13.7456,-2.08089,-0.0895806,71.368,-0.0291285,0.0559504,-0.0280163,0,0,0,4.83,0.84,-0.14,-0.071126,0.10431,-1.03981,-0.16842,-0.2492,0.33838
3.96662,0,0,6.03338,6.03338,13.9666,13.9666,-2.20368,-0.145413,71.4733,-0.0281541,0.0538089,-0.0280984,0,0,0,4.55,1.05,0.14,-0.071126,0.10431,-1.03981,-0.16842,-0.2492,0.33838
3.15625,0,0,6.84375,6.84375,13.1563,13.1563,-1.75347,-0.268175,71.3309,-0.133648,-0.228878,-0.0688996,0,0,0,4.62,0.98,-0.35,-0.179218,-0.185928,-1.08055,-0.16842,-0.2492,0.33838
2.37601,0,0,7.62399,7.62399,12.376,12.376,-1.32,-0.389312,71.1905,-0.131534,-0.221315,-0.0687089,0,0,0,4.69,1.26,-0.63,-0.179218,-0.185928,-1.08055,-0.16842,-0.2492,0.33838
2.37689,0,0,7.62311,7.62311,12.3769,12.3769,-1.32049,-0.38859,71.1905,0.106687,-0.353342,-0.135101,1,0,0,4.2,1.68,-0.91,0.060024,-0.31781,-1.14643,-0.16842,-0.2492,0.33838
2.37686,0,0,7.62314,7.62314,12.3769,12.3769,-1.32048,-0.389192,71.1901,0.106698,-0.353342,-0.135101,1,0,0,4.48,0.91,-1.19,0.060024,-0.31781,-1.14643,-0.16842,-0.2492,0.33838
2.37907,0,0,7.62093,7.62093,12.3791,12.3791,-1.32171,-0.389809,71.1891,0.0628522,-0.208033,-0.153052,1,0,0,3.78,0.91,-1.54,0.015982,-0.17263,-1.16425,-0.16646,-0.24948,0.33544
2.38129,0,0,7.61871,7.61871,12.3813,12.3813,-1.32294,-0.389708,71.1881,0.0628504,-0.208054,-0.153053,1,0,0,3.78,1.33,-1.54,0.015982,-0.17263,-1.16425,-0.16646,-0.24948,0.33544
2.38417,0,0,7.61583,7.61583,12.3842,12.3842,-1.32454,-0.390816,71.1865,0.259555,-0.195503,-0.265183,1,0,0,3.57,0.63,-1.89,0.2135,-0.160064,-1.27551,-0.16646,-0.24948,0.33544
2.38705,0,0,7.61295,7.61295,12.3871,12.3871,-1.32614,-0.391924,71.1848,0.259574,-0.195531,-0.265183,1,0,0,3.57,0.63,-1.89,0.2135,-0.160064,-1.27551,-0.16646,-0.24948,0.33544
2.38768,0,0,7.61232,7.61232,12.3877,12.3877,-1.32649,-0.393043,71.1828,0.0918222,-0.260753,-0.0998179,1,0,0,4.27,0.63,-2.17,0.045018,-0.225212,-1.11142,-0.16646,-0.24948,0.33544
2.38943,0,0,7.61057,7.61057,12.3894,12.3894,-1.32746,-0.394996,71.1808,-0.359585,0.104023,-0.149736,1,0,0,3.92,0.14,-2.1,-0.408334,0.139202,-1.16095,-0.16646,-0.24948,0.33544
2.38849,0,0,7.61151,7.61151,12.3885,12.3885,-1.32694,-0.395154,71.1789,-0.359582,0.104032,-0.149735,1,0,0,4.76,1.19,-2.03,-0.408334,0.139202,-1.16095,-0.16646,-0.24948,0.33544
2.91131,0,0,7.08869,7.08869,12.9113,12.9113,-1.61739,-0.45606,71.3508,-0.0153217,0.124734,0.0167217,0,0,0,4.69,0.63,-1.96,-0.063684,0.164944,-0.995642,-0.16646,-0.24948,0.33544
3.41407,0,0,6.58593,6.58593,13.4141,13.4141,-1.89671,-0.512153,71.5049,-0.0143427,0.119861,0.0165639,0,0,0,4.55,1.54,-1.68,-0.063684,0.164944,-0.995642,-0.17346,-0.2457,0.33292
3.06973,0,0,6.93027,6.93027,13.0697,13.0697,-1.70541,-0.205362,71.3932,0.192903,-0.0629238,0.0116615,0,0,0,4.41,1.19,-1.61,0.149816,-0.020984,-1.00064,-0.17346,-0.2457,0.33292
2.74266,0,0,7.25734,7.25734,12.7427,12.7427,-1.5237,0.0931186,71.2836,0.187693,-0.0597538,0.0117559,0,0,0,3.64,1.19,-1.47,0.149816,-0.020984,-1.00064,-0.17346,-0.2457,0.33292
2.87079,0,0,7.12921,7.12921,12.8708,12.8708,-1.59488,0.45436,71.2736,0.245412,0.0582008,0.0574289,0,0,0,4.34,1.05,-1.4,0.21411,0.098088,-0.95526,-0.17346,-0.2457,0.33292
2.99706,0,0,7.00294,7.00294,12.9971,12.9971,-1.66503,0.807704,71.264,0.239245,0.056979,0.0573261,0,0,0,4.27,1.47,-0.91,0.21411,0.098088,-0.95526,-0.17346,-0.2457,0.33292
2.54229,0,0,7.45771,7.45771,12.5423,12.5423,-1.41239,1.14845,71.114,0.190657,-0.0839419,0.10517,0,0,0,3.85,0.98,-0.63,0.171288,-0.047092,-0.907802,-0.17346,-0.2457,0.33292
2.10259,0,0,7.89741,7.89741,12.1026,12.1026,-1.16811,1.48057,70.9673,0.184862,-0.0796776,0.105133,0,0,0,4.97,1.33,-0.21,0.171288,-0.047092,-0.907802,-0.17346,-0.2457,0.33292
2.10228,0,0,7.89772,7.89772,12.1023,12.1023,-1.16794,1.48085,70.9686,0.0778284,0.0829982,0.182345,1,0,0,4.55,1.4,-0.14,0.063806,0.115412,-0.831186,-0.17346,-0.2457,0.33292
2.10173,0,0,7.89827,7.89827,12.1017,12.1017,-1.16763,1.4816,70.9703,0.0778152,0.0830035,0.182344,1,0,0,4.62,1.68,0.07,0.063806,0.115412,-0.831186,-0.17626,-0.2499,0.34076
2.10117,0,0,7.89883,7.89883,12.1012,12.1012,-1.16732,1.48165,70.9723,-0.0187667,0.163002,0.134886,1,0,0,4.62,1.26,0.21,-0.033184,0.195322,-0.878278,-0.17626,-0.2499,0.34076
2.10107,0,0,7.89893,7.89893,12.1011,12.1011,-1.16726,1.48265,70.9741,-0.0187841,0.163003,0.134886,1,0,0,4.48,1.82,0.14,-0.033184,0.195322,-0.878278,-0.17626,-0.2499,0.34076
2.10029,0,0,7.89971,7.89971,12.1003,12.1003,-1.16683,1.48292,70.9758,-0.0504967,-0.000272946,-0.108921,1,0,0,4.69,1.4,0.07,-0.065026,0.032208,-1.1202,-0.17626,-0.2499,0.34076
2.09972,0,0,7.90028,7.90028,12.0997,12.0997,-1.16651,1.48297,70.9779,-0.0504976,-0.000267449,-0.108921,1,0,0,4.62,1.26,0.28,-0.065026,0.032208,-1.1202,-0.17626,-0.2499,0.34076
2.09848,0,0,7.90152,7.90152,12.0985,12.0985,-1.16582,1.48374,70.98,0.0284548,0.0135449,-0.17728,1,0,0,4.83,1.68,0.28,0.014274,0.045994,-1.18804,-0.17626,-0.2499,0.34076
2.09637,0,0,7.90363,7.90363,12.0964,12.0964,-1.16465,1.48401,70.9815,0.02845,0.0135654,-0.17728,1,0,0,5.11,1.4,-0.07,0.014274,0.045994,-1.18804,-0.17626,-0.2499,0.34076
1.43988,0,0,8.56012,8.56012,11.4399,11.4399,-0.799931,1.43222,70.8384,-0.0662555,-0.169735,0.0203074,0,0,0,5.39,1.19,-0.35,-0.08174,-0.143472,-0.992104,-0.17626,-0.2499,0.34076
0.809001,0,0,9.191,9.191,10.809,10.809,-0.449445,1.38018,70.7009,-0.0653476,-0.163621,0.0203964,0,0,0,4.9,1.12,0,-0.08174,-0.143472,-0.992104,-0.17318,-0.24668,0.336
0.610214,0,0,9.38979,9.38979,10.6102,10.6102,-0.339008,1.32903,70.6631,-0.0462322,-0.059718,-0.0951409,0,0,0,4.55,1.33,-0.21,-0.06344,-0.041602,-1.10678,-0.17318,-0.24668,0.336
0.418116,0,0,9.58188,9.58188,10.4181,10.4181,-0.232287,1.27808,70.6252,-0.0453432,-0.057856,-0.0951113,0,0,0,4.69,0.98,-0.56,-0.06344,-0.041602,-1.10678,-0.17318,-0.24668,0.336
0.396816,0,0,9.60318,9.60318,10.3968,10.3968,-0.220453,1.25229,70.6227,-0.0184094,-0.00782184,-0.0958383,0,0,0,4.76,1.54,-1.05,-0.036844,0.008174,-1.10752,-0.17318,-0.24668,0.336
0.376098,0,0,9.6239,9.6239,10.3761,10.3761,-0.208943,1.22712,70.6203,-0.0179702,-0.00762104,-0.095828,0,0,0,4.76,1.54,-1.05,-0.036844,0.008174,-1.10752,-0.17318,-0.24668,0.336
0.376126,0,0,9.62387,9.62387,10.3761,10.3761,-0.208959,1.22628,70.6191,-0.0274315,0.0139951,-0.188777,1,0,0,4.48,0.77,-1.68,-0.04636,0.029768,-1.19975,-0.17318,-0.24668,0.336
0.376155,0,0,9.62385,9.62385,10.3762,10.3762,-0.208975,1.22545,70.6178,-0.0274169,0.0139948,-0.188776,1,0,0,4.48,0.77,-1.68,-0.04636,0.029768,-1.19975,-0.17318,-0.24668,0.336
0.375972,0,0,9.62403,9.62403,10.376,10.376,-0.208873,1.22497,70.6162,0.1123,-0.0774763,-0.195047,1,0,0,4.55,0.98,-1.89,0.09394,-0.06161,-1.20597,-0.17318,-0.24668,0.336
0.375789,0,0,9.62421,9.62421,10.3758,10.3758,-0.208772,1.22449,70.6145,0.112308,-0.0774745,-0.195046,1,0,0,4.55,0.98,-1.89,0.09394,-0.06161,-1.20597,-0.1694,-0.24654,0.34622
0.375181,0,0,9.62482,9.62482,10.3752,10.3752,-0.208434,1.22389,70.6123,0.10588,-0.0465706,-0.131236,1,0,0,4.69,0.91,-2.24,0.087474,-0.030744,-1.14265,-0.1694,-0.24654,0.34622
0.858381,0,0,9.14162,9.14162,10.8584,10.8584,-0.476878,0.77176,70.8079,-0.262593,0.0773436,0.114279,0,0,0,3.92,0.56,-2.17,-0.290482,0.097722,-0.89914,-0.1694,-0.24654,0.34622
1.32012,0,0,8.67988,8.67988,11.3201,11.3201,-0.733403,0.333934,71.0011,-0.254951,0.0728662,0.114305,0,0,0,3.78,1.33,-2.17,-0.290482,0.097722,-0.89914,-0.1694,-0.24654,0.34622
1.3217,0,0,8.6783,8.6783,11.3217,11.3217,-0.734278,0.333432,70.9989,-0.0546128,-0.173234,0.184017,1,0,0,3.99,0.98,-2.24,-0.089304,-0.148108,-0.829966,-0.1694,-0.24654,0.34622
1.32125,0,0,8.67875,8.67875,11.3212,11.3212,-0.734027,0.333414,70.9971,-0.0546125,-0.17323,0.184017,1,0,0,4.62,1.26,-1.96,-0.089304,-0.148108,-0.829966,-0.1694,-0.24654,0.34622
1.32124,0,0,8.67876,8.67876,11.3212,11.3212,-0.734025,0.3334,70.9956,0.130653,-0.0839554,0.116764,1,0,0,4.48,1.26,-1.82,0.096746,-0.058926,-0.8967,-0.1694,-0.24654,0.34622
1.32012,0,0,8.67988,8.67988,11.3201,11.3201,-0.733398,0.333266,70.9941,0.130656,-0.0839445,0.116764,1,0,0,4.83,1.19,-1.82,0.096746,-0.058926,-0.8967,-0.1694,-0.24654,0.34622
1.32033,0,0,8.67967,8.67967,11.3203,11.3203,-0.733518,0.333614,70.993,0.193944,0.0247462,0.18955,1,0,0,4.41,1.47,-1.61,0.160308,0.049654,-0.824476,-0.17528,-0.24654,0.34286
1.3192,0,0,8.6808,8.6808,11.3192,11.3192,-0.732887,0.334087,70.9922,-0.115975,0.016819,-0.239786,1,0,0,4.83,1.54,-1.4,-0.150914,0.041724,-1.2505,-0.17528,-0.24654,0.34286
1.32053,0,0,8.67947,8.67947,11.3205,11.3205,-0.733626,0.334209,70.992,-0.115977,0.0168061,-0.239787,1,0,0,4.06,1.33,-1.05,-0.150914,0.041724,-1.2505,-0.17528,-0.24654,0.34286
1.32162,0,0,8.67838,8.67838,11.3216,11.3216,-0.734236,0.334816,70.9924,-0.0811209,-0.0723571,-0.219009,1,0,0,4.13,1.61,-0.7,-0.1159,-0.047336,-1.22988,-0.17528,-0.24654,0.34286
1.32361,0,0,8.67639,8.67639,11.3236,11.3236,-0.735339,0.335439,70.9939,-0.0811317,-0.0723763,-0.219009,1,0,0,3.85,1.61,0,-0.1159,-0.047336,-1.22988,-0.17528,-0.24654,0.34286
1.32469,0,0,8.67531,8.67531,11.3247,11.3247,-0.735941,0.336184,70.9958,-0.258028,-0.0883854,-0.163928,1,0,0,4.13,1.68,0.14,-0.293532,-0.063318,-1.17523,-0.17528,-0.24654,0.34286
1.32466,0,0,8.67534,8.67534,11.3247,11.3247,-0.73592,0.336689,70.9975,-0.258037,-0.088385,-0.163928,1,0,0,4.48,1.54,0.07,-0.293532,-0.063318,-1.17523,-0.17528,-0.24654,0.34286
1.32506,0,0,8.67494,8.67494,11.3251,11.3251,-0.736145,0.337439,70.9997,-0.191111,-0.00265601,-0.133191,1,0,0,4.34,1.68,0.35,-0.22631,0.022326,-1.14473,-0.17528,-0.24654,0.34286
1.32547,0,0,8.67453,8.67453,11.3255,11.3255,-0.736371,0.33759,71.0018,-0.191114,-0.00265995,-0.133191,1,0,0,4.34,1.33,0.28,-0.22631,0.022326,-1.14473,-0.1778,-0.24976,0.34328
1.14695,0,0,8.85305,8.85305,11.147,11.147,-0.637197,0.265293,70.9728,-0.054274,-0.0489251,0.069947,0,0,0,4.27,1.47,0.28,-0.090158,-0.02562,-0.943182,-0.1778,-0.24976,0.34328
0.975761,0,0,9.02424,9.02424,10.9758,10.9758,-0.54209,0.194507,70.9445,-0.0530386,-0.0472653,0.0699691,0,0,0,3.92,1.54,0.42,-0.090158,-0.02562,-0.943182,-0.1778,-0.24976,0.34328
0.483172,0,0,9.51683,9.51683,10.4832,10.4832,-0.268429,0.474257,70.7825,0.178126,-0.10856,-0.0549413,0,0,0,4.27,1.61,0.28,0.146888,-0.091622,-1.06713,-0.1778,-0.24976,0.34328
0.010543,0,0,9.98946,9.98946,10.0105,10.0105,-0.00585722,0.745607,70.623,0.17339,-0.103977,-0.0549808,0,0,0,4.34,1.33,0.07,0.146888,-0.091622,-1.06713,-0.1778,-0.24976,0.34328
0.148699,0,0,9.8513,9.8513,10.1487,10.1487,-0.0826104,0.619739,70.6699,-0.0740664,0.0219395,0.0657798,0,0,0,3.99,1.12,0,-0.103822,0.035502,-0.94733,-0.1778,-0.24976,0.34328
0.278482,0,0,9.72152,9.72152,10.2785,10.2785,-0.154712,0.497766,70.7158,-0.0719377,0.0206811,0.065798,0,0,0,4.62,1.26,-0.14,-0.103822,0.035502,-0.94733,-0.1778,-0.24976,0.34328
0.548433,0,0,9.45157,9.45157,10.5484,10.5484,-0.304685,0.363776,70.7991,-0.0827197,0.060808,-0.0599713,0,0,0,4.62,1.61,-0.35,-0.116998,0.078202,-1.07214,-0.1778,-0.24976,0.34328
0.806396,0,0,9.1936,9.1936,10.8064,10.8064,-0.447998,0.232275,70.8752,-0.0804246,0.0583067,-0.0599758,0,0,0,4.97,0.63,-0.7,-0.116998,0.078202,-1.07214,-0.17906,-0.24584,0.3395
0.806148,0,0,9.19385,9.19385,10.8061,10.8061,-0.44786,0.231446,70.8756,0.0985383,0.0395016,0.137357,1,0,0,4.55,0.77,-0.7,0.062708,0.059414,-0.876326,-0.17906,-0.24584,0.3395
0.807926,0,0,9.19207,9.19207,10.8079,10.8079,-0.448848,0.230494,70.8754,0.0985549,0.0394844,0.137357,1,0,0,3.92,0.7,-1.05,0.062708,0.059414,-0.876326,-0.17906,-0.24584,0.3395
0.809257,0,0,9.19074,9.19074,10.8093,10.8093,-0.449587,0.229539,70.8749,0.0187555,0.141447,0.339607,1,0,0,4.06,0.7,-1.19,-0.017446,0.161284,-0.675636,-0.17906,-0.24584,0.3395
0.811041,0,0,9.18896,9.18896,10.811,10.811,-0.450578,0.229178,70.874,0.0187618,0.14143,0.339607,1,0,0,3.92,1.05,-1.47,-0.017446,0.161284,-0.675636,-0.17906,-0.24584,0.3395
0.810133,0,0,9.18987,9.18987,10.8101,10.8101,-0.450074,0.228931,70.8724,0.0437922,0.18516,0.123463,1,0,0,4.76,1.12,-1.89,0.007686,0.20496,-0.890112,-0.17906,-0.24584,0.3395
0.810803,0,0,9.1892,9.1892,10.8108,10.8108,-0.450446,0.227485,70.8702,0.0438174,0.185154,0.123463,1,0,0,4.27,0.42,-2.24,0.007686,0.20496,-0.890112,-0.17906,-0.24584,0.3395
0.842952,0,0,9.15705,9.15705,10.843,10.843,-0.468307,0.255546,70.8649,0.0213387,0.0105671,-0.00932554,0,0,0,4.06,0.77,-2.31,-0.014396,0.030866,-1.02187,-0.17906,-0.24584,0.3395
0.874383,0,0,9.12562,9.12562,10.8744,10.8744,-0.485768,0.282919,70.8653,0.020861,0.0102624,-0.00933032,0,0,0,4.06,0.77,-2.31,-0.014396,0.030866,-1.02187,-0.17668,-0.2478,0.33474
0.429175,0,0,9.57082,9.57082,10.4292,10.4292,-0.238431,0.135797,70.7766,-0.119681,-0.124157,0.0284515,0,0,0,4.41,1.05,-2.1,-0.158112,-0.107726,-0.984418,-0.17668,-0.2478,0.33474
-0.000295135,0,0,10.0003,10.0003,9.9997,9.9997,0.000163964,-0.00872569,70.6892,-0.117159,-0.119993,0.028463,0,0,0,4.41,1.05,-2.1,-0.158112,-0.107726,-0.984418,-0.17668,-0.2478,0.33474
-0.661911,0,0,10.6619,10.6619,9.33809,9.33809,0.367728,-0.00129912,70.521,-0.0254454,-0.155101,0.0829086,0,0,0,4.41,0.77,-1.47,-0.06588,-0.149206,-0.930372,-0.17668,-0.2478,0.33474
-1.29823,0,0,11.2982,11.2982,8.70177,8.70177,0.721239,0.00446543,70.356,-0.0255461,-0.148931,0.0828499,0,0,0,4.41,0.77,-1.47,-0.06588,-0.149206,-0.930372,-0.17668,-0.2478,0.33474
-1.29713,0,0,11.2971,11.2971,8.70287,8.70287,0.720626,0.00436079,70.3552,0.0102941,-0.00495424,-0.110425,1,0,0,4.13,1.19,-1.4,-0.02989,-0.005368,-1.12216,-0.17668,-0.2478,0.33474
-1.29602,0,0,11.296,11.296,8.70398,8.70398,0.720013,0.00425614,70.3544,0.0102959,-0.00496494,-0.110425,1,0,0,4.13,1.19,-1.4,-0.02989,-0.005368,-1.12216,-0.17668,-0.2478,0.33474
-1.29537,0,0,11.2954,11.2954,8.70463,8.70463,0.71965,0.00426645,70.3539,-0.0121792,-0.237623,-0.204111,1,0,0,4.27,1.26,-1.19,-0.05246,-0.237778,-1.21512,-0.17668,-0.2478,0.33474
-1.29472,0,0,11.2947,11.2947,8.70528,8.70528,0.719287,0.00427674,70.3535,-0.0121793,-0.237629,-0.204111,1,0,0,4.27,1.26,-1.19,-0.05246,-0.237778,-1.21512,-0.17668,-0.2478,0.33474
-1.29496,0,0,11.295,11.295,8.70504,8.70504,0.719423,0.00427499,70.354,-0.115685,-0.0986464,-0.270012,1,0,0,4.55,1.26,-0.63,-0.156404,-0.098942,-1.28051,-0.17668,-0.24906,0.33544
-1.02405,0,0,11.024,11.024,8.97595,8.97595,0.568915,0.166982,70.3859,0.133922,0.0907101,-0.0716706,0,0,0,4.9,1.4,-0.35,0.097112,0.092842,-1.08373,-0.17668,-0.24906,0.33544
-0.760951,0,0,10.761,10.761,9.23905,9.23905,0.42275,0.326475,70.4172,0.131139,0.088159,-0.0716605,0,0,0,4.69,1.54,-0.28,0.097112,0.092842,-1.08373,-0.17668,-0.24906,0.33544
-0.494044,0,0,10.494,10.494,9.50596,9.50596,0.274469,0.383156,70.4667,0.0499689,0.072015,0.0284292,0,0,0,5.11,1.47,-0.14,0.016592,0.0793,-0.984418,-0.17668,-0.24906,0.33544
-0.233375,0,0,10.2334,10.2334,9.76663,9.76663,0.129653,0.438867,70.5155,0.0489966,0.0694876,0.0284311,0,0,0,4.13,1.33,-0.07,0.016592,0.0793,-0.984418,-0.17668,-0.24906,0.33544
-0.736857,0,0,10.7369,10.7369,9.26314,9.26314,0.409365,0.478874,70.3834,0.00249827,-0.134956,-0.0666366,0,0,0,4.13,1.4,-0.07,-0.029402,-0.129808,-1.07872,-0.17668,-0.24906,0.33544
-1.22203,0,0,11.222,11.222,8.77797,8.77797,0.678904,0.517045,70.2539,0.00183209,-0.130252,-0.0666871,0,0,0,4.48,1.61,0.07,-0.029402,-0.129808,-1.07872,-0.17668,-0.24906,0.33544
