pid_x,pid_y,pid_z,front_left_speed,front_right_speed,back_left_speed,back_right_speed,orientation_x,orientation_y,orientation_z,acceleration_x,acceleration_y,acceleration_z,accel_rejected,mag_rejected,gyro_x,gyro_y,gyro_z,accel_x,accel_y,accel_z,mag_x,mag_y,mag_z
-0.145541,0,0,15.1455,15.1455,14.8545,14.8545,0.484651,-0.0497594,-0.226579,0.0320127,-0.418197,0.0875651,0,0,3.185,0.0175,-0.2275,-0.009028,-0.414068,-0.925736,-0.05586,0.2457,0.34174
-0.289543,0,0,15.2895,15.2895,14.7105,14.7105,0.963697,-0.0980872,-0.450588,0.0317628,-0.413134,0.0859829,0,0,3.57,0.035,-0.3675,-0.010126,-0.417362,-0.9272,-0.05586,0.2457,0.34174
-0.429926,0,0,15.4299,15.4299,14.5701,14.5701,1.43021,-0.137916,-0.67706,0.035738,-0.400842,0.0855655,0,0,3.6575,0.1925,-0.245,-0.006832,-0.413214,-0.927444,-0.05586,0.2457,0.34174
-0.567846,0,0,15.5678,15.5678,14.4322,14.4322,1.88805,-0.174946,-0.902176,0.0363843,-0.392854,0.0853324,0,0,3.5,0.07,-0.28,-0.006832,-0.413214,-0.927444,-0.05586,0.2457,0.34174
-0.703825,0,0,15.7038,15.7038,14.2962,14.2962,2.33898,-0.209361,-1.12575,0.0371065,-0.38731,0.0831959,0,0,3.535,0.0175,-0.315,-0.00671,-0.415532,-0.929274,-0.05586,0.2457,0.34174
-0.837439,0,0,15.8374,15.8374,14.1626,14.1626,2.78158,-0.241335,-1.34769,0.0376645,-0.379593,0.0828486,0,0,3.4475,-0.1925,-0.2275,-0.00671,-0.415532,-0.929274,-0.05586,0.2457,0.34174
-0.968964,0,0,15.969,15.969,14.031,14.031,3.21678,-0.274075,-1.57923,0.0389648,-0.372863,0.081588,0,0,3.605,0,-0.2625,-0.005978,-0.416386,-0.930128,-0.04928,0.25018,0.34244
-1.09753,0,0,16.0975,16.0975,13.9025,13.9025,3.64169,-0.306437,-1.80717,0.0372214,-0.36314,0.0821252,0,0,3.29,0.0875,-0.4375,-0.008296,-0.414068,-0.929152,-0.04928,0.25018,0.34244
-1.22402,0,0,16.224,16.224,13.776,13.776,4.05927,-0.335764,-2.03321,0.0377333,-0.355869,0.0816329,0,0,3.5525,0.28,-0.28,-0.008296,-0.414068,-0.929152,-0.04928,0.25018,0.34244
-1.34818,0,0,16.3482,16.3482,13.6518,13.6518,4.46866,-0.362506,-2.25777,0.0383215,-0.348744,0.0801152,0,0,3.57,0.14,-0.2975,-0.008174,-0.414068,-0.930128,-0.04928,0.25018,0.34244
-1.47021,0,0,16.4702,16.4702,13.5298,13.5298,4.87055,-0.386745,-2.48069,0.0387445,-0.341753,0.0795414,0,0,3.57,0.14,-0.2975,-0.008174,-0.414068,-0.930128,-0.04928,0.25018,0.34244
-1.59059,0,0,16.5906,16.5906,13.4094,13.4094,5.26656,-0.407638,-2.7027,0.0398381,-0.334624,0.0829856,0,0,3.64,0.1925,-0.3675,-0.007442,-0.413824,-0.926102,-0.04928,0.25018,0.34244
-1.7089,0,0,16.7089,16.7089,13.2911,13.2911,5.65525,-0.426235,-2.923,0.0401627,-0.327872,0.0823377,0,0,3.64,0.1925,-0.3675,-0.007442,-0.413824,-0.926102,-0.04928,0.25018,0.34244
-1.82611,0,0,16.8261,16.8261,13.1739,13.1739,6.03992,-0.439721,-3.13736,0.0376039,-0.322415,0.0873075,0,0,3.3775,4.4275,-0.2975,-0.010248,-0.415044,-0.92049,-0.04928,0.25018,0.34244
-1.94129,0,0,16.9413,16.9413,13.0587,13.0587,6.41744,-0.451962,-3.35215,0.0378175,-0.315865,0.086591,0,0,3.3775,4.4275,-0.2975,-0.010248,-0.415044,-0.92049,-0.04984,0.25242,0.34678
-2.05292,0,0,17.0529,17.0529,12.9471,12.9471,6.78275,-0.465264,-3.56941,0.0409653,-0.307333,0.079586,0,0,3.4125,-0.14,-0.2625,-0.00732,-0.412848,-0.926712,-0.04984,0.25242,0.34678
-2.16305,0,0,17.163,17.163,12.837,12.837,7.14272,-0.475233,-3.78604,0.0424756,-0.303784,0.0757493,0,0,3.6225,-0.175,-0.2975,-0.005978,-0.415532,-0.929762,-0.04984,0.25242,0.34678
-2.2713,0,0,17.2713,17.2713,12.7287,12.7287,7.49607,-0.483139,-4.00068,0.0426136,-0.297668,0.0749625,0,0,3.7275,-0.0525,-0.245,-0.005978,-0.415532,-0.929762,-0.04984,0.25242,0.34678
-2.37811,0,0,17.3781,17.3781,12.6219,12.6219,7.84425,-0.492355,-4.21083,0.0403448,-0.290546,0.0795598,0,0,3.7975,0.105,-0.2625,-0.008418,-0.414434,-0.924394,-0.04984,0.25242,0.34678
-2.48291,0,0,17.4829,17.4829,12.5171,12.5171,8.18539,-0.499648,-4.4191,0.040472,-0.284651,0.0787286,0,0,3.5525,0.1925,-0.245,-0.008418,-0.414434,-0.924394,-0.04984,0.25242,0.34678
-2.58541,0,0,17.5854,17.5854,12.4146,12.4146,8.51855,-0.503245,-4.6273,0.0419926,-0.279753,0.0735803,0,0,3.43,0.14,-0.42,-0.006954,-0.415288,-0.928664,-0.04984,0.25242,0.34678
-2.68605,0,0,17.686,17.686,12.314,12.314,8.84516,-0.505434,-4.83358,0.0420309,-0.274118,0.0727195,0,0,3.325,0.0525,-0.385,-0.006954,-0.415288,-0.928664,-0.04984,0.25242,0.34678
-2.78563,0,0,17.7856,17.7856,12.2144,12.2144,9.16794,-0.507616,-5.03841,0.041583,-0.267455,0.0792142,0,0,3.4125,-0.1925,-0.4375,-0.007442,-0.41419,-0.921344,-0.04844,0.25186,0.34356
-2.88201,0,0,17.882,17.882,12.118,12.118,9.47971,-0.502814,-5.24543,0.0451438,-0.260987,0.0699729,0,0,3.605,-0.2975,-0.3675,-0.003782,-0.413092,-0.92964,-0.04844,0.25186,0.34356
-2.97674,0,0,17.9767,17.9767,12.0233,12.0233,9.7857,-0.496525,-5.45044,0.045034,-0.255722,0.0690802,0,0,3.7275,-0.1575,-0.3675,-0.003782,-0.413092,-0.92964,-0.04844,0.25186,0.34356
-3.07079,0,0,18.0708,18.0708,11.9292,11.9292,10.0891,-0.493602,-5.64999,0.0419458,-0.250872,0.0744372,0,0,3.71,-0.105,-0.3325,-0.006832,-0.413458,-0.923418,-0.04844,0.25186,0.34356
-3.16318,0,0,18.1632,18.1632,11.8368,11.8368,10.3867,-0.489426,-5.84766,0.0418729,-0.245761,0.0735147,0,0,3.71,-0.105,-0.3325,-0.006832,-0.413458,-0.923418,-0.04844,0.25186,0.34356
-3.25391,0,0,18.2539,18.2539,11.7461,11.7461,10.6784,-0.485785,-6.04188,0.040716,-0.24222,0.0708632,0,0,3.325,-0.0525,-0.2275,-0.00793,-0.414922,-0.925126,-0.04844,0.25186,0.34356
-3.34304,0,0,18.343,18.343,11.657,11.657,10.9646,-0.480969,-6.23425,0.040632,-0.237315,0.0699263,0,0,3.325,-0.0525,-0.2275,-0.00793,-0.414922,-0.925126,-0.04844,0.25186,0.34356
-3.43005,0,0,18.43,18.43,11.57,11.57,11.2434,-0.477209,-6.42313,0.0387441,-0.231075,0.0677603,0,0,3.4825,-0.0175,-0.28,-0.00976,-0.413458,-0.926346,-0.04844,0.25186,0.34356
-3.51666,0,0,18.5167,18.5167,11.4833,11.4833,11.5205,-0.467287,-6.61103,0.0422155,-0.230119,0.0676677,0,0,3.43,0.0175,-0.245,-0.0061,-0.41724,-0.925492,-0.0511,0.25214,0.34692
-3.6018,0,0,18.6018,18.6018,11.3982,11.3982,11.7926,-0.456761,-6.79726,0.0420318,-0.225469,0.0667099,0,0,3.57,-0.1925,-0.3325,-0.0061,-0.41724,-0.925492,-0.0511,0.25214,0.34692
-3.6837,0,0,18.6837,18.6837,11.3163,11.3163,12.0535,-0.446189,-6.98081,0.0405109,-0.21686,0.0624508,0,0,3.5525,-0.1225,-0.2625,-0.007442,-0.413092,-0.928786,-0.0511,0.25214,0.34692
-3.76416,0,0,18.7642,18.7642,11.2358,11.2358,12.3094,-0.434785,-7.16254,0.0403119,-0.212494,0.06151,0,0,3.5525,-0.1225,-0.2625,-0.007442,-0.413092,-0.928786,-0.0511,0.25214,0.34692
-3.84396,0,0,18.844,18.844,11.156,11.156,12.5628,-0.424549,-7.34083,0.0391613,-0.210739,0.059944,0,0,3.7275,-0.1225,-0.1575,-0.008418,-0.415654,-0.929396,-0.0511,0.25214,0.34692
-3.92188,0,0,18.9219,18.9219,11.0781,11.0781,12.8097,-0.422644,-7.51097,0.0324464,-0.204825,0.0592438,0,0,3.57,-0.0175,-0.3325,-0.015128,-0.413946,-0.929152,-0.0511,0.25214,0.34692
-3.99833,0,0,18.9983,18.9983,11.0017,11.0017,13.0515,-0.419606,-7.67939,0.0323934,-0.200712,0.0582999,0,0,3.43,0.07,-0.3325,-0.015128,-0.413946,-0.929152,-0.0511,0.25214,0.34692
-4.09705,0,0,19.097,19.097,10.903,10.903,13.3672,-0.518194,-7.77268,-0.0293015,-0.294519,0.0184214,0,0,3.4825,0.035,-0.3675,-0.078812,-0.51301,-0.96746,-0.0511,0.25214,0.34692
-4.19401,0,0,19.194,19.194,10.806,10.806,13.6767,-0.613629,-7.86825,-0.027636,-0.28927,0.0171423,0,0,3.5,-0.07,-0.245,-0.078812,-0.51301,-0.96746,-0.049,0.25144,0.33978
-4.28014,0,0,19.2801,19.2801,10.7199,10.7199,13.9499,-0.542537,-8.07756,0.0864132,-0.254106,0.023639,0,0,3.465,-0.4725,-0.385,0.036966,-0.48251,-0.959896,-0.049,0.25144,0.33978
-4.36467,0,0,19.3647,19.3647,10.6353,10.6353,14.2175,-0.471193,-8.28399,0.0851681,-0.249574,0.0225134,0,0,3.29,0.1225,-0.3675,0.036966,-0.48251,-0.959896,-0.049,0.25144,0.33978
-4.44007,0,0,19.4401,19.4401,10.5599,10.5599,14.4543,-0.175445,-8.64009,0.24304,-0.231517,0.0254523,0,0,3.4125,-0.105,-0.525,0.20069,-0.46848,-0.955992,-0.049,0.25144,0.33978
-4.51441,0,0,19.5144,19.5144,10.4856,10.4856,14.6875,0.112698,-8.99142,0.238011,-0.227579,0.0244314,0,0,3.85,-0.665,-0.77,0.20069,-0.46848,-0.955992,-0.049,0.25144,0.33978
-4.5061,0,0,19.5061,19.5061,10.4939,10.4939,14.6451,0.105553,-9.1513,-0.00775117,0.0935105,0.250229,0,0,4.0075,-0.4025,-0.7875,-0.046238,-0.14701,-0.732122,-0.049,0.25144,0.33978
-4.51053,0,0,19.5105,19.5105,10.4895,10.4895,14.6452,0.105956,-9.15216,-0.00775821,0.0935122,0.250229,1,0,3.5875,0.1225,-0.8575,-0.046238,-0.14701,-0.732122,-0.049,0.25144,0.33978
-4.51493,0,0,19.5149,19.5149,10.4851,10.4851,14.6453,0.105848,-9.15259,0.262428,-0.487078,-0.0557902,1,0,3.5525,-0.105,-0.5425,0.22509,-0.726998,-1.03578,-0.049,0.25144,0.33978
-4.51889,0,0,19.5189,19.5189,10.4811,10.4811,14.6438,0.106141,-9.15338,0.262423,-0.487102,-0.0557838,1,0,2.7125,0.07,-0.805,0.22509,-0.726998,-1.03578,-0.04956,0.25998,0.35182
-4.5266,0,0,19.5266,19.5266,10.4734,10.4734,14.6548,0.0798486,-9.30902,-0.015928,-0.017094,-0.0250947,0,0,2.6075,-0.14,-0.63,-0.0549,-0.257664,-1.00528,-0.04956,0.25998,0.35182
-4.53463,0,0,19.5346,19.5346,10.4654,10.4654,14.6669,0.054921,-9.4628,-0.015493,-0.0168896,-0.0251476,0,0,3.325,0.315,-0.3325,-0.0549,-0.257664,-1.00528,-0.04956,0.25998,0.35182
-4.5688,0,0,19.5688,19.5688,10.4312,10.4312,14.7661,-0.0422863,-9.564,-0.0417381,-0.0159489,0.197196,0,0,3.8325,0.3325,-0.4375,-0.08296,-0.258396,-0.784216,-0.04956,0.25998,0.35182
-4.57365,0,0,19.5737,19.5737,10.4263,10.4263,14.7675,-0.0415616,-9.56384,-0.0417507,-0.0159251,0.197189,1,0,4.3225,0.455,-0.3325,-0.08296,-0.258396,-0.784216,-0.04956,0.25998,0.35182
-4.57888,0,0,19.5789,19.5789,10.4211,10.4211,14.7701,-0.0405846,-9.56359,0.505525,-0.200414,-0.199454,1,0,5.0225,0.6125,-0.315,0.46665,-0.442738,-1.17779,-0.04956,0.25998,0.35182
-4.58411,0,0,19.5841,19.5841,10.4159,10.4159,14.7728,-0.0396076,-9.56333,0.505508,-0.200369,-0.199466,1,0,5.0225,0.6125,-0.315,0.46665,-0.442738,-1.17779,-0.04956,0.25998,0.35182
-4.58812,0,0,19.5881,19.5881,10.4119,10.4119,14.7714,-0.039171,-9.56173,0.0519945,0.0121082,-0.299171,1,0,2.7475,0.5075,0.525,0.011224,-0.230458,-1.27673,-0.04956,0.25998,0.35182
-4.59214,0,0,19.5921,19.5921,10.4079,10.4079,14.77,-0.0387343,-9.56012,0.0519869,0.0120846,-0.299165,1,0,2.7475,0.5075,0.525,0.011224,-0.230458,-1.27673,-0.04816,0.2632,0.36022
-4.59598,0,0,19.596,19.596,10.404,10.404,14.7681,-0.0463538,-9.5603,-0.560047,0.115249,-0.136004,1,0,2.4325,-4.3225,0.7175,-0.603534,-0.127368,-1.11484,-0.04816,0.2632,0.36022
-4.59982,0,0,19.5998,19.5998,10.4002,10.4002,14.7661,-0.0539734,-9.56048,-0.559914,0.115216,-0.135995,1,0,2.4325,-4.3225,0.7175,-0.603534,-0.127368,-1.11484,-0.04816,0.2632,0.36022
-4.68279,0,0,19.6828,19.6828,10.3172,10.3172,15.0276,-0.413645,-9.47469,-0.210925,-0.212076,0.0568195,0,0,4.305,-1.0325,1.0675,-0.259372,-0.45872,-0.92232,-0.04816,0.2632,0.36022
-4.76171,0,0,19.7617,19.7617,10.2383,10.2383,15.2754,0.0256267,-9.9187,0.498417,-0.44763,-0.30809,0,0,4.9,-0.175,0.875,0.460672,-0.698206,-1.28332,-0.04816,0.2632,0.36022
-4.76758,0,0,19.7676,19.7676,10.2324,10.2324,15.2797,0.0247919,-9.91566,0.498431,-0.447557,-0.30811,1,0,5.9325,0.0175,1.5225,0.460672,-0.698206,-1.28332,-0.04816,0.2632,0.36022
-4.77323,0,0,19.7732,19.7732,10.2268,10.2268,15.2833,0.0232049,-9.91271,0.931191,0.0797233,0.17543,1,0,5.5125,-0.42,1.5925,0.895236,-0.171532,-0.803492,-0.04816,0.2632,0.36022
-4.77798,0,0,19.778,19.778,10.222,10.222,15.2838,0.0226957,-9.9103,0.9312,0.0797324,0.175428,1,0,3.8325,0.105,1.12,0.895236,-0.171532,-0.803492,-0.04816,0.2632,0.36022
-4.78242,0,0,19.7824,19.7824,10.2176,10.2176,15.2833,0.0228566,-9.90739,0.602092,-0.626168,-0.120999,1,0,3.2725,0.56,1.295,0.564738,-0.876692,-1.09763,-0.04746,0.26712,0.36008
-4.78712,0,0,19.7871,19.7871,10.2129,10.2129,15.2837,0.0231534,-9.90601,-1.2513,0.542225,0.0336683,1,0,3.745,0.4025,0.42,-1.29649,0.290482,-0.944158,-0.04746,0.26712,0.36008
-4.79144,0,0,19.7914,19.7914,10.2086,10.2086,15.2828,0.0241801,-9.90548,-1.25132,0.54221,0.0336724,1,0,3.0275,0.6825,-0.175,-1.29649,0.290482,-0.944158,-0.04746,0.26712,0.36008
-4.79592,0,0,19.7959,19.7959,10.2041,10.2041,15.2825,0.0238359,-9.9065,0.0939008,-0.299615,-0.257837,1,0,3.3425,-0.3325,-0.84,0.054412,-0.550464,-1.23342,-0.04746,0.26712,0.36008
-4.79934,0,0,19.7993,19.7993,10.2007,10.2007,15.2786,0.0245769,-9.90776,0.0938878,-0.299681,-0.257819,1,0,1.3475,0.245,-1.1375,0.054412,-0.550464,-1.23342,-0.04746,0.26712,0.36008
-4.80335,0,0,19.8034,19.8034,10.1966,10.1966,15.2767,0.0261911,-9.9095,-0.744999,-0.70212,-0.424037,1,0,2.4675,0.665,-1.54,-0.787998,-0.952454,-1.39836,-0.04746,0.26712,0.36008
-4.80761,0,0,19.8076,19.8076,10.1924,10.1924,15.2756,0.0285011,-9.91219,-0.745039,-0.702139,-0.424032,1,0,2.9225,0.91,-2.1875,-0.787998,-0.952454,-1.39836,-0.04746,0.26712,0.36008
-4.81225,0,0,19.8122,19.8122,10.1878,10.1878,15.2758,0.0292109,-9.91561,-0.60996,-0.261869,-0.540342,1,0,3.64,-0.105,-2.345,-0.652334,-0.512644,-1.51378,-0.04746,0.26712,0.36008
-4.81722,0,0,19.8172,19.8172,10.1828,10.1828,15.2771,0.0314066,-9.91902,0.544359,-0.0981971,0.358529,1,0,4.2525,0.735,-2.5725,0.50691,-0.349164,-0.621834,-0.05138,0.28392,0.36386
-4.82166,0,0,19.8217,19.8217,10.1783,10.1783,15.2766,0.0338825,-9.92232,-0.764814,0.0213572,0.00579151,1,0,3.2725,0.91,-2.555,-0.807762,-0.229726,-0.971852,-0.05138,0.28392,0.36386
-4.82568,0,0,19.8257,19.8257,10.1743,10.1743,15.2747,0.0351807,-9.92483,-0.764837,0.0213252,0.00580022,1,0,2.4675,0.3675,-1.925,-0.807762,-0.229726,-0.971852,-0.05138,0.28392,0.36386
-4.82963,0,0,19.8296,19.8296,10.1704,10.1704,15.2726,0.0363114,-9.92763,0.444169,-0.781327,-0.0698035,1,0,2.3625,0.2275,-2.065,0.406382,-1.03151,-1.04688,-0.05138,0.28392,0.36386
-4.83391,0,0,19.8339,19.8339,10.1661,10.1661,15.2716,0.0363694,-9.92979,0.444168,-0.781344,-0.0697988,1,0,2.9575,-0.28,-1.54,0.406382,-1.03151,-1.04688,-0.05138,0.28392,0.36386
-4.83789,0,0,19.8379,19.8379,10.1621,10.1621,15.2696,0.0378213,-9.93172,0.444507,-0.224968,0.436758,1,0,2.415,0.5425,-1.6275,0.406748,-0.475678,-0.544242,-0.05138,0.28392,0.36386
-4.84316,0,0,19.8432,19.8432,10.1568,10.1568,15.2719,0.0364072,-9.9345,0.444532,-0.22493,0.436748,1,0,4.8125,-1.2075,-1.6625,0.406748,-0.475678,-0.544242,-0.05138,0.28392,0.36386
-4.84829,0,0,19.8483,19.8483,10.1517,10.1517,15.2738,0.0366191,-9.93609,-0.983657,0.483925,-0.187839,1,0,4.5675,-0.105,-1.2425,-1.02748,0.23241,-1.164,-0.0497,0.2849,0.38192
-4.85316,0,0,19.8532,19.8532,10.1468,10.1468,15.2747,0.0337798,-9.93706,-0.983608,0.483941,-0.187844,1,0,4.06,-1.7325,-0.42,-1.02748,0.23241,-1.164,-0.0497,0.2849,0.38192
-4.85816,0,0,19.8582,19.8582,10.1418,10.1418,15.2761,0.0328159,-9.93729,-0.222605,0.181945,0.408819,1,0,4.305,-0.56,-0.2975,-0.263276,-0.069296,-0.571936,-0.0497,0.2849,0.38192
-4.86315,0,0,19.8632,19.8632,10.1368,10.1368,15.2775,0.031852,-9.93752,-0.222588,0.181968,0.408813,1,0,4.305,-0.56,-0.2975,-0.263276,-0.069296,-0.571936,-0.0497,0.2849,0.38192
-4.86748,0,0,19.8675,19.8675,10.1325,10.1325,15.2766,0.0331831,-9.93538,0.148042,-0.0195556,0.59619,1,0,3.045,1.1025,0.6825,0.108946,-0.270596,-0.386008,-0.0497,0.2849,0.38192
-4.8718,0,0,19.8718,19.8718,10.1282,10.1282,15.2757,0.0345143,-9.93325,0.148018,-0.0195702,0.596194,1,0,3.045,1.1025,0.6825,0.108946,-0.270596,-0.386008,-0.0497,0.2849,0.38192
-4.87701,0,0,19.877,19.877,10.123,10.123,15.2778,0.0345649,-9.92994,1.08771,0.0819525,0.426393,1,0,4.7075,0.56,1.54,1.05262,-0.169214,-0.55449,-0.0497,0.2849,0.38192
-4.88223,0,0,19.8822,19.8822,10.1178,10.1178,15.2799,0.0346154,-9.92663,1.08771,0.0819879,0.426383,1,0,4.7075,0.56,1.54,1.05262,-0.169214,-0.55449,-0.0497,0.2849,0.38192
-4.88658,0,0,19.8866,19.8866,10.1134,10.1134,15.2792,0.0349332,-9.92328,0.990393,0.267485,-0.0587682,1,0,3.0975,0.7175,1.5225,0.954894,0.016104,-1.0359,-0.05558,0.2863,0.38206
-4.92764,0,0,19.9276,19.9276,10.0724,10.0724,15.4006,-0.557618,-9.70287,-0.404369,-0.0855052,0.0334517,0,0,2.1,0.98,1.5925,-0.456158,-0.33855,-0.943792,-0.05558,0.2863,0.38206
-4.96722,0,0,19.9672,19.9672,10.0328,10.0328,15.5171,-1.13638,-9.48519,-0.394269,-0.0835868,0.0327662,0,0,1.26,0.455,1.8375,-0.456158,-0.33855,-0.943792,-0.05558,0.2863,0.38206
-5.04844,0,0,20.0484,20.0484,9.95156,9.95156,15.772,-0.673702,-9.95053,0.328758,-0.187228,0.190293,0,0,1.3475,0.455,1.9775,0.278038,-0.446398,-0.786412,-0.05558,0.2863,0.38206
-5.12946,0,0,20.1295,20.1295,9.87054,9.87054,16.026,-0.22278,-10.4087,0.320888,-0.182947,0.189137,0,0,3.43,-0.3675,1.61,0.278038,-0.446398,-0.786412,-0.05558,0.2863,0.38206
-5.13494,0,0,20.1349,20.1349,9.86506,9.86506,16.0283,-0.223911,-10.4066,0.442758,-0.0712858,0.585021,1,0,4.795,-0.28,1.0325,0.400404,-0.33489,-0.393572,-0.05558,0.2863,0.38206
-5.14159,0,0,20.1416,20.1416,9.85841,9.85841,16.0344,-0.22316,-10.4052,0.442745,-0.0711831,0.584991,1,0,6.965,0.665,0.3325,0.400404,-0.33489,-0.393572,-0.05558,0.2863,0.38206
-5.14771,0,0,20.1477,20.1477,9.85229,9.85229,16.0388,-0.220753,-10.4031,0.118579,-0.283366,-0.18063,1,0,5.985,1.715,0.4725,0.074908,-0.546926,-1.15327,-0.05558,0.2863,0.38206
-5.15405,0,0,20.154,20.154,9.84595,9.84595,16.0439,-0.221039,-10.4024,0.118584,-0.283281,-0.180655,1,0,6.3875,-0.0175,0.1575,0.074908,-0.546926,-1.15327,-0.0518,0.2954,0.38374
-5.15943,0,0,20.1594,20.1594,9.84057,9.84057,16.0457,-0.22038,-10.4021,0.20993,0.0795895,-0.594508,1,0,4.585,0.4375,-0.2625,0.166652,-0.184464,-1.56392,-0.0518,0.2954,0.38374
-5.16411,0,0,20.1641,20.1641,9.83589,9.83589,16.0453,-0.218354,-10.4019,0.209895,0.0795823,-0.594506,1,0,3.29,1.19,-0.5425,0.166652,-0.184464,-1.56392,-0.0518,0.2954,0.38374
-5.16897,0,0,20.169,20.169,9.83103,9.83103,16.0455,-0.217203,-10.4028,-0.229661,0.0517397,-0.0991471,1,0,3.605,0.525,-0.9975,-0.274744,-0.21228,-1.07238,-0.0518,0.2954,0.38374
-5.17259,0,0,20.1726,20.1726,9.82741,9.82741,16.0415,-0.215442,-10.4047,-0.229691,0.0516735,-0.0991279,1,0,1.3125,0.7,-1.68,-0.274744,-0.21228,-1.07238,-0.0518,0.2954,0.38374
-5.17593,0,0,20.1759,20.1759,9.82407,9.82407,16.0366,-0.212073,-10.4062,0.0670393,-0.279128,0.353347,1,0,0.77,1.68,-1.68,0.023302,-0.542656,-0.62342,-0.0518,0.2954,0.38374
-5.17978,0,0,20.1798,20.1798,9.82022,9.82022,16.0334,-0.211743,-10.4091,0.0670335,-0.279182,0.353362,1,0,1.7325,-0.2625,-1.995,0.023302,-0.542656,-0.62342,-0.0518,0.2954,0.38374
-5.18362,0,0,20.1836,20.1836,9.81638,9.81638,16.0302,-0.212269,-10.4124,-0.0399862,0.118897,0.636405,1,0,1.715,-0.805,-2.065,-0.08418,-0.144936,-0.342576,-0.0518,0.2954,0.38374
-5.18875,0,0,20.1887,20.1887,9.81125,9.81125,16.0312,-0.212576,-10.4161,-0.0399808,0.118915,0.6364,1,0,4.1125,-0.7525,-2.345,-0.08418,-0.144936,-0.342576,-0.0518,0.2954,0.38374
-5.2313,0,0,20.2313,20.2313,9.7687,9.7687,16.1569,-0.0731051,-10.7242,0.123291,-0.13532,-0.0362389,0,0,6.1075,-0.6125,-2.6775,0.082228,-0.401014,-1.00943,-0.04998,0.3059,0.39326
-5.23774,0,0,20.2377,20.2377,9.76226,9.76226,16.1622,-0.0728911,-10.7271,-0.230722,0.0152295,-0.154295,1,0,6.51,-0.3325,-1.9775,-0.27328,-0.25071,-1.12655,-0.04998,0.3059,0.39326
-5.2443,0,0,20.2443,20.2443,9.7557,9.7557,16.1679,-0.0731975,-10.7293,-0.230716,0.0153249,-0.154323,1,0,6.72,-0.5075,-1.4875,-0.27328,-0.25071,-1.12655,-0.04998,0.3059,0.39326
-5.22375,0,0,20.2238,20.2238,9.77625,9.77625,16.0833,-0.625117,-10.5634,-0.410358,0.108172,-0.0061853,0,0,5.5125,-1.085,-1.4175,-0.463356,-0.156526,-0.979904,-0.04998,0.3059,0.39326
-5.2011,0,0,20.2011,20.2011,9.7989,9.7989,15.9918,-1.1638,-10.395,-0.400958,0.106597,-0.00588528,0,0,1.26,-0.2625,-0.49,-0.463356,-0.156526,-0.979904,-0.04998,0.3059,0.39326
-5.32229,0,0,20.3223,20.3223,9.67771,9.67771,16.3794,-1.21136,-10.556,0.0304175,-0.251339,0.228766,0,0,0.875,0.175,-0.63,-0.030988,-0.520574,-0.745176,-0.04998,0.3059,0.39326
-5.44127,0,0,20.4413,20.4413,9.55873,9.55873,16.7593,-1.25671,-10.7149,0.0312088,-0.244991,0.226859,0,0,0.6475,-0.385,-0.0875,-0.030988,-0.520574,-0.745176,-0.04998,0.3059,0.39326
-5.46092,0,0,20.4609,20.4609,9.53908,9.53908,16.8079,-1.12339,-10.9925,0.104568,-0.0789261,-0.0637439,0,0,0.8575,-0.2625,0.0175,0.045018,-0.355508,-1.03334,-0.04998,0.3059,0.39326
-5.48186,0,0,20.4819,20.4819,9.51814,9.51814,16.8609,-0.99503,-11.2619,0.102328,-0.0780296,-0.0639719,0,0,3.7975,-1.0675,1.1025,0.045018,-0.355508,-1.03334,-0.04914,0.30142,0.38738
-5.48741,0,0,20.4874,20.4874,9.51259,9.51259,16.8625,-0.996544,-11.2596,-0.0680899,-0.109389,-0.098775,1,0,4.4625,-0.4375,1.225,-0.126148,-0.386862,-1.06787,-0.04914,0.30142,0.38738
-5.49295,0,0,20.493,20.493,9.50705,9.50705,16.8641,-0.999305,-11.2576,-0.0680418,-0.109362,-0.098784,1,0,4.4625,-1.19,1.26,-0.126148,-0.386862,-1.06787,-0.04914,0.30142,0.38738
-5.49912,0,0,20.4991,20.4991,9.50088,9.50088,16.8678,-1.00106,-11.2561,0.0162999,-0.0620376,-0.280152,1,0,5.6175,-0.7175,0.7875,-0.04148,-0.339648,-1.24782,-0.04914,0.30142,0.38738
-5.50461,0,0,20.5046,20.5046,9.49539,9.49539,16.8693,-1.00216,-11.2543,0.0163191,-0.0620142,-0.28016,1,0,4.34,-0.28,0.91,-0.04148,-0.339648,-1.24782,-0.04914,0.30142,0.38738
-5.50995,0,0,20.5099,20.5099,9.49005,9.49005,16.8702,-1.00197,-11.252,0.174976,-0.131855,-0.218936,1,0,4.0775,0.5075,0.91,0.117852,-0.409432,-1.18706,-0.04914,0.30142,0.38738
-5.51502,0,0,20.515,20.515,9.48498,9.48498,16.8702,-1.00198,-11.2496,0.174976,-0.131855,-0.218936,1,0,3.57,0.4375,1.0675,0.117852,-0.409432,-1.18706,-0.04914,0.30142,0.38738
-5.51976,0,0,20.5198,20.5198,9.48024,9.48024,16.8691,-1.0004,-11.2467,-0.044819,0.0254269,0.341223,1,0,2.9575,1.4,1.0325,-0.102846,-0.252296,-0.631228,-0.04914,0.30142,0.38738
-5.52444,0,0,20.5244,20.5244,9.47556,9.47556,16.8679,-0.999137,-11.2443,-0.0448409,0.0254061,0.34123,1,0,2.8525,1.1375,0.8225,-0.102846,-0.252296,-0.631228,-0.04802,0.29442,0.38808
-5.52908,0,0,20.5291,20.5291,9.47092,9.47092,16.8665,-0.998851,-11.2425,-0.143371,-0.269553,-0.113058,1,0,2.765,0.4725,0.595,-0.201788,-0.546926,-1.08202,-0.04802,0.29442,0.38808
-5.53387,0,0,20.5339,20.5339,9.46613,9.46613,16.8656,-0.998574,-11.2422,-0.143376,-0.269568,-0.113053,1,0,3.0275,0.2275,-0.1925,-0.201788,-0.546926,-1.08202,-0.04802,0.29442,0.38808
-5.53887,0,0,20.5389,20.5389,9.46113,9.46113,16.8654,-0.998815,-11.2426,-0.00767192,0.108044,0.232556,1,0,3.4125,-0.175,-0.4725,-0.065514,-0.169702,-0.739076,-0.04802,0.29442,0.38808
-5.54424,0,0,20.5442,20.5442,9.45576,9.45576,16.8664,-1.00041,-11.2428,-0.00764403,0.108061,0.23255,1,0,4.1125,-0.91,-0.1575,-0.065514,-0.169702,-0.739076,-0.04802,0.29442,0.38808
-5.54973,0,0,20.5497,20.5497,9.45027,9.45027,16.8679,-1.00219,-11.2432,-0.0281441,-0.221779,-0.0722467,1,0,4.3225,-1.05,-0.2625,-0.086132,-0.499224,-1.04151,-0.04802,0.29442,0.38808
-5.55506,0,0,20.5551,20.5551,9.44494,9.44494,16.8688,-1.00408,-11.2446,-0.0281111,-0.221764,-0.0722519,1,0,4.025,-1.2775,-0.77,-0.086132,-0.499224,-1.04151,-0.04802,0.29442,0.38808
-5.56016,0,0,20.5602,20.5602,9.43984,9.43984,16.8689,-1.00441,-11.2459,0.0721202,-0.223716,-0.0538103,1,0,3.5875,-0.385,-0.9975,0.014518,-0.501176,-1.02321,-0.04802,0.29442,0.38808
-5.56535,0,0,20.5654,20.5654,9.43465,9.43465,16.8693,-1.00303,-11.2474,0.0720963,-0.223709,-0.0538122,1,0,3.7625,0.5425,-1.365,0.014518,-0.501176,-1.02321,-0.0462,0.29358,0.38304
-5.57056,0,0,20.5706,20.5706,9.42944,9.42944,16.8698,-1.00045,-11.2486,0.255252,-0.261071,-0.0373388,1,0,3.7975,1.26,-1.435,0.198494,-0.538508,-1.00687,-0.0462,0.29358,0.38304
-5.57611,0,0,20.5761,20.5761,9.42389,9.42389,16.8714,-0.99844,-11.25,0.255217,-0.261044,-0.0373465,1,0,4.4275,0.91,-1.435,0.198494,-0.538508,-1.00687,-0.0462,0.29358,0.38304
-5.57432,0,0,20.5743,20.5743,9.42568,9.42568,16.8486,-0.850839,-11.5216,0.0910648,0.0248521,0.036455,0,0,4.0425,1.085,-1.3475,0.036234,-0.25254,-0.933788,-0.0462,0.29358,0.38304
-5.57243,0,0,20.5724,20.5724,9.42757,9.42757,16.8255,-0.70965,-11.7921,0.0886008,0.0244758,0.0366039,0,0,3.605,-0.455,-1.435,0.036234,-0.25254,-0.933788,-0.0462,0.29358,0.38304
-5.5776,0,0,20.5776,20.5776,9.4224,9.4224,16.8259,-0.710304,-11.7941,-0.24681,0.0704022,0.191025,1,0,3.745,-0.6825,-1.3125,-0.300608,-0.206668,-0.780556,-0.0462,0.29358,0.38304
-5.5823,0,0,20.5823,20.5823,9.4177,9.4177,16.8248,-0.712567,-11.7958,-0.24677,0.0703827,0.19103,1,0,2.87,-1.54,-0.8925,-0.300608,-0.206668,-0.780556,-0.0462,0.29358,0.38304
-5.48021,0,0,20.4802,20.4802,9.51979,9.51979,16.468,-0.791438,-11.9192,-0.0946301,0.313917,0.0575534,0,0,2.59,-1.5575,-0.6825,-0.149206,0.042578,-0.914756,-0.0462,0.29358,0.38304
-5.38012,0,0,20.3801,20.3801,9.61988,9.61988,16.1182,-0.869471,-12.0424,-0.0932683,0.308053,0.0592468,0,0,2.9225,-1.82,-0.6475,-0.149206,0.042578,-0.914756,-0.03794,0.28868,0.3752
-5.30486,0,0,20.3049,20.3049,9.69514,9.69514,15.8515,-0.70676,-12.3281,0.0722713,0.222985,-0.0375467,0,0,3.3075,-0.56,-0.4375,0.019886,-0.037942,-1.01211,-0.03794,0.28868,0.3752
-5.2316,0,0,20.2316,20.2316,9.7684,9.7684,15.5917,-0.547838,-12.6139,0.0694978,0.218629,-0.0362889,0,0,4.41,0.07,-0.595,0.019886,-0.037942,-1.01211,-0.03794,0.28868,0.3752
-5.23416,0,0,20.2342,20.2342,9.76584,9.76584,15.5847,-0.260336,-12.9816,0.208319,-0.0168181,-0.0375742,0,0,5.1625,0.84,-0.4375,0.164334,-0.273036,-1.01345,-0.03794,0.28868,0.3752
-5.2369,0,0,20.2369,20.2369,9.7631,9.7631,15.5782,0.0197108,-13.3467,0.203431,-0.0169236,-0.0375341,0,0,5.425,0.665,-0.6475,0.164334,-0.273036,-1.01345,-0.03794,0.28868,0.3752
-5.26626,0,0,20.2663,20.2663,9.73374,9.73374,15.6604,-0.116244,-13.4325,-0.0822384,-0.0597523,0.0176504,0,0,4.9875,0.3675,-0.5075,-0.124928,-0.3172,-0.95831,-0.03794,0.28868,0.3752
-5.2945,0,0,20.2945,20.2945,9.7055,9.7055,15.7388,-0.250084,-13.5178,-0.0799024,-0.0584368,0.0172729,0,0,3.8675,-0.5775,-0.1925,-0.124928,-0.3172,-0.95831,-0.03794,0.28868,0.3752
-5.29905,0,0,20.2991,20.2991,9.70095,9.70095,15.7383,-0.250709,-13.5179,-0.0497631,-0.226615,-0.0652228,1,0,3.2025,-0.35,-0.28,-0.094672,-0.485194,-1.04017,-0.03794,0.28868,0.3752
-5.30298,0,0,20.303,20.303,9.69702,9.69702,15.7356,-0.252151,-13.5181,-0.0497379,-0.22666,-0.0652104,1,0,2.0475,-0.8225,-0.1925,-0.094672,-0.485194,-1.04017,-0.03794,0.28868,0.3752
-5.34222,0,0,20.3422,20.3422,9.65778,9.65778,15.8506,0.0595896,-13.8745,0.216706,-0.0771973,0.132568,0,0,2.3625,-0.98,-0.035,0.178364,-0.337818,-0.843386,-0.04368,0.28658,0.39312
-5.34671,0,0,20.3467,20.3467,9.65329,9.65329,15.8497,0.0561661,-13.8671,-0.0474654,-0.0747697,-0.0999231,1,0,3.0275,-0.7175,4.41,-0.086986,-0.335378,-1.07409,-0.04368,0.28658,0.39312
-5.35199,0,0,20.352,20.352,9.64801,9.64801,15.8514,0.0560997,-13.8668,-0.0474643,-0.0747402,-0.0999314,1,0,4.515,0.035,-0.1225,-0.086986,-0.335378,-1.07409,-0.04368,0.28658,0.39312
-5.35742,0,0,20.3574,20.3574,9.64258,9.64258,15.8537,0.0577984,-13.8661,0.363249,-0.0529643,-0.1549,1,0,4.7775,1.085,-0.21,0.325496,-0.313662,-1.12862,-0.04368,0.28658,0.39312
-5.36286,0,0,20.3629,20.3629,9.63714,9.63714,15.8559,0.0611678,-13.8649,0.36319,-0.0529259,-0.154911,1,0,4.8125,2.1175,-0.1575,0.325496,-0.313662,-1.12862,-0.04368,0.28658,0.39312
-5.37347,0,0,20.3735,20.3735,9.62653,9.62653,15.8754,0.705026,-14.4318,0.452422,-0.0237972,0.110001,0,0,4.9,1.75,-0.07,0.42639,-0.28487,-0.86559,-0.04368,0.28658,0.39312
-5.38336,0,0,20.3834,20.3834,9.61664,9.61664,15.8925,1.33271,-14.9928,0.441469,-0.0235639,0.109732,0,0,3.92,1.1725,0,0.42639,-0.28487,-0.86559,-0.04368,0.28658,0.39312
-5.38858,0,0,20.3886,20.3886,9.61142,9.61142,15.894,1.33376,-14.991,-0.142288,-0.574941,0.09829,1,0,4.34,0.91,0.56,-0.15982,-0.8357,-0.876936,-0.04116,0.29288,0.38794
-5.3936,0,0,20.3936,20.3936,9.6064,9.6064,15.8949,1.33333,-14.9897,0.114783,-0.0695665,-0.307567,1,0,3.99,-0.0175,0.4725,0.098332,-0.330864,-1.27966,-0.04116,0.29288,0.38794
-5.39887,0,0,20.3989,20.3989,9.60113,9.60113,15.8965,1.33119,-14.9887,0.11482,-0.069538,-0.307574,1,0,4.4625,-1.0325,0.56,0.098332,-0.330864,-1.27966,-0.04116,0.29288,0.38794
-5.40408,0,0,20.4041,20.4041,9.59592,9.59592,15.898,1.32911,-14.9873,-0.129694,-0.0470422,-0.185738,1,0,4.3225,-0.9275,0.805,-0.147254,-0.308416,-1.15876,-0.04116,0.29288,0.38794
-5.40899,0,0,20.409,20.409,9.59101,9.59101,15.8985,1.32796,-14.9857,-0.129674,-0.047034,-0.18574,1,0,3.78,-0.3675,0.77,-0.147254,-0.308416,-1.15876,-0.04116,0.29288,0.38794
-5.41396,0,0,20.414,20.414,9.58604,9.58604,15.8991,1.32732,-14.9848,0.188872,-0.192476,-0.348773,1,0,3.885,-0.1925,0.2975,0.17263,-0.453718,-1.32053,-0.04116,0.29288,0.38794
-5.41892,0,0,20.4189,20.4189,9.58108,9.58108,15.8998,1.32668,-14.9839,0.188883,-0.192465,-0.348776,1,0,3.885,-0.1925,0.2975,0.17263,-0.453718,-1.32053,-0.04116,0.29288,0.38794
-5.42424,0,0,20.4242,20.4242,9.57576,9.57576,15.9016,1.32821,-14.9827,0.253001,-0.152988,-0.165837,1,0,4.5325,1.0675,0.105,0.237046,-0.414312,-1.13899,-0.04116,0.29288,0.38794
-5.52436,0,0,20.5244,20.5244,9.47564,9.47564,16.2191,1.67231,-15.3427,0.270323,-0.22306,0.223086,0,0,5.3725,-0.2625,0,0.26047,-0.489586,-0.751398,-0.049,0.29008,0.37758
-5.62299,0,0,20.623,20.623,9.37701,9.37701,16.5313,2.0101,-15.6969,0.26443,-0.217888,0.221369,0,0,5.4075,-0.1575,-0.595,0.26047,-0.489586,-0.751398,-0.049,0.29008,0.37758
-5.71881,0,0,20.7188,20.7188,9.28119,9.28119,16.8339,2.26226,-15.999,0.249342,-0.294094,0.0704374,0,0,5.705,-0.245,-0.7525,0.249734,-0.570716,-0.899506,-0.049,0.29008,0.37758
-5.77575,0,0,20.7758,20.7758,9.22425,9.22425,17.0067,1.89442,-15.9315,-0.212448,-0.0884122,0.107036,0,0,5.53,-1.1725,-1.0325,-0.220454,-0.368196,-0.86254,-0.049,0.29008,0.37758
-5.83118,0,0,20.8312,20.8312,9.16882,9.16882,17.1743,1.53625,-15.866,-0.2062,-0.0855626,0.106356,0,0,5.0225,-1.365,-1.015,-0.220454,-0.368196,-0.86254,-0.049,0.29008,0.37758
-5.88759,0,0,20.8876,20.8876,9.11241,9.11241,17.345,0.680593,-15.4589,-0.591686,-0.0590623,0.141772,0,0,4.865,-1.575,-1.5225,-0.622566,-0.34465,-0.826794,-0.049,0.29008,0.37758
-5.94254,0,0,20.9425,20.9425,9.05746,9.05746,17.5106,-0.155688,-15.0565,-0.57709,-0.056284,0.14097,0,0,5.25,-0.84,-1.8375,-0.622566,-0.34465,-0.826794,-0.049,0.29008,0.37758
-5.98604,0,0,20.986,20.986,9.01396,9.01396,17.638,-0.178143,-15.1854,0.00424643,-0.0766362,0.091733,0,0,5.1975,-0.77,-1.785,-0.039162,-0.367098,-0.874984,-0.049,0.29008,0.37758
-6.02861,0,0,21.0286,21.0286,8.97139,8.97139,17.7621,-0.19776,-15.3067,0.0045888,-0.0745726,0.0910733,0,0,4.9175,-0.1575,-1.6975,-0.039162,-0.367098,-0.874984,-0.04718,0.28504,0.3745
-6.15455,0,0,21.1546,21.1546,8.84545,8.84545,18.1638,0.297511,-15.7013,0.36356,-0.261111,0.333941,0,0,4.9525,-0.4025,-1.75,0.33001,-0.560102,-0.631838,-0.04718,0.28504,0.3745
-6.27857,0,0,21.2786,21.2786,8.72143,8.72143,18.5586,0.783452,-16.0855,0.35508,-0.254597,0.331694,0,0,4.585,-0.035,-1.5225,0.33001,-0.560102,-0.631838,-0.04718,0.28504,0.3745
-6.28498,0,0,21.285,21.285,8.71502,8.71502,18.5614,0.784643,-16.0871,0.206725,0.0451486,0.213156,1,0,5.11,0.385,-1.4175,0.181048,-0.260714,-0.749446,-0.04718,0.28504,0.3745
-6.29208,0,0,21.2921,21.2921,8.70792,8.70792,18.5665,0.785358,-16.0876,0.206712,0.0452333,0.213127,1,0,6.405,0.315,-0.7525,0.181048,-0.260714,-0.749446,-0.04718,0.28504,0.3745
-6.28776,0,0,21.2878,21.2878,8.71224,8.71224,18.5336,0.447129,-16.0242,-0.253161,0.0438538,-0.0620343,0,0,6.65,0.7875,-0.455,-0.2867,-0.261568,-1.02273,-0.04718,0.28504,0.3745
-6.28321,0,0,21.2832,21.2832,8.71679,8.71679,18.4999,0.11507,-15.9603,-0.247366,0.0433054,-0.0618207,0,0,6.2475,-0.21,0.175,-0.2867,-0.261568,-1.02273,-0.04718,0.28504,0.3745
-6.29017,0,0,21.2902,21.2902,8.70983,8.70983,18.5046,0.114071,-15.9595,0.4026,-0.160569,-0.167336,1,0,6.16,-0.385,0.315,0.366,-0.465308,-1.1274,-0.04718,0.28504,0.3745
-6.2968,0,0,21.2968,21.2968,8.7032,8.7032,18.5082,0.111804,-15.9581,0.40264,-0.160509,-0.167356,1,0,5.5475,-0.98,0.875,0.366,-0.465308,-1.1274,-0.04648,0.27678,0.37016
-6.42786,0,0,21.4279,21.4279,8.57214,8.57214,18.9262,0.325958,-16.1555,0.197479,-0.306263,0.239954,0,0,5.0225,0.7525,1.12,0.163724,-0.617808,-0.720898,-0.04648,0.27678,0.37016
-6.55704,0,0,21.557,21.557,8.44296,8.44296,19.3374,0.537193,-16.3481,0.193792,-0.299491,0.237575,0,0,5.285,1.12,1.3125,0.163724,-0.617808,-0.720898,-0.04648,0.27678,0.37016
-6.56372,0,0,21.5637,21.5637,8.43628,8.43628,19.3403,0.538173,-16.3449,0.403581,-0.278438,0.00641499,1,0,5.145,1.19,1.2775,0.374418,-0.596824,-0.950258,-0.04648,0.27678,0.37016
-6.57039,0,0,21.5704,21.5704,8.42961,8.42961,19.3432,0.539153,-16.3416,0.403564,-0.27839,0.00639801,1,0,5.145,1.19,1.2775,0.374418,-0.596824,-0.950258,-0.04648,0.27678,0.37016
-6.57854,0,0,21.5785,21.5785,8.42146,8.42146,19.3511,0.539185,-16.3389,0.0308452,0.094714,0.193235,1,0,7.8925,0.5775,1.2075,0.000122,-0.224236,-0.764818,-0.04648,0.27678,0.37016
-6.58669,0,0,21.5867,21.5867,8.41331,8.41331,19.3589,0.539217,-16.3361,0.0308447,0.0948425,0.193189,1,0,7.8925,0.5775,1.2075,0.000122,-0.224236,-0.764818,-0.04648,0.27678,0.37016
-6.7251,0,0,21.7251,21.7251,8.2749,8.2749,19.8004,0.678718,-16.4801,0.164596,-0.368094,0.188615,0,0,7.385,0.595,1.1025,0.136884,-0.693936,-0.76677,-0.04648,0.27678,0.37016
-6.8612,0,0,21.8612,21.8612,8.1388,8.1388,20.2339,0.818055,-16.6183,0.162164,-0.360997,0.185996,0,0,7.385,0.595,1.1025,0.136884,-0.693936,-0.76677,-0.04634,0.27594,0.37506
-6.86757,0,0,21.8676,21.8676,8.13243,8.13243,20.2348,0.979791,-16.8336,0.0993274,0.0215047,0.0802131,0,0,6.86,-1.1025,0.6825,0.076616,-0.311832,-0.87169,-0.04634,0.27594,0.37506
-6.8755,0,0,21.8755,21.8755,8.1245,8.1245,20.241,0.977473,-16.8332,-0.171788,0.0792503,-0.15527,1,0,7,-1.155,0.42,-0.195688,-0.254248,-1.10532,-0.04634,0.27594,0.37506
-6.88363,0,0,21.8836,21.8836,8.11637,8.11637,20.2479,0.976831,-16.8325,-0.171777,0.0793626,-0.155311,1,0,7.3675,-0.1925,0.1925,-0.195688,-0.254248,-1.10532,-0.04634,0.27594,0.37506
-6.89203,0,0,21.892,21.892,8.10797,8.10797,20.2557,0.976719,-16.8321,-0.0766517,-0.0537507,0.453606,1,0,7.875,0.035,-0.0875,-0.100162,-0.38735,-0.501054,-0.04634,0.27594,0.37506
-6.90025,0,0,21.9002,21.9002,8.09975,8.09975,20.2628,0.97622,-16.8323,-0.076643,-0.0536341,0.453563,1,0,7.525,-0.2975,-0.3325,-0.100162,-0.38735,-0.501054,-0.04634,0.27594,0.37506
-6.90851,0,0,21.9085,21.9085,8.09149,8.09149,20.27,0.97542,-16.8326,0.126617,-0.159765,0.339546,1,0,7.6125,-0.4725,-0.2975,0.103944,-0.49349,-0.614148,-0.04634,0.27594,0.37506
-6.91679,0,0,21.9168,21.9168,8.08321,8.08321,20.2774,0.975436,-16.8335,0.126616,-0.159645,0.339502,1,0,7.6475,-0.1575,-0.8225,0.103944,-0.49349,-0.614148,-0.04634,0.27594,0.37506
-6.96123,0,0,21.9612,21.9612,8.03877,8.03877,20.4051,1.07589,-17.0033,0.0910903,-0.124714,0.00759706,0,0,7.1225,-0.28,-0.7175,0.070028,-0.460672,-0.942694,-0.03934,0.27748,0.3794
-6.96979,0,0,21.9698,21.9698,8.03021,8.03021,20.4132,1.07512,-17.0048,-0.00547751,-0.0343299,0.209061,1,0,8.085,-0.7,-0.9625,-0.026962,-0.370514,-0.742736,-0.03934,0.27748,0.3794
-6.97846,0,0,21.9785,21.9785,8.02154,8.02154,20.4217,1.07434,-17.0064,-0.0054639,-0.0341908,0.209009,1,0,8.3125,-0.735,-1.0325,-0.026962,-0.370514,-0.742736,-0.03934,0.27748,0.3794
-7.02491,0,0,22.0249,22.0249,7.97509,7.97509,20.556,0.878336,-16.9986,-0.116118,-0.100244,0.0102964,0,0,9.0825,-1.0675,-1.0325,-0.14152,-0.438712,-0.939156,-0.03934,0.27748,0.3794
-7.07056,0,0,22.0706,22.0706,7.92944,7.92944,20.6875,0.688201,-16.9917,-0.1128,-0.0980807,0.00953074,0,0,9.2575,-1.015,-1.26,-0.14152,-0.438712,-0.939156,-0.03934,0.27748,0.3794
-7.07998,0,0,22.08,22.08,7.92002,7.92002,20.6982,0.687934,-16.9937,-0.0736773,-0.114027,0.259911,1,0,9.5375,-0.525,-1.3125,-0.102236,-0.454816,-0.690642,-0.03934,0.27748,0.3794
-7.08934,0,0,22.0893,22.0893,7.91066,7.91066,20.7086,0.68844,-16.9955,-0.0736861,-0.113856,0.259846,1,0,9.415,-0.0875,-1.435,-0.102236,-0.454816,-0.690642,-0.03934,0.27748,0.3794
-7.09868,0,0,22.0987,22.0987,7.90132,7.90132,20.719,0.689791,-16.997,-0.0189196,-0.0146412,0.274781,1,0,9.38,0.455,-1.4,-0.047214,-0.355874,-0.675758,-0.03934,0.27748,0.3794
-7.10776,0,0,22.1078,22.1078,7.89224,7.89224,20.7286,0.690852,-16.9983,-0.0189382,-0.0144855,0.274722,1,0,8.89,0.3325,-1.2425,-0.047214,-0.355874,-0.675758,-0.04284,0.27706,0.37562
-7.11697,0,0,22.117,22.117,7.88303,7.88303,20.7386,0.691299,-16.9992,0.0628139,-0.197268,0.259538,1,0,9.135,0.0875,-0.875,0.034892,-0.53863,-0.690764,-0.04284,0.27706,0.37562
-7.12621,0,0,22.1262,22.1262,7.87379,7.87379,20.7486,0.69088,-16.9997,0.0628212,-0.197105,0.259476,1,0,9.1525,-0.315,-0.5075,0.034892,-0.53863,-0.690764,-0.04284,0.27706,0.37562
-7.13579,0,0,22.1358,22.1358,7.86421,7.86421,20.7598,0.690238,-16.9996,-0.185727,-0.113021,0.19658,1,0,9.8,-0.315,-0.14,-0.21472,-0.454816,-0.753106,-0.04284,0.27706,0.37562
-7.14579,0,0,22.1458,22.1458,7.85421,7.85421,20.7723,0.689347,-16.9988,-0.185712,-0.112816,0.196503,1,0,10.57,-0.2975,0.315,-0.21472,-0.454816,-0.753106,-0.04284,0.27706,0.37562
-7.15585,0,0,22.1559,22.1559,7.84415,7.84415,20.7851,0.688233,-16.9974,0.00370389,0.203456,0.152408,1,0,10.675,-0.2975,0.6825,-0.024522,-0.13908,-0.796782,-0.04284,0.27706,0.37562
-7.16608,0,0,22.1661,22.1661,7.83392,7.83392,20.7984,0.68761,-16.9948,0.00371477,0.203673,0.152326,1,0,10.955,0.21,1.2075,-0.024522,-0.13908,-0.796782,-0.04284,0.27706,0.37562
-7.17612,0,0,22.1761,22.1761,7.82388,7.82388,20.8111,0.68674,-16.9916,0.00773897,0.046947,0.166879,1,0,10.6225,0.21,1.61,-0.020496,-0.29585,-0.782264,-0.04284,0.27706,0.37562
-7.18627,0,0,22.1863,22.1863,7.81373,7.81373,20.8241,0.685741,-16.9878,0.00775642,0.0471593,0.166798,1,0,10.7975,0.2625,1.96,-0.020496,-0.29585,-0.782264,-0.04284,0.27706,0.37562
-7.23361,0,0,22.2336,22.2336,7.76639,7.76639,20.9609,0.557574,-17.0025,-0.069094,-0.100695,0.0206441,0,0,10.7975,0.6825,1.995,-0.099918,-0.445788,-0.926468,-0.04438,0.27342,0.36596
-7.27991,0,0,22.2799,22.2799,7.72009,7.72009,21.0941,0.433142,-17.0176,-0.0669223,-0.0985178,0.0198273,0,0,10.465,0.5425,1.9425,-0.099918,-0.445788,-0.926468,-0.04438,0.27342,0.36596
-7.28994,0,0,22.2899,22.2899,7.71006,7.71006,21.1065,0.431992,-17.0136,-0.0924142,-0.0796315,0.37335,1,0,10.43,0.2275,2.0825,-0.125538,-0.427122,-0.575596,-0.04438,0.27342,0.36596
-7.29967,0,0,22.2997,22.2997,7.70033,7.70033,21.1178,0.430764,-17.0102,-0.0923928,-0.0794474,0.373279,1,0,9.8525,0.07,1.8025,-0.125538,-0.427122,-0.575596,-0.04438,0.27342,0.36596
-7.30965,0,0,22.3096,22.3096,7.69035,7.69035,21.1299,0.428931,-17.0078,0.00142615,0.00159816,0.232304,1,0,10.325,-0.4725,1.3825,-0.031354,-0.346358,-0.715408,-0.04438,0.27342,0.36596
-7.31934,0,0,22.3193,22.3193,7.68066,7.68066,21.1411,0.42775,-17.0072,0.00144676,0.00178033,0.232234,1,0,9.8,-0.49,0.28,-0.031354,-0.346358,-0.715408,-0.04438,0.27342,0.36596
-7.32908,0,0,22.3291,22.3291,7.67092,7.67092,21.1524,0.427444,-17.0068,0.53769,-0.132253,0.434904,1,0,9.87,-0.07,-0.0525,0.507154,-0.480436,-0.51423,-0.04438,0.27342,0.36596
-7.33939,0,0,22.3394,22.3394,7.66061,7.66061,21.1656,0.426386,-17.0077,0.537708,-0.132038,0.434821,1,0,10.9375,-0.7525,-0.595,0.507154,-0.480436,-0.51423,-0.04438,0.27342,0.36596
-7.34922,0,0,22.3492,22.3492,7.65078,7.65078,21.1772,0.425337,-17.009,0.0936965,0.0529284,-0.240485,1,0,10.0275,-0.8225,-0.7875,0.061244,-0.29585,-1.18425,-0.0427,0.26922,0.36582
-7.35927,0,0,22.3593,22.3593,7.64073,7.64073,21.1895,0.425185,-17.011,0.0936992,0.0531284,-0.240562,1,0,10.43,-0.49,-1.3825,0.061244,-0.29585,-1.18425,-0.0427,0.26922,0.36582
-7.36932,0,0,22.3693,22.3693,7.63068,7.63068,21.2018,0.425571,-17.0132,0.0866463,-0.0179931,0.171606,1,0,10.4475,-0.2275,-1.575,0.054168,-0.367098,-0.775188,-0.0427,0.26922,0.36582
-7.37944,0,0,22.3794,22.3794,7.62056,7.62056,21.2143,0.426535,-17.0153,0.0866294,-0.0177897,0.171527,1,0,10.5525,0.0875,-1.6975,0.054168,-0.367098,-0.775188,-0.0427,0.26922,0.36582
-7.38967,0,0,22.3897,22.3897,7.61033,7.61033,21.2272,0.42711,-17.0175,-0.183079,-0.0327238,-0.126827,1,0,10.7625,-0.1225,-1.61,-0.216672,-0.382226,-1.07116,-0.0427,0.26922,0.36582
-7.39942,0,0,22.3994,22.3994,7.60058,7.60058,21.2385,0.42778,-17.0191,-0.183091,-0.0325406,-0.126898,1,0,9.8525,0.0525,-1.3125,-0.216672,-0.382226,-1.07116,-0.0427,0.26922,0.36582
-7.44146,0,0,22.4415,22.4415,7.55854,7.55854,21.3572,0.732142,-17.2792,0.232181,-0.126254,0.0272138,0,0,9.7125,-0.21,-1.155,0.205692,-0.477752,-0.91744,-0.0427,0.26922,0.36582
-7.48336,0,0,22.4834,22.4834,7.51664,7.51664,21.4754,1.02774,-17.5346,0.227023,-0.124363,0.0263869,0,0,10.4125,-0.7,-0.3325,0.205692,-0.477752,-0.91744,-0.0427,0.26922,0.36582
-7.49356,0,0,22.4936,22.4936,7.50644,7.50644,21.4879,1.0268,-17.5342,-0.0371924,-0.081293,-0.0933218,1,0,10.5525,-0.4025,0.105,-0.059658,-0.43493,-1.03615,-0.04886,0.26348,0.36288
-7.50407,0,0,22.5041,22.5041,7.49593,7.49593,21.5014,1.02545,-17.5331,-0.0371689,-0.0810735,-0.0934078,1,0,11.095,-0.49,0.5425,-0.059658,-0.43493,-1.03615,-0.04886,0.26348,0.36288
-7.46199,0,0,22.462,22.462,7.53801,7.53801,21.3398,1.07933,-17.6758,0.0135223,0.137467,-0.075919,0,0,10.6925,-0.2275,0.5775,-0.007808,-0.213988,-1.0198,-0.04886,0.26348,0.36288
-7.42081,0,0,22.4208,22.4208,7.57919,7.57919,21.1814,1.13125,-17.8177,0.0126164,0.134884,-0.0749327,0,0,10.6925,-0.2275,0.5775,-0.007808,-0.213988,-1.0198,-0.04886,0.26348,0.36288
-7.42617,0,0,22.4262,22.4262,7.57383,7.57383,21.1781,0.964066,-17.81,-0.114213,0.0229807,-0.0148631,0,0,9.3625,-0.245,0.805,-0.138104,-0.32574,-0.960262,-0.04886,0.26348,0.36288
-7.43142,0,0,22.4314,22.4314,7.56858,7.56858,21.1744,0.801133,-17.8023,-0.11137,0.0229371,-0.0147993,0,0,9.3625,-0.245,0.805,-0.138104,-0.32574,-0.960262,-0.04886,0.26348,0.36288
-7.53982,0,0,22.5398,22.5398,7.46018,7.46018,21.5142,0.636206,-17.737,-0.0634201,-0.207597,0.187908,0,0,9.835,0.56,-0.1575,-0.092842,-0.561566,-0.75701,-0.04886,0.26348,0.36288
-7.64621,0,0,22.6462,22.6462,7.35379,7.35379,21.847,0.476959,-17.6739,-0.0606409,-0.20219,0.185787,0,0,9.835,0.56,-0.1575,-0.092842,-0.561566,-0.75701,-0.04886,0.26348,0.36288
-7.74908,0,0,22.7491,22.7491,7.25092,7.25092,22.1678,0.61684,-17.7946,0.144901,-0.283963,0.110514,0,0,10.36,-0.385,-0.665,0.116022,-0.64843,-0.8296,-0.04578,0.2695,0.36568
-7.75886,0,0,22.7589,22.7589,7.24114,7.24114,22.1782,0.615922,-17.7956,-0.174954,-0.0968189,0.21028,1,0,9.38,-0.7175,-0.7,-0.205204,-0.461648,-0.730536,-0.04578,0.2695,0.36568
-7.76877,0,0,22.7688,22.7688,7.23123,7.23123,22.189,0.615655,-17.7968,-0.17495,-0.0966434,0.210208,1,0,9.625,-0.385,-0.8925,-0.205204,-0.461648,-0.730536,-0.04578,0.2695,0.36568
-7.77856,0,0,22.7786,22.7786,7.22144,7.22144,22.1995,0.615589,-17.7982,0.0443331,-0.194299,-0.0934203,1,0,9.38,-0.315,-1.0325,0.015006,-0.55937,-1.03175,-0.04578,0.2695,0.36568
-7.78841,0,0,22.7884,22.7884,7.21159,7.21159,22.2101,0.61605,-17.7995,0.044325,-0.194127,-0.0934903,1,0,9.485,-0.0175,-1.12,0.015006,-0.55937,-1.03175,-0.04578,0.2695,0.36568
-7.79862,0,0,22.7986,22.7986,7.20138,7.20138,22.2219,0.617018,-17.8003,-0.0368443,0.32498,-0.178157,1,0,10.1675,0.3675,-0.9625,-0.06649,-0.040992,-1.11569,-0.04578,0.2695,0.36568
-7.80837,0,0,22.8084,22.8084,7.19163,7.19163,22.2322,0.617691,-17.8004,-0.0368561,0.325146,-0.178225,1,0,9.2925,0.3675,-0.5075,-0.06649,-0.040992,-1.11569,-0.04578,0.2695,0.36568
-7.81829,0,0,22.8183,22.8183,7.18171,7.18171,22.243,0.617677,-17.8,0.28496,-0.196282,-0.0506759,1,0,9.59,0.105,-0.0875,0.256688,-0.562054,-0.989054,-0.04578,0.2695,0.36568
-7.82755,0,0,22.8275,22.8275,7.17245,7.17245,22.2516,0.618615,-17.7981,0.284943,-0.196143,-0.050733,1,0,8.3475,0.945,0.49,0.256688,-0.562054,-0.989054,-0.04858,0.2695,0.3724
-7.82577,0,0,22.8258,22.8258,7.17423,7.17423,22.2235,0.592643,-17.8678,-0.0239059,0.0115079,-0.0731652,0,0,8.75,1.05,0.735,-0.053924,-0.354166,-1.0115,-0.04858,0.2695,0.3724
-7.82418,0,0,22.8242,22.8242,7.17582,7.17582,22.1959,0.565699,-17.9372,-0.0234357,0.0110651,-0.0729793,0,0,8.82,0.14,0.8925,-0.053924,-0.354166,-1.0115,-0.04858,0.2695,0.3724
-7.87072,0,0,22.8707,22.8707,7.12928,7.12928,22.3287,0.751421,-18.1009,0.13417,-0.0873144,0.105367,0,0,8.995,-0.07,1.05,0.107604,-0.454572,-0.833626,-0.04858,0.2695,0.3724
-7.91729,0,0,22.9173,22.9173,7.08271,7.08271,22.4615,0.932083,-18.2626,0.131017,-0.0851895,0.104441,0,0,10.2025,-0.525,0.98,0.107604,-0.454572,-0.833626,-0.04858,0.2695,0.3724
-7.92701,0,0,22.927,22.927,7.07299,7.07299,22.4715,0.93167,-18.2606,0.215457,-0.27457,-0.0467285,1,0,9.0825,0.245,0.8575,0.192394,-0.643916,-0.983564,-0.04858,0.2695,0.3724
-7.93652,0,0,22.9365,22.9365,7.06348,7.06348,22.4807,0.930767,-18.2599,0.215473,-0.274422,-0.0467896,1,0,8.68,-0.2975,0.2975,0.192394,-0.643916,-0.983564,-0.04858,0.2695,0.3724
-7.94559,0,0,22.9456,22.9456,7.05441,7.05441,22.4884,0.929621,-18.2601,0.00216398,0.188442,-0.322123,1,0,7.875,-0.6475,-0.175,-0.021838,-0.181658,-1.25672,-0.04858,0.2695,0.3724
-7.95406,0,0,22.9541,22.9541,7.04594,7.04594,22.4941,0.929291,-18.2611,0.00216974,0.188534,-0.322161,1,0,6.755,-0.385,-0.7875,-0.021838,-0.181658,-1.25672,-0.0469,0.26432,0.3647
-7.90622,0,0,22.9062,22.9062,7.09378,7.09378,22.3124,0.863702,-18.3295,-0.065568,0.184753,0.0270089,0,0,7.1575,-0.035,-0.91,-0.091012,-0.182512,-0.911462,-0.0469,0.26432,0.3647
-7.85925,0,0,22.8593,22.8593,7.14075,7.14075,22.1337,0.799179,-18.3979,-0.064442,0.181873,0.0282034,0,0,7.0175,-0.1575,-1.3125,-0.091012,-0.182512,-0.911462,-0.0469,0.26432,0.3647
-7.86849,0,0,22.8685,22.8685,7.13151,7.13151,22.1423,0.799311,-18.4,-0.0481652,-0.012657,0.14298,1,0,8.4,-0.3675,-1.47,-0.074664,-0.37698,-0.797514,-0.0469,0.26432,0.3647
-7.87825,0,0,22.8783,22.8783,7.12175,7.12175,22.1527,0.799235,-18.4024,-0.0481639,-0.0124894,0.142912,1,0,9.3625,-0.5425,-1.575,-0.074664,-0.37698,-0.797514,-0.0469,0.26432,0.3647
-7.85158,0,0,22.8516,22.8516,7.14842,7.14842,22.0418,1.00577,-18.6139,0.121349,0.0885262,-0.0175977,0,0,8.7325,-0.1225,-1.505,0.099186,-0.274256,-0.957456,-0.0469,0.26432,0.3647
-7.82501,0,0,22.825,22.825,7.17499,7.17499,21.9313,1.20571,-18.8236,0.11786,0.0867129,-0.0169382,0,0,7.63,-0.4725,-1.0675,0.099186,-0.274256,-0.957456,-0.0469,0.26432,0.3647
-7.81055,0,0,22.8106,22.8106,7.18945,7.18945,21.8612,1.2844,-18.9595,0.0482119,0.0287785,-0.106754,0,0,6.895,-0.0175,-0.7875,0.030622,-0.330986,-1.047,-0.0469,0.26432,0.3647
-7.79578,0,0,22.7958,22.7958,7.20422,7.20422,21.7902,1.36008,-19.0932,0.0468914,0.0276166,-0.106322,0,0,5.495,-0.1575,-0.035,0.030622,-0.330986,-1.047,-0.0469,0.26432,0.3647
-7.80352,0,0,22.8035,22.8035,7.19648,7.19648,21.7942,1.35962,-19.0922,0.175067,-0.189826,-0.157494,1,0,5.7575,-0.0175,0.315,0.159332,-0.548268,-1.09776,-0.05222,0.26278,0.3661
-7.8112,0,0,22.8112,22.8112,7.1888,7.1888,21.798,1.35911,-19.0901,0.175076,-0.189765,-0.157518,1,0,5.635,0.1925,0.91,0.159332,-0.548268,-1.09776,-0.05222,0.26278,0.3661
-7.81943,0,0,22.8194,22.8194,7.18057,7.18057,21.8036,1.35908,-19.0877,-0.138114,-0.136059,-0.09313,1,0,6.6675,0.525,0.9975,-0.155184,-0.49471,-1.03383,-0.05222,0.26278,0.3661
-7.82833,0,0,22.8283,22.8283,7.17167,7.17167,21.8115,1.35885,-19.085,-0.13811,-0.135932,-0.0931808,1,0,7.8925,0.49,1.2075,-0.155184,-0.49471,-1.03383,-0.05222,0.26278,0.3661
-7.9218,0,0,22.9218,22.9218,7.0782,7.0782,22.1009,1.16014,-18.9918,-0.0924871,-0.189352,0.138727,0,0,7.7875,-0.0875,1.4,-0.11285,-0.552782,-0.801906,-0.05222,0.26278,0.3661
-8.0133,0,0,23.0133,23.0133,6.9867,6.9867,22.3836,0.96883,-18.9017,-0.0891486,-0.184763,0.136917,0,0,7.5075,0.3675,0.8225,-0.11285,-0.552782,-0.801906,-0.05222,0.26278,0.3661
-8.02145,0,0,23.0214,23.0214,6.97855,6.97855,22.3883,0.968695,-18.9005,-0.128751,0.117333,-0.243886,1,0,6.195,0.21,0.35,-0.152622,-0.251076,-1.17974,-0.05222,0.26278,0.3661
-8.0296,0,0,23.0296,23.0296,6.9704,6.9704,22.3931,0.968579,-18.9,-0.128749,0.11741,-0.243918,1,0,6.195,0.07,-0.0175,-0.152622,-0.251076,-1.17974,-0.05222,0.26278,0.3661
-7.98441,0,0,22.9844,22.9844,7.01559,7.01559,22.2202,1.02863,-19.0324,0.0180516,0.135374,-0.0900877,0,0,5.3725,-0.14,-0.035,-0.004148,-0.230336,-1.02822,-0.04746,0.26348,0.36232
-7.96072,0,0,22.9607,22.9607,7.03928,7.03928,22.1192,1.23192,-19.2352,0.132467,0.0544539,-0.0829706,0,0,6.5625,-0.1225,-0.5775,0.114314,-0.309514,-1.02175,-0.04746,0.26348,0.36232
-7.9374,0,0,22.9374,22.9374,7.0626,7.0626,22.0194,1.42945,-19.4374,0.12902,0.052811,-0.0823909,0,0,6.0725,-0.3675,-1.015,0.114314,-0.309514,-1.02175,-0.04746,0.26348,0.36232
-7.9441,0,0,22.9441,22.9441,7.0559,7.0559,22.0197,1.58176,-19.5981,0.102066,-0.00644136,0.0112289,0,0,6.4575,-0.035,-0.875,0.089914,-0.368684,-0.928786,-0.04746,0.26348,0.36232
-7.95033,0,0,22.9503,22.9503,7.04967,7.04967,22.0185,1.73117,-19.7568,0.0994591,-0.00649027,0.0111674,0,0,5.39,0.63,-0.945,0.089914,-0.368684,-0.928786,-0.04746,0.26348,0.36232
-8.04932,0,0,23.0493,23.0493,6.95068,6.95068,22.3261,1.62046,-19.7108,-0.0337015,-0.26627,0.0849306,0,0,4.5675,0.84,-0.8575,-0.04575,-0.63318,-0.853634,-0.04746,0.26348,0.36232
-8.14681,0,0,23.1468,23.1468,6.85319,6.85319,22.6285,1.51292,-19.6664,-0.0318254,-0.261375,0.0829611,0,0,5.1625,0.2975,-0.63,-0.04575,-0.63318,-0.853634,-0.04746,0.26348,0.36232
-8.15448,0,0,23.1545,23.1545,6.84552,6.84552,22.6314,1.51343,-19.6668,0.256937,0.0505834,0.271052,1,0,5.18,0.21,-0.63,0.244244,-0.321592,-0.666974,-0.04746,0.26348,0.36232
-8.16215,0,0,23.1622,23.1622,6.83785,6.83785,22.6343,1.51393,-19.6672,0.256928,0.0506305,0.271033,1,0,5.18,0.21,-0.63,0.244244,-0.321592,-0.666974,-0.05586,0.266,0.36582
-8.18372,0,0,23.1837,23.1837,6.81628,6.81628,22.6835,1.74097,-19.8469,0.165619,-0.0673281,0.00761122,0,0,6.3175,-0.35,0.14,0.156526,-0.440176,-0.927932,-0.05586,0.266,0.36582
-8.20516,0,0,23.2052,23.2052,6.79484,6.79484,22.7323,1.96219,-20.0244,0.16176,-0.0665917,0.00716785,0,0,6.3175,-0.35,0.14,0.156526,-0.440176,-0.927932,-0.05586,0.266,0.36582
-8.28929,0,0,23.2893,23.2893,6.71071,6.71071,22.9897,2.11528,-20.1237,0.151315,-0.250322,0.0778753,0,0,5.8275,-0.6475,0.3325,0.148718,-0.627812,-0.855952,-0.05586,0.266,0.36582
-8.37219,0,0,23.3722,23.3722,6.62781,6.62781,23.2428,2.26547,-20.2211,0.148696,-0.246302,0.0760504,0,0,5.8275,-0.6475,0.3325,0.148718,-0.627812,-0.855952,-0.05586,0.266,0.36582
-8.37991,0,0,23.3799,23.3799,6.62009,6.62009,23.2453,2.26427,-20.2218,-0.133009,-0.0940915,0.268694,1,0,4.9525,-0.7875,-0.42,-0.1342,-0.4758,-0.664778,-0.05586,0.266,0.36582
-8.38764,0,0,23.3876,23.3876,6.61236,6.61236,23.2478,2.26308,-20.2225,-0.132988,-0.094051,0.268678,1,0,4.9525,-0.7875,-0.42,-0.1342,-0.4758,-0.664778,-0.05586,0.266,0.36582
-8.39538,0,0,23.3954,23.3954,6.60462,6.60462,23.2504,2.26295,-20.2238,-0.177571,-0.293809,-0.0945296,1,0,4.9875,-0.35,-0.98,-0.178974,-0.675392,-1.02517,-0.05586,0.266,0.36582
-8.40312,0,0,23.4031,23.4031,6.59688,6.59688,23.2529,2.26281,-20.2251,-0.177569,-0.293769,-0.0945471,1,0,4.9875,-0.35,-0.98,-0.178974,-0.675392,-1.02517,-0.0497,0.26726,0.36624
-8.41115,0,0,23.4112,23.4112,6.58885,6.58885,23.2564,2.26274,-20.2263,0.0871499,0.312647,-0.316493,1,0,5.53,-0.2975,-0.945,0.086864,-0.069662,-1.24538,-0.0497,0.26726,0.36624
-8.41917,0,0,23.4192,23.4192,6.58083,6.58083,23.2599,2.26228,-20.228,-0.0303187,0.0241173,0.121917,1,0,5.5125,-0.6125,-1.1025,-0.03111,-0.357948,-0.810324,-0.0497,0.26726,0.36624
-8.42684,0,0,23.4268,23.4268,6.57316,6.57316,23.2622,2.26222,-20.2295,-0.0303177,0.0241545,0.121901,1,0,4.865,-0.35,-1.085,-0.03111,-0.357948,-0.810324,-0.0497,0.26726,0.36624
-8.34282,0,0,23.3428,23.3428,6.65718,6.65718,22.9592,2.40012,-20.4359,0.0492804,0.247633,-0.0974216,0,0,4.0075,0.105,-0.7175,0.05124,-0.129808,-1.02992,-0.0497,0.26726,0.36624
-8.26069,0,0,23.2607,23.2607,6.73931,6.73931,22.6627,2.53308,-20.6417,0.046962,0.242829,-0.0955096,0,0,4.48,-0.035,-0.4725,0.05124,-0.129808,-1.02992,-0.0497,0.26726,0.36624
-8.15829,0,0,23.1583,23.1583,6.84171,6.84171,22.2991,2.72917,-20.8967,0.0645601,0.309943,0.0300867,0,0,3.57,0,-0.175,0.072346,-0.056852,-0.907558,-0.0497,0.26726,0.36624
-8.05846,0,0,23.0585,23.0585,6.94154,6.94154,21.9444,2.91859,-21.1517,0.0612582,0.304153,0.0322643,0,0,4.83,-0.2625,0.0875,0.072346,-0.056852,-0.907558,-0.0497,0.26726,0.36624
-8.05002,0,0,23.05,23.05,6.94998,6.94998,21.8944,3.12558,-21.351,0.130785,0.0348388,0.0193806,0,0,5.11,-0.035,0.28,0.14579,-0.325008,-0.92049,-0.04998,0.26292,0.36666
-8.06154,0,0,23.0615,23.0615,6.93846,6.93846,21.9108,2.89419,-21.2956,-0.153225,0.0240707,0.0307815,0,0,4.655,0.35,0.9275,-0.143472,-0.33611,-0.909266,-0.04998,0.26292,0.36666
-8.07254,0,0,23.0725,23.0725,6.92746,6.92746,21.9256,2.66942,-21.2405,-0.149306,0.0243804,0.0308621,0,0,4.27,0.805,0.8225,-0.143472,-0.33611,-0.909266,-0.04998,0.26292,0.36666
-8.15993,0,0,23.1599,23.1599,6.84007,6.84007,22.1947,3.07005,-21.4629,0.333055,-0.258768,0.162913,0,0,3.8675,0.3325,0.91,0.347944,-0.623176,-0.776164,-0.04998,0.26292,0.36666
-8.24658,0,0,23.2466,23.2466,6.75342,6.75342,22.4611,3.46098,-21.6798,0.326243,-0.254622,0.16079,0,0,4.375,-0.105,1.0675,0.347944,-0.623176,-0.776164,-0.04998,0.26292,0.36666
-8.25364,0,0,23.2536,23.2536,6.74636,6.74636,22.4621,3.46006,-21.6779,-0.0786532,0.226453,-0.246668,1,0,4.06,-0.0525,0.91,-0.058682,-0.142618,-1.18047,-0.04998,0.26292,0.36666
-8.26101,0,0,23.261,23.261,6.73899,6.73899,22.4643,3.45922,-21.6764,-0.0786385,0.226487,-0.246681,1,0,4.6725,-0.0875,0.7175,-0.058682,-0.142618,-1.18047,-0.04998,0.26292,0.36666
-8.26851,0,0,23.2685,23.2685,6.73149,6.73149,22.4668,3.45821,-21.6749,-0.256719,-0.148645,0.437143,1,0,4.9,-0.1925,0.7,-0.237534,-0.517402,-0.501908,-0.04998,0.26292,0.36666
-8.27608,0,0,23.2761,23.2761,6.72392,6.72392,22.4696,3.45705,-21.6744,-0.256699,-0.1486,0.437125,1,0,5.0575,-0.5075,0.1925,-0.237534,-0.517402,-0.501908,-0.04662,0.26292,0.36246
-8.28398,0,0,23.284,23.284,6.71602,6.71602,22.4734,3.4554,-21.6744,0.0061035,-0.138645,0.353251,1,0,5.6875,-0.8575,0.0875,0.026352,-0.50752,-0.585112,-0.04662,0.26292,0.36246
-8.29105,0,0,23.291,23.291,6.70895,6.70895,22.4745,3.45541,-21.6741,0.00610326,-0.138628,0.353243,1,0,4.13,0.0875,-0.175,0.026352,-0.50752,-0.585112,-0.04662,0.26292,0.36246
-8.18388,0,0,23.1839,23.1839,6.81612,6.81612,22.0952,3.8549,-22.0524,0.203849,0.30757,-0.00650014,0,0,4.1475,-0.0525,-0.175,0.231922,-0.05551,-0.944158,-0.04662,0.26292,0.36246
-8.07809,0,0,23.0781,23.0781,6.92191,6.92191,21.7208,4.24431,-22.4318,0.197069,0.301344,-0.00451352,0,0,3.2375,0.42,-0.6125,0.231922,-0.05551,-0.944158,-0.04662,0.26292,0.36246
-8.08437,0,0,23.0844,23.0844,6.91563,6.91563,21.72,4.24464,-22.4321,0.155394,-0.0839784,-0.151432,1,0,3.115,0.14,-0.525,0.190076,-0.44042,-1.08995,-0.04662,0.26292,0.36246
-8.09145,0,0,23.0914,23.0914,6.90855,6.90855,21.7219,4.24447,-22.4331,0.155397,-0.0839481,-0.151444,1,0,4.62,-0.2975,-0.84,0.190076,-0.44042,-1.08995,-0.04662,0.26292,0.36246
-8.09851,0,0,23.0985,23.0985,6.90149,6.90149,21.7237,4.24482,-22.4343,-0.121354,-0.401815,-0.0987114,1,0,4.585,-0.035,-1.015,-0.08784,-0.757986,-1.03761,-0.04662,0.26292,0.36246
-8.10598,0,0,23.106,23.106,6.89402,6.89402,21.7269,4.24534,-22.4357,-0.121363,-0.401764,-0.0987325,1,0,5.3725,0,-1.19,-0.08784,-0.757986,-1.03761,-0.05054,0.26712,0.3598
-8.11326,0,0,23.1133,23.1133,6.88674,6.88674,21.7294,4.24526,-22.4373,0.228274,0.013386,-0.197353,1,0,5.0225,-0.3675,-1.155,0.263276,-0.343308,-1.13545,-0.05054,0.26712,0.3598
-8.12054,0,0,23.1205,23.1205,6.87946,6.87946,21.732,4.24518,-22.4388,0.228276,0.0134271,-0.19737,1,0,5.0225,-0.3675,-1.155,0.263276,-0.343308,-1.13545,-0.05054,0.26712,0.3598
-8.12734,0,0,23.1273,23.1273,6.87266,6.87266,21.7329,4.24594,-22.4401,-0.0684056,0.0718181,-0.161721,1,0,4.095,0.1575,-1.1725,-0.034648,-0.284992,-1.10007,-0.05054,0.26712,0.3598
-8.13413,0,0,23.1341,23.1341,6.86587,6.86587,21.7338,4.2467,-22.4414,-0.0684189,0.0718325,-0.161728,1,0,4.095,0.1575,-1.1725,-0.034648,-0.284992,-1.10007,-0.05054,0.26712,0.3598
-8.14091,0,0,23.1409,23.1409,6.85909,6.85909,21.7347,4.24664,-22.4428,-0.369095,-0.336179,-0.277182,1,0,4.0775,-0.315,-1.05,-0.336598,-0.692594,-1.21463,-0.05054,0.26712,0.3598
-8.14769,0,0,23.1477,23.1477,6.85231,6.85231,21.7355,4.24657,-22.4442,-0.369094,-0.336165,-0.277188,1,0,4.0775,-0.315,-1.05,-0.336598,-0.692594,-1.21463,-0.05054,0.26712,0.3598
-8.15486,0,0,23.1549,23.1549,6.84514,6.84514,21.7377,4.2466,-22.445,0.053433,0.332392,0.0373003,1,0,4.7775,-0.14,-0.77,0.087718,-0.024766,-0.902556,-0.05054,0.26712,0.3598
-8.16204,0,0,23.162,23.162,6.83796,6.83796,21.7399,4.24664,-22.4458,0.0534324,0.332427,0.0372863,1,0,4.7775,-0.14,-0.77,0.087718,-0.024766,-0.902556,-0.0532,0.27132,0.35588
-8.16857,0,0,23.1686,23.1686,6.83143,6.83143,21.7399,4.24648,-22.4464,-0.00354161,0.0169747,0.163185,1,0,3.5875,-0.1925,-0.595,0.0305,-0.339892,-0.777628,-0.0532,0.27132,0.35588
-8.17511,0,0,23.1751,23.1751,6.82489,6.82489,21.74,4.24632,-22.447,-0.00353883,0.0169757,0.163185,1,0,3.5875,-0.1925,-0.595,0.0305,-0.339892,-0.777628,-0.0532,0.27132,0.35588
-8.18161,0,0,23.1816,23.1816,6.81839,6.81839,21.7399,4.24669,-22.4472,0.188645,-0.255368,0.0329827,1,0,3.5,0.175,-0.5075,0.223504,-0.611952,-0.906826,-0.0532,0.27132,0.35588
-8.18812,0,0,23.1881,23.1881,6.81188,6.81188,21.7398,4.24705,-22.4474,0.188639,-0.25537,0.0329827,1,0,3.5,0.175,-0.5075,0.223504,-0.611952,-0.906826,-0.0532,0.27132,0.35588
-8.19552,0,0,23.1955,23.1955,6.80448,6.80448,21.7428,4.2475,-22.4469,0.106021,-0.33043,0.00124245,1,0,5.1625,0.385,-0.105,0.140544,-0.686982,-0.938302,-0.0532,0.27132,0.35588
-8.09936,0,0,23.0994,23.0994,6.90064,6.90064,21.4008,4.49074,-22.7505,0.116002,0.274917,-0.102237,0,0,4.9,0.8225,-0.07,0.154818,-0.076616,-1.04286,-0.0532,0.27132,0.35588
-8.00479,0,0,23.0048,23.0048,6.99521,6.99521,21.0646,4.72618,-23.0537,0.111906,0.269344,-0.100426,0,0,4.55,0.6825,0.21,0.154818,-0.076616,-1.04286,-0.0532,0.27132,0.35588
-7.94501,0,0,22.945,22.945,7.05499,7.05499,20.8444,4.7966,-23.2359,0.0128849,0.179877,-0.0659562,0,0,4.2175,0.0175,0.4375,0.056608,-0.162382,-1.00992,-0.05334,0.26292,0.3542
-8.05008,0,0,23.0501,23.0501,6.94992,6.94992,21.1735,4.55056,-23.1028,-0.120479,-0.232815,0.131249,0,0,2.695,0.7,0.5075,-0.081618,-0.58011,-0.81252,-0.05334,0.26292,0.3542
-8.15399,0,0,23.154,23.154,6.84601,6.84601,21.4984,4.31169,-22.973,-0.116322,-0.227432,0.129492,0,0,4.6025,0.5775,0.7525,-0.081618,-0.58011,-0.81252,-0.05334,0.26292,0.3542
-8.16035,0,0,23.1604,23.1604,6.83965,6.83965,21.4981,4.31198,-22.9702,0.0354087,-0.422108,0.116215,1,0,3.2375,0.7875,1.1725,0.07076,-0.774578,-0.825696,-0.05334,0.26292,0.3542
-8.16777,0,0,23.1678,23.1678,6.83223,6.83223,21.5013,4.31048,-22.9678,0.0354348,-0.422055,0.116197,1,0,5.2325,-0.28,1.3125,0.07076,-0.774578,-0.825696,-0.05334,0.26292,0.3542
-8.18065,0,0,23.1806,23.1806,6.81935,6.81935,21.5227,4.32324,-23.0493,0.01128,-0.0122234,0.016456,0,0,5.25,0.35,1.2425,0.046726,-0.365512,-0.924516,-0.05334,0.26292,0.3542
-8.19314,0,0,23.1931,23.1931,6.80686,6.80686,21.5428,4.3357,-23.1305,0.0110632,-0.0119038,0.0163123,0,0,4.76,0.21,1.015,0.046726,-0.365512,-0.924516,-0.05334,0.26292,0.3542
-8.2003,0,0,23.2003,23.2003,6.7997,6.7997,21.5451,4.33442,-23.1287,-0.234194,0.47371,-0.700737,1,0,4.76,-0.2975,0.91,-0.199592,0.11956,-1.63602,-0.05334,0.26292,0.3542
-8.20668,0,0,23.2067,23.2067,6.79332,6.79332,21.5448,4.33354,-23.1273,-0.234179,0.473706,-0.700734,1,0,3.3075,-0.1575,0.63,-0.199592,0.11956,-1.63602,-0.04578,0.26586,0.35602
-8.21344,0,0,23.2134,23.2134,6.78656,6.78656,21.5458,4.33371,-23.1264,0.0352733,0.159612,-0.213618,1,0,4.0425,0.315,0.1575,0.071004,-0.194224,-1.15266,-0.04578,0.26586,0.35602
-8.21946,0,0,23.2195,23.2195,6.78054,6.78054,21.5444,4.33476,-23.1258,0.0352552,0.159588,-0.21361,1,0,2.6775,0.7175,-0.21,0.071004,-0.194224,-1.15266,-0.04578,0.26586,0.35602
-8.22596,0,0,23.226,23.226,6.77404,6.77404,21.5445,4.33546,-23.126,0.00875908,-0.328429,0.523587,1,0,3.605,0.3675,-0.56,0.044408,-0.681736,-0.421144,-0.04578,0.26586,0.35602
-8.23309,0,0,23.2331,23.2331,6.76691,6.76691,21.5467,4.33624,-23.1271,0.00874551,-0.328394,0.523572,1,0,4.83,0.1925,-1.12,0.044408,-0.681736,-0.421144,-0.04578,0.26586,0.35602
-8.23768,0,0,23.2377,23.2377,6.76232,6.76232,21.5405,4.52336,-23.3221,0.127218,-0.00287523,0.0318294,0,0,4.1475,0.0175,-1.295,0.166652,-0.356362,-0.9089,-0.04578,0.26586,0.35602
-8.24378,0,0,23.2438,23.2438,6.75622,6.75622,21.5393,4.70606,-23.5163,0.12404,-0.00298898,0.0315985,0,0,6.72,-0.0525,-2.0475,0.166652,-0.356362,-0.9089,-0.04578,0.26586,0.35602
-8.15068,0,0,23.1507,23.1507,6.84932,6.84932,21.2077,4.30226,-23.4681,-0.372979,0.353825,-0.104101,0,0,4.655,-0.6125,-1.8025,-0.339526,0.005246,-1.04615,-0.04578,0.26586,0.35602
-8.05968,0,0,23.0597,23.0597,6.94032,6.94032,20.8835,3.90795,-23.4164,-0.366114,0.348734,-0.101614,0,0,5.705,1.2075,-1.7675,-0.339526,0.005246,-1.04615,-0.04788,0.26824,0.36036
-7.98851,0,0,22.9885,22.9885,7.01149,7.01149,20.6257,3.62247,-23.4072,-0.242815,0.270642,0.00392866,0,0,5.495,0.9625,-1.7325,-0.220698,-0.068686,-0.943304,-0.04788,0.26824,0.36036
-7.91782,0,0,22.9178,22.9178,7.08218,7.08218,20.3696,3.34039,-23.3967,-0.237901,0.266569,0.0057705,0,0,4.165,-0.1225,-1.505,-0.220698,-0.068686,-0.943304,-0.04788,0.26824,0.36036
-7.97726,0,0,22.9773,22.9773,7.02274,7.02274,20.5472,3.33169,-23.4345,0.0293974,-0.184474,-0.0131304,0,0,6.0375,-1.0325,-1.3825,0.04758,-0.52216,-0.960994,-0.04788,0.26824,0.36036
-8.03546,0,0,23.0355,23.0355,6.96454,6.96454,20.7205,3.32539,-23.4709,0.0295071,-0.181646,-0.0141882,0,0,5.53,-0.035,-0.9975,0.04758,-0.52216,-0.960994,-0.04788,0.26824,0.36036
-8.04302,0,0,23.043,23.043,6.95698,6.95698,20.725,3.32684,-23.4714,-0.0158322,-0.500081,-0.290482,1,0,6.055,0.7,-0.91,0.002074,-0.840336,-1.23513,-0.04788,0.26824,0.36036
-8.04992,0,0,23.0499,23.0499,6.95008,6.95008,20.7273,3.32626,-23.4725,-0.0158222,-0.500043,-0.290496,1,0,4.8475,-0.525,-0.805,0.002074,-0.840336,-1.23513,-0.04788,0.26824,0.36036
-8.05648,0,0,23.0565,23.0565,6.94352,6.94352,20.7284,3.32581,-23.4732,-0.421455,-0.511871,0.214447,1,0,4.1825,-0.3675,-0.595,-0.405284,-0.85217,-0.734074,-0.04788,0.26824,0.36036
-8.06303,0,0,23.063,23.063,6.93697,6.93697,20.7295,3.32536,-23.4739,-0.421447,-0.511852,0.21444,1,0,4.1825,-0.3675,-0.595,-0.405284,-0.85217,-0.734074,-0.04788,0.26824,0.36036
-8.11072,0,0,23.1107,23.1107,6.88928,6.88928,20.8676,3.13512,-23.4136,-0.107615,-0.050218,0.12782,0,0,3.605,0.0525,-0.665,-0.093452,-0.393328,-0.819352,-0.05082,0.26866,0.3605
-8.16474,0,0,23.1647,23.1647,6.83526,6.83526,21.0266,3.11854,-23.441,0.00638475,-0.0791324,0.141598,0,0,5.4775,-0.14,-0.455,0.02074,-0.424804,-0.804712,-0.05082,0.26866,0.3605
-8.21811,0,0,23.2181,23.2181,6.78189,6.78189,21.1834,3.10359,-23.4673,0.00664533,-0.0765791,0.140627,0,0,5.9325,0.315,-0.07,0.02074,-0.424804,-0.804712,-0.05082,0.26866,0.3605
-8.22608,0,0,23.2261,23.2261,6.77392,6.77392,21.1887,3.104,-23.4669,0.105649,-0.401838,0.15215,1,0,6.5275,0.3325,-0.175,0.12017,-0.749812,-0.793244,-0.05082,0.26866,0.3605
-8.23405,0,0,23.234,23.234,6.76595,6.76595,21.1941,3.10441,-23.4665,0.105642,-0.401751,0.152116,1,0,6.5275,0.3325,-0.175,0.12017,-0.749812,-0.793244,-0.05082,0.26866,0.3605
-8.24122,0,0,23.2412,23.2412,6.75878,6.75878,21.1968,3.10514,-23.4654,-0.334878,0.382225,0.26644,1,0,5.0225,0.6475,0.1225,-0.322202,0.033306,-0.679784,-0.05082,0.26866,0.3605
-8.2484,0,0,23.2484,23.2484,6.7516,6.7516,21.1995,3.10586,-23.4643,-0.334891,0.382269,0.266423,1,0,5.0225,0.6475,0.1225,-0.322202,0.033306,-0.679784,-0.05082,0.26866,0.3605
-8.20494,0,0,23.2049,23.2049,6.79506,6.79506,21.0336,3.3562,-23.7013,0.148391,0.126315,-0.0197274,0,0,6.37,0.84,1.2075,0.167506,-0.2196,-0.964532,-0.05502,0.26656,0.35826
-8.2529,0,0,23.2529,23.2529,6.7471,6.7471,21.1723,3.23823,-23.6692,-0.0616676,-0.0897506,0.0573393,0,0,6.44,0.0875,1.4175,-0.045506,-0.437736,-0.887306,-0.05502,0.26656,0.35826
-8.30068,0,0,23.3007,23.3007,6.69932,6.69932,21.3103,3.1216,-23.6382,-0.0596352,-0.087469,0.0565736,0,0,7.805,-1.1725,1.715,-0.045506,-0.437736,-0.887306,-0.05502,0.26656,0.35826
-8.30868,0,0,23.3087,23.3087,6.69132,6.69132,21.3156,3.12057,-23.6352,-0.0890169,-0.311606,0.489073,1,0,6.44,0.0875,1.505,-0.07503,-0.661728,-0.45811,-0.05502,0.26656,0.35826
-8.31623,0,0,23.3162,23.3162,6.68377,6.68377,21.3195,3.11963,-23.6323,-0.0890005,-0.311544,0.48905,1,0,5.6,0.1225,1.4525,-0.07503,-0.661728,-0.45811,-0.05502,0.26656,0.35826
-8.32352,0,0,23.3235,23.3235,6.67648,6.67648,21.3225,3.11876,-23.6307,0.254698,-0.0722488,0.625874,1,0,5.145,-0.105,0.77,0.270108,-0.42273,-0.322324,-0.05502,0.26656,0.35826
-8.33081,0,0,23.3308,23.3308,6.66919,6.66919,21.3254,3.11788,-23.629,0.254713,-0.0722003,0.625855,1,0,5.145,-0.105,0.77,0.270108,-0.42273,-0.322324,-0.05502,0.26656,0.35826
-8.3383,0,0,23.3383,23.3383,6.6617,6.6617,21.3291,3.1163,-23.6286,0.123415,0.30804,0.245923,1,0,5.565,-0.7525,0.245,0.138226,-0.042944,-0.699304,-0.05502,0.26656,0.35826
-8.3458,0,0,23.3458,23.3458,6.6542,6.6542,21.3327,3.11472,-23.6282,0.123442,0.3081,0.245901,1,0,5.565,-0.7525,0.245,0.138226,-0.042944,-0.699304,-0.04578,0.26166,0.37086
-8.35436,0,0,23.3544,23.3544,6.64564,6.64564,21.3399,3.11521,-23.6286,0.0544298,0.180472,0.0563914,1,0,7.5775,0.1925,-0.6475,0.06893,-0.170556,-0.887306,-0.04578,0.26166,0.37086
-8.36292,0,0,23.3629,23.3629,6.63708,6.63708,21.3471,3.11569,-23.6291,0.0544214,0.180589,0.0563454,1,0,7.5775,0.1925,-0.6475,0.06893,-0.170556,-0.887306,-0.04578,0.26166,0.37086
-8.37104,0,0,23.371,23.371,6.62896,6.62896,21.3529,3.11524,-23.6307,0.148581,-0.419693,0.0886449,1,0,6.79,-0.5775,-1.12,0.16348,-0.770308,-0.85522,-0.04578,0.26166,0.37086
-8.37917,0,0,23.3792,23.3792,6.62083,6.62083,21.3586,3.11479,-23.6324,0.148588,-0.4196,0.088609,1,0,6.79,-0.5775,-1.12,0.16348,-0.770308,-0.85522,-0.04578,0.26166,0.37086
-8.38179,0,0,23.3818,23.3818,6.61821,6.61821,21.346,3.44304,-23.8732,0.225115,-0.00212887,0.0551877,0,0,6.0725,0.8575,-1.225,0.246074,-0.352946,-0.88816,-0.04578,0.26166,0.37086
-8.38468,0,0,23.3847,23.3847,6.61532,6.61532,21.3343,3.76307,-24.1113,0.21954,-0.00244637,0.0549349,0,0,6.0725,0.8575,-1.225,0.246074,-0.352946,-0.88816,-0.04578,0.26166,0.37086
-8.39324,0,0,23.3932,23.3932,6.60676,6.60676,21.3414,3.76414,-24.1119,-0.00182555,0.0228278,-0.348629,1,0,7.5775,0.49,-0.84,0.02379,-0.327814,-1.28856,-0.04578,0.26166,0.37086
-8.4018,0,0,23.4018,23.4018,6.5982,6.5982,21.3486,3.76522,-24.1124,-0.00184425,0.0229439,-0.348675,1,0,7.5775,0.49,-0.84,0.02379,-0.327814,-1.28856,-0.04578,0.26166,0.37086
-8.4108,0,0,23.4108,23.4108,6.5892,6.5892,21.3573,3.76352,-24.1139,-0.0713046,0.0576468,0.358717,1,0,8.435,-1.2075,-0.735,-0.045994,-0.293288,-0.586576,-0.0539,0.26082,0.3612
-8.41913,0,0,23.4191,23.4191,6.58087,6.58087,21.3637,3.76304,-24.1153,0.129641,-0.264297,-0.181804,1,0,7.175,-0.56,-1.015,0.155794,-0.615002,-1.12289,-0.0539,0.26082,0.3612
-8.42736,0,0,23.4274,23.4274,6.57264,6.57264,21.3698,3.7633,-24.1167,0.174951,0.545868,-0.201023,1,0,6.9825,-0.1225,-1.1025,0.2013,0.194224,-1.14192,-0.0539,0.26082,0.3612
-8.43525,0,0,23.4352,23.4352,6.56475,6.56475,21.3747,3.7629,-24.1186,0.174958,0.545947,-0.201054,1,0,6.3525,-0.595,-1.2425,0.2013,0.194224,-1.14192,-0.0539,0.26082,0.3612
-8.42293,0,0,23.4229,23.4229,6.57707,6.57707,21.3123,3.45861,-24.0338,-0.241783,0.0731597,-0.105554,0,0,6.9825,-1.4,-0.9625,-0.222528,-0.277184,-1.04786,-0.0539,0.26082,0.3612
-8.41071,0,0,23.4107,23.4107,6.58929,6.58929,21.2503,3.16337,-23.9484,-0.236639,0.0722615,-0.104885,0,0,7.0175,-0.07,-1.1725,-0.222528,-0.277184,-1.04786,-0.0539,0.26082,0.3612
-8.5319,0,0,23.5319,23.5319,6.4681,6.4681,21.6326,2.87101,-23.7467,-0.161082,-0.315175,0.099852,0,0,8.2075,-0.63,-1.225,-0.151768,-0.670512,-0.842532,-0.0539,0.26082,0.3612
-8.65132,0,0,23.6513,23.6513,6.34868,6.34868,22.0087,2.58523,-23.5616,-0.1561,-0.309,0.0976355,0,0,8.8725,-0.0525,-0.9625,-0.151768,-0.670512,-0.842532,-0.05082,0.26628,0.35714
-8.66054,0,0,23.6605,23.6605,6.33946,6.33946,22.0174,2.58465,-23.563,0.00050568,-0.0326086,-0.141556,1,0,8.4525,-0.6125,-0.9625,0.00549,-0.394548,-1.07982,-0.05082,0.26628,0.35714
-8.66962,0,0,23.6696,23.6696,6.33038,6.33038,22.0257,2.5848,-23.5631,0.000503048,-0.0324754,-0.14161,1,0,8.155,0.0875,-0.385,0.00549,-0.394548,-1.07982,-0.05082,0.26628,0.35714
-8.67864,0,0,23.6786,23.6786,6.32136,6.32136,22.0337,2.58534,-23.5625,0.118699,0.083064,-0.26498,1,0,8.015,0.455,-0.0875,0.124196,-0.279258,-1.20219,-0.05082,0.26628,0.35714
-8.68846,0,0,23.6885,23.6885,6.31154,6.31154,22.0444,2.58552,-23.5599,0.118696,0.0832369,-0.26505,1,0,9.4675,0.6825,1.0325,0.124196,-0.279258,-1.20219,-0.05082,0.26628,0.35714
-8.69843,0,0,23.6984,23.6984,6.30157,6.30157,22.0556,2.58675,-23.5567,0.167512,0.0416497,-0.314918,1,0,9.7125,1.3825,1.12,0.17324,-0.320982,-1.2516,-0.05082,0.26628,0.35714
-8.70884,0,0,23.7088,23.7088,6.29116,6.29116,22.0682,2.58458,-23.5538,0.16755,0.0418544,-0.315,1,0,10.535,-0.5075,1.7675,0.17324,-0.320982,-1.2516,-0.05082,0.26628,0.35714
-8.62133,0,0,23.6213,23.6213,6.37867,6.37867,21.7547,2.68834,-23.7392,0.0217802,0.283083,-0.0316084,0,0,10.6575,-1.155,2.345,0.02867,-0.074908,-0.97234,-0.05082,0.26628,0.35714
-8.53442,0,0,23.5344,23.5344,6.46558,6.46558,21.4436,2.78943,-23.9249,0.0200178,0.278008,-0.0296899,0,0,8.715,-0.77,1.8725,0.02867,-0.074908,-0.97234,-0.05082,0.26628,0.35714
-8.54376,0,0,23.5438,23.5438,6.45624,6.45624,21.4533,2.78716,-23.9219,-0.178207,-0.378387,0.924084,1,0,8.89,-0.5775,1.785,-0.170434,-0.73078,-0.025864,-0.05292,0.26936,0.3633
-8.67053,0,0,23.6705,23.6705,6.32947,6.32947,21.854,2.74106,-23.8524,0.0288791,-0.330113,0.160492,0,0,7.98,0.56,1.26,0.036722,-0.689056,-0.781044,-0.05292,0.26936,0.3633
-8.79557,0,0,23.7956,23.7956,6.20443,6.20443,22.2485,2.69599,-23.7858,0.0296649,-0.323723,0.157944,0,0,8.9075,-0.6475,1.1025,0.036722,-0.689056,-0.781044,-0.05292,0.26936,0.3633
-8.8849,0,0,23.8849,23.8849,6.1151,6.1151,22.5238,2.57237,-23.7078,-0.0467812,-0.203473,0.102971,0,0,9.6425,-0.21,0.595,-0.042212,-0.5734,-0.83387,-0.05292,0.26936,0.3633
-8.97239,0,0,23.9724,23.9724,6.02761,6.02761,22.7926,2.45208,-23.6331,-0.0446837,-0.199111,0.10125,0,0,9.38,-1.015,0.0525,-0.042212,-0.5734,-0.83387,-0.05292,0.26936,0.3633
-8.8543,0,0,23.8543,23.8543,6.1457,6.1457,22.3766,2.5499,-23.8336,0.00463463,0.377562,-0.129143,0,0,9.7825,-0.9975,-0.0875,0.009028,0.009394,-1.06518,-0.05292,0.26936,0.3633
-8.73793,0,0,23.7379,23.7379,6.26207,6.26207,21.9667,2.64581,-24.0345,0.00296235,0.370916,-0.126516,0,0,9.17,-0.105,-0.56,0.009028,0.009394,-1.06518,-0.05292,0.26936,0.3633
-8.74763,0,0,23.7476,23.7476,6.25237,6.25237,21.9771,2.64574,-24.0349,-0.337439,0.0944662,0.141321,1,0,9.345,-0.105,-0.5075,-0.332816,-0.266936,-0.799344,-0.04886,0.26432,0.36946
-8.75727,0,0,23.7573,23.7573,6.24273,6.24273,21.9873,2.64628,-24.035,0.326106,-0.0155282,-0.178043,1,0,9.2225,0.2975,-0.4725,0.333548,-0.37698,-1.11618,-0.04886,0.26432,0.36946
-8.76795,0,0,23.7679,23.7679,6.23205,6.23205,22.0008,2.64533,-24.0348,0.326123,-0.0153082,-0.178131,1,0,11.1475,-0.455,-0.0175,0.333548,-0.37698,-1.11618,-0.04886,0.26432,0.36946
-8.77872,0,0,23.7787,23.7787,6.22128,6.22128,22.0147,2.64617,-24.0341,-0.139547,0.131957,-0.24277,1,0,11.305,0.63,-0.1225,-0.134078,-0.230092,-1.18023,-0.04886,0.26432,0.36946
-8.79002,0,0,23.79,23.79,6.20998,6.20998,22.0304,2.64471,-24.0341,-0.139521,0.13221,-0.242871,1,0,12.285,-0.77,0.0175,-0.134078,-0.230092,-1.18023,-0.04886,0.26432,0.36946
-8.80117,0,0,23.8012,23.8012,6.19883,6.19883,22.0455,2.6425,-24.0339,-0.32572,0.400889,-0.236821,1,0,12.005,-1.1375,0.28,-0.321104,0.038064,-1.17413,-0.04886,0.26432,0.36946
-8.81103,0,0,23.811,23.811,6.18897,6.18897,22.0563,2.64027,-24.0346,-0.325681,0.401065,-0.23689,1,0,9.6075,-1.3475,-0.2275,-0.321104,0.038064,-1.17413,-0.04886,0.26432,0.36946
-9.07535,0,0,24.0753,24.0753,5.92465,5.92465,22.9144,2.44473,-23.7481,-0.0263327,-0.520909,0.628125,0,0,8.925,-0.9975,-0.4025,-0.023912,-0.896822,-0.310246,-0.04886,0.26432,0.36946
-9.33572,0,0,24.3357,24.3357,5.66428,5.66428,23.7586,2.25664,-23.4723,-0.0230526,-0.50734,0.622418,0,0,8.435,-0.7,-1.19,-0.023912,-0.896822,-0.310246,-0.0497,0.2632,0.364
-9.34562,0,0,24.3456,24.3456,5.65438,5.65438,23.7678,2.25613,-23.4742,-0.0449112,-0.106495,0.547969,1,0,8.7325,-0.7,-1.2075,-0.045872,-0.49654,-0.384056,-0.0497,0.2632,0.364
-9.35694,0,0,24.3569,24.3569,5.64306,5.64306,23.7818,2.25609,-23.4769,-0.0449105,-0.106272,0.547871,1,0,11.4275,-0.6475,-1.7675,-0.045872,-0.49654,-0.384056,-0.0497,0.2632,0.364
-9.36837,0,0,24.3684,24.3684,5.63163,5.63163,23.7961,2.25612,-23.4799,0.35745,0.166299,-0.105824,1,0,11.6025,-0.665,-1.9075,0.358192,-0.22448,-1.03261,-0.0497,0.2632,0.364
-9.37994,0,0,24.3799,24.3799,5.62006,5.62006,23.8108,2.25376,-23.4836,0.357491,0.166535,-0.105926,1,0,11.9,-2.1175,-1.7325,0.358192,-0.22448,-1.03261,-0.0497,0.2632,0.364
-9.35934,0,0,24.3593,24.3593,5.64066,5.64066,23.7185,2.44035,-23.6429,0.127545,0.0494751,-0.0868336,0,0,11.4275,-1.4875,-1.855,0.13054,-0.339892,-1.01419,-0.0497,0.2632,0.364
-9.33937,0,0,24.3394,24.3394,5.66063,5.66063,23.6283,2.62393,-23.8004,0.124344,0.0479779,-0.0863318,0,0,11.445,-0.245,-1.995,0.13054,-0.339892,-1.01419,-0.0497,0.2632,0.364
-9.21175,0,0,24.2118,24.2118,5.78825,5.78825,23.1797,2.67351,-23.9756,-0.0378538,0.42182,-0.143507,0,0,10.885,0.49,-1.2775,-0.031476,0.040748,-1.07397,-0.0497,0.2632,0.364
-9.08662,0,0,24.0866,24.0866,5.91338,5.91338,22.7398,2.71945,-24.1491,-0.0386547,0.414745,-0.14055,0,0,11.48,0.315,0.0175,-0.031476,0.040748,-1.07397,-0.0497,0.2632,0.364
-9.12521,0,0,24.1252,24.1252,5.87479,5.87479,22.8456,2.78999,-24.2065,0.0622851,-0.074039,0.0536771,0,0,12.81,-0.0875,0.315,0.071126,-0.449204,-0.880474,-0.0518,0.26642,0.36134
-9.13778,0,0,24.1378,24.1378,5.86222,5.86222,22.8646,2.78947,-24.2045,-0.111795,-0.0217073,0.166661,1,0,14.14,0.21,0.91,-0.1037,-0.397232,-0.768234,-0.0518,0.26642,0.36134
-9.15063,0,0,24.1506,24.1506,5.84937,5.84937,22.8846,2.78719,-24.2015,-0.111755,-0.0213857,0.166528,1,0,14.6475,-0.525,1.82,-0.1037,-0.397232,-0.768234,-0.0518,0.26642,0.36134
-9.1628,0,0,24.1628,24.1628,5.8372,5.8372,22.9023,2.78568,-24.1977,0.106824,0.336974,-0.721894,1,0,13.3175,0.0525,2.03,0.115778,-0.039528,-1.64968,-0.0518,0.26642,0.36134
-9.17393,0,0,24.1739,24.1739,5.82607,5.82607,22.9164,2.7837,-24.1943,0.106858,0.337202,-0.721988,1,0,11.3925,-0.2625,1.9775,0.115778,-0.039528,-1.64968,-0.0518,0.26642,0.36134
-9.18511,0,0,24.1851,24.1851,5.81489,5.81489,22.9308,2.7821,-24.1911,-2.10211e-05,0.476779,-0.584628,1,0,11.48,-0.1225,1.75,0.008418,0.099674,-1.51329,-0.0518,0.26642,0.36134
-9.19686,0,0,24.1969,24.1969,5.80314,5.80314,22.947,2.77917,-24.1885,2.99619e-05,0.477041,-0.584736,1,0,12.565,-0.9625,1.75,0.008418,0.099674,-1.51329,-0.0518,0.26642,0.36134
-9.20969,0,0,24.2097,24.2097,5.79031,5.79031,22.9668,2.77714,-24.1865,-0.288099,-0.1991,-0.30135,1,0,14.5775,-0.6125,1.2425,-0.280966,-0.576084,-1.23196,-0.05208,0.2653,0.35476
-9.16968,0,0,24.1697,24.1697,5.83032,5.83032,22.8106,2.95614,-24.3664,0.10203,0.132714,-0.0503576,0,0,15.1725,-0.4725,0.28,0.113948,-0.242048,-0.983808,-0.05208,0.2653,0.35476
-9.13002,0,0,24.13,24.13,5.86998,5.86998,22.6558,3.12959,-24.5456,0.0990072,0.130162,-0.0494628,0,0,14.105,-0.8225,0.245,0.113948,-0.242048,-0.983808,-0.05208,0.2653,0.35476
-9.14192,0,0,24.1419,24.1419,5.85808,5.85808,22.6728,3.12787,-24.5456,-0.168717,0.201758,-0.192565,1,0,13.055,-0.91,0.07,-0.15494,-0.1708,-1.12569,-0.05208,0.2653,0.35476
-9.15382,0,0,24.1538,24.1538,5.84618,5.84618,22.6897,3.12615,-24.5456,-0.168687,0.202032,-0.192677,1,0,13.055,-0.91,0.07,-0.15494,-0.1708,-1.12569,-0.05208,0.2653,0.35476
-9.04099,0,0,24.041,24.041,5.95901,5.95901,22.2913,3.51466,-24.8975,0.203943,0.342264,-0.0263714,0,0,13.37,0.2625,0.2625,0.226066,-0.024156,-0.962946,-0.05208,0.2653,0.35476
-8.93006,0,0,23.9301,23.9301,6.06994,6.06994,21.8997,3.89282,-25.2507,0.197357,0.335784,-0.0242006,0,0,13.37,0.2625,0.2625,0.226066,-0.024156,-0.962946,-0.05208,0.2653,0.35476
-9.09746,0,0,24.0975,24.0975,5.90254,5.90254,22.4352,3.67473,-25.044,-0.0791125,-0.329502,0.294023,0,0,16.17,0.6125,0.84,-0.055388,-0.697474,-0.643916,-0.05208,0.2653,0.35476
-9.26109,0,0,24.2611,24.2611,5.73891,5.73891,22.9577,3.46803,-24.8348,-0.0755119,-0.321018,0.290719,0,0,16.17,0.6125,0.84,-0.055388,-0.697474,-0.643916,-0.04998,0.25844,0.35336
-9.27533,0,0,24.2753,24.2753,5.72467,5.72467,22.9822,3.46513,-24.8337,-0.264979,-0.334058,-0.31263,1,0,17.22,-1.2775,0.9625,-0.245708,-0.710894,-1.24245,-0.04998,0.25844,0.35336
-9.28958,0,0,24.2896,24.2896,5.71042,5.71042,23.0067,3.46224,-24.8325,-0.264929,-0.333665,-0.312794,1,0,17.22,-1.2775,0.9625,-0.245708,-0.710894,-1.24245,-0.04998,0.25844,0.35336
-9.30185,0,0,24.3019,24.3019,5.69815,5.69815,23.0246,3.46205,-24.8323,0.0890839,-0.429369,-0.570616,1,0,13.545,-0.035,-0.1575,0.1098,-0.806786,-1.49816,-0.04998,0.25844,0.35336
-9.31397,0,0,24.314,24.314,5.68603,5.68603,23.0419,3.46176,-24.8324,0.186156,1.07563,-0.218486,1,0,13.265,-0.1575,-0.2975,0.207278,0.696376,-1.14863,-0.04998,0.25844,0.35336
-9.3261,0,0,24.3261,24.3261,5.6739,5.6739,23.0593,3.45936,-24.8353,0.186198,1.07591,-0.218602,1,0,13.37,-1.925,-1.295,0.207278,0.696376,-1.14863,-0.04998,0.25844,0.35336
-9.21353,0,0,24.2135,24.2135,5.78647,5.78647,22.6614,3.92029,-25.2255,0.276209,0.342549,-0.0725375,0,0,17.1325,-1.0675,-1.4875,0.305732,-0.029646,-1.00589,-0.04998,0.25844,0.35336
-9.10295,0,0,24.103,24.103,5.89705,5.89705,22.2706,4.36995,-25.6178,0.268381,0.336045,-0.0704617,0,0,17.4475,-0.875,-2.03,0.305732,-0.029646,-1.00589,-0.04998,0.25844,0.35336
-9.11682,0,0,24.1168,24.1168,5.88318,5.88318,22.2945,4.36899,-25.6219,0.021539,0.317135,-0.18742,1,0,17.1325,-1.4175,-2.3275,0.057828,-0.048922,-1.12179,-0.0455,0.25886,0.36036
-9.12992,0,0,24.1299,24.1299,5.87008,5.87008,22.3158,4.36826,-25.6264,0.0215517,0.317478,-0.18756,1,0,15.68,-1.365,-2.555,0.057828,-0.048922,-1.12179,-0.0455,0.25886,0.36036
-9.14298,0,0,24.143,24.143,5.85702,5.85702,22.337,4.36795,-25.6297,-0.092518,0.112891,-0.362778,1,0,15.5575,-0.875,-2.0125,-0.05673,-0.253638,-1.29552,-0.0455,0.25886,0.36036
-9.15584,0,0,24.1558,24.1558,5.84416,5.84416,22.3575,4.3674,-25.6314,-0.0597073,0.304472,0.10048,1,0,15.1025,-0.665,-1.1375,-0.02379,-0.062586,-0.8357,-0.0455,0.25886,0.36036
-9.17165,0,0,24.1716,24.1716,5.82835,5.82835,22.3879,4.36743,-25.632,-0.0597077,0.30496,0.100279,1,0,20.545,-0.0875,-0.6125,-0.02379,-0.062586,-0.8357,-0.0455,0.25886,0.36036
-9.18712,0,0,24.1871,24.1871,5.81288,5.81288,22.417,4.3677,-25.6312,-0.237203,0.199667,0.410284,1,0,19.845,0.3325,0.0175,-0.202032,-0.168238,-0.527894,-0.0455,0.25886,0.36036
-9.20249,0,0,24.2025,24.2025,5.79751,5.79751,22.4458,4.36635,-25.6301,-0.23718,0.200131,0.410095,1,0,19.6175,-0.455,0.6125,-0.202032,-0.168238,-0.527894,-0.0455,0.25886,0.36036
-9.21839,0,0,24.2184,24.2184,5.78161,5.78161,22.4763,4.36365,-25.6285,-0.0204021,0.412879,-0.521931,1,0,20.58,-1.1025,1.1025,0.015616,0.043798,-1.45253,-0.0455,0.25886,0.36036
-9.231,0,0,24.231,24.231,5.769,5.769,22.4959,4.36287,-25.6257,-0.0203886,0.413194,-0.52206,1,0,14.3675,0.2275,1.365,0.015616,0.043798,-1.45253,-0.05138,0.26208,0.36288
-9.24471,0,0,24.2447,24.2447,5.75529,5.75529,22.519,4.36233,-25.6223,0.0865283,0.342855,-0.564508,1,0,16.38,0.49,1.645,0.122976,-0.02684,-1.4945,-0.05138,0.26208,0.36288
-9.25802,0,0,24.258,24.258,5.74198,5.74198,22.5409,4.35971,-25.6194,0.0865738,0.343208,-0.564651,1,0,15.645,-0.735,1.855,0.122976,-0.02684,-1.4945,-0.05138,0.26208,0.36288
-9.2718,0,0,24.2718,24.2718,5.7282,5.7282,22.5642,4.35723,-25.6171,-0.471974,0.189338,-0.130181,1,0,16.5375,-0.8225,1.435,-0.43798,-0.180926,-1.06323,-0.05138,0.26208,0.36288
-9.28779,0,0,24.2878,24.2878,5.71221,5.71221,22.5949,4.35576,-25.6161,-0.471949,0.189833,-0.130384,1,0,20.7025,-0.5425,0.5775,-0.43798,-0.180926,-1.06323,-0.05138,0.26208,0.36288
-9.30377,0,0,24.3038,24.3038,5.69623,5.69623,22.6256,4.35424,-25.615,-0.167844,-0.0478214,-0.204848,1,0,20.6675,-0.56,0.595,-0.132614,-0.418826,-1.13692,-0.05138,0.26208,0.36288
-9.31987,0,0,24.3199,24.3199,5.68013,5.68013,22.6566,4.35165,-25.6141,-0.167798,-0.0473225,-0.205053,1,0,20.86,-1.1725,0.77,-0.132614,-0.418826,-1.13692,-0.05138,0.26208,0.36288
-9.35027,0,0,24.3503,24.3503,5.64973,5.64973,22.7352,4.19747,-25.5677,-0.103886,-0.064546,-0.0825701,0,0,19.705,-1.2775,0.7175,-0.071126,-0.43737,-1.01504,-0.05138,0.26208,0.36288
-9.37955,0,0,24.3796,24.3796,5.62045,5.62045,22.81,4.04868,-25.5125,-0.101296,-0.0632731,-0.0829019,0,0,18.7775,-0.56,0.735,-0.071126,-0.43737,-1.01504,-0.05138,0.25718,0.36694
-9.26896,0,0,24.269,24.269,5.73104,5.73104,22.4189,4.25185,-25.7694,0.0911237,0.357177,-0.149987,0,0,18.4625,-0.315,0.91,0.12566,-0.01098,-1.08397,-0.05138,0.25718,0.36694
-9.16132,0,0,24.1613,24.1613,5.83868,5.83868,22.0381,4.44993,-26.0258,0.0876765,0.350943,-0.147723,0,0,20.37,0.3675,1.225,0.12566,-0.01098,-1.08397,-0.05138,0.25718,0.36694
-9.17817,0,0,24.1782,24.1782,5.82183,5.82183,22.0722,4.44888,-26.0234,-0.28065,0.123238,-0.444742,1,0,22.54,-0.0175,1.225,-0.244244,-0.238998,-1.37848,-0.05138,0.25718,0.36694
-9.19579,0,0,24.1958,24.1958,5.80421,5.80421,22.1088,4.44698,-26.0205,-0.280617,0.12383,-0.444979,1,0,23.94,-0.385,1.645,-0.244244,-0.238998,-1.37848,-0.05138,0.25718,0.36694
-9.21366,0,0,24.2137,24.2137,5.78634,5.78634,22.1462,4.44432,-26.0179,0.0465905,0.174262,-0.29338,1,0,24.395,-0.84,1.6975,0.084302,-0.189222,-1.22781,-0.05138,0.25718,0.36694
-9.23028,0,0,24.2303,24.2303,5.76972,5.76972,22.1795,4.44198,-26.0156,0.0466313,0.174799,-0.293595,1,0,22.0675,-0.7525,1.4175,0.084302,-0.189222,-1.22781,-0.05138,0.25718,0.36694
-9.24607,0,0,24.2461,24.2461,5.75393,5.75393,22.2099,4.44114,-26.0134,-0.298252,-0.64699,0.0807076,1,0,20.475,0.0525,1.05,-0.262056,-1.01065,-0.856196,-0.05138,0.25718,0.36694
-9.2608,0,0,24.2608,24.2608,5.7392,5.7392,22.2367,4.44005,-26.013,-0.298233,-0.646557,0.080532,1,0,18.585,-0.4725,0.175,-0.262056,-1.01065,-0.856196,-0.05138,0.25718,0.36694
-9.27556,0,0,24.2756,24.2756,5.72444,5.72444,22.2637,4.43822,-26.0138,-0.484439,-0.768616,0.387114,1,0,18.655,-1.155,-0.3675,-0.449082,-1.13301,-0.551806,-0.04354,0.252,0.36932
-9.29224,0,0,24.2922,24.2922,5.70776,5.70776,22.297,4.43644,-26.0156,-0.129427,0.302973,-0.520956,1,0,22.2775,-1.33,-0.8575,-0.092598,-0.063074,-1.45265,-0.04354,0.252,0.36932
-9.3099,0,0,24.3099,24.3099,5.6901,5.6901,22.3335,4.43525,-26.0177,-0.129406,0.303562,-0.521196,1,0,24.115,-1.1025,-1.2075,-0.092598,-0.063074,-1.45265,-0.04354,0.252,0.36932
-9.32825,0,0,24.3283,24.3283,5.67175,5.67175,22.3723,4.43388,-26.0205,0.0522391,-0.0599946,-0.166867,1,0,25.41,-1.3475,-1.5225,0.089792,-0.426878,-1.10081,-0.04354,0.252,0.36932
-9.34544,0,0,24.3454,24.3454,5.65456,5.65456,22.4072,4.43269,-26.0234,0.0522597,-0.059433,-0.167097,1,0,23.205,-1.26,-1.5925,0.089792,-0.426878,-1.10081,-0.04354,0.252,0.36932
-9.36273,0,0,24.3627,24.3627,5.63727,5.63727,22.4424,4.43093,-26.0264,0.140732,-0.384089,-0.0127822,1,0,23.3975,-1.5925,-1.5225,0.178608,-0.751764,-0.947452,-0.04354,0.252,0.36932
-9.3786,0,0,24.3786,24.3786,5.6214,5.6214,22.4728,4.4296,-26.0273,0.140755,-0.383599,-0.0129829,1,0,20.6325,-0.91,-0.525,0.178608,-0.751764,-0.947452,-0.04354,0.252,0.36932
-9.3952,0,0,24.3952,24.3952,5.6048,5.6048,22.5056,4.42856,-26.0274,0.353495,-0.332755,0.178477,1,0,21.9275,-0.5775,-0.1575,0.39223,-0.7015,-0.757254,-0.04354,0.252,0.36932
-9.4118,0,0,24.4118,24.4118,5.5882,5.5882,22.5384,4.42751,-26.0276,0.353513,-0.332227,0.178259,1,0,21.9275,-0.5775,-0.1575,0.39223,-0.7015,-0.757254,-0.04718,0.25018,0.3703
-9.43082,0,0,24.4308,24.4308,5.56918,5.56918,22.5792,4.42551,-26.0258,0.321718,-0.0641127,-0.119054,1,0,26.3375,-0.665,1.085,0.360266,-0.43432,-1.05201,-0.04718,0.25018,0.3703
-9.44985,0,0,24.4498,24.4498,5.55015,5.55015,22.6201,4.42351,-26.024,0.321753,-0.063456,-0.119325,1,0,26.3375,-0.665,1.085,0.360266,-0.43432,-1.05201,-0.04718,0.25018,0.3703
-9.46968,0,0,24.4697,24.4697,5.53032,5.53032,22.6635,4.42042,-26.0222,-0.353046,-0.362944,-0.105841,1,0,27.8075,-1.2425,1.3475,-0.317444,-0.734196,-1.03834,-0.04718,0.25018,0.3703
-9.48952,0,0,24.4895,24.4895,5.51048,5.51048,22.7069,4.41733,-26.0204,-0.352992,-0.362245,-0.106129,1,0,27.8075,-1.2425,1.3475,-0.317444,-0.734196,-1.03834,-0.04718,0.25018,0.3703
-9.50756,0,0,24.5076,24.5076,5.49244,5.49244,22.7443,4.41469,-26.0196,-0.289045,-0.280185,-0.101213,1,0,24.4475,-1.2075,0.7525,-0.253272,-0.652822,-1.03322,-0.04718,0.25018,0.3703
-9.52483,0,0,24.5248,24.5248,5.47517,5.47517,22.7791,4.41281,-26.0189,-0.00971651,0.0430328,-0.685697,1,0,23.0125,-0.8575,0.4375,0.027206,-0.330498,-1.61296,-0.04718,0.25018,0.3703
-9.54357,0,0,24.5436,24.5436,5.45643,5.45643,22.8187,4.41166,-26.0188,-0.00969649,0.0436691,-0.685962,1,0,25.7425,-0.5775,0,0.027206,-0.330498,-1.61296,-0.04718,0.25018,0.3703
-9.56317,0,0,24.5632,24.5632,5.43683,5.43683,22.8612,4.4103,-26.0185,-0.281315,-0.504242,-0.0198668,1,0,27.335,-0.63,0.1925,-0.245586,-0.878522,-0.951722,-0.0553,0.25158,0.37338
-9.40969,0,0,24.4097,24.4097,5.59031,5.59031,22.3273,4.62372,-26.3256,0.0711679,0.540412,-0.138288,0,0,30.695,-1.96,0.7875,0.112118,0.173728,-1.0725,-0.0553,0.25158,0.37338
-9.25753,0,0,24.2575,24.2575,5.74247,5.74247,21.7983,4.83255,-26.6344,0.0675356,0.531771,-0.13511,0,0,28.945,-1.0675,0.735,0.112118,0.173728,-1.0725,-0.0553,0.25158,0.37338
-9.277,0,0,24.277,24.277,5.723,5.723,21.8414,4.83067,-26.6328,0.546465,0.626017,-0.200425,1,0,27.5975,-0.6475,0.9625,0.593042,0.26718,-1.13704,-0.0553,0.25158,0.37338
-9.29473,0,0,24.2947,24.2947,5.70527,5.70527,21.8786,4.82853,-26.6295,0.546502,0.626618,-0.200663,1,0,24.2375,-0.4375,1.9075,0.593042,0.26718,-1.13704,-0.0553,0.25158,0.37338
-9.31363,0,0,24.3136,24.3136,5.68637,5.68637,21.9197,4.82675,-26.6256,-0.190399,0.11606,0.325784,1,0,26.39,-0.105,2.1525,-0.14701,-0.243512,-0.614392,-0.0553,0.25158,0.37338
-9.33424,0,0,24.3342,24.3342,5.66576,5.66576,21.9664,4.82447,-26.6212,-0.19036,0.116815,0.325484,1,0,29.505,-0.245,2.59,-0.14701,-0.243512,-0.614392,-0.0553,0.25158,0.37338
-9.35686,0,0,24.3569,24.3569,5.64314,5.64314,22.0198,4.82132,-26.617,-0.602384,-0.1808,-0.294766,1,0,33.2675,-0.77,2.6425,-0.560834,-0.54168,-1.22952,-0.05096,0.25032,0.37548
-9.38039,0,0,24.3804,24.3804,5.61961,5.61961,22.0761,4.81927,-26.6135,0.299683,0.0734001,0.923411,1,0,34.965,-0.3325,2.0125,0.345016,-0.288652,-0.020374,-0.05096,0.25032,0.37548
-9.40229,0,0,24.4023,24.4023,5.59771,5.59771,22.127,4.81825,-26.6111,0.2997,0.0742203,0.92308,1,0,31.9375,-0.0175,1.1725,0.345016,-0.288652,-0.020374,-0.05096,0.25032,0.37548
-9.22504,0,0,24.225,24.225,5.77496,5.77496,21.5146,5.73784,-27.3151,0.482105,0.572084,0.267767,0,0,29.1025,-0.28,1.1025,0.544242,0.219112,-0.673196,-0.05096,0.25032,0.37548
-9.04701,0,0,24.047,24.047,5.95299,5.95299,20.9003,6.63777,-28.0301,0.46649,0.561534,0.270045,0,0,26.1975,-1.9775,0.2975,0.544242,0.219112,-0.673196,-0.05096,0.25032,0.37548
-8.86036,0,0,23.8604,23.8604,6.13964,6.13964,20.2579,6.60828,-28.2972,-0.161687,0.668247,-0.0269625,0,0,27.5625,-1.1375,-0.5425,-0.087108,0.33611,-0.971852,-0.05096,0.25032,0.37548
-8.67857,0,0,23.6786,23.6786,6.32143,6.32143,19.6323,6.57788,-28.5646,-0.16116,0.658073,-0.0232055,0,0,32.095,-0.7,-0.7175,-0.087108,0.33611,-0.971852,-0.05096,0.25032,0.37548
-8.70103,0,0,23.701,23.701,6.29897,6.29897,19.6875,6.577,-28.5658,-0.135511,0.231408,-0.278644,1,0,34.5275,-0.7,-0.7875,-0.061366,-0.091012,-1.225,-0.05096,0.25032,0.37548
-8.72387,0,0,23.7239,23.7239,6.27613,6.27613,19.7439,6.5747,-28.5675,-0.135472,0.23233,-0.278969,1,0,35.2625,-1.575,-0.7875,-0.061366,-0.091012,-1.225,-0.05082,0.24234,0.3717
-8.74585,0,0,23.7458,23.7458,6.25415,6.25415,19.7973,6.57285,-28.569,0.224765,0.144418,0.148581,1,0,33.6,-1.295,-0.77,0.300364,-0.179706,-0.800442,-0.05082,0.24234,0.3717
-8.76784,0,0,23.7678,23.7678,6.23216,6.23216,19.8508,6.57101,-28.5705,0.224797,0.145291,0.148271,1,0,33.6,-1.295,-0.77,0.300364,-0.179706,-0.800442,-0.05082,0.24234,0.3717
-8.67114,0,0,23.6711,23.6711,6.32886,6.32886,19.509,6.74512,-28.8416,0.0789119,0.329744,-0.122396,0,0,27.755,-1.4175,1.12,0.156892,0.010248,-1.07067,-0.05082,0.24234,0.3717
-8.57612,0,0,23.5761,23.5761,6.42388,6.42388,19.173,6.91406,-29.1125,0.0759844,0.324135,-0.120799,0,0,27.755,-1.4175,1.12,0.156892,0.010248,-1.07067,-0.05082,0.24234,0.3717
-8.59043,0,0,23.5904,23.5904,6.40957,6.40957,19.2015,6.63692,-29.019,-0.21831,0.0463398,-0.0591943,0,0,33.6175,-1.2425,1.6975,-0.143472,-0.267912,-1.00992,-0.05082,0.24234,0.3717
-8.60433,0,0,23.6043,23.6043,6.39567,6.39567,19.2286,6.36582,-28.9258,-0.213609,0.0469601,-0.0588432,0,0,33.6175,-1.2425,1.6975,-0.143472,-0.267912,-1.00992,-0.05082,0.24234,0.3717
-8.62916,0,0,23.6292,23.6292,6.37084,6.37084,19.2921,6.36212,-28.9243,-0.220713,-0.064477,-0.298826,1,0,39.025,-1.75,1.19,-0.15067,-0.380274,-1.24769,-0.05082,0.24234,0.3717
-8.65401,0,0,23.654,23.654,6.34599,6.34599,19.3556,6.35841,-28.9229,-0.220648,-0.0634357,-0.299184,1,0,39.025,-1.75,1.19,-0.15067,-0.380274,-1.24769,-0.05656,0.2401,0.37646
-8.67612,0,0,23.6761,23.6761,6.32388,6.32388,19.4099,6.35442,-28.922,-0.228719,-0.169528,-0.194122,1,0,33.915,-2.0125,0.945,-0.158844,-0.487146,-1.14314,-0.05656,0.2401,0.37646
-8.69824,0,0,23.6982,23.6982,6.30176,6.30176,19.4642,6.35043,-28.9211,-0.228649,-0.168637,-0.194428,1,0,33.915,-2.0125,0.945,-0.158844,-0.487146,-1.14314,-0.05656,0.2401,0.37646
-8.71897,0,0,23.719,23.719,6.28103,6.28103,19.5138,6.34711,-28.9224,-0.494524,0.0483403,-0.232577,1,0,31.4125,-2.065,-0.3675,-0.425902,-0.271206,-1.18072,-0.05656,0.2401,0.37646
-8.77348,0,0,23.7735,23.7735,6.22652,6.22652,19.6758,6.57458,-29.0283,0.165572,-0.072755,0.14093,0,0,37.3975,-1.33,-0.5075,0.24095,-0.39467,-0.808738,-0.05656,0.2401,0.37646
-8.82807,0,0,23.8281,23.8281,6.17193,6.17193,19.8379,6.79699,-29.1316,0.161717,-0.0702624,0.139554,0,0,38.6925,-1.4,0.035,0.24095,-0.39467,-0.808738,-0.05656,0.2401,0.37646
-8.88583,0,0,23.8858,23.8858,6.11417,6.11417,20.0104,7.08604,-29.2658,0.203238,-0.0714463,0.173495,0,0,40.6875,-1.6975,0.2275,0.287676,-0.398452,-0.77348,-0.05656,0.2401,0.37646
-8.94231,0,0,23.9423,23.9423,6.05769,6.05769,20.1785,7.36942,-29.3973,0.198331,-0.0689269,0.17191,0,0,39.4275,-1.47,0.315,0.287676,-0.398452,-0.77348,-0.05656,0.2401,0.37646
-9.04755,0,0,24.0476,24.0476,5.95245,5.95245,20.5088,7.47999,-29.3726,0.130086,-0.243791,0.129362,0,0,33.6,-1.26,0.9975,0.221064,-0.578402,-0.813496,-0.05656,0.2401,0.37646
-9.14906,0,0,24.1491,24.1491,5.85094,5.85094,20.8263,7.58666,-29.3584,0.128241,-0.238736,0.127194,0,0,28.4375,-0.455,1.995,0.221064,-0.578402,-0.813496,-0.049,0.24402,0.37716
-9.1715,0,0,24.1715,24.1715,5.8285,5.8285,20.8803,7.58468,-29.3539,-0.250032,0.118381,0.0894903,1,0,33.425,-0.14,2.5025,-0.158844,-0.222528,-0.850584,-0.049,0.24402,0.37716
-9.19854,0,0,24.1985,24.1985,5.80146,5.80146,20.9494,7.58222,-29.3488,-0.249989,0.119501,0.0890684,1,0,41.93,-0.2625,2.975,-0.158844,-0.222528,-0.850584,-0.049,0.24402,0.37716
-9.17226,0,0,24.1723,24.1723,5.82774,5.82774,20.841,7.58881,-29.4576,-0.029242,0.165739,0.000954436,0,0,43.4525,-1.0675,3.2725,0.062952,-0.174582,-0.938668,-0.049,0.24402,0.37716
-9.1477,0,0,24.1477,24.1477,5.8523,5.8523,20.7384,7.5957,-29.5678,-0.0293612,0.164074,0.00156962,0,0,45.7275,-0.9975,1.9425,0.062952,-0.174582,-0.938668,-0.049,0.24402,0.37716
-9.01935,0,0,24.0193,24.0193,5.98065,5.98065,20.2903,8.01478,-30.016,0.250463,0.443466,-0.0942663,0,0,42.21,-0.4025,1.75,0.351238,0.112118,-1.03554,-0.049,0.24402,0.37716
-8.89028,0,0,23.8903,23.8903,6.10972,6.10972,19.8402,8.42189,-30.467,0.243431,0.435815,-0.0925531,0,0,37.6075,-1.295,1.47,0.351238,0.112118,-1.03554,-0.049,0.24402,0.37716
-8.91366,0,0,23.9137,23.9137,6.08634,6.08634,19.8982,8.41917,-30.4653,-0.245624,0.570366,-0.345669,1,0,35.9275,-1.1375,1.155,-0.139934,0.245586,-1.28637,-0.049,0.24402,0.37716
-8.93868,0,0,23.9387,23.9387,6.06132,6.06132,19.9617,8.41565,-30.4661,-0.245563,0.571399,-0.346034,1,0,39.165,-2.0825,-0.07,-0.139934,0.245586,-1.28637,-0.0427,0.23772,0.3857
-8.96554,0,0,23.9655,23.9655,6.03446,6.03446,20.0312,8.41309,-30.4672,-0.219521,0.374439,-0.424142,1,0,42.5775,-1.61,-0.4025,-0.113826,0.047702,-1.36347,-0.0427,0.23772,0.3857
-8.99361,0,0,23.9936,23.9936,6.00639,6.00639,20.1046,8.40988,-30.4684,-0.219466,0.375633,-0.424569,1,0,44.8175,-1.9775,-0.315,-0.113826,0.047702,-1.36347,-0.0427,0.23772,0.3857
-9.02219,0,0,24.0222,24.0222,5.97781,5.97781,20.1797,8.4071,-30.47,0.329212,0.393585,-0.323699,1,0,45.7625,-1.82,-0.595,0.437126,0.064416,-1.26294,-0.0427,0.23772,0.3857
-9.0479,0,0,24.0479,24.0479,5.9521,5.9521,20.2452,8.40419,-30.4712,0.329262,0.394648,-0.324083,1,0,40.32,-1.82,-0.385,0.437126,0.064416,-1.26294,-0.0427,0.23772,0.3857
-9.0731,0,0,24.0731,24.0731,5.9269,5.9269,20.3089,8.39949,-30.4719,0.0850354,-0.118348,-0.173226,1,0,39.305,-2.7125,0.2275,0.191784,-0.449082,-1.11288,-0.0427,0.23772,0.3857
-9.09723,0,0,24.0972,24.0972,5.90277,5.90277,20.3689,8.39587,-30.4699,0.0850979,-0.117373,-0.173578,1,0,37.03,-1.5575,1.5225,0.191784,-0.449082,-1.11288,-0.0427,0.23772,0.3857
-9.1221,0,0,24.1221,24.1221,5.8779,5.8779,20.4314,8.39282,-30.4666,0.537563,0.106889,-0.389721,1,0,38.29,-0.98,2.1175,0.646112,-0.226066,-1.32699,-0.0427,0.23772,0.3857
-9.15101,0,0,24.151,24.151,5.84899,5.84899,20.5073,8.3889,-30.4628,0.537631,0.108119,-0.39017,1,0,45.745,-1.365,2.5375,0.646112,-0.226066,-1.32699,-0.04788,0.23128,0.3843
-9.1804,0,0,24.1804,24.1804,5.8196,5.8196,20.5846,8.38355,-30.4594,-0.620035,0.510684,-0.437592,1,0,46.6375,-2.24,2.5725,-0.516548,0.174826,-1.3736,-0.04788,0.23128,0.3843
-9.21193,0,0,24.2119,24.2119,5.78807,5.78807,20.6691,8.38033,-30.4574,-0.61998,0.512051,-0.438098,1,0,50.6975,-1.33,1.435,-0.516548,0.174826,-1.3736,-0.04788,0.23128,0.3843
-9.24152,0,0,24.2415,24.2415,5.75848,5.75848,20.747,8.37783,-30.4548,-0.0193112,0.291163,-0.355455,1,0,46.9875,-0.805,1.645,0.08662,-0.047092,-1.29113,-0.04788,0.23128,0.3843
-9.26869,0,0,24.2687,24.2687,5.73131,5.73131,20.8167,8.37379,-30.4519,-0.0192415,0.292292,-0.355873,1,0,42.4025,-1.5925,2.0825,0.08662,-0.047092,-1.29113,-0.04788,0.23128,0.3843
-9.30373,0,0,24.3037,24.3037,5.69627,5.69627,20.9126,7.50946,-30.0237,-0.722767,0.135208,0.0549032,0,0,41.755,-1.435,1.5925,-0.634888,-0.206302,-0.884866,-0.04788,0.23128,0.3843
-9.33868,0,0,24.3387,24.3387,5.66132,5.66132,21.0081,6.65708,-29.5971,-0.708004,0.137408,0.0560248,0,0,44.135,-2.1875,0.63,-0.634888,-0.206302,-0.884866,-0.04788,0.23128,0.3843
-9.38282,0,0,24.3828,24.3828,5.61718,5.61718,21.1341,6.15388,-29.3317,-0.38147,0.0331833,0.00131838,0,0,48.2125,-2.1175,0.385,-0.315736,-0.312808,-0.939278,-0.04788,0.23128,0.3843
-9.42569,0,0,24.4257,24.4257,5.57431,5.57431,21.2557,5.6639,-29.0779,-0.372964,0.0354707,0.00137563,0,0,49.1225,-2.3625,0.14,-0.315736,-0.312808,-0.939278,-0.04256,0.23618,0.39354
-9.45698,0,0,24.457,24.457,5.54302,5.54302,21.3387,5.66144,-29.0788,0.148982,-0.551836,-0.265081,1,0,50.1025,-1.5225,-0.2975,0.208376,-0.900848,-1.20316,-0.04256,0.23618,0.39354
-9.48604,0,0,24.486,24.486,5.51396,5.51396,21.4141,5.6567,-29.0787,0.149064,-0.550613,-0.265551,1,0,45.815,-2.5375,0.77,0.208376,-0.900848,-1.20316,-0.04256,0.23618,0.39354
-9.514,0,0,24.514,24.514,5.486,5.486,21.4859,5.64922,-29.0789,-0.530397,-0.224348,0.0787527,1,0,43.75,-4.1125,1.1375,-0.474092,-0.576084,-0.861076,-0.04256,0.23618,0.39354
-9.5431,0,0,24.5431,24.5431,5.4569,5.4569,21.5613,5.64454,-29.0779,-0.530316,-0.223125,0.0782793,1,0,45.78,-2.31,1.2425,-0.474092,-0.576084,-0.861076,-0.04256,0.23618,0.39354
-9.573,0,0,24.573,24.573,5.427,5.427,21.6393,5.6409,-29.0757,0.508815,-0.0193771,-0.366427,1,0,47.145,-1.4875,1.6625,0.569374,-0.373808,-1.30186,-0.04256,0.23618,0.39354
-9.6059,0,0,24.6059,24.6059,5.3941,5.3941,21.7273,5.63829,-29.0702,0.50886,-0.0179561,-0.366987,1,0,52.535,-0.2275,3.185,0.569374,-0.373808,-1.30186,-0.04256,0.23618,0.39354
-9.63881,0,0,24.6388,24.6388,5.36119,5.36119,21.8152,5.63367,-29.0653,-0.567666,0.198652,-0.406397,1,0,52.535,-1.4175,3.36,-0.51179,-0.158844,-1.34041,-0.04256,0.23618,0.39354
-9.67214,0,0,24.6721,24.6721,5.32786,5.32786,21.9043,5.63037,-29.0627,-0.567609,0.200092,-0.406969,1,0,53.3925,-1.225,1.7675,-0.51179,-0.158844,-1.34041,-0.04256,0.23618,0.39354
-9.70474,0,0,24.7047,24.7047,5.29526,5.29526,21.991,5.62621,-29.0611,-0.612608,-0.430637,0.190128,1,0,52.045,-1.89,1.4525,-0.557052,-0.790316,-0.747372,-0.0469,0.23156,0.3983
-9.73515,0,0,24.7351,24.7351,5.26485,5.26485,22.0703,5.62415,-29.0582,-0.612572,-0.429359,0.189614,1,0,47.81,-0.455,1.7325,-0.557052,-0.790316,-0.747372,-0.0469,0.23156,0.3983
-9.86902,0,0,24.869,24.869,5.13098,5.13098,22.494,4.94834,-28.5751,-0.463913,-0.162247,0.18709,0,0,47.845,0.4025,1.3475,-0.419558,-0.5307,-0.748104,-0.0469,0.23156,0.3983
-10.0023,0,0,25.0023,25.0023,5,5,22.9155,4.28371,-28.1022,-0.45235,-0.155124,0.185121,0,0,52.8675,-1.1375,0.77,-0.419558,-0.5307,-0.748104,-0.0469,0.23156,0.3983
-9.85809,0,0,24.8581,24.8581,5.14191,5.14191,22.4123,4.6248,-28.4692,0.167001,0.538481,-0.028075,0,0,54.5125,-2.31,0.7875,0.208376,0.170434,-0.96258,-0.0469,0.23156,0.3983
-9.71676,0,0,24.7168,24.7168,5.28324,5.28324,21.9193,4.95573,-28.8415,0.161246,0.530358,-0.0252866,0,0,56.4375,-4.0075,0.105,0.208376,0.170434,-0.96258,-0.0469,0.23156,0.3983
-9.75249,0,0,24.7525,24.7525,5.24751,5.24751,22.0164,4.9524,-28.8433,0.520537,-0.112782,-0.00882346,1,0,58.03,-2.17,-0.525,0.56913,-0.473604,-0.945622,-0.0469,0.23156,0.3983
-9.78522,0,0,24.7852,24.7852,5.21478,5.21478,22.1034,4.94932,-28.8436,0.52059,-0.111378,-0.00938737,1,0,52.325,-1.715,0.1925,0.56913,-0.473604,-0.945622,-0.0469,0.23156,0.3983
-9.81704,0,0,24.817,24.817,5.18296,5.18296,22.1872,4.9454,-28.8431,-0.460338,-0.402152,-0.0362428,1,0,50.54,-1.995,0.8225,-0.41602,-0.765428,-0.97173,-0.04802,0.2212,0.4039
-9.84922,0,0,24.8492,24.8492,5.15078,5.15078,22.2722,4.9383,-28.8424,-0.460215,-0.40078,-0.036792,1,0,51.1525,-3.6925,1.5925,-0.41602,-0.765428,-0.97173,-0.04802,0.2212,0.4039
-9.88335,0,0,24.8834,24.8834,5.11665,5.11665,22.3636,4.93154,-28.8418,0.0874385,-0.743581,0.108677,1,0,54.74,-3.5,1.5225,0.133834,-1.10935,-0.826794,-0.04802,0.2212,0.4039
-9.9198,0,0,24.9198,24.9198,5.0802,5.0802,22.4627,4.92743,-28.8389,0.0875101,-0.741987,0.108026,1,0,58.905,-1.5575,2.17,0.133834,-1.10935,-0.826794,-0.04802,0.2212,0.4039
-9.95649,0,0,24.9565,24.9565,5.04351,5.04351,22.5624,4.92346,-28.8353,-0.193417,-0.842724,0.616866,1,0,59.29,-1.33,2.485,-0.148352,-1.21158,-0.321226,-0.04802,0.2212,0.4039
-9.9932,0,0,24.9932,24.9932,5.0068,5.0068,22.6621,4.92101,-28.8321,-0.193375,-0.841123,0.616203,1,0,59.2725,-0.595,1.9425,-0.148352,-1.21158,-0.321226,-0.04802,0.2212,0.4039
-10.0281,0,0,25.0281,25.0281,5,5,22.7558,4.91508,-28.8299,0.245292,-0.165232,0.425872,1,0,55.965,-2.6775,2.2225,0.292068,-0.537898,-0.509472,-0.04802,0.2212,0.4039
-10.0616,0,0,25.0616,25.0616,5,5,22.8446,4.90586,-28.8273,0.245452,-0.163804,0.425287,1,0,53.165,-4.3575,3.185,0.292068,-0.537898,-0.509472,-0.04802,0.2212,0.4039
-10.0961,0,0,25.0961,25.0961,5,5,22.9366,4.89706,-28.8248,-0.0144958,0.605608,-0.265925,1,0,54.985,-4.1825,2.975,0.030866,0.229238,-1.19475,-0.04354,0.2163,0.4116
-10.1335,0,0,25.1335,25.1335,5,5,23.0381,4.89561,-28.821,-0.0359736,-0.306884,-0.176615,1,0,60.2875,0.105,2.0475,0.009272,-0.683932,-1.10544,-0.04354,0.2163,0.4116
-10.1715,0,0,25.1715,25.1715,5,5,23.1416,4.89061,-28.8188,-0.198434,-0.103106,0.44247,1,0,61.46,-2.17,2.0125,-0.153964,-0.482022,-0.49044,-0.04354,0.2163,0.4116
-10.2093,0,0,25.2093,25.2093,5,5,23.2444,4.88445,-28.818,-0.480053,0.342715,0.209894,1,0,61.0925,-3.0975,1.5575,-0.436882,-0.038308,-0.720532,-0.04354,0.2163,0.4116
-10.2467,0,0,25.2467,25.2467,5,5,23.3458,4.87567,-28.8186,0.491378,0.427631,0.338796,1,0,60.41,-4.8475,1.3825,0.538508,0.044896,-0.591944,-0.04354,0.2163,0.4116
-10.3064,0,0,25.3064,25.3064,5,5,23.5215,4.9443,-28.7779,0.0747037,-0.0996377,-0.0089817,0,0,59.045,-4.515,1.785,0.121268,-0.484584,-0.93574,-0.04354,0.2163,0.4116
-10.3427,0,0,25.3427,25.3427,5,5,23.6185,4.93865,-28.7743,0.461977,0.718819,-0.138007,1,0,57.785,-2.17,2.9225,0.510082,0.331474,-1.06311,-0.04354,0.2163,0.4116
-10.3806,0,0,25.3806,25.3806,5,5,23.7211,4.93356,-28.7702,-0.503017,0.468997,-0.335803,1,0,60.8475,-1.75,3.0625,-0.459086,0.080276,-1.25867,-0.04354,0.2163,0.4116
-10.4201,0,0,25.4201,25.4201,5,5,23.8291,4.92979,-28.7652,0.471364,0.256508,0.352571,1,0,63.8575,-0.84,3.2025,0.519354,-0.133712,-0.574864,-0.04452,0.21616,0.41398
-10.4597,0,0,25.4597,25.4597,5,5,23.9371,4.92235,-28.7616,-0.784912,0.070276,-0.743773,1,0,63.8925,-3.0975,3.395,-0.74237,-0.32147,-1.66201,-0.04452,0.21616,0.41398
-10.5009,0,0,25.5009,25.5009,5,5,24.0504,4.91762,-28.7596,-0.78483,0.0720777,-0.744567,1,0,66.92,-2.0475,1.8375,-0.74237,-0.32147,-1.66201,-0.04452,0.21616,0.41398
-10.474,0,0,25.474,25.474,5,5,23.937,5.04218,-28.8568,0.0621897,0.197578,-0.0221068,0,0,66.045,-2.31,1.015,0.11041,-0.194224,-0.945744,-0.04452,0.21616,0.41398
-10.4461,0,0,25.4461,25.4461,5,5,23.82,5.16677,-28.9517,0.0600237,0.195641,-0.021461,0,0,62.7025,-0.1225,1.4175,0.11041,-0.194224,-0.945744,-0.04452,0.21616,0.41398
-10.4843,0,0,25.4843,25.4843,5,5,23.9233,5.16324,-28.9491,-0.41954,0.324052,0.169617,1,0,61.285,-1.2775,1.855,-0.371246,-0.067588,-0.755424,-0.04452,0.21616,0.41398
-10.5248,0,0,25.5248,25.5248,5,5,24.0343,5.15822,-28.9473,-0.419453,0.325818,0.168841,1,0,65.66,-2.2225,1.8725,-0.371246,-0.067588,-0.755424,-0.04452,0.21616,0.41398
-10.5674,0,0,25.5674,25.5674,5,5,24.1523,5.15375,-28.9465,0.0770151,-0.390289,0.083298,1,0,69.6675,-2.1875,1.155,0.127246,-0.784826,-0.839482,-0.04452,0.21616,0.41398
-10.6095,0,0,25.6095,25.6095,5,5,24.2683,5.15069,-28.946,0.0770683,-0.388448,0.0824754,1,0,68.5475,-1.505,0.665,0.127246,-0.784826,-0.839482,-0.04494,0.21084,0.41608
-10.6526,0,0,25.6526,25.6526,5,5,24.3877,5.1497,-28.946,0.309002,-0.183094,0.516368,1,0,70.4375,-0.5075,-0.0875,0.360144,-0.581574,-0.40809,-0.04494,0.21084,0.41608
-10.694,0,0,25.694,25.694,5,5,24.501,5.14424,-28.9477,0.309097,-0.181297,0.51556,1,0,67.165,-3.29,0.14,0.360144,-0.581574,-0.40809,-0.04494,0.21084,0.41608
-10.8094,0,0,25.8094,25.8094,5,5,24.8608,5.09779,-28.7663,-0.00328609,-0.20465,0.115153,0,0,64.4175,-3.43,0.3325,0.045628,-0.61061,-0.802882,-0.04494,0.21084,0.41608
-10.9237,0,0,25.9237,25.9237,5,5,25.2167,5.04845,-28.5879,-0.00242837,-0.199011,0.112603,0,0,66.08,-6.09,1.3825,0.045628,-0.61061,-0.802882,-0.04494,0.21084,0.41608
-11.1163,0,0,26.1163,26.1163,5,5,25.8328,4.17975,-27.9341,-0.587941,-0.215316,0.349327,0,0,68.635,-4.4275,1.995,-0.55754,-0.637084,-0.564494,-0.04494,0.21084,0.41608
-11.3068,0,0,26.3068,26.3068,5,5,26.4415,3.32928,-27.2906,-0.57313,-0.205371,0.34553,0,0,72.59,-1.3825,2.6075,-0.55754,-0.637084,-0.564494,-0.04494,0.21084,0.41608
-11.352,0,0,26.352,26.352,5,5,26.5655,3.32374,-27.2871,-0.556511,-0.231769,-0.175009,1,0,72.905,-1.995,2.905,-0.540948,-0.665388,-1.08007,-0.04494,0.21084,0.41608
-11.397,0,0,26.397,26.397,5,5,26.6888,3.31702,-27.2861,-0.556394,-0.229846,-0.175966,1,0,72.625,-3.2375,1.96,-0.540948,-0.665388,-1.08007,-0.05152,0.20566,0.42434
-11.4422,0,0,26.4422,26.4422,5,5,26.8127,3.30651,-27.2875,-0.0971165,-0.633861,0.512198,1,0,73.08,-5.8275,1.75,-0.07991,-1.07092,-0.396256,-0.05152,0.20566,0.42434
-11.487,0,0,26.487,26.487,5,5,26.9351,3.29879,-27.2891,-0.096982,-0.631956,0.511241,1,0,72.1875,-4.445,0.875,-0.07991,-1.07092,-0.396256,-0.05152,0.20566,0.42434
-11.2972,0,0,26.2972,26.2972,5,5,26.2761,3.7842,-27.7375,0.238853,0.750767,0.0737914,0,0,73.9025,-3.2025,1.2425,0.265838,0.32086,-0.834968,-0.05152,0.20566,0.42434
-11.1096,0,0,26.1096,26.1096,5,5,25.6252,4.26501,-28.1879,0.230482,0.74032,0.0782204,0,0,74.935,0.3325,3.465,0.265838,0.32086,-0.834968,-0.05152,0.20566,0.42434
-11.1566,0,0,26.1566,26.1566,5,5,25.756,4.25986,-28.1827,-0.0698628,-0.299732,0.397151,1,0,76.65,-1.3825,3.71,-0.035868,-0.720166,-0.517524,-0.05152,0.20566,0.42434
-11.2007,0,0,26.2007,26.2007,5,5,25.8773,4.25054,-28.1823,-0.0697006,-0.297827,0.396243,1,0,71.505,-4.795,2.2575,-0.035868,-0.720166,-0.517524,-0.05152,0.20566,0.42434
-11.2452,0,0,26.2452,26.2452,5,5,25.9996,4.24306,-28.1826,-0.0214621,-0.243638,0.319338,1,0,72.135,-4.0075,1.4175,0.012444,-0.66795,-0.59292,-0.05152,0.20566,0.42434
-11.2898,0,0,26.2898,26.2898,5,5,26.122,4.23558,-28.183,-0.0213318,-0.241721,0.318411,1,0,72.135,-4.0075,1.4175,0.012444,-0.66795,-0.59292,-0.04508,0.1953,0.427
-11.3356,0,0,26.3356,26.3356,5,5,26.2486,4.23287,-28.1766,0.0191701,0.40179,0.0276524,1,0,74.2525,0.245,3.7275,0.05307,-0.027084,-0.880474,-0.04508,0.1953,0.427
-11.3815,0,0,26.3815,26.3815,5,5,26.3752,4.23014,-28.1702,0.0192176,0.403767,0.0266787,1,0,74.2525,0.245,3.7275,0.05307,-0.027084,-0.880474,-0.04508,0.1953,0.427
-11.4294,0,0,26.4294,26.4294,5,5,26.5083,4.22125,-28.1641,0.331955,-0.286612,0.032051,1,0,77.875,-3.0625,5.1625,0.366976,-0.718824,-0.87413,-0.04508,0.1953,0.427
-11.4773,0,0,26.4773,26.4773,5,5,26.6413,4.21234,-28.158,0.33211,-0.284536,0.0310252,1,0,77.875,-3.0625,5.1625,0.366976,-0.718824,-0.87413,-0.04508,0.1953,0.427
-11.5256,0,0,26.5256,26.5256,5,5,26.7756,4.2052,-28.1521,0.285705,0.476452,-0.220586,1,0,78.575,-2.1525,4.655,0.32025,0.039284,-1.12277,-0.04508,0.1953,0.427
-11.574,0,0,26.574,26.574,5,5,26.9099,4.19805,-28.1461,0.28583,0.478541,-0.221634,1,0,78.575,-2.1525,4.655,0.32025,0.039284,-1.12277,-0.04508,0.1953,0.427
-11.625,0,0,26.625,26.625,5,5,27.0529,4.19152,-28.1429,-0.328531,-0.534843,0.231662,1,0,83.5625,-2.5375,3.08,-0.296826,-0.975268,-0.671854,-0.04508,0.1953,0.427
-11.676,0,0,26.676,26.676,5,5,27.1958,4.18498,-28.1397,-0.328417,-0.532624,0.230535,1,0,83.5625,-2.5375,3.08,-0.296826,-0.975268,-0.671854,-0.04508,0.1953,0.427
-11.7285,0,0,26.7285,26.7285,5,5,27.3435,4.17736,-28.1385,-0.178979,0.873633,-0.156815,1,0,86.24,-3.605,2.38,-0.146888,0.427244,-1.05506,-0.04494,0.19194,0.42952
-11.7823,0,0,26.7823,26.7823,5,5,27.4951,4.17411,-28.1371,-0.302595,-0.672344,0.550771,1,0,88.4975,-1.295,1.2775,-0.271084,-1.11947,-0.351726,-0.04494,0.19194,0.42952
-11.8361,0,0,26.8361,26.8361,5,5,27.6468,4.17086,-28.1357,-0.302538,-0.670002,0.549553,1,0,88.4975,-1.295,1.2775,-0.271084,-1.11947,-0.351726,-0.04494,0.19194,0.42952
-11.8852,0,0,26.8852,26.8852,5,5,27.7829,4.15704,-28.1387,0.133593,0.0846483,-0.207912,1,0,79.9575,-7.9625,1.89,0.166652,-0.367708,-1.10227,-0.04494,0.19194,0.42952
-11.9344,0,0,26.9344,26.9344,5,5,27.919,4.14322,-28.1417,0.133834,0.0867511,-0.209004,1,0,79.9575,-7.9625,1.89,0.166652,-0.367708,-1.10227,-0.04494,0.19194,0.42952
-11.9836,0,0,26.9836,26.9836,5,5,28.0547,4.13302,-28.1455,-0.138481,0.0771195,-0.889884,1,0,79.7825,-6.3,0.525,-0.106994,-0.37942,-1.77681,-0.04494,0.19194,0.42952
-12.0327,0,0,27.0327,27.0327,5,5,28.1904,4.12283,-28.1494,-0.138304,0.0792094,-0.890986,1,0,79.7825,-6.3,0.525,-0.106994,-0.37942,-1.77681,-0.04494,0.19194,0.42952
-12.087,0,0,27.087,27.087,5,5,28.3428,4.12083,-28.1444,-0.0186055,0.907001,-0.197581,1,0,88.7425,0.3675,2.7825,0.013176,0.445178,-1.08751,-0.04494,0.19194,0.42952
-12.1412,0,0,27.1412,27.1412,5,5,28.4951,4.11883,-28.1394,-0.0185706,0.909335,-0.198841,1,0,88.7425,0.3675,2.7825,0.013176,0.445178,-1.08751,-0.0455,0.18508,0.43932
-12.1951,0,0,27.1951,27.1951,5,5,28.646,4.11024,-28.14,-0.121563,0.929355,-0.162711,1,0,88.165,-4.5675,1.7675,-0.090402,0.462868,-1.05042,-0.0455,0.18508,0.43932
-12.2471,0,0,27.2471,27.2471,5,5,28.7907,4.09779,-28.1429,0.59214,0.40032,-0.305544,1,0,84.735,-7.1925,1.6975,0.626104,-0.067832,-1.19096,-0.0455,0.18508,0.43932
-12.3057,0,0,27.3057,27.3057,5,5,28.9571,4.08825,-28.1418,0.592306,0.402862,-0.306933,1,0,96.775,-4.55,2.9575,0.626104,-0.067832,-1.19096,-0.0455,0.18508,0.43932
-12.3645,0,0,27.3645,27.3645,5,5,29.1238,4.08204,-28.1408,0.2429,0.379268,0.30026,1,0,96.95,-2.87,1.96,0.27511,-0.09394,-0.587064,-0.0455,0.18508,0.43932
-12.4248,0,0,27.4248,27.4248,5,5,29.2956,4.07505,-28.1395,0.243021,0.381883,0.298808,1,0,99.82,-3.2025,2.31,0.27511,-0.09394,-0.587064,-0.0455,0.18508,0.43932
-12.4842,0,0,27.4842,27.4842,5,5,29.464,4.06898,-28.1353,-0.0297299,-0.0284684,0.535159,1,0,97.79,-1.8725,3.5525,0.001098,-0.506422,-0.351116,-0.0455,0.18508,0.43932
-12.5423,0,0,27.5423,27.5423,5,5,29.6283,4.05796,-28.137,-0.0295381,-0.0259734,0.53376,1,0,95.7075,-6.0725,2.0125,0.001098,-0.506422,-0.351116,-0.0455,0.18508,0.43932
-12.5996,0,0,27.5996,27.5996,5,5,29.7895,4.05294,-28.1389,0.593528,1.13826,-0.579818,1,0,93.9925,-3.0975,0.1575,0.626714,0.654164,-1.45473,-0.0476,0.17346,0.44058
-12.6575,0,0,27.6575,27.6575,5,5,29.9524,4.04177,-28.1403,0.600647,0.752728,-0.286388,1,0,94.9025,-6.055,2.24,0.633668,0.26657,-1.16217,-0.0476,0.17346,0.44058
-12.7148,0,0,27.7148,27.7148,5,5,30.1135,4.03512,-28.1359,0.600763,0.75516,-0.287784,1,0,93.66,-2.0475,3.8675,0.633668,0.26657,-1.16217,-0.0476,0.17346,0.44058
-12.7751,0,0,27.7751,27.7751,5,5,30.2839,4.02058,-28.1361,0.774255,0.653926,-0.0902077,1,0,99.1025,-7.4025,3.85,0.80764,0.16287,-0.964654,-0.0476,0.17346,0.44058
-12.8353,0,0,27.8353,27.8353,5,5,30.4543,4.0117,-28.1303,0.774409,0.65649,-0.0916977,1,0,98.805,-2.765,5.1975,0.80764,0.16287,-0.964654,-0.0476,0.17346,0.44058
-12.8958,0,0,27.8958,27.8958,5,5,30.6254,4.0002,-28.1238,-1.17536,0.37121,0.0440114,1,0,99.19,-3.8675,6.335,-1.15058,-0.124684,-0.828502,-0.0476,0.17346,0.44058
-12.9549,0,0,27.9549,27.9549,5,5,30.7916,3.99924,-28.1128,-1.17534,0.3737,0.042534,1,0,96.32,2.835,5.495,-1.15058,-0.124684,-0.828502,-0.0476,0.17346,0.44058
-13.0138,0,0,28.0138,28.0138,5,5,30.9569,3.99477,-28.1052,0.528817,0.139612,0.682239,1,0,95.865,0.0525,4.83,0.560712,-0.360998,-0.192272,-0.0476,0.17346,0.44058
-13.0749,0,0,28.0749,28.0749,5,5,31.1295,3.98012,-28.1025,0.529072,0.142197,0.680704,1,0,100.223,-6.5275,5.425,0.560712,-0.360998,-0.192272,-0.04536,0.16366,0.4438
-13.055,0,0,28.055,28.055,5,5,31.032,4.02317,-28.0594,0.0231849,0.252584,-0.109515,0,0,105.105,-5.88,5.4425,0.053436,-0.249246,-0.97722,-0.04536,0.16366,0.4438
-13.0409,0,0,28.0409,28.0409,5,5,30.9541,4.0652,-28.0165,0.0224533,0.251395,-0.108861,0,0,115.045,-5.8275,5.495,0.053436,-0.249246,-0.97722,-0.04536,0.16366,0.4438
-13.1684,0,0,28.1684,28.1684,5,5,31.3479,3.24311,-27.434,-0.608074,-0.0252308,0.0788211,0,0,111.16,-2.6425,6.2825,-0.59414,-0.53192,-0.788242,-0.04536,0.16366,0.4438
-13.2899,0,0,28.2899,28.2899,5,5,31.7211,2.43934,-26.8566,-0.594063,-0.0193222,0.0760112,0,0,105.613,-0.2975,5.3375,-0.59414,-0.53192,-0.788242,-0.04536,0.16366,0.4438
-13.1847,0,0,28.1847,28.1847,5,5,31.339,3.67883,-27.5205,0.769637,0.626922,0.383052,0,0,105.21,-1.61,1.645,0.797026,0.119926,-0.486048,-0.04536,0.16366,0.4438
-13.0775,0,0,28.0775,28.0775,5,5,30.9509,4.8949,-28.1937,0.748472,0.62032,0.385188,0,0,102.848,-6.825,3.395,0.797026,0.119926,-0.486048,-0.04536,0.16366,0.4438
-13.142,0,0,28.142,28.142,5,5,31.1346,4.87784,-28.1957,-0.150954,1.00948,-0.233639,1,0,106.663,-9.1525,3.815,-0.106506,0.505934,-1.09849,-0.04536,0.16366,0.4438
-13.2133,0,0,28.2133,28.2133,5,5,31.3408,4.8656,-28.1982,-0.150742,1.01256,-0.235483,1,0,119.228,-6.86,2.1525,-0.106506,0.505934,-1.09849,-0.04158,0.15638,0.46018
-13.2857,0,0,28.2857,28.2857,5,5,31.5508,4.85637,-28.1967,1.38427,0.687035,-0.223729,1,0,121.205,-4.13,3.255,1.43484,0.177632,-1.08495,-0.04158,0.15638,0.46018
-13.3583,0,0,28.3583,28.3583,5,5,31.7608,4.84713,-28.1952,1.38443,0.690151,-0.225635,1,0,121.205,-4.13,3.255,1.43484,0.177632,-1.08495,-0.04158,0.15638,0.46018
-13.4235,0,0,28.4235,28.4235,5,5,31.9465,4.83794,-28.1944,-0.0128603,0.986249,0.176067,1,0,107.573,-4.305,2.905,0.031476,0.470676,-0.684664,-0.04158,0.15638,0.46018
-13.4889,0,0,28.4889,28.4889,5,5,32.1321,4.82876,-28.1936,-0.0127005,0.988993,0.174366,1,0,107.573,-4.305,2.905,0.031476,0.470676,-0.684664,-0.04158,0.15638,0.46018
-13.5537,0,0,28.5537,28.5537,5,5,32.316,4.81469,-28.195,0.183501,0.674424,-1.21971,1,0,106.698,-7.385,3.3775,0.228262,0.15372,-2.06631,-0.04158,0.15638,0.46018
-13.6186,0,0,28.6186,28.6186,5,5,32.4999,4.80063,-28.1964,0.183745,0.677135,-1.22141,1,0,106.698,-7.385,3.3775,0.228262,0.15372,-2.06631,-0.04158,0.15638,0.46018
-13.6948,0,0,28.6948,28.6948,5,5,32.7211,4.79532,-28.1962,0.794667,2.25997,0.240348,1,0,127.505,-2.52,1.47,0.841678,1.73167,-0.613782,-0.04158,0.15638,0.46018
-13.7706,0,0,28.7706,28.7706,5,5,32.9409,4.7903,-28.1929,-0.1419,0.249191,0.22156,1,0,126.613,-1.4175,2.87,-0.098942,-0.280234,-0.630374,-0.04732,0.14896,0.46186
-13.8423,0,0,28.8423,28.8423,5,5,33.1467,4.78006,-28.1928,-0.141722,0.2522,0.219621,1,0,118.93,-4.9525,3.0275,-0.098942,-0.280234,-0.630374,-0.04732,0.14896,0.46186
-13.9123,0,0,28.9123,28.9123,5,5,33.3465,4.77021,-28.1942,0.153903,0.644332,0.133139,1,0,115.605,-5.285,2.1175,0.197762,0.10858,-0.71431,-0.04732,0.14896,0.46186
-13.9823,0,0,28.9823,28.9823,5,5,33.5463,4.76035,-28.1958,0.154074,0.647239,0.131236,1,0,115.605,-5.285,2.1175,0.197762,0.10858,-0.71431,-0.04732,0.14896,0.46186
-14.0541,0,0,29.0541,29.0541,5,5,33.752,4.74366,-28.1982,-1.51497,1.59903,-0.290719,1,0,118.983,-8.9075,3.9025,-1.47864,1.0564,-1.13106,-0.04732,0.14896,0.46186
-14.126,0,0,29.126,29.126,5,5,33.9577,4.72698,-28.2007,-1.51468,1.60202,-0.292692,1,0,118.983,-8.9075,3.9025,-1.47864,1.0564,-1.13106,-0.04732,0.14896,0.46186
-14.2071,0,0,29.2071,29.2071,5,5,34.1939,4.71571,-28.1993,0.0592414,0.025844,-0.192073,1,0,135.905,-4.9875,4.0425,0.101748,-0.52155,-1.02895,-0.04732,0.14896,0.46186
-14.133,0,0,29.133,29.133,5,5,33.9128,4.96269,-28.3224,0.126744,0.472726,-0.0735736,0,0,130.34,-4.7425,4.06,0.17385,-0.070882,-0.91378,-0.04732,0.14896,0.46186
-14.0572,0,0,29.0572,29.0572,5,5,33.6266,5.20514,-28.4312,0.122529,0.468381,-0.0711192,0,0,123.218,-0.8575,3.5525,0.17385,-0.070882,-0.91378,-0.05068,0.14,0.46102
-14.1327,0,0,29.1327,29.1327,5,5,33.8445,5.19422,-28.4281,0.282594,-0.514755,0.195926,1,0,125.545,-4.305,4.7075,0.334402,-1.05615,-0.646722,-0.05068,0.14,0.46102
-14.2062,0,0,29.2062,29.2062,5,5,34.0554,5.1808,-28.4203,0.282828,-0.511703,0.193896,1,0,121.363,-3.955,7.8225,0.334402,-1.05615,-0.646722,-0.05068,0.14,0.46102
-14.2817,0,0,29.2817,29.2817,5,5,34.2729,5.15778,-28.4191,0.384547,0.289667,-0.437939,1,0,125.423,-10.745,7.805,0.43615,-0.258762,-1.27161,-0.05068,0.14,0.46102
-14.366,0,0,29.366,29.366,5,5,34.5191,5.14855,-28.4147,0.384707,0.293206,-0.440345,1,0,141.33,-2.975,4.865,0.43615,-0.258762,-1.27161,-0.05068,0.14,0.46102
-14.4504,0,0,29.4504,29.4504,5,5,34.7658,5.14131,-28.4086,-0.602238,-1.04739,0.667821,1,0,141.54,-1.47,4.97,-0.5551,-1.60149,-0.16958,-0.05068,0.14,0.46102
-14.5304,0,0,29.5304,29.5304,5,5,34.9974,5.13272,-28.3997,-0.602089,-1.04408,0.66553,1,0,132.913,-1.1375,6.79,-0.5551,-1.60149,-0.16958,-0.05068,0.14,0.46102
-14.6078,0,0,29.6078,29.6078,5,5,35.2202,5.1271,-28.3902,-0.0392694,-1.05495,1.12203,1,0,127.978,0.525,6.1075,0.010004,-1.61552,0.285602,-0.05068,0.14,0.46102
-14.6901,0,0,29.6901,29.6901,5,5,35.4592,5.10864,-28.3915,-0.0389485,-1.05154,1.11965,1,0,137.603,-9.2225,5.32,0.010004,-1.61552,0.285602,-0.04186,0.12656,0.46732
-14.7687,0,0,29.7687,29.7687,5,5,35.6853,5.09402,-28.3859,-2.03094,3.83613,-0.0908328,1,0,130.008,-5.0575,7.28,-1.99067,3.26387,-0.913292,-0.04186,0.12656,0.46732
-14.8612,0,0,29.8612,29.8612,5,5,35.958,5.07319,-28.3869,-2.03058,3.83999,-0.0935813,1,0,156.468,-10.22,6.3175,-1.99067,3.26387,-0.913292,-0.04186,0.12656,0.46732
-14.9543,0,0,29.9543,29.9543,5,5,36.232,5.06549,-28.3785,-0.501302,-0.355482,0.320541,1,0,156.713,-0.735,6.2825,-0.45506,-0.931104,-0.49959,-0.04186,0.12656,0.46732
-15.0412,0,0,30.0412,30.0412,5,5,36.4852,5.05383,-28.374,-0.501099,-0.351926,0.317945,1,0,145.268,-3.92,5.8275,-0.45506,-0.931104,-0.49959,-0.04186,0.12656,0.46732
-15.1214,0,0,30.1214,30.1214,5,5,36.7156,5.04498,-28.37,-1.05407,1.08507,1.60444,1,0,132.545,-2.7475,4.6375,-1.01053,0.501176,0.779336,-0.04186,0.12656,0.46732
-15.207,0,0,30.207,30.207,5,5,36.9643,5.02909,-28.3718,-1.05379,1.08854,1.60186,1,0,143.01,-8.0675,4.3925,-1.01053,0.501176,0.779336,-0.04186,0.12656,0.46732
-15.3118,0,0,30.3118,30.3118,5,5,37.2763,4.82713,-28.0179,-0.119823,0.0044118,0.0494346,0,0,140.648,-7.0875,4.97,-0.076128,-0.586332,-0.758108,-0.04186,0.12656,0.46732
-15.4167,0,0,30.4167,30.4167,5,5,37.5883,4.62173,-27.6471,-0.11625,0.00890153,0.0463698,0,0,144.9,-13.195,5.775,-0.076128,-0.586332,-0.758108,-0.0427,0.10528,0.47418
-15.5121,0,0,30.5121,30.5121,5,5,37.8684,4.60538,-27.6508,0.562411,-2.95357,-0.235933,1,0,160.738,-8.8725,3.8325,0.60512,-3.54959,-1.03529,-0.0427,0.10528,0.47418
-15.6084,0,0,30.6084,30.6084,5,5,38.1511,4.59571,-27.6484,0.562579,-2.94968,-0.238951,1,0,161.91,-3.5875,4.2525,0.60512,-3.54959,-1.03529,-0.0427,0.10528,0.47418
-15.6988,0,0,30.6988,30.6988,5,5,38.4142,4.58347,-27.6486,1.26316,4.44112,-1.49929,1,0,151.043,-5.6875,4.0075,1.30845,3.82995,-2.28311,-0.0427,0.10528,0.47418
-15.7856,0,0,30.7856,30.7856,5,5,38.6647,4.5699,-27.6525,1.26339,4.44454,-1.50199,1,0,144.13,-7.6125,2.8525,1.30845,3.82995,-2.28311,-0.0427,0.10528,0.47418
-15.8791,0,0,30.8791,30.8791,5,5,38.9374,4.55368,-27.6583,0.980978,0.57073,-3.11938,1,0,156.678,-9.5025,2.9925,1.02456,-0.043554,-3.88509,-0.0427,0.10528,0.47418
-15.9726,0,0,30.9726,30.9726,5,5,39.2101,4.53748,-27.6641,0.98126,0.574427,-3.12236,1,0,156.678,-9.5025,2.9925,1.02456,-0.043554,-3.88509,-0.0427,0.10528,0.47418
-16.0671,0,0,31.0671,31.0671,5,5,39.4854,4.51614,-27.668,1.62793,-0.629439,0.356408,1,0,158.06,-11.095,5.8275,1.6736,-1.24989,-0.430172,-0.0427,0.10528,0.47418
-16.1616,0,0,31.1616,31.1616,5,5,39.7607,4.49481,-27.672,1.62831,-0.62573,0.353376,1,0,158.06,-11.095,5.8275,1.6736,-1.24989,-0.430172,-0.04592,0.10108,0.47768
-16.2619,0,0,31.2619,31.2619,5,5,40.0549,4.48299,-27.6769,1.99345,-0.513223,0.402112,1,0,168.683,-7.1225,1.925,2.04008,-1.14143,-0.378566,-0.04592,0.10108,0.47768
-16.3622,0,0,31.3622,31.3622,5,5,40.3491,4.4712,-27.6819,1.99366,-0.509303,0.39882,1,0,168.683,-7.1225,1.925,2.04008,-1.14143,-0.378566,-0.04592,0.10108,0.47768
-16.4591,0,0,31.4591,31.4591,5,5,40.6315,4.45306,-27.6809,2.25456,-3.26635,2.05312,1,0,161.84,-7.7,6.9825,2.30177,-3.89936,1.26612,-0.04592,0.10108,0.47768
-16.5562,0,0,31.5562,31.5562,5,5,40.914,4.43491,-27.6801,2.25488,-3.26261,2.04993,1,0,161.84,-7.7,6.9825,2.30177,-3.89936,1.26612,-0.04592,0.10108,0.47768
-16.6509,0,0,31.6509,31.6509,5,5,41.1888,4.41349,-27.6803,-0.741923,-0.236835,2.06254,1,0,157.605,-9.5375,7.7875,-0.708088,-0.880352,1.28173,-0.04592,0.10108,0.47768
-16.7458,0,0,31.7458,31.7458,5,5,41.4636,4.39207,-27.6807,-0.74155,-0.233225,2.05941,1,0,157.605,-9.5375,7.7875,-0.708088,-0.880352,1.28173,-0.04592,0.10108,0.47768
-16.8511,0,0,31.8511,31.8511,5,5,41.7727,4.37571,-27.6828,-1.03222,-0.836281,1.88864,1,0,176.925,-7.9625,5.11,-1.00028,-1.48681,1.11581,-0.04592,0.10108,0.47768
-16.9564,0,0,31.9564,31.9564,5,5,42.0818,4.35936,-27.685,-1.03194,-0.832265,1.88506,1,0,176.925,-7.9625,5.11,-1.00028,-1.48681,1.11581,-0.04326,0.08624,0.49434
-17.0518,0,0,32.0518,32.0518,5,5,42.3573,4.34075,-27.6887,-0.661691,2.28908,-0.571578,1,0,158.165,-9.52,5.3725,-0.628788,1.62772,-1.3187,-0.04326,0.08624,0.49434
-17.1593,0,0,32.1593,32.1593,5,5,42.673,4.32537,-27.6831,-0.657657,3.07524,-2.84454,1,0,180.285,-4.41,8.155,-0.625006,2.40901,-3.57045,-0.04326,0.08624,0.49434
-17.2612,0,0,32.2612,32.2612,5,5,42.9697,4.30778,-27.6814,-0.657351,3.07904,-2.84803,1,0,169.785,-6.86,7.385,-0.625006,2.40901,-3.57045,-0.04326,0.08624,0.49434
-17.3748,0,0,32.3748,32.3748,5,5,43.305,4.28331,-27.6783,1.60222,0.548827,-0.462,1,0,191.398,-9.205,10.7625,1.64371,-0.122854,-1.19889,-0.04326,0.08624,0.49434
-17.4846,0,0,32.4846,32.4846,5,5,43.6273,4.26767,-27.6798,1.60249,0.552912,-0.465844,1,0,184.275,-7.2275,5.3375,1.64371,-0.122854,-1.19889,-0.04326,0.08624,0.49434
-17.5905,0,0,32.5905,32.5905,5,5,43.9364,4.25812,-27.6798,1.61663,4.56305,-2.91131,1,0,176.838,-4.0075,3.5525,1.65774,3.87923,-3.62181,-0.04326,0.08624,0.49434
-17.689,0,0,32.689,32.689,5,5,44.2204,4.23197,-27.679,1.61709,4.56663,-2.91473,1,0,162.75,-10.675,10.6225,1.65774,3.87923,-3.62181,-0.04326,0.08624,0.49434
-17.802,0,0,32.802,32.802,5,5,44.5526,4.21227,-27.6727,-1.55553,-2.88567,-1.46219,1,0,189.525,-5.67,10.325,-1.52866,-3.56948,-2.17648,-0.04326,0.08624,0.49434
-17.9088,0,0,32.9088,32.9088,5,5,44.8638,4.19334,-27.6758,-1.5552,-2.88181,-1.46598,1,0,178.08,-9.1175,6.195,-1.52866,-3.56948,-2.17648,-0.04214,0.06034,0.49616
-18.0209,0,0,33.0209,33.0209,5,5,45.1921,4.17071,-27.6778,0.859718,-2.88495,-1.01903,1,0,187.723,-10.1675,8.2075,0.89609,-3.57667,-1.72898,-0.04214,0.06034,0.49616
-18.141,0,0,33.141,33.141,5,5,45.5471,4.15228,-27.6789,0.860039,-2.88059,-1.02341,1,0,202.58,-8.015,6.895,0.89609,-3.57667,-1.72898,-0.04214,0.06034,0.49616
-18.2584,0,0,33.2584,33.2584,5,5,45.8924,4.13234,-27.6877,1.88269,1.02056,-0.532333,1,0,197.47,-11.8475,4.41,1.92272,0.316224,-1.23745,-0.04214,0.06034,0.49616
-18.3637,0,0,33.3637,33.3637,5,5,46.1973,4.11208,-27.6877,1.88304,1.02426,-0.536137,1,0,174.493,-8.2075,8.2075,1.92272,0.316224,-1.23745,-0.04214,0.06034,0.49616
-18.4785,0,0,33.4785,33.4785,5,5,46.5335,4.08335,-27.6936,1.44486,-3.22473,2.5759,1,0,192.238,-14.0875,9.45,1.48218,-3.93243,1.85477,-0.04214,0.06034,0.49616
-18.5921,0,0,33.5921,33.5921,5,5,46.8652,4.06724,-27.6957,1.44514,-3.22076,2.57172,1,0,189.613,-7.35,5.6875,1.48218,-3.93243,1.85477,-0.04214,0.06034,0.49616
