pid_x,pid_y,pid_z,front_left_speed,front_right_speed,back_left_speed,back_right_speed,orientation_x,orientation_y,orientation_z,acceleration_x,acceleration_y,acceleration_z,accel_rejected,mag_rejected,gyro_x,gyro_y,gyro_z,accel_x,accel_y,accel_z,mag_x,mag_y,mag_z
-0.202752,0,0,15.2028,15.2028,14.7972,14.7972,0.50686,-0.0609702,-0.269639,0.0401049,-0.436739,0.0971515,0,0,3.43,0.28,-0.4025,-0.001098,-0.432978,-0.91622,-0.05656,0.26222,0.32746
-0.400557,0,0,15.4006,15.4006,14.5994,14.5994,1.00134,-0.116831,-0.538459,0.0413228,-0.426278,0.093348,0,0,3.36,0.315,-0.525,-0.000854,-0.431148,-0.91988,-0.05656,0.26222,0.32746
-0.596973,0,0,15.597,15.597,14.403,14.403,1.49232,-0.166459,-0.807684,0.0443758,-0.419054,0.101274,0,0,3.5525,0.4375,-0.4725,0.001342,-0.43249,-0.911828,-0.05656,0.26222,0.32746
-0.789849,0,0,15.7898,15.7898,14.2102,14.2102,1.97444,-0.212252,-1.0753,0.045175,-0.410644,0.101017,0,0,3.4125,0.4725,-0.525,0.001342,-0.43249,-0.911828,-0.05656,0.26222,0.32746
-0.97757,0,0,15.9776,15.9776,14.0224,14.0224,2.44365,-0.259007,-1.33715,0.0423464,-0.402216,0.0917225,0,0,3.395,0.245,-0.4375,-0.002318,-0.432246,-0.920734,-0.05656,0.26222,0.32746
-1.16133,0,0,16.1613,16.1613,13.8387,13.8387,2.90293,-0.303131,-1.59645,0.0422661,-0.39311,0.0902384,0,0,3.395,0.1575,-0.42,-0.003172,-0.431148,-0.921832,-0.05656,0.26222,0.32746
-1.34195,0,0,16.342,16.342,13.658,13.658,3.35437,-0.346844,-1.8619,0.0430291,-0.385243,0.089804,0,0,3.5875,0.2625,-0.56,-0.003172,-0.431148,-0.921832,-0.05684,0.26544,0.32368
-1.52103,0,0,16.521,16.521,13.479,13.479,3.80192,-0.385593,-2.12724,0.0457706,-0.37928,0.0954597,0,0,3.4475,-0.0175,-0.5075,-0.001098,-0.432978,-0.915732,-0.05684,0.26544,0.32368
-1.6976,0,0,16.6976,16.6976,13.3024,13.3024,4.24318,-0.419141,-2.39234,0.0482999,-0.373063,0.0967595,0,0,3.2725,-0.1925,-0.455,0.000854,-0.434442,-0.913902,-0.05684,0.26544,0.32368
-1.86923,0,0,16.8692,16.8692,13.1308,13.1308,4.6721,-0.450543,-2.65429,0.0475116,-0.364501,0.0890426,0,0,3.29,-0.14,-0.5075,-0.000488,-0.433344,-0.920978,-0.05684,0.26544,0.32368
-2.03778,0,0,17.0378,17.0378,12.9622,12.9622,5.09326,-0.478889,-2.91422,0.0480063,-0.357178,0.0884129,0,0,3.29,-0.14,-0.5075,-0.000488,-0.433344,-0.920978,-0.05684,0.26544,0.32368
-2.2034,0,0,17.2034,17.2034,12.7966,12.7966,5.5071,-0.505767,-3.1701,0.0468961,-0.348521,0.0906925,0,0,3.57,0.1575,-0.35,-0.002074,-0.43188,-0.91805,-0.05684,0.26544,0.32368
-2.36752,0,0,17.3675,17.3675,12.6325,12.6325,5.9172,-0.523009,-3.42933,0.0527854,-0.344086,0.0931741,0,0,3.57,0.14,-0.35,0.003538,-0.434564,-0.914878,-0.05684,0.26544,0.32368
-2.52849,0,0,17.5285,17.5285,12.4715,12.4715,6.31937,-0.537755,-3.68624,0.0530427,-0.337108,0.0924237,0,0,3.36,0.0875,-0.2975,0.003538,-0.434564,-0.914878,-0.05684,0.26544,0.32368
-2.688,0,0,17.688,17.688,12.312,12.312,6.71789,-0.566132,-3.94456,0.0495289,-0.330442,0.0987603,0,0,3.325,-4.3575,-0.2975,-0.000488,-0.434808,-0.907802,-0.05936,0.2709,0.3276
-2.84211,0,0,17.8421,17.8421,12.1579,12.1579,7.10291,-0.579124,-4.20327,0.0525498,-0.322184,0.0895891,0,0,3.115,0.1925,-0.385,0.002318,-0.433222,-0.916098,-0.05936,0.2709,0.3276
-2.99437,0,0,17.9944,17.9944,12.0056,12.0056,7.48328,-0.588509,-4.46114,0.0539285,-0.314867,0.095261,0,0,3.22,-0.0175,-0.56,0.003538,-0.43249,-0.909632,-0.05936,0.2709,0.3276
-3.14272,0,0,18.1427,18.1427,11.8573,11.8573,7.85386,-0.59739,-4.71519,0.0526257,-0.30919,0.0875113,0,0,3.1675,0.0175,-0.6125,0.002074,-0.433222,-0.916464,-0.05936,0.2709,0.3276
-3.28831,0,0,18.2883,18.2883,11.7117,11.7117,8.21753,-0.604468,-4.96653,0.0527492,-0.302906,0.0866228,0,0,3.2025,-0.1925,-0.4025,0.002074,-0.433222,-0.916464,-0.05936,0.2709,0.3276
-3.4314,0,0,18.4314,18.4314,11.5686,11.5686,8.57492,-0.612298,-5.21315,0.0508206,-0.295881,0.0887843,0,0,3.15,-0.175,-0.315,0,-0.432368,-0.913414,-0.05936,0.2709,0.3276
-3.56892,0,0,18.5689,18.5689,11.4311,11.4311,8.91839,-0.621638,-5.45443,0.0474605,-0.286903,0.0788958,0,0,3.185,-0.105,-0.2975,-0.003538,-0.429318,-0.92232,-0.05936,0.2709,0.3276
-3.70376,0,0,18.7038,18.7038,11.2962,11.2962,9.25515,-0.62712,-5.68735,0.0475562,-0.2811,0.0779666,0,0,3.2025,-0.07,-0.455,-0.003538,-0.429318,-0.92232,-0.0539,0.26698,0.33082
-3.83626,0,0,18.8363,18.8363,11.1637,11.1637,9.58604,-0.62962,-5.91898,0.0484502,-0.276991,0.0746849,0,0,3.3075,0,-0.6125,-0.002684,-0.430904,-0.924638,-0.0539,0.26698,0.33082
-3.96884,0,0,18.9688,18.9688,11.0312,11.0312,9.91711,-0.631334,-6.14751,0.0483586,-0.273861,0.0818205,0,0,3.36,0.1575,-0.63,-0.002806,-0.433466,-0.916586,-0.0539,0.26698,0.33082
-4.09884,0,0,19.0988,19.0988,10.9012,10.9012,10.2417,-0.631172,-6.37363,0.0483558,-0.268283,0.080829,0,0,3.3075,0.2625,-0.5425,-0.002806,-0.433466,-0.916586,-0.0539,0.26698,0.33082
-4.22583,0,0,19.2258,19.2258,10.7742,10.7742,10.5588,-0.623653,-6.60164,0.0521121,-0.262962,0.0778643,0,0,3.185,0.2975,-0.63,0.001098,-0.433588,-0.918538,-0.0539,0.26698,0.33082
-4.352,0,0,19.352,19.352,10.648,10.648,10.8738,-0.62041,-6.82326,0.0486539,-0.259392,0.0810229,0,0,3.2025,0.2275,-0.56,-0.002318,-0.435418,-0.91439,-0.0539,0.26698,0.33082
-4.47591,0,0,19.4759,19.4759,10.5241,10.5241,11.1832,-0.615921,-7.0424,0.0485756,-0.254093,0.0799909,0,0,3.4475,0.105,-0.4025,-0.002318,-0.435418,-0.91439,-0.0539,0.26698,0.33082
-4.59597,0,0,19.596,19.596,10.404,10.404,11.4829,-0.61625,-7.2677,0.0500391,-0.246522,0.0757663,0,0,3.6225,-4.48,-0.2975,-0.000854,-0.432978,-0.917562,-0.05166,0.26712,0.3234
-4.71248,0,0,19.7125,19.7125,10.2875,10.2875,11.7737,-0.610633,-7.48708,0.0475114,-0.241794,0.0678591,0,0,3.6225,0.0175,-0.3675,-0.003294,-0.433222,-0.924394,-0.05166,0.26712,0.3234
-4.82898,0,0,19.829,19.829,10.171,10.171,12.0645,-0.596015,-7.70951,0.0529661,-0.23695,0.0787395,0,0,3.6225,0.07,-0.4025,0.00244,-0.433344,-0.91256,-0.05166,0.26712,0.3234
-4.94324,0,0,19.9432,19.9432,10.0568,10.0568,12.3497,-0.580304,-7.92962,0.0526919,-0.232084,0.0776898,0,0,3.6225,0.07,-0.4025,0.00244,-0.433344,-0.91256,-0.05166,0.26712,0.3234
-5.05559,0,0,20.0556,20.0556,9.94441,9.94441,12.6301,-0.550977,-8.15632,0.0617774,-0.232923,0.0687678,0,0,3.465,-0.14,-0.385,0.012078,-0.438956,-0.920368,-0.05166,0.26712,0.3234
-5.1657,0,0,20.1657,20.1657,9.8343,9.8343,12.9049,-0.51723,-8.38292,0.0631323,-0.222505,0.0796392,0,0,3.395,-0.14,-0.28,0.01403,-0.433222,-0.908534,-0.05166,0.26712,0.3234
-5.27376,0,0,20.2738,20.2738,9.72624,9.72624,13.1746,-0.482491,-8.60702,0.062526,-0.217919,0.0785825,0,0,3.5175,0.14,-0.3675,0.01403,-0.433222,-0.908534,-0.05166,0.26712,0.3234
-5.33417,0,0,20.3342,20.3342,9.66583,9.66583,13.3251,-0.3202,-8.91073,0.131127,-0.132922,0.0275909,0,0,3.64,0.1925,-0.5075,0.085766,-0.350872,-0.958554,-0.05628,0.27006,0.3388
-5.47227,0,0,20.4723,20.4723,9.52773,9.52773,13.6698,-0.42312,-9.03047,-0.0146817,-0.208777,0.215024,0,0,3.535,-0.2275,-0.8225,-0.062464,-0.43249,-0.771162,-0.05628,0.27006,0.3388
-5.47238,0,0,20.4724,20.4724,9.52762,9.52762,13.6696,-0.423684,-9.03175,0.296453,-0.522036,0.184042,1,0,3.325,-0.4375,-1.0675,0.249978,-0.74542,-0.801906,-0.05628,0.27006,0.3388
-5.47229,0,0,20.4723,20.4723,9.52771,9.52771,13.6689,-0.42388,-9.03225,0.296456,-0.522049,0.184045,1,0,3.045,-0.1225,-0.6825,0.249978,-0.74542,-0.801906,-0.05628,0.27006,0.3388
-5.47228,0,0,20.4723,20.4723,9.52772,9.52772,13.6683,-0.423878,-9.03206,0.166224,-0.704637,0.173843,1,0,3.1675,0.0875,-0.315,0.119194,-0.92781,-0.812032,-0.05628,0.27006,0.3388
-5.3607,0,0,20.3607,20.3607,9.6393,9.6393,13.3889,-1.35722,-8.51686,-0.610669,0.324732,0.288956,0,0,2.6775,0.5425,-0.14,-0.677344,0.105286,-0.698694,-0.05628,0.27006,0.3388
-5.24976,0,0,20.2498,20.2498,9.75024,9.75024,13.111,-2.27588,-7.99465,-0.594643,0.319898,0.289572,0,0,2.5725,0.42,0.2275,-0.677344,0.105286,-0.698694,-0.05628,0.27006,0.3388
-5.31615,0,0,20.3161,20.3161,9.68385,9.68385,13.2765,-2.33946,-8.11896,-0.0264393,-0.170573,-0.0498528,0,0,2.8175,-0.105,0.4725,-0.107848,-0.387472,-1.0348,-0.05628,0.27006,0.3388
-5.38183,0,0,20.3818,20.3818,9.61817,9.61817,13.4402,-2.40224,-8.24656,-0.0253445,-0.167806,-0.0505565,0,0,3.6575,-0.6475,0.63,-0.107848,-0.387472,-1.0348,-0.05684,0.27286,0.34062
-5.48767,0,0,20.4877,20.4877,9.51233,9.51233,13.7043,-1.59463,-8.93816,0.957845,-0.502725,-0.243451,0,0,5.0225,-0.07,0.455,0.89365,-0.726632,-1.22561,-0.05684,0.27286,0.34062
-5.53443,0,0,20.5344,20.5344,9.46557,9.46557,13.8207,-2.33071,-8.58789,-0.503788,-0.0605913,0.0911651,0,0,4.6025,-0.1925,0.385,-0.587064,-0.286822,-0.892674,-0.05684,0.27286,0.34062
-5.5797,0,0,20.5797,20.5797,9.4203,9.4203,13.9333,-3.04962,-8.24117,-0.491254,-0.058826,0.0901224,0,0,4.6025,-0.1925,0.385,-0.587064,-0.286822,-0.892674,-0.05684,0.27286,0.34062
-5.72452,0,0,20.7245,20.7245,9.27548,9.27548,14.2948,-3.79194,-7.87773,-0.2803,-0.0874685,0.467625,0,0,3.815,-0.3675,0.3325,-0.388204,-0.321348,-0.515816,-0.05684,0.27286,0.34062
-5.72417,0,0,20.7242,20.7242,9.27583,9.27583,14.2934,-3.79124,-7.87667,1.15516,-0.778607,-0.265879,1,0,2.7125,0.6125,0.07,1.05335,-1.01175,-1.24367,-0.05684,0.27286,0.34062
-5.72436,0,0,20.7244,20.7244,9.27564,9.27564,14.2934,-3.79044,-7.87438,1.15515,-0.778608,-0.265878,1,0,3.5175,0.84,0.7525,1.05335,-1.01175,-1.24367,-0.05684,0.27286,0.34062
-5.67218,0,0,20.6722,20.6722,9.32782,9.32782,14.1624,-4.02841,-7.85168,-0.192236,0.114178,-0.0880543,0,0,4.235,-0.21,0.07,-0.303902,-0.117608,-1.0675,-0.0574,0.28238,0.34986
-5.76782,0,0,20.7678,20.7678,9.23218,9.23218,14.4009,-3.326,-8.47109,0.515576,-0.20426,0.153645,0,0,4.97,-0.245,-0.4025,0.419192,-0.439932,-0.827404,-0.0574,0.28238,0.34986
-5.78126,0,0,20.7813,20.7813,9.21874,9.21874,14.434,-2.90065,-8.91044,0.362866,-0.127517,-0.274829,0,0,5.1275,0.3675,-0.315,0.27328,-0.363926,-1.25282,-0.0574,0.28238,0.34986
-5.78253,0,0,20.7825,20.7825,9.21747,9.21747,14.4366,-2.90132,-8.91088,0.362878,-0.127472,-0.274841,1,0,4.935,-0.385,-0.5775,0.27328,-0.363926,-1.25282,-0.0574,0.28238,0.34986
-5.78327,0,0,20.7833,20.7833,9.21673,9.21673,14.438,-2.90305,-8.91284,-0.593184,-0.265331,0.214118,1,0,4.1475,-1.2075,-1.2775,-0.68686,-0.501664,-0.767624,-0.0574,0.28238,0.34986
-5.97444,0,0,20.9744,20.9744,9.02556,9.02556,14.9153,-2.76428,-9.17163,0.149226,-0.326253,0.260813,0,0,2.975,-0.98,-1.4,0.061122,-0.570594,-0.719312,-0.0574,0.28238,0.34986
-6.16058,0,0,21.1606,21.1606,8.83942,8.83942,15.3801,-2.62382,-9.42416,0.146777,-0.318402,0.258807,0,0,0.805,0.8925,-0.9625,0.061122,-0.570594,-0.719312,-0.0574,0.28238,0.34986
-6.38509,0,0,21.3851,21.3851,8.61491,8.61491,15.9408,-2.69626,-9.54041,0.0320208,-0.425148,0.253038,0,0,1.75,1.5225,-1.4175,-0.055388,-0.686616,-0.722362,-0.05474,0.28714,0.35462
-6.3798,0,0,21.3798,21.3798,8.6202,8.6202,15.9269,-2.54773,-9.80143,0.0943047,0.00319606,-5.56958e-05,0,0,1.645,0.665,-1.47,0.00976,-0.258518,-0.973682,-0.05474,0.28714,0.35462
-6.37947,0,0,21.3795,21.3795,8.62053,8.62053,15.9255,-2.54622,-9.80287,0.041675,-0.267338,-0.0586941,1,0,2.625,0.6825,-1.47,-0.043066,-0.528748,-1.03188,-0.05474,0.28714,0.35462
-6.38012,0,0,21.3801,21.3801,8.61988,8.61988,15.9265,-2.54522,-9.80435,0.0416575,-0.267321,-0.0586983,1,0,4.0075,0.385,-1.4175,-0.043066,-0.528748,-1.03188,-0.05474,0.28714,0.35462
-6.38179,0,0,21.3818,21.3818,8.61821,8.61821,15.9301,-2.54616,-9.80546,0.20325,-0.0885897,-0.112322,1,0,5.4425,-0.6475,-0.8925,0.119194,-0.350262,-1.08507,-0.05474,0.28714,0.35462
-6.38305,0,0,21.3831,21.3831,8.61695,8.61695,15.9327,-2.54834,-9.80623,0.0986888,-0.0461692,0.198232,1,0,4.8825,-1.295,-0.5075,0.014152,-0.307928,-0.776896,-0.05474,0.28714,0.35462
-6.38427,0,0,21.3843,21.3843,8.61573,8.61573,15.9351,-2.55148,-9.80715,0.0987434,-0.0461289,0.198218,1,0,4.8125,-1.855,-0.4375,0.014152,-0.307928,-0.776896,-0.05474,0.28714,0.35462
-6.38484,0,0,21.3848,21.3848,8.61516,8.61516,15.936,-2.55349,-9.80775,0.0669493,-0.459392,-0.0787902,1,0,3.92,-1.1725,-0.4375,-0.017812,-0.720776,-1.05176,-0.05474,0.28714,0.35462
-6.3854,0,0,21.3854,21.3854,8.6146,8.6146,15.9368,-2.55191,-9.80679,0.0669218,-0.459378,-0.0787928,1,0,3.9375,1.1025,-0.14,-0.017812,-0.720776,-1.05176,-0.05488,0.28812,0.35448
-6.38675,0,0,21.3868,21.3868,8.61325,8.61325,15.9395,-2.1405,-10.2349,0.264208,-0.00762649,0.0556133,0,0,1.4525,1.1375,-0.0175,0.187514,-0.26962,-0.91866,-0.05488,0.28812,0.35448
-6.38553,0,0,21.3855,21.3855,8.61447,8.61447,15.9359,-2.13928,-10.2339,0.13116,-0.203945,-0.19211,1,0,1.435,0.91,-0.0525,0.053924,-0.465674,-1.16449,-0.05488,0.28812,0.35448
-6.38438,0,0,21.3844,21.3844,8.61562,8.61562,15.9324,-2.14033,-10.2338,0.445583,-0.379622,0.0813438,1,0,1.5225,-0.5075,-0.175,0.36966,-0.64111,-0.893162,-0.05488,0.28812,0.35448
-6.38487,0,0,21.3849,21.3849,8.61513,8.61513,15.933,-2.14118,-10.2333,0.445598,-0.379611,0.0813402,1,0,3.8325,-0.35,-0.035,0.36966,-0.64111,-0.893162,-0.05488,0.28812,0.35448
-6.38623,0,0,21.3862,21.3862,8.61377,8.61377,15.9358,-2.1409,-10.2321,1.51649,-0.841936,-0.333255,1,0,5.0575,0.42,0.2275,1.44509,-1.103,-1.30455,-0.05488,0.28812,0.35448
-6.38969,0,0,21.3897,21.3897,8.61031,8.61031,15.9439,-2.14327,-10.2322,1.51653,-0.841802,-0.333295,1,0,7.98,-1.295,-0.105,1.44509,-1.103,-1.30455,-0.05488,0.28812,0.35448
-6.39265,0,0,21.3927,21.3927,8.60735,8.60735,15.9507,-2.14452,-10.233,0.0513134,-0.117232,-0.105751,1,0,7.2625,-0.77,-0.665,-0.026352,-0.379298,-1.07872,-0.05334,0.29932,0.37016
-6.33554,0,0,21.3355,21.3355,8.66446,8.66446,15.8073,-2.17905,-10.387,-0.0489175,0.114962,-0.0840647,0,0,4.3225,0.21,-0.91,-0.127612,-0.144936,-1.05786,-0.05334,0.29932,0.37016
-6.33577,0,0,21.3358,21.3358,8.66423,8.66423,15.8073,-2.1776,-10.3878,0.0735148,-0.143825,-0.237257,1,0,3.43,0.7525,-1.085,-0.004636,-0.403454,-1.20987,-0.05334,0.29932,0.37016
-6.33599,0,0,21.336,21.336,8.66401,8.66401,15.8073,-2.17615,-10.3886,0.0734896,-0.143825,-0.237256,1,0,3.43,0.7525,-1.085,-0.004636,-0.403454,-1.20987,-0.05334,0.29932,0.37016
-6.3342,0,0,21.3342,21.3342,8.6658,8.6658,15.8022,-2.18304,-10.3909,0.497352,-0.512367,-0.173303,1,0,0.5775,-4.2,-0.6475,0.4209,-0.771528,-1.14643,-0.05334,0.29932,0.37016
-6.33242,0,0,21.3324,21.3324,8.66758,8.66758,15.7972,-2.18994,-10.3933,0.497472,-0.512454,-0.173284,1,0,0.5775,-4.2,-0.6475,0.4209,-0.771528,-1.14643,-0.05334,0.29932,0.37016
-6.33182,0,0,21.3318,21.3318,8.66818,8.66818,15.7951,-2.18826,-10.3941,0.241473,-0.248084,0.381963,1,0,2.275,0.875,-1.1375,0.163846,-0.507398,-0.595482,-0.05334,0.29932,0.37016
-6.33122,0,0,21.3312,21.3312,8.66878,8.66878,15.793,-2.18659,-10.3949,0.241443,-0.248119,0.381974,1,0,2.275,0.875,-1.1375,0.163846,-0.507398,-0.595482,-0.05334,0.29932,0.37016
-6.33184,0,0,21.3318,21.3318,8.66816,8.66816,15.7939,-2.18897,-10.3964,-0.0192234,-0.0391442,0.598111,1,0,3.9725,-1.5225,-0.8925,-0.097966,-0.298656,-0.381006,-0.05614,0.29848,0.36946
-6.26535,0,0,21.2653,21.2653,8.73465,8.73465,15.6271,-1.69322,-10.8882,0.307916,0.131432,0.00202014,0,0,5.8625,-0.455,-0.9625,0.239242,-0.125538,-0.97356,-0.05614,0.29848,0.36946
-6.19988,0,0,21.1999,21.1999,8.80012,8.80012,15.4629,-1.21043,-11.3787,0.299492,0.128728,0.0029938,0,0,5.8625,-0.455,-0.9625,0.239242,-0.125538,-0.97356,-0.05614,0.29848,0.36946
-6.2026,0,0,21.2026,21.2026,8.7974,8.7974,15.4691,-1.20903,-11.379,0.17045,-0.0074605,-0.188834,1,0,6.9475,0.805,-0.805,0.109678,-0.26169,-1.16388,-0.05614,0.29848,0.36946
-6.20532,0,0,21.2053,21.2053,8.79468,8.79468,15.4753,-1.20762,-11.3793,0.170425,-0.00735581,-0.188863,1,0,6.9475,0.805,-0.805,0.109678,-0.26169,-1.16388,-0.05614,0.29848,0.36946
-6.206,0,0,21.206,21.206,8.794,8.794,15.4764,-1.20647,-11.3783,-0.136225,-0.271375,-0.241981,1,0,4.1125,0.875,-0.0175,-0.19825,-0.525454,-1.21658,-0.05614,0.29848,0.36946
-6.20669,0,0,21.2067,21.2067,8.79331,8.79331,15.4776,-1.20531,-11.3772,-0.136245,-0.271356,-0.241986,1,0,4.1125,0.875,-0.0175,-0.19825,-0.525454,-1.21658,-0.05614,0.29848,0.36946
-6.31172,0,0,21.3117,21.3117,8.68828,8.68828,15.7395,-1.08784,-11.6319,0.11233,-0.182552,0.15825,0,0,0.28,0.875,0.3325,0.053436,-0.441152,-0.818254,-0.05614,0.29848,0.36946
-6.4149,0,0,21.4149,21.4149,8.5851,8.5851,15.9969,-0.973743,-11.8886,0.110339,-0.178222,0.157057,0,0,0.28,0.875,0.3325,0.053436,-0.441152,-0.818254,-0.0539,0.30128,0.37072
-6.71367,0,0,21.7137,21.7137,8.28633,8.28633,16.7432,-0.375262,-12.3632,0.545625,-0.543307,0.648986,0,0,0.385,-0.7,0.1225,0.501054,-0.818376,-0.326594,-0.0539,0.30128,0.37072
-6.71411,0,0,21.7141,21.7141,8.28589,8.28589,16.7437,-0.377981,-12.3626,-0.0811933,0.0689218,0.138624,1,0,3.7275,-1.365,0.3675,-0.128466,-0.20679,-0.833016,-0.0539,0.30128,0.37072
-6.71527,0,0,21.7153,21.7153,8.28473,8.28473,16.7459,-0.378589,-12.3613,-0.0811827,0.0689597,0.138613,1,0,4.7425,-0.0525,0.4375,-0.128466,-0.20679,-0.833016,-0.0539,0.30128,0.37072
-6.8295,0,0,21.8295,21.8295,8.1705,8.1705,17.0309,-0.962096,-12.1588,-0.362322,-0.203422,0.0953748,0,0,7.6475,0.9625,0.595,-0.421022,-0.483608,-0.874374,-0.0539,0.30128,0.37072
-6.94139,0,0,21.9414,21.9414,8.05861,8.05861,17.31,-1.52881,-11.9625,-0.352433,-0.198833,0.0937318,0,0,8.1725,1.4525,-0.105,-0.421022,-0.483608,-0.874374,-0.0539,0.30128,0.37072
-6.94338,0,0,21.9434,21.9434,8.05662,8.05662,17.3143,-1.52779,-11.962,-0.0678102,-0.205966,-0.439272,1,0,5.8975,0.7175,-0.3325,-0.135176,-0.490806,-1.40324,-0.0539,0.30128,0.37072
-6.94481,0,0,21.9448,21.9448,8.05519,8.05519,17.3172,-1.52602,-11.9615,-0.067841,-0.205918,-0.439286,1,0,5.11,1.12,-0.49,-0.135176,-0.490806,-1.40324,-0.0539,0.30128,0.37072
-6.94514,0,0,21.9451,21.9451,8.05486,8.05486,17.3174,-1.52402,-11.9605,-0.154374,-0.117617,-0.0608509,1,0,3.5875,1.365,-0.175,-0.22204,-0.4026,-1.02773,-0.05404,0.30688,0.3731
-7.06029,0,0,22.0603,22.0603,7.93971,7.93971,17.6046,-1.53708,-12.13,0.0370725,-0.201625,0.145669,0,0,2.3275,0.14,-0.3325,-0.030012,-0.491294,-0.821304,-0.05404,0.30688,0.3731
-7.17323,0,0,22.1732,22.1732,7.82677,7.82677,17.8863,-1.55004,-12.2991,0.0372987,-0.196946,0.144165,0,0,2.345,-1.1375,-0.7875,-0.030012,-0.491294,-0.821304,-0.05404,0.30688,0.3731
-7.17204,0,0,22.172,22.172,7.82796,7.82796,17.8826,-1.55256,-12.3006,0.294406,0.0562843,0.203444,1,0,1.4,-1.6275,-0.84,0.22814,-0.238266,-0.7625,-0.05404,0.30688,0.3731
-7.17134,0,0,22.1713,22.1713,7.82866,7.82866,17.8802,-1.55388,-12.3022,0.294429,0.0562439,0.203457,1,0,2.0825,-0.9625,-1.0675,0.22814,-0.238266,-0.7625,-0.05404,0.30688,0.3731
-7.16637,0,0,22.1664,22.1664,7.83363,7.83363,17.8671,-2.0172,-12.1823,-0.295319,0.0570482,0.0681668,0,0,2.8875,-0.315,-1.1025,-0.372222,-0.237168,-0.896578,-0.05404,0.30688,0.3731
-7.16209,0,0,22.1621,22.1621,7.83791,7.83791,17.8558,-2.46861,-12.0626,-0.287447,0.0567651,0.0679341,0,0,4.2175,0.0175,-1.0325,-0.372222,-0.237168,-0.896578,-0.05404,0.30688,0.3731
-7.16372,0,0,22.1637,22.1637,7.83628,7.83628,17.8591,-2.46912,-12.0638,-0.174942,-0.126125,-0.156465,1,0,5.3375,-0.4375,-0.9975,-0.25925,-0.419924,-1.11923,-0.05404,0.30688,0.3731
-7.16618,0,0,22.1662,22.1662,7.83382,7.83382,17.8646,-2.46911,-12.0649,-0.174942,-0.126034,-0.156495,1,0,6.51,-0.14,-1.05,-0.25925,-0.419924,-1.11923,-0.0525,0.29904,0.36834
-7.16804,0,0,22.168,22.168,7.83196,7.83196,17.8686,-2.46811,-12.0653,-0.179941,0.305629,0.0867998,1,0,5.6875,0.56,-0.7875,-0.264252,0.011224,-0.87779,-0.0525,0.29904,0.36834
-7.16917,0,0,22.1692,22.1692,7.83083,7.83083,17.8708,-2.46635,-12.065,-0.179971,0.305665,0.0867894,1,0,4.69,1.085,-0.595,-0.264252,0.011224,-0.87779,-0.0525,0.29904,0.36834
-7.16965,0,0,22.1697,22.1697,7.83035,7.83035,17.8713,-2.46519,-12.0643,0.473723,-0.274794,-0.088906,1,0,3.78,0.84,-0.2275,0.39223,-0.568642,-1.05213,-0.0525,0.29904,0.36834
-7.16892,0,0,22.1689,22.1689,7.83108,7.83108,17.8688,-2.46533,-12.064,0.473725,-0.274836,-0.0888927,1,0,2.065,0.035,-0.2275,0.39223,-0.568642,-1.05213,-0.0525,0.29904,0.36834
-7.16821,0,0,22.1682,22.1682,7.83179,7.83179,17.8664,-2.46597,-12.0639,0.190432,-0.192563,-0.0800278,1,0,2.1,-0.28,-0.245,0.107726,-0.486414,-1.04334,-0.0525,0.29904,0.36834
-7.16812,0,0,22.1681,22.1681,7.83188,7.83188,17.8655,-2.46795,-12.0634,0.190467,-0.192579,-0.0800244,1,0,2.975,-0.9625,0.175,0.107726,-0.486414,-1.04334,-0.0525,0.29904,0.36834
-7.15472,0,0,22.1547,22.1547,7.84528,7.84528,17.8313,-2.54216,-12.171,-0.0486596,0.0441292,0.0327251,0,0,3.4125,-0.525,0.245,-0.133712,-0.249368,-0.931592,-0.0525,0.29904,0.36834
-7.14162,0,0,22.1416,22.1416,7.85838,7.85838,17.7979,-2.61389,-12.2756,-0.0474091,0.0435573,0.0328498,0,0,3.465,0.0875,0.245,-0.133712,-0.249368,-0.931592,-0.05628,0.3003,0.37198
-7.26686,0,0,22.2669,22.2669,7.73314,7.73314,18.1103,-3.06424,-12.1296,-0.250336,-0.21713,0.143544,0,0,3.22,0.105,0.2975,-0.345382,-0.51484,-0.819718,-0.05628,0.3003,0.37198
-7.38922,0,0,22.3892,22.3892,7.61078,7.61078,18.4155,-3.50135,-11.9877,-0.24272,-0.212216,0.141463,0,0,3.045,0.3325,0.4025,-0.345382,-0.51484,-0.819718,-0.05628,0.3003,0.37198
-7.38984,0,0,22.3898,22.3898,7.61016,7.61016,18.4164,-3.5022,-11.9864,0.351603,-0.407239,0.158424,1,0,3.99,-0.175,0.4375,0.251442,-0.709674,-0.802882,-0.05628,0.3003,0.37198
-7.39106,0,0,22.3911,22.3911,7.60894,7.60894,18.4187,-3.50227,-11.9852,0.351604,-0.4072,0.158411,1,0,4.83,0.245,0.2625,0.251442,-0.709674,-0.802882,-0.05628,0.3003,0.37198
-7.41122,0,0,22.4112,22.4112,7.58878,7.58878,18.4684,-3.0458,-12.3964,0.307326,-0.0547535,0.0473005,0,0,5.005,0.6825,0.1925,0.214964,-0.358558,-0.913292,-0.05628,0.3003,0.37198
-7.43118,0,0,22.4312,22.4312,7.56882,7.56882,18.5176,-2.60109,-12.8033,0.299574,-0.0538187,0.0473909,0,0,5.2675,0.595,-0.1575,0.214964,-0.358558,-0.913292,-0.05628,0.3003,0.37198
-7.46086,0,0,22.4609,22.4609,7.53914,7.53914,18.5911,-2.66162,-12.9055,-0.0265316,-0.0363764,0.0659942,0,0,4.76,0.7175,-0.35,-0.113582,-0.342332,-0.894382,-0.05628,0.3003,0.37198
-7.48974,0,0,22.4897,22.4897,7.51026,7.51026,18.6626,-2.72091,-13.0159,-0.025498,-0.0352109,0.0655501,0,0,4.445,0.385,-0.525,-0.113582,-0.342332,-0.894382,-0.05376,0.30576,0.37674
-7.55708,0,0,22.5571,22.5571,7.44292,7.44292,18.8303,-2.86678,-13.0685,-0.0810253,-0.163037,-0.0156691,0,0,3.1675,-0.035,-0.4725,-0.171898,-0.47275,-0.973926,-0.05376,0.30576,0.37674
-7.6225,0,0,22.6225,22.6225,7.3775,7.3775,18.9931,-3.00752,-13.1224,-0.0785722,-0.160392,-0.0167082,0,0,2.415,-0.07,-1.3475,-0.171898,-0.47275,-0.973926,-0.05376,0.30576,0.37674
-7.62203,0,0,22.622,22.622,7.37797,7.37797,18.9912,-3.00819,-13.1246,0.220659,-0.674211,-0.245382,1,0,2.345,-0.735,-1.5225,0.128588,-0.986004,-1.20085,-0.05376,0.30576,0.37674
-7.62178,0,0,22.6218,22.6218,7.37822,7.37822,18.9899,-3.00836,-13.1262,0.220662,-0.674233,-0.245375,1,0,2.66,-0.3325,-1.2425,0.128588,-0.986004,-1.20085,-0.05376,0.30576,0.37674
-7.62205,0,0,22.6221,22.6221,7.37795,7.37795,18.9899,-3.00907,-13.1282,0.334506,-0.248256,0.463792,1,0,3.395,-0.7175,-1.4,0.242902,-0.560468,-0.49715,-0.05376,0.30576,0.37674
-7.62272,0,0,22.6227,22.6227,7.37728,7.37728,18.9908,-3.00837,-13.1298,0.334494,-0.24824,0.463787,1,0,3.955,0.14,-1.4525,0.242902,-0.560468,-0.49715,-0.05376,0.30576,0.37674
-7.90418,0,0,22.9042,22.9042,7.09582,7.09582,19.6937,-3.3188,-13.0445,-0.0812871,-0.419971,0.442358,0,0,4.515,0.245,-1.75,-0.180072,-0.743468,-0.514108,-0.05376,0.30576,0.37674
-8.18123,0,0,23.1812,23.1812,6.81877,6.81877,20.3856,-3.62238,-12.9731,-0.0759984,-0.408758,0.437926,0,0,4.515,0.245,-1.75,-0.180072,-0.743468,-0.514108,-0.05264,0.31066,0.37828
-8.18299,0,0,23.183,23.183,6.81701,6.81701,20.3892,-3.62154,-12.9753,-0.125336,-0.305135,-0.234377,1,0,5.425,0.07,-1.8025,-0.229604,-0.640012,-1.1812,-0.05264,0.31066,0.37828
-8.18475,0,0,23.1847,23.1847,6.81525,6.81525,20.3929,-3.6207,-12.9776,-0.125351,-0.305075,-0.234398,1,0,5.425,0.07,-1.8025,-0.229604,-0.640012,-1.1812,-0.05264,0.31066,0.37828
-8.18631,0,0,23.1863,23.1863,6.81369,6.81369,20.396,-3.62057,-12.9786,-0.297863,0.104834,-0.256179,1,0,5.1975,-0.0875,-1.0325,-0.402844,-0.23058,-1.2028,-0.05264,0.31066,0.37828
-8.18788,0,0,23.1879,23.1879,6.81212,6.81212,20.3992,-3.62044,-12.9797,-0.297865,0.104886,-0.256198,1,0,5.1975,-0.0875,-1.0325,-0.402844,-0.23058,-1.2028,-0.05264,0.31066,0.37828
-8.1882,0,0,23.1882,23.1882,6.8118,6.8118,20.3992,-3.62153,-12.9803,-0.0930211,0.212235,0.0918675,1,0,3.465,-0.665,-0.5425,-0.197152,-0.123342,-0.857416,-0.05264,0.31066,0.37828
-8.18853,0,0,23.1885,23.1885,6.81147,6.81147,20.3992,-3.62262,-12.9809,-0.0930022,0.212236,0.0918661,1,0,3.465,-0.665,-0.5425,-0.197152,-0.123342,-0.857416,-0.05264,0.31066,0.37828
-8.1885,0,0,23.1885,23.1885,6.8115,6.8115,20.3984,-3.62281,-12.9793,0.614534,-0.58612,0.00101195,1,0,3.0625,0.28,0.49,0.513376,-0.920856,-0.947574,-0.05264,0.31066,0.37828
-8.11484,0,0,23.1148,23.1148,6.88516,6.88516,20.2135,-3.99883,-12.8678,-0.233813,0.212592,0.0923335,0,0,4.2175,0.175,0.525,-0.345138,-0.119804,-0.85766,-0.04746,0.30422,0.37716
-8.043,0,0,23.043,23.043,6.957,6.957,20.0332,-4.36571,-12.7548,-0.227427,0.209484,0.0929751,0,0,5.32,0.63,0.63,-0.345138,-0.119804,-0.85766,-0.04746,0.30422,0.37716
-8.04487,0,0,23.0449,23.0449,6.95513,6.95513,20.0371,-4.36638,-12.7528,0.0549179,-0.426122,-0.214175,1,0,5.7575,0.0875,0.805,-0.06161,-0.754814,-1.16242,-0.04746,0.30422,0.37716
-8.04675,0,0,23.0467,23.0467,6.95325,6.95325,20.041,-4.36706,-12.7508,0.0549297,-0.426058,-0.214199,1,0,5.7575,0.0875,0.805,-0.06161,-0.754814,-1.16242,-0.04746,0.30422,0.37716
-8.07246,0,0,23.0725,23.0725,6.92754,6.92754,20.1045,-3.86505,-13.1689,0.347961,-0.0757653,0.0381797,0,0,6.405,0.1225,0.42,0.241438,-0.406138,-0.912194,-0.04746,0.30422,0.37716
-8.09768,0,0,23.0977,23.0977,6.90232,6.90232,20.1668,-3.37583,-13.5816,0.33944,-0.0745608,0.0383124,0,0,6.405,0.1225,0.42,0.241438,-0.406138,-0.912194,-0.04746,0.30422,0.37716
-8.09959,0,0,23.0996,23.0996,6.90041,6.90041,20.1709,-3.37695,-13.5801,0.242028,-0.359051,-0.0155644,1,0,5.775,-0.2625,0.595,0.143594,-0.690398,-0.96563,-0.04746,0.30422,0.37716
-8.10151,0,0,23.1015,23.1015,6.89849,6.89849,20.1749,-3.37806,-13.5787,0.242047,-0.358985,-0.0155897,1,0,5.775,-0.2625,0.595,0.143594,-0.690398,-0.96563,-0.04746,0.30422,0.37716
-8.10246,0,0,23.1025,23.1025,6.89754,6.89754,20.1765,-3.37935,-13.5782,0.351407,-0.556438,-0.0422805,1,0,4.3925,-0.56,0.07,0.253394,-0.887672,-0.992104,-0.04914,0.30478,0.3773
-8.18816,0,0,23.1882,23.1882,6.81184,6.81184,20.39,-3.32397,-13.7318,0.0668941,-0.212684,0.0123016,0,0,4.7075,-0.21,-0.2975,-0.031354,-0.54778,-0.936716,-0.04914,0.30478,0.3773
-8.273,0,0,23.273,23.273,6.727,6.727,20.6013,-3.26772,-13.8831,0.0659139,-0.209215,0.0110653,0,0,5.7925,0.595,-0.455,-0.031354,-0.54778,-0.936716,-0.04914,0.30478,0.3773
-8.38145,0,0,23.3814,23.3814,6.61855,6.61855,20.8717,-2.79409,-14.2712,0.344365,-0.207952,0.183655,0,0,6.3175,0.6475,-0.7175,0.256566,-0.551074,-0.764208,-0.04914,0.30478,0.3773
-8.48802,0,0,23.488,23.488,6.51198,6.51198,21.1373,-2.33218,-14.6522,0.336312,-0.203498,0.182331,0,0,6.2825,0.0525,-1.12,0.256566,-0.551074,-0.764208,-0.04914,0.30478,0.3773
-8.49044,0,0,23.4904,23.4904,6.50956,6.50956,21.1426,-2.33249,-14.6536,-0.16384,0.0673421,-0.291668,1,0,6.3875,-0.385,-1.0675,-0.245708,-0.2806,-1.23452,-0.04914,0.30478,0.3773
-8.49235,0,0,23.4923,23.4923,6.50765,6.50765,21.1465,-2.33242,-14.6544,-0.163841,0.0674066,-0.291693,1,0,5.67,-0.0875,-0.91,-0.245708,-0.2806,-1.23452,-0.04914,0.30478,0.3773
-8.44388,0,0,23.4439,23.4439,6.55612,6.55612,21.0246,-2.00784,-14.9789,0.182321,0.108243,0.0557409,0,0,6.02,-0.0875,-0.7175,0.107604,-0.2379,-0.890722,-0.04914,0.30478,0.3773
-8.39725,0,0,23.3973,23.3973,6.60275,6.60275,20.9072,-1.69305,-15.2894,0.17683,0.106395,0.0566391,0,0,7.14,-0.315,-0.6825,0.107604,-0.2379,-0.890722,-0.05026,0.29596,0.37058
-8.5517,0,0,23.5517,23.5517,6.4483,6.4483,21.2926,-1.98635,-15.2085,-0.146673,-0.307509,0.122794,0,0,6.965,0.1575,-0.56,-0.222406,-0.65758,-0.822524,-0.05026,0.29596,0.37058
-8.70329,0,0,23.7033,23.7033,6.29671,6.29671,21.6707,-2.27112,-15.1318,-0.141706,-0.301439,0.120207,0,0,7.49,-0.525,-0.6825,-0.222406,-0.65758,-0.822524,-0.05026,0.29596,0.37058
-8.70643,0,0,23.7064,23.7064,6.29357,6.29357,21.6778,-2.27188,-15.1324,0.0232846,-0.0654982,0.155202,1,0,7.4025,-0.4725,-0.56,-0.05673,-0.421998,-0.787754,-0.05026,0.29596,0.37058
-8.70912,0,0,23.7091,23.7091,6.29088,6.29088,21.6837,-2.27133,-15.1323,0.0232752,-0.0654025,0.155164,1,0,6.7725,0.3675,-0.5075,-0.05673,-0.421998,-0.787754,-0.05026,0.29596,0.37058
-8.77784,0,0,23.7778,23.7778,6.22216,6.22216,21.8547,-2.17643,-15.2874,0.0888017,-0.18266,-0.00903506,0,0,6.1425,0.105,-0.4025,0.010736,-0.541924,-0.949648,-0.05026,0.29596,0.37058
-8.84425,0,0,23.8443,23.8443,6.15575,6.15575,22.0199,-2.0842,-15.4405,0.087193,-0.179965,-0.010056,0,0,4.69,-0.385,-0.2975,0.010736,-0.541924,-0.949648,-0.05026,0.29596,0.37058
-8.84616,0,0,23.8462,23.8462,6.15384,6.15384,22.0238,-2.08521,-15.4408,0.00265668,-0.0224799,0.217864,1,0,5.67,-0.56,-0.3675,-0.074176,-0.384666,-0.72346,-0.05026,0.29596,0.37058
-8.8489,0,0,23.8489,23.8489,6.1511,6.1511,22.0298,-2.08577,-15.4408,0.00266639,-0.0223826,0.217824,1,0,6.8425,-0.2625,-0.35,-0.074176,-0.384666,-0.72346,-0.05026,0.29596,0.37058
-8.87868,0,0,23.8787,23.8787,6.12132,6.12132,22.1034,-1.86174,-15.6715,0.144056,-0.0285917,0.112592,0,0,7.525,-0.28,-0.455,0.071736,-0.392108,-0.827526,-0.0532,0.29428,0.36386
-8.90886,0,0,23.9089,23.9089,6.09114,6.09114,22.1781,-1.64402,-15.8994,0.140257,-0.0273421,0.112209,0,0,8.7325,-0.5775,-0.42,0.071736,-0.392108,-0.827526,-0.0532,0.29428,0.36386
-8.9433,0,0,23.9433,23.9433,6.0567,6.0567,22.2633,-1.44712,-16.1151,0.136579,-0.0636672,0.0554216,0,0,8.995,-0.595,-0.5775,0.071492,-0.429806,-0.883402,-0.0532,0.29428,0.36386
-8.97718,0,0,23.9772,23.9772,6.02282,6.02282,22.3472,-1.25523,-16.328,0.133231,-0.0622834,0.0549393,0,0,8.995,-0.595,-0.5775,0.071492,-0.429806,-0.883402,-0.0532,0.29428,0.36386
-8.98117,0,0,23.9812,23.9812,6.01883,6.01883,22.3563,-1.24905,-16.3258,0.0104226,0.0204225,-0.252121,1,0,8.61,3.9025,-0.595,-0.051728,-0.347334,-1.18804,-0.0532,0.29428,0.36386
-8.98515,0,0,23.9852,23.9852,6.01485,6.01485,22.3654,-1.24287,-16.3235,0.0103148,0.0205707,-0.25218,1,0,8.61,3.9025,-0.595,-0.051728,-0.347334,-1.18804,-0.0532,0.29428,0.36386
-8.9886,0,0,23.9886,23.9886,6.0114,6.0114,22.3732,-1.25009,-16.3264,0.190361,0.0443876,-0.271045,1,0,7.7875,-4.48,-0.35,0.128954,-0.323666,-1.2067,-0.0532,0.29428,0.36386
-8.99204,0,0,23.992,23.992,6.00796,6.00796,22.381,-1.2573,-16.3292,0.190487,0.044512,-0.271099,1,0,7.7875,-4.48,-0.35,0.128954,-0.323666,-1.2067,-0.0532,0.29428,0.36386
-8.99563,0,0,23.9956,23.9956,6.00437,6.00437,22.3891,-1.25091,-16.3251,-0.00631001,-0.237225,-0.2982,1,0,8.0675,4.4275,0.35,-0.068564,-0.605242,-1.23354,-0.0539,0.29484,0.35952
-9.12714,0,0,24.1271,24.1271,5.87286,5.87286,22.7171,-0.909266,-16.5911,0.267996,-0.249971,0.197774,0,0,8.1375,0.4375,0.7,0.21289,-0.623298,-0.73932,-0.0539,0.29484,0.35952
-9.25736,0,0,24.2574,24.2574,5.74264,5.74264,23.0417,-0.575462,-16.8502,0.26217,-0.244721,0.19564,0,0,9.3625,0.3675,1.1025,0.21289,-0.623298,-0.73932,-0.0539,0.29484,0.35952
-9.26229,0,0,24.2623,24.2623,5.73771,5.73771,23.0532,-0.576555,-16.8474,-0.120612,0.0169358,0.266134,1,0,9.905,0.105,1.3125,-0.171532,-0.362096,-0.669292,-0.0539,0.29484,0.35952
-9.26776,0,0,24.2678,24.2678,5.73224,5.73224,23.066,-0.57803,-16.8447,-0.120586,0.0171413,0.266046,1,0,10.6575,-0.1225,1.3475,-0.171532,-0.362096,-0.669292,-0.0539,0.29484,0.35952
-9.31736,0,0,24.3174,24.3174,5.68264,5.68264,23.1891,-0.826383,-16.8085,-0.137634,-0.0488058,0.0727391,0,0,10.465,0.4025,1.4525,-0.193004,-0.429928,-0.860222,-0.0539,0.29484,0.35952
-9.36534,0,0,24.3653,24.3653,5.63466,5.63466,23.3082,-1.06746,-16.7737,-0.133427,-0.046924,0.071855,0,0,9.94,0.315,1.155,-0.193004,-0.429928,-0.860222,-0.0539,0.29484,0.35952
-9.37035,0,0,24.3703,24.3703,5.62965,5.62965,23.3198,-1.06746,-16.7709,-0.124072,0.333321,0.171732,1,0,10.0275,0.7175,1.085,-0.18361,-0.050264,-0.761036,-0.0539,0.29484,0.35952
-9.37551,0,0,24.3755,24.3755,5.62449,5.62449,23.3319,-1.06806,-16.7695,-0.124062,0.333514,0.171648,1,0,10.22,0.0525,0.455,-0.18361,-0.050264,-0.761036,-0.05698,0.29386,0.35994
-9.38051,0,0,24.3805,24.3805,5.61949,5.61949,23.3435,-1.06847,-16.7689,0.131916,0.326006,0.118946,1,0,9.9925,-0.0175,0,0.073444,-0.05795,-0.813252,-0.05698,0.29386,0.35994
-9.38562,0,0,24.3856,24.3856,5.61438,5.61438,23.3554,-1.06879,-16.7696,0.131921,0.326197,0.118863,1,0,10.1325,-0.28,-0.735,0.073444,-0.05795,-0.813252,-0.05698,0.29386,0.35994
-9.34588,0,0,24.3459,24.3459,5.65412,5.65412,23.2552,-1.61031,-16.5787,-0.358058,0.169891,0.034641,0,0,10.2025,-0.1575,-1.0675,-0.428098,-0.212402,-0.89731,-0.05698,0.29386,0.35994
-9.3068,0,0,24.3068,24.3068,5.6932,5.6932,23.1566,-2.13932,-16.3878,-0.34883,0.168192,0.0350407,0,0,10.9725,-0.2975,-1.5225,-0.428098,-0.212402,-0.89731,-0.05698,0.29386,0.35994
-9.2739,0,0,24.2739,24.2739,5.7261,5.7261,23.0735,-1.78819,-16.6803,0.228906,0.0302805,-0.0861618,0,0,11.6375,-0.49,-1.6275,0.158234,-0.34892,-1.01833,-0.05698,0.29386,0.35994
-9.24201,0,0,24.242,24.242,5.75799,5.75799,22.9929,-1.44719,-16.9708,0.222957,0.0290525,-0.0854571,0,0,11.9875,-0.735,-1.68,0.158234,-0.34892,-1.01833,-0.05698,0.29386,0.35994
-9.24815,0,0,24.2482,24.2482,5.75185,5.75185,23.0074,-1.44684,-16.9734,0.338483,-0.548741,-0.27047,1,0,11.55,-0.35,-1.9075,0.274256,-0.926346,-1.20182,-0.05698,0.29386,0.35994
-9.25386,0,0,24.2539,24.2539,5.74614,5.74614,23.0208,-1.44638,-16.9759,0.338475,-0.548525,-0.270562,1,0,10.955,-0.2625,-1.8725,0.274256,-0.926346,-1.20182,-0.05362,0.29568,0.36344
-9.25928,0,0,24.2593,24.2593,5.74072,5.74072,23.0335,-1.44637,-16.9783,-0.0309627,0.355172,0.101271,1,0,10.535,-0.49,-1.715,-0.096746,-0.02379,-0.832772,-0.05362,0.29568,0.36344
-9.26479,0,0,24.2648,24.2648,5.73521,5.73521,23.0464,-1.44749,-16.9791,-0.0309432,0.355379,0.101182,1,0,10.6925,-0.7175,-0.5775,-0.096746,-0.02379,-0.832772,-0.05362,0.29568,0.36344
-9.20084,0,0,24.2008,24.2008,5.79916,5.79916,22.8857,-1.78409,-16.9033,-0.239007,0.189572,-0.0136935,0,0,10.71,-0.42,-0.1925,-0.311588,-0.186782,-0.947696,-0.05362,0.29568,0.36344
-9.13875,0,0,24.1387,24.1387,5.86125,5.86125,22.7296,-2.11339,-16.8254,-0.233263,0.186986,-0.0128182,0,0,12.075,-0.3325,0.56,-0.311588,-0.186782,-0.947696,-0.05362,0.29568,0.36344
-9.14569,0,0,24.1457,24.1457,5.85431,5.85431,22.7461,-2.11475,-16.8236,0.34807,-0.169481,-0.051782,1,0,12.7575,-0.28,0.8225,0.272182,-0.543144,-0.986248,-0.05362,0.29568,0.36344
-9.15309,0,0,24.1531,24.1531,5.84691,5.84691,22.7637,-2.11698,-16.8213,0.348109,-0.169198,-0.0519024,1,0,13.405,-0.6125,1.3475,0.272182,-0.543144,-0.986248,-0.05362,0.29568,0.36344
-9.16071,0,0,24.1607,24.1607,5.83929,5.83929,22.7819,-2.11892,-16.8185,0.132505,0.145571,-0.175713,1,0,13.72,-0.3675,1.4875,0.055632,-0.228994,-1.10898,-0.05362,0.29568,0.36344
-9.16719,0,0,24.1672,24.1672,5.83281,5.83281,22.7973,-2.12019,-16.8156,0.132527,0.145817,-0.175817,1,0,12.1275,0.0525,1.47,0.055632,-0.228994,-1.10898,-0.05362,0.29148,0.35924
-9.12809,0,0,24.1281,24.1281,5.87191,5.87191,22.6987,-1.89564,-17.0352,0.125209,0.0995858,0.0451754,0,0,11.27,-0.49,1.3475,0.052216,-0.273646,-0.890478,-0.05362,0.29148,0.35924
-9.08987,0,0,24.0899,24.0899,5.91013,5.91013,22.6023,-1.67656,-17.254,0.121387,0.0980794,0.0459331,0,0,11.235,-0.1225,0.8575,0.052216,-0.273646,-0.890478,-0.05362,0.29148,0.35924
-9.20016,0,0,24.2002,24.2002,5.79984,5.79984,22.8772,-1.89556,-17.195,-0.106587,-0.189671,0.102247,0,0,11.165,-0.035,0.5425,-0.18056,-0.56547,-0.83265,-0.05362,0.29148,0.35924
-9.30895,0,0,24.309,24.309,5.69105,5.69105,23.1483,-2.10807,-17.1392,-0.10288,-0.185369,0.100279,0,0,12.39,-0.63,0,-0.18056,-0.56547,-0.83265,-0.05362,0.29148,0.35924
-9.29995,0,0,24.3,24.3,5.70005,5.70005,23.1249,-1.74254,-17.4261,0.227016,0.0234211,0.0453097,0,0,13.1075,-0.6475,-0.2975,0.157136,-0.356606,-0.88755,-0.05362,0.29148,0.35924
-9.29183,0,0,24.2918,24.2918,5.70817,5.70817,23.1037,-1.38651,-17.7104,0.220805,0.0231479,0.0456108,0,0,13.8425,-0.525,-0.6125,0.157136,-0.356606,-0.88755,-0.05362,0.29148,0.35924
-9.32792,0,0,24.3279,24.3279,5.67208,5.67208,23.1931,-1.15533,-17.9172,0.165382,-0.0871293,0.0149578,0,0,13.755,0,-0.7875,0.10553,-0.468236,-0.91744,-0.05362,0.29148,0.35924
-9.36273,0,0,24.3627,24.3627,5.63727,5.63727,23.2792,-0.929982,-18.1217,0.16145,-0.0857195,0.0144304,0,0,12.705,-0.0875,-1.0675,0.10553,-0.468236,-0.91744,-0.05362,0.29148,0.35924
-9.36946,0,0,24.3695,24.3695,5.63054,5.63054,23.2952,-0.930004,-18.1228,0.148087,0.121663,-0.204159,1,0,12.39,-0.21,-1.015,0.09211,-0.261324,-1.13423,-0.0532,0.29092,0.35616
-9.34246,0,0,24.3425,24.3425,5.65754,5.65754,23.2268,-0.792529,-18.2979,0.0761978,0.0647692,-0.00201922,0,0,12.1625,0.07,-0.735,0.022326,-0.317078,-0.934154,-0.0532,0.29092,0.35616
-9.316,0,0,24.316,24.316,5.684,5.684,23.1598,-0.659276,-18.4714,0.0738723,0.0637058,-0.00153156,0,0,12.04,0.0175,-0.49,0.022326,-0.317078,-0.934154,-0.0532,0.29092,0.35616
-9.32262,0,0,24.3226,24.3226,5.67738,5.67738,23.1755,-0.659298,-18.4706,0.290603,0.170574,-0.138604,1,0,12.25,0.2275,0,0.239974,-0.210572,-1.07006,-0.0532,0.29092,0.35616
-9.32909,0,0,24.3291,24.3291,5.67091,5.67091,23.1908,-0.659753,-18.469,0.290611,0.170819,-0.138709,1,0,12.0575,0.1925,0.56,0.239974,-0.210572,-1.07006,-0.0532,0.29092,0.35616
-9.3606,0,0,24.3606,24.3606,5.6394,5.6394,23.2687,-0.792809,-18.4796,-0.0754114,-0.0278643,0.0402325,0,0,12.2325,0.0525,0.6125,-0.12993,-0.410286,-0.891942,-0.0532,0.29092,0.35616
-9.39113,0,0,24.3911,24.3911,5.60887,5.60887,23.3441,-0.922248,-18.4905,-0.0731525,-0.0266685,0.0396805,0,0,11.9175,-0.1575,0.525,-0.12993,-0.410286,-0.891942,-0.0532,0.29092,0.35616
-9.39832,0,0,24.3983,24.3983,5.60168,5.60168,23.3612,-0.923829,-18.4891,-0.0071582,-0.163543,-0.102321,1,0,13.0725,-0.455,0.7175,-0.063684,-0.547292,-1.03273,-0.0532,0.29092,0.35616
-9.40597,0,0,24.406,24.406,5.59403,5.59403,23.3795,-0.925249,-18.4878,-0.00713342,-0.163251,-0.102447,1,0,13.7025,-0.42,0.56,-0.063684,-0.547292,-1.03273,-0.06048,0.2898,0.3598
-9.41371,0,0,24.4137,24.4137,5.58629,5.58629,23.3979,-0.926129,-18.4873,0.215565,-0.212172,-0.131837,1,0,13.825,-0.28,0.0875,0.159942,-0.596458,-1.06177,-0.06048,0.2898,0.3598
-9.42151,0,0,24.4215,24.4215,5.57849,5.57849,23.4166,-0.92732,-18.488,0.215586,-0.211874,-0.131967,1,0,13.895,-0.7525,-0.5425,0.159942,-0.596458,-1.06177,-0.06048,0.2898,0.3598
-9.44535,0,0,24.4453,24.4453,5.55465,5.55465,23.4753,-1.32873,-18.3444,-0.262623,0.00358778,0.00520131,0,0,13.23,-0.5425,-0.595,-0.327326,-0.382104,-0.925126,-0.06048,0.2898,0.3598
-9.46788,0,0,24.4679,24.4679,5.53212,5.53212,23.5307,-1.72033,-18.2028,-0.255791,0.00440244,0.00464875,0,0,12.74,-1.0325,-0.8575,-0.327326,-0.382104,-0.925126,-0.06048,0.2898,0.3598
-9.47523,0,0,24.4752,24.4752,5.52477,5.52477,23.5482,-1.7216,-18.2045,-0.201222,-0.0848369,-0.083382,1,0,13.2475,-1.015,-1.0325,-0.272548,-0.47153,-1.01236,-0.06048,0.2898,0.3598
-9.48225,0,0,24.4822,24.4822,5.51775,5.51775,23.5649,-1.72192,-18.2061,-0.201216,-0.0845706,-0.0834982,1,0,12.775,-0.4725,-1.1725,-0.272548,-0.47153,-1.01236,-0.06048,0.2898,0.3598
-9.48915,0,0,24.4892,24.4892,5.51085,5.51085,23.5813,-1.72281,-18.2078,0.105065,-0.202528,-0.143243,1,0,12.6175,-0.84,-1.1725,0.035014,-0.589626,-1.07153,-0.06048,0.2898,0.3598
-9.49604,0,0,24.496,24.496,5.50396,5.50396,23.5976,-1.72405,-18.2091,0.105086,-0.202267,-0.143358,1,0,12.6,-0.8925,-0.7875,0.035014,-0.589626,-1.07153,-0.05362,0.28672,0.35448
-9.50282,0,0,24.5028,24.5028,5.49718,5.49718,23.6137,-1.72535,-18.2099,0.0707285,0.201741,0.0868121,1,0,12.46,-0.8225,-0.5425,0.000488,-0.186294,-0.84302,-0.05362,0.28672,0.35448
-9.51322,0,0,24.5132,24.5132,5.48678,5.48678,23.6388,-1.72674,-18.2101,0.0707528,0.202142,0.086636,1,0,17.535,-0.7525,-0.245,0.000488,-0.186294,-0.84302,-0.05362,0.28672,0.35448
-9.52039,0,0,24.5204,24.5204,5.47961,5.47961,23.6558,-1.72812,-18.2101,0.23296,0.203391,0.141351,1,0,13.02,-0.6825,-0.105,0.163358,-0.185318,-0.788608,-0.05362,0.28672,0.35448
-9.52795,0,0,24.5279,24.5279,5.47205,5.47205,23.6738,-1.7295,-18.2089,0.232984,0.203678,0.141224,1,0,13.58,-0.385,0.5775,0.163358,-0.185318,-0.788608,-0.05362,0.28672,0.35448
-9.5234,0,0,24.5234,24.5234,5.4766,5.4766,23.6616,-1.51113,-18.3977,0.135509,0.0219232,0.0338289,0,0,13.7375,-0.1575,0.8225,0.069296,-0.366732,-0.895358,-0.05362,0.28672,0.35448
-9.522,0,0,24.522,24.522,5.478,5.478,23.6572,-1.2983,-18.5843,0.131796,0.0218897,0.033943,0,0,17.7975,0.1225,0.91,0.069296,-0.366732,-0.895358,-0.05362,0.28672,0.35448
-9.52979,0,0,24.5298,24.5298,5.47021,5.47021,23.6758,-1.29873,-18.5823,0.530155,-0.248446,0.0777053,1,0,13.9125,0.2975,0.7525,0.469334,-0.637084,-0.851804,-0.05362,0.28672,0.35448
-9.53422,0,0,24.5342,24.5342,5.46578,5.46578,23.6859,-1.29941,-18.5809,0.530167,-0.248284,0.0776337,1,0,9.1875,0.0175,0.4725,0.469334,-0.637084,-0.851804,-0.06062,0.28602,0.35868
-9.54177,0,0,24.5418,24.5418,5.45823,5.45823,23.7039,-1.30021,-18.5796,-0.115151,-0.0766527,0.293282,1,0,13.5625,-0.07,0.4375,-0.17873,-0.465918,-0.637694,-0.06062,0.28602,0.35868
-9.54955,0,0,24.5496,24.5496,5.45045,5.45045,23.7225,-1.30098,-18.5784,-0.115138,-0.076356,0.293151,1,0,13.895,-0.07,0.4025,-0.17873,-0.465918,-0.637694,-0.06062,0.28602,0.35868
-9.55725,0,0,24.5572,24.5572,5.44275,5.44275,23.7408,-1.3025,-18.578,-0.214244,-0.0532255,0.178557,1,0,13.755,-0.665,0.14,-0.278282,-0.443104,-0.751276,-0.06062,0.28602,0.35868
-9.56509,0,0,24.5651,24.5651,5.43491,5.43491,23.7596,-1.30337,-18.5777,-0.214229,-0.0529267,0.178425,1,0,13.965,-0.3325,-0.0525,-0.278282,-0.443104,-0.751276,-0.06062,0.28602,0.35868
-9.5728,0,0,24.5728,24.5728,5.4272,5.4272,23.7779,-1.30297,-18.5773,0.17549,0.271735,-0.323826,1,0,13.7725,0.3675,-0.315,0.113094,-0.119072,-1.24952,-0.06062,0.28602,0.35868
-9.58036,0,0,24.5804,24.5804,5.41964,5.41964,23.796,-1.3039,-18.5773,0.175507,0.272023,-0.323953,1,0,13.5625,-0.4375,-0.1925,0.113094,-0.119072,-1.24952,-0.06062,0.28602,0.35868
-9.58124,0,0,24.5812,24.5812,5.41876,5.41876,23.7973,-1.30065,-18.6437,-0.000704263,0.00214427,-0.0336795,0,0,13.7025,-0.0175,-0.315,-0.063806,-0.388692,-0.961482,-0.06062,0.28602,0.35868
-9.58204,0,0,24.582,24.582,5.41796,5.41796,23.7984,-1.29717,-18.7011,-0.000764875,0.00216244,-0.033686,0,0,13.5625,0.21,-0.455,-0.063806,-0.388692,-0.961482,-0.0567,0.27874,0.35616
-9.67473,0,0,24.6747,24.6747,5.32527,5.32527,24.0292,-1.24383,-18.7538,0.0660934,-0.223379,0.0212565,0,0,13.9825,0.21,-0.385,0.00427,-0.617686,-0.905362,-0.0567,0.27874,0.35616
-9.76549,0,0,24.7655,24.7655,5.23451,5.23451,24.2552,-1.19183,-18.8052,0.065186,-0.219773,0.0196613,0,0,13.7025,-0.1225,0.105,0.00427,-0.617686,-0.905362,-0.0567,0.27874,0.35616
-9.77333,0,0,24.7733,24.7733,5.22667,5.22667,24.2739,-1.19367,-18.8051,0.049911,-0.00550973,-0.205469,1,0,13.9475,-0.91,0.0525,-0.011102,-0.403942,-1.12862,-0.0567,0.27874,0.35616
-9.78133,0,0,24.7813,24.7813,5.21867,5.21867,24.293,-1.19354,-18.804,0.0499086,-0.00520622,-0.205606,1,0,14.175,0.385,0.105,-0.011102,-0.403942,-1.12862,-0.0567,0.27874,0.35616
-9.67112,0,0,24.6711,24.6711,5.32888,5.32888,24.0165,-1.11304,-18.9347,0.0153383,0.240398,-0.120124,0,0,13.93,-0.105,-0.0175,-0.044408,-0.154208,-1.04578,-0.0567,0.27874,0.35616
-9.56315,0,0,24.5631,24.5631,5.43685,5.43685,23.7457,-1.03606,-19.0651,0.0139951,0.236087,-0.118188,0,0,14.105,-0.4025,0.245,-0.044408,-0.154208,-1.04578,-0.0567,0.27874,0.35616
-9.57119,0,0,24.5712,24.5712,5.42881,5.42881,23.7649,-1.03721,-19.0642,0.256744,-0.135483,-0.152749,1,0,14.245,-0.3325,0.35,0.199348,-0.525698,-1.07994,-0.0567,0.27874,0.35616
-9.58003,0,0,24.58,24.58,5.41997,5.41997,23.7861,-1.0382,-19.0635,0.256761,-0.135144,-0.152899,1,0,15.365,-0.315,0.1575,0.199348,-0.525698,-1.07994,-0.0567,0.27874,0.35616
-9.47375,0,0,24.4737,24.4737,5.52625,5.52625,23.5196,-0.765565,-19.3083,0.150562,0.214548,-0.123669,0,0,15.6625,-0.2275,0.14,0.097478,-0.172142,-1.05286,-0.0518,0.28028,0.35154
-9.36978,0,0,24.3698,24.3698,5.63022,5.63022,23.2588,-0.501802,-19.5539,0.145959,0.210391,-0.121816,0,0,15.9775,-0.9975,0,0.097478,-0.172142,-1.05286,-0.0518,0.28028,0.35154
-9.27525,0,0,24.2753,24.2753,5.72475,5.72475,23.0216,-0.473614,-19.6738,-0.0152583,0.224172,-0.0422356,0,0,15.505,-0.9975,-0.2275,-0.063928,-0.154574,-0.975512,-0.0518,0.28028,0.35154
-9.18097,0,0,24.181,24.181,5.81903,5.81903,22.785,-0.446016,-19.7932,-0.01574,0.220371,-0.0406253,0,0,13.3175,-0.4725,-0.4025,-0.063928,-0.154574,-0.975512,-0.0518,0.28028,0.35154
-9.18831,0,0,24.1883,24.1883,5.81169,5.81169,22.8025,-0.447478,-19.7938,-0.0560477,0.13443,-0.157791,1,0,13.265,-0.875,-0.4375,-0.104432,-0.240706,-1.09166,-0.0518,0.28028,0.35154
-9.19537,0,0,24.1954,24.1954,5.80463,5.80463,22.8193,-0.448356,-19.7942,-0.0560324,0.134701,-0.157904,1,0,12.88,-0.49,-0.4025,-0.104432,-0.240706,-1.09166,-0.0518,0.28028,0.35154
-9.20329,0,0,24.2033,24.2033,5.79671,5.79671,22.8382,-0.448487,-19.7941,0.272832,0.0121458,-0.392127,1,0,14.0875,0,-0.3675,0.225822,-0.363438,-1.32394,-0.0518,0.28028,0.35154
-9.21255,0,0,24.2125,24.2125,5.78745,5.78745,22.8605,-0.449172,-19.7941,0.272844,0.0125042,-0.392278,1,0,15.96,-0.315,-0.28,0.225822,-0.363438,-1.32394,-0.0518,0.28028,0.35154
-9.30863,0,0,24.3086,24.3086,5.69137,5.69137,23.0999,-0.262281,-19.9205,0.147853,-0.155597,0.152493,0,0,15.82,-0.315,-0.21,0.103578,-0.535214,-0.781776,-0.05166,0.27594,0.3521
-9.31756,0,0,24.3176,24.3176,5.68244,5.68244,23.1213,-0.264504,-19.921,-0.0541387,0.28477,-0.272933,1,0,15.4875,-1.2425,-0.1575,-0.099308,-0.095648,-1.20377,-0.05166,0.27594,0.3521
-9.32524,0,0,24.3252,24.3252,5.67476,5.67476,23.1397,-0.265852,-19.9211,-0.0541152,0.285065,-0.273059,1,0,13.755,-0.7,-0.1925,-0.099308,-0.095648,-1.20377,-0.05166,0.27594,0.3521
-9.16556,0,0,24.1656,24.1656,5.83444,5.83444,22.7396,-0.329148,-20.0071,-0.106586,0.38183,-0.147025,0,0,13.23,0.035,0,-0.15311,0.007442,-1.08141,-0.05166,0.27594,0.3521
-9.00934,0,0,24.0093,24.0093,5.99066,5.99066,22.3482,-0.392134,-20.0926,-0.105486,0.375518,-0.144413,0,0,14.1925,0.0525,0.0525,-0.15311,0.007442,-1.08141,-0.05166,0.27594,0.3521
-9.01838,0,0,24.0184,24.0184,5.98162,5.98162,22.37,-0.391674,-20.0912,-0.0402566,0.00741277,0.24814,1,0,15.6625,0.6125,0.21,-0.087596,-0.360632,-0.69174,-0.05166,0.27594,0.3521
-9.0292,0,0,24.0292,24.0292,5.9708,5.9708,22.3962,-0.391774,-20.09,-0.0402549,0.00783576,0.247966,1,0,18.165,0.28,0.2625,-0.087596,-0.360632,-0.69174,-0.05166,0.27594,0.3521
-9.04042,0,0,24.0404,24.0404,5.95958,5.95958,22.4234,-0.3923,-20.0889,0.0187964,-0.45483,0.0333629,1,0,18.725,0.0175,0.28,-0.028304,-0.823256,-0.904508,-0.05166,0.27594,0.3521
-9.05044,0,0,24.0504,24.0504,5.94956,5.94956,22.4476,-0.392753,-20.0879,0.0188043,-0.454439,0.0332016,1,0,17.045,0.035,0.21,-0.028304,-0.823256,-0.904508,-0.05516,0.27664,0.35714
-9.05936,0,0,24.0594,24.0594,5.94064,5.94064,22.4691,-0.394431,-20.0875,-0.0948771,-0.231945,-0.011203,1,0,15.4875,-0.77,0.14,-0.142496,-0.601338,-0.948428,-0.05516,0.27664,0.35714
-9.06654,0,0,24.0665,24.0665,5.93346,5.93346,22.4862,-0.395167,-20.0866,-0.0948642,-0.231669,-0.0113174,1,0,13.0725,-0.1225,0.2625,-0.142496,-0.601338,-0.948428,-0.05516,0.27664,0.35714
-9.07297,0,0,24.073,24.073,5.92703,5.92703,22.5014,-0.397029,-20.0858,0.0983305,0.531869,-0.386658,1,0,12.005,-0.77,0.42,0.051484,0.161162,-1.32077,-0.05516,0.27664,0.35714
-9.08146,0,0,24.0815,24.0815,5.91854,5.91854,22.5218,-0.397975,-20.0849,0.098347,0.532197,-0.386794,1,0,14.8925,-0.2625,0.245,0.051484,0.161162,-1.32077,-0.05516,0.27664,0.35714
-9.09086,0,0,24.0909,24.0909,5.90914,5.90914,22.5444,-0.399257,-20.0843,0.192764,0.3142,-0.238055,1,0,16.17,-0.49,0.21,0.146278,-0.056974,-1.17303,-0.05516,0.27664,0.35714
-9.10261,0,0,24.1026,24.1026,5.89739,5.89739,22.573,-0.400701,-20.084,0.192789,0.31466,-0.238247,1,0,19.46,-0.665,0.035,0.146278,-0.056974,-1.17303,-0.05516,0.27664,0.35714
-9.01479,0,0,24.0148,24.0148,5.98521,5.98521,22.3526,-0.084405,-20.3501,0.187026,0.181049,-0.0844221,0,0,19.2675,-0.105,-0.4375,0.146034,-0.186904,-1.02187,-0.05516,0.27664,0.35714
-8.92655,0,0,23.9266,23.9266,6.07345,6.07345,22.1312,0.221023,-20.6107,0.181695,0.177469,-0.0829652,0,0,15.96,-0.84,-0.6125,0.146034,-0.186904,-1.02187,-0.0553,0.27314,0.35798
-9.00067,0,0,24.0007,24.0007,5.99933,5.99933,22.3156,0.00558529,-20.5214,-0.130286,-0.143183,0.00151915,0,0,15.1375,-0.63,-0.3325,-0.171044,-0.510204,-0.936838,-0.0553,0.27314,0.35798
-9.07176,0,0,24.0718,24.0718,5.92824,5.92824,22.4925,-0.204594,-20.434,-0.126618,-0.140332,0.000336707,0,0,13.3175,-1.2075,-0.21,-0.171044,-0.510204,-0.936838,-0.0553,0.27314,0.35798
-9.07983,0,0,24.0798,24.0798,5.92017,5.92017,22.5118,-0.206035,-20.4339,0.0473747,-0.170185,-0.0718405,1,0,14.315,-0.7,-0.0525,0.00366,-0.540338,-1.00833,-0.0553,0.27314,0.35798
-9.09064,0,0,24.0906,24.0906,5.90936,5.90936,22.538,-0.207067,-20.4337,0.0473927,-0.169763,-0.0720154,1,0,18.13,-0.455,-0.0875,0.00366,-0.540338,-1.00833,-0.0553,0.27314,0.35798
-9.10272,0,0,24.1027,24.1027,5.89728,5.89728,22.5674,-0.20798,-20.4333,-0.306722,-0.335138,-0.0568435,1,0,19.9325,-0.35,-0.0175,-0.35197,-0.706014,-0.99308,-0.0553,0.27314,0.35798
-9.11581,0,0,24.1158,24.1158,5.88419,5.88419,22.5992,-0.209249,-20.4328,-0.3067,-0.334625,-0.0570572,1,0,21.3325,-0.525,0.105,-0.35197,-0.706014,-0.99308,-0.0553,0.27314,0.35798
-9.12785,0,0,24.1278,24.1278,5.87215,5.87215,22.6285,-0.211061,-20.4325,-0.0533707,-0.0478884,0.273724,1,0,19.8625,-0.84,0.175,-0.0976,-0.420046,-0.664656,-0.0553,0.27314,0.35798
-9.1372,0,0,24.1372,24.1372,5.8628,5.8628,22.651,-0.212802,-20.4317,-0.0533403,-0.0475255,0.273572,1,0,16.1,-0.7,0.4025,-0.0976,-0.420046,-0.664656,-0.05404,0.27566,0.36274
-9.1455,0,0,24.1455,24.1455,5.8545,5.8545,22.6709,-0.214135,-20.4308,0.351595,0.00189011,-0.134628,1,0,14.63,-0.455,0.3675,0.309026,-0.371002,-1.06957,-0.05404,0.27566,0.36274
-9.1537,0,0,24.1537,24.1537,5.8463,5.8463,22.6906,-0.21552,-20.43,0.351619,0.0022062,-0.13476,1,0,14.4725,-0.525,0.28,0.309026,-0.371002,-1.06957,-0.05404,0.27566,0.36274
-9.16307,0,0,24.1631,24.1631,5.83693,5.83693,22.7132,-0.216062,-20.4293,0.444201,0.25293,0.169877,1,0,16.135,-0.07,0.0875,0.40199,-0.120902,-0.767136,-0.05404,0.27566,0.36274
-9.17504,0,0,24.175,24.175,5.82496,5.82496,22.7422,-0.217984,-20.4294,0.444234,0.253398,0.169681,1,0,19.7575,-0.9975,-0.035,0.40199,-0.120902,-0.767136,-0.05404,0.27566,0.36274
-9.18843,0,0,24.1884,24.1884,5.81157,5.81157,22.7748,-0.22024,-20.4297,-0.0737416,-0.0477305,0.152863,1,0,21.7525,-1.225,-0.07,-0.118218,-0.422242,-0.783606,-0.05404,0.27566,0.36274
-9.20068,0,0,24.2007,24.2007,5.79932,5.79932,22.8046,-0.221167,-20.4301,-0.0737254,-0.0472514,0.152661,1,0,20.16,-0.5425,-0.455,-0.118218,-0.422242,-0.783606,-0.05404,0.27566,0.36274
-9.21801,0,0,24.218,24.218,5.78199,5.78199,22.8471,-0.064119,-20.5645,0.102361,-0.000157409,0.0724635,0,0,18.585,-0.9275,-0.42,0.061366,-0.375882,-0.862906,-0.05404,0.27566,0.36274
-9.23315,0,0,24.2331,24.2331,5.76685,5.76685,22.8841,0.0901551,-20.685,0.099668,0.000436993,0.0722122,0,0,15.8725,-0.595,-0.595,0.061366,-0.375882,-0.862906,-0.05446,0.26768,0.36008
-9.24201,0,0,24.242,24.242,5.75799,5.75799,22.9053,0.0889467,-20.6854,-0.181307,0.171024,-0.159075,1,0,15.4,-0.7,-0.4025,-0.22082,-0.205814,-1.09227,-0.05446,0.26768,0.36008
-9.2526,0,0,24.2526,24.2526,5.7474,5.7474,22.931,0.0876358,-20.685,-0.181284,0.171436,-0.15925,1,0,17.8325,-0.5425,0.1225,-0.22082,-0.205814,-1.09227,-0.05446,0.26768,0.36008
-9.26494,0,0,24.2649,24.2649,5.73506,5.73506,22.961,0.0865248,-20.6845,-0.185153,-0.0270264,-0.158101,1,0,20.2825,-0.4375,0.07,-0.224724,-0.404552,-1.09092,-0.05446,0.26768,0.36008
-9.27904,0,0,24.279,24.279,5.72096,5.72096,22.9953,0.0850658,-20.6834,-0.185127,-0.0264742,-0.158335,1,0,22.7325,-0.4725,0.5075,-0.224724,-0.404552,-1.09092,-0.05446,0.26768,0.36008
-9.29355,0,0,24.2936,24.2936,5.70645,5.70645,23.0308,0.0836814,-20.6819,-0.0472167,-0.0811063,0.23326,1,0,23.3275,-0.35,0.6825,-0.086254,-0.459696,-0.70211,-0.05446,0.26768,0.36008
-9.30607,0,0,24.3061,24.3061,5.69393,5.69393,23.0612,0.0818998,-20.6804,-0.0471856,-0.0806175,0.233052,1,0,20.5275,-0.5425,0.8225,-0.086254,-0.459696,-0.70211,-0.05446,0.26768,0.36008
-9.28232,0,0,24.2823,24.2823,5.71768,5.71768,23.001,0.258024,-20.8282,0.112774,0.046156,-0.0522775,0,0,18.795,-0.5075,1.155,0.07747,-0.332084,-0.985638,-0.05446,0.26768,0.36008
-9.25805,0,0,24.258,24.258,5.74195,5.74195,22.9394,0.428941,-20.9756,0.109791,0.04516,-0.0518748,0,0,17.2025,-0.91,0.8575,0.07747,-0.332084,-0.985638,-0.05446,0.26768,0.36008
-9.20734,0,0,24.2073,24.2073,5.79266,5.79266,22.8118,0.836874,-21.2632,0.245539,0.112079,0.0381792,0,0,16.7475,-0.6825,0.8225,0.220942,-0.263154,-0.897066,-0.05586,0.26978,0.3619
-9.19862,0,0,24.1986,24.1986,5.80138,5.80138,22.7891,0.612675,-21.2004,-0.164086,0.059097,-0.0532186,0,0,20.37,-0.42,0.3675,-0.194346,-0.315736,-0.987956,-0.05586,0.26978,0.3619
-9.19126,0,0,24.1913,24.1913,5.80874,5.80874,22.7699,0.394247,-21.1384,-0.160273,0.0588002,-0.0530576,0,0,22.4,-0.4025,-0.0875,-0.194346,-0.315736,-0.987956,-0.05586,0.26978,0.3619
-9.24802,0,0,24.248,24.248,5.75198,5.75198,22.9109,0.490082,-21.2125,0.0873426,-0.137881,-0.0341073,0,0,24.185,-0.2975,-0.5075,0.055998,-0.514474,-0.968192,-0.05586,0.26978,0.3619
-9.30191,0,0,24.3019,24.3019,5.69809,5.69809,23.0448,0.584423,-21.2858,0.0856962,-0.135736,-0.0350336,0,0,21.56,-0.105,-0.7175,0.055998,-0.514474,-0.968192,-0.05586,0.26978,0.3619
-9.34503,0,0,24.345,24.345,5.65497,5.65497,23.1517,0.624202,-21.3362,0.0381084,-0.0646543,0.0334476,0,0,20.755,-1.0325,-0.665,0.008906,-0.445178,-0.899506,-0.05586,0.26978,0.3619
-9.3866,0,0,24.3866,24.3866,5.6134,5.6134,23.2548,0.66468,-21.3854,0.037402,-0.0630044,0.0327317,0,0,19.6875,-0.175,-0.6125,0.008906,-0.445178,-0.899506,-0.05586,0.26978,0.3619
-9.39835,0,0,24.3983,24.3983,5.60165,5.60165,23.2833,0.663689,-21.3854,-0.154042,-0.103094,-0.20205,1,0,19.4425,-0.4725,-0.1925,-0.183366,-0.485682,-1.13228,-0.05586,0.26978,0.3619
-9.41285,0,0,24.4128,24.4128,5.58715,5.58715,23.3186,0.662646,-21.3849,-0.154024,-0.102526,-0.202294,1,0,23.2925,-0.385,0.0875,-0.183366,-0.485682,-1.13228,-0.05586,0.2681,0.36694
-9.42767,0,0,24.4277,24.4277,5.57233,5.57233,23.3548,0.661927,-21.3841,0.0306469,0.156718,0.201464,1,0,23.7475,-0.14,0.175,0.002074,-0.227286,-0.73139,-0.05586,0.2681,0.36694
-9.44376,0,0,24.4438,24.4438,5.55624,5.55624,23.3942,0.660439,-21.3826,0.0306728,0.157348,0.201192,1,0,25.515,-0.4025,0.7,0.002074,-0.227286,-0.73139,-0.05586,0.2681,0.36694
-9.45933,0,0,24.4593,24.4593,5.54067,5.54067,23.4322,0.658718,-21.381,-0.564213,-0.202438,0.00335057,1,0,24.78,-0.49,0.84,-0.59536,-0.587308,-0.927444,-0.05586,0.2681,0.36694
-9.47303,0,0,24.473,24.473,5.52697,5.52697,23.4656,0.656394,-21.3791,-0.564172,-0.201904,0.00311912,1,0,22.1725,-0.7525,1.12,-0.59536,-0.587308,-0.927444,-0.05586,0.2681,0.36694
-9.48588,0,0,24.4859,24.4859,5.51412,5.51412,23.4968,0.654899,-21.377,0.00452862,0.10025,0.112203,1,0,20.965,-0.245,1.0675,-0.024278,-0.285968,-0.818986,-0.05586,0.2681,0.36694
-9.498,0,0,24.498,24.498,5.502,5.502,23.5262,0.652509,-21.3756,0.00457033,0.100721,0.111999,1,0,19.95,-0.8925,0.8925,-0.024278,-0.285968,-0.818986,-0.05586,0.2681,0.36694
-9.51121,0,0,24.5112,24.5112,5.48879,5.48879,23.5584,0.649362,-21.3748,-0.169342,0.143491,-0.286086,1,0,21.4725,-1.4525,0.7175,-0.198982,-0.243756,-1.21378,-0.05586,0.2681,0.36694
-9.52606,0,0,24.5261,24.5261,5.47394,5.47394,23.5946,0.647902,-21.3745,-0.169317,0.144071,-0.286338,1,0,23.7825,-0.665,0.0525,-0.198982,-0.243756,-1.21378,-0.05978,0.27118,0.36414
-9.5419,0,0,24.5419,24.5419,5.4581,5.4581,23.6333,0.646025,-21.3751,0.101872,-0.346626,-0.0750145,1,0,25.1825,-1.085,-0.2975,0.073322,-0.734562,-1.00382,-0.05978,0.27118,0.36414
-9.55764,0,0,24.5576,24.5576,5.44236,5.44236,23.6718,0.643691,-21.3763,0.101913,-0.346011,-0.0752832,1,0,25.025,-1.47,-0.5075,0.073322,-0.734562,-1.00382,-0.05978,0.27118,0.36414
-9.5729,0,0,24.5729,24.5729,5.4271,5.4271,23.7091,0.64123,-21.3776,0.160512,-0.412341,0.0589614,1,0,24.3775,-1.575,-0.56,0.132126,-0.801418,-0.870348,-0.05978,0.27118,0.36414
-9.58664,0,0,24.5866,24.5866,5.41336,5.41336,23.7425,0.640201,-21.3784,0.16053,-0.411806,0.0587267,1,0,22.225,-0.6825,-0.6125,0.132126,-0.801418,-0.870348,-0.05978,0.27118,0.36414
-9.60052,0,0,24.6005,24.6005,5.39948,5.39948,23.7763,0.639094,-21.3789,0.208293,-0.365224,0.119963,1,0,22.4175,-0.6475,-0.42,0.180072,-0.755424,-0.809348,-0.05978,0.27118,0.36414
-9.61542,0,0,24.6154,24.6154,5.38458,5.38458,23.8127,0.637035,-21.3789,0.208329,-0.364643,0.119708,1,0,23.8525,-1.0325,0.0875,0.180072,-0.755424,-0.809348,-0.05978,0.27118,0.36414
-9.63078,0,0,24.6308,24.6308,5.36922,5.36922,23.8502,0.635994,-21.3776,0.382436,0.0173572,0.207475,1,0,24.4825,-0.21,0.4725,0.354898,-0.374418,-0.721996,-0.05978,0.27118,0.36414
-9.64846,0,0,24.6485,24.6485,5.35154,5.35154,23.8935,0.635164,-21.3765,0.382451,0.0180484,0.207169,1,0,27.7375,-0.105,0.4025,0.354898,-0.374418,-0.721996,-0.05348,0.26306,0.36652
-9.64356,0,0,24.6436,24.6436,5.35644,5.35644,23.8804,0.320183,-21.246,-0.223247,0.0863704,-0.0238395,0,0,27.825,0.665,0.7,-0.258884,-0.305976,-0.951356,-0.05348,0.26306,0.36652
-9.63796,0,0,24.638,24.638,5.36204,5.36204,23.8654,0.0107945,-21.1153,-0.217847,0.0861387,-0.0237199,0,0,27.2475,-0.1925,1.505,-0.258884,-0.305976,-0.951356,-0.05348,0.26306,0.36652
-9.6545,0,0,24.6545,24.6545,5.3455,5.3455,23.9059,0.00793392,-21.1129,-0.445097,0.189371,0.251522,1,0,26.145,-0.8925,1.5575,-0.487146,-0.203496,-0.677954,-0.05348,0.26306,0.36652
-9.66886,0,0,24.6689,24.6689,5.33114,5.33114,23.9409,0.00524155,-21.1102,-0.44505,0.189929,0.251274,1,0,23.1,-0.7525,1.6275,-0.487146,-0.203496,-0.677954,-0.05348,0.26306,0.36652
-9.56269,0,0,24.5627,24.5627,5.43731,5.43731,23.6746,-0.200229,-21.0777,-0.184521,0.29339,-0.121602,0,0,23.45,-1.0675,1.225,-0.229116,-0.095892,-1.04981,-0.05348,0.26306,0.36652
-9.45912,0,0,24.4591,24.4591,5.54088,5.54088,23.4148,-0.399815,-21.0444,-0.181038,0.289226,-0.119808,0,0,24.675,-0.0875,0.63,-0.229116,-0.095892,-1.04981,-0.05348,0.26306,0.36652
-9.47631,0,0,24.4763,24.4763,5.52369,5.52369,23.4569,-0.400825,-21.0438,0.317921,0.0204884,-0.447389,1,0,27.0725,-0.3325,0.1575,0.271938,-0.365024,-1.37457,-0.05348,0.26306,0.36652
-9.49363,0,0,24.4936,24.4936,5.50637,5.50637,23.4993,-0.403117,-21.0446,0.317961,0.0211674,-0.447684,1,0,27.2475,-1.365,-0.3325,0.271938,-0.365024,-1.37457,-0.04984,0.25998,0.36708
-9.51167,0,0,24.5117,24.5117,5.48833,5.48833,23.5435,-0.406421,-21.0461,0.561841,-0.241064,-0.625284,1,0,28.245,-2.065,-0.455,0.516792,-0.62769,-1.5505,-0.04984,0.25998,0.36708
-9.52854,0,0,24.5285,24.5285,5.47146,5.47146,23.5848,-0.407891,-21.0466,0.561867,-0.240404,-0.625572,1,0,26.6175,-0.84,-0.3325,0.516792,-0.62769,-1.5505,-0.04984,0.25998,0.36708
-9.54453,0,0,24.5445,24.5445,5.45547,5.45547,23.6239,-0.409042,-21.0471,-0.185493,-0.532394,0.267006,1,0,25.375,-0.6825,-0.4375,-0.233752,-0.920002,-0.664534,-0.04984,0.25998,0.36708
-9.56066,0,0,24.5607,24.5607,5.43934,5.43934,23.6634,-0.409359,-21.0465,-0.185488,-0.531764,0.26673,1,0,25.585,0.035,-0.0175,-0.233752,-0.920002,-0.664534,-0.04984,0.25998,0.36708
-9.5766,0,0,24.5766,24.5766,5.4234,5.4234,23.7023,-0.411535,-21.0461,0.0418499,-0.118108,-0.146404,1,0,25.305,-1.015,0.2975,-0.00549,-0.507398,-1.07421,-0.04984,0.25998,0.36708
-9.59563,0,0,24.5956,24.5956,5.40437,5.40437,23.749,-0.413897,-21.0445,0.0418911,-0.117363,-0.146732,1,0,29.645,-0.84,0.9625,-0.00549,-0.507398,-1.07421,-0.04984,0.25998,0.36708
-9.59922,0,0,24.5992,24.5992,5.40078,5.40078,23.7571,0.0629833,-21.3174,0.333273,-0.00987402,0.0229031,0,0,29.645,-0.56,1.1725,0.295484,-0.40016,-0.90585,-0.04984,0.25998,0.36708
-9.60459,0,0,24.6046,24.6046,5.39541,5.39541,23.7696,0.529052,-21.5978,0.325139,-0.00969058,0.0227764,0,0,32.025,-0.315,1.435,0.295484,-0.40016,-0.90585,-0.05264,0.26908,0.36344
-9.62471,0,0,24.6247,24.6247,5.37529,5.37529,23.819,0.527498,-21.5953,0.307794,-0.0645913,0.594385,1,0,31.15,-0.175,1.295,0.278038,-0.455792,-0.338306,-0.05264,0.26908,0.36344
-9.6418,0,0,24.6418,24.6418,5.3582,5.3582,23.8609,0.52507,-21.5934,0.307836,-0.0639232,0.59409,1,0,26.915,-0.7875,1.1725,0.278038,-0.455792,-0.338306,-0.05264,0.26908,0.36344
-9.54636,0,0,24.5464,24.5464,5.45364,5.45364,23.6214,0.951853,-21.9059,0.237215,0.226171,0.0314745,0,0,26.8625,-1.3125,0.945,0.214598,-0.162138,-0.898164,-0.05264,0.26908,0.36344
-9.45213,0,0,24.4521,24.4521,5.54787,5.54787,23.3849,1.36767,-22.2195,0.229959,0.222329,0.0329853,0,0,25.9875,-1.4525,0.28,0.214598,-0.162138,-0.898164,-0.05264,0.26908,0.36344
-9.47121,0,0,24.4712,24.4712,5.52879,5.52879,23.4317,1.36511,-22.2197,0.355013,0.318949,-0.131597,1,0,29.715,-1.365,0.07,0.340136,-0.066368,-1.06116,-0.05264,0.26908,0.36344
-9.49311,0,0,24.4931,24.4931,5.50689,5.50689,23.4856,1.3636,-22.2206,0.355039,0.319811,-0.131971,1,0,33.6875,-0.9625,-0.56,0.340136,-0.066368,-1.06116,-0.05264,0.26908,0.36344
-9.51579,0,0,24.5158,24.5158,5.48421,5.48421,23.5414,1.36077,-22.2222,-0.0371887,-0.072055,0.206488,1,0,34.7725,-1.8375,-0.63,-0.053802,-0.45872,-0.724924,-0.05264,0.26908,0.36344
-9.53699,0,0,24.537,24.537,5.46301,5.46301,23.5935,1.35759,-22.2242,-0.0371332,-0.0712211,0.206125,1,0,32.7075,-2.1175,-0.7525,-0.053802,-0.45872,-0.724924,-0.05264,0.26908,0.36344
-9.5564,0,0,24.5564,24.5564,5.4436,5.4436,23.6412,1.35549,-22.2254,-0.0533757,-0.0177004,0.245505,1,0,30.1875,-1.3475,-0.5775,-0.07015,-0.406016,-0.685518,-0.05544,0.26362,0.36932
-9.57449,0,0,24.5745,24.5745,5.42551,5.42551,23.6855,1.35455,-22.2257,-0.110215,0.124431,-0.204305,1,0,28.3325,-0.525,-0.385,-0.127246,-0.26474,-1.13155,-0.05544,0.26362,0.36932
-9.59326,0,0,24.5933,24.5933,5.40674,5.40674,23.7315,1.35289,-22.2247,-0.110186,0.125167,-0.204627,1,0,29.26,-0.5775,0.5425,-0.127246,-0.26474,-1.13155,-0.05544,0.26362,0.36932
-9.53004,0,0,24.53,24.53,5.46996,5.46996,23.5726,1.34848,-22.295,-0.0302926,0.172577,-0.110318,0,0,31.7275,-0.7875,1.015,-0.047092,-0.214842,-1.03907,-0.05544,0.26362,0.36932
-9.47079,0,0,24.4708,24.4708,5.52921,5.52921,23.4236,1.34257,-22.3645,-0.0301895,0.170194,-0.109279,0,0,35.63,-1.2775,1.47,-0.047092,-0.214842,-1.03907,-0.05544,0.26362,0.36932
-9.49506,0,0,24.4951,24.4951,5.50494,5.50494,23.4834,1.33953,-22.3615,-0.130969,0.148436,0.064525,1,0,36.96,-0.8925,1.855,-0.148352,-0.237534,-0.8662,-0.05544,0.26362,0.36932
-9.5178,0,0,24.5178,24.5178,5.4822,5.4822,23.5394,1.3354,-22.3587,-0.130898,0.149332,0.0641369,1,0,34.8075,-1.4875,2.065,-0.148352,-0.237534,-0.8662,-0.05544,0.26362,0.36932
-9.53874,0,0,24.5387,24.5387,5.46126,5.46126,23.5908,1.33204,-22.3552,-0.43516,0.286327,0.138901,1,0,32.27,-0.9275,2.24,-0.453962,-0.101504,-0.791658,-0.05544,0.26362,0.36932
-9.55676,0,0,24.5568,24.5568,5.44324,5.44324,23.635,1.32935,-22.3523,-0.435114,0.287034,0.138593,1,0,28.1925,-0.7175,1.715,-0.453962,-0.101504,-0.791658,-0.05376,0.26432,0.37282
-9.57522,0,0,24.5752,24.5752,5.42478,5.42478,23.6803,1.32516,-22.3509,-0.0516317,0.0682962,-0.28737,1,0,28.8225,-1.855,1.3125,-0.06893,-0.320738,-1.21402,-0.05376,0.26432,0.37282
-9.59799,0,0,24.598,24.598,5.40201,5.40201,23.7363,1.32179,-22.3508,-0.0515727,0.0691919,-0.287762,1,0,34.8775,-1.715,0.455,-0.06893,-0.320738,-1.21402,-0.05376,0.26432,0.37282
-9.6226,0,0,24.6226,24.6226,5.3774,5.3774,23.7969,1.31884,-22.3513,0.141276,-0.135745,-0.160936,1,0,37.4675,-1.645,-0.0175,0.124684,-0.52643,-1.08775,-0.05376,0.26432,0.37282
-9.64999,0,0,24.65,24.65,5.35001,5.35001,23.8645,1.31748,-22.3518,0.1413,-0.134666,-0.161411,1,0,41.3525,-0.7875,-0.3675,0.124684,-0.52643,-1.08775,-0.05376,0.26432,0.37282
-9.67642,0,0,24.6764,24.6764,5.32358,5.32358,23.9297,1.31525,-22.3528,-0.264059,-0.138267,-0.0662173,1,0,40.0225,-1.3825,-0.455,-0.28243,-0.531066,-0.992836,-0.05376,0.26432,0.37282
-9.69891,0,0,24.6989,24.6989,5.30109,5.30109,23.985,1.31351,-22.3526,-0.264028,-0.137385,-0.0666086,1,0,34.475,-0.8225,0.105,-0.28243,-0.531066,-0.992836,-0.05376,0.26432,0.37282
-9.71951,0,0,24.7195,24.7195,5.28049,5.28049,24.0356,1.31123,-22.3531,-0.060014,-0.140363,-0.110491,1,0,31.85,-1.2775,-0.14,-0.077592,-0.534848,-1.03602,-0.05376,0.26432,0.37282
-9.73973,0,0,24.7397,24.7397,5.26027,5.26027,24.0853,1.30852,-22.3523,-0.0599667,-0.139572,-0.110843,1,0,31.29,-1.2075,0.63,-0.077592,-0.534848,-1.03602,-0.05572,0.2534,0.37296
-9.7618,0,0,24.7618,24.7618,5.2382,5.2382,24.1395,1.30533,-22.3508,0.123775,0.173204,-0.234054,1,0,33.8625,-1.2775,1.155,0.106872,-0.22326,-1.1579,-0.05572,0.2534,0.37296
-9.78845,0,0,24.7885,24.7885,5.21155,5.21155,24.2052,1.30276,-22.3483,0.12382,0.174251,-0.234523,1,0,40.285,-0.7175,1.505,0.106872,-0.22326,-1.1579,-0.05572,0.2534,0.37296
-9.90739,0,0,24.9074,24.9074,5.09261,5.09261,24.5017,1.16376,-22.2291,-0.0672811,-0.197044,0.0544108,0,0,42.4375,-0.8225,1.5225,-0.087474,-0.598898,-0.869128,-0.05572,0.2534,0.37296
-10.0224,0,0,25.0224,25.0224,5,5,24.7882,1.02798,-22.1124,-0.0649118,-0.19248,0.0523668,0,0,40.39,-1.54,1.75,-0.087474,-0.598898,-0.869128,-0.05572,0.2534,0.37296
-10.0474,0,0,25.0474,25.0474,5,5,24.8498,1.02374,-22.1105,0.130754,-0.389349,-0.0463187,1,0,37.9575,-1.75,1.575,0.108946,-0.796538,-0.966606,-0.05572,0.2534,0.37296
-10.0683,0,0,25.0683,25.0683,5,5,24.901,1.02053,-22.1086,0.13081,-0.388538,-0.046694,1,0,32.1825,-1.1725,1.3825,0.108946,-0.796538,-0.966606,-0.05572,0.2534,0.37296
-10.0888,0,0,25.0888,25.0888,5,5,24.9515,1.01753,-22.1069,0.126003,-0.11674,-0.127964,1,0,31.71,-1.12,1.2075,0.104066,-0.52582,-1.04688,-0.05572,0.2534,0.37296
-10.1128,0,0,25.1128,25.1128,5,5,25.0105,1.01479,-22.1064,0.126051,-0.115807,-0.128398,1,0,36.54,-1.2775,0.5075,0.104066,-0.52582,-1.04688,-0.0574,0.2534,0.37506
-10.0626,0,0,25.0626,25.0626,5,5,24.8842,1.68699,-22.4895,0.467603,0.11412,0.00026992,0,0,41.02,-1.995,0.21,0.458842,-0.29402,-0.91988,-0.0574,0.2534,0.37506
-10.0167,0,0,25.0167,25.0167,5,5,24.7684,2.34376,-22.8708,0.456147,0.112118,0.000751669,0,0,45.4825,-1.575,-0.2625,0.458842,-0.29402,-0.91988,-0.0574,0.2534,0.37506
-10.1233,0,0,25.1233,25.1233,5,5,25.0339,2.28403,-22.8049,-0.0147834,-0.129384,0.108388,0,0,44.695,-1.7325,-0.0875,-0.015128,-0.539484,-0.811178,-0.0574,0.2534,0.37506
-10.2235,0,0,25.2235,25.2235,5,5,25.2835,2.22828,-22.74,-0.013811,-0.125428,0.106572,0,0,38.78,-0.875,-0.28,-0.015128,-0.539484,-0.811178,-0.0574,0.2534,0.37506
-10.1923,0,0,25.1923,25.1923,5,5,25.2045,2.56281,-22.9457,0.216281,0.0801047,-0.0281817,0,0,34.65,-0.91,0.14,0.221796,-0.332816,-0.945256,-0.0574,0.2534,0.37506
-10.1618,0,0,25.1618,25.1618,5,5,25.1274,2.88719,-23.1489,0.210625,0.0787733,-0.0278536,0,0,34.475,-1.3825,1.05,0.221796,-0.332816,-0.945256,-0.0574,0.2534,0.37506
-9.88521,0,0,24.8852,24.8852,5.11479,5.11479,24.435,3.38509,-23.6005,0.237422,0.692908,-0.0365063,0,0,36.3825,-1.82,1.4175,0.25742,0.291824,-0.958432,-0.0574,0.2534,0.37506
-9.62001,0,0,24.62,24.62,5.37999,5.37999,23.7711,3.86463,-24.0557,0.22907,0.682137,-0.0322669,0,0,46.06,-1.645,2.5725,0.25742,0.291824,-0.958432,-0.05362,0.24752,0.3794
-9.65287,0,0,24.6529,24.6529,5.34713,5.34713,23.8524,3.86225,-24.0513,-0.170334,0.0243146,0.230151,1,0,48.86,-0.175,2.485,-0.143716,-0.36661,-0.697474,-0.05362,0.24752,0.3794
-9.68494,0,0,24.6849,24.6849,5.31506,5.31506,23.9316,3.85961,-24.0483,-0.170288,0.0255778,0.229595,1,0,47.7925,-0.665,1.75,-0.143716,-0.36661,-0.697474,-0.05362,0.24752,0.3794
-9.71514,0,0,24.7151,24.7151,5.28486,5.28486,24.0062,3.85707,-24.0464,0.224342,0.227054,0.287593,1,0,45.22,-0.84,1.2075,0.25254,-0.16653,-0.639402,-0.05362,0.24752,0.3794
-9.73951,0,0,24.7395,24.7395,5.26049,5.26049,24.0663,3.85185,-24.0454,0.224433,0.228011,0.287173,1,0,37.0825,-2.5025,1.33,0.25254,-0.16653,-0.639402,-0.05362,0.24752,0.3794
-9.60157,0,0,24.6016,24.6016,5.39843,5.39843,23.7205,3.84475,-24.1718,-0.061664,0.364543,-0.176601,0,0,36.2075,-1.82,1.3475,-0.034892,-0.024644,-1.10203,-0.05362,0.24752,0.3794
-9.46833,0,0,24.4683,24.4683,5.53167,5.53167,23.3865,3.83766,-24.2994,-0.0615404,0.359215,-0.17427,0,0,39.4975,-1.715,0.1575,-0.034892,-0.024644,-1.10203,-0.05362,0.24752,0.3794
-9.49852,0,0,24.4985,24.4985,5.50148,5.50148,23.4611,3.83345,-24.3,-0.0179752,0.378484,-0.533176,1,0,45.3075,-2.345,0.2275,0.008784,-0.006588,-1.45766,-0.05362,0.24752,0.3794
-9.53304,0,0,24.533,24.533,5.46696,5.46696,23.5466,3.82951,-24.3014,-0.0179066,0.37985,-0.533765,1,0,51.415,-2.38,-0.245,0.008784,-0.006588,-1.45766,-0.05362,0.24752,0.3794
-9.56741,0,0,24.5674,24.5674,5.43259,5.43259,23.6316,3.82545,-24.3032,-0.104212,-0.0831171,0.181698,1,0,51.205,-2.5375,-0.4375,-0.077958,-0.470432,-0.747128,-0.05572,0.25144,0.38038
-9.51399,0,0,24.514,24.514,5.48601,5.48601,23.4972,4.30344,-24.625,0.306106,0.145565,0.00689043,0,0,44.7125,-0.91,-0.4725,0.342454,-0.239608,-0.920978,-0.05572,0.25144,0.38038
-9.45812,0,0,24.4581,24.4581,5.54188,5.54188,23.3566,4.76734,-24.944,0.298035,0.143067,0.00727523,0,0,39.62,-1.68,0.7,0.342454,-0.239608,-0.920978,-0.05572,0.25144,0.38038
-9.48303,0,0,24.483,24.483,5.51697,5.51697,23.418,4.76539,-24.9416,0.588055,-0.0457369,0.134229,1,0,37.7825,-0.4375,1.295,0.633668,-0.429196,-0.794586,-0.05572,0.25144,0.38038
-9.5095,0,0,24.5095,24.5095,5.4905,5.4905,23.4833,4.76033,-24.9387,0.588143,-0.0446922,0.133783,1,0,39.935,-1.995,2.275,0.633668,-0.429196,-0.794586,-0.05572,0.25144,0.38038
-9.55532,0,0,24.5553,24.5553,5.44468,5.44468,23.597,5.70056,-25.4178,0.590146,0.0213707,0.409118,0,0,49.1575,-1.26,2.87,0.65209,-0.364414,-0.519232,-0.05572,0.25144,0.38038
-9.60409,0,0,24.6041,24.6041,5.39591,5.39591,23.718,6.62363,-25.8872,0.574128,0.0226004,0.406691,0,0,53.55,-0.35,2.6075,0.65209,-0.364414,-0.519232,-0.05572,0.25144,0.38038
-9.64126,0,0,24.6413,24.6413,5.35874,5.35874,23.81,6.62166,-25.8827,-0.293731,-0.515738,0.158064,1,0,54.775,0.0525,2.415,-0.219478,-0.903654,-0.765306,-0.05572,0.25144,0.38038
-9.676,0,0,24.676,24.676,5.324,5.324,23.896,6.61825,-25.8803,-0.293672,-0.514372,0.157468,1,0,51.5025,-1.2075,1.645,-0.219478,-0.903654,-0.765306,-0.05684,0.2436,0.38164
-9.70649,0,0,24.7065,24.7065,5.29351,5.29351,23.9713,6.6116,-25.8789,0.00384007,-0.179401,-0.0257509,1,0,45.605,-3.1675,1.89,0.079178,-0.570228,-0.946598,-0.05684,0.2436,0.38164
-9.73645,0,0,24.7364,24.7364,5.26355,5.26355,24.0453,6.60675,-25.8763,0.00392418,-0.178225,-0.026264,1,0,44.7825,-1.9075,2.135,0.079178,-0.570228,-0.946598,-0.05684,0.2436,0.38164
-9.76757,0,0,24.7676,24.7676,5.23243,5.23243,24.1222,6.60072,-25.8754,-0.55602,0.254105,-0.758463,1,0,46.515,-2.9575,1.47,-0.483242,-0.139568,-1.67262,-0.05684,0.2436,0.38164
-9.801,0,0,24.801,24.801,5.199,5.199,24.2049,6.59718,-25.8753,-0.555959,0.255415,-0.759044,1,0,49.805,-1.8025,0.49,-0.483242,-0.139568,-1.67262,-0.05684,0.2436,0.38164
-9.83761,0,0,24.8376,24.8376,5.16239,5.16239,24.2955,6.59294,-25.8757,-0.0404216,0.212886,-0.334771,1,0,54.3025,-2.31,0.3675,0.034404,-0.183488,-1.25099,-0.05684,0.2436,0.38164
-9.87515,0,0,24.8751,24.8751,5.12485,5.12485,24.3884,6.58973,-25.8775,-0.0403659,0.214356,-0.33543,1,0,55.685,-2.1,-0.63,0.034404,-0.183488,-1.25099,-0.05684,0.2436,0.38164
-9.90993,0,0,24.9099,24.9099,5.09007,5.09007,24.4745,6.58798,-25.8789,0.161938,0.404646,0.12735,1,0,51.7825,-1.19,-0.7,0.237534,0.005246,-0.79117,-0.05684,0.2436,0.38164
-9.9422,0,0,24.9422,24.9422,5.0578,5.0578,24.5542,6.58267,-25.8789,0.16203,0.405908,0.126786,1,0,48.1775,-2.7825,0.84,0.237534,0.005246,-0.79117,-0.05558,0.2338,0.38668
-9.88765,0,0,24.8876,24.8876,5.11235,5.11235,24.4169,6.4791,-25.9105,-0.100527,0.183633,-0.136134,0,0,46.795,-2.5025,1.7325,-0.027938,-0.21472,-1.05323,-0.05558,0.2338,0.38668
-9.83543,0,0,24.8354,24.8354,5.16457,5.16457,24.2855,6.37734,-25.9417,-0.0987619,0.181637,-0.135013,0,0,48.755,-2.625,1.575,-0.027938,-0.21472,-1.05323,-0.05558,0.2338,0.38668
-9.55742,0,0,24.5574,24.5574,5.44258,5.44258,23.5896,6.50336,-26.2761,-0.0485872,0.774057,-0.0732933,0,0,53.4275,-0.245,2.5025,0.024644,0.388204,-0.996618,-0.05558,0.2338,0.38668
-9.28434,0,0,24.2843,24.2843,5.71566,5.71566,22.906,6.62386,-26.6118,-0.0506765,0.763072,-0.068836,0,0,55.545,-0.6125,3.7275,0.024644,0.388204,-0.996618,-0.05558,0.2338,0.38668
-9.24711,0,0,24.2471,24.2471,5.75289,5.75289,22.8121,6.43382,-26.5951,-0.162793,0.187233,-0.076831,0,0,57.4875,-1.365,2.9575,-0.091256,-0.185684,-1.00552,-0.05558,0.2338,0.38668
-9.20855,0,0,24.2086,24.2086,5.79145,5.79145,22.7148,6.24784,-26.5806,-0.159566,0.185817,-0.0758478,0,0,55.055,-1.925,1.3825,-0.091256,-0.185684,-1.00552,-0.05558,0.2338,0.38668
-9.28197,0,0,24.282,24.282,5.71803,5.71803,22.8975,6.01417,-26.4415,-0.151624,-0.0808701,-0.0429871,0,0,52.4125,-2.8525,1.6625,-0.087352,-0.455182,-0.972096,-0.05558,0.2338,0.38668
-9.35339,0,0,24.3534,24.3534,5.64661,5.64661,23.0752,5.7905,-26.2999,-0.147741,-0.0778735,-0.0438222,0,0,52.15,-0.49,2.1875,-0.087352,-0.455182,-0.972096,-0.05404,0.23198,0.38948
-9.38988,0,0,24.3899,24.3899,5.61012,5.61012,23.1656,5.78881,-26.2965,-0.343425,-0.210158,0.447235,1,0,53.935,-0.07,1.785,-0.283894,-0.588772,-0.484218,-0.05404,0.23198,0.38948
-9.42794,0,0,24.4279,24.4279,5.57206,5.57206,23.2598,5.78478,-26.2946,-0.343355,-0.208651,0.446597,1,0,56.21,-1.68,1.505,-0.283894,-0.588772,-0.484218,-0.05404,0.23198,0.38948
-9.46805,0,0,24.468,24.468,5.53195,5.53195,23.3592,5.77804,-26.2945,-0.668698,-0.0507389,0.00171177,1,0,59.185,-3.5525,1.1725,-0.610732,-0.432612,-0.925004,-0.05404,0.23198,0.38948
-9.50965,0,0,24.5096,24.5096,5.49035,5.49035,23.4623,5.77296,-26.2958,-0.66861,-0.0490921,0.00100847,1,0,61.355,-2.975,0.0525,-0.610732,-0.432612,-0.925004,-0.05404,0.23198,0.38948
-9.55036,0,0,24.5504,24.5504,5.44964,5.44964,23.5632,5.77088,-26.2959,-0.0322318,-0.620136,-0.0589484,1,0,60.0425,-1.085,0,0.028304,-1.00467,-0.983808,-0.05404,0.23198,0.38948
-9.58944,0,0,24.5894,24.5894,5.41056,5.41056,23.66,5.76582,-26.2947,-0.0321439,-0.618593,-0.0596135,1,0,57.6625,-2.3625,1.435,0.028304,-1.00467,-0.983808,-0.05404,0.23198,0.38948
-9.71595,0,0,24.7159,24.7159,5.28405,5.28405,23.9754,5.52932,-26.098,-0.13543,-0.186462,0.034323,0,0,52.99,-2.695,1.8725,-0.079544,-0.578158,-0.88877,-0.05404,0.23198,0.38948
-9.84071,0,0,24.8407,24.8407,5.15929,5.15929,24.2864,5.30052,-25.9067,-0.131454,-0.181377,0.0324578,0,0,54.88,-2.59,2.275,-0.079544,-0.578158,-0.88877,-0.04844,0.23114,0.3934
-9.8803,0,0,24.8803,24.8803,5.1197,5.1197,24.3845,5.29462,-25.9037,-0.137304,0.525095,-0.703099,1,0,58.2925,-2.3625,2.59,-0.085522,0.126026,-1.61796,-0.04844,0.23114,0.3934
-9.92446,0,0,24.9245,24.9245,5.07554,5.07554,24.494,5.28918,-25.9005,-0.13721,0.526831,-0.703878,1,0,64.68,-2.065,2.59,-0.085522,0.126026,-1.61796,-0.04844,0.23114,0.3934
-9.96923,0,0,24.9692,24.9692,5.03077,5.03077,24.605,5.28582,-25.8986,-0.443417,-0.096212,-0.0976782,1,0,65.6075,-1.2775,1.3825,-0.393084,-0.498126,-1.01565,-0.04844,0.23114,0.3934
-10.0104,0,0,25.0104,25.0104,5,5,24.707,5.28118,-25.8972,-0.443336,-0.0945972,-0.0984112,1,0,60.6025,-2.0825,1.4175,-0.393084,-0.498126,-1.01565,-0.04844,0.23114,0.3934
-10.0507,0,0,25.0507,25.0507,5,5,24.8067,5.27722,-25.8947,-0.152309,0.771269,-0.198473,1,0,59.2025,-1.4175,1.9075,-0.100894,0.365268,-1.11423,-0.04844,0.23114,0.3934
-10.0928,0,0,25.0928,25.0928,5,5,24.9111,5.26919,-25.8928,-0.15217,0.772922,-0.199225,1,0,61.9325,-3.745,2.5375,-0.100894,0.365268,-1.11423,-0.04844,0.23114,0.3934
-10.1332,0,0,25.1332,25.1332,5,5,25.0112,5.26713,-25.8889,-0.277993,-0.00967516,-0.181759,1,0,59.395,-0.07,2.1525,-0.227286,-0.418094,-1.09617,-0.04844,0.23114,0.3934
-10.1744,0,0,25.1744,25.1744,5,5,25.1133,5.26481,-25.8869,-0.277953,-0.00806628,-0.182508,1,0,60.6025,-0.6825,1.19,-0.227286,-0.418094,-1.09617,-0.04844,0.23114,0.3934
-10.2081,0,0,25.2081,25.2081,5,5,25.1966,5.57947,-26.0257,0.202401,0.0176918,0.0796405,0,0,64.785,0.1575,0.8925,0.260592,-0.39345,-0.834968,-0.05152,0.22764,0.40208
-10.2428,0,0,25.2428,25.2428,5,5,25.2823,5.88187,-26.1661,0.19715,0.0188141,0.0785289,0,0,66.745,-3.2725,0.28,0.260592,-0.39345,-0.834968,-0.05152,0.22764,0.40208
-10.2504,0,0,25.2504,25.2504,5,5,25.3004,6.29533,-26.3854,0.273678,0.0565078,0.0571704,0,0,65.695,-3.4825,0.4375,0.34465,-0.355752,-0.855342,-0.05152,0.22764,0.40208
-10.2561,0,0,25.2561,25.2561,5,5,25.3137,6.69881,-26.6008,0.266681,0.0563754,0.0563516,0,0,62.5975,-3.0625,1.3125,0.34465,-0.355752,-0.855342,-0.05152,0.22764,0.40208
-10.1186,0,0,25.1186,25.1186,5,5,24.969,6.9866,-26.8952,0.1215,0.381677,-0.0121017,0,0,63.1925,-3.6575,2.275,0.203862,-0.025132,-0.925248,-0.05152,0.22764,0.40208
-9.98405,0,0,24.984,24.984,5.01595,5.01595,24.6317,7.27061,-27.1873,0.116581,0.376117,-0.0102101,0,0,63.98,-0.875,2.87,0.203862,-0.025132,-0.925248,-0.05152,0.22764,0.40208
-9.98128,0,0,24.9813,24.9813,5.01872,5.01872,24.6238,6.97774,-27.0861,-0.21389,0.165833,0.028168,0,0,66.0625,-2.4675,2.6775,-0.133102,-0.235338,-0.887794,-0.05152,0.22764,0.40208
-9.97993,0,0,24.9799,24.9799,5.02007,5.02007,24.6195,6.69195,-26.9859,-0.208938,0.166012,0.0287388,0,0,68.495,-2.3625,1.9425,-0.133102,-0.235338,-0.887794,-0.05152,0.22764,0.40208
-10.0273,0,0,25.0273,25.0273,5,5,24.7371,6.68477,-26.985,-0.421899,-0.653311,0.682479,1,0,69.3,-3.5525,1.785,-0.34709,-1.05567,-0.238266,-0.0574,0.21756,0.40082
-10.0748,0,0,25.0748,25.0748,5,5,24.8549,6.6784,-26.9851,0.0300164,0.324952,-0.209373,1,0,69.51,-3.3425,1.1025,0.106628,-0.080276,-1.1224,-0.0574,0.21756,0.40082
-10.1224,0,0,25.1224,25.1224,5,5,24.9728,6.67018,-26.9862,0.0301588,0.326814,-0.21022,1,0,69.685,-4.5675,1.0325,0.106628,-0.080276,-1.1224,-0.0574,0.21756,0.40082
-10.1709,0,0,25.1709,25.1709,5,5,25.0932,6.66355,-26.9855,-0.0440755,0.0814032,0.200664,1,0,70.8925,-3.29,1.575,0.031964,-0.327326,-0.713822,-0.0574,0.21756,0.40082
-10.22,0,0,25.22,25.22,5,5,25.215,6.65814,-26.9838,-0.0439816,0.0833186,0.199777,1,0,71.6275,-2.3975,1.8025,0.031964,-0.327326,-0.713822,-0.0574,0.21756,0.40082
-10.2692,0,0,25.2692,25.2692,5,5,25.3371,6.65285,-26.9819,-0.434224,0.107343,0.170973,1,0,71.8375,-2.275,1.8725,-0.360022,-0.305244,-0.741516,-0.0574,0.21756,0.40082
-10.3158,0,0,25.3158,25.3158,5,5,25.4526,6.64817,-26.9813,-0.434142,0.109156,0.170123,1,0,68.18,-2.2575,1.085,-0.360022,-0.305244,-0.741516,-0.0574,0.21756,0.40082
-10.363,0,0,25.363,25.363,5,5,25.5697,6.64071,-26.9815,0.0931134,-0.598318,0.472208,1,0,69.09,-3.9375,1.3475,0.169336,-1.01382,-0.440908,-0.0574,0.21756,0.40082
-10.4109,0,0,25.4109,25.4109,5,5,25.6885,6.63797,-26.9792,0.0931608,-0.596458,0.471321,1,0,69.9475,-0.805,1.47,0.169336,-1.01382,-0.440908,-0.05544,0.20888,0.41062
-10.4607,0,0,25.4607,25.4607,5,5,25.8121,6.63399,-26.977,0.451613,-0.29507,-0.185286,1,0,72.6075,-1.4875,1.7325,0.529236,-0.714676,-1.09153,-0.05544,0.20888,0.41062
-10.5119,0,0,25.5119,25.5119,5,5,25.939,6.62973,-26.9706,0.451686,-0.293088,-0.186239,1,0,74.1825,-0.5775,3.955,0.529236,-0.714676,-1.09153,-0.05544,0.20888,0.41062
-10.5632,0,0,25.5632,25.5632,5,5,26.0662,6.62376,-26.9639,-0.227436,-0.469527,-0.079246,1,0,74.3575,-1.365,4.62,-0.152866,-0.892918,-0.984418,-0.05544,0.20888,0.41062
-10.6134,0,0,25.6134,25.6134,5,5,26.1908,6.61836,-26.9595,-0.227343,-0.467582,-0.0801879,1,0,73.0625,-1.645,3.2725,-0.152866,-0.892918,-0.984418,-0.05544,0.20888,0.41062
-10.3706,0,0,25.3706,25.3706,5,5,25.5828,7.07723,-27.4154,0.240322,0.689442,-0.101282,0,0,71.4875,-1.8025,2.8875,0.324764,0.272792,-1.00906,-0.05544,0.20888,0.41062
-10.1353,0,0,25.1353,25.1353,5,5,24.9938,7.52186,-27.8777,0.232625,0.679802,-0.097818,0,0,78.54,-4.165,3.71,0.324764,0.272792,-1.00906,-0.05544,0.20888,0.41062
-10.1896,0,0,25.1896,25.1896,5,5,25.1285,7.51599,-27.8738,-0.461807,0.322623,0.273249,1,0,78.7325,-2.1,3.0625,-0.37271,-0.086132,-0.63989,-0.05544,0.20888,0.41062
-10.2459,0,0,25.2459,25.2459,5,5,25.2684,7.50536,-27.8732,-0.461623,0.324823,0.27224,1,0,81.83,-5.425,2.5375,-0.37271,-0.086132,-0.63989,-0.05082,0.20734,0.41146
-10.3012,0,0,25.3012,25.3012,5,5,25.4056,7.49779,-27.8703,-0.236501,-0.0557692,-0.0915813,1,0,80.185,-3.2375,2.9575,-0.146766,-0.46848,-0.999912,-0.05082,0.20734,0.41146
-10.3553,0,0,25.3553,25.3553,5,5,25.5398,7.48855,-27.8668,-0.236341,-0.0536629,-0.0925614,1,0,78.47,-3.9375,3.7625,-0.146766,-0.46848,-0.999912,-0.05082,0.20734,0.41146
-10.4084,0,0,25.4084,25.4084,5,5,25.6715,7.4829,-27.8634,-0.0529215,0.563917,0.101462,1,0,77.0525,-2.065,2.7825,0.037332,0.1464,-0.80642,-0.05082,0.20734,0.41146
-10.4602,0,0,25.4602,25.4602,5,5,25.8002,7.47505,-27.8637,-0.0527856,0.565929,0.100511,1,0,75.6,-4.1825,1.365,0.037332,0.1464,-0.80642,-0.05082,0.20734,0.41146
-10.5147,0,0,25.5147,25.5147,5,5,25.9355,7.46265,-27.8639,-0.0327689,0.0486435,-0.262446,1,0,79.345,-6.5275,2.625,0.057218,-0.372466,-1.16559,-0.05082,0.20734,0.41146
-10.5728,0,0,25.5728,25.5728,5,5,26.0798,7.45878,-27.8642,-0.032702,0.0508917,-0.263533,1,0,84.385,-2.03,0.455,0.057218,-0.372466,-1.16559,-0.05082,0.20734,0.41146
-10.6343,0,0,25.6343,25.6343,5,5,26.2326,7.4517,-27.8655,-0.233031,0.193596,0.226987,1,0,89.25,-4.0075,0.7,-0.144082,-0.232288,-0.67771,-0.05082,0.20734,0.41146
-10.6936,0,0,25.6936,25.6936,5,5,26.3797,7.44733,-27.8604,-0.232955,0.195882,0.225868,1,0,85.54,-0.91,3.3775,-0.144082,-0.232288,-0.67771,-0.0588,0.20482,0.41832
-10.751,0,0,25.751,25.751,5,5,26.5223,7.44036,-27.8562,-0.27086,-0.470666,0.0232696,1,0,83.1425,-2.52,3.5525,-0.182268,-0.90036,-0.877668,-0.0588,0.20482,0.41832
-10.8026,0,0,25.8026,25.8026,5,5,26.6502,7.43867,-27.8533,-0.27083,-0.468685,0.0222825,1,0,74.9525,-0.07,1.5225,-0.182268,-0.90036,-0.877668,-0.0588,0.20482,0.41832
-10.8549,0,0,25.8549,25.8549,5,5,26.78,7.43296,-27.8512,0.403878,-0.616035,-0.598376,1,0,76.055,-2.3975,2.1175,0.495198,-1.04957,-1.49255,-0.0588,0.20482,0.41832
-10.912,0,0,25.912,25.912,5,5,26.9217,7.42715,-27.8472,0.403979,-0.613841,-0.599472,1,0,82.635,-1.925,3.185,0.495198,-1.04957,-1.49255,-0.0588,0.20482,0.41832
-10.9718,0,0,25.9718,25.9718,5,5,27.0703,7.42046,-27.846,-0.535476,-0.638899,-1.1357,1,0,86.6775,-3.115,1.96,-0.44835,-1.07689,-2.02349,-0.0588,0.20482,0.41832
-11.0407,0,0,26.0407,26.0407,5,5,27.2415,7.41424,-27.843,-0.535368,-0.636256,-1.13704,1,0,99.2425,-2.38,2.8,-0.44835,-1.07689,-2.02349,-0.0588,0.20482,0.41832
-11.2808,0,0,26.2808,26.2808,5,5,27.8408,6.04242,-27.0318,-0.911157,0.0946763,0.582541,0,0,92.785,-2.1525,2.975,-0.849608,-0.357216,-0.314882,-0.0588,0.20482,0.41832
-11.5077,0,0,26.5077,26.5077,5,5,28.4069,4.68641,-26.2207,-0.887594,0.104395,0.579855,0,0,84.315,-2.6075,2.1175,-0.849608,-0.357216,-0.314882,-0.05432,0.19222,0.42392
-11.5623,0,0,26.5623,26.5623,5,5,28.5423,4.68321,-26.2176,0.445159,0.763631,0.402551,1,0,79.24,-0.735,2.03,0.488732,0.299266,-0.489708,-0.05432,0.19222,0.42392
-11.621,0,0,26.621,26.621,5,5,28.6879,4.66741,-26.2186,0.445434,0.765865,0.401358,1,0,85.1375,-8.3475,3.4825,0.488732,0.299266,-0.489708,-0.05432,0.19222,0.42392
-11.2967,0,0,26.2967,26.2967,5,5,27.8761,4.46476,-26.4622,-0.283842,1.24878,0.192277,0,0,82.705,-4.97,2.2925,-0.247172,0.793976,-0.704062,-0.05432,0.19222,0.42392
-10.9875,0,0,25.9875,25.9875,5,5,27.1021,4.26039,-26.7048,-0.280285,1.23696,0.198735,0,0,101.955,-5.6875,2.38,-0.247172,0.793976,-0.704062,-0.05432,0.19222,0.42392
-11.0608,0,0,26.0608,26.0608,5,5,27.2844,4.25292,-26.7031,-0.500166,-0.209367,-0.225527,1,0,105.595,-3.3775,2.45,-0.468114,-0.653676,-1.12362,-0.05432,0.19222,0.42392
-11.1277,0,0,26.1277,26.1277,5,5,27.4507,4.24683,-26.6981,-0.50006,-0.206794,-0.22685,1,0,96.46,-1.785,3.7625,-0.468114,-0.653676,-1.12362,-0.05432,0.19222,0.42392
-11.1908,0,0,26.1908,26.1908,5,5,27.6073,4.24051,-26.6941,-0.650592,2.01687,-0.9819,1,0,91.14,-2.135,3.36,-0.619394,1.56526,-1.8716,-0.05432,0.19222,0.42392
-11.2484,0,0,26.2484,26.2484,5,5,27.7503,4.23256,-26.6933,-0.650454,2.01908,-0.983047,1,0,83.5975,-3.85,2.135,-0.619394,1.56526,-1.8716,-0.05432,0.19222,0.42392
-11.3089,0,0,26.3089,26.3089,5,5,27.9004,4.22137,-26.6931,0.185198,0.907477,-0.742537,1,0,87.605,-5.6875,2.73,0.2196,0.452498,-1.63175,-0.0581,0.1813,0.42392
-11.3712,0,0,26.3712,26.3712,5,5,28.0553,4.21059,-26.6926,0.185386,0.909864,-0.743789,1,0,90.265,-5.3725,2.8,0.2196,0.452498,-1.63175,-0.0581,0.1813,0.42392
-11.4494,0,0,26.4494,26.4494,5,5,28.2496,4.1986,-26.6898,0.749896,-0.455577,0.145636,1,0,112.28,-5.355,4.3225,0.78629,-0.914512,-0.747616,-0.0581,0.1813,0.42392
-11.5275,0,0,26.5275,26.5275,5,5,28.4439,4.1866,-26.687,0.750104,-0.452593,0.144044,1,0,112.28,-5.355,4.3225,0.78629,-0.914512,-0.747616,-0.0581,0.1813,0.42392
-11.6024,0,0,26.6024,26.6024,5,5,28.6299,4.17873,-26.683,-0.993443,-1.35653,-0.198922,1,0,107.608,-2.8875,3.7975,-0.964776,-1.82036,-1.08641,-0.0581,0.1813,0.42392
-11.6772,0,0,26.6772,26.6772,5,5,28.8159,4.17084,-26.6791,-0.993305,-1.35369,-0.20047,1,0,107.608,-2.8875,3.7975,-0.964776,-1.82036,-1.08641,-0.0581,0.1813,0.42392
-11.7356,0,0,26.7356,26.7356,5,5,28.9607,4.16054,-26.6766,0.097937,-1.10429,-0.756419,1,0,84.5075,-4.515,3.7625,0.130906,-1.57343,-1.63687,-0.0581,0.1813,0.42392
-11.7939,0,0,26.7939,26.7939,5,5,29.1054,4.15023,-26.6741,0.0981165,-1.10208,-0.75763,1,0,84.5075,-4.515,3.7625,0.130906,-1.57343,-1.63687,-0.0581,0.1813,0.42392
-11.8527,0,0,26.8527,26.8527,5,5,29.2513,4.14266,-26.6687,-0.262807,0.159509,0.814389,1,0,85.05,-2.2925,4.445,-0.231678,-0.31537,-0.075762,-0.05278,0.17262,0.4389
-11.9407,0,0,26.9407,26.9407,5,5,29.4702,4.13049,-26.6653,1.00936,1.33794,0.710487,1,0,126.035,-5.1625,4.8125,1.04566,0.858514,-0.177022,-0.05278,0.17262,0.4389
-12.019,0,0,27.019,27.019,5,5,29.665,4.11837,-26.663,1.00957,1.3409,0.708826,1,0,112.595,-5.46,4.2175,1.04566,0.858514,-0.177022,-0.05278,0.17262,0.4389
-12.0932,0,0,27.0932,27.0932,5,5,29.8493,4.11225,-26.6581,1.32712,2.49253,-0.429664,1,0,106.593,-1.6275,3.8325,1.36445,2.00617,-1.30516,-0.05278,0.17262,0.4389
-12.1539,0,0,27.1539,27.1539,5,5,29.9999,4.10025,-26.6561,1.32733,2.49481,-0.430959,1,0,87.7975,-5.4425,4.095,1.36445,2.00617,-1.30516,-0.05278,0.17262,0.4389
-12.2205,0,0,27.2205,27.2205,5,5,30.1653,4.08843,-26.6529,0.569828,0.297322,-1.60606,1,0,96.11,-5.005,4.62,0.603534,-0.19154,-2.46977,-0.05278,0.17262,0.4389
-12.2829,0,0,27.2829,27.2829,5,5,30.3201,4.08059,-26.6524,0.569964,0.299655,-1.60741,1,0,90.23,-3.7625,2.135,0.603534,-0.19154,-2.46977,-0.05278,0.17262,0.4389
-12.3618,0,0,27.3618,27.3618,5,5,30.5163,4.06252,-26.652,0.410647,-0.60821,0.297324,1,0,113.435,-8.9425,5.1275,0.443226,-1.10142,-0.578036,-0.05278,0.17262,0.4389
-12.4559,0,0,27.4559,27.4559,5,5,30.7503,4.04927,-26.6493,0.410877,-0.604696,0.295263,1,0,134.558,-5.81,4.8825,0.443226,-1.10142,-0.578036,-0.05026,0.17178,0.44968
-12.545,0,0,27.545,27.545,5,5,30.972,4.03838,-26.6488,1.43483,-1.41315,1.96293,1,0,127.75,-5.2675,3.08,1.47132,-1.91235,1.07872,-0.05026,0.17178,0.44968
-12.6162,0,0,27.6162,27.6162,5,5,31.1487,4.03672,-26.6454,1.43486,-1.41052,1.96135,1,0,102.358,0.245,1.7675,1.47132,-1.91235,1.07872,-0.05026,0.17178,0.44968
-12.6799,0,0,27.6799,27.6799,5,5,31.3068,4.02826,-26.6428,0.332035,-0.989995,0.57922,1,0,92.0325,-3.4125,3.395,0.363682,-1.49462,-0.291336,-0.05026,0.17178,0.44968
-12.7512,0,0,27.7512,27.7512,5,5,31.4839,4.02225,-26.641,0.332139,-0.98736,0.57762,1,0,102.673,-2.3975,2.2925,0.363682,-1.49462,-0.291336,-0.05026,0.17178,0.44968
-12.8162,0,0,27.8162,27.8162,5,5,31.6452,4.01518,-26.6438,0.132904,1.86291,-0.945823,1,0,94.0275,-4.3225,0.35,0.16348,1.3503,-1.80157,-0.05026,0.17178,0.44968
-12.9083,0,0,27.9083,27.9083,5,5,31.8742,4.00162,-26.6377,0.13314,1.86631,-0.947906,1,0,131.565,-4.795,6.8075,0.16348,1.3503,-1.80157,-0.05026,0.17178,0.44968
-13.0053,0,0,28.0053,28.0053,5,5,32.1156,3.98803,-26.6328,-1.3185,1.08363,-0.91471,1,0,138.635,-5.1975,6.16,-1.29454,0.56486,-1.76644,-0.05026,0.17178,0.44968
-13.0903,0,0,28.0903,28.0903,5,5,32.3268,3.98553,-26.6314,-1.31846,1.08674,-0.916668,1,0,121.8,-0.735,1.05,-1.29454,0.56486,-1.76644,-0.04914,0.15638,0.45024
-13.1656,0,0,28.1656,28.1656,5,5,32.5138,3.98661,-26.6292,-1.1456,2.08849,0.543934,1,0,108.273,1.2775,0.315,-1.12094,1.56282,-0.31537,-0.04914,0.15638,0.45024
-13.2386,0,0,28.2386,28.2386,5,5,32.6953,3.9719,-26.6305,-1.14534,2.09116,0.542247,1,0,105.228,-7.595,3.5875,-1.12094,1.56282,-0.31537,-0.04914,0.15638,0.45024
-13.3136,0,0,28.3136,28.3136,5,5,32.8815,3.96873,-26.6261,-2.02156,1.81251,-0.283506,1,0,107.678,-0.1225,2.7125,-2.00092,1.28173,-1.13301,-0.04914,0.15638,0.45024
-13.3896,0,0,28.3896,28.3896,5,5,33.0703,3.95295,-26.6284,-2.02129,1.81528,-0.28528,1,0,109.428,-8.4175,3.4825,-2.00092,1.28173,-1.13301,-0.04914,0.15638,0.45024
-13.4812,0,0,28.4812,28.4812,5,5,33.2978,3.93752,-26.6239,0.121136,-0.61111,-0.579682,1,0,130.865,-6.0725,6.685,0.150304,-1.14546,-1.42301,-0.04914,0.15638,0.45024
-13.5806,0,0,28.5806,28.5806,5,5,33.5452,3.92319,-26.6234,0.121385,-0.607506,-0.58204,1,0,142.135,-6.7725,4.445,0.150304,-1.14546,-1.42301,-0.04914,0.15638,0.45024
-13.6758,0,0,28.6758,28.6758,5,5,33.7819,3.91584,-26.6227,1.43259,0.0605435,0.0162861,1,0,136.15,-3.3075,2.275,1.46693,-0.481534,-0.827038,-0.04914,0.15638,0.45024
-13.7526,0,0,28.7526,28.7526,5,5,33.9725,3.90278,-26.6225,1.43281,0.0633077,0.0144489,1,0,110.32,-6.23,3.92,1.46693,-0.481534,-0.827038,-0.05628,0.1519,0.45444
-13.8321,0,0,28.8321,28.8321,5,5,34.1701,3.88501,-26.621,0.294195,-0.732051,-0.817978,1,0,114.17,-8.085,6.09,0.323178,-1.27893,-1.65115,-0.05628,0.1519,0.45444
-13.9145,0,0,28.9145,28.9145,5,5,34.3747,3.88305,-26.6183,0.29423,-0.729105,-0.819983,1,0,118.09,0,1.5225,0.323178,-1.27893,-1.65115,-0.05628,0.1519,0.45444
-13.9984,0,0,28.9984,28.9984,5,5,34.5833,3.86768,-26.6219,1.3609,0.990757,-1.31419,1,0,120.54,-8.5575,2.9225,1.39409,0.43615,-2.13951,-0.05628,0.1519,0.45444
-14.1003,0,0,29.1003,29.1003,5,5,34.8366,3.84917,-26.6175,1.36122,0.994395,-1.31668,1,0,145.303,-7.3675,7.8575,1.39409,0.43615,-2.13951,-0.05628,0.1519,0.45444
-14.2018,0,0,29.2018,29.2018,5,5,35.0891,3.83187,-26.6173,-1.51198,-0.0110018,-0.276088,1,0,145.005,-8.2075,5.425,-1.49157,-0.571814,-1.10447,-0.05628,0.1519,0.45444
-14.2953,0,0,29.2953,29.2953,5,5,35.3216,3.83453,-26.6162,-1.51203,-0.00769452,-0.278425,1,0,133.805,1.715,-0.7875,-1.49157,-0.571814,-1.10447,-0.05628,0.1519,0.45444
-14.3814,0,0,29.3814,29.3814,5,5,35.5356,3.82264,-26.6192,0.294553,1.31786,-1.34273,1,0,123.55,-6.615,2.205,0.322446,0.749324,-2.15842,-0.05628,0.1519,0.45444
-14.4664,0,0,29.4664,29.4664,5,5,35.7466,3.80934,-26.613,0.294784,1.32085,-1.34485,1,0,121.503,-4.1825,7,0.322446,0.749324,-2.15842,-0.05628,0.1519,0.45444
-14.5551,0,0,29.5551,29.5551,5,5,35.9669,3.80312,-26.6072,0.61197,0.0142826,-0.615799,1,0,126.805,-0.8925,4.4625,0.640866,-0.559004,-1.43277,-0.05138,0.13384,0.46452
-14.6493,0,0,29.6493,29.6493,5,5,36.2013,3.78861,-26.6015,0.059463,0.104056,-0.259302,1,0,134.628,-4.8475,7.245,0.085766,-0.472628,-1.07665,-0.05138,0.13384,0.46452
-14.749,0,0,29.749,29.749,5,5,36.4492,3.76968,-26.5977,0.0597927,0.107547,-0.261842,1,0,142.31,-7.5775,7.875,0.085766,-0.472628,-1.07665,-0.05138,0.13384,0.46452
-14.8537,0,0,29.8537,29.8537,5,5,36.7095,3.76049,-26.5966,-1.72795,0.215857,0.750035,1,0,149.38,-3.8675,3.3075,-1.70971,-0.368074,-0.069906,-0.05138,0.13384,0.46452
-14.9526,0,0,29.9526,29.9526,5,5,36.9554,3.752,-26.5923,-1.7278,0.219291,0.747476,1,0,141.19,-2.415,4.55,-1.70971,-0.368074,-0.069906,-0.05138,0.13384,0.46452
-15.0393,0,0,30.0393,30.0393,5,5,37.1706,3.73383,-26.589,-1.19878,0.892159,-0.699166,1,0,123.988,-7.28,7.49,-1.17876,0.301096,-1.50316,-0.05138,0.13384,0.46452
-15.1296,0,0,30.1296,30.1296,5,5,37.3951,3.72153,-26.5826,-1.19857,0.895278,-0.701522,1,0,129.062,-3.4125,6.8775,-1.17876,0.301096,-1.50316,-0.05138,0.13384,0.46452
-15.2272,0,0,30.2272,30.2272,5,5,37.6376,3.7101,-26.5815,-0.763814,1.28163,-1.17412,1,0,139.388,-4.865,4.1475,-0.74237,0.683688,-1.96957,-0.05138,0.13384,0.46452
-15.3254,0,0,30.3254,30.3254,5,5,37.8816,3.68951,-26.5755,-0.763456,1.285,-1.1767,1,0,140.053,-7.2975,9.73,-0.74237,0.683688,-1.96957,-0.04732,0.1197,0.47334
-15.4365,0,0,30.4365,30.4365,5,5,38.1581,3.67035,-26.5743,-0.222146,-0.730559,0.172661,1,0,158.428,-8.3475,7.0175,-0.199104,-1.33358,-0.62769,-0.04732,0.1197,0.47334
-15.5462,0,0,30.5462,30.5462,5,5,38.4309,3.66821,-26.5746,-0.222109,-0.726828,0.169718,1,0,156.45,-1.0675,0.175,-0.199104,-1.33358,-0.62769,-0.04732,0.1197,0.47334
-15.6469,0,0,30.6469,30.6469,5,5,38.6811,3.65854,-26.5751,0.653242,1.14183,-1.28649,1,0,143.745,-4.5325,2.8875,0.679784,0.529724,-2.06997,-0.04732,0.1197,0.47334
-15.7438,0,0,30.7438,30.7438,5,5,38.9218,3.63736,-26.5734,0.653611,1.14511,-1.2891,1,0,138.355,-8.9775,8.1025,0.679784,0.529724,-2.06997,-0.04732,0.1197,0.47334
-15.8467,0,0,30.8467,30.8467,5,5,39.1776,3.62244,-26.5709,-0.23346,0.128823,0.101977,1,0,146.808,-5.81,6.195,-0.211304,-0.488976,-0.68686,-0.04732,0.1197,0.47334
-15.9536,0,0,30.9536,30.9536,5,5,39.4435,3.60698,-26.5687,-0.233191,0.132417,0.0990559,1,0,152.46,-6.16,6.2475,-0.211304,-0.488976,-0.68686,-0.04732,0.1197,0.47334
-16.0644,0,0,31.0644,31.0644,5,5,39.7191,3.58524,-26.567,0.101516,0.650041,0.956779,1,0,157.885,-9.1175,8.435,0.12444,0.0244,0.167262,-0.04732,0.1197,0.47334
-16.1792,0,0,31.1792,31.1792,5,5,40.0046,3.57867,-26.5707,0.101631,0.653863,0.953596,1,0,163.66,-4.27,0.385,0.12444,0.0244,0.167262,-0.04928,0.10766,0.48846
-16.2902,0,0,31.2902,31.2902,5,5,40.2804,3.57348,-26.5755,-1.22004,-1.21723,0.307113,1,0,158.305,-4.0775,-0.6125,-1.20292,-1.84842,-0.471164,-0.04928,0.10766,0.48846
-16.3958,0,0,31.3958,31.3958,5,5,40.5428,3.55098,-26.5764,-1.21965,-1.21373,0.304169,1,0,150.605,-10.325,7.6825,-1.20292,-1.84842,-0.471164,-0.04928,0.10766,0.48846
-16.4961,0,0,31.4961,31.4961,5,5,40.7922,3.52284,-26.5775,-0.187505,2.72915,-1.34344,1,0,143.29,-12.845,9.8175,-0.166896,2.08705,-2.10328,-0.04928,0.10766,0.48846
-16.6038,0,0,31.6038,31.6038,5,5,41.0598,3.51661,-26.5744,-0.187396,2.73267,-1.34649,1,0,153.44,-1.5225,3.3075,-0.166896,2.08705,-2.10328,-0.04928,0.10766,0.48846
-16.7102,0,0,31.7102,31.7102,5,5,41.3244,3.51057,-26.5735,0.617673,1.23167,-1.40657,1,0,151.76,-2.24,2.31,0.641476,0.584136,-2.15989,-0.04928,0.10766,0.48846
-16.8218,0,0,31.8218,31.8218,5,5,41.6019,3.49582,-26.5717,0.61793,1.2353,-1.40976,1,0,158.953,-5.74,6.0375,0.641476,0.584136,-2.15989,-0.04928,0.10766,0.48846
-16.9392,0,0,31.9392,31.9392,5,5,41.8938,3.48672,-26.5728,-2.00831,-0.792233,0.031628,1,0,167.178,-4.34,2.6425,-1.99604,-1.44509,-0.726266,-0.04928,0.10766,0.48846
-17.0566,0,0,32.0566,32.0566,5,5,42.1855,3.4778,-26.5741,-2.00816,-0.788452,0.0282319,1,0,167.055,-4.34,2.485,-1.99604,-1.44509,-0.726266,-0.05194,0.08764,0.48762
-17.1686,0,0,32.1686,32.1686,5,5,42.4639,3.46084,-26.5765,-0.394287,0.998929,-0.27563,1,0,159.635,-8.2075,5.2325,-0.375638,0.336842,-1.02456,-0.05194,0.08764,0.48762
-17.2805,0,0,32.2805,32.2805,5,5,42.7421,3.44414,-26.5742,-0.393996,1.00251,-0.278898,1,0,159.373,-6.2475,7.14,-0.375638,0.336842,-1.02456,-0.05194,0.08764,0.48762
-17.4014,0,0,32.4014,32.4014,5,5,43.0429,3.43709,-26.5649,0.155364,1.70235,-1.00921,1,0,171.763,0.735,6.3525,0.175924,1.03212,-1.7457,-0.05194,0.08764,0.48762
-17.5215,0,0,32.5215,32.5215,5,5,43.3414,3.42758,-26.5615,0.15553,1.70615,-1.01276,1,0,170.713,-2.625,4.83,0.175924,1.03212,-1.7457,-0.05194,0.08764,0.48762
-17.5015,0,0,32.5015,32.5015,5,5,43.2898,2.2383,-26.2129,-0.752011,0.87696,0.0248137,0,0,173.933,-3.6925,5.635,-0.756278,0.20374,-0.717482,-0.05194,0.08764,0.48762
-17.4848,0,0,32.4848,32.4848,5,5,43.2465,1.04458,-25.8572,-0.731186,0.876819,0.0257659,0,0,179.305,-9.8525,5.1975,-0.756278,0.20374,-0.717482,-0.05194,0.08764,0.48762
-17.6069,0,0,32.6069,32.6069,5,5,43.55,1.02692,-25.8562,-0.127823,0.552516,0.129097,1,0,173.6,-7.0525,7.0875,-0.15067,-0.124074,-0.611342,-0.05194,0.08764,0.48762
-17.7266,0,0,32.7266,32.7266,5,5,43.8476,0.994228,-25.8588,-0.127252,0.556277,0.125516,1,0,170.328,-14.84,11.655,-0.15067,-0.124074,-0.611342,-0.05208,0.07336,0.50134
-17.8493,0,0,32.8493,32.8493,5,5,44.1527,0.974277,-25.8519,0.646352,-1.06784,0.939675,1,0,174.458,-5.5475,10.5525,0.62586,-1.75033,0.200202,-0.05208,0.07336,0.50134
-17.9752,0,0,32.9752,32.9752,5,5,44.4658,0.96433,-25.8548,0.646526,-1.06393,0.93586,1,0,179.06,-5.2675,2.45,0.62586,-1.75033,0.200202,-0.05208,0.07336,0.50134
-18.1028,0,0,33.1028,33.1028,5,5,44.7831,0.956534,-25.8536,1.67152,1.65392,-0.0174359,1,0,181.335,-2.7125,3.255,1.65505,0.96075,-0.741882,-0.05208,0.07336,0.50134
-18.231,0,0,33.231,33.231,5,5,45.1018,0.938832,-25.8577,1.67182,1.65786,-0.0213612,1,0,182.193,-8.9775,5.18,1.65505,0.96075,-0.741882,-0.05208,0.07336,0.50134
-18.3649,0,0,33.3649,33.3649,5,5,45.4349,0.921433,-25.8594,0.993266,0.497718,-0.591788,1,0,190.208,-7.805,6.1075,0.973316,-0.202276,-1.30381,-0.05208,0.07336,0.50134
-18.4944,0,0,33.4944,33.4944,5,5,45.757,0.894614,-25.8654,0.993734,0.501656,-0.595798,1,0,184.083,-13.44,8.3125,0.973316,-0.202276,-1.30381,-0.05208,0.07336,0.50134
-18.6229,0,0,33.6229,33.6229,5,5,46.0765,0.868761,-25.8669,0.663379,0.214145,-0.536357,1,0,182.613,-11.1125,9.8,0.64111,-0.493368,-1.24086,-0.05208,0.07336,0.50134
-18.7581,0,0,33.7581,33.7581,5,5,46.4128,0.856069,-25.8616,0.663601,0.218207,-0.540594,1,0,191.975,-2.835,7.07,0.64111,-0.493368,-1.24086,-0.05208,0.07336,0.50134
-18.8879,0,0,33.8879,33.8879,5,5,46.7357,0.854056,-25.8548,1.14545,2.70321,-0.629397,1,0,184.433,2.135,3.15,1.12496,1.98518,-1.32492,-0.04508,0.05334,0.51296
-19.0244,0,0,34.0244,34.0244,5,5,47.075,0.831451,-25.8567,1.14584,2.70726,-0.633717,1,0,193.725,-9.8,8.4525,1.12496,1.98518,-1.32492,-0.04508,0.05334,0.51296
-19.1685,0,0,34.1685,34.1685,5,5,47.4335,0.801769,-25.8615,1.09728,1.82792,-0.686626,1,0,204.488,-13.8075,10.395,1.07567,1.10251,-1.37287,-0.04508,0.05334,0.51296
-19.3132,0,0,34.3132,34.3132,5,5,47.7934,0.776323,-25.864,1.09772,1.83216,-0.691261,1,0,205.293,-11.0775,9.555,1.07567,1.10251,-1.37287,-0.04508,0.05334,0.51296
-19.4579,0,0,34.4579,34.4579,5,5,48.1534,0.746345,-25.8644,0.335682,2.46447,-0.253432,1,0,205.293,-11.9,12.39,0.30988,1.72996,-0.933788,-0.04508,0.05334,0.51296
-19.5994,0,0,34.5994,34.5994,5,5,48.5055,0.725857,-25.8593,0.33604,2.46856,-0.258018,1,0,200.795,-5.6525,10.5175,0.30988,1.72996,-0.933788,-0.04508,0.05334,0.51296
-19.7397,0,0,34.7397,34.7397,5,5,48.8542,0.715987,-25.8651,-0.206465,2.63525,-1.75149,1,0,199.01,-6.335,1.645,-0.235094,1.89246,-2.41121,-0.04508,0.05334,0.51296
-19.8725,0,0,34.8725,34.8725,5,5,49.1845,0.707775,-25.8685,-0.206321,2.63903,-1.75584,1,0,188.703,-4.6025,1.89,-0.235094,1.89246,-2.41121,-0.04508,0.05334,0.51296
-20.0182,0,0,35.0182,35.0182,5,5,49.5469,0.677017,-25.8714,1.08209,0.801974,-1.24413,1,0,206.675,-12.9675,12.0925,1.05823,0.053192,-1.89869,-0.04242,0.03612,0.52094
-20.3803,0,0,35.3803,35.3803,5,5,50.4501,-0.899132,-25.3541,-0.969513,0.672962,0.886382,0,0,212.45,-15.3825,7.4375,-1.02968,-0.085766,0.227408,-0.04242,0.03612,0.52094
-20.7456,0,0,35.7456,35.7456,5,5,51.3616,-2.47453,-24.8412,-0.94203,0.682361,0.873531,0,0,217.735,-6.37,6.5625,-1.02968,-0.085766,0.227408,-0.04242,0.03612,0.52094
-20.8936,0,0,35.8936,35.8936,5,5,51.7296,-2.48761,-24.8388,-1.20919,1.05651,0.674856,1,0,209.86,-3.605,6.4225,-1.2982,0.284016,0.035258,-0.04242,0.03612,0.52094
-21.0394,0,0,36.0394,36.0394,5,5,52.0921,-2.49603,-24.8405,-1.20904,1.0604,0.669877,1,0,206.658,-3.7625,2.835,-1.2982,0.284016,0.035258,-0.04242,0.03612,0.52094
-21.1813,0,0,36.1813,36.1813,5,5,52.4449,-2.50011,-24.8414,-0.417859,0.0597959,0.808737,1,0,201.215,-1.8375,1.12,-0.503738,-0.719312,0.177876,-0.04242,0.03612,0.52094
-21.3375,0,0,36.3375,36.3375,5,5,52.8335,-2.53208,-24.8446,-0.417302,0.0638884,0.803337,1,0,221.27,-12.7575,13.3,-0.503738,-0.719312,0.177876,-0.04242,0.03612,0.52094
-21.4955,0,0,36.4955,36.4955,5,5,53.2264,-2.55775,-24.8447,-2.06469,-0.0610956,0.902972,1,0,223.738,-9.03,11.515,-2.15855,-0.848266,0.282186,-0.04242,0.03612,0.52094
-21.664,0,0,36.664,36.664,5,5,53.6457,-2.57621,-24.8422,-2.06436,-0.0567515,0.897091,1,0,238.63,-5.25,9.065,-2.15855,-0.848266,0.282186,-0.04396,0.01274,0.52836
-21.825,0,0,36.825,36.825,5,5,54.0462,-2.59176,-24.8346,-0.591808,0.427194,0.757186,1,0,228.2,-1.6975,9.5375,-0.680028,-0.368928,0.148962,-0.04396,0.01274,0.52836
-21.9791,0,0,36.9791,36.9791,5,5,54.4294,-2.60009,-24.8298,-0.591663,0.431093,0.751762,1,0,218.383,-0.525,5.145,-0.680028,-0.368928,0.148962,-0.04396,0.01274,0.52836
-22.1314,0,0,37.1314,37.1314,5,5,54.8081,-2.60301,-24.8269,0.476126,0.142298,-0.701464,1,0,215.863,0.4725,1.96,0.39223,-0.66124,-1.28771,-0.04396,0.01274,0.52836
-22.2954,0,0,37.2954,37.2954,5,5,55.216,-2.62846,-24.8363,0.47657,0.14636,-0.707302,1,0,231.91,-13.0025,8.5925,0.39223,-0.66124,-1.28771,-0.04396,0.01274,0.52836
-22.5142,0,0,37.5142,37.5142,5,5,55.7609,-4.09525,-24.7869,-0.800566,1.42257,0.761988,0,0,232.908,-14.4725,10.115,-0.915976,0.609512,0.178852,-0.04396,0.01274,0.52836
-22.7553,0,0,37.7553,37.7553,5,5,56.3614,-5.57918,-24.7369,-0.774759,1.42659,0.752105,0,0,257.6,-9.485,6.65,-0.915976,0.609512,0.178852,-0.04396,0.01274,0.52836
-22.9291,0,0,37.9291,37.9291,5,5,56.794,-5.59513,-24.7344,0.431749,2.61668,-0.436085,1,0,246.103,-3.85,8.155,0.295362,1.79425,-0.993934,-0.04396,0.01274,0.52836
-23.0878,0,0,38.0878,38.0878,5,5,57.1886,-5.60745,-24.7311,0.431963,2.6204,-0.441844,1,1,224.875,-2.2925,6.6325,0.295362,1.79425,-0.993934,-0.04662,-0.00294,0.53788
-23.2519,0,0,38.2519,38.2519,5,5,57.5966,-5.62191,-24.7338,-0.247255,-1.24099,-1.05114,1,1,232.085,-5.7925,5.8625,-0.386984,-2.06692,-1.59259,-0.04662,-0.00294,0.53788
-23.4224,0,0,38.4224,38.4224,5,5,58.0208,-5.65358,-24.7453,-0.246705,-1.23711,-1.0574,1,1,240.625,-15.505,11.655,-0.386984,-2.06692,-1.59259,-0.04662,-0.00294,0.53788
-23.5926,0,0,38.5926,38.5926,5,5,58.4441,-5.6918,-24.7596,-2.78813,0.618507,0.132973,1,1,239.995,-18.83,14.1575,-2.93983,-0.217038,-0.405162,-0.04662,-0.00294,0.53788
-23.7885,0,0,38.7885,38.7885,5,5,58.9315,-5.71823,-24.7652,-2.78767,0.622868,0.125716,1,1,276.465,-10.78,11.06,-2.93983,-0.217038,-0.405162,-0.04662,-0.00294,0.53788
-23.9868,0,0,38.9868,38.9868,5,5,59.4249,-5.73509,-24.7618,-3.67228,2.79376,-1.06491,1,1,280.263,-3.3075,9.03,-3.82848,1.94724,-1.57929,-0.04662,-0.00294,0.53788
-24.1534,0,0,39.1534,39.1534,5,5,59.8392,-5.74079,-24.7541,-3.67218,2.79739,-1.07113,1,1,236.18,2.24,4.7075,-3.82848,1.94724,-1.57929,-0.04662,-0.00294,0.53788
-24.3271,0,0,39.3271,39.3271,5,5,60.2714,-5.74582,-24.7489,-2.20394,-1.63525,-2.04081,1,1,246.033,1.2425,3.64,-2.35411,-2.48453,-2.53504,-0.04662,-0.00294,0.53788
-24.5084,0,0,39.5084,39.5084,5,5,60.7221,-5.76428,-24.7516,-2.20362,-1.63142,-2.04764,1,1,256.025,-6.65,8.1725,-2.35411,-2.48453,-2.53504,-0.03682,-0.0406,0.5369
-24.683,0,0,39.683,39.683,5,5,61.1565,-5.79221,-24.7589,-3.70737,2.07264,0.125251,1,1,246.593,-11.62,11.76,-3.86472,1.21207,-0.372344,-0.03682,-0.0406,0.5369
-24.8775,0,0,39.8775,39.8775,5,5,61.6404,-5.81011,-24.7537,-3.70706,2.07663,0.117859,1,1,275.083,-2.275,10.2025,-3.86472,1.21207,-0.372344,-0.03682,-0.0406,0.5369
-25.0771,0,0,40.0771,40.0771,5,5,62.137,-5.81841,-24.7422,-3.68262,0.269667,-0.254418,1,1,282.503,3.6925,7,-3.84032,-0.597068,-0.734196,-0.03682,-0.0406,0.5369
-25.2442,0,0,40.2442,40.2442,5,5,62.5523,-5.82365,-24.7301,-3.68253,0.273006,-0.26081,1,1,237.02,4.8825,5.5475,-3.84032,-0.597068,-0.734196,-0.03682,-0.0406,0.5369
-25.4139,0,0,40.4139,40.4139,5,5,62.9742,-5.83562,-24.7306,2.06116,-3.12733,-0.938017,1,1,239.978,-3.4475,5.635,1.92748,-3.99721,-1.39971,-0.03682,-0.0406,0.5369
-25.5958,0,0,40.5958,40.5958,5,5,63.4267,-5.85452,-24.7429,2.06149,-3.12382,-0.945044,1,1,256.428,-11.305,6.2125,1.92748,-3.99721,-1.39971,-0.03682,-0.0406,0.5369
-25.7634,0,0,40.7634,40.7634,5,5,63.8433,-5.88213,-24.7575,-0.628453,3.57922,1.59386,1,1,236.198,-14.77,10.2375,-0.774334,2.69571,1.12606,-0.03682,-0.0406,0.5369
-25.9575,0,0,40.9575,40.9575,5,5,64.326,-5.90002,-24.7662,-0.628143,3.58285,1.5863,1,1,273.613,-9.0825,6.755,-0.774334,2.69571,1.12606,-0.03472,-0.06314,0.54712
-26.1506,0,0,41.1506,41.1506,5,5,64.8066,-5.90622,-24.7637,-2.41643,0.577835,0.424156,1,1,273.018,-0.1925,3.465,-2.5703,-0.309758,-0.019642,-0.03472,-0.06314,0.54712
-26.3093,0,0,41.3093,41.3093,5,5,65.2007,-5.91421,-24.7573,-2.41629,0.580714,0.417948,1,1,224.823,1.505,5.39,-2.5703,-0.309758,-0.019642,-0.03472,-0.06314,0.54712
-26.4732,0,0,41.4732,41.4732,5,5,65.6081,-5.92043,-24.7535,0.377263,-2.50775,-0.325318,1,1,232.085,0.525,3.78,0.234972,-3.39794,-0.750788,-0.03472,-0.06314,0.54712
-26.6464,0,0,41.6464,41.6464,5,5,66.0386,-5.92817,-24.7623,0.377397,-2.5047,-0.332141,1,1,244.283,-6.475,1.61,0.234972,-3.39794,-0.750788,-0.03472,-0.06314,0.54712
-26.8148,0,0,41.8148,41.8148,5,5,66.457,-5.94598,-24.7727,-0.684079,0.318348,3.05089,1,1,237.475,-9.66,6.6675,-0.831308,-0.58072,2.61275,-0.03472,-0.06314,0.54712
-26.995,0,0,41.995,41.995,5,5,66.9052,-5.95181,-24.7707,-0.683977,0.321418,3.04374,1,1,254.853,-0.245,3.15,-0.831308,-0.58072,2.61275,-0.03472,-0.06314,0.54712
-26.9667,0,0,41.9667,41.9667,5,5,66.8319,-6.7585,-24.7135,-0.667919,1.21919,-0.0158924,0,1,248.063,3.6225,-2.94,-0.829234,0.318054,-0.423828,-0.03472,-0.06314,0.54712
-26.9154,0,0,41.9154,41.9154,5,5,66.7011,-7.57796,-24.6579,-0.653729,1.21666,-0.0145145,0,1,215.758,-4.2175,1.645,-0.829234,0.318054,-0.423828,-0.03472,-0.06314,0.54712
-27.0688,0,0,42.0688,42.0688,5,5,67.0822,-7.58397,-24.6583,-0.278477,0.384742,-2.56402,1,1,217.105,-1.575,2.695,-0.452498,-0.515572,-2.94764,-0.03528,-0.0847,0.54978
-27.2232,0,0,42.2232,42.2232,5,5,67.4654,-7.57961,-24.6479,-0.278553,0.387313,-2.57013,1,1,219.1,6.6325,-0.4375,-0.452498,-0.515572,-2.94764,-0.03528,-0.0847,0.54978
-27.3823,0,0,42.3823,42.3823,5,5,67.8607,-7.58136,-24.6467,2.7551,2.13962,1.15318,1,1,225.155,0.3325,0.7875,2.59396,1.23232,0.753228,-0.03528,-0.0847,0.54978
-27.5333,0,0,42.5333,42.5333,5,5,68.2356,-7.57148,-24.647,2.75493,2.14206,1.14718,1,1,213.623,2.03,-5.845,2.59396,1.23232,0.753228,-0.03528,-0.0847,0.54978
-27.6734,0,0,42.6734,42.6734,5,5,68.5834,-7.55876,-24.6593,1.96274,3.31342,-1.20021,1,1,197.558,-3.8325,-9.94,1.79865,2.40023,-1.57051,-0.03528,-0.0847,0.54978
-27.7965,0,0,42.7965,42.7965,5,5,68.8886,-7.54649,-24.6771,1.96253,3.31537,-1.20512,1,1,173.268,-6.965,-10.8325,1.79865,2.40023,-1.57051,-0.03528,-0.0847,0.54978
-27.9246,0,0,42.9246,42.9246,5,5,69.2063,-7.52566,-24.6917,2.22713,2.75486,-3.22069,1,1,180.513,-3.5175,-14.805,2.06473,1.8383,-3.56545,-0.03528,-0.0847,0.54978
-28.0458,0,0,43.0458,43.0458,5,5,69.5066,-7.49952,-24.701,2.22668,2.75675,-3.22553,1,1,171.15,0.455,-16.5725,2.06473,1.8383,-3.56545,-0.03528,-0.0847,0.54978
-28.1729,0,0,43.1729,43.1729,5,5,69.8217,-7.47367,-24.7138,0.920257,1.76874,1.18261,1,1,179.183,-1.6625,-17.15,0.753228,0.849364,0.81374,-0.03598,-0.10262,0.54306
-28.2851,0,0,43.2851,43.2851,5,5,70.0996,-7.4419,-24.7358,0.919708,1.77045,1.17812,1,1,157.658,-5.5825,-22.2075,0.753228,0.849364,0.81374,-0.03598,-0.10262,0.54306
-28.3915,0,0,43.3915,43.3915,5,5,70.3629,-7.41028,-24.7611,-0.558349,1.58362,-0.476114,1,1,149.293,-7.49,-22.7325,-0.730536,0.661118,-0.8235,-0.03598,-0.10262,0.54306
-28.4779,0,0,43.4779,43.4779,5,5,70.5764,-7.38978,-24.795,-0.558703,1.5849,-0.47958,1,1,120.68,-14.525,-18.27,-0.730536,0.661118,-0.8235,-0.03598,-0.10262,0.54306
-28.5712,0,0,43.5712,43.5712,5,5,70.8069,-7.3665,-24.8224,-1.67179,4.59291,-1.64913,1,1,130.708,-10.43,-18.48,-1.84793,3.66464,-1.9803,-0.03598,-0.10262,0.54306
-28.6665,0,0,43.6665,43.6665,5,5,71.0425,-7.3406,-24.8353,-1.67224,4.59429,-1.65296,1,1,134.68,-2.0825,-17.15,-1.84793,3.66464,-1.9803,-0.03598,-0.10262,0.54306
-28.7621,0,0,43.7621,43.7621,5,5,71.2788,-7.31253,-24.8441,1.15376,3.27573,-1.36469,1,1,135.293,0.5425,-17.57,0.990518,2.34606,-1.69043,-0.03598,-0.10262,0.54306
-28.8269,0,0,43.8269,43.8269,5,5,71.4382,-7.29544,-24.8624,1.15346,3.27665,-1.36729,1,1,91.525,-6.79,-13.2475,0.990518,2.34606,-1.69043,-0.03598,-0.10262,0.54306
-28.8835,0,0,43.8835,43.8835,5,5,71.5769,-7.28582,-24.8838,-0.979386,1.40217,-1.03539,1,1,79.73,-9.9925,-9.695,-1.15119,0.47275,-1.35884,-0.03234,-0.11592,0.55356
-28.9471,0,0,43.9471,43.9471,5,5,71.7332,-7.28029,-24.9034,-0.979482,1.40304,-1.03795,1,1,89.6875,-9.7125,-7.0525,-1.15119,0.47275,-1.35884,-0.03234,-0.11592,0.55356
-29.0114,0,0,44.0114,44.0114,5,5,71.8913,-7.2768,-24.9162,1.23854,3.52048,-0.146836,1,1,91.175,-6.3875,-4.6725,1.07628,2.58713,-0.472018,-0.03234,-0.11592,0.55356
-29.0757,0,0,44.0757,44.0757,5,5,72.0494,-7.27329,-24.9291,1.23848,3.52133,-0.149436,1,1,91.175,-6.3875,-4.6725,1.07628,2.58713,-0.472018,-0.03234,-0.11592,0.55356
-29.1231,0,0,44.1231,44.1231,5,5,72.1651,-7.2829,-24.9303,0.751249,2.92924,-0.858548,1,1,68.25,-2.38,4.69,0.58682,1.99507,-1.17376,-0.03234,-0.11592,0.55356
-29.1704,0,0,44.1704,44.1704,5,5,72.2808,-7.29252,-24.9316,0.751415,2.92984,-0.860463,1,1,68.25,-2.38,4.69,0.58682,1.99507,-1.17376,-0.03234,-0.11592,0.55356
-29.0141,0,0,44.0141,44.0141,5,5,71.8874,-6.68171,-24.8747,0.887953,1.58399,-0.0134713,0,1,39.69,-3.78,13.23,0.734562,0.65148,-0.340136,-0.03234,-0.11592,0.55356
-28.8568,0,0,43.8568,43.8568,5,5,71.4913,-6.06479,-24.8222,0.877253,1.58297,-0.00657415,0,1,39.69,-3.78,13.23,0.734562,0.65148,-0.340136,-0.03234,-0.11592,0.55356
-28.8781,0,0,43.8781,43.8781,5,5,71.5419,-6.08587,-24.8112,0.882356,1.84835,0.858631,1,1,32.4625,2.2225,13.265,0.73932,0.916342,0.519232,-0.02716,-0.12782,0.54866
-28.8877,0,0,43.8877,43.8877,5,5,71.5632,-6.10926,-24.8027,-1.2046,3.81283,-0.635066,1,1,15.9075,0.42,14.0875,-1.35688,2.87871,-0.96258,-0.02716,-0.12782,0.54866
-28.8893,0,0,43.8893,43.8893,5,5,71.5645,-6.13179,-24.7783,1.11932,2.31675,0.591309,1,1,5.705,9.3625,16.52,0.976488,1.38421,0.25437,-0.02716,-0.12782,0.54866
-28.8958,0,0,43.8958,43.8958,5,5,71.5781,-6.15429,-24.7624,-0.228901,1.99949,0.310503,1,1,12.04,4.6725,14.945,-0.377834,1.06726,-0.024034,-0.02716,-0.12782,0.54866
-28.9026,0,0,43.9026,43.9026,5,5,71.5925,-6.17448,-24.7515,0.138336,3.51428,-0.694726,1,1,12.18,2.3625,12.7575,-0.009394,2.58042,-1.02126,-0.02716,-0.12782,0.54866
-28.9421,0,0,43.9421,43.9421,5,5,71.6885,-5.57243,-24.7494,0.846107,1.56387,0.64417,0,1,-4.235,3.7625,13.3,0.71187,0.630496,0.308538,-0.02716,-0.12782,0.54866
-28.9384,0,0,43.9384,43.9384,5,5,71.6764,-5.59002,-24.7368,-1.25237,1.70251,0.714931,1,1,-2.59,3.7975,11.62,-1.3958,0.769088,0.378566,-0.02716,-0.12782,0.54866
-28.9268,0,0,43.9268,43.9268,5,5,71.6449,-5.60536,-24.7189,0.303638,3.20056,0.0233662,1,1,-13.2475,7.14,11.34,0.16653,2.26578,-0.308172,-0.02716,-0.12782,0.54866
-28.9105,0,0,43.9105,43.9105,5,5,71.6015,-5.61627,-24.71,-0.329356,2.15503,-0.512103,1,1,-20.37,3.01,7.2625,-0.469334,1.22159,-0.840214,-0.03164,-0.13468,0.54712
-28.893,0,0,43.893,43.893,5,5,71.5551,-5.62437,-24.705,0.978821,3.04396,0.295569,1,1,-22.295,1.295,4.97,0.84424,2.10987,-0.039528,-0.03164,-0.13468,0.54712
-28.87,0,0,43.87,43.87,5,5,71.4948,-5.62779,-24.7033,0.978881,3.04363,0.29656,1,1,-30.2225,0.385,1.785,0.84424,2.10987,-0.039528,-0.03164,-0.13468,0.54712
-28.8451,0,0,43.8451,43.8451,5,5,71.4298,-5.62806,-24.7034,0.262727,3.02947,0.253,1,1,-33.005,-0.07,-0.2975,0.12505,2.09608,-0.083814,-0.03164,-0.13468,0.54712
-28.8147,0,0,43.8147,43.8147,5,5,71.3513,-5.61945,-24.6963,0.262578,3.02905,0.254297,1,1,-40.145,5.6,-3.8675,0.12505,2.09608,-0.083814,-0.03164,-0.13468,0.54712
-28.7851,0,0,43.7851,43.7851,5,5,71.2744,-5.60495,-24.6919,0.570535,1.44221,0.770109,1,1,-39.375,5.2325,-7.6125,0.434564,0.511302,0.426756,-0.03164,-0.13468,0.54712
-28.7467,0,0,43.7467,43.7467,5,5,71.1757,-5.5858,-24.7043,0.570203,1.44169,0.771742,1,1,-52.5525,-3.22,-13.335,0.434564,0.511302,0.426756,-0.03164,-0.13468,0.54712
-28.4798,0,0,43.4798,43.4798,5,5,70.5059,-5.75583,-24.6588,-0.03075,1.97093,0.00769121,0,1,-57.785,-2.1525,-12.075,-0.171898,1.04408,-0.34221,-0.03164,-0.13468,0.54712
-28.2126,0,0,43.2126,43.2126,5,5,69.8354,-5.92892,-24.6048,-0.0277446,1.96669,0.0185382,0,1,-52.7975,0.8575,-10.0975,-0.171898,1.04408,-0.34221,-0.03038,-0.1267,0.54922
-28.1728,0,0,43.1728,43.1728,5,5,69.7333,-5.91019,-24.5995,-0.406984,1.75214,-0.195931,1,1,-53.4625,6.72,-9.625,-0.552416,0.830332,-0.556686,-0.03038,-0.1267,0.54922
-28.1317,0,0,43.1317,43.1317,5,5,69.6278,-5.88965,-24.5989,-0.40734,1.75154,-0.1942,1,1,-55.6675,4.6025,-11.5325,-0.552416,0.830332,-0.556686,-0.03038,-0.1267,0.54922
-28.0869,0,0,43.0869,43.0869,5,5,69.5132,-5.87227,-24.6042,1.46057,3.14471,-1.00243,1,1,-61.075,0.7,-11.0075,1.3237,2.22272,-1.36054,-0.03038,-0.1267,0.54922
-28.0344,0,0,43.0344,43.0344,5,5,69.3793,-5.8604,-24.6108,1.46036,3.14391,-1.00025,1,1,-72.0125,-1.12,-8.26,1.3237,2.22272,-1.36054,-0.03038,-0.1267,0.54922
-27.9815,0,0,42.9815,42.9815,5,5,69.2446,-5.84935,-24.6138,0.0526339,1.3846,-1.62226,1,1,-72.205,0.7175,-7.07,-0.089792,0.46604,-1.97994,-0.03038,-0.1267,0.54922
-27.9263,0,0,42.9263,42.9263,5,5,69.1038,-5.83442,-24.5947,0.0523746,1.38376,-1.61997,1,1,-74.3575,13.5975,-4.62,-0.089792,0.46604,-1.97994,-0.03038,-0.1267,0.54922
-27.8766,0,0,42.8766,42.8766,5,5,68.9772,-5.82115,-24.5829,-0.237599,0.95457,0.0866509,1,1,-66.8675,9.275,-5.1975,-0.380762,0.038064,-0.28853,-0.03038,-0.1267,0.54922
-27.8215,0,0,42.8215,42.8215,5,5,68.8368,-5.81157,-24.5906,-0.237765,0.953709,0.0889305,1,1,-75.6525,-2.1,-7.245,-0.380762,0.038064,-0.28853,-0.03038,-0.1267,0.54922
-27.7587,0,0,42.7587,42.7587,5,5,68.6771,-5.80456,-24.5954,0.370999,1.51499,-0.957722,1,1,-86.38,-1.0675,-5.25,0.230702,0.599752,-1.32968,-0.02856,-0.1169,0.5537
-27.697,0,0,42.697,42.697,5,5,68.5204,-5.79742,-24.5893,-0.860382,1.83691,-1.72238,1,1,-84.0525,4.9,-3.01,-1.00577,0.92232,-2.09096,-0.02856,-0.1169,0.5537
-27.6334,0,0,42.6334,42.6334,5,5,68.3589,-5.78798,-24.5624,-0.860546,1.83589,-1.71977,1,1,-85.5575,16.6775,0.1925,-1.00577,0.92232,-2.09096,-0.02856,-0.1169,0.5537
-27.5903,0,0,42.5903,42.5903,5,5,68.2485,-4.86754,-24.5453,1.05751,1.07145,0.477933,0,1,-82.7575,14.1925,-0.35,0.936472,0.15799,0.087474,-0.02856,-0.1169,0.5537
-27.5382,0,0,42.5382,42.5382,5,5,68.1156,-3.95261,-24.5488,1.04159,1.07173,0.480536,0,1,-96.3025,0.63,0.2275,0.936472,0.15799,0.087474,-0.02856,-0.1169,0.5537
-27.4488,0,0,42.4488,42.4488,5,5,67.8898,-3.5983,-24.5458,0.376602,0.0568574,-0.00979382,0,1,-104.895,-0.2275,2.6075,0.274866,-0.854732,-0.402844,-0.02856,-0.1169,0.5537
-27.3679,0,0,42.3679,42.3679,5,5,67.685,-3.24595,-24.5338,0.370464,0.0558485,-0.00635196,0,1,-94.7625,5.6,2.765,0.274866,-0.854732,-0.402844,-0.02856,-0.1169,0.5537
-27.292,0,0,42.292,42.292,5,5,67.4927,-3.24141,-24.5071,-0.560439,2.02961,0.222235,1,1,-103.513,15.5225,3.0625,-0.659898,1.11825,-0.179096,-0.02856,-0.1169,0.5537
-27.2249,0,0,42.2249,42.2249,5,5,67.3222,-3.22875,-24.4865,-0.56066,2.02848,0.224983,1,1,-91.455,14.0175,-2.6425,-0.659898,1.11825,-0.179096,-0.0301,-0.10766,0.55314
-27.1535,0,0,42.1535,42.1535,5,5,67.1412,-3.21754,-24.4787,1.58713,3.57425,0.410473,1,1,-97.7375,6.825,-4.69,1.49718,2.66363,0.002074,-0.0301,-0.10766,0.55314
-27.075,0,0,42.075,42.075,5,5,66.9426,-3.22191,-24.491,1.58721,3.57289,0.413659,1,1,-108.29,-7.5775,-0.875,1.49718,2.66363,0.002074,-0.0301,-0.10766,0.55314
-26.9999,0,0,41.9999,41.9999,5,5,66.7524,-3.22443,-24.5006,-0.273664,1.68424,-2.20419,1,1,-103.495,-5.705,-1.2775,-0.371612,0.778238,-2.5986,-0.0301,-0.10766,0.55314
-26.9198,0,0,41.9198,41.9198,5,5,66.5495,-3.2169,-24.482,-0.273795,1.68285,-2.20094,1,1,-109.673,11.8125,-0.1575,-0.371612,0.778238,-2.5986,-0.0301,-0.10766,0.55314
-26.8459,0,0,41.8459,41.8459,5,5,66.3622,-3.20826,-24.4715,-0.27589,-1.02734,-0.504327,1,1,-101.238,7.7,-2.6075,-0.373564,-1.92784,-0.91805,-0.0301,-0.10766,0.55314
-26.7623,0,0,41.7623,41.7623,5,5,66.1508,-3.2033,-24.4816,-0.275976,-1.02882,-0.500954,1,1,-115.36,-4.1825,-5.4425,-0.373564,-1.92784,-0.91805,-0.0301,-0.10766,0.55314
-26.6758,0,0,41.6758,41.6758,5,5,65.9321,-3.20502,-24.4978,-1.64485,0.55166,0.553984,1,1,-119.665,-9.0125,-3.3425,-1.74826,-0.347456,0.125294,-0.0301,-0.10766,0.55314
-26.5979,0,0,41.5979,41.5979,5,5,65.7349,-3.21089,-24.5112,-1.64474,0.550248,0.557116,1,1,-107.485,-8.4875,-0.49,-1.74826,-0.347456,0.125294,-0.0357,-0.10164,0.54796
-26.5171,0,0,41.5171,41.5171,5,5,65.5304,-3.20706,-24.5097,-0.679607,1.34957,0.274264,1,1,-111.178,1.785,-2.1,-0.77897,0.452498,-0.1586,-0.0357,-0.10164,0.54796
-26.4452,0,0,41.4452,41.4452,5,5,65.3481,-3.1953,-24.5099,-0.679812,1.34826,0.277157,1,1,-98.7175,2.835,-6.7025,-0.77897,0.452498,-0.1586,-0.0357,-0.10164,0.54796
-26.3683,0,0,41.3683,41.3683,5,5,65.1534,-3.18327,-24.5173,2.14318,3.40346,-0.800843,1,1,-105.928,-0.9275,-8.61,2.05619,2.50698,-1.23135,-0.0357,-0.10164,0.54796
-26.2893,0,0,41.2893,41.2893,5,5,64.9536,-3.19413,-24.5406,2.14337,3.40198,-0.79769,1,1,-109.288,-15.015,-0.42,2.05619,2.50698,-1.23135,-0.0357,-0.10164,0.54796
-26.2125,0,0,41.2125,41.2125,5,5,64.7591,-3.20844,-24.5605,0.590914,0.42711,-3.33007,1,1,-106.208,-14.0175,2.2225,0.496906,-0.463356,-3.74723,-0.0357,-0.10164,0.54796
-26.1388,0,0,41.1388,41.1388,5,5,64.5726,-3.20206,-24.5528,0.590803,0.425725,-3.32713,1,1,-100.853,5.7225,-1.8725,0.496906,-0.463356,-3.74723,-0.0357,-0.10164,0.54796
-26.0683,0,0,41.0683,41.0683,5,5,64.3937,-3.19137,-24.5423,0.711495,1.45087,-2.64884,1,1,-96.495,8.2775,-3.43,0.618296,0.562054,-3.07696,-0.0357,-0.10164,0.54796
-25.9929,0,0,40.9929,40.9929,5,5,64.2029,-3.1941,-24.5506,0.711542,1.44942,-2.64584,1,1,-103.793,-5.005,-1.085,0.618296,0.562054,-3.07696,-0.0329,-0.08722,0.55006
-25.9155,0,0,40.9155,40.9155,5,5,64.0071,-3.20839,-24.5671,-1.28167,0.303226,0.675727,1,1,-106.82,-12.2325,2.905,-1.3836,-0.581452,0.21594,-0.0329,-0.08722,0.55006
-25.8451,0,0,40.8451,40.8451,5,5,63.8286,-3.2143,-24.5721,-1.28156,0.301853,0.678518,1,1,-96.7575,-4.1125,1.3825,-1.3836,-0.581452,0.21594,-0.0329,-0.08722,0.55006
-25.7691,0,0,40.7691,40.7691,5,5,63.6363,-3.21633,-24.5728,0.211652,-0.400884,1.65073,1,1,-104.388,-0.84,0.455,0.1159,-1.28198,1.17767,-0.0329,-0.08722,0.55006
-25.6967,0,0,40.6967,40.6967,5,5,63.4528,-3.20502,-24.5566,0.211455,-0.402298,1.65359,1,1,-98.8575,11.48,-2.135,0.1159,-1.28198,1.17767,-0.0329,-0.08722,0.55006
-25.6207,0,0,40.6207,40.6207,5,5,63.2606,-3.20419,-24.557,0.125185,2.19152,-0.533742,1,1,-104.318,0.105,-0.945,0.02928,1.31065,-0.995764,-0.0329,-0.08722,0.55006
-25.5506,0,0,40.5506,40.5506,5,5,63.083,-3.21677,-24.5739,0.125404,2.19011,-0.530985,1,1,-96.67,-12.1275,1.6625,0.02928,1.31065,-0.995764,-0.0329,-0.08722,0.55006
-25.4846,0,0,40.4846,40.4846,5,5,62.9154,-3.22855,-24.5839,-2.66006,2.65041,-1.57271,1,1,-90.79,-8.2425,3.08,-2.76818,1.77181,-2.03203,-0.0329,-0.08722,0.55006
-25.423,0,0,40.423,40.423,5,5,62.7592,-3.22802,-24.5723,-2.66007,2.64917,-1.57029,1,1,-83.7375,6.195,2.3625,-2.76818,1.77181,-2.03203,-0.02996,-0.0784,0.5432
-25.3694,0,0,40.3694,40.3694,5,5,62.6227,-3.21369,-24.5471,-0.0379261,2.71221,0.384497,1,1,-72.275,17.045,-1.1025,-0.134688,1.83586,-0.094428,-0.02996,-0.0784,0.5432
-25.3065,0,0,40.3065,40.3065,5,5,62.4632,-3.21611,-24.5407,-0.0378837,2.71092,0.386962,1,1,-85.75,2.73,2.555,-0.134688,1.83586,-0.094428,-0.02996,-0.0784,0.5432
-25.2469,0,0,40.2469,40.2469,5,5,62.3119,-3.23208,-24.5451,-0.990661,-0.642326,-1.23658,1,1,-81.515,-6.58,6.6325,-1.09178,-1.51268,-1.70776,-0.02996,-0.0784,0.5432
-25.1938,0,0,40.1938,40.1938,5,5,62.1767,-3.23457,-24.5363,-0.990617,-0.643425,-1.2345,1,1,-72.03,3.92,3.2375,-1.09178,-1.51268,-1.70776,-0.02996,-0.0784,0.5432
-25.1384,0,0,40.1384,40.1384,5,5,62.036,-3.2281,-24.5189,0.731208,0.024322,0.901691,1,1,-74.8825,10.85,0.9975,0.63745,-0.844484,0.409798,-0.02996,-0.0784,0.5432
-25.0931,0,0,40.0931,40.0931,5,5,61.9204,-3.21354,-24.5016,0.730954,0.0233885,0.903475,1,1,-60.7775,13.0025,-3.185,0.63745,-0.844484,0.409798,-0.02996,-0.0784,0.5432
-25.0438,0,0,40.0438,40.0438,5,5,61.7949,-3.20782,-24.4995,-1.5402,3.1256,0.309844,1,1,-66.8325,2.7125,-2.8,-1.64322,2.25554,-0.18117,-0.02996,-0.0784,0.5432
-25.002,0,0,40.002,40.002,5,5,61.688,-3.20919,-24.5015,-1.54018,3.12472,0.311485,1,1,-56.56,-1.365,-0.28,-1.64322,2.25554,-0.18117,-0.02996,-0.0784,0.5432
-24.9648,0,0,39.9648,39.9648,5,5,61.5928,-3.20221,-24.4968,-0.603885,3.0608,-0.263312,1,1,-49.7525,4.445,-2.695,-0.702842,2.19246,-0.752984,-0.03388,-0.0735,0.5481
-24.9312,0,0,39.9312,39.9312,5,5,61.5063,-3.18834,-24.4793,-0.604127,3.06009,-0.26198,1,1,-44.4675,12.9325,-2.6775,-0.702842,2.19246,-0.752984,-0.03388,-0.0735,0.5481
-24.8985,0,0,39.8985,39.8985,5,5,61.4224,-3.17109,-24.4602,0.853037,2.10987,-0.806948,1,1,-42.9975,14.7,-3.955,0.760792,1.24391,-1.29503,-0.03388,-0.0735,0.5481
-24.8659,0,0,39.8659,39.8659,5,5,61.3385,-3.15381,-24.4411,0.852735,2.10919,-0.805656,1,1,-42.9975,14.7,-3.955,0.760792,1.24391,-1.29503,-0.03388,-0.0735,0.5481
-24.838,0,0,39.838,39.838,5,5,61.2665,-3.15244,-24.4488,2.1011,-0.349338,-1.01123,1,1,-37.135,-3.5,-3.2725,2.01446,-1.21146,-1.50011,-0.03388,-0.0735,0.5481
-24.8101,0,0,39.8101,39.8101,5,5,61.1945,-3.15109,-24.4565,2.10107,-0.349941,-1.01013,1,1,-37.135,-3.5,-3.2725,2.01446,-1.21146,-1.50011,-0.03388,-0.0735,0.5481
